File: 01_Data/Particleboard/MCC/Particleboard_MCC_30K_min_211005_R1.txt
Sample ID:	C:\MCC\MCC Cal\Test\Particleboard_MCC_30K_min_211005_R1.txt
Sample Weight (mg):	4.63
Heating Rate (C/s):	0.5
Combustor Temp (C):	900
N2 Flow Rate (cc/min):	80
O2 Flow Rate (cc/min):	20
Calibration File:	C:\MCC\MCC Cal\Coeff1 JN10440_30_210304.txt.txt
T Correction Coefficients:	0	1.024463	0
Time Shift (s):	14
*
Time (s)	Temperature (C)	N2 flow rate (cc/min)	O2 flow rate (cc/min)	Flow Rate (cc/min)	Oxygen (%)	HRR (W/g)	Heating rate (C/s)
0.000	106.501	79.998	19.998	100.897	19.957	0.201	-0.018
2.000	106.485	79.997	19.996	100.899	19.952	0.480	0.005
4.000	106.495	79.999	19.996	100.900	19.956	0.271	0.024
6.000	106.458	79.999	19.995	100.900	19.953	0.475	0.006
8.000	106.450	80.000	19.995	100.900	19.955	0.304	-0.045
10.000	106.485	80.000	19.994	100.907	19.953	0.456	0.016
12.000	106.464	80.000	19.996	100.908	19.953	0.422	0.012
14.000	106.497	80.000	19.996	100.909	19.952	0.506	0.000
16.000	106.492	79.998	19.996	100.900	19.954	0.352	-0.004
18.000	106.484	79.997	19.996	100.901	19.956	0.237	0.008
20.000	106.478	79.999	19.996	100.908	19.954	0.401	-0.003
22.000	106.476	79.998	19.996	100.922	19.952	0.508	-0.005
24.000	106.509	79.998	19.996	100.930	19.954	0.390	-0.000
26.000	106.545	79.998	19.996	100.939	19.952	0.512	-0.009
28.000	106.540	79.998	19.995	100.941	19.949	0.691	-0.019
30.000	106.584	79.999	19.996	100.954	19.953	0.444	-0.005
32.000	106.637	79.999	19.997	100.968	19.948	0.801	0.005
34.001	106.733	79.999	19.995	100.976	19.948	0.779	0.055
36.000	106.769	80.000	19.995	100.982	19.943	1.102	0.046
38.000	106.852	80.000	19.995	100.977	19.941	1.274	0.014
40.000	106.950	79.997	19.995	100.997	19.937	1.545	0.028
42.000	107.105	79.999	19.996	101.018	19.937	1.565	0.068
44.000	107.242	79.997	19.996	101.030	19.936	1.615	0.078
46.000	107.375	79.996	19.996	101.054	19.933	1.807	0.107
48.000	107.563	79.995	19.996	101.066	19.928	2.117	0.087
50.001	107.731	79.996	19.996	101.093	19.929	2.047	0.107
52.002	108.002	79.996	19.997	101.096	19.925	2.377	0.099
54.001	108.247	79.997	19.997	101.088	19.924	2.394	0.123
56.000	108.565	79.997	19.997	101.083	19.923	2.470	0.143
58.000	108.841	79.997	19.997	101.097	19.920	2.666	0.154
60.000	109.207	79.997	19.997	101.108	19.921	2.646	0.168
62.000	109.536	79.997	19.996	101.107	19.919	2.740	0.180
64.000	109.943	79.998	19.996	101.122	19.915	3.046	0.196
66.000	110.346	79.999	19.995	101.133	19.910	3.378	0.206
68.000	110.787	79.998	19.995	101.138	19.908	3.511	0.226
70.000	111.258	79.998	19.995	101.162	19.908	3.489	0.229
72.000	111.734	79.997	19.996	101.162	19.908	3.489	0.237
74.000	112.279	79.997	19.996	101.167	19.903	3.838	0.265
76.000	112.829	79.997	19.996	101.172	19.908	3.528	0.280
78.000	113.392	79.996	19.996	101.173	19.907	3.604	0.299
80.000	113.971	79.996	19.995	101.174	19.904	3.788	0.303
82.000	114.613	79.996	19.995	101.174	19.905	3.746	0.347
84.001	115.257	79.997	19.995	101.177	19.905	3.713	0.335
86.001	115.898	79.998	19.996	101.175	19.904	3.763	0.363
88.000	116.565	79.997	19.996	101.173	19.903	3.823	0.335
90.000	117.299	79.999	19.996	101.177	19.904	3.814	0.340
92.000	118.014	79.998	19.996	101.180	19.901	3.986	0.362
94.000	118.779	79.998	19.996	101.184	19.901	3.982	0.365
96.000	119.503	79.999	19.995	101.188	19.902	3.923	0.375
98.000	120.304	79.999	19.995	101.178	19.901	3.999	0.383
100.001	121.102	79.997	19.995	101.177	19.902	3.909	0.416
102.000	121.895	79.996	19.994	101.189	19.901	3.984	0.405
104.000	122.753	79.996	19.995	101.187	19.900	4.055	0.410
106.000	123.581	79.999	19.995	101.182	19.902	3.939	0.440
108.001	124.424	79.998	19.995	101.181	19.900	4.055	0.434
110.000	125.321	79.998	19.996	101.183	19.903	3.883	0.440
112.000	126.169	79.998	19.996	101.179	19.903	3.883	0.451
114.000	127.071	79.999	19.996	101.182	19.901	3.971	0.442
116.000	127.962	79.999	19.997	101.197	19.901	4.025	0.464
118.000	128.851	79.999	19.996	101.198	19.900	4.072	0.473
120.000	129.776	79.999	19.996	101.188	19.901	3.976	0.452
122.001	130.674	79.999	19.997	101.188	19.902	3.934	0.479
124.000	131.619	79.999	19.996	101.193	19.902	3.934	0.493
126.000	132.548	79.998	19.996	101.185	19.902	3.938	0.493
128.000	133.497	79.997	19.997	101.182	19.900	4.041	0.446
130.000	134.433	79.998	19.996	101.173	19.902	3.943	0.453
132.000	135.395	79.996	19.998	101.175	19.901	4.002	0.484
134.000	136.356	79.998	19.996	101.175	19.901	3.989	0.478
136.000	137.338	79.998	19.997	101.174	19.903	3.827	0.511
138.000	138.325	79.997	19.996	101.174	19.900	4.033	0.492
140.000	139.278	79.998	19.998	101.173	19.899	4.126	0.478
142.000	140.279	79.997	19.997	101.173	19.897	4.231	0.468
144.000	141.286	79.998	19.998	101.173	19.896	4.320	0.521
146.001	142.277	79.997	19.997	101.175	19.900	4.045	0.507
148.000	143.285	79.998	19.997	101.171	19.899	4.100	0.498
150.000	144.285	79.998	19.997	101.169	19.898	4.192	0.509
152.000	145.314	79.998	19.997	101.172	19.899	4.146	0.510
154.000	146.292	79.998	19.998	101.171	19.896	4.356	0.496
156.000	147.312	79.996	19.997	101.170	19.895	4.402	0.524
158.000	148.262	79.997	19.997	101.172	19.899	4.100	0.507
160.000	149.302	79.998	19.996	101.175	19.898	4.179	0.530
162.000	150.330	79.997	19.997	101.173	19.896	4.316	0.504
164.000	151.287	79.996	19.997	101.167	19.898	4.208	0.476
166.000	152.277	79.998	19.997	101.156	19.897	4.244	0.502
168.000	153.287	79.998	19.996	101.157	19.898	4.166	0.502
170.000	154.255	79.998	19.995	101.172	19.898	4.186	0.498
172.001	155.221	79.999	19.996	101.167	19.900	4.039	0.485
174.000	156.239	79.998	19.996	101.166	19.898	4.227	0.481
176.000	157.258	79.999	19.996	101.167	19.893	4.517	0.527
178.000	158.229	79.999	19.996	101.168	19.895	4.402	0.527
180.000	159.239	79.999	19.997	101.158	19.894	4.459	0.507
182.000	160.203	79.999	19.996	101.172	19.895	4.372	0.480
184.000	161.213	79.998	19.997	101.171	19.892	4.571	0.484
186.000	162.186	79.999	19.995	101.170	19.894	4.458	0.496
188.000	163.166	79.999	19.996	101.154	19.890	4.741	0.502
190.000	164.107	79.998	19.996	101.151	19.888	4.881	0.446
192.000	165.153	79.999	19.995	101.151	19.894	4.475	0.516
194.000	166.134	79.998	19.996	101.153	19.889	4.827	0.509
196.000	167.140	80.000	19.996	101.147	19.891	4.700	0.515
198.001	168.130	80.000	19.996	101.141	19.886	4.979	0.503
200.001	169.081	80.000	19.997	101.158	19.886	5.038	0.502
202.000	170.074	80.001	19.996	101.147	19.888	4.899	0.500
204.000	171.079	80.000	19.995	101.142	19.886	5.039	0.505
206.000	172.046	80.000	19.996	101.137	19.884	5.119	0.484
208.000	173.010	80.000	19.997	101.141	19.882	5.305	0.458
210.000	173.996	80.000	19.996	101.141	19.883	5.226	0.513
212.000	174.971	79.999	19.997	101.147	19.881	5.371	0.491
214.000	175.918	79.997	19.998	101.137	19.880	5.425	0.476
216.000	176.929	79.998	19.997	101.140	19.878	5.549	0.501
218.000	177.948	79.998	19.996	101.142	19.875	5.787	0.511
220.001	178.916	79.998	19.996	101.142	19.877	5.600	0.509
222.000	179.887	79.998	19.995	101.139	19.874	5.851	0.483
224.000	180.876	79.998	19.996	101.142	19.876	5.661	0.500
226.000	181.866	79.996	19.997	101.140	19.880	5.432	0.485
228.000	182.846	79.995	19.996	101.148	19.875	5.759	0.502
230.000	183.816	79.999	19.997	101.142	19.872	5.958	0.500
232.000	184.745	79.997	19.996	101.143	19.874	5.849	0.476
234.000	185.788	79.998	19.998	101.140	19.869	6.152	0.513
236.000	186.769	79.997	19.998	101.146	19.870	6.094	0.468
238.000	187.772	79.997	19.998	101.138	19.867	6.334	0.481
240.000	188.766	79.996	19.997	101.139	19.866	6.362	0.465
242.000	189.754	79.997	19.998	101.141	19.868	6.253	0.478
244.000	190.745	79.995	19.997	101.141	19.865	6.419	0.493
246.000	191.743	79.997	19.997	101.138	19.865	6.469	0.487
248.000	192.711	79.996	19.996	101.138	19.864	6.528	0.487
250.000	193.687	79.999	19.997	101.142	19.860	6.767	0.506
252.000	194.723	79.999	19.997	101.136	19.860	6.782	0.516
254.000	195.656	79.998	19.996	101.136	19.861	6.694	0.502
256.000	196.659	80.000	19.997	101.137	19.863	6.587	0.506
258.000	197.645	80.001	19.996	101.134	19.861	6.747	0.471
260.000	198.643	79.999	19.996	101.134	19.857	6.965	0.478
262.000	199.621	79.999	19.996	101.133	19.857	6.991	0.498
264.000	200.599	80.000	19.997	101.133	19.855	7.092	0.489
266.000	201.582	79.998	19.997	101.134	19.853	7.286	0.480
268.000	202.578	79.998	19.996	101.135	19.848	7.570	0.470
270.000	203.583	80.001	19.997	101.133	19.854	7.223	0.495
272.000	204.570	80.000	19.996	101.133	19.849	7.549	0.498
274.000	205.594	79.998	19.997	101.133	19.848	7.577	0.514
276.000	206.539	80.001	19.997	101.133	19.847	7.658	0.493
278.000	207.551	79.999	19.996	101.133	19.850	7.454	0.495
280.000	208.481	80.000	19.997	101.132	19.842	8.035	0.467
282.000	209.504	80.000	19.997	101.132	19.845	7.776	0.482
284.000	210.493	79.999	19.996	101.133	19.844	7.883	0.488
286.000	211.508	80.000	19.995	101.134	19.842	7.990	0.492
288.000	212.482	80.000	19.995	101.135	19.844	7.900	0.506
290.000	213.448	79.998	19.996	101.135	19.840	8.156	0.470
292.000	214.475	79.998	19.996	101.136	19.842	8.016	0.509
294.000	215.475	79.998	19.996	101.136	19.842	8.000	0.507
296.000	216.482	79.998	19.995	101.137	19.839	8.204	0.502
298.000	217.499	79.999	19.997	101.136	19.837	8.361	0.512
300.000	218.461	79.999	19.996	101.135	19.837	8.345	0.492
302.000	219.471	79.996	19.996	101.135	19.835	8.487	0.527
304.000	220.441	79.998	19.997	101.136	19.838	8.274	0.484
306.000	221.430	79.997	19.995	101.134	19.837	8.332	0.501
308.000	222.463	79.997	19.996	101.133	19.831	8.770	0.529
310.000	223.429	79.997	19.997	101.137	19.833	8.628	0.493
312.000	224.427	79.998	19.996	101.136	19.833	8.590	0.496
314.001	225.482	80.000	19.997	101.132	19.833	8.632	0.529
316.000	226.420	79.998	19.996	101.133	19.833	8.621	0.482
318.000	227.460	79.998	19.996	101.134	19.829	8.898	0.499
320.000	228.470	79.997	19.998	101.133	19.831	8.790	0.494
322.000	229.502	79.997	19.996	101.132	19.828	8.933	0.506
324.000	230.481	79.997	19.997	101.133	19.825	9.191	0.501
326.000	231.498	79.996	19.998	101.131	19.824	9.235	0.534
328.000	232.472	79.996	19.997	101.132	19.822	9.385	0.480
330.000	233.450	79.996	19.997	101.129	19.823	9.298	0.511
332.000	234.435	79.998	19.997	101.131	19.822	9.397	0.473
334.001	235.427	79.998	19.997	101.133	19.820	9.506	0.525
336.000	236.434	79.999	19.998	101.133	19.816	9.807	0.494
338.000	237.430	79.998	19.997	101.131	19.812	10.058	0.510
340.000	238.384	79.999	19.997	101.133	19.814	9.916	0.524
342.000	239.344	79.999	19.997	101.131	19.812	10.067	0.493
344.000	240.335	80.000	19.998	101.131	19.811	10.117	0.504
346.000	241.318	80.000	19.995	101.131	19.806	10.466	0.522
348.000	242.296	79.999	19.996	101.132	19.808	10.294	0.507
350.000	243.291	79.998	19.997	101.134	19.808	10.359	0.491
352.000	244.245	79.999	19.996	101.135	19.805	10.517	0.473
354.000	245.253	79.998	19.996	101.135	19.802	10.765	0.496
356.000	246.255	79.999	19.996	101.138	19.799	10.961	0.505
358.000	247.285	79.999	19.996	101.138	19.796	11.142	0.503
360.000	248.248	79.999	19.996	101.141	19.792	11.434	0.507
362.000	249.265	79.999	19.995	101.140	19.789	11.612	0.513
364.000	250.284	79.999	19.997	101.138	19.788	11.715	0.512
366.000	251.286	80.000	19.996	101.141	19.782	12.114	0.502
368.000	252.255	80.000	19.995	101.146	19.778	12.342	0.447
370.000	253.283	80.001	19.995	101.148	19.775	12.598	0.533
372.000	254.251	79.999	19.996	101.149	19.767	13.113	0.492
374.000	255.292	79.997	19.996	101.159	19.764	13.335	0.477
376.000	256.293	79.998	19.996	101.151	19.758	13.759	0.535
378.000	257.280	79.999	19.996	101.154	19.755	13.932	0.506
380.000	258.276	79.999	19.997	101.171	19.750	14.270	0.516
382.000	259.230	79.996	19.996	101.158	19.749	14.333	0.429
384.000	260.194	79.998	19.995	101.151	19.740	14.966	0.425
386.000	261.206	79.998	19.994	101.167	19.734	15.359	0.485
388.000	262.173	79.998	19.996	101.163	19.728	15.758	0.479
390.000	263.190	79.997	19.996	101.169	19.724	16.090	0.503
392.000	264.206	79.998	19.996	101.171	19.721	16.276	0.494
394.000	265.171	79.998	19.996	101.172	19.717	16.564	0.493
396.000	266.154	79.998	19.996	101.172	19.708	17.175	0.457
398.000	267.184	79.997	19.996	101.174	19.703	17.508	0.506
400.000	268.174	79.997	19.995	101.175	19.696	17.937	0.501
402.000	269.154	79.997	19.996	101.171	19.692	18.222	0.489
404.000	270.174	79.997	19.997	101.172	19.689	18.427	0.491
406.000	271.225	79.999	19.996	101.173	19.681	18.964	0.516
408.000	272.250	79.998	19.997	101.180	19.677	19.235	0.510
410.000	273.223	79.998	19.998	101.177	19.670	19.765	0.499
412.000	274.257	79.996	19.996	101.183	19.668	19.872	0.494
414.000	275.245	79.997	19.996	101.181	19.656	20.717	0.479
416.000	276.241	79.999	19.996	101.196	19.652	20.969	0.488
418.000	277.244	80.001	19.996	101.201	19.643	21.586	0.512
420.000	278.279	79.997	19.996	101.206	19.641	21.723	0.534
422.000	279.270	79.997	19.997	101.208	19.637	21.972	0.475
424.000	280.282	79.999	19.996	101.207	19.629	22.534	0.513
426.000	281.300	79.999	19.996	101.209	19.615	23.498	0.516
428.001	282.242	79.998	19.998	101.210	19.614	23.569	0.498
430.000	283.289	79.998	19.997	101.212	19.602	24.380	0.492
432.000	284.230	79.997	19.996	101.213	19.597	24.697	0.497
434.000	285.333	79.998	19.996	101.213	19.593	25.022	0.466
436.001	286.463	79.999	19.996	101.218	19.584	25.592	0.615
438.000	287.560	80.001	19.996	101.216	19.574	26.277	0.840
440.000	288.042	80.000	19.996	101.217	19.567	26.782	0.288
442.000	289.330	79.999	19.995	101.218	19.561	27.189	0.460
444.000	290.279	80.000	19.995	101.225	19.548	28.066	0.493
446.000	291.309	80.002	19.995	101.228	19.542	28.490	0.519
448.000	292.327	79.999	19.995	101.226	19.533	29.082	0.532
450.000	293.353	80.001	19.996	101.233	19.529	29.405	0.520
452.000	294.343	80.000	19.996	101.239	19.521	29.930	0.508
454.000	295.406	79.999	19.995	101.241	19.508	30.781	0.557
456.000	296.381	80.000	19.995	101.243	19.503	31.166	0.529
458.000	297.324	79.999	19.997	101.249	19.489	32.123	0.499
460.000	298.392	79.997	19.995	101.250	19.479	32.820	0.510
462.000	299.410	79.999	19.996	101.251	19.474	33.152	0.511
464.000	300.462	80.000	19.996	101.250	19.461	34.030	0.531
466.000	301.437	79.999	19.995	101.252	19.455	34.398	0.526
468.000	302.451	79.997	19.995	101.255	19.441	35.390	0.493
470.000	303.478	79.997	19.995	101.253	19.431	36.058	0.562
472.000	304.475	79.998	19.996	101.256	19.422	36.690	0.502
474.001	305.492	80.000	19.995	101.266	19.410	37.538	0.495
476.000	306.508	80.000	19.995	101.271	19.398	38.315	0.478
478.000	307.534	80.000	19.996	101.275	19.391	38.805	0.510
480.000	308.577	80.000	19.995	101.281	19.374	39.953	0.504
482.000	309.583	79.998	19.995	101.285	19.364	40.629	0.485
484.000	310.582	79.997	19.995	101.289	19.354	41.339	0.509
486.000	311.660	79.997	19.995	101.294	19.343	42.088	0.548
488.001	312.686	79.995	19.997	101.294	19.330	42.995	0.534
490.000	313.689	79.996	19.996	101.298	19.316	43.954	0.514
492.000	314.718	79.999	19.998	101.307	19.307	44.567	0.494
494.000	315.681	79.999	19.997	101.309	19.295	45.366	0.495
496.000	316.732	79.996	19.997	101.301	19.280	46.367	0.528
498.000	317.748	79.996	19.996	101.312	19.269	47.141	0.495
500.000	318.737	79.998	19.996	101.327	19.254	48.142	0.515
502.000	319.723	79.999	19.997	101.329	19.242	48.964	0.491
504.000	320.731	79.998	19.995	101.328	19.228	49.983	0.508
506.000	321.783	80.001	19.994	101.327	19.219	50.584	0.503
508.000	322.763	80.000	19.996	101.332	19.207	51.417	0.481
510.000	323.748	79.999	19.995	101.331	19.192	52.396	0.492
512.000	324.790	79.997	19.996	101.331	19.181	53.189	0.487
514.000	325.784	79.999	19.996	101.329	19.166	54.160	0.532
516.000	326.795	79.998	19.996	101.333	19.155	54.964	0.537
518.000	327.819	79.997	19.997	101.333	19.139	56.033	0.483
520.000	328.835	79.999	19.997	101.343	19.128	56.815	0.512
522.000	329.859	79.997	19.997	101.345	19.116	57.578	0.539
524.000	330.849	79.999	19.997	101.338	19.108	58.141	0.497
526.000	331.858	80.000	19.996	101.348	19.099	58.784	0.489
528.000	332.892	80.001	19.997	101.341	19.090	59.397	0.513
530.000	333.862	80.001	19.997	101.347	19.081	59.971	0.493
532.000	334.907	80.002	19.996	101.354	19.079	60.143	0.513
534.000	335.903	80.000	19.995	101.336	19.070	60.732	0.504
536.000	336.910	80.000	19.995	101.332	19.068	60.909	0.509
538.000	337.931	79.999	19.996	101.330	19.062	61.311	0.497
540.000	338.943	79.997	19.996	101.329	19.060	61.391	0.519
542.000	339.928	79.998	19.996	101.330	19.060	61.398	0.525
544.000	340.971	79.999	19.996	101.330	19.061	61.314	0.493
546.000	341.989	79.998	19.996	101.329	19.067	60.938	0.521
548.001	342.972	79.997	19.995	101.325	19.069	60.774	0.491
550.000	343.963	79.997	19.996	101.321	19.073	60.477	0.512
552.000	345.005	79.998	19.996	101.316	19.077	60.218	0.533
554.000	346.001	79.997	19.995	101.298	19.087	59.549	0.499
556.000	347.042	79.998	19.996	101.294	19.100	58.666	0.538
558.000	347.978	79.998	19.995	101.292	19.114	57.648	0.461
560.000	349.050	79.997	19.996	101.276	19.126	56.877	0.512
562.000	350.085	80.000	19.995	101.260	19.141	55.849	0.523
564.000	351.095	79.998	19.995	101.255	19.156	54.790	0.511
566.000	352.069	79.996	19.995	101.252	19.173	53.613	0.521
568.000	353.100	79.997	19.994	101.243	19.192	52.301	0.484
570.000	354.152	79.996	19.995	101.221	19.213	50.921	0.522
572.000	355.180	79.997	19.995	101.213	19.232	49.579	0.501
574.000	356.205	79.998	19.996	101.198	19.258	47.834	0.532
576.000	357.206	79.996	19.997	101.195	19.282	46.208	0.504
578.000	358.221	79.998	19.996	101.182	19.305	44.622	0.514
580.000	359.225	79.998	19.995	101.173	19.328	43.058	0.492
582.001	360.217	79.999	19.996	101.168	19.349	41.621	0.499
584.001	361.280	79.998	19.995	101.153	19.376	39.787	0.512
586.000	362.288	79.999	19.995	101.141	19.400	38.110	0.515
588.000	363.247	80.000	19.996	101.131	19.425	36.391	0.522
590.000	364.293	79.999	19.996	101.130	19.448	34.841	0.500
592.000	365.290	80.000	19.997	101.121	19.473	33.144	0.509
594.000	366.291	79.999	19.997	101.110	19.499	31.358	0.536
596.000	367.291	80.000	19.996	101.097	19.521	29.878	0.518
598.001	368.311	79.998	19.996	101.093	19.542	28.406	0.533
600.000	369.302	79.999	19.995	101.093	19.563	26.971	0.501
602.000	370.320	79.998	19.996	101.092	19.585	25.491	0.521
604.000	371.301	80.000	19.997	101.089	19.603	24.261	0.480
606.000	372.339	79.999	19.997	101.077	19.623	22.931	0.506
608.000	373.360	79.998	19.997	101.076	19.642	21.647	0.544
610.000	374.350	80.000	19.997	101.065	19.658	20.544	0.530
612.000	375.363	79.999	19.997	101.057	19.674	19.440	0.517
614.000	376.341	79.999	19.996	101.059	19.688	18.510	0.476
616.000	377.374	79.999	19.996	101.056	19.703	17.502	0.514
618.000	378.387	80.000	19.995	101.056	19.711	16.923	0.487
620.000	379.399	80.000	19.996	101.054	19.721	16.274	0.498
622.000	380.437	79.997	19.996	101.054	19.736	15.217	0.510
624.000	381.428	79.999	19.997	101.055	19.737	15.143	0.511
626.000	382.409	79.998	19.996	101.056	19.748	14.433	0.484
628.000	383.431	79.999	19.995	101.057	19.753	14.035	0.500
630.000	384.433	79.997	19.996	101.057	19.761	13.500	0.515
632.000	385.459	79.998	19.995	101.057	19.767	13.133	0.508
634.000	386.417	79.999	19.995	101.058	19.772	12.800	0.495
636.000	387.446	79.997	19.995	101.058	19.777	12.423	0.523
638.000	388.434	79.997	19.995	101.058	19.783	12.039	0.474
640.000	389.427	79.998	19.996	101.056	19.787	11.742	0.485
642.000	390.432	79.998	19.995	101.055	19.787	11.723	0.496
644.000	391.434	79.997	19.996	101.054	19.790	11.528	0.484
646.000	392.428	79.997	19.996	101.050	19.792	11.434	0.503
648.000	393.454	79.996	19.996	101.053	19.793	11.347	0.510
650.000	394.483	79.997	19.995	101.053	19.797	11.090	0.527
652.000	395.448	79.998	19.996	101.052	19.797	11.084	0.535
654.000	396.468	79.997	19.995	101.053	19.802	10.730	0.475
656.000	397.458	79.998	19.995	101.054	19.799	10.953	0.480
658.000	398.456	79.999	19.996	101.052	19.801	10.802	0.516
660.000	399.485	79.999	19.995	101.054	19.801	10.822	0.516
662.000	400.482	79.999	19.996	101.055	19.805	10.507	0.509
664.000	401.483	79.998	19.996	101.054	19.806	10.424	0.501
666.000	402.472	79.999	19.996	101.054	19.808	10.295	0.478
668.000	403.487	80.000	19.997	101.054	19.808	10.326	0.478
670.000	404.497	80.000	19.995	101.053	19.806	10.465	0.519
672.000	405.536	79.999	19.996	101.052	19.809	10.284	0.541
674.000	406.542	79.998	19.996	101.053	19.808	10.301	0.521
676.000	407.541	79.999	19.996	101.053	19.809	10.279	0.514
678.000	408.576	79.999	19.996	101.052	19.810	10.190	0.528
680.000	409.591	79.999	19.996	101.053	19.809	10.269	0.491
682.000	410.607	79.999	19.996	101.056	19.811	10.124	0.515
684.000	411.589	79.999	19.995	101.054	19.813	10.000	0.468
686.000	412.650	79.998	19.996	101.054	19.812	10.028	0.522
688.000	413.631	79.999	19.996	101.055	19.815	9.858	0.498
690.000	414.621	80.000	19.995	101.049	19.818	9.624	0.503
692.000	415.695	79.999	19.996	101.054	19.819	9.572	0.508
694.000	416.659	80.000	19.996	101.056	19.816	9.793	0.507
696.000	417.677	79.999	19.996	101.047	19.816	9.771	0.522
698.000	418.701	80.000	19.996	101.052	19.817	9.718	0.505
700.000	419.679	79.998	19.996	101.049	19.816	9.772	0.472
702.000	420.768	79.997	19.996	101.048	19.816	9.781	0.537
704.000	421.764	79.998	19.996	101.048	19.820	9.485	0.518
706.000	422.794	79.997	19.996	101.046	19.825	9.132	0.534
708.000	423.758	79.997	19.996	101.046	19.824	9.229	0.501
710.000	424.767	79.998	19.997	101.040	19.828	8.929	0.539
712.000	425.805	79.998	19.996	101.039	19.829	8.890	0.551
714.000	426.811	79.998	19.996	101.039	19.826	9.081	0.504
716.000	427.804	80.000	19.996	101.034	19.829	8.914	0.518
718.000	428.830	79.997	19.997	101.041	19.830	8.844	0.518
720.000	429.839	79.999	19.995	101.039	19.833	8.610	0.467
722.000	430.840	79.998	19.996	101.034	19.832	8.657	0.514
724.000	431.883	79.999	19.995	101.039	19.834	8.528	0.513
726.000	432.881	79.998	19.995	101.046	19.839	8.228	0.488
728.000	433.905	79.999	19.995	101.039	19.839	8.173	0.549
730.000	434.875	79.998	19.995	101.034	19.844	7.852	0.490
732.000	435.903	79.998	19.996	101.039	19.844	7.834	0.499
734.000	436.915	79.998	19.996	101.034	19.844	7.884	0.497
736.000	437.932	79.997	19.996	101.036	19.848	7.561	0.510
738.000	438.919	79.998	19.996	101.029	19.847	7.648	0.487
740.000	439.929	79.998	19.995	101.025	19.851	7.422	0.495
742.000	440.956	79.997	19.996	101.019	19.845	7.821	0.494
744.000	441.931	79.998	19.996	101.026	19.846	7.709	0.485
746.000	442.965	79.998	19.996	101.022	19.848	7.564	0.490
748.000	443.918	79.998	19.995	101.021	19.846	7.737	0.491
750.000	444.909	80.000	19.995	101.022	19.846	7.726	0.489
752.000	445.919	80.002	19.997	101.030	19.851	7.363	0.527
754.000	446.898	80.001	19.995	101.024	19.851	7.355	0.504
756.000	447.869	79.998	19.995	101.022	19.850	7.475	0.481
758.001	448.869	79.998	19.995	101.025	19.857	6.974	0.519
760.000	449.853	79.999	19.996	101.028	19.855	7.095	0.495
762.000	450.850	79.998	19.995	101.038	19.855	7.090	0.477
764.000	451.862	79.997	19.995	101.024	19.855	7.106	0.517
766.000	452.841	80.000	19.997	101.028	19.858	6.907	0.498
768.000	453.797	79.999	19.996	101.028	19.864	6.520	0.482
770.000	454.839	79.999	19.994	101.031	19.857	6.957	0.536
772.000	455.854	80.001	19.996	101.021	19.861	6.680	0.511
774.001	456.871	80.000	19.995	101.020	19.863	6.558	0.510
776.000	457.875	80.001	19.996	101.016	19.869	6.169	0.487
778.000	458.913	80.002	19.995	101.025	19.868	6.198	0.545
780.000	459.881	80.001	19.996	101.021	19.868	6.259	0.490
782.000	460.909	80.001	19.995	101.018	19.870	6.067	0.492
784.000	461.913	80.000	19.996	101.026	19.869	6.139	0.473
786.000	462.955	79.998	19.997	101.029	19.874	5.832	0.521
788.000	463.995	79.999	19.995	101.022	19.872	5.962	0.525
790.000	464.988	79.999	19.996	101.023	19.876	5.684	0.503
792.000	465.991	79.998	19.997	101.042	19.876	5.691	0.479
794.000	467.016	79.997	19.996	101.035	19.875	5.747	0.510
796.000	468.051	79.999	19.997	101.020	19.876	5.697	0.511
798.000	469.064	79.997	19.996	101.025	19.876	5.712	0.520
800.000	470.077	79.997	19.998	101.016	19.881	5.354	0.517
802.000	471.138	79.997	19.998	101.022	19.883	5.216	0.532
804.000	472.165	79.998	19.997	101.028	19.881	5.339	0.508
806.000	473.213	79.998	19.996	101.023	19.880	5.383	0.526
808.000	474.246	79.997	19.995	101.031	19.884	5.120	0.524
810.000	475.249	79.998	19.995	101.022	19.881	5.343	0.504
812.000	476.254	79.998	19.996	101.021	19.881	5.329	0.471
814.000	477.282	79.997	19.995	101.017	19.882	5.303	0.504
816.000	478.336	79.996	19.996	101.019	19.882	5.264	0.499
818.000	479.327	79.998	19.996	101.020	19.880	5.404	0.494
820.000	480.353	79.997	19.996	101.020	19.886	5.000	0.539
822.000	481.348	79.997	19.996	101.023	19.887	4.917	0.512
824.000	482.380	79.997	19.995	101.027	19.886	4.982	0.472
826.000	483.419	79.998	19.995	101.024	19.885	5.089	0.513
828.000	484.397	79.999	19.995	101.025	19.886	5.011	0.501
830.000	485.405	79.998	19.995	101.020	19.888	4.860	0.494
832.000	486.406	79.999	19.996	101.020	19.887	4.930	0.509
834.000	487.438	80.001	19.996	101.018	19.883	5.192	0.505
836.000	488.456	79.999	19.996	101.018	19.886	5.022	0.514
838.000	489.450	80.000	19.997	101.022	19.889	4.832	0.502
840.000	490.451	79.998	19.996	101.016	19.889	4.786	0.513
842.000	491.476	80.000	19.995	101.016	19.890	4.761	0.513
844.000	492.474	80.000	19.996	101.016	19.892	4.578	0.529
846.000	493.508	80.000	19.996	101.016	19.887	4.908	0.510
848.000	494.531	80.000	19.995	101.014	19.888	4.878	0.498
850.000	495.534	79.999	19.995	101.015	19.889	4.775	0.525
852.000	496.564	79.999	19.996	101.026	19.890	4.716	0.520
854.000	497.598	79.999	19.996	101.018	19.889	4.814	0.507
856.000	498.601	79.999	19.996	101.015	19.892	4.608	0.530
858.000	499.628	80.000	19.998	101.014	19.890	4.724	0.510
860.000	500.648	80.000	19.994	101.014	19.892	4.567	0.546
862.000	501.670	80.000	19.995	101.012	19.891	4.676	0.518
864.001	502.640	80.000	19.997	101.014	19.894	4.448	0.513
866.000	503.671	79.999	19.997	101.015	19.896	4.357	0.502
868.000	504.718	79.997	19.996	101.021	19.892	4.578	0.499
870.000	505.716	79.997	19.997	101.016	19.893	4.551	0.534
872.000	506.756	79.998	19.996	101.017	19.894	4.429	0.511
874.000	507.755	79.997	19.995	101.020	19.893	4.517	0.526
876.000	508.832	79.995	19.997	101.018	19.896	4.307	0.526
878.000	509.814	79.997	19.996	101.019	19.898	4.182	0.511
880.000	510.794	79.998	19.997	101.022	19.896	4.306	0.490
882.000	511.788	79.998	19.997	101.020	19.896	4.311	0.497
884.000	512.840	79.997	19.996	101.017	19.900	4.059	0.494
886.000	513.830	79.998	19.997	101.016	19.897	4.269	0.504
888.000	514.879	79.996	19.996	101.018	19.895	4.381	0.513
890.000	515.934	79.997	19.997	101.017	19.893	4.541	0.540
892.000	516.939	79.997	19.997	101.016	19.897	4.254	0.515
894.000	517.961	79.997	19.996	101.016	19.899	4.088	0.495
896.000	519.000	79.997	19.996	101.018	19.900	4.071	0.502
898.000	520.022	79.996	19.997	101.017	19.899	4.134	0.503
900.000	521.047	79.996	19.997	101.017	19.897	4.260	0.543
902.000	522.005	79.997	19.996	101.016	19.900	4.031	0.513
904.000	523.026	79.995	19.996	101.015	19.901	4.009	0.500
906.000	524.061	79.997	19.996	101.014	19.904	3.758	0.529
908.000	525.067	79.999	19.995	101.016	19.905	3.698	0.512
910.000	526.032	79.998	19.996	101.018	19.906	3.663	0.484
912.000	527.042	79.999	19.996	101.017	19.906	3.633	0.508
914.000	528.038	79.998	19.995	101.015	19.903	3.847	0.493
916.000	529.023	79.999	19.996	101.021	19.906	3.642	0.489
918.000	530.020	80.000	19.997	101.017	19.905	3.736	0.495
920.000	531.013	79.999	19.996	101.017	19.904	3.755	0.503
922.000	531.980	80.000	19.997	101.016	19.903	3.876	0.503
924.000	532.971	79.999	19.997	101.015	19.903	3.849	0.482
926.000	534.007	80.000	19.997	101.013	19.902	3.897	0.508
928.000	534.988	79.998	19.995	101.013	19.901	3.985	0.481
930.000	536.011	80.000	19.997	101.015	19.905	3.738	0.503
932.000	537.002	79.999	19.996	101.018	19.907	3.546	0.511
934.000	537.965	80.000	19.996	101.014	19.909	3.445	0.462
936.000	538.984	80.000	19.996	101.019	19.906	3.631	0.509
938.000	539.968	80.001	19.995	101.016	19.911	3.326	0.469
940.000	540.988	80.000	19.995	101.017	19.905	3.725	0.512
942.000	542.008	80.000	19.995	101.015	19.901	4.007	0.540
944.000	542.967	80.000	19.995	101.016	19.905	3.714	0.498
946.000	543.958	80.001	19.997	101.016	19.903	3.876	0.493
948.000	544.938	79.997	19.995	101.019	19.908	3.482	0.497
950.000	545.947	79.998	19.995	101.018	19.904	3.784	0.521
952.000	546.909	79.998	19.996	101.019	19.902	3.932	0.497
954.000	547.927	79.998	19.997	101.020	19.910	3.360	0.504
956.000	548.950	79.998	19.996	101.018	19.908	3.475	0.522
958.000	549.891	79.999	19.997	101.020	19.909	3.473	0.491
960.000	550.891	79.994	19.995	101.019	19.906	3.654	0.522
962.000	551.912	79.999	19.998	101.020	19.907	3.552	0.501
964.000	552.865	79.999	19.997	101.019	19.910	3.396	0.501
966.000	553.905	79.998	19.997	101.018	19.903	3.871	0.543
968.001	554.918	79.997	19.996	101.018	19.901	3.952	0.550
970.000	555.910	79.999	19.996	101.026	19.906	3.647	0.518
972.000	556.932	80.000	19.996	101.026	19.898	4.213	0.504
974.000	557.903	79.997	19.996	101.023	19.893	4.530	0.496
976.000	558.923	80.000	19.999	101.020	19.902	3.903	0.519
978.000	559.883	79.999	19.998	101.019	19.901	4.016	0.511
980.000	560.922	79.998	19.998	101.024	19.904	3.798	0.503
982.000	561.925	79.995	19.997	101.042	19.903	3.839	0.531
984.000	562.936	79.998	19.996	101.047	19.905	3.721	0.507
986.000	563.980	79.996	19.996	101.048	19.901	4.009	0.527
988.000	565.013	79.997	19.996	101.045	19.898	4.220	0.497
990.000	566.129	79.998	19.997	101.042	19.904	3.794	0.546
992.000	567.234	79.998	19.996	101.043	19.911	3.332	0.553
994.000	568.403	79.999	19.995	101.045	19.902	3.924	0.593
996.000	569.534	79.999	19.996	101.053	19.903	3.865	0.558
998.000	570.655	80.000	19.996	101.052	19.899	4.149	0.552
1000.000	571.788	80.000	19.995	101.046	19.906	3.616	0.568
1002.000	572.952	79.999	19.998	101.047	19.902	3.914	0.567
1004.000	574.183	80.002	19.993	101.051	19.901	4.005	0.608
1006.000	575.373	79.998	19.997	101.050	19.902	3.944	0.596
1008.000	576.538	79.998	19.996	101.050	19.903	3.840	0.588
1010.000	577.709	79.999	19.997	101.049	19.900	4.052	0.573
1012.000	578.840	79.998	19.995	101.041	19.900	4.024	0.589
1014.000	580.034	80.000	19.997	101.046	19.904	3.811	0.603
1016.000	581.241	79.998	19.994	101.050	19.900	4.021	0.602
1018.000	582.396	79.999	19.998	101.045	19.899	4.091	0.582
1020.000	583.587	80.002	19.995	101.035	19.899	4.109	0.614
1022.000	584.703	80.002	19.997	101.032	19.903	3.868	0.567
1024.000	585.875	80.000	19.994	101.032	19.903	3.875	0.557
1026.001	586.995	80.001	19.995	101.040	19.899	4.100	0.555
1028.000	588.172	80.000	19.995	101.045	19.900	4.088	0.594
1030.000	589.339	79.999	19.995	101.042	19.901	3.986	0.577
1032.000	590.511	79.998	19.994	101.031	19.897	4.242	0.578
1034.000	591.631	79.997	19.996	101.045	19.900	4.071	0.586
1036.000	592.792	79.999	19.996	101.041	19.895	4.410	0.575
1038.000	593.922	79.997	19.994	101.051	19.899	4.089	0.573
1040.000	595.113	79.998	19.997	101.052	19.899	4.152	0.605
1042.000	596.222	79.999	19.998	101.049	19.900	4.021	0.561
1044.001	597.378	79.999	19.998	101.035	19.898	4.176	0.606
1046.000	598.499	79.997	19.996	101.042	19.899	4.124	0.549
1048.000	599.603	79.998	19.998	101.045	19.896	4.327	0.563
1050.000	600.746	79.999	19.996	101.048	19.903	3.826	0.547
1052.000	601.876	79.999	19.998	101.050	19.899	4.128	0.585
1054.000	602.978	79.998	19.997	101.046	19.895	4.404	0.560
1056.000	604.118	79.998	19.996	101.035	19.895	4.384	0.529
1058.000	605.227	79.999	19.996	101.053	19.902	3.931	0.566
1060.000	606.310	79.998	19.996	101.040	19.896	4.325	0.551
1062.000	607.417	79.997	19.997	101.040	19.900	4.066	0.506
1064.000	608.574	80.000	19.996	101.036	19.896	4.327	0.543
1066.000	609.644	79.997	19.996	101.044	19.903	3.869	0.505
1068.001	610.740	79.996	19.994	101.047	19.894	4.475	0.547
1070.000	611.883	79.998	19.997	101.046	19.897	4.283	0.537
1072.000	613.012	79.997	19.996	101.051	19.902	3.909	0.559
1074.000	614.122	79.997	19.996	101.050	19.900	4.073	0.535
1076.000	615.250	79.998	19.997	101.055	19.898	4.195	0.556
1078.000	616.324	79.998	19.996	101.054	19.891	4.633	0.531
1080.000	617.425	79.999	19.996	101.049	19.898	4.167	0.547
1082.000	618.467	79.999	19.995	101.048	19.902	3.949	0.528
1084.000	619.547	79.997	19.996	101.049	19.900	4.065	0.533
1086.000	620.654	79.997	19.997	101.053	19.900	4.052	0.557
1088.000	621.724	79.998	19.997	101.056	19.901	3.974	0.507
1090.000	622.784	79.999	19.996	101.051	19.898	4.203	0.533
1092.000	623.845	79.996	19.996	101.044	19.900	4.056	0.526
1094.000	624.936	79.997	19.997	101.051	19.900	4.062	0.562
1096.000	626.008	79.998	19.998	101.036	19.895	4.363	0.538
1098.000	627.061	80.001	19.996	101.029	19.899	4.088	0.522
1100.000	628.099	79.998	19.995	101.027	19.902	3.947	0.501
1102.000	629.212	79.999	19.996	101.040	19.897	4.275	0.517
1104.000	630.223	80.001	19.995	101.026	19.899	4.153	0.505
1106.000	631.304	80.000	19.996	101.016	19.897	4.265	0.526
1108.000	632.352	80.000	19.996	101.022	19.901	3.956	0.493
1110.000	633.417	79.999	19.995	101.021	19.896	4.304	0.556
1112.000	634.470	80.000	19.997	101.029	19.894	4.443	0.551
1114.001	635.518	79.998	19.996	101.020	19.903	3.833	0.522
1116.001	636.560	79.998	19.996	101.016	19.900	4.050	0.530
1118.000	637.584	79.997	19.996	101.024	19.902	3.926	0.506
1120.001	638.574	80.000	19.996	101.019	19.903	3.878	0.524
1122.001	639.651	80.001	19.995	101.033	19.900	4.044	0.543
1124.000	640.640	79.998	19.995	101.040	19.901	3.963	0.506
1126.000	641.614	79.999	19.995	101.027	19.899	4.137	0.457
1128.000	642.686	80.001	19.996	101.019	19.900	4.031	0.501
1130.000	643.702	79.998	19.995	101.022	19.900	4.062	0.510
1132.000	644.696	79.999	19.996	101.026	19.894	4.452	0.490
1134.000	645.694	79.999	19.997	101.029	19.899	4.146	0.463
1136.000	646.709	79.997	19.996	101.038	19.898	4.156	0.503
1138.000	647.703	79.999	19.997	101.028	19.896	4.319	0.506
1140.001	648.684	79.997	19.995	101.021	19.899	4.129	0.491
1142.000	649.702	79.998	19.996	101.021	19.899	4.144	0.537
1144.000	650.721	79.998	19.996	101.027	19.896	4.291	0.501
1146.000	651.723	79.998	19.996	101.021	19.896	4.292	0.508
1148.000	652.739	79.998	19.994	101.021	19.899	4.098	0.463
1150.000	653.725	79.997	19.997	101.025	19.899	4.105	0.511
1152.000	654.761	79.998	19.996	101.030	19.906	3.655	0.508
1154.000	655.783	79.997	19.997	101.035	19.900	4.021	0.502
1156.000	656.769	79.999	19.997	101.038	19.899	4.111	0.498
1158.000	657.739	79.998	19.996	101.029	19.898	4.166	0.486
1160.000	658.745	80.000	19.997	101.019	19.899	4.134	0.508
1162.000	659.803	80.001	19.996	101.023	19.902	3.937	0.510
1164.000	660.788	80.001	19.998	101.020	19.901	3.998	0.487
1166.000	661.819	80.000	19.996	101.047	19.898	4.207	0.516
1168.000	662.815	79.999	19.997	101.028	19.900	4.044	0.499
1170.000	663.781	80.000	19.998	101.017	19.900	4.072	0.469
1172.000	664.796	79.998	19.998	101.021	19.901	3.971	0.497
1174.000	665.791	80.000	19.998	101.024	19.899	4.146	0.515
1176.000	666.840	80.000	19.996	101.024	19.899	4.103	0.525
1178.000	667.813	79.999	19.997	101.032	19.898	4.199	0.489
1180.000	668.871	79.999	19.997	101.023	19.895	4.370	0.553
1182.000	669.853	79.999	19.996	101.024	19.900	4.058	0.514
1184.000	670.877	80.000	19.995	101.024	19.900	4.041	0.509
1186.000	671.887	79.999	19.995	101.031	19.898	4.173	0.509
1188.001	672.872	80.001	19.995	101.013	19.901	3.970	0.519
1190.000	673.890	80.002	19.997	101.014	19.905	3.730	0.486
1192.001	674.991	80.000	19.995	101.031	19.901	3.983	0.516
1194.000	676.003	79.999	19.996	101.039	19.897	4.237	0.504
1196.000	677.002	79.999	19.995	101.024	19.902	3.884	0.510
1198.000	678.037	79.999	19.996	101.039	19.902	3.908	0.499
1200.000	679.069	79.997	19.995	101.047	19.903	3.854	0.523
1202.000	680.079	79.997	19.996	101.045	19.898	4.157	0.517
1204.000	681.108	79.997	19.995	101.053	19.902	3.902	0.512
1206.000	682.112	79.997	19.997	101.039	19.898	4.186	0.506
1208.000	683.152	79.999	19.996	101.022	19.900	4.059	0.512
1210.000	684.165	79.999	19.997	101.022	19.899	4.118	0.496
1212.000	685.148	80.000	19.996	101.024	19.897	4.229	0.505
1214.000	686.176	79.997	19.996	101.028	19.901	4.000	0.527
1216.000	687.189	79.999	19.996	101.023	19.899	4.136	0.506
1218.000	688.212	79.997	19.995	101.020	19.901	3.972	0.517
1220.000	689.180	80.001	19.994	101.039	19.902	3.925	0.487
1222.000	690.188	79.999	19.996	101.029	19.900	4.061	0.504
1224.000	691.172	79.997	19.995	101.026	19.897	4.269	0.461
1226.000	692.204	79.997	19.995	101.027	19.901	4.007	0.521
1228.000	693.186	79.997	19.996	101.020	19.896	4.295	0.516
1230.000	694.191	79.999	19.997	101.026	19.897	4.234	0.510
1232.000	695.209	79.996	19.996	101.026	19.900	4.059	0.505
1234.000	696.202	79.997	19.996	101.027	19.902	3.901	0.495
1236.000	697.206	79.999	19.996	101.026	19.902	3.920	0.492
1238.000	698.239	79.999	19.996	101.028	19.903	3.866	0.510
1240.000	699.236	79.998	19.997	101.030	19.902	3.926	0.476
1242.000	700.264	79.999	19.996	101.020	19.906	3.628	0.521
1244.000	701.277	80.002	19.995	101.034	19.896	4.352	0.539
1246.000	702.279	80.001	19.996	101.049	19.898	4.183	0.522
1248.001	703.281	79.999	19.995	101.038	19.905	3.720	0.517
1250.000	704.263	80.000	19.997	101.023	19.911	3.289	0.489
1252.001	705.289	80.000	19.996	101.027	19.890	4.725	0.510
1254.000	706.304	80.000	19.997	101.021	19.895	4.425	0.507
1256.000	707.302	79.999	19.996	101.029	19.905	3.693	0.527
1258.000	708.334	79.999	19.998	101.034	19.889	4.787	0.497
1260.001	709.348	79.998	19.996	101.042	19.898	4.222	0.511
1262.000	710.281	79.997	19.997	101.041	19.895	4.395	0.478
1264.000	711.276	79.998	19.996	101.034	19.893	4.520	0.484
1266.000	712.349	80.000	19.996	101.023	19.895	4.385	0.512
1268.000	713.500	80.000	19.996	101.036	19.893	4.500	0.581
1270.000	714.372	80.000	19.996	101.039	19.891	4.689	0.494
1272.000	715.377	80.001	19.996	101.039	19.896	4.330	0.482
1274.001	716.476	79.998	19.995	101.029	19.892	4.591	0.521
1276.000	717.439	79.997	19.996	101.031	19.894	4.433	0.466
1278.000	718.454	79.998	19.996	101.034	19.890	4.726	0.482
1280.000	719.483	79.997	19.995	101.030	19.896	4.332	0.503
1282.000	720.530	79.999	19.995	101.032	19.891	4.654	0.511
1284.000	721.522	79.997	19.995	101.024	19.891	4.676	0.516
1286.000	722.520	79.998	19.996	101.027	19.892	4.575	0.501
1288.000	723.538	79.998	19.998	101.035	19.893	4.556	0.506
1290.001	724.583	79.999	19.996	101.029	19.891	4.687	0.526
1292.000	725.546	79.998	19.997	101.035	19.886	5.010	0.487
1294.001	726.539	79.999	19.996	101.025	19.893	4.525	0.521
1296.000	727.539	79.999	19.996	101.031	19.889	4.769	0.502
1298.000	728.553	79.999	19.996	101.024	19.892	4.577	0.495
1300.000	729.565	79.998	19.996	101.020	19.892	4.564	0.496
1302.000	730.607	79.997	19.996	101.023	19.892	4.600	0.509
1304.000	731.576	79.998	19.995	101.028	19.891	4.651	0.499
1306.000	732.560	79.998	19.996	101.036	19.896	4.321	0.502
1308.000	733.597	79.997	19.996	101.026	19.896	4.305	0.499
1310.000	734.602	79.998	19.996	101.021	19.895	4.387	0.522
1312.000	735.639	79.997	19.995	101.019	19.893	4.553	0.514
1314.000	736.626	79.999	19.996	101.020	19.890	4.757	0.488
1316.000	737.635	79.998	19.996	101.036	19.894	4.470	0.509
1318.001	738.681	79.998	19.996	101.045	19.890	4.713	0.520
1320.000	739.676	79.999	19.996	101.033	19.889	4.801	0.509
1322.000	740.747	80.000	19.997	101.035	19.891	4.666	0.526
1324.000	741.743	79.999	19.996	101.029	19.891	4.644	0.525
1326.002	742.703	79.999	19.996	101.034	19.891	4.695	0.468
1327.500	743.450	80.000	19.996	101.035	19.891	4.638	0.513