File: 01_Data/Particleboard/MCC/Particleboard_MCC_30K_min_211018_R4.txt
Sample ID:	C:\MCC\MCC Cal\Test\Particleboard\Particleboard_MCC_30K_min_211018_R4.txt
Sample Weight (mg):	4.81
Heating Rate (C/s):	0.5
Combustor Temp (C):	900
N2 Flow Rate (cc/min):	80
O2 Flow Rate (cc/min):	20
Calibration File:	C:\MCC\MCC Cal\Coeff1 JN10440_30_210304.txt.txt
T Correction Coefficients:	0	1.024463	0
Time Shift (s):	14
*
Time (s)	Temperature (C)	N2 flow rate (cc/min)	O2 flow rate (cc/min)	Flow Rate (cc/min)	Oxygen (%)	HRR (W/g)	Heating rate (C/s)
0.000	108.576	79.996	19.995	102.937	20.151	-0.115	-0.017
2.000	108.604	79.996	19.995	102.934	20.148	0.053	-0.015
4.000	108.588	79.995	19.995	102.936	20.149	0.027	-0.014
6.000	108.621	79.996	19.996	102.933	20.149	0.026	0.002
8.000	108.618	79.995	19.995	102.941	20.147	0.128	0.003
10.000	108.614	79.997	19.996	102.934	20.146	0.216	-0.010
12.000	108.633	79.997	19.996	102.955	20.144	0.348	-0.006
14.000	108.633	79.996	19.996	103.010	20.142	0.482	0.002
16.000	108.685	79.996	19.996	103.036	20.140	0.621	0.015
18.000	108.721	79.998	19.995	103.056	20.136	0.902	0.027
20.000	108.798	79.999	19.995	103.090	20.130	1.278	0.023
22.000	108.886	79.998	19.993	103.105	20.129	1.354	0.057
24.000	109.003	79.999	19.995	103.090	20.125	1.622	0.065
26.000	109.141	79.998	19.994	103.115	20.123	1.743	0.075
28.000	109.321	79.999	19.994	103.149	20.119	2.005	0.073
30.001	109.521	79.998	19.995	103.144	20.117	2.161	0.119
32.000	109.743	79.998	19.995	103.149	20.118	2.088	0.117
34.000	109.979	79.997	19.995	103.129	20.115	2.283	0.135
36.000	110.322	79.999	19.994	103.138	20.112	2.479	0.146
38.001	110.653	79.998	19.994	103.143	20.113	2.427	0.198
40.000	110.994	79.998	19.994	103.156	20.110	2.637	0.178
42.000	111.330	80.001	19.997	103.163	20.109	2.688	0.175
44.000	111.754	79.998	19.995	103.171	20.112	2.523	0.231
46.000	112.145	79.999	19.995	103.177	20.106	2.886	0.176
48.001	112.625	79.999	19.994	103.172	20.106	2.908	0.251
50.001	113.103	79.999	19.996	103.188	20.107	2.836	0.246
52.000	113.554	79.999	19.994	103.182	20.107	2.800	0.245
54.000	114.074	79.999	19.994	103.192	20.106	2.906	0.238
56.000	114.594	79.997	19.994	103.205	20.106	2.870	0.251
58.001	115.182	79.998	19.995	103.156	20.107	2.796	0.308
60.000	115.742	79.996	19.994	103.232	20.108	2.742	0.305
62.000	116.327	79.997	19.994	103.203	20.108	2.791	0.292
64.000	116.911	79.997	19.995	103.177	20.105	2.976	0.300
66.000	117.540	79.997	19.994	103.196	20.106	2.898	0.298
68.000	118.140	79.996	19.995	103.198	20.104	3.026	0.305
70.000	118.820	79.997	19.995	103.205	20.107	2.853	0.314
72.001	119.508	79.996	19.995	103.210	20.105	2.960	0.338
74.000	120.191	79.996	19.995	103.209	20.105	2.986	0.350
76.000	120.889	79.996	19.996	103.208	20.103	3.099	0.352
78.000	121.612	79.998	19.995	103.215	20.103	3.121	0.358
80.001	122.353	79.996	19.995	103.205	20.106	2.909	0.340
82.000	123.167	79.997	19.995	103.200	20.101	3.251	0.398
84.000	123.924	79.996	19.994	103.205	20.100	3.312	0.381
86.001	124.700	79.996	19.995	103.212	20.099	3.334	0.404
88.000	125.444	79.997	19.994	103.202	20.105	2.963	0.381
90.000	126.264	79.997	19.995	103.205	20.102	3.140	0.420
92.001	127.108	79.996	19.993	103.204	20.104	3.039	0.422
94.000	127.899	79.997	19.995	103.208	20.105	2.987	0.419
96.000	128.742	79.995	19.995	103.212	20.103	3.085	0.418
98.000	129.611	79.998	19.995	103.203	20.100	3.288	0.435
100.000	130.496	79.998	19.995	103.203	20.104	3.057	0.455
102.000	131.324	79.997	19.996	103.202	20.103	3.123	0.436
104.000	132.217	79.996	19.996	103.203	20.101	3.235	0.457
106.001	133.086	79.998	19.995	103.204	20.101	3.224	0.436
108.000	134.007	79.998	19.996	103.201	20.097	3.496	0.446
110.000	134.896	79.997	19.995	103.202	20.100	3.295	0.426
112.000	135.789	79.998	19.995	103.206	20.098	3.403	0.434
114.001	136.715	79.997	19.995	103.215	20.102	3.151	0.463
116.000	137.677	79.997	19.995	103.211	20.101	3.196	0.475
118.001	138.587	79.999	19.994	103.209	20.099	3.365	0.468
120.000	139.494	79.998	19.994	103.231	20.098	3.406	0.438
122.000	140.477	79.997	19.995	103.247	20.099	3.377	0.500
124.000	141.415	79.998	19.994	103.243	20.099	3.356	0.478
126.000	142.343	79.998	19.994	103.218	20.097	3.523	0.456
128.000	143.368	80.000	19.996	103.204	20.097	3.470	0.515
130.000	144.304	80.000	19.995	103.205	20.096	3.573	0.472
132.000	145.274	80.000	19.993	103.216	20.099	3.370	0.471
134.000	146.264	79.999	19.994	103.227	20.101	3.225	0.499
136.000	147.227	79.997	19.995	103.267	20.103	3.061	0.481
138.000	148.247	79.996	19.995	103.229	20.099	3.354	0.516
140.000	149.240	79.997	19.995	103.222	20.100	3.274	0.476
142.000	150.243	79.998	19.994	103.211	20.102	3.132	0.507
144.000	151.175	79.999	19.995	103.180	20.101	3.196	0.486
146.000	152.194	79.998	19.995	103.202	20.095	3.607	0.498
148.000	153.221	79.997	19.994	103.205	20.098	3.427	0.539
150.000	154.186	79.999	19.995	103.212	20.098	3.447	0.493
152.000	155.184	79.997	19.995	103.204	20.096	3.574	0.504
154.000	156.162	79.999	19.996	103.204	20.096	3.551	0.472
156.000	157.173	79.998	19.996	103.202	20.096	3.580	0.532
158.000	158.197	79.999	19.994	103.196	20.095	3.646	0.505
160.000	159.171	79.997	19.996	103.191	20.097	3.521	0.497
162.000	160.182	79.996	19.996	103.204	20.095	3.651	0.497
164.000	161.188	79.998	19.995	103.209	20.092	3.827	0.516
166.000	162.123	79.997	19.995	103.211	20.094	3.726	0.491
168.000	163.165	79.996	19.995	103.203	20.090	3.954	0.492
170.000	164.168	79.996	19.996	103.200	20.092	3.833	0.487
172.000	165.199	79.996	19.995	103.193	20.092	3.855	0.508
174.000	166.222	79.995	19.996	103.190	20.090	3.978	0.482
176.000	167.200	79.997	19.996	103.204	20.094	3.727	0.475
178.000	168.225	79.996	19.995	103.202	20.088	4.081	0.496
180.000	169.215	79.998	19.995	103.202	20.089	4.029	0.512
182.000	170.237	80.000	19.994	103.204	20.085	4.270	0.522
184.000	171.247	79.999	19.995	103.190	20.082	4.520	0.522
186.000	172.242	79.996	19.995	103.180	20.084	4.364	0.490
188.000	173.215	79.999	19.995	103.170	20.080	4.661	0.482
190.000	174.253	79.998	19.996	103.170	20.081	4.547	0.543
192.000	175.193	79.997	19.995	103.166	20.081	4.536	0.441
194.000	176.210	79.996	19.995	103.187	20.082	4.475	0.512
196.000	177.164	79.996	19.995	103.201	20.080	4.620	0.490
198.000	178.169	79.996	19.994	103.201	20.079	4.691	0.522
200.000	179.198	79.996	19.995	103.178	20.076	4.889	0.512
202.000	180.160	79.997	19.995	103.175	20.076	4.921	0.510
204.000	181.200	79.999	19.994	103.170	20.076	4.886	0.531
206.000	182.148	79.999	19.994	103.180	20.075	4.980	0.500
208.000	183.158	80.000	19.994	103.169	20.071	5.211	0.496
210.000	184.147	79.999	19.994	103.168	20.070	5.284	0.484
212.000	185.134	80.000	19.995	103.176	20.066	5.570	0.525
214.000	186.158	79.999	19.994	103.176	20.068	5.429	0.536
216.000	187.172	79.998	19.995	103.192	20.066	5.535	0.496
218.000	188.155	79.996	19.996	103.173	20.065	5.639	0.469
220.000	189.190	79.997	19.996	103.181	20.065	5.609	0.508
222.000	190.166	79.998	19.996	103.189	20.064	5.718	0.502
224.000	191.195	79.998	19.995	103.243	20.062	5.861	0.526
226.000	192.188	79.997	19.995	103.188	20.063	5.762	0.504
228.000	193.158	79.997	19.996	103.175	20.060	5.963	0.495
230.000	194.173	79.997	19.995	103.165	20.061	5.896	0.506
232.000	195.140	79.998	19.995	103.161	20.061	5.896	0.475
234.000	196.137	79.998	19.996	103.172	20.058	6.113	0.489
236.000	197.113	79.997	19.995	103.170	20.056	6.246	0.515
238.000	198.146	79.999	19.995	103.174	20.058	6.130	0.515
240.000	199.121	79.997	19.995	103.165	20.056	6.230	0.505
242.000	200.123	79.997	19.995	103.188	20.054	6.342	0.494
244.000	201.145	79.997	19.995	103.196	20.057	6.164	0.528
246.000	202.119	79.998	19.994	103.184	20.053	6.416	0.468
248.000	203.128	79.998	19.995	103.205	20.054	6.358	0.510
250.000	204.116	79.996	19.996	103.193	20.049	6.681	0.502
252.000	205.112	79.996	19.995	103.177	20.050	6.626	0.508
254.000	206.073	79.997	19.996	103.173	20.048	6.799	0.482
256.000	207.115	79.996	19.994	103.189	20.052	6.504	0.509
258.000	208.127	79.997	19.995	103.167	20.052	6.482	0.515
260.000	209.111	79.997	19.995	103.170	20.049	6.702	0.509
262.000	210.065	79.997	19.996	103.189	20.050	6.653	0.460
264.000	211.077	79.998	19.994	103.187	20.047	6.847	0.514
266.000	212.065	80.000	19.996	103.148	20.043	7.076	0.501
268.000	213.004	79.998	19.995	103.150	20.044	7.055	0.500
270.000	214.061	80.000	19.995	103.163	20.043	7.124	0.497
272.000	215.050	79.999	19.995	103.165	20.044	7.034	0.514
274.000	216.035	79.998	19.995	103.165	20.041	7.238	0.500
276.000	217.040	79.997	19.995	103.161	20.038	7.408	0.513
278.000	218.017	79.998	19.995	103.160	20.042	7.191	0.506
280.000	218.998	79.998	19.996	103.160	20.042	7.149	0.462
282.000	220.011	79.998	19.996	103.165	20.041	7.224	0.490
284.000	220.989	79.998	19.996	103.166	20.039	7.358	0.485
286.000	221.968	79.999	19.996	103.175	20.038	7.429	0.487
288.000	223.000	80.000	19.996	103.156	20.036	7.564	0.488
290.000	223.974	80.000	19.996	103.157	20.039	7.391	0.509
292.000	224.927	79.999	19.995	103.158	20.035	7.671	0.466
294.000	226.029	80.000	19.995	103.153	20.034	7.707	0.557
296.000	226.977	80.000	19.995	103.155	20.030	7.949	0.486
298.000	227.990	79.998	19.994	103.144	20.028	8.122	0.517
300.000	229.047	79.998	19.994	103.143	20.029	8.058	0.507
302.000	230.038	79.996	19.994	103.154	20.027	8.166	0.485
304.000	231.040	79.997	19.995	103.159	20.025	8.286	0.511
306.000	232.040	79.997	19.995	103.181	20.027	8.183	0.499
308.000	232.990	79.997	19.994	103.191	20.024	8.383	0.477
310.000	234.008	79.998	19.994	103.177	20.020	8.629	0.500
312.000	235.006	79.997	19.995	103.168	20.022	8.546	0.529
314.000	236.029	79.999	19.994	103.166	20.020	8.654	0.506
316.000	237.004	79.996	19.995	103.160	20.018	8.800	0.518
318.000	237.996	79.997	19.995	103.158	20.017	8.857	0.494
320.000	239.030	79.997	19.994	103.159	20.014	9.054	0.504
322.000	239.929	79.996	19.995	103.180	20.015	8.956	0.462
324.000	240.933	79.998	19.994	103.179	20.015	8.995	0.472
326.000	241.920	79.996	19.995	103.183	20.013	9.104	0.503
328.000	242.935	79.997	19.995	103.172	20.011	9.276	0.509
330.000	243.932	79.998	19.994	103.174	20.006	9.562	0.500
332.000	244.943	79.997	19.995	103.191	20.002	9.831	0.505
334.000	245.953	79.997	19.994	103.161	19.998	10.107	0.516
336.000	246.954	79.998	19.994	103.147	19.999	10.043	0.530
338.000	247.940	79.998	19.994	103.178	19.994	10.396	0.491
340.000	248.939	79.999	19.995	103.170	19.989	10.691	0.489
342.000	249.985	80.001	19.995	103.168	19.986	10.892	0.519
344.000	250.998	79.999	19.995	103.190	19.983	11.137	0.497
346.000	251.989	80.000	19.995	103.193	19.982	11.195	0.503
348.000	252.995	80.000	19.996	103.196	19.977	11.519	0.484
350.000	253.972	79.999	19.996	103.184	19.975	11.654	0.483
352.000	254.991	79.999	19.996	103.192	19.971	11.939	0.528
354.000	255.964	79.999	19.995	103.191	19.969	12.083	0.458
356.000	256.976	79.999	19.995	103.173	19.961	12.568	0.486
358.000	257.975	79.999	19.995	103.187	19.960	12.670	0.502
360.000	259.028	79.999	19.995	103.180	19.954	13.077	0.508
362.000	259.983	80.000	19.995	103.167	19.951	13.249	0.467
364.000	261.002	79.999	19.996	103.189	19.944	13.707	0.502
366.000	262.057	79.999	19.995	103.207	19.942	13.885	0.538
368.000	263.027	80.000	19.996	103.202	19.935	14.368	0.533
370.000	264.051	80.000	19.995	103.203	19.927	14.869	0.514
372.000	265.013	80.000	19.995	103.211	19.926	14.931	0.488
374.000	266.070	80.000	19.996	103.209	19.915	15.676	0.523
376.000	267.062	79.999	19.996	103.220	19.914	15.744	0.489
378.000	268.036	79.999	19.996	103.213	19.909	16.098	0.496
380.000	269.082	79.996	19.996	103.201	19.904	16.401	0.520
382.000	270.122	79.996	19.996	103.206	19.901	16.619	0.509
384.000	271.113	79.997	19.996	103.220	19.891	17.299	0.519
386.000	272.133	79.997	19.996	103.206	19.890	17.370	0.506
388.000	273.120	79.998	19.995	103.210	19.880	18.016	0.487
390.000	274.148	79.997	19.993	103.226	19.870	18.698	0.502
392.000	275.151	79.997	19.994	103.241	19.867	18.889	0.523
394.000	276.170	79.998	19.994	103.229	19.862	19.225	0.483
396.000	277.126	79.999	19.995	103.218	19.853	19.808	0.495
398.000	278.153	79.998	19.994	103.235	19.850	20.067	0.508
400.000	279.170	79.998	19.995	103.233	19.841	20.650	0.490
402.000	280.190	79.998	19.995	103.239	19.833	21.158	0.501
404.000	281.163	79.997	19.994	103.234	19.829	21.466	0.504
406.000	282.136	79.996	19.997	103.227	19.816	22.315	0.513
408.000	283.120	79.997	19.996	103.244	19.812	22.619	0.490
410.000	284.147	79.997	19.995	103.254	19.806	22.983	0.510
412.000	285.176	79.997	19.996	103.255	19.790	24.055	0.501
414.000	286.158	79.997	19.996	103.270	19.792	23.902	0.515
416.000	287.197	79.997	19.996	103.269	19.778	24.877	0.523
418.000	288.172	79.997	19.994	103.285	19.773	25.181	0.512
420.000	289.135	79.998	19.995	103.272	19.768	25.561	0.518
422.000	290.146	79.999	19.996	103.264	19.759	26.138	0.462
424.000	291.394	79.999	19.995	103.288	19.747	26.943	0.658
426.000	291.947	79.999	19.994	103.290	19.742	27.282	0.266
428.000	293.192	80.001	19.995	103.284	19.735	27.756	0.461
430.000	294.169	80.000	19.994	103.289	19.727	28.263	0.473
432.000	295.206	79.999	19.995	103.286	19.718	28.873	0.533
434.000	296.197	79.998	19.993	103.283	19.709	29.508	0.505
436.000	297.245	79.997	19.995	103.284	19.700	30.100	0.539
438.000	298.175	79.997	19.996	103.285	19.690	30.798	0.483
440.000	299.186	79.997	19.996	103.283	19.683	31.224	0.489
442.000	300.191	79.997	19.996	103.279	19.670	32.119	0.491
444.000	301.192	79.998	19.996	103.277	19.661	32.709	0.494
446.000	302.201	79.997	19.995	103.289	19.648	33.590	0.521
448.000	303.199	79.998	19.995	103.285	19.643	33.952	0.499
450.000	304.168	79.999	19.995	103.296	19.631	34.739	0.471
452.000	305.187	80.000	19.995	103.296	19.617	35.667	0.516
454.000	306.180	79.998	19.994	103.296	19.607	36.324	0.494
456.000	307.168	79.998	19.995	103.314	19.601	36.728	0.487
458.000	308.167	79.999	19.996	103.318	19.590	37.512	0.486
460.000	309.106	79.996	19.996	103.314	19.577	38.341	0.492
462.000	310.142	79.996	19.996	103.323	19.567	39.042	0.489
464.000	311.144	79.996	19.996	103.332	19.554	39.931	0.493
466.000	312.132	79.996	19.996	103.339	19.546	40.460	0.514
468.000	313.129	79.996	19.996	103.347	19.533	41.325	0.513
470.000	314.149	79.997	19.996	103.339	19.519	42.264	0.488
472.000	315.142	79.997	19.997	103.339	19.508	42.989	0.497
474.000	316.136	79.997	19.997	103.356	19.497	43.705	0.505
476.000	317.128	79.996	19.996	103.358	19.481	44.826	0.492
478.000	318.118	79.997	19.996	103.357	19.472	45.400	0.476
480.000	319.137	79.998	19.995	103.363	19.458	46.378	0.521
482.000	320.127	79.997	19.996	103.361	19.443	47.345	0.471
484.000	321.153	79.996	19.994	103.361	19.425	48.553	0.523
486.000	322.163	79.998	19.995	103.358	19.419	48.997	0.510
488.000	323.139	79.997	19.994	103.367	19.399	50.294	0.524
490.000	324.146	79.997	19.995	103.387	19.386	51.195	0.495
492.000	325.149	79.997	19.995	103.361	19.373	52.084	0.495
494.000	326.132	79.996	19.995	103.357	19.359	52.990	0.469
496.000	327.164	79.997	19.994	103.367	19.348	53.744	0.513
498.000	328.145	79.997	19.995	103.394	19.334	54.648	0.487
500.000	329.165	79.997	19.995	103.378	19.323	55.413	0.524
502.000	330.194	79.997	19.995	103.388	19.308	56.401	0.504
504.000	331.157	79.998	19.995	103.400	19.299	57.048	0.490
506.000	332.163	79.997	19.995	103.409	19.287	57.853	0.501
508.000	333.205	79.999	19.995	103.397	19.275	58.630	0.523
510.000	334.214	79.999	19.995	103.385	19.267	59.183	0.487
512.000	335.270	79.999	19.994	103.390	19.256	59.873	0.530
514.000	336.242	79.997	19.995	103.406	19.254	59.992	0.467
516.000	337.254	79.996	19.994	103.395	19.248	60.415	0.510
518.000	338.301	79.996	19.995	103.406	19.244	60.665	0.533
520.000	339.284	79.998	19.993	103.408	19.238	61.098	0.523
522.000	340.299	79.997	19.995	103.387	19.235	61.295	0.516
524.000	341.305	79.999	19.996	103.375	19.236	61.204	0.501
526.000	342.321	79.998	19.995	103.372	19.237	61.136	0.495
528.000	343.347	79.999	19.996	103.375	19.245	60.591	0.504
530.000	344.332	80.001	19.997	103.358	19.244	60.642	0.506
532.000	345.395	80.000	19.995	103.359	19.254	60.013	0.541
534.000	346.380	80.000	19.995	103.360	19.257	59.801	0.492
536.000	347.420	80.000	19.996	103.351	19.271	58.853	0.497
538.000	348.414	79.998	19.996	103.348	19.279	58.315	0.516
540.000	349.438	79.998	19.995	103.349	19.296	57.135	0.517
542.000	350.479	79.997	19.996	103.334	19.309	56.293	0.504
544.000	351.489	79.998	19.996	103.348	19.327	55.094	0.500
546.000	352.555	79.998	19.995	103.330	19.341	54.131	0.526
548.000	353.568	79.998	19.995	103.317	19.360	52.815	0.511
550.000	354.640	79.997	19.995	103.284	19.383	51.317	0.530
552.000	355.616	79.998	19.996	103.268	19.405	49.845	0.490
554.000	356.666	79.997	19.997	103.259	19.426	48.401	0.512
556.000	357.683	79.997	19.996	103.246	19.451	46.700	0.546
558.001	358.699	79.998	19.995	103.219	19.477	44.980	0.533
560.000	359.686	79.997	19.996	103.236	19.500	43.470	0.502
562.000	360.719	79.995	19.995	103.229	19.526	41.689	0.525
564.000	361.754	79.997	19.995	103.228	19.552	39.974	0.550
566.000	362.773	79.996	19.996	103.194	19.579	38.145	0.505
568.000	363.788	79.998	19.996	103.162	19.603	36.527	0.511
570.000	364.833	79.998	19.995	103.172	19.629	34.797	0.520
572.000	365.837	79.998	19.996	103.177	19.655	33.081	0.492
574.000	366.853	79.997	19.994	103.172	19.683	31.191	0.491
576.000	367.889	79.996	19.994	103.167	19.711	29.345	0.492
578.000	368.921	79.996	19.994	103.172	19.727	28.210	0.519
580.000	369.947	79.997	19.994	103.126	19.757	26.214	0.542
582.000	370.972	79.999	19.995	103.177	19.775	25.062	0.523
584.000	371.970	79.998	19.995	103.160	19.795	23.719	0.506
586.000	373.022	79.999	19.995	103.131	19.815	22.339	0.537
588.000	374.076	79.999	19.994	103.125	19.830	21.360	0.534
590.001	375.108	79.999	19.996	103.091	19.847	20.241	0.516
592.001	376.108	79.997	19.995	103.123	19.863	19.139	0.488
594.000	377.113	79.999	19.995	103.147	19.881	17.913	0.469
596.000	378.159	79.999	19.995	103.116	19.891	17.297	0.505
598.000	379.155	79.998	19.994	103.125	19.906	16.274	0.514
600.001	380.225	79.998	19.994	103.112	19.919	15.419	0.524
602.000	381.203	79.998	19.995	103.121	19.931	14.606	0.492
604.000	382.158	80.000	19.994	103.109	19.937	14.175	0.499
606.000	383.234	80.000	19.995	103.119	19.948	13.451	0.542
608.000	384.232	80.001	19.995	103.137	19.957	12.885	0.500
610.000	385.244	79.999	19.994	103.104	19.961	12.577	0.487
612.000	386.245	80.001	19.993	103.087	19.966	12.218	0.507
614.000	387.245	80.000	19.994	103.094	19.974	11.691	0.496
616.000	388.313	80.000	19.995	103.121	19.976	11.603	0.530
618.000	389.319	80.000	19.994	103.101	19.979	11.395	0.517
620.000	390.288	79.998	19.994	103.108	19.986	10.907	0.478
622.000	391.346	79.998	19.995	103.089	19.986	10.930	0.519
624.000	392.268	79.996	19.995	103.089	19.992	10.496	0.451
626.000	393.329	79.998	19.995	103.097	19.991	10.601	0.519
628.000	394.348	79.997	19.996	103.085	19.993	10.437	0.499
630.000	395.332	79.997	19.995	103.086	19.994	10.362	0.481
632.000	396.369	79.997	19.995	103.090	20.002	9.859	0.487
634.000	397.402	79.997	19.995	103.116	19.999	10.015	0.523
636.000	398.324	79.998	19.994	103.089	20.000	9.951	0.469
638.000	399.395	79.997	19.994	103.093	20.004	9.679	0.511
640.000	400.348	79.997	19.995	103.108	20.004	9.726	0.522
642.000	401.374	79.998	19.996	103.114	20.009	9.370	0.506
644.000	402.347	79.997	19.995	103.102	20.008	9.453	0.476
646.000	403.414	79.997	19.996	103.088	20.010	9.329	0.507
648.000	404.340	79.996	19.994	103.100	20.006	9.548	0.471
650.000	405.379	79.996	19.995	103.095	20.007	9.494	0.476
652.000	406.369	79.996	19.996	103.097	20.008	9.426	0.485
654.000	407.461	79.995	19.997	103.087	20.013	9.133	0.542
656.000	408.471	79.996	19.997	103.106	20.009	9.345	0.545
658.000	409.384	79.998	19.997	103.028	20.011	9.211	0.519
660.000	410.409	79.997	19.995	103.095	20.012	9.148	0.521
662.000	411.367	79.999	19.997	103.115	20.014	9.041	0.485
664.000	412.361	79.998	19.995	103.099	20.018	8.771	0.492
666.000	413.407	79.998	19.995	103.115	20.016	8.926	0.488
668.000	414.406	80.000	19.995	103.121	20.016	8.921	0.498
670.000	415.371	79.999	19.995	103.105	20.017	8.846	0.484
672.000	416.414	79.999	19.995	103.080	20.016	8.933	0.504
674.000	417.429	79.998	19.994	103.083	20.018	8.749	0.510
676.000	418.398	79.998	19.996	103.086	20.027	8.188	0.480
678.000	419.402	79.998	19.995	103.084	20.023	8.424	0.523
680.000	420.422	79.997	19.994	103.103	20.026	8.260	0.508
682.000	421.445	79.998	19.994	103.105	20.025	8.303	0.524
684.000	422.411	79.998	19.995	103.092	20.026	8.243	0.493
686.000	423.423	79.998	19.995	103.085	20.030	7.994	0.498
688.000	424.427	79.997	19.995	103.085	20.028	8.124	0.496
690.000	425.471	79.999	19.996	103.088	20.028	8.129	0.530
692.000	426.513	80.000	19.995	103.085	20.030	7.968	0.485
694.000	427.497	80.000	19.995	103.088	20.029	8.055	0.476
696.000	428.542	79.999	19.993	103.093	20.028	8.089	0.514
698.000	429.566	79.999	19.995	103.092	20.032	7.861	0.489
700.000	430.595	79.998	19.994	103.092	20.033	7.756	0.524
702.000	431.562	79.998	19.996	103.107	20.038	7.422	0.492
704.000	432.656	79.997	19.994	103.100	20.033	7.737	0.538
706.000	433.621	79.998	19.996	103.090	20.037	7.477	0.489
708.000	434.646	79.997	19.994	103.091	20.043	7.092	0.495
710.000	435.703	79.997	19.995	103.093	20.040	7.309	0.529
712.000	436.724	79.996	19.996	103.090	20.044	7.065	0.546
714.000	437.754	79.995	19.995	103.082	20.047	6.845	0.536
716.000	438.731	79.997	19.996	103.092	20.044	7.052	0.488
718.000	439.749	79.998	19.995	103.081	20.051	6.593	0.490
720.001	440.795	79.995	19.995	103.086	20.047	6.857	0.529
722.000	441.829	79.998	19.996	103.086	20.049	6.691	0.523
724.000	442.887	79.996	19.995	103.086	20.051	6.559	0.568
726.000	443.825	79.997	19.995	103.085	20.056	6.202	0.476
728.000	444.888	79.997	19.995	103.089	20.057	6.164	0.486
730.000	445.879	79.996	19.995	103.076	20.061	5.903	0.521
732.000	446.877	79.997	19.996	103.065	20.057	6.165	0.503
734.000	447.872	79.997	19.995	103.084	20.055	6.329	0.480
736.000	448.897	79.997	19.995	103.084	20.059	6.019	0.498
738.000	449.913	79.997	19.996	103.086	20.058	6.126	0.502
740.000	450.963	79.997	19.995	103.075	20.057	6.158	0.506
742.000	451.948	79.997	19.995	103.072	20.063	5.770	0.513
744.000	452.957	79.996	19.997	103.078	20.064	5.708	0.523
746.000	453.961	79.998	19.996	103.085	20.070	5.328	0.477
748.000	455.008	79.997	19.995	103.093	20.069	5.365	0.563
750.000	455.994	79.999	19.995	103.072	20.069	5.352	0.513
752.000	456.979	79.998	19.996	103.057	20.068	5.411	0.518
754.000	457.989	79.998	19.995	103.064	20.070	5.317	0.511
756.000	459.043	79.997	19.994	103.069	20.071	5.255	0.524
758.000	460.036	79.997	19.994	103.084	20.069	5.336	0.510
760.000	461.030	79.998	19.995	103.084	20.068	5.423	0.500
762.000	462.115	79.998	19.994	103.088	20.075	4.982	0.557
764.000	463.124	79.998	19.995	103.089	20.071	5.238	0.511
766.000	464.084	79.998	19.994	103.086	20.073	5.124	0.480
768.000	465.079	80.000	19.995	103.081	20.076	4.880	0.513
770.001	466.073	79.997	19.996	103.078	20.078	4.792	0.487
772.000	467.118	80.000	19.994	103.062	20.078	4.785	0.512
774.000	468.045	79.998	19.994	103.080	20.079	4.716	0.463
776.000	469.093	80.000	19.995	103.087	20.085	4.308	0.452
778.000	470.117	79.999	19.995	103.105	20.079	4.684	0.514
780.000	471.136	79.999	19.994	103.088	20.081	4.541	0.525
782.000	472.155	79.999	19.994	103.066	20.080	4.632	0.493
784.000	473.168	79.998	19.994	103.067	20.079	4.696	0.495
786.000	474.228	79.998	19.995	103.070	20.083	4.437	0.527
788.000	475.276	79.997	19.994	103.063	20.081	4.557	0.507
790.000	476.278	79.998	19.995	103.067	20.082	4.469	0.532
792.000	477.295	79.998	19.993	103.074	20.085	4.309	0.503
794.000	478.307	79.998	19.995	103.063	20.086	4.239	0.506
796.000	479.325	79.999	19.994	103.085	20.086	4.238	0.515
798.000	480.328	79.998	19.994	103.088	20.084	4.356	0.492
800.000	481.385	79.999	19.995	103.071	20.082	4.512	0.530
802.000	482.360	79.999	19.994	103.060	20.085	4.289	0.498
804.000	483.419	79.997	19.995	103.052	20.087	4.162	0.526
806.000	484.447	79.998	19.995	103.052	20.088	4.084	0.510
808.000	485.446	79.998	19.996	103.082	20.092	3.847	0.502
810.000	486.510	79.997	19.995	103.095	20.090	3.979	0.559
812.000	487.527	79.998	19.996	103.075	20.091	3.921	0.537
814.000	488.478	79.997	19.996	103.083	20.095	3.595	0.506
816.000	489.537	79.998	19.995	103.080	20.090	3.931	0.513
818.000	490.585	79.998	19.995	103.053	20.095	3.596	0.495
820.000	491.611	79.998	19.996	103.050	20.095	3.617	0.484
822.000	492.688	79.997	19.995	103.056	20.091	3.886	0.530
824.000	493.710	79.998	19.996	103.073	20.094	3.687	0.525
826.000	494.781	79.998	19.995	103.061	20.096	3.582	0.508
828.000	495.817	79.999	19.995	103.042	20.093	3.762	0.542
830.000	496.828	79.998	19.995	103.040	20.091	3.913	0.521
832.000	497.892	79.999	19.994	103.078	20.094	3.670	0.531
834.000	498.925	80.000	19.996	103.066	20.091	3.906	0.523
836.000	499.970	79.998	19.995	103.074	20.098	3.422	0.547
838.000	500.933	79.998	19.997	103.053	20.096	3.530	0.494
840.000	501.942	79.997	19.996	103.076	20.099	3.379	0.509
842.000	503.010	79.997	19.996	103.080	20.098	3.443	0.520
844.000	504.047	79.998	19.995	103.061	20.096	3.546	0.523
846.000	505.069	79.999	19.996	103.074	20.104	3.026	0.511
848.000	506.102	79.999	19.995	103.085	20.101	3.249	0.514
850.000	507.151	79.999	19.993	103.077	20.099	3.377	0.514
852.000	508.207	79.999	19.995	103.074	20.097	3.518	0.523
854.000	509.255	79.999	19.994	103.072	20.097	3.476	0.534
856.000	510.270	80.000	19.995	103.084	20.102	3.158	0.507
858.000	511.359	80.000	19.994	103.068	20.102	3.172	0.522
860.000	512.380	80.000	19.996	103.065	20.098	3.412	0.548
862.000	513.399	79.999	19.994	103.051	20.100	3.271	0.530
864.000	514.449	79.999	19.995	103.065	20.101	3.251	0.553
866.000	515.470	79.997	19.994	103.070	20.104	3.013	0.506
868.000	516.485	79.997	19.995	103.075	20.103	3.119	0.505
870.000	517.546	79.999	19.996	103.068	20.106	2.871	0.503
872.000	518.567	79.997	19.995	103.078	20.103	3.115	0.506
874.000	519.623	79.998	19.996	103.079	20.103	3.119	0.521
876.000	520.685	79.998	19.994	103.076	20.100	3.307	0.530
878.000	521.728	79.999	19.995	103.058	20.105	2.927	0.526
880.000	522.742	79.999	19.995	103.054	20.105	2.925	0.506
882.000	523.784	79.998	19.995	103.063	20.104	3.040	0.492
884.000	524.849	79.998	19.994	103.077	20.099	3.337	0.526
886.000	525.851	80.000	19.994	103.061	20.109	2.712	0.526
888.000	526.895	79.998	19.994	103.077	20.108	2.780	0.566
890.000	527.952	79.998	19.994	103.087	20.108	2.745	0.529
892.000	528.979	79.998	19.995	103.077	20.105	2.945	0.510
894.000	530.048	79.997	19.996	103.077	20.105	2.937	0.564
896.000	531.025	79.998	19.995	103.057	20.105	2.981	0.491
898.000	532.060	79.997	19.995	103.051	20.106	2.906	0.519
900.000	533.145	79.998	19.995	103.066	20.101	3.234	0.510
902.000	534.160	79.998	19.995	103.057	20.105	2.970	0.526
904.000	535.201	79.997	19.995	103.051	20.104	3.038	0.499
906.000	536.251	79.998	19.996	103.052	20.105	2.937	0.499
908.000	537.265	79.999	19.994	103.063	20.102	3.122	0.477
910.000	538.286	79.999	19.995	103.059	20.105	2.952	0.501
912.000	539.322	79.999	19.996	103.056	20.104	2.997	0.514
914.000	540.337	79.999	19.994	103.054	20.104	3.043	0.500
916.000	541.397	79.999	19.995	103.043	20.105	2.983	0.495
918.000	542.440	79.998	19.995	103.041	20.103	3.098	0.531
920.000	543.452	80.001	19.996	103.043	20.104	3.023	0.513
922.000	544.439	79.999	19.996	103.040	20.106	2.911	0.501
924.000	545.469	79.998	19.996	103.041	20.105	2.928	0.482
926.000	546.506	79.998	19.995	103.050	20.104	3.012	0.543
928.000	547.535	80.000	19.996	103.050	20.103	3.103	0.530
930.000	548.529	80.000	19.996	103.051	20.107	2.853	0.488
932.000	549.574	80.002	19.997	103.047	20.107	2.839	0.533
934.000	550.574	79.999	19.996	103.051	20.104	3.017	0.509
936.000	551.626	80.001	19.995	103.055	20.105	2.954	0.529
938.000	552.642	80.000	19.994	103.057	20.108	2.729	0.515
940.000	553.675	79.999	19.995	103.083	20.114	2.379	0.523
942.000	554.728	80.002	19.996	103.078	20.113	2.411	0.532
944.000	555.758	80.001	19.996	103.106	20.112	2.456	0.520
946.000	556.774	79.999	19.995	103.064	20.106	2.875	0.491
948.001	557.793	79.998	19.995	103.080	20.106	2.868	0.517
950.000	558.810	79.996	19.994	103.052	20.103	3.102	0.507
952.000	559.851	79.999	19.994	103.032	20.102	3.128	0.514
954.000	560.864	79.998	19.995	103.029	20.109	2.688	0.539
956.000	561.904	79.999	19.995	103.064	20.104	3.007	0.546
958.000	562.916	79.996	19.993	103.073	20.104	3.051	0.517
960.000	563.948	79.998	19.994	103.064	20.101	3.218	0.534
962.000	564.924	79.998	19.995	103.071	20.102	3.181	0.458
964.000	565.947	79.998	19.994	103.061	20.102	3.131	0.514
966.000	566.946	79.999	19.994	103.055	20.103	3.079	0.493
968.000	567.987	79.999	19.995	103.061	20.105	2.954	0.516
970.000	568.983	79.998	19.995	103.071	20.102	3.165	0.501
972.000	570.020	79.998	19.995	103.074	20.103	3.079	0.532
974.000	571.015	79.997	19.994	103.040	20.110	2.610	0.524
976.000	572.065	79.997	19.994	103.067	20.107	2.790	0.542
978.000	573.053	79.996	19.993	103.055	20.112	2.511	0.509
980.000	574.132	79.996	19.994	103.072	20.112	2.501	0.543
982.000	575.207	79.999	19.995	103.085	20.105	2.985	0.529
984.000	576.239	79.996	19.994	103.092	20.107	2.822	0.523
986.000	577.262	79.998	19.994	103.066	20.106	2.888	0.534
988.000	578.302	80.000	19.997	103.058	20.109	2.673	0.501
990.000	579.379	79.998	19.994	103.065	20.108	2.768	0.519
992.000	580.406	80.000	19.995	103.064	20.106	2.912	0.542
994.000	581.396	79.997	19.995	103.064	20.106	2.882	0.524
996.000	582.391	79.999	19.997	103.053	20.106	2.886	0.480
998.000	583.431	79.995	19.994	103.049	20.097	3.511	0.519
1000.000	584.447	79.996	19.996	103.046	20.102	3.181	0.511
1002.000	585.497	79.998	19.996	103.041	20.109	2.693	0.518
1004.000	586.532	79.996	19.995	103.063	20.103	3.073	0.503
1006.001	587.536	79.998	19.995	103.039	20.107	2.811	0.518
1008.000	588.542	79.998	19.995	103.072	20.105	2.952	0.508
1010.000	589.575	80.000	19.997	103.073	20.113	2.392	0.512
1012.000	590.582	79.999	19.995	103.090	20.106	2.876	0.472
1014.000	591.606	80.003	19.995	103.081	20.108	2.787	0.483
1016.000	592.677	80.002	19.996	103.077	20.106	2.891	0.518
1018.000	593.663	80.001	19.996	103.064	20.110	2.602	0.517
1020.000	594.762	79.998	19.994	103.076	20.107	2.815	0.544
1022.000	595.786	80.000	19.995	103.062	20.108	2.729	0.520
1024.000	596.806	79.997	19.996	103.079	20.107	2.801	0.517
1026.000	597.858	79.997	19.995	103.048	20.108	2.778	0.547
1028.001	598.843	79.996	19.994	103.038	20.112	2.474	0.514
1030.000	599.852	79.999	19.995	103.058	20.105	2.933	0.495
1032.000	600.898	79.997	19.996	103.068	20.110	2.631	0.533
1034.000	601.866	79.997	19.994	103.087	20.109	2.695	0.481
1036.000	602.911	79.998	19.994	103.083	20.109	2.697	0.519
1038.001	603.937	79.998	19.995	103.052	20.107	2.851	0.482
1040.000	604.928	79.996	19.994	103.044	20.106	2.868	0.506
1042.000	605.932	79.999	19.995	103.044	20.103	3.100	0.516
1044.000	606.976	80.000	19.995	103.053	20.102	3.170	0.544
1046.001	607.997	79.999	19.995	103.053	20.104	3.033	0.519
1048.000	608.964	79.998	19.994	103.042	20.103	3.083	0.493
1050.001	609.953	80.000	19.996	103.044	20.103	3.058	0.502
1052.000	611.008	80.000	19.994	103.078	20.108	2.774	0.507
1054.000	612.015	79.999	19.995	103.118	20.110	2.624	0.519
1056.001	613.025	79.999	19.995	103.099	20.112	2.502	0.529
1058.000	614.019	79.999	19.995	103.033	20.106	2.875	0.504
1060.001	615.064	79.999	19.995	103.027	20.108	2.774	0.521
1062.000	616.088	79.999	19.995	103.047	20.104	3.022	0.512
1064.000	617.107	80.000	19.995	103.049	20.104	3.001	0.511
1066.001	618.082	79.998	19.994	103.049	20.106	2.918	0.513
1068.000	619.159	80.002	19.995	103.074	20.106	2.881	0.518
1070.000	620.188	79.999	19.995	103.052	20.104	3.040	0.521
1072.000	621.196	79.999	19.994	103.076	20.106	2.857	0.512
1074.000	622.251	80.001	19.995	103.066	20.108	2.756	0.513
1076.001	623.272	80.000	19.994	103.035	20.102	3.183	0.516
1078.000	624.261	79.999	19.994	103.061	20.106	2.917	0.508
1080.000	625.287	79.999	19.996	103.063	20.109	2.688	0.521
1082.000	626.281	79.999	19.996	103.055	20.102	3.142	0.483
1084.000	627.343	79.998	19.997	103.053	20.105	2.928	0.504
1086.001	628.388	79.999	19.995	103.048	20.106	2.917	0.516
1088.000	629.401	79.999	19.995	103.064	20.105	2.970	0.510
1090.001	630.428	79.999	19.995	103.050	20.104	3.032	0.510
1092.000	631.436	80.001	19.995	103.053	20.103	3.086	0.517
1094.000	632.501	79.999	19.995	103.057	20.107	2.805	0.520
1096.000	633.505	79.999	19.995	103.066	20.106	2.880	0.506
1098.000	634.568	80.000	19.994	103.050	20.106	2.908	0.529
1100.000	635.610	80.001	19.995	103.078	20.107	2.790	0.527
1102.000	636.666	80.002	19.995	103.071	20.102	3.151	0.517
1104.000	637.671	80.000	19.995	103.044	20.103	3.097	0.518
1106.001	638.705	79.998	19.995	103.047	20.103	3.078	0.513
1108.001	639.763	80.000	19.995	103.049	20.100	3.300	0.523
1110.000	640.741	79.997	19.997	103.045	20.099	3.367	0.474
1112.001	641.809	79.996	19.996	103.045	20.097	3.459	0.538
1114.000	642.845	79.997	19.996	103.048	20.099	3.360	0.506
1116.000	643.860	79.998	19.996	103.065	20.101	3.193	0.516
1118.000	644.850	79.996	19.996	103.050	20.099	3.331	0.463
1120.000	645.841	79.997	19.996	103.052	20.099	3.335	0.520
1122.000	646.842	79.997	19.995	103.052	20.098	3.413	0.522
1124.001	647.865	79.998	19.995	103.040	20.093	3.755	0.497
1126.000	648.877	79.995	19.995	103.046	20.097	3.498	0.550
1128.000	649.900	79.997	19.993	103.054	20.098	3.446	0.513
1130.000	650.942	79.998	19.995	103.065	20.099	3.373	0.556
1132.000	651.990	79.995	19.995	103.057	20.098	3.391	0.510
1134.001	652.949	79.996	19.995	103.042	20.097	3.508	0.502
1136.000	654.013	79.997	19.995	103.049	20.100	3.289	0.509
1138.000	655.049	79.995	19.994	103.052	20.090	3.953	0.518
1140.001	656.047	79.997	19.993	103.037	20.095	3.625	0.521
1142.000	657.110	79.997	19.994	103.049	20.096	3.572	0.533
1144.000	658.107	79.997	19.995	103.050	20.093	3.765	0.497
1146.000	659.143	79.997	19.994	103.050	20.095	3.618	0.510
1148.000	660.171	80.001	19.995	103.048	20.093	3.789	0.516
1150.000	661.149	79.998	19.994	103.050	20.090	3.961	0.479
1152.000	662.162	79.999	19.994	103.040	20.089	4.049	0.490
1154.000	663.183	79.997	19.995	103.047	20.087	4.130	0.487
1156.000	664.189	79.998	19.995	103.053	20.094	3.699	0.515
1158.001	665.196	80.000	19.993	103.058	20.092	3.851	0.496
1160.000	666.198	80.000	19.995	103.058	20.093	3.781	0.470
1162.000	667.229	79.998	19.994	103.053	20.093	3.730	0.495
1164.000	668.199	79.996	19.994	103.061	20.099	3.355	0.494
1166.000	669.204	79.996	19.993	103.056	20.093	3.727	0.485
1168.000	670.273	80.000	19.993	103.046	20.093	3.762	0.546
1170.000	671.286	79.998	19.995	103.035	20.097	3.515	0.504
1172.000	672.296	80.000	19.995	103.036	20.095	3.651	0.520
1174.001	673.268	79.998	19.994	103.056	20.096	3.523	0.500
1176.000	674.315	80.000	19.995	103.042	20.094	3.694	0.491
1178.000	675.369	79.998	19.994	103.016	20.088	4.091	0.517
1180.000	676.368	80.002	19.995	103.031	20.090	3.937	0.517
1182.000	677.389	80.002	19.996	103.039	20.090	3.935	0.514
1184.000	678.410	80.000	19.995	103.045	20.092	3.825	0.520
1186.000	679.402	79.999	19.994	103.026	20.087	4.133	0.496
1188.001	680.444	79.999	19.995	103.041	20.092	3.834	0.533
1190.000	681.463	79.998	19.994	103.047	20.091	3.923	0.522
1192.001	682.483	79.998	19.995	103.048	20.086	4.254	0.489
1194.001	683.514	79.999	19.995	103.045	20.089	3.993	0.518
1196.000	684.508	79.998	19.996	103.046	20.088	4.095	0.519
1198.000	685.523	79.997	19.995	103.041	20.087	4.147	0.517
1200.000	686.502	80.000	19.995	103.062	20.092	3.847	0.456
1202.000	687.546	79.997	19.996	103.054	20.093	3.730	0.512
1204.000	688.568	79.998	19.996	103.077	20.087	4.184	0.513
1206.000	689.577	79.997	19.995	103.080	20.089	4.037	0.509
1208.000	690.552	79.997	19.995	103.045	20.089	3.997	0.502
1210.000	691.542	79.998	19.996	103.048	20.090	3.983	0.489
1212.001	692.556	79.997	19.995	103.048	20.085	4.296	0.477
1214.000	693.628	79.998	19.994	103.053	20.086	4.194	0.556
1216.000	694.652	79.998	19.995	103.035	20.079	4.698	0.495
1218.000	695.654	79.997	19.996	103.042	20.081	4.532	0.513
1220.000	696.685	79.998	19.994	103.050	20.088	4.090	0.505
1222.000	697.656	79.997	19.994	103.058	20.089	4.041	0.494
1224.000	698.689	79.998	19.994	103.061	20.090	3.936	0.523
1226.001	699.693	79.996	19.994	103.047	20.088	4.112	0.530
1228.000	700.705	79.997	19.995	103.029	20.085	4.312	0.504
1230.000	701.704	79.999	19.994	103.016	20.085	4.298	0.500
1232.000	702.711	79.998	19.994	103.040	20.086	4.219	0.503
1234.000	703.757	80.002	19.995	103.036	20.088	4.107	0.499
1236.000	704.735	80.001	19.995	103.026	20.086	4.211	0.507
1238.000	705.774	80.000	19.995	103.029	20.087	4.159	0.519
1240.000	706.759	80.001	19.994	103.047	20.082	4.461	0.513
1242.000	707.779	79.999	19.994	103.046	20.081	4.563	0.511
1244.001	708.766	79.999	19.995	103.051	20.082	4.517	0.513
1246.000	709.839	80.000	19.995	103.051	20.087	4.182	0.541
1248.001	710.824	80.000	19.995	103.048	20.081	4.526	0.544
1250.000	711.855	80.000	19.994	103.054	20.078	4.725	0.525
1252.000	712.881	80.000	19.995	103.045	20.080	4.611	0.531
1254.000	713.878	80.001	19.994	103.036	20.087	4.137	0.495
1256.000	714.890	80.002	19.994	103.050	20.084	4.338	0.484
1258.000	715.939	80.002	19.995	103.043	20.079	4.724	0.526
1260.000	716.953	80.001	19.995	103.021	20.078	4.741	0.521
1262.001	717.951	80.003	19.994	103.032	20.082	4.494	0.502
1264.000	719.018	79.999	19.994	103.058	20.082	4.513	0.524
1266.000	720.035	79.999	19.995	103.051	20.085	4.288	0.513
1268.000	721.088	79.998	19.996	103.050	20.084	4.370	0.547
1270.000	722.134	79.996	19.994	103.046	20.076	4.898	0.518
1272.000	723.096	79.997	19.994	103.050	20.081	4.580	0.483
1274.000	724.147	79.997	19.995	103.071	20.080	4.612	0.508
1276.000	725.165	79.997	19.995	103.061	20.079	4.683	0.511
1278.000	726.189	79.997	19.995	103.076	20.075	4.953	0.503
1280.001	727.224	79.998	19.995	103.050	20.079	4.711	0.499
1282.000	728.275	79.998	19.995	103.049	20.083	4.395	0.514
1284.001	729.259	79.999	19.996	103.045	20.078	4.785	0.487
1286.000	730.266	79.997	19.995	103.040	20.078	4.789	0.518
1288.000	731.271	79.997	19.996	103.043	20.080	4.619	0.494
1290.000	732.255	79.996	19.996	103.049	20.082	4.460	0.459
1292.000	733.311	79.998	19.994	103.050	20.077	4.819	0.537
1294.000	734.309	79.996	19.996	103.047	20.081	4.576	0.509
1296.001	735.325	79.996	19.995	103.048	20.078	4.761	0.478
1298.000	736.333	79.997	19.996	103.030	20.084	4.362	0.476
1300.001	737.317	79.997	19.996	103.033	20.082	4.499	0.502
1302.000	738.302	79.997	19.996	103.040	20.080	4.620	0.505
1304.000	739.284	79.998	19.996	103.044	20.079	4.664	0.495
1306.000	740.302	79.998	19.996	103.045	20.080	4.629	0.499
1308.001	741.296	79.997	19.996	103.058	20.080	4.628	0.497
1310.000	742.307	79.999	19.995	103.058	20.077	4.845	0.514
1312.001	743.354	80.001	19.994	103.045	20.079	4.700	0.524
1312.500	743.623	80.000	19.994	103.045	20.079	4.664	0.521