File: 01_Data/Particleboard/MCC/Particleboard_MCC_30K_min_211006_R3.txt
Sample ID:	C:\MCC\MCC Cal\Test\Particleboard_MCC_30K_min_211006_R3.txt
Sample Weight (mg):	4.51
Heating Rate (C/s):	0.5
Combustor Temp (C):	900
N2 Flow Rate (cc/min):	80
O2 Flow Rate (cc/min):	20
Calibration File:	C:\MCC\MCC Cal\Coeff1 JN10440_30_210304.txt.txt
T Correction Coefficients:	0	1.024463	0
Time Shift (s):	14
*
Time (s)	Temperature (C)	N2 flow rate (cc/min)	O2 flow rate (cc/min)	Flow Rate (cc/min)	Oxygen (%)	HRR (W/g)	Heating rate (C/s)
0.000	107.175	79.998	19.996	100.748	20.031	-0.279	0.010
2.000	107.211	79.998	19.995	100.746	20.028	-0.064	0.029
4.000	107.148	79.998	19.995	100.754	20.029	-0.132	-0.000
6.000	107.164	79.999	19.995	100.765	20.027	0.021	0.008
8.000	107.142	79.998	19.995	100.763	20.029	-0.162	-0.003
10.000	107.161	80.000	19.995	100.769	20.025	0.156	0.021
12.000	107.134	80.000	19.994	100.769	20.025	0.138	-0.022
14.000	107.156	80.000	19.995	100.780	20.027	0.024	0.016
16.000	107.179	80.000	19.995	100.794	20.024	0.232	0.030
18.000	107.165	79.999	19.995	100.803	20.018	0.645	0.023
20.000	107.164	79.998	19.995	100.818	20.022	0.326	0.010
22.000	107.230	79.997	19.996	100.816	20.018	0.598	0.041
24.000	107.235	79.997	19.995	100.819	20.014	0.915	-0.010
26.000	107.277	79.997	19.995	100.823	20.013	0.947	0.019
28.000	107.345	79.998	19.995	100.832	20.010	1.215	0.016
30.000	107.495	79.997	19.996	100.854	20.010	1.174	0.058
32.000	107.566	79.997	19.996	100.861	20.006	1.436	0.051
34.001	107.712	79.997	19.995	100.898	20.002	1.717	0.070
36.001	107.865	79.998	19.995	100.938	19.995	2.216	0.103
38.000	108.021	79.999	19.994	100.944	19.991	2.480	0.096
40.000	108.233	79.998	19.996	100.964	19.992	2.412	0.141
42.000	108.456	79.998	19.996	100.973	19.990	2.565	0.128
44.000	108.755	80.000	19.996	100.976	19.988	2.748	0.161
46.000	109.072	79.998	19.995	100.978	19.986	2.858	0.129
48.000	109.386	79.997	19.995	100.977	19.989	2.678	0.176
50.000	109.713	79.998	19.995	100.982	19.982	3.142	0.174
52.000	110.144	79.998	19.996	100.976	19.980	3.295	0.169
54.000	110.558	79.997	19.996	100.975	19.980	3.277	0.216
56.000	111.016	79.999	19.996	100.952	19.978	3.421	0.260
58.000	111.501	79.998	19.996	100.928	19.977	3.509	0.244
60.000	111.958	79.997	19.996	101.031	19.981	3.238	0.246
62.001	112.420	79.997	19.996	100.994	19.977	3.496	0.234
64.000	112.926	79.999	19.996	100.982	19.978	3.440	0.241
66.000	113.461	79.998	19.996	100.993	19.979	3.334	0.285
68.001	114.013	79.998	19.995	101.010	19.979	3.347	0.256
70.000	114.581	79.999	19.997	101.007	19.979	3.349	0.299
72.000	115.160	79.999	19.996	101.004	19.980	3.283	0.282
74.000	115.776	79.999	19.997	101.000	19.980	3.298	0.292
76.000	116.395	79.999	19.996	101.009	19.977	3.512	0.281
78.000	117.046	79.999	19.997	101.007	19.976	3.569	0.328
80.000	117.688	79.999	19.996	101.007	19.978	3.406	0.333
82.000	118.330	79.997	19.997	101.015	19.978	3.395	0.345
84.000	118.990	79.997	19.998	101.013	19.975	3.606	0.336
86.000	119.706	79.997	19.997	101.013	19.976	3.534	0.336
88.000	120.440	79.998	19.995	101.020	19.972	3.827	0.374
90.001	121.136	79.998	19.996	101.017	19.975	3.610	0.355
92.000	121.861	80.000	19.995	101.016	19.979	3.376	0.387
94.000	122.677	80.000	19.994	101.019	19.976	3.580	0.380
96.000	123.431	80.000	19.995	101.018	19.974	3.710	0.364
98.000	124.193	80.000	19.995	101.019	19.972	3.865	0.377
100.000	124.960	80.001	19.994	101.020	19.975	3.646	0.378
102.000	125.735	79.999	19.995	101.017	19.974	3.699	0.383
104.000	126.568	80.000	19.997	101.016	19.975	3.653	0.413
106.000	127.413	79.999	19.995	101.015	19.979	3.321	0.413
108.000	128.249	79.999	19.995	101.013	19.971	3.901	0.429
110.000	129.065	79.998	19.996	101.016	19.974	3.702	0.423
112.000	129.880	79.998	19.995	101.020	19.974	3.714	0.429
114.000	130.723	79.998	19.997	101.019	19.975	3.609	0.428
116.000	131.579	79.999	19.995	101.015	19.974	3.714	0.442
118.000	132.444	79.999	19.996	101.015	19.972	3.821	0.428
120.001	133.318	79.997	19.995	101.014	19.976	3.570	0.448
122.000	134.179	79.998	19.997	101.017	19.973	3.799	0.424
124.000	135.065	79.999	19.995	101.025	19.972	3.859	0.474
126.000	135.937	80.000	19.996	101.024	19.970	3.980	0.451
128.000	136.844	79.999	19.997	101.013	19.969	4.025	0.454
130.000	137.750	79.999	19.997	101.014	19.974	3.714	0.483
132.000	138.616	79.998	19.996	101.014	19.970	4.005	0.423
134.000	139.542	79.998	19.996	101.020	19.971	3.939	0.436
136.000	140.432	79.997	19.996	101.015	19.970	3.950	0.463
138.000	141.377	79.998	19.996	101.020	19.967	4.167	0.451
140.000	142.270	79.997	19.995	101.022	19.967	4.197	0.472
142.000	143.229	79.997	19.996	101.024	19.968	4.086	0.460
144.000	144.152	79.999	19.997	101.019	19.966	4.284	0.474
146.000	145.083	79.997	19.995	101.021	19.966	4.266	0.480
148.000	145.974	79.998	19.996	101.022	19.967	4.167	0.447
150.000	146.928	79.999	19.997	101.020	19.965	4.318	0.474
152.000	147.846	79.999	19.995	101.017	19.963	4.447	0.445
154.000	148.831	79.998	19.997	101.016	19.963	4.452	0.484
156.000	149.762	80.000	19.996	101.027	19.963	4.447	0.472
158.000	150.752	79.998	19.995	101.023	19.964	4.394	0.481
160.000	151.668	79.997	19.996	101.018	19.967	4.210	0.479
162.000	152.602	79.999	19.996	101.020	19.963	4.473	0.481
164.000	153.567	79.998	19.996	101.022	19.966	4.273	0.505
166.000	154.525	79.998	19.996	101.018	19.963	4.501	0.485
168.000	155.485	79.998	19.997	101.027	19.964	4.414	0.476
170.000	156.453	79.998	19.997	101.022	19.963	4.458	0.506
172.000	157.425	79.998	19.996	101.014	19.963	4.497	0.484
174.000	158.421	79.999	19.997	101.013	19.965	4.357	0.508
176.000	159.375	79.999	19.998	101.014	19.962	4.542	0.524
178.000	160.388	79.999	19.997	101.012	19.963	4.471	0.489
180.000	161.316	80.001	19.995	101.015	19.962	4.569	0.456
182.000	162.328	80.000	19.996	101.014	19.960	4.679	0.501
184.000	163.250	80.000	19.997	101.014	19.958	4.840	0.456
186.000	164.302	80.000	19.995	101.013	19.959	4.775	0.548
188.000	165.296	79.998	19.996	101.015	19.958	4.828	0.509
190.000	166.289	79.997	19.996	101.013	19.957	4.896	0.503
192.000	167.327	79.998	19.996	101.015	19.957	4.890	0.520
194.000	168.272	79.997	19.996	101.019	19.957	4.914	0.471
196.000	169.246	79.998	19.996	101.026	19.956	4.991	0.477
198.000	170.270	79.999	19.996	101.015	19.959	4.741	0.505
200.000	171.225	79.998	19.996	101.016	19.953	5.173	0.480
202.000	172.244	79.997	19.996	101.019	19.955	5.017	0.509
204.000	173.248	79.998	19.995	101.029	19.955	5.013	0.511
206.000	174.244	79.997	19.996	101.035	19.954	5.119	0.498
208.000	175.243	79.998	19.995	101.019	19.952	5.220	0.523
210.000	176.233	79.999	19.995	101.018	19.953	5.200	0.481
212.000	177.231	79.999	19.996	101.020	19.952	5.224	0.495
214.000	178.235	79.998	19.997	101.023	19.949	5.457	0.489
216.000	179.242	79.999	19.995	101.020	19.948	5.512	0.523
218.000	180.218	79.998	19.995	101.020	19.947	5.613	0.474
220.000	181.212	79.997	19.995	101.018	19.942	5.949	0.475
222.000	182.216	79.997	19.996	101.018	19.944	5.811	0.488
224.000	183.251	79.998	19.997	101.022	19.943	5.875	0.491
226.000	184.279	79.998	19.996	101.023	19.941	5.976	0.536
228.000	185.207	79.998	19.996	101.026	19.941	6.025	0.477
230.000	186.261	80.000	19.997	101.021	19.941	5.973	0.525
232.000	187.284	79.999	19.995	101.019	19.937	6.289	0.501
234.000	188.262	80.000	19.995	101.013	19.934	6.463	0.488
236.000	189.257	80.001	19.995	101.014	19.932	6.621	0.487
238.000	190.246	80.000	19.995	101.015	19.934	6.474	0.476
240.000	191.202	80.000	19.997	101.012	19.932	6.666	0.479
242.000	192.213	79.999	19.996	101.011	19.930	6.755	0.488
244.000	193.215	80.001	19.996	101.013	19.933	6.576	0.499
246.000	194.177	79.999	19.997	101.013	19.929	6.872	0.499
248.000	195.204	79.999	19.997	101.013	19.927	6.970	0.488
250.000	196.143	80.000	19.997	101.014	19.926	7.023	0.483
252.000	197.160	79.999	19.998	101.014	19.926	7.072	0.492
254.000	198.115	80.000	19.996	101.012	19.924	7.187	0.477
256.000	199.110	80.002	19.997	101.013	19.926	7.034	0.503
258.000	200.105	80.000	19.996	101.012	19.922	7.333	0.521
260.000	201.105	80.001	19.997	101.013	19.922	7.331	0.512
262.000	202.083	80.001	19.996	101.012	19.923	7.278	0.515
264.000	203.112	80.000	19.995	101.012	19.920	7.501	0.515
266.000	204.065	80.000	19.996	101.010	19.924	7.221	0.468
268.000	205.036	79.999	19.996	101.013	19.922	7.317	0.489
270.000	206.036	79.997	19.997	101.014	19.915	7.790	0.489
272.000	207.000	79.996	19.996	101.008	19.915	7.846	0.506
274.000	208.044	79.997	19.998	101.011	19.914	7.869	0.507
276.000	209.004	79.997	19.997	101.014	19.918	7.601	0.466
278.000	209.970	79.997	19.997	101.007	19.916	7.764	0.521
280.000	211.018	79.997	19.997	101.010	19.916	7.731	0.509
282.000	211.925	79.997	19.995	101.015	19.916	7.758	0.415
284.000	212.937	79.998	19.996	101.011	19.913	7.962	0.483
286.000	213.922	79.998	19.996	101.011	19.912	8.001	0.477
288.000	214.867	79.998	19.996	101.014	19.911	8.122	0.508
290.000	215.862	79.997	19.995	101.015	19.911	8.096	0.505
292.000	216.848	79.997	19.996	101.016	19.911	8.133	0.481
294.000	217.855	79.998	19.995	101.016	19.908	8.286	0.495
296.000	218.843	79.998	19.997	101.014	19.907	8.385	0.502
298.000	219.788	79.998	19.995	101.015	19.909	8.252	0.500
300.000	220.757	79.997	19.995	101.015	19.905	8.507	0.481
302.000	221.758	79.997	19.996	101.014	19.907	8.356	0.479
304.000	222.740	79.998	19.997	101.009	19.909	8.247	0.511
306.000	223.749	79.998	19.997	101.013	19.902	8.738	0.492
308.000	224.706	79.997	19.997	101.012	19.903	8.690	0.484
310.000	225.696	79.999	19.997	101.012	19.903	8.637	0.495
312.000	226.710	79.998	19.996	101.006	19.901	8.820	0.528
314.000	227.669	80.000	19.996	101.013	19.901	8.781	0.486
316.000	228.721	80.000	19.997	101.014	19.900	8.894	0.520
318.000	229.739	79.999	19.996	101.013	19.901	8.834	0.541
320.000	230.714	80.000	19.995	101.013	19.898	9.028	0.497
322.000	231.696	79.998	19.996	101.009	19.897	9.059	0.525
324.000	232.651	80.000	19.997	101.008	19.898	9.032	0.460
326.000	233.720	80.000	19.996	101.013	19.895	9.206	0.519
328.000	234.704	79.999	19.995	101.014	19.895	9.244	0.509
330.001	235.661	79.998	19.995	101.010	19.889	9.667	0.478
332.000	236.679	79.999	19.996	101.011	19.887	9.771	0.527
334.001	237.685	79.999	19.996	101.015	19.887	9.799	0.497
336.000	238.670	79.998	19.996	101.017	19.883	10.044	0.502
338.000	239.628	79.998	19.996	101.017	19.883	10.053	0.512
340.000	240.646	79.999	19.996	101.016	19.882	10.111	0.498
342.000	241.626	80.000	19.995	101.015	19.882	10.136	0.505
344.000	242.647	80.001	19.995	101.017	19.879	10.325	0.527
346.000	243.578	80.002	19.996	101.017	19.878	10.401	0.471
348.000	244.587	79.999	19.995	101.021	19.878	10.378	0.523
350.000	245.553	79.998	19.995	101.026	19.876	10.557	0.514
352.000	246.545	79.998	19.996	101.024	19.872	10.840	0.496
354.000	247.616	79.998	19.995	101.033	19.868	11.115	0.554
356.000	248.606	79.997	19.996	101.033	19.869	11.071	0.533
358.000	249.636	79.999	19.997	101.036	19.865	11.306	0.519
360.000	250.623	79.998	19.997	101.033	19.862	11.548	0.507
362.000	251.674	79.999	19.996	101.024	19.860	11.696	0.532
364.000	252.680	79.998	19.997	101.028	19.855	12.045	0.465
366.000	253.644	79.997	19.997	101.032	19.849	12.430	0.521
368.000	254.651	79.997	19.995	101.028	19.853	12.161	0.510
370.000	255.668	79.997	19.997	101.041	19.845	12.726	0.520
372.000	256.662	79.998	19.997	101.043	19.838	13.178	0.502
374.000	257.709	80.001	19.997	101.047	19.839	13.142	0.532
376.000	258.678	80.000	19.996	101.043	19.834	13.516	0.507
378.000	259.736	79.999	19.996	101.048	19.823	14.243	0.524
380.000	260.668	79.998	19.995	101.052	19.821	14.402	0.528
382.000	261.818	79.997	19.995	101.054	19.818	14.628	0.640
384.001	262.716	79.998	19.995	101.052	19.812	15.035	0.471
386.000	263.655	79.997	19.997	101.053	19.807	15.347	0.319
388.000	264.667	79.998	19.995	101.053	19.801	15.820	0.506
390.000	265.631	79.998	19.995	101.056	19.796	16.141	0.487
392.000	266.643	79.999	19.996	101.054	19.791	16.507	0.531
394.000	267.655	79.998	19.996	101.060	19.787	16.755	0.507
396.000	268.652	79.998	19.997	101.062	19.779	17.338	0.526
398.000	269.652	79.999	19.995	101.065	19.773	17.786	0.509
400.000	270.684	80.001	19.996	101.072	19.770	17.978	0.509
402.000	271.651	80.000	19.995	101.075	19.765	18.335	0.492
404.000	272.690	79.999	19.995	101.076	19.758	18.835	0.521
406.000	273.651	80.000	19.996	101.069	19.750	19.347	0.474
408.000	274.690	79.998	19.995	101.077	19.747	19.572	0.513
410.000	275.660	79.998	19.994	101.089	19.743	19.840	0.492
412.000	276.694	79.999	19.994	101.092	19.740	20.064	0.542
414.000	277.660	79.998	19.995	101.096	19.734	20.501	0.493
416.000	278.726	79.998	19.995	101.095	19.729	20.816	0.534
418.000	279.672	79.998	19.995	101.097	19.721	21.430	0.508
420.001	280.710	79.998	19.995	101.099	19.713	21.927	0.507
422.000	281.720	79.999	19.995	101.098	19.713	21.983	0.526
424.000	282.730	80.000	19.995	101.098	19.704	22.618	0.496
426.000	283.749	80.000	19.998	101.100	19.700	22.873	0.497
428.000	284.757	80.000	19.997	101.102	19.686	23.829	0.512
430.000	285.804	80.000	19.996	101.103	19.683	24.089	0.505
432.000	286.799	80.000	19.996	101.101	19.674	24.664	0.485
434.000	287.831	79.998	19.997	101.111	19.666	25.241	0.509
436.000	288.847	79.998	19.997	101.110	19.665	25.347	0.550
438.000	289.830	79.998	19.997	101.106	19.653	26.195	0.520
440.000	290.860	79.998	19.996	101.104	19.647	26.591	0.509
442.000	291.869	79.998	19.996	101.117	19.638	27.192	0.484
444.000	292.891	79.996	19.996	101.119	19.632	27.653	0.509
446.000	293.910	79.998	19.996	101.126	19.626	28.058	0.503
448.000	294.887	79.998	19.997	101.126	19.620	28.474	0.463
450.000	295.907	79.997	19.997	101.128	19.617	28.694	0.513
452.000	296.894	79.997	19.997	101.131	19.609	29.279	0.477
454.000	297.883	79.996	19.997	101.135	19.595	30.226	0.464
456.000	298.928	79.998	19.997	101.133	19.588	30.731	0.541
458.000	299.891	79.997	19.996	101.132	19.577	31.482	0.489
460.000	300.928	79.998	19.997	101.134	19.575	31.648	0.511
462.000	301.976	79.996	19.997	101.143	19.564	32.384	0.523
464.000	302.979	79.998	19.996	101.148	19.552	33.256	0.532
466.000	304.013	79.997	19.996	101.158	19.545	33.706	0.481
468.000	304.972	79.996	19.995	101.163	19.534	34.525	0.476
470.000	305.990	79.996	19.995	101.169	19.524	35.173	0.500
472.000	307.007	79.997	19.996	101.171	19.517	35.730	0.523
474.000	308.006	79.996	19.996	101.171	19.510	36.158	0.492
476.000	309.035	79.998	19.995	101.165	19.496	37.139	0.525
478.000	310.019	79.997	19.995	101.171	19.486	37.886	0.505
480.000	311.064	79.998	19.996	101.175	19.477	38.536	0.521
482.000	312.054	79.997	19.995	101.185	19.466	39.296	0.475
484.000	313.068	79.998	19.995	101.182	19.449	40.431	0.510
486.000	314.101	79.998	19.996	101.185	19.441	41.028	0.520
488.000	315.127	79.998	19.994	101.201	19.429	41.871	0.495
490.000	316.099	79.999	19.995	101.202	19.419	42.603	0.501
492.000	317.160	79.999	19.995	101.211	19.402	43.772	0.504
494.000	318.140	79.999	19.995	101.210	19.391	44.500	0.517
496.000	319.121	80.001	19.996	101.209	19.376	45.577	0.516
498.000	320.108	79.999	19.996	101.211	19.364	46.411	0.508
500.000	321.125	80.000	19.996	101.214	19.352	47.275	0.515
502.000	322.081	80.000	19.997	101.212	19.339	48.209	0.473
504.000	323.129	80.000	19.995	101.216	19.327	49.018	0.498
506.000	324.118	80.000	19.996	101.231	19.311	50.173	0.508
508.000	325.132	80.000	19.995	101.244	19.299	50.984	0.527
510.000	326.150	80.001	19.996	101.237	19.282	52.153	0.511
512.000	327.137	80.000	19.995	101.242	19.271	52.955	0.473
514.000	328.159	80.001	19.997	101.249	19.252	54.289	0.514
516.000	329.131	80.000	19.997	101.247	19.241	55.048	0.526
518.000	330.180	79.998	19.996	101.247	19.230	55.847	0.499
520.000	331.184	79.999	19.996	101.250	19.217	56.761	0.513
522.000	332.177	79.997	19.996	101.248	19.205	57.600	0.483
524.000	333.178	79.999	19.998	101.253	19.191	58.573	0.511
526.000	334.177	79.998	19.996	101.254	19.179	59.375	0.499
528.000	335.197	79.999	19.996	101.254	19.169	60.085	0.496
530.000	336.222	79.997	19.997	101.256	19.158	60.887	0.508
532.000	337.181	79.997	19.996	101.258	19.151	61.334	0.491
534.000	338.201	79.999	19.996	101.266	19.142	62.015	0.496
536.000	339.216	79.999	19.996	101.267	19.139	62.206	0.542
538.000	340.196	79.998	19.996	101.261	19.131	62.752	0.486
540.000	341.172	79.998	19.997	101.252	19.125	63.182	0.473
542.000	342.197	79.995	19.994	101.249	19.124	63.256	0.493
544.000	343.170	80.017	20.003	101.256	19.123	63.280	0.515
546.000	344.184	79.999	19.998	101.260	19.125	63.134	0.508
548.000	345.161	79.997	19.997	101.240	19.126	63.073	0.515
550.000	346.192	79.996	19.997	101.227	19.132	62.664	0.489
552.000	347.197	79.996	19.998	101.218	19.140	62.113	0.515
554.000	348.160	79.998	19.997	101.213	19.147	61.595	0.488
556.000	349.197	79.998	19.997	101.214	19.157	60.894	0.519
558.000	350.186	79.998	19.997	101.208	19.167	60.147	0.509
560.000	351.199	79.999	19.997	101.194	19.182	59.118	0.511
562.000	352.219	80.000	19.995	101.189	19.196	58.105	0.517
564.000	353.265	80.000	19.997	101.181	19.212	57.036	0.522
566.000	354.269	79.999	19.996	101.164	19.234	55.425	0.520
568.000	355.299	80.001	19.995	101.144	19.250	54.303	0.509
570.000	356.267	80.000	19.995	101.137	19.268	53.092	0.509
572.000	357.291	80.000	19.994	101.133	19.290	51.530	0.505
574.000	358.274	79.997	19.996	101.126	19.313	49.930	0.482
576.000	359.296	80.000	19.995	101.109	19.338	48.168	0.483
578.001	360.278	79.999	19.996	101.094	19.368	46.035	0.484
580.000	361.303	80.000	19.996	101.093	19.392	44.384	0.505
582.000	362.331	79.999	19.996	101.089	19.422	42.256	0.541
584.000	363.277	79.999	19.997	101.070	19.449	40.408	0.506
586.000	364.283	80.000	19.996	101.055	19.474	38.612	0.501
588.001	365.316	80.002	19.996	101.053	19.504	36.535	0.513
590.000	366.315	80.000	19.995	101.048	19.530	34.726	0.492
592.000	367.327	80.002	19.996	101.039	19.558	32.768	0.525
594.000	368.308	79.999	19.996	101.043	19.581	31.155	0.493
596.000	369.373	80.000	19.995	101.025	19.606	29.446	0.512
598.000	370.384	79.998	19.995	101.016	19.626	27.982	0.517
600.000	371.353	79.997	19.995	101.016	19.655	25.967	0.501
602.000	372.385	79.997	19.995	101.013	19.675	24.621	0.495
604.000	373.417	79.996	19.996	101.015	19.696	23.145	0.535
606.000	374.442	79.998	19.997	101.009	19.712	21.987	0.507
608.000	375.432	79.996	19.996	101.001	19.727	20.960	0.492
610.000	376.453	79.998	19.996	100.983	19.751	19.302	0.508
612.000	377.418	79.998	19.996	100.980	19.761	18.580	0.525
614.000	378.429	79.994	19.996	100.983	19.776	17.529	0.488
616.000	379.456	79.997	19.997	100.984	19.788	16.718	0.530
618.000	380.448	79.999	19.997	100.982	19.801	15.791	0.508
620.000	381.439	79.998	19.996	100.981	19.812	14.993	0.500
622.000	382.436	79.998	19.997	100.978	19.820	14.470	0.496
624.000	383.452	79.998	19.996	100.974	19.830	13.784	0.499
626.000	384.393	80.000	19.997	100.976	19.836	13.359	0.488
628.000	385.402	79.997	19.996	100.976	19.844	12.798	0.496
630.000	386.395	79.998	19.995	100.977	19.850	12.344	0.489
632.000	387.339	79.998	19.996	100.975	19.853	12.181	0.499
634.000	388.363	79.996	19.997	100.975	19.860	11.692	0.482
636.000	389.383	79.998	19.998	100.978	19.857	11.883	0.488
638.000	390.362	79.996	19.997	100.981	19.861	11.605	0.525
640.000	391.399	79.999	19.996	100.985	19.863	11.438	0.526
642.000	392.378	79.999	19.997	100.985	19.866	11.245	0.508
644.000	393.351	79.999	19.997	100.986	19.864	11.381	0.477
646.000	394.455	80.000	19.997	100.985	19.866	11.231	0.523
648.000	395.447	79.997	19.997	100.979	19.866	11.245	0.502
650.000	396.480	79.999	19.995	100.984	19.868	11.125	0.532
652.000	397.455	80.000	19.996	100.983	19.872	10.815	0.485
654.000	398.478	80.001	19.995	100.985	19.873	10.735	0.520
656.000	399.539	80.000	19.995	100.978	19.874	10.720	0.540
658.000	400.528	80.001	19.995	100.982	19.871	10.903	0.520
660.000	401.533	80.000	19.995	100.987	19.870	10.995	0.512
662.000	402.577	80.000	19.996	100.982	19.877	10.474	0.506
664.000	403.634	80.000	19.996	100.980	19.877	10.458	0.546
666.000	404.687	80.001	19.995	100.979	19.877	10.462	0.506
668.000	405.724	79.998	19.996	100.988	19.879	10.351	0.507
670.000	406.756	80.001	19.996	100.989	19.879	10.345	0.544
672.000	407.761	79.999	19.997	100.995	19.880	10.245	0.506
674.001	408.816	80.002	19.996	100.990	19.878	10.381	0.519
676.000	409.877	80.001	19.996	100.977	19.877	10.445	0.527
678.000	410.950	79.998	19.996	100.990	19.877	10.452	0.521
680.000	411.973	79.998	19.996	100.982	19.882	10.133	0.520
682.000	412.998	79.997	19.996	100.982	19.882	10.127	0.507
684.000	414.011	79.997	19.994	100.985	19.882	10.135	0.492
686.000	415.039	79.998	19.996	100.985	19.885	9.916	0.520
688.000	416.025	79.998	19.997	100.977	19.883	10.047	0.481
690.000	417.098	79.998	19.995	100.979	19.885	9.900	0.526
692.000	418.119	79.997	19.995	100.981	19.893	9.368	0.524
694.000	419.151	79.999	19.996	100.976	19.891	9.534	0.504
696.000	420.170	79.998	19.995	100.976	19.892	9.458	0.486
698.000	421.187	79.997	19.997	100.977	19.892	9.415	0.505
700.000	422.203	79.997	19.997	100.984	19.892	9.405	0.483
702.000	423.217	79.998	19.996	100.991	19.892	9.431	0.486
704.000	424.244	79.998	19.997	100.982	19.896	9.179	0.498
706.000	425.282	79.996	19.998	100.989	19.893	9.387	0.477
708.000	426.335	79.997	19.997	100.980	19.895	9.217	0.513
710.001	427.407	79.997	19.997	100.990	19.898	9.006	0.562
712.000	428.444	79.997	19.996	100.981	19.901	8.818	0.541
714.000	429.516	79.998	19.996	100.986	19.901	8.816	0.523
716.000	430.571	79.997	19.996	100.992	19.901	8.806	0.541
718.000	431.603	79.998	19.997	100.996	19.902	8.749	0.539
720.000	432.686	79.998	19.996	100.987	19.904	8.610	0.549
722.000	433.738	79.998	19.996	100.993	19.906	8.439	0.532
724.000	434.875	79.997	19.996	100.985	19.904	8.558	0.548
726.000	435.936	79.999	19.997	100.982	19.908	8.291	0.552
728.000	437.022	79.999	19.996	101.005	19.906	8.471	0.549
730.000	438.132	80.000	19.998	100.979	19.910	8.137	0.541
732.000	439.194	79.999	19.997	100.982	19.908	8.318	0.546
734.000	440.236	79.999	19.997	100.981	19.912	8.018	0.525
736.000	441.346	79.999	19.999	101.000	19.912	8.031	0.530
738.000	442.383	79.997	19.996	100.986	19.913	7.929	0.505
740.000	443.484	79.999	19.997	100.985	19.912	7.997	0.510
742.000	444.509	79.998	19.997	100.984	19.916	7.753	0.503
744.000	445.597	79.997	19.996	100.983	19.921	7.408	0.539
746.000	446.641	79.998	19.996	100.982	19.916	7.738	0.493
748.000	447.692	79.999	19.995	100.985	19.919	7.523	0.528
750.000	448.820	79.998	19.995	100.982	19.919	7.545	0.555
752.000	449.879	79.999	19.995	100.977	19.917	7.708	0.539
754.000	450.894	80.000	19.995	100.981	19.924	7.204	0.504
756.000	451.982	80.001	19.996	100.982	19.926	7.077	0.541
758.000	453.074	79.999	19.996	100.980	19.924	7.209	0.503
760.000	454.090	80.000	19.995	100.976	19.922	7.310	0.521
762.000	455.165	79.999	19.996	100.976	19.925	7.145	0.528
764.000	456.225	79.998	19.997	100.978	19.925	7.111	0.543
766.000	457.275	79.996	19.996	100.978	19.930	6.797	0.525
768.000	458.334	79.998	19.995	100.977	19.934	6.511	0.564
770.000	459.374	79.999	19.997	100.980	19.933	6.555	0.505
772.000	460.406	79.999	19.995	100.977	19.931	6.706	0.518
774.000	461.413	79.999	19.997	100.977	19.937	6.256	0.465
776.000	462.471	79.999	19.996	100.971	19.934	6.466	0.500
778.000	463.509	79.998	19.995	100.967	19.939	6.141	0.507
780.000	464.558	79.998	19.996	100.975	19.937	6.275	0.543
782.000	465.562	80.000	19.996	100.977	19.935	6.415	0.520
784.000	466.532	79.999	19.996	100.977	19.936	6.369	0.492
786.000	467.569	80.000	19.996	100.976	19.935	6.399	0.509
788.000	468.608	80.000	19.995	100.977	19.942	5.953	0.504
790.001	469.628	79.998	19.996	100.978	19.940	6.107	0.545
792.000	470.638	79.998	19.997	100.978	19.943	5.864	0.511
794.000	471.645	79.997	19.997	100.977	19.943	5.845	0.498
796.000	472.634	79.996	19.995	100.971	19.942	5.902	0.506
798.000	473.630	79.997	19.995	100.973	19.945	5.737	0.543
800.000	474.672	79.996	19.996	100.977	19.946	5.641	0.516
802.000	475.680	79.997	19.996	100.977	19.946	5.630	0.480
804.000	476.672	79.996	19.995	100.977	19.949	5.458	0.484
806.000	477.682	79.998	19.997	100.977	19.953	5.197	0.489
808.000	478.730	79.999	19.996	100.973	19.952	5.214	0.498
810.000	479.700	79.999	19.996	100.965	19.946	5.628	0.488
812.000	480.708	80.001	19.996	100.974	19.949	5.462	0.518
814.000	481.702	80.000	19.996	100.977	19.948	5.517	0.499
816.000	482.705	80.001	19.995	100.971	19.951	5.324	0.516
818.000	483.720	79.999	19.996	100.970	19.949	5.452	0.512
820.000	484.706	79.998	19.996	100.969	19.952	5.243	0.507
822.000	485.712	79.999	19.996	100.975	19.950	5.371	0.507
824.000	486.668	79.997	19.997	100.973	19.952	5.211	0.470
826.000	487.712	79.999	19.998	100.976	19.956	4.962	0.521
828.000	488.666	79.999	19.997	100.973	19.951	5.294	0.504
830.000	489.675	79.999	19.997	100.969	19.951	5.316	0.501
832.000	490.710	79.999	19.997	100.972	19.951	5.278	0.495
834.000	491.693	79.999	19.996	100.973	19.950	5.407	0.459
836.000	492.748	80.000	19.996	100.974	19.955	5.045	0.476
838.000	493.798	80.002	19.996	100.971	19.953	5.160	0.526
840.000	494.814	80.001	19.995	100.972	19.952	5.249	0.498
842.000	495.831	80.001	19.995	100.967	19.954	5.117	0.494
844.000	496.891	79.999	19.995	100.962	19.956	4.961	0.493
846.000	497.925	79.999	19.995	100.973	19.953	5.200	0.504
848.000	498.913	79.998	19.994	100.974	19.959	4.762	0.480
850.000	499.969	79.998	19.995	100.979	19.956	4.932	0.519
852.000	501.021	79.998	19.995	100.979	19.961	4.603	0.531
854.000	502.051	79.998	19.995	100.991	19.959	4.728	0.539
856.000	503.094	79.998	19.995	100.997	19.958	4.847	0.532
858.000	504.130	79.999	19.997	100.984	19.967	4.207	0.518
860.000	505.127	79.998	19.997	100.982	19.959	4.758	0.536
862.000	506.191	79.998	19.996	100.978	19.961	4.596	0.491
864.000	507.240	79.997	19.995	100.982	19.961	4.622	0.516
866.001	508.275	79.998	19.996	100.981	19.958	4.788	0.512
868.000	509.275	79.997	19.996	100.978	19.962	4.511	0.537
870.000	510.291	79.998	19.996	100.977	19.962	4.505	0.513
872.000	511.363	79.998	19.996	100.978	19.963	4.501	0.527
874.000	512.344	79.999	19.995	100.978	19.965	4.295	0.490
876.000	513.371	79.997	19.996	100.980	19.963	4.450	0.525
878.000	514.423	79.998	19.994	100.978	19.967	4.161	0.531
880.000	515.467	79.998	19.995	100.979	19.964	4.390	0.512
882.000	516.501	79.998	19.996	100.977	19.967	4.224	0.556
884.000	517.578	79.997	19.995	100.977	19.966	4.273	0.538
886.000	518.600	79.998	19.995	100.976	19.965	4.346	0.522
888.000	519.666	79.999	19.995	100.978	19.964	4.405	0.544
890.000	520.660	80.000	19.996	100.975	19.964	4.398	0.506
892.000	521.707	80.000	19.995	100.974	19.965	4.307	0.516
894.000	522.732	80.000	19.997	100.971	19.958	4.784	0.507
896.000	523.772	80.001	19.996	100.973	19.958	4.797	0.540
898.000	524.773	80.001	19.997	100.973	19.963	4.490	0.512
900.000	525.781	79.998	19.996	100.981	19.965	4.344	0.486
902.000	526.842	79.999	19.996	100.984	19.965	4.352	0.489
904.000	527.867	80.001	19.996	100.976	19.964	4.414	0.497
906.000	528.866	80.000	19.997	100.975	19.964	4.369	0.513
908.000	529.931	79.999	19.995	100.974	19.965	4.356	0.526
910.000	530.924	80.000	19.995	100.974	19.964	4.429	0.523
912.000	531.974	80.000	19.995	100.973	19.960	4.699	0.507
914.000	532.998	80.000	19.998	100.977	19.961	4.632	0.517
916.000	534.007	80.001	19.997	100.976	19.967	4.171	0.490
918.000	535.036	80.001	19.996	100.978	19.964	4.409	0.502
920.000	536.076	80.001	19.996	100.977	19.966	4.271	0.515
922.000	537.094	80.001	19.996	100.977	19.964	4.405	0.497
924.000	538.065	79.999	19.996	100.979	19.966	4.252	0.511
926.000	539.091	80.000	19.996	100.983	19.961	4.610	0.507
928.000	540.136	79.998	19.995	100.984	19.958	4.801	0.508
930.000	541.178	79.999	19.996	100.978	19.963	4.462	0.518
932.000	542.222	79.999	19.995	100.986	19.967	4.225	0.516
934.000	543.238	79.998	19.996	100.973	19.964	4.425	0.508
936.000	544.252	79.999	19.997	100.982	19.964	4.400	0.529
938.000	545.223	79.997	19.996	100.990	19.964	4.384	0.503
940.000	546.226	79.998	19.995	100.980	19.963	4.470	0.470
942.000	547.292	79.999	19.996	100.990	19.964	4.371	0.504
944.000	548.267	79.997	19.994	101.003	19.966	4.235	0.499
946.000	549.356	80.000	19.995	100.987	19.964	4.432	0.513
948.000	550.400	79.999	19.995	100.980	19.964	4.430	0.537
950.000	551.398	79.998	19.996	100.982	19.962	4.550	0.493
952.000	552.399	80.000	19.996	100.991	19.962	4.541	0.479
954.000	553.404	79.999	19.996	100.982	19.964	4.390	0.507
956.000	554.467	79.998	19.996	100.983	19.961	4.619	0.508
958.000	555.499	79.999	19.995	100.977	19.962	4.557	0.509
960.000	556.516	80.000	19.997	100.981	19.966	4.239	0.501
962.000	557.520	79.998	19.996	100.983	19.963	4.436	0.500
964.000	558.544	79.999	19.996	100.986	19.959	4.782	0.506
966.000	559.589	79.998	19.995	100.990	19.962	4.509	0.518
968.000	560.605	80.000	19.995	100.998	19.965	4.315	0.519
970.000	561.655	80.000	19.995	100.999	19.964	4.368	0.543
972.000	562.671	80.000	19.995	100.989	19.960	4.663	0.493
974.000	563.638	80.001	19.996	100.986	19.959	4.778	0.504
976.000	564.664	80.000	19.997	100.983	19.958	4.806	0.498
978.000	565.695	80.000	19.995	100.993	19.961	4.606	0.538
980.000	566.741	79.999	19.995	100.995	19.961	4.620	0.549
982.000	567.706	79.999	19.997	101.004	19.962	4.544	0.495
984.000	568.746	79.998	19.996	101.006	19.970	3.945	0.532
986.000	569.776	79.999	19.997	100.994	19.966	4.264	0.518
988.000	570.775	80.000	19.997	100.995	19.964	4.380	0.485
990.000	571.778	80.000	19.996	100.999	19.964	4.429	0.478
992.000	572.845	79.999	19.996	100.999	19.964	4.387	0.547
994.000	573.882	79.999	19.995	100.995	19.961	4.598	0.514
996.000	574.920	79.999	19.995	100.998	19.964	4.398	0.522
998.000	576.021	80.001	19.995	100.991	19.961	4.616	0.557
1000.000	576.988	80.002	19.995	101.009	19.966	4.270	0.497
1002.000	577.997	80.000	19.995	101.011	19.963	4.444	0.483
1004.000	578.997	80.002	19.996	100.995	19.966	4.255	0.476
1006.000	580.046	80.000	19.995	101.008	19.964	4.417	0.519
1008.000	581.063	79.998	19.995	101.000	19.962	4.511	0.499
1010.000	582.103	79.996	19.996	101.000	19.957	4.904	0.533
1012.000	583.127	79.998	19.996	101.000	19.960	4.655	0.517
1014.000	584.166	79.997	19.997	101.000	19.960	4.669	0.556
1016.000	585.147	79.998	19.997	100.984	19.962	4.567	0.508
1018.000	586.207	79.998	19.997	100.990	19.966	4.289	0.539
1020.000	587.216	79.997	19.996	100.999	19.967	4.170	0.483
1022.000	588.229	79.998	19.996	101.002	19.965	4.340	0.515
1024.000	589.265	79.999	19.996	101.009	19.964	4.435	0.487
1026.000	590.270	79.998	19.996	101.004	19.963	4.489	0.494
1028.000	591.316	80.000	19.995	101.004	19.960	4.646	0.526
1030.000	592.372	79.999	19.996	101.001	19.961	4.580	0.513
1032.000	593.396	79.999	19.996	101.002	19.959	4.744	0.519
1034.001	594.426	79.999	19.996	101.014	19.965	4.355	0.541
1036.000	595.466	79.998	19.996	101.012	19.961	4.627	0.498
1038.000	596.460	79.999	19.997	101.004	19.961	4.610	0.493
1040.000	597.511	79.998	19.995	101.011	19.959	4.782	0.525
1042.000	598.540	79.998	19.996	101.009	19.965	4.357	0.515
1044.000	599.564	79.998	19.996	101.010	19.962	4.570	0.527
1046.000	600.619	79.999	19.996	101.008	19.961	4.608	0.544
1048.000	601.634	79.999	19.996	101.002	19.963	4.493	0.513
1050.000	602.644	79.999	19.996	101.008	19.958	4.799	0.487
1052.000	603.660	80.000	19.996	101.011	19.965	4.314	0.496
1054.000	604.719	80.001	19.995	101.006	19.965	4.354	0.520
1056.000	605.791	80.001	19.996	101.002	19.963	4.463	0.536
1058.000	606.731	80.000	19.996	100.999	19.961	4.601	0.497
1060.000	607.763	80.000	19.996	101.008	19.964	4.376	0.484
1062.000	608.781	79.999	19.995	101.014	19.963	4.480	0.490
1064.000	609.854	79.999	19.994	101.015	19.968	4.131	0.545
1066.000	610.871	79.999	19.995	101.014	19.967	4.211	0.524
1068.000	611.880	80.000	19.994	101.016	19.963	4.500	0.498
1070.001	612.953	80.000	19.996	101.003	19.963	4.464	0.513
1072.000	613.974	79.999	19.996	101.011	19.963	4.451	0.533
1074.000	615.019	79.999	19.997	101.015	19.967	4.185	0.524
1076.001	616.015	80.000	19.996	100.998	19.962	4.570	0.504
1078.000	617.044	80.003	19.998	100.998	19.963	4.471	0.499
1080.000	618.036	80.003	19.996	101.003	19.960	4.646	0.511
1082.000	619.088	80.004	19.995	100.994	19.963	4.442	0.496
1084.000	620.115	80.002	19.996	100.995	19.965	4.361	0.512
1086.000	621.100	80.002	19.995	100.990	19.966	4.231	0.492
1088.001	622.102	80.001	19.997	101.012	19.959	4.769	0.509
1090.001	623.123	79.999	19.996	101.009	19.957	4.876	0.502
1092.000	624.120	79.999	19.996	101.001	19.962	4.554	0.509
1094.000	625.134	79.997	19.995	101.002	19.960	4.695	0.516
1096.000	626.159	79.999	19.997	101.011	19.965	4.310	0.507
1098.001	627.190	79.999	19.996	101.013	19.965	4.329	0.516
1100.000	628.231	79.999	19.996	101.012	19.960	4.697	0.523
1102.001	629.236	79.997	19.996	101.011	19.955	5.038	0.494
1104.000	630.231	80.000	19.995	101.010	19.965	4.353	0.506
1106.000	631.260	79.999	19.997	101.008	19.961	4.595	0.531
1108.001	632.265	79.997	19.995	101.009	19.958	4.816	0.511
1110.001	633.318	79.997	19.996	101.009	19.961	4.616	0.528
1112.001	634.317	79.999	19.997	101.006	19.962	4.523	0.511
1114.000	635.287	79.998	19.997	100.996	19.961	4.606	0.497
1116.001	636.359	79.997	19.995	101.010	19.962	4.518	0.517
1118.000	637.383	79.999	19.996	101.013	19.961	4.592	0.524
1120.000	638.397	80.000	19.996	101.014	19.957	4.897	0.539
1122.000	639.477	79.997	19.995	101.002	19.963	4.442	0.502
1124.001	640.418	80.001	19.997	100.995	19.956	4.931	0.517
1126.000	641.470	79.996	19.996	101.014	19.953	5.176	0.498
1128.001	642.479	79.998	19.995	101.015	19.962	4.552	0.531
1130.000	643.516	79.999	19.994	101.010	19.963	4.501	0.512
1132.000	644.499	80.000	19.998	100.999	19.960	4.708	0.490
1134.001	645.536	79.999	19.994	101.005	19.964	4.423	0.514
1136.000	646.542	80.002	19.997	101.000	19.961	4.578	0.514
1138.000	647.570	80.000	19.996	101.007	19.966	4.285	0.523
1140.000	648.544	80.000	19.995	101.015	19.961	4.584	0.490
1142.000	649.621	79.999	19.995	101.003	19.964	4.429	0.551
1144.000	650.656	80.001	19.995	101.004	19.960	4.697	0.519
1146.001	651.677	80.001	19.997	101.010	19.966	4.246	0.526
1148.000	652.747	80.000	19.994	101.003	19.962	4.557	0.540
1150.001	653.743	80.000	19.995	101.005	19.957	4.875	0.514
1152.000	654.763	80.001	19.996	101.007	19.962	4.520	0.520
1154.000	655.791	80.002	19.996	101.009	19.961	4.576	0.500
1156.000	656.849	80.000	19.995	101.011	19.958	4.797	0.526
1158.001	657.853	80.000	19.994	101.010	19.959	4.750	0.504
1160.000	658.864	80.004	19.995	101.013	19.958	4.799	0.487
1162.001	659.874	80.003	19.994	101.013	19.959	4.763	0.501
1164.000	660.875	80.001	19.995	101.013	19.956	4.950	0.506
1166.001	661.900	79.999	19.994	101.012	19.958	4.829	0.510
1168.000	662.931	80.003	19.998	101.011	19.957	4.873	0.485
1170.000	663.917	79.998	19.996	101.011	19.959	4.767	0.488
1172.000	664.968	79.999	19.995	101.012	19.951	5.319	0.524
1174.000	665.960	80.001	19.996	101.005	19.957	4.871	0.523
1176.000	666.977	79.999	19.996	101.010	19.956	4.937	0.498
1178.000	667.997	79.998	19.995	101.011	19.954	5.111	0.491
1180.000	669.045	79.999	19.997	101.013	19.952	5.252	0.520
1182.001	670.049	80.000	19.996	101.016	19.954	5.116	0.526
1184.000	671.052	79.999	19.996	101.016	19.952	5.237	0.504
1186.001	672.093	80.000	19.996	101.012	19.957	4.865	0.530
1188.000	673.100	79.998	19.996	101.012	19.953	5.181	0.513
1190.000	674.203	79.999	19.996	101.011	19.956	4.992	0.550
1192.000	675.182	80.000	19.995	101.000	19.958	4.788	0.541
1194.001	676.202	80.000	19.995	101.006	19.959	4.758	0.482
1196.000	677.193	79.999	19.995	101.015	19.960	4.712	0.518
1198.000	678.198	79.998	19.995	101.015	19.957	4.897	0.487
1200.000	679.291	80.000	19.998	101.014	19.953	5.138	0.537
1202.001	680.275	79.995	19.995	101.015	19.960	4.688	0.503
1204.000	681.310	79.999	19.996	101.015	19.954	5.092	0.532
1206.001	682.329	80.000	19.996	101.013	19.958	4.844	0.529
1208.001	683.340	79.998	19.997	101.009	19.954	5.110	0.475
1210.001	684.377	80.001	19.996	100.992	19.954	5.122	0.543
1212.000	685.377	80.000	19.997	101.012	19.949	5.481	0.498
1214.000	686.428	79.998	19.997	101.014	19.952	5.256	0.509
1216.000	687.416	80.001	19.996	101.014	19.955	5.039	0.510
1218.000	688.440	80.003	19.997	101.008	19.954	5.127	0.508
1220.000	689.463	80.004	19.999	101.010	19.951	5.305	0.516
1222.000	690.447	80.003	19.994	101.013	19.952	5.239	0.451
1224.001	691.486	80.001	19.996	101.011	19.950	5.364	0.483
1226.000	692.454	80.001	19.997	101.012	19.948	5.508	0.488
1228.001	693.494	80.002	19.994	101.004	19.954	5.095	0.487
1230.000	694.560	80.000	19.996	101.009	19.947	5.621	0.531
1232.000	695.567	80.000	19.997	101.007	19.949	5.445	0.526
1234.000	696.507	80.002	19.998	101.012	19.948	5.515	0.465
1236.000	697.569	80.002	19.995	101.011	19.951	5.335	0.518
1238.000	698.550	80.002	19.995	100.992	19.948	5.511	0.498
1240.000	699.551	80.001	19.996	101.006	19.953	5.198	0.486
1242.000	700.552	80.001	19.995	101.014	19.945	5.730	0.509
1244.000	701.565	80.003	19.997	101.017	19.943	5.845	0.476
1246.001	702.559	80.002	19.994	101.017	19.947	5.566	0.526
1248.000	703.596	80.002	19.996	101.014	19.948	5.509	0.498
1250.000	704.569	80.001	19.995	101.016	19.944	5.794	0.486
1252.001	705.599	80.002	19.995	101.016	19.950	5.351	0.508
1254.000	706.588	80.000	19.995	101.017	19.947	5.573	0.510
1256.000	707.579	80.000	19.994	101.017	19.946	5.685	0.527
1258.000	708.585	80.000	19.996	101.014	19.947	5.596	0.510
1260.000	709.587	79.999	19.995	101.013	19.945	5.755	0.502
1262.000	710.574	80.000	19.997	101.018	19.949	5.458	0.495
1264.001	711.601	80.000	19.996	101.017	19.944	5.775	0.510
1266.000	712.623	79.999	19.996	101.015	19.945	5.736	0.492
1268.001	713.611	79.999	19.996	101.016	19.947	5.562	0.475
1270.001	714.621	79.997	19.996	101.020	19.947	5.569	0.528
1272.000	715.658	79.999	19.996	101.016	19.950	5.381	0.517
1274.000	716.629	79.998	19.994	101.013	19.948	5.524	0.493
1276.000	717.703	80.000	19.995	101.019	19.948	5.490	0.523
1278.000	718.665	80.000	19.997	101.015	19.951	5.320	0.473
1280.000	719.668	79.999	19.996	101.012	19.945	5.724	0.514
1282.000	720.709	79.999	19.995	101.012	19.947	5.585	0.499
1284.001	721.728	79.999	19.997	101.013	19.943	5.894	0.521
1286.000	722.724	79.997	19.998	101.013	19.944	5.832	0.511
1288.001	723.746	79.998	19.997	101.012	19.949	5.462	0.524
1290.000	724.770	79.999	19.997	101.012	19.946	5.666	0.490
1292.000	725.757	79.999	19.997	101.013	19.947	5.560	0.506
1294.000	726.787	80.000	19.999	101.015	19.947	5.597	0.489
1296.000	727.820	79.999	19.999	101.012	19.947	5.589	0.512
1298.000	728.829	80.001	19.997	101.014	19.949	5.453	0.501
1300.001	729.844	80.001	19.997	101.012	19.945	5.696	0.523
1302.000	730.898	80.001	19.996	101.012	19.947	5.581	0.543
1304.001	731.919	80.001	19.995	101.017	19.947	5.562	0.515
1306.001	732.919	80.000	19.995	101.023	19.944	5.789	0.506
1308.000	733.944	80.001	19.995	101.016	19.945	5.758	0.534
1310.001	734.964	80.000	19.997	101.015	19.944	5.792	0.485
1312.000	735.999	80.000	19.996	101.016	19.941	6.006	0.513
1314.000	736.975	80.000	19.997	101.015	19.945	5.758	0.522
1316.000	738.007	80.001	19.995	101.017	19.946	5.658	0.543
1318.000	739.001	80.001	19.995	101.014	19.946	5.689	0.497
1320.000	740.036	80.001	19.996	101.015	19.942	5.936	0.517
1322.000	741.042	80.002	19.997	101.015	19.946	5.641	0.514
1324.000	742.028	80.002	19.995	101.016	19.944	5.813	0.514
1326.001	743.029	80.002	19.995	101.018	19.942	5.923	0.512
1327.000	743.523	80.000	19.995	101.017	19.950	5.401	0.503