File: 01_Data/Particleboard/MCC/Particleboard_MCC_30K_min_211006_R2.txt
Sample ID:	C:\MCC\MCC Cal\Test\Particleboard_MCC_30K_min_211006_R2.txt
Sample Weight (mg):	4.92
Heating Rate (C/s):	0.5
Combustor Temp (C):	900
N2 Flow Rate (cc/min):	80
O2 Flow Rate (cc/min):	20
Calibration File:	C:\MCC\MCC Cal\Coeff1 JN10440_30_210304.txt.txt
T Correction Coefficients:	0	1.024463	0
Time Shift (s):	14
*
Time (s)	Temperature (C)	N2 flow rate (cc/min)	O2 flow rate (cc/min)	Flow Rate (cc/min)	Oxygen (%)	HRR (W/g)	Heating rate (C/s)
0.000	107.789	79.993	19.995	100.640	20.046	-0.038	-0.017
1.500	107.799	79.994	20.001	100.652	20.043	0.154	0.012
3.000	107.798	79.995	19.992	100.648	20.047	-0.105	-0.006
4.500	107.789	80.001	19.993	100.655	20.042	0.202	-0.001
6.000	107.769	79.998	19.996	100.657	20.046	-0.047	-0.011
7.500	107.756	79.994	19.992	100.657	20.043	0.150	-0.002
9.001	107.769	79.995	19.990	100.673	20.041	0.280	-0.007
10.500	107.784	79.999	19.997	100.684	20.039	0.373	0.009
12.000	107.805	79.996	19.993	100.701	20.035	0.636	0.014
13.500	107.804	79.997	19.994	100.707	20.036	0.606	0.012
15.000	107.857	79.999	19.997	100.707	20.033	0.796	0.038
16.500	107.876	80.000	19.992	100.713	20.032	0.833	0.018
18.000	107.886	79.998	19.994	100.737	20.031	0.926	0.033
19.500	107.952	79.998	19.994	100.753	20.026	1.206	0.055
21.000	107.993	79.998	19.996	100.774	20.021	1.515	0.039
22.500	108.109	79.996	19.995	100.798	20.018	1.759	0.092
24.000	108.167	79.995	19.994	100.823	20.014	2.024	0.060
25.500	108.303	79.994	19.996	100.826	20.012	2.153	0.090
27.000	108.399	79.996	19.993	100.840	20.009	2.288	0.066
28.500	108.596	79.994	19.994	100.860	20.010	2.229	0.124
30.000	108.778	79.995	19.993	100.864	20.009	2.312	0.120
31.500	108.924	79.995	19.995	100.862	20.004	2.620	0.118
33.000	109.124	79.994	19.997	100.857	20.004	2.665	0.155
34.500	109.398	79.993	19.995	100.866	20.004	2.654	0.176
36.000	109.626	79.996	19.996	100.864	20.004	2.665	0.153
37.500	109.859	79.997	19.995	100.861	20.000	2.884	0.158
39.000	110.141	79.991	19.997	100.863	20.004	2.653	0.178
40.500	110.384	79.996	19.996	100.859	20.000	2.874	0.176
42.000	110.746	79.994	19.994	100.852	20.001	2.822	0.252
43.500	111.067	79.998	19.996	100.858	20.003	2.677	0.211
45.000	111.407	79.994	19.997	100.859	19.999	2.931	0.206
46.500	111.716	79.996	19.993	100.857	19.999	2.928	0.202
48.000	112.055	79.995	19.994	100.864	20.000	2.869	0.221
49.500	112.405	79.996	19.995	100.868	19.999	2.961	0.247
51.000	112.773	79.995	19.995	100.882	19.998	3.003	0.264
52.500	113.166	79.995	19.996	100.878	19.998	3.032	0.264
54.001	113.545	79.994	19.995	100.870	19.997	3.077	0.254
55.500	113.957	79.996	19.997	100.875	19.995	3.188	0.283
57.000	114.370	79.994	19.996	100.882	19.998	3.034	0.264
58.500	114.754	79.994	19.996	100.887	19.998	3.006	0.254
60.000	115.186	79.995	19.996	100.888	19.996	3.136	0.275
61.500	115.604	79.994	19.995	100.901	19.998	2.996	0.297
63.000	116.125	79.994	19.995	100.901	19.995	3.235	0.326
64.500	116.545	79.995	19.996	100.901	19.998	3.007	0.285
66.000	116.996	79.995	19.996	100.901	19.998	3.005	0.295
67.500	117.506	79.995	19.996	100.909	19.994	3.285	0.332
69.001	118.002	79.994	19.996	100.909	19.997	3.074	0.305
70.500	118.553	79.996	19.995	100.907	19.997	3.111	0.379
72.000	119.046	79.995	19.996	100.913	19.994	3.263	0.346
73.500	119.619	79.996	19.993	100.921	19.992	3.418	0.362
75.000	120.134	79.994	19.996	100.914	19.992	3.406	0.346
76.500	120.633	79.996	19.996	100.909	19.993	3.315	0.344
78.000	121.226	79.994	19.995	100.907	19.991	3.477	0.397
79.500	121.849	79.995	19.995	100.913	19.994	3.252	0.408
81.000	122.463	79.996	19.995	100.923	19.995	3.209	0.416
82.500	123.034	79.995	19.996	100.917	19.994	3.256	0.407
84.000	123.638	79.995	19.996	100.920	19.992	3.371	0.405
85.500	124.220	79.997	19.993	100.922	19.995	3.231	0.389
87.001	124.819	79.994	19.994	100.923	19.993	3.335	0.414
88.501	125.429	79.996	19.994	100.921	19.992	3.395	0.396
90.000	126.066	79.990	19.998	100.920	19.992	3.418	0.433
91.500	126.713	79.996	19.995	100.919	19.994	3.293	0.413
93.000	127.346	79.997	19.994	100.918	19.990	3.542	0.440
94.500	128.038	79.997	19.995	100.911	19.994	3.255	0.461
96.001	128.680	79.998	19.996	100.907	19.993	3.344	0.437
97.500	129.334	79.998	19.996	100.908	19.996	3.148	0.416
99.000	129.980	79.997	19.995	100.905	19.993	3.311	0.436
100.500	130.645	79.999	19.995	100.905	19.995	3.195	0.443
102.000	131.347	79.996	19.995	100.908	19.996	3.167	0.463
103.500	131.973	79.997	19.995	100.906	19.996	3.165	0.416
105.001	132.684	79.995	19.994	100.903	19.994	3.281	0.485
106.500	133.355	79.995	19.996	100.904	19.994	3.248	0.416
108.001	134.106	79.995	19.995	100.908	19.997	3.112	0.487
109.500	134.789	79.994	19.995	100.902	19.997	3.094	0.474
111.000	135.484	79.995	19.995	100.903	19.994	3.298	0.466
112.500	136.164	79.994	19.996	100.905	19.990	3.499	0.446
114.001	136.846	79.996	19.996	100.903	19.993	3.369	0.457
115.500	137.612	79.995	19.996	100.902	19.993	3.314	0.514
117.000	138.324	79.996	19.995	100.901	19.993	3.369	0.476
118.500	139.037	79.992	19.995	100.903	19.993	3.319	0.459
120.000	139.735	79.995	19.996	100.903	19.994	3.298	0.481
121.500	140.489	79.996	19.996	100.899	19.998	3.023	0.506
123.000	141.168	79.996	19.994	100.894	19.996	3.139	0.477
124.501	141.886	79.997	19.995	100.894	19.998	3.046	0.479
126.000	142.585	79.998	19.995	100.896	19.996	3.172	0.470
127.501	143.325	79.995	19.996	100.897	20.000	2.864	0.495
129.000	144.006	79.996	19.994	100.898	20.000	2.869	0.448
130.500	144.797	79.995	19.995	100.901	19.999	2.937	0.492
132.000	145.491	79.993	19.996	100.897	20.000	2.883	0.469
133.500	146.240	79.990	19.999	100.893	19.999	2.968	0.487
135.000	146.946	79.995	19.994	100.893	20.000	2.887	0.489
136.500	147.696	79.995	19.996	100.898	20.002	2.781	0.517
138.000	148.426	79.995	19.995	100.899	20.001	2.854	0.482
139.500	149.144	79.994	19.994	100.893	19.999	2.965	0.454
141.000	149.913	79.994	19.995	100.881	19.999	2.966	0.501
142.500	150.631	79.992	19.998	100.891	20.000	2.873	0.488
144.000	151.362	79.995	19.995	100.901	20.004	2.607	0.517
145.500	152.077	79.995	19.995	100.900	20.004	2.648	0.485
147.000	152.804	79.995	19.996	100.896	20.002	2.748	0.456
148.500	153.526	79.995	19.996	100.895	19.999	2.931	0.484
150.000	154.241	79.994	19.995	100.900	20.001	2.840	0.469
151.500	154.981	79.995	19.996	100.899	19.997	3.090	0.481
153.000	155.680	79.995	19.996	100.896	19.998	2.997	0.474
154.500	156.402	79.995	19.995	100.892	19.997	3.065	0.486
156.001	157.165	79.995	19.996	100.898	20.002	2.757	0.504
157.501	157.887	79.994	19.996	100.893	19.997	3.080	0.476
159.001	158.636	80.000	19.993	100.873	19.998	3.035	0.505
160.500	159.368	79.996	19.995	100.876	19.994	3.253	0.485
162.000	160.106	79.996	19.995	100.881	19.994	3.246	0.509
163.501	160.817	79.996	19.997	100.885	19.997	3.061	0.458
165.001	161.502	79.995	19.996	100.891	19.996	3.163	0.467
166.500	162.274	79.995	19.996	100.890	19.992	3.403	0.511
168.000	162.982	79.995	19.997	100.882	19.995	3.221	0.511
169.500	163.756	79.996	19.997	100.879	19.994	3.247	0.502
171.000	164.541	79.996	19.997	100.891	19.995	3.204	0.526
172.500	165.241	79.995	19.997	100.898	19.992	3.414	0.477
174.000	165.931	79.996	19.997	100.886	19.992	3.409	0.495
175.500	166.685	79.995	19.997	100.872	19.990	3.535	0.503
177.000	167.421	79.997	19.997	100.882	19.989	3.600	0.504
178.500	168.181	79.999	19.995	100.872	19.990	3.535	0.489
180.000	168.916	79.997	19.996	100.869	19.989	3.599	0.478
181.500	169.657	79.998	19.994	100.877	19.987	3.713	0.511
183.000	170.421	79.998	19.995	100.891	19.987	3.713	0.501
184.500	171.139	79.998	19.994	100.896	19.987	3.703	0.481
186.000	171.843	79.997	19.996	100.897	19.983	3.962	0.472
187.500	172.598	79.996	19.996	100.888	19.982	4.036	0.513
189.001	173.350	79.995	19.996	100.896	19.984	3.943	0.505
190.500	174.071	79.996	19.995	100.896	19.988	3.675	0.491
192.001	174.808	79.995	19.996	100.889	19.982	4.012	0.489
193.500	175.551	79.994	19.995	100.890	19.984	3.905	0.498
195.000	176.319	79.995	19.996	100.898	19.980	4.174	0.519
196.500	177.042	79.994	19.996	100.901	19.979	4.215	0.486
198.001	177.806	79.995	19.994	100.899	19.976	4.449	0.507
199.501	178.531	79.994	19.995	100.898	19.979	4.221	0.471
201.000	179.296	79.995	19.995	100.902	19.979	4.260	0.504
202.500	180.081	79.995	19.995	100.901	19.977	4.360	0.532
204.000	180.888	79.995	19.996	100.898	19.979	4.255	0.538
205.500	181.620	79.995	19.995	100.884	19.978	4.270	0.480
207.000	182.338	79.996	19.995	100.873	19.977	4.378	0.482
208.500	183.118	79.995	19.997	100.879	19.975	4.501	0.509
210.001	183.800	79.996	19.996	100.890	19.978	4.326	0.462
211.501	184.630	79.996	19.996	100.883	19.976	4.425	0.542
213.000	185.430	79.997	19.994	100.880	19.975	4.482	0.529
214.500	186.151	79.995	19.995	100.869	19.977	4.357	0.490
216.001	186.929	79.996	19.995	100.865	19.975	4.479	0.511
217.501	187.700	79.994	19.996	100.871	19.978	4.303	0.505
219.000	188.517	79.995	19.995	100.883	19.977	4.379	0.542
220.500	189.211	79.994	19.994	100.879	19.974	4.578	0.452
222.001	189.983	79.995	19.995	100.878	19.972	4.673	0.509
223.500	190.763	79.994	19.996	100.889	19.968	4.948	0.540
225.000	191.523	79.995	19.997	100.885	19.969	4.866	0.524
226.500	192.291	79.995	19.995	100.871	19.968	4.906	0.498
228.000	193.039	79.996	19.996	100.873	19.967	5.015	0.498
229.500	193.847	79.996	19.996	100.873	19.968	4.951	0.525
231.000	194.585	79.996	19.996	100.865	19.965	5.117	0.497
232.500	195.352	79.996	19.996	100.862	19.964	5.198	0.503
234.000	196.080	79.997	19.997	100.864	19.963	5.278	0.472
235.501	196.816	79.999	19.995	100.866	19.964	5.183	0.486
237.000	197.541	79.996	19.995	100.869	19.960	5.431	0.480
238.500	198.279	79.999	19.996	100.866	19.963	5.243	0.493
240.001	199.060	79.997	19.995	100.864	19.961	5.353	0.507
241.501	199.789	79.996	19.996	100.844	19.960	5.438	0.486
243.000	200.502	79.996	19.997	100.802	19.961	5.360	0.478
244.501	201.271	79.996	19.995	100.882	19.960	5.454	0.505
246.000	202.005	79.997	19.995	100.915	19.963	5.232	0.501
247.500	202.805	79.996	19.994	100.869	19.960	5.431	0.512
249.000	203.527	79.995	19.996	100.863	19.956	5.709	0.480
250.500	204.260	79.997	19.997	100.860	19.956	5.712	0.498
252.001	205.003	79.996	19.997	100.861	19.960	5.443	0.515
253.500	205.772	79.996	19.996	100.861	19.957	5.609	0.508
255.000	206.511	79.997	19.996	100.861	19.956	5.735	0.480
256.500	207.269	79.995	19.997	100.858	19.957	5.621	0.510
258.000	208.008	79.997	19.996	100.858	19.957	5.611	0.503
259.500	208.702	79.996	19.995	100.857	19.954	5.835	0.451
261.000	209.471	79.996	19.998	100.851	19.953	5.889	0.508
262.500	210.185	79.997	19.995	100.851	19.954	5.804	0.473
264.000	210.921	79.997	19.995	100.853	19.954	5.847	0.477
265.500	211.683	79.997	19.997	100.849	19.952	5.981	0.492
267.000	212.397	79.996	19.997	100.851	19.952	5.987	0.477
268.500	213.067	79.996	19.997	100.858	19.952	5.964	0.444
270.000	213.818	79.996	19.995	100.855	19.951	6.000	0.504
271.500	214.533	79.995	19.996	100.853	19.953	5.913	0.476
273.000	215.324	79.996	19.996	100.861	19.952	5.991	0.502
274.501	215.987	79.993	19.996	100.857	19.948	6.211	0.462
276.000	216.715	79.995	19.996	100.862	19.949	6.173	0.492
277.500	217.467	79.996	19.995	100.854	19.949	6.166	0.485
279.000	218.160	79.994	19.996	100.840	19.952	5.972	0.480
280.500	218.898	79.996	19.994	100.853	19.948	6.202	0.502
282.000	219.587	79.995	19.994	100.862	19.946	6.347	0.494
283.500	220.320	79.993	19.996	100.864	19.945	6.404	0.480
285.000	221.082	79.995	19.994	100.865	19.945	6.392	0.502
286.500	221.749	79.994	19.995	100.865	19.947	6.288	0.433
288.000	222.482	79.995	19.995	100.867	19.941	6.641	0.499
289.500	223.239	79.996	19.994	100.867	19.941	6.646	0.481
291.000	223.954	79.996	19.995	100.863	19.940	6.741	0.476
292.500	224.702	79.996	19.994	100.863	19.940	6.731	0.495
294.000	225.437	79.996	19.996	100.861	19.940	6.717	0.498
295.500	226.136	79.995	19.996	100.861	19.940	6.755	0.463
297.000	226.883	79.996	19.993	100.861	19.942	6.605	0.510
298.500	227.636	79.995	19.996	100.861	19.942	6.587	0.490
300.000	228.376	79.996	19.995	100.861	19.941	6.637	0.490
301.500	229.117	79.996	19.996	100.861	19.942	6.624	0.483
303.000	229.853	79.995	19.995	100.862	19.937	6.932	0.490
304.500	230.623	79.996	19.996	100.862	19.939	6.767	0.491
306.000	231.339	79.996	19.996	100.863	19.940	6.751	0.473
307.500	232.095	79.994	19.996	100.862	19.937	6.905	0.474
309.000	232.812	79.997	19.995	100.863	19.934	7.104	0.473
310.500	233.557	79.996	19.996	100.859	19.938	6.881	0.493
312.001	234.319	79.997	19.996	100.861	19.934	7.133	0.498
313.500	235.081	79.997	19.995	100.866	19.933	7.151	0.513
315.000	235.804	79.998	19.994	100.866	19.931	7.286	0.473
316.500	236.532	79.997	19.995	100.861	19.933	7.198	0.488
318.000	237.303	79.998	19.995	100.859	19.934	7.084	0.533
319.500	238.043	79.997	19.995	100.860	19.931	7.296	0.528
321.000	238.754	79.997	19.995	100.860	19.933	7.191	0.461
322.500	239.469	79.997	19.995	100.860	19.931	7.303	0.477
324.000	240.219	79.997	19.995	100.861	19.929	7.417	0.490
325.500	240.951	79.996	19.996	100.867	19.927	7.550	0.478
327.000	241.697	79.996	19.995	100.869	19.928	7.513	0.493
328.500	242.447	79.996	19.998	100.866	19.926	7.617	0.505
330.000	243.224	79.995	19.996	100.865	19.926	7.595	0.522
331.500	243.973	79.997	19.996	100.864	19.926	7.638	0.481
333.000	244.711	79.996	19.995	100.864	19.921	7.970	0.474
334.500	245.485	79.997	19.996	100.864	19.925	7.673	0.521
336.000	246.207	79.997	19.996	100.865	19.921	7.934	0.476
337.500	246.972	79.997	19.994	100.873	19.923	7.843	0.520
339.000	247.688	79.998	19.995	100.869	19.918	8.139	0.478
340.500	248.410	79.998	19.996	100.864	19.917	8.170	0.501
342.000	249.159	79.998	19.995	100.862	19.915	8.325	0.510
343.500	249.944	79.998	19.995	100.862	19.915	8.360	0.527
345.000	250.738	79.999	19.996	100.865	19.913	8.479	0.530
346.500	251.455	79.998	19.996	100.868	19.910	8.635	0.479
348.000	252.217	79.997	19.996	100.868	19.909	8.707	0.509
349.500	252.973	79.996	19.996	100.877	19.904	9.025	0.498
351.001	253.701	79.997	19.997	100.877	19.904	9.009	0.470
352.500	254.459	79.994	19.996	100.889	19.902	9.186	0.514
354.000	255.227	79.995	19.996	100.896	19.900	9.317	0.499
355.500	255.982	79.996	19.998	100.895	19.896	9.530	0.503
357.000	256.707	79.995	19.996	100.887	19.898	9.406	0.486
358.500	257.495	79.996	19.995	100.890	19.892	9.815	0.523
360.000	258.240	79.996	19.995	100.894	19.890	9.955	0.488
361.500	258.968	79.997	19.996	100.893	19.887	10.146	0.513
363.000	259.767	79.997	19.997	100.893	19.881	10.512	0.521
364.501	260.546	79.997	19.995	100.895	19.882	10.462	0.525
366.000	261.295	79.997	19.996	100.898	19.880	10.567	0.484
367.500	262.034	79.997	19.996	100.897	19.875	10.918	0.482
369.000	262.812	79.997	19.996	100.898	19.874	10.984	0.539
370.500	263.634	79.997	19.995	100.899	19.868	11.366	0.551
372.000	264.368	79.996	19.996	100.900	19.865	11.529	0.493
373.500	265.138	79.997	19.996	100.897	19.863	11.664	0.516
375.000	265.839	79.996	19.996	100.893	19.860	11.857	0.479
376.500	266.638	79.997	19.994	100.895	19.857	12.054	0.532
378.000	267.374	79.996	19.995	100.900	19.854	12.260	0.496
379.500	268.182	79.997	19.995	100.900	19.852	12.344	0.514
381.000	268.906	79.996	19.997	100.902	19.848	12.603	0.494
382.500	269.698	79.995	19.997	100.901	19.841	13.072	0.533
384.000	270.484	79.995	19.995	100.900	19.841	13.088	0.524
385.500	271.276	79.994	19.996	100.900	19.838	13.279	0.527
387.000	272.004	79.994	19.995	100.902	19.830	13.740	0.493
388.500	272.812	79.996	19.996	100.906	19.827	13.978	0.549
390.000	273.521	79.996	19.996	100.922	19.825	14.127	0.513
391.500	274.316	79.996	19.997	100.913	19.819	14.501	0.505
393.001	275.095	79.996	19.994	100.905	19.815	14.729	0.514
394.500	275.808	79.997	19.996	100.911	19.810	15.041	0.473
396.000	276.593	79.997	19.994	100.921	19.807	15.246	0.535
397.500	277.369	79.998	19.995	100.888	19.801	15.642	0.517
399.000	278.131	79.998	19.995	100.865	19.798	15.847	0.512
400.500	278.894	79.997	19.994	100.964	19.798	15.831	0.511
402.000	279.657	79.996	19.995	100.980	19.791	16.241	0.516
403.500	280.448	79.999	19.995	100.933	19.789	16.389	0.534
405.000	281.208	79.997	19.995	100.927	19.785	16.654	0.514
406.500	281.959	79.998	19.995	100.929	19.782	16.869	0.516
408.000	282.725	79.997	19.994	100.918	19.776	17.204	0.499
409.500	283.481	79.997	19.994	100.912	19.770	17.639	0.477
411.000	284.277	79.996	19.995	100.924	19.768	17.766	0.530
412.500	284.996	79.997	19.996	100.932	19.761	18.187	0.483
414.000	285.776	79.996	19.996	100.933	19.759	18.314	0.518
415.500	286.546	79.997	19.996	100.939	19.755	18.584	0.495
417.000	287.353	79.997	19.995	100.938	19.753	18.708	0.537
418.500	288.117	79.998	19.996	100.940	19.747	19.071	0.519
420.000	288.844	79.998	19.996	100.936	19.739	19.592	0.498
421.500	289.608	79.998	19.995	100.933	19.736	19.798	0.522
423.000	290.393	79.997	19.995	100.937	19.730	20.164	0.517
424.500	291.182	79.998	19.996	100.936	19.725	20.512	0.522
426.000	291.956	79.997	19.995	100.938	19.719	20.884	0.512
427.500	292.716	79.999	19.995	100.938	19.715	21.149	0.511
429.000	293.508	79.997	19.996	100.938	19.709	21.512	0.526
430.500	294.277	79.997	19.995	100.937	19.709	21.538	0.518
432.000	295.065	79.996	19.996	100.937	19.701	22.057	0.522
433.500	295.760	79.996	19.996	100.938	19.699	22.143	0.452
435.000	296.492	79.996	19.997	100.938	19.689	22.786	0.499
436.500	297.253	79.996	19.995	100.939	19.685	23.035	0.518
438.000	298.040	79.996	19.996	100.939	19.679	23.434	0.521
439.500	298.736	79.996	19.995	100.940	19.678	23.506	0.482
441.000	299.525	79.996	19.997	100.940	19.666	24.250	0.544
442.500	300.286	79.995	19.997	100.940	19.664	24.426	0.499
444.000	300.963	79.995	19.997	100.939	19.657	24.848	0.466
445.500	301.742	79.996	19.996	100.939	19.651	25.212	0.529
447.000	302.501	79.995	19.997	100.938	19.645	25.644	0.513
448.500	303.224	79.996	19.999	100.942	19.641	25.858	0.491
450.000	303.947	79.996	19.997	100.946	19.636	26.208	0.486
451.500	304.651	79.996	19.996	100.953	19.629	26.651	0.459
453.000	305.388	79.996	19.996	100.953	19.623	27.065	0.499
454.500	306.101	79.996	19.995	100.947	19.616	27.457	0.502
456.000	306.841	79.995	19.995	100.951	19.612	27.753	0.498
457.500	307.582	79.995	19.995	100.946	19.605	28.210	0.503
459.000	308.281	79.995	19.997	100.956	19.601	28.436	0.461
460.500	308.986	79.995	19.996	100.968	19.591	29.081	0.481
462.000	309.709	79.994	19.996	100.967	19.585	29.454	0.486
463.500	310.405	79.995	19.996	100.973	19.580	29.816	0.453
465.000	311.144	79.995	19.997	100.976	19.572	30.331	0.496
466.500	311.834	79.994	19.996	100.965	19.564	30.805	0.462
468.000	312.565	79.995	19.995	100.974	19.562	30.966	0.492
469.500	313.312	79.995	19.995	100.981	19.552	31.607	0.485
471.000	313.998	79.996	19.995	100.980	19.545	32.065	0.445
472.500	314.718	79.994	19.997	100.982	19.539	32.447	0.470
474.000	315.425	79.996	19.995	100.986	19.534	32.749	0.475
475.500	316.114	79.996	19.994	100.993	19.525	33.293	0.480
477.000	316.840	79.995	19.995	101.003	19.520	33.621	0.483
478.500	317.596	79.996	19.996	101.011	19.509	34.328	0.525
480.000	318.311	79.996	19.995	101.015	19.502	34.819	0.490
481.500	319.006	79.999	19.995	101.014	19.494	35.304	0.470
483.000	319.793	79.998	19.994	101.018	19.489	35.652	0.517
484.500	320.474	79.998	19.995	101.017	19.481	36.149	0.476
486.000	321.228	79.997	19.995	101.020	19.470	36.875	0.488
487.500	321.991	79.998	19.995	101.018	19.459	37.561	0.505
489.000	322.759	79.996	19.994	101.018	19.449	38.203	0.511
490.500	323.539	79.997	19.995	101.022	19.443	38.601	0.504
492.000	324.255	79.997	19.995	101.031	19.430	39.419	0.475
493.500	325.017	79.997	19.995	101.035	19.421	39.976	0.514
495.000	325.785	79.997	19.995	101.028	19.416	40.305	0.525
496.500	326.536	79.996	19.995	101.040	19.407	40.891	0.499
498.000	327.316	79.998	19.995	101.045	19.400	41.329	0.519
499.500	328.088	79.998	19.995	101.032	19.393	41.768	0.516
501.000	328.835	79.998	19.996	101.027	19.380	42.613	0.495
502.500	329.589	79.998	19.995	101.044	19.367	43.475	0.488
504.000	330.341	79.998	19.996	101.056	19.354	44.277	0.493
505.500	331.115	79.998	19.996	101.057	19.348	44.709	0.519
507.000	331.877	79.997	19.996	101.057	19.338	45.325	0.510
508.500	332.674	79.996	19.997	101.054	19.329	45.878	0.561
510.000	333.436	79.996	19.996	101.057	19.325	46.152	0.521
511.500	334.238	79.997	19.996	101.062	19.314	46.852	0.538
513.000	335.013	79.997	19.996	101.063	19.306	47.394	0.517
514.500	335.793	79.997	19.995	101.068	19.298	47.888	0.528
516.000	336.559	79.997	19.996	101.070	19.288	48.548	0.504
517.500	337.357	79.995	19.995	101.060	19.282	48.880	0.504
519.001	338.117	79.995	19.996	101.057	19.273	49.465	0.515
520.500	338.888	79.994	19.995	101.068	19.266	49.959	0.523
522.000	339.674	79.995	19.996	101.063	19.261	50.243	0.545
523.500	340.465	79.996	19.995	101.058	19.258	50.430	0.529
525.000	341.243	79.995	19.995	101.059	19.254	50.681	0.513
526.500	342.024	79.996	19.997	101.060	19.250	50.919	0.546
528.000	342.766	79.994	19.996	101.059	19.248	51.068	0.514
529.500	343.531	79.995	19.996	101.059	19.246	51.182	0.501
531.000	344.249	79.994	19.997	101.057	19.248	51.040	0.473
532.500	345.050	79.997	19.996	101.049	19.246	51.201	0.515
534.000	345.801	79.995	19.998	101.041	19.246	51.160	0.480
535.500	346.544	79.996	19.997	101.037	19.250	50.960	0.519
537.000	347.308	79.995	19.996	101.032	19.251	50.856	0.523
538.500	348.062	79.994	19.996	101.028	19.257	50.495	0.502
540.000	348.838	79.994	19.997	101.020	19.263	50.099	0.490
541.500	349.587	79.994	19.996	101.020	19.272	49.529	0.527
543.000	350.369	79.994	19.995	101.009	19.278	49.122	0.499
544.500	351.113	79.995	19.996	100.990	19.279	49.025	0.465
546.001	351.810	79.994	19.996	100.997	19.296	47.976	0.461
547.500	352.596	79.995	19.995	100.991	19.299	47.745	0.521
549.000	353.375	79.995	19.996	100.982	19.311	47.021	0.491
550.500	354.100	79.995	19.996	100.980	19.324	46.164	0.430
552.000	354.935	79.993	19.995	100.978	19.336	45.382	0.549
553.500	355.729	79.996	19.995	100.968	19.350	44.512	0.550
555.000	356.516	79.996	19.995	100.959	19.363	43.620	0.549
556.500	357.585	79.995	19.995	100.951	19.381	42.485	0.626
558.000	358.250	79.997	19.995	100.942	19.397	41.498	0.520
559.500	358.463	79.996	19.996	100.932	19.414	40.384	0.077
561.000	359.581	79.998	19.996	100.918	19.431	39.299	0.517
562.500	360.338	79.998	19.996	100.904	19.449	38.162	0.486
564.000	361.117	79.997	19.995	100.906	19.468	36.919	0.529
565.500	361.885	79.996	19.994	100.902	19.487	35.728	0.530
567.000	362.668	79.997	19.995	100.895	19.506	34.503	0.518
568.500	363.446	79.997	19.996	100.889	19.520	33.581	0.545
570.000	364.201	79.997	19.997	100.880	19.542	32.192	0.499
571.500	364.930	79.997	19.996	100.871	19.559	31.061	0.489
573.000	365.715	79.996	19.995	100.862	19.576	30.017	0.517
574.500	366.498	79.996	19.996	100.860	19.596	28.736	0.518
576.000	367.273	79.996	19.996	100.859	19.617	27.391	0.518
577.500	368.032	79.997	19.995	100.854	19.638	26.017	0.495
579.000	368.806	79.998	19.994	100.848	19.654	25.032	0.540
580.500	369.562	79.999	19.996	100.838	19.674	23.753	0.506
582.000	370.321	79.998	19.995	100.829	19.689	22.761	0.507
583.500	371.092	79.999	19.994	100.830	19.704	21.820	0.527
585.000	371.830	79.998	19.994	100.825	19.724	20.560	0.515
586.500	372.626	79.999	19.994	100.823	19.740	19.535	0.521
588.000	373.375	79.998	19.994	100.821	19.752	18.754	0.506
589.500	374.112	79.998	19.995	100.820	19.767	17.799	0.491
591.000	374.887	79.998	19.995	100.811	19.780	16.934	0.516
592.500	375.604	79.997	19.995	100.807	19.794	16.039	0.487
594.000	376.404	79.995	19.996	100.817	19.807	15.229	0.514
595.500	377.160	79.996	19.995	100.809	19.817	14.617	0.476
597.000	377.900	79.996	19.996	100.809	19.829	13.808	0.493
598.500	378.631	79.995	19.996	100.799	19.838	13.253	0.481
600.000	379.413	79.995	19.995	100.796	19.846	12.736	0.530
601.500	380.148	79.995	19.996	100.805	19.855	12.128	0.482
603.000	380.865	79.996	19.995	100.795	19.862	11.739	0.478
604.500	381.598	79.996	19.996	100.789	19.871	11.155	0.511
606.000	382.357	79.996	19.994	100.795	19.879	10.646	0.516
607.500	383.069	79.995	19.996	100.806	19.880	10.556	0.479
609.000	383.816	79.996	19.995	100.802	19.887	10.143	0.507
610.500	384.565	79.996	19.995	100.796	19.897	9.501	0.508
612.000	385.324	79.996	19.995	100.805	19.895	9.578	0.504
613.500	386.038	79.996	19.996	100.808	19.897	9.496	0.478
615.000	386.782	79.998	19.996	100.804	19.903	9.106	0.473
616.500	387.514	79.996	19.996	100.809	19.911	8.591	0.479
618.000	388.338	79.996	19.996	100.809	19.910	8.612	0.524
619.500	389.080	79.996	19.996	100.806	19.914	8.403	0.489
621.000	389.814	79.995	19.996	100.805	19.920	8.018	0.490
622.500	390.573	79.995	19.995	100.803	19.921	7.960	0.503
624.000	391.335	79.995	19.997	100.804	19.922	7.878	0.500
625.500	392.102	79.995	19.996	100.799	19.922	7.887	0.507
627.000	392.858	79.994	19.996	100.794	19.924	7.737	0.515
628.500	393.670	79.994	19.998	100.794	19.927	7.554	0.552
630.000	394.451	79.995	19.998	100.798	19.928	7.513	0.519
631.500	395.238	79.995	19.996	100.798	19.930	7.389	0.522
633.000	395.994	79.995	19.996	100.802	19.929	7.422	0.496
634.500	396.788	79.997	19.997	100.800	19.930	7.364	0.519
636.000	397.574	79.996	19.997	100.799	19.932	7.253	0.545
637.500	398.359	79.997	19.995	100.804	19.934	7.077	0.527
639.000	399.152	79.997	19.994	100.800	19.932	7.222	0.538
640.500	399.927	79.997	19.996	100.808	19.936	6.992	0.515
642.000	400.695	79.997	19.995	100.800	19.938	6.835	0.494
643.500	401.477	79.998	19.994	100.789	19.937	6.903	0.516
645.000	402.249	79.998	19.995	100.793	19.941	6.688	0.517
646.500	403.034	79.998	19.995	100.797	19.939	6.778	0.519
648.000	403.807	79.996	19.995	100.793	19.937	6.937	0.531
649.500	404.586	79.998	19.995	100.790	19.938	6.828	0.509
651.000	405.356	79.996	19.995	100.792	19.940	6.737	0.515
652.500	406.126	79.996	19.995	100.796	19.940	6.699	0.520
654.000	406.962	79.997	19.995	100.799	19.941	6.651	0.546
655.500	407.727	79.995	19.995	100.798	19.941	6.640	0.514
657.000	408.488	79.996	19.995	100.799	19.942	6.603	0.506
658.500	409.294	79.998	19.995	100.795	19.939	6.760	0.552
660.000	410.041	79.997	19.995	100.790	19.942	6.612	0.505
661.500	410.817	79.997	19.995	100.792	19.944	6.495	0.528
663.000	411.567	79.998	19.995	100.803	19.943	6.561	0.509
664.500	412.323	79.998	19.995	100.802	19.945	6.414	0.509
666.000	413.129	79.998	19.995	100.797	19.944	6.436	0.545
667.500	413.900	79.997	19.996	100.791	19.948	6.204	0.516
669.000	414.641	79.998	19.996	100.788	19.946	6.349	0.490
670.500	415.399	79.997	19.995	100.790	19.948	6.230	0.510
672.000	416.149	79.996	19.994	100.790	19.946	6.365	0.508
673.500	416.918	79.998	19.995	100.802	19.948	6.202	0.513
675.000	417.698	79.997	19.995	100.799	19.950	6.095	0.534
676.500	418.484	79.996	19.995	100.787	19.950	6.107	0.537
678.000	419.201	79.996	19.995	100.788	19.951	6.028	0.495
679.500	419.998	79.996	19.994	100.787	19.951	6.007	0.517
681.000	420.747	79.996	19.995	100.783	19.952	5.948	0.505
682.500	421.555	79.996	19.995	100.786	19.950	6.087	0.534
684.000	422.294	79.996	19.995	100.785	19.952	5.971	0.487
685.500	423.031	79.996	19.996	100.783	19.958	5.581	0.503
687.000	423.797	79.996	19.996	100.783	19.956	5.722	0.519
688.500	424.553	79.996	19.997	100.782	19.958	5.555	0.507
690.000	425.271	79.996	19.996	100.784	19.959	5.506	0.476
691.500	426.045	79.995	19.996	100.784	19.958	5.550	0.519
693.000	426.816	79.995	19.995	100.782	19.959	5.482	0.509
694.500	427.560	79.996	19.995	100.782	19.961	5.373	0.493
696.000	428.291	79.996	19.996	100.782	19.959	5.484	0.487
697.500	429.020	79.996	19.996	100.782	19.961	5.370	0.489
699.000	429.765	79.996	19.995	100.782	19.961	5.365	0.494
700.500	430.507	79.997	19.995	100.782	19.963	5.240	0.512
702.000	431.269	79.997	19.995	100.782	19.963	5.246	0.516
703.500	431.971	79.995	19.996	100.779	19.966	5.033	0.456
705.000	432.702	79.996	19.995	100.781	19.963	5.280	0.489
706.500	433.446	79.995	19.996	100.782	19.963	5.225	0.489
708.000	434.185	79.995	19.996	100.782	19.968	4.923	0.486
709.500	434.899	79.996	19.996	100.782	19.972	4.695	0.483
711.000	435.629	79.996	19.997	100.782	19.969	4.887	0.479
712.500	436.324	79.994	19.996	100.784	19.970	4.776	0.474
714.000	437.057	79.994	19.996	100.782	19.972	4.659	0.492
715.500	437.778	79.995	19.996	100.784	19.972	4.652	0.482
717.000	438.493	79.996	19.997	100.786	19.976	4.424	0.451
718.500	439.227	79.997	19.997	100.787	19.976	4.415	0.473
720.000	439.940	79.997	19.997	100.786	19.970	4.773	0.497
721.500	440.668	79.996	19.996	100.783	19.975	4.467	0.459
723.000	441.433	79.996	19.996	100.784	19.978	4.279	0.505
724.500	442.187	79.997	19.995	100.789	19.978	4.298	0.517
726.000	442.926	79.996	19.995	100.789	19.977	4.383	0.510
727.500	443.654	79.997	19.997	100.786	19.977	4.386	0.506
729.000	444.423	79.997	19.996	100.784	19.979	4.212	0.508
730.500	445.168	79.996	19.995	100.784	19.980	4.153	0.496
732.000	445.946	79.996	19.994	100.785	19.982	4.039	0.531
733.500	446.698	79.997	19.996	100.787	19.979	4.227	0.492
735.000	447.502	79.996	19.995	100.788	19.982	4.056	0.527
736.500	448.243	79.996	19.995	100.791	19.985	3.850	0.489
738.000	449.039	79.997	19.995	100.791	19.983	3.970	0.522
739.500	449.796	79.997	19.995	100.787	19.987	3.740	0.519
741.000	450.596	79.997	19.995	100.788	19.988	3.683	0.513
742.500	451.378	79.998	19.995	100.787	19.988	3.629	0.535
744.000	452.143	79.998	19.996	100.789	19.989	3.612	0.518
745.500	452.903	79.998	19.996	100.785	19.988	3.671	0.502
747.000	453.710	79.998	19.996	100.780	19.990	3.527	0.557
748.500	454.477	79.998	19.997	100.781	19.989	3.560	0.506
750.000	455.272	79.998	19.995	100.784	19.988	3.680	0.530
751.500	456.073	79.999	19.994	100.782	19.991	3.440	0.528
753.000	456.846	79.998	19.996	100.740	19.989	3.595	0.500
754.500	457.578	79.998	19.996	100.721	19.992	3.405	0.495
756.000	458.390	79.995	19.995	100.819	19.992	3.388	0.539
757.500	459.145	79.997	19.994	100.828	19.990	3.515	0.502
759.000	459.941	79.997	19.995	100.782	19.997	3.049	0.543
760.500	460.689	79.996	19.995	100.782	19.997	3.092	0.524
762.000	461.466	79.996	19.995	100.782	19.997	3.061	0.521
763.500	462.235	79.996	19.995	100.782	19.998	3.025	0.507
765.000	463.035	79.995	19.995	100.783	19.997	3.058	0.531
766.500	463.781	79.997	19.995	100.783	19.999	2.959	0.510
768.000	464.520	79.996	19.995	100.781	19.998	2.994	0.510
769.500	465.261	79.995	19.996	100.780	20.000	2.868	0.485
771.000	466.042	79.996	19.994	100.779	20.000	2.877	0.517
772.500	466.800	79.996	19.995	100.781	20.000	2.892	0.510
774.000	467.562	79.997	19.995	100.783	20.002	2.737	0.506
775.500	468.273	79.996	19.996	100.782	20.002	2.730	0.494
777.000	469.051	79.995	19.996	100.774	20.004	2.630	0.507
778.500	469.799	79.995	19.995	100.776	20.005	2.555	0.495
780.000	470.542	79.995	19.996	100.778	20.006	2.490	0.467
781.500	471.271	79.995	19.996	100.779	20.010	2.262	0.478
783.000	471.985	79.995	19.998	100.782	20.008	2.369	0.455
784.500	472.722	79.996	19.996	100.779	20.006	2.511	0.472
786.000	473.477	79.994	19.996	100.781	20.009	2.329	0.492
787.500	474.195	79.995	19.996	100.782	20.006	2.498	0.498
789.000	474.937	79.995	19.995	100.773	20.007	2.416	0.494
790.500	475.702	79.994	19.996	100.778	20.010	2.238	0.495
792.000	476.393	79.995	19.995	100.781	20.009	2.326	0.462
793.501	477.127	79.996	19.996	100.783	20.010	2.259	0.491
795.000	477.857	79.997	19.995	100.781	20.008	2.393	0.495
796.500	478.597	79.996	19.995	100.778	20.007	2.441	0.472
798.000	479.316	79.997	19.995	100.778	20.007	2.450	0.505
799.500	480.061	79.996	19.996	100.779	20.009	2.324	0.482
801.000	480.794	79.996	19.995	100.782	20.010	2.233	0.487
802.500	481.528	79.997	19.996	100.783	20.010	2.241	0.487
804.000	482.256	79.997	19.996	100.780	20.014	2.017	0.502
805.500	482.959	79.997	19.995	100.782	20.013	2.067	0.462
807.000	483.713	79.997	19.996	100.777	20.018	1.722	0.512
808.500	484.440	79.996	19.996	100.778	20.013	2.025	0.477
810.000	485.146	79.996	19.996	100.781	20.016	1.868	0.484
811.500	485.873	79.995	19.997	100.780	20.015	1.953	0.509
813.000	486.625	79.996	19.997	100.777	20.014	2.013	0.501
814.500	487.381	79.997	19.995	100.769	20.015	1.944	0.494
816.000	488.129	79.996	19.997	100.776	20.012	2.110	0.493
817.500	488.886	79.997	19.997	100.786	20.013	2.027	0.509
819.000	489.650	79.997	19.996	100.786	20.012	2.139	0.514
820.500	490.432	79.997	19.995	100.783	20.012	2.119	0.528
822.000	491.187	79.998	19.995	100.783	20.011	2.172	0.512
823.500	491.955	79.998	19.996	100.783	20.015	1.903	0.514
825.000	492.764	79.999	19.996	100.783	20.011	2.181	0.558
826.500	493.585	79.998	19.994	100.794	20.012	2.119	0.550
828.000	494.372	79.998	19.996	100.798	20.016	1.856	0.528
829.500	495.225	80.000	19.996	100.790	20.014	1.970	0.569
831.000	496.059	79.999	19.995	100.784	20.011	2.157	0.560
832.500	496.873	79.999	19.995	100.783	20.012	2.152	0.535
834.000	497.696	79.999	19.996	100.787	20.011	2.214	0.551
835.500	498.509	79.997	19.997	100.784	20.011	2.167	0.555
837.000	499.422	79.995	19.997	100.782	20.011	2.171	0.609
838.500	500.227	79.996	19.996	100.782	20.016	1.889	0.534
840.000	501.054	79.996	19.996	100.784	20.012	2.140	0.561
841.500	501.937	79.997	19.997	100.799	20.011	2.203	0.581
843.000	502.783	79.996	19.996	100.801	20.012	2.089	0.558
844.500	503.578	79.996	19.996	100.798	20.013	2.055	0.543
846.000	504.435	79.995	19.995	100.792	20.014	1.979	0.559
847.500	505.287	79.994	19.996	100.788	20.011	2.158	0.571
849.000	506.145	79.997	19.996	100.792	20.013	2.046	0.562
850.500	506.941	79.996	19.995	100.793	20.016	1.844	0.561
852.000	507.832	79.997	19.994	100.791	20.017	1.818	0.592
853.500	508.721	79.997	19.995	100.786	20.009	2.293	0.593
855.000	509.495	79.995	19.995	100.795	20.016	1.889	0.525
856.500	510.376	79.997	19.995	100.801	20.015	1.929	0.584
858.000	511.205	79.996	19.994	100.786	20.016	1.887	0.556
859.500	512.057	79.997	19.994	100.784	20.016	1.872	0.554
861.000	512.889	79.996	19.996	100.786	20.016	1.884	0.562
862.500	513.721	79.994	19.995	100.786	20.017	1.796	0.546
864.000	514.629	79.995	19.997	100.788	20.013	2.067	0.596
865.500	515.462	79.995	19.995	100.788	20.016	1.839	0.549
867.000	516.289	79.995	19.996	100.797	20.017	1.784	0.531
868.501	517.163	79.994	19.995	100.792	20.019	1.651	0.581
870.000	517.982	79.996	19.996	100.786	20.011	2.215	0.551
871.500	518.856	79.994	19.995	100.786	20.013	2.055	0.576
873.000	519.727	79.994	19.996	100.788	20.014	1.999	0.579
874.500	520.554	79.997	19.997	100.791	20.016	1.865	0.544
876.000	521.403	79.995	19.997	100.799	20.017	1.811	0.566
877.500	522.207	79.996	19.995	100.796	20.015	1.927	0.554
879.000	523.042	79.997	19.996	100.782	20.018	1.758	0.556
880.500	523.894	79.997	19.995	100.781	20.019	1.697	0.577
882.000	524.688	79.997	19.996	100.781	20.016	1.884	0.549
883.500	525.558	79.997	19.996	100.781	20.015	1.906	0.563
885.000	526.358	79.996	19.996	100.781	20.017	1.823	0.533
886.500	527.224	79.997	19.995	100.782	20.017	1.770	0.569
888.000	528.016	79.998	19.995	100.781	20.020	1.640	0.529
889.500	528.849	79.996	19.996	100.782	20.020	1.606	0.552
891.000	529.670	79.996	19.996	100.781	20.022	1.502	0.553
892.500	530.522	79.997	19.997	100.778	20.022	1.509	0.565
894.000	531.364	79.996	19.996	100.780	20.017	1.773	0.543
895.500	532.127	79.997	19.996	100.781	20.018	1.716	0.523
897.000	532.976	79.996	19.998	100.781	20.018	1.759	0.574
898.500	533.795	79.996	19.996	100.780	20.015	1.927	0.549
900.000	534.617	79.996	19.996	100.780	20.021	1.573	0.549
901.500	535.425	79.998	19.996	100.779	20.017	1.804	0.540
903.000	536.284	79.998	19.996	100.780	20.017	1.775	0.552
904.500	537.077	79.998	19.995	100.779	20.017	1.797	0.532
906.000	537.865	79.998	19.996	100.779	20.019	1.699	0.512
907.500	538.652	79.997	19.996	100.782	20.019	1.697	0.532
909.000	539.438	79.997	19.995	100.782	20.019	1.682	0.518
910.500	540.228	79.997	19.995	100.781	20.020	1.635	0.536
912.000	540.958	79.997	19.995	100.782	20.017	1.775	0.493
913.500	541.773	79.998	19.995	100.783	20.022	1.492	0.560
915.000	542.601	79.997	19.995	100.783	20.021	1.516	0.536
916.500	543.399	79.997	19.996	100.783	20.020	1.583	0.539
918.000	544.156	79.995	19.995	100.782	20.020	1.594	0.506
919.500	544.928	79.996	19.996	100.783	20.019	1.673	0.528
921.000	545.701	79.996	19.995	100.784	20.022	1.500	0.502
922.500	546.496	79.995	19.995	100.782	20.022	1.494	0.526
924.000	547.303	79.996	19.995	100.783	20.022	1.500	0.521
925.500	548.103	79.994	19.995	100.787	20.018	1.706	0.511
927.000	548.889	79.995	19.995	100.785	20.021	1.568	0.535
928.500	549.669	79.996	19.996	100.784	20.020	1.594	0.513
930.000	550.449	79.996	19.995	100.784	20.020	1.614	0.515
931.500	551.219	79.997	19.995	100.779	20.020	1.618	0.514
933.000	552.000	79.996	19.996	100.781	20.019	1.671	0.519
934.501	552.771	79.996	19.996	100.775	20.020	1.582	0.526
936.000	553.551	79.996	19.996	100.775	20.021	1.521	0.501
937.500	554.366	79.996	19.995	100.775	20.022	1.483	0.542
939.000	555.104	79.997	19.995	100.780	20.017	1.784	0.496
940.500	555.908	79.996	19.997	100.781	20.022	1.481	0.531
942.000	556.674	79.996	19.996	100.782	20.022	1.471	0.499
943.500	557.441	79.996	19.996	100.782	20.021	1.551	0.490
945.000	558.236	79.996	19.996	100.783	20.016	1.848	0.520
946.500	558.992	79.996	19.995	100.781	20.019	1.651	0.509
948.000	559.792	79.995	19.994	100.780	20.023	1.440	0.523
949.500	560.542	79.997	19.996	100.782	20.021	1.568	0.497
951.000	561.326	79.996	19.995	100.782	20.021	1.533	0.486
952.500	562.068	79.995	19.996	100.774	20.022	1.459	0.481
954.000	562.857	79.995	19.996	100.778	20.021	1.564	0.538
955.500	563.601	79.996	19.995	100.782	20.024	1.338	0.496
957.000	564.360	79.998	19.995	100.780	20.026	1.247	0.497
958.500	565.099	79.996	19.996	100.780	20.020	1.625	0.502
960.000	565.852	79.997	19.996	100.782	20.022	1.513	0.524
961.500	566.667	79.997	19.996	100.780	20.023	1.404	0.545
963.000	567.379	79.997	19.997	100.779	20.022	1.485	0.478
964.500	568.132	79.997	19.995	100.780	20.022	1.452	0.471
966.000	568.940	79.997	19.995	100.780	20.020	1.606	0.542
967.500	569.684	79.997	19.996	100.782	20.019	1.663	0.493
969.000	570.428	79.998	19.996	100.781	20.021	1.525	0.495
970.500	571.220	79.998	19.995	100.781	20.025	1.300	0.544
972.000	571.987	79.997	19.994	100.781	20.022	1.497	0.514
973.500	572.696	79.997	19.996	100.783	20.020	1.609	0.466
975.000	573.471	79.996	19.995	100.781	20.027	1.193	0.527
976.500	574.266	79.997	19.996	100.780	20.025	1.293	0.535
978.000	575.025	79.996	19.995	100.783	20.025	1.304	0.505
979.500	575.790	79.996	19.996	100.783	20.023	1.440	0.491
981.000	576.470	79.995	19.996	100.783	20.024	1.323	0.478
982.500	577.273	79.995	19.996	100.785	20.027	1.160	0.485
984.000	578.028	79.997	19.995	100.785	20.025	1.300	0.498
985.500	578.790	79.998	19.995	100.784	20.025	1.266	0.529
987.000	579.515	79.997	19.996	100.783	20.028	1.122	0.485
988.500	580.265	79.997	19.997	100.776	20.025	1.310	0.508
990.000	581.022	79.997	19.997	100.777	20.026	1.229	0.485
991.500	581.773	79.997	19.996	100.782	20.024	1.329	0.509
993.001	582.490	79.997	19.996	100.773	20.027	1.153	0.469
994.500	583.237	79.997	19.996	100.764	20.026	1.250	0.480
996.000	583.953	79.998	19.996	100.770	20.026	1.257	0.482
997.500	584.663	79.996	19.997	100.781	20.030	0.979	0.473
999.000	585.358	79.995	19.997	100.775	20.027	1.153	0.465
1000.500	586.077	79.995	19.997	100.773	20.029	1.060	0.477
1002.000	586.813	79.997	19.997	100.775	20.026	1.241	0.517
1003.500	587.485	79.996	19.995	100.773	20.026	1.207	0.457
1005.000	588.181	79.995	19.996	100.779	20.027	1.146	0.467
1006.500	588.881	79.996	19.995	100.781	20.029	1.039	0.473
1008.000	589.565	79.995	19.996	100.778	20.028	1.129	0.467
1009.500	590.247	79.997	19.995	100.779	20.032	0.863	0.445
1011.000	590.971	79.996	19.996	100.781	20.029	1.041	0.499
1012.500	591.707	79.996	19.995	100.775	20.030	0.991	0.486
1014.000	592.316	79.996	19.996	100.779	20.026	1.219	0.415
1015.500	593.063	79.997	19.995	100.780	20.026	1.195	0.502
1017.000	593.787	79.997	19.994	100.776	20.026	1.243	0.474
1018.500	594.467	79.996	19.996	100.777	20.025	1.281	0.462
1020.000	595.176	79.996	19.995	100.779	20.024	1.364	0.481
1021.500	595.856	79.997	19.995	100.781	20.026	1.255	0.435
1023.000	596.609	79.995	19.995	100.782	20.024	1.369	0.494
1024.500	597.311	79.997	19.996	100.776	20.024	1.352	0.474
1026.001	597.977	79.995	19.996	100.777	20.024	1.349	0.425
1027.501	598.700	79.996	19.996	100.778	20.025	1.288	0.465
1029.000	599.367	79.995	19.995	100.778	20.026	1.209	0.448
1030.500	600.092	79.996	19.996	100.778	20.024	1.338	0.469
1032.001	600.750	79.997	19.996	100.781	20.024	1.364	0.434
1033.500	601.455	79.994	19.995	100.782	20.025	1.261	0.486
1035.000	602.138	79.995	19.995	100.784	20.026	1.197	0.453
1036.501	602.834	79.995	19.995	100.785	20.027	1.193	0.496
1038.001	603.538	79.996	19.996	100.787	20.026	1.214	0.471
1039.500	604.237	79.996	19.995	100.788	20.027	1.172	0.467
1041.000	605.000	79.996	19.994	100.788	20.027	1.183	0.508
1042.500	605.730	79.996	19.996	100.787	20.026	1.243	0.485
1044.000	606.423	79.997	19.995	100.786	20.028	1.129	0.456
1045.500	607.147	79.998	19.995	100.786	20.026	1.252	0.498
1047.000	607.852	79.998	19.995	100.786	20.028	1.129	0.481
1048.500	608.619	79.996	19.997	100.784	20.027	1.193	0.522
1050.000	609.293	79.997	19.995	100.785	20.026	1.195	0.466
1051.500	610.087	79.997	19.997	100.786	20.026	1.200	0.502
1053.000	610.785	79.995	19.996	100.787	20.026	1.236	0.439
1054.500	611.557	79.995	19.996	100.786	20.026	1.228	0.527
1056.001	612.271	79.995	19.996	100.786	20.027	1.136	0.488
1057.501	613.016	79.997	19.996	100.786	20.024	1.357	0.498
1059.001	613.789	79.996	19.997	100.786	20.028	1.128	0.530
1060.501	614.559	79.998	19.995	100.787	20.027	1.186	0.497
1062.000	615.324	79.997	19.996	100.786	20.024	1.354	0.504
1063.500	616.051	79.996	19.996	100.785	20.024	1.330	0.487
1065.000	616.829	79.996	19.996	100.791	20.027	1.148	0.514
1066.500	617.549	79.997	19.996	100.790	20.023	1.409	0.474
1068.000	618.322	79.997	19.997	100.781	20.024	1.349	0.491
1069.500	619.081	79.998	19.995	100.781	20.024	1.362	0.508
1071.000	619.838	79.998	19.996	100.778	20.023	1.416	0.484
1072.500	620.592	79.998	19.995	100.778	20.026	1.240	0.501
1074.000	621.332	79.996	19.997	100.782	20.026	1.257	0.466
1075.500	622.100	79.997	19.996	100.781	20.026	1.241	0.519
1077.001	622.860	79.998	19.997	100.781	20.027	1.133	0.522
1078.500	623.641	79.997	19.996	100.781	20.023	1.431	0.517
1080.000	624.406	79.996	19.997	100.781	20.024	1.324	0.520
1081.500	625.186	79.995	19.996	100.779	20.024	1.324	0.531
1083.000	625.961	79.995	19.996	100.778	20.026	1.252	0.520
1084.500	626.725	79.996	19.996	100.779	20.028	1.108	0.503
1086.000	627.554	79.994	19.997	100.778	20.026	1.210	0.537
1087.500	628.277	79.995	19.997	100.782	20.025	1.286	0.483
1089.000	629.077	79.995	19.996	100.780	20.028	1.128	0.518
1090.500	629.869	79.995	19.996	100.779	20.026	1.235	0.516
1092.000	630.636	79.996	19.996	100.781	20.030	0.970	0.530
1093.500	631.424	79.997	19.995	100.780	20.027	1.138	0.527
1095.000	632.211	79.997	19.996	100.781	20.029	1.029	0.520
1096.501	632.976	79.996	19.996	100.776	20.026	1.197	0.513
1098.000	633.763	79.997	19.995	100.776	20.027	1.141	0.520
1099.500	634.578	79.997	19.996	100.781	20.030	0.991	0.539
1101.001	635.385	79.996	19.995	100.785	20.029	1.039	0.556
1102.501	636.182	79.996	19.996	100.785	20.030	0.996	0.536
1104.000	636.954	79.996	19.995	100.783	20.031	0.893	0.532
1105.500	637.756	79.996	19.995	100.784	20.029	1.012	0.529
1107.000	638.559	79.995	19.995	100.783	20.031	0.913	0.519
1108.501	639.354	79.996	19.996	100.781	20.026	1.231	0.527
1110.000	640.134	79.995	19.996	100.782	20.029	1.048	0.532
1111.500	640.897	79.995	19.997	100.783	20.028	1.071	0.523
1113.000	641.693	79.995	19.995	100.782	20.028	1.079	0.537
1114.500	642.474	79.996	19.995	100.779	20.028	1.096	0.537
1116.001	643.245	79.996	19.997	100.777	20.027	1.183	0.516
1117.501	644.041	79.996	19.996	100.783	20.026	1.244	0.528
1119.000	644.841	79.996	19.995	100.789	20.028	1.071	0.535
1120.500	645.580	79.997	19.996	100.787	20.027	1.190	0.515
1122.000	646.346	79.996	19.995	100.786	20.027	1.172	0.498
1123.500	647.154	79.996	19.994	100.786	20.023	1.409	0.548
1125.000	647.860	79.997	19.995	100.744	20.025	1.266	0.477
1126.501	648.645	79.997	19.996	100.728	20.024	1.326	0.520
1128.000	649.447	79.998	19.994	100.818	20.026	1.252	0.532
1129.500	650.216	79.999	19.995	100.799	20.026	1.212	0.520
1131.000	651.009	79.999	19.995	100.780	20.022	1.471	0.548
1132.501	651.785	79.998	19.995	100.778	20.027	1.133	0.508
1134.000	652.552	79.999	19.995	100.770	20.026	1.252	0.523
1135.500	653.270	79.998	19.996	100.771	20.023	1.407	0.474
1137.000	654.048	79.999	19.996	100.776	20.025	1.267	0.525
1138.500	654.850	79.996	19.996	100.775	20.023	1.430	0.533
1140.001	655.615	79.997	19.995	100.772	20.028	1.124	0.529
1141.501	656.364	79.997	19.997	100.760	20.030	0.972	0.490
1143.000	657.139	79.997	19.996	100.771	20.027	1.188	0.516
1144.500	657.870	79.998	19.995	100.777	20.028	1.096	0.482
1146.000	658.648	79.998	19.997	100.780	20.028	1.089	0.524
1147.500	659.426	79.997	19.996	100.776	20.029	1.015	0.501
1149.001	660.157	79.998	19.995	100.774	20.025	1.299	0.479
1150.500	660.904	79.998	19.996	100.764	20.029	1.050	0.495
1152.001	661.675	79.999	19.996	100.773	20.028	1.067	0.512
1153.500	662.389	79.999	19.996	100.777	20.027	1.148	0.480
1155.001	663.143	79.999	19.996	100.771	20.025	1.281	0.482
1156.500	663.922	79.998	19.995	100.772	20.025	1.321	0.519
1158.000	664.679	79.998	19.996	100.767	20.024	1.324	0.514
1159.500	665.415	79.998	19.997	100.720	20.023	1.416	0.523
1161.000	666.188	79.998	19.994	100.750	20.025	1.316	0.524
1162.500	666.895	79.997	19.995	100.819	20.022	1.480	0.465
1164.001	667.657	79.995	19.995	100.820	20.023	1.400	0.487
1165.500	668.353	79.995	19.997	100.780	20.028	1.109	0.460
1167.000	669.109	79.997	19.997	100.766	20.028	1.071	0.496
1168.500	669.852	79.996	19.997	100.768	20.025	1.286	0.497
1170.001	670.582	79.997	19.997	100.784	20.026	1.212	0.476
1171.500	671.341	79.997	19.997	100.784	20.027	1.174	0.496
1173.000	672.078	79.994	19.996	100.785	20.026	1.241	0.502
1174.500	672.805	79.996	19.997	100.785	20.026	1.228	0.468
1176.000	673.513	79.995	19.997	100.784	20.026	1.205	0.464
1177.501	674.267	79.996	19.996	100.781	20.024	1.362	0.519
1179.000	674.997	79.993	19.997	100.774	20.025	1.314	0.488
1180.500	675.764	79.997	19.997	100.773	20.026	1.207	0.495
1182.000	676.464	79.996	19.998	100.781	20.025	1.302	0.474
1183.500	677.143	79.995	19.996	100.783	20.026	1.219	0.468
1185.000	677.874	79.997	19.996	100.783	20.027	1.157	0.467
1186.500	678.598	79.997	19.997	100.785	20.025	1.264	0.479
1188.001	679.322	79.995	19.996	100.785	20.028	1.081	0.489
1189.500	680.039	79.995	19.996	100.787	20.027	1.145	0.489
1191.000	680.770	79.996	19.997	100.786	20.030	0.951	0.507
1192.500	681.462	79.995	19.997	100.785	20.029	1.005	0.458
1194.000	682.229	79.997	19.996	100.772	20.023	1.423	0.515
1195.500	682.928	79.996	19.997	100.770	20.026	1.243	0.475
1197.001	683.695	79.997	19.996	100.782	20.026	1.216	0.518
1198.501	684.413	79.995	19.996	100.783	20.028	1.069	0.495
1200.000	685.195	79.996	19.996	100.784	20.024	1.380	0.509
1201.500	685.973	79.998	19.996	100.792	20.023	1.437	0.526
1203.000	686.764	79.996	19.996	100.789	20.025	1.319	0.540
1204.500	687.577	79.998	19.996	100.784	20.026	1.219	0.525
1206.000	688.387	79.998	19.995	100.784	20.026	1.217	0.524
1207.500	689.220	79.997	19.995	100.784	20.024	1.330	0.560
1209.000	690.025	79.997	19.995	100.788	20.029	1.060	0.536
1210.500	690.858	79.998	19.996	100.789	20.022	1.480	0.554
1212.000	691.723	79.996	19.996	100.783	20.026	1.257	0.557
1213.500	692.572	79.995	19.996	100.786	20.025	1.274	0.566
1215.001	693.394	79.997	19.996	100.783	20.022	1.464	0.552
1216.500	694.280	79.997	19.996	100.782	20.022	1.459	0.571
1218.000	695.165	79.996	19.995	100.782	20.026	1.228	0.594
1219.500	696.037	79.998	19.996	100.784	20.022	1.475	0.573
1221.000	696.921	79.997	19.996	100.785	20.024	1.324	0.573
1222.501	697.781	79.998	19.995	100.786	20.026	1.250	0.575
1224.000	698.647	79.999	19.995	100.797	20.022	1.495	0.572
1225.500	699.537	79.998	19.996	100.793	20.025	1.269	0.609
1227.000	700.413	79.999	19.995	100.784	20.026	1.217	0.592
1228.500	701.254	79.998	19.996	100.785	20.023	1.433	0.552
1230.000	702.151	79.998	19.995	100.786	20.021	1.519	0.601
1231.500	702.980	79.998	19.994	100.786	20.020	1.582	0.587
1233.000	703.886	79.998	19.995	100.790	20.023	1.433	0.593
1234.500	704.769	79.998	19.995	100.793	20.020	1.632	0.601
1236.001	705.631	79.997	19.996	100.789	20.021	1.532	0.576
1237.500	706.486	79.998	19.996	100.786	20.021	1.521	0.571
1239.000	707.387	79.997	19.996	100.784	20.020	1.582	0.609
1240.500	708.259	79.997	19.995	100.784	20.021	1.528	0.587
1242.000	709.099	79.996	19.996	100.783	20.020	1.580	0.555
1243.500	709.975	79.996	19.997	100.784	20.021	1.523	0.588
1245.000	710.825	79.995	19.997	100.788	20.021	1.563	0.533
1246.501	711.725	79.996	19.996	100.786	20.019	1.642	0.597
1248.001	712.575	79.995	19.996	100.786	20.019	1.684	0.545
1249.500	713.436	79.995	19.995	100.786	20.020	1.623	0.582
1251.000	714.268	79.996	19.996	100.787	20.016	1.867	0.563
1252.500	715.176	79.995	19.996	100.798	20.018	1.761	0.588
1254.000	715.997	79.994	19.995	100.799	20.018	1.727	0.551
1255.500	716.845	79.996	19.996	100.791	20.019	1.684	0.566
1257.000	717.707	79.995	19.997	100.789	20.020	1.613	0.566
1258.501	718.495	79.995	19.997	100.784	20.018	1.709	0.529
1260.000	719.357	79.996	19.996	100.783	20.016	1.868	0.561
1261.500	720.177	79.995	19.997	100.783	20.019	1.670	0.544
1263.000	720.972	79.995	19.996	100.784	20.018	1.754	0.548
1264.500	721.871	79.996	19.997	100.782	20.023	1.412	0.588
1266.000	722.648	79.995	19.996	100.782	20.021	1.538	0.527
1267.500	723.468	79.995	19.996	100.785	20.020	1.578	0.537
1269.000	724.290	79.995	19.998	100.785	20.022	1.485	0.547
1270.500	725.108	79.994	19.996	100.782	20.022	1.483	0.553
1272.000	725.989	79.996	19.997	100.781	20.025	1.278	0.568
1273.500	726.786	79.994	19.997	100.783	20.021	1.551	0.551
1275.000	727.569	79.995	19.998	100.782	20.024	1.362	0.530
1276.500	728.403	79.995	19.996	100.783	20.023	1.445	0.553
1278.001	729.219	79.996	19.996	100.782	20.019	1.651	0.559
1279.500	730.022	79.996	19.996	100.781	20.018	1.725	0.547
1281.001	730.822	79.996	19.996	100.782	20.021	1.542	0.541
1282.500	731.613	79.997	19.996	100.784	20.017	1.798	0.546
1284.000	732.428	79.998	19.998	100.784	20.019	1.682	0.536
1285.500	733.240	79.998	19.996	100.785	20.017	1.798	0.527
1287.000	734.028	79.996	19.997	100.787	20.019	1.697	0.528
1288.500	734.816	79.998	19.996	100.788	20.018	1.749	0.512
1290.001	735.614	79.997	19.995	100.794	20.017	1.777	0.527
1291.501	736.429	79.998	19.997	100.797	20.016	1.886	0.536
1293.000	737.174	79.997	19.996	100.790	20.016	1.839	0.512
1294.500	737.946	79.997	19.995	100.787	20.017	1.792	0.522
1296.000	738.727	79.997	19.995	100.784	20.016	1.877	0.514
1297.500	739.502	79.996	19.994	100.784	20.017	1.777	0.498
1299.000	740.287	79.997	19.996	100.790	20.016	1.854	0.515
1300.500	741.062	79.997	19.996	100.790	20.018	1.718	0.532
1302.000	741.870	79.996	19.996	100.787	20.017	1.792	0.544
1303.500	742.667	79.996	19.995	100.791	20.017	1.806	0.545
1305.000	743.423	79.997	19.994	100.789	20.020	1.594	0.511