File: 01_Data/Wood_Stud/STA/N2/3K_min/Wood_Stud_STA_N2_3KData_220127_R1.csv
##Temp./Â°C,Time/min,Mass loss(subtr.2)/mg,DSC(subtr.2)/(mW/mg),Sensit./(uV/mW)
49.96,10.0158,-0.0623,0.01620041,1.06379
50.66,11.14524,-0.06785999,0.03845876,1.06363
51.36,11.53763,-0.06979276,0.05320891,1.06346
52.06,11.85645,-0.07081682,0.06268146,1.06329
52.76,12.1473,-0.0720918,0.0650412,1.06312
53.46,12.42618,-0.07329474,0.06672587,1.06295
54.16,12.69692,-0.07436849,0.07039373,1.06278
54.86,12.96256,-0.07569496,0.07213644,1.06261
55.56,13.2242,-0.07729494,0.07399755,1.06244
56.26,13.4818,-0.07864816,0.07691167,1.06227
56.96,13.7371,-0.07865148,0.07560529,1.0621
57.66,13.99094,-0.08086887,0.07699031,1.06193
58.36,14.2431,-0.08015064,0.07771193,1.06176
59.06,14.49341,-0.08295746,0.0784068,1.06159
59.76,14.74177,-0.0855165,0.0800263,1.06142
60.46,14.98756,-0.08523181,0.07865025,1.06125
61.16,15.2304,-0.08712606,0.08145271,1.06108
61.86,15.47101,-0.0872931,0.08295978,1.06091
62.56,15.71023,-0.08754182,0.0831525,1.06073
63.26,15.94876,-0.08883603,0.0847117,1.06056
63.96,16.1866,-0.09016014,0.0864502,1.06039
64.66,16.42504,-0.09271601,0.08476859,1.06022
65.36,16.6634,-0.09413661,0.08572176,1.06004
66.06,16.901,-0.09518404,0.08592414,1.05987
66.76,17.13855,-0.09570653,0.08660693,1.0597
67.46,17.3746,-0.0954489,0.08724412,1.05952
68.16,17.61003,-0.09844104,0.08429445,1.05935
68.86,17.84411,-0.09938189,0.08660332,1.05918
69.56,18.0797,-0.10015,0.08460765,1.059
70.26,18.31416,-0.10135,0.08796388,1.05883
70.96,18.54881,-0.10135,0.08928522,1.05865
71.66,18.78231,-0.10267,0.08762329,1.05848
72.36,19.01643,-0.10299,0.08767488,1.0583
73.06,19.2507,-0.10508,0.08804456,1.05813
73.76,19.48616,-0.10541,0.08789995,1.05795
74.46,19.7216,-0.10683,0.08665778,1.05778
75.16,19.95788,-0.10736,0.0860407,1.0576
75.86,20.19489,-0.10771,0.08445387,1.05742
76.56,20.43156,-0.10876,0.08348179,1.05725
77.26,20.66786,-0.11068,0.08224442,1.05707
77.96,20.90266,-0.111,0.08241541,1.05689
78.66,21.1368,-0.11166,0.08202637,1.05671
79.36,21.3702,-0.11428,0.07982082,1.05654
80.06,21.60349,-0.11574,0.08009151,1.05636
80.76,21.83805,-0.11547,0.08125629,1.05618
81.46,22.07321,-0.11689,0.07840205,1.056
82.16,22.30848,-0.11869,0.07964588,1.05582
82.86,22.54324,-0.11736,0.07668705,1.05564
83.56,22.77786,-0.11857,0.07749016,1.05546
84.26,23.01156,-0.11988,0.07859944,1.05529
84.96,23.2448,-0.12103,0.07856786,1.05511
85.66,23.47689,-0.12019,0.07951526,1.05493
86.36,23.70994,-0.11984,0.07443192,1.05474
87.06,23.94256,-0.12253,0.07334221,1.05456
87.76,24.1765,-0.12251,0.07318515,1.05438
88.46,24.41004,-0.12252,0.07215722,1.0542
89.16,24.64369,-0.1218,0.07185018,1.05402
89.86,24.8769,-0.12288,0.07271355,1.05384
90.56,25.10976,-0.12418,0.07243542,1.05366
91.26,25.34229,-0.12516,0.06976984,1.05347
91.96,25.57483,-0.12515,0.06871066,1.05329
92.66,25.8084,-0.12524,0.06635291,1.05311
93.36,26.0423,-0.12713,0.06463352,1.05293
94.06,26.27569,-0.12581,0.06426577,1.05274
94.76,26.5079,-0.12712,0.06742581,1.05256
95.46,26.73971,-0.12646,0.06654717,1.05237
96.16,26.9712,-0.12778,0.06801526,1.05219
96.86,27.20235,-0.12713,0.0670178,1.05201
97.56,27.43365,-0.12746,0.06654204,1.05182
98.26,27.66613,-0.12746,0.06611857,1.05164
98.96,27.89975,-0.12845,0.0656521,1.05145
99.66,28.13387,-0.12776,0.06420407,1.05126
100.36,28.36715,-0.13075,0.06252841,1.05108
101.06,28.5996,-0.13075,0.06542288,1.05089
101.76,28.83209,-0.13074,0.06375783,1.05071
102.46,29.06465,-0.13204,0.06405607,1.05052
103.16,29.2961,-0.13113,0.06543093,1.05033
103.86,29.5275,-0.13108,0.06658268,1.05014
104.56,29.7583,-0.13109,0.06842473,1.04996
105.26,29.98967,-0.13108,0.06807082,1.04977
105.96,30.22124,-0.13239,0.066856,1.04958
106.66,30.45259,-0.13107,0.06805695,1.04939
107.36,30.68416,-0.13239,0.06714207,1.0492
108.06,30.91517,-0.13273,0.0689742,1.04901
108.76,31.14692,-0.13272,0.06603644,1.04882
109.46,31.3784,-0.13338,0.0693821,1.04863
110.16,31.6097,-0.13337,0.06982817,1.04844
110.86,31.8407,-0.13385,0.07011597,1.04825
111.56,32.07216,-0.13583,0.07010387,1.04806
112.26,32.30387,-0.13502,0.06954243,1.04787
112.96,32.53632,-0.13499,0.06824292,1.04768
113.66,32.768,-0.13703,0.07169377,1.04748
114.36,33,-0.13568,0.07174514,1.04729
115.06,33.23038,-0.13568,0.07299972,1.0471
115.76,33.4604,-0.1371,0.07315314,1.04691
116.46,33.6897,-0.13703,0.07369468,1.04671
117.16,33.91977,-0.13831,0.07302349,1.04652
117.86,34.15017,-0.13963,0.07402496,1.04632
118.56,34.38051,-0.13825,0.07287018,1.04613
119.26,34.6101,-0.1393,0.07213976,1.04593
119.96,34.83984,-0.1397,0.07413557,1.04574
120.66,35.0707,-0.14062,0.07378383,1.04554
121.36,35.30219,-0.14047,0.07396558,1.04535
122.06,35.53411,-0.13963,0.0717236,1.04515
122.76,35.7651,-0.14161,0.07426025,1.04496
123.46,35.99557,-0.14095,0.07412137,1.04476
124.16,36.22546,-0.14259,0.07567758,1.04456
124.86,36.45599,-0.14256,0.07456869,1.04436
125.56,36.68654,-0.14357,0.07220206,1.04417
126.26,36.91703,-0.14358,0.07427401,1.04397
126.96,37.1479,-0.14226,0.07547615,1.04377
127.66,37.37878,-0.14364,0.07587323,1.04357
128.36,37.6108,-0.14284,0.07417719,1.04337
129.06,37.84343,-0.14257,0.07418957,1.04317
129.76,38.07617,-0.14287,0.07455014,1.04297
130.46,38.3082,-0.14425,0.07532315,1.04277
131.16,38.53972,-0.14424,0.0747488,1.04257
131.86,38.77098,-0.14556,0.07568365,1.04237
132.56,39.0002,-0.14422,0.07800193,1.04217
133.26,39.22898,-0.14555,0.07860474,1.04196
133.96,39.4571,-0.14489,0.08037731,1.04176
134.66,39.68659,-0.14491,0.07971284,1.04156
135.36,39.91619,-0.1472,0.07959193,1.04136
136.06,40.1462,-0.14623,0.07786919,1.04115
136.76,40.3765,-0.14622,0.07893936,1.04095
137.46,40.6055,-0.14621,0.07956579,1.04075
138.16,40.83551,-0.14753,0.08172188,1.04054
138.86,41.06527,-0.14854,0.08148781,1.04034
139.56,41.2953,-0.14621,0.08165224,1.04013
140.26,41.524,-0.1462,0.08295068,1.03992
140.96,41.75195,-0.1472,0.08261602,1.03972
141.66,41.98065,-0.14745,0.08184645,1.03951
142.36,42.20964,-0.14851,0.08503887,1.03931
143.06,42.4392,-0.14882,0.08368187,1.0391
143.76,42.66877,-0.14748,0.08409662,1.03889
144.46,42.89849,-0.14786,0.08589919,1.03868
145.16,43.12879,-0.15049,0.08338325,1.03847
145.86,43.35951,-0.14977,0.08452154,1.03826
146.56,43.59113,-0.14918,0.08428727,1.03806
147.26,43.8217,-0.14917,0.08503502,1.03785
147.96,44.05188,-0.15179,0.08635558,1.03764
148.66,44.28075,-0.1505,0.08630952,1.03742
149.36,44.50982,-0.15116,0.08743941,1.03721
150.06,44.73884,-0.15016,0.08647458,1.037
150.76,44.969,-0.15016,0.08727209,1.03679
151.46,45.1993,-0.15016,0.08590939,1.03658
152.16,45.42864,-0.15051,0.08825083,1.03637
152.86,45.65619,-0.15164,0.08934179,1.03615
153.56,45.88348,-0.15115,0.08842674,1.03594
154.26,46.11096,-0.15139,0.08942825,1.03573
154.96,46.3395,-0.15016,0.09189249,1.03551
155.66,46.5681,-0.15147,0.09061128,1.0353
156.36,46.7969,-0.15147,0.0880196,1.03508
157.06,47.02562,-0.15287,0.08972173,1.03487
157.76,47.25447,-0.15186,0.09043505,1.03465
158.46,47.48308,-0.15148,0.0905608,1.03443
159.16,47.7119,-0.1532,0.09154465,1.03422
159.86,47.94083,-0.15373,0.09159329,1.034
160.56,48.1691,-0.15225,0.09266596,1.03378
161.26,48.3977,-0.15323,0.09313677,1.03356
161.96,48.62577,-0.15191,0.09251619,1.03334
162.66,48.85515,-0.15378,0.0929312,1.03313
163.36,49.08296,-0.15389,0.09557738,1.03291
164.06,49.311,-0.15413,0.09545935,1.03269
164.76,49.53883,-0.15389,0.09611711,1.03247
165.46,49.76757,-0.15448,0.09391267,1.03225
166.16,49.99585,-0.15523,0.09422754,1.03202
166.86,50.22394,-0.15256,0.09588785,1.0318
167.56,50.45214,-0.15422,0.09366749,1.03158
168.26,50.68,-0.15422,0.09626803,1.03136
168.96,50.90788,-0.15521,0.09678199,1.03113
169.66,51.13595,-0.15554,0.09759884,1.03091
170.36,51.36453,-0.15554,0.09677176,1.03069
171.06,51.59353,-0.15685,0.09471318,1.03046
171.76,51.82245,-0.15675,0.09470356,1.03024
172.46,52.052,-0.15604,0.09396331,1.03001
173.16,52.28123,-0.15817,0.09558378,1.02979
173.86,52.51019,-0.15717,0.09680477,1.02956
174.56,52.73839,-0.1585,0.09626641,1.02933
175.26,52.9667,-0.15981,0.09778604,1.02911
175.96,53.19415,-0.15764,0.09879503,1.02888
176.66,53.42182,-0.15882,0.09900737,1.02865
177.36,53.64878,-0.15882,0.09943942,1.02842
178.06,53.8757,-0.15849,0.09904527,1.02819
178.76,54.10176,-0.15956,0.09869175,1.02796
179.46,54.32914,-0.15981,0.10163,1.02773
180.16,54.5574,-0.16047,0.10064,1.0275
180.86,54.787,-0.16179,0.099111,1.02727
181.56,55.01583,-0.1608,0.10181,1.02704
182.26,55.2446,-0.16077,0.10079,1.02681
182.96,55.4733,-0.16212,0.10243,1.02658
183.66,55.7024,-0.16105,0.09907911,1.02634
184.36,55.93166,-0.1631,0.10062,1.02611
185.06,56.16123,-0.16296,0.10021,1.02588
185.76,56.39068,-0.16438,0.10081,1.02564
186.46,56.62,-0.16442,0.09853258,1.02541
187.16,56.8487,-0.16475,0.10145,1.02517
187.86,57.07689,-0.16409,0.10051,1.02493
188.56,57.3051,-0.16541,0.10173,1.0247
189.26,57.5322,-0.16607,0.10053,1.02446
189.96,57.7592,-0.16475,0.1035,1.02422
190.66,57.9858,-0.16445,0.10295,1.02399
191.36,58.21354,-0.16574,0.10498,1.02375
192.06,58.4419,-0.16704,0.1048,1.02351
192.76,58.67038,-0.16714,0.10257,1.02327
193.46,58.89833,-0.16673,0.10472,1.02303
194.16,59.12548,-0.16773,0.10663,1.02279
194.86,59.3526,-0.1669,0.10376,1.02255
195.56,59.57891,-0.16804,0.1064,1.02231
196.26,59.8055,-0.17034,0.10956,1.02206
196.96,60.0316,-0.16903,0.10855,1.02182
197.66,60.25846,-0.17002,0.10993,1.02158
198.36,60.4854,-0.16969,0.10885,1.02134
199.06,60.71304,-0.17105,0.10912,1.02109
199.76,60.9403,-0.17133,0.11163,1.02085
200.46,61.1676,-0.17133,0.11269,1.0206
201.16,61.3951,-0.17133,0.11059,1.02036
201.86,61.6231,-0.1723,0.11291,1.02011
202.56,61.8507,-0.17396,0.11434,1.01986
203.26,62.0788,-0.17462,0.11304,1.01962
203.96,62.3073,-0.17321,0.11523,1.01937
204.66,62.5363,-0.17462,0.11122,1.01912
205.36,62.76486,-0.17561,0.1111,1.01887
206.06,62.9925,-0.17659,0.11191,1.01862
206.76,63.2212,-0.17824,0.11123,1.01837
207.46,63.44944,-0.17825,0.11242,1.01812
208.16,63.6784,-0.17827,0.11638,1.01787
208.86,63.90609,-0.18052,0.11325,1.01762
209.56,64.13373,-0.18053,0.11683,1.01737
210.26,64.36065,-0.18087,0.11755,1.01711
210.96,64.58712,-0.18163,0.1167,1.01686
211.66,64.81331,-0.18186,0.11741,1.01661
212.36,65.0402,-0.18186,0.11752,1.01635
213.06,65.26774,-0.18216,0.11831,1.0161
213.76,65.4945,-0.1835,0.1168,1.01584
214.46,65.72108,-0.18562,0.11885,1.01559
215.16,65.94747,-0.18745,0.11803,1.01533
215.86,66.1743,-0.1868,0.11811,1.01507
216.56,66.4012,-0.18812,0.12049,1.01482
217.26,66.62824,-0.18811,0.12014,1.01456
217.96,66.8558,-0.1895,0.11785,1.0143
218.66,67.0832,-0.19171,0.11955,1.01404
219.36,67.31026,-0.19129,0.12179,1.01378
220.06,67.53611,-0.19268,0.12147,1.01352
220.76,67.76297,-0.19404,0.12346,1.01326
221.46,67.98988,-0.19615,0.12311,1.013
222.16,68.21891,-0.197,0.12255,1.01273
222.86,68.4474,-0.19962,0.12194,1.01247
223.56,68.67624,-0.20092,0.12536,1.01221
224.26,68.90433,-0.20226,0.12548,1.01194
224.96,69.13218,-0.20357,0.12536,1.01168
225.66,69.3607,-0.20487,0.12623,1.01141
226.36,69.58931,-0.2068,0.12687,1.01115
227.06,69.81726,-0.20816,0.12765,1.01088
227.76,70.04454,-0.2105,0.12858,1.01062
228.46,70.27114,-0.21079,0.13087,1.01035
229.16,70.4979,-0.21312,0.13038,1.01008
229.86,70.7251,-0.2157,0.13078,1.00981
230.56,70.95276,-0.21708,0.13397,1.00954
231.26,71.1808,-0.21839,0.13369,1.00927
231.96,71.40754,-0.22103,0.13529,1.009
232.66,71.63341,-0.22234,0.1341,1.00873
233.36,71.8587,-0.22558,0.13983,1.00846
234.06,72.08425,-0.22694,0.13869,1.00819
234.76,72.31081,-0.22958,0.13737,1.00792
235.46,72.5382,-0.23184,0.13385,1.00764
236.16,72.76597,-0.23386,0.1359,1.00737
236.86,72.99461,-0.23644,0.13397,1.00709
237.56,73.2234,-0.23911,0.13413,1.00682
238.26,73.45268,-0.24307,0.135,1.00654
238.96,73.68208,-0.24568,0.1355,1.00627
239.66,73.9114,-0.24737,0.13615,1.00599
240.36,74.1401,-0.25229,0.13769,1.00571
241.06,74.368,-0.2536,0.1373,1.00543
241.76,74.59584,-0.25656,0.13856,1.00515
242.46,74.82336,-0.25922,0.14146,1.00488
243.16,75.05023,-0.26188,0.13878,1.0046
243.86,75.2766,-0.26564,0.13925,1.00431
244.56,75.50286,-0.26939,0.14115,1.00403
245.26,75.72926,-0.27089,0.13951,1.00375
245.96,75.9559,-0.27466,0.13956,1.00347
246.66,76.18289,-0.27731,0.13725,1.00319
247.36,76.41017,-0.28213,0.13495,1.0029
248.06,76.63717,-0.28424,0.13478,1.00262
248.76,76.8638,-0.28915,0.13637,1.00233
249.46,77.09012,-0.29312,0.1369,1.00205
250.16,77.31568,-0.29603,0.13606,1.00176
250.86,77.54096,-0.2999,0.137,1.00147
251.56,77.76655,-0.30398,0.13799,1.00119
252.26,77.99331,-0.308,0.1405,1.0009
252.96,78.2205,-0.31335,0.13924,1.00061
253.66,78.4474,-0.31821,0.13929,1.00032
254.36,78.67393,-0.32261,0.13695,1.00003
255.06,78.9008,-0.32784,0.13645,0.99974
255.76,79.1281,-0.33366,0.13767,0.99945
256.46,79.3559,-0.3372,0.13651,0.99916
257.16,79.58332,-0.34246,0.13589,0.99886
257.86,79.81042,-0.3485,0.13404,0.99857
258.56,80.03689,-0.35441,0.13778,0.99828
259.26,80.26312,-0.35907,0.13614,0.99798
259.96,80.48916,-0.36343,0.13603,0.99769
260.66,80.715,-0.36742,0.14389,0.99739
261.36,80.94109,-0.37476,0.1402,0.99709
262.06,81.16745,-0.38213,0.14094,0.9968
262.76,81.39455,-0.38775,0.1425,0.9965
263.46,81.62101,-0.39397,0.14365,0.9962
264.16,81.84711,-0.4006,0.14344,0.9959
264.86,82.07268,-0.40741,0.14481,0.9956
265.56,82.29885,-0.41275,0.14305,0.9953
266.26,82.52582,-0.42088,0.14419,0.995
266.96,82.7531,-0.42792,0.1449,0.9947
267.66,82.98143,-0.43354,0.14598,0.99439
268.36,83.209,-0.44165,0.14483,0.99409
269.06,83.43698,-0.44939,0.14501,0.99379
269.76,83.66495,-0.45593,0.14678,0.99348
270.46,83.89354,-0.4639,0.14734,0.99318
271.16,84.1219,-0.47174,0.15111,0.99287
271.86,84.3489,-0.48055,0.15198,0.99256
272.56,84.57605,-0.48919,0.15078,0.99226
273.26,84.80283,-0.49769,0.15084,0.99195
273.96,85.03,-0.50483,0.15172,0.99164
274.66,85.25647,-0.51455,0.15144,0.99133
275.36,85.4823,-0.52494,0.15337,0.99102
276.06,85.70793,-0.53343,0.15626,0.99071
276.76,85.93345,-0.54244,0.15563,0.9904
277.46,86.1596,-0.55183,0.158,0.99009
278.16,86.3862,-0.56193,0.15835,0.98977
278.86,86.6129,-0.5727,0.1582,0.98946
279.56,86.83971,-0.58218,0.16159,0.98915
280.26,87.06659,-0.59232,0.16099,0.98883
280.96,87.29326,-0.60276,0.16097,0.98852
281.66,87.5207,-0.61311,0.15861,0.9882
282.36,87.74786,-0.62543,0.16037,0.98788
283.06,87.9769,-0.63567,0.16405,0.98757
283.76,88.20603,-0.64787,0.16441,0.98725
284.46,88.43606,-0.65741,0.16459,0.98693
285.16,88.66486,-0.66944,0.16627,0.98661
285.86,88.89316,-0.68264,0.16991,0.98629
286.56,89.1208,-0.69388,0.1752,0.98597
287.26,89.3481,-0.70699,0.17603,0.98565
287.96,89.57395,-0.71959,0.17479,0.98532
288.66,89.80029,-0.73113,0.17779,0.985
289.36,90.0273,-0.74551,0.17788,0.98468
290.06,90.25571,-0.75936,0.17665,0.98435
290.76,90.48414,-0.77157,0.18185,0.98403
291.46,90.71235,-0.78612,0.18183,0.9837
292.16,90.9404,-0.80039,0.18382,0.98337
292.86,91.1675,-0.81406,0.18249,0.98305
293.56,91.3952,-0.83029,0.18443,0.98272
294.26,91.62305,-0.84322,0.18512,0.98239
294.96,91.8517,-0.85862,0.19064,0.98206
295.66,92.07933,-0.87451,0.19095,0.98173
296.36,92.3069,-0.88933,0.19301,0.9814
297.06,92.53407,-0.90462,0.19369,0.98107
297.76,92.76115,-0.9195,0.19729,0.98074
298.46,92.98775,-0.93675,0.20007,0.9804
299.16,93.21421,-0.9531,0.20067,0.98007
299.86,93.44064,-0.96906,0.20283,0.97973
300.56,93.66682,-0.98723,0.20289,0.9794
301.26,93.89346,-1.00332,0.20697,0.97906
301.96,94.11999,-1.02103,0.20506,0.97873
302.66,94.3478,-1.04061,0.20538,0.97839
303.36,94.57611,-1.0575,0.20634,0.97805
304.06,94.8056,-1.07691,0.20513,0.97771
304.76,95.0356,-1.09689,0.20624,0.97737
305.46,95.2654,-1.11416,0.20608,0.97703
306.16,95.49473,-1.13498,0.20755,0.97669
306.86,95.723,-1.15101,0.21003,0.97635
307.56,95.9507,-1.17096,0.21323,0.97601
308.26,96.17747,-1.1916,0.2145,0.97566
308.96,96.40434,-1.21126,0.21554,0.97532
309.66,96.631,-1.2302,0.21616,0.97497
310.36,96.85862,-1.25051,0.21806,0.97463
311.06,97.08645,-1.26845,0.2189,0.97428
311.76,97.3147,-1.28921,0.21975,0.97393
312.46,97.54271,-1.3087,0.22055,0.97359
313.16,97.77096,-1.32923,0.22105,0.97324
313.86,97.99954,-1.35061,0.2239,0.97289
314.56,98.22834,-1.37079,0.2208,0.97254
315.26,98.4569,-1.39286,0.22386,0.97219
315.96,98.68575,-1.41382,0.22752,0.97184
316.66,98.9147,-1.436,0.22544,0.97148
317.36,99.14335,-1.45491,0.22567,0.97113
318.06,99.37204,-1.47679,0.22588,0.97078
318.76,99.6008,-1.49884,0.22619,0.97042
319.46,99.82977,-1.52002,0.22714,0.97007
320.16,100.059,-1.5426,0.23118,0.96971
320.86,100.287,-1.56471,0.23422,0.96935
321.56,100.516,-1.58649,0.23521,0.969
322.26,100.744,-1.60826,0.23412,0.96864
322.96,100.973,-1.6311,0.23793,0.96828
323.66,101.201,-1.6528,0.23869,0.96792
324.36,101.43,-1.67651,0.24058,0.96756
325.06,101.6586,-1.69836,0.24379,0.9672
325.76,101.8882,-1.72191,0.24727,0.96684
326.46,102.118,-1.7463,0.24704,0.96647
327.16,102.348,-1.77042,0.24684,0.96611
327.86,102.577,-1.79359,0.2509,0.96574
328.56,102.806,-1.81828,0.25428,0.96538
329.26,103.034,-1.84254,0.25669,0.96501
329.96,103.262,-1.86622,0.25842,0.96465
330.66,103.49,-1.89077,0.26332,0.96428
331.36,103.718,-1.917,0.26647,0.96391
332.06,103.947,-1.94249,0.26833,0.96354
332.76,104.176,-1.96873,0.26936,0.96317
333.46,104.406,-1.99659,0.27536,0.9628
334.16,104.635,-2.02312,0.27715,0.96243
334.86,104.863,-2.04818,0.27995,0.96206
335.56,105.091,-2.07709,0.28542,0.96169
336.26,105.319,-2.10448,0.2885,0.96131
336.96,105.548,-2.13152,0.28735,0.96094
337.66,105.778,-2.1608,0.29123,0.96056
338.36,106.008,-2.18898,0.29194,0.96019
339.06,106.238,-2.21782,0.29498,0.95981
339.76,106.468,-2.24664,0.29471,0.95943
340.46,106.697,-2.27666,0.29759,0.95905
341.16,106.926,-2.30707,0.29661,0.95867
341.86,107.154,-2.33505,0.29809,0.95829
342.56,107.383,-2.36424,0.29914,0.95791
343.26,107.611,-2.39515,0.29792,0.95753
343.96,107.838,-2.4238,0.30043,0.95715
344.66,108.065,-2.45251,0.29635,0.95677
345.36,108.294,-2.48217,0.2924,0.95638
346.06,108.524,-2.50987,0.28656,0.956
346.76,108.754,-2.53945,0.2836,0.95561
347.46,108.984,-2.5659,0.27607,0.95523
348.16,109.214,-2.59263,0.27274,0.95484
348.86,109.443,-2.61999,0.26478,0.95445
349.56,109.672,-2.64535,0.25829,0.95406
350.26,109.901,-2.67014,0.248,0.95367
350.96,110.128,-2.69445,0.24298,0.95328
351.66,110.356,-2.71709,0.23064,0.95289
352.36,110.585,-2.73945,0.21875,0.9525
353.06,110.815,-2.76136,0.20702,0.95211
353.76,111.045,-2.78198,0.19631,0.95171
354.46,111.276,-2.80065,0.18505,0.95132
355.16,111.505,-2.81741,0.17293,0.95092
355.86,111.734,-2.83492,0.16391,0.95053
356.56,111.962,-2.85143,0.15173,0.95013
357.26,112.19,-2.86316,0.13852,0.94973
357.96,112.418,-2.87813,0.12742,0.94934
358.66,112.647,-2.88969,0.11221,0.94894
359.36,112.877,-2.90182,0.10614,0.94854
360.06,113.106,-2.91042,0.09152093,0.94814
360.76,113.336,-2.91975,0.08654901,0.94774
361.46,113.564,-2.92776,0.07419884,0.94733
362.16,113.792,-2.93385,0.06746182,0.94693
362.86,114.021,-2.94072,0.06093387,0.94653
363.56,114.25,-2.94668,0.05352271,0.94612
364.26,114.48,-2.95224,0.0463873,0.94572
364.96,114.71,-2.95526,0.03915207,0.94531
365.66,114.941,-2.9602,0.03608788,0.9449
366.36,115.17,-2.9639,0.03431415,0.94449
367.06,115.4,-2.96798,0.02758049,0.94409
367.76,115.63,-2.97062,0.02654659,0.94368
368.46,115.859,-2.97425,0.02704184,0.94327
369.16,116.088,-2.97556,0.02341399,0.94285
369.86,116.316,-2.97951,0.02175387,0.94244
370.56,116.5451,-2.98168,0.01980772,0.94203
371.26,116.774,-2.98577,0.01973672,0.94162
371.96,117.004,-2.98674,0.02197339,0.9412
372.66,117.233,-2.9894,0.02158511,0.94079
373.36,117.462,-2.99232,0.01924762,0.94037
374.06,117.691,-2.99335,0.01945056,0.93995
374.76,117.921,-2.99606,0.01813703,0.93954
375.46,118.15,-2.99794,0.01720732,0.93912
376.16,118.379,-3.00189,0.01658524,0.9387
376.86,118.608,-3.00443,0.01457387,0.93828
377.56,118.839,-3.0059,0.01390454,0.93786
378.26,119.069,-3.00815,0.01422999,0.93743
378.96,119.299,-3.00843,0.01419522,0.93701
379.66,119.528,-3.0124,0.01460747,0.93659
380.36,119.758,-3.01519,0.01133808,0.93616
381.06,119.987,-3.01646,0.01198239,0.93574
381.76,120.217,-3.01707,0.01055709,0.93531
382.46,120.446,-3.02101,0.009975646,0.93489
383.16,120.677,-3.02251,0.01130899,0.93446
383.86,120.908,-3.02505,0.00867495,0.93403
384.56,121.139,-3.02756,0.00910122,0.9336
385.26,121.3708,-3.0295,0.006061996,0.93317
385.96,121.6019,-3.03048,0.00827276,0.93274
386.66,121.833,-3.03315,0.00678594,0.93231
387.36,122.064,-3.03577,0.003101376,0.93188
388.06,122.296,-3.03801,0.004737087,0.93144
388.76,122.526,-3.04147,0.00272963,0.93101
389.46,122.755,-3.04269,0.004442678,0.93057
390.16,122.984,-3.04401,0.002580586,0.93014
390.86,123.2123,-3.04666,0.00266785,0.9297
391.56,123.44,-3.04929,0.00181928,0.92926
392.26,123.67,-3.05053,0.001283143,0.92883
392.96,123.901,-3.05328,-0.001069282,0.92839
393.66,124.133,-3.05586,-0.003547191,0.92795
394.36,124.365,-3.0598,-0.003501689,0.9275
395.06,124.597,-3.06112,-0.003935774,0.92706
395.76,124.829,-3.06258,-0.002926348,0.92662
396.46,125.06,-3.06579,-0.00584718,0.92618
397.16,125.291,-3.06788,-0.004931785,0.92573
397.86,125.522,-3.06937,-0.00590421,0.92529
398.56,125.752,-3.07198,-0.004346629,0.92484
399.26,125.981,-3.07462,-0.00699128,0.9244
399.96,126.2099,-3.07597,-0.008284791,0.92395
400.66,126.439,-3.07818,-0.008773038,0.9235
401.36,126.669,-3.07958,-0.009955275,0.92305
402.06,126.899,-3.08218,-0.009658349,0.9226
402.76,127.13,-3.08403,-0.01092875,0.92215
403.46,127.362,-3.08678,-0.01334569,0.9217
404.16,127.594,-3.08684,-0.01323318,0.92124
404.86,127.826,-3.08962,-0.01594964,0.92079
405.56,128.059,-3.09338,-0.01856943,0.92034
406.26,128.292,-3.09599,-0.01894223,0.91988
406.96,128.524,-3.0974,-0.01823915,0.91943
407.66,128.757,-3.09961,-0.01859755,0.91897
408.36,128.988,-3.10159,-0.01815071,0.91851
409.06,129.219,-3.10485,-0.01757433,0.91805
409.76,129.449,-3.10621,-0.0194338,0.91759
410.46,129.678,-3.10791,-0.01967843,0.91713
411.16,129.908,-3.11002,-0.01907848,0.91667
411.86,130.137,-3.11312,-0.0212393,0.91621
412.56,130.3652,-3.11444,-0.02108487,0.91575
413.26,130.5938,-3.11706,-0.02172975,0.91528
413.96,130.823,-3.11772,-0.0200423,0.91482
414.66,131.053,-3.11914,-0.02269778,0.91435
415.36,131.284,-3.12302,-0.02453096,0.91389
416.06,131.5165,-3.12365,-0.02177106,0.91342
416.76,131.75,-3.12628,-0.0194919,0.91295
417.46,131.983,-3.12858,-0.01824676,0.91249
418.16,132.216,-3.13121,-0.01762283,0.91202
418.86,132.448,-3.13281,-0.02246493,0.91155
419.56,132.681,-3.13385,-0.01718627,0.91107
420.26,132.913,-3.13648,-0.01757349,0.9106
420.96,133.143,-3.1391,-0.0156965,0.91013
421.66,133.3729,-3.14044,-0.01612554,0.90966
422.36,133.603,-3.14174,-0.01556031,0.90918
423.06,133.832,-3.14437,-0.01278209,0.90871
423.76,134.0634,-3.14569,-0.01332063,0.90823
424.46,134.295,-3.147,-0.01612006,0.90775
425.16,134.527,-3.14899,-0.01579894,0.90728
425.86,134.758,-3.14951,-0.01484492,0.9068
426.56,134.989,-3.15109,-0.01275213,0.90632
427.26,135.221,-3.15295,-0.01347227,0.90584
427.96,135.452,-3.15458,-0.01070093,0.90536
428.66,135.685,-3.15603,-0.01374206,0.90487
429.36,135.916,-3.15855,-0.01277452,0.90439
430.06,136.1491,-3.15984,-0.01264348,0.90391
430.76,136.38,-3.16182,-0.01209168,0.90342
431.46,136.613,-3.16445,-0.01337719,0.90294
432.16,136.844,-3.16416,-0.01024205,0.90245
432.86,137.077,-3.16568,-0.01058284,0.90196
433.56,137.309,-3.1684,-0.00722025,0.90147
434.26,137.542,-3.16875,-0.00530147,0.90099
434.96,137.7747,-3.17129,-0.00395881,0.9005
435.66,138.006,-3.17299,-0.00738955,0.90001
436.36,138.238,-3.17544,-0.005459559,0.89951
437.06,138.468,-3.17662,-0.00630046,0.89902
437.76,138.6984,-3.17793,-0.004107321,0.89853
438.46,138.929,-3.17827,-0.001900774,0.89803
439.16,139.159,-3.17951,-0.0029483,0.89754
439.86,139.389,-3.18167,-0.000588251,0.89704
440.56,139.619,-3.1832,-0.003560411,0.89655
441.26,139.85,-3.18583,0.0008891358,0.89605
441.96,140.08,-3.18569,-0.001024915,0.89555
442.66,140.311,-3.18695,7.16788e-06,0.89505
443.36,140.543,-3.18846,-0.002740025,0.89455
444.06,140.775,-3.18987,-0.002401896,0.89405
444.76,141.007,-3.1924,-0.001509046,0.89355
445.46,141.239,-3.19278,-0.002198523,0.89305
446.16,141.47,-3.19345,-0.00139916,0.89254
446.86,141.701,-3.19603,-0.0007241636,0.89204
447.56,141.932,-3.19735,0.000931792,0.89154
448.26,142.164,-3.19703,-0.000106026,0.89103
448.96,142.3968,-3.19871,0.003721813,0.89052
449.66,142.63,-3.20004,0.00318927,0.89001
450.36,142.863,-3.20129,0.001165529,0.88951
451.06,143.096,-3.20129,0.003136085,0.889
451.76,143.3299,-3.20262,0.004749952,0.88849
452.46,143.562,-3.20397,0.00715686,0.88798
453.16,143.7937,-3.20492,0.01085383,0.88746
453.86,144.024,-3.20619,0.01190814,0.88695
454.56,144.255,-3.20736,0.01355335,0.88644
455.26,144.486,-3.20723,0.01638534,0.88592
455.96,144.718,-3.20985,0.01713041,0.88541
456.66,144.949,-3.20986,0.02167679,0.88489
457.36,145.18,-3.21247,0.02172026,0.88438
458.06,145.411,-3.21108,0.0212057,0.88386
458.76,145.643,-3.21247,0.02126778,0.88334
459.46,145.873,-3.21381,0.01897888,0.88282
460.16,146.104,-3.21479,0.02050398,0.8823
460.86,146.336,-3.21685,0.0216904,0.88178
461.56,146.568,-3.21684,0.0210537,0.88126
462.26,146.8006,-3.21907,0.02597253,0.88073
462.96,147.033,-3.22005,0.02233077,0.88021
463.66,147.267,-3.22108,0.02365815,0.87969
464.36,147.5,-3.22037,0.02190045,0.87916
465.06,147.735,-3.22298,0.02060754,0.87863
465.76,147.97,-3.22335,0.02006321,0.87811
466.46,148.205,-3.22403,0.01977299,0.87758
467.16,148.439,-3.22598,0.02145267,0.87705
467.86,148.674,-3.22796,0.02104026,0.87652
468.56,148.909,-3.22796,0.0151788,0.87599
469.26,149.144,-3.22927,0.01189092,0.87546
469.96,149.377,-3.22828,0.01184188,0.87493
470.66,149.6083,-3.23092,0.00829259,0.8744
471.36,149.8401,-3.23095,0.006927951,0.87386
472.06,150.072,-3.23092,0.008600299,0.87333
472.76,150.304,-3.23354,0.00424114,0.87279
473.46,150.536,-3.23477,0.009069051,0.87226
474.16,150.768,-3.23388,0.008806877,0.87172
474.86,151.002,-3.23559,0.00638137,0.87118
475.56,151.2355,-3.23586,0.007500805,0.87064
476.26,151.468,-3.23717,0.00430788,0.8701
476.96,151.7,-3.23783,0.00346093,0.86956
477.66,151.932,-3.23849,0.003989013,0.86902
478.36,152.162,-3.2398,0.004554679,0.86848
479.06,152.393,-3.24112,0.003906138,0.86793
479.76,152.624,-3.24241,0.004944452,0.86739
480.46,152.856,-3.24244,0.003524122,0.86685
481.16,153.088,-3.24375,0.003247196,0.8663
481.86,153.321,-3.24507,0.004500849,0.86575
482.56,153.555,-3.24607,0.003013092,0.86521
483.26,153.79,-3.24593,0.002448703,0.86466
483.96,154.024,-3.24739,0.003759662,0.86411
484.66,154.259,-3.24802,0.001849749,0.86356
485.36,154.4923,-3.24869,-0.001901591,0.86301
486.06,154.726,-3.24967,-0.0006952331,0.86246
486.76,154.959,-3.25258,-0.001547873,0.86191
487.46,155.193,-3.25132,-0.002488241,0.86135
488.16,155.4263,-3.25328,-0.007262234,0.8608
488.86,155.659,-3.25344,-0.00770949,0.86025
489.56,155.892,-3.25455,-0.006857925,0.85969
490.26,156.123,-3.25521,-0.00924202,0.85913
490.96,156.355,-3.25454,-0.008240861,0.85858
491.66,156.587,-3.25659,-0.00602899,0.85802
492.36,156.819,-3.25724,-0.007712141,0.85746
493.06,157.05,-3.25887,-0.008572612,0.8569
493.76,157.282,-3.25987,-0.01030135,0.85634
494.46,157.513,-3.25889,-0.00953313,0.85578
495.16,157.745,-3.2591,-0.01277508,0.85522
495.86,157.979,-3.26049,-0.01290333,0.85465
496.56,158.213,-3.26151,-0.01495405,0.85409
497.26,158.447,-3.26285,-0.01767573,0.85353
497.96,158.681,-3.26285,-0.01598451,0.85296
498.66,158.9155,-3.26351,-0.01888641,0.85239
499.36,159.149,-3.26415,-0.01680181,0.85183
500.06,159.383,-3.26547,-0.01847679,0.85126
500.76,159.616,-3.26547,-0.01960772,0.85069
501.46,159.85,-3.26612,-0.02280948,0.85012
502.16,160.084,-3.26611,-0.02119954,0.84955
502.86,160.318,-3.26876,-0.02254979,0.84898
503.56,160.552,-3.26876,-0.02567169,0.84841
504.26,160.786,-3.27008,-0.02723947,0.84783
504.96,161.019,-3.27106,-0.02763262,0.84726
505.66,161.252,-3.27205,-0.02956062,0.84669
506.36,161.485,-3.27145,-0.02915867,0.84611
507.06,161.717,-3.27403,-0.03049465,0.84554
507.76,161.95,-3.27403,-0.03194271,0.84496
508.46,162.182,-3.27464,-0.03280071,0.84438
509.16,162.4133,-3.27534,-0.02906261,0.8438
509.86,162.645,-3.27553,-0.03013074,0.84322
510.56,162.877,-3.27764,-0.03130332,0.84264
511.26,163.111,-3.27732,-0.03250567,0.84206
511.96,163.343,-3.27797,-0.03181216,0.84148
512.66,163.576,-3.27862,-0.03244675,0.8409
513.36,163.809,-3.27994,-0.03506742,0.84031
514.06,164.043,-3.27994,-0.03667489,0.83973
514.76,164.277,-3.28126,-0.03740871,0.83915
515.46,164.511,-3.28126,-0.03949229,0.83856
516.16,164.745,-3.28224,-0.03822084,0.83797
516.86,164.98,-3.28159,-0.04176494,0.83739
517.56,165.215,-3.28422,-0.04122315,0.8368
518.26,165.45,-3.28422,-0.04024658,0.83621
518.96,165.685,-3.28324,-0.03928041,0.83562
519.66,165.919,-3.28422,-0.04055022,0.83503
520.36,166.153,-3.28554,-0.03913336,0.83444
521.06,166.3878,-3.28685,-0.03782912,0.83384
521.76,166.622,-3.28554,-0.03642377,0.83325
522.46,166.857,-3.28686,-0.04096847,0.83266
523.16,167.09,-3.28817,-0.04045972,0.83206
523.86,167.323,-3.28949,-0.04116331,0.83147
524.56,167.554,-3.29048,-0.03803868,0.83087
525.26,167.786,-3.28925,-0.03853907,0.83027
525.96,168.018,-3.29049,-0.0414721,0.82968
526.66,168.251,-3.29179,-0.04095439,0.82908
527.36,168.485,-3.29308,-0.04361461,0.82848
528.06,168.719,-3.29311,-0.04416497,0.82788
528.76,168.953,-3.2941,-0.04317653,0.82728
529.46,169.187,-3.2941,-0.04252407,0.82668
530.16,169.422,-3.29541,-0.04470575,0.82607
530.86,169.656,-3.29542,-0.04676973,0.82547
531.56,169.89,-3.29541,-0.0441313,0.82487
532.26,170.1244,-3.29672,-0.04520265,0.82426
532.96,170.358,-3.29697,-0.04383667,0.82365
533.66,170.592,-3.29849,-0.04534437,0.82305
534.36,170.826,-3.29772,-0.04552941,0.82244
535.06,171.06,-3.29858,-0.04780749,0.82183
535.76,171.294,-3.2983,-0.0495519,0.82122
536.46,171.527,-3.30035,-0.04934289,0.82061
537.16,171.76,-3.30163,-0.05070833,0.82
537.86,171.993,-3.30265,-0.04866793,0.81939
538.56,172.2263,-3.30298,-0.05035384,0.81878
539.26,172.461,-3.30338,-0.04931747,0.81817
539.96,172.695,-3.30201,-0.04928604,0.81755
540.66,172.93,-3.30463,-0.04703173,0.81694
541.36,173.164,-3.30529,-0.04702281,0.81632
542.06,173.399,-3.30558,-0.04821735,0.81571
542.76,173.6327,-3.30561,-0.04917362,0.81509
543.46,173.866,-3.30594,-0.05025434,0.81447
544.16,174.1,-3.30594,-0.04835729,0.81386
544.86,174.333,-3.30726,-0.05004093,0.81324
545.56,174.566,-3.30659,-0.04951685,0.81262
546.26,174.799,-3.30791,-0.05027703,0.812
546.96,175.031,-3.30923,-0.05099868,0.81138
547.66,175.263,-3.30857,-0.04674589,0.81075
548.36,175.498,-3.31121,-0.04772171,0.81013
549.06,175.733,-3.31121,-0.04733941,0.80951
549.76,175.968,-3.31126,-0.04914822,0.80888
550.46,176.202,-3.31054,-0.0482192,0.80826
551.16,176.437,-3.31187,-0.04833313,0.80763
551.86,176.672,-3.31186,-0.05022943,0.80701
552.56,176.908,-3.31351,-0.05006655,0.80638
553.26,177.144,-3.31451,-0.05091801,0.80575
553.96,177.379,-3.3158,-0.05169313,0.80512
554.66,177.613,-3.31589,-0.04812573,0.80449
555.36,177.846,-3.31714,-0.04875653,0.80386
556.06,178.079,-3.31837,-0.04860261,0.80323
556.76,178.314,-3.31749,-0.04749582,0.8026
557.46,178.55,-3.31778,-0.05228176,0.80197
558.16,178.785,-3.31924,-0.05349535,0.80133
558.86,179.019,-3.32007,-0.04968279,0.8007
559.56,179.252,-3.32141,-0.04738567,0.80006
560.26,179.485,-3.32141,-0.04805454,0.79943
560.96,179.719,-3.32272,-0.04764405,0.79879
561.66,179.953,-3.32307,-0.04713261,0.79815
562.36,180.187,-3.32298,-0.0462004,0.79752
563.06,180.42,-3.32241,-0.05008251,0.79688
563.76,180.654,-3.3248,-0.04809239,0.79624
564.46,180.8872,-3.32433,-0.04758077,0.7956
565.16,181.121,-3.32571,-0.0502869,0.79496
565.86,181.357,-3.32635,-0.04885572,0.79431
566.56,181.594,-3.32535,-0.05182417,0.79367
567.26,181.831,-3.32634,-0.04934084,0.79303
567.96,182.067,-3.32667,-0.05069385,0.79239
568.66,182.302,-3.328,-0.04956597,0.79174
569.36,182.5361,-3.32831,-0.04894421,0.7911
570.06,182.77,-3.32798,-0.04702708,0.79045
570.76,183.004,-3.3293,-0.04625031,0.7898
571.46,183.238,-3.3293,-0.04633766,0.78916
572.16,183.472,-3.32947,-0.04855283,0.78851
572.86,183.705,-3.33133,-0.04640209,0.78786
573.56,183.937,-3.33162,-0.04537749,0.78721
574.26,184.17,-3.33233,-0.04445629,0.78656
574.96,184.4035,-3.33332,-0.04463645,0.78591
575.66,184.637,-3.33404,-0.04661178,0.78526
576.36,184.871,-3.33391,-0.04606123,0.7846
577.06,185.104,-3.33424,-0.0450925,0.78395
577.76,185.339,-3.33424,-0.04236293,0.7833
578.46,185.5757,-3.33519,-0.04303914,0.78264
579.16,185.8128,-3.33555,-0.0444608,0.78199
579.86,186.051,-3.3352,-0.04435671,0.78133
580.56,186.288,-3.33663,-0.04443308,0.78067
581.26,186.524,-3.33786,-0.04324454,0.78002
581.96,186.759,-3.33655,-0.04284582,0.77936
582.66,186.991,-3.33885,-0.04427589,0.7787
583.36,187.224,-3.33819,-0.03999873,0.77804
584.06,187.457,-3.33952,-0.04122933,0.77738
584.76,187.691,-3.34133,-0.03964641,0.77672
585.46,187.9257,-3.34113,-0.04378874,0.77606
586.16,188.16,-3.34113,-0.04396386,0.77539
586.86,188.397,-3.33986,-0.04455983,0.77473
587.56,188.635,-3.34246,-0.04154898,0.77407
588.26,188.872,-3.34322,-0.04201022,0.7734
588.96,189.108,-3.3426,-0.04283871,0.77274
589.66,189.342,-3.34346,-0.04077801,0.77207
590.36,189.5771,-3.342,-0.04273786,0.7714
591.06,189.8126,-3.34257,-0.04352181,0.77074
591.76,190.049,-3.34477,-0.04098637,0.77007
592.46,190.285,-3.3462,-0.03846531,0.7694
593.16,190.521,-3.34477,-0.03969058,0.76873
593.86,190.756,-3.34541,-0.04166602,0.76806
594.56,190.9904,-3.34411,-0.03908703,0.76739
595.26,191.224,-3.34543,-0.03715275,0.76672
595.96,191.457,-3.34703,-0.03750837,0.76605
596.66,191.69,-3.34674,-0.03884207,0.76537
597.36,191.923,-3.34766,-0.03710071,0.7647
598.06,192.157,-3.34805,-0.03525412,0.76403
598.76,192.392,-3.34645,-0.03961303,0.76335
599.46,192.627,-3.34839,-0.03876823,0.76268
600.16,192.862,-3.34837,-0.03790601,0.762
600.86,193.098,-3.34905,-0.03740146,0.76132
601.56,193.335,-3.34871,-0.04036016,0.76064
602.26,193.572,-3.34904,-0.03862523,0.75997
602.96,193.809,-3.34937,-0.04024667,0.75929
603.66,194.046,-3.35069,-0.03892942,0.75861
604.36,194.282,-3.35036,-0.03733724,0.75793
605.06,194.519,-3.35168,-0.03893377,0.75725
605.76,194.753,-3.35279,-0.0355422,0.75657
606.46,194.988,-3.35299,-0.03679858,0.75588
607.16,195.222,-3.35299,-0.03650342,0.7552
607.86,195.456,-3.352,-0.03749718,0.75452
608.56,195.69,-3.35332,-0.03692416,0.75383
609.26,195.9248,-3.3543,-0.04091344,0.75315
609.96,196.159,-3.35371,-0.03997516,0.75246
610.66,196.394,-3.35464,-0.03801812,0.75178
611.36,196.629,-3.35464,-0.03948616,0.75109
612.06,196.864,-3.35562,-0.03804417,0.7504
612.76,197.099,-3.35628,-0.03772263,0.74971
613.46,197.334,-3.35529,-0.03539426,0.74903
614.16,197.57,-3.35727,-0.0384363,0.74834
614.86,197.806,-3.35652,-0.04012886,0.74765
615.56,198.042,-3.35662,-0.04069628,0.74696
616.26,198.278,-3.35662,-0.03651702,0.74627
616.96,198.513,-3.3576,-0.03996913,0.74557
617.66,198.748,-3.35728,-0.03972016,0.74488
618.36,198.9832,-3.35724,-0.03701637,0.74419
619.06,199.2187,-3.35859,-0.03718414,0.74349
619.76,199.454,-3.35823,-0.03632161,0.7428
620.46,199.689,-3.3586,-0.0369942,0.7421
621.16,199.925,-3.35991,-0.03703309,0.74141
621.86,200.16,-3.35859,-0.03336752,0.74071
622.56,200.395,-3.36007,-0.03435026,0.74002
623.26,200.63,-3.36023,-0.03691843,0.73932
623.96,200.866,-3.3609,-0.03485587,0.73862
624.66,201.103,-3.36122,-0.03526344,0.73792
625.36,201.341,-3.36122,-0.03469061,0.73722
626.06,201.58,-3.36122,-0.03777126,0.73652
626.76,201.818,-3.36155,-0.03642191,0.73582
627.46,202.055,-3.36287,-0.03437176,0.73512
628.16,202.291,-3.36287,-0.03157224,0.73442
628.86,202.526,-3.36221,-0.03080993,0.73372
629.56,202.761,-3.36354,-0.03202746,0.73301
630.26,202.995,-3.36352,-0.03293564,0.73231
630.96,203.23,-3.36352,-0.03593808,0.73161
631.66,203.464,-3.36377,-0.03156521,0.7309
632.36,203.699,-3.36385,-0.02939412,0.7302
633.06,203.935,-3.36385,-0.03147375,0.72949
633.76,204.17,-3.36496,-0.03183459,0.72878
634.46,204.406,-3.36543,-0.03598007,0.72808
635.16,204.6426,-3.36681,-0.03141383,0.72737
635.86,204.877,-3.366,-0.0339551,0.72666
636.56,205.112,-3.36681,-0.03631242,0.72595
637.26,205.345,-3.36656,-0.03473333,0.72524
637.96,205.5807,-3.36747,-0.03162012,0.72453
638.66,205.816,-3.36648,-0.03212156,0.72382
639.36,206.053,-3.36714,-0.02928595,0.72311
640.06,206.2895,-3.36714,-0.03252749,0.7224
640.76,206.527,-3.36714,-0.03111685,0.72169
641.46,206.765,-3.36912,-0.03004229,0.72097
642.16,207.003,-3.36783,-0.03280626,0.72026
642.86,207.241,-3.36925,-0.03288465,0.71955
643.56,207.4773,-3.36781,-0.03422041,0.71883
644.26,207.713,-3.36914,-0.03286774,0.71812
644.96,207.948,-3.36912,-0.03347194,0.7174
645.66,208.182,-3.36912,-0.03432844,0.71668
646.36,208.418,-3.36912,-0.03524338,0.71597
647.06,208.654,-3.36945,-0.04033016,0.71525
647.76,208.89,-3.36978,-0.03749515,0.71453
648.46,209.125,-3.37049,-0.03702942,0.71381
649.16,209.36,-3.36978,-0.03915811,0.71309
649.86,209.595,-3.36979,-0.03663451,0.71237
650.56,209.83,-3.3711,-0.03820634,0.71165
651.26,210.065,-3.37077,-0.03864306,0.71093
651.96,210.301,-3.36982,-0.04154384,0.71021
652.66,210.538,-3.37242,-0.04101379,0.70949
653.36,210.773,-3.3707,-0.03987512,0.70877
654.06,211.01,-3.37241,-0.03925326,0.70804
654.76,211.246,-3.37251,-0.04005478,0.70732
655.46,211.484,-3.37365,-0.03849182,0.7066
656.16,211.72,-3.37109,-0.03687182,0.70587
656.86,211.956,-3.37043,-0.03774251,0.70515
657.56,212.192,-3.37043,-0.03876049,0.70442
658.26,212.427,-3.37142,-0.03669646,0.70369
658.96,212.664,-3.37185,-0.03345725,0.70297
659.66,212.9,-3.37167,-0.0364991,0.70224
660.36,213.136,-3.37196,-0.03694559,0.70151
661.06,213.371,-3.37264,-0.0390044,0.70078
661.76,213.607,-3.37266,-0.03505292,0.70005
662.46,213.843,-3.3723,-0.03706945,0.69933
663.16,214.08,-3.37284,-0.04132294,0.6986
663.86,214.316,-3.37296,-0.03218734,0.69787
664.56,214.552,-3.37296,-0.03117413,0.69713
665.26,214.7878,-3.37296,-0.03163256,0.6964
665.96,215.024,-3.37264,-0.03401441,0.69567
666.66,215.26,-3.3746,-0.03154373,0.69494
667.36,215.498,-3.37331,-0.03098221,0.69421
668.06,215.735,-3.37465,-0.03303015,0.69347
668.76,215.971,-3.37597,-0.03053282,0.69274
669.46,216.207,-3.37462,-0.0320966,0.692
670.16,216.442,-3.37527,-0.03228212,0.69127
670.86,216.676,-3.37721,-0.02673752,0.69053
671.56,216.91,-3.37632,-0.02541426,0.6898
672.26,217.145,-3.37592,-0.02574925,0.68906
672.96,217.38,-3.37691,-0.02513652,0.68832
673.66,217.616,-3.37559,-0.02647076,0.68759
674.36,217.852,-3.37691,-0.03074317,0.68685
675.06,218.087,-3.37616,-0.03011314,0.68611
675.76,218.322,-3.37756,-0.02803069,0.68537
676.46,218.557,-3.37756,-0.03032442,0.68463
677.16,218.793,-3.3768,-0.0326421,0.68389
677.86,219.03,-3.37756,-0.0300322,0.68315
678.56,219.266,-3.37855,-0.02666416,0.68241
679.26,219.503,-3.37821,-0.02712297,0.68167
679.96,219.739,-3.3769,-0.02904546,0.68093
680.66,219.976,-3.37822,-0.02885858,0.68019
681.36,220.213,-3.37987,-0.02829009,0.67944
682.06,220.449,-3.37856,-0.02595215,0.6787
682.76,220.686,-3.37954,-0.03056081,0.67796
683.46,220.923,-3.37887,-0.0273573,0.67721
684.16,221.159,-3.37986,-0.02852513,0.67647
684.86,221.396,-3.38103,-0.02531105,0.67572
685.56,221.633,-3.37986,-0.02753368,0.67498
686.26,221.87,-3.37986,-0.02683753,0.67423
686.96,222.1061,-3.37888,-0.02733365,0.67349
687.66,222.342,-3.37889,-0.02637882,0.67274
688.36,222.5776,-3.3802,-0.02460586,0.67199
689.06,222.814,-3.3802,-0.02602896,0.67125
689.76,223.0508,-3.38152,-0.02703493,0.6705
690.46,223.287,-3.38152,-0.02754424,0.66975
691.16,223.5219,-3.38152,-0.02858083,0.669
691.86,223.757,-3.38053,-0.02876784,0.66825
692.56,223.991,-3.38053,-0.02618781,0.6675
693.26,224.226,-3.38184,-0.02762184,0.66675
693.96,224.4623,-3.38314,-0.0295612,0.666
694.66,224.699,-3.38316,-0.03026585,0.66525
695.36,224.935,-3.38217,-0.02956474,0.6645
696.06,225.171,-3.38335,-0.03603492,0.66375
696.76,225.406,-3.38316,-0.0335226,0.66299
697.46,225.643,-3.38316,-0.03406029,0.66224
698.16,225.881,-3.38316,-0.03128166,0.66149
698.86,226.119,-3.38447,-0.03326124,0.66073
699.56,226.358,-3.38485,-0.03393941,0.65998
700.26,226.5952,-3.38381,-0.03641021,0.65923
700.96,226.832,-3.38381,-0.03952136,0.65847
701.66,227.066,-3.38512,-0.03828625,0.65772
702.36,227.3,-3.38447,-0.03690701,0.65696
703.06,227.534,-3.38514,-0.03914996,0.6562
703.76,227.769,-3.38514,-0.0394811,0.65545
704.46,228.004,-3.38514,-0.04141799,0.65469
705.16,228.2402,-3.38677,-0.03930541,0.65393
705.86,228.477,-3.38579,-0.04373762,0.65318
706.56,228.715,-3.38579,-0.04186265,0.65242
707.26,228.952,-3.38776,-0.04096757,0.65166
707.96,229.188,-3.38711,-0.04115856,0.6509
708.66,229.425,-3.38698,-0.04520555,0.65014
709.36,229.661,-3.38725,-0.04236402,0.64938
710.06,229.898,-3.38743,-0.04671831,0.64862
710.76,230.135,-3.38744,-0.04522774,0.64786
711.46,230.372,-3.38711,-0.04686752,0.6471
712.16,230.609,-3.38713,-0.04365241,0.64634
712.86,230.848,-3.38702,-0.04610079,0.64558
713.56,231.086,-3.38754,-0.04890619,0.64482
714.26,231.325,-3.38908,-0.04654986,0.64406
714.96,231.562,-3.38845,-0.04904248,0.64329
715.66,231.8,-3.38842,-0.04417354,0.64253
716.36,232.036,-3.38845,-0.04905056,0.64177
717.06,232.272,-3.3891,-0.05118532,0.641
717.76,232.507,-3.38875,-0.04728749,0.64024
718.46,232.742,-3.38861,-0.05155661,0.63948
719.16,232.977,-3.39007,-0.04887968,0.63871
719.86,233.2122,-3.39007,-0.05130902,0.63795
720.56,233.446,-3.39007,-0.05342656,0.63718
721.26,233.682,-3.39139,-0.0557425,0.63642
721.96,233.916,-3.39138,-0.05115881,0.63565
722.66,234.153,-3.39039,-0.05296328,0.63488
723.36,234.39,-3.39171,-0.05405493,0.63412
724.06,234.628,-3.39031,-0.05859499,0.63335
724.76,234.865,-3.39171,-0.05265529,0.63258
725.46,235.102,-3.39171,-0.05855143,0.63181
726.16,235.3387,-3.39073,-0.06279406,0.63105
726.86,235.577,-3.39073,-0.06619015,0.63028
727.56,235.815,-3.39073,-0.0673387,0.62951
728.26,236.053,-3.39172,-0.07226914,0.62874
728.96,236.291,-3.39106,-0.06872461,0.62797
729.66,236.528,-3.39148,-0.06909631,0.6272
730.36,236.764,-3.39237,-0.07112503,0.62643
731.06,237.001,-3.39237,-0.06396826,0.62566
731.76,237.239,-3.39336,-0.06698396,0.62489
732.46,237.476,-3.39331,-0.06834009,0.62412
733.16,237.713,-3.39512,-0.07275038,0.62335
733.86,237.949,-3.39248,-0.07680958,0.62258
734.56,238.185,-3.39545,-0.07319434,0.62181
735.26,238.421,-3.39395,-0.07912992,0.62103
735.96,238.656,-3.39412,-0.07743554,0.62026
736.66,238.892,-3.39576,-0.07643045,0.61949
737.36,239.13,-3.39512,-0.08168104,0.61872
738.06,239.3688,-3.39511,-0.08204147,0.61794
738.76,239.608,-3.39742,-0.08477055,0.61717
739.46,239.847,-3.39669,-0.08663582,0.6164
740.16,240.086,-3.39676,-0.0878104,0.61562
740.86,240.3238,-3.39709,-0.08701263,0.61485
741.56,240.561,-3.39678,-0.09046779,0.61407
742.26,240.798,-3.39742,-0.09079166,0.6133
742.96,241.035,-3.39742,-0.08624817,0.61252
743.66,241.271,-3.39704,-0.09330052,0.61175
744.36,241.506,-3.39706,-0.09339667,0.61097
745.06,241.741,-3.39741,-0.09166395,0.6102
745.76,241.9753,-3.39741,-0.09340698,0.60942
746.46,242.211,-3.39708,-0.09600177,0.60864
747.16,242.447,-3.39841,-0.09212827,0.60787
747.86,242.684,-3.39709,-0.09860534,0.60709
748.56,242.92,-3.39795,-0.09588326,0.60631
749.26,243.157,-3.39786,-0.09923952,0.60553
749.96,243.394,-3.39841,-0.10379,0.60476
750.66,243.631,-3.39907,-0.10557,0.60398
751.36,243.868,-3.39939,-0.11129,0.6032
752.06,244.1064,-3.39939,-0.11026,0.60242
752.76,244.344,-3.39939,-0.10944,0.60164
753.46,244.581,-3.39939,-0.10954,0.60086
754.16,244.818,-3.39941,-0.10676,0.60008
754.86,245.055,-3.39806,-0.10902,0.59931
755.56,245.292,-3.39939,-0.10843,0.59853
756.26,245.529,-3.39939,-0.11295,0.59775
756.96,245.767,-3.40071,-0.11216,0.59697
757.66,246.005,-3.39973,-0.11776,0.59619
758.36,246.244,-3.39906,-0.12047,0.5954
759.06,246.483,-3.40039,-0.11708,0.59462
759.76,246.722,-3.40005,-0.1191,0.59384
760.46,246.96,-3.40136,-0.12249,0.59306
761.16,247.196,-3.40019,-0.12597,0.59228
761.86,247.433,-3.40136,-0.12834,0.5915
762.56,247.67,-3.40138,-0.12953,0.59072
763.26,247.9075,-3.40149,-0.1325,0.58993
763.96,248.145,-3.40039,-0.13462,0.58915
764.66,248.383,-3.40104,-0.13767,0.58837
765.36,248.622,-3.40104,-0.13764,0.58759
766.06,248.861,-3.40269,-0.13964,0.5868
766.76,249.1,-3.40269,-0.14139,0.58602
767.46,249.337,-3.40262,-0.13885,0.58524
768.16,249.574,-3.40202,-0.1418,0.58445
768.86,249.811,-3.40069,-0.13762,0.58367
769.56,250.048,-3.4017,-0.14326,0.58289
770.26,250.285,-3.4017,-0.143,0.5821
770.96,250.5222,-3.4017,-0.14027,0.58132
771.66,250.761,-3.40137,-0.13826,0.58053
772.36,250.999,-3.40137,-0.14202,0.57975
773.06,251.235,-3.40268,-0.14322,0.57896
773.76,251.471,-3.40268,-0.14521,0.57818
774.46,251.707,-3.40033,-0.1448,0.57739
775.16,251.942,-3.40235,-0.1416,0.57661
775.86,252.178,-3.40193,-0.14156,0.57582
776.56,252.4152,-3.40202,-0.14723,0.57504
777.26,252.653,-3.40413,-0.15268,0.57425
777.96,252.892,-3.40268,-0.14809,0.57347
778.66,253.13,-3.40268,-0.14958,0.57268
779.36,253.368,-3.40301,-0.13922,0.5719
780.06,253.606,-3.40313,-0.14447,0.57111
780.76,253.843,-3.40367,-0.14297,0.57032
781.46,254.079,-3.40442,-0.14212,0.56954
782.16,254.315,-3.40197,-0.1392,0.56875
782.86,254.551,-3.40301,-0.14414,0.56796
783.56,254.787,-3.40334,-0.14186,0.56717
784.26,255.023,-3.404,-0.14594,0.56639
784.96,255.259,-3.405,-0.14348,0.5656
785.66,255.497,-3.404,-0.14977,0.56481
786.36,255.735,-3.40401,-0.15088,0.56403
787.06,255.974,-3.40599,-0.15768,0.56324
787.76,256.211,-3.40466,-0.15761,0.56245
788.46,256.448,-3.404,-0.1584,0.56166
789.16,256.685,-3.40475,-0.1594,0.56087
789.86,256.923,-3.40334,-0.15711,0.56009
790.56,257.161,-3.40465,-0.15496,0.5593
791.26,257.4002,-3.40264,-0.15828,0.55851
791.96,257.64,-3.4053,-0.15681,0.55772
792.66,257.878,-3.404,-0.161,0.55693
793.36,258.1156,-3.40268,-0.15802,0.55614
794.06,258.3517,-3.404,-0.15475,0.55535
794.76,258.588,-3.40276,-0.15638,0.55457
795.46,258.823,-3.40268,-0.15366,0.55378
796.16,259.059,-3.40273,-0.15148,0.55299
796.86,259.295,-3.40301,-0.15225,0.5522
797.56,259.533,-3.40301,-0.14862,0.55141
798.26,259.772,-3.40368,-0.14702,0.55062
798.86,259.978,-3.40431,-0.14578,0.54994