File: 01_Data/Microfiber_Sofa_Polyester_Microfiber/MCC/Microfiber_Sofa_Polyester_Microfiber_MCC_30K_min_220228_R3.txt
Sample ID:	C:\MCC\MCC Cal\Test\Polyester_Microfiber_81A_MCC_30K_min_220228_R3.txt
Sample Weight (mg):	4.34
Heating Rate (C/s):	0.5
Combustor Temp (C):	900
N2 Flow Rate (cc/min):	80
O2 Flow Rate (cc/min):	20
Calibration File:	C:\MCC\MCC Cal\Coeff1 JN10440_30_210304.txt.txt
T Correction Coefficients:	0	1.024463	0
Time Shift (s):	14
*
Time (s)	Temperature (C)	N2 flow rate (cc/min)	O2 flow rate (cc/min)	Flow Rate (cc/min)	Oxygen (%)	HRR (W/g)	Heating rate (C/s)
0.000	112.375	80.010	19.995	103.671	20.094	-0.209	-0.009
2.000	112.419	80.010	19.994	103.667	20.092	-0.022	-0.003
4.000	112.421	80.010	19.996	103.667	20.092	-0.008	0.002
6.000	112.440	80.010	19.995	103.668	20.091	0.041	0.005
8.000	112.438	80.011	19.993	103.667	20.091	0.012	0.025
10.000	112.436	80.009	19.994	103.675	20.092	-0.057	0.018
12.000	112.433	80.010	19.994	103.680	20.086	0.379	0.009
14.000	112.426	80.009	19.993	103.707	20.085	0.487	0.032
16.000	112.478	80.009	19.994	103.718	20.082	0.695	0.028
18.000	112.482	80.011	19.993	103.763	20.080	0.829	0.016
20.000	112.575	80.011	19.994	103.791	20.077	1.109	0.064
22.000	112.646	80.011	19.994	103.807	20.069	1.685	0.031
24.000	112.779	80.011	19.995	103.826	20.067	1.793	0.085
26.000	112.904	80.012	19.992	103.828	20.069	1.700	0.073
28.000	113.073	80.013	19.992	103.818	20.062	2.193	0.073
30.000	113.259	80.012	19.993	103.844	20.062	2.207	0.095
32.000	113.529	80.010	19.992	103.855	20.060	2.329	0.096
34.001	113.769	80.011	19.994	103.859	20.056	2.643	0.137
36.000	114.060	80.009	19.993	103.864	20.059	2.404	0.164
38.000	114.371	80.008	19.993	103.865	20.058	2.510	0.157
40.001	114.716	80.008	19.993	103.869	20.056	2.611	0.206
42.000	115.021	80.008	19.994	103.868	20.056	2.638	0.164
44.000	115.404	80.008	19.994	103.870	20.055	2.758	0.179
46.000	115.759	80.008	19.993	103.869	20.054	2.784	0.196
48.000	116.191	80.009	19.994	103.890	20.051	3.040	0.214
50.000	116.676	80.008	19.994	103.898	20.050	3.121	0.251
52.000	117.095	80.008	19.993	103.894	20.050	3.076	0.241
54.000	117.589	80.007	19.993	103.905	20.050	3.080	0.247
56.001	118.063	80.009	19.993	103.905	20.050	3.064	0.234
58.001	118.599	80.009	19.994	103.907	20.050	3.107	0.252
60.000	119.120	80.008	19.994	103.903	20.046	3.393	0.242
62.000	119.704	80.009	19.995	103.902	20.046	3.383	0.268
64.000	120.278	80.008	19.994	103.899	20.046	3.421	0.301
66.000	120.932	80.008	19.995	103.892	20.049	3.198	0.294
68.000	121.459	80.010	19.993	103.902	20.050	3.113	0.273
70.000	122.130	80.008	19.994	103.905	20.049	3.140	0.319
72.000	122.801	80.009	19.994	103.905	20.048	3.221	0.326
74.001	123.411	80.009	19.994	103.901	20.048	3.264	0.304
76.000	124.088	80.009	19.995	103.902	20.049	3.176	0.325
78.001	124.775	80.009	19.994	103.906	20.045	3.451	0.347
80.000	125.472	80.008	19.994	103.915	20.045	3.449	0.342
82.000	126.192	80.009	19.995	103.929	20.043	3.601	0.367
84.000	126.894	80.009	19.994	103.930	20.042	3.711	0.377
86.000	127.649	80.010	19.994	103.933	20.041	3.766	0.381
88.000	128.390	80.010	19.995	103.929	20.040	3.869	0.401
90.000	129.163	80.010	19.994	103.934	20.041	3.806	0.382
92.001	129.932	80.009	19.992	103.938	20.039	3.928	0.386
94.001	130.698	80.009	19.994	103.939	20.042	3.681	0.394
96.001	131.509	80.009	19.993	103.944	20.041	3.744	0.395
98.000	132.299	80.009	19.993	103.951	20.040	3.827	0.408
100.000	133.121	80.010	19.993	103.944	20.040	3.843	0.414
102.000	133.987	80.010	19.993	103.946	20.037	4.103	0.399
104.000	134.857	80.010	19.994	103.953	20.037	4.075	0.432
106.000	135.701	80.010	19.993	103.951	20.039	3.896	0.422
108.001	136.633	80.011	19.992	103.965	20.040	3.851	0.455
110.000	137.531	80.012	19.993	103.952	20.034	4.284	0.463
112.001	138.456	80.011	19.993	103.964	20.040	3.845	0.468
114.000	139.325	80.009	19.993	103.957	20.036	4.121	0.430
116.000	140.270	80.008	19.993	103.957	20.038	3.977	0.488
118.000	141.226	80.008	19.992	103.955	20.041	3.761	0.463
120.001	142.204	80.008	19.995	103.946	20.037	4.042	0.490
122.001	143.164	80.009	19.993	103.963	20.039	3.918	0.491
124.000	144.096	80.008	19.994	103.948	20.036	4.131	0.487
126.000	145.107	80.010	19.993	103.943	20.036	4.115	0.485
128.000	146.120	80.007	19.993	103.946	20.038	4.021	0.502
130.000	147.071	80.009	19.993	103.943	20.037	4.082	0.470
132.000	148.072	80.010	19.993	103.950	20.037	4.033	0.507
134.000	149.042	80.011	19.994	103.944	20.040	3.830	0.490
136.000	150.097	80.009	19.993	103.945	20.037	4.060	0.512
138.000	151.093	80.008	19.994	103.944	20.036	4.108	0.505
140.000	152.097	80.009	19.994	103.940	20.036	4.112	0.503
142.000	153.112	80.008	19.994	103.940	20.036	4.135	0.503
144.000	154.099	80.008	19.995	103.941	20.036	4.117	0.497
146.000	155.132	80.008	19.994	103.940	20.034	4.283	0.503
148.000	156.150	80.007	19.993	103.938	20.040	3.848	0.521
150.000	157.163	80.008	19.995	103.938	20.040	3.873	0.525
152.000	158.193	80.007	19.994	103.939	20.038	3.994	0.527
154.000	159.175	80.008	19.994	103.938	20.040	3.812	0.507
156.000	160.202	80.009	19.995	103.941	20.042	3.694	0.516
158.000	161.233	80.009	19.994	103.940	20.036	4.151	0.524
160.000	162.267	80.008	19.994	103.933	20.038	4.003	0.523
162.000	163.296	80.009	19.993	103.939	20.038	3.957	0.502
164.001	164.359	80.008	19.993	103.926	20.040	3.862	0.509
166.000	165.354	80.010	19.993	103.925	20.040	3.824	0.504
168.000	166.429	80.009	19.994	103.939	20.041	3.789	0.530
170.000	167.443	80.009	19.994	103.936	20.040	3.815	0.477
172.000	168.423	80.009	19.993	103.923	20.041	3.740	0.494
174.000	169.479	80.008	19.994	103.907	20.038	3.967	0.543
176.000	170.538	80.009	19.995	103.919	20.042	3.693	0.562
178.000	171.534	80.009	19.994	103.921	20.041	3.778	0.481
180.000	172.534	80.009	19.995	103.916	20.043	3.590	0.512
182.000	173.574	80.009	19.993	103.922	20.040	3.837	0.487
184.000	174.608	80.010	19.993	103.913	20.039	3.918	0.522
186.000	175.633	80.011	19.994	103.913	20.046	3.431	0.521
188.000	176.628	80.011	19.993	103.905	20.039	3.947	0.507
190.000	177.608	80.013	19.992	103.904	20.040	3.831	0.491
192.000	178.631	80.012	19.991	103.901	20.041	3.762	0.498
194.000	179.698	80.011	19.993	103.900	20.039	3.947	0.493
196.000	180.636	80.011	19.994	103.899	20.040	3.865	0.480
198.000	181.661	80.009	19.995	103.899	20.043	3.646	0.511
200.000	182.677	80.009	19.994	103.899	20.041	3.788	0.512
202.000	183.645	80.008	19.994	103.900	20.043	3.592	0.483
204.000	184.645	80.008	19.995	103.902	20.042	3.670	0.508
206.000	185.637	80.009	19.994	103.900	20.043	3.642	0.497
208.000	186.678	80.009	19.994	103.900	20.043	3.604	0.494
210.000	187.657	80.009	19.994	103.901	20.041	3.792	0.512
212.000	188.642	80.009	19.993	103.902	20.041	3.766	0.495
214.000	189.633	80.010	19.994	103.900	20.041	3.735	0.481
216.000	190.661	80.009	19.994	103.895	20.045	3.484	0.507
218.000	191.645	80.010	19.994	103.902	20.043	3.654	0.508
220.000	192.614	80.009	19.993	103.899	20.044	3.565	0.482
222.000	193.615	80.010	19.993	103.900	20.045	3.441	0.477
224.000	194.583	80.009	19.994	103.891	20.048	3.277	0.519
226.000	195.542	80.008	19.993	103.900	20.049	3.165	0.494
228.000	196.559	80.008	19.993	103.901	20.049	3.179	0.505
230.000	197.542	80.008	19.993	103.887	20.049	3.167	0.488
232.000	198.493	80.009	19.992	103.893	20.046	3.372	0.477
234.000	199.486	80.009	19.994	103.896	20.049	3.183	0.493
236.000	200.468	80.009	19.994	103.882	20.045	3.460	0.495
238.000	201.445	80.008	19.996	103.891	20.044	3.552	0.490
240.000	202.389	80.008	19.993	103.891	20.046	3.394	0.480
242.000	203.344	80.010	19.993	103.899	20.047	3.355	0.426
244.000	204.375	80.011	19.993	103.895	20.045	3.445	0.505
246.000	205.309	80.009	19.992	103.894	20.046	3.376	0.463
248.000	206.258	80.009	19.994	103.893	20.046	3.416	0.492
250.000	207.170	80.011	19.994	103.887	20.046	3.431	0.409
252.000	208.170	80.010	19.994	103.885	20.047	3.335	0.474
254.000	209.152	80.010	19.994	103.883	20.045	3.446	0.468
256.000	210.131	80.011	19.993	103.882	20.048	3.237	0.519
258.000	211.112	80.010	19.994	103.881	20.047	3.307	0.511
260.000	212.073	80.010	19.995	103.880	20.049	3.163	0.458
262.000	212.980	80.010	19.995	103.880	20.045	3.463	0.454
264.000	213.977	80.010	19.995	103.873	20.044	3.518	0.522
266.000	214.934	80.011	19.993	103.869	20.045	3.467	0.481
268.000	215.934	80.009	19.995	103.882	20.047	3.288	0.490
270.000	216.898	80.011	19.994	103.887	20.048	3.260	0.508
272.000	217.908	80.011	19.993	103.880	20.044	3.557	0.519
274.000	218.841	80.013	19.994	103.881	20.045	3.451	0.481
276.000	219.794	80.011	19.994	103.875	20.045	3.488	0.484
278.000	220.744	80.009	19.994	103.875	20.044	3.516	0.472
280.000	221.724	80.010	19.993	103.874	20.047	3.291	0.477
282.000	222.735	80.009	19.995	103.889	20.047	3.333	0.510
284.000	223.743	80.010	19.993	103.891	20.050	3.070	0.514
286.000	224.719	80.009	19.993	103.888	20.048	3.224	0.461
288.000	225.718	80.008	19.994	103.891	20.047	3.311	0.501
290.000	226.691	80.009	19.992	103.891	20.047	3.323	0.490
292.000	227.695	80.009	19.994	103.887	20.049	3.171	0.543
294.000	228.731	80.009	19.993	103.879	20.049	3.191	0.513
296.000	229.715	80.009	19.993	103.882	20.052	2.966	0.503
298.000	230.729	80.009	19.993	103.883	20.050	3.104	0.472
300.000	231.715	80.010	19.993	103.885	20.046	3.384	0.507
302.000	232.681	80.010	19.994	103.884	20.048	3.271	0.483
304.000	233.702	80.009	19.994	103.884	20.044	3.512	0.520
306.000	234.708	80.008	19.994	103.883	20.047	3.348	0.508
308.000	235.754	80.009	19.992	103.892	20.046	3.402	0.500
310.000	236.754	80.009	19.994	103.885	20.045	3.486	0.526
312.000	237.754	80.008	19.993	103.890	20.047	3.317	0.506
314.000	238.721	80.008	19.993	103.889	20.047	3.285	0.480
316.000	239.699	80.009	19.993	103.900	20.048	3.236	0.494
318.000	240.735	80.009	19.993	103.885	20.051	3.023	0.534
320.000	241.691	80.009	19.996	103.898	20.051	3.006	0.502
322.000	242.704	80.009	19.994	103.880	20.048	3.213	0.509
324.000	243.693	80.009	19.994	103.872	20.046	3.372	0.505
326.000	244.719	80.010	19.994	103.898	20.048	3.238	0.509
328.000	245.728	80.010	19.994	103.881	20.046	3.410	0.517
330.000	246.701	80.009	19.993	103.878	20.047	3.321	0.524
332.000	247.707	80.009	19.993	103.870	20.045	3.496	0.483
334.000	248.732	80.009	19.995	103.887	20.046	3.369	0.511
336.000	249.764	80.009	19.994	103.885	20.046	3.392	0.535
338.000	250.770	80.010	19.994	103.873	20.046	3.402	0.515
340.001	251.811	80.010	19.994	103.888	20.045	3.467	0.526
342.000	252.794	80.010	19.994	103.875	20.046	3.422	0.478
344.000	253.783	80.010	19.995	103.879	20.045	3.469	0.469
346.000	254.781	80.010	19.993	103.872	20.044	3.513	0.523
348.000	255.831	80.011	19.993	103.872	20.048	3.280	0.510
350.000	256.775	80.011	19.994	103.880	20.043	3.602	0.456
352.000	257.853	80.010	19.993	103.865	20.046	3.383	0.557
354.000	258.844	80.009	19.995	103.867	20.044	3.513	0.532
356.000	259.846	80.009	19.994	103.870	20.046	3.428	0.513
358.000	260.828	80.010	19.994	103.863	20.042	3.667	0.475
360.001	261.827	80.008	19.994	103.865	20.043	3.592	0.507
362.000	262.795	80.007	19.994	103.868	20.042	3.669	0.501
364.000	263.846	80.006	19.995	103.865	20.042	3.714	0.500
366.000	264.803	80.007	19.994	103.863	20.042	3.686	0.503
368.000	265.842	80.008	19.994	103.864	20.044	3.531	0.500
370.000	266.781	80.007	19.994	103.865	20.043	3.641	0.471
372.000	267.804	80.006	19.994	103.868	20.040	3.866	0.499
374.000	268.764	80.007	19.993	103.868	20.043	3.602	0.493
376.000	269.747	80.007	19.994	103.869	20.040	3.878	0.485
378.000	270.766	80.008	19.993	103.866	20.040	3.844	0.483
380.000	271.797	80.008	19.993	103.867	20.041	3.757	0.507
382.000	272.766	80.008	19.993	103.868	20.041	3.755	0.497
384.000	273.776	80.008	19.994	103.864	20.041	3.744	0.493
386.000	274.723	80.008	19.994	103.864	20.040	3.842	0.469
388.000	275.760	80.009	19.993	103.863	20.044	3.521	0.517
390.000	276.724	80.009	19.994	103.866	20.046	3.379	0.480
392.000	277.685	80.008	19.994	103.865	20.046	3.418	0.472
394.000	278.716	80.008	19.995	103.864	20.044	3.570	0.505
396.000	279.655	80.007	19.996	103.863	20.048	3.282	0.502
398.000	280.669	80.009	19.994	103.869	20.044	3.578	0.467
400.000	281.682	80.008	19.995	103.864	20.045	3.452	0.535
402.000	282.678	80.009	19.994	103.863	20.043	3.608	0.519
404.000	283.652	80.009	19.994	103.864	20.044	3.513	0.489
406.000	284.647	80.010	19.994	103.864	20.042	3.665	0.481
408.000	285.629	80.009	19.993	103.863	20.045	3.497	0.484
410.000	286.690	80.011	19.993	103.863	20.042	3.682	0.478
412.000	287.688	80.010	19.994	103.867	20.042	3.714	0.536
414.000	288.618	80.010	19.993	103.864	20.041	3.781	0.451
416.000	289.609	80.009	19.993	103.864	20.043	3.655	0.469
418.000	290.619	80.009	19.993	103.865	20.038	3.972	0.496
420.000	291.654	80.009	19.993	103.865	20.040	3.834	0.516
422.000	292.642	80.009	19.994	103.864	20.038	4.012	0.487
424.000	293.597	80.008	19.995	103.864	20.039	3.898	0.465
426.000	294.630	80.009	19.994	103.867	20.041	3.736	0.491
428.000	295.617	80.009	19.994	103.866	20.039	3.884	0.493
430.000	296.627	80.010	19.993	103.865	20.039	3.929	0.502
432.000	297.621	80.012	19.994	103.862	20.039	3.931	0.496
434.000	298.677	80.010	19.992	103.864	20.035	4.201	0.565
436.000	299.651	80.010	19.993	103.864	20.034	4.270	0.504
438.000	300.668	80.009	19.993	103.862	20.038	3.974	0.542
440.000	301.694	80.009	19.994	103.869	20.039	3.917	0.506
442.001	302.658	80.008	19.994	103.864	20.038	3.967	0.497
444.000	303.704	80.007	19.993	103.865	20.033	4.398	0.511
446.000	304.681	80.007	19.993	103.864	20.036	4.115	0.476
448.000	305.653	80.007	19.994	103.867	20.035	4.233	0.468
450.000	306.684	80.008	19.994	103.863	20.033	4.338	0.532
452.000	307.740	80.007	19.994	103.860	20.030	4.606	0.512
454.000	308.716	80.007	19.994	103.863	20.030	4.562	0.483
456.000	309.752	80.008	19.996	103.862	20.033	4.355	0.503
458.000	310.769	80.008	19.994	103.859	20.035	4.239	0.511
460.000	311.778	80.008	19.994	103.859	20.031	4.527	0.503
462.000	312.838	80.007	19.995	103.857	20.030	4.612	0.534
464.000	313.866	80.008	19.994	103.860	20.031	4.480	0.511
466.000	314.876	80.007	19.994	103.860	20.032	4.440	0.526
468.000	315.851	80.008	19.994	103.860	20.034	4.272	0.492
470.000	316.856	80.007	19.995	103.861	20.030	4.574	0.489
472.000	317.878	80.009	19.993	103.863	20.031	4.501	0.496
474.000	318.834	80.008	19.993	103.858	20.030	4.582	0.507
476.000	319.853	80.007	19.994	103.861	20.031	4.535	0.493
478.000	320.903	80.008	19.993	103.863	20.029	4.679	0.479
480.000	321.946	80.008	19.994	103.862	20.029	4.663	0.527
482.000	322.948	80.008	19.993	103.858	20.026	4.921	0.541
484.000	323.956	80.009	19.994	103.864	20.029	4.663	0.530
486.000	324.973	80.009	19.994	103.863	20.026	4.854	0.517
488.000	325.973	80.010	19.994	103.861	20.026	4.882	0.511
490.000	327.005	80.010	19.994	103.862	20.026	4.874	0.541
492.000	327.949	80.010	19.994	103.853	20.025	4.939	0.490
494.000	328.987	80.009	19.994	103.864	20.027	4.840	0.476
496.000	330.018	80.009	19.995	103.861	20.028	4.714	0.502
498.000	331.007	80.009	19.994	103.861	20.023	5.083	0.510
500.001	332.033	80.009	19.993	103.861	20.022	5.158	0.518
502.000	333.055	80.009	19.994	103.862	20.023	5.077	0.525
504.000	334.077	80.009	19.994	103.862	20.023	5.142	0.512
506.000	335.118	80.009	19.993	103.865	20.020	5.345	0.524
508.000	336.144	80.009	19.993	103.866	20.022	5.190	0.494
510.000	337.132	80.011	19.993	103.865	20.020	5.326	0.514
512.000	338.148	80.011	19.992	103.864	20.018	5.503	0.510
514.000	339.113	80.011	19.994	103.864	20.015	5.675	0.466
516.000	340.180	80.012	19.993	103.861	20.015	5.724	0.490
518.000	341.252	80.011	19.994	103.861	20.013	5.886	0.540
520.000	342.235	80.011	19.993	103.861	20.013	5.821	0.515
522.000	343.210	80.011	19.995	103.862	20.009	6.154	0.486
524.000	344.218	80.009	19.994	103.861	20.007	6.341	0.495
526.000	345.211	80.009	19.992	103.861	20.006	6.397	0.498
528.000	346.256	80.008	19.993	103.860	20.003	6.604	0.510
530.000	347.249	80.008	19.994	103.861	20.004	6.564	0.484
532.000	348.317	80.009	19.993	103.861	20.003	6.578	0.532
534.000	349.336	80.009	19.995	103.862	19.999	6.868	0.505
536.000	350.362	80.010	19.994	103.863	19.996	7.117	0.506
538.000	351.391	80.008	19.994	103.863	19.993	7.355	0.483
540.000	352.442	80.009	19.995	103.863	19.993	7.338	0.567
542.000	353.502	80.009	19.993	103.863	19.990	7.610	0.534
544.000	354.526	80.009	19.993	103.863	19.989	7.651	0.514
546.000	355.529	80.009	19.993	103.863	19.987	7.769	0.505
548.000	356.538	80.009	19.994	103.861	19.984	8.042	0.499
550.000	357.570	80.007	19.995	103.862	19.982	8.169	0.525
552.000	358.597	80.008	19.995	103.861	19.981	8.266	0.532
554.000	359.649	80.008	19.994	103.864	19.976	8.647	0.532
556.000	360.652	80.007	19.995	103.863	19.970	9.075	0.508
558.000	361.713	80.008	19.994	103.864	19.967	9.312	0.566
560.000	362.738	80.006	19.995	103.864	19.966	9.377	0.485
562.000	363.765	80.007	19.994	103.870	19.958	9.944	0.530
564.000	364.726	80.007	19.994	103.865	19.955	10.198	0.499
566.000	365.750	80.008	19.994	103.865	19.954	10.301	0.492
568.000	366.756	80.008	19.994	103.865	19.950	10.598	0.506
570.000	367.783	80.009	19.992	103.866	19.947	10.825	0.507
572.000	368.747	80.008	19.993	103.866	19.941	11.267	0.494
574.000	369.789	80.009	19.993	103.881	19.932	11.874	0.532
576.000	370.773	80.009	19.994	103.872	19.927	12.309	0.471
578.000	371.761	80.009	19.994	103.881	19.923	12.575	0.486
580.000	372.814	80.010	19.994	103.877	19.918	12.947	0.511
582.000	373.829	80.011	19.993	103.877	19.913	13.334	0.545
584.000	374.823	80.009	19.993	103.875	19.905	13.921	0.484
586.000	375.801	80.010	19.994	103.890	19.897	14.547	0.487
588.000	376.840	80.010	19.994	103.893	19.892	14.926	0.502
590.000	377.858	80.010	19.994	103.893	19.882	15.617	0.520
592.000	378.837	80.010	19.994	103.896	19.875	16.183	0.516
594.000	379.855	80.011	19.992	103.892	19.868	16.707	0.492
596.000	380.906	80.010	19.993	103.890	19.863	17.066	0.529
598.000	381.971	80.012	19.992	103.882	19.856	17.551	0.560
600.000	382.937	80.011	19.993	103.890	19.852	17.920	0.480
602.000	384.002	80.012	19.993	103.894	19.845	18.412	0.498
604.000	384.996	80.011	19.994	103.898	19.840	18.810	0.509
606.000	386.040	80.010	19.993	103.900	19.832	19.367	0.495
608.000	387.074	80.008	19.993	103.896	19.827	19.729	0.517
610.000	388.071	80.009	19.993	103.899	19.817	20.524	0.493
612.000	389.128	80.008	19.993	103.899	19.810	21.034	0.505
614.000	390.167	80.008	19.994	103.913	19.800	21.754	0.528
616.000	391.158	80.008	19.993	103.925	19.788	22.653	0.517
618.000	392.195	80.008	19.994	103.932	19.773	23.779	0.526
620.000	393.210	80.006	19.992	103.919	19.762	24.618	0.526
622.000	394.184	80.007	19.994	103.933	19.754	25.234	0.493
624.000	395.251	80.006	19.994	103.935	19.747	25.712	0.500
626.000	396.242	80.007	19.994	103.941	19.732	26.837	0.480
628.000	397.268	80.008	19.994	103.944	19.715	28.155	0.521
630.000	398.295	80.008	19.995	103.969	19.700	29.310	0.533
632.000	399.292	80.008	19.993	103.977	19.680	30.757	0.488
634.000	400.307	80.008	19.996	103.975	19.662	32.102	0.507
636.000	401.308	80.007	19.993	103.976	19.641	33.654	0.528
638.000	402.297	80.008	19.994	103.983	19.615	35.636	0.490
640.000	403.326	80.007	19.993	104.003	19.581	38.225	0.499
642.000	404.287	80.007	19.995	104.029	19.550	40.519	0.478
644.000	405.317	80.007	19.995	104.011	19.529	42.105	0.499
646.000	406.308	80.007	19.995	103.989	19.504	43.867	0.481
648.000	407.319	80.007	19.994	104.003	19.473	46.226	0.518
650.000	408.342	80.008	19.995	104.040	19.402	51.614	0.480
652.000	409.360	80.008	19.995	104.143	19.334	56.741	0.495
654.000	410.425	80.009	19.994	104.101	19.303	59.062	0.509
656.000	411.442	80.009	19.994	103.999	19.284	60.495	0.515
658.000	412.420	80.009	19.995	103.943	19.270	61.530	0.517
660.000	413.413	80.010	19.994	103.982	19.255	62.655	0.451
662.000	414.422	80.010	19.994	104.169	19.235	64.180	0.481
664.000	415.461	80.008	19.993	104.210	19.205	66.384	0.516
666.000	416.466	80.008	19.994	104.181	19.171	68.956	0.540
668.000	417.500	80.010	19.994	104.175	19.129	72.146	0.540
670.000	418.488	80.008	19.994	104.180	19.079	75.962	0.484
672.000	419.527	80.010	19.993	104.201	19.030	79.604	0.503
674.000	420.573	80.008	19.993	104.192	18.984	83.091	0.516
676.000	421.584	80.009	19.993	104.209	18.919	87.943	0.483
678.000	422.596	80.010	19.993	104.245	18.856	92.635	0.494
680.000	423.600	80.011	19.993	104.304	18.775	98.747	0.490
682.000	424.628	80.010	19.993	104.342	18.682	105.829	0.495
684.000	425.687	80.008	19.993	104.355	18.600	112.087	0.504
686.000	426.647	80.009	19.994	104.323	18.537	116.812	0.494
688.000	427.672	80.009	19.993	104.309	18.477	121.301	0.491
690.000	428.712	80.007	19.993	104.308	18.422	125.388	0.529
692.000	429.679	80.008	19.993	104.409	18.356	130.278	0.461
694.000	430.749	80.007	19.994	104.501	18.276	136.426	0.522
696.000	431.732	80.008	19.993	104.541	18.199	142.319	0.512
698.000	432.755	80.008	19.993	104.515	18.143	146.533	0.512
700.000	433.806	80.008	19.993	104.471	18.101	149.666	0.493
702.000	434.837	80.008	19.993	104.438	18.069	152.098	0.498
704.000	435.943	80.009	19.992	104.491	18.033	154.818	0.536
706.000	436.927	80.007	19.994	104.578	18.001	157.248	0.500
708.000	438.013	80.007	19.993	104.608	17.967	159.806	0.495
710.000	439.010	80.008	19.993	104.613	17.927	162.776	0.515
712.000	440.026	80.009	19.994	104.607	17.889	165.635	0.519
714.000	441.099	80.008	19.994	104.608	17.861	167.784	0.512
716.000	442.080	80.008	19.994	104.620	17.830	170.081	0.473
718.000	443.088	80.007	19.993	104.616	17.805	171.969	0.518
720.000	444.092	80.009	19.994	104.621	17.789	173.160	0.493
722.000	445.143	80.007	19.994	104.626	17.786	173.341	0.500
724.000	446.148	80.007	19.994	104.631	17.788	173.214	0.519
726.000	447.186	80.008	19.995	104.622	17.802	172.109	0.536
728.000	448.233	80.008	19.992	104.616	17.826	170.238	0.550
730.000	449.199	80.008	19.994	104.616	17.853	168.148	0.481
732.000	450.195	80.009	19.993	104.605	17.893	165.139	0.495
734.000	451.209	80.009	19.994	104.600	17.944	161.284	0.501
736.000	452.263	80.008	19.993	104.581	18.004	156.692	0.504
738.000	453.309	80.009	19.994	104.548	18.071	151.630	0.572
740.000	454.294	80.009	19.994	104.521	18.149	145.719	0.516
742.000	455.362	80.009	19.995	104.484	18.231	139.481	0.506
744.000	456.356	80.009	19.993	104.469	18.316	133.116	0.536
746.000	457.419	80.009	19.994	104.435	18.409	126.093	0.486
748.000	458.316	80.007	19.996	104.402	18.518	117.926	0.499
750.000	459.442	80.008	19.994	104.372	18.629	109.543	0.543
752.000	460.424	80.008	19.994	104.334	18.742	101.066	0.410
754.000	461.477	80.007	19.995	104.295	18.855	92.598	0.451
756.000	462.531	80.009	19.993	104.261	18.966	84.242	0.428
758.000	463.229	80.010	19.993	104.247	19.071	76.341	0.508
760.000	464.389	80.010	19.993	104.217	19.161	69.625	0.002
762.000	465.270	80.010	19.994	104.192	19.246	63.198	0.323
764.000	466.408	80.009	19.994	104.157	19.324	57.368	0.019
766.000	467.521	80.011	19.993	104.130	19.393	52.204	0.396
768.000	468.515	80.009	19.993	104.098	19.458	47.384	0.402
770.000	469.501	80.009	19.992	104.069	19.512	43.311	0.429
772.000	470.607	80.010	19.993	104.049	19.565	39.365	0.550
774.000	471.569	80.008	19.993	104.024	19.607	36.188	0.505
776.000	472.544	80.009	19.993	104.017	19.645	33.331	0.544
778.000	473.558	80.008	19.993	104.003	19.684	30.470	0.475
780.000	474.567	80.008	19.995	103.984	19.716	28.035	0.498
782.000	475.524	80.008	19.993	103.973	19.743	26.035	0.493
784.000	476.524	80.008	19.994	103.974	19.771	23.943	0.471
786.000	477.488	80.009	19.994	103.964	19.793	22.314	0.491
788.000	478.439	80.009	19.993	103.940	19.813	20.817	0.412
790.000	479.488	80.009	19.994	103.937	19.836	19.108	0.505
792.000	480.447	80.009	19.993	103.930	19.850	18.060	0.517
794.000	481.454	80.008	19.993	103.932	19.867	16.801	0.533
796.000	482.410	80.009	19.992	103.904	19.877	16.000	0.478
798.000	483.409	80.009	19.992	103.902	19.891	14.979	0.497
800.000	484.391	80.010	19.993	103.902	19.899	14.375	0.450
802.000	485.413	80.008	19.994	103.899	19.913	13.347	0.502
804.000	486.424	80.008	19.993	103.894	19.916	13.076	0.504
806.000	487.430	80.009	19.995	103.878	19.929	12.148	0.491
808.000	488.422	80.009	19.994	103.879	19.936	11.580	0.521
810.000	489.389	80.009	19.995	103.869	19.942	11.156	0.487
812.000	490.434	80.007	19.993	103.867	19.948	10.691	0.512
814.000	491.411	80.009	19.996	103.871	19.954	10.235	0.463
816.001	492.452	80.009	19.995	103.865	19.957	10.072	0.495
818.000	493.442	80.008	19.992	103.865	19.961	9.756	0.487
820.000	494.542	80.010	19.995	103.863	19.966	9.329	0.528
822.000	495.541	80.010	19.995	103.862	19.967	9.299	0.500
824.000	496.610	80.010	19.995	103.860	19.974	8.771	0.492
826.000	497.644	80.010	19.994	103.863	19.977	8.539	0.532
828.000	498.625	80.008	19.994	103.856	19.977	8.528	0.499
830.000	499.674	80.009	19.993	103.859	19.979	8.383	0.516
832.001	500.711	80.009	19.994	103.850	19.980	8.291	0.527
834.000	501.749	80.008	19.993	103.857	19.982	8.186	0.512
836.000	502.768	80.007	19.993	103.843	19.982	8.204	0.516
838.000	503.856	80.009	19.995	103.842	19.980	8.291	0.541
840.000	504.858	80.008	19.994	103.840	19.983	8.064	0.514
842.000	505.882	80.009	19.994	103.825	19.983	8.117	0.527
844.000	506.888	80.010	19.994	103.829	19.986	7.861	0.493
846.000	507.972	80.010	19.995	103.832	19.987	7.800	0.552
848.000	508.995	80.011	19.993	103.822	19.986	7.834	0.496
850.000	510.023	80.011	19.994	103.820	19.988	7.717	0.516
852.000	511.040	80.011	19.993	103.827	19.989	7.632	0.510
854.000	512.067	80.009	19.995	103.827	19.989	7.671	0.489
856.000	513.058	80.008	19.993	103.821	19.987	7.762	0.493
858.000	514.132	80.009	19.992	103.821	19.989	7.634	0.529
860.000	515.190	80.009	19.993	103.823	19.988	7.717	0.518
862.000	516.251	80.008	19.994	103.826	19.990	7.602	0.588
864.000	517.255	80.009	19.994	103.828	19.990	7.586	0.493
866.000	518.313	80.009	19.993	103.825	19.988	7.707	0.532
868.000	519.370	80.008	19.994	103.823	19.991	7.520	0.534
870.000	520.371	80.008	19.993	103.822	19.988	7.756	0.515
872.000	521.418	80.008	19.994	103.822	19.989	7.668	0.523
874.000	522.488	80.009	19.994	103.832	19.993	7.330	0.510
876.000	523.504	80.008	19.994	103.823	19.990	7.541	0.540
878.000	524.519	80.008	19.992	103.823	19.986	7.841	0.535
880.000	525.532	80.010	19.993	103.824	19.987	7.765	0.493
882.000	526.567	80.008	19.994	103.822	19.986	7.885	0.509
884.000	527.650	80.010	19.993	103.824	19.987	7.814	0.519
886.000	528.637	80.009	19.994	103.825	19.989	7.625	0.498
888.000	529.713	80.009	19.994	103.824	19.988	7.733	0.552
890.000	530.716	80.010	19.993	103.825	19.986	7.837	0.504
892.000	531.728	80.008	19.995	103.821	19.987	7.798	0.499
894.000	532.721	80.009	19.993	103.825	19.986	7.883	0.485
896.000	533.726	80.009	19.994	103.825	19.982	8.175	0.519
898.000	534.772	80.009	19.994	103.817	19.981	8.265	0.513
900.000	535.802	80.009	19.993	103.821	19.983	8.078	0.539
902.000	536.765	80.010	19.993	103.827	19.986	7.895	0.503
904.000	537.777	80.010	19.994	103.825	19.986	7.869	0.492
906.000	538.782	80.011	19.993	103.825	19.988	7.688	0.523
908.000	539.753	80.013	19.993	103.826	19.990	7.587	0.501
910.000	540.732	80.010	19.994	103.824	19.980	8.319	0.495
912.000	541.736	80.009	19.994	103.821	19.980	8.341	0.465
914.000	542.736	80.009	19.995	103.821	19.981	8.262	0.491
916.000	543.738	80.008	19.993	103.821	19.983	8.110	0.511
918.000	544.732	80.009	19.995	103.821	19.980	8.351	0.515
920.000	545.732	80.010	19.993	103.822	19.978	8.455	0.504
922.000	546.746	80.010	19.994	103.822	19.979	8.412	0.499
924.000	547.770	80.010	19.994	103.818	19.979	8.400	0.522
926.000	548.791	80.010	19.994	103.822	19.976	8.617	0.483
928.000	549.785	80.011	19.994	103.822	19.981	8.274	0.516
930.000	550.810	80.012	19.993	103.821	19.981	8.238	0.513
932.000	551.810	80.011	19.993	103.820	19.983	8.106	0.502
934.000	552.851	80.010	19.997	103.822	19.983	8.108	0.523
936.000	553.842	80.011	19.994	103.827	19.978	8.483	0.549
938.000	554.849	80.009	19.994	103.818	19.976	8.629	0.541
940.000	555.916	80.008	19.994	103.818	19.980	8.337	0.523
942.000	556.910	80.008	19.994	103.820	19.977	8.544	0.530
944.000	557.910	80.007	19.994	103.820	19.975	8.674	0.496
946.000	558.934	80.009	19.993	103.823	19.977	8.522	0.494
948.000	559.940	80.008	19.995	103.824	19.976	8.619	0.484
950.000	560.957	80.008	19.993	103.821	19.976	8.605	0.506
952.000	561.921	80.008	19.994	103.820	19.976	8.627	0.482
954.000	562.951	80.009	19.992	103.825	19.977	8.544	0.484
956.000	563.957	80.009	19.994	103.822	19.978	8.441	0.523
958.000	564.942	80.008	19.992	103.824	19.976	8.645	0.515
960.000	565.959	80.009	19.993	103.824	19.974	8.797	0.507
962.000	566.904	80.009	19.993	103.817	19.976	8.651	0.474
964.000	567.917	80.007	19.994	103.817	19.971	9.020	0.493
966.000	568.932	80.007	19.994	103.826	19.972	8.931	0.512
968.000	569.956	80.008	19.992	103.822	19.969	9.142	0.518
970.000	570.911	80.007	19.993	103.824	19.970	9.036	0.483
972.000	571.926	80.009	19.993	103.823	19.973	8.831	0.487
974.000	572.939	80.008	19.993	103.818	19.973	8.856	0.511
976.000	573.924	80.008	19.992	103.820	19.969	9.131	0.512
978.000	574.930	80.008	19.993	103.823	19.973	8.828	0.545
980.000	575.969	80.008	19.994	103.816	19.971	9.005	0.535
982.000	576.908	80.009	19.993	103.813	19.969	9.171	0.485
984.000	577.953	80.011	19.994	103.815	19.967	9.270	0.510
986.000	578.943	80.010	19.995	103.816	19.965	9.404	0.501
988.000	579.913	80.011	19.994	103.815	19.966	9.365	0.490
990.000	580.956	80.010	19.993	103.810	19.964	9.490	0.474
992.000	581.955	80.011	19.993	103.813	19.963	9.624	0.516
994.000	582.932	80.010	19.994	103.822	19.965	9.466	0.493
996.000	583.974	80.011	19.993	103.822	19.964	9.508	0.520
998.000	584.983	80.010	19.994	103.822	19.962	9.651	0.542
1000.000	585.968	80.009	19.993	103.816	19.963	9.570	0.501
1002.000	586.957	80.009	19.994	103.815	19.961	9.750	0.482
1004.000	588.011	80.010	19.994	103.818	19.966	9.393	0.560
1006.000	589.046	80.009	19.994	103.822	19.963	9.614	0.503
1008.000	590.095	80.011	19.994	103.825	19.963	9.583	0.513
1010.000	591.133	80.011	19.993	103.821	19.963	9.580	0.518
1012.000	592.172	80.010	19.994	103.823	19.966	9.395	0.519
1014.000	593.190	80.012	19.993	103.818	19.962	9.671	0.512
1016.000	594.236	80.012	19.993	103.820	19.963	9.616	0.513
1018.000	595.313	80.012	19.993	103.806	19.960	9.833	0.545
1020.000	596.317	80.010	19.993	103.815	19.961	9.756	0.485
1022.000	597.357	80.010	19.994	103.818	19.960	9.820	0.497
1024.000	598.432	80.009	19.993	103.817	19.963	9.556	0.509
1026.001	599.471	80.009	19.994	103.821	19.960	9.797	0.533
1028.000	600.542	80.008	19.994	103.817	19.959	9.911	0.516
1030.000	601.564	80.008	19.994	103.818	19.959	9.923	0.502
1032.000	602.607	80.007	19.994	103.822	19.956	10.098	0.524
1034.000	603.648	80.007	19.995	103.811	19.956	10.103	0.517
1036.000	604.703	80.009	19.995	103.798	19.954	10.259	0.511
1038.000	605.723	80.008	19.994	103.806	19.957	10.060	0.519
1040.000	606.739	80.008	19.994	103.818	19.954	10.249	0.510
1042.001	607.800	80.008	19.994	103.820	19.957	10.051	0.519
1044.000	608.829	80.008	19.995	103.812	19.953	10.365	0.537
1046.000	609.862	80.009	19.994	103.820	19.955	10.221	0.490
1048.000	610.876	80.009	19.994	103.811	19.953	10.348	0.516
1050.000	611.946	80.008	19.994	103.815	19.950	10.536	0.522
1052.000	612.935	80.008	19.992	103.811	19.956	10.079	0.532
1054.000	613.978	80.009	19.994	103.817	19.953	10.338	0.501
1056.001	615.009	80.007	19.993	103.819	19.953	10.337	0.522
1058.000	616.078	80.008	19.994	103.821	19.952	10.435	0.512
1060.001	617.103	80.008	19.994	103.802	19.949	10.651	0.540
1062.001	618.119	80.008	19.993	103.817	19.952	10.386	0.527
1064.000	619.139	80.010	19.995	103.820	19.951	10.455	0.478
1066.000	620.203	80.010	19.994	103.816	19.953	10.310	0.571
1068.000	621.195	80.009	19.994	103.807	19.953	10.336	0.494
1070.001	622.218	80.009	19.993	103.806	19.953	10.311	0.485
1072.000	623.219	80.011	19.992	103.803	19.953	10.332	0.507
1074.000	624.222	80.011	19.993	103.811	19.951	10.456	0.509
1076.000	625.256	80.012	19.994	103.810	19.952	10.421	0.524
1078.001	626.252	80.011	19.994	103.802	19.951	10.452	0.494
1080.000	627.266	80.010	19.993	103.805	19.949	10.661	0.531
1082.000	628.268	80.009	19.993	103.818	19.949	10.595	0.493
1084.000	629.322	80.010	19.993	103.814	19.949	10.626	0.516
1086.001	630.341	80.010	19.992	103.814	19.949	10.637	0.523
1088.001	631.348	80.009	19.993	103.793	19.949	10.633	0.512
1090.000	632.368	80.011	19.993	103.816	19.950	10.543	0.540
1092.000	633.402	80.010	19.993	103.802	19.952	10.381	0.557
1094.000	634.407	80.011	19.994	103.812	19.951	10.500	0.494
1096.000	635.452	80.012	19.993	103.819	19.951	10.463	0.508
1098.000	636.489	80.011	19.993	103.823	19.950	10.549	0.502
1100.000	637.533	80.010	19.992	103.824	19.952	10.376	0.513
1102.001	638.515	80.010	19.994	103.824	19.949	10.620	0.501
1104.000	639.602	80.010	19.995	103.819	19.953	10.342	0.541
1106.000	640.661	80.009	19.993	103.818	19.953	10.331	0.534
1108.001	641.687	80.009	19.994	103.805	19.950	10.536	0.510
1110.000	642.722	80.008	19.995	103.798	19.951	10.467	0.538
1112.001	643.728	80.009	19.994	103.790	19.952	10.376	0.515
1114.000	644.759	80.009	19.995	103.806	19.950	10.549	0.503
1116.000	645.810	80.008	19.995	103.809	19.948	10.703	0.531
1118.000	646.809	80.009	19.994	103.809	19.950	10.560	0.498
1120.000	647.869	80.009	19.995	103.803	19.948	10.710	0.542
1122.001	648.870	80.008	19.994	103.810	19.949	10.666	0.487
1124.001	649.919	80.009	19.995	103.799	19.948	10.710	0.498
1126.001	650.951	80.009	19.994	103.796	19.949	10.627	0.507
1128.000	651.974	80.009	19.995	103.798	19.949	10.637	0.519
1130.000	652.981	80.010	19.993	103.807	19.948	10.701	0.498
1132.000	654.033	80.009	19.995	103.793	19.950	10.573	0.511
1134.000	655.067	80.008	19.996	103.797	19.952	10.423	0.518
1136.001	656.094	80.009	19.996	103.808	19.950	10.561	0.498
1138.000	657.150	80.007	19.995	103.809	19.948	10.712	0.533
1140.000	658.185	80.007	19.994	103.802	19.948	10.737	0.518
1142.000	659.180	80.008	19.995	103.805	19.951	10.452	0.509
1144.000	660.223	80.008	19.994	103.809	19.946	10.825	0.498
1146.000	661.284	80.008	19.993	103.818	19.947	10.792	0.517
1148.000	662.342	80.009	19.993	103.812	19.949	10.598	0.518
1150.001	663.348	80.009	19.993	103.817	19.950	10.539	0.510
1152.000	664.427	80.009	19.994	103.817	19.951	10.468	0.541
1154.001	665.415	80.010	19.993	103.815	19.951	10.504	0.492
1156.000	666.441	80.010	19.993	103.819	19.946	10.861	0.495
1158.000	667.479	80.010	19.993	103.821	19.948	10.715	0.515
1160.000	668.550	80.009	19.992	103.823	19.943	11.076	0.526
1162.001	669.578	80.009	19.994	103.812	19.950	10.555	0.539
1164.000	670.669	80.009	19.994	103.792	19.948	10.727	0.590
1166.000	671.625	80.009	19.992	103.801	19.949	10.626	0.467
1168.000	672.688	80.009	19.993	103.797	19.946	10.844	0.517
1170.001	673.746	80.009	19.994	103.795	19.946	10.831	0.546
1172.000	674.749	80.009	19.992	103.798	19.951	10.488	0.509
1174.000	675.771	80.010	19.994	103.802	19.949	10.636	0.499
1176.001	676.794	80.010	19.994	103.790	19.952	10.422	0.515
1178.000	677.776	80.011	19.992	103.796	19.952	10.431	0.461
1180.001	678.804	80.012	19.993	103.793	19.948	10.694	0.475
1182.000	679.822	80.011	19.993	103.811	19.951	10.512	0.513
1184.000	680.845	80.011	19.992	103.817	19.949	10.619	0.491
1186.000	681.880	80.011	19.993	103.807	19.948	10.670	0.498
1188.000	682.891	80.009	19.992	103.800	19.949	10.650	0.511
1190.000	683.906	80.010	19.993	103.814	19.945	10.929	0.472
1192.001	684.977	80.009	19.994	103.794	19.950	10.564	0.535
1194.001	685.987	80.009	19.993	103.792	19.949	10.619	0.539
1196.000	687.011	80.008	19.994	103.790	19.948	10.714	0.492
1198.000	688.020	80.009	19.994	103.801	19.949	10.651	0.522
1200.000	689.064	80.008	19.994	103.787	19.947	10.752	0.503
1202.001	690.075	80.007	19.994	103.788	19.946	10.857	0.511
1204.001	691.059	80.009	19.993	103.791	19.948	10.729	0.522
1206.000	692.186	80.008	19.994	103.784	19.948	10.686	0.529
1208.000	693.224	80.009	19.994	103.789	19.948	10.701	0.514
1210.000	694.253	80.011	19.994	103.786	19.946	10.875	0.498
1212.000	695.295	80.008	19.995	103.791	19.947	10.808	0.548
1214.000	696.317	80.011	19.994	103.796	19.944	10.972	0.515
1216.000	697.368	80.010	19.994	103.789	19.946	10.862	0.518
1218.000	698.398	80.007	19.994	103.810	19.946	10.848	0.530
1220.000	699.396	80.007	19.994	103.816	19.943	11.048	0.499
1222.000	700.452	80.009	19.994	103.802	19.947	10.812	0.540
1224.000	701.430	80.008	19.993	103.803	19.945	10.916	0.496
1226.000	702.474	80.007	19.995	103.815	19.947	10.773	0.514
1228.000	703.508	80.008	19.993	103.812	19.945	10.919	0.516
1230.000	704.526	80.007	19.995	103.812	19.949	10.600	0.524
1232.000	705.591	80.007	19.994	103.793	19.949	10.615	0.534
1234.001	706.614	80.009	19.994	103.799	19.939	11.384	0.539
1236.000	707.661	80.010	19.994	103.797	19.951	10.497	0.536
1238.000	708.666	80.009	19.994	103.795	19.938	11.439	0.533
1240.000	709.701	80.011	19.995	103.784	19.942	11.166	0.507
1242.000	710.726	80.011	19.993	103.784	19.941	11.246	0.519
1244.000	711.791	80.009	19.993	103.785	19.940	11.325	0.517
1246.001	712.792	80.010	19.992	103.784	19.939	11.348	0.520
1248.000	713.867	80.010	19.993	103.785	19.939	11.387	0.519
1250.000	714.868	80.012	19.994	103.783	19.937	11.508	0.531
1252.000	715.918	80.011	19.993	103.788	19.940	11.324	0.529
1254.000	717.005	80.010	19.994	103.800	19.942	11.180	0.534
1256.000	717.982	80.010	19.993	103.791	19.936	11.634	0.487
1258.000	719.016	80.010	19.992	103.784	19.935	11.673	0.522
1260.000	720.058	80.010	19.994	103.783	19.938	11.486	0.521
1262.000	721.076	80.013	19.993	103.782	19.937	11.549	0.515
1264.000	722.098	80.011	19.993	103.788	19.937	11.490	0.526
1266.000	723.096	80.012	19.993	103.785	19.941	11.223	0.529
1268.001	724.146	80.014	19.992	103.787	19.939	11.397	0.522
1270.000	725.125	80.010	19.993	103.782	19.939	11.357	0.503
1272.000	726.146	80.008	19.993	103.780	19.940	11.308	0.503
1274.000	727.144	80.008	19.994	103.783	19.939	11.340	0.529
1276.000	728.139	80.009	19.994	103.787	19.940	11.275	0.493
1278.000	729.161	80.009	19.994	103.787	19.941	11.217	0.532
1280.000	730.153	80.009	19.992	103.787	19.935	11.708	0.493
1282.000	731.178	80.009	19.994	103.788	19.935	11.654	0.514
1284.001	732.171	80.011	19.992	103.789	19.933	11.853	0.508
1286.001	733.174	80.010	19.993	103.784	19.930	12.062	0.508
1288.000	734.158	80.010	19.993	103.787	19.933	11.837	0.481
1290.000	735.170	80.007	19.992	103.790	19.931	11.976	0.504
1292.000	736.166	80.009	19.992	103.796	19.932	11.931	0.507
1294.000	737.149	80.009	19.994	103.804	19.932	11.932	0.511
1296.001	738.127	80.009	19.994	103.791	19.929	12.094	0.489
1298.000	739.137	80.009	19.994	103.789	19.932	11.897	0.537
1300.001	740.093	80.009	19.993	103.789	19.931	11.973	0.507
1302.000	741.124	80.007	19.994	103.798	19.930	12.062	0.508
1304.000	742.111	80.011	19.995	103.787	19.930	12.053	0.544
1306.000	743.087	80.009	19.996	103.787	19.931	11.984	0.487
1308.001	744.082	80.008	19.994	103.785	19.931	11.986	0.489
1310.000	745.080	80.008	19.993	103.784	19.927	12.274	0.510
1310.500	745.304	80.009	19.994	103.785	19.927	12.305	0.486