File: 01_Data/Microfiber_Sofa_Polyester_Microfiber/MCC/Microfiber_Sofa_Polyester_Microfiber_MCC_30K_min_220224_R1.txt
Sample ID:	C:\MCC\MCC Cal\Test\Polyester_Microfiber_81A_MCC_30K)min_220224_R1.txt
Sample Weight (mg):	4.34
Heating Rate (C/s):	0.5
Combustor Temp (C):	900
N2 Flow Rate (cc/min):	80
O2 Flow Rate (cc/min):	20
Calibration File:	C:\MCC\MCC Cal\Coeff1 JN10440_30_210304.txt.txt
T Correction Coefficients:	0	1.024463	0
Time Shift (s):	14
*
Time (s)	Temperature (C)	N2 flow rate (cc/min)	O2 flow rate (cc/min)	Flow Rate (cc/min)	Oxygen (%)	HRR (W/g)	Heating rate (C/s)
0.000	113.686	80.004	19.993	103.732	20.122	-0.059	-0.020
2.000	113.670	80.005	19.992	103.727	20.125	-0.283	0.023
4.000	113.684	80.003	19.993	103.730	20.123	-0.173	0.019
6.001	113.669	80.004	19.993	103.724	20.124	-0.251	-0.001
8.000	113.673	80.003	19.993	103.733	20.128	-0.495	-0.000
10.001	113.661	80.003	19.995	103.730	20.122	-0.053	0.002
12.000	113.640	80.003	19.994	103.742	20.123	-0.135	-0.014
14.001	113.636	80.002	19.993	103.736	20.123	-0.143	-0.007
16.000	113.630	80.003	19.993	103.747	20.122	-0.059	-0.013
18.000	113.636	80.003	19.992	103.758	20.120	0.049	-0.021
20.001	113.676	80.004	19.994	103.763	20.119	0.182	-0.003
22.000	113.691	80.004	19.994	103.785	20.122	-0.049	0.027
24.000	113.696	80.004	19.992	103.795	20.113	0.592	0.037
26.000	113.707	80.004	19.993	103.827	20.110	0.789	0.027
28.000	113.828	80.004	19.995	103.840	20.108	0.959	0.032
30.000	113.867	80.004	19.994	103.837	20.107	1.049	0.036
32.000	113.957	80.002	19.994	103.840	20.099	1.624	0.012
34.000	114.098	80.004	19.993	103.867	20.105	1.230	0.059
36.000	114.291	80.003	19.994	103.871	20.099	1.628	0.118
38.000	114.400	80.003	19.994	103.858	20.097	1.803	0.077
40.000	114.589	80.004	19.993	103.873	20.095	1.916	0.064
42.000	114.775	80.003	19.993	103.880	20.095	1.941	0.091
44.000	115.007	80.004	19.993	103.880	20.094	1.998	0.108
46.000	115.269	80.005	19.994	103.862	20.092	2.165	0.137
48.000	115.508	80.005	19.993	103.869	20.094	1.998	0.113
50.001	115.773	80.005	19.995	103.877	20.092	2.146	0.130
52.000	116.056	80.006	19.993	103.894	20.092	2.182	0.133
54.000	116.363	80.003	19.993	103.888	20.092	2.193	0.128
56.000	116.700	80.006	19.994	103.888	20.090	2.285	0.156
58.001	117.042	80.003	19.994	103.913	20.091	2.248	0.163
60.000	117.396	80.002	19.995	103.939	20.086	2.603	0.185
62.001	117.824	80.002	19.995	103.946	20.084	2.785	0.207
64.000	118.178	80.002	19.995	103.950	20.082	2.916	0.197
66.001	118.620	80.002	19.994	103.957	20.082	2.942	0.191
68.000	119.089	80.003	19.993	103.960	20.079	3.112	0.242
70.000	119.570	80.003	19.995	103.952	20.074	3.514	0.210
72.000	120.100	80.004	19.993	103.951	20.076	3.329	0.271
74.001	120.628	80.004	19.994	103.967	20.076	3.341	0.257
76.000	121.161	80.003	19.994	103.959	20.081	2.984	0.256
78.000	121.802	80.002	19.993	103.958	20.076	3.398	0.314
80.000	122.357	80.004	19.994	103.964	20.078	3.233	0.308
82.001	122.946	80.004	19.994	103.964	20.076	3.360	0.305
84.000	123.565	80.003	19.994	103.980	20.072	3.658	0.304
86.001	124.185	80.002	19.993	103.980	20.079	3.156	0.297
88.001	124.830	80.003	19.993	103.967	20.076	3.337	0.351
90.001	125.536	80.003	19.995	103.986	20.075	3.438	0.339
92.000	126.199	80.002	19.994	103.990	20.075	3.442	0.357
94.000	126.932	80.002	19.994	103.992	20.071	3.705	0.352
96.000	127.593	80.002	19.992	104.002	20.070	3.838	0.343
98.000	128.353	80.001	19.994	103.999	20.074	3.484	0.396
100.000	129.110	80.003	19.992	103.991	20.067	4.067	0.377
102.001	129.895	80.003	19.993	103.995	20.072	3.648	0.401
104.000	130.618	80.004	19.993	103.994	20.069	3.858	0.355
106.000	131.434	80.004	19.992	103.994	20.072	3.642	0.396
108.001	132.235	80.005	19.993	103.991	20.072	3.631	0.422
110.001	133.029	80.006	19.993	103.994	20.072	3.691	0.372
112.000	133.859	80.005	19.994	103.990	20.068	3.999	0.409
114.000	134.695	80.003	19.993	103.990	20.071	3.750	0.426
116.000	135.531	80.005	19.994	103.989	20.069	3.860	0.416
118.000	136.385	80.004	19.993	103.985	20.071	3.744	0.407
120.000	137.237	80.005	19.995	103.988	20.065	4.214	0.412
122.000	138.155	80.004	19.994	103.987	20.068	3.934	0.447
124.000	139.031	80.003	19.993	103.988	20.068	3.963	0.451
126.000	139.899	80.003	19.994	103.989	20.070	3.799	0.423
128.000	140.813	80.004	19.994	103.994	20.067	4.032	0.455
130.000	141.726	80.006	19.994	103.994	20.065	4.154	0.463
132.000	142.617	80.006	19.992	103.988	20.067	4.052	0.454
134.000	143.570	80.006	19.992	103.991	20.065	4.175	0.463
136.000	144.472	80.006	19.993	103.995	20.060	4.536	0.470
138.000	145.437	80.004	19.993	103.987	20.060	4.577	0.503
140.000	146.400	80.004	19.994	103.990	20.062	4.402	0.485
142.000	147.299	80.003	19.994	103.988	20.062	4.432	0.459
144.000	148.341	80.003	19.993	103.991	20.063	4.312	0.539
146.000	149.294	80.003	19.994	103.991	20.061	4.463	0.518
148.000	150.253	80.003	19.994	103.993	20.062	4.411	0.516
150.000	151.178	80.002	19.996	104.001	20.063	4.352	0.463
152.000	152.213	80.003	19.994	104.003	20.063	4.342	0.488
154.000	153.194	80.002	19.996	103.989	20.062	4.385	0.468
156.000	154.171	80.002	19.995	103.993	20.067	4.073	0.490
158.000	155.154	80.004	19.995	103.993	20.064	4.232	0.508
160.000	156.116	80.003	19.993	103.985	20.064	4.275	0.478
162.000	157.108	80.002	19.994	103.994	20.067	4.066	0.464
164.000	158.165	80.002	19.993	103.991	20.062	4.395	0.492
166.000	159.173	80.004	19.993	103.991	20.063	4.344	0.497
168.000	160.159	80.003	19.993	103.991	20.065	4.220	0.501
170.000	161.200	80.002	19.993	103.991	20.064	4.274	0.524
172.000	162.246	80.003	19.993	103.990	20.067	4.031	0.510
174.000	163.243	80.004	19.993	103.987	20.062	4.387	0.505
176.000	164.249	80.003	19.994	103.987	20.064	4.225	0.504
178.000	165.300	80.002	19.993	103.988	20.063	4.344	0.532
180.000	166.321	80.001	19.993	103.978	20.065	4.214	0.523
182.000	167.363	80.003	19.993	103.982	20.067	4.010	0.510
184.000	168.397	80.003	19.993	103.979	20.070	3.819	0.513
186.000	169.392	80.004	19.993	103.977	20.065	4.188	0.497
188.000	170.436	80.005	19.994	103.975	20.065	4.153	0.531
190.000	171.457	80.006	19.993	103.971	20.068	3.957	0.529
192.000	172.526	80.006	19.993	103.956	20.067	4.039	0.560
194.000	173.483	80.007	19.993	103.966	20.065	4.163	0.459
196.000	174.569	80.006	19.992	103.957	20.067	4.022	0.505
198.000	175.567	80.005	19.994	103.957	20.064	4.241	0.519
200.000	176.549	80.004	19.992	103.951	20.070	3.786	0.484
202.000	177.566	80.005	19.993	103.960	20.072	3.632	0.496
204.000	178.581	80.004	19.993	103.953	20.068	3.994	0.488
206.000	179.625	80.005	19.993	103.956	20.070	3.777	0.532
208.000	180.580	80.005	19.993	103.955	20.073	3.622	0.471
210.000	181.616	80.005	19.994	103.960	20.070	3.816	0.471
212.000	182.649	80.005	19.994	103.960	20.073	3.589	0.499
214.000	183.644	80.005	19.994	103.953	20.074	3.530	0.490
216.001	184.677	80.006	19.994	103.951	20.071	3.744	0.508
218.000	185.673	80.005	19.994	103.950	20.071	3.747	0.509
220.000	186.699	80.005	19.994	103.951	20.068	3.959	0.532
222.000	187.724	80.003	19.996	103.951	20.070	3.797	0.494
224.000	188.691	80.003	19.995	103.952	20.070	3.824	0.507
226.000	189.714	80.003	19.993	103.951	20.072	3.697	0.521
228.000	190.674	80.003	19.994	103.955	20.070	3.832	0.503
230.000	191.643	80.003	19.993	103.956	20.071	3.756	0.512
232.000	192.683	80.003	19.993	103.948	20.070	3.795	0.504
234.000	193.624	80.003	19.994	103.951	20.072	3.675	0.466
236.000	194.617	80.003	19.994	103.950	20.071	3.730	0.501
238.000	195.582	80.004	19.995	103.948	20.074	3.534	0.508
240.000	196.559	80.003	19.994	103.946	20.071	3.752	0.487
242.000	197.550	80.002	19.993	103.935	20.069	3.873	0.506
244.000	198.534	80.004	19.993	103.939	20.070	3.834	0.493
246.000	199.523	80.004	19.995	103.941	20.073	3.615	0.502
248.000	200.469	80.003	19.994	103.940	20.070	3.810	0.509
250.000	201.511	80.003	19.994	103.936	20.071	3.758	0.506
252.000	202.443	80.004	19.994	103.945	20.069	3.881	0.461
254.000	203.440	80.003	19.995	103.947	20.071	3.771	0.489
256.000	204.353	80.003	19.994	103.939	20.070	3.834	0.490
258.000	205.359	80.005	19.993	103.946	20.071	3.720	0.489
260.000	206.347	80.003	19.993	103.947	20.068	3.983	0.481
262.001	207.319	80.003	19.992	103.943	20.070	3.846	0.501
264.000	208.353	80.004	19.993	103.947	20.072	3.646	0.535
266.000	209.293	80.005	19.993	103.942	20.075	3.456	0.475
268.000	210.266	80.004	19.993	103.938	20.074	3.511	0.496
270.000	211.238	80.004	19.994	103.944	20.067	4.024	0.512
272.000	212.222	80.005	19.993	103.946	20.070	3.823	0.491
274.000	213.205	80.005	19.994	103.935	20.073	3.601	0.502
276.000	214.211	80.005	19.993	103.941	20.071	3.754	0.505
278.000	215.171	80.004	19.993	103.936	20.067	4.035	0.485
280.000	216.148	80.005	19.993	103.944	20.071	3.744	0.504
282.000	217.130	80.005	19.993	103.936	20.073	3.615	0.518
284.000	218.107	80.004	19.993	103.927	20.070	3.778	0.468
286.000	219.086	80.004	19.993	103.930	20.071	3.721	0.483
288.000	220.076	80.004	19.992	103.927	20.071	3.715	0.473
290.001	221.026	80.004	19.992	103.930	20.071	3.705	0.479
292.000	221.994	80.005	19.992	103.934	20.068	3.951	0.504
294.000	223.013	80.005	19.992	103.937	20.068	3.948	0.491
296.000	223.987	80.006	19.993	103.924	20.070	3.823	0.478
298.000	224.978	80.005	19.992	103.928	20.069	3.861	0.507
300.000	225.944	80.006	19.992	103.929	20.067	4.009	0.478
302.000	226.935	80.005	19.993	103.919	20.068	3.984	0.488
304.000	227.951	80.004	19.993	103.919	20.067	4.008	0.506
306.000	228.953	80.003	19.994	103.924	20.068	3.968	0.485
308.000	229.941	80.003	19.993	103.914	20.067	4.002	0.462
310.000	230.931	80.003	19.993	103.917	20.072	3.698	0.503
312.000	231.934	80.002	19.993	103.919	20.070	3.841	0.504
314.000	232.919	80.004	19.993	103.910	20.067	4.062	0.476
316.000	233.936	80.003	19.993	103.911	20.066	4.112	0.525
318.000	234.915	80.003	19.993	103.918	20.066	4.123	0.476
320.000	235.926	80.003	19.993	103.909	20.072	3.688	0.507
322.000	236.961	80.004	19.994	103.919	20.071	3.753	0.511
324.000	237.968	80.004	19.993	103.918	20.072	3.637	0.529
326.000	238.950	80.004	19.993	103.914	20.068	3.953	0.506
328.000	239.936	80.003	19.993	103.914	20.069	3.919	0.509
330.000	240.917	80.004	19.995	103.912	20.071	3.731	0.501
332.000	241.917	80.002	19.994	103.914	20.068	3.955	0.505
334.000	242.931	80.003	19.994	103.916	20.069	3.888	0.497
336.000	243.944	80.003	19.994	103.913	20.070	3.819	0.532
338.000	244.934	80.000	19.994	103.918	20.068	3.955	0.510
340.000	245.949	80.001	19.993	103.914	20.075	3.406	0.525
342.000	246.941	80.001	19.993	103.912	20.069	3.870	0.505
344.000	247.953	80.002	19.995	103.914	20.073	3.621	0.503
346.000	248.937	80.002	19.994	103.913	20.072	3.643	0.513
348.000	249.932	80.003	19.994	103.913	20.072	3.668	0.482
350.000	250.962	80.005	19.994	103.915	20.070	3.839	0.500
352.000	251.991	80.004	19.993	103.916	20.074	3.506	0.502
354.000	252.985	80.005	19.993	103.913	20.073	3.588	0.503
356.000	253.991	80.005	19.993	103.917	20.072	3.645	0.491
358.000	255.003	80.005	19.992	103.915	20.069	3.857	0.502
360.000	256.019	80.003	19.993	103.915	20.069	3.900	0.512
362.000	256.966	80.005	19.995	103.915	20.070	3.776	0.504
364.000	257.953	80.004	19.993	103.909	20.072	3.673	0.466
366.000	259.015	80.004	19.993	103.911	20.073	3.592	0.562
368.000	260.026	80.004	19.994	103.910	20.072	3.663	0.486
370.000	261.013	80.004	19.994	103.908	20.071	3.714	0.511
372.000	262.018	80.003	19.992	103.910	20.069	3.863	0.489
374.000	263.010	80.004	19.993	103.905	20.075	3.461	0.482
376.000	264.013	80.004	19.993	103.900	20.069	3.890	0.486
378.000	265.008	80.006	19.993	103.908	20.069	3.869	0.462
380.000	265.977	80.006	19.994	103.909	20.071	3.708	0.477
382.001	267.009	80.006	19.992	103.909	20.071	3.735	0.474
384.000	268.031	80.005	19.992	103.908	20.071	3.751	0.521
386.000	269.015	80.005	19.992	103.909	20.066	4.088	0.480
388.000	270.042	80.003	19.993	103.909	20.067	4.018	0.496
390.000	271.077	80.003	19.992	103.910	20.071	3.731	0.549
392.000	272.085	80.003	19.991	103.910	20.069	3.914	0.513
394.000	273.118	80.003	19.993	103.909	20.075	3.449	0.495
396.000	274.119	80.004	19.993	103.906	20.071	3.723	0.496
398.000	275.124	80.004	19.993	103.909	20.068	3.943	0.505
400.000	276.090	80.003	19.992	103.906	20.074	3.545	0.493
402.000	277.106	80.004	19.992	103.906	20.067	4.045	0.502
404.000	278.107	80.003	19.992	103.906	20.068	3.949	0.509
406.000	279.132	80.002	19.994	103.908	20.072	3.657	0.513
408.000	280.137	80.004	19.995	103.910	20.070	3.796	0.505
410.000	281.132	80.002	19.993	103.909	20.065	4.155	0.489
412.000	282.135	80.003	19.994	103.905	20.070	3.835	0.475
414.000	283.146	80.002	19.994	103.911	20.064	4.235	0.524
416.000	284.162	80.000	19.993	103.900	20.069	3.863	0.502
418.000	285.148	80.002	19.993	103.907	20.070	3.818	0.508
420.000	286.194	80.002	19.993	103.909	20.067	4.000	0.526
422.000	287.176	80.003	19.993	103.913	20.070	3.810	0.522
424.000	288.160	80.001	19.993	103.911	20.068	3.963	0.485
426.000	289.145	80.002	19.994	103.909	20.067	4.010	0.493
428.000	290.174	80.002	19.994	103.904	20.066	4.110	0.494
430.000	291.181	80.002	19.994	103.896	20.068	3.981	0.489
432.000	292.199	80.004	19.994	103.904	20.065	4.167	0.488
434.000	293.193	80.003	19.994	103.907	20.070	3.775	0.501
436.000	294.240	80.004	19.993	103.908	20.066	4.105	0.515
438.000	295.208	80.002	19.994	103.909	20.067	4.061	0.500
440.000	296.228	80.004	19.994	103.898	20.063	4.359	0.496
442.000	297.212	80.003	19.994	103.896	20.065	4.183	0.505
444.000	298.212	80.003	19.993	103.898	20.068	3.991	0.512
446.000	299.215	80.004	19.993	103.888	20.066	4.087	0.480
448.000	300.217	80.006	19.993	103.901	20.063	4.308	0.514
450.000	301.230	80.004	19.994	103.896	20.062	4.370	0.500
452.000	302.243	80.005	19.993	103.895	20.065	4.173	0.513
454.000	303.224	80.003	19.992	103.888	20.066	4.118	0.520
456.000	304.195	80.005	19.993	103.887	20.056	4.836	0.474
458.000	305.217	80.006	19.994	103.903	20.064	4.269	0.516
460.000	306.224	80.007	19.993	103.883	20.063	4.367	0.517
462.000	307.216	80.006	19.993	103.887	20.062	4.408	0.496
464.000	308.185	80.005	19.993	103.889	20.061	4.469	0.442
466.000	309.195	80.004	19.992	103.898	20.064	4.291	0.493
468.000	310.183	80.003	19.993	103.894	20.058	4.679	0.468
470.000	311.255	80.003	19.993	103.903	20.065	4.199	0.514
472.000	312.231	80.004	19.993	103.894	20.058	4.677	0.502
474.000	313.288	80.001	19.993	103.892	20.058	4.697	0.526
476.000	314.311	80.003	19.993	103.891	20.061	4.456	0.503
478.000	315.286	80.002	19.993	103.906	20.057	4.803	0.505
480.000	316.294	80.004	19.993	103.895	20.060	4.581	0.494
482.000	317.311	80.004	19.993	103.890	20.054	5.022	0.513
484.000	318.338	80.005	19.994	103.885	20.059	4.666	0.501
486.000	319.343	80.002	19.992	103.881	20.057	4.818	0.489
488.000	320.346	80.003	19.994	103.892	20.052	5.129	0.483
490.000	321.387	80.002	19.992	103.891	20.051	5.223	0.538
492.000	322.361	80.002	19.993	103.893	20.047	5.511	0.501
494.000	323.403	80.004	19.993	103.876	20.051	5.244	0.498
496.000	324.378	80.003	19.993	103.884	20.050	5.305	0.477
498.000	325.395	80.003	19.994	103.892	20.052	5.190	0.493
500.000	326.409	80.002	19.994	103.878	20.049	5.346	0.522
502.000	327.423	80.002	19.993	103.878	20.047	5.501	0.486
504.000	328.449	80.002	19.994	103.887	20.045	5.643	0.525
506.000	329.453	80.002	19.994	103.878	20.046	5.591	0.505
508.001	330.430	80.001	19.993	103.878	20.051	5.254	0.500
510.000	331.406	80.002	19.995	103.884	20.046	5.572	0.490
512.000	332.432	80.002	19.994	103.892	20.049	5.384	0.508
514.000	333.472	80.003	19.993	103.874	20.045	5.678	0.511
516.000	334.483	80.002	19.994	103.890	20.043	5.849	0.490
518.000	335.523	80.004	19.993	103.883	20.045	5.680	0.509
520.000	336.518	80.003	19.993	103.877	20.043	5.810	0.528
522.000	337.528	80.004	19.995	103.879	20.044	5.784	0.486
524.000	338.547	80.005	19.994	103.884	20.044	5.729	0.516
526.000	339.557	80.003	19.994	103.878	20.040	6.044	0.509
528.000	340.540	80.002	19.993	103.880	20.037	6.253	0.490
530.000	341.609	80.003	19.994	103.879	20.038	6.225	0.531
532.000	342.592	80.003	19.994	103.873	20.044	5.776	0.498
534.001	343.598	80.002	19.994	103.879	20.035	6.402	0.510
536.000	344.590	80.003	19.993	103.877	20.037	6.242	0.510
538.000	345.569	80.004	19.993	103.882	20.037	6.292	0.485
540.000	346.624	80.006	19.995	103.873	20.035	6.445	0.525
542.000	347.607	80.006	19.993	103.877	20.030	6.790	0.503
544.000	348.618	80.006	19.992	103.877	20.031	6.694	0.536
546.000	349.645	80.005	19.993	103.883	20.032	6.637	0.549
548.000	350.638	80.005	19.992	103.889	20.030	6.821	0.512
550.000	351.656	80.003	19.992	103.879	20.027	7.021	0.495
552.000	352.695	80.004	19.992	103.882	20.027	7.049	0.525
554.000	353.683	80.003	19.992	103.882	20.027	7.054	0.494
556.000	354.733	80.002	19.993	103.879	20.021	7.482	0.501
558.000	355.690	80.003	19.993	103.886	20.019	7.612	0.478
560.000	356.715	80.002	19.995	103.878	20.015	7.884	0.501
562.000	357.732	80.004	19.993	103.877	20.015	7.929	0.512
564.000	358.758	80.003	19.994	103.880	20.011	8.205	0.518
566.000	359.726	80.004	19.994	103.883	20.012	8.141	0.478
568.000	360.777	80.004	19.992	103.888	20.007	8.492	0.538
570.000	361.759	80.004	19.994	103.878	20.004	8.748	0.489
572.000	362.767	80.003	19.994	103.889	20.003	8.830	0.489
574.000	363.801	80.004	19.992	103.891	19.993	9.570	0.499
576.000	364.765	80.006	19.994	103.889	19.988	9.910	0.511
578.000	365.784	80.004	19.993	103.880	19.992	9.671	0.523
580.000	366.775	80.003	19.993	103.895	19.990	9.796	0.469
582.000	367.754	80.004	19.994	103.894	19.982	10.414	0.484
584.000	368.783	80.002	19.993	103.893	19.976	10.835	0.514
586.000	369.785	80.003	19.992	103.893	19.974	10.984	0.506
588.000	370.758	80.003	19.994	103.906	19.965	11.662	0.477
590.000	371.780	80.002	19.993	103.906	19.964	11.729	0.487
592.000	372.815	80.004	19.995	103.905	19.955	12.405	0.528
594.000	373.827	80.004	19.994	103.909	19.952	12.599	0.489
596.000	374.874	80.004	19.993	103.910	19.948	12.900	0.524
598.000	375.857	80.004	19.993	103.912	19.942	13.365	0.489
600.000	376.895	80.005	19.994	103.911	19.931	14.192	0.466
602.000	377.868	80.005	19.993	103.911	19.927	14.515	0.501
604.000	378.909	80.004	19.993	103.917	19.918	15.143	0.514
606.000	379.957	80.005	19.993	103.921	19.909	15.833	0.523
608.000	380.989	80.004	19.993	103.924	19.907	15.998	0.531
610.000	382.039	80.003	19.992	103.922	19.898	16.687	0.533
612.000	383.074	80.003	19.994	103.924	19.901	16.470	0.523
614.000	384.103	80.004	19.993	103.931	19.897	16.770	0.524
616.000	385.151	80.005	19.993	103.940	19.894	16.991	0.523
618.000	386.168	80.005	19.994	103.940	19.891	17.187	0.511
620.000	387.253	80.004	19.994	103.951	19.883	17.773	0.542
622.000	388.314	80.005	19.994	103.950	19.875	18.397	0.528
624.000	389.384	80.006	19.994	103.948	19.867	18.999	0.556
626.000	390.405	80.006	19.994	103.943	19.857	19.769	0.511
628.000	391.446	80.007	19.994	103.939	19.852	20.136	0.521
630.000	392.529	80.004	19.996	103.941	19.844	20.691	0.523
632.000	393.573	80.004	19.994	103.948	19.833	21.506	0.523
634.000	394.652	80.003	19.994	103.951	19.819	22.588	0.561
636.000	395.701	80.004	19.993	103.964	19.808	23.372	0.519
638.000	396.749	80.003	19.993	103.970	19.790	24.743	0.531
640.000	397.759	80.003	19.994	103.977	19.773	25.985	0.488
642.000	398.761	80.005	19.993	103.968	19.758	27.141	0.495
644.000	399.844	80.003	19.993	103.984	19.743	28.265	0.541
646.000	400.834	80.004	19.992	103.986	19.718	30.171	0.489
648.000	401.902	80.003	19.992	104.003	19.690	32.209	0.510
650.000	402.933	80.005	19.992	104.012	19.667	34.000	0.508
652.000	403.924	80.003	19.994	104.003	19.645	35.632	0.491
654.000	404.949	80.003	19.994	103.992	19.627	36.930	0.492
656.000	405.968	80.005	19.993	103.995	19.612	38.102	0.489
658.000	407.018	80.004	19.993	104.037	19.582	40.289	0.513
660.000	408.002	80.002	19.993	104.067	19.564	41.707	0.488
662.000	409.061	80.004	19.992	104.071	19.527	44.457	0.536
664.001	410.086	80.003	19.993	104.078	19.494	46.932	0.529
666.000	411.111	80.003	19.993	104.073	19.468	48.892	0.524
668.000	412.076	80.003	19.993	104.070	19.441	50.930	0.477
670.000	413.080	80.003	19.994	104.070	19.415	52.887	0.520
672.000	414.075	80.003	19.992	104.094	19.384	55.202	0.473
674.000	415.057	80.003	19.992	104.139	19.356	57.277	0.499
676.000	416.062	80.005	19.993	104.147	19.317	60.229	0.516
678.000	417.047	80.003	19.992	104.163	19.277	63.264	0.512
680.000	418.087	80.004	19.993	104.186	19.235	66.448	0.523
682.001	419.073	80.005	19.992	104.187	19.196	69.334	0.494
684.000	420.008	80.005	19.993	104.186	19.155	72.423	0.484
686.000	421.032	80.004	19.994	104.218	19.091	77.291	0.506
688.000	422.054	80.004	19.993	104.252	19.031	81.764	0.507
690.000	423.053	80.003	19.994	104.268	18.980	85.715	0.515
692.000	424.012	80.004	19.995	104.263	18.928	89.832	0.499
694.000	425.005	80.005	19.994	104.269	18.874	93.734	0.475
696.000	425.997	80.005	19.993	104.332	18.830	96.824	0.488
698.000	426.974	80.004	19.993	104.377	18.776	100.764	0.437
700.000	427.961	80.004	19.992	104.400	18.601	114.119	0.511
702.000	428.995	80.004	19.994	104.632	18.382	130.877	0.504
704.000	430.046	80.007	19.993	104.671	18.250	140.815	0.512
706.000	431.052	80.005	19.993	104.442	18.190	145.170	0.502
708.000	432.034	80.005	19.993	104.208	18.161	147.385	0.493
710.000	433.056	80.006	19.994	104.265	18.130	149.764	0.483
712.000	434.106	80.006	19.993	104.602	18.092	152.658	0.509
714.001	435.169	80.005	19.993	104.714	18.065	154.685	0.533
716.000	436.185	80.003	19.995	104.636	18.038	156.699	0.516
718.000	437.197	80.003	19.995	104.579	18.015	158.442	0.506
720.000	438.204	80.002	19.993	104.584	17.985	160.705	0.514
722.000	439.249	80.003	19.995	104.638	17.948	163.492	0.513
724.000	440.274	80.003	19.994	104.653	17.916	165.919	0.523
726.000	441.255	80.003	19.994	104.653	17.888	168.066	0.490
728.000	442.301	80.004	19.992	104.654	17.856	170.465	0.484
730.000	443.330	80.004	19.992	104.655	17.830	172.340	0.507
732.000	444.381	80.002	19.991	104.672	17.811	173.790	0.532
734.000	445.397	80.004	19.993	104.667	17.794	175.080	0.527
736.000	446.426	80.003	19.992	104.683	17.783	175.896	0.514
738.000	447.415	80.003	19.992	104.686	17.777	176.319	0.494
740.000	448.453	80.003	19.993	104.666	17.787	175.475	0.501
742.000	449.515	80.004	19.992	104.666	17.805	174.088	0.527
744.000	450.515	80.004	19.993	104.655	17.833	171.971	0.521
746.000	451.554	80.002	19.993	104.646	17.873	168.889	0.541
748.000	452.551	80.002	19.994	104.637	17.925	164.897	0.468
750.000	453.549	80.003	19.994	104.611	17.984	160.422	0.503
752.000	454.594	80.003	19.994	104.580	18.050	155.423	0.508
754.000	455.618	80.003	19.993	104.538	18.127	149.551	0.503
756.000	456.598	80.003	19.993	104.514	18.208	143.429	0.491
758.000	457.592	80.005	19.994	104.474	18.301	136.527	0.469
760.000	458.640	80.003	19.994	104.452	18.394	129.577	0.494
762.000	459.656	80.005	19.993	104.403	18.496	121.763	0.494
764.000	460.667	80.005	19.993	104.372	18.613	112.958	0.514
766.000	461.643	80.005	19.992	104.320	18.734	103.850	0.507
768.000	462.623	80.005	19.992	104.302	18.857	94.585	0.471
770.001	463.678	80.005	19.992	104.384	18.974	85.843	0.504
772.000	464.668	80.006	19.992	104.329	19.078	78.063	0.513
774.000	465.640	80.004	19.992	104.220	19.176	70.707	0.506
776.000	466.651	80.006	19.993	104.175	19.264	64.110	0.527
778.000	467.638	80.005	19.993	104.143	19.346	57.941	0.525
780.000	468.598	80.004	19.994	104.110	19.421	52.307	0.499
782.000	469.573	80.006	19.992	104.075	19.484	47.637	0.488
784.000	470.603	80.005	19.993	104.061	19.542	43.301	0.494
786.000	471.579	80.006	19.992	104.033	19.594	39.382	0.495
788.000	472.566	80.006	19.993	104.017	19.637	36.109	0.482
790.000	473.611	80.007	19.994	103.993	19.680	32.945	0.501
792.000	474.623	80.006	19.993	103.990	19.721	29.913	0.513
794.000	475.635	80.007	19.994	103.986	19.748	27.870	0.538
796.000	476.595	80.006	19.993	103.981	19.780	25.500	0.526
798.000	477.588	80.003	19.994	103.902	19.800	23.953	0.488
800.000	478.592	80.003	19.995	103.901	19.827	21.999	0.499
802.000	479.547	80.003	19.994	103.933	19.851	20.202	0.471
804.000	480.565	80.003	19.992	103.938	19.862	19.366	0.523
806.000	481.559	80.003	19.994	103.943	19.882	17.850	0.488
808.000	482.495	80.003	19.994	103.921	19.903	16.272	0.463
810.000	483.504	80.004	19.995	103.916	19.918	15.144	0.510
812.000	484.471	80.003	19.993	103.912	19.928	14.397	0.472
814.000	485.441	80.002	19.995	103.903	19.939	13.577	0.465
816.000	486.465	80.003	19.995	103.904	19.952	12.641	0.495
818.000	487.462	80.004	19.993	103.892	19.959	12.090	0.497
820.000	488.455	80.005	19.993	103.879	19.965	11.631	0.494
822.000	489.510	80.005	19.992	103.874	19.969	11.318	0.493
824.000	490.535	80.005	19.994	103.870	19.977	10.722	0.514
826.000	491.552	80.004	19.993	103.871	19.986	10.103	0.498
828.000	492.550	80.002	19.992	103.872	19.991	9.718	0.539
830.000	493.582	80.004	19.993	103.871	19.997	9.250	0.519
832.000	494.663	80.002	19.993	103.870	20.002	8.855	0.525
834.000	495.655	80.004	19.993	103.868	20.005	8.633	0.491
836.000	496.661	80.004	19.993	103.863	20.010	8.323	0.508
838.000	497.734	80.004	19.994	103.843	20.016	7.811	0.526
840.000	498.778	80.004	19.991	103.833	20.016	7.845	0.483
842.000	499.830	80.005	19.993	103.833	20.019	7.633	0.538
844.000	500.901	80.006	19.993	103.833	20.025	7.189	0.508
846.000	501.947	80.004	19.991	103.837	20.026	7.069	0.526
848.000	503.013	80.006	19.993	103.836	20.031	6.716	0.542
850.000	504.060	80.004	19.993	103.832	20.033	6.563	0.523
852.000	505.125	80.005	19.992	103.832	20.030	6.787	0.555
854.000	506.165	80.004	19.993	103.833	20.028	6.958	0.520
856.000	507.212	80.004	19.993	103.834	20.031	6.740	0.505
858.000	508.279	80.003	19.992	103.835	20.031	6.700	0.537
860.000	509.329	80.005	19.991	103.837	20.033	6.600	0.542
862.000	510.415	80.005	19.993	103.837	20.036	6.357	0.549
864.000	511.456	80.005	19.992	103.835	20.034	6.481	0.542
866.000	512.510	80.006	19.993	103.835	20.035	6.449	0.499
868.000	513.526	80.005	19.992	103.837	20.037	6.257	0.503
870.000	514.645	80.005	19.994	103.845	20.036	6.367	0.530
872.000	515.698	80.007	19.993	103.841	20.039	6.122	0.515
874.000	516.791	80.005	19.993	103.837	20.039	6.103	0.561
876.000	517.862	80.005	19.994	103.835	20.040	6.035	0.546
878.000	518.904	80.003	19.994	103.832	20.036	6.348	0.535
880.000	519.954	80.004	19.993	103.832	20.040	6.081	0.534
882.000	521.045	80.002	19.992	103.829	20.038	6.193	0.551
884.000	522.107	80.002	19.993	103.826	20.035	6.418	0.555
886.000	523.104	80.003	19.994	103.810	20.039	6.122	0.526
888.000	524.168	80.004	19.992	103.791	20.038	6.218	0.505
890.000	525.235	80.003	19.993	103.792	20.035	6.423	0.518
892.000	526.260	80.004	19.994	103.797	20.038	6.158	0.516
894.000	527.325	80.003	19.993	103.799	20.039	6.089	0.544
896.000	528.329	80.001	19.993	103.801	20.037	6.246	0.504
898.001	529.423	80.001	19.994	103.792	20.040	6.025	0.567
900.000	530.403	80.002	19.993	103.790	20.040	6.055	0.517
902.000	531.462	80.002	19.993	103.778	20.034	6.491	0.522
904.000	532.491	80.003	19.995	103.774	20.036	6.365	0.510
906.000	533.552	80.001	19.994	103.753	20.034	6.516	0.537
908.000	534.586	80.003	19.994	103.756	20.035	6.438	0.547
910.000	535.652	80.003	19.993	103.787	20.037	6.260	0.553
912.000	536.676	80.003	19.994	103.793	20.032	6.609	0.549
914.000	537.713	80.000	19.994	103.804	20.038	6.178	0.512
916.000	538.732	80.002	19.995	103.803	20.038	6.210	0.505
918.000	539.811	80.003	19.994	103.799	20.036	6.325	0.538
920.000	540.830	80.003	19.995	103.810	20.039	6.132	0.501
922.000	541.818	80.003	19.993	103.823	20.042	5.927	0.489
924.000	542.928	80.003	19.993	103.814	20.041	5.983	0.519
926.000	543.963	80.005	19.993	103.805	20.037	6.264	0.512
928.000	544.961	80.005	19.993	103.807	20.044	5.742	0.507
930.000	546.011	80.004	19.994	103.827	20.038	6.227	0.509
932.000	547.043	80.005	19.994	103.819	20.038	6.206	0.503
934.000	548.064	80.004	19.993	103.811	20.040	6.035	0.510
936.000	549.151	80.003	19.994	103.822	20.037	6.247	0.538
938.000	550.156	80.003	19.993	103.822	20.037	6.279	0.507
940.000	551.210	80.003	19.992	103.813	20.033	6.562	0.536
942.000	552.240	80.003	19.993	103.809	20.039	6.126	0.515
944.000	553.235	80.004	19.991	103.807	20.043	5.808	0.512
946.000	554.246	80.004	19.992	103.814	20.037	6.234	0.533
948.000	555.282	80.005	19.993	103.803	20.042	5.894	0.516
950.000	556.341	80.006	19.993	103.795	20.042	5.923	0.533
952.000	557.346	80.006	19.992	103.798	20.041	5.969	0.510
954.000	558.364	80.006	19.993	103.803	20.036	6.320	0.516
956.000	559.371	80.006	19.993	103.799	20.037	6.285	0.534
958.000	560.400	80.004	19.993	103.796	20.042	5.920	0.498
960.000	561.409	80.005	19.994	103.809	20.040	6.014	0.516
962.000	562.451	80.004	19.993	103.800	20.041	5.990	0.541
964.000	563.458	80.004	19.993	103.793	20.039	6.140	0.527
966.000	564.436	80.004	19.994	103.794	20.037	6.291	0.488
968.000	565.434	80.002	19.995	103.795	20.039	6.097	0.511
970.000	566.427	80.004	19.994	103.800	20.039	6.157	0.494
972.000	567.471	80.004	19.993	103.808	20.044	5.747	0.507
974.000	568.426	80.002	19.992	103.804	20.041	5.988	0.491
976.000	569.469	80.004	19.994	103.797	20.038	6.167	0.476
978.000	570.507	80.003	19.994	103.800	20.046	5.624	0.501
980.000	571.467	80.004	19.993	103.796	20.040	6.020	0.475
982.000	572.525	80.005	19.993	103.804	20.043	5.855	0.509
984.000	573.543	80.001	19.991	103.797	20.040	6.059	0.481
986.000	574.653	80.003	19.994	103.798	20.039	6.144	0.526
988.000	575.692	80.003	19.992	103.796	20.043	5.824	0.521
990.000	576.690	80.003	19.994	103.794	20.039	6.124	0.478
992.000	577.720	80.002	19.994	103.797	20.037	6.301	0.481
994.000	578.739	80.003	19.993	103.799	20.037	6.283	0.511
996.000	579.772	80.001	19.994	103.797	20.044	5.777	0.515
998.000	580.765	80.002	19.994	103.796	20.042	5.877	0.522
1000.000	581.837	80.002	19.994	103.798	20.044	5.745	0.524
1002.000	582.848	80.002	19.995	103.797	20.046	5.590	0.526
1004.000	583.885	80.005	19.994	103.796	20.044	5.724	0.538
1006.000	584.877	80.005	19.995	103.796	20.039	6.136	0.503
1008.000	585.945	80.007	19.995	103.796	20.044	5.716	0.533
1010.000	586.988	80.005	19.994	103.794	20.042	5.881	0.526
1012.000	587.970	80.005	19.993	103.793	20.046	5.572	0.491
1014.000	589.049	80.004	19.993	103.792	20.041	5.934	0.527
1016.000	590.112	80.004	19.994	103.795	20.041	5.963	0.534
1018.000	591.100	80.003	19.993	103.794	20.045	5.659	0.515
1020.000	592.128	80.003	19.993	103.793	20.047	5.529	0.490
1022.000	593.186	80.005	19.994	103.794	20.046	5.596	0.540
1024.000	594.232	80.004	19.993	103.796	20.046	5.588	0.517
1026.000	595.315	80.006	19.995	103.796	20.045	5.657	0.541
1028.000	596.331	80.005	19.994	103.793	20.045	5.657	0.488
1030.000	597.365	80.005	19.994	103.793	20.043	5.806	0.508
1032.000	598.459	80.007	19.993	103.791	20.041	5.991	0.556
1034.001	599.429	80.005	19.993	103.791	20.046	5.586	0.494
1036.000	600.467	80.005	19.993	103.791	20.044	5.742	0.548
1038.001	601.447	80.007	19.994	103.788	20.047	5.533	0.487
1040.000	602.441	80.004	19.992	103.791	20.047	5.496	0.483
1042.001	603.494	80.003	19.993	103.793	20.043	5.806	0.521
1044.000	604.518	80.002	19.992	103.797	20.047	5.536	0.506
1046.000	605.519	80.003	19.991	103.788	20.043	5.785	0.524
1048.000	606.510	80.002	19.992	103.793	20.044	5.746	0.503
1050.001	607.488	80.004	19.994	103.794	20.050	5.270	0.468
1052.001	608.518	80.003	19.993	103.795	20.052	5.119	0.523
1054.000	609.512	80.004	19.993	103.789	20.045	5.691	0.473
1056.000	610.498	80.002	19.993	103.779	20.046	5.631	0.483
1058.001	611.543	80.003	19.993	103.783	20.050	5.333	0.517
1060.000	612.530	80.002	19.993	103.786	20.050	5.331	0.522
1062.000	613.536	80.002	19.993	103.794	20.054	4.990	0.525
1064.000	614.546	80.002	19.994	103.783	20.047	5.547	0.505
1066.000	615.538	80.003	19.993	103.791	20.054	5.027	0.504
1068.001	616.529	80.004	19.994	103.795	20.052	5.113	0.498
1070.000	617.527	80.004	19.993	103.794	20.054	4.964	0.488
1072.000	618.516	80.003	19.994	103.794	20.055	4.954	0.489
1074.000	619.532	80.002	19.993	103.793	20.052	5.137	0.512
1076.001	620.518	80.003	19.993	103.793	20.054	5.021	0.480
1078.000	621.526	80.003	19.992	103.793	20.054	5.029	0.504
1080.000	622.520	80.003	19.993	103.793	20.057	4.780	0.523
1082.000	623.529	80.003	19.995	103.791	20.055	4.898	0.530
1084.000	624.532	80.003	19.995	103.790	20.059	4.621	0.506
1086.000	625.520	80.004	19.994	103.790	20.062	4.423	0.461
1088.000	626.506	80.004	19.993	103.785	20.061	4.487	0.499
1090.000	627.514	80.004	19.994	103.789	20.058	4.729	0.528
1092.000	628.515	80.004	19.994	103.786	20.061	4.443	0.501
1094.000	629.538	80.004	19.994	103.785	20.058	4.711	0.508
1096.000	630.544	80.005	19.994	103.780	20.059	4.619	0.509
1098.000	631.604	80.003	19.994	103.784	20.057	4.788	0.502
1100.000	632.604	80.002	19.993	103.788	20.055	4.941	0.501
1102.001	633.599	80.003	19.994	103.780	20.063	4.337	0.511
1104.001	634.592	80.005	19.994	103.778	20.060	4.554	0.493
1106.000	635.657	80.004	19.992	103.783	20.062	4.439	0.512
1108.000	636.671	80.004	19.993	103.780	20.064	4.238	0.501
1110.000	637.663	80.006	19.995	103.781	20.063	4.321	0.504
1112.000	638.639	80.006	19.994	103.780	20.064	4.246	0.491
1114.000	639.699	80.006	19.993	103.785	20.066	4.133	0.515
1116.001	640.743	80.005	19.994	103.777	20.066	4.137	0.522
1118.000	641.718	80.005	19.992	103.781	20.066	4.131	0.475
1120.000	642.786	80.004	19.994	103.781	20.061	4.453	0.523
1122.000	643.802	80.001	19.993	103.773	20.067	4.009	0.523
1124.000	644.811	80.003	19.993	103.782	20.070	3.842	0.487
1126.000	645.809	80.002	19.993	103.772	20.071	3.695	0.490
1128.000	646.873	80.001	19.992	103.768	20.068	3.972	0.532
1130.000	647.870	80.002	19.992	103.763	20.071	3.711	0.511
1132.001	648.887	80.003	19.991	103.760	20.074	3.524	0.498
1134.000	649.933	80.003	19.993	103.758	20.072	3.621	0.536
1136.000	650.928	80.004	19.994	103.766	20.068	3.950	0.506
1138.000	651.955	80.002	19.993	103.761	20.073	3.591	0.511
1140.001	653.005	80.004	19.991	103.769	20.066	4.090	0.493
1142.000	654.012	80.005	19.994	103.762	20.073	3.580	0.488
1144.001	655.063	80.002	19.992	103.756	20.075	3.448	0.541
1146.000	656.066	80.004	19.993	103.760	20.075	3.438	0.505
1148.001	657.083	80.003	19.993	103.769	20.075	3.405	0.487
1150.001	658.102	80.003	19.994	103.767	20.076	3.393	0.509
1152.000	659.118	80.003	19.994	103.760	20.073	3.607	0.529
1154.000	660.119	80.003	19.994	103.755	20.078	3.232	0.493
1156.000	661.191	80.003	19.994	103.760	20.077	3.306	0.510
1158.000	662.195	80.003	19.993	103.758	20.079	3.153	0.531
1160.000	663.250	80.005	19.994	103.760	20.077	3.310	0.530
1162.001	664.251	80.003	19.994	103.756	20.077	3.246	0.501
1164.000	665.272	80.004	19.992	103.763	20.076	3.381	0.513
1166.000	666.232	80.005	19.993	103.764	20.078	3.222	0.479
1168.000	667.270	80.006	19.995	103.766	20.085	2.706	0.517
1170.001	668.282	80.005	19.994	103.775	20.082	2.912	0.510
1172.001	669.300	80.006	19.994	103.764	20.085	2.692	0.527
1174.000	670.333	80.004	19.993	103.762	20.083	2.831	0.540
1176.001	671.344	80.003	19.993	103.759	20.083	2.841	0.510
1178.000	672.377	80.002	19.993	103.763	20.079	3.114	0.501
1180.000	673.394	80.003	19.994	103.764	20.083	2.818	0.532
1182.001	674.466	80.003	19.994	103.762	20.087	2.568	0.526
1184.000	675.508	80.003	19.994	103.763	20.084	2.796	0.527
1186.000	676.505	80.003	19.994	103.757	20.083	2.818	0.491
1188.000	677.553	80.004	19.994	103.756	20.082	2.875	0.524
1190.000	678.550	80.004	19.994	103.755	20.084	2.759	0.498
1192.001	679.606	80.006	19.994	103.759	20.088	2.451	0.512
1194.000	680.602	80.006	19.993	103.757	20.084	2.727	0.500
1196.000	681.638	80.006	19.995	103.756	20.087	2.574	0.504
1198.000	682.663	80.004	19.993	103.758	20.085	2.653	0.510
1200.001	683.669	80.004	19.994	103.753	20.088	2.484	0.506
1202.001	684.669	80.004	19.993	103.751	20.088	2.482	0.508
1204.000	685.721	80.002	19.992	103.753	20.090	2.337	0.517
1206.000	686.699	80.004	19.993	103.754	20.089	2.372	0.481
1208.000	687.765	80.004	19.992	103.753	20.089	2.398	0.570
1210.000	688.684	80.004	19.992	103.753	20.095	1.966	0.469
1212.000	689.741	80.004	19.993	103.753	20.092	2.154	0.474
1214.000	690.782	80.003	19.992	103.753	20.092	2.132	0.516
1216.000	691.788	80.003	19.993	103.755	20.088	2.441	0.520
1218.000	692.826	80.004	19.993	103.754	20.092	2.195	0.510
1220.000	693.846	80.004	19.994	103.755	20.091	2.211	0.531
1222.000	694.816	80.005	19.992	103.755	20.095	1.942	0.488
1224.000	695.969	80.004	19.992	103.755	20.093	2.089	0.534
1226.001	696.949	80.003	19.992	103.754	20.093	2.087	0.339
1228.000	697.917	80.004	19.992	103.755	20.091	2.211	0.528
1230.001	698.953	80.003	19.995	103.757	20.095	1.944	0.524
1232.000	700.008	80.003	19.993	103.758	20.095	1.942	0.517
1234.000	700.992	80.004	19.992	103.757	20.093	2.066	0.495
1236.000	702.057	80.004	19.993	103.758	20.091	2.268	0.504
1238.000	703.051	80.003	19.993	103.758	20.092	2.146	0.527
1240.000	704.041	80.004	19.993	103.758	20.093	2.060	0.513
1242.000	705.080	80.004	19.993	103.757	20.096	1.877	0.516
1244.000	706.082	80.004	19.993	103.757	20.092	2.191	0.484
1246.001	707.061	80.003	19.993	103.754	20.095	1.956	0.502
1248.000	708.098	80.004	19.993	103.752	20.095	1.971	0.546
1250.000	709.067	80.005	19.994	103.757	20.095	1.926	0.498
1252.000	710.141	80.005	19.993	103.758	20.099	1.616	0.524
1254.000	711.054	80.004	19.993	103.757	20.095	1.948	0.497
1256.001	712.084	80.003	19.993	103.757	20.095	1.944	0.493
1258.000	713.076	80.006	19.993	103.757	20.097	1.759	0.480
1260.000	714.073	80.004	19.993	103.756	20.096	1.878	0.481
1262.000	715.098	80.004	19.994	103.751	20.101	1.502	0.519
1264.000	716.100	80.005	19.993	103.754	20.097	1.783	0.514
1266.001	717.112	80.004	19.992	103.749	20.096	1.881	0.495
1268.000	718.120	80.005	19.993	103.748	20.099	1.648	0.523
1270.000	719.128	80.007	19.994	103.741	20.103	1.343	0.539
1272.000	720.159	80.005	19.993	103.732	20.101	1.518	0.510
1274.000	721.152	80.007	19.995	103.753	20.101	1.516	0.515
1276.001	722.184	80.005	19.994	103.748	20.103	1.365	0.512
1278.000	723.174	80.005	19.994	103.746	20.104	1.257	0.498
1280.000	724.203	80.003	19.996	103.738	20.098	1.706	0.526
1282.001	725.182	80.004	19.993	103.741	20.101	1.475	0.483
1284.000	726.218	80.004	19.994	103.743	20.100	1.587	0.490
1286.001	727.217	80.004	19.993	103.748	20.099	1.636	0.500
1288.000	728.201	80.005	19.993	103.752	20.102	1.426	0.500
1290.000	729.212	80.005	19.993	103.752	20.104	1.257	0.534
1292.000	730.202	80.003	19.992	103.750	20.104	1.294	0.493
1294.000	731.203	80.004	19.993	103.746	20.101	1.490	0.525
1296.001	732.231	80.004	19.993	103.750	20.099	1.640	0.502
1298.000	733.209	80.004	19.993	103.751	20.104	1.261	0.519
1300.001	734.218	80.005	19.993	103.754	20.099	1.647	0.517
1302.000	735.246	80.004	19.993	103.751	20.101	1.504	0.530
1304.000	736.308	80.003	19.993	103.754	20.099	1.628	0.522
1306.000	737.287	80.004	19.993	103.749	20.095	1.918	0.509
1308.000	738.359	80.003	19.993	103.745	20.100	1.577	0.549
1310.001	739.376	80.003	19.993	103.747	20.099	1.626	0.507
1312.000	740.389	80.003	19.993	103.757	20.100	1.591	0.496
1314.000	741.478	80.004	19.993	103.758	20.101	1.485	0.571
1316.000	742.505	80.004	19.994	103.757	20.103	1.361	0.499
1317.500	743.286	80.004	19.992	103.757	20.098	1.716	0.503