File: 01_Data/MDF/Cone/MDF_Cone_HF75Scan_210325_R1.csv
Names,Time,Stack TC,Smoke TC,Exh Press,Smoke Comp,Smoke Meas,CO Meter,CO2 Meter,O2 Meter,Sample Mass,Ext Coeff,Start Test,Flame Verif
Chan Gain,,500,500,1,1,1,1,1,1,1,1,1,1
Offset,,0,0,0.138348,0,0,0,0,0,0,0,0,0
Gain,,1,1,25.011,13.5067,16.616,1,1,1,1.00091,1.04608,1,1
Units,sec,C,C,Pa,%,%,%,%,%,g,/m,,
Baseline,,30.8264,34.6272,160.947,101.447,101.358,0.000472199,0.08382488,20.8489,-1.15146,0.008094464,,
13,3,29.9459,33.3221,157.556,101.617,101.48,0.001307535,0.0916577,20.8266,611.627,0.01237,0,0
26,6.25,30.3239,34.2833,158.449,101.627,101.297,0.000848316,0.0930602,20.8274,611.537,0.02979368,0,0
39,9.5,30.9465,34.5278,158.234,101.632,100.754,0.000397355,0.0932905,20.8323,611.467,0.0796508,0,0
52,12.75,31.4262,34.9563,162.001,101.64,99.9002,0.00022865,0.0929654,20.8343,611.346,0.158414,0,0
65,16,31.7763,35.6464,152.665,101.642,101.159,0.000727507,0.0974656,20.802,611.126,0.0437197,0,1
78,19.25,35.0653,42.2102,147.512,101.648,99.9377,0.001752915,0.149545,20.6208,610.596,0.155751,0,1
91,22.5,40.2899,51.6119,133.478,101.651,97.3166,0.003314908,0.28065,20.3671,609.835,0.399886,0,0
104,25.75,47.2523,62.3609,126.491,101.649,96.274,0.004699722,0.444538,20.121,609.054,0.498536,0,0
117,29,52.6225,70.6817,136.945,101.665,94.0033,0.006134587,0.590172,19.9834,608.154,0.719006,0,0
130,32.25,56.9174,77.6755,131.594,101.668,92.9603,0.007458299,0.699254,19.9278,607.263,0.821617,0,0
143,35.5,60.5499,83.5035,133.301,101.676,91.1399,0.008305929,0.773321,19.8969,606.402,1.0038,0,0
156,38.75,63.7684,87.6845,129.188,101.667,88.8266,0.008858763,0.821372,19.8899,605.561,1.23889,0,0
169,42,65.2869,90.0658,139.232,101.686,90.9644,0.009216702,0.84343,19.904,604.68,1.02237,0,0
182,45.25,67.1634,91.8786,135.557,101.661,88.0441,0.009493898,0.847163,19.9289,603.9,1.31956,0,0
195,48.5,68.1884,91.772,136.34,101.658,89.4102,0.009611269,0.838206,19.9561,603.119,1.17802,0,0
208,51.75,68.77,92.8344,132.674,101.667,89.6577,0.009575508,0.82668,19.9821,602.318,1.15344,0,0
221,55,69.7137,93.3389,137.375,101.66,90.3331,0.00967722,0.80905,20.0134,601.538,1.08397,0,0
234,58.25,69.592,92.5986,130.998,101.636,90.0598,0.009525028,0.785481,20.0567,600.857,1.10962,0,0
247,61.5,69.745,91.959,136.905,101.634,91.1546,0.009157811,0.759947,20.092,600.156,0.998598,0,0
260,64.75,69.9578,91.2411,139.427,101.623,90.2753,0.008792651,0.737325,20.1163,599.476,1.08654,0,0
273,68,69.6367,90.0751,135.064,101.594,91.8092,0.008429197,0.714345,20.147,598.805,0.929249,0,0
286,71.25,69.0537,88.8365,138.417,101.574,92.047,0.008191111,0.691939,20.1712,598.114,0.90376,0,0
299,74.5,69.1041,87.9348,135.647,101.574,93.3827,0.008001627,0.670741,20.1963,597.434,0.77153,0,0
312,77.75,68.8892,87.6196,138.384,101.535,93.5693,0.007803977,0.651701,20.2139,596.843,0.749673,0,0
325,81,68.6459,86.4843,147.343,101.501,93.8451,0.00761563,0.634879,20.2331,596.213,0.719605,0,0
338,84.25,68.4169,86.2698,142.678,101.475,92.3416,0.00766434,0.619779,20.244,595.622,0.865495,0,0
351,87.5,68.5968,85.6877,136.102,101.44,93.7985,0.007255464,0.609779,20.2489,594.992,0.718689,0,0
364,90.75,67.9012,84.8447,147.068,101.4,94.2625,0.006864485,0.60117,20.2567,594.361,0.669755,0,0
377,94,67.9186,84.6066,139.078,101.357,94.4272,0.006635651,0.592288,20.2675,593.771,0.649811,0,0
390,97.25,68.3934,83.6123,141.211,101.326,95.1483,0.006540845,0.58295,20.2775,593.19,0.577243,0,0
403,100.5,67.4987,83.6758,137.176,101.264,95.376,0.006484678,0.571967,20.2925,592.599,0.549711,0,0
416,103.75,67.4762,82.78,137.666,101.203,94.7315,0.006233593,0.55955,20.307,592.029,0.606399,0,0
429,107,68.0871,82.7585,135.831,101.155,95.8293,0.006137942,0.549877,20.3169,591.478,0.496259,0,0
442,110.25,67.5196,82.3847,134.111,101.108,95.2553,0.005876807,0.542875,20.3198,590.918,0.547125,0,0
455,113.5,67.961,82.559,139.011,101.063,94.9997,0.005563924,0.537771,20.3222,590.367,0.567737,0,0
468,116.75,67.4736,81.7591,140.228,100.986,96.0702,0.005467904,0.532916,20.3271,589.787,0.457882,0,0
481,120,67.3732,81.5207,140.459,100.941,94.8699,0.005655492,0.527621,20.3319,589.266,0.569163,0,0
494,123.25,67.2454,81.5089,143.828,100.861,96.1939,0.005701099,0.522779,20.3343,588.666,0.434715,0,0
507,126.5,67.9063,81.4038,140.725,100.798,95.6427,0.005583004,0.521085,20.336,588.165,0.481782,0,0
520,129.75,67.3928,81.7443,138.105,100.761,95.7097,0.005305817,0.518896,20.3372,587.555,0.471984,0,0
533,133,67.9662,81.4902,138.213,100.676,97.8622,0.005157313,0.517446,20.3342,587.044,0.260084,0,0
546,136.25,67.9635,81.4111,140.498,100.608,94.124,0.005222144,0.516965,20.3347,586.464,0.611268,0,0
559,139.5,67.9427,81.0338,138.026,100.548,95.1093,0.005460574,0.513377,20.3415,585.953,0.510262,0,0
572,142.75,68.1991,81.9622,143.595,100.479,94.9632,0.00540965,0.510428,20.3419,585.403,0.518078,0,0
585,146,68.3753,80.9529,137.985,100.395,96.77,0.005102047,0.509424,20.3381,584.842,0.337456,0,0
598,149.25,68.4918,81.916,137.607,100.331,95.9181,0.005241358,0.509815,20.3376,584.282,0.412714,0,0
611,152.5,68.5054,81.7844,137.192,100.281,97.8891,0.005394856,0.510822,20.3356,583.781,0.221541,0,0
624,155.75,68.7655,82.0385,137.47,100.212,97.0144,0.005208071,0.511954,20.3351,583.211,0.297529,0,0
637,159,68.999,82.4981,139.316,100.151,96.6275,0.005066346,0.5115394,20.3383,582.59,0.328684,0,0
650,162.25,69.3849,82.664,142.679,100.099,96.4206,0.004927028,0.508812,20.3426,582.03,0.343593,0,0
663,165.5,70.1825,83.4327,140.563,100.04,96.9302,0.004768086,0.505559,20.3505,581.479,0.289741,0,0
676,168.75,69.0435,82.3342,143.169,99.9791,96.6493,0.004615101,0.499835,20.3596,580.919,0.310815,0,0
689,172,69.1387,82.1433,141.012,99.9345,96.6148,0.004694667,0.494529,20.3643,580.328,0.310001,0,0
702,175.25,69.6466,82.1304,139.727,99.8979,95.6595,0.004489824,0.491081,20.3639,579.738,0.397819,0,0
715,178.5,69.9232,82.7814,142.484,99.8686,97.2355,0.004320718,0.490765,20.3639,579.217,0.245185,0,0
728,181.75,69.6641,82.2727,139.052,99.8171,96.2933,0.004390304,0.48832,20.3687,578.667,0.329794,0,0
741,185,69.8081,81.9693,139.484,99.8076,97.3729,0.004304341,0.48447,20.3718,578.136,0.226618,0,0
754,188.25,69.7507,81.9133,141.506,99.7672,97.4946,0.004312168,0.483494,20.37,577.586,0.211443,0,0
767,191.5,70.3768,82.6716,140.466,99.7478,96.7786,0.004518877,0.486026,20.3642,577.055,0.277298,0,0
780,194.75,70.4058,82.8122,134.406,99.7437,96.5113,0.004364459,0.488331,20.3648,576.535,0.3022919,0,0
793,198,69.7614,82.4184,143.37,99.7334,97.8784,0.004061569,0.485863,20.3739,575.944,0.172275,0,0
806,201.25,69.6446,82.0536,135.377,99.7144,97.6751,0.004104342,0.480549,20.3836,575.444,0.189615,0,0
819,204.5,69.6879,81.6656,142.651,99.719,97.2071,0.004121965,0.475096,20.388,574.963,0.234106,0,0
832,207.75,69.8147,81.3962,143.931,99.7219,98.5032,0.00406953,0.470888,20.3893,574.463,0.112833,0,0
845,211,69.6519,81.5283,138.93,99.7219,97.6731,0.004232304,0.467711,20.3899,573.922,0.190487,0,0
858,214.25,69.6098,80.7365,141.339,99.7322,98.1289,0.003982608,0.465292,20.3911,573.382,0.148708,0,0
871,217.5,69.4638,81.1891,144.521,99.768,97.1178,0.004046813,0.463447,20.3924,572.901,0.247047,0,0
884,220.75,69.9254,81.3676,139.807,99.789,97.849,0.003912938,0.460997,20.3967,572.371,0.180152,0,0
897,224,69.5302,80.72,140.225,99.8101,97.2207,0.003705851,0.458266,20.4006,571.901,0.241192,0,0
910,227.25,69.5326,80.7195,139.284,99.8517,98.85,0.003648996,0.455588,20.4046,571.4,0.0925183,0,0
923,230.5,69.6741,80.6967,137.139,99.9049,97.7461,0.003618572,0.452359,20.4086,570.88,0.200455,0,0
936,233.75,69.655,80.1583,135.317,99.9403,97.8764,0.003799855,0.448707,20.4115,570.449,0.191484,0,0
949,237,69.1737,80.296,141.819,99.97,98.493,0.003993379,0.446722,20.4119,569.979,0.136582,0,0
962,240.25,69.3563,79.7878,138.03,100.033,97.7664,0.004099291,0.444776,20.4155,569.498,0.210356,0,0
975,243.5,69.4069,79.6403,140.126,100.071,97.8084,0.003920218,0.440041,20.4226,569.018,0.209809,0,0
988,246.75,69.0043,79.5678,137.591,100.068,98.3313,0.003593573,0.436823,20.426,568.578,0.160664,0,0
1001,250,68.9251,79.0926,143.743,100.105,97.8881,0.003250565,0.433715,20.4303,568.137,0.205517,0,0
1014,253.25,68.6293,78.8995,143.13,100.164,98.9742,0.00329621,0.430342,20.4342,567.677,0.109661,0,0
1027,256.5,68.503,79.2588,144.024,100.208,98.0853,0.00347556,0.42857,20.4303,567.216,0.196447,0,0
1040,259.75,68.6612,78.996,141.735,100.272,99.2024,0.003438688,0.428734,20.4292,566.766,0.0984171,0,0
1053,263,67.1065,79.5276,142.068,100.345,99.9169,0.00323519,0.427194,20.432,566.315,0.0392028,0,0
1066,266.25,68.9641,78.63,144.459,100.404,99.494,0.003129334,0.423441,20.4408,565.845,0.0835127,0,0
1079,269.5,68.8755,79.1516,141.38,100.459,100.103,0.003191089,0.418015,20.4497,565.425,0.0325627,0,0
1092,272.75,68.679,78.5928,140.336,100.538,99.8494,0.003266305,0.414993,20.4496,564.954,0.06309735,0,0
1105,276,68.4985,78.7087,137.619,100.59,100.159,0.00315539,0.413733,20.4498,564.534,0.0393782,0,0
1118,279.25,68.2245,77.5475,148.332,100.642,99.743,0.002825866,0.411588,20.4571,564.134,0.0823268,0,0
1131,282.5,67.8872,77.5565,142.625,100.71,99.5351,0.002843007,0.408052,20.4608,563.713,0.10771,0,0
1144,285.75,68.1394,77.596,139.421,100.76,100.515,0.002940799,0.40616,20.4622,563.253,0.0223317,0,0
1157,289,68.1171,77.0413,144.39,100.811,100.105,0.002803752,0.404189,20.4646,562.902,0.0645117,0,0
1170,292.25,67.6057,77.0669,138.604,100.85,100.734,0.002768004,0.401974,20.4689,562.422,0.0104974,0,0
1183,295.5,67.7403,76.9301,141.76,100.898,100.247,0.002626866,0.398668,20.4719,562.062,0.0593823,0,0
1196,298.75,68.032,76.7466,142.772,100.939,100.684,0.002424888,0.395692,20.4746,561.641,0.023245,0,0
1209,302,67.5076,76.303,141.571,100.952,101.075,0.002210713,0.393156,20.4781,561.221,-0.0111945,0,0
1222,305.25,67.6424,76.5567,141.978,101.007,100.958,0.002133238,0.391398,20.4792,560.81,0.004419299,0,0
1235,308.5,67.3633,76.1487,138.817,101.028,101.376,0.002097954,0.389322,20.4804,560.42,-0.0315321,0,0
1248,311.75,66.7985,75.9802,140.306,101.039,101.124,0.002328581,0.387508,20.4837,560.01,-0.007672389,0,0
1261,315,67.3019,75.7134,141.495,101.057,101.013,0.002615298,0.384739,20.4858,559.599,0.003981947,0,0
1274,318.25,67.0402,75.6118,144.434,101.077,102.596,0.002428455,0.382784,20.4868,559.229,-0.136925,0,0
1287,321.5,67.0631,75.5949,144.473,101.066,100.543,0.002248088,0.381476,20.4877,558.839,0.0476436,0,0
1300,324.75,67.0767,75.6409,142.393,101.059,101.652,0.002263333,0.379987,20.4887,558.408,-0.05368844,0,0
1313,328,67.1124,75.5036,141.562,101.065,101.029,0.002339723,0.378239,20.4898,558.078,0.003211065,0,0
1326,331.25,67.1651,75.4228,144.176,101.066,100.635,0.002469239,0.376675,20.4931,557.698,0.0391875,0,0
1339,334.5,66.4294,75.2347,143.334,101.075,100.936,0.002466715,0.375639,20.4938,557.337,0.0125863,0,0
1352,337.75,66.8351,74.3569,142.257,101.085,101.223,0.002469237,0.374765,20.494,556.907,-0.0124497,0,0
1365,341,66.7197,74.8501,142.283,101.071,100.438,0.002464179,0.373714,20.496,556.527,0.0576682,0,0
1378,344.25,66.2377,74.7337,142.16,101.055,100.046,0.002396564,0.37188,20.4988,556.206,0.0920894,0,0
1391,347.5,66.1317,74.4812,139.583,101.008,101.232,0.002354188,0.370198,20.5008,555.796,-0.0203227,0,0
1404,350.75,66.2074,74.309,146.616,100.99,100.822,0.002291935,0.368921,20.5018,555.426,0.0152535,0,0
1417,354,65.6525,74.1051,142.525,100.949,101.222,0.002260897,0.367384,20.5029,555.105,-0.0247885,0,0
1430,357.25,66.7837,74.8701,144.271,100.901,101.197,0.002254071,0.366296,20.5045,554.685,-0.0268453,0,0
1443,360.5,65.8123,73.6781,147.705,100.869,101.691,0.002245229,0.365861,20.5068,554.335,-0.0744829,0,0
1456,363.75,65.742,73.2795,143.753,100.832,101.99,0.002101864,0.364406,20.5113,553.964,-0.104777,0,0
1469,367,65.3969,73.3042,143.65,100.772,100.933,0.00201328,0.363133,20.514,553.584,-0.0146357,0,0
1482,370.25,64.9668,73.1343,145.534,100.712,100.209,0.002012071,0.361762,20.5153,553.214,0.0459426,0,0
1495,373.5,65.6582,73.0008,135.592,100.66,101.552,0.002004778,0.360141,20.5181,552.843,-0.0809762,0,0
1508,376.75,65.5243,73.6824,139.091,100.658,101.068,0.001996576,0.359635,20.5176,552.443,-0.0373108,0,0
1521,380,65.7206,73.569,144.19,100.605,102.043,0.001929519,0.359227,20.5186,552.113,-0.130213,0,0
1534,383.25,65.3899,73.2505,142.735,100.587,100.737,0.001979733,0.358694,20.519,551.732,-0.0136919,0,0
1547,386.5,65.332,73.373,141.361,100.557,101.228,0.002334944,0.357891,20.5206,551.402,-0.0609654,0,0
1560,389.75,65.1935,73.0778,142.369,100.524,100.418,0.002390775,0.357193,20.5213,551.012,0.009651682,0,0
1573,393,65.0051,72.8544,141.712,100.501,101.05,0.002143572,0.356788,20.5225,550.641,-0.049935,0,0
1586,396.25,64.7752,72.4121,145.638,100.509,100.745,0.002079697,0.355736,20.5228,550.351,-0.0215868,0,0
1599,399.5,65.213,72.7671,142.173,100.529,100.667,0.002115225,0.356019,20.5208,549.961,-0.0126189,0,0
1612,402.75,64.8648,72.9958,144.266,100.646,100.932,0.001988311,0.357043,20.5202,549.58,-0.0259984,0,0
1625,406,64.8777,73.632,143.618,100.796,101.11,0.001853598,0.356589,20.5225,549.23,-0.0285432,0,0
1638,409.25,64.874,72.6678,143.316,100.906,101.433,0.002042661,0.35628,20.5224,548.84,-0.0478345,0,0
1651,412.5,64.8951,72.8766,144.234,101.03,101.085,0.002219657,0.356834,20.5231,548.489,-0.005036505,0,0
1664,415.75,64.5447,72.6264,147.451,101.139,100.794,0.00206782,0.357021,20.523,548.169,0.0313015,0,0
1677,419,64.9887,72.6459,141.232,101.23,101.383,0.002059968,0.357083,20.5214,547.789,-0.013877,0,0
1690,422.25,64.7355,72.1012,150.201,101.295,101.191,0.002080127,0.35716,20.521,547.438,0.009426578,0,0
1703,425.5,65.4089,72.6433,143.635,101.353,101.689,0.002121894,0.35731,20.521,547.038,-0.0303539,0,0
1716,428.75,64.8564,73.0138,144.952,101.41,101.459,0.002033444,0.358002,20.5194,546.718,-0.004453713,0,0
1729,432,65.2379,73.0488,142.205,101.447,102.276,0.001883455,0.358851,20.517,546.297,-0.0747216,0,0
1742,435.25,65.3646,73.3543,144.5,101.45,101.97,0.001744939,0.360412,20.5138,545.957,-0.0469021,0,0
1755,438.5,65.3795,73.0274,142.605,101.477,101.154,0.001968391,0.361898,20.513,545.587,0.02928121,0,0
1768,441.75,64.8287,73.2913,144.048,101.47,101.02,0.002205453,0.362736,20.5128,545.226,0.04071667,0,0
1781,445,64.8588,72.4458,139.632,101.464,101.2,0.002400146,0.363713,20.5118,544.876,0.02394218,0,0
1794,448.25,65.1952,73.3405,143.665,101.436,101.138,0.002537786,0.364562,20.5108,544.516,0.0269715,0,0
1807,451.5,65.2055,72.9138,142.099,101.43,101.639,0.002624036,0.366033,20.511,544.195,-0.0189305,0,0
1820,454.75,65.5129,73.1811,141.554,101.363,100.909,0.002341403,0.367983,20.5084,543.805,0.04118821,0,0
1833,458,65.3869,73.2928,149.4,101.301,101.088,0.002214145,0.370692,20.5042,543.425,0.0192517,0,0
1846,461.25,65.7937,72.8473,144.733,101.243,100.98,0.002163059,0.37266,20.5028,543.034,0.0239149,0,0
1859,464.5,65.2949,73.6,142.173,101.159,100.121,0.002207938,0.373661,20.5025,542.604,0.0946827,0,0
1872,467.75,65.6968,73.8298,141.028,101.017,100.491,0.002215677,0.374031,20.502,542.274,0.0479483,0,0
1885,471,64.92,72.7372,150.016,100.93,100.754,0.001985946,0.374786,20.5005,541.863,0.0160528,0,0
1898,474.25,65.9584,73.6951,147.742,100.984,99.6086,0.002008706,0.376704,20.4972,541.513,0.125837,0,0
1911,477.5,65.9193,73.6884,148.106,101.016,101.39,0.002043298,0.37868,20.4946,541.113,-0.0339324,0,0
1924,480.75,65.3762,74.0081,139.984,101.055,101.225,0.002084753,0.380286,20.491,540.692,-0.0154027,0,0
1937,484,65.8454,73.6438,143.806,101.113,100.134,0.002213434,0.38221,20.4892,540.352,0.0892852,0,0
1950,487.25,65.6217,74.5217,137.595,101.146,99.9716,0.00225055,0.384101,20.488,539.971,0.1071226,0,0
1963,490.5,65.4337,74.1388,136.886,101.196,99.9757,0.00224172,0.384976,20.4879,539.581,0.111311,0,0
1976,493.75,65.7071,74.0497,138.964,101.243,99.8429,0.002418111,0.385971,20.487,539.181,0.127773,0,0
1989,497,65.3228,73.833,144.743,101.287,100.91,0.002620318,0.386708,20.4878,538.8,0.0341987,0,0
2002,500.25,65.8771,74.356,148.55,101.318,99.9498,0.002804523,0.388433,20.483,538.4,0.124779,0,0
2015,503.5,66.0804,74.9226,146.283,101.369,98.8216,0.002797375,0.390251,20.4813,537.98,0.233577,0,0
2028,506.75,66.0993,74.7641,144.122,101.425,100.235,0.002941137,0.390824,20.4809,537.619,0.108279,0,0
2041,510,66.371,74.8699,140.971,101.457,99.7785,0.002915567,0.391709,20.4779,537.239,0.153099,0,0
2054,513.25,65.9849,74.5135,141.058,101.489,99.3383,0.00277075,0.393187,20.4761,536.839,0.196536,0,0
2067,516.5,66.1467,74.571,137.335,101.545,100.326,0.002844581,0.39528,20.4743,536.428,0.11082,0,0
2080,519.75,66.3085,74.7825,142.653,101.582,99.7643,0.002879724,0.3964414,20.4738,536.028,0.165731,0,0
2093,523,66.8757,75.5002,139.275,101.623,99.2404,0.002892725,0.397701,20.4717,535.638,0.217723,0,0
2106,526.25,66.4628,75.1977,143.921,101.667,99.0559,0.002744789,0.399171,20.4687,535.227,0.23875,0,0
2119,529.5,66.4857,75.1369,140.148,101.698,98.4048,0.002583015,0.400253,20.4679,534.817,0.302053,0,0
2132,532.75,66.5199,75.1153,145.481,101.712,99.0275,0.002837591,0.400884,20.4684,534.416,0.245435,0,0
2145,536,66.6794,75.6178,143.395,101.734,99.1867,0.00283867,0.40184,20.4666,534.016,0.2327,0,0
2158,539.25,66.786,75.2155,144.341,101.767,98.8089,0.002733995,0.403419,20.4646,533.586,0.270653,0,0
2171,542.5,67.0921,75.7267,140.979,101.764,99.534,0.002747295,0.404465,20.4638,533.205,0.203336,0,0
2184,545.75,67.2539,75.5379,140.195,101.76,97.9225,0.003124361,0.405055,20.4634,532.845,0.352745,0,0
2197,549,66.8138,75.8636,145.246,101.771,98.8373,0.003521603,0.4054,20.4621,532.445,0.268424,0,0
2210,552.25,67.1973,75.3699,141.174,101.773,100.865,0.003606311,0.405456,20.4608,532.024,0.08217936,0,0
2223,555.5,67.4779,76.1019,142.106,101.732,99.4058,0.003602848,0.405981,20.4603,531.624,0.212234,0,0
2236,558.75,67.0308,75.3825,137.453,101.709,98.7765,0.003386995,0.406303,20.4601,531.214,0.268463,0,0
2249,562,67.2327,75.7939,139.18,101.687,98.7516,0.003234221,0.406652,20.4603,530.863,0.268763,0,0
2262,565.25,67.1195,75.9006,136.765,101.635,98.529,0.00314597,0.406305,20.4611,530.403,0.284784,0,0
2275,568.5,67.5859,75.9987,139.579,101.589,99.0295,0.003182619,0.407025,20.4619,530.0625,0.234197,0,0
2288,571.75,67.0421,75.6591,143.433,101.544,98.4322,0.003243431,0.407536,20.4617,529.612,0.285617,0,0
2301,575,67.1923,75.7828,140.441,101.496,100.125,0.003359954,0.407703,20.4616,529.252,0.124798,0,0
2314,578.25,67.7604,76.1378,145.414,101.425,98.994,0.003387701,0.407538,20.4616,528.821,0.222618,0,0
2327,581.5,67.4198,76.1392,138.691,101.37,98.6898,0.003367496,0.406966,20.4616,528.431,0.245902,0,0
2340,584.75,67.3297,76.1605,142.431,101.308,98.1152,0.003643807,0.406089,20.4614,528.061,0.293878,0,0
2353,588,67.3544,76.2601,137.87,101.226,99.1542,0.003574613,0.406166,20.4598,527.68,0.189748,0,0
2366,591.25,67.0793,75.8619,144.881,101.14,97.9753,0.00318286,0.406235,20.4615,527.31,0.291694,0,0
2379,594.5,67.6565,76.0912,146.167,101.054,98.7136,0.003311079,0.405948,20.4616,526.93,0.214986,0,0
2392,597.75,67.6638,76.3815,139.405,100.953,97.2943,0.003676197,0.405929,20.4611,526.529,0.33878,0,0
2405,601,67.3813,75.8822,142.531,100.87,97.349,0.003785909,0.405558,20.4627,526.129,0.326045,0,0
2418,604.25,67.4847,76.1468,143.904,100.791,98.5655,0.003555286,0.405621,20.4615,525.769,0.204924,0,0
2431,607.5,67.3158,76.4766,145.552,100.696,96.9697,0.003521082,0.405008,20.4628,525.328,0.34603,0,0
2444,610.75,67.234,76.1485,143.967,100.611,97.5924,0.0034536,0.405316,20.461,524.968,0.279477,0,0
2457,614,66.9259,75.8627,141.087,100.527,97.3075,0.003387396,0.406658,20.4595,524.557,0.298677,0,0
2470,617.25,67.4802,76.0133,140.091,100.46,97.1538,0.003482867,0.407567,20.4592,524.187,0.307079,0,0
2483,620.5,67.4631,76.4977,137.17,100.37,97.9479,0.003573646,0.407936,20.4591,523.767,0.224135,0,0
2496,623.75,67.7319,75.8293,139.738,100.282,97.4707,0.00343712,0.408742,20.4575,523.426,0.260916,0,0
2509,627,67.7674,76.337,142.107,100.229,95.7441,0.00324303,0.409793,20.4555,523.026,0.420052,0,0
2522,630.25,67.0336,75.7503,140.061,100.156,95.985,0.003157459,0.41103,20.4547,522.616,0.390354,0,0
2535,633.5,68.2598,76.9934,144.134,100.093,96.7421,0.003307385,0.412514,20.4504,522.255,0.312482,0,0
2548,636.75,67.8477,76.8205,140.668,100.055,96.4419,0.003440674,0.414706,20.4483,521.845,0.337523,0,0
2561,640,67.7585,76.8076,138.957,100.019,96.4753,0.00341896,0.416135,20.4484,521.445,0.331012,0,0
2574,643.25,67.4094,76.4984,139.409,99.9766,96.2715,0.003315174,0.416741,20.4484,521.054,0.346524,0,0
2587,646.5,67.3229,76.931,141.585,99.951,96.4662,0.003310282,0.417428,20.4447,520.704,0.325638,0,0
2600,649.75,67.7613,76.6315,140.929,99.9403,95.7162,0.0035811,0.418684,20.4415,520.274,0.396272,0,0
2613,653,68.1749,76.7384,136.344,99.9135,95.4029,0.00383008,0.420391,20.4392,519.863,0.423904,0,0
2626,656.25,67.828,76.9284,143.876,99.8999,97.2426,0.004116081,0.421578,20.4362,519.483,0.247392,0,0
2639,659.5,68.1989,77.1686,138.285,99.9131,95.8521,0.004044057,0.423094,20.4344,519.093,0.380755,0,0
2652,662.75,67.9415,77.5242,139.205,99.9242,95.2239,0.003917395,0.425664,20.4307,518.672,0.44212,0,0
2665,666,67.9518,76.9699,145.885,99.9263,95.8101,0.003848192,0.427725,20.428,518.292,0.385996,0,0
2678,669.25,68.366,77.9442,136.196,99.9304,94.7158,0.00392953,0.428823,20.4253,517.891,0.491781,0,0
2691,672.5,68.91,78.1067,143,99.9659,95.2614,0.004233631,0.431312,20.421,517.461,0.442328,0,0
2704,675.75,68.8157,78.027,137.903,99.9947,94.1783,0.004545739,0.433542,20.4174,517.041,0.549905,0,0
2717,679,69.1637,78.5142,143.395,100.009,95.4505,0.004856742,0.435336,20.4159,516.64,0.428097,0,0
2730,682.25,69.2181,78.7828,138.431,100.049,94.7274,0.004608957,0.43781,20.4124,516.22,0.501507,0,0
2743,685.5,69.6196,79.4775,140.332,100.089,94.8938,0.004525539,0.439065,20.4128,515.85,0.489114,0,0
2756,688.75,69.3535,78.8888,141.614,100.115,94.2528,0.004715574,0.438438,20.4128,515.379,0.553721,0,0
2769,692,69.625,78.949,140.29,100.153,95.3304,0.004756818,0.440398,20.4083,515.009,0.452848,0,0
2782,695.25,69.3565,78.8932,138.156,100.205,94.7487,0.004668762,0.442304,20.4046,514.558,0.513799,0,0
2795,698.5,70.0211,79.2116,143.61,100.247,94.4207,0.004646021,0.444186,20.4,514.168,0.549439,0,0
2808,701.75,69.9093,79.3492,145.259,100.291,94.2168,0.004948425,0.447818,20.3946,513.658,0.573307,0,0
2821,705,69.6557,79.207,144.727,100.342,95.0428,0.00499168,0.450099,20.3914,513.307,0.497845,0,0
2834,708.25,70.2081,79.9164,138.967,100.407,94.1899,0.005104376,0.45143,20.3932,512.907,0.586554,0,0
2847,711.5,70.0286,79.4479,139.252,100.465,94.9632,0.005341359,0.453844,20.3915,512.487,0.516836,0,0
2860,714.75,70.6367,80.4873,142.901,100.529,95.4343,0.005137978,0.454969,20.3909,512.066,0.477225,0,0
2873,718,70.5708,80.4067,140.137,100.612,94.626,0.004967731,0.456142,20.386,511.596,0.562833,0,0
2886,721.25,71.1304,80.7802,139.468,100.659,93.727,0.004946929,0.459822,20.3774,511.155,0.654755,0,0
2899,724.5,71.0696,80.3658,136.482,100.715,94.9617,0.004980395,0.462475,20.3717,510.755,0.539732,0,0
2912,727.75,70.9189,80.994,136.486,100.785,93.8294,0.005018348,0.466423,20.366,510.285,0.656186,0,0
2925,731,71.0477,81.183,135.433,100.831,95.2746,0.005008851,0.46988,20.363,509.894,0.520133,0,0
2938,734.25,71.4634,81.2805,143.14,100.889,93.1296,0.005155361,0.472358,20.3609,509.464,0.734367,0,0
2951,737.5,71.4136,81.5123,141.238,100.939,93.5627,0.005195788,0.474146,20.3594,509.023,0.696333,0,0
2964,740.75,71.8597,81.1165,139.966,100.994,94.9511,0.005229407,0.474606,20.3596,508.593,0.566187,0,0
2977,744,71.7806,81.5288,141.128,101.031,94.7143,0.005307748,0.473845,20.3614,508.153,0.592472,0,0
2990,747.25,71.5751,81.7649,132.097,101.075,93.9562,0.005265255,0.473286,20.3619,507.802,0.670142,0,0
3003,750.5,71.6388,81.7082,139.008,101.131,92.5871,0.00529255,0.472275,20.362,507.292,0.809964,0,0
3016,753.75,71.6476,81.7332,142.75,101.16,94.0566,0.005023053,0.471427,20.3623,506.971,0.668084,0,0
3029,757,71.8319,81.4745,141.153,101.185,95.0946,0.004859052,0.470537,20.3635,506.551,0.569653,0,0
3042,760.25,71.5581,81.5146,143.923,101.228,95.126,0.004978728,0.46919,20.3666,506.131,0.570507,0,0
3055,763.5,71.511,81.466,140.796,101.246,94.8998,0.00500033,0.465264,20.375,505.75,0.593955,0,0
3068,766.75,71.3004,81.2039,148.045,101.246,94.8628,0.004732783,0.458974,20.3855,505.39,0.597572,0,0
3081,770,71.2911,80.6093,147.922,101.26,94.6696,0.004570521,0.450976,20.3967,505.08,0.617512,0,0
3094,773.25,70.7252,80.0126,144.582,101.277,95.4683,0.004277068,0.441103,20.4099,504.659,0.541994,0,0
3107,776.5,70.1974,78.9831,146.04,101.257,96.1802,0.003838292,0.429812,20.4251,504.359,0.471988,0,0
3120,779.75,69.6884,78.0225,143.103,101.253,97.1589,0.003302014,0.415433,20.4471,504.039,0.378717,0,0
3133,783,69.7629,77.9489,143.172,101.243,97.0433,0.003057934,0.400868,20.4666,503.759,0.388745,0,0
3146,786.25,69.1406,77.4865,138.339,101.224,98.9271,0.002874669,0.387501,20.4805,503.588,0.210608,0,0
3159,789.5,68.5717,75.717,148.154,101.2,98.6365,0.002698951,0.371573,20.5053,503.288,0.235394,0,0
3172,792.75,67.6406,74.7468,142.247,101.19,99.1248,0.002360921,0.352623,20.5293,503.138,0.189256,0,0
3185,796,66.4793,73.3548,144.827,101.16,99.6081,0.002053435,0.33154,20.5585,502.928,0.141826,0,0
3198,799.25,65.3471,71.558,144.227,101.144,100.169,0.002008515,0.308685,20.5811,502.838,0.0888476,0,0
3211,802.5,65.2814,70.1532,144.972,101.093,101.618,0.001938667,0.286727,20.6109,502.708,-0.0475618,0,0
3224,805.75,63.9234,68.8273,147.596,101.071,101.44,0.001801284,0.263683,20.6351,502.618,-0.0334493,0,0
3237,809,63.3889,67.9619,145.51,101.028,102.4,0.001671084,0.244878,20.6549,502.517,-0.123728,0,0
3250,812.25,62.3452,66.2854,148.99,100.992,102.216,0.001775413,0.227877,20.6745,502.457,-0.110559,0,0
3263,815.5,61.5808,65.4001,144.263,100.97,102.195,0.00188744,0.2134628,20.6878,502.397,-0.110595,0,0
3276,818.75,60.8995,63.7121,149.98,100.934,102.26,0.001797473,0.202639,20.6967,502.247,-0.119764,0,0
3289,822,59.7194,63.5029,148.324,100.871,102.39,0.001770396,0.194831,20.7004,502.267,-0.137178,0,0
3302,825.25,59.3243,62.6852,150.531,100.835,101.899,0.002026477,0.188842,20.7083,502.147,-0.0962989,0,0
3315,828.5,59.1238,61.7311,150.06,100.779,102.282,0.002246796,0.183529,20.7155,502.067,-0.135866,0,0
3328,831.75,58.2961,60.6072,157.085,100.755,101.657,0.002218711,0.17957,20.7188,501.987,-0.0817713,0,0
3341,835,57.9301,60.3857,147.438,100.716,102.71,0.00219163,0.176968,20.7201,501.927,-0.179926,0,0
3354,838.25,56.9109,59.8854,146.413,100.727,102.532,0.00214744,0.174823,20.7215,501.877,-0.163034,0,0
3367,841.5,57.7591,60.0472,150.157,100.685,101.913,0.002286571,0.173178,20.7238,501.847,-0.111204,0,0
3380,844.75,56.7035,59.5694,149.892,100.657,101.607,0.002357844,0.171395,20.7262,501.787,-0.0862318,0,0
3393,848,56.2209,58.6401,149.002,100.648,102.271,0.002253076,0.169352,20.7297,501.697,-0.146763,0,0
3406,851.25,55.6961,57.7965,152.962,100.641,102.193,0.002265578,0.167314,20.7327,501.647,-0.140355,0,0
3419,854.5,54.7258,57.1909,151.573,100.706,101.915,0.002438493,0.165411,20.7346,501.627,-0.109516,0,0
3432,857.75,54.7561,56.9018,150.93,100.808,101.813,0.002486753,0.163976,20.7347,501.587,-0.0910253,0,0
3445,861,54.5706,56.1816,149.615,100.902,102.225,0.002506491,0.163421,20.7339,501.507,-0.119464,0,0
3458,864.25,54.7019,57.2747,150.969,100.992,102.949,0.002497685,0.163053,20.7347,501.456,-0.176066,0,0
3471,867.5,54.9242,56.6204,153.537,101.061,101.708,0.002387032,0.162183,20.7356,501.386,-0.0585442,0,0
3484,870.75,53.6237,56.2966,149.895,101.16,102.918,0.002397345,0.162242,20.7337,501.336,-0.15804,0,0
3497,874,53.8811,56.3636,149.613,101.234,102.255,0.002417688,0.1641,20.7275,501.266,-0.092023,0,0
3510,877.25,53.8518,55.5386,151.55,101.311,102.169,0.0024074,0.166099,20.7245,501.226,-0.07738255,0,0
3523,880.5,53.8874,55.3561,152.376,101.385,102.368,0.002425273,0.167265,20.7237,501.176,-0.0885007,0,0
3536,883.75,53.6387,55.7105,150.073,101.444,102.109,0.002567072,0.167457,20.7256,501.146,-0.0600025,0,0
3549,887,52.7608,55.5235,150.375,101.485,102.518,0.002742918,0.166375,20.7278,501.096,-0.0929296,0,0
3562,890.25,52.7618,55.0955,150.078,101.504,102.694,0.002772742,0.164581,20.7306,501.046,-0.106943,0,0
3575,893.5,52.266,54.8319,151.07,101.547,102.891,0.002772522,0.162184,20.7346,500.996,-0.120648,0,0
3588,896.75,52.0984,54.6306,154.209,101.555,102.423,0.002947513,0.160023,20.7372,501.006,-0.0780969,0,0
3601,900,51.7561,54.4687,150.475,101.562,103.227,0.002919402,0.159161,20.7364,500.986,-0.149196,0,0
3614,903.25,51.8914,54.1039,153.784,101.582,102.693,0.00266028,0.159635,20.7346,500.896,-0.0998579,0,0
3627,906.5,51.8645,54.4015,151.034,101.602,102.721,0.002599215,0.161385,20.7309,500.856,-0.10048,0,0
3640,909.75,52.0428,54.5441,154.598,101.592,102.692,0.002849637,0.163308,20.7296,500.786,-0.0987914,0,0
3653,913,51.7404,54.2215,149.935,101.59,102.302,0.003124523,0.164498,20.7277,500.706,-0.0640751,0,0
3666,916.25,51.5985,53.7905,152.708,101.589,102.138,0.003229966,0.165006,20.7277,500.716,-0.0495209,0,0
3679,919.5,51.0839,53.7667,149.03,101.566,102.251,0.003122669,0.165237,20.7292,500.656,-0.0616773,0,0
3692,922.75,50.9113,53.4866,151.798,101.541,102.568,0.003115895,0.164715,20.7296,500.586,-0.0923915,0,0
3705,926,51.386,53.518,146.736,101.521,102.74,0.003439525,0.163978,20.732,500.576,-0.109583,0,0
3718,929.25,51.0736,53.2635,154.342,101.489,102.158,0.00356212,0.162164,20.7355,500.526,-0.0602755,0,0
3731,932.5,50.9536,53.6602,152.737,101.432,102.534,0.003642329,0.161469,20.7348,500.466,-0.0991458,0,0
3744,935.75,50.6045,53.1036,150.985,101.378,102.478,0.003744682,0.160975,20.7345,500.436,-0.0990009,0,0
3757,939,50.0007,53.0056,146.329,101.348,102.363,0.003573762,0.159725,20.7372,500.406,-0.0914501,0,0
3770,942.25,50.0468,52.8568,153.971,101.267,102.164,0.003301298,0.158552,20.7391,500.365,-0.0809309,0,0
3783,945.5,50.3585,52.6439,151.382,101.207,102.175,0.003153441,0.157093,20.7397,500.295,-0.087388,0,0
3796,948.75,50.2701,52.594,149.292,101.148,101.9,0.003082046,0.157052,20.7399,500.255,-0.0679269,0,0
3809,952,49.34,52.4259,153.082,101.08,101.941,0.003325974,0.157114,20.7399,500.225,-0.0778795,0,0
3822,955.25,48.9691,51.4958,154.364,101.074,101.621,0.003702006,0.157102,20.7399,500.205,-0.0495116,0,0
3835,958.5,49.5148,52.4321,149.128,101.096,101.861,0.00382813,0.15732,20.7399,500.125,-0.0691601,0,0
3848,961.75,49.2126,52.1364,154.062,101.144,102.124,0.003723949,0.157555,20.7399,500.075,-0.0884615,0,0
3861,965,48.8204,51.9473,152.695,101.148,101.715,0.003691519,0.157419,20.7414,500.055,-0.0513281,0,0
3874,968.25,49.1135,51.8188,155.454,101.166,101.581,0.003794175,0.156957,20.743,500.015,-0.0375607,0,0
3887,971.5,49.1292,52.1979,151.469,101.222,102.026,0.003734552,0.156049,20.7441,500.015,-0.0726072,0,0
3900,974.75,48.9751,52.0115,157.279,101.243,101.835,0.003583929,0.155767,20.7431,499.945,-0.053492,0,0
3913,978,49.4579,52.1272,148.639,101.26,102.03,0.003692161,0.156012,20.7413,499.905,-0.0695266,0,0
3926,981.25,48.5341,51.9377,154.924,101.291,101.912,0.003866054,0.156524,20.7415,499.825,-0.0560192,0,0
3939,984.5,48.4498,51.4932,156.794,101.331,102.493,0.003961242,0.156274,20.7427,499.765,-0.104572,0,0
3952,987.75,48.0578,51.591,156.909,101.355,102.863,0.003933867,0.155624,20.7427,499.775,-0.135563,0,0
3965,991,48.5678,51.6878,150.772,101.39,102.061,0.00386676,0.155263,20.7425,499.755,-0.0605486,0,0
3978,994.25,48.1051,51.4595,150.602,101.438,102.313,0.003906553,0.156032,20.7411,499.705,-0.0788162,0,0
3991,997.5,47.8525,51.48666,152.915,101.475,102.218,0.003933719,0.157204,20.7403,499.655,-0.0669076,0,0
4004,1000.75,48.0518,51.7254,154.056,101.51,102.454,0.004091625,0.157838,20.7401,499.645,-0.0848903,0,0
4017,1004,48.2354,51.458,149.855,101.561,102.268,0.00427998,0.158897,20.7386,499.595,-0.0635888,0,0
4030,1007.25,48.3818,52.1122,153.253,101.594,102.328,0.004283441,0.161112,20.7356,499.535,-0.0660509,0,0
4043,1010.5,48.2482,51.3893,152.691,101.626,102.97,0.004120914,0.161985,20.7351,499.515,-0.120581,0,0
4056,1013.75,48.182,51.6676,152.784,101.664,102.17,0.004308545,0.161727,20.7375,499.465,-0.0455801,0,0
4069,1017,48.5596,52.1404,151.254,101.7,102.497,0.004287881,0.160483,20.7403,499.425,-0.0716717,0,0
4082,1020.25,48.0189,51.8565,150.634,101.713,102.872,0.00420127,0.160138,20.7399,499.405,-0.10396,0,0
4095,1023.5,48.5366,51.7822,151.707,101.742,102.415,0.004241262,0.161678,20.7342,499.335,-0.0604759,0,0
4108,1026.75,48.077,51.3546,151.365,101.781,102.186,0.004303123,0.163141,20.7341,499.305,-0.0364695,0,0
4121,1030,48.3114,51.6549,148.795,101.792,102.458,0.004431355,0.16299,20.7362,499.264,-0.05984832,0,0
4134,1033.25,47.4337,51.168,150.429,101.813,102.595,0.004545342,0.162612,20.7367,499.244,-0.070162,0,0
4147,1036.5,47.6303,51.0611,152.387,101.84,102.541,0.004433917,0.162932,20.7354,499.214,-0.0629758,0,0
4160,1039.75,47.7698,51.4249,153.185,101.856,102.326,0.004440495,0.162852,20.7356,499.184,-0.0422673,0,0
4173,1043,47.0823,51.2282,154.074,101.868,102.66,0.004688355,0.161196,20.7407,499.124,-0.07110782,0,0
4186,1046.25,47.6874,51.3353,152.835,101.875,102.582,0.004543869,0.160178,20.7403,499.104,-0.063412,0,0
4199,1049.5,47.9472,51.4374,149.776,101.9,102.95,0.004584266,0.161009,20.7393,499.064,-0.0940562,0,0
4212,1052.75,47.4774,51.2765,151.595,101.9,102.592,0.004620222,0.161434,20.7391,498.974,-0.0621002,0,0
4225,1056,47.1049,50.6327,149.579,101.905,102.755,0.004782171,0.160841,20.7391,498.974,-0.0761934,0,0
4238,1059.25,47.5383,51.1229,153.743,101.913,102.652,0.004868798,0.160958,20.7387,498.934,-0.0662619,0,0
4251,1062.5,47.627,50.9987,151.366,101.912,102.678,0.00490932,0.162116,20.7378,498.884,-0.0687297,0,0
4264,1065.75,47.5623,50.9593,158.134,101.885,102.564,0.005023152,0.162468,20.7379,498.864,-0.06094116,0,0
4277,1069,47.548,51.2863,154.161,101.897,102.351,0.004999572,0.161708,20.7412,498.804,-0.0407905,0,0
4290,1072.25,47.0151,50.6114,158.681,101.893,102.547,0.004986425,0.160199,20.7443,498.804,-0.0586934,0,0
4303,1075.5,47.2649,50.7704,151.929,101.86,102.514,0.005069141,0.159063,20.7451,498.754,-0.0587138,0,0
4316,1078.75,46.7858,50.4566,151.508,101.831,102.401,0.005048408,0.159182,20.7453,498.744,-0.0511867,0,0
4329,1082,47.0961,50.5903,150.35,101.83,102.694,0.005208101,0.160303,20.7419,498.684,-0.0774785,0,0
4342,1085.25,47.1629,50.8062,152.113,101.802,102.748,0.005537407,0.161367,20.7393,498.674,-0.0849339,0,0
4355,1088.5,46.4208,50.385,149.963,101.784,102.711,0.005767326,0.161069,20.7399,498.634,-0.0831886,0,0
4368,1091.75,46.7379,50.7474,152.184,101.77,102.676,0.005875171,0.159726,20.7418,498.564,-0.0813172,0,0
4381,1095,46.7814,50.4153,153.905,101.754,102.286,0.00597161,0.157919,20.745,498.524,-0.0478598,0,0
4394,1098.25,46.671,50.0213,154.416,101.726,102.397,0.005951731,0.156333,20.7465,498.494,-0.0603355,0,0
4407,1101.5,46.2085,50.0641,151.192,101.691,102.136,0.0057342,0.154959,20.7486,498.504,-0.040028,0,0
4420,1104.75,46.5268,50.1377,158.631,101.671,102.349,0.005580013,0.154258,20.7482,498.444,-0.0610469,0,0
4433,1108,46.423,50.2708,152.095,101.616,102.196,0.005759806,0.153416,20.7488,498.384,-0.0522191,0,0
4446,1111.25,46.5673,50.1426,153.573,101.575,102.473,0.005875758,0.152412,20.7489,498.344,-0.0807682,0,0
4459,1114.5,46.174,50.0329,153.52,101.536,102.343,0.006041215,0.151939,20.749,498.284,-0.07267499,0,0
4472,1117.75,46.3475,49.8243,153.194,101.467,102.013,0.005940577,0.151987,20.7494,498.264,-0.0492894,0,0
4485,1121,46.4037,50.2309,153.369,101.428,102.462,0.005865635,0.151867,20.7508,498.254,-0.0930804,0,0
4498,1124.25,45.903,49.2507,149.289,101.385,102.143,0.006124364,0.151582,20.7512,498.193,-0.0683804,0,0
4511,1127.5,46.0994,49.5724,150.521,101.363,102.007,0.006285733,0.151368,20.7521,498.163,-0.0580951,0,0
4524,1130.75,45.5694,49.566,152.765,101.302,102.046,0.006302884,0.151278,20.7527,498.153,-0.0670938,0,0
4537,1134,45.8614,49.4326,157.222,101.264,101.939,0.006099272,0.150853,20.7529,498.073,-0.0609032,0,0
4550,1137.25,45.511,49.6779,157.725,101.214,101.985,0.006216018,0.15065,20.753,498.083,-0.0696969,0,0
4563,1140.5,45.4858,49.4545,150.606,101.163,101.731,0.00657663,0.150662,20.753,498.063,-0.0513622,0,0
4576,1143.75,45.4404,49.5288,155.596,101.121,102.139,0.006795434,0.150937,20.753,497.993,-0.0919683,0,0
4589,1147,45.5136,49.0559,154.303,101.092,101.624,0.006789183,0.150883,20.7539,497.963,-0.0481479,0,0
4602,1150.25,45.4007,49.0753,151.314,101.066,101.872,0.006627714,0.150663,20.7546,497.923,-0.0729424,0,0
4615,1153.5,45.7841,49.357,154.26,101.034,101.714,0.006379278,0.150879,20.7529,497.863,-0.0616085,0,0
4628,1156.75,45.7371,49.2806,152.807,100.977,101.498,0.006463825,0.150501,20.7529,497.833,-0.04725945,0,0
4641,1160,45.3556,49.0658,151.895,100.962,101.206,0.006651361,0.150597,20.7526,497.793,-0.0221636,0,0
4654,1163.25,45.3447,48.8773,153.262,100.911,101.588,0.006745214,0.15067,20.754,497.773,-0.06136512,0,0
4667,1166.5,45.2906,49.3679,152.396,100.882,101.531,0.006776958,0.150273,20.7545,497.713,-0.0589037,0,0
4680,1169.75,45.1761,49.2478,155.312,100.858,101.62,0.006667252,0.1504,20.7546,497.673,-0.0690493,0,0
4693,1173,45.7334,49.6985,156.357,100.829,101.249,0.006582505,0.150678,20.7546,497.663,-0.0381505,0,0
4706,1176.25,45.1348,49.0455,154.072,100.81,101.679,0.006776037,0.150974,20.7526,497.633,-0.0788024,0,0
4719,1179.5,45.2678,49.2077,154.861,100.793,101.68,0.006973516,0.151024,20.7531,497.613,-0.0803863,0,0
4732,1182.75,45.1012,48.84,152.357,100.777,101.24,0.007119048,0.150809,20.7536,497.583,-0.0420514,0,0
4745,1186,45.5044,49.0203,152.455,100.74,101.449,0.00723819,0.150448,20.7538,497.503,-0.0643747,0,0
4758,1189.25,44.9805,48.7481,157.211,100.7,101.366,0.00750655,0.150128,20.7544,497.473,-0.0605007,0,0
4771,1192.5,45.056,48.7596,152.82,100.698,101.556,0.007546464,0.149692,20.7546,497.453,-0.0778861,0,0
4784,1195.75,44.6093,48.9654,153.598,100.669,101.384,0.007467287,0.149599,20.7546,497.433,-0.0649332,0,0
4797,1199,44.8414,49.1451,153.111,100.653,101.386,0.007371897,0.149666,20.7552,497.373,-0.06662,0,0
4810,1202.25,44.3349,48.1279,153.745,100.637,101.211,0.00727852,0.149957,20.7558,497.363,-0.0522752,0,0
4823,1205.5,45.1185,48.936,157.53,100.625,101.448,0.007195913,0.149773,20.7559,497.283,-0.0747348,0,0
4836,1208.75,45.4069,49.1392,153.213,100.574,101.069,0.007367312,0.149386,20.7562,497.283,-0.0450623,0,0
4849,1212,44.9698,49.3322,152.416,100.545,100.826,0.007726975,0.149603,20.7549,497.263,-0.0256545,0,0
4862,1215.25,44.4758,48.8191,156.214,100.521,100.711,0.007859478,0.149408,20.7546,497.223,-0.01732588,0,0
4875,1218.5,45.2708,49.2754,150.23,100.469,101.168,0.008102711,0.149355,20.7545,497.163,-0.0636389,0,0
4888,1221.75,45.1611,48.7605,150.41,100.443,100.931,0.008167389,0.149778,20.7541,497.113,-0.044499,0,0
4901,1225,44.4557,48.8593,155.55,100.421,100.971,0.008058967,0.150018,20.7522,497.113,-0.0501737,0,0
4914,1228.25,44.7858,48.7285,158.073,100.378,100.929,0.008115945,0.150665,20.7515,497.092,-0.05026605,0,0
4927,1231.5,44.7962,48.9475,154.72,100.348,100.727,0.008225459,0.151894,20.7483,497.062,-0.0346505,0,0
4940,1234.75,44.2963,48.6298,149.512,100.323,100.786,0.008123542,0.154348,20.7432,497.022,-0.0422228,0,0
4953,1238,44.6778,48.6178,154.3,100.294,100.943,0.007942148,0.156783,20.7406,497.002,-0.0591712,0,0
4966,1241.25,44.9341,48.6322,150.773,100.263,100.846,0.008003619,0.157949,20.7409,496.842,-0.0532296,0,0
4979,1244.5,44.939,48.7229,160.094,100.234,100.527,0.008363109,0.157943,20.7416,496.922,-0.0267564,0,0
4992,1247.75,44.8831,49.2562,154.468,100.223,101.102,0.008352034,0.158401,20.7414,496.882,-0.0800768,0,0
5005,1251,44.3907,48.647,154.545,100.213,101.015,0.008279805,0.158693,20.741,496.822,-0.0731017,0,0
5018,1254.25,44.1382,48.2694,156.776,100.19,100.749,0.008183774,0.157738,20.7439,496.792,-0.0510833,0,0
5031,1257.5,44.0731,48.2694,154.755,100.179,100.754,0.008214118,0.156515,20.7463,496.792,-0.0524815,0,0
5044,1260.75,44.63,48.511,151.824,100.176,100.837,0.008298231,0.154842,20.7495,496.732,-0.0604,0,0
5057,1264,44.7191,48.3171,153.65,100.154,100.637,0.008326368,0.15283,20.7532,496.682,-0.0442022,0,0
5070,1267.25,44.0422,47.8569,151.985,100.148,100.417,0.008141974,0.150962,20.7548,496.672,-0.0245971,0,0
5083,1270.5,44.3224,48.0917,153.524,100.158,100.944,0.008073273,0.149966,20.7561,496.622,-0.0717467,0,0
5096,1273.75,44.679,48.5288,156.364,100.133,100.718,0.008553741,0.151183,20.7532,496.582,-0.0533936,0,0
5109,1277,44.2208,48.4642,151.39,100.124,100.736,0.008826807,0.153108,20.7508,496.542,-0.0559713,0,0
5122,1280.25,44.8945,48.5808,156.534,100.121,100.657,0.00900859,0.153215,20.7523,496.542,-0.0489897,0,0
5135,1283.5,44.7963,48.4297,159.76,100.127,100.748,0.008871393,0.152036,20.7538,496.472,-0.0567775,0,0
5148,1286.75,44.0985,48.0285,154.414,100.106,100.561,0.008767206,0.150425,20.7552,496.442,-0.0416849,0,0
5161,1290,44.0978,48.0781,157.901,100.1,100.425,0.008972553,0.149268,20.7556,496.452,-0.0297667,0,0
5174,1293.25,43.7452,47.9903,152.804,100.102,100.772,0.008942059,0.148517,20.7574,496.382,-0.0612154,0,0
5187,1296.5,44.0118,48.2235,153.927,100.099,100.611,0.008626815,0.148316,20.7576,496.342,-0.0467383,0,0
5200,1299.75,44.1088,48.7228,152.792,100.088,100.772,0.008475561,0.147967,20.758,496.322,-0.0625,0,0
5213,1303,43.7987,47.9222,151.714,100.097,100.794,0.008694096,0.147465,20.7592,496.312,-0.0636912,0,0
5226,1306.25,44.2815,48.4893,151.046,100.091,100.678,0.008819202,0.14716,20.7594,496.272,-0.0536345,0,0
5239,1309.5,44.2864,48.2366,159.081,100.075,100.513,0.008958815,0.147004,20.7607,496.222,-0.0400758,0,0
5252,1312.75,43.568,47.427,154.78,100.088,100.807,0.008994144,0.146258,20.7624,496.202,-0.0656769,0,0
5265,1316,43.3768,47.3637,159.99,100.086,100.437,0.008873721,0.14518,20.7629,496.282,-0.03210894,0,0
5278,1319.25,43.8615,47.8141,151.311,100.083,100.675,0.009080511,0.145713,20.7626,496.182,-0.0541594,0,0
5291,1322.5,43.3719,46.7988,157.815,100.059,100.665,0.00902771,0.14639,20.7626,495.811,-0.0554271,0,0
5304,1325.75,43.6088,47.2796,152.407,100.086,100.315,0.009246812,0.147029,20.7611,496.112,-0.020992,0,0
5317,1329,44.1031,48.0064,156.212,100.074,100.324,0.009245429,0.147215,20.7612,496.052,-0.0229142,0,0
5330,1332.25,44.0041,48.0262,152.716,100.067,100.916,0.00901122,0.147155,20.7622,496.022,-0.077569,0,0
5343,1335.5,44.2234,48.3234,155.776,100.072,100.663,0.008806475,0.147286,20.7625,495.921,-0.0540785,0,0
5356,1338.75,43.9795,48.1705,151.172,100.077,100.537,0.008935507,0.147844,20.7618,495.891,-0.0420239,0,0
5369,1342,44.1124,48.2645,151.779,100.079,100.625,0.009181758,0.148332,20.7619,495.851,-0.0499685,0,0
5382,1345.25,43.9632,47.8995,155.609,100.084,101.019,0.009192617,0.148202,20.7619,495.821,-0.0852905,0,0
5395,1348.5,44.2787,48.0912,153.027,100.096,100.754,0.009008063,0.147492,20.7631,495.791,-0.0601192,0,0
5408,1351.75,44.0624,48.0445,151.145,100.094,100.745,0.009088961,0.146833,20.7623,495.771,-0.0594767,0,0
5421,1355,43.9268,48.0766,154.961,100.09,100.74,0.009375033,0.14674,20.762,495.731,-0.0593931,0,0
5434,1358.25,43.8331,48.1193,153.081,100.11,100.364,0.009624914,0.146887,20.7604,495.701,-0.0232053,0,0
5447,1361.5,43.7133,47.8564,154.5,100.111,100.606,0.009627526,0.147573,20.7589,495.681,-0.0452261,0,0
5460,1364.75,44.2461,47.8174,157.347,100.113,100.519,0.00956982,0.14859,20.7582,495.631,-0.0371543,0,0
5473,1368,43.9746,48.0398,156.927,100.148,100.828,0.009505819,0.148983,20.758,495.601,-0.0620534,0,0
5486,1371.25,43.8208,47.925,158.596,100.133,100.786,0.009441934,0.148792,20.7589,495.581,-0.0596199,0,0
5499,1374.5,44.0211,48.141,156.402,100.146,101.056,0.009352534,0.149086,20.7586,495.551,-0.083023,0,0
5512,1377.75,43.7511,47.9029,152.312,100.147,101.11,0.009024426,0.149429,20.7581,495.531,-0.08783526,0,0
5525,1381,43.8313,48.091,156.502,100.167,101.137,0.009039909,0.149529,20.7579,495.481,-0.0884322,0,0
5538,1384.25,44.2172,48.6517,149.785,100.146,100.472,0.009362455,0.14947,20.7578,495.411,-0.0297974,0,0
5551,1387.5,43.48069,48.0644,155.743,100.158,100.5,0.009517537,0.149225,20.7574,495.361,-0.0312023,0,0
5564,1390.75,43.5075,47.958,150.969,100.171,100.683,0.009272422,0.148405,20.7573,495.391,-0.0467768,0,0
5577,1394,43.988,48.1231,154.187,100.165,100.586,0.009075919,0.147801,20.7581,495.361,-0.0384279,0,0
5590,1397.25,43.3585,47.6496,158.752,100.162,100.538,0.009164406,0.146911,20.7598,495.291,-0.0343343,0,0
5603,1400.5,43.4351,47.3438,154.729,100.173,100.681,0.009609411,0.146795,20.7603,495.291,-0.046403,0,0
5616,1403.75,43.0698,47.6684,153.441,100.182,100.953,0.009774348,0.146418,20.7604,495.241,-0.0703946,0,0
5629,1407,43.0658,47.3134,155.09,100.204,100.604,0.009822056,0.145973,20.7593,495.201,-0.0365821,0,0
5642,1410.25,43.8074,47.3611,154.745,100.19,100.805,0.009813008,0.146146,20.7582,495.201,-0.056209,0,0
5655,1413.5,42.6846,46.9305,157.042,100.202,100.669,0.009836229,0.146192,20.7569,495.171,-0.0426596,0,0
5668,1416.75,43.5642,47.2667,152.269,100.193,100.613,0.0100111,0.146472,20.7559,495.111,-0.038396,0,0
5681,1420,42.837,47.7415,152.212,100.191,100.662,0.0100114,0.146658,20.7559,495.061,-0.042986,0,0
5694,1423.25,43.4845,46.6731,156.157,100.204,100.936,0.009879318,0.146984,20.7574,495.031,-0.0667423,0,0
5707,1426.5,43.3861,47.6682,154.468,100.208,100.758,0.009908718,0.146925,20.7578,495.011,-0.0502545,0,0
5720,1429.75,42.9445,47.3614,159.29,100.209,100.64,0.009719516,0.146813,20.7579,494.941,-0.0393831,0,0
5733,1433,43.1793,47.3704,151.801,100.221,100.691,0.009614008,0.146775,20.7567,494.921,-0.0428646,0,0
5746,1436.25,43.0407,47.8097,155.561,100.217,100.657,0.009755337,0.146814,20.7554,494.891,-0.040229,0,0
5759,1439.5,43.3807,47.7103,155.789,100.208,100.741,0.009792012,0.146924,20.755,494.901,-0.048684,0,0
5772,1442.75,42.9395,47.4498,155.038,100.206,100.53,0.009769107,0.147079,20.755,494.83,-0.029685,0,0
5785,1446,42.9055,47.2841,151.111,100.214,100.714,0.00984167,0.147315,20.756,494.82,-0.0457071,0,0
5798,1449.25,43.3943,46.8247,154.838,100.221,100.705,0.0100899,0.146955,20.758,494.76,-0.0441961,0,0
5811,1452.5,43.4254,46.9283,153.616,100.219,100.597,0.0102197,0.14656,20.7592,494.71,-0.0345753,0,0
5824,1455.75,43.271,46.9877,154.429,100.217,101.095,0.0104335,0.1461467,20.7596,494.68,-0.0799985,0,0
5837,1459,43.1588,46.9024,154.402,100.226,100.777,0.0102597,0.146025,20.7583,494.65,-0.0503106,0,0
5850,1462.25,43.0993,47.5112,156.447,100.231,100.81,0.00987058,0.146042,20.758,494.59,-0.0528495,0,0
5863,1465.5,43.0054,47.7271,153.458,100.238,100.388,0.009929628,0.145965,20.7579,494.57,-0.0137631,0,0
5876,1468.75,42.8209,46.9028,151.856,100.267,100.798,0.01035021,0.145854,20.7579,494.54,-0.0484597,0,0
5889,1472,42.4526,47.4608,160.049,100.27,100.562,0.0105219,0.145998,20.7579,494.51,-0.02675147,0,0
5902,1475.25,43.2279,47.0721,152.317,100.273,100.456,0.0103749,0.145943,20.7579,494.49,-0.0168119,0,0
5915,1478.5,42.6862,47.461,151.728,100.296,100.62,0.010436,0.14543,20.7585,494.48,-0.0296487,0,0
5928,1481.75,43.1615,47.4385,150.152,100.315,100.755,0.0104026,0.14576,20.7604,494.39,-0.0401686,0,0
5941,1485,42.7626,47.4112,147.324,100.299,101.106,0.0105155,0.14542,20.7624,494.38,-0.0735791,0,0
5954,1488.25,42.5449,47.5705,152.422,100.33,100.879,0.0105845,0.145198,20.7631,494.33,-0.0500351,0,0
5967,1491.5,42.8812,47.473,151.736,100.352,100.818,0.010767,0.145179,20.7619,494.31,-0.0425388,0,0
5980,1494.75,43.1313,47.4572,155.664,100.358,100.949,0.0109443,0.145254,20.7606,494.28,-0.0538348,0,0
5993,1498,42.8416,47.3522,151.097,100.367,100.884,,0.145403,,494.26,-0.0472254,0,0
6006,1501.25,42.6228,47.2764,153.232,100.386,101.074,,,,494.23,-0.0626503,0,0
6019,1504.5,43.0684,46.9738,155.969,100.395,100.721,,,,494.17,-0.0297536,0,0
6026,1506.25,42.6833,46.9529,155.1,100.433,100.865,,,,494.2,-0.0394072,0,0