File: 01_Data/MDF/Cone/MDF_Cone_HF50Scan_210326_R3.csv
Names,Time,Stack TC,Smoke TC,Exh Press,Smoke Comp,Smoke Meas,CO Meter,CO2 Meter,O2 Meter,Sample Mass,Ext Coeff,Start Test,Flame Verif
Chan Gain,,500,500,1,1,1,1,1,1,1,1,1,1
Offset,,0,0,0.138348,0,0,0,0,0,0,0,0,0
Gain,,1,1,25.011,13.5067,16.616,1,1,1,1.00091,1.04608,1,1
Units,sec,C,C,Pa,%,%,%,%,%,g,/m,,
Baseline,,31.6303,33.8686,159.053,100.408,97.2257,-0.001018408,0.0636411,20.9277,0.000750681,0.29553,,
10,2.25,28.2106,29.8074,158.763,100.451,97.1553,-0.000859228,0.0769202,20.912,624.178,0.306108,0,0
20,4.75,28.9898,29.9249,159.971,100.464,97.4281,-0.000807041,0.0754296,20.9129,624.088,0.281583,0,0
30,7.25,28.7189,30.452,158.709,100.454,97.1594,-0.000806806,0.0729483,20.9167,624.028,0.305987,0,0
40,9.75,29.0441,31.0863,153.333,100.453,97.2456,-0.000864416,0.0704682,20.9198,623.978,0.297774,0,0
50,12.25,29.3329,30.931,157.973,100.447,96.6782,-0.000903571,0.06808985,20.9241,623.898,0.350947,0,0
60,14.75,29.1794,31.8076,156.624,100.466,96.4393,-0.000939804,0.0662971,20.9267,623.858,0.375376,0,0
70,17.25,29.1801,32.376,155.05,100.455,96.274,-0.001130053,0.0651374,20.9276,623.808,0.390063,0,0
80,19.75,29.3151,31.8616,157.745,100.465,96.1574,-0.001136794,0.0647062,20.9265,623.778,0.402165,0,0
90,22.25,29.3509,31.7202,157.614,100.454,95.7583,-0.000915317,0.0649357,20.926,623.708,0.439273,0,0
100,24.75,29.3838,31.8568,158.275,100.461,95.4231,-0.000511523,0.0658874,20.9249,623.648,0.472126,0,0
110,27.25,29.7321,32.0015,161.67,100.444,94.6798,-1.929E-05,0.0695975,20.9196,623.558,0.542272,0,0
120,29.75,30.2383,32.2093,155.797,100.444,93.7457,0.000369716,0.0779452,20.909,623.387,0.633283,0,0
130,32.25,30.6177,33.7644,147.883,100.4403,97.4185,0.000696814,0.136134,20.8197,623.117,0.280305,0,1
140,34.75,33.2811,38.6614,135.269,100.425,96.0529,0.001310323,0.273901,20.6349,622.667,0.408448,0,1
150,37.25,36.742,44.843,134.994,100.426,95.2695,0.00217366,0.406255,20.4725,622.216,0.483674,0,1
160,39.75,40.5997,49.7922,138.077,100.42,94.2772,0.002809209,0.515767,20.3403,621.726,0.57923,0,0
170,42.25,44.022,55.1164,139.166,100.433,94.7761,0.003243941,0.593325,20.258,621.195,0.531997,0,0
180,44.75,45.8864,59.1945,137.654,100.412,94.2437,0.003531334,0.64079,20.2169,620.645,0.581734,0,0
190,47.25,49.2614,63.1982,138.672,100.419,94.555,0.003818191,0.667987,20.1901,620.114,0.55211,0,0
200,49.75,51.1356,66.1736,134.319,100.404,93.4689,0.00412684,0.684676,20.1805,619.594,0.656808,0,0
210,52.25,52.9218,68.8676,138.022,100.411,91.7686,0.004279432,0.687978,20.1823,619.084,0.825903,0,0
220,54.75,54.4721,70.7873,134.125,100.406,91.0506,0.004414266,0.685164,20.1896,618.563,0.897454,0,0
230,57.25,56.2475,72.2956,141.715,100.423,92.5232,0.004676641,0.679473,20.1973,618.083,0.75178,0,0
240,59.75,56.7853,73.8179,138.562,100.415,90.2814,0.005023807,0.673163,20.2066,617.562,0.976137,0,0
250,62.25,57.8924,75.1638,135.931,100.414,92.8888,0.00524329,0.664161,20.2211,617.062,0.714764,0,0
260,64.75,58.3732,75.782,138.554,100.416,89.5147,0.005318785,0.650908,20.2386,616.591,1.05455,0,0
270,67.25,58.6794,76.4111,138.426,100.418,91.72,0.005324595,0.638531,20.2523,616.101,0.831412,0,0
280,69.75,59.6545,76.9049,138.301,100.409,90.8731,0.005291855,0.628167,20.2664,615.61,0.915659,0,0
290,72.25,59.8696,76.8201,142.958,100.392,90.4244,0.00522632,0.615812,20.2836,615.13,0.959541,0,0
300,74.75,60.1169,77.1578,137.625,100.407,89.6394,0.005223608,0.602634,20.3025,614.71,1.0409,0,0
310,77.25,60.4444,76.6248,138.049,100.398,89.2368,0.005219675,0.590006,20.3166,614.269,1.08142,0,0
320,79.75,60.4727,76.1791,134.934,100.423,91.1525,0.005150668,0.579187,20.329,613.809,0.888808,0,0
330,82.25,60.556,76.33,142.81,100.409,90.8336,0.005015702,0.568655,20.3426,613.398,0.919692,0,0
340,84.75,59.7722,76.5003,139.625,100.427,90.7139,0.005066516,0.555341,20.3616,612.978,0.933408,0,0
350,87.25,60.1265,76.0118,134.811,100.427,90.4142,0.005029417,0.542509,20.376,612.508,0.963773,0,0
360,89.75,60.1805,75.5494,141.721,100.426,91.2702,0.004902388,0.534689,20.3842,612.107,0.877199,0,0
370,92.25,60.1246,75.2357,143.018,100.436,92.4141,0.004815865,0.52726,20.3945,611.687,0.763842,0,0
380,94.75,60.2916,75.04,140.521,100.439,91.8756,0.00461911,0.519487,20.4022,611.276,0.817696,0,0
390,97.25,59.9202,74.5686,136.588,100.45,91.7681,0.004450385,0.510591,20.4152,610.856,0.829494,0,0
400,99.75,59.5458,74.449,139.203,100.441,92.4679,0.004338291,0.501909,20.424,610.476,0.758958,0,0
410,102.25,59.8717,74.2782,141.818,100.468,92.0866,0.004272632,0.494575,20.432,610.095,0.799288,0,0
420,104.75,59.3231,73.3457,145.091,100.463,92.261,0.004263327,0.486879,20.4429,609.675,0.781546,0,0
430,107.25,59.6078,73.2248,140.334,100.499,92.4223,0.004245181,0.476929,20.4537,609.275,0.768797,0,0
440,109.75,59.0957,73.4373,139.406,100.477,92.4177,0.004218459,0.470986,20.4602,608.944,0.767256,0,0
450,112.25,59.2687,71.8734,142.156,100.508,92.3056,0.004223507,0.463769,20.4706,608.614,0.781211,0,0
460,114.75,59.3829,71.77,135.001,100.488,91.69,0.004136523,0.458004,20.4755,608.244,0.840769,0,0
470,117.25,59.5544,71.1067,142.143,100.502,93.1251,0.003805901,0.454714,20.4802,607.853,0.699546,0,0
480,119.75,58.9786,71.2748,140.284,100.495,92.7336,0.003628889,0.449568,20.4867,607.473,0.737523,0,0
490,122.25,59.0165,70.802,142.469,100.509,92.9395,0.003588836,0.443805,20.4922,607.093,0.718454,0,0
500,124.75,58.8144,70.9997,141.926,100.509,92.6226,0.003475315,0.437948,20.4981,606.742,0.749798,0,0
510,127.25,59.0216,70.7721,143.202,100.531,93.5414,0.003356733,0.433374,20.5026,606.362,0.66125,0,0
520,129.75,58.8643,69.967,139.668,100.527,93.7736,0.003282588,0.429001,20.5063,606.002,0.638158,0,0
530,132.25,59.0584,69.939,138.596,100.524,94.0728,0.003225912,0.42746,20.5093,605.661,0.608628,0,0
540,134.75,58.7235,69.5289,142.399,100.527,93.6986,0.003131951,0.424085,20.5133,605.271,0.645504,0,0
550,137.25,58.864,69.6484,140.633,100.538,95.305,0.003186765,0.421632,20.5156,604.961,0.490533,0,0
560,139.75,58.6876,69.3582,143.061,100.532,94.2422,0.003113596,0.418239,20.5211,604.6,0.592874,0,0
570,142.25,58.3971,68.9572,142.671,100.527,94.7208,0.002916932,0.412764,20.5271,604.28,0.545896,0,0
580,144.75,58.3918,68.5571,144.263,100.548,94.6504,0.002799618,0.409043,20.5302,603.95,0.554644,0,0
590,147.25,58.5554,68.55,142.517,100.538,94.3948,0.002684444,0.406935,20.5317,603.619,0.57859,0,0
600,149.75,58.4611,68.0334,144.791,100.56,94.3005,0.0026319,0.404536,20.5344,603.249,0.589719,0,0
610,152.25,58.5027,68.3112,140.94,100.552,95.4744,0.002629681,0.402728,20.5352,602.939,0.475443,0,0
620,154.75,58.5217,68.069,138.907,100.567,94.3588,0.002611662,0.401834,20.5363,602.619,0.584722,0,0
630,157.25,58.2525,68.0001,140.342,100.545,95.2264,0.00259933,0.400414,20.5382,602.238,0.498667,0,0
640,159.75,58.3344,67.8955,147.18,100.555,95.6559,0.002701167,0.399018,20.5404,601.948,0.458315,0,0
650,162.25,58.0626,67.3618,137.666,100.55,94.4105,0.002772932,0.395382,20.5434,601.578,0.578152,0,0
660,164.75,58.1377,67.152,146.707,100.544,94.9784,0.002752409,0.394188,20.5449,601.277,0.522555,0,0
670,167.25,57.9421,67.114,142.376,100.541,94.0931,0.002633441,0.393041,20.5463,600.937,0.608191,0,0
680,169.75,57.7436,66.8471,139.69,100.527,94.9587,0.002394479,0.391071,20.5485,600.627,0.522885,0,0
690,172.25,57.8602,66.6904,139.032,100.539,95.0073,0.002157565,0.388429,20.5514,600.276,0.519273,0,0
700,174.75,57.7883,66.7054,136.334,100.514,94.9313,0.002096528,0.3864,20.5521,599.956,0.524402,0,0
710,177.25,57.6366,66.6244,144.473,100.517,95.1732,0.002145347,0.387026,20.5501,599.646,0.50124,0,0
720,179.75,57.907,66.6138,138.13,100.495,95.3937,0.002260145,0.388494,20.5486,599.316,0.478041,0,0
730,182.25,58.3173,66.5928,141.042,100.505,95.7264,0.002406942,0.386998,20.5507,598.965,0.447039,0,0
740,184.75,57.7941,66.5967,141.113,100.484,94.8735,0.002536796,0.384868,20.5522,598.655,0.527245,0,0
750,187.25,57.76,66.6344,145.887,100.488,95.3856,0.002591229,0.384508,20.552,598.305,0.478182,0,0
760,189.75,58.1217,66.4742,139.625,100.47,95.2051,0.002653499,0.383802,20.5518,597.974,0.49387,0,0
770,192.25,58.0274,66.4315,139.791,100.455,95.3162,0.00248814,0.382711,20.5528,597.654,0.481817,0,0
780,194.75,57.8175,65.9271,141.944,100.43,96.0185,0.002269092,0.380962,20.5539,597.314,0.412157,0,0
790,197.25,57.7021,66.4609,145.285,100.45,95.9875,0.002163854,0.382802,20.5522,596.993,0.416959,0,0
800,199.75,58.0481,66.7237,139.984,100.431,96.0428,0.002116065,0.385311,20.5493,596.653,0.409982,0,0
810,202.25,58.6019,66.7269,139.684,100.42,95.2168,0.002121751,0.386016,20.5494,596.323,0.488227,0,0
820,204.75,58.2184,67.0593,142.483,100.405,95.7112,0.001992401,0.383566,20.5521,596.003,0.439312,0,0
830,207.25,58.1297,66.9533,143.837,100.394,96.197,0.001731157,0.380047,20.5577,595.632,0.391839,0,0
840,209.75,58.019,66.9824,141.103,100.388,95.9541,0.00156928,0.37662,20.5622,595.322,0.414472,0,0
850,212.25,58.267,66.6042,145.888,100.376,96.2593,0.001682092,0.373556,20.5655,595.062,0.384271,0,0
860,214.75,58.2841,66.4424,142.6,100.371,96.8019,0.001861012,0.370888,20.5686,594.621,0.332204,0,0
870,217.25,58.2275,66.4403,142.741,100.36,96.6442,0.001900251,0.368333,20.571,594.331,0.346186,0,0
880,219.75,57.954,66.329,144.132,100.362,96.6543,0.001787572,0.365619,20.5729,594.021,0.345448,0,0
890,222.25,58.1193,65.9289,142.212,100.342,95.9399,0.001522105,0.361666,20.578,593.74,0.411647,0,0
900,224.75,57.9152,66.1863,148.102,100.359,96.9976,0.001338963,0.358779,20.5817,593.37,0.312576,0,0
910,227.25,57.8094,66.3642,146.554,100.35,96.7385,0.001356222,0.356124,20.5845,593.02,0.336292,0,0
920,229.75,57.942,65.6831,141.775,100.341,96.5012,0.001603656,0.352746,20.5879,592.77,0.3580769,0,0
930,232.25,57.8972,64.8647,144.604,100.338,96.4018,0.00178628,0.350502,20.5892,592.439,0.367192,0,0
940,234.75,57.7403,65.0915,147.972,100.347,96.9875,0.001685428,0.350768,20.5886,592.089,0.312443,0,0
950,237.25,57.7031,65.508,146.743,100.333,96.7958,0.001519697,0.350161,20.5884,591.819,0.329351,0,0
960,239.75,57.8805,65.2444,139.756,100.34,96.7056,0.001344333,0.349985,20.5884,591.458,0.338553,0,0
970,242.25,57.7115,64.6442,143.986,100.358,97.0326,0.001198064,0.348086,20.5939,591.148,0.309191,0,0
980,244.75,58.1405,63.4932,142.453,100.331,96.5732,0.001246078,0.346334,20.5972,590.878,0.350252,0,0
990,247.25,57.7348,65.0389,140.572,100.331,97.4195,0.001371935,0.34554,20.5983,590.548,0.270226,0,0
1000,249.75,57.6056,65.1847,141.135,100.333,96.736,0.001232565,0.344757,20.6003,590.257,0.335026,0,0
1010,252.25,57.3473,64.5571,149.363,100.338,96.8607,0.001090253,0.341986,20.6043,589.947,0.323653,0,0
1020,254.75,57.6846,64.7979,143.685,100.328,97.311,0.001022281,0.339155,20.6069,589.617,0.280189,0,0
1030,257.25,57.375,64.2058,143.568,100.34,97.5696,0.001034921,0.337629,20.6086,589.367,0.256891,0,0
1040,259.75,57.2576,64.4985,140.181,100.327,97.3739,0.001170009,0.337024,20.6089,589.046,0.27411,0,0
1050,262.25,57.3175,64.6332,140.565,100.352,97.6254,0.001242303,0.337076,20.6085,588.756,0.252776,0,0
1060,264.75,57.3812,64.3779,141.368,100.333,98.0402,0.001282435,0.336366,20.6085,588.476,0.212138,0,0
1070,267.25,57.2606,64.3752,143.815,100.342,97.0088,0.001252136,0.336257,20.6094,588.135,0.310013,0,0
1080,269.75,57.1889,64.0878,144.132,100.32,98.1406,0.001063545,0.335766,20.6091,587.845,0.201539,0,0
1090,272.25,57.1536,63.9865,140.851,100.338,97.706,0.000839022,0.334205,20.6115,587.535,0.243958,0,0
1100,274.75,57.1882,64.3647,147.074,100.329,96.6604,0.00076041,0.332966,20.6126,587.275,0.34178,0,0
1110,277.25,57.1652,63.7792,149.329,100.346,98.2197,0.00087187,0.331518,20.613,586.974,0.196559,0,0
1120,279.75,57.0982,63.9533,144.115,100.335,97.7638,0.000911895,0.330583,20.6147,586.714,0.238229,0,0
1130,282.25,56.8412,64.6824,141.537,100.343,97.4712,0.000791908,0.330015,20.6158,586.404,0.266486,0,0
1140,284.75,57.0013,64.1034,144.093,100.346,97.4976,0.00066236,0.329264,20.6169,586.104,0.26423,0,0
1150,287.25,56.686,64.1533,145.304,100.343,97.1574,0.000702942,0.327591,20.6177,585.803,0.296008,0,0
1160,289.75,56.9485,64.0287,148.53,100.343,97.3262,0.000790168,0.326472,20.617,585.563,0.280112,0,0
1170,292.25,56.871,64.0072,139.209,100.344,97.8206,0.000886663,0.326032,20.6168,585.253,0.233691,0,0
1180,294.75,56.676,64.0435,142.267,100.351,97.3247,0.000830917,0.325246,20.6175,584.922,0.281009,0,0
1190,297.25,56.8184,63.736,145.271,100.347,97.4003,0.000579331,0.323959,20.6184,584.692,0.273473,0,0
1200,299.75,56.5469,63.5798,143.9,100.352,97.3257,0.000476115,0.322153,20.6208,584.392,0.280988,0,0
1210,302.25,57.0199,63.483,145.51,100.353,98.0559,0.000632661,0.32156,20.621,584.082,0.212476,0,0
1220,304.75,57.0151,63.775,142.465,100.374,96.9459,0.000815313,0.32073,20.6226,583.801,0.318865,0,0
1230,307.25,57.0636,63.2725,145.264,100.364,97.9596,0.000899172,0.3175295,20.6264,583.561,0.222514,0,0
1240,309.75,56.0789,63.67,143.797,100.385,97.6741,0.000982689,0.315754,20.6286,583.321,0.251217,0,0
1250,312.25,56.9078,62.8584,148.222,100.373,97.6954,0.000993065,0.315007,20.63,583.041,0.248087,0,0
1260,314.75,56.1227,63.1026,142.792,100.404,97.6918,0.00080849,0.312629,20.6343,582.76,0.251245,0,0
1270,317.25,56.5194,62.2931,144.997,100.395,97.8774,0.000675139,0.310203,20.6384,582.45,0.233037,0,0
1280,319.75,56.1286,62.5015,146.837,100.409,97.883,0.000569993,0.308209,20.6396,582.21,0.233796,0,0
1290,322.25,56.4007,62.5951,146.32,100.41,98.1497,0.000514293,0.308263,20.6388,581.96,0.208938,0,0
1300,324.75,56.786,62.3519,148.719,100.411,97.312,0.000509226,0.30759,20.6394,581.73,0.287668,0,0
1310,327.25,55.8862,62.5861,140.809,100.439,97.562,0.000541659,0.306412,20.6402,581.439,0.266723,0,0
1320,329.75,55.7695,61.6158,145.249,100.427,97.7182,0.000556741,0.305141,20.6405,581.169,0.250878,0,0
1330,332.25,55.8098,61.8104,147.403,100.453,98.0194,0.000430776,0.304182,20.6407,580.929,0.225086,0,0
1340,334.75,55.6651,61.5821,146.897,100.436,97.5955,0.000399788,0.303385,20.643,580.669,0.263238,0,0
1350,337.25,55.367,61.3128,144.619,100.454,97.9012,0.0005547,0.300698,20.6467,580.428,0.23619,0,0
1360,339.75,55.6718,61.9637,144.696,100.449,98.1583,0.000801018,0.298987,20.6486,580.128,0.211673,0,0
1370,342.25,55.6827,61.3116,147.618,100.475,97.8333,0.000927,0.298554,20.6492,579.868,0.244481,0,0
1380,344.75,55.6347,61.377,145.357,100.48,98.8378,0.000779217,0.2979,20.6507,579.638,0.151234,0,0
1390,347.25,55.1915,61.2995,144.986,100.497,98.4529,0.000416918,0.29652,20.6515,579.347,0.188577,0,0
1400,349.75,55.086,61.4502,147.14,100.494,98.3693,0.000150408,0.294829,20.6532,579.097,0.196078,0,0
1410,352.25,55.0729,61.3975,146.787,100.541,99.281,0.000183076,0.293515,20.6554,578.827,0.115711,0,0
1420,354.75,55.2698,61.185,143.709,100.54,98.7415,0.000501953,0.292772,20.6562,578.637,0.165602,0,0
1430,357.25,53.9705,61.8995,148.564,100.552,98.3916,0.000672877,0.292399,20.6556,578.376,0.199302,0,0
1440,359.75,55.2335,60.4651,144.526,100.567,98.2663,0.000608558,0.292073,20.6551,578.106,0.212383,0,0
1450,362.25,55.0705,61.8699,142.024,100.572,98.3738,0.000459458,0.291289,20.6567,577.846,0.202801,0,0
1460,364.75,54.4008,60.7862,142.749,100.583,98.1761,0.000450172,0.289512,20.6604,577.616,0.222243,0,0
1470,367.25,55.102,60.5148,147.151,100.597,98.4124,0.000399896,0.288388,20.6619,577.396,0.201462,0,0
1480,369.75,54.3495,60.6673,146.326,100.611,98.6456,0.000235233,0.287039,20.6634,577.145,0.181018,0,0
1490,372.25,55.5667,58.7084,146.476,100.619,98.5599,0.000133041,0.286953,20.6645,576.925,0.189744,0,0
1500,374.75,54.0239,61.2443,150.303,100.634,99.2602,0.000243264,0.286534,20.6648,576.685,0.126094,0,0
1510,377.25,55.9709,60.5581,145.405,100.633,98.6573,0.000240533,0.284644,20.6673,576.445,0.181963,0,0
1520,379.75,54.9897,59.6541,150.069,100.652,98.6198,7.20793E-05,0.282627,20.6684,576.215,0.187182,0,0
1530,382.25,54.3668,59.6065,142.147,100.652,98.4286,-7.66268E-05,0.281907,20.667,575.964,0.204987,0,0
1540,384.75,54.5709,59.7042,147.251,100.685,98.8312,-0.000139955,0.281295,20.668,575.714,0.170497,0,0
1550,387.25,53.8804,60.1292,141.503,100.69,98.7521,-0.000154006,0.28002,20.6692,575.504,0.178295,0,0
1560,389.75,54.0354,59.5261,143.602,100.735,99.1279,-7.16054E-05,0.2791394,20.6705,575.234,0.147578,0,0
1570,392.25,53.8881,59.4291,143.12,100.728,98.745,6.86589E-06,0.278351,20.671,575.003,0.182448,0,0
1580,394.75,53.8948,59.4286,142.794,100.75,99.1233,8.81487E-06,0.279066,20.6707,574.793,0.149352,0,0
1590,397.25,54.0118,59.2128,146.664,100.761,99.1319,1.26585E-05,0.278681,20.6705,574.583,0.14953,0,0
1600,399.75,53.6962,59.7058,147.081,100.782,99.6846,5.83125E-05,0.27779,20.6719,574.333,0.100461,0,0
1610,402.25,53.734,59.1225,148.932,100.808,98.7562,0.000113297,0.276001,20.6739,574.073,0.188731,0,0
1620,404.75,53.4528,59.5705,152.541,100.818,98.9555,0.00021357,0.275147,20.6769,573.842,0.171133,0,0
1630,407.25,53.6019,58.8496,149.547,100.85,99.3698,0.000171653,0.273073,20.6784,573.652,0.135647,0,0
1640,409.75,53.6677,58.9564,146.004,100.872,98.5082,0.000292287,0.272459,20.679,573.412,0.217612,0,0
1650,412.25,53.7479,58.8288,147.17,100.903,98.8287,0.000449747,0.272598,20.6792,573.192,0.190583,0,0
1660,414.75,53.5801,58.872,147.218,100.922,99.0995,0.00045339,0.272572,20.6797,572.952,0.167238,0,0
1670,417.25,53.7043,58.7442,146.264,100.961,99.5645,0.000418899,0.271674,20.6822,572.721,0.127842,0,0
1680,419.75,53.6646,58.3263,147.578,100.991,99.1324,0.00030646,0.270415,20.6833,572.491,0.170443,0,0
1690,422.25,53.3701,58.6317,149.056,101.026,99.7536,0.000228496,0.270664,20.6838,572.281,0.116269,0,0
1700,424.75,53.0702,58.4429,142.483,101.042,99.0716,0.000288927,0.270762,20.6839,572.041,0.180683,0,0
1710,427.25,53.4593,58.4954,147.663,101.073,99.5939,0.000284715,0.270067,20.6841,571.861,0.135241,0,0
1720,429.75,53.446,58.7324,149.002,101.094,99.2764,9.96976E-05,0.268208,20.6851,571.62,0.166518,0,0
1730,432.25,53.1937,58.4543,146.604,101.123,100.013,4.4047E-05,0.267571,20.6854,571.42,0.101249,0,0
1740,434.75,53.5861,58.4658,146.98,101.144,99.5234,0.000131501,0.267903,20.6856,571.2,0.148247,0,0
1750,437.25,52.8088,58.5857,149.875,101.159,99.4387,0.000205916,0.26753,20.6871,570.98,0.157367,0,0
1760,439.75,52.8243,58.4392,150.625,101.202,99.3936,0.000149294,0.265585,20.689,570.76,0.165494,0,0
1770,442.25,53.3115,58.4099,149.131,101.201,99.9306,8.01613E-05,0.263973,20.6911,570.569,0.115902,0,0
1780,444.75,52.7867,57.7422,143.402,101.226,99.0772,0.00014492,0.26393,20.6906,570.319,0.196883,0,0
1790,447.25,52.5912,57.8094,144.536,101.237,99.4407,0.000215179,0.264501,20.6899,570.119,0.164318,0,0
1800,449.75,52.5276,57.8873,143.439,101.247,99.1821,0.000152948,0.263981,20.6896,569.849,0.18911,0,0
1810,452.25,52.7409,57.5714,148.28,101.204,99.6461,7.50204E-05,0.264243,20.6915,569.659,0.14236,0,0
1820,454.75,52.8113,57.9097,149.27,101.186,99.2795,-2.38444E-05,0.264768,20.6927,569.438,0.174577,0,0
1830,457.25,52.7635,57.8648,153.236,101.179,99.2633,-0.000136719,0.264424,20.6939,569.248,0.175403,0,0
1840,459.75,53.0214,57.3254,142.657,101.198,99.5853,-0.000247837,0.264282,20.695,569.028,0.147442,0,0
1850,462.25,52.369,57.4493,151.247,101.214,98.9342,-0.000279245,0.263248,20.6967,568.798,0.209015,0,0
1860,464.75,52.6781,57.1096,149.747,101.232,99.4448,-0.00021964,0.262455,20.6971,568.588,0.163458,0,0
1870,467.25,52.5731,57.7737,146.61,101.244,99.4636,-0.000103605,0.262783,20.6964,568.387,0.162847,0,0
1880,469.75,52.6076,57.3044,146.768,101.266,99.7135,-2.2921E-05,0.262695,20.6965,568.187,0.141793,0,0
1890,472.25,52.4049,57.2172,145.876,101.282,99.53,-9.932E-05,0.262075,20.6973,567.947,0.160121,0,0
1900,474.75,52.3898,57.1004,144.297,101.3,99.1431,-0.000185979,0.260856,20.6972,567.737,0.197467,0,0
1910,477.25,52.0791,57.6065,145.268,101.312,99.6395,-0.000201467,0.260757,20.6962,567.537,0.1527538,0,0
1920,479.75,52.265,57.6005,147.052,101.316,99.1542,-0.000115755,0.260694,20.6958,567.296,0.197927,0,0
1930,482.25,51.9254,57.0719,145.201,101.34,99.6877,-4.92705E-05,0.260054,20.6972,567.116,0.150857,0,0
1940,484.75,52.3198,57.3546,149.492,101.336,99.135,-1.28078E-05,0.259965,20.6971,566.906,0.201539,0,0
1950,487.25,51.6625,57.29,148.703,101.361,99.2049,4.44651E-06,0.260837,20.6961,566.696,0.197266,0,0
1960,489.75,52.2056,57.3365,144.507,101.362,99.3337,3.08122E-05,0.260786,20.6958,566.486,0.185472,0,0
1970,492.25,52.2782,56.8419,149.714,101.375,99.6892,-6.72561E-05,0.261119,20.6957,566.265,0.153889,0,0
1980,494.75,51.8165,56.6038,148.402,101.377,99.5873,-6.45951E-05,0.262166,20.6957,566.055,0.163462,0,0
1990,497.25,51.9194,57.3619,149.258,101.411,99.3074,-8.8546E-05,0.26128,20.697,565.855,0.19231,0,0
2000,499.75,52.1221,57.1531,148.226,101.391,99.4772,-0.000132024,0.260766,20.6993,565.655,0.174875,0,0
2010,502.25,52.311,57.1942,148.484,101.406,99.6699,-0.000154704,0.260991,20.6998,565.425,0.158498,0,0
2020,504.75,52.2729,57.0089,148.187,101.407,99.208,-9.69507E-05,0.260899,20.6991,565.215,0.201164,0,0
2030,507.25,51.2915,58.0408,144.312,101.406,99.8799,-6.43393E-05,0.260969,20.6983,564.984,0.139191,0,0
2040,509.75,52.227,56.8629,144.581,101.421,99.8322,-3.99269E-05,0.26103,20.6983,564.774,0.144913,0,0
2050,512.25,52.282,57.1728,146.193,101.406,99.6192,2.76291E-06,0.261013,20.6985,564.584,0.163167,0,0
2060,514.75,51.9881,56.8841,145.534,101.432,99.7561,3.03538E-05,0.2612,20.6986,564.364,0.152915,0,0
2070,517.25,51.0327,56.7036,145.007,101.438,99.2592,3.86062E-05,0.262149,20.6986,564.144,0.199262,0,0
2080,519.75,51.9515,57.0067,146.262,101.449,100.049,-6.55623E-05,0.262799,20.6972,563.953,0.127522,0,0
2090,522.25,52.3295,57.0391,146.568,101.465,99.6694,-0.000146657,0.263341,20.6952,563.713,0.163802,0,0
2100,524.75,52.2145,56.811,148.589,101.483,99.2805,-0.000129093,0.263693,20.694,563.513,0.201356,0,0
2110,527.25,52.0174,55.9792,150.329,101.483,99.5599,-9.55494E-05,0.264051,20.6935,563.343,0.175532,0,0
2120,529.75,52.2993,57.0224,149.342,101.494,99.9686,-0.000171593,0.263585,20.6933,563.103,0.138983,0,0
2130,532.25,52.4818,56.7507,149.011,101.498,99.4281,-0.000166242,0.263752,20.6928,562.912,0.18907,0,0
2140,534.75,51.5788,57.4986,148.127,101.521,99.6497,-3.29084E-05,0.264118,20.6926,562.722,0.170766,0,0
2150,537.25,51.5603,56.8056,148.196,101.51,99.602,0.000101968,0.264333,20.6925,562.522,0.174113,0,0
2160,539.75,51.8512,56.7891,143.245,101.531,99.6826,0.000192628,0.265719,20.6925,562.252,0.16855,0,0
2170,542.25,51.6635,56.7213,148.706,101.516,99.4103,0.000140053,0.265331,20.6917,562.072,0.192348,0,0
2180,544.75,52.0712,56.63,146.781,101.53,99.6669,0.000109382,0.265688,20.6911,561.852,0.169923,0,0
2190,547.25,51.1938,57.1992,148.854,101.536,99.9777,0.000156045,0.266133,20.6899,561.661,0.141945,0,0
2200,549.75,51.9436,57.0318,146.029,101.536,99.4504,-2.84812E-05,0.266774,20.6895,561.411,0.190476,0,0
2210,552.25,51.5808,57.0281,145.426,101.547,100.042,-0.000180115,0.268587,20.6876,561.191,0.137052,0,0
2220,554.75,52.3668,56.3945,151.55,101.54,99.5097,-9.53165E-05,0.269255,20.6866,561.061,0.185338,0,0
2230,557.25,51.9282,56.9884,148.016,101.56,99.1243,6.98893E-06,0.268872,20.6863,560.8,0.22277,0,0
2240,559.75,51.3247,57.7422,144.938,101.55,99.6867,3.11722E-05,0.269873,20.6862,560.57,0.169927,0,0
2250,562.25,52.3571,57.2763,145.704,101.565,99.3277,2.03575E-05,0.272017,20.6837,560.31,0.204412,0,0
2260,564.75,51.5519,57.5856,146.915,101.541,99.0802,4.44536E-05,0.273127,20.6823,560.16,0.225104,0,0
2270,567.25,51.7116,57.6771,146.437,101.561,99.8484,0.000105718,0.273164,20.6819,559.93,0.156018,0,0
2280,569.75,51.8715,57.2119,140.951,101.55,99.5817,8.33582E-05,0.273776,20.6829,559.729,0.179632,0,0
2290,572.25,52.7387,56.9366,144.407,101.566,99.0924,2.86513E-05,0.273899,20.6831,559.479,0.226212,0,0
2300,574.75,52.5747,56.9866,145.891,101.562,98.7192,6.07351E-05,0.274052,20.6837,559.249,0.260501,0,0
2310,577.25,52.2299,57.4456,144.711,101.578,99.4844,0.000177718,0.275123,20.6833,559.059,0.191065,0,0
2320,579.75,52.1755,56.9759,151.409,101.569,99.1973,0.000325991,0.276629,20.6821,558.849,0.216795,0,0
2330,582.25,52.4999,57.5895,151.713,101.569,98.9352,0.000488287,0.277769,20.6813,558.649,0.241077,0,0
2340,584.75,52.0733,57.2659,145.902,101.585,99.2425,0.000649748,0.278827,20.681,558.408,0.214111,0,0
2350,587.25,52.4269,57.3047,147.654,101.58,99.4742,0.000688333,0.280248,20.6801,558.158,0.192262,0,0
2360,589.75,52.3314,57.1462,150.429,101.583,98.9326,0.000627212,0.281043,20.679,557.918,0.242616,0,0
2370,592.25,52.0261,57.8331,145.76,101.583,99.1385,0.000486344,0.281952,20.6782,557.658,0.223504,0,0
2380,594.75,52.3182,57.6898,141.316,101.611,99.2617,0.000247278,0.283129,20.6759,557.518,0.214637,0,0
2390,597.25,52.4357,57.8012,146.168,101.585,99.7465,3.33073E-05,0.28662,20.6723,557.247,0.167625,0,0
2400,599.75,52.654,57.9363,146.555,101.609,98.9179,0.000106909,0.288521,20.6691,557.037,0.246325,0,0
2410,602.25,52.5817,58.0556,147.771,101.583,98.8191,0.000184447,0.289958,20.6674,556.787,0.25312,0,0
2420,604.75,52.4414,57.9511,148.818,101.62,98.9519,0.000361233,0.291516,20.666,556.467,0.244105,0,0
2430,607.25,52.5441,58.4555,144.917,101.601,98.8409,0.000550393,0.292654,20.6646,556.326,0.252734,0,0
2440,609.75,52.6373,58.0035,150.33,101.618,98.6076,0.000580671,0.292803,20.664,556.066,0.275903,0,0
2450,612.25,52.8182,58.3682,145.639,101.609,99.5016,0.00060118,0.295022,20.6626,555.846,0.192306,0,0
2460,614.75,52.9466,58.3223,147.292,101.611,99.2404,0.000637335,0.298629,20.6574,555.616,0.216643,0,0
2470,617.25,52.8507,58.7509,147.751,101.627,98.6578,0.000630574,0.300371,20.6544,555.386,0.272051,0,0
2480,619.75,53.0976,58.7925,146.369,101.62,98.6152,0.000617491,0.301126,20.6522,555.145,0.275382,0,0
2490,622.25,52.9494,59.1172,149.618,101.62,99.2521,0.000546642,0.301624,20.651,554.895,0.216347,0,0
2500,624.75,53.2886,58.8033,146.2,101.627,98.5265,0.000487778,0.301136,20.6506,554.675,0.284276,0,0
2510,627.25,53.2362,59.2132,146.447,101.652,98.5255,0.000667704,0.302607,20.648,554.415,0.286677,0,0
2520,629.75,53.0245,58.6592,147.816,101.631,97.9241,0.000932053,0.305647,20.6444,554.194,0.340924,0,0
2530,632.25,53.3434,59.0743,145.521,101.651,98.7536,0.000942637,0.308605,20.6413,553.954,0.265338,0,0
2540,634.75,53.4339,59.3618,148.809,101.637,98.7734,0.000910368,0.310956,20.639,553.694,0.262235,0,0
2550,637.25,53.5184,59.3298,146.697,101.657,98.4499,0.001006791,0.313087,20.6365,553.454,0.294163,0,0
2560,639.75,53.7323,59.8151,148.738,101.641,97.9099,0.001001831,0.314019,20.6368,553.194,0.343222,0,0
2570,642.25,53.5376,59.6623,145.607,101.671,98.1183,0.000943572,0.314999,20.6353,552.953,0.326389,0,0
2580,644.75,54.2404,60.1496,143.677,101.653,97.918,0.000972765,0.317151,20.6326,552.683,0.343541,0,0
2590,647.25,53.9873,60.3666,144.072,101.673,98.312,0.000934744,0.319902,20.631,552.433,0.308478,0,0
2600,649.75,54.0773,60.318,141.522,101.653,98.2582,0.00084564,0.321819,20.6282,552.203,0.311673,0,0
2610,652.25,54.4226,60.6917,145.959,101.663,97.7922,0.000829854,0.323561,20.6255,551.982,0.356188,0,0
2620,654.75,53.8506,60.2774,146.358,101.662,96.989,0.00093325,0.326594,20.6227,551.732,0.43183,0,0
2630,657.25,54.2579,60.6291,145.762,101.653,97.6837,0.001117283,0.328875,20.6203,551.422,0.365484,0,0
2640,659.75,54.5866,61.3331,149.057,101.677,97.5711,0.001235193,0.331909,20.6168,551.162,0.378223,0,0
2650,662.25,54.6618,61.4787,143.347,101.651,98.4007,0.00118825,0.334901,20.6137,550.942,0.298228,0,0
2660,664.75,54.4228,61.4185,147.888,101.655,97.166,0.001161739,0.337342,20.6103,550.611,0.414433,0,0
2670,667.25,54.8231,61.8408,144.707,101.649,97.1158,0.001329032,0.338415,20.6089,550.361,0.418655,0,0
2680,669.75,55.613,62.1682,139.187,101.658,97.5356,0.001430492,0.339775,20.608,550.061,0.37985,0,0
2690,672.25,55.3255,62.3123,150.732,101.648,97.9636,0.001544529,0.341528,20.6053,549.861,0.338744,0,0
2700,674.75,55.5415,62.1864,146.966,101.659,96.6072,0.001398275,0.342737,20.6032,549.59,0.467729,0,0
2710,677.25,55.3969,62.1379,141.477,101.652,97.272,0.001215314,0.344165,20.6014,549.29,0.40417,0,0
2720,679.75,55.4685,62.7561,142.909,101.661,97.0925,0.001218262,0.347286,20.5978,549.07,0.421937,0,0
2730,682.25,55.708,62.7523,142.743,101.645,96.4591,0.00128079,0.349659,20.5955,548.699,0.480539,0,0
2740,684.75,56.1732,63.3425,140.807,101.65,96.8709,0.001343473,0.350312,20.594,548.439,0.441863,0,0
2750,687.25,55.4255,63.0984,144.079,101.637,96.7674,0.001399233,0.351324,20.5917,548.199,0.450513,0,0
2760,689.75,55.7112,63.0011,147.27,101.634,97.0499,0.001449439,0.354217,20.5875,547.889,0.423471,0,0
2770,692.25,55.8105,62.9399,145.739,101.631,96.5118,0.001685713,0.356961,20.5835,547.649,0.474258,0,0
2780,694.75,56.2584,63.2732,140.93,101.629,96.4003,0.001862982,0.359384,20.5812,547.368,0.484722,0,0
2790,697.25,56.633,63.2044,143.724,101.638,96.3567,0.002090337,0.361386,20.5789,547.078,0.489619,0,0
2800,699.75,56.3944,63.6527,144.433,101.62,96.3126,0.002112821,0.36237,20.5785,546.758,0.492258,0,0
2810,702.25,55.8741,63.3749,143.262,101.631,95.4926,0.002037392,0.362294,20.5785,546.537,0.571679,0,0
2820,704.75,56.6576,63.5624,140.148,101.62,95.7705,0.002069852,0.36418,20.5741,546.247,0.544012,0,0
2830,707.25,57.0599,63.7785,145.478,101.622,95.9241,0.001964505,0.371045,20.5664,545.917,0.529488,0,0
2840,709.75,56.8298,64.2058,143.78,101.616,95.4303,0.001813126,0.375806,20.5606,545.617,0.576335,0,0
2850,712.25,56.9385,65.4554,142.768,101.622,95.0423,0.001868714,0.379103,20.5561,545.376,0.614233,0,0
2860,714.75,56.8879,65.2581,146.44,101.61,95.1823,0.002076672,0.380718,20.5544,545.026,0.599614,0,0
2870,717.25,57.7468,65.4915,142.806,101.622,95.4962,0.002212187,0.381732,20.5538,544.786,0.570557,0,0
2880,719.75,57.0882,65.1758,150.495,101.612,95.4313,0.002133662,0.380104,20.555,544.446,0.575828,0,0
2890,722.25,56.4531,64.8101,140.516,101.622,94.7513,0.001985648,0.380645,20.5532,544.175,0.64234,0,0
2900,724.75,56.8595,64.826,144.731,101.616,95.3958,0.001942451,0.383528,20.5498,543.855,0.579652,0,0
2910,727.25,58.0814,65.0954,146.223,101.629,94.9064,0.001997367,0.385939,20.5473,543.575,0.627958,0,0
2920,729.75,57.4224,65.3122,143.333,101.622,95.1676,0.002123292,0.386904,20.5462,543.214,0.602111,0,0
2930,732.25,58.1754,65.4034,145.565,101.611,94.623,0.002333554,0.386592,20.5464,542.934,0.653805,0,0
2940,734.75,57.7576,65.827,145.08,101.618,95.1737,0.00240861,0.387349,20.5462,542.664,0.601152,0,0
2950,737.25,58.2218,65.2267,143.771,101.613,94.8522,0.002492022,0.388177,20.5452,542.354,0.631754,0,0
2960,739.75,58.2119,65.5867,142.0513,101.628,94.6453,0.002691179,0.39056,20.5421,542.043,0.653167,0,0
2970,742.25,58.2156,66.1557,142.513,101.611,94.5637,0.002733645,0.392636,20.5373,541.713,0.65956,0,0
2980,744.75,58.4393,66.025,143.404,101.622,94.7934,0.0026666,0.392962,20.5374,541.433,0.63834,0,0
2990,747.25,58.1189,66.4529,142.179,101.615,94.16,0.002528911,0.391212,20.5386,541.153,0.699146,0,0
3000,749.75,58.6816,66.1169,146.802,101.62,93.8243,0.002471154,0.390788,20.5363,540.782,0.732439,0,0
3010,752.25,59.0543,66.4769,145.937,101.604,93.9364,0.002596168,0.395425,20.5308,540.452,0.719959,0,0
3020,754.75,58.7017,66.366,148.967,101.624,93.8,0.002753651,0.399579,20.5275,540.192,0.735154,0,0
3030,757.25,59.8539,67.3273,141.28,101.621,94.0049,0.002741379,0.402419,20.5234,539.881,0.714839,0,0
3040,759.75,58.6818,67.293,136.596,101.618,94.6564,0.002708819,0.405643,20.519,539.551,0.651156,0,0
3050,762.25,59.8126,67.3169,139.281,101.598,94.483,0.002743148,0.405767,20.5192,539.231,0.666195,0,0
3060,764.75,59.1542,66.895,144.214,101.619,94.3578,0.002900947,0.405047,20.5204,538.931,0.680303,0,0
3070,767.25,59.5665,67.2827,138.887,101.611,93.4171,0.003047337,0.407387,20.5155,538.59,0.77153,0,0
3080,769.75,60.46,67.6693,139.505,101.611,93.444,0.003102455,0.409713,20.5122,538.24,0.76889,0,0
3090,772.25,59.8778,68.2228,143.182,101.599,93.3061,0.003236118,0.410582,20.5097,537.96,0.781365,0,0
3100,774.75,60.084,67.7198,139.896,101.582,93.5115,0.003396617,0.415555,20.5025,537.589,0.759626,0,0
3110,777.25,59.5443,67.6966,138.686,101.589,94.0074,0.003457784,0.42083,20.4968,537.309,0.711687,0,0
3120,779.75,60.7413,68.5339,144.795,101.564,93.3604,0.003422978,0.423928,20.494,536.959,0.772829,0,0
3130,782.25,60.2657,68.2957,145.378,101.576,94.0895,0.00340987,0.425499,20.4926,536.618,0.702555,0,0
3140,784.75,60.6168,68.4685,143.086,101.549,92.9172,0.003684674,0.427467,20.4904,536.258,0.815114,0,0
3150,787.25,60.5398,69.2925,145.52,101.545,92.6778,0.004022525,0.429407,20.4878,535.928,0.838445,0,0
3160,789.75,60.5984,69.5887,140.42,101.522,92.9045,0.004237796,0.430317,20.4869,535.618,0.813944,0,0
3170,792.25,61.3383,69.9967,142.353,101.517,92.9035,0.004189426,0.430596,20.4866,535.267,0.813561,0,0
3180,794.75,60.9471,69.3409,142.46,101.514,93.2843,0.004072694,0.430699,20.4865,534.927,0.7758,0,0
3190,797.25,60.8478,69.5295,139.956,101.499,91.9061,0.004068171,0.432436,20.4829,534.607,0.911007,0,0
3200,799.75,60.8353,70.5028,135.665,101.496,92.7164,0.004024242,0.437162,20.4769,534.196,0.830234,0,0
3210,802.25,61.897,70.3766,135.089,101.486,92.5196,0.003982336,0.441451,20.471,533.906,0.848796,0,0
3220,804.75,62.2426,69.8647,142.621,101.483,92.117,0.004077832,0.443869,20.4687,533.526,0.888554,0,0
3230,807.25,62.7312,70.3304,144.668,101.465,91.6393,0.00435514,0.44501,20.4673,533.205,0.934582,0,0
3240,809.75,62.0088,70.5512,142.46,101.458,91.9248,0.004661385,0.445543,20.4658,532.905,0.905481,0,0
3250,812.25,62.3168,71.1797,141.235,101.457,91.8472,0.004673314,0.447179,20.4637,532.515,0.91308,0,0
3260,814.75,62.2149,70.9548,135.155,101.462,90.5871,0.004766074,0.450076,20.4601,532.144,1.04029,0,0
3270,817.25,62.6341,71.58,137.794,101.456,92.1986,0.004903206,0.452377,20.4572,531.794,0.877927,0,0
3280,819.75,62.7264,71.9816,138.535,101.459,91.7757,0.004939645,0.452797,20.4561,531.434,0.920448,0,0
3290,822.25,63.2884,71.8517,142.431,101.448,92.6089,0.005207859,0.454647,20.4534,531.073,0.836518,0,0
3300,824.75,63.3203,72.4613,142.166,101.451,91.082,0.005526304,0.459417,20.4488,530.713,0.989288,0,0
3310,827.25,63.7449,72.5669,139.503,101.436,91.6449,0.005736435,0.461848,20.4447,530.363,0.931452,0,0
3320,829.75,63.649,72.5797,136.77,101.45,91.1733,0.005736103,0.464506,20.441,529.992,0.980059,0,0
3330,832.25,63.4654,73.2148,145.492,101.435,92.3644,0.005536556,0.465162,20.4383,529.612,0.859538,0,0
3340,834.75,64.3552,73.471,137.377,101.45,91.5014,0.00546532,0.466794,20.4356,529.312,0.947099,0,0
3350,837.25,64.2403,73.5366,140.588,101.444,90.9066,0.005630163,0.46932,20.4337,528.921,1.00635,0,0
3360,839.75,64.1057,73.2453,143.663,101.437,92.8893,0.005862508,0.468716,20.4331,528.581,0.807769,0,0
3370,842.25,64.5328,73.94,138.706,101.428,91.5633,0.006040541,0.470637,20.4308,528.211,0.938921,0,0
3380,844.75,64.3184,73.6054,135.776,101.432,91.2656,0.006114794,0.472067,20.4293,527.82,0.969097,0,0
3390,847.25,64.2911,74.0533,139.013,101.431,90.7687,0.005998436,0.474861,20.4248,527.47,1.01916,0,0
3400,849.75,64.9802,74.5258,137.611,101.445,92.0293,0.005889328,0.476704,20.4222,527.13,0.893866,0,0
3410,852.25,64.6032,74.4896,143.547,101.45,91.1333,0.005858582,0.477287,20.4203,526.75,0.984092,0,0
3420,854.75,65.2226,74.8939,145.862,101.431,92.1718,0.005906367,0.48128,20.4133,526.369,0.878365,0,0
3430,857.25,65.2219,75.0633,140.903,101.43,90.3681,0.006116357,0.484962,20.4093,525.969,1.05967,0,0
3440,859.75,65.6523,75.3715,138.573,101.432,89.8362,0.006314501,0.486707,20.4072,525.648,1.11399,0,0
3450,862.25,65.9845,75.4876,135.199,101.432,88.6212,0.006214236,0.48737,20.4054,525.278,1.23894,0,0
3460,864.75,66.096,75.7265,135.79,101.414,89.397,0.005943601,0.487845,20.4041,524.918,1.15735,0,0
3470,867.25,65.9055,75.6639,137.015,101.419,89.9918,0.005825382,0.490392,20.4011,524.527,1.09691,0,0
3480,869.75,66.1069,76.0117,136.308,101.418,90.2728,0.005977584,0.491537,20.3987,524.177,1.06824,0,0
3490,872.25,66.4153,76.3623,140.979,101.419,91.9659,0.006236441,0.491173,20.3973,523.807,0.897802,0,0
3500,874.75,66.546,76.0925,145.843,101.411,90.0714,0.006524418,0.489759,20.3989,523.446,1.08805,0,0
3510,877.25,66.3864,76.7968,135.71,101.407,90.3828,0.006799688,0.487873,20.4002,523.086,1.05605,0,0
3520,879.75,66.2706,76.7221,141.707,101.413,92.2504,0.006871548,0.48643,20.4004,522.686,0.868977,0,0
3530,882.25,66.8611,76.6697,139.013,101.392,91.1718,0.00674044,0.486543,20.3987,522.335,0.974954,0,0
3540,884.75,67.191,76.3879,138.43,101.409,89.1942,0.006659073,0.483804,20.4018,521.975,1.17771,0,0
3550,887.25,67.076,76.5692,144.708,101.385,90.7955,0.006618261,0.478554,20.409,521.635,1.01227,0,0
3560,889.75,66.4907,75.9888,141.92,101.395,90.5151,0.006338829,0.47039,20.418,521.335,1.04151,0,0
3570,892.25,66.5391,76.3334,140.603,101.369,90.4477,0.005884834,0.466242,20.4216,520.984,1.04603,0,0
3580,894.75,66.5367,76.3339,138.414,101.381,90.9953,0.005428013,0.461478,20.4273,520.644,0.991761,0,0
3590,897.25,66.4466,75.5665,145.799,101.353,91.3863,0.004996533,0.452201,20.4427,520.374,0.949846,0,0
3600,899.75,65.8946,74.9286,141.171,101.354,90.5131,0.004441121,0.441394,20.4546,520.083,1.03802,0,0
3610,902.25,66.077,74.7295,139.229,101.32,91.2839,0.003737731,0.432591,20.4651,519.743,0.957113,0,0
3620,904.75,65.6828,74.2507,141.596,101.331,90.8067,0.003204557,0.421847,20.4796,519.493,1.00625,0,0
3630,907.25,65.4415,73.6461,141.651,101.303,92.3837,0.002885313,0.408677,20.496,519.213,0.845758,0,0
3640,909.75,64.5113,73.0985,141.699,101.296,91.936,0.002571876,0.393913,20.5154,518.962,0.889668,0,0
3650,912.25,64.5608,72.0421,144.249,101.275,93.8127,0.002273296,0.376085,20.5345,518.742,0.702374,0,0
3660,914.75,63.4069,71.3815,145.133,101.263,93.4988,0.001983284,0.356904,20.557,518.512,0.732006,0,0
3670,917.25,62.7736,70.3812,147.512,101.252,93.6859,0.001886098,0.335268,20.5825,518.342,0.712653,0,0
3680,919.75,62.6055,69.3596,147.039,101.237,94.8451,0.001792383,0.314052,20.607,518.192,0.598467,0,0
3690,922.25,61.5282,68.0539,146.742,101.226,96.6812,0.001444224,0.29357,20.6315,518.032,0.421476,0,0
3700,924.75,61.0743,66.8788,145.962,101.194,95.8587,0.000954002,0.273712,20.6539,517.921,0.497032,0,0
3710,927.25,60.1831,65.9291,147.642,101.176,96.3004,0.000625245,0.254952,20.6755,517.791,0.453206,0,0
3720,929.75,59.1915,64.5783,146.451,101.158,95.4191,0.000669879,0.239855,20.6925,517.681,0.535924,0,0
3730,932.25,58.5687,63.0782,146.526,101.146,96.5108,0.000796404,0.227485,20.7066,517.601,0.430447,0,0
3740,934.75,58.1588,62.2133,145.541,101.114,96.8856,0.000849777,0.21664,20.7177,517.491,0.39197,0,0
3750,937.25,57.1025,61.2589,151.301,101.113,97.5128,0.000907867,0.207738,20.729,517.411,0.332678,0,0
3760,939.75,56.5561,60.3737,145.886,101.084,97.4647,0.001057346,0.200691,20.7392,517.321,0.334556,0,0
3770,942.25,55.7648,59.5088,148.307,101.074,98.0219,0.001129718,0.193382,20.7457,517.251,0.28134,0,0
3780,944.75,55.5043,58.5599,148.628,101.047,97.6791,0.001086769,0.186828,20.7543,517.201,0.311054,0,0
3790,947.25,54.9463,57.4212,152.648,101.05,98.4418,0.001073439,0.180751,20.7618,517.131,0.239987,0,0
3800,949.75,54.2249,56.736,150.705,101.033,98.2876,0.001226937,0.176661,20.7667,517.061,0.252757,0,0
3810,952.25,53.4726,56.1395,148.488,101.039,98.1102,0.001179235,0.173625,20.7699,517.021,0.269941,0,0
3820,954.75,53.1916,55.4859,147.348,101.032,98.063,0.001033762,0.170717,20.7742,516.931,0.273716,0,0
3830,957.25,52.8806,55.0765,145.049,101.024,97.5204,0.00119118,0.16801,20.7779,516.88,0.323842,0,0
3840,959.75,52.3829,54.2756,148.302,101.023,98.6887,0.001472149,0.165418,20.7815,516.81,0.214526,0,0
3850,962.25,51.8981,53.5359,146.687,101.022,98.6543,0.001634126,0.164266,20.7829,516.76,0.217621,0,0
3860,964.75,51.4078,53.3931,153.933,101.016,98.6624,0.001682155,0.163407,20.784,516.7,0.216304,0,0
3870,967.25,51.1165,52.4702,151.936,101.017,98.5432,0.001652753,0.160332,20.789,516.66,0.227544,0,0
3880,969.75,50.5254,52.3213,153.981,101.023,98.5336,0.001607575,0.15709,20.7933,516.62,0.228928,0,0
3890,972.25,50.4206,51.9596,151.288,101.002,98.8667,0.001493042,0.155319,20.7948,516.58,0.196082,0,0
3900,974.75,50.0701,51.432,150.602,101.018,98.5285,0.001399879,0.155741,20.7941,516.51,0.228988,0,0
3910,977.25,49.87,51.278,155.098,101.008,98.8251,0.001605005,0.156481,20.7936,516.48,0.200503,0,0
3920,979.75,49.9277,50.7014,150.396,101.011,98.5721,0.001883065,0.154894,20.7963,516.42,0.224253,0,0
3930,982.25,49.4199,50.7766,150.324,100.998,98.8652,0.001838747,0.151906,20.8004,516.37,0.195849,0,0
3940,984.75,49.1558,50.1045,153.111,101.003,98.5539,0.001711476,0.149886,20.8028,516.31,0.225242,0,0
3950,987.25,48.9609,49.8682,149.145,101.005,99.2562,0.001722114,0.148554,20.8042,516.27,0.160233,0,0
3960,989.75,48.4493,50.0703,154.166,100.997,98.8596,0.001740276,0.147238,20.8056,516.24,0.196291,0,0
3970,992.25,48.4318,49.1796,148.062,100.984,98.383,0.001744255,0.146617,20.8065,516.19,0.23948,0,0
3980,994.75,47.956,48.5559,152.632,100.998,98.9925,0.001817466,0.145059,20.8097,516.15,0.184006,0,0
3990,997.25,47.9986,48.5941,150.397,100.996,98.6294,0.001912509,0.143819,20.8121,516.13,0.217535,0,0
4000,999.75,47.6158,49.0823,150.314,101.007,98.5239,0.00206505,0.142875,20.8128,516.09,0.228439,0,0
4010,1002.25,47.473,48.4391,153.659,101.027,98.921,0.002267032,0.142409,20.8136,516,0.193295,0,0
4020,1004.75,46.9121,48.8074,151.904,101.03,99.1157,0.002421124,0.14181,20.8149,516,0.175549,0,0
4030,1007.25,46.8354,48.2242,152.344,101.051,98.5422,0.002565649,0.140682,20.8158,515.95,0.230707,0,0
4040,1009.75,46.7353,47.856,147.791,101.048,98.6076,0.002604714,0.139576,20.8172,515.94,0.224357,0,0
4050,1012.25,46.5264,47.6311,155.562,101.087,98.7917,0.002379158,0.139005,20.8194,515.88,0.210761,0,0
4060,1014.75,46.2356,47.4353,154.008,101.104,98.5402,0.002266459,0.138312,20.8222,515.84,0.235649,0,0
4070,1017.25,46.4341,47.2423,156.814,101.116,98.6816,0.002517651,0.138204,20.8234,515.82,0.223644,0,0
4080,1019.75,46.2283,47.0529,153.716,101.125,98.71,0.002895117,0.138096,20.8229,515.79,0.221752,0,0
4090,1022.25,45.8375,46.5274,154.605,101.136,98.8262,0.003054461,0.138898,20.8216,515.719,0.212011,0,0
4100,1024.75,45.2281,46.583,152.268,101.162,98.9078,0.003069796,0.140425,20.8201,515.719,0.206826,0,0
4110,1027.25,45.0931,46.1188,155.17,101.195,98.814,0.003086555,0.1411926,20.8196,515.639,0.218487,0,0
4120,1029.75,45.0182,46.13,155.572,101.203,98.7597,0.00317099,0.141546,20.8181,515.649,0.224275,0,0
4130,1032.25,45.1883,45.9572,152.92,101.228,98.3972,0.003284592,0.143216,20.8165,515.609,0.260265,0,0
4140,1034.75,44.8609,45.8467,151.117,101.251,98.707,0.003373699,0.144976,20.8129,515.589,0.233547,0,0
4150,1037.25,44.8441,45.7276,152.913,101.275,98.67556,0.003447372,0.147162,20.8078,515.529,0.238561,0,0
4160,1039.75,44.5532,45.5348,152.016,101.296,98.9509,0.003637828,0.149868,20.8041,515.499,0.214972,0,0
4170,1042.25,44.425,45.5047,154.676,101.338,98.7526,0.00388243,0.151539,20.8025,515.469,0.237147,0,0
4180,1044.75,44.4472,45.5091,152.004,101.371,98.6294,0.003931636,0.151716,20.8043,515.419,0.25159,0,0
4190,1047.25,44.3689,45.3358,153.555,101.376,99.0893,0.00385889,0.150297,20.8052,515.399,0.20931,0,0
4200,1049.75,43.9249,44.9308,154.561,101.411,98.7288,0.003748325,0.148704,20.8063,515.369,0.245928,0,0
4210,1052.25,43.9629,44.9984,152.053,101.409,98.8525,0.003700621,0.147743,20.8076,515.319,0.234249,0,0
4220,1054.75,43.998,44.8167,158.656,101.441,98.7851,0.003879651,0.146919,20.8094,515.299,0.243458,0,0
4230,1057.25,43.6415,44.7813,151.866,101.448,98.5762,0.004020486,0.144885,20.8122,515.249,0.263482,0,0
4240,1059.75,43.2225,44.691,155.696,101.474,98.7156,0.004042164,0.141995,20.8166,515.249,0.252933,0,0
4250,1062.25,42.725,43.4237,156.437,101.486,98.7486,0.004066109,0.139763,20.819,515.199,0.250951,0,0
4260,1064.75,42.6072,43.8483,154.384,101.514,98.9463,0.004045076,0.138925,20.8199,515.139,0.235052,0,0
4270,1067.25,42.2073,43.5128,150.234,101.521,98.7866,0.004068253,0.139352,20.7978,515.139,0.250511,0,0
4280,1069.75,42.0995,43.4304,150.959,101.545,99.0488,0.004098624,0.13851,20.4591,515.059,0.228351,0,0
4290,1072.25,41.8564,42.8932,155.124,101.534,98.7993,0.00410565,0.13671,20.2703,515.049,0.250562,0,0
4300,1074.75,41.8258,42.6811,156.336,101.548,98.5579,0.004198308,0.136026,20.204,515.009,0.274274,0,0
4310,1077.25,42.1749,42.9616,159.481,101.572,98.4514,0.004142445,0.1357961,20.1808,514.969,0.286353,0,0
4320,1079.75,41.7005,43.0258,159.122,101.566,98.7095,0.003987488,0.135771,20.1727,514.959,0.261732,0,0
4330,1082.25,41.6001,42.7516,158.208,101.589,98.9438,0.004018993,0.135664,20.4631,514.929,0.242066,0,0
4340,1084.75,42.1145,42.7347,153.397,101.584,98.9332,0.004181489,0.135808,20.6787,514.909,0.242643,0,0
4350,1087.25,41.5042,42.6215,156.033,101.611,98.4849,0.004208842,0.135816,20.7539,514.899,0.286696,0,0
4360,1089.75,41.2999,42.3653,151.221,101.587,98.5184,0.00416137,0.135756,20.7801,514.849,0.28142,0,0
4370,1092.25,40.8871,42.191,151.12,101.613,98.7004,0.004100363,0.135759,20.7892,514.839,0.266863,0,0
4380,1094.75,41.3179,42.5217,155.404,101.599,98.8251,0.004104536,0.135778,20.7924,514.759,0.254007,0,0
4390,1097.25,41.0289,42.6435,155.843,101.621,98.7826,0.004237602,0.135608,20.7935,514.759,0.259973,0,0
4400,1099.75,40.7988,41.6757,152.007,101.613,98.8819,0.00422384,0.135839,20.7939,514.688,0.250001,0,0
4410,1102.25,40.9802,42.4402,156.636,101.612,98.6796,0.004230596,0.135971,20.794,514.628,0.268722,0,0
4420,1104.75,40.8099,42.16,158.05,101.636,98.8926,0.004272593,0.136058,20.7937,514.618,0.251097,0,0
4430,1107.25,41.1304,41.8955,155.189,101.635,98.6979,0.004211196,0.136151,20.7933,514.618,0.269071,0,0
4440,1109.75,40.5586,41.9968,158.584,101.632,98.7724,0.004084705,0.136154,20.7931,514.588,0.261845,0,0
4450,1112.25,41.1356,41.9826,151.699,101.646,98.4276,0.004151413,0.136105,20.7931,514.518,0.2952,0,0
4460,1114.75,39.8402,42.016,153.016,101.653,98.7542,0.004257352,0.136028,20.7931,514.508,0.26544,0,0
4470,1117.25,40.5472,42.0449,152.816,101.655,98.5995,0.004200945,0.136025,20.7928,514.468,0.280007,0,0
4480,1119.75,40.3344,41.5183,157.791,101.65,98.7141,0.004092601,0.136293,20.7914,514.428,0.268939,0,0
4490,1122.25,40.2832,41.7664,156.588,101.655,98.8459,0.004010947,0.136398,20.7909,514.388,0.257176,0,0
4500,1124.75,39.8867,41.6666,150.153,101.675,98.6167,0.00397699,0.136274,20.7907,514.388,0.280226,0,0
4510,1127.25,39.8681,41.5393,153.734,101.665,98.9073,0.004158257,0.136211,20.7913,514.348,0.252374,0,0
4520,1129.75,39.9496,41.4437,154.455,101.706,99.0858,0.0043683,0.136313,20.7929,514.328,0.239512,0,0
4530,1132.25,40.1823,42.0243,151.84,101.696,98.8409,0.004411852,0.136572,20.7934,514.288,0.261292,0,0
4540,1134.75,40.2005,41.7731,155.554,101.716,99.2891,0.00437192,0.136635,20.7936,514.278,0.221556,0,0
4550,1137.25,39.8546,41.4142,150.718,101.723,99.209,0.004371108,0.136651,20.7937,514.258,0.229595,0,0
4560,1139.75,40.2491,41.7784,154.302,101.739,98.7283,0.004443037,0.136594,20.7937,514.228,0.275616,0,0
4570,1142.25,39.7619,41.5955,156.112,101.752,99.0564,0.004377038,0.136608,20.7937,514.178,0.246364,0,0
4580,1144.75,39.9186,41.8815,151.443,101.738,98.7557,0.004256511,0.13663,20.7932,514.158,0.272997,0,0
4590,1147.25,39.3324,41.268,157.385,101.776,98.6259,0.004253325,0.136595,20.793,514.138,0.288524,0,0
4600,1149.75,39.8935,41.2789,153.053,101.769,98.7912,0.00426539,0.136598,20.7922,514.108,0.272488,0,0
4610,1152.25,39.3706,41.5233,152.456,101.801,98.9306,0.00435806,0.136714,20.7925,514.068,0.262405,0,0
4620,1154.75,39.7372,41.2388,154.375,101.796,98.67556,0.00438741,0.136743,20.7931,514.048,0.285648,0,0
4630,1157.25,38.7171,40.9545,156.182,101.824,98.7876,0.00429629,0.136719,20.794,514.018,0.277759,0,0
4640,1159.75,39.28,41.701,155.722,101.815,98.9468,0.004207784,0.136859,20.7944,513.978,0.262237,0,0
4650,1162.25,39.4785,40.9016,152.42,101.844,98.9595,0.004334609,0.136953,20.7945,513.928,0.263663,0,0
4660,1164.75,39.0723,41.3865,158.181,101.855,99.0356,0.00444941,0.137047,20.7946,513.898,0.257578,0,0
4670,1167.25,39.6116,40.8082,154.806,101.867,99.0128,0.004271047,0.137102,20.7946,513.868,0.260806,0,0
4680,1169.75,39.5823,41.2912,154.999,101.862,99.2982,,0.137118,,513.828,0.233867,0,0
4690,1172.25,38.9753,41.4177,158.196,101.888,99.1532,,0.137069,,513.818,0.249654,0,0
4700,1174.75,39.625,41.3993,152.362,101.878,98.8358,,,,513.788,0.27815,0,0
4710,1177.25,39.1649,40.6718,154.238,101.885,98.8419,,,,513.758,0.27829,0,0
4720,1179.75,38.982,40.851,155.983,101.894,99.1512,,,,513.728,0.250399,0,0
4723,1180.5,38.7337,40.6211,157.266,101.888,98.8677,,,,513.728,0.276075,0,0