File: 01_Data/MDF/Cone/MDF_Cone_HF25Scan_210324_R3.csv
Names,Time,Stack TC,Smoke TC,Exh Press,Smoke Comp,Smoke Meas,CO Meter,CO2 Meter,O2 Meter,Sample Mass,Ext Coeff,Start Test,Flame Verif
Chan Gain,,500,500,1,1,1,1,1,1,1,1,1,1
Offset,,0,0,0.194005,0,0,0,0,0,0,0,0,0
Gain,,1,1,25.011,13.5067,16.616,1,1,1,1.00091,1.04608,1,1
Units,sec,C,C,Pa,%,%,%,%,%,g,/m,,
Baseline,,18.7675,20.1148,169.135,101.243,100.73,0.000450767,0.053871,20.9406,-0.566599,0.04655521,,
13,3,16.2354,17.3984,167.031,101.123,100.731,0.000688548,0.0598023,20.9346,615.73,0.0356894,0,0
26,6.25,16.6405,18.4237,170.402,101.064,100.671,0.000661344,0.0617119,20.9343,615.701,0.035672,0,0
39,9.5,16.6509,18.2363,164.081,100.993,100.693,0.000454964,0.0620001,20.9342,615.65,0.0272452,0,0
52,12.75,17.048,17.9427,168.622,100.934,100.312,0.000359955,0.0614397,20.9354,615.62,0.0567409,0,0
65,16,16.7769,18.7726,174.061,100.882,100.261,0.000216071,0.0600928,20.9371,615.58,0.0566202,0,0
78,19.25,17.292,18.8295,169.568,100.791,100.187,2.95958E-05,0.0586554,20.9393,615.55,0.055184,0,0
91,22.5,17.3708,18.8338,168.468,100.712,100.15,8.57144E-05,0.0572507,20.9406,615.5,0.0512916,0,0
104,25.75,17.2328,18.7583,169.796,100.623,100.001,0.000255954,0.0563499,20.9423,615.49,0.0568833,0,0
117,29,16.9757,18.6627,161.939,100.64,100.02,0.000492842,0.05563866,20.9417,615.43,0.0567028,0,0
130,32.25,17.6352,18.639,174.569,100.634,100.02,0.000669235,0.0549482,20.9415,615.39,0.05616796,0,0
143,35.5,17.5529,19.1647,168.405,100.636,99.9995,0.000473243,0.05465997,20.9414,615.37,0.05818776,0,0
156,38.75,17.443,18.1443,168.854,100.647,99.9752,0.000232696,0.0545152,20.9414,615.36,0.0614741,0,0
169,42,17.7121,19.4284,166.872,100.66,99.9159,0.000277553,0.0544138,20.9414,615.31,0.0680857,0,0
182,45.25,17.1187,18.4771,167.372,100.659,100.038,0.000460492,0.0541364,20.9414,615.3,0.0568409,0,0
195,48.5,17.7441,19.1156,173.503,100.667,99.9448,0.000390231,0.0541975,20.9414,615.26,0.0661083,0,0
208,51.75,17.5376,18.7405,166.19,100.679,99.8398,0.000181955,0.0543124,20.9419,615.24,0.0768406,0,0
221,55,17.0644,18.8456,168.465,100.695,99.9696,0.00023216,0.0542942,20.942,615.22,0.066307,0,0
234,58.25,17.8794,19.3267,168.193,100.705,99.9265,0.00053732,0.05427916,20.942,615.18,0.0711656,0,0
247,61.5,16.8448,18.383,168.037,100.711,99.8236,0.000518409,0.0541298,20.9414,615.15,0.0812242,0,0
260,64.75,17.3144,18.3534,166.679,100.715,99.8915,0.000265043,0.0541998,20.9413,615.11,0.0753175,0,0
273,68,17.3948,19.098,168.485,100.732,99.7267,0.000128863,0.05420319,20.9423,615.08,0.0920461,0,0
286,71.25,18.1004,18.8667,168.669,100.768,99.8271,7.16517E-05,0.0541514,20.9433,615.05,0.0860413,0,0
299,74.5,17.4004,19.4592,171.696,100.761,99.7283,0.000194732,0.0543831,20.9424,615.02,0.0944965,0,0
312,77.75,17.7744,18.9833,171.239,100.782,99.6497,0.000225062,0.0545014,20.9422,614.99,0.103721,0,0
325,81,17.3445,19.2485,168.433,100.817,99.5518,0.00034821,0.0545723,20.9421,614.96,0.115852,0,0
338,84.25,17.8062,19.4132,169.376,100.844,99.5883,0.000573245,0.0546696,20.9425,614.94,0.115,0,0
351,87.5,17.5786,18.9138,171.812,100.85,99.5406,0.00042034,0.0546849,20.9439,614.89,0.119918,0,0
364,90.75,17.3346,19.2492,164.252,100.887,99.4032,0.000357257,0.0547974,20.9443,614.85,0.135932,0,0
377,94,17.9842,19.2537,172.472,100.925,99.3865,0.000410669,0.0550802,20.9429,614.82,0.141,0,0
390,97.25,17.6536,19.5039,169.192,100.945,99.4321,0.000342497,0.0554319,20.9415,614.77,0.138586,0,0
403,100.5,17.6989,18.9641,167.349,100.97,99.4088,0.000456706,0.05613013,20.9407,614.73,0.142988,0,0
416,103.75,17.9838,19.4525,168.233,100.996,99.2896,0.000665581,0.0575302,20.9379,614.72,0.156353,0,0
429,107,17.4844,19.7407,164.525,101.014,99.3997,0.000573796,0.0592398,20.9357,614.69,0.147837,0,0
442,110.25,17.9238,19.1857,165.176,101.028,99.067,0.000491206,0.0598041,20.9361,614.579,0.17987,0,0
455,113.5,17.8782,19.4472,166.369,101.059,98.9306,0.000671814,0.0595049,20.9365,614.569,0.195357,0,0
468,116.75,18.4419,19.5378,166.614,101.071,99.0168,0.000819727,0.0603202,20.9358,614.509,0.188376,0,0
481,120,18.1424,19.831,170.739,101.072,98.854,0.000901249,0.0615855,20.9337,614.449,0.203585,0,0
494,123.25,18.1666,19.7823,167.728,101.103,99.0346,0.0011196,0.063906,20.9323,614.359,0.18965,0,0
507,126.5,18.3031,20.0066,166.463,101.111,98.4058,0.001227107,0.0648937,20.932,614.279,0.248882,0,0
520,129.75,18.3727,19.8226,163.619,101.111,98.423,0.001307698,0.06528686,20.9319,614.209,0.247274,0,0
533,133,17.7646,20.2785,168.165,101.124,98.0164,0.00169919,0.0662193,20.9306,614.119,0.286427,0,0
546,136.25,18.681,19.9559,162.278,101.126,101.078,0.001881841,0.081227,20.8998,613.949,0.004410552,0,0
559,139.5,21.1581,24.7874,149.359,101.129,100.484,0.002039718,0.162951,20.7635,613.789,0.05869101,0,1
572,142.75,24.411,30.2782,145.285,101.122,100.2,0.002465616,0.283779,20.6507,613.168,0.0839853,0,1
585,146,28.3731,35.9592,144.77,101.128,100.646,0.002660335,0.374569,20.5322,612.668,0.0439026,0,0
598,149.25,31.8199,40.9138,147.002,101.126,100.002,0.002755149,0.434479,20.479,612.117,0.102573,0,0
611,152.5,34.4255,44.8215,149.241,101.112,100.318,0.002787654,0.462641,20.4541,611.647,0.0722749,0,0
624,155.75,35.8655,47.48,144.997,101.111,100.061,0.003178882,0.477842,20.4459,611.146,0.09575557,0,0
637,159,37.7249,49.8872,153.943,101.11,99.4205,0.003318137,0.481575,20.4497,610.666,0.154601,0,0
650,162.25,39.0337,51.0919,145.911,101.094,98.561,0.003396366,0.478135,20.4572,610.165,0.232853,0,0
663,165.5,39.8081,51.9213,157.879,101.096,99.1061,0.003477146,0.472533,20.4641,609.685,0.182392,0,0
676,168.75,39.858,52.0386,146.859,101.091,99.0082,0.003433898,0.468604,20.4708,609.205,0.191046,0,0
689,172,40.3092,52.3085,153.349,101.074,98.7146,0.003453299,0.461456,20.4822,608.784,0.216726,0,0
702,175.25,40.3662,52.5205,151.873,101.055,99.3723,0.003519804,0.450025,20.5004,608.314,0.154072,0,0
715,178.5,40.0151,51.8986,148.911,101.051,98.4002,0.003509592,0.438336,20.5151,607.853,0.243901,0,0
728,181.75,41.1595,52.0349,153.423,101.051,98.4205,0.003619715,0.42861,20.5279,607.423,0.24201,0,0
741,185,40.7558,52.1306,149.787,101.034,98.8642,0.003656226,0.41847,20.5378,606.993,0.199238,0,0
754,188.25,40.6568,51.786,151.732,101.043,97.7943,0.003558393,0.409859,20.5464,606.582,0.299835,0,0
767,191.5,40.3872,50.8284,155.854,101.024,99.3667,0.00324767,0.400145,20.5585,606.202,0.151817,0,0
780,194.75,39.6853,49.9385,153.069,101.021,97.703,0.003319557,0.389631,20.572,605.771,0.306419,0,0
793,198,40.2939,49.9776,155.551,101.012,97.918,0.003332685,0.38355,20.5789,605.391,0.285461,0,0
806,201.25,40.3952,50.1209,156.554,100.999,98.1665,0.003308899,0.376592,20.5869,604.971,0.261045,0,0
819,204.5,40.0193,49.0808,153.249,101.005,97.5874,0.003188774,0.368708,20.5963,604.63,0.315898,0,0
832,207.75,39.8336,49.0991,158.48,100.987,98.3607,0.003355523,0.360862,20.6058,604.21,0.241824,0,0
845,211,39.068,47.706,155.986,100.989,98.5427,0.003402117,0.351306,20.6161,603.9,0.225044,0,0
858,214.25,38.8412,47.4356,154.088,100.994,97.8343,0.003414074,0.345555,20.6222,603.529,0.291658,0,0
871,217.5,38.3616,47.2335,158.174,101.002,98.1893,0.00316237,0.338719,20.6299,603.189,0.259175,0,0
884,220.75,39.0556,46.7743,154.197,101.005,98.5594,0.002983382,0.334245,20.6349,602.849,0.224872,0,0
897,224,38.1458,45.8229,152.5,100.999,99.3682,0.002613199,0.327483,20.6438,602.478,0.149391,0,0
910,227.25,38.347,45.6817,156.761,100.999,98.9844,0.00244284,0.321255,20.6489,602.148,0.184907,0,0
923,230.5,37.9935,44.8718,158.183,100.996,99.1319,0.002679417,0.316239,20.6553,601.838,0.170939,0,0
936,233.75,37.614,44.306,157.334,101.012,98.8764,0.002587817,0.312092,20.6605,601.508,0.196124,0,0
949,237,37.7723,43.6287,158.982,101.035,99.0407,0.002506986,0.307289,20.6647,601.147,0.182949,0,0
962,240.25,37.2073,44.2729,151.788,101.024,99.2222,0.002513669,0.303969,20.6688,600.817,0.165171,0,0
975,243.5,37.8652,44.0331,153.035,101.031,99.675,0.002499857,0.299029,20.6756,600.537,0.124026,0,0
988,246.75,37.1084,43.3619,159.314,101.044,99.46,0.002351654,0.294443,20.6793,600.206,0.145001,0,0
1001,250,37.0306,43.3335,156.498,101.056,99.8941,0.002240833,0.291234,20.683,599.906,0.106128,0,0
1014,253.25,37.0174,42.8998,159.367,101.061,100.067,0.002160314,0.28802,20.6863,599.576,0.090623,0,0
1027,256.5,37.197,42.7515,154.891,101.078,99.7744,0.001930026,0.28522,20.6902,599.296,0.11911,0,0
1040,259.75,36.805,42.7465,160.47,101.086,99.9412,0.00162502,0.282194,20.6943,598.955,0.104528,0,0
1053,263,36.6974,42.1859,161.152,101.092,100.04,0.001562101,0.280521,20.6956,598.695,0.0959872,0,0
1066,266.25,36.8049,42.2676,157.99,101.114,99.9422,0.001736959,0.278284,20.6981,598.435,0.106942,0,0
1079,269.5,36.6184,42.1176,155.685,101.123,100.261,0.00187877,0.275048,20.7012,598.074,0.0785642,0,0
1092,272.75,37.3448,42.0375,159.11,101.124,100.521,0.002069723,0.272977,20.7025,597.814,0.0548252,0,0
1105,276,36.3329,41.5002,161.826,101.122,100.021,0.002176815,0.270972,20.7042,597.544,0.100392,0,0
1118,279.25,36.4241,41.7056,154.918,101.143,100.241,0.002030912,0.270025,20.7049,597.194,0.0821707,0,0
1131,282.5,36.6682,41.8816,159.13,101.141,100.803,0.0019096,0.269702,20.7056,596.923,0.03069534,0,0
1144,285.75,35.9157,41.5315,156.677,101.131,100.516,0.001809989,0.268282,20.7076,596.613,0.0559614,0,0
1157,289,36.4131,41.6023,163.038,101.125,101.119,0.001785569,0.266894,20.7093,596.343,0.000562236,0,0
1170,292.25,36.5338,41.4843,157.003,101.139,101.305,0.001715392,0.266527,20.7099,596.023,-0.0151134,0,0
1183,295.5,36.4628,41.436,154.708,101.13,100.462,0.001664806,0.265285,20.7123,595.782,0.0608407,0,0
1196,298.75,36.1266,40.9866,159.341,101.132,101.083,0.001612418,0.263195,20.7152,595.472,0.004390872,0,0
1209,302,35.6946,40.7219,160.945,101.124,101.506,0.001627463,0.260835,20.7163,595.212,-0.0345473,0,0
1222,305.25,36.285,40.9493,156.016,101.122,100.296,0.001680283,0.259664,20.7168,594.922,0.0752882,0,0
1235,308.5,35.8497,40.6553,159.75,101.111,100.731,0.001551965,0.259314,20.7172,594.651,0.0345594,0,0
1248,311.75,36.0108,40.2665,150.945,101.099,101.345,0.001651795,0.258094,20.7193,594.351,-0.0222946,0,0
1261,315,36.2174,40.5663,153.914,101.096,101.048,0.001677103,0.256045,20.7213,594.021,0.004396338,0,0
1274,318.25,35.8187,41.0315,164.182,101.073,100.924,0.001926732,0.255265,20.7218,593.74,0.0135432,0,0
1287,321.5,36.2136,40.567,157.164,101.07,100.531,0.002046084,0.254191,20.7227,593.45,0.0489983,0,0
1300,324.75,35.8731,40.7596,158.583,101.066,100.956,0.001944085,0.253518,20.7239,593.15,0.0100407,0,0
1313,328,35.7755,40.1097,159.292,101.046,101.923,0.001862803,0.251283,20.7257,592.87,-0.0793144,0,0
1326,331.25,35.8432,40.4468,158.073,101.022,101.594,0.001736051,0.249476,20.7272,592.549,-0.0517626,0,0
1339,334.5,35.762,40.4404,156.544,101.014,101.409,0.001887366,0.246229,20.7313,592.289,-0.0357881,0,0
1352,337.75,35.5473,40.4917,154.789,101.007,101.567,0.001967686,0.243375,20.7329,591.979,-0.0507291,0,0
1365,341,36.1622,40.3057,158.747,100.964,101.411,0.001921087,0.242344,20.7347,591.689,-0.0405323,0,0
1378,344.25,35.704,40.0534,156.822,100.978,101.29,0.002017034,0.240168,20.7372,591.368,-0.0282485,0,0
1391,347.5,35.6466,40.1392,157.91,100.96,101.187,0.001918838,0.237111,20.7396,591.098,-0.0205748,0,0
1404,350.75,35.5939,40.0733,155.5,100.933,101.237,0.001905683,0.237635,20.7385,590.828,-0.0275995,0,0
1417,354,35.6363,39.8385,156.598,100.926,101.729,0.001980069,0.237226,20.7405,590.538,-0.0726656,0,0
1430,357.25,35.4306,40.1268,157.883,100.921,101.419,0.001926308,0.236627,20.7433,590.237,-0.045247,0,0
1443,360.5,35.2113,39.5999,155.868,100.928,101.494,0.001875378,0.234908,20.7453,589.967,-0.05131375,0,0
1456,363.75,35.2074,39.9329,157.157,100.895,101.899,0.00212296,0.232763,20.7476,589.647,-0.0909071,0,0
1469,367,35.5125,39.654,156.318,100.888,101.176,0.002345708,0.231873,20.7481,589.367,-0.0262051,0,0
1482,370.25,35.2808,39.3186,154.652,100.873,101.12,0.002495672,0.232815,20.7453,589.066,-0.022441,0,0
1495,373.5,35.5086,39.2982,161.971,100.86,101.404,0.002481388,0.232656,20.7457,588.796,-0.0493438,0,0
1508,376.75,35.3418,39.4958,154.76,100.849,101.641,0.002284424,0.231864,20.7458,588.516,-0.0718057,0,0
1521,380,35.3618,39.7975,154.456,100.845,101.197,0.002334042,0.230987,20.7457,588.235,-0.0320288,0,0
1534,383.25,34.953,39.2125,158.354,100.821,101.009,0.002186526,0.229917,20.7472,587.965,-0.01712916,0,0
1547,386.5,35.1771,39.2154,157.926,100.794,101.195,0.002093321,0.22873,20.7488,587.685,-0.0364591,0,0
1560,389.75,35.2452,39.2416,163.777,100.797,101.037,0.001899882,0.227168,20.7507,587.425,-0.0217924,0,0
1573,393,35.2637,39.2704,160.522,100.787,101.215,0.001784402,0.225945,20.7521,587.134,-0.0389272,0,0
1586,396.25,35.1904,39.0959,157.29,100.768,101.365,0.001691614,0.225686,20.7524,586.864,-0.0542056,0,0
1599,399.5,34.5964,38.8816,154.201,100.758,101.108,0.001914386,0.224977,20.7525,586.584,-0.031812,0,0
1612,402.75,34.3062,39.1653,156.655,100.745,101.182,0.002019213,0.224241,20.7538,586.354,-0.0396462,0,0
1625,406,35.311,38.8746,159.862,100.74,101.228,0.002133243,0.223214,20.7549,586.083,-0.0442802,0,0
1638,409.25,34.8676,38.4176,158.975,100.716,101.017,0.002317676,0.222102,20.7561,585.793,-0.0273538,0,0
1651,412.5,34.6717,38.8387,158.847,100.702,101.158,0.002314177,0.220792,20.7564,585.543,-0.0414272,0,0
1664,415.75,35.6063,37.6826,159.14,100.7,101.092,0.002383115,0.220747,20.7565,585.293,-0.03567116,0,0
1677,419,34.874,38.7792,155.958,100.674,100.845,0.002415653,0.22032,20.7565,585.013,-0.015595,0,0
1690,422.25,34.6655,38.4551,158.117,100.678,100.951,0.002246416,0.21959,20.7571,584.752,-0.024857,0,0
1703,425.5,34.6015,38.7105,160.936,100.671,100.757,0.002154136,0.218247,20.7591,584.502,-0.007787891,0,0
1716,428.75,34.7151,38.4209,166.295,100.653,100.952,0.002332855,0.217452,20.7607,584.252,-0.0272413,0,0
1729,432,34.93,38.1964,160.674,100.655,101.202,0.002366476,0.216674,20.7618,584.012,-0.0497194,0,0
1742,435.25,34.2914,38.0136,155.427,100.653,100.913,0.002157596,0.216568,20.762,583.751,-0.0237005,0,0
1755,438.5,34.7024,37.9963,157.503,100.646,101.081,0.001902875,0.215993,20.7625,583.501,-0.0396264,0,0
1768,441.75,34.2756,37.7918,156.945,100.629,100.807,0.001827131,0.215267,20.7622,583.241,-0.01623,0,0
1781,445,35.5984,38.7792,161.33,100.633,101.056,0.001825816,0.214954,20.7621,583.011,-0.0384515,0,0
1794,448.25,34.1147,37.5,154.553,100.63,100.894,0.002022121,0.214289,20.7631,582.75,-0.0239697,0,0
1807,451.5,34.1892,38.0745,159.178,100.613,100.83,0.002205296,0.212778,20.7659,582.48,-0.0197729,0,0
1820,454.75,33.7918,37.4679,163.841,100.615,100.956,0.002199732,0.212704,20.7655,582.24,-0.0311145,0,0
1833,458,34.3013,37.4395,157.938,100.613,101.029,0.002223655,0.212436,20.7657,582.01,-0.0378913,0,0
1846,461.25,33.861,37.9043,158.039,100.619,101.262,0.002045383,0.211978,20.7668,581.75,-0.0584881,0,0
1859,464.5,33.7926,37.3088,158.869,100.622,100.939,0.001804772,0.210899,20.7682,581.489,-0.0287868,0,0
1872,467.75,33.8748,37.4804,157.721,100.663,100.888,0.002072089,0.209966,20.7685,581.279,-0.0204926,0,0
1885,471,33.9253,37.592,158.355,100.705,101.095,0.002177172,0.210078,20.7686,581.029,-0.0355427,0,0
1898,474.25,32.9622,36.6471,162.102,100.735,101.119,0.001930343,0.210508,20.7687,580.749,-0.03484375,0,0
1911,477.5,33.3766,37.3783,158.447,100.789,101.513,0.001897615,0.2104173,20.7687,580.559,-0.0656477,0,0
1924,480.75,33.7552,36.6798,159.64,100.824,101.212,0.00193166,0.210148,20.7687,580.268,-0.0352451,0,0
1937,484,33.9292,36.8547,160.253,100.851,101.099,0.001971509,0.208637,20.7702,580.058,-0.0225413,0,0
1950,487.25,33.2858,36.6767,159.948,100.9,101.103,0.002042886,0.207213,20.7708,579.818,-0.0184098,0,0
1963,490.5,33.6193,37.0779,162.168,100.94,101.109,0.002086159,0.207407,20.7709,579.608,-0.0153178,0,0
1976,493.75,33.0805,36.7348,162.832,100.977,101.201,0.001825017,0.207117,20.7709,579.367,-0.0203643,0,0
1989,497,33.7536,36.4092,160.004,101.003,101.37,0.001902891,0.206921,20.7716,579.137,-0.03330278,0,0
2002,500.25,33.5836,36.4833,164.055,101.043,101.1,0.002238822,0.206063,20.7728,578.877,-0.005209981,0,0
2015,503.5,32.9613,37.1573,153.691,101.072,101.939,0.002393173,0.205523,20.7734,578.647,-0.0783258,0,0
2028,506.75,33.6024,36.4123,160.771,101.123,101.273,0.002314771,0.204186,20.775,578.417,-0.0135577,0,0
2041,510,33.3141,36.1726,161.501,101.154,101.672,0.001957569,0.203876,20.7754,578.206,-0.0469236,0,0
2054,513.25,33.0087,36.4901,157.945,101.197,101.638,0.001678951,0.203429,20.7756,577.936,-0.0398862,0,0
2067,516.5,32.6223,36.4937,159.429,101.237,101.539,0.001999603,0.20312,20.7753,577.726,-0.0273664,0,0
2080,519.75,32.9417,36.2514,162.852,101.253,101.303,0.002013108,0.203379,20.775,577.486,-0.004576288,0,0
2093,523,32.7085,36.3449,158.038,101.287,101.597,0.002113259,0.202613,20.7742,577.245,-0.0280412,0,0
2106,526.25,32.9308,36.2091,163.935,101.327,101.588,0.002299904,0.2021963,20.7735,577.055,-0.0236319,0,0
2119,529.5,32.949,36.0478,158.189,101.349,101.57,0.002226076,0.202233,20.772,576.795,-0.0199675,0,0
2132,532.75,33.0248,36.3208,160.882,101.378,101.506,0.002230436,0.202859,20.7712,576.605,-0.0116189,0,0
2145,536,32.913,36.0882,159.945,101.403,101.654,0.002338915,0.203232,20.7715,576.385,-0.0226729,0,0
2158,539.25,33.1804,36.28,158.424,101.421,101.603,0.002554708,0.20357,20.7729,576.124,-0.016499,0,0
2171,542.5,33.0451,35.7144,152.966,101.446,101.513,0.00244935,0.202319,20.7754,575.904,-0.006069751,0,0
2184,545.75,32.8159,36.1978,156.2,101.472,101.64,0.002275922,0.201749,20.776,575.694,-0.0151726,0,0
2197,549,32.801,36.2337,162.103,101.493,101.748,0.002268614,0.201342,20.7766,575.464,-0.0230183,0,0
2210,552.25,32.5999,35.9241,160.789,101.495,101.686,0.002227487,0.200078,20.7764,575.234,-0.0172881,0,0
2223,555.5,32.3319,35.5684,157.803,101.512,101.563,0.002316918,0.199699,20.7769,574.983,-0.004596535,0,0
2236,558.75,32.721,36.0344,159.349,101.524,101.842,0.002443508,0.199942,20.7764,574.793,-0.0286886,0,0
2249,562,32.8023,36.0915,163.459,101.528,101.801,0.002591079,0.200367,20.7759,574.573,-0.0246887,0,0
2262,565.25,32.7481,35.9253,159.534,101.533,101.812,0.002552457,0.199896,20.7767,574.363,-0.0251274,0,0
2275,568.5,32.5592,35.8566,159.649,101.547,101.853,0.00251507,0.198629,20.7776,574.133,-0.0276072,0,0
2288,571.75,32.9394,35.8228,158.725,101.534,101.677,0.002476146,0.199095,20.7767,573.932,-0.0129245,0,0
2301,575,32.7014,35.578,158.706,101.533,101.789,0.00237318,0.198914,20.7776,573.672,-0.0230704,0,0
2314,578.25,32.328,35.8071,157.557,101.545,101.778,0.002641683,0.198817,20.7778,573.472,-0.02102983,0,0
2327,581.5,32.2725,35.4391,159.085,101.532,101.722,0.002908792,0.198159,20.7778,573.252,-0.0171374,0,0
2340,584.75,31.7291,35.557,159.458,101.515,101.659,0.00291764,0.198182,20.7776,573.052,-0.0129996,0,0
2353,588,32.5115,35.6519,160.575,101.523,102.02,0.003054623,0.197654,20.7781,572.801,-0.04481443,0,0
2366,591.25,31.4787,35.501,158.101,101.494,101.476,0.00326583,0.196961,20.7792,572.621,0.001684418,0,0
2379,594.5,32.52,35.1334,159.169,101.483,101.711,0.003362377,0.197179,20.7778,572.411,-0.0206565,0,0
2392,597.75,32.2056,35.0791,158.057,101.469,101.682,0.003435107,0.196909,20.7774,572.181,-0.0191875,0,0
2405,601,32.3763,35.1311,160.51,101.453,101.585,0.00345678,0.19651,20.7777,571.991,-0.011942,0,0
2418,604.25,31.9106,35.4988,159.91,101.435,101.73,0.003320735,0.19666,20.7791,571.781,-0.0265908,0,0
2431,607.5,31.7266,34.7856,158.302,101.422,101.637,0.003077469,0.196092,20.7795,571.56,-0.0194923,0,0
2444,610.75,32.3392,35.1614,154.362,101.388,101.651,0.003000369,0.196203,20.7805,571.33,-0.02377834,0,0
2457,614,32.3332,35.2631,165.083,101.374,101.732,0.002909509,0.196253,20.7807,571.11,-0.0323307,0,0
2470,617.25,31.6442,35.3441,157.947,101.335,101.852,0.002947936,0.196123,20.7813,570.91,-0.0467097,0,0
2483,620.5,31.9767,35.1952,156.535,101.303,101.333,0.003166974,0.195179,20.782,570.689,-0.002692977,0,0
2496,623.75,31.7354,34.968,159.699,101.277,101.453,0.003216587,0.195128,20.7811,570.489,-0.01595,0,0
2509,627,31.9922,34.9291,162.703,101.249,101.455,0.003144672,0.19478,20.7811,570.289,-0.0186729,0,0
2522,630.25,31.8007,34.7483,164.535,101.208,101.502,0.003132934,0.193975,20.7826,570.069,-0.02663628,0,0
2535,633.5,31.7915,34.6209,159.961,101.176,101.298,0.003312809,0.193759,20.783,569.889,-0.0110307,0,0
2548,636.75,31.7084,34.3661,160.756,101.147,101.747,0.003451062,0.192912,20.7827,569.699,-0.0542837,0,0
2561,640,31.9874,34.7102,165.695,101.121,101.387,0.003279838,0.192646,20.7825,569.478,-0.02411394,0,0
2574,643.25,31.7699,34.4753,164.542,101.095,101.315,0.003201157,0.192329,20.7839,569.258,-0.0199505,0,0
2587,646.5,31.7246,34.5305,159.243,101.06,101.163,0.003277843,0.192839,20.7831,569.028,-0.009351957,0,0
2600,649.75,31.8348,34.4636,161.167,101.037,101.284,0.003416776,0.193114,20.7826,568.898,-0.0224717,0,0
2613,653,31.513,34.2685,161.866,100.984,101.358,0.003723899,0.192843,20.7827,568.638,-0.0339615,0,0
2626,656.25,31.5153,34.5569,157.749,100.952,101.087,0.003697749,0.192677,20.7847,568.457,-0.0122991,0,0
2639,659.5,30.8922,35.2979,162.808,100.962,101.014,0.003549366,0.19184,20.7852,568.227,-0.00473115,0,0
2652,662.75,31.8373,34.3584,165.786,100.965,101.03,0.003733513,0.19131,20.786,568.047,-0.005934022,0,0
2665,666,31.1062,34.76,162.792,100.984,101.047,0.00383723,0.191424,20.7873,567.847,-0.005731526,0,0
2678,669.25,31.7257,34.6978,161.823,100.993,101.083,0.003774797,0.191321,20.7876,567.627,-0.008138783,0,0
2691,672.5,31.4837,34.2109,160.994,101,101.24,0.003759823,0.189933,20.7893,567.437,-0.0217606,0,0
2704,675.75,31.325,34.1395,164.836,101.016,101.201,0.003685229,0.188938,20.7898,567.216,-0.0167987,0,0
2717,679,31.3551,33.636,159.627,101.031,101.731,0.003631091,0.189007,20.7886,567.026,-0.0633806,0,0
2730,682.25,31.7214,34.0195,163.939,101.051,101.085,0.00377314,0.18915,20.787,566.826,-0.003089633,0,0
2743,685.5,31.0816,34.3057,158.689,101.068,100.978,0.003824434,0.18885,20.787,566.606,0.008170915,0,0
2756,688.75,30.5869,33.7523,163.563,101.09,101.006,0.003802641,0.188188,20.7883,566.436,0.007611331,0,0
2769,692,30.8832,33.5996,159.513,101.104,101.355,0.003829982,0.187478,20.7886,566.245,-0.022793,0,0
2782,695.25,31.5026,33.903,161.503,101.131,101.23,0.003822125,0.187672,20.7887,566.065,-0.008977476,0,0
2795,698.5,31.6861,34.1072,158.692,101.166,101.312,0.003850874,0.187725,20.7887,565.865,-0.01325151,0,0
2808,701.75,31.3633,33.872,161.438,101.183,101.374,0.003939665,0.187301,20.7894,565.655,-0.0172744,0,0
2821,705,30.892,33.9819,164.035,101.218,101.325,0.004244228,0.187241,20.7903,565.455,-0.009726452,0,0
2834,708.25,30.8666,33.5114,161.252,101.262,101.33,0.004273518,0.187005,20.791,565.255,-0.006105873,0,0
2847,711.5,31.0821,33.9272,162.997,101.281,101.301,0.004232842,0.186251,20.7925,565.074,-0.001815471,0,0
2860,714.75,31.4472,33.9961,157.039,101.328,101.382,0.00422439,0.186116,20.7919,564.854,-0.004896413,0,0
2873,718,31.1047,33.8013,160.378,101.357,101.311,0.004161465,0.186172,20.7913,564.704,0.004172198,0,0
2886,721.25,30.1096,33.7336,163.324,101.383,101.521,0.004123124,0.18665,20.7915,564.514,-0.0124721,0,0
2899,724.5,31.0602,33.9188,160.553,101.414,101.653,0.003918555,0.18666,20.7925,564.304,-0.0215835,0,0
2912,727.75,30.9442,34.026,159.256,101.427,101.706,0.003937874,0.186476,20.7924,564.113,-0.0252239,0,0
2925,731,30.8648,33.9064,161.308,101.459,101.461,0.003837853,0.186325,20.7915,563.913,-0.000200182,0,0
2938,734.25,31.0486,33.5685,158.015,101.485,101.728,0.003979281,0.187222,20.7904,563.753,-0.0218971,0,0
2951,737.5,31.0934,33.6461,159.545,101.498,101.88,0.004432271,0.187282,20.7901,563.523,-0.0344161,0,0
2964,740.75,31.0598,33.5572,161.813,101.525,101.668,0.00453937,0.186613,20.7905,563.353,-0.01292014,0,0
2977,744,31.0559,33.919,160.991,101.55,101.558,0.004379696,0.186338,20.7919,563.153,-0.000674401,0,0
2990,747.25,30.9479,34.1349,159.582,101.575,101.761,0.004234678,0.187025,20.7907,562.962,-0.016756,0,0
3003,750.5,30.905,33.7955,158.957,101.586,101.628,0.004200223,0.187133,20.7902,562.772,-0.003838676,0,0
3016,753.75,30.7769,33.7847,163.184,101.625,101.784,0.004265769,0.185969,20.7905,562.562,-0.0143837,0,0
3029,757,30.8488,33.8219,164.321,101.643,101.722,0.004136752,0.185555,20.7919,562.392,-0.007084504,0,0
3042,760.25,30.442,33.5868,157.015,101.648,101.719,0.003849313,0.18542,20.7922,562.202,-0.006325891,0,0
3055,763.5,30.774,33.4876,157.715,101.674,101.795,0.00399091,0.185361,20.7923,562.002,-0.0108418,0,0
3068,766.75,30.5005,33.3665,160.0625,101.693,101.657,0.004076317,0.185399,20.7923,561.821,0.003264647,0,0
3081,770,30.4139,33.3506,163.641,101.698,102.094,0.004055645,0.185142,20.7923,561.611,-0.0356508,0,0
3094,773.25,31.2397,32.8145,161.022,101.703,101.862,0.004261206,0.184503,20.7939,561.401,-0.01431581,0,0
3107,776.5,30.4373,33.2946,161.949,101.723,102.056,0.004472718,0.184211,20.7944,561.221,-0.030046,0,0
3120,779.75,30.5406,33.5265,169.174,101.735,101.748,0.004206568,0.184183,20.7946,561.061,-0.001251482,0,0
3133,783,30.517,33.5824,163.217,101.742,101.771,0.003968947,0.184231,20.7934,560.861,-0.002677111,0,0
3146,786.25,30.5593,33.5931,159.483,101.747,101.806,0.003813961,0.184772,20.7934,560.67,-0.00530192,0,0
3159,789.5,30.7266,33.0778,160.792,101.751,101.912,0.003727265,0.185225,20.7924,560.5,-0.0145612,0,0
3172,792.75,30.5193,33.9564,159.704,101.745,101.925,0.003900638,0.186521,20.7906,560.29,-0.0161851,0,0
3185,796,30.4033,33.4585,162.341,101.745,102.017,0.003818248,0.186655,20.791,560.13,-0.0244814,0,0
3198,799.25,30.8092,33.0897,164.18,101.748,101.855,0.003682569,0.186323,20.7911,559.93,-0.009660201,0,0
3211,802.5,31.9231,33.1775,161.419,101.739,102.3,0.003814524,0.186758,20.7912,559.76,-0.05050033,0,0
3224,805.75,30.5589,33.9554,160.905,101.721,101.853,0.003765258,0.186895,20.7913,559.539,-0.011977,0,0
3237,809,30.9672,33.4873,160.038,101.727,101.988,0.003768088,0.187662,20.7892,559.369,-0.0235623,0,0
3250,812.25,30.2713,33.4784,162.293,101.721,101.838,0.003697631,0.188389,20.7876,559.179,-0.0106064,0,0
3263,815.5,30.8115,33.6183,156.104,101.695,101.637,0.003732851,0.188914,20.7872,558.989,0.005162748,0,0
3276,818.75,31.2552,33.8721,155.288,101.682,101.781,0.003654946,0.189068,20.7864,558.839,-0.00894627,0,0
3289,822,32.0159,32.6867,159.743,101.664,102.119,0.003588981,0.189227,20.7857,558.649,-0.0409707,0,0
3302,825.25,30.8427,33.5637,160.59,101.642,102.122,0.003477987,0.189799,20.7855,558.458,-0.0432163,0,0
3315,828.5,31.0165,33.7029,161.712,101.625,102.027,0.003266372,0.190136,20.7854,558.258,-0.0362175,0,0
3328,831.75,30.8791,33.8146,160.98,101.608,101.856,0.003355966,0.190777,20.7843,558.058,-0.022362,0,0
3341,835,30.1905,33.3405,160.498,101.578,101.628,0.003279321,0.190689,20.7834,557.908,-0.004499678,0,0
3354,838.25,30.7873,34.4168,159.811,101.557,101.688,0.003115291,0.191639,20.7832,557.718,-0.0117624,0,0
3367,841.5,30.9136,33.8011,161.841,101.519,101.532,0.003047643,0.191926,20.7836,557.487,-0.001131687,0,0
3380,844.75,30.9581,33.8454,161.702,101.495,101.855,0.002924951,0.192966,20.7832,557.347,-0.032559,0,0
3393,848,30.7071,33.1334,162.738,101.456,101.677,0.002829599,0.192791,20.7831,557.107,-0.0200053,0,0
3406,851.25,31.6623,33.9785,161.43,101.408,101.851,0.002689329,0.193064,20.7826,556.947,-0.0399763,0,0
3419,854.5,31.0527,34.0537,163.925,101.392,101.417,0.00267127,0.193933,20.7792,556.757,-0.002241631,0,0
3432,857.75,30.8635,33.9954,161.883,101.354,101.817,0.002627905,0.194792,20.7789,556.567,-0.041803,0,0
3445,861,31.1052,34.3937,159.39,101.317,101.483,0.002353116,0.195071,20.7784,556.396,-0.015034,0,0
3458,864.25,31.0695,34.1885,165.068,101.279,101.201,0.002484555,0.1963678,20.7769,556.156,0.007059364,0,0
3471,867.5,31.2655,34.2913,157.547,101.25,101.379,0.002627935,0.197169,20.7776,555.976,-0.0117251,0,0
3484,870.75,31.2257,34.6695,167.966,101.198,101.395,0.002854376,0.197442,20.7778,555.786,-0.017773,0,0
3497,874,30.8793,34.4156,158.724,101.153,101.341,0.003129795,0.198058,20.7772,555.626,-0.0170196,0,0
3510,877.25,31.0786,34.7596,160.115,101.122,101.31,0.003003288,0.199475,20.776,555.436,-0.0170229,0,0
3523,880.5,31.2868,34.4924,157.522,101.077,101.236,0.002735317,0.200106,20.7757,555.255,-0.014393,0,0
3536,883.75,31.9503,34.6433,159.131,101.019,101.367,0.002654171,0.20098,20.7742,555.055,-0.0314833,0,0
3549,887,30.9115,34.2546,158.467,100.992,101.252,0.002514177,0.201813,20.7735,554.845,-0.0235667,0,0
3562,890.25,31.5032,34.6018,157.186,100.935,101.148,0.002615315,0.202384,20.7736,554.685,-0.0193481,0,0
3575,893.5,31.3969,35.1711,160.21,100.899,100.919,0.002480728,0.202468,20.7731,554.455,-0.001838447,0,0
3588,896.75,31.6587,34.8302,158.612,100.867,100.822,0.002354617,0.203661,20.7716,554.285,0.004168918,0,0
3601,900,31.4985,33.9691,161.971,100.839,101.094,0.002045623,0.204358,20.7709,554.084,-0.0231686,0,0
3614,903.25,31.5272,34.768,157.831,100.793,100.914,0.002068997,0.20524,20.77,553.874,-0.0110253,0,0
3627,906.5,31.5956,34.0618,158.621,100.74,100.964,0.002072945,0.206115,20.7694,553.704,-0.0203841,0,0
3640,909.75,30.9611,36.5471,163.746,100.71,100.585,0.002022831,0.20681,20.7692,553.464,0.011449,0,0
3653,913,31.5747,35.0234,157.747,100.68,100.824,0.002171942,0.207003,20.7681,553.274,-0.0131014,0,0
3666,916.25,31.9462,34.9357,160.032,100.63,100.836,0.002302669,0.209161,20.764,553.083,-0.0187562,0,0
3679,919.5,32.1607,35.3365,161.955,100.628,101.053,0.002424154,0.211324,20.7609,552.893,-0.03862673,0,0
3692,922.75,32.0056,35.6773,161.876,100.573,101.208,0.002443522,0.2121149,20.7604,552.683,-0.0577434,0,0
3705,926,32.0934,35.313,157.899,100.531,100.789,0.002206471,0.212606,20.7615,552.493,-0.0235266,0,0
3718,929.25,31.7151,35.8696,159.881,100.503,100.74,0.001764539,0.212497,20.76264,552.293,-0.0216904,0,0
3731,932.5,31.796,35.7019,160.752,100.473,100.68,0.001513945,0.213283,20.7599,552.093,-0.0188181,0,0
3744,935.75,32.1621,35.3557,162.255,100.442,100.639,0.001606235,0.213587,20.7585,551.912,-0.0180279,0,0
3757,939,32.1279,35.5628,162.209,100.398,100.542,0.00183294,0.215186,20.7571,551.712,-0.0131305,0,0
3770,942.25,31.9008,35.8107,160.56,100.397,100.598,0.001782673,0.216278,20.7564,551.522,-0.0183791,0,0
3783,945.5,32.4005,36.2145,164.577,100.374,100.537,0.001706018,0.217379,20.7556,551.292,-0.014937,0,0
3796,948.75,32.6075,36.506,158.354,100.343,100.754,0.001642307,0.218971,20.7543,551.102,-0.037475,0,0
3809,952,32.4592,36.3866,162.805,100.331,100.407,0.001648976,0.219501,20.7524,550.891,-0.00696299,0,0
3822,955.25,32.7484,36.2831,157.35,100.32,100.572,0.001870156,0.220702,20.7517,550.671,-0.022946,0,0
3835,958.5,33.2168,36.7514,154.191,100.294,100.802,0.002029104,0.221877,20.7513,550.441,-0.0463854,0,0
3848,961.75,33.0033,36.7,160.11,100.266,100.252,0.002195246,0.222973,20.7502,550.241,0.001279749,0,0
3861,965,31.9121,37.2033,160.549,100.222,100.448,0.002061411,0.223959,20.75,550.041,-0.0206653,0,0
3874,968.25,32.9832,37.0372,155.233,100.224,100.178,0.001729725,0.224648,20.7497,549.831,0.004200626,0,0
3887,971.5,33.0129,36.6109,156.213,100.192,100.503,0.001785377,0.227145,20.7462,549.6,-0.028468,0,0
3900,974.75,33.0905,37.1273,155.842,100.187,100.614,0.001961915,0.229629,20.7422,549.41,-0.0390167,0,0
3913,978,32.8741,37.3439,157.55,100.151,100.335,0.001857055,0.229481,20.7425,549.18,-0.0168607,0,0
3926,981.25,32.9274,36.9846,158.831,100.14,100.708,0.001862307,0.229671,20.743,548.97,-0.05191933,0,0
3939,984.5,33.1672,36.9367,157.221,100.09,100.261,0.001751216,0.23003,20.7421,548.76,-0.0156788,0,0
3952,987.75,33.1846,37.4663,160.314,100.077,100.455,0.001660168,0.234188,20.736,548.509,-0.0346538,0,0
3965,991,33.7718,37.5794,160.695,100.059,100.268,0.0015432,0.236431,20.7346,548.279,-0.0192095,0,0
3978,994.25,33.2808,37.2008,157.205,100.038,100.279,0.001573834,0.236481,20.7352,548.069,-0.0221581,0,0
3991,997.5,33.5622,38.0272,162.377,100.026,100.074,0.001583792,0.238636,20.7336,547.879,-0.004397352,0,0
4004,1000.75,32.9093,38.6493,162.186,100.003,100.506,0.001569848,0.240659,20.7317,547.608,-0.0460896,0,0
4017,1004,34.1185,38.3369,155.911,99.9712,100.206,0.001634628,0.242577,20.7292,547.398,-0.0215166,0,0
4030,1007.25,33.4381,39.3081,156.464,99.965,100.271,0.001548802,0.24412,20.727,547.148,-0.0280264,0,0
4043,1010.5,34.4527,39.098,157.745,99.9325,100.818,0.001494884,0.246009,20.7243,546.898,-0.080996,0,0
4056,1013.75,34.7013,39.4917,157.191,99.9201,100.481,0.00127639,0.249173,20.7209,546.648,-0.0513897,0,0
4069,1017,34.9444,38.5868,158.476,99.9036,100.102,0.001307676,0.250965,20.7194,546.407,-0.0182005,0,0
4082,1020.25,34.6905,40.3067,152.21,99.881,100.364,0.001485082,0.2529,20.7169,546.167,-0.04423625,0,0
4095,1023.5,34.9893,39.7173,160.839,99.8731,100.025,0.001512319,0.255739,20.7138,545.917,-0.0139806,0,0
4108,1026.75,35.4278,39.5414,155.041,99.8599,100.126,0.0013756,0.259243,20.7106,545.657,-0.0243975,0,0
4121,1030,34.8149,40.8431,156.957,99.8599,99.8104,0.001394586,0.261239,20.7091,545.427,0.004552687,0,0
4134,1033.25,35.3769,40.1017,158.474,99.862,100.144,0.001431686,0.262011,20.7084,545.196,-0.0258815,0,0
4147,1036.5,35.8002,40.3563,156.172,99.8373,100.253,0.001497191,0.264558,20.706,544.886,-0.0381385,0,0
4160,1039.75,35.9473,40.3942,155.957,99.8286,100.261,0.001658209,0.269201,20.7009,544.636,-0.0396769,0,0
4173,1043,36.1514,41.013,157.768,99.8245,99.89,0.001694759,0.272242,20.6961,544.366,-0.006021589,0,0
4186,1046.25,36.5688,41.3616,154.933,99.8142,99.6704,0.001777671,0.274694,20.6939,544.095,0.0132231,0,0
4199,1049.5,36.3398,41.8058,155.737,99.7973,99.9336,0.001897643,0.278189,20.6906,543.815,-0.012528,0,0
4212,1052.75,35.9208,42.3223,159.766,99.7841,99.5868,0.001841128,0.279902,20.6888,543.485,0.0181634,0,0
4225,1056,37.0399,41.8649,155.808,99.789,100.189,0.001746549,0.282361,20.6869,543.214,-0.0367221,0,0
4238,1059.25,37.2504,42.509,154.143,99.7742,99.5726,0.001662321,0.286705,20.6807,542.954,0.0185618,0,0
4251,1062.5,37.4669,42.8998,155.545,99.7734,100.034,0.001685026,0.29133,20.6757,542.624,-0.023894,0,0
4264,1065.75,37.6902,43.189,155.755,99.7829,99.6522,0.001631017,0.295092,20.6702,542.364,0.0120248,0,0
4277,1069,38.0305,43.1919,157.262,99.7775,99.8484,0.001590953,0.298326,20.6669,542.033,-0.006521833,0,0
4290,1072.25,38.099,43.887,152.519,99.7676,99.4859,0.001699845,0.301845,20.6628,541.763,0.0259495,0,0
4303,1075.5,38.3628,44.0471,155.866,99.7721,99.1984,0.002056987,0.306947,20.6582,541.423,0.0529232,0,0
4316,1078.75,38.8385,44.0691,155.532,99.7709,99.2516,0.002097805,0.310892,20.6526,541.093,0.0478863,0,0
4329,1082,39.2148,44.9856,154.117,99.7565,99.3784,0.001926299,0.314448,20.6481,540.762,0.034846,0,0
4342,1085.25,38.9678,44.817,155.62,99.7684,99.1989,0.001696348,0.31804,20.6418,540.452,0.052536,0,0
4355,1088.5,39.8055,45.2679,159.24,99.7771,98.6887,0.001911583,0.3244,20.635,540.092,0.100641,0,0
4368,1091.75,40.0328,45.8902,157.4,99.7705,99.2004,0.002117212,0.330007,20.6289,539.741,0.0525838,0,0
4381,1095,39.4881,46.45,156.765,99.787,98.3901,0.002236195,0.334444,20.6216,539.391,0.129363,0,0
4394,1098.25,40.6492,45.5783,156.741,99.7969,98.5604,0.00231116,0.337702,20.6179,539.041,0.114396,0,0
4407,1101.5,40.3764,46.6354,153.123,99.8064,98.4641,0.002307951,0.340504,20.6163,538.72,0.124242,0,0
4420,1104.75,41.0316,47.5526,150.796,99.7944,97.7836,0.002009808,0.345698,20.6103,538.34,0.18678,0,0
4433,1108,40.1022,48.4455,156.05,99.8195,98.0468,0.001983798,0.350913,20.6033,538,0.164429,0,0
4446,1111.25,41.176,47.2202,156.95,99.8443,98.6477,0.002220271,0.356868,20.5954,537.589,0.110638,0,0
4459,1114.5,41.8492,48.8174,152.676,99.8645,98.0787,0.002263522,0.361821,20.5898,537.249,0.165569,0,0
4472,1117.75,41.9665,49.0495,151.713,99.8702,97.3348,0.00242605,0.366,20.5848,536.779,0.235961,0,0
4485,1121,42.1755,48.7691,152.107,99.8966,96.7791,0.002625151,0.371127,20.5791,536.428,0.290929,0,0
4498,1124.25,42.5804,49.9648,152.592,99.909,97.4276,0.002596168,0.377387,20.5727,536.058,0.230777,0,0
4511,1127.5,42.3735,50.3298,153.933,99.9189,96.95,0.002749921,0.383344,20.5656,535.638,0.276784,0,0
4524,1130.75,43.2177,52.0317,156.868,99.944,96.3105,0.003076198,0.387692,20.5589,535.227,0.339815,0,0
4537,1134,44.3133,51.7902,151.86,99.9725,97.3708,0.003226529,0.392978,20.5519,534.777,0.2419561,0,0
4550,1137.25,44.1981,52.4141,158.372,99.984,96.9814,0.003245166,0.399027,20.545,534.356,0.279789,0,0
4563,1140.5,44.6104,52.2836,150.715,100.024,96.771,0.003265329,0.406231,20.5352,533.956,0.303428,0,0
4576,1143.75,45.18,52.3217,150.053,100.053,96.4525,0.003141147,0.411989,20.5292,533.536,0.33632,0,0
4589,1147,43.7888,53.5423,151.455,100.088,96.4373,0.003509212,0.414866,20.5249,533.045,0.3409805,0,0
4602,1150.25,44.9844,53.4733,156.704,100.122,96.0884,0.003912575,0.417594,20.5216,532.665,0.377296,0,0
4615,1153.5,45.9088,54.1578,147.581,100.155,97.8926,0.004068795,0.423074,20.5146,532.204,0.20966,0,0
4628,1156.75,46.2724,54.2407,154.65,100.183,94.8801,0.004465416,0.427956,20.507,531.734,0.499049,0,0
4641,1160,46.5334,55.0828,154.268,100.198,95.9667,0.004481943,0.432454,20.5009,531.304,0.395874,0,0
4654,1163.25,47.0595,55.5058,147.85,100.233,95.8344,0.004545147,0.438952,20.4942,530.853,0.411784,0,0
4667,1166.5,47.4417,55.7711,146.683,100.259,95.8643,0.0048238,0.441891,20.4902,530.373,0.411296,0,0
4680,1169.75,47.8123,56.536,154.053,100.287,94.8659,0.004621828,0.446844,20.4859,529.882,0.509932,0,0
4693,1173,47.8901,56.2805,148.343,100.308,94.9014,0.004457774,0.450259,20.4813,529.432,0.508386,0,0
4706,1176.25,48.5319,57.3299,147.384,100.348,96.2827,0.004789219,0.4548724,20.4755,528.951,0.379485,0,0
4719,1179.5,48.8866,58.148,151.38,100.374,95.8729,0.004973951,0.459662,20.4711,528.451,0.421028,0,0
4732,1182.75,48.9978,58.333,152.573,100.391,95.4972,0.005069191,0.463304,20.4653,528.011,0.458607,0,0
4745,1186,49.5951,59.2611,150.099,100.462,95.0261,0.005221256,0.469498,20.4573,527.54,0.510425,0,0
4758,1189.25,48.8318,60.3974,142.471,100.485,95.5555,0.005294695,0.472059,20.4524,527.04,0.461591,0,0
4771,1192.5,50.4182,60.001,147.245,100.517,94.7325,0.005437524,0.476028,20.4458,526.529,0.5439,0,0
4784,1195.75,50.694,59.9564,146.499,100.571,94.98,0.005466604,0.478726,20.4409,526.049,0.52489,0,0
4797,1199,49.5042,59.6995,149.727,100.618,93.8766,0.005584902,0.482054,20.4363,525.568,0.636326,0,0
4810,1202.25,51.121,59.6472,143.129,100.653,95.3486,0.005738617,0.489954,20.4269,525.068,0.496788,0,0
4823,1205.5,51.6138,61.3141,144.145,100.693,93.803,0.005833726,0.494128,20.4231,524.547,0.65043,0,0
4836,1208.75,51.9211,61.7949,147.582,100.742,94.8562,0.006020538,0.494865,20.4215,524.027,0.552445,0,0
4849,1212,53.0685,60.1922,147.675,100.766,95.3501,0.006156637,0.501863,20.412,523.547,0.506931,0,0
4862,1215.25,52.8895,62.7455,142.498,100.799,93.7858,0.006190915,0.506819,20.4066,523.016,0.661727,0,0
4875,1218.5,52.9036,63.2605,147.894,100.84,94.1189,0.006184574,0.510304,20.4011,522.516,0.632904,0,0
4888,1221.75,52.8159,62.7369,146.261,100.857,93.9628,0.006275719,0.512413,20.3968,521.965,0.649756,0,0
4901,1225,54.3601,64.963,152.749,100.901,95.8085,0.006504554,0.520596,20.3882,521.475,0.475188,0,0
4914,1228.25,54.6919,64.7883,149.24,100.938,93.8025,0.006742654,0.5207026,20.386,520.964,0.672727,0,0
4927,1231.5,54.8808,65.2186,143.328,100.966,93.9724,0.006922022,0.52191,20.3855,520.434,0.658673,0,0
4940,1234.75,55.1041,65.4879,147,100.984,93.7898,0.006995988,0.518537,20.3901,519.923,0.678126,0,0
4953,1238,55.8296,65.6762,146.855,101.003,92.2154,0.006981746,0.512436,20.3972,519.453,0.835199,0,0
4966,1241.25,54.2988,65.357,147.766,101.035,94.0089,0.006885956,0.505744,20.4061,518.962,0.661362,0,0
4979,1244.5,54.8927,64.7616,148.466,101.061,96.2299,0.007159731,0.495786,20.4162,518.442,0.449451,0,0
4992,1247.75,55.1211,64.8089,146.556,101.069,94.0348,0.007025921,0.484567,20.4319,518.002,0.661983,0,0
5005,1251,55.2111,62.9598,149.045,101.082,95.7908,0.006812195,0.471249,20.4464,517.571,0.493329,0,0
5018,1254.25,54.315,62.8648,145.695,101.099,93.3659,0.006396295,0.45377,20.4685,517.141,0.730214,0,0
5031,1257.5,53.6187,62.3166,144.466,101.111,96.2619,0.005886139,0.436879,20.4849,516.76,0.45097,0,0
5044,1260.75,52.7834,61.5303,150.572,101.103,95.2578,0.005536349,0.415446,20.5092,516.41,0.546433,0,0
5057,1264,52.0579,59.0871,152.68,101.115,95.8897,0.005179812,0.393721,20.5338,516.08,0.48693,0,0
5070,1267.25,51.1726,57.7546,148.795,101.118,95.7152,0.004682462,0.371303,20.5624,515.759,0.5039,0,0
5083,1270.5,50.0138,56.3999,149.554,101.1,96.4358,0.003996039,0.346402,20.5916,515.509,0.433395,0,0
5096,1273.75,49.0473,54.9285,156.323,101.101,96.6356,0.003510508,0.32366,20.6164,515.249,0.414517,0,0
5109,1277,48.2991,52.4181,150.338,101.083,94.805,0.003556662,0.303914,20.636,515.039,0.58836,0,0
5122,1280.25,47.2098,51.6421,154.678,101.067,96.4211,0.004214234,0.289349,20.6495,514.889,0.431802,0,0
5135,1283.5,46.3227,50.2193,155.796,101.034,98.2369,0.004468645,0.270213,20.6702,514.679,0.257643,0,0
5148,1286.75,45.399,49.1728,158.151,101.013,95.6949,0.004713173,0.253957,20.6829,514.488,0.496301,0,0
5161,1290,44.5018,47.8412,158.991,100.971,98.2192,0.005115156,0.245079,20.6904,514.318,0.253571,0,0
5174,1293.25,43.5921,46.8686,159.985,100.934,97.6528,0.005549044,0.23815,20.6961,514.128,0.303269,0,0
5187,1296.5,43.1901,45.6743,154.575,100.902,97.8916,0.006024003,0.230854,20.7068,514.008,0.277929,0,0
5200,1299.75,42.4406,44.9292,156.953,100.867,99.6314,0.006219632,0.221005,20.7201,513.868,0.113092,0,0
5213,1303,42.3031,43.996,155.211,100.813,100.755,0.006254119,0.213818,20.7277,513.728,0.005273167,0,0
5226,1306.25,41.2958,43.3841,152.939,100.775,100.954,0.006377806,0.209284,20.7335,513.588,-0.0163555,0,0
5239,1309.5,40.1792,42.1133,157.847,100.729,100.84,0.006627467,0.205398,20.7392,513.457,-0.0101464,0,0
5252,1312.75,39.2657,41.682,160.288,100.724,100.992,0.006639204,0.197113,20.752,513.347,-0.0243914,0,0
5265,1316,39.7437,40.2564,160.159,100.681,100.815,0.006616279,0.191149,20.76,513.207,-0.0122043,0,0
5278,1319.25,39.1154,40.3674,156.377,100.664,100.921,0.006474462,0.190701,20.7606,513.087,-0.02342301,0,0
5291,1322.5,38.8044,39.6798,161.797,100.653,100.844,0.006681375,0.187148,20.7639,512.967,-0.0174278,0,0
5304,1325.75,38.7797,39.518,159.991,100.637,100.552,0.007115169,0.179847,20.7745,512.867,0.007685652,0,0
5317,1329,37.3829,38.2922,157.254,100.611,100.776,0.007222804,0.175756,20.7791,512.767,-0.0150302,0,0
5330,1332.25,37.6592,38.5312,161.426,100.586,100.676,0.007539772,0.175556,20.7807,512.657,-0.008185314,0,0
5343,1335.5,37.2837,37.7109,161.04,100.567,100.733,0.008015333,0.170507,20.7835,512.547,-0.01509097,0,0
5356,1338.75,36.2404,36.7083,157.761,100.556,100.537,0.007915023,0.167974,20.78862,512.456,0.00174129,0,0
5369,1342,35.8746,36.2649,162.601,100.554,100.731,0.008234579,0.163522,20.794,512.366,-0.0160717,0,0
5382,1345.25,35.4794,35.8265,159.298,100.557,100.684,0.008598387,0.163794,20.7904,512.286,-0.0115575,0,0
5395,1348.5,34.9869,35.4045,160.885,100.538,100.802,0.008818829,0.166782,20.7866,512.126,-0.024041,0,0
5408,1351.75,35.174,35.2054,158.66,100.538,100.645,0.008923963,0.166321,20.7869,512.006,-0.009758208,0,0
5421,1355,34.5451,35.0137,157.906,100.62,100.843,0.009202805,0.16414,20.7898,511.996,-0.0203419,0,0
5434,1358.25,34.2497,34.9206,164.694,100.728,100.954,0.009573311,0.161672,20.7939,511.906,-0.02056,0,0
5447,1361.5,33.9073,34.0182,163.223,100.886,100.873,0.00966757,0.158297,20.7987,511.776,0.001195531,0,0
5460,1364.75,33.7772,33.9405,167.441,101.016,101.068,0.009795422,0.159133,20.7997,511.706,-0.004744284,0,0
5473,1368,33.3376,33.5475,163.717,101.154,101.163,0.0104684,0.157711,20.8012,511.616,-0.000777234,0,0
5486,1371.25,33.1172,33.3916,156.532,101.264,101.339,0.010487,0.159166,20.7985,511.546,-0.006790576,0,0
5499,1374.5,32.8793,33.1612,163.974,101.356,101.39,0.0110204,0.158073,20.8012,511.456,-0.003055712,0,0
5512,1377.75,32.541,32.9131,161.867,101.433,101.329,0.0117346,0.156773,20.8029,511.325,0.009437505,0,0
5525,1381,32.5123,32.3293,159.26,101.46,101.246,0.0109706,0.157353,20.8002,511.285,0.0193762,0,0
5538,1384.25,32.3952,32.7673,156.896,101.462,101.366,0.009901383,0.162732,20.793,511.235,0.008694402,0,0
5551,1387.5,31.8812,32.3706,161.827,101.4,101.393,0.009847148,0.161496,20.7944,511.135,0.000622396,0,0
5564,1390.75,32.1395,32.8418,162.581,101.279,101.273,0.0100763,0.160255,20.7974,511.025,0.000525047,0,0
5577,1394,31.9047,32.292,159.983,101.066,101.039,0.0106028,0.157194,20.8016,510.955,0.002493704,0,0
5590,1397.25,31.4394,32.4288,159.096,100.928,100.79,0.0109336,0.153934,20.8049,510.855,0.0125874,0,0
5603,1400.5,31.7566,31.8377,160.273,101.018,100.879,0.0104908,0.152597,20.8056,510.815,0.0126322,0,0
5616,1403.75,31.2788,31.6603,156.878,101.12,101.017,0.00984685,0.152528,20.8065,510.735,0.009292168,0,0
5629,1407,31.2616,31.8638,161.871,101.231,101.26,0.0101063,0.152203,20.8074,510.665,-0.002651945,0,0
5642,1410.25,31.1256,31.4576,162.373,101.376,101.019,0.0111961,0.148166,20.8154,510.535,0.0323066,0,0
5655,1413.5,30.8595,31.1901,165.718,101.515,101.367,0.0128808,0.142054,20.8243,510.515,0.0134023,0,0
5668,1416.75,29.4791,29.7648,160.278,101.626,101.504,0.0141359,0.137637,20.8292,510.425,0.01103388,0,0
5681,1420,29.1448,29.9809,164.697,101.703,101.548,0.015035,0.135461,20.8309,510.355,0.01405,0,0
5694,1423.25,28.966,29.6566,160.967,101.716,101.463,0.0155526,0.133989,20.8325,510.254,0.0228947,0,0
5707,1426.5,29.3786,29.2703,162.903,101.64,101.722,0.0155971,0.134033,20.8333,510.194,-0.007382273,0,0
5720,1429.75,28.8415,28.3145,161.539,101.507,101.375,0.0154818,0.135409,20.8304,510.094,0.0120051,0,0
5733,1433,28.5356,28.6681,165.567,101.319,101.234,0.0154565,0.136636,20.8282,510.074,0.007730464,0,0
5746,1436.25,28.1234,28.1384,157.371,101.084,100.93,0.01527568,0.136693,20.8291,509.984,0.0140467,0,0
5759,1439.5,28.4156,28.3599,160.771,100.795,100.49,0.0149324,0.135604,20.8304,509.844,0.0278374,0,0
5772,1442.75,28.1713,28.8022,163.419,100.524,100.343,0.0149646,0.134302,20.8317,509.824,0.0164667,0,0
5785,1446,27.7538,28.9209,161.905,100.274,100.306,0.0149501,0.135102,20.832,509.794,-0.002894312,0,0
5798,1449.25,28.1286,28.7084,161.919,100.051,99.8332,0.0147974,0.134744,20.8325,509.704,0.0199754,0,0
5811,1452.5,28.1391,28.2972,163.15,99.8999,99.6999,0.0147156,0.134078,20.8353,256.684,0.0183948,0,0
5824,1455.75,27.4613,28.0444,165.234,99.7952,99.3621,0.0129433,0.131556,20.8419,-0.640583,0.0399075,0,0
5837,1459,27.471,26.9961,165.483,99.7635,99.2856,0.008396534,0.112726,20.8774,-0.640583,0.0440627,0,0
5850,1462.25,25.9693,26.1791,169.242,99.8249,99.2881,0.004249155,0.0876606,20.9077,-0.640583,0.049476,0,0
5863,1465.5,26.067,25.294,166.144,99.9585,99.4494,0.002029144,0.0726805,20.9267,-0.650592,0.0468535,0,0
5876,1468.75,25.2058,24.8085,164.482,100.146,99.748,0.000929874,0.06507653,20.9342,-0.67061,0.036499,0,0
5889,1472,25.1309,24.1487,162.055,100.372,99.9027,0.000353852,0.0612555,20.9387,-0.640583,0.0430328,0,0
5902,1475.25,24.7993,24.0406,171.415,100.616,100.164,0.000176611,0.0589581,20.9382,-0.660601,0.0413113,0,0
5915,1478.5,24.6068,23.6332,167.477,100.838,100.33,-4.84124E-05,0.0575234,20.9396,-0.640583,0.0463736,0,0
5928,1481.75,24.6096,23.5694,167.527,100.983,100.558,-5.99968E-05,0.05645971,20.9394,-0.630574,0.0386832,0,0
5941,1485,24.1992,23.1434,167.004,101.088,100.661,-0.000124813,0.05584278,20.9387,-0.660601,0.0388041,0,0
5954,1488.25,24.1223,23.0786,170.387,101.111,100.743,-0.000152717,0.05531,20.9386,-0.650592,0.0334597,0,0
5967,1491.5,23.0683,23.0335,166.035,101.052,100.572,-0.000260209,0.0550695,20.9385,-0.640583,0.043649,0,0
5980,1494.75,23.4515,22.4466,172.844,100.923,100.441,-4.97271E-05,0.0549705,20.9385,-0.660601,0.0438711,0,0
5993,1498,23.1136,22.4263,163.306,100.745,100.22,0.000268551,0.0551246,20.9407,-0.650592,0.0479711,0,0
6006,1501.25,23.073,22.5689,165.89,100.606,100.001,0.000204121,0.0550263,20.9425,-0.700638,0.0553047,0,0
6019,1504.5,22.626,22.193,164.712,100.485,100.127,3.7429E-05,0.0546982,20.943,-0.690629,0.0327033,0,0
6032,1507.75,22.7205,21.8724,167.899,100.893,100.421,0.000365185,0.0542599,20.9431,-0.720656,0.0430164,0,0
6045,1511,22.6918,21.7271,167.476,101.225,100.83,0.000412932,0.0541061,20.9432,-0.690629,0.0358376,0,0
6058,1514.25,22.3279,21.6707,171.111,101.422,100.934,0.000215773,0.0542273,20.9438,-0.700638,0.044226,0,0
6071,1517.5,22.0168,21.444,162.281,101.437,101.106,0.000194729,0.0542947,20.9432,-0.68062,0.0299082,0,0
6084,1520.75,22.384,21.4796,166.399,101.322,100.875,0.00017865,0.0546197,20.9417,-0.660601,0.0405076,0,0
6097,1524,22.1185,21.0244,166.439,101.037,100.581,0.000234743,0.0553658,20.939,-0.67061,0.0415073,0,0
6110,1527.25,22.2207,21.3647,165.312,100.975,100.387,,0.0566581,,-0.660601,0.053579,0,0
6123,1530.5,21.6556,21.7632,169.418,101.158,100.746,,,,-0.67061,0.0374457,0,0
6136,1533.75,21.7654,21.932,172.036,101.363,100.836,,,,-0.710647,0.0478384,0,0
6143,1535.5,21.8769,21.5072,171.657,101.459,101.067,,,,-0.720656,0.0354649,0,0
,,,,,,,,,,,,,
,,,,,,,,,,,,,
,,,,,,,,,,,,,
,,,,,,,,,,,,,
,,,,,,,,,,,,,
,,,,,,,,,,,,,
,,,,,,,,,,,,,
,,,,,,,,,,,,,
,,,,,,,,,,,,,
,,,,,,,,,,,,,
,,,,,,,,,,,,,
,,,,,,,,,,,,,
,,,,,,,,,,,,,
,,,,,,,,,,,,,
,,,,,,,,,,,,,
,,,,,,,,,,,,,
,,,,,,,,,,,,,
,,,,,,,,,,,,,
,,,,,,,,,,,,,
,,,,,,,,,,,,,
,,,,,,,,,,,,,
,,,,,,,,,,,,,
,,,,,,,,,,,,,
,,,,,,,,,,,,,
,,,,,,,,,,,,,
,,,,,,,,,,,,,
,,,,,,,,,,,,,
,,,,,,,,,,,,,
,,,,,,,,,,,,,
,,,,,,,,,,,,,
,,,,,,,,,,,,,
,,,,,,,,,,,,,
,,,,,,,,,,,,,
,,,,,,,,,,,,,
,,,,,,,,,,,,,
,,,,,,,,,,,,,
,,,,,,,,,,,,,
,,,,,,,,,,,,,
,,,,,,,,,,,,,
,,,,,,,,,,,,,
,,,,,,,,,,,,,
,,,,,,,,,,,,,
,,,,,,,,,,,,,
,,,,,,,,,,,,,
,,,,,,,,,,,,,
,,,,,,,,,,,,,
,,,,,,,,,,,,,
,,,,,,,,,,,,,
,,,,,,,,,,,,,
,,,,,,,,,,,,,
,,,,,,,,,,,,,
,,,,,,,,,,,,,
,,,,,,,,,,,,,
,,,,,,,,,,,,,
,,,,,,,,,,,,,
,,,,,,,,,,,,,
,,,,,,,,,,,,,
,,,,,,,,,,,,,
,,,,,,,,,,,,,
,,,,,,,,,,,,,
,,,,,,,,,,,,,
,,,,,,,,,,,,,
,,,,,,,,,,,,,
,,,,,,,,,,,,,
,,,,,,,,,,,,,
,,,,,,,,,,,,,
,,,,,,,,,,,,,
,,,,,,,,,,,,,
,,,,,,,,,,,,,
,,,,,,,,,,,,,
,,,,,,,,,,,,,
,,,,,,,,,,,,,
,,,,,,,,,,,,,
,,,,,,,,,,,,,
,,,,,,,,,,,,,
,,,,,,,,,,,,,
,,,,,,,,,,,,,
,,,,,,,,,,,,,
,,,,,,,,,,,,,
,,,,,,,,,,,,,
,,,,,,,,,,,,,
,,,,,,,,,,,,,
,,,,,,,,,,,,,
,,,,,,,,,,,,,
,,,,,,,,,,,,,
,,,,,,,,,,,,,
,,,,,,,,,,,,,
,,,,,,,,,,,,,
,,,,,,,,,,,,,
,,,,,,,,,,,,,
,,,,,,,,,,,,,
,,,,,,,,,,,,,
,,,,,,,,,,,,,
,,,,,,,,,,,,,
,,,,,,,,,,,,,
,,,,,,,,,,,,,
,,,,,,,,,,,,,
,,,,,,,,,,,,,
,,,,,,,,,,,,,
,,,,,,,,,,,,,
,,,,,,,,,,,,,
,,,,,,,,,,,,,
,,,,,,,,,,,,,
,,,,,,,,,,,,,
,,,,,,,,,,,,,
,,,,,,,,,,,,,
,,,,,,,,,,,,,
,,,,,,,,,,,,,
,,,,,,,,,,,,,
,,,,,,,,,,,,,
,,,,,,,,,,,,,
,,,,,,,,,,,,,
,,,,,,,,,,,,,
,,,,,,,,,,,,,
,,,,,,,,,,,,,
,,,,,,,,,,,,,
,,,,,,,,,,,,,
,,,,,,,,,,,,,
,,,,,,,,,,,,,
,,,,,,,,,,,,,
,,,,,,,,,,,,,
,,,,,,,,,,,,,
,,,,,,,,,,,,,
,,,,,,,,,,,,,
,,,,,,,,,,,,,
,,,,,,,,,,,,,
,,,,,,,,,,,,,
,,,,,,,,,,,,,
,,,,,,,,,,,,,
,,,,,,,,,,,,,
,,,,,,,,,,,,,
,,,,,,,,,,,,,
,,,,,,,,,,,,,
,,,,,,,,,,,,,
,,,,,,,,,,,,,
,,,,,,,,,,,,,
,,,,,,,,,,,,,
,,,,,,,,,,,,,
,,,,,,,,,,,,,
,,,,,,,,,,,,,
,,,,,,,,,,,,,
,,,,,,,,,,,,,
,,,,,,,,,,,,,
,,,,,,,,,,,,,
,,,,,,,,,,,,,
,,,,,,,,,,,,,
,,,,,,,,,,,,,
,,,,,,,,,,,,,
,,,,,,,,,,,,,
,,,,,,,,,,,,,
,,,,,,,,,,,,,
,,,,,,,,,,,,,
,,,,,,,,,,,,,
,,,,,,,,,,,,,
,,,,,,,,,,,,,
,,,,,,,,,,,,,
,,,,,,,,,,,,,
,,,,,,,,,,,,,
,,,,,,,,,,,,,
,,,,,,,,,,,,,
,,,,,,,,,,,,,
,,,,,,,,,,,,,
,,,,,,,,,,,,,
,,,,,,,,,,,,,
,,,,,,,,,,,,,
,,,,,,,,,,,,,
,,,,,,,,,,,,,
,,,,,,,,,,,,,
,,,,,,,,,,,,,
,,,,,,,,,,,,,
,,,,,,,,,,,,,
,,,,,,,,,,,,,
,,,,,,,,,,,,,
,,,,,,,,,,,,,
,,,,,,,,,,,,,
,,,,,,,,,,,,,
,,,,,,,,,,,,,
,,,,,,,,,,,,,
,,,,,,,,,,,,,
,,,,,,,,,,,,,
,,,,,,,,,,,,,
,,,,,,,,,,,,,
,,,,,,,,,,,,,
,,,,,,,,,,,,,
,,,,,,,,,,,,,
,,,,,,,,,,,,,
,,,,,,,,,,,,,
,,,,,,,,,,,,,
,,,,,,,,,,,,,
,,,,,,,,,,,,,
,,,,,,,,,,,,,
,,,,,,,,,,,,,
,,,,,,,,,,,,,
,,,,,,,,,,,,,
,,,,,,,,,,,,,
,,,,,,,,,,,,,
,,,,,,,,,,,,,
,,,,,,,,,,,,,
,,,,,,,,,,,,,
,,,,,,,,,,,,,
,,,,,,,,,,,,,
,,,,,,,,,,,,,
,,,,,,,,,,,,,
,,,,,,,,,,,,,
,,,,,,,,,,,,,
,,,,,,,,,,,,,
,,,,,,,,,,,,,
,,,,,,,,,,,,,
,,,,,,,,,,,,,
,,,,,,,,,,,,,
,,,,,,,,,,,,,
,,,,,,,,,,,,,
,,,,,,,,,,,,,
,,,,,,,,,,,,,
,,,,,,,,,,,,,
,,,,,,,,,,,,,
,,,,,,,,,,,,,
,,,,,,,,,,,,,
,,,,,,,,,,,,,
,,,,,,,,,,,,,
,,,,,,,,,,,,,
,,,,,,,,,,,,,
,,,,,,,,,,,,,
,,,,,,,,,,,,,
,,,,,,,,,,,,,
,,,,,,,,,,,,,
,,,,,,,,,,,,,
,,,,,,,,,,,,,
,,,,,,,,,,,,,
,,,,,,,,,,,,,
,,,,,,,,,,,,,
,,,,,,,,,,,,,
,,,,,,,,,,,,,
,,,,,,,,,,,,,
,,,,,,,,,,,,,
,,,,,,,,,,,,,
,,,,,,,,,,,,,
,,,,,,,,,,,,,
,,,,,,,,,,,,,
,,,,,,,,,,,,,
,,,,,,,,,,,,,
,,,,,,,,,,,,,
,,,,,,,,,,,,,
,,,,,,,,,,,,,
,,,,,,,,,,,,,
,,,,,,,,,,,,,
,,,,,,,,,,,,,
,,,,,,,,,,,,,
,,,,,,,,,,,,,
,,,,,,,,,,,,,
,,,,,,,,,,,,,
,,,,,,,,,,,,,
,,,,,,,,,,,,,
,,,,,,,,,,,,,
,,,,,,,,,,,,,
,,,,,,,,,,,,,
,,,,,,,,,,,,,
,,,,,,,,,,,,,
,,,,,,,,,,,,,
,,,,,,,,,,,,,
,,,,,,,,,,,,,
,,,,,,,,,,,,,
,,,,,,,,,,,,,
,,,,,,,,,,,,,
,,,,,,,,,,,,,
,,,,,,,,,,,,,
,,,,,,,,,,,,,