File: 01_Data/MDF/Cone/MDF_Cone_HF75scan_210325_R3.csv
Names,Time,Stack TC,Smoke TC,Exh Press,Smoke Comp,Smoke Meas,CO Meter,CO2 Meter,O2 Meter,Sample Mass,Ext Coeff,Start Test,Flame Verif
Chan Gain,,500,500,1,1,1,1,1,1,1,1,1,1
Offset,,0,0,0.138348,0,0,0,0,0,0,0,0,0
Gain,,1,1,25.011,13.5067,16.616,1,1,1,1.00091,1.04608,1,1
Units,sec,C,C,Pa,%,%,%,%,%,g,/m,,
Baseline,,40.2923,43.8867,156.915,101.485,101.59,0.000308488,0.0837256,20.8398,-2.88617,-0.009448687,,
9,2,37.9407,41.4958,156.138,101.383,101.811,0.00033908,0.0837366,20.841,617.762,-0.0386427,0,0
18,4.25,38.0555,41.6206,155.156,101.364,101.347,0.000353793,0.0839128,20.842,617.712,0.001517084,0,0
27,6.5,37.7131,41.3463,157.404,101.37,100.974,0.000506226,0.0842014,20.8428,617.622,0.0359672,0,0
36,8.75,38.5711,42.6291,153.804,101.375,100.793,0.000661095,0.0845611,20.843,617.562,0.0528818,0,0
45,11,38.5844,42.1764,155.967,101.367,100.191,0.000706215,0.0851996,20.8424,617.472,0.107096,0,0
54,13.25,38.8521,42.3196,157.489,101.356,99.2445,0.00081239,0.0862301,20.8432,617.402,0.193161,0,0
63,15.5,39.2147,43.5875,142.348,101.342,102.055,0.001293631,0.0982908,20.8194,617.122,-0.0642932,0,1
72,17.75,41.6289,47.7792,141.86,101.347,98.7516,0.002246779,0.157309,20.6851,616.781,0.238025,0,1
81,20,43.9704,53.1649,135.206,101.342,97.1771,0.003273173,0.264916,20.4929,616.291,0.385096,0,0
90,22.25,48.7634,60.8663,132.281,101.334,96.7152,0.004260603,0.39554,20.3294,615.73,0.428037,0,0
99,24.5,52.0299,66.9903,126.764,101.325,95.7375,0.004948804,0.527458,20.1594,615.14,0.520481,0,0
108,26.75,56.5951,73.5825,133.173,101.334,95.0215,0.005620828,0.638068,20.0332,614.559,0.590224,0,0
117,29,59.9515,78.7296,130.611,101.312,91.4679,0.006309685,0.720365,19.9598,613.929,0.937921,0,0
126,31.25,62.438,83.3201,131.37,101.307,91.7707,0.006966317,0.780091,19.9097,613.408,0.907152,0,0
135,33.5,64.9926,86.9596,125.496,101.299,90.575,0.007651829,0.825508,19.881,612.698,1.02682,0,0
144,35.75,67.3993,90.3254,123.177,101.298,92.5282,0.008399339,0.852675,19.8648,612.167,0.83093,0,0
153,38,69.3184,93.0083,120.574,101.278,88.3169,0.009091772,0.872267,19.8609,611.607,1.25658,0,0
162,40.25,70.7931,94.3923,127.281,101.291,90.112,0.009405218,0.880868,19.8703,611.026,1.07306,0,0
171,42.5,72.1263,96.3855,123.7,101.279,88.4513,0.009537133,0.877461,19.8864,610.396,1.2427,0,0
180,44.75,72.8269,96.7859,129.625,101.266,87.8783,0.009784439,0.866376,19.9103,609.835,1.30114,0,0
189,47,73.5779,97.6837,134.457,101.258,89.0563,0.0100416,0.85318,19.931,609.315,1.17829,0,0
198,49.25,74.9048,98.244,128.705,101.273,89.6926,0.0101674,0.84134,19.9467,608.774,1.1143,0,0
207,51.5,75.0068,99.2317,130.523,101.266,87.5315,0.0101745,0.827929,19.9679,608.244,1.33747,0,0
216,53.75,75.5971,99.1852,126.147,101.26,89.2221,0.0101264,0.81309,19.9891,607.733,1.16137,0,0
225,56,75.727,98.6196,136.897,101.265,89.291,0.0100083,0.79748,20.0108,607.213,1.15473,0,0
234,58.25,75.6379,98.7364,130.909,101.285,88.4209,0.009835519,0.779215,20.0306,606.752,1.24638,0,0
243,60.5,76.0188,98.3555,138.863,101.261,89.8002,0.00974249,0.761012,20.0586,606.262,1.10215,0,0
252,62.75,76.1375,98.1018,136.451,101.267,88.7703,0.009571682,0.741973,20.0818,605.711,1.20859,0,0
261,65,75.648,97.4149,135.958,101.275,90.3052,0.009468271,0.727718,20.0988,605.251,1.05195,0,0
270,67.25,75.0819,97.0493,137.212,101.28,89.5253,0.009492357,0.715399,20.1151,604.791,1.13207,0,0
279,69.5,76.009,95.6866,134.931,101.264,90.1186,0.009480479,0.70247,20.1322,604.28,1.06996,0,0
288,71.75,75.6263,95.7543,130.732,101.276,91.4319,0.009341496,0.689554,20.1474,603.81,0.938322,0,0
297,74,75.3068,95.4524,132.184,101.286,90.8255,0.009108775,0.676853,20.1613,603.389,1.00025,0,0
306,76.25,76.1839,94.1127,134.913,101.274,90.8427,0.008939874,0.664918,20.1729,602.909,0.997461,0,0
315,78.5,74.9933,94.1937,137.149,101.28,90.3747,0.008685212,0.653756,20.1862,602.508,1.04538,0,0
324,80.75,74.9649,93.753,135.79,101.297,91.5207,0.008397654,0.642706,20.1984,601.998,0.931287,0,0
333,83,75.2146,93.6489,136.486,101.299,92.9633,0.008046659,0.632232,20.2103,601.668,0.787959,0,0
342,85.25,75.6094,92.5805,137.775,101.296,92.4851,0.007823229,0.6225124,20.22,601.197,0.835018,0,0
351,87.5,75.1779,92.1563,140.538,101.296,93.1646,0.007760439,0.614105,20.2301,600.807,0.767885,0,0
360,89.75,75.4919,91.2666,134.378,101.31,94.015,0.007666279,0.606308,20.2394,600.377,0.685704,0,0
369,92,74.9091,91.6587,135.463,101.31,94.7366,0.007373947,0.60018,20.2457,600.026,0.615546,0,0
378,94.25,74.9999,91.46,135.534,101.298,93.1149,0.007038215,0.593818,20.2518,599.626,0.772968,0,0
387,96.5,74.3234,91.1977,137.93,101.307,93.3228,0.006981073,0.586205,20.2608,599.225,0.75325,0,0
396,98.75,74.2386,90.7773,136.33,101.298,94.1752,0.007101613,0.577541,20.2703,598.755,0.669032,0,0
405,101,74.2281,90.1772,135.219,101.294,92.443,0.007168661,0.568997,20.2795,598.385,0.839008,0,0
414,103.25,74.56,89.8557,137.865,101.298,94.1276,0.007103692,0.562378,20.2848,597.994,0.673715,0,0
423,105.5,74.334,89.7217,138.049,101.305,93.6763,0.007039109,0.557448,20.289,597.594,0.718376,0,0
432,107.75,74.0758,89.4452,135.925,101.305,94.3258,0.006970976,0.553558,20.2915,597.194,0.654967,0,0
441,110,74.134,89.6078,133.01,101.302,94.2837,0.006870527,0.550283,20.2948,596.813,0.658801,0,0
450,112.25,73.9695,89.1885,141.879,101.314,95.1098,0.00662961,0.547562,20.2964,596.383,0.579878,0,0
459,114.5,73.6221,87.9385,146.713,101.345,95.9749,0.006419259,0.543689,20.3008,596.053,0.499556,0,0
468,116.75,73.9296,88.145,139.794,101.33,95.3268,0.006258383,0.539871,20.3041,595.622,0.560419,0,0
477,119,73.7066,87.8645,132.697,101.333,96.1016,0.005942084,0.536453,20.308,595.252,0.486361,0,0
486,121.25,73.272,87.5172,134.332,101.341,95.6057,0.005673472,0.533696,20.3096,594.852,0.534546,0,0
495,123.5,73.5865,87.8469,136.643,101.348,94.8223,0.005779808,0.532018,20.3112,594.471,0.610683,0,0
504,125.75,74.0819,87.4147,138.329,101.351,95.1321,0.006001296,0.52969,20.3134,594.091,0.581085,0,0
513,128,73.9769,87.8882,137.39,101.374,96.1655,0.006031959,0.527898,20.3153,593.74,0.483994,0,0
522,130.25,73.5127,87.56,137.66,101.386,94.9014,0.005986745,0.525909,20.3201,593.3,0.606539,0,0
531,132.5,73.49,87.6855,133.945,101.383,96.0621,0.006030246,0.52366,20.3236,592.92,0.494728,0,0
540,134.75,74.1534,86.8357,138.759,101.393,96.6838,0.00604209,0.521835,20.3252,592.599,0.436392,0,0
549,137,73.6677,87.1482,133.859,101.433,95.6615,0.005923603,0.52033,20.3258,592.199,0.537587,0,0
558,139.25,74.0917,87.5098,134.434,101.436,96.3384,0.005789056,0.5195,20.3252,591.799,0.473141,0,0
567,141.5,74.2071,87.3565,140.313,101.433,97.1056,0.005753832,0.51967,20.3249,591.408,0.400057,0,0
576,143.75,74.3648,87.4645,137.157,101.44,96.056,0.005685342,0.519197,20.3256,591.108,0.500456,0,0
585,146,74.1499,87.684,139.602,101.478,95.6042,0.005627781,0.51859,20.3265,590.718,0.547111,0,0
594,148.25,73.372,87.2663,136.794,101.472,95.9074,0.005683984,0.517363,20.3268,590.307,0.517568,0,0
603,150.5,73.8427,87.2147,135.231,101.489,96.3841,0.005779331,0.516103,20.3275,589.987,0.473605,0,0
612,152.75,74.1306,87.5163,134.699,101.499,96.2101,0.00572131,0.515119,20.3283,589.547,0.491073,0,0
621,155,74.7243,87.2062,133.994,101.518,96.8998,0.005559884,0.514187,20.3274,589.216,0.42721,0,0
630,157.25,74.6739,87.3774,140.604,101.518,96.0788,0.005375688,0.514823,20.3256,588.826,0.505284,0,0
639,159.5,74.2773,87.5355,137.737,101.519,96.8861,0.00532857,0.515098,20.3249,588.466,0.428656,0,0
648,161.75,74.5114,87.7743,135.186,101.546,97.2202,0.005344804,0.515172,20.3247,588.075,0.399446,0,0
657,164,74.9426,88.2516,136.389,101.56,96.9941,0.005266272,0.514139,20.326,587.725,0.422082,0,0
666,166.25,74.818,87.6393,135.533,101.551,97.4667,0.005176191,0.512857,20.3265,587.335,0.376661,0,0
675,168.5,75.5888,88.235,135.557,101.565,97.1214,0.005093448,0.5115,20.3267,586.924,0.410534,0,0
684,170.75,75.2462,88.1843,136.367,101.58,97.5387,0.004970323,0.510859,20.3268,586.544,0.372529,0,0
693,173,75.103,88.1083,141.741,101.583,97.524,0.004912599,0.509198,20.3281,586.154,0.374173,0,0
702,175.25,74.9858,87.8146,141.522,101.588,97.6381,0.004847103,0.506012,20.3351,585.793,0.363928,0,0
711,177.5,75.2011,87.8981,138.031,101.6,97.0164,0.004833207,0.503757,20.3383,585.383,0.423621,0,0
720,179.75,74.383,87.8219,137.057,101.597,97.4246,0.00488067,0.502142,20.3409,585.033,0.384796,0,0
729,182,75.2551,88.1122,138.314,101.611,98.9119,0.004771016,0.500155,20.3435,584.682,0.247039,0,0
738,184.25,75.2395,88.2847,135.684,101.608,97.9246,0.004398328,0.498195,20.3471,584.242,0.338792,0,0
747,186.5,75.7468,87.9128,138.246,101.612,97.9925,0.004045722,0.494722,20.354,583.942,0.332799,0,0
756,188.75,75.404,87.7399,137.781,101.596,97.3708,0.004072465,0.4899351,20.3606,583.561,0.389785,0,0
765,191,74.9788,87.6648,143.694,101.594,98.9869,0.004294751,0.484834,20.3661,583.191,0.23859,0,0
774,193.25,75.1539,87.5817,138.931,101.606,98.8333,0.004317314,0.481376,20.3701,582.811,0.253924,0,0
783,195.5,75.389,87.4294,135.839,101.603,99.1862,0.004235277,0.479248,20.3718,582.46,0.22088,0,0
792,197.75,75.0753,87.4692,138.146,101.599,98.5696,0.004189829,0.47799,20.3712,582.12,0.27773,0,0
801,200,75.1189,87.3117,133.792,101.578,99.0483,0.004181511,0.477324,20.3704,581.73,0.231378,0,0
810,202.25,74.8214,87.2487,139.334,101.58,99.0599,0.004123397,0.476981,20.3693,581.349,0.230484,0,0
819,204.5,75.0028,87.0147,134.38,101.551,98.7324,0.00403477,0.476674,20.3695,581.009,0.25827,0,0
828,206.75,74.8943,87.0529,135.732,101.537,98.3987,0.00389686,0.475254,20.3717,580.659,0.288067,0,0
837,209,74.8768,86.8739,137.265,101.549,98.9945,0.003732657,0.473109,20.3734,580.298,0.233752,0,0
846,211.25,74.4522,86.575,138.497,101.538,97.8298,0.003730764,0.470589,20.3762,579.928,0.341426,0,0
855,213.5,74.7452,86.3485,135.31,101.517,99.0183,0.003849179,0.468694,20.3779,579.628,0.228675,0,0
864,215.75,74.7756,86.285,138.765,101.508,98.7673,0.003794948,0.467562,20.3793,579.247,0.251145,0,0
873,218,74.7091,86.4036,136.954,101.506,98.8647,0.003778977,0.466219,20.3799,578.937,0.241955,0,0
882,220.25,74.6824,86.1463,138.019,101.486,98.6705,0.003792774,0.463919,20.3815,578.587,0.258209,0,0
891,222.5,75.2229,86.2278,138.251,101.481,98.2729,0.003690094,0.461049,20.3853,578.236,0.294809,0,0
900,224.75,74.5433,85.8058,137.967,101.472,99.8956,0.003548987,0.458787,20.3883,577.906,0.143675,0,0
909,227,74.3336,85.7896,138.014,101.456,98.8216,0.003512244,0.456689,20.3902,577.606,0.241447,0,0
918,229.25,74.4495,85.822,142.065,101.434,99.7916,0.003591087,0.4540402,20.393,577.286,0.149761,0,0
927,231.5,74.8256,85.2927,137.322,101.423,99.0107,0.00364995,0.452139,20.3941,576.945,0.220844,0,0
936,233.75,74.2375,85.347,138.505,101.411,100.733,0.003583873,0.450703,20.3952,576.585,0.0615752,0,0
945,236,74.478,85.5217,138.294,101.396,98.9012,0.00339312,0.44862,20.3987,576.355,0.228575,0,0
954,238.25,74.349,85.1987,139.766,101.37,99.8251,0.003205791,0.445909,20.402,575.974,0.140904,0,0
963,240.5,74.228,84.8384,134.58,101.356,98.919,0.003148147,0.443905,20.4046,575.714,0.223311,0,0
972,242.75,74.1193,84.4478,137.633,101.344,99.4037,0.00317927,0.442127,20.4057,575.334,0.177369,0,0
981,245,73.7534,84.6467,137.145,101.31,99.4641,0.003240281,0.440663,20.4076,575.053,0.168739,0,0
990,247.25,74.0233,84.5851,136.902,101.305,99.5665,0.003211082,0.44017,20.4087,574.763,0.158883,0,0
999,249.5,73.9343,84.4505,141.63,101.297,100.118,0.003205652,0.438827,20.4106,574.443,0.107432,0,0
1008,251.75,73.9745,84.3821,136.928,101.291,99.749,0.003221941,0.436396,20.4146,574.063,0.140768,0,0
1017,254,74.2824,84.7637,136.838,101.261,99.6699,0.003201533,0.433317,20.4172,573.782,0.145359,0,0
1026,256.25,73.8927,84.2093,138.757,101.265,99.64,0.003132466,0.431259,20.4196,573.502,0.148413,0,0
1035,258.5,73.7273,83.9249,140.454,101.251,100.367,0.002961288,0.429305,20.4224,573.172,0.0805411,0,0
1044,260.75,73.5842,83.453,137.503,101.248,100.251,0.002787054,0.426361,20.4247,572.852,0.0907822,0,0
1053,263,73.6708,83.3915,141.289,101.22,99.638,0.002697829,0.424542,20.4268,572.551,0.144565,0,0
1062,265.25,73.1194,83.167,141.385,101.221,100.088,0.002760564,0.423657,20.4279,572.261,0.103302,0,0
1071,267.5,73.2655,83.818,135.225,101.205,99.2881,0.002812527,0.422561,20.4284,571.951,0.175461,0,0
1080,269.75,73.5742,82.9677,140.554,101.184,100.377,0.002695963,0.420352,20.4304,571.65,0.0734773,0,0
1089,272,72.7362,82.8688,144.404,101.168,100.845,0.002664823,0.416949,20.4339,571.34,0.0293412,0,0
1098,274.25,73.2564,83.2117,143.462,101.162,99.5964,0.002724187,0.415231,20.4354,571.09,0.143088,0,0
1107,276.5,72.9563,82.8206,140.621,101.153,100.084,0.002761225,0.414427,20.436,570.78,0.0975058,0,0
1116,278.75,72.7043,83.1803,140.556,101.104,100.012,0.002813398,0.413325,20.4374,570.489,0.0995848,0,0
1125,281,73.0688,82.2216,138.278,101.092,100.273,0.002767672,0.411866,20.4395,570.229,0.0746915,0,0
1134,283.25,72.3323,82.2872,138.86,101.072,100.394,0.002667003,0.4099,20.4418,569.949,0.0618208,0,0
1143,285.5,72.5257,82.1697,141.235,101.033,100.274,0.002622257,0.408107,20.4438,569.639,0.0692475,0,0
1152,287.75,72.7414,81.8793,144.218,101.024,99.5989,0.002663204,0.406344,20.4453,569.378,0.13032,0,0
1161,290,72.3702,81.9628,142.865,101.01,100.866,0.002749627,0.404215,20.4482,569.088,0.0131106,0,0
1170,292.25,72.6861,81.7346,136.362,100.984,101.031,0.00277837,0.402773,20.4519,568.768,-0.004228815,0,0
1179,294.5,72.0999,81.3697,139.813,100.966,101.03,0.002622918,0.401048,20.4547,568.497,-0.005784612,0,0
1188,296.75,71.9711,81.6297,137.625,100.96,101.048,0.002372761,0.400077,20.4577,568.247,-0.007920911,0,0
1197,299,71.8099,80.9975,141.999,100.956,100.74,0.002289027,0.397856,20.461,567.917,0.0196523,0,0
1206,301.25,71.8713,80.7802,142.398,100.934,100.343,0.002333469,0.395591,20.463,567.687,0.0538737,0,0
1215,303.5,71.9643,80.8805,141.984,100.928,100.517,0.002271222,0.393865,20.4646,567.376,0.0374207,0,0
1224,305.75,71.6268,80.2599,134.339,100.923,101.198,0.002220706,0.392606,20.4659,567.096,-0.024959,0,0
1233,308,71.6854,80.5591,146.115,100.916,100.074,0.002282002,0.391409,20.4677,566.856,0.0768721,0,0
1242,310.25,71.1347,80.6038,139.078,100.913,99.8946,0.002422768,0.389549,20.4715,566.536,0.0930846,0,0
1251,312.5,71.2457,80.4773,143.826,100.965,100.966,0.002518,0.387952,20.4742,566.286,-5.46941E-05,0,0
1260,314.75,70.9151,80.3432,139.06,101.016,100.379,0.002378167,0.386178,20.4767,566.005,0.0579899,0,0
1269,317,70.8839,79.7679,135.028,101.047,101.22,0.002210412,0.384601,20.4795,565.785,-0.0156991,0,0
1278,319.25,71.5575,79.7654,140.568,101.084,99.7592,0.002128134,0.384,20.4806,565.505,0.121071,0,0
1287,321.5,71.3533,80.0715,135.963,101.131,100.5,0.002194998,0.38284,20.4824,565.275,0.0574421,0,0
1296,323.75,71.2348,79.6963,139.36,101.185,101.32,0.002231161,0.381493,20.4831,565.004,-0.0122667,0,0
1305,326,70.7299,79.1606,141.305,101.217,100.717,0.002234831,0.380461,20.4848,564.774,0.0454615,0,0
1314,328.25,70.9485,79.0243,140.005,101.263,100.725,0.002313928,0.379605,20.4863,564.474,0.0489537,0,0
1323,330.5,70.651,79.0964,139.753,101.324,100.89,0.002418319,0.378258,20.4881,564.204,0.0393858,0,0
1332,332.75,70.4981,78.904,140.265,101.356,101.938,0.002382191,0.376602,20.4904,563.963,-0.052569,0,0
1341,335,70.0263,78.7505,140.119,101.383,101.301,0.00233791,0.375053,20.4919,563.633,0.007403664,0,0
1350,337.25,70.1866,78.3213,138.614,101.433,101.321,0.002415151,0.37393,20.493,563.393,0.0101259,0,0
1359,339.5,70.5121,78.1114,137.069,101.475,102.436,0.002499787,0.372741,20.4955,563.183,-0.0864604,0,0
1368,341.75,69.8173,78.2864,137.94,101.496,100.269,0.00245137,0.371303,20.4976,562.922,0.111656,0,0
1377,344,69.6797,77.8291,144.363,101.534,100.763,0.002331518,0.369867,20.5,562.672,0.0699499,0,0
1386,346.25,70.1286,77.4465,139.245,101.567,101.654,0.002194407,0.368947,20.5011,562.452,-0.007839894,0,0
1395,348.5,70.4677,77.4966,141.48,101.58,101.556,0.002166736,0.368336,20.5019,562.162,0.002190777,0,0
1404,350.75,69.2164,77.6917,146.679,101.597,101.249,0.002191438,0.36708,20.5038,561.881,0.0315152,0,0
1413,353,69.5975,77.2925,145.972,101.629,101.558,0.002180486,0.365345,20.5059,561.601,0.006437405,0,0
1422,355.25,69.8451,77.6412,138.46,101.652,101.221,0.002138542,0.364378,20.5068,561.381,0.0389937,0,0
1431,357.5,69.7638,77.3017,142.2612,101.661,101.398,0.002111052,0.363926,20.5071,561.151,0.0238287,0,0
1440,359.75,69.2029,77.2103,141.238,101.675,101.367,0.002119828,0.363621,20.5081,560.881,0.0278472,0,0
1449,362,69.2367,77.0857,141.225,101.714,102.704,0.002255923,0.36328,20.5079,560.66,-0.0889475,0,0
1458,364.25,69.3877,77.2953,139.44,101.719,102.458,0.002442884,0.362532,20.5085,560.39,-0.0664195,0,0
1467,366.5,69.4416,77.6352,140.742,101.722,101.606,0.00235014,0.361261,20.5098,560.08,0.0104559,0,0
1476,368.75,69.1336,77.1983,144.853,101.732,101.56,0.002198932,0.359949,20.5106,559.87,0.0155538,0,0
1485,371,69.0902,77.0611,135.923,101.747,102.226,0.00207903,0.359071,20.5109,559.619,-0.0431509,0,0
1494,373.25,68.8343,77.1367,141.544,101.752,101.775,0.001928318,0.358742,20.5111,559.359,-0.00206821,0,0
1503,375.5,69.613,77.2757,136.847,101.764,101.444,0.001874974,0.358662,20.5111,559.139,0.0288679,0,0
1512,377.75,68.9945,76.5593,142.07,101.778,102.015,0.001917421,0.358072,20.5111,558.909,-0.0212886,0,0
1521,380,69.0699,76.6419,140.681,101.785,102.09,0.001979712,0.358405,20.5115,558.669,-0.0274053,0,0
1530,382.25,68.7956,76.5922,144.28,101.783,101.925,0.001967665,0.358186,20.5128,558.408,-0.0128117,0,0
1539,384.5,68.5423,76.8464,141.519,101.786,101.793,0.00194948,0.356815,20.5158,558.388,-0.000583056,0,0
1548,386.75,68.9415,76.5048,141.361,101.788,101.138,0.002005712,0.356065,20.517,557.998,0.0587693,0,0
1557,389,68.1747,76.4263,142.899,101.79,101.819,0.002029222,0.356431,20.5154,557.748,-0.00262459,0,0
1566,391.25,68.9574,76.5764,143.868,101.792,101.75,0.002060987,0.3584,20.5112,557.467,0.003768731,0,0
1575,393.5,69.0514,76.2628,142.58,101.793,101.803,0.002067297,0.359523,20.5096,557.217,-0.000911246,0,0
1584,395.75,68.5014,76.3113,144.579,101.803,102.121,0.002101226,0.359402,20.5111,557.027,-0.0286326,0,0
1593,398,68.6755,76.5939,144.562,101.791,101.811,0.002178708,0.357878,20.5132,556.787,-0.001828053,0,0
1602,400.25,68.9711,76.3217,142.989,101.789,101.209,0.002254226,0.356888,20.5143,556.577,0.0523587,0,0
1611,402.5,68.7777,76.4995,141.563,101.809,101.376,0.002260447,0.357321,20.5151,556.276,0.0391037,0,0
1620,404.75,68.2232,75.6271,144.343,101.799,102.387,0.00222989,0.35729,20.5167,556.036,-0.05284895,0,0
1629,407,68.1614,76.0522,138.243,101.798,102.14,0.002316058,0.357453,20.5175,555.766,-0.0307643,0,0
1638,409.25,67.9519,75.5877,149.57,101.787,102.057,0.002372392,0.356787,20.5198,555.526,-0.0243761,0,0
1647,411.5,67.9692,76.1021,143.63,101.802,101.976,0.002366353,0.355743,20.5216,555.286,-0.0156657,0,0
1656,413.75,68.1146,75.6316,142.681,101.789,101.382,0.002384001,0.355577,20.5209,554.975,0.0367321,0,0
1665,416,67.8483,75.452,142.295,101.782,101.386,0.002392245,0.35668,20.5193,554.735,0.03577,0,0
1674,418.25,67.9002,75.4378,140.795,101.793,101.435,0.002378159,0.357681,20.5186,554.505,0.0323403,0,0
1683,420.5,67.812,75.2266,144.153,101.784,101.52,0.002350775,0.35777,20.5197,554.224,0.02385599,0,0
1692,422.75,68.5638,76.1846,137.331,101.795,101.331,0.002197246,0.357758,20.5202,554.014,0.0419341,0,0
1701,425,68.2084,75.7005,143.685,101.789,101.557,0.002078304,0.35826,20.5204,553.744,0.020949,0,0
1710,427.25,67.8372,75.9644,136.688,101.787,101.969,0.001974346,0.35805,20.5204,553.554,-0.0164399,0,0
1719,429.5,67.8447,75.2622,143.373,101.782,101.123,0.001810732,0.358248,20.519,553.264,0.0596203,0,0
1728,431.75,67.9152,75.6744,141.548,101.77,101.317,0.001714868,0.359732,20.5176,553.053,0.0409073,0,0
1737,434,67.8128,75.9664,143.801,101.784,101.262,0.001739362,0.360824,20.5165,552.783,0.0471321,0,0
1746,436.25,68.2804,75.3398,136.439,101.776,101.509,0.001868754,0.361322,20.515,552.583,0.0240764,0,0
1755,438.5,68.5109,75.6757,137.33,101.765,101.875,0.001994907,0.362225,20.5135,552.303,-0.009843073,0,0
1764,440.75,68.4656,76.1657,144.64,101.754,100.581,0.002043302,0.363599,20.5125,552.023,0.106413,0,0
1773,443,68.0574,75.5464,138.561,101.758,100.107,0.002174946,0.363722,20.5121,551.802,0.150142,0,0
1782,445.25,67.9271,75.777,141.212,101.744,101.803,0.002238656,0.363479,20.5125,551.572,-0.005296447,0,0
1791,447.5,68.0845,75.5369,144.732,101.734,100.923,0.002117947,0.363473,20.5122,551.292,0.0733807,0,0
1800,449.75,68.0448,75.4869,143.03,101.735,101.739,0.002123483,0.363254,20.5119,551.002,-0.000345672,0,0
1809,452,68.2074,75.5248,136.27,101.727,101.011,0.002296749,0.364239,20.5111,550.781,0.0648137,0,0
1818,454.25,68.6219,76.0885,143.81,101.715,100.973,0.00239046,0.365683,20.5093,550.551,0.0671997,0,0
1827,456.5,67.3746,75.7382,138.04,101.712,100.971,0.002458595,0.36683,20.5069,550.271,0.0670781,0,0
1836,458.75,67.6361,75.5008,133.738,101.701,99.8667,0.002549643,0.368211,20.506,549.971,0.166995,0,0
1845,461,68.4077,76.2895,144.978,101.671,100.926,0.002503812,0.369522,20.5035,549.79,0.0674614,0,0
1854,463.25,68.4433,76.4703,144.169,101.654,100.145,0.002491131,0.370664,20.5018,549.52,0.137248,0,0
1863,465.5,68.4602,76.5472,143.313,101.655,100.523,0.002573796,0.370632,20.5012,549.28,0.102763,0,0
1872,467.75,68.3381,76.4032,142.107,101.638,100.513,0.002576802,0.370671,20.501,549.01,0.102089,0,0
1881,470,68.5029,76.5987,140.824,101.636,99.391,0.002518245,0.370608,20.5009,548.719,0.204924,0,0
1890,472.25,68.8748,77.3077,139.846,101.6,100.084,0.002408128,0.371268,20.4995,548.519,0.137958,0,0
1899,474.5,68.6266,76.5948,142.201,101.593,100.433,0.002391732,0.373223,20.497,548.259,0.105396,0,0
1908,476.75,68.2792,76.6919,138.917,101.579,100.469,0.002394531,0.374503,20.495,547.999,0.100794,0,0
1917,479,68.7308,76.5288,141.822,101.554,99.889,0.002458737,0.375403,20.495,547.799,0.151657,0,0
1926,481.25,68.1602,75.9996,139.284,101.535,99.9889,0.002647346,0.376706,20.4941,547.488,0.140848,0,0
1935,483.5,68.1021,76.1469,140.529,101.507,99.57,0.00285333,0.37779,20.4933,547.158,0.176832,0,0
1944,485.75,68.4571,76.3198,145.565,101.481,100.261,0.002785441,0.379098,20.4922,547.028,0.110936,0,0
1953,488,68.3872,76.3951,138.089,101.46,100.287,0.002557562,0.379524,20.4923,546.718,0.106715,0,0
1962,490.25,67.8892,76.223,142.6,101.433,100.375,0.00248426,0.379113,20.4931,546.447,0.0962124,0,0
1971,492.5,68.1856,76.182,144.675,101.405,99.743,0.002564325,0.379918,20.4916,546.147,0.151628,0,0
1980,494.75,68.0446,76.2213,142.503,101.37,99.0295,0.002701654,0.382306,20.4875,545.927,0.214367,0,0
1989,497,68.6825,76.3325,141.518,101.341,98.8966,0.002701527,0.385197,20.4842,545.597,0.224074,0,0
1998,499.25,68.7557,76.5492,139.899,101.324,99.3449,0.002673762,0.387539,20.4823,545.356,0.181046,0,0
2007,501.5,68.8803,76.8307,141.99,101.29,98.9438,0.002668025,0.388654,20.4819,545.096,0.215032,0,0
2016,503.75,68.1127,76.59,138.694,101.302,98.7861,0.0027449,0.389376,20.4818,544.816,0.230753,0,0
2025,506,68.2232,76.6594,140.113,101.315,99.1608,0.002812616,0.390021,20.4818,544.556,0.197242,0,0
2034,508.25,68.6676,77.0346,137.966,101.328,99.3824,0.002776267,0.391306,20.4803,544.295,0.17788,0,0
2043,510.5,68.7863,76.8614,138.478,101.325,99.65625,0.002730387,0.392312,20.4787,544.015,0.152371,0,0
2052,512.75,68.5939,76.9874,142.699,101.334,99.0493,0.002822486,0.393097,20.4765,543.775,0.209213,0,0
2061,515,68.7729,76.9096,134.257,101.352,98.6086,0.002847761,0.394291,20.4738,543.525,0.251844,0,0
2070,517.25,68.8428,77.1701,141.719,101.358,98.4514,0.002736927,0.39597,20.4704,543.245,0.266969,0,0
2079,519.5,68.8337,77.2842,142.226,101.373,98.382,0.002695808,0.397776,20.468,542.974,0.274827,0,0
2088,521.75,69.3377,77.4214,143.866,101.387,98.2212,0.002839442,0.39977,20.4641,542.684,0.291064,0,0
2097,524,69.4417,77.342,134.764,101.402,98.5914,0.00290368,0.401011,20.4635,542.454,0.257964,0,0
2106,526.25,69.0335,77.5499,146.825,101.391,98.9403,0.002908469,0.401935,20.4637,542.174,0.224544,0,0
2115,528.5,68.975,77.9328,139.547,101.409,98.3906,0.003018274,0.402988,20.4631,541.933,0.277268,0,0
2124,530.75,69.4582,77.8541,138.552,101.435,98.6269,0.003145866,0.403733,20.4629,541.623,0.257606,0,0
2133,533,69.6027,77.5278,139.694,101.43,98.1502,0.003347038,0.404179,20.4628,541.353,0.301576,0,0
2142,535.25,69.7697,78.2858,142.405,101.453,97.8576,0.003528164,0.4046,20.4621,541.083,0.331097,0,0
2151,537.5,69.335,78.6211,139.291,101.453,98.4048,0.00344522,0.405765,20.4604,540.812,0.279934,0,0
2160,539.75,69.1593,78.667,139.069,101.481,98.4453,0.00331102,0.407073,20.4585,540.522,0.278687,0,0
2169,542,69.7906,77.9943,137.355,101.458,97.4449,0.003254876,0.40774,20.4568,540.252,0.370368,0,0
2178,544.25,69.7212,78.3943,143.061,101.462,98.7217,0.003114771,0.408371,20.4562,540.022,0.251249,0,0
2187,546.5,69.4265,78.3255,142.52,101.47,98.095,0.003021379,0.409445,20.4549,539.681,0.310362,0,0
2196,548.75,69.489,78.6094,140.816,101.452,98.0767,0.003086295,0.410558,20.4533,539.431,0.310467,0,0
2205,551,69.9381,78.8061,143.314,101.437,98.1791,0.003183122,0.411429,20.4515,539.111,0.299583,0,0
2214,553.25,69.1424,78.5973,140.619,101.433,98.1619,0.003322307,0.411634,20.4507,538.85,0.300785,0,0
2223,555.5,69.814,78.2934,140.79,101.425,97.9438,0.00347501,0.411733,20.4504,538.53,0.320482,0,0
2232,557.75,69.8138,78.0307,136.504,101.421,97.524,0.00359281,0.411988,20.45,538.29,0.359566,0,0
2241,560,69.8128,78.4153,140.85,101.423,98.4149,0.003588395,0.413342,20.4452,537.97,0.276267,0,0
2250,562.25,69.3893,78.9687,138.904,101.43,97.6959,0.003533598,0.41568,20.442,537.709,0.344151,0,0
2259,564.5,70.0525,78.8956,144.389,101.445,97.4687,0.003621693,0.417486,20.44,537.389,0.366893,0,0
2268,566.75,70.0068,78.7281,141.87,101.441,97.3577,0.003736457,0.419486,20.4372,537.159,0.377019,0,0
2277,569,70.3639,78.2551,142.706,101.444,98.168,0.003603425,0.421362,20.4359,536.899,0.301186,0,0
2286,571.25,70.4933,78.5149,138.28,101.474,97.6766,0.003366468,0.4224,20.4342,536.578,0.349989,0,0
2295,573.5,69.957,78.9526,144.941,101.481,97.4008,0.003364569,0.422808,20.4335,536.308,0.376573,0,0
2304,575.75,70.3938,79.137,142.223,101.49,98.4682,0.003467855,0.423031,20.4332,536.018,0.277343,0,0
2313,578,70.1447,79.9586,140.841,101.508,97.7694,0.003538723,0.423893,20.4322,535.728,0.344367,0,0
2322,580.25,70.1859,79.6712,138.135,101.529,97.8323,0.003583443,0.424928,20.4313,535.477,0.340369,0,0
2331,582.5,70.6579,79.6343,146.449,101.539,97.6923,0.003659369,0.425252,20.4295,535.267,0.354399,0,0
2340,584.75,71.2822,79.7937,142.442,101.559,97.9002,0.00377217,0.425813,20.4288,534.927,0.336643,0,0
2349,587,71.0937,79.7635,143.18,101.582,96.7836,0.003823963,0.426622,20.4272,534.567,0.443986,0,0
2358,589.25,71.1712,79.7458,142.495,101.573,98.1299,0.00363213,0.428017,20.4265,534.336,0.316441,0,0
2367,591.5,71.1509,79.9997,137.574,101.596,97.135,0.003449829,0.428626,20.4262,534.066,0.41207,0,0
2376,593.75,70.5214,79.8821,143.808,101.614,97.8049,0.003486981,0.428779,20.4264,533.746,0.350609,0,0
2385,596,70.2815,79.8197,144.572,101.617,97.1589,0.003550569,0.4288176,20.428,533.486,0.41168,0,0
2394,598.25,70.5595,79.5549,138.182,101.625,98.2937,0.003674208,0.428918,20.4287,533.155,0.305791,0,0
2403,600.5,70.3763,79.4494,138.015,101.629,97.8024,0.003788691,0.428731,20.4302,532.845,0.352223,0,0
2412,602.75,70.6081,79.2442,141.7,101.65,97.4839,0.003806975,0.428239,20.4322,532.605,0.384048,0,0
2421,605,70.4508,79.3597,142.754,101.651,97.6127,0.00377245,0.426975,20.4343,532.295,0.372007,0,0
2430,607.25,70.611,79.734,140.287,101.663,97.4596,0.003698992,0.42584,20.4367,532.034,0.387492,0,0
2439,609.5,70.1747,79.5149,141.877,101.672,97.7512,0.003647589,0.42515,20.4377,531.744,0.360862,0,0
2448,611.75,70.0406,79.4071,137.399,101.685,97.7111,0.003778414,0.424271,20.4382,531.514,0.365778,0,0
2457,614,70.6361,79.4424,140.47,101.697,97.2375,0.003972661,0.422755,20.4383,531.203,0.411516,0,0
2466,616.25,70.0489,78.9549,145.099,101.689,98.4352,0.004091001,0.422877,20.437,530.923,0.298398,0,0
2475,618.5,70.4203,79.1811,133.95,101.712,97.5666,0.003959884,0.424387,20.4356,530.603,0.381851,0,0
2484,620.75,70.4279,79.0919,136.893,101.721,96.7639,0.003860343,0.425567,20.4346,530.353,0.458475,0,0
2493,623,70.5189,79.4762,138.688,101.718,97.8825,0.003793006,0.426999,20.4342,530.073,0.352671,0,0
2502,625.25,70.7135,78.8465,138.572,101.717,97.0052,0.003708227,0.427442,20.4341,529.742,0.435205,0,0
2511,627.5,70.2931,79.4763,140.482,101.733,96.5311,0.003731581,0.426853,20.434,529.492,0.481614,0,0
2520,629.75,70.8687,79.3801,138.89,101.733,97.0909,0.003775951,0.426649,20.4332,529.192,0.428553,0,0
2529,632,70.3983,79.5213,142.974,101.74,96.9084,0.003815663,0.427445,20.4308,528.942,0.446491,0,0
2538,634.25,70.58,79.6443,140.012,101.755,97.5255,0.003912233,0.428037,20.4299,528.641,0.389543,0,0
2547,636.5,70.8396,79.4229,141.041,101.777,97.3597,0.003974033,0.428136,20.4295,528.331,0.407165,0,0
2556,638.75,70.2638,79.2256,139.495,101.756,96.9185,0.003968778,0.42752,20.4294,528.071,0.446981,0,0
2565,641,70.7886,79.7063,139.767,101.771,97.4606,0.003869023,0.428337,20.4284,527.79,0.397139,0,0
2574,643.25,70.859,79.1475,140.911,101.78,97.7654,0.003663919,0.429401,20.4279,527.51,0.369234,0,0
2583,645.5,70.7311,79.5901,137.281,101.78,96.3663,0.003577146,0.429593,20.4277,527.24,0.501568,0,0
2592,647.75,70.8081,79.6187,142.387,101.787,97.0762,0.003723318,0.43017,20.4265,526.93,0.434812,0,0
2601,650,70.6033,80.5404,133.7,101.802,96.8546,0.003946464,0.431554,20.4232,526.639,0.457119,0,0
2610,652.25,71.2931,79.7194,135.531,101.815,96.7938,0.003835661,0.433395,20.4216,526.399,0.464112,0,0
2619,654.5,71.3046,80.1622,144.24,101.798,96.9652,0.003593921,0.434712,20.4201,526.099,0.446281,0,0
2628,656.75,71.557,80.8473,138.187,101.785,96.7167,0.003578307,0.435324,20.419,525.769,0.468672,0,0
2637,659,71.5375,80.3643,137.344,101.82,97.2532,0.003848627,0.436222,20.4183,525.508,0.421072,0,0
2646,661.25,71.8072,80.5416,141.947,101.791,96.7192,0.004243482,0.436625,20.4169,525.238,0.468953,0,0
2655,663.5,72.1579,81.0258,138.577,101.788,97.9408,0.004516494,0.437731,20.4151,524.938,0.353525,0,0
2664,665.75,71.9851,81.2666,140.011,101.806,97.1974,0.00472383,0.439222,20.4125,524.628,0.425072,0,0
2673,668,71.5322,81.1672,141.003,101.811,96.9794,0.004767649,0.439642,20.4115,524.397,0.446163,0,0
2682,670.25,71.5613,81.4632,141.438,101.81,97.2608,0.004638852,0.439504,20.4111,524.097,0.419461,0,0
2691,672.5,71.902,81.3052,139.02,101.805,95.0773,0.004584702,0.440099,20.4108,523.887,0.627403,0,0
2700,674.75,71.758,81.2478,141.68,101.817,97.2659,0.004619272,0.441134,20.4088,523.547,0.419577,0,0
2709,677,71.7011,81.5752,139.244,101.813,95.7609,0.004622052,0.44347,20.4037,523.216,0.562374,0,0
2718,679.25,71.8496,81.3115,143.671,101.814,95.9896,0.004635439,0.446562,20.3986,522.916,0.540523,0,0
2727,681.5,72.1421,81.5631,143.021,101.824,96.6123,0.004715773,0.448553,20.3967,522.666,0.482118,0,0
2736,683.75,72.1134,81.5564,139.089,101.826,96.9834,0.004776687,0.448015,20.3979,522.295,0.447154,0,0
2745,686,72.1099,81.726,139.448,101.821,96.8359,0.004653616,0.4457331,20.4022,522.005,0.460643,0,0
2754,688.25,71.8274,81.1852,139.742,101.827,97.6786,0.004617264,0.443102,20.4069,521.725,0.381649,0,0
2763,690.5,71.7316,80.8782,136.932,101.843,95.953,0.004748336,0.442825,20.4082,521.385,0.546652,0,0
2772,692.75,72.0609,81.2956,135.22,101.847,96.2745,0.004839559,0.445092,20.4052,521.094,0.516293,0,0
2781,695,72.2426,81.1605,136.664,101.848,97.0909,0.004900601,0.446762,20.4027,520.824,0.438919,0,0
2790,697.25,72.2345,81.7069,137.431,101.87,96.522,0.004977569,0.448098,20.4015,520.524,0.494854,0,0
2799,699.5,72.1468,81.6177,137.425,101.88,95.0667,0.00500027,0.450417,20.3975,520.264,0.635153,0,0
2808,701.75,72.0009,81.9999,140.322,101.889,96.1812,0.004993304,0.453245,20.3943,519.953,0.529014,0,0
2817,704,72.4872,82.3001,137.037,101.884,96.4013,0.005056852,0.454323,20.393,519.683,0.50756,0,0
2826,706.25,72.1824,81.9908,138.401,101.885,95.8785,0.005119078,0.454148,20.3937,519.393,0.557607,0,0
2835,708.5,72.2767,81.8724,136.157,101.902,95.7801,0.005145129,0.452845,20.394,519.052,0.568549,0,0
2844,710.75,72.7541,81.9627,136.137,101.894,95.2649,0.005120682,0.452549,20.3939,518.812,0.617297,0,0
2853,713,72.1129,82.1105,141.306,101.902,95.1828,0.005122195,0.454221,20.3903,518.512,0.625881,0,0
2862,715.25,72.5188,82.1263,137.549,101.909,94.4632,0.005204614,0.456727,20.3877,518.172,0.69618,0,0
2871,717.5,72.4554,82.3563,141.945,101.92,95.1762,0.005216079,0.457828,20.3869,517.891,0.62815,0,0
2880,719.75,72.5386,82.2812,138.796,101.927,94.7421,0.005129858,0.457513,20.3865,517.581,0.670799,0,0
2889,722,72.6674,82.4995,132.855,101.945,94.948,0.005127926,0.457407,20.3864,517.301,0.652476,0,0
2898,724.25,73.0368,82.5771,139.774,101.953,95.8466,0.005288216,0.457347,20.3864,516.991,0.566714,0,0
2907,726.5,73.202,82.9449,138.06,101.954,96.1985,0.005396402,0.457426,20.3844,516.72,0.533196,0,0
2916,728.75,72.8944,83.0597,132.163,101.959,94.5642,0.005302113,0.459296,20.3808,516.39,0.690874,0,0
2925,731,72.7772,82.7986,135.74,101.968,94.8892,0.005164634,0.460973,20.378,516.09,0.66024,0,0
2934,733.25,72.7583,82.677,138.027,101.967,93.8101,0.00512404,0.461796,20.3769,515.84,0.765113,0,0
2943,735.5,73.4758,83.3421,136.021,101.973,94.6534,0.00523225,0.462422,20.3749,515.549,0.683479,0,0
2952,737.75,73.092,83.1268,142.434,101.987,95.4779,0.005284796,0.463217,20.373,515.269,0.605154,0,0
2961,740,73.1962,83.3016,138.036,101.997,94.949,0.005234594,0.463724,20.372,514.949,0.657052,0,0
2970,742.25,72.8648,82.8995,136.53,101.996,93.7873,0.005143815,0.463858,20.3712,514.248,0.769942,0,0
2979,744.5,73.2243,83.406,141.091,102.004,95.3435,0.005052184,0.463828,20.3701,514.018,0.619636,0,0
2988,746.75,73.2587,83.3039,137.5,102.022,95.5768,0.005009049,0.463786,20.3697,513.738,0.598808,0,0
2997,749,73.5345,83.6974,140.864,102.023,93.5688,0.004931011,0.463039,20.3717,513.477,0.79376,0,0
3006,751.25,73.5874,83.7018,137.283,102.02,94.8192,0.004871862,0.461291,20.3742,513.157,0.671683,0,0
3015,753.5,73.6411,83.3271,136.392,102.038,95.2994,0.004911113,0.458728,20.3765,512.857,0.626923,0,0
3024,755.75,73.3787,83.5604,134.205,102.054,95.8339,0.004891232,0.456701,20.3779,512.637,0.577087,0,0
3033,758,73.7579,83.3441,139.216,102.046,94.8958,0.004727524,0.454183,20.3819,512.366,0.666574,0,0
3042,760.25,73.1935,82.9129,137.907,102.052,96.7862,0.004443081,0.45066,20.3876,512.066,0.486096,0,0
3051,762.5,73.1478,82.223,142.48,102.091,96.6168,0.004131915,0.44594,20.3955,511.856,0.505687,0,0
3060,764.75,73.2137,82.3433,140.369,102.083,96.3516,0.003999542,0.439505,20.4029,511.616,0.530204,0,0
3069,767,73.403,82.2641,138.797,102.076,96.2314,0.004011445,0.433223,20.4086,511.375,0.541063,0,0
3078,769.25,72.8236,81.708,143.059,102.098,98.5432,0.003978492,0.425757,20.4184,511.135,0.325158,0,0
3087,771.5,72.2149,80.7777,141.14,102.108,97.8145,0.003808611,0.415092,20.4317,510.925,0.394189,0,0
3096,773.75,72.2204,80.6381,140.034,102.097,97.9099,0.003540175,0.403204,20.446,510.725,0.384287,0,0
3105,776,71.822,79.823,147.588,102.117,98.7334,0.003301879,0.390679,20.4596,510.525,0.309209,0,0
3114,778.25,71.0202,78.9347,139.326,102.128,98.5295,0.003072896,0.379576,20.4737,510.345,0.329138,0,0
3123,780.5,70.6517,78.4255,144.99,102.136,98.9494,0.002845518,0.36775,20.4891,510.174,0.290822,0,0
3132,782.75,70.5877,77.9949,144.508,102.125,99.0209,0.002709427,0.356824,20.503,510.034,0.283268,0,0
3141,785,70.2661,76.8375,142.18,102.133,99.8768,0.002784091,0.34403,20.5189,509.914,0.204993,0,0
3150,787.25,69.3023,75.7626,141.857,102.154,99.9965,0.002693438,0.330982,20.5315,509.754,0.195856,0,0
3159,789.5,68.9617,74.9309,144.231,102.15,100.746,0.002349224,0.319596,20.5473,509.624,0.127042,0,0
3168,791.75,67.5841,74.8534,143.86,102.144,100.477,0.002038661,0.306045,20.5641,509.514,0.150999,0,0
3177,794,67.6992,73.5578,144.62,102.16,101.578,0.001888848,0.293329,20.5776,509.404,0.0524609,0,0
3186,796.25,67.17556,72.646,145.836,102.167,101.178,0.001872206,0.282469,20.5911,509.284,0.08929497,0,0
3195,798.5,66.4392,72.0246,148.541,102.159,101.729,0.001851293,0.269464,20.608,509.214,0.0387094,0,0
3204,800.75,66.3059,70.589,146.158,102.159,102.013,0.001853965,0.25771,20.6198,509.103,0.0131685,0,0
3213,803,65.4615,70.137,151.47,102.168,102.133,0.0018427,0.247187,20.6296,509.083,0.003178261,0,0
3222,805.25,64.8509,68.8111,147.941,102.163,102.267,0.001689304,0.237285,20.6414,509.023,-0.009367286,0,0
3231,807.5,64.1812,68.5998,145.165,102.151,103.214,0.001527134,0.228974,20.6506,508.903,-0.0950421,0,0
3240,809.75,63.8094,67.3875,149.762,102.153,102.738,0.00150545,0.223312,20.6544,508.883,-0.0523456,0,0
3249,812,63.2258,66.8911,145.718,102.161,102.936,0.00166906,0.218688,20.6596,508.813,-0.0693331,0,0
3258,814.25,62.541,66.1409,142.823,102.142,103.825,0.001831163,0.213581,20.6669,508.743,-0.150019,0,0
3267,816.5,62.1919,65.6997,147.045,102.136,103.353,0.001851892,0.207978,20.6735,508.683,-0.108674,0,0
3276,818.75,61.5337,64.9409,150.121,102.146,103.078,0.001867046,0.202107,20.6815,508.663,-0.0832692,0,0
3285,821,61.3623,64.2219,150.007,102.14,103.466,0.002006196,0.1966279,20.688,508.613,-0.11842,0,0
3294,823.25,60.2084,63.6216,152.669,102.137,103.343,0.002125148,0.192195,20.6925,508.583,-0.107699,0,0
3303,825.5,60.7154,63.4317,150.797,102.14,103.145,0.002201539,0.188371,20.6986,508.493,-0.08990901,0,0
3312,827.75,59.8943,62.7496,145.859,102.124,103.026,0.00223178,0.185285,20.7012,508.463,-0.0807003,0,0
3321,830,60.027,62.5162,150.859,102.117,103.46,0.002330052,0.182287,20.7034,508.423,-0.119908,0,0
3330,832.25,59.8195,61.4225,151.793,102.107,103.082,0.002196714,0.179551,20.7067,508.353,-0.0871483,0,0
3339,834.5,59.0699,61.4292,141.953,102.109,103.192,0.001980108,0.176868,20.711,508.333,-0.0967985,0,0
3348,836.75,58.6536,60.8957,149.842,102.104,103.473,0.002029199,0.174945,20.7131,508.283,-0.122182,0,0
3357,839,58.6486,61.3156,149.448,102.096,103.297,0.002109659,0.173471,20.7149,508.243,-0.107231,0,0
3366,841.25,58.021,60.7255,152.085,102.083,102.821,0.002187304,0.172253,20.717,508.203,-0.0661484,0,0
3375,843.5,57.7533,59.9963,151.184,102.083,104.284,0.00225768,0.170797,20.7183,508.163,-0.195748,0,0
3384,845.75,57.2131,59.6538,151.772,102.088,103.288,0.002306902,0.169433,20.7196,508.143,-0.107243,0,0
3393,848,57.4495,59.1013,150.543,102.059,103.292,0.002248282,0.168393,20.7207,508.0625,-0.110197,0,0
3402,850.25,57.0473,58.9835,148.052,102.054,103.76,0.002022576,0.167579,20.7219,508.093,-0.152127,0,0
3411,852.5,56.9496,58.7696,150.414,102.048,103.177,0.001991281,0.167005,20.7224,508.022,-0.10093,0,0
3420,854.75,56.5357,58.4194,149.656,102.04,103.157,0.002108507,0.166098,20.7238,508.012,-0.0999115,0,0
3429,857,56.361,58.6556,149.095,102.019,102.918,0.002150808,0.165541,20.7246,507.952,-0.0805243,0,0
3438,859.25,56.4024,58.4761,149.684,102.042,102.749,0.00230015,0.165278,20.7257,507.902,-0.0633811,0,0
3447,861.5,56.2148,58.0031,151.255,102.016,103.031,0.002496651,0.1644,20.7282,507.882,-0.0908242,0,0
3456,863.75,56.1079,57.8447,152.111,101.998,103.653,0.002529311,0.163729,20.7291,507.842,-0.147694,0,0
3465,866,55.9065,57.9836,150.806,101.989,102.765,0.002564811,0.163382,20.7295,507.822,-0.0695387,0,0
3474,868.25,55.6287,57.7709,150.265,101.991,102.855,0.002718473,0.163194,20.7297,507.772,-0.0773638,0,0
3483,870.5,55.312,57.7329,148.446,101.972,102.892,0.002772322,0.163409,20.7295,507.752,-0.0824087,0,0
3492,872.75,54.9598,57.1823,148.168,101.973,103.049,0.002735074,0.164045,20.7266,507.672,-0.0962607,0,0
3501,875,54.5281,57.3904,152.877,101.977,103.036,0.002633761,0.164834,20.7246,507.642,-0.09479782,0,0
3510,877.25,55.2574,56.9729,153.414,101.973,102.917,0.002570991,0.165046,20.7248,507.632,-0.0845585,0,0
3519,879.5,54.7358,57.0499,147.964,101.943,102.57,0.002677552,0.164328,20.7256,507.592,-0.0562899,0,0
3528,881.75,54.492,56.4351,154.11,101.93,102.276,0.002769356,0.163524,20.7271,507.562,-0.0311655,0,0
3537,884,54.1114,56.6075,155.117,101.934,102.761,0.002759744,0.162499,20.7277,507.502,-0.0741393,0,0
3546,886.25,54.3443,56.4423,152.61,101.915,102.937,0.002677884,0.161263,20.7294,507.472,-0.0915451,0,0
3555,888.5,54.3622,55.6437,150.966,101.899,103.181,0.002626488,0.160212,20.7302,507.432,-0.11468,0,0
[...]
,,,,,,,,,,,,,
,,,,,,,,,,,,,
,,,,,,,,,,,,,
,,,,,,,,,,,,,
,,,,,,,,,,,,,
,,,,,,,,,,,,,
,,,,,,,,,,,,,
,,,,,,,,,,,,,
,,,,,,,,,,,,,
,,,,,,,,,,,,,
,,,,,,,,,,,,,
,,,,,,,,,,,,,
,,,,,,,,,,,,,
,,,,,,,,,,,,,
,,,,,,,,,,,,,
,,,,,,,,,,,,,
,,,,,,,,,,,,,
,,,,,,,,,,,,,
,,,,,,,,,,,,,
,,,,,,,,,,,,,
,,,,,,,,,,,,,
,,,,,,,,,,,,,
,,,,,,,,,,,,,
,,,,,,,,,,,,,
,,,,,,,,,,,,,
,,,,,,,,,,,,,
,,,,,,,,,,,,,
,,,,,,,,,,,,,
,,,,,,,,,,,,,
,,,,,,,,,,,,,
,,,,,,,,,,,,,
,,,,,,,,,,,,,
,,,,,,,,,,,,,
,,,,,,,,,,,,,
,,,,,,,,,,,,,
,,,,,,,,,,,,,
,,,,,,,,,,,,,
,,,,,,,,,,,,,
,,,,,,,,,,,,,
,,,,,,,,,,,,,
,,,,,,,,,,,,,
,,,,,,,,,,,,,
,,,,,,,,,,,,,
,,,,,,,,,,,,,
,,,,,,,,,,,,,
,,,,,,,,,,,,,
,,,,,,,,,,,,,
,,,,,,,,,,,,,
,,,,,,,,,,,,,
,,,,,,,,,,,,,
,,,,,,,,,,,,,
,,,,,,,,,,,,,
,,,,,,,,,,,,,
,,,,,,,,,,,,,
,,,,,,,,,,,,,
,,,,,,,,,,,,,
,,,,,,,,,,,,,
,,,,,,,,,,,,,
,,,,,,,,,,,,,
,,,,,,,,,,,,,
,,,,,,,,,,,,,
,,,,,,,,,,,,,
,,,,,,,,,,,,,
,,,,,,,,,,,,,
,,,,,,,,,,,,,
,,,,,,,,,,,,,
,,,,,,,,,,,,,
,,,,,,,,,,,,,
,,,,,,,,,,,,,
,,,,,,,,,,,,,
,,,,,,,,,,,,,
,,,,,,,,,,,,,
,,,,,,,,,,,,,
,,,,,,,,,,,,,
,,,,,,,,,,,,,
,,,,,,,,,,,,,
,,,,,,,,,,,,,
,,,,,,,,,,,,,
,,,,,,,,,,,,,
,,,,,,,,,,,,,
,,,,,,,,,,,,,
,,,,,,,,,,,,,
,,,,,,,,,,,,,
,,,,,,,,,,,,,
,,,,,,,,,,,,,
,,,,,,,,,,,,,
,,,,,,,,,,,,,
,,,,,,,,,,,,,
,,,,,,,,,,,,,
,,,,,,,,,,,,,
,,,,,,,,,,,,,
,,,,,,,,,,,,,
,,,,,,,,,,,,,
,,,,,,,,,,,,,
,,,,,,,,,,,,,
,,,,,,,,,,,,,
,,,,,,,,,,,,,
,,,,,,,,,,,,,
,,,,,,,,,,,,,
,,,,,,,,,,,,,
,,,,,,,,,,,,,
,,,,,,,,,,,,,
,,,,,,,,,,,,,
,,,,,,,,,,,,,
,,,,,,,,,,,,,
,,,,,,,,,,,,,
,,,,,,,,,,,,,
,,,,,,,,,,,,,
,,,,,,,,,,,,,
,,,,,,,,,,,,,
,,,,,,,,,,,,,
,,,,,,,,,,,,,
,,,,,,,,,,,,,
,,,,,,,,,,,,,
,,,,,,,,,,,,,
,,,,,,,,,,,,,
,,,,,,,,,,,,,
,,,,,,,,,,,,,
,,,,,,,,,,,,,
,,,,,,,,,,,,,
,,,,,,,,,,,,,
,,,,,,,,,,,,,
,,,,,,,,,,,,,
,,,,,,,,,,,,,
,,,,,,,,,,,,,
,,,,,,,,,,,,,
,,,,,,,,,,,,,
,,,,,,,,,,,,,
,,,,,,,,,,,,,
,,,,,,,,,,,,,
,,,,,,,,,,,,,
,,,,,,,,,,,,,
,,,,,,,,,,,,,
,,,,,,,,,,,,,
,,,,,,,,,,,,,
,,,,,,,,,,,,,
,,,,,,,,,,,,,
,,,,,,,,,,,,,
,,,,,,,,,,,,,
,,,,,,,,,,,,,
,,,,,,,,,,,,,
,,,,,,,,,,,,,
,,,,,,,,,,,,,
,,,,,,,,,,,,,
,,,,,,,,,,,,,
,,,,,,,,,,,,,
,,,,,,,,,,,,,
,,,,,,,,,,,,,
,,,,,,,,,,,,,
,,,,,,,,,,,,,
,,,,,,,,,,,,,
,,,,,,,,,,,,,
,,,,,,,,,,,,,
,,,,,,,,,,,,,
,,,,,,,,,,,,,
,,,,,,,,,,,,,
,,,,,,,,,,,,,
,,,,,,,,,,,,,
,,,,,,,,,,,,,
,,,,,,,,,,,,,
,,,,,,,,,,,,,
,,,,,,,,,,,,,
,,,,,,,,,,,,,
,,,,,,,,,,,,,
,,,,,,,,,,,,,
,,,,,,,,,,,,,
,,,,,,,,,,,,,
,,,,,,,,,,,,,
,,,,,,,,,,,,,
,,,,,,,,,,,,,
,,,,,,,,,,,,,
,,,,,,,,,,,,,
,,,,,,,,,,,,,
,,,,,,,,,,,,,
,,,,,,,,,,,,,
,,,,,,,,,,,,,
,,,,,,,,,,,,,
,,,,,,,,,,,,,
,,,,,,,,,,,,,
,,,,,,,,,,,,,
,,,,,,,,,,,,,
,,,,,,,,,,,,,
,,,,,,,,,,,,,
,,,,,,,,,,,,,
,,,,,,,,,,,,,
,,,,,,,,,,,,,
,,,,,,,,,,,,,
,,,,,,,,,,,,,
,,,,,,,,,,,,,
,,,,,,,,,,,,,
,,,,,,,,,,,,,
,,,,,,,,,,,,,
,,,,,,,,,,,,,
,,,,,,,,,,,,,
,,,,,,,,,,,,,
,,,,,,,,,,,,,
,,,,,,,,,,,,,
,,,,,,,,,,,,,
,,,,,,,,,,,,,
,,,,,,,,,,,,,
,,,,,,,,,,,,,
,,,,,,,,,,,,,
,,,,,,,,,,,,,
,,,,,,,,,,,,,
,,,,,,,,,,,,,
,,,,,,,,,,,,,
,,,,,,,,,,,,,
,,,,,,,,,,,,,
,,,,,,,,,,,,,
,,,,,,,,,,,,,
,,,,,,,,,,,,,
,,,,,,,,,,,,,
,,,,,,,,,,,,,
,,,,,,,,,,,,,
,,,,,,,,,,,,,
,,,,,,,,,,,,,
,,,,,,,,,,,,,
,,,,,,,,,,,,,
,,,,,,,,,,,,,
,,,,,,,,,,,,,
,,,,,,,,,,,,,
,,,,,,,,,,,,,
,,,,,,,,,,,,,
,,,,,,,,,,,,,
,,,,,,,,,,,,,
,,,,,,,,,,,,,
,,,,,,,,,,,,,
,,,,,,,,,,,,,
,,,,,,,,,,,,,
,,,,,,,,,,,,,
,,,,,,,,,,,,,
,,,,,,,,,,,,,
,,,,,,,,,,,,,
,,,,,,,,,,,,,
,,,,,,,,,,,,,
,,,,,,,,,,,,,
,,,,,,,,,,,,,
,,,,,,,,,,,,,
,,,,,,,,,,,,,
,,,,,,,,,,,,,
,,,,,,,,,,,,,
,,,,,,,,,,,,,
,,,,,,,,,,,,,
,,,,,,,,,,,,,
,,,,,,,,,,,,,
,,,,,,,,,,,,,
,,,,,,,,,,,,,
,,,,,,,,,,,,,
,,,,,,,,,,,,,
,,,,,,,,,,,,,
,,,,,,,,,,,,,
,,,,,,,,,,,,,
,,,,,,,,,,,,,
,,,,,,,,,,,,,
,,,,,,,,,,,,,
,,,,,,,,,,,,,
,,,,,,,,,,,,,
,,,,,,,,,,,,,
,,,,,,,,,,,,,
,,,,,,,,,,,,,
,,,,,,,,,,,,,
,,,,,,,,,,,,,
,,,,,,,,,,,,,
,,,,,,,,,,,,,
,,,,,,,,,,,,,
,,,,,,,,,,,,,
,,,,,,,,,,,,,
,,,,,,,,,,,,,
,,,,,,,,,,,,,
,,,,,,,,,,,,,
,,,,,,,,,,,,,
,,,,,,,,,,,,,
,,,,,,,,,,,,,
,,,,,,,,,,,,,
,,,,,,,,,,,,,
,,,,,,,,,,,,,
,,,,,,,,,,,,,
,,,,,,,,,,,,,
,,,,,,,,,,,,,
,,,,,,,,,,,,,
,,,,,,,,,,,,,
,,,,,,,,,,,,,
,,,,,,,,,,,,,
,,,,,,,,,,,,,
,,,,,,,,,,,,,
,,,,,,,,,,,,,
,,,,,,,,,,,,,
,,,,,,,,,,,,,
,,,,,,,,,,,,,
,,,,,,,,,,,,,
,,,,,,,,,,,,,
,,,,,,,,,,,,,
,,,,,,,,,,,,,
,,,,,,,,,,,,,
,,,,,,,,,,,,,
,,,,,,,,,,,,,
,,,,,,,,,,,,,
,,,,,,,,,,,,,
,,,,,,,,,,,,,
,,,,,,,,,,,,,
,,,,,,,,,,,,,
,,,,,,,,,,,,,
,,,,,,,,,,,,,
,,,,,,,,,,,,,
,,,,,,,,,,,,,
,,,,,,,,,,,,,
,,,,,,,,,,,,,
,,,,,,,,,,,,,
,,,,,,,,,,,,,
,,,,,,,,,,,,,
,,,,,,,,,,,,,
,,,,,,,,,,,,,
,,,,,,,,,,,,,
,,,,,,,,,,,,,
,,,,,,,,,,,,,
,,,,,,,,,,,,,
,,,,,,,,,,,,,
,,,,,,,,,,,,,
,,,,,,,,,,,,,
,,,,,,,,,,,,,
,,,,,,,,,,,,,
,,,,,,,,,,,,,
,,,,,,,,,,,,,
,,,,,,,,,,,,,
,,,,,,,,,,,,,
,,,,,,,,,,,,,
,,,,,,,,,,,,,
,,,,,,,,,,,,,
,,,,,,,,,,,,,
,,,,,,,,,,,,,
,,,,,,,,,,,,,
,,,,,,,,,,,,,
,,,,,,,,,,,,,
,,,,,,,,,,,,,
,,,,,,,,,,,,,
,,,,,,,,,,,,,
,,,,,,,,,,,,,
,,,,,,,,,,,,,
,,,,,,,,,,,,,
,,,,,,,,,,,,,
,,,,,,,,,,,,,
,,,,,,,,,,,,,
,,,,,,,,,,,,,
,,,,,,,,,,,,,
,,,,,,,,,,,,,
,,,,,,,,,,,,,
,,,,,,,,,,,,,
,,,,,,,,,,,,,
,,,,,,,,,,,,,
,,,,,,,,,,,,,
,,,,,,,,,,,,,
,,,,,,,,,,,,,
,,,,,,,,,,,,,
,,,,,,,,,,,,,
,,,,,,,,,,,,,
,,,,,,,,,,,,,
,,,,,,,,,,,,,
,,,,,,,,,,,,,
,,,,,,,,,,,,,
,,,,,,,,,,,,,
,,,,,,,,,,,,,
,,,,,,,,,,,,,
,,,,,,,,,,,,,
,,,,,,,,,,,,,
,,,,,,,,,,,,,
,,,,,,,,,,,,,
,,,,,,,,,,,,,
,,,,,,,,,,,,,
,,,,,,,,,,,,,
,,,,,,,,,,,,,
,,,,,,,,,,,,,
,,,,,,,,,,,,,
,,,,,,,,,,,,,
,,,,,,,,,,,,,
,,,,,,,,,,,,,
,,,,,,,,,,,,,
,,,,,,,,,,,,,
,,,,,,,,,,,,,
,,,,,,,,,,,,,
,,,,,,,,,,,,,
,,,,,,,,,,,,,
,,,,,,,,,,,,,
,,,,,,,,,,,,,
,,,,,,,,,,,,,
,,,,,,,,,,,,,
,,,,,,,,,,,,,
,,,,,,,,,,,,,
,,,,,,,,,,,,,
,,,,,,,,,,,,,
,,,,,,,,,,,,,
,,,,,,,,,,,,,
,,,,,,,,,,,,,
,,,,,,,,,,,,,
,,,,,,,,,,,,,
,,,,,,,,,,,,,
,,,,,,,,,,,,,
,,,,,,,,,,,,,
,,,,,,,,,,,,,
,,,,,,,,,,,,,
,,,,,,,,,,,,,
,,,,,,,,,,,,,
,,,,,,,,,,,,,
,,,,,,,,,,,,,
,,,,,,,,,,,,,
,,,,,,,,,,,,,
,,,,,,,,,,,,,
,,,,,,,,,,,,,
,,,,,,,,,,,,,
,,,,,,,,,,,,,
,,,,,,,,,,,,,
,,,,,,,,,,,,,
,,,,,,,,,,,,,
,,,,,,,,,,,,,
,,,,,,,,,,,,,
,,,,,,,,,,,,,
,,,,,,,,,,,,,
,,,,,,,,,,,,,
,,,,,,,,,,,,,
,,,,,,,,,,,,,
,,,,,,,,,,,,,
,,,,,,,,,,,,,
,,,,,,,,,,,,,
,,,,,,,,,,,,,
,,,,,,,,,,,,,
,,,,,,,,,,,,,
,,,,,,,,,,,,,
,,,,,,,,,,,,,
,,,,,,,,,,,,,
,,,,,,,,,,,,,
,,,,,,,,,,,,,
,,,,,,,,,,,,,
,,,,,,,,,,,,,
,,,,,,,,,,,,,
,,,,,,,,,,,,,
,,,,,,,,,,,,,
,,,,,,,,,,,,,
,,,,,,,,,,,,,
,,,,,,,,,,,,,
,,,,,,,,,,,,,
,,,,,,,,,,,,,
,,,,,,,,,,,,,
,,,,,,,,,,,,,
,,,,,,,,,,,,,
,,,,,,,,,,,,,
,,,,,,,,,,,,,
,,,,,,,,,,,,,
,,,,,,,,,,,,,
,,,,,,,,,,,,,
,,,,,,,,,,,,,
,,,,,,,,,,,,,
,,,,,,,,,,,,,
,,,,,,,,,,,,,
,,,,,,,,,,,,,
,,,,,,,,,,,,,
,,,,,,,,,,,,,
,,,,,,,,,,,,,
,,,,,,,,,,,,,
,,,,,,,,,,,,,
,,,,,,,,,,,,,
,,,,,,,,,,,,,
,,,,,,,,,,,,,
,,,,,,,,,,,,,
,,,,,,,,,,,,,
,,,,,,,,,,,,,
,,,,,,,,,,,,,
,,,,,,,,,,,,,
,,,,,,,,,,,,,
,,,,,,,,,,,,,
,,,,,,,,,,,,,
,,,,,,,,,,,,,
,,,,,,,,,,,,,
,,,,,,,,,,,,,
,,,,,,,,,,,,,
,,,,,,,,,,,,,
,,,,,,,,,,,,,
,,,,,,,,,,,,,
,,,,,,,,,,,,,
,,,,,,,,,,,,,
,,,,,,,,,,,,,
,,,,,,,,,,,,,
,,,,,,,,,,,,,
,,,,,,,,,,,,,
,,,,,,,,,,,,,
,,,,,,,,,,,,,
,,,,,,,,,,,,,
,,,,,,,,,,,,,
,,,,,,,,,,,,,
,,,,,,,,,,,,,
,,,,,,,,,,,,,
,,,,,,,,,,,,,
,,,,,,,,,,,,,
,,,,,,,,,,,,,
,,,,,,,,,,,,,
,,,,,,,,,,,,,
,,,,,,,,,,,,,
,,,,,,,,,,,,,
,,,,,,,,,,,,,
,,,,,,,,,,,,,
,,,,,,,,,,,,,
,,,,,,,,,,,,,
,,,,,,,,,,,,,
,,,,,,,,,,,,,
,,,,,,,,,,,,,
,,,,,,,,,,,,,
,,,,,,,,,,,,,
,,,,,,,,,,,,,
,,,,,,,,,,,,,
,,,,,,,,,,,,,
,,,,,,,,,,,,,
,,,,,,,,,,,,,
,,,,,,,,,,,,,
,,,,,,,,,,,,,
,,,,,,,,,,,,,
,,,,,,,,,,,,,
,,,,,,,,,,,,,
,,,,,,,,,,,,,
,,,,,,,,,,,,,
,,,,,,,,,,,,,
,,,,,,,,,,,,,
,,,,,,,,,,,,,
,,,,,,,,,,,,,
,,,,,,,,,,,,,
,,,,,,,,,,,,,
,,,,,,,,,,,,,
,,,,,,,,,,,,,
,,,,,,,,,,,,,
,,,,,,,,,,,,,
,,,,,,,,,,,,,
,,,,,,,,,,,,,
,,,,,,,,,,,,,
,,,,,,,,,,,,,
,,,,,,,,,,,,,
,,,,,,,,,,,,,
,,,,,,,,,,,,,
,,,,,,,,,,,,,
,,,,,,,,,,,,,
,,,,,,,,,,,,,
,,,,,,,,,,,,,
,,,,,,,,,,,,,
,,,,,,,,,,,,,
,,,,,,,,,,,,,
,,,,,,,,,,,,,
,,,,,,,,,,,,,
,,,,,,,,,,,,,
,,,,,,,,,,,,,
,,,,,,,,,,,,,
,,,,,,,,,,,,,
,,,,,,,,,,,,,
,,,,,,,,,,,,,
,,,,,,,,,,,,,
,,,,,,,,,,,,,
,,,,,,,,,,,,,
,,,,,,,,,,,,,
,,,,,,,,,,,,,
,,,,,,,,,,,,,
,,,,,,,,,,,,,
,,,,,,,,,,,,,
,,,,,,,,,,,,,
,,,,,,,,,,,,,
,,,,,,,,,,,,,
,,,,,,,,,,,,,
,,,,,,,,,,,,,
,,,,,,,,,,,,,
,,,,,,,,,,,,,
,,,,,,,,,,,,,
,,,,,,,,,,,,,
,,,,,,,,,,,,,
,,,,,,,,,,,,,
,,,,,,,,,,,,,
,,,,,,,,,,,,,
,,,,,,,,,,,,,
,,,,,,,,,,,,,
,,,,,,,,,,,,,
,,,,,,,,,,,,,
,,,,,,,,,,,,,
,,,,,,,,,,,,,
,,,,,,,,,,,,,
,,,,,,,,,,,,,
,,,,,,,,,,,,,
,,,,,,,,,,,,,
,,,,,,,,,,,,,
,,,,,,,,,,,,,
,,,,,,,,,,,,,
,,,,,,,,,,,,,
,,,,,,,,,,,,,
,,,,,,,,,,,,,
,,,,,,,,,,,,,
,,,,,,,,,,,,,
,,,,,,,,,,,,,
,,,,,,,,,,,,,
,,,,,,,,,,,,,
,,,,,,,,,,,,,
,,,,,,,,,,,,,
,,,,,,,,,,,,,
,,,,,,,,,,,,,
,,,,,,,,,,,,,
,,,,,,,,,,,,,
,,,,,,,,,,,,,
,,,,,,,,,,,,,
,,,,,,,,,,,,,
,,,,,,,,,,,,,
,,,,,,,,,,,,,
,,,,,,,,,,,,,
,,,,,,,,,,,,,
,,,,,,,,,,,,,
,,,,,,,,,,,,,
,,,,,,,,,,,,,
,,,,,,,,,,,,,
,,,,,,,,,,,,,
,,,,,,,,,,,,,
,,,,,,,,,,,,,
,,,,,,,,,,,,,
,,,,,,,,,,,,,
,,,,,,,,,,,,,
,,,,,,,,,,,,,
,,,,,,,,,,,,,
,,,,,,,,,,,,,
,,,,,,,,,,,,,
,,,,,,,,,,,,,
,,,,,,,,,,,,,
,,,,,,,,,,,,,
,,,,,,,,,,,,,
,,,,,,,,,,,,,
,,,,,,,,,,,,,
,,,,,,,,,,,,,
,,,,,,,,,,,,,
,,,,,,,,,,,,,
,,,,,,,,,,,,,
,,,,,,,,,,,,,
,,,,,,,,,,,,,
,,,,,,,,,,,,,
,,,,,,,,,,,,,
,,,,,,,,,,,,,
,,,,,,,,,,,,,
,,,,,,,,,,,,,
,,,,,,,,,,,,,
,,,,,,,,,,,,,
,,,,,,,,,,,,,
,,,,,,,,,,,,,
,,,,,,,,,,,,,
,,,,,,,,,,,,,
,,,,,,,,,,,,,
,,,,,,,,,,,,,
,,,,,,,,,,,,,
,,,,,,,,,,,,,
,,,,,,,,,,,,,
,,,,,,,,,,,,,
,,,,,,,,,,,,,
,,,,,,,,,,,,,
,,,,,,,,,,,,,
,,,,,,,,,,,,,
,,,,,,,,,,,,,
,,,,,,,,,,,,,
,,,,,,,,,,,,,
,,,,,,,,,,,,,
,,,,,,,,,,,,,
,,,,,,,,,,,,,
,,,,,,,,,,,,,
,,,,,,,,,,,,,
,,,,,,,,,,,,,
,,,,,,,,,,,,,
,,,,,,,,,,,,,
,,,,,,,,,,,,,
,,,,,,,,,,,,,
,,,,,,,,,,,,,
,,,,,,,,,,,,,
,,,,,,,,,,,,,
,,,,,,,,,,,,,
,,,,,,,,,,,,,
,,,,,,,,,,,,,
,,,,,,,,,,,,,
,,,,,,,,,,,,,
,,,,,,,,,,,,,
,,,,,,,,,,,,,
,,,,,,,,,,,,,
,,,,,,,,,,,,,
,,,,,,,,,,,,,
,,,,,,,,,,,,,
,,,,,,,,,,,,,
,,,,,,,,,,,,,
,,,,,,,,,,,,,
,,,,,,,,,,,,,
,,,,,,,,,,,,,
,,,,,,,,,,,,,
,,,,,,,,,,,,,
,,,,,,,,,,,,,
,,,,,,,,,,,,,
,,,,,,,,,,,,,
,,,,,,,,,,,,,
,,,,,,,,,,,,,
,,,,,,,,,,,,,
,,,,,,,,,,,,,
,,,,,,,,,,,,,
,,,,,,,,,,,,,
,,,,,,,,,,,,,
,,,,,,,,,,,,,
,,,,,,,,,,,,,
,,,,,,,,,,,,,
,,,,,,,,,,,,,
,,,,,,,,,,,,,
,,,,,,,,,,,,,
,,,,,,,,,,,,,
,,,,,,,,,,,,,
,,,,,,,,,,,,,
,,,,,,,,,,,,,
,,,,,,,,,,,,,
,,,,,,,,,,,,,
,,,,,,,,,,,,,
,,,,,,,,,,,,,
,,,,,,,,,,,,,
,,,,,,,,,,,,,
,,,,,,,,,,,,,
,,,,,,,,,,,,,
,,,,,,,,,,,,,
,,,,,,,,,,,,,
,,,,,,,,,,,,,
,,,,,,,,,,,,,
,,,,,,,,,,,,,
,,,,,,,,,,,,,
,,,,,,,,,,,,,
,,,,,,,,,,,,,
,,,,,,,,,,,,,
,,,,,,,,,,,,,
,,,,,,,,,,,,,
,,,,,,,,,,,,,
,,,,,,,,,,,,,
,,,,,,,,,,,,,
,,,,,,,,,,,,,
,,,,,,,,,,,,,
,,,,,,,,,,,,,
,,,,,,,,,,,,,
,,,,,,,,,,,,,
,,,,,,,,,,,,,
,,,,,,,,,,,,,
,,,,,,,,,,,,,
,,,,,,,,,,,,,
,,,,,,,,,,,,,
,,,,,,,,,,,,,
,,,,,,,,,,,,,
,,,,,,,,,,,,,
,,,,,,,,,,,,,
,,,,,,,,,,,,,
,,,,,,,,,,,,,
,,,,,,,,,,,,,
,,,,,,,,,,,,,
,,,,,,,,,,,,,
,,,,,,,,,,,,,
,,,,,,,,,,,,,
,,,,,,,,,,,,,
,,,,,,,,,,,,,
,,,,,,,,,,,,,
,,,,,,,,,,,,,
,,,,,,,,,,,,,
,,,,,,,,,,,,,
,,,,,,,,,,,,,
,,,,,,,,,,,,,
,,,,,,,,,,,,,
,,,,,,,,,,,,,
,,,,,,,,,,,,,
,,,,,,,,,,,,,
,,,,,,,,,,,,,
,,,,,,,,,,,,,
,,,,,,,,,,,,,
,,,,,,,,,,,,,
,,,,,,,,,,,,,
,,,,,,,,,,,,,
,,,,,,,,,,,,,
,,,,,,,,,,,,,
,,,,,,,,,,,,,
,,,,,,,,,,,,,
,,,,,,,,,,,,,
,,,,,,,,,,,,,
,,,,,,,,,,,,,
,,,,,,,,,,,,,
,,,,,,,,,,,,,
,,,,,,,,,,,,,
,,,,,,,,,,,,,
,,,,,,,,,,,,,
,,,,,,,,,,,,,
,,,,,,,,,,,,,
,,,,,,,,,,,,,
,,,,,,,,,,,,,
,,,,,,,,,,,,,
,,,,,,,,,,,,,
,,,,,,,,,,,,,
,,,,,,,,,,,,,
,,,,,,,,,,,,,
,,,,,,,,,,,,,
,,,,,,,,,,,,,
,,,,,,,,,,,,,
,,,,,,,,,,,,,
,,,,,,,,,,,,,
,,,,,,,,,,,,,
,,,,,,,,,,,,,
,,,,,,,,,,,,,
,,,,,,,,,,,,,
,,,,,,,,,,,,,
,,,,,,,,,,,,,
,,,,,,,,,,,,,
,,,,,,,,,,,,,
,,,,,,,,,,,,,
,,,,,,,,,,,,,
,,,,,,,,,,,,,
,,,,,,,,,,,,,
,,,,,,,,,,,,,
,,,,,,,,,,,,,
,,,,,,,,,,,,,
,,,,,,,,,,,,,
,,,,,,,,,,,,,
,,,,,,,,,,,,,
,,,,,,,,,,,,,
,,,,,,,,,,,,,
,,,,,,,,,,,,,
,,,,,,,,,,,,,
,,,,,,,,,,,,,
,,,,,,,,,,,,,
,,,,,,,,,,,,,
,,,,,,,,,,,,,
,,,,,,,,,,,,,
,,,,,,,,,,,,,
,,,,,,,,,,,,,
,,,,,,,,,,,,,
,,,,,,,,,,,,,
,,,,,,,,,,,,,
,,,,,,,,,,,,,
,,,,,,,,,,,,,
,,,,,,,,,,,,,
,,,,,,,,,,,,,
,,,,,,,,,,,,,
,,,,,,,,,,,,,
,,,,,,,,,,,,,
,,,,,,,,,,,,,
,,,,,,,,,,,,,
,,,,,,,,,,,,,
,,,,,,,,,,,,,
,,,,,,,,,,,,,
,,,,,,,,,,,,,
,,,,,,,,,,,,,
,,,,,,,,,,,,,
,,,,,,,,,,,,,
,,,,,,,,,,,,,
,,,,,,,,,,,,,
,,,,,,,,,,,,,
,,,,,,,,,,,,,
,,,,,,,,,,,,,
,,,,,,,,,,,,,
,,,,,,,,,,,,,
,,,,,,,,,,,,,
,,,,,,,,,,,,,
,,,,,,,,,,,,,
,,,,,,,,,,,,,
,,,,,,,,,,,,,
,,,,,,,,,,,,,
,,,,,,,,,,,,,
,,,,,,,,,,,,,
,,,,,,,,,,,,,
,,,,,,,,,,,,,
,,,,,,,,,,,,,
,,,,,,,,,,,,,
,,,,,,,,,,,,,
,,,,,,,,,,,,,
,,,,,,,,,,,,,
,,,,,,,,,,,,,
,,,,,,,,,,,,,
,,,,,,,,,,,,,
,,,,,,,,,,,,,
,,,,,,,,,,,,,
,,,,,,,,,,,,,
,,,,,,,,,,,,,
,,,,,,,,,,,,,
,,,,,,,,,,,,,
,,,,,,,,,,,,,
,,,,,,,,,,,,,
,,,,,,,,,,,,,
,,,,,,,,,,,,,
,,,,,,,,,,,,,
,,,,,,,,,,,,,
,,,,,,,,,,,,,
,,,,,,,,,,,,,
,,,,,,,,,,,,,
,,,,,,,,,,,,,
,,,,,,,,,,,,,
,,,,,,,,,,,,,
,,,,,,,,,,,,,
,,,,,,,,,,,,,
,,,,,,,,,,,,,
,,,,,,,,,,,,,
,,,,,,,,,,,,,
,,,,,,,,,,,,,
,,,,,,,,,,,,,
,,,,,,,,,,,,,
,,,,,,,,,,,,,
,,,,,,,,,,,,,
,,,,,,,,,,,,,
,,,,,,,,,,,,,
,,,,,,,,,,,,,
,,,,,,,,,,,,,
,,,,,,,,,,,,,
,,,,,,,,,,,,,
,,,,,,,,,,,,,
,,,,,,,,,,,,,
,,,,,,,,,,,,,
,,,,,,,,,,,,,
,,,,,,,,,,,,,
,,,,,,,,,,,,,
,,,,,,,,,,,,,
,,,,,,,,,,,,,
,,,,,,,,,,,,,
,,,,,,,,,,,,,
,,,,,,,,,,,,,
,,,,,,,,,,,,,
,,,,,,,,,,,,,
,,,,,,,,,,,,,
,,,,,,,,,,,,,
,,,,,,,,,,,,,
,,,,,,,,,,,,,
,,,,,,,,,,,,,
,,,,,,,,,,,,,
,,,,,,,,,,,,,
,,,,,,,,,,,,,
,,,,,,,,,,,,,
,,,,,,,,,,,,,
,,,,,,,,,,,,,
,,,,,,,,,,,,,
,,,,,,,,,,,,,
,,,,,,,,,,,,,
,,,,,,,,,,,,,
,,,,,,,,,,,,,
,,,,,,,,,,,,,
,,,,,,,,,,,,,
,,,,,,,,,,,,,
,,,,,,,,,,,,,
,,,,,,,,,,,,,
,,,,,,,,,,,,,
,,,,,,,,,,,,,
,,,,,,,,,,,,,
,,,,,,,,,,,,,
,,,,,,,,,,,,,
,,,,,,,,,,,,,
,,,,,,,,,,,,,
,,,,,,,,,,,,,
,,,,,,,,,,,,,
,,,,,,,,,,,,,
,,,,,,,,,,,,,
,,,,,,,,,,,,,
,,,,,,,,,,,,,
,,,,,,,,,,,,,
,,,,,,,,,,,,,
,,,,,,,,,,,,,
,,,,,,,,,,,,,
,,,,,,,,,,,,,
,,,,,,,,,,,,,
,,,,,,,,,,,,,
,,,,,,,,,,,,,
,,,,,,,,,,,,,
,,,,,,,,,,,,,
,,,,,,,,,,,,,
,,,,,,,,,,,,,
,,,,,,,,,,,,,
,,,,,,,,,,,,,
,,,,,,,,,,,,,
,,,,,,,,,,,,,
,,,,,,,,,,,,,
,,,,,,,,,,,,,
,,,,,,,,,,,,,
,,,,,,,,,,,,,
,,,,,,,,,,,,,
,,,,,,,,,,,,,
,,,,,,,,,,,,,
,,,,,,,,,,,,,
,,,,,,,,,,,,,
,,,,,,,,,,,,,
,,,,,,,,,,,,,
,,,,,,,,,,,,,
,,,,,,,,,,,,,
,,,,,,,,,,,,,
,,,,,,,,,,,,,
,,,,,,,,,,,,,
,,,,,,,,,,,,,
,,,,,,,,,,,,,
,,,,,,,,,,,,,
,,,,,,,,,,,,,
,,,,,,,,,,,,,
,,,,,,,,,,,,,
,,,,,,,,,,,,,
,,,,,,,,,,,,,
,,,,,,,,,,,,,
,,,,,,,,,,,,,
,,,,,,,,,,,,,
,,,,,,,,,,,,,
,,,,,,,,,,,,,
,,,,,,,,,,,,,
,,,,,,,,,,,,,
,,,,,,,,,,,,,
,,,,,,,,,,,,,
,,,,,,,,,,,,,
,,,,,,,,,,,,,
,,,,,,,,,,,,,
,,,,,,,,,,,,,
,,,,,,,,,,,,,
,,,,,,,,,,,,,
,,,,,,,,,,,,,
,,,,,,,,,,,,,
,,,,,,,,,,,,,
,,,,,,,,,,,,,
,,,,,,,,,,,,,
,,,,,,,,,,,,,
,,,,,,,,,,,,,
,,,,,,,,,,,,,
,,,,,,,,,,,,,
,,,,,,,,,,,,,
,,,,,,,,,,,,,
,,,,,,,,,,,,,
,,,,,,,,,,,,,
,,,,,,,,,,,,,
,,,,,,,,,,,,,
,,,,,,,,,,,,,
,,,,,,,,,,,,,
,,,,,,,,,,,,,
,,,,,,,,,,,,,
,,,,,,,,,,,,,
,,,,,,,,,,,,,
,,,,,,,,,,,,,
,,,,,,,,,,,,,
,,,,,,,,,,,,,
,,,,,,,,,,,,,
,,,,,,,,,,,,,
,,,,,,,,,,,,,
,,,,,,,,,,,,,
,,,,,,,,,,,,,
,,,,,,,,,,,,,
,,,,,,,,,,,,,
,,,,,,,,,,,,,
,,,,,,,,,,,,,
,,,,,,,,,,,,,
,,,,,,,,,,,,,
,,,,,,,,,,,,,
,,,,,,,,,,,,,
,,,,,,,,,,,,,
,,,,,,,,,,,,,
,,,,,,,,,,,,,
,,,,,,,,,,,,,
,,,,,,,,,,,,,
,,,,,,,,,,,,,
,,,,,,,,,,,,,
,,,,,,,,,,,,,
,,,,,,,,,,,,,
,,,,,,,,,,,,,
,,,,,,,,,,,,,
,,,,,,,,,,,,,
,,,,,,,,,,,,,
,,,,,,,,,,,,,
,,,,,,,,,,,,,
,,,,,,,,,,,,,
,,,,,,,,,,,,,
,,,,,,,,,,,,,
,,,,,,,,,,,,,
,,,,,,,,,,,,,
,,,,,,,,,,,,,
,,,,,,,,,,,,,
,,,,,,,,,,,,,
,,,,,,,,,,,,,
,,,,,,,,,,,,,
,,,,,,,,,,,,,
,,,,,,,,,,,,,
,,,,,,,,,,,,,
,,,,,,,,,,,,,
,,,,,,,,,,,,,
,,,,,,,,,,,,,
,,,,,,,,,,,,,
,,,,,,,,,,,,,
,,,,,,,,,,,,,
,,,,,,,,,,,,,
,,,,,,,,,,,,,
,,,,,,,,,,,,,
,,,,,,,,,,,,,
,,,,,,,,,,,,,
,,,,,,,,,,,,,
,,,,,,,,,,,,,
,,,,,,,,,,,,,
,,,,,,,,,,,,,
,,,,,,,,,,,,,
,,,,,,,,,,,,,
,,,,,,,,,,,,,
,,,,,,,,,,,,,
,,,,,,,,,,,,,
,,,,,,,,,,,,,
,,,,,,,,,,,,,
,,,,,,,,,,,,,
,,,,,,,,,,,,,
,,,,,,,,,,,,,
,,,,,,,,,,,,,
,,,,,,,,,,,,,
,,,,,,,,,,,,,
,,,,,,,,,,,,,
,,,,,,,,,,,,,
,,,,,,,,,,,,,
,,,,,,,,,,,,,
,,,,,,,,,,,,,
,,,,,,,,,,,,,
,,,,,,,,,,,,,
,,,,,,,,,,,,,
,,,,,,,,,,,,,
,,,,,,,,,,,,,
,,,,,,,,,,,,,
,,,,,,,,,,,,,
,,,,,,,,,,,,,
,,,,,,,,,,,,,
,,,,,,,,,,,,,
,,,,,,,,,,,,,
,,,,,,,,,,,,,
,,,,,,,,,,,,,
,,,,,,,,,,,,,
,,,,,,,,,,,,,
,,,,,,,,,,,,,
,,,,,,,,,,,,,
,,,,,,,,,,,,,
,,,,,,,,,,,,,
,,,,,,,,,,,,,
,,,,,,,,,,,,,
,,,,,,,,,,,,,
,,,,,,,,,,,,,
,,,,,,,,,,,,,
,,,,,,,,,,,,,
,,,,,,,,,,,,,
,,,,,,,,,,,,,
,,,,,,,,,,,,,
,,,,,,,,,,,,,
,,,,,,,,,,,,,
,,,,,,,,,,,,,
,,,,,,,,,,,,,
,,,,,,,,,,,,,
,,,,,,,,,,,,,
,,,,,,,,,,,,,
,,,,,,,,,,,,,
,,,,,,,,,,,,,
,,,,,,,,,,,,,
,,,,,,,,,,,,,
,,,,,,,,,,,,,
,,,,,,,,,,,,,
,,,,,,,,,,,,,
,,,,,,,,,,,,,
,,,,,,,,,,,,,
,,,,,,,,,,,,,
,,,,,,,,,,,,,
,,,,,,,,,,,,,
,,,,,,,,,,,,,
,,,,,,,,,,,,,
,,,,,,,,,,,,,
,,,,,,,,,,,,,
,,,,,,,,,,,,,
,,,,,,,,,,,,,
,,,,,,,,,,,,,
,,,,,,,,,,,,,
,,,,,,,,,,,,,
,,,,,,,,,,,,,
,,,,,,,,,,,,,
,,,,,,,,,,,,,
,,,,,,,,,,,,,
,,,,,,,,,,,,,
,,,,,,,,,,,,,
,,,,,,,,,,,,,
,,,,,,,,,,,,,
,,,,,,,,,,,,,
,,,,,,,,,,,,,
,,,,,,,,,,,,,
,,,,,,,,,,,,,
,,,,,,,,,,,,,
,,,,,,,,,,,,,
,,,,,,,,,,,,,
,,,,,,,,,,,,,
,,,,,,,,,,,,,
,,,,,,,,,,,,,
,,,,,,,,,,,,,
,,,,,,,,,,,,,
,,,,,,,,,,,,,
,,,,,,,,,,,,,
,,,,,,,,,,,,,
,,,,,,,,,,,,,
,,,,,,,,,,,,,
,,,,,,,,,,,,,
,,,,,,,,,,,,,
,,,,,,,,,,,,,
,,,,,,,,,,,,,
,,,,,,,,,,,,,
,,,,,,,,,,,,,
,,,,,,,,,,,,,
,,,,,,,,,,,,,
,,,,,,,,,,,,,
,,,,,,,,,,,,,
,,,,,,,,,,,,,
,,,,,,,,,,,,,
,,,,,,,,,,,,,
,,,,,,,,,,,,,
,,,,,,,,,,,,,
,,,,,,,,,,,,,
,,,,,,,,,,,,,
,,,,,,,,,,,,,
,,,,,,,,,,,,,
,,,,,,,,,,,,,
,,,,,,,,,,,,,
,,,,,,,,,,,,,
,,,,,,,,,,,,,
,,,,,,,,,,,,,
,,,,,,,,,,,,,
,,,,,,,,,,,,,
,,,,,,,,,,,,,
,,,,,,,,,,,,,
,,,,,,,,,,,,,
,,,,,,,,,,,,,
,,,,,,,,,,,,,
,,,,,,,,,,,,,
,,,,,,,,,,,,,
,,,,,,,,,,,,,
,,,,,,,,,,,,,
,,,,,,,,,,,,,
,,,,,,,,,,,,,
,,,,,,,,,,,,,
,,,,,,,,,,,,,
,,,,,,,,,,,,,
,,,,,,,,,,,,,
,,,,,,,,,,,,,
,,,,,,,,,,,,,
,,,,,,,,,,,,,
,,,,,,,,,,,,,
,,,,,,,,,,,,,
,,,,,,,,,,,,,
,,,,,,,,,,,,,
,,,,,,,,,,,,,
,,,,,,,,,,,,,
,,,,,,,,,,,,,
,,,,,,,,,,,,,
,,,,,,,,,,,,,
,,,,,,,,,,,,,
,,,,,,,,,,,,,
,,,,,,,,,,,,,
,,,,,,,,,,,,,
,,,,,,,,,,,,,
,,,,,,,,,,,,,
,,,,,,,,,,,,,
,,,,,,,,,,,,,
,,,,,,,,,,,,,
,,,,,,,,,,,,,
,,,,,,,,,,,,,
,,,,,,,,,,,,,
,,,,,,,,,,,,,
,,,,,,,,,,,,,
,,,,,,,,,,,,,
,,,,,,,,,,,,,
,,,,,,,,,,,,,
,,,,,,,,,,,,,
,,,,,,,,,,,,,
,,,,,,,,,,,,,
,,,,,,,,,,,,,
,,,,,,,,,,,,,
,,,,,,,,,,,,,
,,,,,,,,,,,,,
,,,,,,,,,,,,,
,,,,,,,,,,,,,
,,,,,,,,,,,,,
,,,,,,,,,,,,,
,,,,,,,,,,,,,
,,,,,,,,,,,,,
,,,,,,,,,,,,,
,,,,,,,,,,,,,
,,,,,,,,,,,,,
,,,,,,,,,,,,,
,,,,,,,,,,,,,
,,,,,,,,,,,,,
,,,,,,,,,,,,,
,,,,,,,,,,,,,
,,,,,,,,,,,,,
,,,,,,,,,,,,,
,,,,,,,,,,,,,
,,,,,,,,,,,,,
,,,,,,,,,,,,,
,,,,,,,,,,,,,
,,,,,,,,,,,,,
,,,,,,,,,,,,,
,,,,,,,,,,,,,
,,,,,,,,,,,,,
,,,,,,,,,,,,,
,,,,,,,,,,,,,
,,,,,,,,,,,,,
,,,,,,,,,,,,,
,,,,,,,,,,,,,
,,,,,,,,,,,,,
,,,,,,,,,,,,,
,,,,,,,,,,,,,
,,,,,,,,,,,,,
,,,,,,,,,,,,,
,,,,,,,,,,,,,
,,,,,,,,,,,,,
,,,,,,,,,,,,,
,,,,,,,,,,,,,
,,,,,,,,,,,,,
,,,,,,,,,,,,,
,,,,,,,,,,,,,
,,,,,,,,,,,,,
,,,,,,,,,,,,,
,,,,,,,,,,,,,
,,,,,,,,,,,,,
,,,,,,,,,,,,,
,,,,,,,,,,,,,
,,,,,,,,,,,,,
,,,,,,,,,,,,,
,,,,,,,,,,,,,
,,,,,,,,,,,,,
,,,,,,,,,,,,,
,,,,,,,,,,,,,
,,,,,,,,,,,,,
,,,,,,,,,,,,,
,,,,,,,,,,,,,
,,,,,,,,,,,,,
,,,,,,,,,,,,,
,,,,,,,,,,,,,
,,,,,,,,,,,,,
,,,,,,,,,,,,,
,,,,,,,,,,,,,
,,,,,,,,,,,,,
,,,,,,,,,,,,,
,,,,,,,,,,,,,
,,,,,,,,,,,,,
,,,,,,,,,,,,,
,,,,,,,,,,,,,
,,,,,,,,,,,,,
,,,,,,,,,,,,,
,,,,,,,,,,,,,
,,,,,,,,,,,,,
,,,,,,,,,,,,,
,,,,,,,,,,,,,
,,,,,,,,,,,,,
,,,,,,,,,,,,,
,,,,,,,,,,,,,
,,,,,,,,,,,,,
,,,,,,,,,,,,,
,,,,,,,,,,,,,
,,,,,,,,,,,,,
,,,,,,,,,,,,,
,,,,,,,,,,,,,
,,,,,,,,,,,,,
,,,,,,,,,,,,,
,,,,,,,,,,,,,
,,,,,,,,,,,,,
,,,,,,,,,,,,,
,,,,,,,,,,,,,
,,,,,,,,,,,,,
,,,,,,,,,,,,,
,,,,,,,,,,,,,
,,,,,,,,,,,,,
,,,,,,,,,,,,,
,,,,,,,,,,,,,
,,,,,,,,,,,,,
,,,,,,,,,,,,,
,,,,,,,,,,,,,
,,,,,,,,,,,,,
,,,,,,,,,,,,,
,,,,,,,,,,,,,
,,,,,,,,,,,,,
,,,,,,,,,,,,,
,,,,,,,,,,,,,
,,,,,,,,,,,,,
,,,,,,,,,,,,,
,,,,,,,,,,,,,
,,,,,,,,,,,,,
,,,,,,,,,,,,,
,,,,,,,,,,,,,
,,,,,,,,,,,,,
,,,,,,,,,,,,,
,,,,,,,,,,,,,
,,,,,,,,,,,,,
,,,,,,,,,,,,,
,,,,,,,,,,,,,
,,,,,,,,,,,,,
,,,,,,,,,,,,,
,,,,,,,,,,,,,
,,,,,,,,,,,,,
,,,,,,,,,,,,,
,,,,,,,,,,,,,
,,,,,,,,,,,,,
,,,,,,,,,,,,,
,,,,,,,,,,,,,
,,,,,,,,,,,,,
,,,,,,,,,,,,,
,,,,,,,,,,,,,
,,,,,,,,,,,,,
,,,,,,,,,,,,,
,,,,,,,,,,,,,
,,,,,,,,,,,,,
,,,,,,,,,,,,,
,,,,,,,,,,,,,
,,,,,,,,,,,,,
,,,,,,,,,,,,,
,,,,,,,,,,,,,
,,,,,,,,,,,,,
,,,,,,,,,,,,,
,,,,,,,,,,,,,
,,,,,,,,,,,,,
,,,,,,,,,,,,,
,,,,,,,,,,,,,
,,,,,,,,,,,,,
,,,,,,,,,,,,,
,,,,,,,,,,,,,
,,,,,,,,,,,,,
,,,,,,,,,,,,,
,,,,,,,,,,,,,
,,,,,,,,,,,,,
,,,,,,,,,,,,,
,,,,,,,,,,,,,
,,,,,,,,,,,,,
,,,,,,,,,,,,,
,,,,,,,,,,,,,
,,,,,,,,,,,,,
,,,,,,,,,,,,,
,,,,,,,,,,,,,
,,,,,,,,,,,,,
,,,,,,,,,,,,,
,,,,,,,,,,,,,
,,,,,,,,,,,,,
,,,,,,,,,,,,,
,,,,,,,,,,,,,
,,,,,,,,,,,,,
,,,,,,,,,,,,,
,,,,,,,,,,,,,
,,,,,,,,,,,,,
,,,,,,,,,,,,,
,,,,,,,,,,,,,
,,,,,,,,,,,,,