File: 01_Data/MDF/Cone/MDF_Cone_HF25Scan_210324_R2.csv
Names,Time,Stack TC,Smoke TC,Exh Press,Smoke Comp,Smoke Meas,CO Meter,CO2 Meter,O2 Meter,Sample Mass,Ext Coeff,Start Test,Flame Verif
Chan Gain,,500,500,1,1,1,1,1,1,1,1,1,1
Offset,,0,0,0.194005,0,0,0,0,0,0,0,0,0
Gain,,1,1,25.011,13.5067,16.616,1,1,1,1.00091,1.04608,1,1
Units,sec,C,C,Pa,%,%,%,%,%,g,/m,,
Baseline,,17.904,19.2563,169.927,99.2989,98.8393,5.70218E-06,0.0523285,20.944,-0.190089,0.042572,,
13,3,16.0464,17.2513,166.482,99.9279,99.4529,-0.000125779,0.0590038,20.9316,621.436,0.0437252,0,0
26,6.25,15.8469,17.4995,171.56,99.8834,99.5705,-5.05156E-05,0.0620748,20.9291,621.376,0.0287894,0,0
39,9.5,15.8001,17.5277,168.746,99.8554,99.5234,3.7947E-05,0.0628614,20.9315,621.356,0.0305602,0,0
52,12.75,16.4492,17.532,169.803,99.7866,99.3748,6.52262E-05,0.0612834,20.9355,621.306,0.0379414,0,0
65,16,16.357,17.9438,169.842,99.7252,99.2374,0.000226326,0.0594565,20.9384,621.276,0.0449901,0,0
78,19.25,17.0323,17.8773,172.372,99.6893,99.2475,0.000438196,0.0577474,20.9389,621.225,0.0407515,0,0
91,22.5,16.5861,17.8987,170.732,99.7029,99.282,0.000432428,0.0561933,20.9407,621.195,0.0388161,0,0
104,25.75,16.855,17.8782,174.817,99.9733,99.5847,0.000143361,0.055062,20.9418,621.175,0.0357319,0,0
117,29,15.2951,16.5394,169.043,100.188,99.7161,6.15161E-05,0.0542699,20.9429,621.135,0.0433659,0,0
130,32.25,15.0261,16.7851,166.171,100.371,99.8358,3.49118E-05,0.0533795,20.9434,621.115,0.04903204,0,0
143,35.5,15.9711,16.5452,170.631,100.495,99.9864,3.40012E-05,0.0529145,20.9436,621.095,0.0465357,0,0
156,38.75,15.0637,16.8273,168.068,100.541,99.9605,9.01825E-05,0.0523764,20.9434,621.045,0.0531613,0,0
169,42,15.5097,17.2332,172.637,100.562,100.081,-0.000106644,0.0522902,20.9435,620.995,0.043969,0,0
182,45.25,15.6726,16.4797,170.587,100.529,99.9311,-0.000240169,0.0521772,20.9447,620.985,0.05473274,0,0
195,48.5,15.4114,17.0604,169.413,100.434,99.7856,-0.000188579,0.0519335,20.9454,620.945,0.0594486,0,0
208,51.75,15.8058,17.1684,166.149,100.305,99.7577,-8.68012E-05,0.051988,20.9459,620.915,0.0502169,0,0
221,55,15.5154,16.3805,166.619,100.137,99.3794,-2.75157E-05,0.05216882,20.9454,620.895,0.0697197,0,0
234,58.25,15.7753,16.3601,174.299,99.9259,99.2136,-0.000164414,0.0522621,20.945,620.855,0.0656456,0,0
247,61.5,15.784,17.0841,173.008,99.9782,99.2688,-0.000168866,0.0524703,20.9446,620.855,0.06534154,0,0
260,64.75,15.9101,17.0199,172.595,100.069,99.3353,-0.000192463,0.0524024,20.9442,620.795,0.0675222,0,0
273,68,15.6876,16.7535,173.943,100.162,99.4468,-9.77927E-05,0.05256239,20.9441,620.795,0.0657608,0,0
286,71.25,15.8362,17.1059,172.173,100.259,99.5097,-0.000150823,0.0526695,20.9444,620.765,0.06886749,0,0
299,74.5,15.6694,17.3333,168.958,100.374,99.4321,-0.000302882,0.05262113,20.9463,620.745,0.0865072,0,0
312,77.75,16.164,17.406,164.828,100.469,99.4478,-0.000450247,0.0525127,20.9468,620.715,0.093757,0,0
325,81,16.1807,17.3055,170.818,100.545,99.6441,-0.000415393,0.0525102,20.947,620.695,0.0825545,0,0
338,84.25,16.2001,16.8075,168.763,100.615,99.5624,-0.000102025,0.0523775,20.9466,620.665,0.0964678,0,0
351,87.5,16.0029,17.0138,168.005,100.665,99.6258,0.000173368,0.05243643,20.9452,620.635,0.0952132,0,0
364,90.75,15.6967,17.3469,170.435,100.704,99.5832,0.000117797,0.0523645,20.9448,620.595,0.102668,0,0
377,94,16.1911,16.9599,171.868,100.707,99.4737,1.97758E-05,0.052542,20.9447,620.555,0.113029,0,0
390,97.25,16.1003,18.0907,172.502,100.698,99.5062,-6.80477E-06,0.0527738,20.9451,620.505,0.10921,0,0
403,100.5,16.3507,17.0584,168.771,100.669,99.4433,5.35973E-05,0.0528817,20.9453,620.495,0.112381,0,0
416,103.75,15.7369,17.7842,171.457,100.613,99.2227,0.000118592,0.0531913,20.9448,620.435,0.127646,0,0
429,107,16.2825,17.4818,172.174,100.539,99.2207,0.000251582,0.0536275,20.9441,620.425,0.12114,0,0
442,110.25,15.8385,17.0884,169.899,100.455,98.9403,0.00010605,0.0540307,20.944,620.375,0.139432,0,0
455,113.5,16.0412,16.976,167.078,100.338,98.8601,1.1151E-05,0.0543345,20.9436,620.335,0.136204,0,0
468,116.75,15.6093,17.6292,169.414,100.221,98.3586,0.000117526,0.0543585,20.9432,620.285,0.172122,0,0
481,120,15.8347,17.506,174.248,100.102,98.3262,0.000224306,0.0545561,20.9417,620.255,0.164274,0,0
494,123.25,16.0339,17.2988,170.001,99.9523,97.9139,0.000161114,0.0548775,20.941,620.235,0.189065,0,0
507,126.5,15.7816,17.9016,171.108,99.8014,97.6827,0.000209918,0.0555357,20.9408,620.135,0.1969,0,0
520,129.75,15.9321,17.582,169.381,99.6472,97.6974,0.0004427,0.0560927,20.9408,620.114,0.181334,0,0
533,133,15.8623,17.6005,172.177,99.4848,97.3105,0.000732394,0.0582492,20.9365,620.044,0.202777,0,0
546,136.25,16.3339,18.0289,166.04,99.3286,97.1467,0.001014629,0.06187392,20.9329,619.984,0.203814,0,0
559,139.5,16.3258,17.7715,173.535,99.1938,96.4743,0.001253838,0.0641166,20.9319,619.914,0.255086,0,0
572,142.75,16.6331,17.9932,173.267,99.0586,96.489,0.001319094,0.0651008,20.9318,619.874,0.241172,0,0
585,146,16.5607,18.0684,171.307,98.9585,96.3739,0.001598566,0.0651087,20.9316,619.794,0.242842,0,0
598,149.25,17.1742,19.2677,165.014,98.8571,98.6213,0.001791533,0.0762702,20.8906,619.634,0.0219105,0,1
611,152.5,19.5527,22.8073,161.443,98.7837,97.7248,0.001763733,0.146942,20.7613,619.274,0.0988954,0,1
624,155.75,22.6735,28.8139,150.344,98.7342,97.9337,0.002121512,0.256637,20.6224,618.803,0.0747034,0,1
637,159,26.5725,35.0182,150.082,98.691,98.2121,0.002416874,0.346004,20.5375,618.303,0.0446331,0,0
650,162.25,30.0857,38.9337,152.753,98.6629,98.4393,0.002517158,0.404562,20.4794,617.802,0.0208257,0,0
663,165.5,32.7083,43.1813,154.704,98.658,97.92,0.002776427,0.449773,20.45,617.242,0.0688968,0,0
676,168.75,34.9584,46.3153,148.783,98.6774,97.4692,0.003168544,0.471416,20.4462,616.741,0.11304,0,0
689,172,36.4607,48.649,159.589,98.7173,97.5154,0.00329575,0.481133,20.4471,616.231,0.112415,0,0
702,175.25,37.6824,50.3878,151.341,98.7965,97.8292,0.003171944,0.485867,20.4492,615.75,0.0902785,0,0
715,178.5,38.5993,51.2353,153.595,98.8492,96.412,0.003317846,0.484451,20.455,615.24,0.229088,0,0
728,181.75,38.9083,52.5381,150.653,98.9461,96.5778,0.003516823,0.481501,20.4637,614.78,0.222307,0,0
741,185,39.34,52.3764,157.207,99.0685,96.7101,0.00348548,0.473759,20.4761,614.269,0.221087,0,0
754,188.25,39.6902,52.9992,154.062,99.1885,96.1919,0.003545353,0.467184,20.4837,613.769,0.281495,0,0
767,191.5,40.2889,52.562,157.014,99.3327,96.9703,0.003446224,0.455968,20.5039,613.288,0.220878,0,0
780,194.75,39.4498,51.7037,155.673,99.458,97.1569,0.003435215,0.442149,20.5209,612.828,0.214805,0,0
793,198,39.9245,50.8521,151.528,99.5821,96.9662,0.003496748,0.433897,20.5308,612.417,0.24427,0,0
806,201.25,39.715,50.8365,149.848,99.7103,96.4231,0.003541087,0.425289,20.5425,611.967,0.307613,0,0
819,204.5,39.4885,50.5663,157.057,99.7989,96.6021,0.003365879,0.414322,20.557,611.557,0.298747,0,0
832,207.75,39.3042,49.8913,151.086,99.8991,96.3734,0.00334448,0.402842,20.5699,611.146,0.329699,0,0
845,211,39.155,48.8277,154.376,99.9782,97.1472,0.003563226,0.392342,20.5795,610.716,0.263583,0,0
858,214.25,38.9631,48.3426,151.231,100.038,97.3495,0.003692095,0.383268,20.5883,610.336,0.250013,0,0
871,217.5,38.7794,47.9353,156.319,100.089,97.6837,0.003479633,0.3756,20.5972,609.935,0.223181,0,0
884,220.75,38.4457,47.7151,153.017,100.121,97.3688,0.003236077,0.367739,20.607,609.565,0.255757,0,0
897,224,38.2738,46.6705,154.519,100.13,97.7709,0.00302144,0.359673,20.6152,609.174,0.21877,0,0
910,227.25,38.1566,46.2872,153.965,100.122,97.0925,0.003125869,0.351864,20.6244,608.814,0.281913,0,0
923,230.5,37.6292,46.0527,157.211,100.115,97.3729,0.003129769,0.344017,20.6326,608.454,0.254846,0,0
936,233.75,36.5571,45.8024,148.96,100.074,97.6999,0.002937505,0.337818,20.6388,608.074,0.220335,0,0
949,237,36.9986,44.6536,152.204,100.024,97.6944,0.002985036,0.332624,20.6438,607.723,0.216284,0,0
962,240.25,37.0669,44.2239,156.429,100.005,97.6954,0.002761078,0.327244,20.6487,607.363,0.214411,0,0
975,243.5,36.9132,44.2597,155.864,99.9675,97.384,0.002513571,0.322065,20.6545,607.003,0.240259,0,0
988,246.75,36.169,44.1783,157.543,99.9115,97.6639,0.002698795,0.317208,20.6602,606.682,0.208776,0,0
1001,250,36.9792,43.253,159.099,99.8752,97.7932,0.002880682,0.312758,20.664,606.312,0.193302,0,0
1014,253.25,37.3677,41.9671,155.313,99.8467,97.7577,0.002931699,0.308063,20.6697,605.962,0.194021,0,0
1027,256.5,36.2029,43.1513,160.004,99.8031,98.2973,0.002710841,0.303477,20.6752,605.631,0.1395,0,0
1040,259.75,36.3298,42.8316,159.481,99.7779,98.1178,0.002467202,0.299207,20.6812,605.331,0.15396,0,0
1053,263,36.0874,42.3556,157.533,99.937,98.7582,0.002327332,0.29556,20.6836,604.971,0.10888,0,0
1066,266.25,35.9607,41.9484,158.072,100.181,99.0792,0.002303635,0.293067,20.6867,604.67,0.10152,0,0
1079,269.5,35.9831,41.8116,160.033,100.353,98.9955,0.002305537,0.290106,20.6895,604.34,0.125003,0,0
1092,272.75,35.8662,41.2206,156.071,100.502,99.2415,0.002347825,0.287565,20.6918,604.04,0.115831,0,0
1105,276,35.9142,41.0615,155.473,100.605,99.4793,0.002363777,0.285655,20.6941,603.73,0.103234,0,0
1118,279.25,36.2972,41.3237,153.652,100.672,100.098,0.002362927,0.282902,20.6975,603.399,0.0525099,0,0
1131,282.5,35.5253,41.2133,155.228,100.691,99.9316,0.002245641,0.280071,20.6986,603.089,0.0694972,0,0
1144,285.75,35.8445,40.8552,162.75,100.668,100.361,0.00218118,0.277149,20.7021,602.809,0.02808715,0,0
1157,289,35.8684,40.6973,159.461,100.607,100.022,0.001983393,0.274699,20.7033,602.438,0.05351045,0,0
1170,292.25,35.295,40.343,155.094,100.536,99.8672,0.001941116,0.273786,20.704,602.148,0.0612025,0,0
1183,295.5,35.2208,40.4278,161.989,100.424,100.057,0.002123961,0.272108,20.7042,601.828,0.0335938,0,0
1196,298.75,35.2714,40.7835,156.974,100.275,99.8657,0.002041243,0.271492,20.7038,601.528,0.037498,0,0
1209,302,35.7086,40.9045,152.897,100.11,99.7267,0.001906289,0.270518,20.7048,601.207,0.035211,0,0
1222,305.25,35.569,39.9,163.677,100.094,99.532,0.001997453,0.268912,20.7073,600.927,0.0516332,0,0
1235,308.5,35.1895,41.2186,156.429,100.155,100.394,0.00202551,0.266615,20.7105,600.597,-0.0218313,0,0
1248,311.75,35.0488,40.7496,156.314,100.24,100.943,0.001997306,0.263989,20.7147,600.276,-0.0641885,0,0
1261,315,35.2613,40.5442,162.473,100.304,100.409,0.001877587,0.261213,20.7184,599.946,-0.009599429,0,0
1274,318.25,34.4247,40.7617,164.134,100.409,100.115,0.001892796,0.258346,20.7202,599.766,0.0268995,0,0
1287,321.5,35.2877,39.2084,157.58,100.486,100.533,0.002062249,0.255899,20.7224,599.316,-0.004368897,0,0
1300,324.75,35.1697,39.8839,157.045,100.575,100.747,0.0020588,0.253732,20.7234,599.045,-0.0157528,0,0
1313,328,34.6139,40.7831,157.134,100.643,100.844,0.001955881,0.253429,20.7245,598.705,-0.0183298,0,0
1326,331.25,34.6933,39.9228,157.228,100.73,100.738,0.00201877,0.251905,20.725,598.395,-0.000745509,0,0
1339,334.5,34.9386,39.8356,157.386,100.787,100.91,0.002120979,0.250767,20.7248,598.104,-0.0112563,0,0
1352,337.75,34.8983,39.724,158.867,100.833,101.224,0.002217444,0.250623,20.725,597.784,-0.0355064,0,0
1365,341,34.8069,39.2587,162.074,100.86,101.021,0.002318827,0.249038,20.7289,597.474,-0.0146346,0,0
1378,344.25,34.4617,39.4562,162.159,100.869,101.168,0.002129131,0.245471,20.7358,597.204,-0.0271486,0,0
1391,347.5,34.3217,38.5667,154.846,100.85,101.304,0.002193321,0.241728,20.7382,596.903,-0.0411536,0,0
1404,350.75,34.6907,38.9254,155.916,100.822,101.29,0.002386519,0.241642,20.7405,596.593,-0.0425014,0,0
1417,354,34.5915,38.5685,160.633,100.771,100.881,0.002306088,0.239912,20.743,596.273,-0.0100166,0,0
1430,357.25,34.3581,39.0206,167.772,100.705,101.086,0.002101647,0.241168,20.7398,595.993,-0.03467685,0,0
1443,360.5,34.7312,38.994,161.933,100.592,100.63,0.002118745,0.242544,20.7379,595.662,-0.003461137,0,0
1456,363.75,35.258,38.0988,164.518,100.492,100.341,0.002377198,0.242839,20.7384,595.382,0.0138009,0,0
1469,367,34.34,39.2366,161.897,100.367,100.647,0.002281322,0.242206,20.7393,595.092,-0.0255316,0,0
1482,370.25,34.2945,39.2382,157.919,100.223,100.604,0.002206508,0.241684,20.7407,594.801,-0.03481685,0,0
1495,373.5,34.5085,39.4775,155.371,100.108,100.344,0.002158149,0.240356,20.741,594.491,-0.0216696,0,0
1508,376.75,34.2611,38.9404,156.504,99.9337,100.022,0.002151408,0.237709,20.7433,594.251,-0.008136046,0,0
1521,380,34.4903,38.6869,159.95,99.8064,100.438,0.002056804,0.235371,20.7438,593.961,-0.0578595,0,0
1534,383.25,34.4599,38.3389,158.887,99.6538,100.484,0.001941849,0.23452,20.7439,593.68,-0.0761063,0,0
1547,386.5,34.5309,38.3186,158.31,99.5017,99.7161,0.002069067,0.233406,20.7454,593.36,-0.019746,0,0
1560,389.75,34.1351,38.128,159.949,99.369,99.7257,0.002114878,0.2321,20.7481,593.08,-0.0328796,0,0
1573,393,34.2025,38.3556,160.507,99.2293,99.6725,0.002113303,0.231465,20.7476,592.81,-0.0408927,0,0
1586,396.25,33.9839,38.2661,159.279,99.1192,99.3317,0.001931859,0.231156,20.7476,592.509,-0.0196507,0,0
1599,399.5,34.0978,38.1034,163.833,99.0248,99.1071,0.0019394,0.230232,20.7515,592.219,-0.007618197,0,0
1612,402.75,34.0665,37.9045,160.587,98.9412,99.0635,0.001842281,0.2292943,20.7524,591.979,-0.0113368,0,0
1625,406,33.9586,38.0694,158.447,98.8938,99.1588,0.001628099,0.229141,20.7521,591.679,-0.0245598,0,0
1638,409.25,34.0083,37.7666,161.468,98.8612,99.4296,0.001647073,0.228301,20.7537,591.408,-0.05260526,0,0
1651,412.5,34.1103,37.9832,154.846,98.8497,99.066,0.001639941,0.227674,20.7546,591.148,-0.0200618,0,0
1664,415.75,33.8468,37.7967,160.844,98.8571,99.0163,0.001442531,0.226964,20.7548,590.878,-0.0147694,0,0
1677,419,33.9579,37.5297,158.327,98.8933,99.3566,0.001362265,0.22562,20.7548,590.618,-0.0428805,0,0
1690,422.25,33.6846,37.7083,156.767,98.9387,99.1923,0.001523128,0.225153,20.7561,590.377,-0.0234883,0,0
1703,425.5,33.8522,37.732,156.054,98.9882,99.2876,0.001707625,0.224641,20.7556,590.107,-0.0277169,0,0
1716,428.75,33.1332,37.9563,153.743,99.0586,99.2906,0.001521376,0.224125,20.7558,589.837,-0.0214662,0,0
1729,432,33.8433,37.5051,156.716,99.144,99.5523,0.00155819,0.223755,20.7571,589.547,-0.0377156,0,0
1742,435.25,33.7507,37.6772,159.464,99.2235,99.6608,0.001500983,0.223862,20.7575,589.276,-0.0403526,0,0
1755,438.5,33.9021,37.6101,162.365,99.2965,99.7019,0.001400992,0.223308,20.7576,589.016,-0.0373888,0,0
1768,441.75,33.5881,37.327,158.68,99.3987,99.6344,0.001422112,0.222026,20.7591,588.756,-0.0217376,0,0
1781,445,33.6017,37.0194,163.806,99.5005,99.854,0.00135373,0.221372,20.761,588.506,-0.0325436,0,0
1794,448.25,33.6804,37.2921,156.069,99.5858,99.995,0.001396807,0.221071,20.762,588.255,-0.0376228,0,0
1807,451.5,33.5444,36.9055,155.221,99.6864,99.9559,0.001211815,0.220888,20.7636,587.935,-0.024777,0,0
1820,454.75,33.4698,37.3898,161.875,99.7787,100.112,0.001166877,0.22034,20.7626,587.725,-0.0305613,0,0
1833,458,33.5317,37.2559,155.784,99.8925,100.034,0.001577512,0.220343,20.762,587.495,-0.0129908,0,0
1846,461.25,33.6757,36.9468,155.238,99.9844,100.244,0.001859996,0.219892,20.7619,587.225,-0.0238343,0,0
1859,464.5,33.2281,36.8631,161.201,100.066,100.311,0.001759057,0.220061,20.7618,586.964,-0.0225101,0,0
1872,467.75,33.2968,37.2414,156.916,100.153,100.352,0.001645664,0.219819,20.7604,586.724,-0.01829475,0,0
1885,471,33.116,37.3525,154.947,100.198,101.048,0.001610832,0.21912,20.7597,586.464,-0.0775293,0,0
1898,474.25,33.1619,36.7529,161.489,100.251,100.691,0.001490754,0.218781,20.7607,586.184,-0.0401477,0,0
1911,477.5,33.2936,36.9797,160.337,100.282,100.43,0.001466902,0.217691,20.7615,585.923,-0.0135265,0,0
1924,480.75,32.7887,37.3208,157.022,100.283,100.724,0.001558114,0.217353,20.7617,585.703,-0.0402087,0,0
1937,484,33.3467,36.6218,160.548,100.298,100.718,0.001539253,0.216904,20.7632,585.403,-0.03838012,0,0
1950,487.25,33.0001,36.5946,155.157,100.286,100.733,0.001640646,0.215625,20.7631,585.173,-0.0408141,0,0
1963,490.5,33.3463,36.8814,157.196,100.278,100.595,0.001788453,0.215993,20.7631,584.932,-0.0289195,0,0
1976,493.75,33.078,36.986,154.614,100.255,100.551,0.001631584,0.21603,20.7636,584.712,-0.0270449,0,0
1989,497,33.5159,36.783,157.385,100.23,100.436,0.00149042,0.216028,20.7652,584.462,-0.0188362,0,0
2002,500.25,33.1863,36.9132,161.243,100.199,100.399,0.001506313,0.21477,20.7658,584.192,-0.0182465,0,0
2015,503.5,32.9836,36.612,164.136,100.144,100.274,0.00157737,0.21422,20.766,583.962,-0.011936,0,0
2028,506.75,33.299,36.885,157.638,100.119,100.536,0.001619928,0.213836,20.766,583.691,-0.0381621,0,0
2041,510,33.4039,36.2318,157.738,100.087,100.151,0.001329614,0.213649,20.7672,583.451,-0.005866705,0,0
2054,513.25,32.8606,37.0041,158.902,100.053,100.365,0.00117742,0.213022,20.7691,583.211,-0.0285596,0,0
2067,516.5,33.3454,36.2438,163.964,100.019,100.102,0.001472519,0.211801,20.7707,582.971,-0.00760506,0,0
2080,519.75,33.1008,36.263,158.356,99.9894,100.219,0.001668414,0.211277,20.7712,582.771,-0.0210128,0,0
2093,523,32.7611,36.6988,159.951,99.9778,100.331,0.001804509,0.211039,20.7713,582.48,-0.0323735,0,0
2106,526.25,33.1048,36.4718,159.027,99.9284,100.266,0.001483017,0.210348,20.7713,582.25,-0.0309295,0,0
2119,529.5,32.7853,36.3178,160.471,99.923,100.037,0.001146335,0.210406,20.7713,582.02,-0.0104224,0,0
2132,532.75,32.3107,36.6655,166.474,99.9119,100.146,0.001130562,0.209958,20.7713,581.78,-0.02148539,0,0
2145,536,32.8828,36.3432,163.689,99.9766,100.341,0.001368288,0.209539,20.7713,581.539,-0.0334153,0,0
2158,539.25,32.6613,35.9235,161.4,100.139,100.261,0.00157543,0.210556,20.7708,581.349,-0.0111446,0,0
2171,542.5,33.0739,35.8938,163.827,100.317,100.482,0.001533614,0.21015,20.7707,581.079,-0.0150548,0,0
2184,545.75,32.5319,36.0322,160.284,100.424,100.828,0.001554299,0.209811,20.7707,580.859,-0.0368303,0,0
2197,549,32.7144,35.9346,156.434,100.533,100.86,0.001643308,0.209837,20.7713,580.609,-0.02976178,0,0
2210,552.25,32.3353,35.8917,160.859,100.609,100.814,0.0016221,0.209536,20.7714,580.378,-0.0186806,0,0
2223,555.5,33.0632,35.9923,158.588,100.693,101.299,0.001571236,0.20979,20.7715,580.158,-0.054994,0,0
2236,558.75,32.5018,36.1219,158.736,100.735,101.257,0.001495197,0.209983,20.771,579.918,-0.0474717,0,0
2249,562,32.2252,36.0452,161.535,100.788,101.159,0.001684657,0.209046,20.7727,579.678,-0.0337189,0,0
2262,565.25,32.6915,35.3957,160.546,100.828,101.123,0.001844446,0.207355,20.7747,579.447,-0.0268508,0,0
2275,568.5,32.1532,35.3946,161.452,100.824,100.847,0.001811687,0.205986,20.7747,579.217,-0.002160117,0,0
2288,571.75,32.1017,35.9371,156.813,100.798,101.028,0.001912925,0.20573,20.7744,578.997,-0.0209438,0,0
2301,575,31.8655,35.7346,156.635,100.737,101.096,0.001987452,0.205029,20.7759,578.777,-0.0326304,0,0
2314,578.25,32.213,35.0482,158.449,100.641,101.163,0.002009614,0.204813,20.7773,578.567,-0.0474563,0,0
2327,581.5,32.2635,35.295,157.028,100.493,100.982,0.001863356,0.203697,20.7785,578.357,-0.0445605,0,0
2340,584.75,31.7448,35.4752,165.473,100.278,100.469,0.001809984,0.202369,20.7778,578.086,-0.0174327,0,0
2353,588,32.2882,35.1969,156.651,100.246,100.48,0.001852144,0.20091,20.7786,577.896,-0.0214032,0,0
2366,591.25,32.2788,35.7157,161.958,100.336,100.511,0.001685092,0.200699,20.7805,577.686,-0.0159593,0,0
2379,594.5,31.6977,35.4567,159.104,100.471,101.292,0.001741228,0.200066,20.7812,577.486,-0.0746659,0,0
2392,597.75,32.2534,35.0964,161.191,100.617,100.907,0.002087754,0.199633,20.7807,577.265,-0.0264081,0,0
2405,601,32.2643,35.776,161.871,100.75,101.287,0.00209242,0.200344,20.78,577.065,-0.0487478,0,0
2418,604.25,32.2342,35.3974,157.558,100.848,101.077,0.002027901,0.200071,20.7817,576.805,-0.0207782,0,0
2431,607.5,32.2558,35.5416,158.194,100.965,101.552,0.002179415,0.199002,20.7823,576.615,-0.0532043,0,0
2444,610.75,32.425,35.4231,154.552,101.006,101.082,0.002170506,0.198128,20.7824,576.385,-0.006848047,0,0
2457,614,32.4713,35.2283,158.958,101.021,101.332,0.002193413,0.197858,20.7825,576.205,-0.0282118,0,0
2470,617.25,31.771,35.5027,158.641,101.001,101.354,0.002057189,0.196388,20.7838,575.934,-0.0320206,0,0
2483,620.5,31.8062,35.6905,157.9,100.934,101.675,0.00183835,0.195861,20.7841,575.764,-0.06715,0,0
2496,623.75,32.2996,35.0735,158.61,100.835,101.246,0.001979912,0.1943046,20.7856,575.534,-0.03730369,0,0
2509,627,32.2677,35.127,160.62,100.678,100.899,0.002479357,0.192795,20.7863,575.364,-0.020155,0,0
2522,630.25,31.9264,35.1518,159.607,100.474,101.049,0.002924499,0.191194,20.7886,575.144,-0.0523269,0,0
2535,633.5,32.2457,35.0647,157.282,100.254,100.688,0.002983779,0.190796,20.7916,574.963,-0.039644,0,0
2548,636.75,32.2663,35.2274,158.631,99.9947,100.304,0.003107345,0.190935,20.7907,574.713,-0.0283182,0,0
2561,640,32.0369,35.0496,159.487,99.7421,100.045,0.003025298,0.191474,20.7904,574.503,-0.0277987,0,0
2574,643.25,31.9686,35.3316,160.43,99.5112,99.6481,0.003020648,0.191343,20.7904,574.253,-0.0126162,0,0
2587,646.5,32.0238,34.7924,161.326,99.2878,99.4012,0.003077897,0.191226,20.7906,574.043,-0.0104717,0,0
2600,649.75,31.5287,34.8976,163.235,99.1394,99.5127,0.003202589,0.190071,20.7921,573.872,-0.0344891,0,0
2613,653,31.5585,34.7072,158.242,99.0553,99.3069,0.003050114,0.190737,20.791,573.662,-0.0232717,0,0
2626,656.25,31.8059,34.4448,159.337,99.0479,99.7825,0.003127797,0.191007,20.79,573.462,-0.06780345,0,0
2639,659.5,31.2618,34.898,160.633,99.0986,99.3921,0.003167679,0.190407,20.7919,573.282,-0.0271311,0,0
2652,662.75,31.418,34.5761,159.953,99.2235,99.9356,0.003186343,0.188908,20.793,573.102,-0.0656223,0,0
2665,666,31.5172,34.5612,156.611,99.397,99.6806,0.003214178,0.188391,20.7932,572.871,-0.0261393,0,0
2678,669.25,31.5123,34.4336,162.964,99.5916,99.8865,0.003120913,0.188584,20.7919,572.671,-0.0271278,0,0
2691,672.5,31.3907,34.4051,157.982,99.8084,100.185,0.003054648,0.188676,20.7912,572.491,-0.0345698,0,0
2704,675.75,31.196,34.9627,160.559,100.026,100.461,0.003206014,0.188895,20.7911,572.301,-0.0398593,0,0
2717,679,31.2776,34.3308,159.784,100.226,100.689,0.003637844,0.188075,20.7925,572.071,-0.0423492,0,0
2730,682.25,32.0015,33.8266,158.273,100.354,100.704,0.003926672,0.187783,20.7941,571.871,-0.0319591,0,0
2743,685.5,31.5635,34.3708,163.531,100.456,100.774,0.003763341,0.186999,20.7959,571.7,-0.0290754,0,0
2756,688.75,31.7852,34.1097,154.882,100.481,100.996,0.003692512,0.186619,20.7966,571.46,-0.0469802,0,0
2769,692,31.5158,34.5389,157.08,100.428,100.889,0.003489934,0.186676,20.7957,571.27,-0.0420651,0,0
2782,695.25,30.9541,34.6977,161.19,100.314,100.338,0.003221341,0.186908,20.7949,571.07,-0.00219513,0,0
2795,698.5,31.6596,33.8255,165.805,100.199,100.286,0.003456567,0.186443,20.7947,570.84,-0.007943355,0,0
2808,701.75,31.0255,34.2432,161.6875,100.108,100.36,0.00377813,0.186034,20.7952,570.689,-0.0229854,0,0
2821,705,31.546,33.8051,157.749,100.045,100.198,0.003901779,0.186821,20.7948,570.479,-0.0139658,0,0
2834,708.25,31.3862,34.0022,156.651,100.432,100.707,0.003736415,0.187359,20.7935,570.319,-0.0250868,0,0
2847,711.5,30.6529,34.011,160.179,100.81,101.105,0.003613808,0.188386,20.7939,570.099,-0.0268447,0,0
2860,714.75,30.973,34.1459,160.169,100.965,101.41,0.003485605,0.188381,20.795,569.919,-0.0404114,0,0
2873,718,31.2376,33.7446,160.581,100.949,101.158,0.003557638,0.187243,20.7966,569.699,-0.0189941,0,0
2886,721.25,30.8731,33.5338,160.526,100.759,101.034,0.003794674,0.186012,20.7985,569.518,-0.02501497,0,0
2899,724.5,30.7977,34.3711,163.487,100.406,100.377,0.003776299,0.184838,20.7997,569.348,0.002639149,0,0
2912,727.75,30.8128,33.661,164.698,100.566,100.777,0.003768056,0.183051,20.8008,569.108,-0.0192588,0,0
2925,731,31.0658,33.4952,159.609,100.789,101.083,0.0039454,0.181792,20.8013,568.948,-0.0267334,0,0
2938,734.25,31.0805,33.5009,159.25,101.029,101.428,0.004194426,0.182028,20.7998,568.778,-0.0361379,0,0
2951,737.5,30.4849,33.274,158.736,101.169,101.649,0.004306532,0.181348,20.8001,568.558,-0.0433515,0,0
2964,740.75,31.0107,33.6036,159.731,101.214,101.797,0.0042445,0.18132,20.8006,568.387,-0.0527175,0,0
2977,744,30.7255,33.6745,163.864,101.098,101.275,0.004233808,0.181093,20.8029,568.197,-0.0161062,0,0
2990,747.25,31.2803,33.2746,162,100.855,100.931,0.004318841,0.180491,20.8036,567.987,-0.006881982,0,0
3003,750.5,31.0412,32.9727,156.627,100.494,100.717,0.003965519,0.179766,20.804,567.817,-0.0203172,0,0
3016,753.75,31.0833,33.1556,161.652,100.063,100.308,0.00384435,0.179124,20.8051,567.597,-0.02244976,0,0
3029,757,30.7732,33.3817,160.899,99.6592,99.8079,0.003880437,0.1785,20.8054,567.447,-0.0136787,0,0
3042,760.25,30.3564,33.1803,161.128,99.3818,99.6882,0.00407595,0.178822,20.8054,567.246,-0.0282469,0,0
3055,763.5,30.7803,33.3168,160.997,99.2742,99.4377,0.004355974,0.179096,20.8054,567.056,-0.0150986,0,0
3068,766.75,31.1293,32.9454,160.249,99.3299,99.318,0.00457173,0.178649,20.8054,566.866,0.00109272,0,0
3081,770,31.249,33.1159,156.746,99.5285,99.7648,0.004628982,0.177764,20.8062,566.696,-0.0217535,0,0
3094,773.25,30.4878,33.286,162.4,99.8731,100.115,0.004639453,0.17711,20.8078,566.506,-0.0221641,0,0
3107,776.5,30.4619,33.4085,166.782,100.216,100.489,0.004286107,0.177926,20.8067,566.305,-0.0249908,0,0
3120,779.75,30.3565,33.7965,157.198,100.485,100.722,0.00412972,0.178178,20.8069,566.125,-0.0216455,0,0
3133,783,30.5193,33.4747,165.659,100.658,100.971,0.004504619,0.177424,20.808,565.935,-0.028496,0,0
3146,786.25,30.3994,32.9623,158.315,100.651,100.797,0.004617537,0.176698,20.8083,565.765,-0.0132395,0,0
3159,789.5,30.0941,32.8133,159.046,100.511,100.618,0.004955121,0.176761,20.8084,565.615,-0.009752185,0,0
3172,792.75,30.1518,32.8188,161.713,100.294,100.721,0.004930568,0.176183,20.8084,565.405,-0.0389881,0,0
3185,796,30.4375,32.5894,162.858,100.197,100.558,0.004784722,0.175963,20.8081,565.225,-0.0330146,0,0
3198,799.25,30.4921,32.6664,157.748,100.634,101.033,0.004625025,0.176347,20.8067,565.044,-0.0363883,0,0
3211,802.5,30.1887,33.2456,161.735,101.043,101.22,0.004332691,0.177252,20.806,564.844,-0.0159911,0,0
3224,805.75,29.9983,33.2476,162.533,101.113,101.453,0.004212732,0.177265,20.8058,564.674,-0.0308253,0,0
3237,809,30.2614,32.8621,164.801,100.896,101.257,0.004339976,0.177201,20.8057,564.484,-0.0327566,0,0
3250,812.25,30.3789,32.7739,162.633,100.61,100.554,0.004535945,0.177317,20.8057,564.314,0.005139789,0,0
3263,815.5,30.3215,32.9386,159.647,100.859,101.203,0.004399934,0.177381,20.8057,564.123,-0.0311842,0,0
3276,818.75,30.5759,33.1549,157.662,101.136,101.365,0.004431568,0.178192,20.8045,563.963,-0.0207481,0,0
3289,822,30.5254,32.8811,159.371,101.329,101.386,0.004591081,0.178474,20.8048,563.763,-0.005151973,0,0
3302,825.25,30.1971,33.6392,165.47,101.366,101.46,0.004470963,0.178362,20.8057,563.613,-0.008574544,0,0
3315,828.5,30.1118,33.2813,157.35,101.202,101.54,0.004418552,0.177797,20.806,563.423,-0.0305887,0,0
3328,831.75,30.429,33.1343,160.183,100.831,101.235,0.004537561,0.177838,20.8061,563.223,-0.0367057,0,0
3341,835,30.6905,33.1733,157.189,100.351,100.5,0.00472285,0.178574,20.8056,563.073,-0.0135933,0,0
3354,838.25,30.3084,33.0246,163.287,99.8739,99.9813,0.004694558,0.179283,20.8043,562.872,-0.009856762,0,0
3367,841.5,30.7271,33.1858,164.128,99.55,99.9453,0.004653868,0.180191,20.8033,562.672,-0.0363669,0,0
3380,844.75,29.9057,33.2672,160.319,99.4556,99.6344,0.004569455,0.179918,20.8029,562.512,-0.0164886,0,0
3393,848,30.3903,33.4495,156.77,99.5998,100.036,0.004297456,0.180583,20.8012,562.362,-0.0400532,0,0
3406,851.25,30.2789,33.6937,161.321,99.9432,100.327,0.004115507,0.180987,20.8007,562.192,-0.03513474,0,0
3419,854.5,30.2499,33.1892,157.746,100.35,100.569,0.00414098,0.181329,20.8005,562.032,-0.0200086,0,0
3432,857.75,30.8029,33.3873,157.454,100.644,100.929,0.004003238,0.182173,20.8005,561.811,-0.0259567,0,0
3445,861,30.5449,33.4719,162.367,100.827,101.23,0.004084487,0.182057,20.8005,561.661,-0.0365459,0,0
3458,864.25,30.6982,33.6532,159.775,100.819,101.297,0.004244098,0.183323,20.7996,561.421,-0.0433608,0,0
3471,867.5,31.0282,33.9763,159.127,100.664,101.32,0.004047645,0.184007,20.8004,561.241,-0.0595907,0,0
3484,870.75,31.3456,33.0729,160.604,100.436,100.708,0.003703198,0.184149,20.8006,561.111,-0.0247945,0,0
3497,874,30.3683,33.9057,162.695,100.309,100.781,0.003485213,0.185128,20.8007,560.891,-0.0430514,0,0
3510,877.25,30.3585,34.1222,160.036,100.781,101.219,0.003587443,0.186102,20.8007,560.71,-0.039783,0,0
3523,880.5,30.3036,34.132,158.755,101.15,101.671,0.003512402,0.18569,20.8007,560.51,-0.0471605,0,0
3536,883.75,30.7535,33.5026,160.185,101.272,101.795,0.00338349,0.185759,20.8002,560.34,-0.0472584,0,0
3549,887,30.3709,33.7295,154.433,101.115,101.476,0.003519508,0.187479,20.7966,560.22,-0.0327111,0,0
3562,890.25,31.0537,33.7201,158.802,100.718,101.079,0.003425642,0.189276,20.7931,560,-0.0328675,0,0
3575,893.5,30.7076,33.9368,156.197,100.888,101.585,0.00361438,0.189962,20.7932,559.84,-0.0632352,0,0
3588,896.75,31.0187,33.9818,161.708,101.131,101.735,0.003740787,0.189779,20.7922,559.649,-0.0546072,0,0
3601,900,31.3083,33.8272,159.5,101.371,102.141,0.003542166,0.191171,20.7904,559.459,-0.0695111,0,0
3614,903.25,31.1661,34.0225,158.841,101.511,102.013,0.003069656,0.192411,20.7898,559.289,-0.0452184,0,0
3627,906.5,31.2443,33.8023,159.284,101.55,102.285,0.002942431,0.192941,20.7892,559.109,-0.0661864,0,0
3640,909.75,31.2923,34.3371,155.704,101.474,101.763,0.003098325,0.194248,20.789,558.909,-0.0260669,0,0
3653,913,31.4875,34.3924,159.339,101.267,101.838,0.003021933,0.19509,20.7885,558.739,-0.05159096,0,0
3666,916.25,31.5956,33.9849,162.813,100.974,101.28,0.002783227,0.195546,20.7887,558.558,-0.0278338,0,0
3679,919.5,30.9651,34.7657,158.602,100.619,101.321,0.002808988,0.195236,20.7899,558.328,-0.0637793,0,0
3692,922.75,31.4624,34.2577,161.315,100.268,100.607,0.00287479,0.195642,20.7902,558.198,-0.0309646,0,0
3705,926,31.3289,34.2443,158.309,99.9688,100.523,0.002677852,0.1963,20.7889,558.008,-0.0507198,0,0
3718,929.25,31.1733,34.6392,161.949,99.7594,99.9174,0.002627488,0.196742,20.7882,557.838,-0.01452507,0,0
3731,932.5,31.1874,34.8524,160.973,99.6596,99.892,0.002674507,0.198479,20.785,557.638,-0.0213757,0,0
3744,935.75,31.6434,34.7455,156.62,99.6782,100.802,0.002676488,0.200454,20.7823,557.437,-0.102855,0,0
3757,939,31.4318,34.9029,152.37,99.7816,100.389,0.002565716,0.203353,20.7783,557.247,-0.0556846,0,0
3770,942.25,31.5355,35.0153,159.75,99.9539,100.433,0.002466727,0.205926,20.7771,557.047,-0.0438384,0,0
3783,945.5,31.7647,34.9893,166.597,100.181,100.479,0.002363658,0.205998,20.779,556.807,-0.0273121,0,0
3796,948.75,31.572,35.5485,160.183,100.421,100.731,0.002326193,0.206303,20.7782,556.707,-0.0282667,0,0
3809,952,31.4867,35.5562,161.697,100.649,101.057,0.002470614,0.206433,20.7763,556.497,-0.0371153,0,0
3822,955.25,31.7721,35.4002,158.992,100.832,101.324,0.002688952,0.208191,20.7749,556.316,-0.0445951,0,0
3835,958.5,31.6215,36.0838,162.976,100.95,101.322,0.002777328,0.208981,20.7748,556.146,-0.0337359,0,0
3848,961.75,32.2155,35.8172,154.452,101.027,102.09,0.002431616,0.209858,20.7732,555.936,-0.0959976,0,0
3861,965,32.3451,36.1034,160.857,101.031,101.264,0.00230346,0.210169,20.7727,555.736,-0.0211499,0,0
3874,968.25,32.2063,36.1056,153.889,100.975,101.335,0.002329167,0.210054,20.7726,555.526,-0.0326446,0,0
3887,971.5,32.2551,35.909,160.009,100.901,101.431,0.002517779,0.210432,20.7728,555.366,-0.0480176,0,0
3900,974.75,32.4151,35.5345,161.573,100.791,101.25,0.002591578,0.21049,20.7715,555.165,-0.0417234,0,0
3913,978,33.0324,35.3393,159.759,100.66,101.046,0.002482226,0.212057,20.7708,554.965,-0.0350886,0,0
3926,981.25,31.8752,35.8066,155.032,100.563,101.836,0.002326791,0.212543,20.7686,554.755,-0.115388,0,0
3939,984.5,32.5767,36.0097,160.298,100.496,101.578,0.002362142,0.214284,20.7652,554.575,-0.098233,0,0
3952,987.75,32.7464,36.0114,159.768,100.461,101.144,0.002296076,0.216509,20.7615,554.355,-0.0621839,0,0
3965,991,33.0178,36.3269,159.366,100.764,101.354,0.00211604,0.219964,20.7572,554.174,-0.0535872,0,0
3978,994.25,32.3603,36.8465,154.6,101.019,101.737,0.00207988,0.222996,20.7552,553.944,-0.0650147,0,0
3991,997.5,32.5672,36.9121,164.261,101.224,102.175,0.001968321,0.223429,20.7547,553.764,-0.0858106,0,0
4004,1000.75,32.9139,36.4474,154.692,101.34,101.861,0.001899371,0.224854,20.7548,553.524,-0.0470467,0,0
4017,1004,33.0348,37.0433,159.678,101.403,102.251,0.002070499,0.224476,20.756,553.314,-0.0764355,0,0
4030,1007.25,33.3034,35.7878,158.64,101.412,101.928,0.002112824,0.223912,20.7557,553.103,-0.0465827,0,0
4043,1010.5,32.9983,36.436,154.778,101.395,102.011,0.001945992,0.225525,20.7545,552.903,-0.0556329,0,0
4056,1013.75,33.0902,36.8475,154.565,101.308,102.787,0.001950328,0.226232,20.752,552.693,-0.1329941,0,0
4069,1017,32.872,37.1823,159.222,101.181,102.236,0.002063509,0.229255,20.7501,552.463,-0.0951609,0,0
4082,1020.25,32.4235,38.0065,158.271,100.996,101.336,0.001890736,0.230683,20.7487,552.243,-0.0308549,0,0
4095,1023.5,33.4877,37.8349,158.37,100.905,101.161,0.001785189,0.231871,20.7476,551.992,-0.0232053,0,0
4108,1026.75,33.3428,37.8982,160.908,100.982,101.886,0.001660099,0.232152,20.7477,551.802,-0.08182212,0,0
4121,1030,33.536,37.8756,163.866,101.085,101.677,0.001596004,0.232963,20.7467,551.602,-0.0536191,0,0
4134,1033.25,33.5194,38.2307,165.873,101.175,101.803,0.001824314,0.234635,20.743,551.352,-0.0567791,0,0
4147,1036.5,34.7129,37.9601,158.895,101.283,102.106,0.001969576,0.237802,20.7393,551.082,-0.0743185,0,0
4160,1039.75,33.9154,39.074,155.113,101.379,102.244,0.001769721,0.240187,20.7361,550.861,-0.078008,0,0
4173,1043,34.4828,38.5308,158.316,101.466,102.223,0.001577696,0.242629,20.7348,550.651,-0.0681445,0,0
4186,1046.25,34.6266,39.1439,164.86,101.532,102.378,0.001346003,0.245461,20.7332,550.411,-0.0761466,0,0
4199,1049.5,34.9747,38.7687,154.265,101.605,102.861,0.001290136,0.248107,20.7299,550.171,-0.112721,0,0
4212,1052.75,34.6232,39.3195,157.786,101.659,102.25,0.001276336,0.24968,20.7282,549.891,-0.05325713,0,0
4225,1056,34.8288,39.2975,159.15,101.695,102.292,0.00116897,0.252658,20.7217,549.65,-0.0536686,0,0
4238,1059.25,35.0205,39.7695,158.654,101.714,102.48,0.000962976,0.25658,20.7175,549.39,-0.06886363,0,0
4251,1062.5,35.9577,39.4562,155.228,101.728,102.004,0.00097483,0.258695,20.7164,549.13,-0.0249031,0,0
4264,1065.75,34.8465,40.7828,150.796,101.722,102.717,0.001124062,0.260621,20.7141,548.81,-0.0892998,0,0
4277,1069,36.0868,40.6384,153.052,101.7,102.421,0.001215845,0.264374,20.7091,548.589,-0.0648142,0,0
4290,1072.25,36.002,41.0781,162.733,101.692,101.899,0.001360016,0.267717,20.706,548.309,-0.01869153,0,0
4303,1075.5,36.2603,41.383,157.003,101.667,102.036,0.001401247,0.271591,20.7031,548.059,-0.0333258,0,0
4316,1078.75,36.1002,41.5271,159.566,101.629,101.616,0.001502187,0.274909,20.699,547.779,0.001206469,0,0
4329,1082,36.517,41.3244,155.049,101.582,101.702,0.001442376,0.277475,20.695,547.488,-0.0107723,0,0
4342,1085.25,36.9986,42.0644,150.976,101.537,102.388,0.001533446,0.283053,20.6891,547.168,-0.07664568,0,0
4355,1088.5,37.0617,42.2982,158.852,101.489,102.344,0.001576854,0.286809,20.6835,546.898,-0.07701356,0,0
4368,1091.75,37.1557,42.6401,149.512,101.415,101.491,0.001398422,0.28977,20.681,546.598,-0.006932886,0,0
4381,1095,37.8778,42.1916,161.875,101.345,101.584,0.001429925,0.292957,20.6763,546.297,-0.0215857,0,0
4394,1098.25,37.6066,43.2761,157.489,101.263,101.705,0.001599922,0.296536,20.6718,545.977,-0.039911,0,0
4407,1101.5,37.5995,43.3819,153.548,101.176,101.383,0.001715586,0.301368,20.6638,545.657,-0.0186981,0,0
4420,1104.75,37.8585,44.3081,153.885,101.085,101.674,0.001543981,0.309768,20.6552,545.336,-0.0533077,0,0
4433,1108,38.8216,43.8245,157.18,100.96,101.667,0.001591314,0.316025,20.6482,545.026,-0.0640194,0,0
4446,1111.25,39.3578,44.3169,153.385,100.852,101.386,0.001740268,0.320208,20.6454,544.676,-0.0485251,0,0
4459,1114.5,38.6891,45.7039,156.334,100.744,100.6,0.001932637,0.32246,20.6422,544.315,0.0131401,0,0
4472,1117.75,39.4286,45.3224,153.66,100.643,99.9392,0.001938237,0.325419,20.6403,543.965,0.0644031,0,0
4485,1121,39.9927,45.3588,155.241,100.553,99.9554,0.001806988,0.329903,20.6355,543.655,0.0547164,0,0
4498,1124.25,39.8542,46.4889,156.796,100.47,99.7739,0.001866825,0.335148,20.6282,543.295,0.063797,0,0
4511,1127.5,40.9334,45.9706,151.885,100.396,100.319,0.002011699,0.340809,20.6221,542.874,0.007058271,0,0
4524,1130.75,40.5296,46.8191,158.834,100.327,98.7435,0.002067801,0.344809,20.6182,542.504,0.14598,0,0
4537,1134,41.4365,47.1565,157.722,100.248,99.0599,0.002375068,0.349261,20.6107,542.154,0.10942,0,0
4550,1137.25,41.107,47.8002,150.464,100.192,98.2562,0.002349203,0.354725,20.6049,541.793,0.17904,0,0
4563,1140.5,41.5632,48.2466,151.773,100.141,98.1071,0.002250142,0.360461,20.5972,541.403,0.188329,0,0
4576,1143.75,41.8561,48.9258,148.284,100.092,98.1396,0.002391116,0.366103,20.59,540.992,0.180799,0,0
4589,1147,42.2732,49.4012,156.683,100.044,97.5686,0.002518992,0.371268,20.5827,540.602,0.22988,0,0
4602,1150.25,42.6636,49.6683,154.131,100.021,98.3455,0.00264453,0.377612,20.5745,540.182,0.15503,0,0
4615,1153.5,43.076,50.1554,149.187,99.9869,98.1675,0.002807137,0.382667,20.5681,539.791,0.168513,0,0
4628,1156.75,42.8655,51.2261,153.233,99.9502,96.986,0.002938335,0.387043,20.5626,539.341,0.276254,0,0
4641,1160,43.7932,51.1511,151.931,99.9255,97.8216,0.003038131,0.391846,20.5572,538.951,0.195258,0,0
4654,1163.25,44.1169,51.3889,153.914,99.9131,96.9758,0.003194082,0.395911,20.5535,538.52,0.273808,0,0
4667,1166.5,44.1336,52.0318,146.163,99.8805,96.8318,0.003329071,0.400573,20.5486,538.1,0.284454,0,0
4680,1169.75,44.8016,52.101,148.406,99.8682,96.702,0.003621554,0.404921,20.5435,537.649,0.295627,0,0
4693,1173,44.9917,52.7893,146.819,99.8636,97.0519,0.003689731,0.410978,20.535,537.209,0.262069,0,0
4706,1176.25,45.1077,53.58041,150.174,99.8496,96.4657,0.003864129,0.415624,20.5288,536.799,0.316372,0,0
4719,1179.5,45.8166,53.5655,147.543,99.836,96.1787,0.00403674,0.42064,20.5232,536.288,0.342463,0,0
4732,1182.75,46.0377,54.458,153.42,99.843,95.9581,0.004104147,0.426678,20.515,535.808,0.364177,0,0
4745,1186,46.2808,55.117,148.777,99.8554,97.1761,0.004135223,0.431226,20.5097,535.427,0.249573,0,0
4758,1189.25,47.124,55.6977,150.914,99.8484,96.2578,0.004190799,0.436086,20.5056,534.957,0.336056,0,0
4771,1192.5,47.4049,56.0993,150.351,99.8509,96.1118,0.004423195,0.441694,20.4972,534.517,0.350216,0,0
4784,1195.75,47.9211,56.4197,150.586,99.8562,96.9885,0.004551698,0.446802,20.4906,533.986,0.267382,0,0
4797,1199,47.9334,56.6736,145.368,99.8674,95.8724,0.004428525,0.450709,20.4863,533.556,0.37461,0,0
4810,1202.25,48.421,56.6932,152.454,99.8599,96.4875,0.004372709,0.452831,20.4844,533.055,0.315245,0,0
4823,1205.5,48.534,56.6715,146.827,99.8723,97.132,0.004461837,0.45689,20.4765,532.615,0.255292,0,0
4836,1208.75,48.8025,57.5543,146.192,99.8797,95.8968,0.004622003,0.464156,20.467,532.134,0.373417,0,0
4849,1212,49.7577,57.6687,147.014,99.8748,96.3673,0.004756682,0.468429,20.4638,531.664,0.328044,0,0
4862,1215.25,49.2336,58.3188,150.399,99.8785,95.3851,0.004532107,0.468654,20.4648,531.154,0.4223921,0,0
4875,1218.5,49.5241,58.5313,147.354,99.8888,96.6883,0.004542602,0.469266,20.4651,530.703,0.298819,0,0
4888,1221.75,49.561,59.1977,145.829,99.888,96.9652,0.004708058,0.469553,20.4651,530.213,0.272505,0,0
4901,1225,49.7267,59.0008,147.754,99.8863,95.1235,0.005010203,0.468557,20.4651,529.712,0.448317,0,0
4914,1228.25,49.8322,59.3955,147.323,99.8941,93.8056,0.005174357,0.469722,20.4621,529.242,0.577057,0,0
4927,1231.5,49.9877,59.6987,148.376,99.8925,95.9018,0.004876565,0.473226,20.4581,528.731,0.374106,0,0
4940,1234.75,50.9818,59.9495,148.858,99.8826,95.5509,0.004775026,0.476531,20.4521,528.261,0.406833,0,0
4953,1238,51.7438,60.0845,143.619,99.8962,94.6798,0.005137072,0.481755,20.4434,527.78,0.492127,0,0
4966,1241.25,51.8641,60.3705,144.288,99.9036,94.4491,0.005539263,0.488185,20.4346,527.27,0.515197,0,0
4979,1244.5,52.4131,61.1008,145.508,99.9053,95.4161,0.005746325,0.493504,20.4271,526.769,0.421878,0,0
4992,1247.75,51.8218,62.2732,151.439,99.9152,93.5196,0.005821352,0.499306,20.4194,526.229,0.607007,0,0
5005,1251,52.9433,62.1476,142.976,99.9238,94.3243,0.005848965,0.50198,20.4156,525.708,0.52918,0,0
5018,1254.25,53.4009,62.8178,154.23,99.9263,96.0296,0.005752754,0.504337,20.4139,525.208,0.364991,0,0
5031,1257.5,53.3416,63.2657,146.498,99.923,94.7903,0.005913674,0.508604,20.4103,524.718,0.48388,0,0
5044,1260.75,53.7254,62.7133,152.524,99.9267,94.377,0.006396207,0.5075,20.413,524.207,0.524316,0,0
5057,1264,53.2469,63.308,150.014,99.9271,93.837,0.006674564,0.50463,20.4165,523.687,0.577011,0,0
5070,1267.25,53.4171,63.327,149.88,99.9275,94.7756,0.006696159,0.502359,20.4177,523.176,0.485721,0,0
5083,1270.5,53.7336,63.2049,148.092,99.9453,95.4135,0.006760716,0.496714,20.4256,522.736,0.425793,0,0
5096,1273.75,53.6391,63.1314,147.751,99.9453,93.5378,0.006714728,0.487951,20.4356,522.255,0.607979,0,0
5109,1277,53.252,62.5432,153.602,99.9552,94.0109,0.006563825,0.474782,20.4498,521.815,0.562592,0,0
5122,1280.25,52.9968,61.8718,145.615,99.9333,96.2314,0.006229036,0.45913,20.4702,521.415,0.34637,0,0
5135,1283.5,52.4518,59.8719,150.809,99.9308,95.2122,0.005645187,0.435343,20.5048,521.024,0.443851,0,0
5148,1286.75,51.6619,58.6009,152.282,99.9271,96.7796,0.005055372,0.411327,20.5328,520.664,0.293683,0,0
5161,1290,50.2156,57.275,154.678,99.9308,96.3161,0.004318899,0.384671,20.5689,520.314,0.338072,0,0
5174,1293.25,49.662,55.3476,158.481,99.9481,96.3024,0.003309391,0.356867,20.5986,520.033,0.340966,0,0
5187,1296.5,48.5109,53.8362,158.076,99.9333,96.916,0.002742994,0.331099,20.628,519.803,0.281326,0,0
5200,1299.75,47.1768,52.4904,155.045,99.9267,97.0047,0.002543174,0.308747,20.6502,519.603,0.272322,0,0
5213,1303,46.5243,50.1748,154.452,99.9156,96.8202,0.002429842,0.286532,20.6693,519.383,0.288776,0,0
5226,1306.25,45.4677,48.9447,154.161,99.9275,96.7127,0.002361457,0.271485,20.681,519.193,0.300069,0,0
5239,1309.5,44.727,47.5428,154.553,99.9185,98.243,0.002512993,0.258557,20.6931,519.042,0.155171,0,0
5252,1312.75,43.724,47.3777,158.106,99.8995,97.8916,0.002919162,0.248958,20.7009,518.862,0.186311,0,0
5265,1316,43.0759,46.2215,155.103,99.89,98.1964,0.003370625,0.239523,20.7096,518.672,0.156917,0,0
5278,1319.25,42.0629,45.5463,151.945,99.8987,98.6036,0.003986176,0.231464,20.7175,518.542,0.119741,0,0
5291,1322.5,42.1275,45.0113,152.407,99.8876,99.4296,0.004387739,0.227949,20.7202,518.392,0.0421682,0,0
5304,1325.75,41.0635,44.0835,160.083,99.8773,99.5939,0.00479052,0.222313,20.7279,518.242,0.0260716,0,0
5317,1329,41.0393,42.8053,152.644,99.8674,99.8956,0.005482031,0.21633,20.7346,518.092,-0.002593953,0,0
5330,1332.25,40.4933,42.1604,158.45,99.8599,100.107,0.006101078,0.210313,20.7432,517.961,-0.02267785,0,0
5343,1335.5,39.6443,41.5344,156.954,99.8608,100.405,0.00668315,0.205698,20.7481,517.861,-0.0498921,0,0
5356,1338.75,39.3375,41.5347,155.62,99.848,100.595,0.00720884,0.202255,20.7516,517.711,-0.0684289,0,0
5369,1342,39.0889,40.4631,157.211,99.8455,100.37,0.007317775,0.197722,20.7589,517.591,-0.0480489,0,0
5382,1345.25,38.6339,39.7389,156.922,99.8496,100.338,0.007717888,0.192327,20.7633,517.471,-0.0447963,0,0
5395,1348.5,37.9993,39.3033,163.404,99.8583,100.812,0.008006767,0.1888,20.7681,517.351,-0.08721184,0,0
5408,1351.75,37.043,38.903,159.218,99.8698,100.313,0.008336043,0.184588,20.7741,517.231,-0.040668,0,0
5421,1355,36.3469,38.5245,156.409,99.8715,100.361,0.008821289,0.179802,20.7809,517.111,-0.0448754,0,0
5434,1358.25,36.4792,37.0337,155.375,99.8731,100.097,0.009128921,0.176464,20.7838,517.021,-0.0205836,0,0
5447,1361.5,36.2211,36.4708,165.857,99.8933,100.349,0.009221537,0.175147,20.7852,516.911,-0.0418019,0,0
5460,1364.75,35.536,36.1732,164.333,99.9193,100.616,0.009146526,0.172373,20.7878,516.78,-0.0637744,0,0
5473,1368,35.4703,35.3506,159.129,99.9312,101.069,0.009153951,0.170964,20.7891,516.69,-0.103927,0,0
5486,1371.25,35.2149,34.9081,160.902,99.9601,100.695,0.00923739,0.170205,20.7913,516.62,-0.0672387,0,0
5499,1374.5,35.0775,34.4008,159.024,100.005,100.335,0.009846165,0.168257,20.7947,516.5,-0.0302858,0,0
5512,1377.75,34.0185,34.6311,157.476,100.031,100.216,0.0103349,0.167205,20.7955,516.39,-0.01692313,0,0
5525,1381,33.7003,34.2052,154.88,100.071,100.24,0.0101151,0.168628,20.7918,516.32,-0.0154389,0,0
5538,1384.25,33.9699,33.6342,159.017,100.102,100.562,0.009755604,0.169184,20.7915,516.2,-0.0420327,0,0
5551,1387.5,33.5287,34.0802,161.633,100.163,100.587,0.009421752,0.16787,20.7943,516.12,-0.038747,0,0
5564,1390.75,33.4074,33.5723,161.572,100.216,100.896,0.009432193,0.165981,20.7959,516.03,-0.0619681,0,0
5577,1394,33.27,33.2925,157.681,100.293,100.523,0.009528399,0.165067,20.7965,515.94,-0.0210375,0,0
5590,1397.25,33.5154,32.6217,160.467,100.329,101.193,0.009474228,0.163825,20.7989,515.84,-0.0787014,0,0
5603,1400.5,32.4228,33.0738,159.694,100.378,100.738,0.009505724,0.161321,20.8004,515.759,-0.0327939,0,0
5616,1403.75,32.4463,32.7178,158.563,100.445,100.56,0.009541502,0.161843,20.8008,515.679,-0.0105489,0,0
5629,1407,32.1945,32.4781,160.789,100.54,100.545,0.00966264,0.1621,20.8009,515.589,-0.000457253,0,0
5642,1410.25,32.3704,32.1994,159.672,100.6,101.108,0.009658895,0.164,20.7977,515.489,-0.0461539,0,0
5655,1413.5,31.9397,32.666,161.334,100.651,101.061,0.009400628,0.164244,20.7988,515.399,-0.037296,0,0
5668,1416.75,31.3015,32.4064,161.793,100.736,100.993,0.009304578,0.164164,20.7993,515.319,-0.0233874,0,0
5681,1420,31.7347,31.8683,155.139,100.801,100.982,0.009464655,0.163641,20.7993,515.229,-0.0165259,0,0
5694,1423.25,30.8853,32.0777,164.281,100.872,101.14,0.009552123,0.162786,20.8008,515.149,-0.0243558,0,0
5707,1426.5,31.4707,30.8623,165.147,100.952,101.124,0.009663439,0.162946,20.8014,515.079,-0.0156213,0,0
5720,1429.75,31.2727,30.5695,157.671,101.015,101.339,0.009759826,0.161528,20.8045,514.999,-0.0293788,0,0
5733,1433,31.0502,30.667,160.308,101.078,101.342,0.009748098,0.160433,20.8052,514.909,-0.0239571,0,0
5746,1436.25,30.2726,31.2885,162.632,101.15,101.445,0.009775976,0.158986,20.8053,514.849,-0.0267262,0,0
5759,1439.5,30.7104,30.4323,164.312,101.221,101.485,0.00978553,0.157924,20.8053,514.769,-0.0239653,0,0
5772,1442.75,30.797,30.2078,166.666,101.28,101.262,0.009728483,0.156853,20.8077,514.659,0.001693168,0,0
5785,1446,29.6774,31.1717,162.964,101.319,101.551,0.009777038,0.155483,20.8107,514.608,-0.0209975,0,0
5798,1449.25,30.281,29.8328,160.516,101.379,101.518,0.0100882,0.152642,20.815,514.528,-0.0125614,0,0
5811,1452.5,29.265,30.7494,159.223,101.434,101.604,0.010448,0.150764,20.8177,514.448,-0.0153978,0,0
5824,1455.75,29.1044,30.386,166.767,101.451,101.436,0.0117951,0.146636,20.8238,514.398,0.001356309,0,0
5837,1459,28.9536,29.2501,162.242,101.501,101.563,0.0130936,0.141884,20.8308,514.308,-0.005602915,0,0
5850,1462.25,28.3999,29.1889,161.535,101.551,101.654,0.0138046,0.138407,20.8337,514.258,-0.00925505,0,0
5863,1465.5,28.1312,28.8782,162.291,101.566,101.592,0.0142208,0.137015,20.8347,514.148,-0.002336822,0,0
5876,1468.75,27.821,27.699,164.541,101.607,101.591,0.0144485,0.136022,20.8345,514.098,0.001449275,0,0
5889,1472,27.1617,27.5867,164.481,101.635,101.553,0.0146969,0.136497,20.8344,514.018,0.007370874,0,0
5902,1475.25,27.5535,27.3862,162.616,101.682,101.491,0.0147041,0.137365,20.8329,513.948,0.0172496,0,0
5915,1478.5,26.7777,27.2102,168.142,101.69,101.689,0.0143037,0.136806,20.8336,513.878,0.000130171,0,0
5928,1481.75,26.7857,26.2713,164.587,101.726,101.631,0.0137478,0.134793,20.8373,513.818,0.008621181,0,0
5941,1485,27.0117,26.876,163.288,101.742,101.795,0.0136994,0.133766,20.8373,513.748,-0.004788062,0,0
5954,1488.25,26.5424,26.8304,164.734,101.751,102.058,0.0136396,0.13415,20.8365,513.688,-0.0276632,0,0
5967,1491.5,26.7594,26.7217,168.174,101.763,101.645,0.0135619,0.134562,20.8384,513.628,0.0106471,0,0
5980,1494.75,25.7024,26.7359,165.282,101.769,101.824,0.0138845,0.13477,20.8389,513.557,-0.004894771,0,0
5993,1498,26.2903,26.325,165.45,101.77,101.509,0.0138533,0.134436,20.8392,513.497,0.0236018,0,0
6006,1501.25,26.0029,26.6939,167.962,101.765,101.793,0.01337744,0.133534,20.8408,513.447,-0.002524472,0,0
6019,1504.5,25.7669,26.369,163.293,101.749,101.6,0.0131969,0.132579,20.8417,513.377,0.013458,0,0
6032,1507.75,25.9566,26.3927,163.616,101.733,101.93,0.0129686,0.131953,20.8432,513.327,-0.01780263,0,0
6045,1511,25.959,26.2714,160.269,101.702,101.678,0.0124933,0.130813,20.8453,513.267,0.002132815,0,0
6058,1514.25,25.61,25.9375,164.377,101.696,101.798,0.0124813,0.130604,20.8445,513.197,-0.009144457,0,0
6071,1517.5,25.9105,25.7988,165.214,101.645,101.661,0.012782,0.131155,20.8428,513.167,-0.00140793,0,0
6084,1520.75,25.1947,25.6265,160.994,101.612,101.755,0.01293759,0.131477,20.8435,513.097,-0.0128949,0,0
6097,1524,25.5235,25.7469,161.426,101.578,101.748,0.01286151,0.130766,20.8436,513.057,-0.0153901,0,0
6110,1527.25,25.5123,26.0995,165.842,101.524,101.519,0.0129547,0.1308202,20.8422,512.947,0.000432072,0,0
6123,1530.5,25.0616,25.9086,165.129,101.486,101.24,0.013087,0.132261,20.8394,512.937,0.02224,0,0
6136,1533.75,25.5844,25.6569,164.487,101.435,101.216,0.0130338,0.134042,20.8371,512.867,0.0198237,0,0
6149,1537,25.1825,25.9223,166.546,101.39,101.188,0.0130825,0.135903,20.8372,512.787,0.0183238,0,0
6162,1540.25,25.2272,25.9745,168.826,101.347,101.174,0.0129803,0.136006,20.8384,512.747,0.0156936,0,0
6175,1543.5,25.3249,25.272,163.388,101.281,101.216,0.0130395,0.135125,20.8409,512.697,0.005866782,0,0
6188,1546.75,25.3607,25.406,165.642,101.232,101.258,0.0132349,0.134448,20.842,512.627,-0.002347764,0,0
6201,1550,24.446,25.2754,162.641,101.178,101.127,0.01322684,0.133482,20.8426,512.567,0.004620473,0,0
6214,1553.25,24.8278,25.0513,166.733,101.111,101.129,0.0130522,0.132891,20.8441,512.507,-0.001621271,0,0
6227,1556.5,24.9602,25.5506,165.711,101.044,100.639,0.0129415,0.131453,20.8466,512.517,0.03678659,0,0
6240,1559.75,24.4476,24.9946,165.94,101.02,100.662,0.0131936,0.13066,20.8464,512.396,0.0325736,0,0
6253,1563,24.1907,24.8858,167.764,100.976,100.909,0.0121801,0.13052,20.8498,-0.34031,0.006044968,0,0
6266,1566.25,24.1671,23.5774,169.806,100.969,100.727,0.008021159,0.116268,20.878,-0.360328,0.0220141,0,0
6279,1569.5,22.7534,23.2528,171.494,101.091,100.86,0.004141728,0.0940169,20.9083,-0.360328,0.0210461,0,0
6292,1572.75,23.168,21.839,168.975,101.201,100.94,0.001868459,0.0788872,20.9257,-0.350319,0.0237,0,0
6305,1576,22.7554,22.4119,163.623,101.289,100.928,,0.0702349,,-0.370337,0.0327622,0,0
6318,1579.25,22.2177,21.9769,163.976,101.344,100.913,,,,-0.360328,0.03911129,0,0
6331,1582.5,21.6288,21.2848,169.281,101.416,101.147,,,,-0.34031,0.02444513,0,0
6344,1585.75,21.2872,21.2842,165.163,101.45,101.146,,,,-0.34031,0.02751133,0,0
6345,1586,21.7859,21.6147,165.904,101.439,101.223,,,,-0.350319,0.019636,0,0
,,,,,,,,,,,,,
,,,,,,,,,,,,,
,,,,,,,,,,,,,
,,,,,,,,,,,,,
,,,,,,,,,,,,,
,,,,,,,,,,,,,
,,,,,,,,,,,,,
,,,,,,,,,,,,,
,,,,,,,,,,,,,
,,,,,,,,,,,,,
,,,,,,,,,,,,,
,,,,,,,,,,,,,
,,,,,,,,,,,,,
,,,,,,,,,,,,,
,,,,,,,,,,,,,
,,,,,,,,,,,,,
,,,,,,,,,,,,,
,,,,,,,,,,,,,
,,,,,,,,,,,,,
,,,,,,,,,,,,,
,,,,,,,,,,,,,
,,,,,,,,,,,,,
,,,,,,,,,,,,,
,,,,,,,,,,,,,
,,,,,,,,,,,,,
,,,,,,,,,,,,,
,,,,,,,,,,,,,
,,,,,,,,,,,,,
,,,,,,,,,,,,,
,,,,,,,,,,,,,
,,,,,,,,,,,,,
,,,,,,,,,,,,,
,,,,,,,,,,,,,
,,,,,,,,,,,,,
,,,,,,,,,,,,,
,,,,,,,,,,,,,
,,,,,,,,,,,,,
,,,,,,,,,,,,,
,,,,,,,,,,,,,
,,,,,,,,,,,,,
,,,,,,,,,,,,,
,,,,,,,,,,,,,
,,,,,,,,,,,,,
,,,,,,,,,,,,,
,,,,,,,,,,,,,
,,,,,,,,,,,,,
,,,,,,,,,,,,,
,,,,,,,,,,,,,
,,,,,,,,,,,,,
,,,,,,,,,,,,,
,,,,,,,,,,,,,
,,,,,,,,,,,,,
,,,,,,,,,,,,,
,,,,,,,,,,,,,
,,,,,,,,,,,,,
,,,,,,,,,,,,,
,,,,,,,,,,,,,
,,,,,,,,,,,,,
,,,,,,,,,,,,,
,,,,,,,,,,,,,
,,,,,,,,,,,,,
,,,,,,,,,,,,,
,,,,,,,,,,,,,
,,,,,,,,,,,,,
,,,,,,,,,,,,,