File: 01_Data/Black_PMMA/MCC/Black_PMMA_MCC_30K_min_220325_R2.txt
Sample ID:	C:\MCC\MCC Cal\Test\Black_PMMA_MCC_30K_min_220325_R2.txt
Sample Weight (mg):	4.17
Heating Rate (C/s):	0.5
Combustor Temp (C):	900
N2 Flow Rate (cc/min):	80
O2 Flow Rate (cc/min):	20
Calibration File:	C:\MCC\MCC Cal\Coeff1 JN10440_30_210304.txt.txt
T Correction Coefficients:	0	1.024463	0
Time Shift (s):	14
*
Time (s)	Temperature (C)	N2 flow rate (cc/min)	O2 flow rate (cc/min)	Flow Rate (cc/min)	Oxygen (%)	HRR (W/g)	Heating rate (C/s)
0.000	108.287	80.001	19.996	103.671	20.007	0.498	-0.030
2.000	108.288	80.001	19.994	103.673	20.010	0.318	-0.014
3.999	108.281	80.003	19.994	103.671	20.009	0.390	-0.015
5.999	108.297	80.001	19.993	103.664	20.012	0.158	-0.017
8.000	108.320	80.002	19.994	103.684	20.010	0.262	0.013
9.999	108.323	80.000	19.995	103.697	20.005	0.676	0.011
11.999	108.267	80.001	19.995	103.689	20.008	0.440	-0.019
13.999	108.245	80.002	19.993	103.699	20.002	0.883	-0.013
15.999	108.305	80.001	19.993	103.697	20.004	0.731	0.010
17.999	108.309	79.999	19.994	103.707	20.000	1.077	0.044
20.000	108.300	80.002	19.993	103.663	19.997	1.289	0.004
21.999	108.362	80.002	19.993	103.719	19.991	1.743	0.034
24.000	108.358	80.002	19.991	103.836	19.988	2.001	0.027
25.999	108.446	80.002	19.994	103.769	19.986	2.149	0.042
27.999	108.464	79.998	19.994	103.758	19.983	2.349	-0.003
29.999	108.596	80.001	19.993	103.802	19.981	2.502	0.084
32.000	108.660	80.005	19.992	103.865	19.974	3.097	0.068
33.999	108.826	79.999	19.994	103.895	19.972	3.248	0.095
35.999	108.953	79.999	19.992	103.887	19.966	3.669	0.060
38.000	109.229	79.997	19.993	103.895	19.966	3.725	0.152
40.000	109.460	80.000	19.993	103.888	19.967	3.647	0.143
42.000	109.734	80.003	19.991	103.870	19.969	3.435	0.133
43.999	110.020	79.998	19.997	103.867	19.975	2.999	0.133
45.999	110.357	79.998	19.996	103.855	19.972	3.233	0.138
47.999	110.641	80.001	19.991	103.854	19.963	3.901	0.163
50.000	110.962	80.000	19.996	103.856	19.965	3.804	0.141
51.999	111.303	79.998	19.992	103.858	19.963	3.942	0.172
53.999	111.679	80.001	19.993	103.858	19.961	4.059	0.188
55.999	112.115	80.004	19.991	103.854	19.963	3.929	0.223
57.999	112.536	79.999	19.993	103.860	19.966	3.699	0.213
59.999	112.969	80.002	19.993	103.859	19.966	3.743	0.208
61.999	113.390	79.999	19.993	103.875	19.960	4.150	0.197
63.999	113.819	80.000	19.996	103.891	19.962	4.032	0.229
65.999	114.285	80.001	19.991	103.895	19.960	4.208	0.225
67.999	114.754	80.001	19.994	103.893	19.953	4.709	0.249
69.999	115.259	80.003	19.995	103.909	19.951	4.835	0.265
71.999	115.757	80.000	19.992	103.903	19.953	4.728	0.269
74.000	116.298	79.999	19.994	103.910	19.948	5.085	0.257
76.000	116.851	79.999	19.993	103.930	19.947	5.162	0.276
77.999	117.442	79.999	19.994	103.929	19.942	5.550	0.272
79.999	118.040	79.999	19.993	103.915	19.945	5.325	0.275
81.999	118.631	79.998	19.993	103.946	19.943	5.466	0.304
84.000	119.303	79.999	19.991	103.945	19.941	5.682	0.349
85.999	119.927	80.001	19.995	103.930	19.941	5.617	0.343
88.000	120.624	80.001	19.993	103.957	19.938	5.851	0.342
90.000	121.270	80.001	19.995	103.959	19.938	5.861	0.347
92.001	121.977	79.998	19.998	103.949	19.938	5.920	0.380
93.999	122.702	80.001	19.995	103.956	19.937	5.935	0.376
95.999	123.478	79.997	19.994	103.966	19.935	6.098	0.360
97.999	124.155	79.997	19.994	103.959	19.936	6.024	0.346
99.999	124.912	80.000	19.994	103.944	19.932	6.314	0.386
102.000	125.663	80.000	19.993	103.941	19.933	6.253	0.378
103.999	126.456	80.002	19.994	103.956	19.934	6.163	0.393
106.001	127.245	80.002	19.993	103.949	19.933	6.261	0.393
107.999	128.069	80.002	19.993	103.950	19.926	6.805	0.413
109.999	128.883	80.004	19.993	103.954	19.925	6.896	0.427
111.999	129.715	80.003	19.993	103.962	19.929	6.610	0.406
113.999	130.556	80.003	19.993	103.961	19.931	6.467	0.433
115.999	131.432	80.002	19.993	103.945	19.930	6.532	0.440
117.999	132.320	80.001	19.992	103.940	19.925	6.876	0.460
119.999	133.175	80.001	19.993	103.931	19.927	6.770	0.408
121.999	134.012	80.001	19.994	103.946	19.923	7.078	0.436
123.999	134.916	80.001	19.995	103.942	19.922	7.164	0.474
125.999	135.809	80.002	19.992	103.939	19.918	7.472	0.469
127.999	136.767	79.999	19.994	103.940	19.919	7.368	0.467
130.000	137.687	80.000	19.994	103.957	19.915	7.646	0.452
132.000	138.571	80.002	19.994	103.959	19.915	7.655	0.418
134.000	139.503	80.002	19.995	103.949	19.911	7.971	0.451
136.000	140.466	80.001	19.994	103.944	19.914	7.762	0.493
138.000	141.389	80.003	19.993	103.942	19.907	8.314	0.461
140.000	142.310	80.001	19.993	103.939	19.908	8.223	0.465
142.000	143.269	79.999	19.993	103.940	19.905	8.486	0.438
144.000	144.238	79.999	19.992	103.950	19.901	8.746	0.475
146.000	145.160	80.001	19.993	103.963	19.900	8.848	0.478
148.000	146.134	80.000	19.994	103.939	19.892	9.447	0.501
150.000	147.097	79.999	19.994	103.935	19.891	9.566	0.491
152.000	148.048	79.999	19.993	103.934	19.888	9.762	0.441
154.000	149.040	79.999	19.993	103.932	19.887	9.861	0.498
156.000	150.018	80.000	19.994	103.942	19.887	9.871	0.520
158.000	151.014	80.001	19.993	103.971	19.882	10.246	0.494
160.000	151.983	80.000	19.994	103.973	19.881	10.308	0.498
162.000	152.936	79.999	19.994	103.972	19.874	10.885	0.447
164.000	153.925	79.999	19.994	103.962	19.874	10.851	0.456
166.000	154.913	80.000	19.994	103.941	19.872	11.006	0.477
168.000	155.891	80.002	19.994	103.958	19.866	11.494	0.481
170.000	156.906	80.001	19.992	103.941	19.861	11.842	0.545
172.000	157.906	80.001	19.994	103.937	19.857	12.214	0.512
174.000	158.913	80.002	19.994	103.934	19.851	12.609	0.530
176.000	159.871	80.003	19.994	103.939	19.851	12.656	0.467
178.000	160.894	80.002	19.992	103.952	19.849	12.780	0.520
180.000	161.903	80.002	19.994	103.932	19.846	13.030	0.505
182.000	162.841	80.002	19.993	103.935	19.840	13.488	0.483
184.000	163.884	80.001	19.994	103.926	19.838	13.691	0.524
186.000	164.923	80.001	19.994	103.919	19.835	13.919	0.511
188.000	165.925	80.001	19.995	103.930	19.830	14.248	0.538
190.000	166.929	80.002	19.994	103.932	19.826	14.589	0.528
192.000	167.937	80.002	19.993	103.925	19.824	14.732	0.457
194.000	168.904	80.002	19.994	103.908	19.824	14.759	0.490
196.000	169.921	80.003	19.994	103.925	19.821	14.957	0.511
198.000	170.904	80.003	19.995	103.926	19.821	14.947	0.492
200.000	171.885	80.002	19.994	103.928	19.815	15.475	0.493
202.000	172.878	80.002	19.994	103.930	19.823	14.862	0.478
204.000	173.953	80.002	19.994	103.931	19.816	15.397	0.525
206.000	174.948	80.001	19.994	103.947	19.818	15.242	0.508
208.000	175.895	80.001	19.994	103.946	19.817	15.318	0.476
210.000	176.896	80.001	19.994	103.919	19.810	15.819	0.477
212.000	177.898	80.001	19.993	103.927	19.811	15.768	0.533
214.000	178.884	80.000	19.993	103.919	19.813	15.566	0.484
216.000	179.926	79.999	19.993	103.921	19.809	15.917	0.518
218.000	180.913	80.000	19.994	103.929	19.811	15.728	0.471
220.000	181.908	80.000	19.993	103.915	19.810	15.873	0.506
222.000	182.883	80.000	19.994	103.909	19.808	15.957	0.470
224.000	183.856	80.000	19.993	103.915	19.812	15.694	0.491
226.000	184.860	80.000	19.994	103.923	19.813	15.616	0.512
228.000	185.865	80.000	19.993	103.920	19.811	15.752	0.483
230.000	186.837	80.001	19.993	103.913	19.810	15.854	0.451
232.000	187.830	80.000	19.992	103.928	19.811	15.767	0.468
234.000	188.835	80.000	19.993	103.927	19.813	15.622	0.481
236.000	189.826	79.999	19.994	103.932	19.813	15.566	0.481
238.000	190.828	80.000	19.993	103.916	19.811	15.760	0.512
240.000	191.822	80.000	19.993	103.912	19.814	15.539	0.513
242.000	192.784	80.000	19.993	103.900	19.811	15.790	0.486
244.000	193.786	80.001	19.993	103.916	19.813	15.563	0.510
246.000	194.764	80.001	19.993	103.913	19.809	15.907	0.499
248.000	195.774	80.001	19.993	103.933	19.810	15.859	0.471
250.000	196.724	80.000	19.993	103.926	19.808	16.021	0.500
252.000	197.659	80.001	19.992	103.901	19.806	16.148	0.459
254.000	198.723	80.002	19.993	103.901	19.802	16.440	0.515
256.000	199.653	80.001	19.992	103.898	19.804	16.316	0.483
258.000	200.691	80.002	19.993	103.913	19.802	16.466	0.514
260.000	201.657	80.002	19.994	103.925	19.798	16.757	0.499
262.000	202.609	80.002	19.994	103.914	19.802	16.447	0.489
264.000	203.587	80.000	19.992	103.900	19.801	16.519	0.490
266.000	204.585	80.002	19.996	103.920	19.796	16.894	0.496
268.000	205.531	80.002	19.994	103.906	19.799	16.681	0.521
270.000	206.533	80.002	19.994	103.893	19.800	16.605	0.460
272.000	207.488	80.002	19.994	103.906	19.804	16.332	0.464
274.000	208.536	80.002	19.994	103.907	19.800	16.588	0.521
276.000	209.507	80.003	19.994	103.901	19.799	16.681	0.492
278.000	210.487	80.002	19.994	103.896	19.796	16.909	0.487
280.000	211.459	80.002	19.993	103.899	19.801	16.555	0.485
282.000	212.440	80.002	19.993	103.898	19.803	16.358	0.508
284.000	213.449	80.003	19.994	103.901	19.802	16.444	0.490
286.000	214.461	80.003	19.994	103.895	19.795	16.960	0.486
288.000	215.457	80.003	19.994	103.896	19.796	16.882	0.470
290.000	216.454	80.001	19.994	103.893	19.794	17.056	0.499
292.000	217.401	80.001	19.994	103.896	19.791	17.325	0.462
294.000	218.430	80.001	19.994	103.898	19.795	16.959	0.515
296.000	219.392	80.001	19.994	103.896	19.791	17.295	0.488
298.000	220.354	80.001	19.994	103.907	19.793	17.139	0.457
300.000	221.312	80.000	19.995	103.903	19.790	17.404	0.449
302.000	222.311	80.001	19.994	103.914	19.791	17.291	0.495
304.000	223.301	80.000	19.994	103.901	19.794	17.091	0.493
306.000	224.257	80.000	19.994	103.896	19.791	17.308	0.498
308.000	225.252	80.000	19.994	103.898	19.791	17.346	0.494
310.000	226.290	80.001	19.993	103.896	19.788	17.542	0.500
312.000	227.230	80.000	19.993	103.898	19.789	17.451	0.487
314.000	228.181	80.001	19.993	103.895	19.788	17.554	0.498
316.000	229.239	80.001	19.993	103.892	19.786	17.674	0.523
318.000	230.257	80.001	19.994	103.905	19.787	17.655	0.510
320.000	231.185	80.000	19.993	103.895	19.791	17.294	0.484
322.000	232.202	80.000	19.994	103.904	19.790	17.389	0.520
324.000	233.176	80.000	19.993	103.901	19.791	17.326	0.495
326.000	234.165	80.002	19.994	103.903	19.793	17.144	0.493
328.000	235.107	80.000	19.993	103.890	19.789	17.500	0.478
330.000	236.099	80.000	19.993	103.893	19.793	17.179	0.462
332.001	237.077	80.001	19.995	103.892	19.792	17.204	0.499
334.000	238.127	79.999	19.993	103.883	19.791	17.277	0.527
336.000	239.113	80.000	19.994	103.889	19.792	17.234	0.500
338.000	240.101	80.002	19.993	103.889	19.789	17.501	0.489
340.000	241.073	80.002	19.994	103.879	19.791	17.299	0.495
342.000	242.030	80.002	19.994	103.874	19.792	17.240	0.505
344.000	243.035	80.003	19.994	103.867	19.793	17.125	0.498
346.000	244.109	80.003	19.993	103.890	19.792	17.225	0.540
348.000	245.029	80.002	19.993	103.891	19.793	17.132	0.492
350.000	246.029	80.003	19.993	103.897	19.795	17.035	0.513
352.000	246.997	80.002	19.993	103.894	19.799	16.676	0.522
354.000	247.965	80.000	19.993	103.882	19.801	16.525	0.506
356.000	248.933	80.000	19.994	103.877	19.803	16.410	0.490
358.000	249.996	80.003	19.994	103.887	19.802	16.468	0.520
360.000	250.975	80.002	19.994	103.897	19.806	16.133	0.493
362.000	252.014	80.001	19.993	103.896	19.807	16.057	0.478
364.000	252.981	80.001	19.993	103.894	19.807	16.050	0.475
366.000	254.000	80.001	19.993	103.893	19.807	16.068	0.469
368.000	254.981	80.001	19.993	103.876	19.807	16.097	0.512
370.000	256.048	80.001	19.995	103.864	19.811	15.718	0.538
372.000	256.911	80.002	19.993	103.863	19.813	15.592	0.524
374.000	257.887	80.002	19.994	103.871	19.815	15.475	0.333
376.000	259.107	80.003	19.993	103.891	19.820	15.046	0.588
378.000	259.947	80.003	19.994	103.894	19.821	14.995	0.546
380.000	260.918	80.003	19.994	103.894	19.817	15.251	0.507
382.000	261.889	80.001	19.993	103.882	19.819	15.130	0.495
384.000	262.904	80.000	19.993	103.868	19.821	14.989	0.529
386.000	263.908	79.999	19.994	103.887	19.819	15.104	0.528
388.000	264.907	80.001	19.995	103.882	19.820	15.026	0.492
390.000	265.898	80.001	19.995	103.859	19.819	15.100	0.527
392.000	266.929	80.000	19.994	103.871	19.820	15.076	0.512
394.000	267.875	80.001	19.994	103.872	19.813	15.623	0.470
396.000	268.902	80.001	19.995	103.877	19.819	15.153	0.509
398.000	269.912	80.002	19.995	103.856	19.815	15.463	0.485
400.000	270.934	80.001	19.994	103.867	19.816	15.357	0.487
402.000	271.948	80.001	19.995	103.870	19.813	15.571	0.520
404.000	272.892	80.001	19.993	103.853	19.810	15.825	0.464
406.000	273.896	80.000	19.995	103.869	19.808	15.978	0.523
408.000	274.856	80.000	19.994	103.887	19.806	16.177	0.477
410.000	275.916	80.001	19.994	103.865	19.802	16.417	0.525
412.000	276.929	80.000	19.993	103.854	19.800	16.617	0.480
414.000	277.897	80.002	19.993	103.865	19.794	17.063	0.449
416.000	278.872	80.001	19.993	103.856	19.794	17.078	0.484
418.000	279.901	80.001	19.995	103.871	19.786	17.664	0.504
420.000	280.909	80.002	19.994	103.878	19.786	17.684	0.530
422.000	281.866	80.000	19.993	103.863	19.779	18.214	0.509
424.000	282.811	80.001	19.993	103.875	19.773	18.728	0.460
426.000	283.837	80.003	19.993	103.886	19.772	18.785	0.491
428.000	284.819	80.002	19.993	103.892	19.771	18.888	0.510
430.000	285.820	80.002	19.994	103.892	19.764	19.423	0.495
432.000	286.802	80.001	19.992	103.869	19.761	19.629	0.498
434.000	287.809	80.002	19.994	103.865	19.754	20.184	0.460
436.000	288.788	80.002	19.993	103.880	19.752	20.328	0.479
438.000	289.794	80.001	19.994	103.889	19.750	20.524	0.510
440.000	290.763	80.002	19.994	103.871	19.742	21.080	0.485
442.000	291.854	80.002	19.993	103.873	19.741	21.158	0.551
444.000	292.797	80.000	19.992	103.894	19.731	21.959	0.488
446.000	293.788	80.003	19.994	103.877	19.726	22.339	0.506
448.000	294.802	80.002	19.993	103.861	19.724	22.508	0.493
450.000	295.776	80.004	19.993	103.876	19.716	23.107	0.492
452.000	296.838	80.002	19.994	103.873	19.709	23.710	0.509
454.000	297.802	80.003	19.992	103.874	19.707	23.845	0.491
456.000	298.817	80.005	19.993	103.880	19.700	24.371	0.496
458.000	299.836	80.004	19.993	103.891	19.692	24.985	0.525
460.000	300.817	80.005	19.994	103.890	19.682	25.819	0.459
462.000	301.880	80.005	19.994	103.892	19.672	26.560	0.549
464.000	302.802	80.005	19.994	103.890	19.664	27.180	0.430
466.000	303.827	80.003	19.994	103.890	19.651	28.169	0.500
468.000	304.832	80.000	19.994	103.900	19.638	29.201	0.480
470.000	305.854	80.001	19.994	103.898	19.629	29.942	0.487
472.000	306.858	80.003	19.995	103.896	19.617	30.869	0.498
474.000	307.800	80.002	19.994	103.896	19.601	32.079	0.482
476.000	308.814	80.002	19.994	103.900	19.587	33.205	0.466
478.000	309.841	80.001	19.995	103.902	19.563	35.054	0.514
480.000	310.820	80.002	19.994	103.901	19.548	36.224	0.485
482.000	311.847	80.001	19.994	103.919	19.527	37.843	0.495
484.000	312.886	80.002	19.995	103.924	19.507	39.371	0.496
486.000	313.940	80.000	19.994	103.933	19.483	41.271	0.515
488.000	314.954	80.002	19.994	103.934	19.455	43.429	0.557
490.000	315.972	80.000	19.993	103.928	19.431	45.347	0.505
492.000	316.946	80.000	19.995	103.924	19.400	47.738	0.498
494.000	317.972	80.002	19.994	103.932	19.365	50.409	0.472
496.000	318.981	79.999	19.995	103.933	19.331	53.079	0.494
498.000	320.022	80.001	19.995	103.932	19.300	55.518	0.499
500.000	321.058	80.001	19.995	103.938	19.262	58.489	0.554
502.000	322.052	80.000	19.995	103.936	19.223	61.495	0.532
504.000	323.021	79.998	19.994	103.940	19.183	64.602	0.469
506.000	324.067	79.999	19.996	103.955	19.142	67.803	0.524
508.000	325.026	80.000	19.994	103.975	19.102	70.926	0.464
510.000	326.043	80.001	19.994	104.002	19.058	74.373	0.507
512.000	327.069	80.001	19.994	104.013	19.011	78.017	0.520
514.000	328.090	80.001	19.994	103.994	18.961	81.887	0.486
516.000	329.099	80.003	19.993	103.975	18.909	85.926	0.484
518.000	330.056	80.004	19.993	104.009	18.860	89.820	0.465
520.000	331.053	80.004	19.994	104.026	18.809	93.750	0.454
522.000	332.068	80.003	19.993	104.009	18.759	97.684	0.481
524.000	333.133	80.003	19.993	104.015	18.709	101.557	0.528
526.000	334.125	80.002	19.993	104.010	18.656	105.652	0.504
528.000	335.158	80.002	19.992	104.011	18.617	108.707	0.517
530.000	336.154	80.001	19.993	104.016	18.541	114.610	0.480
532.000	337.111	80.001	19.994	104.024	18.495	118.229	0.503
534.000	338.173	80.002	19.994	104.024	18.440	122.473	0.516
536.000	339.142	80.002	19.993	104.044	18.391	126.324	0.530
538.000	340.124	80.003	19.993	104.045	18.337	130.511	0.463
540.000	341.105	80.003	19.994	104.024	18.288	134.407	0.488
542.000	342.140	80.004	19.993	104.054	18.241	138.014	0.509
544.000	343.132	80.003	19.993	104.064	18.191	141.955	0.526
546.000	344.061	80.004	19.993	104.050	18.150	145.174	0.550
548.000	345.094	80.003	19.993	104.049	18.108	148.432	0.484
550.000	346.139	80.003	19.993	104.071	18.065	151.798	0.490
552.000	347.089	80.003	19.994	104.087	18.019	155.421	0.496
554.000	348.065	80.002	19.993	104.084	17.976	158.743	0.529
556.000	349.070	80.001	19.992	104.093	17.930	162.380	0.495
558.000	350.023	80.001	19.993	104.096	17.882	166.061	0.466
560.000	351.036	80.002	19.993	104.104	17.830	170.158	0.505
562.000	352.010	80.001	19.993	104.123	17.780	174.040	0.496
564.000	353.050	80.000	19.992	104.128	17.726	178.211	0.511
566.000	354.066	80.001	19.993	104.143	17.672	182.419	0.523
568.000	355.044	80.001	19.993	104.145	17.614	186.989	0.497
570.000	356.032	79.999	19.994	104.130	17.561	191.036	0.494
572.000	357.036	80.001	19.994	104.142	17.505	195.393	0.473
574.000	358.001	80.000	19.994	104.149	17.453	199.509	0.484
576.000	358.994	80.002	19.993	104.136	17.413	202.577	0.507
578.000	359.984	80.002	19.994	104.131	17.373	205.715	0.495
580.000	360.999	80.001	19.993	104.126	17.348	207.606	0.518
582.000	361.965	80.001	19.994	104.119	17.325	209.410	0.508
584.000	363.014	80.002	19.994	104.120	17.310	210.550	0.540
586.000	363.981	79.999	19.993	104.121	17.304	211.039	0.497
588.000	364.950	80.001	19.994	104.112	17.305	210.862	0.474
590.000	365.968	80.001	19.994	104.095	17.312	210.311	0.523
592.000	366.935	80.001	19.994	104.095	17.323	209.429	0.490
594.000	367.983	80.002	19.994	104.096	17.345	207.715	0.501
596.000	369.030	80.001	19.995	104.088	17.378	205.105	0.523
598.000	370.010	80.001	19.995	104.067	17.416	202.173	0.489
600.000	371.060	80.004	19.995	104.048	17.458	198.860	0.534
602.000	372.088	80.004	19.995	104.048	17.509	194.877	0.509
604.000	373.107	80.003	19.994	104.041	17.566	190.399	0.513
606.000	374.152	80.002	19.995	104.029	17.627	185.670	0.531
608.000	375.195	80.004	19.995	104.017	17.692	180.606	0.517
610.000	376.196	80.001	19.994	104.021	17.769	174.621	0.514
612.000	377.245	80.003	19.995	103.980	17.848	168.413	0.514
614.000	378.313	80.003	19.994	103.968	17.923	162.615	0.532
616.000	379.340	80.002	19.993	103.980	18.000	156.576	0.532
618.000	380.406	80.002	19.995	103.985	18.074	150.875	0.528
620.000	381.426	80.003	19.994	103.985	18.144	145.355	0.516
622.000	382.502	80.004	19.994	103.966	18.211	140.146	0.517
624.000	383.506	80.003	19.991	103.959	18.283	134.535	0.507
626.000	384.546	80.003	19.993	103.962	18.355	128.951	0.509
628.000	385.565	80.002	19.993	103.937	18.428	123.253	0.514
630.000	386.564	80.004	19.993	103.934	18.496	117.949	0.474
632.000	387.642	80.003	19.993	103.939	18.561	112.938	0.538
634.000	388.668	80.004	19.993	103.923	18.624	108.007	0.530
636.000	389.675	80.002	19.993	103.907	18.693	102.671	0.538
638.000	390.688	80.002	19.993	103.903	18.754	97.857	0.521
640.000	391.720	80.002	19.994	103.894	18.822	92.628	0.513
642.000	392.768	80.002	19.993	103.892	18.879	88.164	0.513
644.000	393.775	80.000	19.993	103.892	18.944	83.107	0.538
646.000	394.803	80.001	19.993	103.891	19.005	78.371	0.521
648.000	395.847	80.001	19.993	103.882	19.068	73.462	0.491
650.000	396.915	80.001	19.992	103.862	19.119	69.524	0.528
652.000	397.868	80.001	19.993	103.857	19.173	65.312	0.471
654.000	398.903	80.002	19.993	103.857	19.228	61.064	0.522
656.000	399.924	80.002	19.993	103.854	19.274	57.432	0.502
658.000	400.882	80.004	19.994	103.854	19.319	53.936	0.475
660.000	401.925	80.003	19.993	103.854	19.364	50.469	0.510
662.000	402.963	80.002	19.994	103.854	19.409	46.979	0.513
664.000	403.910	80.001	19.993	103.852	19.449	43.840	0.472
666.000	404.907	80.003	19.994	103.848	19.489	40.743	0.500
668.000	405.892	80.004	19.994	103.841	19.523	38.143	0.498
670.000	406.905	80.002	19.994	103.840	19.553	35.722	0.508
672.000	407.893	80.002	19.994	103.828	19.580	33.712	0.470
674.000	408.877	80.001	19.994	103.835	19.609	31.429	0.472
676.000	409.895	80.002	19.994	103.847	19.627	30.023	0.505
678.000	410.910	80.000	19.995	103.845	19.653	27.982	0.470
680.000	411.973	80.002	19.994	103.802	19.673	26.450	0.498
682.000	412.904	80.003	19.994	103.747	19.693	24.922	0.495
684.000	413.903	79.999	19.994	103.906	19.716	23.137	0.492
686.000	414.872	80.004	19.994	103.832	19.724	22.510	0.492
688.000	415.882	80.003	19.993	103.821	19.738	21.380	0.496
690.000	416.849	80.004	19.993	103.822	19.752	20.302	0.471
692.000	417.890	80.002	19.994	103.828	19.766	19.200	0.499
694.000	418.895	80.003	19.994	103.821	19.775	18.544	0.545
696.000	419.889	80.001	19.994	103.823	19.785	17.760	0.498
698.000	420.929	80.002	19.995	103.834	19.794	17.099	0.532
700.000	421.867	80.003	19.994	103.823	19.801	16.543	0.481
702.000	422.851	80.001	19.994	103.822	19.801	16.484	0.503
704.000	423.875	80.001	19.995	103.816	19.812	15.660	0.510
706.000	424.861	80.001	19.994	103.832	19.818	15.223	0.479
708.000	425.831	80.002	19.993	103.838	19.820	15.011	0.456
710.000	426.811	80.003	19.993	103.819	19.820	15.006	0.497
712.000	427.839	80.001	19.995	103.818	19.825	14.686	0.496
714.000	428.806	80.005	19.993	103.820	19.830	14.275	0.506
716.000	429.803	80.004	19.992	103.821	19.833	14.071	0.511
718.000	430.810	80.004	19.993	103.823	19.832	14.097	0.507
720.000	431.780	80.007	19.992	103.831	19.837	13.724	0.464
722.000	432.807	80.004	19.993	103.820	19.838	13.681	0.483
724.000	433.840	80.003	19.993	103.824	19.837	13.718	0.509
726.000	434.826	80.004	19.994	103.819	19.838	13.654	0.479
728.000	435.876	80.001	19.992	103.825	19.838	13.632	0.512
730.000	436.917	80.003	19.993	103.817	19.839	13.557	0.504
732.000	437.892	80.002	19.993	103.828	19.841	13.405	0.505
734.000	438.902	80.002	19.993	103.817	19.847	12.969	0.492
736.000	439.918	80.003	19.994	103.834	19.850	12.706	0.515
738.000	440.930	80.002	19.993	103.836	19.843	13.266	0.484
740.000	441.967	80.004	19.993	103.825	19.847	12.975	0.540
742.000	442.933	80.002	19.993	103.829	19.846	13.050	0.482
744.000	443.952	80.003	19.992	103.815	19.846	13.040	0.494
746.000	444.939	80.001	19.993	103.822	19.848	12.890	0.489
748.000	446.026	80.003	19.994	103.757	19.848	12.887	0.535
750.000	446.967	80.002	19.993	103.789	19.846	13.023	0.507
752.000	447.959	80.003	19.994	103.901	19.844	13.178	0.523
754.000	448.992	80.002	19.994	103.824	19.847	12.932	0.516
756.000	450.006	80.002	19.993	103.820	19.842	13.305	0.529
758.000	450.997	80.003	19.992	103.761	19.846	13.045	0.499
760.000	452.025	80.002	19.993	103.823	19.850	12.719	0.501
762.000	453.034	80.001	19.993	103.896	19.851	12.656	0.501
764.000	454.039	80.001	19.994	103.820	19.850	12.712	0.521
766.000	455.018	80.002	19.993	103.832	19.851	12.660	0.518
768.000	455.984	80.002	19.994	103.839	19.852	12.521	0.492
770.000	457.017	80.002	19.994	103.822	19.848	12.843	0.485
772.000	458.023	80.004	19.994	103.820	19.850	12.683	0.543
774.000	458.999	80.003	19.994	103.818	19.849	12.814	0.534
776.000	460.017	80.003	19.993	103.817	19.848	12.876	0.500
778.000	460.973	80.003	19.993	103.822	19.848	12.835	0.467
780.000	461.929	80.003	19.993	103.832	19.845	13.083	0.472
782.000	462.948	80.002	19.994	103.825	19.846	12.994	0.499
784.000	463.896	80.003	19.994	103.831	19.844	13.175	0.484
786.001	464.856	80.002	19.994	103.848	19.848	12.879	0.489
788.000	465.863	80.002	19.994	103.835	19.848	12.905	0.500
790.000	466.809	80.003	19.993	103.827	19.843	13.228	0.465
792.000	467.788	80.003	19.994	103.832	19.844	13.164	0.500
794.000	468.779	80.002	19.994	103.833	19.847	12.970	0.512
796.000	469.750	80.003	19.994	103.827	19.849	12.745	0.489
798.000	470.745	80.005	19.994	103.832	19.849	12.798	0.473
800.000	471.778	80.004	19.995	103.813	19.847	12.953	0.536
802.000	472.706	80.003	19.994	103.819	19.845	13.136	0.492
804.000	473.710	80.003	19.993	103.819	19.842	13.311	0.503
806.000	474.721	80.004	19.995	103.821	19.843	13.264	0.513
808.000	475.735	80.003	19.993	103.742	19.844	13.142	0.495
810.000	476.754	80.003	19.994	103.824	19.844	13.199	0.520
812.000	477.763	80.003	19.993	103.880	19.845	13.075	0.476
814.000	478.750	80.002	19.993	103.824	19.847	12.971	0.480
816.000	479.681	80.003	19.994	103.819	19.844	13.170	0.474
818.000	480.735	80.003	19.994	103.829	19.847	12.918	0.479
820.000	481.710	80.003	19.993	103.825	19.846	12.999	0.491
822.000	482.761	80.001	19.993	103.820	19.847	12.956	0.503
824.000	483.718	80.002	19.994	103.826	19.849	12.775	0.488
826.000	484.752	80.001	19.994	103.820	19.848	12.902	0.505
828.000	485.757	80.001	19.993	103.818	19.851	12.645	0.508
830.000	486.748	80.002	19.992	103.818	19.851	12.656	0.496
832.000	487.699	80.002	19.993	103.821	19.849	12.779	0.480
834.000	488.779	80.002	19.993	103.829	19.842	13.328	0.510
836.000	489.789	80.001	19.993	103.833	19.848	12.862	0.496
838.000	490.791	80.002	19.994	103.820	19.851	12.636	0.493
840.000	491.811	80.000	19.993	103.820	19.849	12.769	0.510
842.000	492.871	80.002	19.994	103.820	19.848	12.837	0.588
844.000	493.908	80.001	19.993	103.835	19.849	12.813	0.539
846.000	494.896	80.002	19.994	103.821	19.847	12.959	0.475
848.000	495.908	80.001	19.991	103.848	19.847	12.978	0.502
850.000	496.918	80.001	19.993	103.840	19.844	13.165	0.521
852.000	497.954	80.004	19.993	103.840	19.846	13.003	0.539
854.000	498.972	80.004	19.993	103.829	19.845	13.133	0.493
856.000	500.034	80.005	19.993	103.824	19.840	13.487	0.551
858.000	501.074	80.005	19.993	103.834	19.841	13.407	0.551
860.000	502.093	80.005	19.994	103.819	19.837	13.754	0.497
862.000	503.122	80.005	19.993	103.817	19.839	13.534	0.550
864.000	504.135	80.002	19.992	103.829	19.842	13.308	0.511
866.000	505.163	80.003	19.994	103.838	19.842	13.324	0.515
868.000	506.164	80.002	19.994	103.827	19.841	13.381	0.486
870.000	507.199	80.004	19.994	103.822	19.837	13.709	0.527
872.000	508.259	80.003	19.994	103.820	19.838	13.640	0.517
874.000	509.221	80.003	19.994	103.827	19.841	13.396	0.510
876.000	510.257	80.004	19.994	103.840	19.842	13.370	0.517
878.000	511.298	80.004	19.994	103.828	19.841	13.438	0.514
880.000	512.320	80.003	19.994	103.825	19.837	13.688	0.471
882.000	513.326	80.005	19.993	103.830	19.838	13.658	0.510
884.000	514.415	80.005	19.993	103.828	19.838	13.655	0.551
886.000	515.420	80.006	19.994	103.819	19.839	13.567	0.504
888.000	516.516	80.005	19.994	103.834	19.835	13.912	0.532
890.000	517.552	80.005	19.993	103.824	19.836	13.788	0.496
892.000	518.544	80.005	19.994	103.817	19.836	13.812	0.524
894.000	519.605	80.003	19.993	103.827	19.837	13.704	0.524
896.000	520.681	80.002	19.994	103.833	19.834	13.949	0.570
898.000	521.727	80.002	19.995	103.844	19.836	13.810	0.540
900.000	522.788	80.002	19.995	103.832	19.833	14.058	0.556
902.000	523.812	80.002	19.995	103.826	19.831	14.182	0.513
904.000	524.885	80.001	19.995	103.843	19.832	14.099	0.494
906.000	525.887	80.000	19.995	103.822	19.827	14.517	0.499
908.000	526.944	80.001	19.994	103.818	19.833	14.068	0.525
910.000	528.002	80.002	19.995	103.819	19.833	14.010	0.523
912.000	529.039	80.003	19.995	103.836	19.831	14.171	0.484
914.000	530.084	80.002	19.993	103.837	19.838	13.681	0.516
916.000	531.082	80.003	19.993	103.817	19.832	14.110	0.508
918.000	532.128	80.004	19.993	103.819	19.830	14.285	0.567
920.000	533.185	80.003	19.993	103.820	19.830	14.303	0.504
922.000	534.198	80.002	19.993	103.825	19.827	14.527	0.503
924.000	535.211	80.001	19.992	103.826	19.824	14.762	0.521
926.000	536.231	80.001	19.994	103.831	19.825	14.637	0.516
928.000	537.337	80.002	19.994	103.819	19.826	14.549	0.546
930.000	538.326	80.004	19.993	103.819	19.821	14.955	0.518
932.000	539.362	80.002	19.992	103.829	19.824	14.697	0.515
934.000	540.408	80.001	19.993	103.821	19.828	14.430	0.512
936.000	541.424	80.001	19.996	103.831	19.826	14.539	0.524
938.000	542.470	80.003	19.994	103.842	19.829	14.384	0.523
940.000	543.525	80.003	19.994	103.834	19.828	14.420	0.513
942.000	544.598	80.003	19.995	103.828	19.828	14.435	0.558
944.000	545.673	80.006	19.992	103.816	19.827	14.484	0.534
946.000	546.724	80.005	19.993	103.817	19.827	14.493	0.514
948.000	547.861	80.006	19.994	103.839	19.829	14.323	0.558
950.000	548.949	80.005	19.992	103.829	19.826	14.548	0.533
952.000	550.087	80.005	19.996	103.800	19.828	14.394	0.579
954.000	551.167	80.006	19.994	103.839	19.825	14.657	0.561
956.000	552.221	80.004	19.992	103.835	19.825	14.623	0.523
958.000	553.326	80.003	19.993	103.826	19.825	14.674	0.537
960.000	554.451	80.004	19.992	103.831	19.826	14.557	0.516
962.000	555.583	80.004	19.994	103.831	19.825	14.688	0.596
964.000	556.606	80.003	19.995	103.818	19.823	14.821	0.525
966.000	557.721	80.006	19.994	103.816	19.826	14.616	0.562
968.000	558.801	80.002	19.992	103.822	19.823	14.782	0.521
970.000	559.910	80.004	19.994	103.827	19.822	14.917	0.555
972.000	560.994	80.005	19.993	103.817	19.825	14.647	0.533
974.000	562.076	80.006	19.994	103.821	19.822	14.898	0.563
976.000	563.178	80.005	19.995	103.826	19.827	14.474	0.533
978.000	564.212	80.004	19.994	103.837	19.826	14.580	0.520
980.000	565.316	80.003	19.994	103.847	19.825	14.650	0.520
982.000	566.443	80.002	19.992	103.845	19.831	14.203	0.549
984.000	567.511	80.001	19.994	103.842	19.825	14.621	0.522
986.000	568.666	80.002	19.991	103.825	19.821	15.000	0.582
988.000	569.726	80.001	19.994	103.821	19.823	14.806	0.542
990.000	570.906	80.003	19.994	103.821	19.820	15.050	0.524
992.000	572.018	80.003	19.993	103.776	19.821	14.999	0.574
994.000	573.121	80.002	19.994	103.795	19.819	15.143	0.567
996.000	574.275	80.003	19.995	103.887	19.824	14.750	0.603
998.000	575.438	80.001	19.996	103.902	19.823	14.790	0.577
1000.000	576.522	80.003	19.995	103.821	19.821	14.973	0.582
1002.000	577.586	80.001	19.996	103.814	19.818	15.217	0.511
1004.000	578.746	80.001	19.995	103.832	19.820	15.023	0.593
1006.000	579.862	80.003	19.995	103.824	19.823	14.835	0.545
1008.000	580.973	80.002	19.994	103.831	19.824	14.741	0.565
1010.000	582.116	80.002	19.995	103.836	19.823	14.801	0.580
1012.000	583.189	80.002	19.995	103.845	19.823	14.796	0.578
1014.000	584.252	80.004	19.995	103.843	19.819	15.119	0.526
1016.000	585.323	80.003	19.994	103.841	19.814	15.547	0.515
1018.000	586.502	80.004	19.994	103.837	19.816	15.317	0.587
1020.000	587.567	80.003	19.996	103.817	19.819	15.158	0.559
1022.000	588.620	80.004	19.994	103.816	19.814	15.528	0.537
1024.000	589.698	80.003	19.995	103.813	19.812	15.661	0.536
1026.000	590.782	80.004	19.992	103.812	19.820	15.080	0.518
1027.999	591.855	80.005	19.994	103.824	19.815	15.419	0.541
1030.000	592.912	80.004	19.993	103.816	19.816	15.329	0.506
1031.999	593.977	80.004	19.994	103.832	19.815	15.436	0.575
1034.000	595.105	80.006	19.993	103.847	19.819	15.140	0.520
1035.999	596.167	80.008	19.993	103.851	19.818	15.176	0.524
1037.999	597.225	80.004	19.993	103.835	19.823	14.836	0.533
1039.999	598.303	80.003	19.993	103.843	19.820	15.063	0.563
1041.999	599.346	80.003	19.993	103.825	19.811	15.712	0.495
1044.000	600.384	80.003	19.992	103.831	19.816	15.358	0.528
1045.999	601.408	80.003	19.994	103.818	19.812	15.655	0.525
1047.999	602.462	80.003	19.993	103.817	19.816	15.341	0.491
1049.999	603.502	80.005	19.993	103.818	19.818	15.174	0.513
1051.999	604.491	80.005	19.993	103.819	19.819	15.134	0.485
1053.999	605.506	80.007	19.992	103.816	19.822	14.894	0.525
1055.999	606.495	80.006	19.993	103.815	19.814	15.473	0.481
1057.999	607.510	80.008	19.994	103.816	19.818	15.204	0.483
1059.999	608.511	80.005	19.992	103.817	19.812	15.649	0.487
1061.999	609.521	80.006	19.993	103.818	19.813	15.622	0.540
1064.000	610.527	80.005	19.993	103.813	19.814	15.520	0.499
1065.999	611.582	80.005	19.993	103.815	19.815	15.442	0.518
1067.999	612.548	80.003	19.994	103.816	19.818	15.191	0.489
1069.999	613.530	80.003	19.994	103.816	19.817	15.310	0.474
1071.999	614.605	80.002	19.995	103.829	19.812	15.657	0.546
1073.999	615.543	80.002	19.994	103.818	19.815	15.402	0.516
1075.999	616.581	80.003	19.994	103.813	19.809	15.885	0.524
1077.999	617.566	80.003	19.994	103.814	19.808	15.944	0.522
1079.999	618.576	80.004	19.994	103.815	19.815	15.434	0.501
1081.999	619.553	80.003	19.995	103.815	19.814	15.547	0.503
1083.999	620.560	80.003	19.994	103.815	19.815	15.412	0.498
1085.999	621.572	80.004	19.994	103.817	19.815	15.457	0.517
1087.999	622.510	80.004	19.993	103.815	19.817	15.306	0.463
1089.999	623.566	80.002	19.993	103.833	19.816	15.367	0.518
1091.999	624.540	80.004	19.994	103.821	19.815	15.430	0.463
1093.999	625.543	80.002	19.994	103.816	19.814	15.520	0.489
1095.999	626.574	80.004	19.993	103.813	19.816	15.358	0.519
1098.000	627.598	80.002	19.993	103.816	19.815	15.397	0.521
1100.000	628.612	80.002	19.996	103.821	19.814	15.495	0.540
1101.999	629.588	80.001	19.995	103.821	19.810	15.834	0.497
1104.000	630.666	80.001	19.994	103.823	19.815	15.428	0.502
1105.999	631.665	80.003	19.994	103.837	19.814	15.545	0.504
1107.999	632.655	80.002	19.994	103.841	19.816	15.360	0.520
1110.000	633.722	80.002	19.994	103.823	19.814	15.543	0.558
1111.999	634.700	80.003	19.994	103.817	19.810	15.785	0.517
1114.000	635.748	80.004	19.994	103.823	19.813	15.557	0.532
1115.999	636.775	80.005	19.994	103.818	19.811	15.707	0.512
1117.999	637.749	80.004	19.993	103.817	19.810	15.827	0.521
1119.999	638.826	80.004	19.992	103.818	19.803	16.362	0.534
1121.999	639.793	80.003	19.994	103.818	19.812	15.655	0.526
1123.999	640.797	80.004	19.992	103.811	19.815	15.455	0.512
1126.000	641.844	80.003	19.993	103.818	19.814	15.529	0.496
1127.999	642.804	80.006	19.993	103.817	19.815	15.408	0.479
1130.000	643.788	80.003	19.993	103.817	19.808	15.943	0.500
1131.999	644.792	80.004	19.993	103.816	19.810	15.848	0.491
1134.000	645.786	80.005	19.994	103.813	19.812	15.644	0.509
1135.999	646.796	80.004	19.993	103.814	19.807	16.074	0.478
1138.000	647.825	80.005	19.993	103.815	19.812	15.659	0.523
1139.999	648.829	80.006	19.993	103.813	19.811	15.763	0.543
1141.999	649.904	80.006	19.994	103.812	19.808	15.983	0.542
1143.999	650.884	80.005	19.992	103.814	19.811	15.723	0.490
1145.999	651.909	80.004	19.993	103.816	19.810	15.805	0.510
1147.999	652.975	80.006	19.993	103.814	19.809	15.928	0.526
1149.999	654.043	80.004	19.993	103.814	19.809	15.887	0.550
1151.999	655.073	80.004	19.992	103.817	19.809	15.883	0.525
1153.999	656.110	80.003	19.993	103.830	19.806	16.101	0.544
1155.999	657.109	80.005	19.994	103.819	19.809	15.888	0.507
1157.999	658.237	80.004	19.993	103.816	19.809	15.916	0.520
1159.999	659.291	80.004	19.996	103.815	19.807	16.031	0.519
1161.999	660.331	80.003	19.992	103.816	19.803	16.371	0.513
1164.000	661.387	80.003	19.992	103.820	19.807	16.084	0.511
1166.000	662.476	80.005	19.994	103.823	19.806	16.164	0.526
1167.999	663.487	80.003	19.994	103.821	19.801	16.483	0.480
1170.000	664.533	80.002	19.994	103.818	19.806	16.128	0.529
1171.999	665.613	80.004	19.994	103.818	19.802	16.415	0.585
1173.999	666.613	80.003	19.995	103.816	19.803	16.368	0.493
1175.999	667.654	80.004	19.993	103.811	19.802	16.463	0.464
1177.999	668.693	80.004	19.994	103.814	19.797	16.838	0.531
1179.999	669.693	80.004	19.994	103.812	19.807	16.062	0.494
1182.000	670.721	80.004	19.993	103.816	19.804	16.256	0.531
1184.000	671.828	80.002	19.995	103.826	19.807	16.038	0.513
1185.999	672.852	80.001	19.994	103.814	19.807	16.033	0.522
1188.000	673.866	80.001	19.994	103.849	19.802	16.460	0.526
1189.999	674.916	80.002	19.993	103.856	19.800	16.608	0.504
1191.999	675.924	80.002	19.993	103.783	19.804	16.282	0.495
1193.999	676.955	80.004	19.994	103.806	19.801	16.551	0.501
1196.000	678.033	80.003	19.994	103.850	19.805	16.218	0.525
1198.000	679.021	80.004	19.995	103.827	19.801	16.518	0.500
1200.000	680.080	80.004	19.995	103.802	19.804	16.277	0.524
1201.999	681.096	80.006	19.995	103.821	19.805	16.175	0.507
1203.999	682.167	80.005	19.994	103.816	19.799	16.672	0.550
1205.999	683.161	80.004	19.995	103.805	19.804	16.273	0.535
1207.999	684.176	80.004	19.995	103.810	19.805	16.189	0.510
1209.999	685.231	80.004	19.995	103.812	19.799	16.642	0.516
1211.999	686.230	80.004	19.994	103.812	19.800	16.569	0.484
1213.999	687.288	80.004	19.995	103.814	19.799	16.670	0.525
1215.999	688.273	80.005	19.995	103.815	19.805	16.186	0.505
1218.000	689.282	80.005	19.993	103.836	19.803	16.328	0.523
1219.999	690.273	80.005	19.993	103.818	19.803	16.382	0.509
1221.999	691.266	80.006	19.994	103.812	19.800	16.561	0.500
1224.000	692.224	80.005	19.992	103.804	19.802	16.431	0.476
1225.999	693.220	80.006	19.994	103.808	19.798	16.741	0.506
1227.999	694.142	80.007	19.993	103.801	19.799	16.708	0.456
1230.000	695.148	80.006	19.992	103.814	19.803	16.336	0.515
1231.999	696.130	80.004	19.993	103.804	19.802	16.473	0.462
1233.999	697.057	80.004	19.994	103.809	19.803	16.385	0.465
1235.999	698.015	80.005	19.994	103.821	19.795	17.007	0.480
1237.999	698.999	80.003	19.994	103.812	19.799	16.653	0.489
1239.999	699.956	80.003	19.993	103.801	19.797	16.832	0.455
1242.000	700.918	80.002	19.994	103.811	19.800	16.581	0.517
1243.999	701.928	80.004	19.994	103.783	19.796	16.907	0.490
1246.000	702.839	80.002	19.994	103.816	19.796	16.892	0.470
1248.000	703.842	80.003	19.993	103.813	19.798	16.781	0.510
1249.999	704.922	80.001	19.993	103.793	19.795	16.957	0.617
1251.999	705.818	80.002	19.993	103.804	19.798	16.753	0.437
1253.999	706.802	80.003	19.994	103.816	19.796	16.940	0.492
1256.000	707.802	80.003	19.993	103.819	19.798	16.733	0.498
1257.999	708.803	80.004	19.993	103.818	19.797	16.839	0.465
1259.999	709.874	80.004	19.993	103.816	19.796	16.883	0.502
1261.999	710.853	80.003	19.994	103.811	19.796	16.924	0.492
1263.999	711.838	80.003	19.994	103.804	19.795	16.989	0.492
1265.999	712.838	80.003	19.993	103.812	19.793	17.174	0.472
1267.999	713.849	80.003	19.994	103.814	19.799	16.705	0.489
1269.999	714.884	80.003	19.993	103.814	19.794	17.048	0.499
1272.000	715.938	80.004	19.994	103.819	19.796	16.894	0.522
1274.000	716.953	80.003	19.993	103.816	19.794	17.050	0.529
1276.000	717.967	80.003	19.995	103.818	19.795	17.020	0.534
1277.999	718.951	80.003	19.995	103.814	19.795	17.019	0.495
1279.999	720.015	80.004	19.994	103.815	19.793	17.145	0.511
1281.999	721.033	80.005	19.993	103.822	19.792	17.234	0.518
1284.000	722.082	80.003	19.992	103.818	19.790	17.368	0.526
1285.999	723.120	80.005	19.994	103.828	19.791	17.320	0.518
1288.000	724.128	80.006	19.994	103.811	19.793	17.171	0.505
1289.999	725.195	80.005	19.994	103.814	19.789	17.420	0.519
1291.999	726.203	80.005	19.993	103.761	19.790	17.334	0.513
1293.999	727.293	80.004	19.994	103.778	19.793	17.158	0.557
1295.999	728.292	80.004	19.994	103.899	19.788	17.520	0.547
1297.999	729.366	80.003	19.994	103.821	19.789	17.475	0.556
1299.999	730.427	80.005	19.994	103.815	19.792	17.186	0.556
1301.999	731.489	80.003	19.995	103.815	19.786	17.695	0.534
1303.999	732.584	80.004	19.994	103.814	19.791	17.257	0.549
1306.000	733.658	80.002	19.994	103.814	19.793	17.169	0.547
1308.000	734.720	80.005	19.994	103.814	19.796	16.928	0.513
1309.999	735.715	80.004	19.993	103.817	19.792	17.190	0.496
1311.999	736.759	80.005	19.993	103.814	19.790	17.369	0.504
1313.999	737.811	80.005	19.993	103.810	19.788	17.542	0.547
1315.999	738.950	80.006	19.993	103.814	19.789	17.471	0.526
1317.999	740.020	80.005	19.993	103.817	19.785	17.748	0.533
1320.001	741.063	80.004	19.993	103.812	19.787	17.625	0.543
1322.000	742.144	80.002	19.993	103.814	19.787	17.644	0.562
1323.999	743.161	80.004	19.993	103.817	19.789	17.429	0.494