File: 01_Data/Black_PMMA/MCC/Black_PMMA_MCC_30K_min_220325_R1.txt
Sample ID:	C:\MCC\MCC Cal\Test\Black_PMMA_MCC_30K_min_220325_R1.txt
Sample Weight (mg):	4.35
Heating Rate (C/s):	0.5
Combustor Temp (C):	900
N2 Flow Rate (cc/min):	80
O2 Flow Rate (cc/min):	20
Calibration File:	C:\MCC\MCC Cal\Coeff1 JN10440_30_210304.txt.txt
T Correction Coefficients:	0	1.024463	0
Time Shift (s):	14
*
Time (s)	Temperature (C)	N2 flow rate (cc/min)	O2 flow rate (cc/min)	Flow Rate (cc/min)	Oxygen (%)	HRR (W/g)	Heating rate (C/s)
0.000	109.421	79.998	19.993	103.667	19.963	-0.091	0.022
2.000	109.409	80.003	19.995	103.655	19.963	-0.044	0.009
4.000	109.404	80.002	19.995	103.662	19.967	-0.345	-0.015
6.000	109.414	80.003	19.995	103.670	19.966	-0.297	-0.001
8.000	109.406	80.002	19.994	103.676	19.964	-0.183	0.022
10.001	109.443	80.004	19.994	103.691	19.962	-0.015	-0.001
12.000	109.470	80.004	19.995	103.705	19.955	0.505	0.013
14.000	109.471	80.002	19.995	103.726	19.947	1.115	0.010
16.000	109.579	80.004	19.994	103.781	19.950	0.922	0.065
18.000	109.638	80.001	19.993	103.815	19.947	1.138	0.074
20.000	109.781	80.000	19.994	103.818	19.939	1.687	0.061
22.000	109.908	80.002	19.995	103.752	19.938	1.783	0.090
24.000	110.071	80.003	19.996	103.810	19.936	1.907	0.077
26.000	110.278	80.002	19.995	103.922	19.934	2.095	0.116
28.000	110.450	80.002	19.995	103.854	19.933	2.168	0.129
30.000	110.731	80.002	19.995	103.871	19.931	2.345	0.126
32.001	111.017	80.003	19.995	103.869	19.932	2.222	0.153
34.000	111.326	80.003	19.994	103.854	19.930	2.360	0.159
36.000	111.661	80.003	19.995	103.868	19.929	2.451	0.179
38.000	112.055	80.003	19.993	103.883	19.931	2.343	0.191
40.000	112.398	80.003	19.995	103.878	19.926	2.718	0.175
42.000	112.804	80.001	19.993	103.896	19.925	2.737	0.182
44.000	113.290	80.001	19.994	103.897	19.929	2.462	0.237
46.000	113.806	80.001	19.994	103.897	19.925	2.743	0.257
48.000	114.226	80.001	19.994	103.892	19.920	3.118	0.216
50.000	114.810	80.001	19.994	103.900	19.926	2.658	0.262
52.000	115.283	80.002	19.994	103.908	19.922	2.965	0.252
54.001	115.877	80.000	19.995	103.927	19.919	3.188	0.298
56.000	116.397	80.001	19.995	103.874	19.924	2.820	0.301
58.000	117.048	80.002	19.994	103.890	19.922	2.957	0.300
60.000	117.649	80.001	19.994	104.002	19.920	3.114	0.330
62.000	118.308	80.001	19.993	103.913	19.920	3.147	0.324
64.000	118.992	80.002	19.993	103.905	19.923	2.907	0.324
66.001	119.680	80.002	19.994	103.904	19.920	3.155	0.359
68.000	120.386	80.002	19.993	103.912	19.924	2.862	0.348
70.000	121.092	80.001	19.994	103.926	19.924	2.854	0.355
72.000	121.818	80.002	19.994	103.923	19.919	3.237	0.373
74.000	122.582	80.000	19.993	103.928	19.915	3.542	0.397
76.001	123.348	80.001	19.994	103.919	19.915	3.496	0.396
78.001	124.137	80.000	19.993	103.920	19.918	3.289	0.400
80.000	124.886	80.003	19.995	103.945	19.923	2.933	0.376
82.000	125.701	80.002	19.994	103.948	19.920	3.118	0.409
84.001	126.526	80.001	19.994	103.933	19.923	2.931	0.388
86.001	127.331	80.002	19.995	103.910	19.918	3.297	0.380
88.000	128.157	80.001	19.994	103.933	19.917	3.376	0.417
90.000	129.040	80.004	19.994	103.932	19.920	3.151	0.444
92.001	129.895	80.002	19.994	103.932	19.916	3.405	0.444
94.000	130.775	80.002	19.996	103.932	19.915	3.535	0.401
96.000	131.607	80.002	19.993	103.930	19.922	2.976	0.425
98.000	132.497	80.003	19.995	103.937	19.919	3.231	0.437
100.000	133.421	80.001	19.993	103.927	19.919	3.177	0.463
102.000	134.290	80.001	19.994	103.932	19.915	3.474	0.454
104.000	135.212	80.004	19.994	103.941	19.917	3.366	0.441
106.001	136.104	80.001	19.994	103.938	19.919	3.193	0.456
108.000	137.054	80.002	19.994	103.922	19.924	2.837	0.502
110.000	138.018	80.003	19.994	103.939	19.915	3.524	0.472
112.000	138.973	80.003	19.994	103.926	19.922	2.985	0.483
114.000	139.894	80.002	19.995	103.918	19.913	3.678	0.445
116.000	140.820	80.001	19.994	103.923	19.912	3.717	0.436
118.000	141.810	80.000	19.994	103.926	19.911	3.815	0.493
120.000	142.727	79.999	19.995	103.935	19.906	4.186	0.482
122.000	143.764	80.001	19.996	103.925	19.910	3.871	0.476
124.000	144.686	79.999	19.994	103.937	19.902	4.465	0.467
126.000	145.685	80.000	19.994	103.859	19.900	4.587	0.506
128.000	146.652	80.000	19.994	103.899	19.899	4.722	0.504
130.000	147.618	80.000	19.993	104.000	19.903	4.419	0.501
132.000	148.626	80.001	19.994	103.932	19.898	4.784	0.505
134.000	149.570	80.001	19.993	103.931	19.901	4.512	0.468
136.000	150.574	80.002	19.995	103.938	19.898	4.770	0.478
138.000	151.533	80.001	19.992	103.917	19.894	5.070	0.470
140.000	152.530	80.000	19.993	103.929	19.896	4.943	0.502
142.000	153.504	80.001	19.993	103.913	19.898	4.774	0.455
144.000	154.483	80.000	19.994	103.910	19.893	5.136	0.503
146.000	155.474	80.000	19.995	103.917	19.889	5.477	0.471
148.000	156.511	80.001	19.994	103.917	19.884	5.800	0.512
150.000	157.476	80.000	19.994	103.922	19.884	5.779	0.519
152.000	158.471	80.000	19.994	103.912	19.883	5.901	0.493
154.000	159.464	79.998	19.995	103.907	19.881	6.041	0.518
156.000	160.442	80.001	19.995	103.907	19.876	6.430	0.520
158.000	161.433	80.001	19.994	103.908	19.875	6.468	0.493
160.000	162.455	80.002	19.995	103.905	19.869	6.909	0.469
162.000	163.449	80.001	19.994	103.902	19.867	7.117	0.504
164.000	164.419	80.003	19.994	103.902	19.865	7.262	0.496
166.000	165.442	80.003	19.994	103.908	19.864	7.321	0.471
168.000	166.478	80.003	19.994	103.907	19.855	7.982	0.540
170.000	167.458	80.002	19.993	103.903	19.853	8.134	0.484
172.000	168.440	80.002	19.994	103.902	19.854	8.043	0.508
174.000	169.417	80.001	19.994	103.901	19.852	8.227	0.493
176.000	170.415	80.000	19.994	103.901	19.846	8.625	0.495
178.000	171.380	80.001	19.995	103.902	19.847	8.549	0.505
180.000	172.367	80.002	19.995	103.902	19.845	8.738	0.493
182.000	173.372	80.001	19.993	103.901	19.849	8.400	0.477
184.000	174.316	80.001	19.994	103.896	19.848	8.512	0.481
186.000	175.325	80.001	19.994	103.896	19.849	8.427	0.489
188.000	176.310	80.001	19.994	103.903	19.847	8.575	0.479
190.000	177.288	80.003	19.994	103.910	19.843	8.895	0.473
192.000	178.280	80.003	19.994	103.898	19.840	9.107	0.509
194.000	179.298	80.003	19.993	103.891	19.841	9.038	0.500
196.000	180.247	80.003	19.994	103.895	19.841	9.019	0.500
198.000	181.303	80.001	19.993	103.898	19.842	8.935	0.526
200.000	182.278	80.001	19.994	103.897	19.840	9.104	0.498
202.000	183.235	80.000	19.995	103.884	19.843	8.851	0.474
204.000	184.183	79.999	19.995	103.891	19.840	9.089	0.484
206.000	185.136	80.001	19.995	103.882	19.843	8.866	0.491
208.001	186.163	80.000	19.996	103.895	19.845	8.748	0.466
210.000	187.190	80.001	19.996	103.883	19.844	8.764	0.516
212.001	188.174	80.001	19.994	103.887	19.845	8.716	0.496
214.001	189.104	80.000	19.995	103.899	19.847	8.574	0.450
216.000	190.106	80.001	19.995	103.896	19.845	8.724	0.498
218.000	191.107	80.000	19.995	103.896	19.843	8.852	0.479
220.000	192.098	80.000	19.994	103.897	19.841	9.041	0.490
222.000	193.104	80.001	19.995	103.890	19.845	8.730	0.526
224.000	194.069	80.001	19.994	103.870	19.845	8.721	0.489
226.000	195.045	80.001	19.994	103.905	19.843	8.848	0.491
228.000	196.015	79.998	19.995	103.913	19.844	8.765	0.496
230.000	196.977	80.000	19.994	103.900	19.844	8.830	0.481
232.000	197.971	79.999	19.993	103.893	19.842	8.925	0.505
234.000	198.966	80.000	19.994	103.884	19.846	8.630	0.504
236.000	199.949	80.000	19.994	103.884	19.843	8.851	0.503
238.000	200.925	79.999	19.994	103.879	19.841	9.044	0.491
240.000	201.892	80.000	19.994	103.884	19.840	9.104	0.521
242.000	202.934	80.002	19.994	103.891	19.838	9.227	0.518
244.000	203.882	80.003	19.994	103.873	19.833	9.605	0.476
246.000	204.904	80.004	19.994	103.880	19.836	9.409	0.508
248.000	205.883	80.003	19.994	103.870	19.835	9.432	0.499
250.000	206.904	80.002	19.994	103.896	19.835	9.493	0.500
252.001	207.905	79.999	19.993	103.902	19.835	9.429	0.521
254.000	208.854	80.001	19.994	103.902	19.834	9.552	0.488
256.000	209.839	80.001	19.994	103.891	19.833	9.619	0.466
258.000	210.837	80.001	19.992	103.858	19.831	9.735	0.471
260.000	211.820	80.002	19.994	103.877	19.832	9.717	0.469
262.000	212.842	80.002	19.994	103.864	19.833	9.606	0.536
264.000	213.809	80.001	19.994	103.866	19.831	9.757	0.489
266.000	214.832	80.003	19.995	103.858	19.831	9.756	0.504
268.000	215.833	80.003	19.994	103.876	19.836	9.398	0.498
270.000	216.836	80.004	19.994	103.879	19.831	9.746	0.521
272.000	217.831	80.003	19.995	103.870	19.830	9.847	0.504
274.000	218.866	80.003	19.994	103.858	19.830	9.819	0.534
276.000	219.827	80.002	19.995	103.859	19.831	9.785	0.512
278.000	220.831	79.999	19.995	103.876	19.828	9.961	0.543
280.000	221.838	80.001	19.994	103.887	19.831	9.764	0.504
282.000	222.872	80.002	19.995	103.885	19.834	9.571	0.532
284.000	223.893	80.000	19.994	103.895	19.835	9.481	0.500
286.000	224.915	80.001	19.994	103.884	19.832	9.654	0.518
288.000	225.913	80.001	19.994	103.859	19.834	9.518	0.521
290.000	226.941	80.001	19.994	103.858	19.836	9.408	0.516
292.000	227.894	80.000	19.995	103.866	19.835	9.492	0.463
294.000	228.903	79.999	19.995	103.867	19.837	9.298	0.506
296.000	229.978	80.001	19.995	103.861	19.833	9.625	0.516
298.000	230.977	80.001	19.996	103.862	19.835	9.439	0.486
300.000	232.008	80.001	19.995	103.861	19.835	9.481	0.504
302.000	233.062	80.000	19.994	103.863	19.835	9.482	0.512
304.000	234.059	80.000	19.996	103.861	19.836	9.359	0.502
306.000	235.054	80.000	19.995	103.864	19.837	9.288	0.499
308.000	236.068	80.000	19.994	103.863	19.836	9.415	0.519
310.000	237.058	80.000	19.994	103.858	19.839	9.156	0.459
312.000	238.101	80.000	19.994	103.865	19.837	9.296	0.522
314.000	239.037	80.002	19.994	103.874	19.840	9.081	0.492
316.000	240.038	80.002	19.994	103.875	19.844	8.792	0.466
318.000	241.032	80.000	19.992	103.869	19.848	8.509	0.493
320.000	242.050	80.001	19.993	103.861	19.843	8.866	0.544
322.000	243.061	80.003	19.995	103.841	19.846	8.645	0.515
324.000	244.022	80.003	19.994	103.844	19.847	8.543	0.492
326.000	244.999	80.001	19.994	103.855	19.851	8.245	0.447
328.000	246.023	80.001	19.995	103.855	19.851	8.270	0.524
330.000	247.014	80.001	19.996	103.850	19.850	8.318	0.506
332.000	247.989	80.004	19.995	103.849	19.848	8.509	0.504
334.000	248.977	80.004	19.994	103.858	19.856	7.900	0.487
336.000	249.990	80.003	19.994	103.876	19.862	7.476	0.505
338.000	251.001	80.003	19.994	103.884	19.859	7.666	0.499
340.000	252.001	80.004	19.995	103.835	19.866	7.153	0.467
342.000	252.988	80.003	19.993	103.842	19.863	7.367	0.474
344.000	253.936	80.004	19.993	103.856	19.871	6.747	0.474
346.000	254.929	80.003	19.994	103.855	19.872	6.728	0.481
348.000	255.966	80.004	19.994	103.861	19.877	6.336	0.531
350.000	256.923	80.004	19.993	103.873	19.873	6.609	0.499
352.000	257.966	80.002	19.994	103.843	19.877	6.342	0.534
354.000	258.920	80.000	19.993	103.847	19.876	6.385	0.505
356.000	259.904	79.999	19.995	103.852	19.881	6.036	0.498
358.000	260.888	80.002	19.995	103.841	19.887	5.586	0.495
360.000	261.897	80.000	19.995	103.832	19.891	5.314	0.487
362.000	262.875	80.000	19.995	103.839	19.885	5.734	0.473
364.000	263.874	80.001	19.994	103.841	19.889	5.434	0.500
366.000	264.841	80.002	19.994	103.854	19.891	5.256	0.491
368.000	265.831	80.000	19.994	103.858	19.894	5.042	0.468
370.000	266.800	79.999	19.995	103.847	19.895	5.017	0.469
372.000	267.816	80.000	19.994	103.860	19.895	4.984	0.489
374.000	268.814	79.999	19.994	103.843	19.890	5.380	0.483
376.000	269.839	80.000	19.994	103.851	19.890	5.341	0.495
378.000	270.867	80.001	19.993	103.857	19.889	5.437	0.528
380.000	271.825	80.002	19.995	103.850	19.891	5.318	0.498
382.000	272.835	80.002	19.996	103.860	19.896	4.904	0.484
384.000	273.833	80.003	19.996	103.854	19.888	5.487	0.514
386.000	274.820	79.999	19.995	103.851	19.884	5.830	0.510
388.000	275.785	80.000	19.994	103.848	19.881	6.048	0.511
390.000	276.776	80.001	19.996	103.843	19.879	6.187	0.491
392.000	277.779	80.001	19.996	103.841	19.874	6.534	0.487
394.000	278.789	80.001	19.995	103.848	19.870	6.889	0.482
396.000	279.793	80.000	19.994	103.846	19.865	7.221	0.518
398.000	280.784	80.001	19.994	103.847	19.862	7.422	0.487
400.000	281.708	80.002	19.994	103.834	19.863	7.359	0.455
402.000	282.723	80.002	19.994	103.835	19.857	7.859	0.496
404.000	283.685	80.003	19.994	103.834	19.856	7.912	0.493
406.000	284.703	80.005	19.993	103.845	19.857	7.813	0.527
408.000	285.667	80.002	19.993	103.847	19.852	8.172	0.465
410.000	286.651	79.999	19.994	103.848	19.844	8.758	0.495
412.000	287.656	80.002	19.994	103.856	19.847	8.556	0.501
414.000	288.645	80.002	19.995	103.841	19.844	8.774	0.514
416.000	289.610	80.002	19.995	103.843	19.838	9.245	0.481
418.000	290.649	80.002	19.994	103.827	19.837	9.297	0.493
420.000	291.677	80.003	19.994	103.831	19.828	10.001	0.495
422.000	292.705	80.005	19.993	103.835	19.824	10.252	0.484
424.000	293.685	80.003	19.993	103.851	19.823	10.342	0.473
426.000	294.665	80.004	19.993	103.837	19.819	10.657	0.492
428.000	295.696	80.004	19.994	103.856	19.812	11.182	0.495
430.000	296.665	80.002	19.994	103.851	19.806	11.595	0.493
432.000	297.627	80.001	19.994	103.830	19.799	12.123	0.496
434.000	298.603	80.003	19.994	103.852	19.801	12.014	0.486
436.000	299.589	80.003	19.994	103.852	19.795	12.457	0.471
438.000	300.578	80.002	19.992	103.856	19.785	13.210	0.507
440.000	301.571	80.001	19.994	103.865	19.773	14.093	0.487
442.000	302.511	80.000	19.994	103.864	19.771	14.250	0.474
444.000	303.514	80.004	19.994	103.860	19.760	15.034	0.511
446.000	304.458	80.001	19.995	103.859	19.751	15.694	0.501
448.000	305.409	80.004	19.995	103.860	19.743	16.313	0.465
450.000	306.417	80.002	19.995	103.855	19.727	17.535	0.515
452.000	307.389	80.004	19.995	103.853	19.717	18.251	0.459
454.000	308.341	80.002	19.995	103.854	19.703	19.320	0.469
456.000	309.313	80.000	19.995	103.858	19.684	20.739	0.495
458.000	310.288	80.003	19.994	103.857	19.670	21.778	0.492
460.000	311.281	80.001	19.995	103.855	19.650	23.236	0.515
462.000	312.318	80.002	19.994	103.864	19.632	24.602	0.483
464.000	313.262	80.001	19.995	103.862	19.614	25.906	0.465
466.000	314.223	79.997	19.996	103.866	19.590	27.706	0.486
468.000	315.212	80.000	19.995	103.861	19.568	29.349	0.504
470.000	316.169	80.002	19.996	103.861	19.543	31.236	0.478
472.000	317.137	80.002	19.995	103.861	19.516	33.242	0.490
474.000	318.099	80.002	19.995	103.878	19.487	35.382	0.481
476.000	319.070	80.003	19.996	103.886	19.453	37.975	0.509
478.000	320.092	80.003	19.995	103.900	19.423	40.154	0.511
480.000	321.039	80.002	19.995	103.903	19.393	42.449	0.488
482.000	322.052	80.003	19.996	103.901	19.354	45.315	0.507
484.000	323.037	80.002	19.995	103.910	19.317	48.114	0.513
486.000	323.987	80.001	19.994	103.918	19.277	51.032	0.476
488.000	325.000	80.004	19.995	103.929	19.247	53.315	0.499
490.000	325.920	80.002	19.993	103.927	19.202	56.659	0.464
492.000	326.990	80.000	19.993	103.935	19.157	60.010	0.492
494.000	327.932	80.003	19.994	103.935	19.109	63.577	0.493
496.000	328.874	80.002	19.994	103.941	19.067	66.779	0.478
498.000	329.895	80.002	19.993	103.943	19.020	70.276	0.498
500.000	330.875	80.003	19.993	103.958	18.961	74.619	0.499
502.000	331.912	80.005	19.993	103.965	18.913	78.210	0.533
504.000	332.902	80.002	19.994	103.968	18.862	82.041	0.492
506.000	333.871	80.003	19.995	103.968	18.812	85.804	0.489
508.000	334.909	80.005	19.994	103.979	18.760	89.661	0.481
510.000	335.907	80.003	19.994	103.977	18.709	93.487	0.509
512.000	336.861	80.003	19.995	103.983	18.653	97.641	0.484
514.000	337.863	80.000	19.994	103.991	18.601	101.558	0.493
516.000	338.846	80.001	19.994	104.012	18.554	105.035	0.503
518.000	339.893	80.002	19.993	104.014	18.500	109.080	0.496
520.000	340.908	80.001	19.994	103.995	18.454	112.544	0.505
522.000	341.945	80.000	19.995	104.004	18.407	116.036	0.534
524.000	342.982	80.003	19.994	104.009	18.348	120.426	0.504
526.000	343.978	80.003	19.994	104.018	18.302	123.907	0.498
528.000	345.017	80.003	19.994	104.021	18.257	127.277	0.502
530.000	346.065	80.002	19.994	104.033	18.205	131.180	0.555
532.000	347.099	80.003	19.994	104.040	18.164	134.205	0.542
534.000	348.125	80.004	19.996	104.049	18.114	137.929	0.519
536.000	349.174	80.002	19.995	104.063	18.057	142.246	0.519
538.000	350.210	80.001	19.995	104.071	18.002	146.319	0.518
540.000	351.237	80.000	19.995	104.072	17.947	150.428	0.481
542.000	352.276	80.000	19.995	104.069	17.885	155.097	0.510
544.000	353.354	80.000	19.994	104.068	17.827	159.445	0.554
546.000	354.412	80.001	19.995	104.088	17.768	163.809	0.542
548.000	355.435	80.001	19.995	104.076	17.717	167.602	0.498
550.000	356.419	80.001	19.994	104.085	17.657	172.049	0.513
552.000	357.508	80.003	19.993	104.091	17.594	176.735	0.515
554.000	358.425	80.002	19.996	104.112	17.539	180.874	0.497
556.000	359.472	80.001	19.994	104.109	17.490	184.522	0.497
558.000	360.474	80.002	19.993	104.094	17.445	187.843	0.470
560.000	361.538	80.001	19.994	104.076	17.409	190.510	0.512
562.000	362.548	80.003	19.994	104.061	17.379	192.744	0.494
564.000	363.557	80.003	19.996	104.081	17.357	194.454	0.518
566.000	364.532	79.999	19.995	104.082	17.341	195.588	0.493
568.000	365.581	80.000	19.995	104.059	17.342	195.448	0.505
570.000	366.571	80.002	19.995	104.036	17.345	195.259	0.511
572.000	367.598	80.001	19.996	104.045	17.349	195.014	0.501
574.000	368.629	80.003	19.995	104.063	17.372	193.245	0.521
576.000	369.617	80.002	19.996	104.044	17.410	190.395	0.526
578.000	370.631	80.003	19.995	104.017	17.449	187.321	0.499
580.000	371.640	80.005	19.995	104.004	17.488	184.434	0.534
582.000	372.654	80.001	19.995	104.023	17.531	181.232	0.495
584.000	373.721	80.002	19.995	104.053	17.577	177.819	0.556
586.000	374.686	80.001	19.995	104.020	17.650	172.400	0.466
588.000	375.664	80.001	19.994	103.961	17.726	166.660	0.489
590.000	376.666	80.002	19.995	103.927	17.810	160.379	0.527
592.000	377.705	79.999	19.995	103.932	17.892	154.356	0.517
594.000	378.653	80.003	19.994	103.956	17.989	147.097	0.484
596.000	379.693	80.000	19.993	103.951	18.081	140.222	0.494
598.000	380.681	80.000	19.994	103.936	18.168	133.671	0.519
600.000	381.699	79.999	19.995	103.920	18.240	128.294	0.492
602.000	382.672	80.001	19.995	103.945	18.326	121.886	0.496
604.000	383.702	80.002	19.996	103.947	18.396	116.664	0.506
606.000	384.757	80.003	19.995	103.927	18.470	111.143	0.517
608.000	385.786	80.001	19.995	103.909	18.540	105.972	0.513
610.000	386.770	80.002	19.994	103.898	18.614	100.427	0.508
612.000	387.851	80.001	19.994	103.885	18.677	95.714	0.545
614.000	388.851	80.001	19.994	103.882	18.748	90.461	0.477
616.000	389.895	80.003	19.994	103.887	18.811	85.738	0.515
618.000	390.914	80.000	19.993	103.875	18.872	81.182	0.496
620.000	391.930	80.000	19.995	103.870	18.938	76.280	0.493
622.000	392.996	79.999	19.994	103.848	18.998	71.798	0.545
624.000	394.009	80.000	19.994	103.861	19.062	67.019	0.528
626.000	395.059	80.001	19.995	103.860	19.122	62.530	0.521
628.000	396.074	80.001	19.996	103.845	19.177	58.431	0.489
630.000	397.103	80.001	19.995	103.843	19.231	54.464	0.527
632.000	398.104	80.001	19.995	103.838	19.281	50.713	0.520
634.000	399.099	80.001	19.995	103.806	19.342	46.134	0.504
636.000	400.107	80.002	19.995	103.813	19.398	41.998	0.491
638.000	401.126	80.002	19.997	103.814	19.438	39.032	0.522
640.000	402.107	80.002	19.995	103.815	19.489	35.175	0.488
642.000	403.104	80.001	19.995	103.814	19.534	31.843	0.509
644.000	404.102	80.002	19.994	103.802	19.576	28.716	0.493
646.000	405.090	80.000	19.993	103.805	19.617	25.677	0.497
648.000	406.079	80.002	19.995	103.812	19.659	22.540	0.484
650.000	407.092	80.001	19.995	103.787	19.692	20.128	0.510
652.000	408.083	80.002	19.995	103.785	19.725	17.623	0.495
654.000	409.054	80.002	19.995	103.784	19.760	15.023	0.488
656.000	410.024	80.002	19.995	103.779	19.783	13.331	0.473
658.000	411.055	80.003	19.995	103.779	19.813	11.066	0.515
660.000	412.010	80.003	19.995	103.775	19.836	9.372	0.488
662.000	412.976	80.003	19.995	103.781	19.858	7.764	0.504
664.000	413.961	80.000	19.995	103.780	19.877	6.354	0.500
666.000	414.899	80.001	19.994	103.781	19.895	4.976	0.485
668.001	415.887	79.998	19.996	103.783	19.914	3.603	0.481
670.000	416.835	80.002	19.995	103.788	19.927	2.627	0.472
672.000	417.855	80.000	19.994	103.787	19.941	1.574	0.523
674.000	418.795	80.001	19.995	103.789	19.951	0.784	0.488
676.000	419.733	80.001	19.994	103.784	19.959	0.247	0.482
678.001	420.707	80.000	19.994	103.797	19.969	-0.513	0.470
680.000	421.684	80.001	19.994	103.794	19.981	-1.393	0.452
682.000	422.687	80.001	19.994	103.790	19.991	-2.179	0.482
684.000	423.668	80.002	19.994	103.792	19.996	-2.565	0.467
686.000	424.635	80.000	19.994	103.790	20.007	-3.359	0.473
688.000	425.611	80.001	19.993	103.788	20.006	-3.251	0.471
690.000	426.593	79.999	19.994	103.792	20.014	-3.843	0.510
692.000	427.549	80.000	19.993	103.792	20.020	-4.313	0.496
694.000	428.534	80.000	19.994	103.796	20.023	-4.517	0.453
696.000	429.555	80.000	19.995	103.792	20.026	-4.799	0.515
698.000	430.516	80.000	19.994	103.793	20.028	-4.922	0.496
700.000	431.472	80.001	19.995	103.784	20.027	-4.866	0.468
702.000	432.467	80.000	19.994	103.783	20.035	-5.396	0.492
704.000	433.448	80.001	19.995	103.793	20.036	-5.473	0.513
706.000	434.450	80.003	19.995	103.786	20.035	-5.408	0.498
708.000	435.437	80.003	19.994	103.785	20.036	-5.512	0.528
710.000	436.432	80.003	19.995	103.781	20.033	-5.319	0.506
712.000	437.396	80.003	19.994	103.781	20.041	-5.913	0.473
714.000	438.378	80.004	19.994	103.782	20.036	-5.539	0.487
716.000	439.369	80.004	19.995	103.779	20.036	-5.528	0.486
718.000	440.359	80.001	19.997	103.782	20.039	-5.748	0.480
720.000	441.344	80.002	19.995	103.782	20.043	-6.006	0.487
722.000	442.364	80.001	19.995	103.783	20.047	-6.325	0.505
724.000	443.321	80.003	19.994	103.781	20.044	-6.129	0.477
726.000	444.342	80.001	19.996	103.778	20.047	-6.294	0.536
728.000	445.321	80.002	19.994	103.762	20.046	-6.217	0.488
730.000	446.327	80.001	19.994	103.785	20.043	-6.020	0.504
732.000	447.298	80.003	19.993	103.796	20.048	-6.436	0.501
734.000	448.349	80.002	19.995	103.769	20.051	-6.611	0.503
736.000	449.389	80.003	19.995	103.778	20.044	-6.131	0.553
738.000	450.363	80.002	19.993	103.792	20.048	-6.379	0.503
740.000	451.410	80.003	19.995	103.785	20.048	-6.373	0.527
742.000	452.406	80.002	19.995	103.797	20.049	-6.451	0.511
744.000	453.441	80.000	19.994	103.796	20.046	-6.234	0.511
746.000	454.495	80.001	19.995	103.772	20.047	-6.332	0.516
748.000	455.538	80.000	19.995	103.798	20.050	-6.560	0.537
750.000	456.624	79.998	19.994	103.828	20.050	-6.541	0.531
752.000	457.644	80.000	19.996	103.805	20.050	-6.573	0.538
754.000	458.753	79.999	19.994	103.800	20.050	-6.528	0.551
756.000	459.835	80.001	19.995	103.790	20.047	-6.354	0.544
758.000	460.897	80.001	19.998	103.790	20.051	-6.591	0.524
760.001	461.963	80.000	19.995	103.780	20.043	-6.034	0.506
762.000	463.081	80.001	19.994	103.778	20.044	-6.117	0.562
764.000	464.067	80.001	19.994	103.719	20.041	-5.861	0.493
766.000	465.183	80.001	19.994	103.840	20.048	-6.423	0.532
768.000	466.259	80.002	19.993	103.805	20.047	-6.358	0.541
770.000	467.324	80.000	19.995	103.786	20.049	-6.491	0.535
772.000	468.389	80.000	19.995	103.790	20.048	-6.374	0.557
774.000	469.434	79.999	19.992	103.783	20.051	-6.620	0.507
776.000	470.506	80.000	19.996	103.787	20.050	-6.545	0.550
778.000	471.606	80.000	19.994	103.787	20.051	-6.634	0.537
780.000	472.704	80.001	19.994	103.784	20.048	-6.420	0.574
782.000	473.808	80.001	19.994	103.783	20.046	-6.215	0.570
784.000	474.907	80.001	19.994	103.772	20.048	-6.372	0.579
786.000	475.977	80.001	19.994	103.783	20.048	-6.404	0.553
788.000	477.025	80.003	19.994	103.779	20.049	-6.437	0.544
790.000	478.090	80.003	19.994	103.779	20.048	-6.427	0.550
792.000	479.111	80.002	19.995	103.783	20.051	-6.603	0.489
794.000	480.202	80.001	19.994	103.774	20.049	-6.454	0.515
796.000	481.220	80.003	19.993	103.776	20.053	-6.741	0.503
798.000	482.313	80.002	19.992	103.784	20.054	-6.853	0.539
800.000	483.321	80.001	19.994	103.785	20.054	-6.881	0.528
802.000	484.326	80.002	19.994	103.780	20.056	-7.027	0.530
804.000	485.324	80.002	19.994	103.781	20.057	-7.105	0.491
806.000	486.426	80.002	19.993	103.787	20.059	-7.242	0.530
808.000	487.423	80.003	19.994	103.789	20.058	-7.118	0.495
810.000	488.418	80.002	19.994	103.778	20.053	-6.793	0.487
812.000	489.456	80.003	19.994	103.771	20.058	-7.120	0.542
814.000	490.349	80.002	19.993	103.770	20.056	-7.029	0.453
816.000	491.352	80.003	19.994	103.752	20.059	-7.210	0.478
818.000	492.379	80.002	19.995	103.771	20.060	-7.294	0.511
820.000	493.332	80.002	19.992	103.773	20.054	-6.856	0.471
822.000	494.328	80.001	19.994	103.758	20.057	-7.078	0.506
824.000	495.303	79.999	19.996	103.773	20.063	-7.495	0.493
826.000	496.231	79.999	19.995	103.779	20.058	-7.167	0.462
828.000	497.258	80.002	19.995	103.769	20.056	-7.025	0.495
830.000	498.280	80.001	19.993	103.721	20.055	-6.933	0.451
832.001	499.177	80.000	19.994	103.715	20.057	-7.056	0.465
834.000	500.141	80.000	19.994	103.841	20.059	-7.231	0.472
836.000	501.125	80.001	19.997	103.776	20.054	-6.839	0.507
838.000	502.108	80.001	19.995	103.770	20.058	-7.178	0.473
840.000	503.068	80.001	19.995	103.773	20.055	-6.937	0.452
842.000	504.050	80.001	19.995	103.775	20.056	-6.962	0.489
844.000	505.016	80.000	19.995	103.779	20.061	-7.347	0.482
846.000	506.010	80.000	19.995	103.776	20.059	-7.224	0.483
848.000	506.928	80.002	19.995	103.767	20.058	-7.110	0.441
850.000	507.943	80.000	19.994	103.770	20.058	-7.174	0.482
852.000	508.936	80.000	19.993	103.762	20.060	-7.257	0.514
854.000	509.867	79.999	19.993	103.769	20.060	-7.303	0.463
856.000	510.858	80.000	19.995	103.781	20.060	-7.270	0.465
858.000	511.853	79.998	19.993	103.766	20.057	-7.089	0.496
860.000	512.855	80.001	19.994	103.776	20.061	-7.387	0.488
862.000	513.859	79.999	19.994	103.764	20.055	-6.953	0.503
864.000	514.772	80.001	19.994	103.753	20.059	-7.212	0.504
866.000	515.836	80.001	19.994	103.760	20.062	-7.477	0.469
868.000	516.800	80.003	19.994	103.779	20.062	-7.447	0.536
870.000	517.890	80.003	19.995	103.777	20.058	-7.181	0.506
872.000	518.879	80.003	19.993	103.783	20.072	-8.156	0.448
874.000	519.819	80.001	19.994	103.783	20.067	-7.792	0.594
876.000	520.825	80.001	19.994	103.784	20.066	-7.771	0.445
878.000	522.022	80.002	19.993	103.785	20.067	-7.800	0.535
880.000	522.927	80.002	19.995	103.784	20.065	-7.659	0.443
882.000	524.181	80.004	19.994	103.785	20.057	-7.048	0.366
884.000	525.049	80.004	19.994	103.788	20.064	-7.611	0.886
886.000	526.408	80.003	19.993	103.781	20.059	-7.211	1.113
888.000	526.924	80.001	19.994	103.782	20.062	-7.420	0.266
890.000	528.025	80.004	19.996	103.781	20.062	-7.417	0.458
892.000	529.260	80.004	19.994	103.782	20.058	-7.159	0.423
894.000	530.312	80.004	19.996	103.777	20.062	-7.442	0.553
896.000	531.350	80.002	19.993	103.785	20.065	-7.627	0.432
898.000	532.497	80.002	19.994	103.796	20.063	-7.528	0.499
900.000	533.544	80.001	19.994	103.789	20.063	-7.495	0.528
902.000	534.646	80.001	19.996	103.794	20.060	-7.282	0.531
904.000	535.718	80.002	19.996	103.776	20.062	-7.446	0.540
906.000	536.748	80.000	19.995	103.764	20.064	-7.613	0.571
908.000	537.856	80.000	19.995	103.782	20.061	-7.365	0.504
910.000	538.955	80.001	19.995	103.778	20.058	-7.125	0.548
912.000	540.005	80.001	19.994	103.779	20.060	-7.327	0.556
914.000	540.995	80.001	19.995	103.769	20.064	-7.626	0.490
916.000	542.088	80.001	19.994	103.778	20.062	-7.464	0.516
918.000	543.119	80.000	19.993	103.768	20.063	-7.491	0.504
920.000	544.155	80.001	19.996	103.780	20.062	-7.409	0.540
922.000	545.221	80.001	19.996	103.785	20.066	-7.734	0.481
924.000	546.192	80.002	19.994	103.781	20.062	-7.405	0.491
926.000	547.250	80.000	19.994	103.779	20.064	-7.576	0.506
928.000	548.344	79.999	19.995	103.781	20.064	-7.560	0.544
930.000	549.343	80.001	19.995	103.786	20.060	-7.312	0.541
932.000	550.348	80.000	19.995	103.762	20.055	-6.918	0.543
934.000	551.372	80.000	19.996	103.775	20.062	-7.419	0.500
936.000	552.399	80.001	19.995	103.778	20.061	-7.360	0.506
938.000	553.413	80.000	19.995	103.786	20.061	-7.381	0.501
940.000	554.507	80.002	19.995	103.783	20.062	-7.437	0.522
942.000	555.559	80.003	19.994	103.781	20.064	-7.612	0.549
944.000	556.542	80.003	19.995	103.799	20.063	-7.515	0.501
946.000	557.533	80.002	19.994	103.786	20.064	-7.624	0.485
948.000	558.586	80.003	19.994	103.783	20.063	-7.495	0.523
950.000	559.615	80.002	19.994	103.782	20.067	-7.817	0.554
952.000	560.615	80.003	19.995	103.778	20.061	-7.388	0.507
954.000	561.654	80.001	19.995	103.761	20.063	-7.549	0.515
956.000	562.695	80.002	19.994	103.787	20.068	-7.879	0.530
958.000	563.719	80.001	19.993	103.791	20.063	-7.527	0.516
960.000	564.745	80.003	19.994	103.783	20.067	-7.814	0.508
962.000	565.738	80.003	19.995	103.780	20.067	-7.821	0.479
964.000	566.740	80.003	19.995	103.762	20.070	-8.022	0.513
966.000	567.758	80.002	19.993	103.761	20.067	-7.835	0.509
968.000	568.762	80.003	19.994	103.780	20.068	-7.859	0.515
970.000	569.789	80.004	19.994	103.765	20.064	-7.613	0.507
972.000	570.842	80.003	19.993	103.777	20.067	-7.808	0.537
974.000	571.813	80.002	19.994	103.775	20.066	-7.709	0.519
976.000	572.811	80.002	19.993	103.772	20.071	-8.096	0.463
978.000	573.855	80.000	19.993	103.772	20.063	-7.482	0.554
980.000	574.898	80.000	19.994	103.764	20.064	-7.614	0.501
982.000	575.875	80.001	19.995	103.790	20.066	-7.702	0.520
984.000	576.891	80.001	19.993	103.795	20.065	-7.655	0.511
986.000	577.922	80.001	19.993	103.783	20.066	-7.742	0.507
988.000	578.936	80.000	19.994	103.782	20.066	-7.752	0.516
990.000	579.919	80.000	19.994	103.773	20.066	-7.766	0.458
992.000	580.907	80.000	19.994	103.762	20.071	-8.092	0.505
994.000	581.864	80.002	19.995	103.775	20.070	-8.052	0.483
996.000	582.857	80.002	19.995	103.781	20.073	-8.282	0.509
998.000	583.861	80.001	19.994	103.770	20.072	-8.178	0.517
1000.000	584.823	80.000	19.994	103.770	20.077	-8.561	0.480
1002.000	585.806	80.000	19.995	103.764	20.075	-8.437	0.496
1004.000	586.824	80.000	19.995	103.761	20.075	-8.443	0.520
1006.000	587.812	80.001	19.994	103.769	20.073	-8.283	0.483
1008.000	588.829	80.001	19.995	103.772	20.074	-8.318	0.502
1010.000	589.887	80.000	19.993	103.765	20.072	-8.168	0.511
1012.000	590.921	80.000	19.994	103.755	20.073	-8.235	0.513
1014.000	591.916	80.001	19.995	103.771	20.068	-7.919	0.482
1016.000	593.011	80.001	19.995	103.787	20.072	-8.170	0.548
1018.000	594.032	80.000	19.995	103.774	20.074	-8.330	0.527
1020.000	595.088	80.002	19.995	103.782	20.074	-8.334	0.535
1022.000	596.115	80.003	19.995	103.783	20.071	-8.147	0.494
1024.000	597.177	80.002	19.995	103.784	20.070	-8.039	0.522
1026.000	598.229	80.003	19.995	103.782	20.073	-8.245	0.533
1028.001	599.266	80.003	19.996	103.778	20.074	-8.327	0.503
1030.000	600.337	80.001	19.994	103.775	20.071	-8.147	0.517
1032.000	601.384	80.002	19.994	103.774	20.071	-8.085	0.534
1034.000	602.425	80.002	19.994	103.758	20.073	-8.253	0.521
1036.000	603.459	80.003	19.992	103.761	20.074	-8.357	0.521
1038.001	604.500	80.000	19.992	103.776	20.076	-8.468	0.526
1040.000	605.569	80.002	19.995	103.767	20.074	-8.340	0.541
1042.000	606.644	80.002	19.995	103.782	20.078	-8.605	0.552
1044.000	607.681	80.004	19.994	103.781	20.079	-8.715	0.528
1046.000	608.759	80.003	19.994	103.757	20.078	-8.657	0.543
1048.000	609.838	80.004	19.993	103.759	20.079	-8.708	0.541
1050.000	610.862	80.004	19.992	103.762	20.078	-8.648	0.526
1052.000	611.954	80.003	19.994	103.783	20.078	-8.654	0.521
1054.001	613.037	80.002	19.994	103.785	20.074	-8.331	0.583
1056.000	614.124	80.001	19.994	103.775	20.073	-8.285	0.533
1058.000	615.175	80.001	19.995	103.760	20.076	-8.518	0.515
1060.000	616.262	80.000	19.994	103.776	20.077	-8.536	0.540
1062.000	617.337	80.001	19.995	103.782	20.076	-8.457	0.568
1064.000	618.393	80.000	19.994	103.801	20.079	-8.677	0.534
1066.000	619.408	80.000	19.994	103.757	20.081	-8.818	0.505
1068.000	620.479	79.999	19.993	103.770	20.081	-8.858	0.520
1070.001	621.558	80.001	19.993	103.757	20.081	-8.820	0.542
1072.000	622.564	80.001	19.993	103.764	20.082	-8.927	0.535
1074.000	623.640	80.001	19.994	103.761	20.080	-8.801	0.531
1076.001	624.683	80.000	19.994	103.774	20.084	-9.060	0.533
1078.000	625.731	80.002	19.994	103.779	20.082	-8.920	0.537
1080.000	626.830	80.002	19.995	103.757	20.081	-8.826	0.550
1082.000	627.871	80.002	19.994	103.755	20.082	-8.957	0.516
1084.001	628.903	80.000	19.995	103.754	20.079	-8.686	0.508
1086.000	629.938	80.001	19.996	103.774	20.079	-8.726	0.525
1088.000	630.962	80.000	19.995	103.778	20.087	-9.277	0.515
1090.001	632.005	80.001	19.995	103.764	20.085	-9.128	0.493
1092.000	632.978	80.001	19.995	103.768	20.083	-9.027	0.486
1094.000	634.030	80.001	19.994	103.772	20.083	-8.998	0.537
1096.000	635.051	80.002	19.995	103.772	20.086	-9.199	0.493
1098.000	636.093	80.002	19.993	103.763	20.085	-9.128	0.528
1100.000	637.095	80.002	19.994	103.775	20.083	-9.005	0.507
1102.000	638.143	80.002	19.994	103.765	20.085	-9.144	0.521
1104.001	639.136	80.002	19.995	103.759	20.084	-9.086	0.526
1106.000	640.130	80.000	19.995	103.774	20.085	-9.139	0.496
1108.000	641.132	80.001	19.994	103.774	20.085	-9.140	0.499
1110.000	642.115	80.001	19.995	103.758	20.089	-9.432	0.495
1112.000	643.085	80.001	19.996	103.767	20.085	-9.172	0.474
1114.000	644.116	80.002	19.995	103.761	20.084	-9.107	0.498
1116.000	645.069	80.001	19.994	103.765	20.086	-9.247	0.507
1118.000	646.070	80.001	19.995	103.769	20.088	-9.363	0.483
1120.000	647.062	80.001	19.995	103.773	20.077	-8.572	0.515
1122.001	648.031	80.002	19.994	103.756	20.082	-8.953	0.488
1124.000	649.081	80.001	19.993	103.755	20.087	-9.268	0.518
1126.000	650.052	80.002	19.993	103.751	20.082	-8.950	0.522
1128.000	651.048	80.002	19.994	103.753	20.083	-9.033	0.480
1130.000	652.024	80.002	19.993	103.751	20.079	-8.721	0.493
1132.000	653.019	80.001	19.993	103.764	20.077	-8.558	0.444
1134.000	653.595	80.002	19.994	103.766	20.081	-8.820	0.122
1136.000	654.979	80.001	19.993	103.758	20.079	-8.742	0.521
1138.000	656.005	80.001	19.994	103.763	20.079	-8.737	0.519
1140.000	657.047	80.000	19.994	103.771	20.082	-8.949	0.543
1142.000	658.083	80.002	19.994	103.745	20.085	-9.128	0.542
1144.001	659.002	80.001	19.994	103.757	20.078	-8.642	0.496
1146.001	660.015	79.999	19.994	103.769	20.078	-8.614	0.492
1148.001	661.133	80.000	19.994	103.748	20.079	-8.727	0.572
1150.000	662.028	80.000	19.995	103.752	20.084	-9.085	0.476
1152.000	663.081	80.001	19.993	103.746	20.082	-8.915	0.626
1154.000	664.155	80.002	19.993	103.756	20.077	-8.547	0.523
1156.000	665.196	80.002	19.994	103.747	20.080	-8.776	0.551
1158.001	666.223	80.001	19.992	103.759	20.082	-8.908	0.511
1160.000	667.324	80.000	19.994	103.777	20.082	-8.910	0.524
1162.001	668.357	80.001	19.994	103.772	20.081	-8.819	0.531
1164.000	669.437	80.000	19.994	103.765	20.086	-9.250	0.511
1166.000	670.482	80.000	19.995	103.767	20.082	-8.936	0.533
1168.001	671.595	80.000	19.993	103.772	20.085	-9.171	0.547
1170.000	672.650	80.000	19.994	103.779	20.088	-9.369	0.516
1172.001	673.732	79.999	19.995	103.779	20.089	-9.432	0.552
1174.001	674.830	80.001	19.995	103.779	20.088	-9.409	0.533
1176.000	675.913	80.000	19.993	103.769	20.086	-9.221	0.545
1178.000	677.038	80.001	19.994	103.772	20.085	-9.165	0.549
1180.000	678.101	80.001	19.994	103.773	20.085	-9.166	0.536
1182.000	679.189	80.000	19.994	103.758	20.082	-8.907	0.527
1184.000	680.267	80.002	19.994	103.752	20.085	-9.182	0.551
1186.001	681.357	80.000	19.994	103.762	20.084	-9.097	0.544
1188.000	682.430	80.001	19.994	103.768	20.084	-9.115	0.576
1190.000	683.514	80.001	19.995	103.754	20.084	-9.114	0.564
1192.000	684.535	80.001	19.994	103.766	20.083	-9.007	0.543
1194.000	685.617	80.000	19.994	103.753	20.084	-9.065	0.538
1196.001	686.653	80.000	19.994	103.760	20.083	-8.978	0.536
1198.000	687.700	80.001	19.995	103.775	20.088	-9.380	0.554
1200.001	688.792	80.001	19.995	103.765	20.083	-9.009	0.547
1202.001	689.856	80.002	19.994	103.744	20.085	-9.155	0.553
1204.000	690.897	80.000	19.994	103.749	20.089	-9.464	0.528
1206.000	691.958	80.001	19.995	103.772	20.091	-9.592	0.503
1208.000	693.037	80.001	19.993	103.761	20.086	-9.215	0.553
1210.000	694.003	80.000	19.994	103.754	20.087	-9.332	0.521
1212.000	695.129	80.001	19.995	103.743	20.090	-9.560	0.536
1214.000	696.187	79.999	19.994	103.762	20.087	-9.299	0.521
1216.000	697.239	79.998	19.993	103.757	20.088	-9.407	0.546
1218.001	698.295	79.999	19.993	103.751	20.088	-9.375	0.543
1220.000	699.341	79.999	19.995	103.757	20.087	-9.272	0.546
1222.000	700.362	79.999	19.994	103.757	20.087	-9.304	0.519
1224.000	701.440	80.000	19.994	103.778	20.083	-9.004	0.532
1226.000	702.512	80.001	19.995	103.768	20.091	-9.624	0.535
1228.000	703.521	80.001	19.994	103.744	20.087	-9.272	0.498
1230.000	704.604	80.000	19.993	103.749	20.084	-9.077	0.547
1232.001	705.658	80.002	19.994	103.764	20.083	-9.035	0.535
1234.000	706.695	79.999	19.994	103.768	20.084	-9.068	0.503
1236.000	707.804	79.999	19.994	103.756	20.086	-9.203	0.562
1238.000	708.841	79.999	19.993	103.763	20.088	-9.393	0.514
1240.001	709.943	80.000	19.994	103.760	20.085	-9.166	0.515
1242.001	711.002	80.000	19.994	103.766	20.084	-9.104	0.588
1244.000	712.035	79.999	19.994	103.749	20.089	-9.463	0.524
1246.000	713.129	79.999	19.994	103.757	20.085	-9.174	0.544
1248.000	714.161	79.999	19.993	103.756	20.092	-9.664	0.544
1250.000	715.233	80.001	19.993	103.771	20.086	-9.201	0.571
1252.000	716.289	80.000	19.994	103.774	20.092	-9.707	0.506
1254.000	717.342	80.000	19.993	103.775	20.090	-9.540	0.518
1256.000	718.395	80.001	19.992	103.777	20.088	-9.339	0.523
1258.000	719.440	80.001	19.994	103.777	20.093	-9.734	0.518
1260.000	720.506	80.001	19.995	103.761	20.091	-9.612	0.539
1262.000	721.568	80.001	19.994	103.763	20.089	-9.486	0.543
1264.000	722.586	80.001	19.994	103.763	20.091	-9.607	0.493
1266.000	723.629	80.001	19.995	103.756	20.095	-9.892	0.536
1268.001	724.698	80.000	19.994	103.769	20.086	-9.219	0.529
1270.001	725.747	80.001	19.994	103.747	20.087	-9.300	0.513
1272.000	726.807	80.001	19.994	103.758	20.090	-9.532	0.518
1274.000	727.878	80.003	19.993	103.765	20.089	-9.427	0.541
1276.000	728.908	80.003	19.994	103.745	20.083	-9.018	0.498
1278.001	729.935	80.002	19.993	103.742	20.086	-9.257	0.524
1280.000	731.008	80.003	19.994	103.757	20.090	-9.522	0.544
1282.000	731.993	80.001	19.994	103.772	20.091	-9.614	0.492
1284.000	733.082	80.003	19.993	103.751	20.088	-9.357	0.549
1286.001	734.082	80.001	19.996	103.751	20.088	-9.410	0.524
1288.000	735.147	80.002	19.994	103.736	20.084	-9.101	0.561
1290.001	736.188	80.000	19.994	103.737	20.086	-9.215	0.528
1292.000	737.216	80.000	19.995	103.749	20.085	-9.153	0.513
1294.001	738.234	80.000	19.996	103.746	20.088	-9.373	0.507
1296.000	739.261	79.999	19.995	103.766	20.090	-9.535	0.507
1298.000	740.327	80.001	19.994	103.760	20.091	-9.574	0.556
1300.001	741.353	80.000	19.995	103.748	20.085	-9.152	0.534
1302.001	742.366	80.002	19.995	103.748	20.085	-9.151	0.512
1304.000	743.395	80.001	19.994	103.747	20.088	-9.349	0.519
1304.500	743.613	80.001	19.994	103.745	20.089	-9.453	0.500