File: 01_Data/Black_PMMA/MCC/Black_PMMA_MCC_30K_min_220325_R3.txt
Sample ID:	C:\MCC\MCC Cal\Test\Black_PMMA_MCC_30K_min_220325_R3.txt
Sample Weight (mg):	4.75
Heating Rate (C/s):	0.5
Combustor Temp (C):	900
N2 Flow Rate (cc/min):	80
O2 Flow Rate (cc/min):	20
Calibration File:	C:\MCC\MCC Cal\Coeff1 JN10440_30_210304.txt.txt
T Correction Coefficients:	0	1.024463	0
Time Shift (s):	14
*
Time (s)	Temperature (C)	N2 flow rate (cc/min)	O2 flow rate (cc/min)	Flow Rate (cc/min)	Oxygen (%)	HRR (W/g)	Heating rate (C/s)
0.000	106.675	80.004	19.994	103.695	19.957	-0.205	0.009
2.000	106.697	80.006	19.994	103.696	19.955	-0.076	0.017
4.000	106.667	80.005	19.994	103.693	19.952	0.099	0.003
6.000	106.704	80.005	19.993	103.698	19.953	0.065	0.014
8.000	106.688	80.006	19.993	103.705	19.949	0.305	0.039
10.000	106.683	80.005	19.994	103.714	19.947	0.440	-0.006
12.000	106.728	80.003	19.992	103.728	19.945	0.636	0.015
14.000	106.713	80.003	19.993	103.729	19.940	0.969	0.012
16.000	106.739	80.006	19.995	103.758	19.935	1.263	-0.032
18.000	106.773	80.006	19.994	103.771	19.937	1.171	0.014
20.000	106.807	80.005	19.994	103.779	19.936	1.221	0.004
22.000	106.858	80.005	19.994	103.804	19.934	1.334	0.014
24.000	106.979	80.005	19.994	103.806	19.931	1.540	0.023
26.000	107.090	80.007	19.994	103.823	19.927	1.847	0.056
28.000	107.186	80.008	19.993	103.846	19.921	2.254	0.027
30.000	107.366	80.008	19.993	103.871	19.918	2.428	0.072
32.000	107.602	80.006	19.994	103.885	19.918	2.434	0.106
34.000	107.828	80.008	19.994	103.884	19.913	2.798	0.135
36.000	108.076	80.008	19.994	103.890	19.909	3.084	0.108
38.000	108.387	80.006	19.994	103.905	19.906	3.265	0.144
40.001	108.660	80.007	19.995	103.906	19.907	3.196	0.141
42.000	109.033	80.004	19.995	103.917	19.904	3.429	0.198
44.001	109.412	80.005	19.995	103.925	19.901	3.629	0.203
46.001	109.821	80.004	19.995	103.925	19.905	3.360	0.210
48.000	110.273	80.004	19.995	103.930	19.903	3.480	0.227
50.000	110.664	80.004	19.994	103.922	19.903	3.499	0.185
52.001	111.103	80.005	19.994	103.924	19.904	3.420	0.250
54.000	111.622	80.006	19.994	103.923	19.905	3.357	0.241
56.000	112.127	80.005	19.994	103.914	19.900	3.665	0.259
58.000	112.610	80.004	19.993	103.909	19.903	3.469	0.237
60.000	113.195	80.005	19.995	103.910	19.904	3.393	0.267
62.000	113.759	80.004	19.994	103.927	19.894	4.066	0.283
64.000	114.349	80.004	19.993	103.927	19.902	3.553	0.288
66.000	114.908	80.004	19.995	103.927	19.899	3.738	0.298
68.000	115.513	80.005	19.995	103.928	19.898	3.845	0.311
70.000	116.117	80.003	19.996	103.930	19.895	3.984	0.291
72.000	116.743	80.004	19.996	103.930	19.897	3.896	0.325
74.000	117.423	80.005	19.995	103.932	19.902	3.561	0.340
76.000	118.005	80.005	19.994	103.928	19.896	3.973	0.302
78.000	118.706	80.002	19.995	103.931	19.899	3.719	0.365
80.000	119.368	80.005	19.994	103.936	19.895	4.019	0.303
82.000	120.063	80.003	19.994	103.936	19.896	3.925	0.361
84.000	120.788	80.004	19.993	103.933	19.896	3.973	0.333
86.000	121.524	80.006	19.993	103.933	19.899	3.767	0.368
88.000	122.291	80.007	19.994	103.937	19.897	3.910	0.380
90.000	123.022	80.006	19.993	103.943	19.892	4.249	0.358
92.000	123.764	80.007	19.995	103.933	19.895	3.993	0.359
94.001	124.562	80.006	19.994	103.932	19.896	3.948	0.396
96.000	125.309	80.004	19.994	103.936	19.893	4.177	0.362
98.000	126.104	80.004	19.993	103.951	19.893	4.163	0.404
100.001	126.900	80.005	19.994	103.940	19.888	4.503	0.409
102.000	127.635	80.004	19.994	103.935	19.891	4.270	0.411
104.000	128.465	80.005	19.993	103.933	19.893	4.183	0.414
106.001	129.280	80.004	19.994	103.944	19.892	4.193	0.427
108.001	130.089	80.005	19.993	103.944	19.890	4.337	0.384
110.001	130.893	80.006	19.992	103.944	19.891	4.296	0.411
112.001	131.747	80.007	19.993	103.948	19.888	4.498	0.427
114.000	132.574	80.007	19.993	103.943	19.887	4.553	0.415
116.001	133.406	80.007	19.994	103.955	19.887	4.586	0.426
118.000	134.284	80.008	19.994	103.948	19.884	4.796	0.407
120.000	135.125	80.008	19.994	103.960	19.887	4.597	0.378
122.000	136.012	80.007	19.993	103.958	19.884	4.793	0.444
124.000	136.908	80.007	19.994	103.962	19.882	4.900	0.431
126.000	137.761	80.006	19.994	103.963	19.881	4.948	0.422
128.000	138.653	80.004	19.993	103.963	19.877	5.265	0.443
130.000	139.553	80.005	19.994	103.968	19.875	5.358	0.415
132.000	140.497	80.006	19.993	103.955	19.873	5.497	0.474
134.000	141.340	80.005	19.994	103.958	19.872	5.583	0.454
136.000	142.268	80.003	19.994	103.963	19.870	5.712	0.450
138.000	143.192	80.004	19.994	103.968	19.864	6.111	0.490
140.000	144.155	80.004	19.995	103.967	19.867	5.956	0.496
142.000	145.066	80.005	19.994	103.957	19.866	6.027	0.466
144.000	145.975	80.004	19.994	103.964	19.865	6.098	0.459
146.000	146.888	80.004	19.994	103.963	19.859	6.496	0.441
148.001	147.843	80.004	19.994	103.951	19.859	6.447	0.492
150.000	148.797	80.005	19.995	103.957	19.854	6.815	0.459
152.000	149.772	80.004	19.994	103.956	19.854	6.788	0.519
154.000	150.695	80.004	19.993	103.949	19.851	7.011	0.473
156.000	151.636	80.004	19.995	103.954	19.847	7.303	0.454
158.000	152.600	80.004	19.994	103.957	19.848	7.230	0.455
160.000	153.536	80.003	19.993	103.963	19.845	7.463	0.471
162.000	154.525	80.004	19.994	103.962	19.840	7.789	0.477
164.000	155.461	80.005	19.995	103.962	19.843	7.569	0.478
166.000	156.412	80.004	19.994	103.964	19.835	8.145	0.510
168.000	157.420	80.003	19.995	103.961	19.833	8.263	0.495
170.000	158.395	80.005	19.996	103.957	19.828	8.604	0.515
172.000	159.366	80.005	19.996	103.960	19.825	8.768	0.515
174.000	160.374	80.006	19.994	103.954	19.825	8.803	0.494
176.000	161.328	80.007	19.995	103.952	19.817	9.366	0.457
178.000	162.346	80.005	19.994	103.955	19.809	9.881	0.468
180.000	163.275	80.007	19.994	103.948	19.806	10.084	0.441
182.000	164.384	80.006	19.994	103.949	19.801	10.448	0.544
184.000	165.335	80.005	19.993	103.957	19.801	10.403	0.492
186.000	166.312	80.006	19.994	103.959	19.799	10.593	0.508
188.000	167.319	80.006	19.994	103.961	19.796	10.755	0.504
190.000	168.260	80.006	19.994	103.960	19.792	11.073	0.457
192.000	169.264	80.006	19.993	103.949	19.787	11.412	0.493
194.000	170.273	80.006	19.994	103.947	19.790	11.193	0.510
196.000	171.283	80.006	19.994	103.950	19.788	11.305	0.530
198.000	172.236	80.008	19.994	103.951	19.783	11.674	0.475
200.000	173.292	80.006	19.994	103.945	19.778	11.979	0.516
202.000	174.309	80.007	19.994	103.960	19.778	12.015	0.488
204.000	175.281	80.007	19.995	103.950	19.772	12.414	0.512
206.000	176.277	80.006	19.992	103.948	19.775	12.224	0.477
208.000	177.266	80.008	19.995	103.938	19.770	12.572	0.493
210.000	178.297	80.005	19.994	103.938	19.767	12.780	0.477
212.000	179.337	80.005	19.993	103.936	19.771	12.502	0.509
214.000	180.265	80.005	19.993	103.937	19.770	12.545	0.442
216.000	181.301	80.004	19.994	103.940	19.763	13.048	0.508
218.000	182.215	80.004	19.994	103.952	19.766	12.811	0.443
220.000	183.269	80.006	19.993	103.944	19.764	12.967	0.487
222.000	184.311	80.006	19.994	103.938	19.765	12.890	0.504
224.000	185.275	80.005	19.993	103.939	19.765	12.877	0.525
226.000	186.333	80.005	19.994	103.934	19.764	12.974	0.479
228.000	187.273	80.004	19.994	103.927	19.767	12.723	0.476
230.000	188.218	80.006	19.994	103.926	19.767	12.780	0.661
232.000	189.228	80.006	19.994	103.934	19.760	13.233	0.421
234.000	190.308	80.005	19.994	103.931	19.760	13.249	0.453
236.000	191.317	80.005	19.993	103.923	19.764	12.950	0.491
238.000	192.284	80.004	19.994	103.925	19.763	13.018	0.507
240.000	193.311	80.004	19.994	103.924	19.761	13.175	0.493
242.000	194.272	80.004	19.993	103.929	19.760	13.223	0.509
244.000	195.216	80.004	19.994	103.928	19.760	13.237	0.511
246.000	196.148	80.004	19.994	103.923	19.756	13.525	0.489
248.000	197.111	80.004	19.995	103.922	19.759	13.331	0.498
250.000	198.130	80.003	19.994	103.921	19.761	13.171	0.482
252.000	199.112	80.004	19.995	103.929	19.756	13.524	0.498
254.000	200.074	80.006	19.994	103.923	19.755	13.602	0.461
256.000	201.030	80.006	19.993	103.918	19.753	13.723	0.479
258.000	201.996	80.005	19.994	103.925	19.758	13.354	0.515
260.000	202.991	80.006	19.993	103.927	19.754	13.647	0.522
262.000	203.928	80.006	19.993	103.923	19.753	13.676	0.475
264.000	204.946	80.006	19.995	103.926	19.754	13.652	0.514
266.000	205.858	80.006	19.994	103.921	19.752	13.745	0.458
268.000	206.855	80.005	19.994	103.921	19.757	13.469	0.496
270.000	207.856	80.004	19.994	103.925	19.749	13.969	0.501
272.000	208.832	80.004	19.993	103.922	19.753	13.712	0.501
274.000	209.795	80.004	19.994	103.917	19.752	13.791	0.461
276.000	210.771	80.004	19.994	103.926	19.760	13.253	0.480
278.000	211.715	80.006	19.995	103.931	19.754	13.635	0.486
280.000	212.694	80.006	19.993	103.920	19.758	13.337	0.485
282.000	213.643	80.007	19.993	103.919	19.755	13.598	0.474
284.000	214.592	80.007	19.992	103.914	19.757	13.462	0.468
286.000	215.531	80.006	19.993	103.914	19.754	13.623	0.468
288.000	216.566	80.009	19.993	103.919	19.752	13.752	0.513
290.000	217.561	80.008	19.993	103.915	19.747	14.091	0.495
292.000	218.539	80.006	19.993	103.924	19.751	13.851	0.505
294.000	219.486	80.006	19.993	103.922	19.750	13.886	0.448
296.000	220.453	80.006	19.994	103.923	19.758	13.388	0.487
298.000	221.441	80.005	19.994	103.926	19.757	13.455	0.509
300.000	222.416	80.005	19.993	103.923	19.756	13.501	0.515
302.000	223.330	80.004	19.994	103.924	19.756	13.513	0.470
304.000	224.324	80.005	19.993	103.926	19.756	13.479	0.471
306.000	225.323	80.006	19.994	103.924	19.761	13.153	0.479
308.000	226.285	80.005	19.992	103.923	19.758	13.354	0.460
310.001	227.314	80.006	19.993	103.924	19.758	13.367	0.522
312.000	228.300	80.005	19.994	103.922	19.763	13.041	0.488
314.000	229.337	80.006	19.993	103.915	19.758	13.346	0.446
316.000	230.338	80.006	19.993	103.915	19.758	13.372	0.490
318.000	231.359	80.006	19.993	103.922	19.759	13.311	0.532
320.000	232.304	80.006	19.994	103.921	19.756	13.481	0.479
322.000	233.304	80.007	19.994	103.923	19.757	13.433	0.483
324.000	234.307	80.006	19.995	103.909	19.759	13.303	0.509
326.000	235.335	80.004	19.994	103.916	19.760	13.226	0.478
328.000	236.273	80.005	19.994	103.914	19.759	13.312	0.509
330.000	237.274	80.004	19.993	103.922	19.760	13.234	0.494
332.000	238.335	80.004	19.993	103.916	19.751	13.877	0.523
334.000	239.266	80.004	19.995	103.918	19.759	13.303	0.466
336.000	240.317	80.004	19.992	103.907	19.763	13.024	0.506
338.000	241.260	80.006	19.995	103.911	19.760	13.204	0.507
340.000	242.276	80.005	19.994	103.907	19.763	13.020	0.485
342.000	243.312	80.023	19.996	103.919	19.759	13.325	0.510
344.000	244.309	80.007	19.995	103.922	19.765	12.916	0.470
346.000	245.240	80.006	19.995	103.903	19.766	12.823	0.462
348.000	246.254	80.007	19.994	103.920	19.762	13.068	0.482
350.000	247.285	80.007	19.994	103.924	19.768	12.686	0.504
352.000	248.285	80.006	19.994	103.925	19.769	12.591	0.493
354.000	249.309	80.006	19.993	103.923	19.767	12.782	0.547
356.000	250.378	80.004	19.993	103.912	19.773	12.320	0.537
358.000	251.358	80.006	19.995	103.911	19.773	12.367	0.499
360.000	252.343	80.005	19.994	103.888	19.777	12.061	0.512
362.000	253.374	80.005	19.994	103.892	19.772	12.383	0.545
364.000	254.399	80.005	19.994	103.887	19.776	12.122	0.496
366.000	255.447	80.006	19.994	103.890	19.778	11.979	0.546
368.000	256.387	80.007	19.994	103.895	19.780	11.838	0.481
370.000	257.425	80.007	19.995	103.886	19.785	11.523	0.524
372.000	258.403	80.007	19.995	103.884	19.784	11.581	0.485
374.000	259.439	80.006	19.995	103.888	19.784	11.596	0.469
376.000	260.423	80.007	19.994	103.891	19.790	11.209	0.510
378.000	261.437	80.005	19.993	103.884	19.783	11.674	0.486
380.000	262.467	80.004	19.992	103.891	19.780	11.844	0.507
382.000	263.446	80.006	19.994	103.894	19.778	11.996	0.503
384.000	264.426	80.005	19.994	103.886	19.774	12.271	0.482
386.000	265.430	80.004	19.993	103.888	19.779	11.920	0.522
388.000	266.444	80.005	19.994	103.889	19.779	11.957	0.489
390.000	267.389	80.006	19.994	103.888	19.782	11.747	0.483
392.000	268.409	80.004	19.994	103.889	19.771	12.450	0.500
394.000	269.413	80.003	19.993	103.891	19.769	12.589	0.513
396.000	270.413	80.005	19.994	103.887	19.773	12.369	0.516
398.000	271.461	80.004	19.993	103.890	19.765	12.867	0.538
400.000	272.451	80.005	19.992	103.889	19.770	12.528	0.504
402.000	273.449	80.004	19.994	103.889	19.761	13.136	0.495
404.000	274.420	80.004	19.993	103.890	19.759	13.299	0.480
406.000	275.461	80.004	19.994	103.894	19.759	13.284	0.542
408.000	276.433	80.004	19.994	103.890	19.758	13.341	0.515
410.000	277.417	80.004	19.994	103.889	19.756	13.533	0.468
412.000	278.436	80.005	19.994	103.890	19.747	14.103	0.514
414.000	279.380	80.005	19.995	103.899	19.747	14.088	0.460
416.000	280.390	80.003	19.993	103.895	19.746	14.182	0.489
418.000	281.416	80.003	19.992	103.894	19.739	14.643	0.494
420.000	282.404	80.004	19.995	103.893	19.733	15.074	0.489
422.000	283.434	80.006	19.995	103.895	19.732	15.166	0.503
424.000	284.432	80.006	19.994	103.899	19.720	15.956	0.485
426.000	285.411	80.005	19.993	103.895	19.721	15.864	0.477
428.000	286.390	80.005	19.992	103.888	19.712	16.523	0.496
430.000	287.457	80.005	19.993	103.888	19.710	16.609	0.509
432.000	288.389	80.007	19.994	103.891	19.704	17.047	0.499
434.000	289.357	80.006	19.994	103.894	19.696	17.618	0.489
436.000	290.329	80.007	19.994	103.889	19.700	17.353	0.493
438.000	291.316	80.005	19.994	103.886	19.687	18.225	0.480
440.000	292.348	80.006	19.996	103.885	19.682	18.569	0.510
442.000	293.334	80.005	19.994	103.896	19.677	18.874	0.498
444.000	294.309	80.005	19.994	103.898	19.667	19.565	0.467
446.000	295.278	80.007	19.995	103.887	19.666	19.641	0.485
448.000	296.224	80.006	19.994	103.892	19.662	19.923	0.475
450.000	297.234	80.007	19.994	103.885	19.658	20.204	0.470
452.000	298.226	80.007	19.994	103.894	19.650	20.731	0.503
454.000	299.187	80.008	19.995	103.888	19.640	21.443	0.478
456.000	300.187	80.007	19.994	103.891	19.630	22.117	0.496
458.000	301.163	80.007	19.993	103.887	19.618	22.955	0.497
460.000	302.141	80.006	19.994	103.893	19.608	23.622	0.494
462.000	303.166	80.006	19.994	103.896	19.598	24.310	0.493
464.000	304.117	80.004	19.993	103.897	19.589	24.882	0.487
466.001	305.079	80.003	19.995	103.907	19.572	26.046	0.494
468.000	306.011	80.003	19.995	103.926	19.555	27.250	0.446
470.000	307.050	80.004	19.995	103.924	19.539	28.297	0.485
472.000	308.013	80.004	19.995	103.925	19.521	29.517	0.496
474.000	308.957	80.004	19.995	103.918	19.503	30.816	0.512
476.000	309.960	80.004	19.995	103.847	19.481	32.254	0.516
478.000	310.965	80.004	19.993	103.976	19.465	33.369	0.518
480.000	311.977	80.005	19.994	103.999	19.434	35.491	0.497
482.000	312.976	80.004	19.993	103.931	19.411	37.069	0.487
484.000	313.962	80.004	19.994	103.938	19.388	38.658	0.486
486.000	314.953	80.005	19.993	103.963	19.355	40.889	0.491
488.000	315.940	80.005	19.994	103.948	19.326	42.849	0.485
490.000	316.881	80.006	19.993	103.956	19.294	45.085	0.493
492.000	317.914	80.005	19.994	103.920	19.259	47.463	0.517
494.000	318.862	80.005	19.993	103.894	19.226	49.743	0.450
496.000	319.881	80.004	19.993	104.019	19.194	51.898	0.511
498.000	320.875	80.006	19.994	103.972	19.146	55.154	0.505
500.000	321.855	80.007	19.994	103.967	19.107	57.871	0.470
502.000	322.801	80.004	19.993	103.972	19.060	61.085	0.487
504.000	323.845	80.004	19.993	103.980	19.024	63.556	0.520
506.000	324.806	80.006	19.994	103.997	18.973	67.047	0.487
508.000	325.805	80.005	19.993	103.999	18.921	70.556	0.504
510.000	326.785	80.005	19.994	104.004	18.876	73.658	0.511
512.000	327.758	80.007	19.993	104.013	18.823	77.267	0.471
514.000	328.712	80.007	19.993	104.023	18.774	80.633	0.475
516.000	329.697	80.007	19.993	104.029	18.717	84.544	0.500
518.000	330.697	80.007	19.994	104.042	18.664	88.199	0.529
520.000	331.684	80.007	19.992	104.042	18.612	91.754	0.517
522.000	332.703	80.007	19.994	104.047	18.555	95.643	0.512
524.000	333.667	80.006	19.994	104.048	18.494	99.781	0.505
526.000	334.700	80.007	19.993	104.063	18.438	103.607	0.512
528.000	335.638	80.006	19.994	104.081	18.379	107.647	0.449
530.000	336.654	80.007	19.994	104.080	18.323	111.501	0.483
532.000	337.623	80.006	19.993	104.077	18.267	115.357	0.487
534.000	338.666	80.005	19.993	104.080	18.208	119.394	0.510
536.000	339.636	80.006	19.994	104.083	18.154	123.072	0.488
538.000	340.600	80.007	19.994	104.083	18.099	126.818	0.495
540.000	341.576	80.007	19.993	104.083	18.052	130.071	0.481
542.000	342.613	80.008	19.994	104.092	18.000	133.602	0.502
544.000	343.592	80.008	19.993	104.104	17.954	136.759	0.504
546.000	344.552	80.006	19.993	104.097	17.901	140.406	0.488
548.000	345.520	80.005	19.993	104.098	17.855	143.580	0.489
550.000	346.503	80.004	19.994	104.120	17.807	146.852	0.531
552.000	347.477	80.005	19.994	104.124	17.755	150.405	0.487
554.000	348.455	80.005	19.994	104.125	17.706	153.783	0.498
556.000	349.443	80.005	19.993	104.128	17.651	157.578	0.481
558.000	350.444	80.005	19.994	104.144	17.600	161.049	0.495
560.000	351.402	80.006	19.994	104.157	17.540	165.162	0.486
562.000	352.412	80.005	19.994	104.160	17.481	169.191	0.527
564.000	353.463	80.004	19.995	104.159	17.423	173.194	0.514
566.000	354.427	80.004	19.995	104.178	17.364	177.204	0.510
568.000	355.400	80.005	19.995	104.175	17.297	181.759	0.519
570.000	356.362	80.005	19.994	104.183	17.234	186.042	0.462
572.000	357.364	80.006	19.994	104.189	17.177	190.003	0.496
574.000	358.339	80.005	19.994	104.171	17.126	193.457	0.471
576.000	359.389	80.005	19.995	104.173	17.086	196.232	0.540
578.000	360.338	80.004	19.994	104.159	17.049	198.721	0.485
580.000	361.351	80.006	19.994	104.157	17.026	200.188	0.473
582.000	362.318	80.005	19.994	104.158	16.993	202.448	0.471
584.000	363.401	80.003	19.993	104.158	16.977	203.588	0.519
586.000	364.330	80.004	19.994	104.160	16.965	204.479	0.487
588.000	365.344	80.006	19.995	104.161	16.968	204.223	0.506
590.000	366.325	80.006	19.993	104.123	16.981	203.287	0.503
592.000	367.371	80.006	19.994	104.105	17.003	201.772	0.497
594.000	368.382	80.007	19.993	104.103	17.035	199.546	0.492
596.000	369.389	80.006	19.995	104.117	17.069	197.138	0.527
598.000	370.378	80.007	19.994	104.148	17.105	194.688	0.521
600.000	371.380	80.006	19.994	104.128	17.147	191.804	0.477
602.000	372.471	80.006	19.992	104.121	17.200	188.112	0.533
604.000	373.504	80.007	19.994	104.081	17.260	184.077	0.505
606.000	374.550	80.006	19.993	104.061	17.328	179.415	0.516
608.000	375.583	80.006	19.993	104.059	17.406	174.083	0.524
610.000	376.632	80.006	19.993	104.060	17.491	168.289	0.518
612.000	377.691	80.006	19.993	104.016	17.579	162.214	0.499
614.000	378.793	80.007	19.994	104.014	17.669	156.029	0.571
616.001	379.849	80.007	19.994	104.019	17.760	149.809	0.516
618.000	380.923	80.006	19.993	104.025	17.850	143.659	0.512
620.000	381.985	80.008	19.992	104.006	17.927	138.431	0.522
622.000	383.058	80.007	19.993	104.021	18.009	132.787	0.558
624.000	384.082	80.010	19.994	104.005	18.088	127.412	0.497
626.000	385.191	80.009	19.993	103.978	18.160	122.438	0.537
628.000	386.239	80.008	19.993	103.972	18.236	117.294	0.529
630.000	387.297	80.007	19.993	103.957	18.314	111.943	0.535
632.000	388.339	80.007	19.993	103.963	18.390	106.710	0.555
634.000	389.442	80.006	19.994	103.947	18.463	101.721	0.526
636.000	390.466	80.005	19.994	103.932	18.542	96.340	0.476
638.000	391.541	80.005	19.994	103.924	18.616	91.319	0.509
640.001	392.595	80.006	19.994	103.928	18.686	86.545	0.493
642.000	393.612	80.006	19.994	103.903	18.755	81.766	0.532
644.000	394.736	80.007	19.994	103.910	18.824	77.091	0.563
646.000	395.787	80.006	19.995	103.901	18.893	72.338	0.554
648.000	396.816	80.006	19.994	103.886	18.958	67.913	0.515
650.000	397.841	80.006	19.994	103.883	19.029	63.096	0.481
652.000	398.899	80.007	19.994	103.876	19.088	59.074	0.502
654.000	399.914	80.006	19.994	103.864	19.146	55.140	0.526
656.000	400.928	80.005	19.994	103.876	19.202	51.263	0.514
658.000	401.941	80.005	19.994	103.861	19.257	47.532	0.481
660.000	402.928	80.005	19.993	103.872	19.305	44.270	0.509
662.000	403.975	80.005	19.994	103.873	19.354	40.949	0.494
664.000	404.985	80.005	19.994	103.857	19.399	37.832	0.496
666.000	406.024	80.003	19.994	103.862	19.438	35.212	0.504
668.000	407.009	80.004	19.995	103.848	19.483	32.132	0.526
670.000	408.028	80.003	19.995	103.850	19.518	29.713	0.509
672.000	409.027	80.003	19.994	103.848	19.549	27.589	0.522
674.000	410.043	80.003	19.995	103.849	19.581	25.445	0.484
676.000	411.026	80.003	19.995	103.848	19.605	23.824	0.463
678.000	412.027	80.004	19.993	103.848	19.630	22.079	0.522
680.000	413.004	80.006	19.994	103.848	19.655	20.392	0.501
682.000	414.012	80.008	19.993	103.848	19.678	18.822	0.501
684.000	414.956	80.008	19.994	103.848	19.694	17.727	0.466
686.000	415.922	80.007	19.994	103.850	19.709	16.708	0.509
688.000	416.893	80.007	19.993	103.850	19.727	15.505	0.483
690.000	417.919	80.006	19.993	103.850	19.739	14.641	0.479
692.000	418.882	80.004	19.994	103.849	19.751	13.808	0.463
694.000	419.872	80.003	19.994	103.846	19.764	12.974	0.505
696.000	420.856	80.008	19.993	103.846	19.774	12.271	0.515
698.000	421.842	80.006	19.994	103.853	19.782	11.704	0.466
700.000	422.810	80.005	19.994	103.851	19.790	11.178	0.477
702.000	423.822	80.007	19.994	103.846	19.798	10.599	0.517
704.000	424.796	80.009	19.994	103.843	19.804	10.188	0.497
706.000	425.772	80.007	19.994	103.845	19.812	9.641	0.477
708.000	426.770	80.008	19.994	103.845	19.817	9.344	0.517
710.000	427.780	80.008	19.993	103.844	19.823	8.939	0.507
712.000	428.750	80.008	19.994	103.846	19.820	9.134	0.484
714.000	429.751	80.007	19.994	103.845	19.825	8.797	0.471
716.000	430.759	80.009	19.993	103.844	19.830	8.481	0.503
718.000	431.730	80.006	19.993	103.844	19.828	8.577	0.481
720.000	432.775	80.006	19.993	103.845	19.832	8.325	0.534
722.001	433.792	80.007	19.993	103.790	19.833	8.276	0.505
724.000	434.825	80.007	19.994	103.836	19.835	8.093	0.489
726.000	435.809	80.005	19.993	103.881	19.841	7.695	0.476
728.000	436.842	80.005	19.994	103.904	19.840	7.742	0.524
730.000	437.862	80.006	19.993	103.848	19.836	8.024	0.496
732.000	438.838	80.006	19.993	103.849	19.841	7.731	0.499
734.000	439.863	80.010	19.992	103.847	19.837	7.940	0.538
736.000	440.834	80.006	19.994	103.851	19.844	7.486	0.480
738.000	441.856	80.006	19.994	103.847	19.842	7.626	0.537
740.000	442.917	80.004	19.995	103.847	19.845	7.447	0.541
742.000	443.860	80.007	19.994	103.848	19.846	7.340	0.535
744.000	444.873	80.005	19.994	103.845	19.847	7.314	0.502
746.000	445.844	80.007	19.994	103.843	19.850	7.103	0.478
748.000	446.820	80.004	19.994	103.834	19.851	7.034	0.480
750.000	447.873	80.003	19.994	103.850	19.849	7.118	0.515
752.000	448.867	80.004	19.994	103.846	19.849	7.119	0.488
754.000	449.860	80.005	19.993	103.847	19.852	6.963	0.522
756.000	450.871	80.007	19.993	103.848	19.852	6.963	0.496
758.000	451.881	80.006	19.994	103.848	19.854	6.820	0.522
760.000	452.867	80.012	19.993	103.839	19.851	7.014	0.501
762.000	453.875	80.002	19.995	103.784	19.850	7.049	0.498
764.000	454.891	80.011	19.993	103.888	19.848	7.223	0.543
766.000	455.938	80.015	19.993	103.852	19.849	7.166	0.549
768.000	456.883	79.996	19.996	103.842	19.846	7.377	0.493
770.000	457.903	80.021	19.993	103.832	19.844	7.466	0.512
772.000	458.886	80.001	19.996	103.833	19.847	7.275	0.486
774.000	459.935	80.007	19.996	103.819	19.847	7.260	0.528
776.000	460.871	80.014	19.993	103.835	19.850	7.058	0.458
778.000	461.879	80.008	19.994	103.821	19.848	7.246	0.478
780.000	462.864	79.999	19.994	103.824	19.851	7.030	0.469
782.000	463.853	80.003	19.994	103.835	19.854	6.789	0.467
784.000	464.822	80.010	19.994	103.841	19.853	6.858	0.486
786.000	465.818	80.011	19.993	103.842	19.852	6.968	0.477
788.000	466.822	80.002	19.995	103.843	19.849	7.155	0.487
790.000	467.843	79.997	19.996	103.821	19.850	7.104	0.518
792.000	468.851	80.011	19.993	103.814	19.850	7.050	0.492
794.000	469.867	80.009	19.993	103.825	19.851	7.045	0.538
796.000	470.899	80.008	19.993	103.829	19.851	7.004	0.548
798.000	471.890	80.005	19.993	103.840	19.851	7.009	0.490
800.000	472.849	80.000	19.994	103.847	19.852	6.929	0.513
802.000	473.887	80.013	19.993	103.834	19.854	6.824	0.510
804.000	474.914	80.005	19.994	103.848	19.851	7.022	0.534
806.000	475.955	80.011	19.994	103.831	19.847	7.304	0.492
808.000	476.955	80.011	19.993	103.836	19.853	6.852	0.519
810.000	477.959	80.010	19.993	103.844	19.851	7.008	0.507
812.000	479.023	80.008	19.991	103.839	19.854	6.831	0.504
814.000	480.022	79.999	19.994	103.846	19.848	7.206	0.499
816.000	481.081	79.998	19.993	103.841	19.849	7.130	0.546
818.000	482.057	80.013	19.994	103.840	19.851	6.981	0.523
820.001	483.074	80.009	19.993	103.841	19.848	7.210	0.501
822.000	484.137	80.009	19.993	103.830	19.849	7.183	0.532
824.000	485.135	80.009	19.994	103.834	19.843	7.564	0.523
826.000	486.153	79.996	19.995	103.832	19.846	7.349	0.516
828.000	487.155	80.005	19.994	103.814	19.843	7.541	0.467
830.000	488.257	80.004	19.993	103.829	19.848	7.236	0.527
832.000	489.234	80.006	19.995	103.832	19.846	7.367	0.508
834.000	490.220	80.000	19.995	103.834	19.847	7.289	0.490
836.000	491.275	80.014	19.993	103.831	19.846	7.344	0.532
838.000	492.276	80.010	19.994	103.833	19.844	7.471	0.527
840.000	493.356	80.008	19.994	103.827	19.846	7.334	0.542
842.000	494.350	80.001	19.994	103.815	19.848	7.195	0.470
844.000	495.399	80.006	19.996	103.820	19.846	7.337	0.514
846.000	496.455	80.010	19.994	103.833	19.845	7.410	0.492
848.001	497.453	80.008	19.994	103.835	19.847	7.266	0.491
850.000	498.499	80.006	19.993	103.836	19.847	7.291	0.526
852.000	499.516	80.008	19.994	103.836	19.845	7.440	0.512
854.000	500.511	80.009	19.993	103.828	19.850	7.111	0.492
856.000	501.568	80.002	19.995	103.833	19.847	7.254	0.492
858.000	502.571	80.007	19.994	103.835	19.843	7.560	0.507
860.000	503.616	80.003	19.994	103.832	19.848	7.235	0.523
862.000	504.638	80.009	19.994	103.822	19.845	7.395	0.506
864.000	505.661	80.009	19.994	103.830	19.848	7.204	0.504
866.000	506.722	80.009	19.994	103.836	19.849	7.159	0.524
868.000	507.743	80.003	19.996	103.839	19.846	7.334	0.544
870.000	508.751	80.011	19.994	103.831	19.848	7.230	0.496
872.000	509.749	80.001	19.995	103.839	19.849	7.148	0.493
874.000	510.810	80.005	19.994	103.834	19.849	7.153	0.520
876.000	511.804	80.000	19.995	103.826	19.846	7.382	0.495
878.000	512.848	79.987	19.995	103.841	19.850	7.060	0.528
880.000	513.898	80.007	19.993	103.839	19.851	7.045	0.545
882.000	514.938	80.002	19.994	103.847	19.845	7.411	0.508
884.000	515.965	80.002	19.994	103.839	19.846	7.340	0.518
886.001	517.034	80.008	19.993	103.842	19.846	7.383	0.528
888.000	518.066	80.005	19.995	103.832	19.847	7.297	0.519
890.000	519.086	80.000	19.995	103.842	19.848	7.199	0.495
892.000	520.155	80.007	19.994	103.846	19.845	7.401	0.532
894.000	521.155	80.008	19.993	103.845	19.847	7.264	0.501
896.000	522.174	80.007	19.993	103.836	19.846	7.366	0.493
898.000	523.214	80.013	19.992	103.841	19.847	7.314	0.553
900.000	524.301	80.009	19.993	103.845	19.842	7.618	0.563
902.000	525.364	80.006	19.994	103.839	19.847	7.317	0.526
904.000	526.386	80.010	19.992	103.841	19.845	7.441	0.543
906.000	527.406	80.007	19.994	103.848	19.844	7.502	0.520
908.000	528.477	80.009	19.993	103.852	19.846	7.328	0.525
910.000	529.521	79.995	19.995	103.843	19.841	7.687	0.497
912.000	530.563	80.007	19.993	103.836	19.842	7.609	0.531
914.000	531.600	80.003	19.994	103.838	19.844	7.469	0.547
916.000	532.695	80.008	19.993	103.843	19.843	7.567	0.551
918.000	533.716	80.004	19.993	103.839	19.844	7.474	0.522
920.000	534.766	80.003	19.993	103.839	19.841	7.727	0.526
922.000	535.838	80.006	19.993	103.843	19.844	7.480	0.539
924.000	536.870	80.004	19.993	103.838	19.845	7.411	0.543
926.000	537.974	80.005	19.994	103.844	19.846	7.363	0.557
928.000	539.002	80.005	19.993	103.844	19.846	7.336	0.531
930.000	540.067	80.002	19.995	103.846	19.843	7.563	0.513
932.000	541.143	80.018	19.992	103.850	19.844	7.514	0.552
934.000	542.161	80.011	19.993	103.849	19.845	7.447	0.499
936.000	543.257	80.001	19.995	103.852	19.847	7.298	0.543
938.000	544.318	80.007	19.994	103.839	19.842	7.659	0.532
940.000	545.343	80.008	19.994	103.845	19.843	7.538	0.500
942.000	546.443	80.015	19.994	103.840	19.846	7.328	0.557
944.000	547.493	80.006	19.993	103.848	19.849	7.181	0.542
946.001	548.486	80.000	19.995	103.847	19.847	7.297	0.511
948.000	549.572	80.006	19.994	103.842	19.845	7.396	0.520
950.000	550.600	80.012	19.994	103.847	19.843	7.591	0.532
952.000	551.683	79.999	19.995	103.844	19.845	7.422	0.521
954.000	552.712	80.006	19.994	103.844	19.846	7.348	0.518
956.000	553.761	80.007	19.994	103.850	19.844	7.472	0.532
958.000	554.874	79.998	19.994	103.848	19.847	7.274	0.573
960.000	555.879	80.005	19.995	103.843	19.850	7.112	0.493
962.000	556.953	80.018	19.993	103.841	19.848	7.230	0.517
964.000	557.968	80.008	19.994	103.845	19.849	7.126	0.536
966.000	559.099	80.006	19.994	103.843	19.851	7.028	0.559
968.000	560.149	80.004	19.994	103.845	19.848	7.225	0.546
970.000	561.201	79.997	19.995	103.847	19.848	7.237	0.553
972.000	562.312	80.004	19.995	103.845	19.852	6.944	0.558
974.000	563.394	80.002	19.995	103.864	19.858	6.527	0.565
976.000	564.458	80.006	19.994	103.881	19.860	6.412	0.537
978.000	565.435	80.006	19.995	103.857	19.859	6.437	0.531
980.000	566.514	80.002	19.995	103.849	19.852	6.928	0.553
982.000	567.584	80.008	19.994	103.844	19.851	7.016	0.569
984.000	568.596	80.006	19.994	103.844	19.848	7.239	0.537
986.000	569.633	80.001	19.994	103.835	19.846	7.345	0.496
988.000	570.683	80.002	19.993	103.837	19.843	7.553	0.522
990.000	571.738	80.008	19.993	103.838	19.843	7.594	0.534
992.000	572.794	80.007	19.993	103.838	19.843	7.573	0.545
994.000	573.802	80.007	19.994	103.832	19.838	7.891	0.525
996.000	574.865	80.004	19.993	103.839	19.838	7.869	0.510
998.000	575.881	80.004	19.993	103.829	19.842	7.617	0.505
1000.000	576.878	80.005	19.994	103.842	19.841	7.731	0.487
1002.000	577.881	80.005	19.994	103.844	19.840	7.765	0.515
1004.000	578.890	80.007	19.993	103.847	19.841	7.670	0.509
1006.001	579.925	80.004	19.994	103.832	19.843	7.561	0.507
1008.000	580.955	80.003	19.994	103.841	19.844	7.491	0.502
1010.000	581.971	80.003	19.993	103.845	19.841	7.723	0.510
1012.000	583.041	80.006	19.993	103.849	19.840	7.789	0.550
1014.000	584.065	80.006	19.993	103.848	19.838	7.898	0.494
1016.000	585.081	80.007	19.992	103.844	19.837	7.969	0.524
1018.000	586.154	80.008	19.993	103.843	19.840	7.795	0.551
1020.000	587.163	80.007	19.992	103.842	19.841	7.695	0.496
1022.000	588.184	80.007	19.992	103.837	19.840	7.730	0.494
1024.000	589.231	80.008	19.993	103.844	19.840	7.772	0.473
1026.000	590.214	80.006	19.994	103.831	19.841	7.698	0.482
1028.000	591.239	80.007	19.993	103.839	19.840	7.770	0.528
1030.000	592.254	80.007	19.995	103.832	19.840	7.776	0.508
1032.000	593.264	80.006	19.994	103.810	19.841	7.685	0.505
1034.000	594.238	80.004	19.995	103.825	19.842	7.608	0.474
1036.001	595.261	80.009	19.993	103.844	19.842	7.641	0.490
1038.000	596.298	80.008	19.994	103.841	19.839	7.824	0.490
1040.000	597.274	80.005	19.995	103.833	19.847	7.321	0.456
1042.000	598.269	80.008	19.993	103.832	19.843	7.536	0.515
1044.001	599.212	80.008	19.993	103.839	19.843	7.528	0.473
1046.000	600.247	80.009	19.994	103.839	19.840	7.741	0.505
1048.000	601.244	80.007	19.994	103.841	19.835	8.077	0.521
1050.000	602.191	80.007	19.994	103.840	19.843	7.571	0.490
1052.000	603.167	80.007	19.994	103.844	19.843	7.564	0.479
1054.000	604.153	80.006	19.994	103.841	19.842	7.633	0.486
1056.000	605.234	80.007	19.994	103.835	19.842	7.599	0.560
1058.001	606.209	80.007	19.995	103.837	19.843	7.586	0.495
1060.000	607.162	80.005	19.995	103.833	19.841	7.692	0.455
1062.000	608.174	80.006	19.996	103.827	19.842	7.630	0.505
1064.000	609.192	80.006	19.994	103.839	19.844	7.516	0.421
1066.000	610.172	80.005	19.994	103.844	19.845	7.456	0.495
1068.000	611.145	80.005	19.994	103.846	19.844	7.478	0.464
1070.000	612.151	80.006	19.994	103.837	19.842	7.622	0.487
1072.000	613.195	80.006	19.995	103.840	19.839	7.820	0.535
1074.000	614.182	80.005	19.993	103.844	19.840	7.755	0.493
1076.000	615.176	80.006	19.994	103.845	19.840	7.784	0.520
1078.000	616.203	80.004	19.994	103.846	19.841	7.728	0.471
1080.000	617.246	80.005	19.993	103.846	19.843	7.594	0.507
1082.000	618.250	80.007	19.994	103.845	19.838	7.899	0.517
1084.000	619.271	80.004	19.994	103.844	19.841	7.705	0.527
1086.000	620.215	80.004	19.993	103.845	19.841	7.731	0.468
1088.000	621.240	80.003	19.993	103.839	19.842	7.640	0.532
1090.000	622.269	80.006	19.994	103.842	19.839	7.810	0.522
1092.000	623.337	80.005	19.994	103.832	19.841	7.707	0.562
1094.000	624.329	80.005	19.994	103.831	19.839	7.805	0.534
1096.000	625.318	80.005	19.994	103.841	19.842	7.629	0.493
1098.000	626.326	80.007	19.993	103.836	19.841	7.702	0.483
1100.000	627.367	80.008	19.993	103.832	19.841	7.674	0.488
1102.000	628.344	80.008	19.994	103.833	19.839	7.818	0.520
1104.000	629.368	80.009	19.994	103.833	19.842	7.653	0.509
1106.000	630.408	80.007	19.994	103.835	19.838	7.881	0.517
1108.000	631.380	80.009	19.993	103.838	19.837	7.997	0.502
1110.000	632.401	80.006	19.993	103.844	19.841	7.713	0.496
1112.000	633.401	80.007	19.993	103.844	19.839	7.812	0.510
1114.001	634.395	80.008	19.994	103.845	19.840	7.789	0.486
1116.000	635.409	80.007	19.992	103.846	19.835	8.085	0.514
1118.000	636.406	80.008	19.994	103.845	19.841	7.666	0.501
1120.000	637.354	80.008	19.993	103.841	19.837	7.974	0.460
1122.000	638.354	80.009	19.993	103.841	19.835	8.119	0.480
1124.000	639.345	80.008	19.994	103.835	19.840	7.746	0.505
1126.000	640.277	80.008	19.994	103.843	19.839	7.830	0.464
1128.000	641.276	80.008	19.994	103.845	19.838	7.908	0.480
1130.000	642.279	80.008	19.994	103.843	19.837	7.937	0.474
1132.000	643.271	80.006	19.995	103.846	19.839	7.846	0.520
1134.000	644.326	80.008	19.994	103.844	19.839	7.811	0.482
1136.000	645.352	80.006	19.994	103.845	19.837	8.001	0.541
1138.000	646.424	80.005	19.994	103.845	19.836	8.008	0.568
1140.000	647.433	80.004	19.994	103.847	19.836	8.040	0.526
1142.000	648.488	80.006	19.994	103.840	19.835	8.121	0.518
1144.000	649.547	80.006	19.995	103.842	19.837	7.995	0.541
1146.000	650.622	80.006	19.994	103.849	19.836	8.011	0.552
1148.000	651.689	80.007	19.994	103.852	19.834	8.205	0.564
1150.000	652.765	80.006	19.994	103.850	19.829	8.514	0.582
1152.000	653.820	80.005	19.993	103.848	19.836	8.054	0.582
1154.000	654.881	80.005	19.994	103.836	19.829	8.487	0.520
1156.000	655.965	80.005	19.994	103.849	19.831	8.369	0.528
1158.000	657.045	80.006	19.994	103.847	19.826	8.708	0.544
1160.000	658.105	80.006	19.995	103.850	19.832	8.321	0.511
1162.000	659.162	80.005	19.995	103.844	19.829	8.525	0.523
1164.000	660.191	80.007	19.995	103.845	19.831	8.377	0.528
1166.000	661.307	80.005	19.994	103.848	19.832	8.344	0.582
1168.000	662.342	80.005	19.995	103.842	19.830	8.459	0.503
1170.001	663.403	80.004	19.994	103.844	19.832	8.320	0.551
1172.001	664.460	80.004	19.994	103.846	19.832	8.314	0.491
1174.000	665.562	80.006	19.994	103.849	19.833	8.233	0.541
1176.000	666.603	80.004	19.994	103.848	19.834	8.158	0.541
1178.000	667.661	80.006	19.993	103.847	19.832	8.344	0.556
1180.000	668.700	80.007	19.993	103.856	19.830	8.462	0.530
1182.000	669.758	80.008	19.994	103.850	19.829	8.504	0.548
1184.000	670.827	80.008	19.994	103.855	19.835	8.135	0.514
1186.000	671.922	80.008	19.993	103.859	19.833	8.253	0.538
1188.000	672.958	80.007	19.993	103.853	19.834	8.144	0.517
1190.000	674.027	80.007	19.993	103.845	19.835	8.108	0.544
1192.000	675.103	80.007	19.994	103.845	19.835	8.097	0.523
1194.000	676.161	80.007	19.994	103.844	19.829	8.546	0.515
1196.000	677.205	80.007	19.994	103.848	19.829	8.499	0.499
1198.000	678.268	80.007	19.994	103.846	19.830	8.481	0.550
1200.001	679.336	80.007	19.993	103.846	19.825	8.775	0.535
1202.000	680.404	80.008	19.993	103.846	19.828	8.592	0.531
1204.000	681.408	80.007	19.993	103.848	19.829	8.512	0.522
1206.000	682.443	80.009	19.992	103.847	19.831	8.389	0.504
1208.000	683.450	80.007	19.993	103.847	19.832	8.291	0.531
1210.000	684.470	80.007	19.992	103.849	19.830	8.466	0.501
1212.001	685.505	80.008	19.993	103.851	19.835	8.109	0.521
1214.000	686.477	80.008	19.993	103.850	19.834	8.143	0.465
1216.000	687.496	80.008	19.994	103.849	19.832	8.316	0.508
1218.000	688.554	80.008	19.993	103.854	19.829	8.540	0.530
1220.000	689.588	80.006	19.994	103.850	19.831	8.398	0.547
1222.000	690.626	80.006	19.993	103.856	19.833	8.240	0.495
1224.000	691.620	80.004	19.992	103.853	19.833	8.253	0.480
1226.001	692.697	80.005	19.994	103.849	19.831	8.411	0.530
1228.000	693.698	80.006	19.994	103.847	19.831	8.348	0.522
1230.000	694.700	80.005	19.994	103.845	19.830	8.465	0.507
1232.000	695.716	80.006	19.994	103.853	19.830	8.445	0.532
1234.000	696.719	80.006	19.995	103.854	19.828	8.592	0.495
1236.000	697.755	80.005	19.994	103.854	19.830	8.438	0.522
1238.000	698.840	80.007	19.995	103.849	19.831	8.350	0.522
1240.000	699.867	80.006	19.995	103.852	19.827	8.657	0.536
1242.000	700.861	80.007	19.995	103.848	19.828	8.552	0.531
1244.000	701.913	80.007	19.994	103.847	19.831	8.386	0.526
1246.001	702.957	80.006	19.996	103.844	19.831	8.379	0.538
1248.000	703.972	80.005	19.993	103.849	19.828	8.552	0.525
1250.000	704.975	80.005	19.995	103.848	19.830	8.445	0.475
1252.001	705.991	80.006	19.995	103.846	19.833	8.239	0.524
1254.000	706.928	80.005	19.996	103.843	19.828	8.586	0.497
1256.000	707.963	80.006	19.996	103.848	19.826	8.735	0.485
1258.001	708.924	80.006	19.995	103.845	19.828	8.617	0.472
1260.000	709.915	80.004	19.996	103.845	19.826	8.704	0.500
1262.000	710.905	80.008	19.995	103.845	19.828	8.573	0.504
1264.000	711.849	80.008	19.996	103.845	19.830	8.421	0.494
1266.000	712.829	80.008	19.994	103.848	19.828	8.604	0.449
1268.000	713.784	80.007	19.996	103.848	19.828	8.615	0.469
1270.001	714.730	80.008	19.994	103.847	19.825	8.787	0.486
1272.001	715.734	80.008	19.994	103.849	19.825	8.758	0.519
1274.000	716.709	80.008	19.992	103.852	19.828	8.579	0.533
1276.000	717.716	80.007	19.992	103.848	19.827	8.668	0.473
1278.000	718.704	80.005	19.996	103.857	19.830	8.466	0.489
1280.000	719.705	80.006	19.992	103.853	19.825	8.763	0.517
1282.000	720.725	80.007	19.995	103.854	19.829	8.498	0.508
1284.000	721.748	80.008	19.989	103.852	19.824	8.870	0.512
1286.000	722.776	80.005	19.992	103.852	19.828	8.588	0.506
1288.000	723.817	80.005	19.992	103.850	19.828	8.573	0.530
1290.000	724.892	80.005	19.995	103.853	19.830	8.476	0.528
1292.000	725.961	80.010	19.989	103.848	19.831	8.377	0.535
1294.000	726.934	80.009	19.993	103.846	19.830	8.462	0.457
1296.001	727.974	80.011	19.993	103.852	19.828	8.616	0.552
1298.000	728.972	80.005	19.994	103.852	19.827	8.628	0.485
1300.000	730.055	80.007	19.993	103.849	19.828	8.557	0.518
1302.000	731.054	80.004	19.995	103.853	19.827	8.664	0.523
1304.000	732.117	80.008	19.992	103.849	19.822	8.990	0.558
1306.001	733.173	80.007	19.994	103.842	19.827	8.656	0.541
1308.000	734.152	80.007	19.995	103.848	19.827	8.679	0.506
1310.000	735.145	80.006	19.994	103.843	19.827	8.663	0.513
1312.000	736.176	80.007	19.994	103.846	19.826	8.731	0.517
1314.001	737.142	80.007	19.993	103.849	19.824	8.879	0.507
1316.001	738.170	80.007	19.994	103.839	19.823	8.915	0.495
1318.000	739.174	80.006	19.993	103.842	19.822	8.960	0.496
1320.000	740.198	80.007	19.996	103.830	19.827	8.617	0.496
1322.000	741.233	80.008	19.993	103.830	19.828	8.572	0.559
1324.000	742.241	80.007	19.995	103.845	19.824	8.831	0.474
1326.001	743.213	80.005	19.995	103.844	19.830	8.440	0.492
1326.500	743.489	80.003	19.997	103.843	19.828	8.594	0.521