File: 01_Data/Microfiber_Sofa_Polystyrene/MCC/Microfiber_Sofa_Polystyrene_MCC_30K_min_220301_R1.txt
Sample ID:	C:\MCC\MCC Cal\Test\Polystyrene_81C_MCC_30K_min_220301_R1.txt
Sample Weight (mg):	4.1
Heating Rate (C/s):	0.5
Combustor Temp (C):	900
N2 Flow Rate (cc/min):	80
O2 Flow Rate (cc/min):	20
Calibration File:	C:\MCC\MCC Cal\Coeff1 JN10440_30_210304.txt.txt
T Correction Coefficients:	0	1.024463	0
Time Shift (s):	14
*
Time (s)	Temperature (C)	N2 flow rate (cc/min)	O2 flow rate (cc/min)	Flow Rate (cc/min)	Oxygen (%)	HRR (W/g)	Heating rate (C/s)
0.000	110.212	80.012	19.994	103.812	20.017	0.067	0.020
2.000	110.269	80.011	19.994	103.811	20.012	0.458	-0.006
4.000	110.334	80.010	19.993	103.795	20.015	0.270	0.019
6.000	110.378	80.010	19.994	103.792	20.017	0.071	0.060
8.000	110.386	80.012	19.994	103.811	20.012	0.469	-0.007
10.000	110.443	80.012	19.993	103.819	20.013	0.428	-0.002
12.000	110.512	80.011	19.994	103.829	20.010	0.623	0.017
14.000	110.559	80.012	19.993	103.850	20.011	0.534	0.011
16.000	110.603	80.013	19.994	103.862	20.008	0.804	0.009
18.000	110.650	80.014	19.994	103.872	20.007	0.865	0.007
20.001	110.758	80.012	19.993	103.905	20.002	1.241	0.059
22.000	110.885	80.013	19.993	103.931	19.999	1.509	0.073
24.000	111.031	80.013	19.992	103.912	20.003	1.215	0.067
26.000	111.201	80.012	19.993	103.914	19.999	1.518	0.031
28.000	111.408	80.012	19.993	103.893	20.002	1.248	0.102
30.000	111.553	80.012	19.992	103.899	20.005	1.014	0.094
32.000	111.815	80.013	19.993	103.873	20.003	1.198	0.101
34.000	112.027	80.014	19.992	103.877	19.998	1.562	0.132
36.001	112.235	80.013	19.993	103.903	19.994	1.865	0.104
38.000	112.456	80.013	19.993	103.911	19.993	2.014	0.098
40.000	112.709	80.013	19.994	103.921	19.989	2.259	0.099
42.001	112.985	80.013	19.993	103.936	19.990	2.199	0.155
44.001	113.288	80.011	19.993	103.952	19.985	2.629	0.121
46.001	113.622	80.014	19.994	103.974	19.983	2.753	0.135
48.000	113.936	80.013	19.993	103.980	19.979	3.079	0.185
50.000	114.305	80.013	19.993	103.990	19.979	3.060	0.222
52.001	114.667	80.011	19.993	104.002	19.978	3.186	0.181
54.000	115.125	80.010	19.993	103.992	19.978	3.132	0.231
56.000	115.577	80.012	19.994	103.998	19.973	3.528	0.212
58.000	116.035	80.012	19.993	103.999	19.970	3.818	0.261
60.000	116.536	80.012	19.994	103.985	19.971	3.753	0.258
62.001	117.000	80.011	19.994	103.993	19.973	3.543	0.211
64.001	117.579	80.011	19.994	103.997	19.970	3.807	0.284
66.001	118.129	80.012	19.993	104.007	19.963	4.329	0.300
68.000	118.700	80.011	19.994	104.010	19.964	4.290	0.296
70.001	119.270	80.011	19.994	104.011	19.967	4.022	0.281
72.001	119.898	80.012	19.995	104.013	19.967	4.048	0.301
74.000	120.589	80.011	19.995	104.016	19.971	3.721	0.339
76.000	121.215	80.011	19.994	104.016	19.973	3.591	0.286
78.000	121.882	80.011	19.994	104.017	19.974	3.513	0.317
80.000	122.582	80.012	19.994	104.019	19.972	3.652	0.357
82.001	123.303	80.013	19.994	104.023	19.971	3.716	0.346
84.000	124.030	80.011	19.994	104.021	19.971	3.753	0.371
86.000	124.797	80.011	19.995	104.019	19.969	3.890	0.360
88.000	125.602	80.011	19.993	104.017	19.970	3.791	0.410
90.000	126.430	80.012	19.994	104.019	19.970	3.773	0.405
92.000	127.226	80.012	19.993	104.018	19.970	3.834	0.358
94.001	128.018	80.012	19.993	104.018	19.968	3.959	0.428
96.000	128.861	80.012	19.993	104.026	19.972	3.608	0.429
98.000	129.675	80.013	19.993	104.034	19.969	3.864	0.440
100.000	130.489	80.014	19.994	104.029	19.968	3.968	0.393
102.000	131.328	80.014	19.992	104.023	19.968	3.999	0.412
104.000	132.241	80.012	19.993	104.028	19.962	4.416	0.446
106.000	133.091	80.012	19.994	104.023	19.964	4.308	0.440
108.000	133.979	80.011	19.993	104.022	19.967	4.052	0.466
110.000	134.896	80.012	19.994	104.022	19.962	4.470	0.463
112.000	135.785	80.011	19.993	104.039	19.963	4.327	0.433
114.000	136.684	80.011	19.993	104.029	19.965	4.193	0.474
116.000	137.620	80.012	19.993	104.024	19.965	4.221	0.474
118.000	138.467	80.012	19.993	104.022	19.966	4.156	0.451
120.000	139.444	80.013	19.992	104.024	19.963	4.375	0.482
122.001	140.410	80.014	19.992	104.028	19.960	4.578	0.491
124.000	141.315	80.015	19.993	104.029	19.968	3.974	0.456
126.000	142.336	80.015	19.992	104.028	19.963	4.325	0.509
128.000	143.315	80.015	19.992	104.019	19.966	4.123	0.495
130.000	144.271	80.014	19.993	104.023	19.966	4.117	0.464
132.000	145.302	80.013	19.994	104.016	19.962	4.454	0.504
134.000	146.177	80.011	19.995	104.018	19.966	4.141	0.466
136.000	147.237	80.010	19.993	104.016	19.967	4.050	0.514
138.000	148.284	80.012	19.994	104.017	19.969	3.870	0.522
140.000	149.233	80.012	19.993	104.017	19.970	3.799	0.510
142.000	150.336	80.012	19.995	104.016	19.970	3.835	0.498
144.000	151.207	80.011	19.995	104.017	19.972	3.618	0.429
146.000	152.341	80.012	19.994	104.017	19.969	3.854	0.507
148.000	153.346	80.011	19.993	104.015	19.969	3.854	0.539
150.000	154.367	80.011	19.994	104.013	19.970	3.794	0.512
152.000	155.404	80.011	19.993	104.014	19.973	3.579	0.501
154.000	156.388	80.012	19.994	104.012	19.970	3.761	0.515
156.000	157.398	80.011	19.994	103.998	19.970	3.774	0.478
158.000	158.432	80.012	19.993	104.003	19.976	3.354	0.535
160.000	159.464	80.012	19.994	104.003	19.972	3.672	0.506
162.000	160.470	80.011	19.993	103.998	19.969	3.882	0.497
164.000	161.493	80.011	19.994	103.993	19.970	3.810	0.507
166.000	162.488	80.011	19.995	103.998	19.970	3.838	0.482
168.000	163.501	80.009	19.995	103.984	19.972	3.657	0.480
170.000	164.580	80.009	19.994	103.984	19.970	3.808	0.534
172.000	165.586	80.010	19.994	103.987	19.971	3.756	0.493
174.000	166.589	80.010	19.994	103.987	19.975	3.425	0.492
176.000	167.592	80.011	19.994	103.981	19.973	3.583	0.516
178.000	168.581	80.011	19.993	103.983	19.973	3.564	0.477
180.001	169.637	80.011	19.994	103.981	19.974	3.490	0.509
182.000	170.648	80.011	19.993	103.982	19.973	3.598	0.506
184.000	171.648	80.014	19.993	103.982	19.976	3.334	0.492
186.000	172.673	80.012	19.993	103.981	19.973	3.581	0.527
188.000	173.717	80.013	19.993	103.979	19.975	3.410	0.531
190.000	174.713	80.012	19.993	103.976	19.976	3.310	0.486
192.000	175.691	80.012	19.995	103.975	19.975	3.388	0.519
194.000	176.682	80.012	19.993	103.973	19.977	3.258	0.494
196.001	177.718	80.012	19.993	103.971	19.976	3.330	0.509
198.000	178.715	80.011	19.994	103.974	19.975	3.442	0.534
200.000	179.715	80.012	19.993	103.969	19.977	3.239	0.496
202.000	180.707	80.012	19.993	103.972	19.976	3.290	0.499
204.000	181.726	80.013	19.994	103.975	19.975	3.442	0.494
206.000	182.716	80.013	19.995	103.976	19.972	3.633	0.504
208.000	183.702	80.013	19.994	103.965	19.973	3.522	0.490
210.000	184.724	80.013	19.994	103.963	19.979	3.087	0.530
212.000	185.700	80.013	19.993	103.961	19.978	3.156	0.491
214.000	186.726	80.013	19.993	103.964	19.979	3.059	0.506
216.000	187.711	80.012	19.993	103.975	19.978	3.165	0.495
218.000	188.735	80.012	19.993	103.972	19.978	3.197	0.519
220.000	189.670	80.012	19.993	103.971	19.978	3.154	0.454
222.000	190.680	80.012	19.993	103.963	19.979	3.052	0.489
224.000	191.703	80.012	19.994	103.953	19.974	3.444	0.502
226.000	192.688	80.011	19.994	103.962	19.976	3.307	0.492
228.000	193.666	80.011	19.993	103.963	19.979	3.048	0.512
230.000	194.650	80.011	19.994	103.958	19.978	3.204	0.509
232.000	195.641	80.011	19.994	103.945	19.979	3.113	0.485
234.000	196.644	80.011	19.994	103.948	19.976	3.327	0.508
236.000	197.594	80.011	19.993	103.952	19.975	3.381	0.473
238.000	198.602	80.010	19.993	103.950	19.979	3.093	0.481
240.000	199.580	80.031	20.001	103.966	19.977	3.210	0.502
242.000	200.584	80.012	19.996	103.972	19.976	3.323	0.514
244.000	201.611	80.009	19.996	103.963	19.974	3.459	0.504
246.000	202.521	80.009	19.994	103.951	19.978	3.193	0.465
248.000	203.558	80.009	19.992	103.944	19.980	2.998	0.496
250.000	204.522	80.009	19.994	103.947	19.976	3.314	0.470
252.000	205.515	80.011	19.996	103.946	19.974	3.452	0.494
254.000	206.473	80.011	19.995	103.952	19.978	3.160	0.492
256.000	207.447	80.011	19.995	103.943	19.974	3.452	0.513
258.000	208.414	80.011	19.994	103.942	19.975	3.396	0.506
260.000	209.464	80.012	19.994	103.943	19.977	3.223	0.502
262.000	210.442	80.012	19.994	103.944	19.978	3.199	0.492
264.000	211.426	80.012	19.994	103.937	19.975	3.439	0.496
266.000	212.340	80.012	19.995	103.938	19.975	3.417	0.489
268.000	213.330	80.012	19.994	103.939	19.972	3.621	0.461
270.000	214.334	80.012	19.995	103.937	19.974	3.519	0.466
272.000	215.312	80.012	19.994	103.939	19.973	3.584	0.508
274.000	216.337	80.012	19.995	103.936	19.972	3.618	0.506
276.000	217.336	80.011	19.995	103.937	19.975	3.398	0.500
278.000	218.293	80.012	19.994	103.939	19.974	3.458	0.484
280.000	219.297	80.012	19.994	103.938	19.975	3.378	0.476
282.000	220.269	80.013	19.993	103.938	19.976	3.344	0.472
284.000	221.267	80.013	19.992	103.938	19.977	3.238	0.520
286.000	222.259	80.013	19.992	103.939	19.976	3.309	0.504
288.000	223.226	80.012	19.994	103.939	19.976	3.333	0.500
290.000	224.246	80.013	19.993	103.940	19.976	3.348	0.515
292.000	225.255	80.014	19.993	103.934	19.975	3.411	0.524
294.001	226.292	80.014	19.993	103.936	19.973	3.571	0.531
296.000	227.232	80.013	19.993	103.938	19.971	3.740	0.479
298.000	228.269	80.010	19.993	103.926	19.969	3.884	0.490
300.000	229.276	80.011	19.993	103.930	19.973	3.588	0.519
302.000	230.296	80.010	19.994	103.934	19.971	3.714	0.512
304.000	231.295	80.011	19.994	103.932	19.975	3.419	0.479
306.000	232.318	80.010	19.993	103.940	19.973	3.558	0.492
308.000	233.275	80.011	19.993	103.941	19.972	3.653	0.507
310.000	234.267	80.011	19.993	103.939	19.971	3.727	0.460
312.000	235.277	80.011	19.995	103.943	19.970	3.824	0.498
314.000	236.261	80.011	19.993	103.945	19.970	3.821	0.504
316.000	237.264	80.012	19.992	103.934	19.969	3.910	0.499
318.000	238.254	80.012	19.993	103.937	19.968	3.936	0.513
320.000	239.285	80.012	19.993	103.936	19.967	4.037	0.491
322.001	240.243	80.011	19.993	103.937	19.966	4.098	0.511
324.000	241.232	80.011	19.993	103.929	19.965	4.178	0.532
326.000	242.232	80.012	19.994	103.931	19.965	4.195	0.530
328.000	243.245	80.012	19.993	103.931	19.963	4.314	0.517
330.000	244.234	80.011	19.993	103.921	19.962	4.403	0.495
332.000	245.241	80.010	19.994	103.922	19.962	4.450	0.506
334.000	246.245	80.011	19.994	103.927	19.959	4.638	0.517
336.000	247.245	80.010	19.995	103.923	19.959	4.664	0.506
338.000	248.224	80.012	19.994	103.919	19.962	4.404	0.503
340.000	249.281	80.012	19.994	103.916	19.967	4.050	0.534
342.000	250.313	80.013	19.994	103.920	19.961	4.530	0.513
344.001	251.251	80.013	19.994	103.922	19.966	4.087	0.453
346.000	252.276	80.012	19.994	103.917	19.964	4.266	0.498
348.000	253.265	80.013	19.993	103.906	19.967	4.015	0.479
350.000	254.310	80.014	19.993	103.906	19.962	4.413	0.506
352.000	255.323	80.012	19.994	103.907	19.961	4.515	0.517
354.000	256.363	80.012	19.995	103.903	19.964	4.257	0.491
356.000	257.342	80.011	19.994	103.910	19.965	4.166	0.505
358.000	258.433	80.011	19.995	103.902	19.964	4.279	0.529
360.000	259.406	80.012	19.995	103.908	19.966	4.089	0.468
362.000	260.386	80.011	19.995	103.906	19.968	3.981	0.487
364.000	261.384	80.011	19.995	103.905	19.964	4.279	0.483
366.000	262.362	80.013	19.994	103.901	19.964	4.294	0.468
368.000	263.359	80.012	19.994	103.905	19.964	4.288	0.498
370.000	264.407	80.013	19.994	103.912	19.963	4.370	0.519
372.000	265.420	80.013	19.996	103.906	19.963	4.378	0.499
374.000	266.454	80.013	19.994	103.914	19.962	4.447	0.486
376.000	267.433	80.012	19.994	103.908	19.961	4.514	0.508
378.000	268.426	80.012	19.992	103.906	19.956	4.925	0.502
380.000	269.431	80.011	19.993	103.905	19.957	4.832	0.533
382.000	270.455	80.010	19.993	103.902	19.961	4.542	0.535
384.000	271.445	80.011	19.994	103.903	19.957	4.858	0.514
386.000	272.469	80.011	19.995	103.902	19.957	4.832	0.508
388.000	273.450	80.012	19.994	103.900	19.959	4.681	0.480
390.000	274.448	80.011	19.994	103.897	19.957	4.817	0.478
392.000	275.449	80.012	19.993	103.898	19.957	4.823	0.461
394.000	276.480	80.011	19.994	103.899	19.954	5.068	0.515
396.000	277.468	80.012	19.994	103.898	19.957	4.852	0.491
398.000	278.485	80.012	19.994	103.899	19.954	5.040	0.538
400.000	279.504	80.012	19.994	103.900	19.953	5.165	0.508
402.000	280.489	80.012	19.993	103.899	19.947	5.576	0.522
404.001	281.461	80.012	19.993	103.900	19.946	5.671	0.496
406.000	282.460	80.013	19.993	103.900	19.946	5.690	0.493
408.000	283.479	80.012	19.993	103.899	19.943	5.915	0.533
410.000	284.470	80.012	19.994	103.898	19.947	5.602	0.503
412.000	285.481	80.010	19.993	103.900	19.946	5.695	0.506
414.000	286.545	80.011	19.994	103.899	19.949	5.492	0.534
416.000	287.454	80.011	19.993	103.900	19.945	5.742	0.498
418.001	288.422	80.011	19.993	103.896	19.948	5.563	0.484
420.000	289.432	80.010	19.993	103.901	19.945	5.779	0.531
422.000	290.448	80.012	19.993	103.900	19.944	5.887	0.513
424.000	291.487	80.011	19.993	103.900	19.940	6.140	0.480
426.000	292.487	80.013	19.994	103.900	19.939	6.269	0.508
428.000	293.547	80.013	19.994	103.897	19.939	6.273	0.532
430.000	294.544	80.013	19.993	103.895	19.939	6.218	0.510
432.000	295.572	80.014	19.995	103.897	19.934	6.633	0.500
434.000	296.622	80.013	19.993	103.897	19.933	6.715	0.493
436.000	297.558	80.011	19.994	103.885	19.927	7.178	0.473
438.000	298.567	80.012	19.994	103.883	19.927	7.223	0.490
440.000	299.529	80.013	19.994	103.891	19.928	7.098	0.463
442.000	300.591	80.012	19.993	103.900	19.925	7.367	0.513
444.000	301.559	80.012	19.993	103.902	19.925	7.350	0.482
446.000	302.566	80.013	19.993	103.904	19.924	7.407	0.497
448.000	303.601	80.013	19.994	103.901	19.922	7.581	0.485
450.000	304.545	80.014	19.994	103.895	19.919	7.828	0.480
452.000	305.575	80.014	19.994	103.892	19.923	7.547	0.505
454.000	306.609	80.012	19.994	103.885	19.918	7.945	0.511
456.000	307.601	80.012	19.994	103.890	19.917	7.980	0.478
458.000	308.581	80.012	19.994	103.884	19.912	8.406	0.491
460.000	309.629	80.012	19.994	103.882	19.911	8.429	0.492
462.000	310.605	80.011	19.995	103.893	19.911	8.453	0.526
464.000	311.662	80.010	19.994	103.892	19.910	8.566	0.491
466.000	312.712	80.011	19.995	103.897	19.905	8.944	0.557
468.000	313.659	80.012	19.994	103.894	19.905	8.922	0.505
470.000	314.724	80.013	19.994	103.893	19.904	9.052	0.503
472.000	315.696	80.012	19.994	103.895	19.901	9.238	0.492
474.000	316.719	80.013	19.994	103.895	19.895	9.696	0.515
476.000	317.761	80.013	19.994	103.897	19.891	10.045	0.541
478.000	318.704	80.013	19.994	103.892	19.891	10.075	0.503
480.000	319.704	80.014	19.994	103.892	19.886	10.412	0.503
482.000	320.716	80.013	19.993	103.891	19.886	10.455	0.510
484.000	321.728	80.011	19.994	103.891	19.886	10.419	0.502
486.000	322.740	80.013	19.993	103.898	19.878	11.096	0.521
488.000	323.696	80.010	19.994	103.900	19.877	11.182	0.482
490.000	324.681	80.011	19.993	103.899	19.870	11.737	0.496
492.000	325.732	80.012	19.995	103.895	19.867	11.969	0.494
494.000	326.714	80.012	19.994	103.901	19.866	12.008	0.522
496.000	327.706	80.011	19.994	103.899	19.856	12.847	0.502
498.000	328.713	80.012	19.994	103.899	19.853	13.031	0.506
500.000	329.713	80.012	19.993	103.892	19.845	13.705	0.490
502.000	330.677	80.013	19.993	103.893	19.840	14.063	0.475
504.000	331.679	80.013	19.992	103.897	19.835	14.448	0.475
506.000	332.737	80.013	19.992	103.898	19.827	15.114	0.553
508.000	333.729	80.012	19.992	103.898	19.820	15.646	0.505
510.000	334.711	80.012	19.992	103.884	19.814	16.165	0.530
512.000	335.686	80.014	19.992	103.892	19.809	16.488	0.479
514.000	336.656	80.012	19.993	103.891	19.798	17.370	0.484
516.000	337.688	80.013	19.993	103.896	19.793	17.788	0.497
518.000	338.704	80.011	19.994	103.893	19.779	18.879	0.514
520.000	339.699	80.011	19.994	103.898	19.770	19.584	0.525
522.000	340.707	80.012	19.995	103.899	19.760	20.379	0.558
524.000	341.716	80.012	19.995	103.899	19.749	21.231	0.524
526.000	342.717	80.012	19.995	103.896	19.736	22.313	0.499
528.000	343.717	80.012	19.993	103.888	19.724	23.277	0.478
530.000	344.755	80.014	19.995	103.889	19.720	23.572	0.516
532.000	345.751	80.013	19.993	103.882	19.714	24.070	0.499
534.000	346.803	80.015	19.994	103.874	19.715	23.923	0.532
536.000	347.820	80.014	19.993	103.884	19.715	23.940	0.482
538.000	348.868	80.013	19.994	103.900	19.713	24.109	0.521
540.000	349.891	80.013	19.993	103.899	19.709	24.448	0.498
542.000	350.929	80.012	19.994	103.898	19.706	24.683	0.521
544.000	351.918	80.011	19.995	103.899	19.703	24.905	0.524
546.000	352.972	80.010	19.994	103.898	19.697	25.415	0.534
548.000	354.001	80.010	19.994	103.900	19.690	25.952	0.500
550.000	355.070	80.010	19.994	103.900	19.685	26.300	0.540
552.000	356.090	80.012	19.996	103.895	19.674	27.231	0.513
554.000	357.092	80.010	19.996	103.902	19.666	27.826	0.494
556.000	358.127	80.010	19.996	103.901	19.654	28.809	0.519
558.000	359.138	80.010	19.994	103.902	19.639	29.935	0.499
560.000	360.186	80.011	19.995	103.902	19.629	30.750	0.536
562.000	361.163	80.011	19.993	103.902	19.612	32.123	0.526
564.000	362.233	80.012	19.993	103.901	19.596	33.408	0.504
566.000	363.200	80.010	19.993	103.899	19.574	35.146	0.487
568.000	364.230	80.012	19.993	103.903	19.554	36.704	0.512
570.000	365.285	80.011	19.994	103.904	19.537	38.041	0.530
572.000	366.293	80.011	19.994	103.904	19.513	39.957	0.510
574.000	367.269	80.010	19.993	103.905	19.489	41.827	0.524
576.000	368.307	80.010	19.994	103.905	19.469	43.432	0.537
578.000	369.288	80.011	19.993	103.904	19.438	45.860	0.488
580.000	370.250	80.011	19.993	103.906	19.414	47.748	0.492
582.000	371.272	80.011	19.993	103.903	19.381	50.400	0.478
584.000	372.287	80.010	19.995	103.901	19.355	52.415	0.506
586.000	373.314	80.012	19.994	103.901	19.321	55.130	0.493
588.000	374.369	80.013	19.994	103.902	19.283	58.084	0.523
590.000	375.336	80.012	19.993	103.902	19.245	61.125	0.507
592.000	376.315	80.013	19.994	103.910	19.204	64.408	0.491
594.000	377.326	80.012	19.993	103.901	19.172	66.940	0.493
596.000	378.355	80.012	19.993	103.900	19.136	69.730	0.508
598.000	379.373	80.013	19.993	103.900	19.104	72.296	0.543
600.000	380.386	80.012	19.992	103.901	19.075	74.617	0.557
602.000	381.376	80.012	19.993	103.904	19.043	77.109	0.499
604.000	382.389	80.012	19.994	103.928	19.002	80.339	0.504
606.000	383.379	80.011	19.993	103.940	18.954	84.143	0.509
608.000	384.357	80.012	19.994	103.954	18.891	89.095	0.478
610.000	385.404	80.012	19.993	103.960	18.820	94.766	0.492
612.000	386.370	80.013	19.994	103.944	18.739	101.154	0.451
614.000	387.386	80.012	19.994	103.939	18.658	107.648	0.485
616.000	388.367	80.013	19.994	103.930	18.591	112.943	0.500
618.000	389.355	80.012	19.993	103.912	18.528	117.899	0.499
620.000	390.328	80.013	19.993	103.918	18.465	122.876	0.504
622.000	391.315	80.011	19.994	103.934	18.381	129.480	0.481
624.000	392.289	80.011	19.994	103.988	18.277	137.743	0.499
626.000	393.301	80.011	19.994	104.022	18.167	146.506	0.479
628.000	394.306	80.011	19.993	103.993	18.070	154.165	0.480
630.000	395.313	80.010	19.994	103.949	17.971	162.039	0.502
632.000	396.307	80.010	19.994	103.942	17.866	170.306	0.447
634.000	397.305	80.011	19.994	103.968	17.755	179.106	0.490
636.000	398.254	80.011	19.993	104.019	17.639	188.316	0.464
638.001	399.339	80.011	19.993	104.028	17.512	198.432	0.539
640.000	400.206	80.011	19.994	104.019	17.391	208.162	0.465
642.000	401.245	80.011	19.994	104.025	17.271	217.659	0.451
644.000	402.194	80.011	19.994	104.009	17.128	228.612	0.450
646.000	403.184	80.011	19.995	104.030	16.982	239.892	0.401
648.000	404.080	80.010	19.994	104.040	16.772	256.772	0.443
650.000	405.166	80.010	19.994	104.062	16.485	280.108	0.384
652.000	405.718	80.010	19.994	104.142	16.303	294.502	0.213
654.000	406.937	80.009	19.994	104.009	16.187	303.397	0.697
656.000	408.444	80.010	19.994	103.863	16.036	315.474	0.847
658.000	408.891	80.009	19.993	103.874	15.890	327.195	0.183
660.000	410.297	80.011	19.993	104.071	15.757	337.574	0.361
662.000	411.209	80.011	19.993	104.205	15.623	348.051	0.502
664.000	412.271	80.012	19.993	104.117	15.476	359.660	0.515
666.000	413.156	80.011	19.994	104.070	15.317	372.311	0.524
668.000	414.212	80.012	19.994	104.128	15.149	385.843	0.502
670.000	415.203	80.012	19.994	104.138	15.000	397.640	0.490
672.000	416.213	80.012	19.994	104.091	14.881	407.023	0.450
674.000	417.228	80.011	19.994	104.057	14.778	415.734	0.538
676.000	418.193	80.012	19.994	104.060	14.689	423.275	0.487
678.000	419.193	80.011	19.993	104.102	14.636	427.797	0.512
680.000	420.238	80.011	19.993	104.141	14.635	425.158	0.473
682.000	421.187	80.010	19.993	104.117	14.585	427.882	0.515
684.000	422.199	80.012	19.993	104.163	14.397	443.359	0.503
686.000	423.247	80.012	19.994	104.328	14.079	470.969	0.565
688.000	424.256	80.012	19.993	104.483	13.928	484.529	0.509
690.001	425.306	80.014	19.993	104.202	14.041	474.721	0.491
692.000	426.319	80.012	19.992	103.596	14.245	457.906	0.510
694.000	427.308	80.013	19.991	103.514	14.455	440.991	0.536
696.000	428.399	80.013	19.992	103.890	14.670	423.827	0.538
698.000	429.493	80.013	19.992	104.482	14.872	407.739	0.513
700.000	430.534	80.013	19.992	104.477	15.077	391.563	0.511
702.000	431.554	80.013	19.993	104.290	15.294	374.323	0.513
704.000	432.664	80.011	19.993	104.197	15.539	354.808	0.563
706.000	433.779	80.011	19.993	104.147	15.793	334.621	0.522
708.000	434.839	80.011	19.994	104.129	16.057	313.723	0.521
710.000	435.918	80.010	19.994	104.129	16.327	292.305	0.540
712.000	437.007	80.010	19.994	104.129	16.602	270.582	0.542
714.000	438.089	80.010	19.994	104.110	16.884	248.214	0.549
716.000	439.122	80.011	19.994	104.093	17.157	226.501	0.524
718.000	440.225	80.010	19.994	104.082	17.423	205.433	0.554
720.000	441.328	80.011	19.994	104.089	17.683	184.804	0.558
722.000	442.405	80.011	19.994	104.079	17.918	166.205	0.540
724.000	443.484	80.012	19.994	104.076	18.148	147.951	0.541
726.000	444.566	80.012	19.993	104.059	18.358	131.298	0.504
728.000	445.640	80.011	19.993	104.047	18.554	115.808	0.547
730.000	446.693	80.011	19.994	104.021	18.725	102.287	0.550
732.000	447.743	80.010	19.996	104.009	18.882	89.819	0.517
734.000	448.816	80.011	19.994	104.000	19.014	79.403	0.555
736.000	449.822	80.009	19.993	103.976	19.137	69.672	0.540
738.000	450.875	80.010	19.994	103.950	19.242	61.335	0.513
740.000	451.949	80.010	19.994	103.939	19.334	54.051	0.521
742.000	453.034	80.010	19.994	103.918	19.413	47.859	0.535
744.000	454.004	80.010	19.995	103.901	19.476	42.874	0.498
746.000	455.069	80.010	19.994	103.881	19.533	38.307	0.522
748.000	456.105	80.010	19.994	103.870	19.582	34.453	0.511
750.000	457.126	80.012	19.993	103.867	19.624	31.130	0.530
752.000	458.246	80.011	19.993	103.865	19.657	28.515	0.522
754.000	459.206	80.012	19.994	103.869	19.690	25.927	0.514
756.000	460.246	80.012	19.994	103.868	19.721	23.514	0.514
758.000	461.290	80.011	19.993	103.864	19.743	21.765	0.557
760.000	462.293	80.013	19.994	103.864	19.768	19.765	0.475
762.000	463.296	80.012	19.994	103.867	19.787	18.273	0.529
764.000	464.266	80.010	19.993	103.862	19.806	16.779	0.496
766.000	465.254	80.011	19.992	103.866	19.820	15.649	0.498
768.000	466.258	80.011	19.994	103.869	19.835	14.439	0.506
770.000	467.253	80.011	19.992	103.865	19.851	13.227	0.492
772.000	468.256	80.013	19.993	103.864	19.859	12.602	0.483
774.000	469.270	80.014	19.993	103.859	19.877	11.143	0.503
776.001	470.291	80.013	19.994	103.858	19.890	10.149	0.540
778.000	471.269	80.013	19.993	103.860	19.907	8.783	0.477
780.000	472.279	80.014	19.993	103.860	19.919	7.863	0.528
782.000	473.279	80.013	19.992	103.860	19.930	6.987	0.520
784.000	474.264	80.013	19.993	103.858	19.936	6.492	0.518
786.000	475.245	80.011	19.994	103.860	19.948	5.496	0.493
788.000	476.273	80.011	19.993	103.859	19.954	5.059	0.492
790.000	477.291	80.011	19.992	103.860	19.959	4.703	0.500
792.000	478.257	80.012	19.995	103.861	19.965	4.216	0.508
794.000	479.239	80.011	19.993	103.861	19.967	4.011	0.491
796.000	480.257	80.011	19.993	103.859	19.966	4.139	0.504
798.000	481.285	80.011	19.993	103.860	19.971	3.734	0.524
800.000	482.284	80.012	19.994	103.857	19.971	3.680	0.498
802.000	483.276	80.011	19.995	103.856	19.970	3.788	0.496
804.000	484.326	80.010	19.994	103.856	19.971	3.711	0.532
806.000	485.319	80.012	19.993	103.858	19.967	4.016	0.528
808.000	486.357	80.011	19.992	103.858	19.974	3.492	0.506
810.000	487.383	80.011	19.994	103.851	19.971	3.722	0.508
812.000	488.390	80.010	19.994	103.854	19.972	3.609	0.491
814.000	489.383	80.010	19.993	103.856	19.973	3.529	0.481
816.000	490.468	80.010	19.993	103.860	19.974	3.451	0.521
818.000	491.453	80.010	19.994	103.859	19.974	3.486	0.477
820.000	492.471	80.009	19.994	103.859	19.978	3.151	0.483
822.000	493.577	80.010	19.993	103.855	19.975	3.419	0.558
824.000	494.628	80.010	19.994	103.852	19.979	3.108	0.534
826.000	495.621	80.010	19.993	103.863	19.975	3.391	0.503
828.000	496.659	80.010	19.994	103.858	19.977	3.217	0.510
830.000	497.722	80.010	19.994	103.843	19.976	3.337	0.534
832.000	498.759	80.011	19.993	103.851	19.975	3.371	0.507
834.000	499.806	80.010	19.994	103.861	19.979	3.114	0.534
836.000	500.870	80.011	19.994	103.858	19.976	3.330	0.550
838.000	501.951	80.011	19.994	103.851	19.980	3.008	0.533
840.000	502.935	80.010	19.994	103.840	19.977	3.207	0.546
842.000	503.975	80.012	19.994	103.852	19.976	3.309	0.515
844.000	505.022	80.011	19.994	103.855	19.978	3.168	0.507
846.000	506.049	80.012	19.994	103.846	19.976	3.315	0.491
848.001	507.064	80.011	19.995	103.849	19.980	3.012	0.511
850.000	508.111	80.010	19.993	103.857	19.980	2.988	0.513
852.000	509.143	80.012	19.995	103.849	19.979	3.071	0.524
854.000	510.191	80.012	19.993	103.846	19.981	2.891	0.515
856.000	511.227	80.013	19.993	103.837	19.980	2.975	0.514
858.000	512.288	80.013	19.993	103.852	19.978	3.176	0.528
860.000	513.330	80.012	19.993	103.848	19.980	3.038	0.526
862.000	514.355	80.014	19.992	103.842	19.979	3.068	0.546
864.000	515.471	80.013	19.994	103.848	19.979	3.109	0.549
866.000	516.515	80.011	19.993	103.843	19.978	3.152	0.542
868.000	517.559	80.011	19.993	103.829	19.977	3.267	0.521
870.000	518.613	80.010	19.993	103.831	19.975	3.419	0.532
872.000	519.621	80.011	19.993	103.838	19.978	3.170	0.526
874.000	520.672	80.011	19.993	103.838	19.978	3.187	0.543
876.000	521.702	80.011	19.994	103.828	19.974	3.473	0.519
878.000	522.784	80.010	19.992	103.841	19.974	3.507	0.527
880.000	523.820	80.011	19.993	103.852	19.968	3.925	0.551
882.000	524.855	80.009	19.993	103.845	19.973	3.572	0.512
884.000	525.884	80.010	19.993	103.833	19.975	3.397	0.510
886.000	526.950	80.011	19.993	103.851	19.976	3.328	0.526
888.000	528.019	80.011	19.993	103.852	19.979	3.060	0.542
890.000	529.072	80.011	19.993	103.853	19.977	3.244	0.510
892.000	530.107	80.011	19.993	103.856	19.980	2.999	0.539
894.000	531.154	80.010	19.992	103.853	19.982	2.861	0.506
896.000	532.176	80.012	19.994	103.847	19.980	3.032	0.497
898.000	533.239	80.011	19.994	103.844	19.980	3.016	0.534
900.000	534.306	80.009	19.993	103.844	19.983	2.772	0.521
902.000	535.392	80.010	19.994	103.848	19.982	2.809	0.529
904.000	536.455	80.009	19.994	103.847	19.978	3.136	0.568
906.000	537.475	80.010	19.995	103.853	19.979	3.118	0.508
908.000	538.517	80.011	19.994	103.833	19.977	3.220	0.523
910.000	539.578	80.011	19.994	103.828	19.980	3.017	0.550
912.000	540.614	80.012	19.995	103.843	19.977	3.274	0.496
914.000	541.659	80.012	19.994	103.855	19.979	3.064	0.515
916.000	542.654	80.013	19.994	103.845	19.977	3.244	0.511
918.000	543.709	80.012	19.993	103.840	19.981	2.887	0.525
920.000	544.717	80.012	19.995	103.848	19.983	2.805	0.525
922.000	545.709	80.012	19.993	103.850	19.983	2.805	0.464
924.000	546.743	80.013	19.994	103.847	19.981	2.952	0.515
926.000	547.823	80.011	19.994	103.849	19.982	2.842	0.541
928.000	548.794	80.013	19.995	103.837	19.979	3.099	0.488
930.001	549.901	80.011	19.994	103.846	19.977	3.207	0.507
932.000	550.970	80.012	19.996	103.849	19.977	3.245	0.555
934.000	552.016	80.013	19.995	103.846	19.978	3.138	0.533
936.000	553.034	80.012	19.995	103.846	19.983	2.753	0.517
938.000	554.062	80.013	19.996	103.839	19.980	2.995	0.499
940.000	555.128	80.013	19.994	103.853	19.977	3.280	0.503
942.000	556.142	80.013	19.993	103.842	19.981	2.930	0.506
944.000	557.159	80.013	19.993	103.840	19.983	2.729	0.492
946.000	558.164	80.013	19.993	103.857	19.980	3.032	0.522
948.000	559.236	80.012	19.993	103.847	19.977	3.218	0.530
950.000	560.239	80.012	19.993	103.833	19.978	3.162	0.528
952.000	561.287	80.011	19.993	103.849	19.979	3.077	0.497
954.000	562.335	80.011	19.993	103.850	19.978	3.134	0.533
956.000	563.359	80.010	19.994	103.848	19.977	3.276	0.520
958.000	564.357	80.011	19.993	103.851	19.978	3.124	0.502
960.000	565.358	80.010	19.994	103.859	19.981	2.926	0.494
962.000	566.382	80.011	19.992	103.854	19.977	3.209	0.526
964.000	567.405	80.013	19.994	103.860	19.977	3.261	0.506
966.000	568.426	80.011	19.993	103.856	19.975	3.431	0.498
968.000	569.425	80.010	19.994	103.844	19.976	3.337	0.507
970.000	570.470	80.012	19.993	103.838	19.980	3.021	0.520
972.000	571.474	80.011	19.994	103.856	19.978	3.164	0.507
974.000	572.477	80.012	19.994	103.856	19.979	3.075	0.528
976.000	573.521	80.011	19.993	103.838	19.978	3.174	0.526
978.000	574.527	80.010	19.993	103.842	19.980	3.032	0.495
980.000	575.547	80.011	19.993	103.854	19.978	3.181	0.498
982.000	576.603	80.011	19.992	103.854	19.978	3.161	0.551
984.000	577.586	80.010	19.994	103.851	19.978	3.151	0.526
986.000	578.632	80.010	19.994	103.849	19.977	3.252	0.521
988.000	579.608	80.012	19.994	103.852	19.979	3.051	0.501
990.000	580.642	80.012	19.994	103.841	19.985	2.634	0.509
992.000	581.673	80.012	19.994	103.840	19.980	2.975	0.505
994.000	582.732	80.011	19.994	103.851	19.979	3.049	0.525
996.000	583.715	80.012	19.994	103.843	19.980	3.023	0.497
998.000	584.700	80.012	19.994	103.845	19.981	2.894	0.496
1000.000	585.730	80.013	19.995	103.838	19.981	2.911	0.503
1002.000	586.743	80.012	19.993	103.843	19.981	2.937	0.535
1004.000	587.807	80.012	19.995	103.848	19.977	3.224	0.531
1006.000	588.817	80.011	19.993	103.844	19.981	2.958	0.508
1008.000	589.790	80.012	19.994	103.843	19.983	2.774	0.458
1010.000	590.816	80.011	19.993	103.847	19.980	3.036	0.521
1012.000	591.851	80.012	19.993	103.855	19.978	3.133	0.541
1014.000	592.823	80.011	19.994	103.859	19.980	2.997	0.502
1016.001	593.853	80.012	19.994	103.850	19.978	3.174	0.513
1018.000	594.811	80.012	19.993	103.844	19.976	3.309	0.480
1020.000	595.856	80.013	19.995	103.834	19.979	3.084	0.532
1022.000	596.861	80.013	19.995	103.838	19.979	3.119	0.475
1024.000	597.896	80.013	19.993	103.846	19.980	2.976	0.508
1026.000	598.936	80.012	19.995	103.848	19.976	3.311	0.502
1028.001	599.962	80.012	19.994	103.857	19.977	3.257	0.497
1030.001	600.946	80.011	19.996	103.858	19.977	3.252	0.514
1032.000	601.975	80.009	19.995	103.857	19.973	3.531	0.514
1034.000	603.032	80.011	19.995	103.855	19.975	3.403	0.516
1036.000	604.018	80.011	19.994	103.852	19.977	3.245	0.499
1038.000	605.054	80.011	19.994	103.855	19.974	3.457	0.496
1040.000	606.087	80.011	19.994	103.840	19.978	3.157	0.506
1042.000	607.089	80.010	19.993	103.844	19.978	3.183	0.513
1044.000	608.142	80.012	19.994	103.835	19.980	2.999	0.497
1046.000	609.192	80.011	19.993	103.830	19.973	3.528	0.513
1048.000	610.161	80.011	19.993	103.836	19.976	3.312	0.552
1050.001	611.180	80.012	19.994	103.830	19.975	3.401	0.502
1052.000	612.210	80.011	19.993	103.841	19.973	3.585	0.524
1054.000	613.251	80.010	19.994	103.850	19.979	3.079	0.525
1056.000	614.283	80.012	19.993	103.841	19.973	3.575	0.512
1058.000	615.346	80.011	19.994	103.838	19.975	3.386	0.513
1060.001	616.365	80.009	19.994	103.838	19.974	3.451	0.507
1062.000	617.420	80.013	19.994	103.849	19.977	3.258	0.526
1064.000	618.396	80.011	19.994	103.846	19.978	3.192	0.501
1066.001	619.446	80.010	19.993	103.853	19.976	3.315	0.518
1068.000	620.454	80.010	19.994	103.854	19.976	3.301	0.496
1070.000	621.538	80.009	19.992	103.851	19.974	3.496	0.501
1072.001	622.545	80.012	19.993	103.846	19.978	3.200	0.522
1074.000	623.566	80.013	19.993	103.838	19.978	3.187	0.489
1076.000	624.588	80.012	19.994	103.844	19.975	3.399	0.506
1078.001	625.563	80.014	19.993	103.835	19.977	3.246	0.490
1080.000	626.577	80.015	19.994	103.829	19.978	3.153	0.488
1082.001	627.520	80.013	19.993	103.840	19.975	3.367	0.455
1084.000	628.574	80.012	19.993	103.851	19.976	3.320	0.524
1086.000	629.580	80.011	19.993	103.836	19.975	3.400	0.511
1088.001	630.563	80.011	19.994	103.846	19.974	3.482	0.505
1090.000	631.591	80.011	19.994	103.846	19.977	3.280	0.489
1092.000	632.600	80.012	19.995	103.855	19.975	3.388	0.494
1094.001	633.609	80.013	19.993	103.864	19.975	3.416	0.523
1096.000	634.633	80.013	19.993	103.860	19.974	3.496	0.542
1098.000	635.683	80.012	19.994	103.857	19.976	3.308	0.511
1100.000	636.711	80.012	19.994	103.851	19.973	3.537	0.488
1102.000	637.710	80.015	19.995	103.852	19.970	3.782	0.520
1104.000	638.703	80.015	19.994	103.847	19.969	3.881	0.506
1106.000	639.740	80.014	19.993	103.839	19.977	3.248	0.519
1108.000	640.743	80.013	19.995	103.835	19.977	3.213	0.512
1110.000	641.737	80.012	19.993	103.832	19.975	3.378	0.502
1112.001	642.771	80.012	19.994	103.842	19.977	3.202	0.502
1114.001	643.792	80.013	19.994	103.844	19.976	3.293	0.503
1116.000	644.760	80.011	19.995	103.842	19.978	3.129	0.449
1118.000	645.772	80.010	19.994	103.848	19.977	3.222	0.498
1120.000	646.795	80.011	19.995	103.842	19.980	2.988	0.508
1122.000	647.845	80.012	19.997	103.845	19.980	3.016	0.527
1124.000	648.866	80.011	19.997	103.834	19.983	2.753	0.514
1126.000	649.862	80.011	19.995	103.844	19.977	3.237	0.491
1128.000	650.914	80.011	19.995	103.848	19.977	3.244	0.528
1130.000	651.963	80.011	19.995	103.843	19.979	3.053	0.536
1132.000	653.036	80.010	19.993	103.840	19.979	3.075	0.518
1134.001	654.094	80.011	19.994	103.844	19.974	3.462	0.546
1136.000	655.111	80.012	19.995	103.847	19.977	3.226	0.504
1138.000	656.135	80.011	19.994	103.850	19.974	3.486	0.528
1140.000	657.150	80.011	19.993	103.847	19.978	3.185	0.515
1142.001	658.192	80.012	19.994	103.853	19.975	3.416	0.514
1144.000	659.250	80.011	19.993	103.853	19.975	3.407	0.523
1146.000	660.278	80.011	19.994	103.852	19.976	3.295	0.540
1148.000	661.297	80.011	19.994	103.853	19.977	3.246	0.498
1150.000	662.345	80.011	19.994	103.850	19.973	3.582	0.528
1152.000	663.353	80.011	19.995	103.841	19.976	3.356	0.517
1154.000	664.385	80.013	19.994	103.842	19.974	3.466	0.515
1156.000	665.384	80.013	19.993	103.831	19.977	3.274	0.478
1158.000	666.431	80.012	19.993	103.842	19.975	3.375	0.512
1160.000	667.457	80.013	19.993	103.832	19.978	3.183	0.532
1162.000	668.467	80.012	19.993	103.839	19.978	3.144	0.480
1164.000	669.516	80.013	19.994	103.835	19.976	3.297	0.514
1166.000	670.548	80.013	19.993	103.837	19.973	3.591	0.533
1168.000	671.541	80.012	19.993	103.846	19.974	3.449	0.498
1170.000	672.586	80.013	19.994	103.843	19.976	3.282	0.515
1172.001	673.610	80.012	19.992	103.830	19.973	3.576	0.538
1174.000	674.673	80.013	19.994	103.839	19.977	3.265	0.532
1176.000	675.677	80.012	19.993	103.831	19.974	3.468	0.509
1178.000	676.716	80.013	19.992	103.843	19.975	3.431	0.485
1180.001	677.706	80.014	19.993	103.838	19.976	3.291	0.479
1182.000	678.684	80.014	19.994	103.833	19.971	3.705	0.486
1184.001	679.746	80.013	19.994	103.841	19.974	3.511	0.511
1186.000	680.713	80.013	19.992	103.842	19.974	3.465	0.450
1188.000	681.706	80.015	19.994	103.842	19.969	3.839	0.493
1190.000	682.669	80.012	19.993	103.828	19.973	3.535	0.473
1192.000	683.653	80.012	19.994	103.825	19.970	3.786	0.501
1194.001	684.648	80.011	19.995	103.825	19.967	4.012	0.519
1196.000	685.583	80.011	19.995	103.824	19.970	3.820	0.481
1198.000	686.586	80.011	19.994	103.824	19.973	3.530	0.539
1200.000	687.571	80.011	19.993	103.826	19.973	3.578	0.517
1202.000	688.504	80.010	19.993	103.834	19.974	3.449	0.461
1204.000	689.491	80.011	19.993	103.833	19.978	3.198	0.481
1206.001	690.529	80.011	19.995	103.840	19.973	3.554	0.498
1208.000	691.507	80.010	19.993	103.837	19.972	3.615	0.486
1210.000	692.524	80.010	19.994	103.826	19.966	4.114	0.516
1212.000	693.561	80.013	19.996	103.836	19.973	3.561	0.516
1214.000	694.577	80.011	19.995	103.835	19.970	3.764	0.510
1216.001	695.593	80.010	19.994	103.829	19.971	3.686	0.517
1218.000	696.657	80.011	19.995	103.842	19.970	3.756	0.564
1220.000	697.630	80.010	19.995	103.836	19.968	3.961	0.486
1222.000	698.674	80.011	19.994	103.835	19.972	3.656	0.523
1224.000	699.625	80.011	19.994	103.829	19.965	4.166	0.473
1226.000	700.694	80.010	19.995	103.835	19.965	4.196	0.523
1228.000	701.740	80.010	19.994	103.837	19.968	3.950	0.521
1230.000	702.717	80.012	19.993	103.838	19.969	3.878	0.483
1232.000	703.779	80.011	19.994	103.837	19.966	4.077	0.552
1234.000	704.850	80.012	19.993	103.829	19.969	3.848	0.527
1236.000	705.833	80.011	19.993	103.842	19.970	3.822	0.505
1238.001	706.913	80.012	19.993	103.834	19.968	3.973	0.555
1240.000	707.929	80.013	19.994	103.831	19.972	3.613	0.497
1242.000	708.980	80.012	19.995	103.831	19.972	3.643	0.510
1244.000	710.090	80.013	19.995	103.831	19.973	3.548	0.556
1246.000	711.074	80.013	19.994	103.829	19.970	3.775	0.505
1248.000	712.167	80.013	19.993	103.828	19.969	3.893	0.576
1250.000	713.206	80.012	19.994	103.831	19.966	4.094	0.521
1252.000	714.325	80.012	19.994	103.835	19.967	4.053	0.536
1254.000	715.372	80.013	19.994	103.836	19.964	4.259	0.517
1256.000	716.478	80.012	19.994	103.830	19.971	3.739	0.552
1258.000	717.552	80.013	19.993	103.833	19.971	3.742	0.552
1260.000	718.598	80.013	19.992	103.828	19.970	3.796	0.541
1262.000	719.672	80.015	19.993	103.828	19.965	4.182	0.546
1264.000	720.687	80.016	19.992	103.839	19.967	4.039	0.497
1266.000	721.758	80.014	19.993	103.854	19.962	4.419	0.534
1268.000	722.780	80.015	19.992	103.837	19.969	3.909	0.552
1270.000	723.855	80.014	19.993	103.834	19.965	4.205	0.509
1272.000	724.879	80.013	19.994	103.848	19.966	4.079	0.510
1274.000	725.937	80.012	19.994	103.859	19.966	4.125	0.557
1276.000	726.952	80.011	19.994	103.851	19.965	4.222	0.508
1278.000	727.968	80.011	19.994	103.840	19.966	4.095	0.475
1280.000	729.009	80.010	19.993	103.845	19.964	4.254	0.503
1282.000	730.021	80.011	19.994	103.831	19.962	4.403	0.522
1284.001	731.067	80.011	19.994	103.828	19.964	4.295	0.511
1286.000	732.116	80.010	19.994	103.841	19.968	3.978	0.516
1288.000	733.123	80.011	19.994	103.845	19.968	3.936	0.513
1290.000	734.136	80.011	19.993	103.830	19.964	4.280	0.523
1292.000	735.163	80.012	19.994	103.830	19.966	4.075	0.517
1294.001	736.180	80.012	19.994	103.825	19.968	3.936	0.493
1296.000	737.211	80.012	19.993	103.828	19.969	3.900	0.509
1298.000	738.213	80.012	19.994	103.827	19.966	4.079	0.499
1300.000	739.225	80.010	19.993	103.823	19.962	4.444	0.490
1302.000	740.295	80.011	19.995	103.829	19.963	4.367	0.487
1304.000	741.286	80.011	19.994	103.832	19.964	4.269	0.507
1306.000	742.354	80.011	19.995	103.826	19.967	4.016	0.523
1308.000	743.314	80.010	19.995	103.828	19.969	3.898	0.506
1310.000	744.341	80.010	19.995	103.828	19.966	4.072	0.507
1312.000	745.279	80.010	19.995	103.832	19.972	3.662	0.449