File: 01_Data/PVC/Cone/PVC_Cone_HF25Scan_220218_R2.csv
Names,Time,Stack TC,Smoke TC,Exh Press,Smoke Comp,Smoke Meas,CO Meter,CO2 Meter,O2 Meter,Sample Mass,Ext Coeff,Start Test,Flame Verif
Chan Gain,,500,500,1,1,1,1,1,1,1,1,1.0,1.0
Offset,,0,0,0.132436,0,0,0,0,0,0,0,0.0,0.0
Gain,,1,1,25.011,15.4219,15.1528,1,1,1,1.00089,1.02113,1.0,1.0
Units,sec,C,C,Pa,%,%,%,%,%,g,/m,,
Baseline,,23.5566,24.3785,162.569,116.31,115.696,-0.00891854,0.0563413,20.975,-479.497,0.0474623,,
7,1.5,22.2117,22.9854,161.38,116.136,115.549,-0.00905321,0.0518531,20.9854,439.479,0.0454459,0.0,0.0
14,3.25,21.6463,22.5094,165.423,116.117,116.084,-0.00901577,0.0519737,20.9846,439.479,0.00250681,0.0,0.0
21,5,21.8956,21.6487,160.026,116.114,115.271,-0.00894914,0.0525578,20.984,439.449,0.0652735,0.0,0.0
28,6.75,21.967,22.8858,162.869,116.106,115.382,-0.00891853,0.0535986,20.9816,439.469,0.0560369,0.0,0.0
35,8.5,22.4201,22.9922,158.607,116.092,115.359,-0.0089041,0.0547469,20.9799,439.409,0.0567415,0.0,0.0
42,10.25,21.9517,22.9643,162.669,116.068,116.037,-0.00888518,0.05625,20.9775,439.409,0.00240647,0.0,0.0
49,12,22.413,22.6718,160.588,116.049,115.486,-0.00889335,0.0577847,20.9752,439.349,0.0435685,0.0,0.0
56,13.75,22.0108,22.8539,164.153,116.043,115.615,-0.0089699,0.0591112,20.9726,439.379,0.0330957,0.0,0.0
63,15.5,22.1821,23.1597,164.556,116.037,115.679,-0.00900392,0.0594758,20.9728,439.419,0.0276439,0.0,0.0
70,17.25,21.3451,22.659,163.37,115.994,115.097,-0.00889924,0.0589029,20.9738,439.399,0.0695317,0.0,0.0
77,19,22.1331,23.0563,161.643,115.972,115.537,-0.00866811,0.0579794,20.9747,439.359,0.0336648,0.0,0.0
84,20.75,22.3904,23.4253,163.659,115.946,115.392,-0.00856091,0.0566902,20.9769,439.309,0.0428937,0.0,0.0
91,22.5,22.3825,23.1724,165.844,115.929,115.62,-0.00862066,0.0555578,20.9787,439.379,0.0239057,0.0,0.0
98,24.25,21.8358,23.1208,165.83,115.884,115.246,-0.00881478,0.054602,20.9806,439.339,0.0494789,0.0,0.0
105,26,22.4252,22.8822,163.743,115.839,115.57,-0.00897903,0.0537417,20.9815,439.379,0.0208275,0.0,0.0
112,27.75,22.399,23.437,160.732,115.807,115.088,-0.00900782,0.0530912,20.9819,439.389,0.0557759,0.0,0.0
119,29.5,22.2237,23.1783,158.834,115.779,115.41,-0.00898304,0.0526811,20.9825,439.359,0.0286126,0.0,0.0
126,31.25,22.766,23.663,163.914,115.752,115.591,-0.00898949,0.0523335,20.9836,439.389,0.0124439,0.0,0.0
133,33,22.3595,23.7483,164.781,115.726,115.141,-0.00900704,0.052137,20.9841,439.419,0.0453747,0.0,0.0
140,34.75,22.6393,23.3837,162.902,115.654,114.969,-0.00900254,0.0520188,20.9843,439.419,0.0532277,0.0,0.0
147,36.5,22.5568,23.4903,162.58,115.612,115.011,-0.00905924,0.0518282,20.9845,439.439,0.0466686,0.0,0.0
154,38.25,23.0753,23.4474,170.151,115.577,115.15,-0.0091322,0.0517845,20.9845,439.389,0.0332085,0.0,0.0
161,40,22.5268,23.3892,161.186,115.526,115.151,-0.00911376,0.0519309,20.9837,439.379,0.0291958,0.0,0.0
168,41.75,22.6551,23.8168,161.855,115.462,115.095,-0.00901464,0.0521792,20.9837,439.339,0.0285498,0.0,0.0
175,43.5,22.905,23.6568,165.794,115.395,115.306,-0.00888027,0.0522715,20.9836,439.329,0.00685897,0.0,0.0
182,45.25,22.3669,23.4835,164.243,115.362,115.039,-0.00880338,0.0523118,20.9836,439.319,0.0250888,0.0,0.0
189,47,22.5374,23.2954,160.381,115.339,114.715,-0.00882521,0.0521526,20.9836,439.289,0.0485741,0.0,0.0
196,48.75,22.4432,23.7351,159.613,115.274,115.197,-0.00883233,0.0520011,20.9836,439.299,0.00601922,0.0,0.0
203,50.5,22.508,23.5564,161.02,115.218,114.963,-0.00880033,0.05182,20.9836,439.259,0.0198431,0.0,0.0
210,52.25,22.8377,23.2204,158.553,115.173,115.071,-0.00876753,0.0517164,20.9843,439.299,0.00790347,0.0,0.0
217,54,21.908,23.3044,163.043,115.134,114.826,-0.00874449,0.0514512,20.9847,439.319,0.0240356,0.0,0.0
224,55.75,22.8544,23.7619,164.069,115.086,114.989,-0.00870226,0.0512621,20.986,439.289,0.0075386,0.0,0.0
231,57.5,22.1527,23.2086,167.556,115.029,114.926,-0.00869614,0.0510906,20.9867,439.249,0.00800589,0.0,0.0
238,59.25,22.4095,24.2637,164.495,114.988,114.429,-0.00877015,0.0509549,20.9871,439.299,0.0436088,0.0,0.0
245,61,21.9729,23.5387,158.797,114.976,113.832,-0.00888803,0.0508823,20.9876,439.319,0.089582,0.0,0.0
252,62.75,22.658,24.1401,163.427,114.925,114.635,-0.00894283,0.0508233,20.9879,439.359,0.0226011,0.0,0.0
259,64.5,22.2836,23.9159,158.523,114.89,114.467,-0.00890605,0.0507177,20.988,439.309,0.0330116,0.0,0.0
266,66.25,22.9811,23.618,160.539,114.849,114.316,-0.00882288,0.0506243,20.9881,439.269,0.041696,0.0,0.0
273,68,22.9447,24.4069,166.703,114.813,113.675,-0.00878026,0.0505641,20.9881,439.289,0.089194,0.0,0.0
280,69.75,22.8606,23.9873,165.177,114.777,114.278,-0.00879818,0.0505547,20.9878,439.279,0.0389768,0.0,0.0
287,71.5,22.5259,24.0688,161.795,114.742,114.203,-0.00881441,0.0505442,20.9863,439.309,0.0421689,0.0,0.0
294,73.25,22.8375,24.3407,164.92,114.703,114.163,-0.0088173,0.0502798,20.9856,439.239,0.0422752,0.0,0.0
301,75,23.1132,24.1747,159.951,114.681,113.695,-0.00877017,0.0502417,20.9853,439.309,0.0773772,0.0,0.0
308,76.75,23.1377,24.4546,164.568,114.677,113.434,-0.00873034,0.0503689,20.9862,439.319,0.0976171,0.0,0.0
315,78.5,23.3437,24.0075,160.367,114.665,113.556,-0.00870006,0.0504851,20.9868,439.339,0.0870635,0.0,0.0
322,80.25,22.7071,23.5194,160.674,114.619,113.739,-0.00867727,0.0504672,20.987,439.279,0.0690263,0.0,0.0
329,82,22.8665,24.0597,159.111,114.612,113.104,-0.00873785,0.0506681,20.9872,439.239,0.118652,0.0,0.0
336,83.75,22.5005,23.8649,166.097,114.622,112.861,-0.00890553,0.0511147,20.9865,439.219,0.138745,0.0,0.0
343,85.5,23.3076,23.8127,159.242,114.613,111.794,-0.0090236,0.0515328,20.9862,439.189,0.223081,0.0,0.0
350,87.25,22.6053,24.4684,162.001,114.62,112.449,-0.00899257,0.0519014,20.9865,439.149,0.171285,0.0,0.0
357,89,23.0702,23.8914,163.097,114.592,111.8,-0.00879249,0.0520951,20.9868,439.149,0.220908,0.0,0.0
364,90.75,23.1582,24.1169,157.888,114.602,111.032,-0.00858222,0.0523669,20.987,439.019,0.283468,0.0,0.0
371,92.5,22.8156,24.3062,161.836,114.605,111.414,-0.00843588,0.0524189,20.9866,438.999,0.252964,0.0,0.0
378,94.25,23.2668,24.7588,163.967,114.61,110.151,-0.00833193,0.0526235,20.9865,438.959,0.355444,0.0,0.0
385,96,23.0777,23.6946,162.005,114.611,110.284,-0.00830581,0.052902,20.9864,438.779,0.344694,0.0,0.0
392,97.75,23.2181,24.1087,165.163,114.657,110.432,-0.00824796,0.0529728,20.9859,438.679,0.33625,0.0,0.0
399,99.5,23.3192,24.3428,164.581,114.666,110.027,-0.00814136,0.052975,20.9849,438.598,0.369902,0.0,0.0
406,101.25,23.1712,24.5243,161.125,114.682,110.138,-0.00801816,0.0529648,20.9845,438.438,0.362159,0.0,0.0
413,103,23.4223,24.5228,162.054,114.707,110.468,-0.00794604,0.0530634,20.9847,438.368,0.337333,0.0,0.0
420,104.75,23.1132,24.2938,160.748,114.727,109.513,-0.00794999,0.0532959,20.9837,438.268,0.416604,0.0,0.0
427,106.5,23.8966,24.8849,163.05,114.756,109.833,-0.00797336,0.0535134,20.9831,438.168,0.392746,0.0,0.0
434,108.25,23.6835,24.2202,165.217,114.792,107.823,-0.007974,0.0538873,20.9828,438.138,0.560991,0.0,0.0
441,110,23.5356,24.9019,161.529,114.813,107.239,-0.00793613,0.0541874,20.9826,438.008,0.611221,0.0,0.0
448,111.75,23.856,24.9924,163.276,114.845,108.877,-0.00789293,0.0541891,20.9832,437.908,0.477981,0.0,0.0
455,113.5,23.7174,25.325,160.297,114.888,109.148,-0.00796497,0.0541154,20.9833,437.818,0.459091,0.0,0.0
462,115.25,23.5738,24.8856,159.152,114.941,108.098,-0.00816158,0.0541499,20.9833,437.638,0.549838,0.0,0.0
469,117,23.474,24.5094,161.779,114.975,107.559,-0.008286,0.0543379,20.9822,437.598,0.597229,0.0,0.0
476,118.75,23.8774,25.0831,160.87,115.03,108.235,-0.00825935,0.0545832,20.9816,437.538,0.545391,0.0,0.0
483,120.5,23.9064,24.7315,164.289,115.075,108.507,-0.0081902,0.0547246,20.9813,437.387,0.5264,0.0,0.0
490,122.25,23.8249,25.2527,159.238,115.135,108.488,-0.00807838,0.0546267,20.9824,437.217,0.532689,0.0,0.0
497,124,23.7411,25.6703,165.794,115.197,109.79,-0.00792737,0.0544305,20.9833,437.197,0.430683,0.0,0.0
504,125.75,23.9256,25.0769,163.499,115.245,108.222,-0.00779039,0.0542213,20.9827,437.077,0.563122,0.0,0.0
511,127.5,23.6706,25.147,164.505,115.297,109.921,-0.00772997,0.0541464,20.9823,436.917,0.427656,0.0,0.0
518,129.25,23.8955,25.7052,161.451,115.374,108.641,-0.00771709,0.0540715,20.9821,436.797,0.538642,0.0,0.0
525,131,23.7952,25.6081,157.472,115.448,108.541,-0.00777039,0.0540115,20.982,436.707,0.552616,0.0,0.0
532,132.75,24.4899,25.1999,158.919,115.503,109.101,-0.00781765,0.0540513,20.982,436.607,0.51083,0.0,0.0
539,134.5,23.667,25.5842,161.642,115.571,107.975,-0.00778319,0.0540481,20.982,436.467,0.608898,0.0,0.0
546,136.25,23.9927,25.5819,162.779,115.633,109.097,-0.0077245,0.0539468,20.9819,436.397,0.521127,0.0,0.0
553,138,24.0018,25.5985,168.723,115.703,110.105,-0.00769648,0.0536028,20.983,436.216,0.444281,0.0,0.0
560,139.75,24.0443,25.2832,162.057,115.779,110.178,-0.00767411,0.0533907,20.9836,436.126,0.444128,0.0,0.0
567,141.5,24.0306,25.6318,164.243,115.839,108.913,-0.00767454,0.0535103,20.9839,436.026,0.552279,0.0,0.0
574,143.25,24.2255,25.1591,159.513,115.899,108.098,-0.00775774,0.0536944,20.9841,435.896,0.624088,0.0,0.0
581,145,23.8467,25.8964,156.518,115.958,108.224,-0.00799973,0.0536485,20.9842,435.816,0.618253,0.0,0.0
588,146.75,24.4254,25.4298,160.434,116.032,110.466,-0.00819186,0.0534511,20.9842,435.796,0.440345,0.0,0.0
595,148.5,24.1736,25.5541,158.468,116.102,111.065,-0.00820594,0.0533091,20.9834,435.586,0.397256,0.0,0.0
602,150.25,23.9513,25.6748,159.201,116.138,109.921,-0.00806015,0.0532529,20.9831,435.516,0.492796,0.0,0.0
609,152,24.5235,25.9217,161.38,116.169,109.63,-0.00791697,0.0533247,20.9827,435.476,0.518924,0.0,0.0
616,153.75,23.9085,25.8419,161.882,116.224,108.95,-0.0078494,0.0534796,20.9823,435.326,0.578956,0.0,0.0
623,155.5,24.445,25.5852,159.523,116.267,110.714,-0.0078443,0.0535281,20.9821,435.115,0.438342,0.0,0.0
630,157.25,24.0036,25.247,160.254,116.288,109.817,-0.00787777,0.0534511,20.9823,435.115,0.512886,0.0,0.0
637,159,24.1133,25.6478,162.354,116.307,109.256,-0.00788325,0.0533902,20.9824,435.055,0.560205,0.0,0.0
644,160.75,24.1487,25.8462,159.09,116.36,111.131,-0.00781797,0.0536206,20.9825,434.965,0.411872,0.0,0.0
651,162.5,24.0503,25.7853,162.868,116.388,110.562,-0.00775912,0.0537302,20.9825,434.845,0.459973,0.0,0.0
658,164.25,24.3493,25.8126,162.323,116.438,110.867,-0.00770471,0.053801,20.9826,434.765,0.439155,0.0,0.0
665,166,23.9144,25.0912,163.733,116.461,110.569,-0.00767143,0.0542075,20.9826,434.715,0.465022,0.0,0.0
672,167.75,24.1175,26.1501,161.037,116.535,110.461,-0.00759729,0.0546079,20.9826,434.535,0.479474,0.0,0.0
679,169.5,23.8239,25.6185,161.039,116.579,109.865,-0.00749926,0.054906,20.9826,434.395,0.53134,0.0,0.0
686,171.25,24.5475,26.0891,161.138,116.618,109.854,-0.00749298,0.0550151,20.9826,434.365,0.535207,0.0,0.0
693,173,24.2773,25.4705,160.735,116.658,111.409,-0.00755868,0.0549442,20.9823,434.355,0.41233,0.0,0.0
700,174.75,23.6554,25.624,160.599,116.706,111.293,-0.00758523,0.055078,20.9813,434.245,0.425389,0.0,0.0
707,176.5,24.3201,25.8666,160.577,116.765,110.364,-0.0075788,0.0555014,20.9808,434.134,0.50495,0.0,0.0
714,178.25,24.2266,25.8878,159.49,116.804,111.13,-0.00760235,0.0561857,20.9793,434.034,0.446046,0.0,0.0
721,180,24.2112,26.1743,162.07,116.848,111.565,-0.00762638,0.0566383,20.9791,434.004,0.414398,0.0,0.0
728,181.75,24.366,26.1644,160.399,116.872,111.397,-0.0076141,0.0567501,20.9794,433.954,0.429762,0.0,0.0
735,183.5,24.6683,25.7057,157.687,116.902,110.95,-0.00755576,0.0565624,20.9795,433.914,0.468097,0.0,0.0
742,185.25,24.1752,25.9542,162.5,116.949,110.315,-0.00748308,0.056338,20.9796,433.794,0.523071,0.0,0.0
749,187,24.4581,26.0737,160.055,116.964,110.234,-0.00749125,0.0558336,20.9808,433.614,0.530799,0.0,0.0
756,188.75,25.0802,26.2333,160.522,116.981,111.436,-0.00758579,0.0550773,20.9826,433.554,0.434966,0.0,0.0
763,190.5,24.8243,26.4167,159.455,116.998,112.11,-0.00769151,0.0544953,20.9834,433.484,0.38227,0.0,0.0
770,192.25,24.7031,26.7119,159.321,117.028,111.798,-0.00766128,0.0541356,20.9831,433.394,0.409511,0.0,0.0
777,194,24.2064,26.5035,165.413,117.039,112.709,-0.00752309,0.0548928,20.9813,433.314,0.337612,0.0,0.0
784,195.75,24.5052,26.3832,156.933,117.04,110.609,-0.00743841,0.056232,20.9804,433.274,0.50614,0.0,0.0
791,197.5,24.7625,26.3445,160.729,117.048,111.493,-0.00750972,0.0563042,20.9804,433.254,0.435512,0.0,0.0
798,199.25,24.5425,26.0945,160.708,117.051,112.957,-0.00759459,0.0560437,20.9807,433.094,0.318908,0.0,0.0
805,201,24.8264,26.1624,164.031,117.056,111.79,-0.00764395,0.0558718,20.9818,433.034,0.41234,0.0,0.0
812,202.75,24.3236,25.8907,161.799,117.057,110.864,-0.00763009,0.0557911,20.9808,432.943,0.486936,0.0,0.0
819,204.5,24.6031,26.3181,161.147,117.049,110.877,-0.00759542,0.0555794,20.9798,432.973,0.485205,0.0,0.0
826,206.25,24.9346,26.1286,164.485,117.05,112.467,-0.00756266,0.0552614,20.9794,432.883,0.35779,0.0,0.0
833,208,24.5468,25.9209,160.508,117.044,112.441,-0.00748899,0.0552909,20.9777,432.823,0.359422,0.0,0.0
840,209.75,24.5279,26.2762,156.137,117.036,111.068,-0.00737756,0.0556216,20.9768,432.713,0.468817,0.0,0.0
847,211.5,24.6679,26.3345,163.956,117.012,112.16,-0.00718187,0.0558605,20.9763,432.643,0.379397,0.0,0.0
854,213.25,25.1267,26.4985,162.159,116.992,112.323,-0.00703469,0.0562872,20.9751,432.533,0.364786,0.0,0.0
861,215,24.455,26.3995,156.612,116.977,111.87,-0.0069726,0.056925,20.9743,432.443,0.399843,0.0,0.0
868,216.75,25.0239,25.729,162.299,116.957,111.802,-0.00698544,0.0576254,20.9739,432.473,0.403738,0.0,0.0
875,218.5,25.1686,26.3986,163.101,116.937,111.882,-0.00709572,0.0577427,20.9737,432.333,0.39589,0.0,0.0
882,220.25,24.9954,26.1652,159.345,116.891,110.554,-0.00716895,0.0575022,20.9737,432.313,0.49932,0.0,0.0
889,222,24.6073,26.0325,157.238,116.876,111.642,-0.00718642,0.0573687,20.9736,432.203,0.4104,0.0,0.0
896,223.75,24.6982,26.5035,162.215,116.867,113.626,-0.00722212,0.0571477,20.9736,432.233,0.251948,0.0,0.0
903,225.5,24.6245,26.1222,163.393,116.812,112.292,-0.00730422,0.0571863,20.974,432.123,0.353481,0.0,0.0
910,227.25,25.0582,26.3245,161.286,116.784,110.811,-0.0073697,0.0575598,20.9746,432.073,0.47025,0.0,0.0
917,229,24.8211,26.2929,158.873,116.757,112.228,-0.00731908,0.0575812,20.9748,432.073,0.354423,0.0,0.0
924,230.75,24.8107,25.8417,160.169,116.749,111.659,-0.00715861,0.0572144,20.975,432.033,0.399284,0.0,0.0
931,232.5,24.9173,26.4885,160.915,116.71,111.854,-0.00704573,0.057089,20.975,431.933,0.380609,0.0,0.0
938,234.25,25.1246,25.8583,162.06,116.678,110.902,-0.00707983,0.0573683,20.9751,431.832,0.4548,0.0,0.0
945,236,24.6862,26.5263,157.265,116.647,111.238,-0.00715621,0.057712,20.976,431.792,0.425266,0.0,0.0
952,237.75,24.7733,26.115,157.099,116.632,110.769,-0.00715224,0.0570402,20.9767,431.712,0.46191,0.0,0.0
959,239.5,24.6437,26.5894,166.311,116.587,111.545,-0.00705751,0.0568097,20.9771,431.652,0.396022,0.0,0.0
966,241.25,24.7898,26.2899,162.724,116.549,112.859,-0.00701993,0.0575188,20.9761,431.612,0.288211,0.0,0.0
973,243,24.8103,26.5627,163.703,116.514,112.443,-0.00708931,0.0582771,20.9756,431.592,0.318553,0.0,1.0
980,244.75,25.1415,26.744,165.02,116.504,112.105,-0.00717933,0.0584377,20.9753,431.502,0.344798,0.0,0.0
987,246.5,25.1251,26.4668,165.422,116.487,112.584,-0.00735713,0.0582391,20.9752,431.422,0.305263,0.0,0.0
994,248.25,25.2546,27.0499,159.712,116.468,111.84,-0.00748734,0.0579825,20.9753,431.392,0.363172,0.0,0.0
1001,250,24.9555,26.4995,164.092,116.431,112.055,-0.00752981,0.0575097,20.9766,431.352,0.343106,0.0,0.0
1008,251.75,25.0777,26.8357,156.243,116.411,110.384,-0.00751321,0.0568708,20.9777,431.232,0.476144,0.0,0.0
1015,253.5,24.4603,26.3279,160.441,116.403,111.238,-0.00752668,0.0560704,20.979,431.132,0.406563,0.0,0.0
1022,255.25,25.3589,26.759,164.646,116.394,110.526,-0.00762364,0.055303,20.98,431.192,0.463402,0.0,0.0
1029,257,25.0889,26.1998,164.035,116.375,111.579,-0.00774015,0.0547005,20.9805,431.192,0.376952,0.0,0.0
1036,258.75,25.0339,26.3229,161.767,116.341,111.723,-0.00777285,0.0542932,20.9807,431.022,0.362805,0.0,0.0
1043,260.5,25.0127,26.4012,162.606,116.335,111.072,-0.00772879,0.0545302,20.9801,430.942,0.414686,0.0,0.0
1050,262.25,25.2542,26.4946,160.135,116.327,111.309,-0.00774669,0.055203,20.9793,430.912,0.394924,0.0,0.0
1057,264,25.1337,26.6216,165.581,116.314,110.699,-0.00779245,0.0550999,20.98,430.802,0.443201,0.0,0.0
1064,265.75,25.0466,26.5814,162.707,116.293,111.903,-0.00781045,0.0546163,20.9805,430.772,0.344699,0.0,0.0
1071,267.5,25.1964,26.5561,164.506,116.274,112.058,-0.00784066,0.0541526,20.9814,430.671,0.330819,0.0,0.0
1078,269.25,25.173,26.9369,162.663,116.283,111.335,-0.00791237,0.0535289,20.9822,430.731,0.389543,0.0,0.0
1085,271,25.2507,26.3659,163.848,116.271,111.154,-0.00801702,0.0529109,20.9828,430.641,0.403196,0.0,0.0
1092,272.75,24.7809,26.2452,161.405,116.261,111.053,-0.00808621,0.0526706,20.9827,430.541,0.410489,0.0,0.0
1099,274.5,24.9896,26.434,161.889,116.231,110.841,-0.00804443,0.0525983,20.9826,430.521,0.425267,0.0,0.0
1106,276.25,25.0579,26.4977,162.573,116.232,110.172,-0.00796181,0.0527824,20.9815,430.551,0.47965,0.0,0.0
1113,278,25.1101,26.8319,156.853,116.226,109.34,-0.00793009,0.053137,20.982,430.431,0.547035,0.0,0.0
1120,279.75,24.8221,27.0117,161.648,116.217,111.548,-0.00795978,0.0535622,20.9819,430.401,0.367296,0.0,0.0
1127,281.5,25.2647,26.5413,161.934,116.21,111.597,-0.0080108,0.0537217,20.981,430.321,0.362853,0.0,0.0
1134,283.25,24.9187,26.3965,161.811,116.184,110.794,-0.00801833,0.0536686,20.9807,430.351,0.425487,0.0,0.0
1141,285,25.4462,26.9714,163.041,116.193,112.008,-0.00806799,0.0538746,20.9805,430.331,0.328574,0.0,0.0
1148,286.75,25.0664,26.4383,156.958,116.18,111.985,-0.008101,0.0541178,20.9804,430.211,0.329408,0.0,0.0
1155,288.5,25.2536,26.8906,158.347,116.162,110.93,-0.00804962,0.0540382,20.9803,430.151,0.412761,0.0,0.0
1162,290.25,25.0228,26.9466,160.103,116.136,110.405,-0.00794338,0.053728,20.9803,430.081,0.453357,0.0,0.0
1169,292,24.9989,26.3302,154.639,116.159,112.183,-0.00784761,0.0535572,20.9815,429.991,0.311958,0.0,0.0
1176,293.75,25.1711,26.8715,156.725,116.149,110.494,-0.00781276,0.0535164,20.9821,430.001,0.447062,0.0,0.0
1183,295.5,25.0321,26.5379,159.119,116.154,111.021,-0.00785707,0.0535391,20.9829,429.951,0.404866,0.0,0.0
1190,297.25,24.9641,27.1352,157.547,116.175,112.28,-0.00783957,0.0535116,20.9828,429.881,0.305477,0.0,0.0
1197,299,24.5672,26.633,159.882,116.22,110.535,-0.00768745,0.053177,20.9822,429.771,0.449206,0.0,0.0
1204,300.75,25.2702,26.4488,159.48,116.263,111.47,-0.00758665,0.05335,20.9818,429.871,0.377091,0.0,0.0
1211,302.5,25.2142,26.8332,158.229,116.292,112.008,-0.00761899,0.0535663,20.9821,429.731,0.336189,0.0,0.0
1218,304.25,25.2949,26.5232,160.348,116.328,111.963,-0.00768459,0.0535552,20.9823,429.681,0.342606,0.0,0.0
1225,306,24.7555,26.3852,157.433,116.357,112.161,-0.00772895,0.0540146,20.9819,429.58,0.328959,0.0,0.0
1232,307.75,25.4941,26.8519,160.848,116.401,110.339,-0.00772059,0.0547593,20.981,429.55,0.479099,0.0,0.0
1239,309.5,25.1961,26.7609,161.266,116.443,113.096,-0.0076222,0.0554577,20.9789,429.47,0.261261,0.0,0.0
1246,311.25,25.1472,26.8372,163.898,116.465,112.5,-0.00751882,0.0570073,20.9772,429.49,0.310259,0.0,0.0
1253,313,25.1585,26.6283,163.076,116.502,112.187,-0.00749409,0.0585759,20.9759,429.4,0.338043,0.0,0.0
1260,314.75,25.0062,26.5864,159.563,116.553,111.016,-0.00746091,0.0584162,20.9753,429.37,0.435963,0.0,0.0
1267,316.5,25.1199,26.8778,159.297,116.587,111.287,-0.00732188,0.0580166,20.975,429.3,0.416766,0.0,0.0
1274,318.25,25.2419,26.0827,160.759,116.627,112.633,-0.00704349,0.0585975,20.9738,429.28,0.312143,0.0,0.0
1281,320,25.046,26.9789,162.338,116.645,110.442,-0.00663796,0.05991,20.9711,429.26,0.48951,0.0,0.0
1288,321.75,25.2131,26.9648,161.403,116.666,113.005,-0.00606678,0.0637763,20.9657,429.14,0.28555,0.0,1.0
1295,323.5,25.0295,26.7045,158.174,116.687,105.128,-0.00484443,0.0721122,20.9499,429.04,0.934368,0.0,1.0
1302,325.25,25.689,27.0616,156.334,116.713,97.2019,-0.00305057,0.0842734,20.9146,429.01,1.63853,0.0,1.0
1309,327,25.2363,26.9435,155.682,116.729,84.0772,-0.00128283,0.101814,20.8759,428.91,2.93904,0.0,1.0
1316,328.75,25.3085,27.3785,154.015,116.722,76.4629,0.000451436,0.118565,20.8473,428.73,3.78885,0.0,1.0
1323,330.5,25.992,27.7235,154.298,116.753,80.3565,0.00179279,0.133602,20.8222,428.61,3.34634,0.0,0.0
1330,332.25,26.199,27.7631,153.831,116.774,74.4324,0.00269829,0.144841,20.8031,428.62,4.0339,0.0,0.0
1337,334,26.6603,28.5081,156.188,116.774,82.221,0.00316493,0.152168,20.7939,428.489,3.14244,0.0,0.0
1344,335.75,26.6748,28.7715,157.72,116.801,78.5803,0.00336875,0.156294,20.7895,428.379,3.55024,0.0,0.0
1351,337.5,27.5513,29.0022,153.608,116.804,80.3829,0.00352398,0.159418,20.7873,428.219,3.3473,0.0,0.0
1358,339.25,27.6362,29.7897,157.772,116.82,83.1644,0.00364594,0.161161,20.7866,428.099,3.04379,0.0,0.0
1365,341,28.153,30.2538,155.693,116.833,86.0023,0.00366534,0.161633,20.7883,428.049,2.74427,0.0,0.0
1372,342.75,28.6382,30.6599,155.779,116.838,86.4264,0.00362179,0.161669,20.791,427.969,2.70054,0.0,0.0
1379,344.5,28.8979,31.0107,159.667,116.828,83.4779,0.00359574,0.161086,20.7948,427.829,3.01073,0.0,0.0
1386,346.25,29.0394,31.2644,156.166,116.848,87.6051,0.00353098,0.160169,20.799,427.679,2.58004,0.0,0.0
1393,348,29.4541,31.7578,152.085,116.856,89.1107,0.00340168,0.158702,20.8025,427.529,2.42801,0.0,0.0
1400,349.75,29.1027,31.7057,163.043,116.85,91.2351,0.00329535,0.157691,20.8052,427.459,2.21647,0.0,0.0
1407,351.5,29.6164,32.1942,156.853,116.853,96.148,0.00319665,0.157589,20.8067,427.338,1.74693,0.0,0.0
1414,353.25,30.1868,32.5983,157.953,116.85,98.4592,0.00289513,0.157744,20.8093,427.228,1.53395,0.0,0.0
1421,355,30.2333,32.7107,155.622,116.865,101.861,0.00249239,0.157008,20.8133,427.058,1.23083,0.0,0.0
1428,356.75,30.2654,32.8775,159.973,116.871,99.6476,0.00197995,0.15525,20.8173,427.018,1.42803,0.0,0.0
1435,358.5,30.6204,33.1042,156.807,116.873,102.28,0.00151665,0.153034,20.8219,426.878,1.19467,0.0,0.0
1442,360.25,30.3793,33.054,151.103,116.865,103.524,0.00109869,0.149991,20.8304,426.828,1.08582,0.0,0.0
1449,362,30.457,33.1675,158.149,116.879,105.23,0.000674873,0.146745,20.8362,426.808,0.940393,0.0,0.0
1456,363.75,30.7077,33.3067,157.744,116.888,107.542,0.00019523,0.144261,20.8397,426.718,0.746437,0.0,0.0
1463,365.5,30.7909,33.3913,159.633,116.876,105.911,-0.000368054,0.141584,20.8458,426.588,0.882383,0.0,0.0
1470,367.25,30.7101,33.5787,157.765,116.872,106.944,-0.000912163,0.137424,20.8574,426.398,0.795149,0.0,0.0
1477,369,30.7898,33.119,157.763,116.883,108.223,-0.00139216,0.129244,20.8732,426.418,0.689519,0.0,0.0
1484,370.75,30.344,33.1435,160.103,116.887,107.136,-0.00194384,0.120285,20.8876,426.187,0.780207,0.0,0.0
1491,372.5,30.7793,33.336,162.184,116.888,108.838,-0.0025457,0.112586,20.8992,426.268,0.639156,0.0,0.0
1498,374.25,30.7873,33.3791,160.438,116.883,111.791,-0.00325498,0.104183,20.9124,426.177,0.39893,0.0,0.0
1505,376,30.9016,33.0808,157.815,116.868,108.228,-0.00389056,0.0966743,20.9243,426.067,0.688021,0.0,0.0
1512,377.75,30.4234,32.7594,161.662,116.893,110.721,-0.00460632,0.0888396,20.936,426.047,0.485911,0.0,0.0
1519,379.5,30.2839,33.0624,160.749,116.877,109.44,-0.00526772,0.0809226,20.9491,425.987,0.588915,0.0,0.0
1526,381.25,29.9443,32.0835,158.813,116.863,108.885,-0.00575012,0.074536,20.9577,425.967,0.633366,0.0,0.0
1533,383,29.6613,32.0905,158.13,116.854,110.821,-0.00605792,0.0710191,20.9619,425.787,0.474767,0.0,0.0
1540,384.75,30.0968,32.2357,160.773,116.85,110.884,-0.0062273,0.069129,20.9639,425.827,0.469434,0.0,0.0
1547,386.5,29.2155,31.8498,160.78,116.852,110.423,-0.00632632,0.0672732,20.9664,425.727,0.506897,0.0,0.0
1554,388.25,29.3282,32.0942,166.501,116.841,111.64,-0.00645701,0.0641767,20.9697,425.557,0.407843,0.0,0.0
1561,390,29.4751,31.6586,160.639,116.809,112.399,-0.0066866,0.0616893,20.9728,425.517,0.344711,0.0,0.0
1568,391.75,29.4738,31.3603,160.476,116.806,111.895,-0.0069893,0.0596755,20.9751,425.577,0.384716,0.0,0.0
1575,393.5,28.6165,31.5972,163.495,116.795,112.268,-0.00724761,0.0582314,20.9762,425.547,0.354136,0.0,0.0
1582,395.25,28.7659,30.9673,161.105,116.779,111.674,-0.007397,0.0570807,20.9772,425.497,0.400407,0.0,0.0
1589,397,28.3511,30.4033,156.631,116.766,112.465,-0.00745771,0.0562824,20.9788,425.347,0.336121,0.0,0.0
1596,398.75,28.5108,30.3974,164.183,116.751,112.32,-0.00756708,0.0556757,20.9796,425.317,0.346574,0.0,0.0
1603,400.5,28.6167,30.8427,159.074,116.755,112.021,-0.00769405,0.0552828,20.9807,425.327,0.370791,0.0,0.0
1610,402.25,27.9519,30.403,162.499,116.728,112.302,-0.00775646,0.0548394,20.9806,425.267,0.346207,0.0,0.0
1617,404,27.9716,30.3355,160.957,116.714,113.083,-0.00778214,0.0545591,20.9805,425.297,0.283043,0.0,0.0
1624,405.75,27.5484,29.8561,160.271,116.688,111.317,-0.00784307,0.0544735,20.9804,425.207,0.422117,0.0,0.0
1631,407.5,27.4963,29.5252,161.054,116.681,112.543,-0.00798306,0.0543344,20.9811,425.076,0.323472,0.0,0.0
1638,409.25,27.7354,29.7754,163.072,116.673,113.218,-0.00813319,0.0541147,20.9815,425.036,0.269283,0.0,0.0
1645,411,27.3843,29.6578,162.246,116.669,113.752,-0.00834119,0.0537888,20.9806,425.056,0.226802,0.0,0.0
1652,412.75,27.626,29.5143,160.954,116.652,113.355,-0.00848557,0.0535689,20.9801,425.056,0.256799,0.0,0.0
1659,414.5,27.3254,29.2473,164.945,116.635,113.465,-0.00841003,0.0534637,20.9787,425.076,0.246877,0.0,0.0
1666,416.25,27.8414,29.6196,162.227,116.611,112.806,-0.00823404,0.0535095,20.9788,424.956,0.297169,0.0,0.0
1673,418,27.4755,29.0529,160.574,116.611,112.71,-0.00809368,0.053584,20.9792,424.906,0.304737,0.0,0.0
1680,419.75,27.5679,28.6458,163.302,116.578,113.571,-0.00802024,0.0536235,20.9794,424.866,0.234074,0.0,0.0
1687,421.5,27.437,28.888,157.025,116.565,113.457,-0.00804163,0.0535862,20.9795,424.826,0.242075,0.0,0.0
1694,423.25,27.1908,29.0919,161.499,116.539,113.996,-0.00806204,0.0534324,20.9795,424.786,0.197581,0.0,0.0
1701,425,26.787,28.7535,162.227,116.533,114.197,-0.00804857,0.0533024,20.9795,424.806,0.181393,0.0,0.0
1708,426.75,26.6377,28.7625,164.788,116.497,113.924,-0.00799766,0.0532561,20.9795,424.686,0.200104,0.0,0.0
1715,428.5,26.3593,28.3988,156.946,116.46,113.62,-0.0079055,0.0533369,20.9795,424.716,0.221129,0.0,0.0
1722,430.25,26.7506,28.198,162.61,116.432,112.892,-0.00780527,0.0534206,20.9795,424.696,0.276595,0.0,0.0
1729,432,26.2574,27.9712,159.333,116.397,112.825,-0.00779451,0.0535453,20.9795,424.586,0.279164,0.0,0.0
1736,433.75,26.3586,28.1453,158.044,116.342,113.682,-0.00789839,0.0535522,20.9803,424.526,0.207154,0.0,0.0
1743,435.5,26.7707,28.6048,162.206,116.307,113.36,-0.00803011,0.0534866,20.9811,424.516,0.229904,0.0,0.0
1750,437.25,26.289,28.4024,159.319,116.247,113.54,-0.00815596,0.0533741,20.9815,424.436,0.211097,0.0,0.0
1757,439,26.4808,28.0399,164.249,116.218,113.846,-0.00823465,0.0532547,20.9821,424.466,0.18473,0.0,0.0
1764,440.75,26.0357,27.8943,160.211,116.177,113.54,-0.00821276,0.0531328,20.9824,424.416,0.20562,0.0,0.0
1771,442.5,26.6364,27.6655,159.267,116.118,113.319,-0.00816398,0.0529525,20.9826,424.356,0.218575,0.0,0.0
1778,444.25,25.8697,27.6912,165.984,116.064,113.962,-0.00817041,0.0528509,20.9826,424.286,0.163698,0.0,0.0
1785,446,26.3495,27.8533,159.67,116.06,113.473,-0.00825096,0.052906,20.9827,424.276,0.201907,0.0,0.0
1792,447.75,26.1683,27.9132,161.197,116.004,113.31,-0.00836455,0.0529599,20.9829,424.286,0.210442,0.0,0.0
1799,449.5,25.8134,27.9309,160.634,115.97,113.122,-0.0083472,0.0528568,20.984,424.226,0.222752,0.0,0.0
1806,451.25,25.6675,28.3859,160.678,115.974,113.242,-0.00811568,0.0527935,20.9845,424.176,0.213491,0.0,0.0
1813,453,26.0473,27.303,163.805,115.981,113.993,-0.00782027,0.052765,20.9848,424.166,0.154832,0.0,0.0
1820,454.75,25.9489,28.1368,159.216,115.995,114,-0.0076079,0.052721,20.9837,424.116,0.155341,0.0,0.0
1827,456.5,25.8645,27.3343,163.237,116.006,113.724,-0.00759277,0.0526629,20.9824,424.056,0.177894,0.0,0.0
1834,458.25,25.6569,27.6933,164.559,115.998,113.938,-0.00771179,0.0526206,20.9814,424.006,0.160465,0.0,0.0
1841,460,25.9211,27.4043,161.917,116.01,112.907,-0.00778125,0.0526564,20.9816,423.965,0.242848,0.0,0.0
1848,461.75,26.1298,27.6609,160.203,116.02,112.941,-0.00773525,0.0526791,20.9822,423.955,0.240896,0.0,0.0
1855,463.5,25.9863,27.2826,160.59,116.031,113.759,-0.00770803,0.0526196,20.9825,423.865,0.177161,0.0,0.0
1862,465.25,26.0325,27.3695,159.603,116.036,114.121,-0.007737,0.0524925,20.9827,423.785,0.14906,0.0,0.0
1869,467,25.7778,27.5655,160.472,116.03,113.71,-0.00778076,0.0524159,20.9828,423.815,0.180949,0.0,0.0
1876,468.75,25.6103,27.4149,159.19,116.025,113.085,-0.00777238,0.0525135,20.9816,423.835,0.229898,0.0,0.0
1883,470.5,25.8272,27.2277,159.285,116.043,113.66,-0.0078011,0.0526017,20.9811,423.735,0.185901,0.0,0.0
1890,472.25,25.6102,26.6956,162.631,116.054,113.145,-0.00790626,0.0527262,20.9808,423.765,0.227389,0.0,0.0
1897,474,25.7836,27.0982,163.914,116.054,113.665,-0.00801654,0.0528196,20.9807,423.795,0.186263,0.0,0.0
1904,475.75,25.3793,27.216,160.859,116.053,113.66,-0.00807767,0.0527432,20.9806,423.605,0.186627,0.0,0.0
1911,477.5,25.7942,26.9356,162.243,116.052,113.301,-0.00812981,0.0527715,20.9806,423.615,0.214879,0.0,0.0
1918,479.25,25.6365,27.6639,162.547,116.088,114.131,-0.00816872,0.0528177,20.9807,423.615,0.152294,0.0,0.0
1925,481,25.2399,26.8703,159.987,116.064,113.777,-0.00814212,0.0529088,20.9807,423.605,0.178283,0.0,0.0
1932,482.75,25.5802,27.2086,163.624,116.053,113.505,-0.00801134,0.0528919,20.9805,423.485,0.198807,0.0,0.0
1939,484.5,25.6649,27.0672,158.082,116.077,113.707,-0.00792474,0.0528341,20.9804,423.515,0.1848,0.0,0.0
1946,486.25,25.3046,27.2439,162.26,116.079,113.727,-0.00793137,0.0529078,20.9804,423.415,0.183343,0.0,0.0
1953,488,25.3734,27.1603,154.382,116.098,113.492,-0.00798402,0.0529713,20.9804,423.385,0.203317,0.0,0.0
1960,489.75,25.533,27.3844,162.289,116.095,113.315,-0.00802859,0.0529873,20.9803,423.465,0.217124,0.0,0.0
1967,491.5,25.2964,26.9674,160.709,116.091,113.162,-0.00799799,0.0530452,20.9803,423.355,0.228905,0.0,0.0
1974,493.25,25.6339,27.0061,160.793,116.1,113.232,-0.00798857,0.0529984,20.9803,423.315,0.223996,0.0,0.0
1981,495,25.8414,26.5969,162.666,116.108,114.063,-0.00809271,0.05295,20.9803,423.215,0.159119,0.0,0.0
1988,496.75,25.2311,26.881,157.872,116.106,113.984,-0.0082244,0.0528612,20.9809,423.195,0.165259,0.0,0.0
1995,498.5,25.7272,26.7842,160.162,116.107,113.518,-0.00819675,0.0527669,20.981,423.195,0.202036,0.0,0.0
2002,500.25,25.2996,27.3141,160.074,116.111,113.367,-0.00810298,0.0527751,20.9819,423.215,0.214157,0.0,0.0
2009,502,25.5697,27.1904,160.006,116.111,114.482,-0.00805648,0.0527791,20.9823,423.135,0.126569,0.0,0.0
2016,503.75,25.1978,27.1205,161.264,116.103,113.281,-0.00809753,0.0529066,20.9823,423.125,0.220411,0.0,0.0
2023,505.5,25.4654,26.7624,160.835,116.105,113.754,-0.00813112,0.0530932,20.9814,422.995,0.183228,0.0,0.0
2030,507.25,25.1504,26.485,157.904,116.105,113.043,-0.00817018,0.0532311,20.9806,422.955,0.239442,0.0,0.0
2037,509,25.5534,26.6,163.216,116.119,113.956,-0.00814294,0.0531464,20.9803,422.905,0.168382,0.0,0.0
2044,510.75,25.5923,27.0218,164.703,116.119,114.037,-0.0080469,0.0530725,20.9801,422.965,0.16206,0.0,0.0
2051,512.5,24.7065,26.6558,164.974,116.112,112.93,-0.00786575,0.0531213,20.98,422.875,0.248896,0.0,0.0
2058,514.25,25.4185,26.9311,156.334,116.107,113.088,-0.00765,0.0530994,20.9799,422.824,0.235998,0.0,0.0
2065,516,25.371,26.8897,159.97,116.134,113.788,-0.00744781,0.0529659,20.9799,422.834,0.182749,0.0,0.0
2072,517.75,25.4195,26.9954,160.545,116.13,113.347,-0.0073871,0.0528605,20.9807,422.895,0.217325,0.0,0.0
2079,519.5,25.3655,26.4968,156.619,116.128,114.077,-0.00747968,0.0528257,20.9809,422.714,0.15959,0.0,0.0
2086,521.25,25.2037,26.8688,159.353,116.124,113.721,-0.00764963,0.0529417,20.9804,422.604,0.187302,0.0,0.0
2093,523,25.2902,26.5377,159.4,116.126,113.904,-0.00785844,0.0529739,20.98,422.734,0.173071,0.0,0.0
2100,524.75,25.2932,26.304,159.438,116.136,113.132,-0.00794291,0.0529228,20.9795,422.674,0.234696,0.0,0.0
2107,526.5,25.2484,26.9014,159.568,116.151,113.609,-0.00791985,0.0529288,20.9796,422.584,0.19819,0.0,0.0
2114,528.25,25.6296,26.747,163.034,116.119,113.914,-0.00786922,0.0529185,20.981,422.584,0.171726,0.0,0.0
2121,530,25.2851,26.7059,162.112,116.131,113.305,-0.00784233,0.0529394,20.9816,422.574,0.220687,0.0,0.0
2128,531.75,25.3381,26.4829,162.793,116.147,113.634,-0.00785602,0.0529918,20.9819,422.574,0.195967,0.0,0.0
2135,533.5,24.6832,26.4682,161.463,116.134,113.735,-0.00791503,0.0529308,20.981,422.504,0.186972,0.0,0.0
2142,535.25,25.3089,26.8969,159.417,116.123,113.816,-0.00799501,0.0528406,20.9804,422.464,0.179729,0.0,0.0
2149,537,25.0547,26.4953,166.094,116.127,113.942,-0.0080011,0.0529335,20.9801,422.434,0.17009,0.0,0.0
2156,538.75,25.0707,26.8806,159.485,116.126,113.429,-0.0079649,0.0529189,20.98,422.414,0.210496,0.0,0.0
2163,540.5,25.2589,27.293,161.07,116.131,113.261,-0.00793485,0.0528721,20.98,422.354,0.224124,0.0,0.0
2170,542.25,25.2773,25.733,165.895,116.156,114.733,-0.00797192,0.0527284,20.9799,422.324,0.110356,0.0,0.0
2177,544,24.5286,26.5119,159.116,116.129,113.769,-0.00800745,0.0525792,20.9799,422.264,0.183913,0.0,0.0
2184,545.75,25.4152,26.866,168.509,116.13,114.44,-0.00800142,0.0525975,20.9803,422.184,0.13135,0.0,0.0
2191,547.5,25.4216,26.595,158.159,116.149,113.693,-0.00800206,0.052634,20.9805,422.154,0.191448,0.0,0.0
2198,549.25,25.1139,26.3299,164.561,116.143,113.566,-0.00800784,0.0527502,20.981,422.144,0.200964,0.0,0.0
2205,551,25.1824,26.7481,157.889,116.151,113.365,-0.00798708,0.0528425,20.9814,422.134,0.217497,0.0,0.0
2212,552.75,25.1714,26.4417,155.808,116.148,112.572,-0.00793518,0.0528768,20.9816,422.104,0.280052,0.0,0.0
2219,554.5,25.1202,26.4991,164.836,116.148,113.934,-0.00787724,0.0527897,20.9817,422.074,0.172378,0.0,0.0
2226,556.25,25.191,26.82,158.149,116.154,113.346,-0.00782431,0.0526591,20.9814,422.054,0.219213,0.0,0.0
2233,558,25.829,26.2046,162.408,116.159,113.209,-0.0077246,0.0527083,20.9812,422.034,0.230436,0.0,0.0
2240,559.75,25.2888,26.7338,160.555,116.143,113.682,-0.00763853,0.0527635,20.9811,421.974,0.191887,0.0,0.0
2247,561.5,25.5535,26.7947,158.263,116.131,113.551,-0.00763883,0.0527735,20.981,421.964,0.201224,0.0,0.0
2254,563.25,25.231,26.6881,159.543,116.154,113.938,-0.00764615,0.0526821,20.981,421.964,0.172596,0.0,0.0
2261,565,24.9139,26.4196,156.258,116.149,113.313,-0.00759662,0.0525522,20.981,421.924,0.221445,0.0,0.0
2268,566.75,24.9286,26.276,162.157,116.151,113.275,-0.0075686,0.0526356,20.9813,421.804,0.224515,0.0,0.0
2275,568.5,24.9629,26.9177,166.356,116.143,113.445,-0.00766974,0.0529452,20.9816,421.784,0.210598,0.0,0.0
2282,570.25,25.689,26.5682,160.561,116.158,113.71,-0.00777174,0.0531538,20.9817,421.784,0.190754,0.0,0.0
2289,572,25.5881,26.6935,159.866,116.143,113.463,-0.00784263,0.0532067,20.9813,421.714,0.209137,0.0,0.0
2296,573.75,24.6223,26.3991,164.715,116.147,113.166,-0.00791867,0.0532547,20.9805,421.714,0.232896,0.0,0.0
2303,575.5,25.626,26.7164,161.048,116.138,113.277,-0.00797101,0.0530855,20.9808,421.603,0.223425,0.0,0.0
2310,577.25,24.6693,26.8018,155.063,116.145,113.247,-0.00798756,0.0529191,20.9815,421.543,0.226384,0.0,0.0
2317,579,25.1988,26.7102,165.239,116.158,112.535,-0.00800722,0.0527991,20.9811,421.563,0.283832,0.0,0.0
2324,580.75,25.2246,27.1519,167.624,116.158,113.052,-0.00805172,0.052899,20.9805,421.533,0.242739,0.0,0.0
2331,582.5,25.1361,26.821,166.561,116.162,112.915,-0.00817028,0.0530182,20.9802,421.583,0.253918,0.0,0.0
2338,584.25,25.2638,26.7781,160.596,116.146,112.489,-0.00834301,0.0528382,20.98,421.563,0.286569,0.0,0.0
2345,586,25.1097,26.7011,159.54,116.16,112.51,-0.00849982,0.0528268,20.98,421.533,0.285964,0.0,0.0
2352,587.75,25.0853,26.612,161.212,116.157,112.37,-0.00846444,0.0528221,20.9799,421.453,0.296872,0.0,0.0
2359,589.5,25.206,26.9736,161.378,116.146,112.546,-0.00825842,0.052842,20.9799,421.383,0.282004,0.0,0.0
2366,591.25,25.452,26.9253,160.802,116.139,113.023,-0.00803433,0.0527752,20.9799,421.383,0.243632,0.0,0.0
2373,593,25.3366,26.8101,157.775,116.146,113.021,-0.00786213,0.0526887,20.9799,421.323,0.24436,0.0,0.0
2380,594.75,25.5288,27.0579,159.011,116.148,113.399,-0.00780613,0.0527232,20.98,421.293,0.214503,0.0,0.0
2387,596.5,25.2965,27.1921,159.719,116.147,112.951,-0.00781714,0.0527262,20.9803,421.243,0.249931,0.0,0.0
2394,598.25,25.569,26.7453,163.444,116.14,112.944,-0.00780489,0.0527015,20.98,421.263,0.249936,0.0,0.0
2401,600,25.3867,26.4456,167.027,116.151,113.037,-0.00775098,0.0527362,20.9798,421.203,0.243476,0.0,0.0
2408,601.75,24.7856,26.5342,167.048,116.158,113.097,-0.00772793,0.0527085,20.9802,421.163,0.239221,0.0,0.0
2415,603.5,25.2911,27.0013,163.111,116.148,112.634,-0.00776202,0.0527212,20.9807,421.143,0.275195,0.0,0.0
2422,605.25,25.2217,26.7255,158.731,116.144,113.083,-0.00780031,0.0526954,20.9802,420.993,0.239195,0.0,0.0
2429,607,25.2614,26.9686,160.63,116.135,112.923,-0.00781343,0.0527601,20.9799,421.033,0.251224,0.0,0.0
2436,608.75,25.3585,26.609,157.949,116.152,112.625,-0.0078125,0.0527719,20.9798,421.013,0.276258,0.0,0.0
2443,610.5,25.1513,26.723,163.379,116.151,112.771,-0.00780852,0.0528241,20.9797,420.943,0.264535,0.0,0.0
2450,612.25,25.0402,27.1336,158.579,116.146,112.657,-0.00774073,0.0527142,20.9797,420.863,0.273248,0.0,0.0
2457,614,25.9381,26.9618,164.391,116.132,113.251,-0.00763354,0.0527514,20.9797,420.843,0.224966,0.0,0.0
2464,615.75,25.6736,26.6132,165.263,116.175,113.493,-0.00763384,0.0527234,20.9797,420.833,0.209232,0.0,0.0
2471,617.5,24.7276,26.5796,163.477,116.138,113.163,-0.00769169,0.052666,20.9798,420.823,0.232462,0.0,0.0
2478,619.25,25.5031,26.8408,160.584,116.148,112.439,-0.00777149,0.052681,20.9807,420.783,0.290691,0.0,0.0
2485,621,25.1933,26.6927,162.173,116.124,112.475,-0.0077888,0.0527987,20.9814,420.683,0.286003,0.0,0.0
2492,622.75,25.1812,26.6323,162.575,116.127,113.113,-0.00782127,0.0528308,20.9805,420.733,0.235545,0.0,0.0
2499,624.5,25.1744,26.5412,161.41,116.138,112.864,-0.00788513,0.0528388,20.9813,420.643,0.256139,0.0,0.0
2506,626.25,25.463,26.7253,162.031,116.148,112.775,-0.00792204,0.0528621,20.9817,420.653,0.26395,0.0,0.0
2513,628,25.3177,26.7009,158.931,116.151,113.039,-0.00792846,0.0529616,20.9819,420.603,0.24333,0.0,0.0
2520,629.75,25.407,26.5534,158.81,116.138,113.022,-0.00794486,0.0529849,20.982,420.582,0.243559,0.0,0.0
2527,631.5,25.2285,26.8333,160.422,116.151,113.236,-0.00796581,0.0529287,20.982,420.532,0.227734,0.0,0.0
2534,633.25,25.4614,26.8609,153.409,116.15,113.557,-0.00794946,0.0528037,20.982,420.462,0.202165,0.0,0.0
2541,635,25.2903,26.8438,160.403,116.146,112.657,-0.00792218,0.0529475,20.982,420.482,0.273176,0.0,0.0
2548,636.75,25.1429,26.8473,162.388,116.132,113.538,-0.00792944,0.0529409,20.982,420.422,0.202318,0.0,0.0
2555,638.5,25.7209,26.6212,157.024,116.138,112.638,-0.00798473,0.0528988,20.982,420.412,0.274139,0.0,0.0
2562,640.25,25.1792,26.9604,160.23,116.162,112.591,-0.00798486,0.0529086,20.982,420.372,0.279632,0.0,0.0
2569,642,25.16,26.7754,161.06,116.16,113.52,-0.00792239,0.0528922,20.9817,420.312,0.205919,0.0,0.0
2576,643.75,25.3661,27.0566,163.954,116.154,113.167,-0.00789259,0.0527684,20.9815,420.312,0.233329,0.0,0.0
2583,645.5,24.9079,27.1913,165.046,116.155,113.708,-0.00786568,0.0527652,20.9813,420.262,0.190681,0.0,0.0
2590,647.25,25.0591,26.5496,163.292,116.167,112.855,-0.00775761,0.0528177,20.9813,420.162,0.259123,0.0,0.0
2597,649,25.2072,26.1502,157.596,116.183,113.447,-0.00764867,0.0531438,20.981,420.202,0.213391,0.0,0.0
2604,650.75,25.0311,26.1853,164.472,116.187,113.9,-0.0076009,0.0536805,20.9799,420.192,0.17808,0.0,0.0
2611,652.5,24.9712,26.4793,157.072,116.197,113.298,-0.0076096,0.0538406,20.9794,420.062,0.22628,0.0,0.0
2618,654.25,25.3906,26.8789,164.034,116.19,113.579,-0.00772458,0.053674,20.9791,420.082,0.203571,0.0,0.0
2625,656,24.6997,26.2414,162.853,116.205,113.463,-0.00787311,0.0534539,20.979,420.082,0.213891,0.0,0.0
2632,657.75,25.3846,26.6878,160.347,116.211,113.196,-0.00795987,0.0533226,20.979,420.112,0.235488,0.0,0.0
2639,659.5,25.1832,26.7625,162.942,116.213,113.147,-0.0079631,0.0533101,20.9789,420.012,0.239477,0.0,0.0
2646,661.25,25.6199,26.7012,160.894,116.209,113.759,-0.00791564,0.0532763,20.9789,419.962,0.190885,0.0,0.0
2653,663,25.3155,27.1281,160.325,116.232,113.862,-0.00791471,0.0531919,20.9789,419.952,0.184581,0.0,0.0
2660,664.75,24.7695,26.7474,161.215,116.223,113.523,-0.00797947,0.0530734,20.9791,419.922,0.210561,0.0,0.0
2667,666.5,25.4294,26.7371,162.148,116.238,113.226,-0.00797661,0.0530149,20.9794,419.862,0.235104,0.0,0.0
2674,668.25,25.1702,26.6213,157.221,116.233,113.034,-0.00786142,0.0529731,20.9795,419.752,0.250008,0.0,0.0
2681,670,25.4579,27.2355,161.763,116.238,113.828,-0.00772259,0.0529325,20.9795,419.742,0.187673,0.0,0.0
2688,671.75,25.3583,26.6343,165.553,116.262,112.782,-0.00763753,0.0531116,20.9795,419.712,0.272216,0.0,0.0
2695,673.5,25.3026,26.844,163.417,116.258,113.882,-0.00758992,0.0532062,20.9795,419.652,0.184976,0.0,0.0
2702,675.25,25.7233,26.8753,160.563,116.259,113.318,-0.00761232,0.0533856,20.9786,419.712,0.229495,0.0,0.0
2709,677,25.2983,26.698,161.458,116.264,113.538,-0.00765511,0.053993,20.9791,419.652,0.212476,0.0,0.0
2716,678.75,25.4297,27.1939,162.985,116.288,113.235,-0.00764817,0.0543123,20.9793,419.592,0.238326,0.0,0.0
2723,680.5,25.0928,26.9494,161.186,116.28,114.218,-0.00766098,0.0541405,20.9794,419.441,0.160277,0.0,0.0
2730,682.25,25.3917,27.159,160.292,116.287,113.852,-0.00775224,0.0537879,20.9795,419.502,0.18948,0.0,0.0
2737,684,25.304,26.8981,159.145,116.283,114.025,-0.00783229,0.0535426,20.9795,419.522,0.175629,0.0,0.0
2744,685.75,25.1759,26.814,161.735,116.3,114.036,-0.00782994,0.0536034,20.9786,419.451,0.176099,0.0,0.0
2751,687.5,25.2148,26.7112,159.992,116.312,113.392,-0.0077155,0.0540729,20.9782,419.421,0.227782,0.0,0.0
2758,689.25,24.9552,26.6223,162.91,116.319,114.255,-0.00753802,0.0542106,20.9786,419.391,0.160348,0.0,0.0
2765,691,24.9855,26.8289,161.342,116.319,113.591,-0.00741441,0.0540266,20.9787,419.401,0.212559,0.0,0.0
2772,692.75,25.258,26.5086,160.812,116.308,113.802,-0.00737736,0.0537414,20.9788,419.391,0.195114,0.0,0.0
2779,694.5,25.7807,26.9191,158.794,116.312,113.95,-0.00732866,0.053744,20.9789,419.281,0.1838,0.0,0.0
2786,696.25,25.3725,26.7254,157.73,116.328,113.542,-0.00720605,0.0537656,20.9789,419.261,0.21715,0.0,0.0
2793,698,25.4387,27.1833,160.596,116.301,113.085,-0.00712492,0.0537229,20.9789,419.291,0.251127,0.0,0.0
2800,699.75,25.2539,26.8361,161.199,116.305,112.77,-0.00722595,0.0536413,20.9789,419.251,0.276432,0.0,0.0
2807,701.5,25.2987,27.0225,159.819,116.33,113.823,-0.00738586,0.0535704,20.9789,419.191,0.195106,0.0,0.0
2814,703.25,25.2454,26.5518,161.038,116.329,113.578,-0.00746255,0.0539522,20.9781,419.071,0.214378,0.0,0.0
2821,705,25.4618,26.3367,161.677,116.333,114.85,-0.00749592,0.0548546,20.9773,419.051,0.114899,0.0,0.0
2828,706.75,25.1928,26.5791,158.304,116.316,114.145,-0.00749867,0.0555792,20.9755,419.031,0.168763,0.0,0.0
2835,708.5,25.3204,26.8723,163.568,116.313,114.745,-0.00748894,0.056859,20.9737,419.051,0.121603,0.0,0.0
2842,710.25,25.3411,26.3077,162.696,116.337,113.622,-0.00744268,0.0573271,20.9728,418.991,0.211493,0.0,0.0
2849,712,25.2038,26.9292,167.067,116.338,113.502,-0.00740055,0.0568716,20.974,419.021,0.221049,0.0,0.0
2856,713.75,25.319,26.7293,163.783,116.33,113.47,-0.00742708,0.0562194,20.975,418.981,0.223024,0.0,0.0
2863,715.5,25.4762,27.0882,163.789,116.325,113.74,-0.00750809,0.0554123,20.9754,418.811,0.201297,0.0,0.0
2870,717.25,24.6996,26.6863,163.668,116.357,113.241,-0.00760353,0.0549113,20.9765,418.861,0.243104,0.0,0.0
2877,719,24.9937,26.6314,163.214,116.34,113.281,-0.0076712,0.0545451,20.9773,418.801,0.238618,0.0,0.0
2884,720.75,24.9718,26.385,165.382,116.331,113.385,-0.00770547,0.054351,20.9777,418.771,0.229743,0.0,0.0
2891,722.5,24.8301,26.4062,166.139,116.321,112.897,-0.0077329,0.0541689,20.9779,418.721,0.267679,0.0,0.0
2898,724.25,24.6296,26.5407,164.817,116.331,113.209,-0.00771903,0.0538453,20.978,418.731,0.243636,0.0,0.0
2905,726,24.7633,26.543,159.721,116.35,112.495,-0.00767378,0.0537255,20.9788,418.641,0.301793,0.0,0.0
2912,727.75,24.6748,26.316,161.129,116.343,112.793,-0.00762278,0.0536688,20.9793,418.661,0.277641,0.0,0.0
2919,729.5,24.9645,26.1079,163.891,116.338,113.771,-0.00758332,0.0536671,20.9795,418.641,0.199908,0.0,0.0
2926,731.25,24.8827,26.5221,159.722,116.35,112.534,-0.00759013,0.0536306,20.9796,418.601,0.2987,0.0,0.0
2933,733,25.3112,26.5069,163.252,116.351,114.033,-0.00754724,0.0537015,20.9797,418.541,0.18023,0.0,0.0
2940,734.75,24.6085,26.197,158.504,116.35,113.209,-0.00745501,0.0536142,20.9793,418.511,0.245086,0.0,0.0
2947,736.5,24.8538,26.2551,157.065,116.335,113.785,-0.00743072,0.0535269,20.9786,418.431,0.19849,0.0,0.0
2954,738.25,24.7043,25.9414,158.213,116.334,112.779,-0.00748855,0.0535037,20.9783,418.421,0.27798,0.0,0.0
2961,740,24.5386,26.109,160.913,116.34,112.971,-0.00759002,0.0534209,20.9782,418.381,0.26326,0.0,0.0
2968,741.75,24.9771,26.1566,160.699,116.337,113.363,-0.00769707,0.0534469,20.9781,418.391,0.231931,0.0,0.0
2975,743.5,24.9269,26.2421,163.285,116.339,113.801,-0.00774817,0.0534473,20.9781,418.381,0.197578,0.0,0.0
2982,745.25,24.7323,26.2498,161.657,116.326,113.228,-0.00774105,0.0535248,20.9781,418.24,0.241774,0.0,0.0
2989,747,24.8984,25.9845,159.918,116.331,112.862,-0.00772125,0.0534207,20.9781,418.18,0.271191,0.0,0.0
2996,748.75,24.7209,26.2006,161.118,116.332,112.981,-0.00772807,0.0534143,20.9781,418.24,0.261838,0.0,0.0
3003,750.5,24.3706,25.4356,159.919,116.337,113.799,-0.00777765,0.0534423,20.9781,418.31,0.197543,0.0,0.0
3010,752.25,24.6602,26.2817,163.881,116.311,113.558,-0.00781392,0.0535763,20.9781,418.14,0.214533,0.0,0.0
3017,754,24.1517,25.5547,164.309,116.308,112.944,-0.00775511,0.0534425,20.9771,418.15,0.262886,0.0,0.0
3024,755.75,24.4023,26.3513,161.053,116.312,113.571,-0.00761314,0.0533926,20.9768,418.14,0.213621,0.0,0.0
3031,757.5,24.9125,26.481,163.723,116.308,113.373,-0.00748995,0.0534266,20.9786,418.11,0.228917,0.0,0.0
3038,759.25,25.2009,26.1164,162.848,116.298,113.12,-0.0074317,0.0534326,20.9799,418,0.248163,0.0,0.0
3045,761,24.9616,26.304,157.201,116.283,113.17,-0.00745324,0.0533878,20.9806,418.04,0.243049,0.0,0.0
3052,762.75,24.7643,26.6555,163.022,116.274,113.06,-0.00753588,0.053434,20.9803,417.92,0.251112,0.0,0.0
3059,764.5,24.6538,26.3207,159.353,116.293,113.552,-0.00771315,0.0534054,20.9796,417.93,0.21363,0.0,0.0
3066,766.25,24.5144,26.4619,158.743,116.256,113.604,-0.00786713,0.0533124,20.9792,417.85,0.206753,0.0,0.0
3073,768,25.1292,26.3161,160.452,116.266,113.199,-0.00783731,0.0532632,20.9791,417.82,0.239511,0.0,0.0
3080,769.75,24.4012,26.3262,159.036,116.236,112.409,-0.00773671,0.0533594,20.979,417.84,0.299907,0.0,0.0
3087,771.5,24.3463,25.6487,164.486,116.234,113.305,-0.00770858,0.0534976,20.9789,417.85,0.228597,0.0,0.0
3094,773.25,24.6356,25.9874,158.733,116.225,112.639,-0.00772207,0.0535709,20.9789,417.74,0.280742,0.0,0.0
3101,775,24.8012,25.9974,162.048,116.217,112.911,-0.00767842,0.0536195,20.9789,417.76,0.258528,0.0,0.0
3108,776.75,24.861,26.1085,161.013,116.191,113.067,-0.00757573,0.0535939,20.9789,417.66,0.244142,0.0,0.0
3115,778.5,24.2521,26.0009,160.548,116.192,113.391,-0.00753743,0.0535161,20.9789,417.75,0.218535,0.0,0.0
3122,780.25,24.6694,25.9548,162.123,116.175,112.503,-0.00755974,0.0534269,20.9783,417.67,0.287714,0.0,0.0
3129,782,24.5397,25.7235,156.569,116.156,111.982,-0.00757147,0.0534038,20.9774,417.66,0.32778,0.0,0.0
3136,783.75,24.2845,25.6427,164.078,116.128,113.05,-0.00750315,0.0535526,20.9779,417.59,0.240672,0.0,0.0
3143,785.5,23.5924,25.3444,163.405,116.116,113.474,-0.00741453,0.0536316,20.9784,417.44,0.206155,0.0,0.0
3150,787.25,25.0417,25.8412,161.916,116.09,112.199,-0.00735274,0.053655,20.9787,417.54,0.305365,0.0,0.0
3157,789,24.0945,25.9558,162.615,116.071,112.712,-0.00737546,0.0536526,20.9788,417.46,0.263028,0.0,0.0
3164,790.75,25.0259,26.87,165.099,116.041,112.513,-0.00748603,0.0534589,20.9782,417.43,0.276557,0.0,0.0
3171,792.5,24.9907,25.9969,156.479,116.011,112.758,-0.00755488,0.0534127,20.9786,417.39,0.254705,0.0,0.0
3178,794.25,24.8727,26.0765,162.672,115.993,112.924,-0.00760227,0.0534013,20.9787,417.45,0.240145,0.0,0.0
3185,796,24.8034,25.8866,163.6,115.967,112.585,-0.00760669,0.053424,20.9788,417.4,0.265184,0.0,0.0
3192,797.75,24.9397,26.4901,160.644,115.952,112.171,-0.00756277,0.0535141,20.9789,417.31,0.297009,0.0,0.0
3199,799.5,24.9415,25.7547,157.053,115.918,111.981,-0.00752192,0.0535889,20.9789,417.26,0.30947,0.0,0.0
3206,801.25,24.6197,25.8343,162.533,115.888,112.825,-0.00752961,0.0536296,20.9789,417.32,0.239891,0.0,0.0
3213,803,25.1083,26.1897,157.073,115.887,112.21,-0.00766554,0.0536606,20.9792,417.25,0.288742,0.0,0.0
3220,804.75,25.1091,26.1,159.872,115.838,112.144,-0.00786696,0.0536315,20.9797,417.179,0.290275,0.0,0.0
3227,806.5,24.7293,25.707,163.319,115.81,112.373,-0.00796007,0.0536988,20.98,417.179,0.269864,0.0,0.0
3234,808.25,24.4661,26.2523,159.699,115.752,112.062,-0.00792769,0.0536425,20.9801,417.119,0.290189,0.0,0.0
3241,810,25.393,26.1079,160.867,115.746,112.327,-0.00779766,0.0536354,20.9801,417.129,0.268562,0.0,0.0
3248,811.75,24.8607,26.5453,158.4,115.704,111.846,-0.00760002,0.0536365,20.9796,417.069,0.303826,0.0,0.0
3255,813.5,24.6403,26.2212,156.639,115.681,112.243,-0.00742738,0.05362,20.9787,417.039,0.27021,0.0,0.0
3262,815.25,24.7902,26.5788,158.833,115.66,112.485,-0.00739363,0.053643,20.9783,416.999,0.249328,0.0,0.0
3269,817,25.2015,26.2285,159.367,115.664,112.196,-0.00747055,0.0537078,20.9781,417.019,0.272737,0.0,0.0
3276,818.75,24.6961,25.5517,162.881,115.641,111.837,-0.00756574,0.0535879,20.978,417.019,0.299572,0.0,0.0
3283,820.5,24.3167,25.7134,161.26,115.614,112.613,-0.00763133,0.0534751,20.9779,417.009,0.235524,0.0,0.0
3290,822.25,24.7954,26.4334,159.504,115.583,112.315,-0.00768615,0.0534511,20.9779,416.819,0.256946,0.0,0.0
3297,824,25.2366,26.1777,160.906,115.545,111.79,-0.00774812,0.053524,20.9779,416.819,0.295947,0.0,0.0
3304,825.75,24.7144,26.7097,159.674,115.519,111.8,,0.0536261,,416.829,0.293124,0.0,0.0
3311,827.5,25.0492,26.4111,163.229,115.493,112.246,,0.0537083,,416.709,0.255437,0.0,0.0
3318,829.25,24.8904,25.9102,159.984,115.448,112.01,,,,416.769,0.270845,0.0,0.0
3325,831,24.9894,26.615,164.189,115.411,112.628,,,,416.719,0.218582,0.0,0.0
3332,832.75,24.6205,26.3312,159.966,115.421,112.4,,,,416.709,0.237535,0.0,0.0
3339,834.5,24.6751,26.6599,162.247,115.382,112.464,,,,416.679,0.229382,0.0,0.0
3346,836.25,24.6047,26.1857,162.621,115.348,111.521,,,,416.569,0.302237,0.0,0.0
3347,836.5,24.8475,25.9322,158.542,115.35,111.696,,,,416.579,0.288355,0.0,0.0