File: 01_Data/PVC/Cone/PVC_Cone_HF25Scan_220218_R1.csv
Names,Time,Stack TC,Smoke TC,Exh Press,Smoke Comp,Smoke Meas,CO Meter,CO2 Meter,O2 Meter,Sample Mass,Ext Coeff,Start Test,Flame Verif
Chan Gain,,500,500,1,1,1,1,1,1,1,1,1.0,1.0
Offset,,0,0,0.132436,0,0,0,0,0,0,0,0.0,0.0
Gain,,1,1,25.011,15.4219,15.1528,1,1,1,1.00089,1.02113,1.0,1.0
Units,sec,C,C,Pa,%,%,%,%,%,g,/m,,
Baseline,,26.395,26.5992,161.89,115.114,112.967,-0.00838998,0.059658,20.9674,-479.515,0.168645,,
3,0.5,24.6273,24.8493,161.241,115.149,113.444,-0.00827221,0.0595695,20.9732,439.169,0.133609,0.0,0.0
6,1.25,24.1933,24.3988,166.975,115.154,113.419,-0.00826251,0.059455,20.9733,439.309,0.135947,0.0,0.0
9,2,24.3113,24.2463,162.48,115.176,113.212,-0.00826909,0.0595502,20.9727,439.279,0.154117,0.0,0.0
12,2.75,24.5463,24.4678,163.02,115.172,112.944,-0.00827972,0.0597588,20.972,439.339,0.174923,0.0,0.0
15,3.5,24.4408,24.5616,162.84,115.185,112.984,-0.00829988,0.060149,20.9711,439.339,0.17283,0.0,0.0
18,4.25,24.4491,24.224,159.068,115.19,112.471,-0.00831987,0.0606608,20.9696,439.349,0.213946,0.0,0.0
21,5,24.9377,24.7279,160.158,115.194,112.722,-0.00831496,0.0614226,20.9681,439.339,0.194336,0.0,0.0
24,5.75,24.6827,24.9575,157.065,115.189,113.425,-0.00829027,0.0623266,20.9664,439.339,0.138218,0.0,0.0
27,6.5,24.4936,24.7534,159.855,115.22,112.992,-0.00825675,0.0631342,20.9652,439.329,0.174879,0.0,0.0
30,7.25,24.3181,24.5644,160.371,115.233,113.429,-0.00822113,0.0642404,20.9638,439.309,0.141293,0.0,0.0
33,8,24.0776,24.4719,159.787,115.222,112.583,-0.00818772,0.0652563,20.9621,439.299,0.207563,0.0,0.0
36,8.75,24.3606,24.8061,161.133,115.227,113.409,-0.00815365,0.0660862,20.9608,439.299,0.14246,0.0,0.0
39,9.5,24.1736,24.8382,158.496,115.253,112.624,-0.00811764,0.0669104,20.9598,439.309,0.206668,0.0,0.0
42,10.25,24.8378,24.5478,159.367,115.267,113.194,-0.00809139,0.0675406,20.9591,439.319,0.162532,0.0,0.0
45,11,24.3344,24.4552,161.235,115.265,113.093,-0.00804569,0.0680503,20.9586,439.299,0.170366,0.0,0.0
48,11.75,24.3994,24.8691,162.137,115.265,113.54,-0.008023,0.0684418,20.9583,439.289,0.135055,0.0,0.0
51,12.5,24.0576,24.0787,164.172,115.284,112.784,-0.00803625,0.0686611,20.958,439.289,0.196365,0.0,0.0
54,13.25,25.1051,24.5977,160.267,115.307,113.225,-0.00808084,0.0687077,20.9578,439.299,0.163152,0.0,0.0
57,14,24.56,24.936,162.917,115.311,112.646,-0.00815133,0.0685462,20.9579,439.189,0.209473,0.0,0.0
60,14.75,24.8089,24.7848,164.621,115.303,113.08,-0.00827002,0.068279,20.9584,439.229,0.174391,0.0,0.0
63,15.5,25.0808,25.1533,161.645,115.319,112.775,-0.00838137,0.0679711,20.9587,439.339,0.199806,0.0,0.0
66,16.25,24.2343,24.106,162.618,115.342,112.343,-0.00850501,0.0675475,20.9589,439.349,0.235966,0.0,0.0
69,17,24.5892,24.7568,158.414,115.367,113.468,-0.00860886,0.067169,20.9591,439.339,0.148682,0.0,0.0
72,17.75,24.7222,24.8958,159.448,115.368,113.724,-0.00870804,0.0668633,20.9595,439.339,0.128518,0.0,0.0
75,18.5,24.7041,25.151,159.635,115.375,112.68,-0.00876917,0.0664614,20.9601,439.319,0.211686,0.0,0.0
78,19.25,24.817,25.0133,163.134,115.4,113.116,-0.00880112,0.066139,20.9606,439.309,0.179026,0.0,0.0
81,20,24.1674,24.0511,158.629,115.43,113.651,-0.00881101,0.0658538,20.9609,439.359,0.139097,0.0,0.0
84,20.75,24.1223,24.8093,161.918,115.439,113.33,-0.00879462,0.0657993,20.9612,439.339,0.165193,0.0,0.0
87,21.5,24.9242,24.8397,162.792,115.444,113.379,-0.00874283,0.0659866,20.9601,439.329,0.161648,0.0,0.0
90,22.25,25.0688,24.9797,154.612,115.491,113.659,-0.0086806,0.0663995,20.9589,439.319,0.143223,0.0,0.0
93,23,23.8984,24.2186,164.875,115.497,113.59,-0.00861512,0.0671056,20.9579,439.289,0.149092,0.0,0.0
96,23.75,24.6477,24.8877,164.509,115.515,114.166,-0.00856739,0.0679548,20.9567,439.289,0.105232,0.0,0.0
99,24.5,23.892,24.7366,162.674,115.543,113.466,-0.00853135,0.0688507,20.9556,439.249,0.162448,0.0,0.0
102,25.25,24.8823,24.2887,162.29,115.573,113.964,-0.00850586,0.0697631,20.9547,439.259,0.125588,0.0,0.0
105,26,25.0093,24.6469,158.495,115.59,114.035,-0.0084895,0.0704724,20.954,439.279,0.121269,0.0,0.0
108,26.75,24.7184,24.7426,165.309,115.598,113.626,-0.00848644,0.0710651,20.9535,439.279,0.154057,0.0,0.0
111,27.5,24.9154,24.7176,163.478,115.606,113.31,-0.00848878,0.0714971,20.9525,439.279,0.179682,0.0,0.0
114,28.25,24.7263,25.0237,163.638,115.637,112.975,-0.00849831,0.0720516,20.9513,439.299,0.208557,0.0,0.0
117,29,24.6985,25.2556,162.45,115.678,114.172,-0.00853182,0.0727778,20.9497,439.269,0.117341,0.0,0.0
120,29.75,24.8197,25.0055,161.684,115.673,113.528,-0.00857611,0.0736584,20.9478,439.269,0.167658,0.0,0.0
123,30.5,24.8216,25.0375,162.751,115.704,113.701,-0.00861687,0.0746661,20.9465,439.269,0.156465,0.0,0.0
126,31.25,24.8385,25.4922,162.374,115.726,113.668,-0.00864854,0.0756811,20.9455,439.279,0.160727,0.0,0.0
129,32,24.6106,25.3535,160.084,115.745,113.378,-0.00867498,0.0766588,20.9442,439.289,0.18506,0.0,0.0
132,32.75,25.0403,25.2607,160.479,115.762,113.847,-0.00867301,0.0775736,20.9433,439.289,0.149403,0.0,0.0
135,33.5,24.9945,25.1923,161.415,115.777,113.761,-0.0086455,0.0785493,20.9421,439.269,0.157374,0.0,0.0
138,34.25,24.5478,24.9057,165.912,115.803,114.352,-0.00859799,0.0793923,20.9405,439.279,0.112893,0.0,0.0
141,35,24.5931,25.2257,161.807,115.843,113.654,-0.00853542,0.0806955,20.9387,439.299,0.170886,0.0,0.0
144,35.75,24.4788,24.9726,167.196,115.857,114.307,-0.00846147,0.0822207,20.9365,439.299,0.120665,0.0,0.0
147,36.5,25.314,25.0182,162.168,115.868,113.828,-0.0084056,0.0838139,20.9341,439.299,0.159049,0.0,0.0
150,37.25,24.7313,25.3533,160.867,115.904,113.739,-0.00836152,0.0857995,20.9315,439.299,0.168912,0.0,0.0
153,38,24.9524,24.8814,164.223,115.94,113.681,-0.00834056,0.0877833,20.9294,439.289,0.176229,0.0,0.0
156,38.75,24.7579,24.9165,164.061,115.974,114.323,-0.00833005,0.0894581,20.9275,439.249,0.12838,0.0,0.0
159,39.5,25.164,25.4659,160.889,115.983,113.897,-0.00834894,0.0911424,20.9261,439.249,0.162501,0.0,0.0
162,40.25,24.6233,25.2016,161.283,116.023,113.19,-0.00837886,0.0923851,20.9251,439.259,0.221442,0.0,0.0
165,41,24.8803,25.1973,159.31,116.054,114.734,-0.00841082,0.0933166,20.9244,439.269,0.102477,0.0,0.0
168,41.75,24.979,25.2703,162.26,116.075,112.881,-0.0084397,0.0936706,20.9243,439.279,0.249952,0.0,0.0
171,42.5,24.6756,25.0123,163.262,116.097,114.086,-0.00844834,0.0935673,20.9251,439.279,0.15654,0.0,0.0
174,43.25,24.7209,25.0123,160.78,116.124,114.242,-0.00843955,0.093111,20.9268,439.259,0.14631,0.0,0.0
177,44,24.8191,25.2116,164.733,116.168,113.515,-0.00841637,0.0920945,20.9287,439.239,0.2069,0.0,0.0
180,44.75,24.2916,25.1177,161.277,116.182,114.156,-0.00839752,0.0910348,20.9301,439.259,0.157521,0.0,0.0
183,45.5,24.4734,24.8857,162.302,116.222,114.121,-0.00838042,0.0897173,20.9317,439.239,0.163399,0.0,0.0
186,46.25,24.8756,25.1624,160.559,116.24,114.461,-0.00838567,0.0880949,20.9329,439.299,0.13814,0.0,0.0
189,47,25.1529,25.3688,158.926,116.264,114.45,-0.00838949,0.0866903,20.9344,439.299,0.140894,0.0,0.0
192,47.75,25.1493,25.5628,157.801,116.285,113.877,-0.00842415,0.085287,20.9355,439.299,0.187443,0.0,0.0
195,48.5,24.2916,24.891,157.633,116.311,114.04,-0.00845191,0.0840534,20.9365,439.279,0.176642,0.0,0.0
198,49.25,24.808,25.5311,163.991,116.327,114.237,-0.0084732,0.0830644,20.9376,439.259,0.162379,0.0,0.0
201,50,24.6171,25.1667,157.783,116.352,114.613,-0.00849403,0.0822591,20.9384,439.259,0.134905,0.0,0.0
204,50.75,25.0378,25.2915,159.378,116.38,114.642,-0.00851419,0.0816362,20.939,439.269,0.134803,0.0,0.0
207,51.5,24.0504,24.9623,158.542,116.385,113.623,-0.00853099,0.0813022,20.9395,439.259,0.215189,0.0,0.0
210,52.25,24.9805,25.056,165.121,116.408,114.411,-0.00854913,0.0811289,20.9396,439.259,0.155023,0.0,0.0
213,53,24.7358,25.6717,161.517,116.434,114.848,-0.00857241,0.081062,20.9392,439.269,0.122867,0.0,0.0
216,53.75,24.8717,25.3276,165.426,116.453,114.505,-0.00860177,0.0810638,20.939,439.259,0.151116,0.0,0.0
219,54.5,25.1215,25.2105,161.613,116.474,114.372,-0.00861946,0.0812196,20.9388,439.239,0.163169,0.0,0.0
222,55.25,24.6366,24.9264,161.754,116.492,114.28,-0.00862226,0.0813991,20.9387,439.259,0.171718,0.0,0.0
225,56,25.1208,25.4272,160.416,116.504,114.049,-0.00860978,0.0816141,20.9386,439.249,0.190764,0.0,0.0
228,56.75,24.3304,25.5987,164.713,116.53,114.08,-0.00858298,0.081829,20.9381,439.249,0.190357,0.0,0.0
231,57.5,25.3381,25.5373,159.872,116.547,114.534,-0.00856344,0.0820236,20.9376,439.249,0.156074,0.0,0.0
234,58.25,25.3318,25.1295,163.527,116.565,114.681,-0.00854919,0.0821455,20.9372,439.249,0.14592,0.0,0.0
237,59,24.6408,24.8657,162.618,116.581,113.874,-0.00853632,0.0822624,20.9369,439.239,0.210435,0.0,0.0
240,59.75,24.8714,25.0103,159.611,116.624,113.761,-0.00852588,0.0823596,20.9367,439.229,0.222568,0.0,0.0
243,60.5,25.1776,25.5111,159.248,116.641,114.756,-0.00851119,0.0825306,20.9365,439.249,0.145999,0.0,0.0
246,61.25,24.9532,25.1706,164.302,116.667,114.259,-0.00848631,0.0826835,20.9364,439.249,0.186801,0.0,0.0
249,62,25.3399,25.8726,159.339,116.666,114.729,-0.00845824,0.0828068,20.9363,439.249,0.150009,0.0,0.0
252,62.75,25.4632,25.1417,158.565,116.716,114.488,-0.00843354,0.082939,20.9363,439.229,0.172596,0.0,0.0
255,63.5,25.0891,25.6416,164.957,116.755,114.543,-0.00840491,0.0831198,20.9362,439.239,0.171288,0.0,0.0
258,64.25,25.1351,25.6332,159.716,116.752,114.262,-0.00836418,0.0833655,20.9362,439.239,0.193085,0.0,0.0
261,65,25.1457,25.3691,159.132,116.765,114.485,-0.00832601,0.0838656,20.9361,439.229,0.17664,0.0,0.0
264,65.75,24.9116,25.5169,162.192,116.806,114.3,-0.00828886,0.0844508,20.9361,439.229,0.194264,0.0,0.0
267,66.5,24.6582,25.5429,163.887,116.81,114.304,-0.00821545,0.0848478,20.9361,439.229,0.194263,0.0,0.0
270,67.25,25.1935,25.9073,159.491,116.833,114.351,-0.00814852,0.0850866,20.9361,439.229,0.192336,0.0,0.0
273,68,24.769,25.2672,159.63,116.849,114.318,-0.00810682,0.0849397,20.9361,439.249,0.196207,0.0,0.0
276,68.75,25.2872,25.5529,162.818,116.895,113.979,-0.00809256,0.0848646,20.9361,439.249,0.226268,0.0,0.0
279,69.5,24.9908,25.8179,160.376,116.904,114.565,-0.00808904,0.084457,20.9361,439.249,0.180991,0.0,0.0
282,70.25,24.9181,25.5974,160.789,116.937,114.455,-0.00810281,0.0840334,20.9373,439.229,0.192196,0.0,0.0
285,71,24.975,25.363,167.478,116.917,114.978,-0.00814079,0.0835894,20.9383,439.229,0.149737,0.0,0.0
288,71.75,24.9805,25.8921,162.921,116.971,114.844,-0.00817556,0.0831266,20.9391,439.249,0.164372,0.0,0.0
291,72.5,24.7307,25.2924,157.585,116.975,114.094,-0.0082009,0.0825889,20.9401,439.269,0.223352,0.0,0.0
294,73.25,25.3035,25.9719,162.077,116.975,113.946,-0.00818573,0.082197,20.9411,439.259,0.235014,0.0,0.0
297,74,24.8725,25.292,165.645,116.987,113.943,-0.00815357,0.0814622,20.9418,439.229,0.236133,0.0,0.0
300,74.75,24.1328,25.1338,162.64,116.989,114.045,-0.00812112,0.080735,20.9427,439.239,0.228282,0.0,0.0
303,75.5,25.3064,25.4091,161.628,117.029,114.591,-0.00809393,0.0797649,20.9438,439.219,0.188553,0.0,0.0
306,76.25,25.6894,25.5974,160.965,117.05,114.496,-0.00809521,0.0788955,20.945,439.229,0.197624,0.0,0.0
309,77,25.2425,25.3074,159.661,117.041,114.097,-0.00811951,0.0779842,20.9463,439.229,0.228179,0.0,0.0
312,77.75,24.83,25.7553,163.256,117.066,114.127,-0.00816182,0.0771601,20.9474,439.219,0.227764,0.0,0.0
315,78.5,25.325,25.562,164.881,117.08,113.843,-0.00821391,0.0764613,20.9482,439.219,0.25112,0.0,0.0
318,79.25,25.2683,26.1449,164.068,117.104,113.815,-0.00825058,0.0759101,20.9488,439.229,0.255103,0.0,0.0
321,80,25.199,25.6744,161.619,117.106,113.333,-0.00827507,0.0753884,20.9493,439.219,0.293358,0.0,0.0
324,80.75,25.384,25.811,164.781,117.105,112.963,-0.00828051,0.0750781,20.9496,439.219,0.322536,0.0,0.0
327,81.5,25.1539,26.008,165.203,117.139,112.123,-0.008272,0.0750587,20.9494,439.209,0.392039,0.0,0.0
330,82.25,25.1703,25.4918,160.024,117.149,112.151,-0.0082535,0.075347,20.949,439.209,0.390503,0.0,0.0
333,83,25.3978,25.5593,159.49,117.149,112.98,-0.00824001,0.0758796,20.9488,439.169,0.324563,0.0,0.0
336,83.75,25.3238,26.0737,158.76,117.151,112.323,-0.00823476,0.0764053,20.9482,439.169,0.37692,0.0,0.0
339,84.5,25.2785,25.8414,159.198,117.182,112.067,-0.00823875,0.0772487,20.9476,439.169,0.399783,0.0,0.0
342,85.25,25.0082,26.33,160.324,117.187,112.568,-0.00824414,0.0780459,20.9471,439.139,0.360166,0.0,0.0
345,86,24.6308,25.7566,161.368,117.193,110.907,-0.00824913,0.0787788,20.9462,439.119,0.493827,0.0,0.0
348,86.75,24.7562,25.4897,161.812,117.194,112.218,-0.00824795,0.0794394,20.9457,439.099,0.388604,0.0,0.0
351,87.5,25.4666,26.3537,161.962,117.2,111.872,-0.00824908,0.0801176,20.9445,439.059,0.416725,0.0,0.0
354,88.25,25.2157,26.1618,161.553,117.214,112.365,-0.00825619,0.0806959,20.9436,439.029,0.378422,0.0,0.0
357,89,25.2039,25.8889,160.754,117.215,112.324,-0.00827031,0.081418,20.943,439.019,0.381774,0.0,0.0
360,89.75,25.1213,26.0388,163.108,117.21,110.505,-0.00829923,0.0818315,20.9425,438.989,0.527637,0.0,0.0
363,90.5,25.1047,26.0389,160.415,117.223,111.519,-0.00833805,0.0823662,20.9422,438.949,0.446782,0.0,0.0
366,91.25,25.9229,26.2381,161.466,117.233,110.607,-0.00838311,0.0827159,20.942,438.939,0.521192,0.0,0.0
369,92,25.3059,26.5082,159.867,117.224,111.305,-0.00844076,0.0829286,20.9418,438.899,0.464067,0.0,0.0
372,92.75,25.3061,26.1405,157.962,117.229,111.163,-0.00848278,0.0830584,20.9417,438.879,0.475968,0.0,0.0
375,93.5,25.6881,26.2704,159.671,117.225,110.908,-0.00851407,0.0831403,20.9416,438.859,0.496234,0.0,0.0
378,94.25,25.941,26.4146,164.027,117.259,110.818,-0.00853799,0.0833203,20.9415,438.809,0.505999,0.0,0.0
381,95,25.3075,26.3048,160.414,117.25,110.687,-0.00852315,0.0834515,20.9424,438.779,0.515938,0.0,0.0
384,95.75,25.4571,26.311,161.247,117.243,110.448,-0.00849857,0.0837277,20.9431,438.749,0.534801,0.0,0.0
387,96.5,25.7003,26.4575,164.305,117.249,111.651,-0.00841867,0.083929,20.9436,438.719,0.438217,0.0,0.0
390,97.25,25.9547,26.7825,162.192,117.249,111.039,-0.00831438,0.0840757,20.9439,438.699,0.48747,0.0,0.0
393,98,25.5335,27.0099,160.128,117.257,111.164,-0.0082247,0.0841827,20.9442,438.638,0.477977,0.0,0.0
396,98.75,25.3071,26.6497,158.957,117.246,110.129,-0.00815349,0.0841203,20.9452,438.608,0.560969,0.0,0.0
399,99.5,25.3336,26.6957,157.925,117.26,110.135,-0.00809982,0.0839062,20.9464,438.568,0.561483,0.0,0.0
402,100.25,25.6936,26.7372,162.123,117.286,109.613,-0.00806134,0.0836486,20.9472,438.538,0.605985,0.0,0.0
405,101,25.7073,26.8278,161.159,117.283,109.767,-0.00803441,0.0834102,20.9478,438.478,0.593234,0.0,0.0
408,101.75,25.716,26.33,164.093,117.284,110.366,-0.00801123,0.0832965,20.9483,438.448,0.544534,0.0,0.0
411,102.5,25.7044,26.6274,161.003,117.269,110.077,-0.00799107,0.0832433,20.9486,438.398,0.566944,0.0,0.0
414,103.25,26.1331,26.3593,161.758,117.287,109.563,-0.00797078,0.083255,20.9488,438.348,0.610178,0.0,0.0
417,104,25.1152,26.553,161.147,117.285,109.214,-0.00795723,0.0833198,20.949,438.338,0.638659,0.0,0.0
420,104.75,25.6832,26.2911,156.053,117.279,109.621,-0.00795442,0.083391,20.9491,438.298,0.604805,0.0,0.0
423,105.5,25.6515,26.7434,161.6,117.264,110.015,-0.00796355,0.0834429,20.9492,438.238,0.571592,0.0,0.0
426,106.25,26.0854,26.2257,161.445,117.279,108.831,-0.00798437,0.0833965,20.9493,438.218,0.669614,0.0,0.0
429,107,24.855,26.4288,161.41,117.293,108.449,-0.00799954,0.0832822,20.9493,438.168,0.702258,0.0,0.0
432,107.75,26.1769,26.7468,160.112,117.281,108.611,-0.00801238,0.0831231,20.9494,438.118,0.687893,0.0,0.0
435,108.5,26.0269,26.8999,163.401,117.275,109.184,-0.00801925,0.082993,20.9494,438.058,0.640296,0.0,0.0
438,109.25,25.6767,26.5379,166.835,117.283,109.269,-0.00801928,0.0828922,20.9494,437.998,0.634003,0.0,0.0
441,110,25.4353,26.0718,158.817,117.313,109.501,-0.0080126,0.0828588,20.9494,437.978,0.617296,0.0,0.0
444,110.75,26.0846,26.1977,162.352,117.295,109.569,-0.00798648,0.0828493,20.9494,437.928,0.610297,0.0,0.0
447,111.5,26.3327,26.7955,163.637,117.281,108.886,-0.00795006,0.0828676,20.9494,437.888,0.665302,0.0,0.0
450,112.25,25.8085,26.5701,159.62,117.289,109.218,-0.00791021,0.0828809,20.9494,437.828,0.638606,0.0,0.0
453,113,25.6717,26.1633,157.755,117.291,107.216,-0.00787111,0.0827783,20.9494,437.788,0.804448,0.0,0.0
456,113.75,25.417,26.4017,156.337,117.302,107.052,-0.00783999,0.0826038,20.9494,437.748,0.818962,0.0,0.0
459,114.5,25.9642,26.685,165.001,117.293,108.077,-0.00781283,0.082388,20.9501,437.698,0.733019,0.0,0.0
462,115.25,26.2407,26.5423,159.184,117.294,108.221,-0.00779924,0.0821106,20.9505,437.668,0.721141,0.0,0.0
465,116,26.0837,26.518,160.381,117.3,108.169,-0.00779786,0.0819084,20.9508,437.618,0.725935,0.0,0.0
468,116.75,25.7218,26.7126,160.162,117.291,107.296,-0.00780935,0.0814806,20.9511,437.548,0.797842,0.0,0.0
471,117.5,25.4207,26.1793,159.084,117.29,108.984,-0.00784096,0.0810565,20.9513,437.497,0.657923,0.0,0.0
474,118.25,26.0596,26.9974,159.682,117.282,108.389,-0.00791271,0.0806994,20.9512,437.447,0.706286,0.0,0.0
477,119,25.6266,27.026,163.264,117.3,108.709,-0.00801637,0.080299,20.9512,437.417,0.681247,0.0,0.0
480,119.75,26.1765,26.7781,164.236,117.306,109.048,-0.00811801,0.0800072,20.9512,437.377,0.653828,0.0,0.0
483,120.5,26.0456,26.9411,160.579,117.283,108.107,-0.00820323,0.0797744,20.9511,437.327,0.729735,0.0,0.0
486,121.25,25.5922,26.6099,164.991,117.298,108.213,-0.00827155,0.0795604,20.9511,437.277,0.722118,0.0,0.0
489,122,25.915,26.9584,157.594,117.311,108.457,-0.00831486,0.0793286,20.9511,437.227,0.702863,0.0,0.0
492,122.75,25.9814,27.1378,164.31,117.299,107.453,-0.00833079,0.0790796,20.9511,437.177,0.785263,0.0,0.0
495,123.5,25.5547,26.3795,161.744,117.3,108.124,-0.00831221,0.078814,20.9511,437.147,0.729612,0.0,0.0
498,124.25,25.819,26.6756,158.888,117.293,107.645,-0.00828129,0.0785845,20.951,437.107,0.768848,0.0,0.0
501,125,25.603,27.3852,157.89,117.3,107.774,-0.00825133,0.0783371,20.9508,437.047,0.75866,0.0,0.0
504,125.75,25.79,27.1078,162.289,117.302,106.97,-0.00821356,0.0780868,20.9511,436.987,0.825888,0.0,0.0
507,126.5,25.8439,26.9658,159.044,117.299,109.352,-0.00817609,0.0778743,20.9515,436.927,0.628368,0.0,0.0
510,127.25,26.1052,27.2539,162.057,117.285,106.832,-0.00814453,0.0775982,20.9518,436.877,0.836104,0.0,0.0
513,128,25.8913,26.9995,159.816,117.291,108.006,-0.00810167,0.0773409,20.9522,436.847,0.738667,0.0,0.0
516,128.75,26.1488,27.2011,159.222,117.298,107.844,-0.00805215,0.0770483,20.9529,436.787,0.752713,0.0,0.0
519,129.5,26.4272,27.1191,163.272,117.298,108.102,-0.00799929,0.0766962,20.9534,436.747,0.73131,0.0,0.0
522,130.25,25.5595,27.3523,165.075,117.289,108.22,-0.00794482,0.0763555,20.9538,436.687,0.720859,0.0,0.0
525,131,26.2668,27.0281,159.989,117.286,107.886,-0.00790883,0.0760714,20.9543,436.637,0.748286,0.0,0.0
528,131.75,26.0496,26.7161,160.764,117.293,108.337,-0.00788418,0.0757443,20.9551,436.587,0.71147,0.0,0.0
531,132.5,26.248,26.6852,161.156,117.31,108.825,-0.00789278,0.0754779,20.9556,436.547,0.67248,0.0,0.0
534,133.25,25.9305,27.4259,158.669,117.299,108.17,-0.00792738,0.0752644,20.956,436.497,0.725751,0.0,0.0
537,134,25.8237,26.7572,163.263,117.283,108.263,-0.0079526,0.0750962,20.9563,436.457,0.716832,0.0,0.0
540,134.75,26.1413,27.2177,159.718,117.295,108.322,-0.00799587,0.0749595,20.9565,436.406,0.712874,0.0,0.0
543,135.5,25.8983,27.0036,160.549,117.288,108.806,-0.00802937,0.0748539,20.9567,436.346,0.67239,0.0,0.0
546,136.25,25.6463,27.0548,158.957,117.284,107.84,-0.00805714,0.0747769,20.9564,436.316,0.751983,0.0,0.0
549,137,26.0279,27.1435,157.652,117.27,107.743,-0.00806854,0.0746657,20.9562,436.286,0.758898,0.0,0.0
552,137.75,26.105,27.0262,157.829,117.292,108.451,-0.00807227,0.0745612,20.956,436.216,0.70196,0.0,0.0
555,138.5,26.3122,26.7434,160.44,117.301,109.222,-0.00806716,0.074445,20.9559,436.176,0.639198,0.0,0.0
558,139.25,26.1908,27.49,160.549,117.281,108.506,-0.00803865,0.0743898,20.9559,436.116,0.696589,0.0,0.0
561,140,26.1419,26.9756,160.757,117.284,108.438,-0.00801787,0.0743999,20.9558,436.066,0.70238,0.0,0.0
564,140.75,26.2864,26.7508,165.421,117.291,108.697,-0.00796376,0.0746071,20.9562,436.016,0.681628,0.0,0.0
567,141.5,26.1154,27.4057,159.139,117.295,108.27,-0.00792431,0.0749262,20.9567,435.966,0.717121,0.0,0.0
570,142.25,26.1135,27.0241,163.846,117.286,107.988,-0.00787253,0.0752305,20.957,435.916,0.739844,0.0,0.0
573,143,26.1911,26.7761,164.403,117.278,107.978,-0.00783354,0.0754892,20.9573,435.886,0.740039,0.0,0.0
576,143.75,26.0437,27.4139,161.618,117.291,108.776,-0.00780459,0.0757408,20.9575,435.836,0.675115,0.0,0.0
579,144.5,26.2944,26.8101,161.957,117.297,108.961,-0.00779234,0.0757444,20.9576,435.796,0.660328,0.0,0.0
582,145.25,25.975,27.0576,158.055,117.288,108.386,-0.00780111,0.0757249,20.9577,435.756,0.707021,0.0,0.0
585,146,26.1549,26.6797,160.518,117.271,108.518,-0.00781078,0.0756729,20.9578,435.706,0.694843,0.0,0.0
588,146.75,25.9345,26.6869,160.832,117.286,108.907,-0.00782341,0.0756349,20.9578,435.656,0.663875,0.0,0.0
591,147.5,26.6535,26.7334,157.864,117.297,108.165,-0.00783085,0.0756368,20.9578,435.616,0.726064,0.0,0.0
594,148.25,26.3707,26.8698,160.465,117.3,108.009,-0.00783628,0.0756885,20.9579,435.566,0.739158,0.0,0.0
597,149,25.4517,26.3173,159.304,117.289,108.851,-0.00782533,0.0757263,20.9579,435.516,0.66873,0.0,0.0
600,149.75,25.2241,26.3507,159.286,117.283,108.541,-0.00781529,0.0757169,20.9579,435.486,0.69387,0.0,0.0
603,150.5,26.3622,26.834,160.336,117.293,108.536,-0.00778597,0.0756471,20.9579,435.446,0.695005,0.0,0.0
606,151.25,26.4731,27.4783,158.947,117.303,109.237,-0.0077646,0.0754561,20.9582,435.396,0.638092,0.0,0.0
609,152,26.1812,27.2952,158.874,117.294,108.856,-0.00775359,0.0752572,20.9587,435.356,0.668709,0.0,0.0
612,152.75,26.2099,27.0225,161.908,117.298,109.038,-0.00775339,0.0749735,20.9591,435.316,0.654088,0.0,0.0
615,153.5,26.3504,26.7709,161.386,117.321,109.964,-0.00776741,0.0745132,20.9599,435.276,0.580046,0.0,0.0
618,154.25,26.2847,26.9148,164.729,117.306,108.28,-0.0077826,0.0739509,20.9608,435.215,0.717143,0.0,0.0
621,155,26.5807,27.4548,162.082,117.295,109.73,-0.00779578,0.0732019,20.9619,435.175,0.597113,0.0,0.0
624,155.75,25.9499,26.7838,160.413,117.305,108.465,-0.00780292,0.0724742,20.9627,435.125,0.701782,0.0,0.0
627,156.5,26.3495,27.2856,161.526,117.318,108.14,-0.00780705,0.0717705,20.9633,435.095,0.729713,0.0,0.0
630,157.25,26.0575,26.7765,159.435,117.316,107.478,-0.00782424,0.0710941,20.9643,435.045,0.78455,0.0,0.0
633,158,26.228,27.3148,161.726,117.318,108.948,-0.00785043,0.0703914,20.965,434.995,0.662973,0.0,0.0
636,158.75,25.938,27.1682,163.526,117.311,108.929,-0.00788279,0.0697899,20.9656,434.975,0.663991,0.0,0.0
639,159.5,26.0749,27.4196,158.168,117.33,108.91,-0.00791282,0.0691522,20.966,434.935,0.667025,0.0,0.0
642,160.25,25.5571,26.8206,162.149,117.325,108.569,-0.0079403,0.0686285,20.9663,434.895,0.694703,0.0,0.0
645,161,26.0399,27.4297,159.25,117.33,109.395,-0.00796655,0.0681462,20.9667,434.865,0.627292,0.0,0.0
648,161.75,26.3963,27.2932,158.768,117.333,108.494,-0.00798833,0.0676951,20.9674,434.805,0.701534,0.0,0.0
651,162.5,26.58,27.3365,161.165,117.341,108.898,-0.00800951,0.0673105,20.968,434.765,0.66884,0.0,0.0
654,163.25,26.7101,27.2918,163.614,117.351,109.093,-0.00802496,0.0669475,20.9683,434.725,0.653594,0.0,0.0
657,164,26.1454,27.2428,158.723,117.349,109.722,-0.0080238,0.0665824,20.9686,434.695,0.601925,0.0,0.0
660,164.75,26.1169,27.3741,157.742,117.336,108.866,-0.00800787,0.0662465,20.9688,434.645,0.671069,0.0,0.0
663,165.5,26.1599,27.8267,160.876,117.36,109.182,-0.00797949,0.0659719,20.969,434.615,0.646989,0.0,0.0
666,166.25,26.2171,27.4426,156.157,117.357,109.07,-0.00794887,0.0658085,20.9691,434.585,0.655997,0.0,0.0
669,167,26.1358,27.271,157.356,117.365,108.34,-0.00791643,0.0657521,20.9692,434.545,0.7167,0.0,0.0
672,167.75,26.3012,27.0339,159.104,117.355,108.439,-0.00788272,0.0658503,20.9692,434.535,0.707804,0.0,0.0
675,168.5,26.0473,26.8962,163.275,117.359,109.742,-0.00784221,0.0659659,20.9693,434.475,0.601019,0.0,0.0
678,169.25,26.5986,27.1216,157.846,117.372,108.676,-0.00781268,0.0661256,20.9693,434.425,0.689523,0.0,0.0
681,170,26.3728,27.0692,159.058,117.372,109.249,-0.00775219,0.0663216,20.9689,434.395,0.64235,0.0,0.0
684,170.75,26.2066,27.402,161.209,117.369,108.076,-0.00768823,0.0665013,20.9684,434.345,0.738881,0.0,0.0
687,171.5,26.1638,27.0247,166.092,117.392,108.953,-0.00762856,0.066695,20.968,434.315,0.668194,0.0,0.0
690,172.25,26.4068,26.5982,163.475,117.381,108.579,-0.00757724,0.066934,20.9678,434.275,0.698213,0.0,0.0
693,173,26.0144,27.1963,160.694,117.396,109.035,-0.00753983,0.0671499,20.9672,434.245,0.661753,0.0,0.0
696,173.75,26.2765,27.0906,158.684,117.393,109.471,-0.00751386,0.0674666,20.9665,434.205,0.625821,0.0,0.0
699,174.5,26.3048,27.5828,159.378,117.384,110.062,-0.00749716,0.0677573,20.9661,434.185,0.576842,0.0,0.0
702,175.25,26.5287,27.3546,165.848,117.381,109.401,-0.00747614,0.0680353,20.9657,434.134,0.630679,0.0,0.0
705,176,25.9203,27.4503,160.077,117.395,109.196,-0.00746081,0.0683512,20.9655,434.115,0.648544,0.0,0.0
708,176.75,25.5575,27.1439,161.38,117.387,110.11,-0.0074213,0.068701,20.9649,434.084,0.573255,0.0,0.0
711,177.5,26.1755,27.0996,163.329,117.386,110.737,-0.00738923,0.0690259,20.9642,434.054,0.522318,0.0,0.0
714,178.25,26.4504,26.7353,162.654,117.403,109.05,-0.00736027,0.0692926,20.9638,434.004,0.661114,0.0,0.0
717,179,26.0332,27.4787,162.425,117.407,109.031,-0.00732853,0.0695468,20.9634,433.974,0.662921,0.0,0.0
720,179.75,25.8552,27.313,161.841,117.399,109.268,-0.00729421,0.0697468,20.9632,433.944,0.642878,0.0,0.0
723,180.5,26.3785,26.781,158.694,117.395,108.093,-0.00725855,0.0699178,20.963,433.924,0.739437,0.0,0.0
726,181.25,26.707,27.2902,159.9,117.408,111.281,-0.0072225,0.0700843,20.9629,433.864,0.480089,0.0,0.0
729,182,26.1731,27.3127,159.648,117.411,108.584,-0.00719091,0.0702089,20.9628,433.844,0.700094,0.0,0.0
732,182.75,26.3719,26.9598,155.402,117.404,108.801,-0.00716787,0.0702746,20.9627,433.804,0.681644,0.0,0.0
735,183.5,25.9452,27.0685,159.287,117.388,110.614,-0.00714754,0.070163,20.9627,433.774,0.532379,0.0,0.0
738,184.25,26.4902,27.6341,166.475,117.401,109.378,-0.00712278,0.0700676,20.9626,433.734,0.634007,0.0,0.0
741,185,26.3148,26.7383,162.553,117.405,109.227,-0.00709462,0.0699922,20.9626,433.704,0.646757,0.0,0.0
744,185.75,25.9442,26.8592,162.527,117.399,108.867,-0.00706403,0.0700169,20.9626,433.674,0.675881,0.0,0.0
747,186.5,26.4962,27.2151,160.17,117.384,109.915,-0.00704174,0.0700349,20.9626,433.644,0.588891,0.0,0.0
750,187.25,26.4641,27.1425,160.348,117.383,109.693,-0.00703256,0.0700082,20.9622,433.604,0.60689,0.0,0.0
753,188,26.1227,27.2002,162.484,117.406,109.748,-0.00704744,0.0699468,20.9619,433.564,0.604195,0.0,0.0
756,188.75,25.6675,26.2677,163.919,117.404,110.228,-0.00709516,0.0698842,20.9622,433.534,0.564959,0.0,0.0
759,189.5,26.32,27.4143,165.581,117.394,110.104,-0.00719725,0.0697282,20.9625,433.524,0.574283,0.0,0.0
762,190.25,26.374,27.4531,161.139,117.372,109.284,-0.00730042,0.0694259,20.9627,433.484,0.639507,0.0,0.0
765,191,26.4352,27.2175,162.127,117.394,107.874,-0.0074248,0.0689864,20.9634,433.454,0.757548,0.0,0.0
768,191.75,26.0766,27.5342,163.391,117.4,109.045,-0.0075438,0.0685683,20.964,433.424,0.661281,0.0,0.0
771,192.5,26.0319,26.8654,163.309,117.385,109.967,-0.00763187,0.0682218,20.9644,433.404,0.584705,0.0,0.0
774,193.25,26.6833,27.4082,157.441,117.38,109.466,-0.00769699,0.068009,20.9647,433.354,0.625232,0.0,0.0
777,194,26.1902,27.1279,160.449,117.401,107.767,-0.00774223,0.0679274,20.9649,433.344,0.766997,0.0,0.0
780,194.75,26.8533,27.5178,160.31,117.392,110.486,-0.00776105,0.0679936,20.965,433.304,0.543084,0.0,0.0
783,195.5,26.855,27.3161,163.724,117.363,109.005,-0.00776235,0.0678825,20.9651,433.264,0.661747,0.0,0.0
786,196.25,26.293,26.605,162.433,117.371,109.705,-0.007758,0.067634,20.9652,433.234,0.605048,0.0,0.0
789,197,26.665,27.203,163.551,117.387,109.339,-0.00773654,0.0672933,20.9653,433.194,0.636183,0.0,0.0
792,197.75,26.2873,27.3048,158.239,117.382,108.549,-0.0076896,0.0668942,20.9653,433.184,0.700765,0.0,0.0
795,198.5,26.018,27.1608,162.127,117.387,108.997,-0.00759517,0.0664441,20.9654,433.144,0.664223,0.0,0.0
798,199.25,26.3335,27.0134,160.18,117.361,109.009,-0.0074721,0.066116,20.9654,433.114,0.661259,0.0,0.0
801,200,26.2712,27.5147,161.218,117.367,108.742,-0.00728963,0.0658768,20.9654,433.104,0.683718,0.0,0.0
804,200.75,26.4103,27.1776,155.212,117.359,109.47,-0.00694056,0.066149,20.9654,433.074,0.623352,0.0,0.0
807,201.5,26.4453,27.1628,161.054,117.359,109.335,-0.0064626,0.0665378,20.9611,433.014,0.634369,0.0,0.0
810,202.25,26.6505,27.7008,159.275,117.349,109.637,-0.0058882,0.0686359,20.9527,432.993,0.608912,0.0,0.0
813,203,26.7307,27.1964,154.641,117.356,106.598,-0.00524598,0.0722423,20.9421,432.943,0.86117,0.0,0.0
816,203.75,26.4304,27.6255,155.635,117.363,104.146,-0.00454451,0.0769518,20.9305,432.903,1.07017,0.0,0.0
819,204.5,26.422,27.6653,156.103,117.358,95.9413,-0.00363422,0.0824286,20.9146,432.873,1.8048,0.0,1.0
822,205.25,26.7749,27.7874,156.915,117.344,88.1295,-0.00251533,0.0895357,20.8986,432.763,2.56445,0.0,1.0
825,206,26.8605,27.7012,153.712,117.361,85.7484,-0.00154641,0.0960231,20.8852,432.853,2.81108,0.0,1.0
828,206.75,26.9137,27.932,153.927,117.343,83.2925,-0.000578014,0.102986,20.8691,432.793,3.07004,0.0,1.0
831,207.5,26.7126,27.6619,156.982,117.346,77.6032,0.000423898,0.109483,20.8575,432.713,3.70401,0.0,1.0
834,208.25,26.775,27.8131,154.107,117.336,74.1392,0.00128046,0.11665,20.8455,432.653,4.11221,0.0,1.0
837,209,27.2978,28.3308,152.223,117.339,71.5394,0.00210486,0.124698,20.8353,432.543,4.4322,0.0,1.0
840,209.75,26.6015,27.4556,157.201,117.331,70.7237,0.0030478,0.131653,20.8256,432.493,4.53431,0.0,1.0
843,210.5,27.77,28.2681,154.182,117.341,68.4842,0.0040109,0.138582,20.8151,432.383,4.82329,0.0,1.0
846,211.25,27.115,28.7255,155.951,117.322,67.5399,0.00471301,0.144711,20.806,432.313,4.94626,0.0,1.0
849,212,27.0777,28.5077,152.483,117.307,67.1857,0.00552032,0.151022,20.7963,432.263,4.99221,0.0,1.0
852,212.75,27.5821,28.3512,151.259,117.313,71.6139,0.00622902,0.156989,20.7873,432.183,4.42087,0.0,0.0
855,213.5,28.1515,28.9998,150.552,117.31,68.8578,0.00684325,0.161923,20.7777,432.133,4.77218,0.0,0.0
858,214.25,28.0422,29.4994,151.742,117.306,69.8802,0.00737031,0.167224,20.7682,432.043,4.63991,0.0,0.0
861,215,27.9695,29.2555,153.485,117.29,65.8067,0.00782673,0.17154,20.7608,431.963,5.17663,0.0,0.0
864,215.75,28.7503,29.7589,153.663,117.297,66.5299,0.00817928,0.17546,20.7552,431.883,5.07927,0.0,0.0
867,216.5,28.681,30.223,151.001,117.293,69.6763,0.0084702,0.178846,20.7512,431.842,4.66508,0.0,0.0
870,217.25,28.2617,30.0146,152.329,117.287,69.4197,0.00873607,0.181433,20.7482,431.772,4.69767,0.0,0.0
873,218,29.1044,30.5377,157.118,117.273,72.0953,0.00892989,0.18337,20.7461,431.682,4.35781,0.0,0.0
876,218.75,29.301,30.6949,149.897,117.269,71.2828,0.00910645,0.184739,20.7449,431.622,4.45904,0.0,0.0
879,219.5,29.0478,30.7934,152.774,117.283,72.2816,0.00922352,0.185604,20.7445,431.562,4.33551,0.0,0.0
882,220.25,29.4195,30.9994,150.415,117.275,71.8997,0.00928895,0.186178,20.7443,431.492,4.38232,0.0,0.0
885,221,29.7231,30.4981,157.516,117.258,71.5982,0.00929954,0.185706,20.746,431.432,4.4187,0.0,0.0
888,221.75,29.7977,31.209,154.611,117.245,76.5933,0.00928127,0.185035,20.7486,431.372,3.81362,0.0,0.0
891,222.5,29.9441,31.3418,154.427,117.269,75.2328,0.00924251,0.183986,20.7517,431.312,3.97595,0.0,0.0
894,223.25,29.0698,30.8116,160.355,117.254,76.5133,0.0091897,0.182661,20.7558,431.212,3.82363,0.0,0.0
897,224,30.2808,32.1459,155.426,117.262,78.9188,0.00908642,0.18116,20.7597,431.152,3.547,0.0,0.0
900,224.75,30.0837,32.045,151.171,117.235,78.3806,0.00901113,0.179562,20.7629,431.092,3.60621,0.0,0.0
903,225.5,30.3006,32.0426,155.894,117.247,83.0247,0.00879921,0.177725,20.7661,431.022,3.09155,0.0,0.0
906,226.25,30.9147,31.8868,152.231,117.246,82.4943,0.00852591,0.176019,20.7695,430.982,3.14885,0.0,0.0
909,227,30.6537,32.2798,154.657,117.235,85.4358,0.00821434,0.174618,20.7731,430.932,2.83423,0.0,0.0
912,227.75,30.8715,32.6307,149.016,117.225,87.7443,0.00788176,0.173073,20.7766,430.832,2.59459,0.0,0.0
915,228.5,30.9564,32.6645,153.966,117.229,88.8879,0.00749814,0.171947,20.7805,430.812,2.47897,0.0,0.0
918,229.25,31.2129,32.985,155.278,117.218,87.2019,0.00709704,0.170457,20.7848,430.721,2.64967,0.0,0.0
921,230,31.1554,33.1957,149.73,117.219,92.8476,0.00669987,0.168764,20.7903,430.681,2.08778,0.0,0.0
924,230.75,31.8505,33.361,153.078,117.217,95.0234,0.00622431,0.167237,20.7942,430.631,1.8802,0.0,0.0
927,231.5,31.5523,33.3388,154.125,117.223,95.9593,0.00579832,0.165623,20.7984,430.591,1.7928,0.0,0.0
930,232.25,31.3013,33.0778,153.719,117.21,95.7605,0.00526424,0.163467,20.802,430.551,1.81041,0.0,0.0
933,233,31.4589,33.1992,155.876,117.206,99.9889,0.00449265,0.16113,20.8083,430.491,1.42305,0.0,0.0
936,233.75,31.3373,33.4431,156.391,117.187,99.5269,0.00363594,0.158116,20.8147,430.461,1.46309,0.0,0.0
939,234.5,31.3484,33.5785,159.632,117.202,102.142,0.0027335,0.155919,20.8225,430.411,1.23193,0.0,0.0
942,235.25,31.4741,33.9449,157.394,117.201,105.325,0.00181494,0.148734,20.8369,430.351,0.956996,0.0,0.0
945,236,31.5431,33.948,157.289,117.178,104.493,0.000831869,0.142374,20.8522,430.321,1.02626,0.0,0.0
948,236.75,31.6322,33.6686,156.35,117.169,104.4,-8.84083e-05,0.135816,20.8662,430.301,1.03363,0.0,0.0
951,237.5,31.4976,33.5118,154.828,117.17,103.305,-0.000935619,0.129671,20.878,430.231,1.12803,0.0,0.0
954,238.25,30.7881,33.9028,158.691,117.163,108.694,-0.00170632,0.124338,20.8884,430.201,0.672076,0.0,0.0
957,239,31.4773,33.8883,155.415,117.15,106.199,-0.00226816,0.120086,20.8967,430.161,0.879055,0.0,0.0
960,239.75,31.2516,33.3352,160.093,117.134,108.203,-0.00300011,0.115326,20.9045,430.121,0.710409,0.0,0.0
963,240.5,31.3951,33.8287,160.915,117.123,107.248,-0.00361342,0.110653,20.9109,430.091,0.789017,0.0,0.0
966,241.25,30.9921,33.3967,157.927,117.144,107.697,-0.00419685,0.106733,20.9189,430.071,0.753139,0.0,0.0
969,242,31.028,32.9906,159.554,117.127,107.054,-0.00477978,0.101663,20.9264,430.041,0.805467,0.0,0.0
972,242.75,30.6974,33.3062,163.315,117.097,107.047,-0.00528172,0.0972867,20.9338,430.011,0.803741,0.0,0.0
975,243.5,31.1387,32.9827,161.144,117.09,107.396,-0.00571312,0.0929317,20.9412,429.971,0.774109,0.0,0.0
978,244.25,30.8051,32.8445,161.662,117.097,107.285,-0.00608348,0.089277,20.9478,429.941,0.783913,0.0,0.0
981,245,30.7466,32.4648,158.881,117.076,107.991,-0.00640066,0.0857921,20.9528,429.911,0.723567,0.0,0.0
984,245.75,30.2202,32.1385,161.995,117.054,108.428,-0.00665199,0.0823928,20.9569,429.861,0.685701,0.0,0.0
987,246.5,30.4646,32.2896,157.803,117.044,108.438,-0.00687122,0.079509,20.9601,429.861,0.684068,0.0,0.0
990,247.25,30.043,31.4054,162.687,117.045,109.337,-0.00705096,0.0770279,20.9628,429.811,0.610226,0.0,0.0
993,248,29.3963,31.8124,162.409,117.032,109.123,-0.00718916,0.0748669,20.9648,429.781,0.626775,0.0,0.0
996,248.75,29.6244,31.8032,157.375,117.021,109.498,-0.00728879,0.0729983,20.9671,429.761,0.595141,0.0,0.0
999,249.5,29.9324,31.5259,159.816,117.007,109.386,-0.00735646,0.071511,20.9692,429.751,0.603256,0.0,0.0
1002,250.25,29.0269,30.8488,160.931,117.009,109.529,-0.00740824,0.0699291,20.9707,429.761,0.59178,0.0,0.0
1005,251,29.5691,31.2936,160.087,116.994,109.905,-0.00745382,0.0685806,20.9717,429.741,0.559897,0.0,0.0
1008,251.75,29.3737,31.3266,159.816,116.979,109.809,-0.0075069,0.0675144,20.9723,429.691,0.566586,0.0,0.0
1011,252.5,29.2367,31.4777,161.187,116.965,109.798,-0.00755407,0.0668166,20.9723,429.651,0.56641,0.0,0.0
1014,253.25,29.527,31.2036,159.106,116.982,109.362,-0.00759125,0.0665069,20.9724,429.59,0.603317,0.0,0.0
1017,254,28.5268,29.9323,160.792,116.975,109.327,-0.00765556,0.0663178,20.9724,429.56,0.605691,0.0,0.0
1020,254.75,28.4318,30.1525,160.2,116.952,109.802,-0.00771026,0.0662428,20.9724,429.58,0.565061,0.0,0.0
1023,255.5,29.2058,31.144,162.47,116.947,110.191,-0.00775013,0.0661742,20.9718,429.55,0.532996,0.0,0.0
1026,256.25,28.7383,31.0329,158.708,116.944,109.525,-0.00777035,0.0661349,20.9712,429.51,0.587112,0.0,0.0
1029,257,28.852,30.2626,160.595,116.939,109.484,-0.00778012,0.0660058,20.9706,429.49,0.590006,0.0,0.0
1032,257.75,28.7122,30.5103,157.676,116.936,111.424,-0.00778512,0.0658761,20.9703,429.48,0.432508,0.0,0.0
1035,258.5,28.2573,30.3296,160.484,116.911,110.57,-0.00778346,0.0655165,20.9704,429.46,0.499487,0.0,0.0
1038,259.25,28.4954,30.4858,158.538,116.909,110.041,-0.0077748,0.0651047,20.9707,429.42,0.542264,0.0,0.0
1041,260,29.2509,30.5019,164.12,116.897,110.974,-0.00776531,0.0647417,20.971,429.4,0.465758,0.0,0.0
1044,260.75,28.9856,30.36,158.275,116.9,111.12,-0.00775709,0.0644353,20.971,429.39,0.454188,0.0,0.0
1047,261.5,28.1687,29.5027,159.783,116.874,109.899,-0.00775054,0.0641868,20.9709,429.36,0.551195,0.0,0.0
1050,262.25,28.4384,30.2505,159.438,116.878,110.906,-0.00774577,0.063993,20.9709,429.32,0.469806,0.0,0.0
1053,263,28.1679,30.066,161.809,116.884,109.789,-0.00774726,0.0638649,20.9708,429.29,0.560964,0.0,0.0
1056,263.75,28.9105,30.2611,162.94,116.883,110.855,-0.00775915,0.063777,20.9708,429.25,0.474274,0.0,0.0
1059,264.5,28.3043,30.3132,161.658,116.86,110.161,-0.00777812,0.0638124,20.9708,429.25,0.528768,0.0,0.0
1062,265.25,28.5351,30.0693,161.317,116.859,110.895,-0.0077894,0.0638822,20.9703,429.21,0.469222,0.0,0.0
1065,266,28.8484,30.3041,157.866,116.869,110.621,-0.00780864,0.0640084,20.9698,429.2,0.492082,0.0,0.0
1068,266.75,27.9019,30.1339,159.158,116.857,110.323,-0.00782531,0.0641402,20.9694,429.16,0.515439,0.0,0.0
1071,267.5,27.8197,29.8506,157.153,116.856,111.159,-0.0078658,0.0643615,20.9692,429.14,0.447702,0.0,0.0
1074,268.25,27.7812,29.5868,157.474,116.836,111.209,-0.00791891,0.0644492,20.969,429.14,0.442092,0.0,0.0
1077,269,28.1101,29.5142,160.967,116.867,110.831,-0.00797617,0.0645411,20.9688,429.11,0.474955,0.0,0.0
1080,269.75,27.8881,29.6891,160.712,116.848,110.838,-0.00803244,0.0645383,20.9687,429.09,0.472988,0.0,0.0
1083,270.5,28.4794,29.5751,160.69,116.846,110.499,-0.00807477,0.0645066,20.9686,429.08,0.500241,0.0,0.0
1086,271.25,27.7875,29.3949,162.333,116.831,111.111,-0.00810356,0.0644238,20.9686,429.04,0.449668,0.0,0.0
1089,272,28.0395,29.6795,164.427,116.847,110.199,-0.00812008,0.0643634,20.9694,429.03,0.524676,0.0,0.0
1092,272.75,27.959,29.0687,165.266,116.835,109.877,-0.00813089,0.0643419,20.97,429.02,0.550009,0.0,0.0
1095,273.5,27.6919,29.4361,161.309,116.832,111.538,-0.00813823,0.0643647,20.9704,429,0.415361,0.0,0.0
1098,274.25,27.5182,29.1756,160.79,116.827,110.871,-0.00814111,0.064421,20.9707,428.95,0.468675,0.0,0.0
1101,275,27.318,29.0569,164.318,116.825,111.513,-0.00813966,0.0644474,20.9709,428.94,0.416862,0.0,0.0
1104,275.75,28.0636,29.2739,158.827,116.816,111.584,-0.00813754,0.0644416,20.9711,428.92,0.410459,0.0,0.0
1107,276.5,27.6282,29.0645,161.082,116.82,111.442,-0.00813069,0.0643786,20.9712,428.92,0.422186,0.0,0.0
1110,277.25,27.6067,29.0851,161.397,116.796,111.662,-0.00812321,0.0642323,20.9713,428.89,0.402598,0.0,0.0
1113,278,27.5406,28.9529,162.411,116.799,111.411,-0.0081167,0.0640461,20.9714,428.87,0.423016,0.0,0.0
1116,278.75,27.2882,28.6978,160.59,116.793,110.939,-0.00812437,0.0638546,20.9712,428.84,0.460623,0.0,0.0
1119,279.5,27.2701,29.0331,164.897,116.8,111.388,-0.00814571,0.0636399,20.9707,428.83,0.424911,0.0,0.0
1122,280.25,27.3496,29.0267,162.224,116.77,111.118,-0.00817914,0.0633956,20.9703,428.81,0.444416,0.0,0.0
1125,281,27.2733,28.8228,159.964,116.765,111.513,-0.00820352,0.0632175,20.97,428.78,0.412242,0.0,0.0
1128,281.75,27.373,29.032,159.236,116.755,110.519,-0.0082691,0.0629883,20.9698,428.76,0.491701,0.0,0.0
1131,282.5,27.6098,28.6808,157.887,116.763,111.294,-0.00831939,0.0627654,20.9697,428.75,0.42972,0.0,0.0
1134,283.25,27.5232,29.0377,161.871,116.751,111.04,-0.00835711,0.0625792,20.9696,428.73,0.449237,0.0,0.0
1137,284,27.6374,28.4528,160.28,116.743,111.701,-0.0083492,0.0625031,20.9695,428.71,0.395476,0.0,0.0
1140,284.75,27.5249,28.5238,158.646,116.758,111.49,-0.00831735,0.062521,20.9692,428.69,0.413521,0.0,0.0
1143,285.5,27.1461,28.2717,156.927,116.749,110.709,-0.00827779,0.0626594,20.9686,428.69,0.475805,0.0,0.0
1146,286.25,26.8767,27.8455,159.371,116.743,111.206,-0.00824002,0.0628997,20.9682,428.66,0.43528,0.0,0.0
1149,287,27.1918,28.597,159.938,116.732,110.466,-0.00822133,0.0631343,20.9674,428.65,0.494207,0.0,0.0
1152,287.75,27.3954,28.5148,158.252,116.744,111.349,-0.00820771,0.0635639,20.9667,428.62,0.423776,0.0,0.0
1155,288.5,27.0321,28.627,161.358,116.732,110.843,-0.0082208,0.0641002,20.9661,428.6,0.463698,0.0,0.0
1158,289.25,26.7108,28.1589,159.523,116.729,111.065,-0.00822326,0.0648795,20.9653,428.6,0.445526,0.0,0.0
1161,290,26.3996,27.3402,161.186,116.701,111.222,-0.00822244,0.0655725,20.9645,428.56,0.430761,0.0,0.0
1164,290.75,26.2835,27.5372,158.21,116.723,110.987,-0.00821737,0.0665159,20.9633,428.56,0.451361,0.0,0.0
1167,291.5,27.4292,28.4854,159.686,116.714,110.694,-0.0082243,0.0673655,20.962,428.53,0.474366,0.0,0.0
1170,292.25,26.8795,28.3844,161.996,116.704,112.146,-0.00823804,0.0682616,20.9609,428.479,0.356875,0.0,0.0
1173,293,26.6439,28.1312,160.145,116.694,111.096,-0.00825177,0.0692738,20.9601,428.479,0.440317,0.0,0.0
1176,293.75,27.056,28.4224,159.027,116.71,111.139,-0.00826532,0.0700927,20.9595,428.459,0.438079,0.0,0.0
1179,294.5,26.3657,27.5366,159.683,116.702,110.974,-0.00827127,0.0708355,20.959,428.439,0.450781,0.0,0.0
1182,295.25,26.8663,28.3201,157.475,116.683,110.793,-0.00826891,0.0713896,20.9593,428.429,0.464015,0.0,0.0
1185,296,26.7953,28.0538,165.863,116.685,110.782,-0.00826843,0.0716817,20.9595,428.419,0.465057,0.0,0.0
1188,296.75,26.7309,28.1624,160.058,116.675,110.862,-0.00826795,0.0718469,20.9597,428.389,0.457833,0.0,0.0
1191,297.5,26.3642,27.5396,161.215,116.69,110.991,-0.00826693,0.0717478,20.9598,428.379,0.448571,0.0,0.0
1194,298.25,26.4598,27.8962,162.557,116.667,111.681,-0.00824626,0.0716315,20.9599,428.369,0.391182,0.0,0.0
1197,299,27.1456,28.1915,157.503,116.667,111.424,-0.00821381,0.0714712,20.9599,428.349,0.411864,0.0,0.0
1200,299.75,27.5434,28.0084,164.156,116.662,111.342,-0.00818275,0.0712944,20.96,428.329,0.418049,0.0,0.0
1203,300.5,27.0156,27.9699,160.841,116.661,110.77,-0.00812291,0.0711894,20.96,428.299,0.464113,0.0,0.0
1206,301.25,26.7075,27.6184,159.473,116.66,111.458,-0.00807929,0.0710492,20.9601,428.269,0.408534,0.0,0.0
1209,302,26.731,28.173,160.421,116.644,110.779,-0.0080475,0.0708871,20.9601,428.259,0.462138,0.0,0.0
1212,302.75,26.552,28.1342,166.767,116.64,110.418,-0.0079765,0.070769,20.9609,428.239,0.490989,0.0,0.0
1215,303.5,26.8221,27.3687,158.565,116.64,111.09,-0.0079235,0.0706829,20.9617,428.209,0.436683,0.0,0.0
1218,304.25,27.1685,27.5855,162.189,116.646,111.586,-0.00789218,0.0706201,20.9627,428.179,0.397272,0.0,0.0
1221,305,26.999,28.0014,159.491,116.632,110.738,-0.00788275,0.0707139,20.9634,428.189,0.464525,0.0,0.0
1224,305.75,26.5743,27.7863,159.139,116.619,110.91,-0.00791661,0.0707529,20.9635,428.149,0.449573,0.0,0.0
1227,306.5,26.6217,27.7087,161.604,116.637,111.72,-0.00797234,0.0707309,20.9634,428.189,0.385791,0.0,0.0
1230,307.25,26.793,27.8213,160.644,116.629,111.374,-0.00802619,0.0706153,20.9633,428.159,0.412952,0.0,0.0
1233,308,26.6393,27.2071,160.253,116.623,111.701,-0.0080991,0.0704795,20.9637,428.179,0.386225,0.0,0.0
1236,308.75,26.379,27.501,164.303,116.623,110.741,-0.00815552,0.0702924,20.9641,428.139,0.46354,0.0,0.0
1239,309.5,26.2924,27.9216,160.328,116.625,111.748,-0.00820223,0.0699368,20.9644,428.109,0.382589,0.0,0.0
1242,310.25,26.3329,27.4429,165.304,116.622,111.475,-0.00823806,0.069496,20.9651,428.079,0.404268,0.0,0.0
1245,311,26.6995,27.7744,160.594,116.616,111.572,-0.00826352,0.0690973,20.9658,428.069,0.396072,0.0,0.0
1248,311.75,26.1771,27.6017,162.872,116.603,111.242,-0.00828097,0.0685875,20.9663,428.029,0.421607,0.0,0.0
1251,312.5,26.1332,27.1786,158.53,116.61,111.159,-0.00829368,0.0681718,20.9667,428.009,0.42878,0.0,0.0
1254,313.25,26.4175,27.6764,161.788,116.614,111.046,-0.00830361,0.0677934,20.9669,427.989,0.43824,0.0,0.0
1257,314,26.1803,27.2106,158.713,116.611,110.813,-0.00831196,0.0673981,20.9671,427.959,0.456804,0.0,0.0
1260,314.75,26.2319,27.4578,163.805,116.597,112.175,-0.00831805,0.0669146,20.9677,427.929,0.346347,0.0,0.0
1263,315.5,26.414,27.2875,160.882,116.597,111.578,-0.00832968,0.0664789,20.9683,427.929,0.394071,0.0,0.0
1266,316.25,26.3312,27.0196,161.696,116.6,111.264,-0.00835045,0.0658628,20.9687,427.909,0.419639,0.0,0.0
1269,317,25.9181,27.5118,159.194,116.596,110.886,-0.00838669,0.0653257,20.969,427.879,0.449745,0.0,0.0
1272,317.75,26.3862,27.4178,161.42,116.577,111.73,-0.00842996,0.0647836,20.9693,427.859,0.380384,0.0,0.0
1275,318.5,26.3117,27.1371,160.258,116.591,111.811,-0.00847491,0.0642094,20.9701,427.859,0.374984,0.0,0.0
1278,319.25,26.4681,27.8111,160.029,116.599,110.746,-0.00850944,0.0637029,20.9706,427.829,0.461287,0.0,0.0
1281,320,26.3023,27.4032,162.158,116.592,111.069,-0.00853338,0.0631832,20.9715,427.799,0.434676,0.0,0.0
1284,320.75,26.1606,27.0418,163.893,116.579,111.295,-0.00854906,0.0626056,20.9723,427.779,0.415483,0.0,0.0
1287,321.5,26.061,27.2329,166.53,116.564,111.442,-0.0085567,0.0620314,20.9727,427.769,0.402534,0.0,0.0
1290,322.25,25.6045,27.1624,162.612,116.575,111.197,-0.00856677,0.0615183,20.9732,427.739,0.42305,0.0,0.0
1293,323,25.3801,26.6107,157.936,116.593,110.955,-0.00857464,0.061094,20.9735,427.709,0.443999,0.0,0.0
1296,323.75,25.4901,26.4632,158.831,116.571,111.053,-0.00856976,0.0606656,20.9738,427.689,0.434353,0.0,0.0
1299,324.5,26.2824,27.6212,161.458,116.56,111.237,-0.00856619,0.0603808,20.974,427.679,0.418652,0.0,0.0
1302,325.25,25.708,26.4762,160.446,116.579,111.665,-0.00854125,0.059967,20.9742,427.649,0.385721,0.0,0.0
1305,326,26.0589,26.8016,161.028,116.581,110.21,-0.00850569,0.0594472,20.9747,427.629,0.503365,0.0,0.0
1308,326.75,26.2943,27.6226,161.291,116.574,111.605,-0.00846637,0.0590682,20.975,427.619,0.390146,0.0,0.0
1311,327.5,26.5401,26.9618,161.886,116.563,111.46,-0.00843061,0.0585972,20.9752,427.589,0.400975,0.0,0.0
1314,328.25,26.1296,27.6327,162.86,116.569,111.58,-0.00841075,0.0581708,20.9753,427.569,0.391825,0.0,0.0
1317,329,25.601,26.4506,162.893,116.576,111.769,-0.00839893,0.0578005,20.9755,427.559,0.377125,0.0,0.0
1320,329.75,25.2743,26.3846,163.051,116.567,111.076,-0.00838534,0.0575028,20.9755,427.549,0.432163,0.0,0.0
1323,330.5,26.0174,27.0042,164.883,116.556,111.431,-0.00836024,0.0572738,20.9756,427.539,0.402775,0.0,0.0
1326,331.25,25.9755,26.9262,160.123,116.564,110.132,-0.0083196,0.0570871,20.9757,427.509,0.508417,0.0,0.0
1329,332,26.0826,27.1672,160.035,116.559,112.148,-0.00826142,0.0568954,20.9757,427.489,0.34556,0.0,0.0
1332,332.75,26.2317,27.289,161.005,116.568,111.355,-0.00820225,0.0567319,20.9757,427.459,0.409776,0.0,0.0
1335,333.5,25.3664,25.8335,159.832,116.553,111.226,-0.0081513,0.0565433,20.9763,427.439,0.419039,0.0,0.0
1338,334.25,25.7127,27.1607,159.224,116.565,111.425,-0.00814249,0.0563542,20.9768,427.429,0.403945,0.0,0.0
1341,335,26.1523,27.3167,166.223,116.581,111.724,-0.00814913,0.0561788,20.9772,427.419,0.381118,0.0,0.0
1344,335.75,25.6021,27.0562,160.7,116.576,111.252,-0.00817633,0.0560906,20.9774,427.409,0.41869,0.0,0.0
1347,336.5,25.5137,26.5259,158.684,116.56,111.452,-0.00821053,0.0559846,20.9776,427.389,0.401463,0.0,0.0
1350,337.25,26.1963,26.4856,161.65,116.574,112.286,-0.00824524,0.0558895,20.9777,427.358,0.33568,0.0,0.0
1353,338,26.1378,27.2344,158.751,116.588,111.025,-0.00829244,0.0557013,20.9778,427.338,0.437931,0.0,0.0
1356,338.75,25.93,26.831,158.73,116.577,111.158,-0.00831769,0.055586,20.9779,427.318,0.426359,0.0,0.0
1359,339.5,25.9492,26.677,161.717,116.573,110.76,-0.00830216,0.0555395,20.9779,427.308,0.458175,0.0,0.0
1362,340.25,25.2161,26.8033,158.715,116.569,111.717,-0.00825955,0.0554792,20.978,427.298,0.380843,0.0,0.0
1365,341,25.8456,26.9184,161.406,116.591,110.402,-0.00816651,0.0553625,20.9784,427.278,0.488541,0.0,0.0
1368,341.75,26.0484,26.8756,163.995,116.579,111.513,-0.00807776,0.0551982,20.9789,427.248,0.398006,0.0,0.0
1371,342.5,25.9551,26.957,162.003,116.593,111.561,-0.00797731,0.0550646,20.9793,427.238,0.395192,0.0,0.0
1374,343.25,25.7571,26.8556,162.471,116.571,111.255,-0.0078867,0.0549612,20.9796,427.218,0.418032,0.0,0.0
1377,344,25.538,26.9215,162.53,116.605,111.69,-0.00781324,0.0548858,20.9798,427.188,0.385744,0.0,0.0
1380,344.75,25.8728,26.7754,160.027,116.579,111.439,-0.00778094,0.0548309,20.9799,427.168,0.403914,0.0,0.0
1383,345.5,25.2988,26.9401,163.04,116.578,110.33,-0.00777973,0.0547908,20.9801,427.168,0.493457,0.0,0.0
1386,346.25,25.6858,26.7558,162.595,116.563,109.816,-0.00778839,0.0547616,20.9801,427.138,0.534032,0.0,0.0
1389,347,25.7872,26.726,158.34,116.576,112.069,-0.00782834,0.0546848,20.9802,427.118,0.353143,0.0,0.0
1392,347.75,26.0947,26.3358,158.642,116.603,111.262,-0.00785747,0.0546051,20.9802,427.108,0.419969,0.0,0.0
1395,348.5,25.8253,27.0381,160.093,116.584,112.132,-0.0079336,0.054547,20.98,427.058,0.348733,0.0,0.0
1398,349.25,25.8611,26.2484,158.113,116.579,110.85,-0.00800772,0.0545046,20.9798,427.048,0.451355,0.0,0.0
1401,350,25.8554,26.7896,160.452,116.579,111.796,-0.0080697,0.0544737,20.9796,427.038,0.375303,0.0,0.0
1404,350.75,25.4231,26.7659,159.734,116.566,111.524,-0.0081335,0.0544095,20.9794,427.028,0.396065,0.0,0.0
1407,351.5,25.9314,26.394,162.907,116.574,112.043,-0.00818861,0.054345,20.9793,426.998,0.355141,0.0,0.0
1410,352.25,25.6382,26.6464,158.413,116.565,111.214,-0.00822989,0.0543376,20.9792,426.978,0.420911,0.0,0.0
1413,353,25.855,27.1176,159.487,116.569,111.555,,0.0542488,,426.968,0.39383,0.0,0.0
1416,353.75,25.587,26.6631,160.238,116.572,111.47,,0.0541486,,426.948,0.400845,0.0,0.0
1419,354.5,25.7601,26.8661,162.876,116.576,111.817,,0.0541172,,426.928,0.373308,0.0,0.0
1422,355.25,25.7577,26.3923,163.853,116.56,111.865,,0.0541398,,426.898,0.368191,0.0,0.0
1425,356,25.4334,26.2731,163.234,116.563,111.621,,,,426.888,0.388053,0.0,0.0
1428,356.75,25.8833,26.6006,161.634,116.576,111.59,,,,426.868,0.391552,0.0,0.0
1431,357.5,25.2248,26.5483,160.677,116.575,111.81,,,,426.858,0.373756,0.0,0.0
1434,358.25,25.548,26.8275,163.541,116.553,111.969,,,,426.828,0.359468,0.0,0.0
1437,359,25.7758,26.7266,160.662,116.555,111.132,,,,426.818,0.42671,0.0,0.0
1440,359.75,25.4208,26.503,161.602,116.556,112.062,,,,426.798,0.352252,0.0,0.0
1443,360.5,26.0667,26.5399,162.543,116.547,112.214,,,,426.788,0.339339,0.0,0.0
1446,361.25,24.3196,26.2114,158.195,116.543,110.526,,,,426.768,0.47484,0.0,0.0
1449,362,25.6331,26.4696,162.297,116.545,111.284,,,,426.748,0.413808,0.0,0.0
1452,362.75,26.0772,26.6543,161.525,116.544,111.122,,,,426.728,0.426735,0.0,0.0
1455,363.5,26.0101,26.3296,157.562,116.54,111.535,,,,426.708,0.393185,0.0,0.0