File: 01_Data/PVC/Cone/PVC_Cone_HF50Scan_220218_R1.csv
Names,Time,Stack TC,Smoke TC,Exh Press,Smoke Comp,Smoke Meas,CO Meter,CO2 Meter,O2 Meter,Sample Mass,Ext Coeff,Start Test,Flame Verif
Chan Gain,,500,500,1,1,1,1,1,1,1,1,1.0,1.0
Offset,,0,0,0.132436,0,0,0,0,0,0,0,0.0,0.0
Gain,,1,1,25.011,15.4219,15.1528,1,1,1,1.00089,1.02113,1.0,1.0
Units,sec,C,C,Pa,%,%,%,%,%,g,/m,,
Baseline,,43.7099,44.4862,151.952,116.002,111.822,-0.00804017,0.0503392,20.9867,-479.634,0.328806,,
6,1.25,40.9627,42.0373,153.487,116.048,112.138,-0.00817311,0.0520628,20.9886,438.308,0.306971,0.0,0.0
12,2.75,40.5738,41.9327,153.437,116.076,112.847,-0.00808963,0.0515989,20.9887,438.338,0.252703,0.0,0.0
18,4.25,40.8526,41.6116,153.396,116.115,111.483,-0.00812319,0.0512636,20.9887,438.328,0.364658,0.0,0.0
24,5.75,40.5315,41.5853,151.03,116.109,111.083,-0.0082319,0.0512059,20.9891,438.318,0.396419,0.0,0.0
30,7.25,40.8114,41.3472,151.544,116.174,113.423,-0.00829901,0.051437,20.9894,438.288,0.214637,0.0,0.0
36,8.75,41.0912,42.0182,152.867,116.167,111.726,-0.00826385,0.0517111,20.9895,438.288,0.349202,0.0,0.0
42,10.25,41.4015,41.763,151.107,116.216,112.8,-0.00818361,0.0517649,20.9895,438.268,0.267301,0.0,0.0
48,11.75,41.2692,42.0444,153.855,116.249,111.224,-0.00817663,0.0516667,20.9895,438.268,0.395831,0.0,0.0
54,13.25,41.1428,41.9538,153.28,116.273,113.079,-0.00824802,0.0513307,20.9895,438.298,0.249464,0.0,0.0
60,14.75,41.2225,42.0944,152.593,116.299,111.675,-0.00831342,0.0510119,20.9892,438.288,0.363363,0.0,0.0
66,16.25,41.4089,42.3015,154.744,116.325,112.744,-0.00831828,0.0506652,20.9899,438.348,0.280048,0.0,0.0
72,17.75,41.5863,42.3256,154.056,116.312,110.647,-0.00824225,0.0501327,20.9904,438.318,0.447248,0.0,0.0
78,19.25,41.4053,41.9067,155.723,116.336,110.933,-0.00806945,0.0497432,20.9907,438.338,0.425955,0.0,0.0
84,20.75,41.4646,42.5044,151.374,116.346,111.621,-0.00770085,0.0494973,20.9906,438.268,0.371328,0.0,0.0
90,22.25,41.5299,42.1785,152.39,116.351,108.639,-0.00715616,0.0497884,20.9889,438.168,0.614255,0.0,0.0
96,23.75,41.1641,42.1758,156.143,116.362,107.12,-0.00669796,0.050443,20.9877,438.088,0.741218,0.0,0.0
102,25.25,41.3144,42.3736,151.135,116.401,105.595,-0.00610173,0.0513453,20.9857,437.958,0.872706,0.0,0.0
108,26.75,41.3476,42.8676,151.865,116.372,103.009,-0.00548026,0.052644,20.9828,437.768,1.09254,0.0,0.0
114,28.25,41.8189,42.9177,153.071,116.385,100.277,-0.00470323,0.0552991,20.9764,437.528,1.33441,0.0,0.0
120,29.75,42.1348,43.0878,154.541,116.396,99.8724,-0.00376991,0.0595032,20.9658,437.217,1.37138,0.0,0.0
126,31.25,42.1054,43.9497,152.29,116.413,101.182,-0.00273279,0.0646236,20.9578,436.987,1.25599,0.0,0.0
132,32.75,42.0667,43.7566,155.409,116.411,96.6192,-0.00132205,0.0698048,20.9521,436.737,1.66916,0.0,0.0
138,34.25,42.2229,44.2554,147.318,116.42,99.5459,0.000828548,0.0773033,20.9388,436.467,1.40259,0.0,0.0
144,35.75,43.0811,44.4802,149.44,116.42,99.6583,0.00374135,0.0946752,20.8993,436.256,1.39245,0.0,0.0
150,37.25,43.2309,45.1017,141.121,116.416,99.865,0.00692882,0.116471,20.8504,435.926,1.3736,0.0,0.0
156,38.75,43.7907,45.4306,144.152,116.459,95.1084,0.0113082,0.144986,20.7973,435.636,1.81406,0.0,0.0
162,40.25,44.8249,46.7304,143.201,116.44,96.0536,0.0167988,0.176745,20.727,435.346,1.72399,0.0,0.0
168,41.75,45.3504,47.8389,137.375,116.449,49.2569,0.0225778,0.210624,20.6527,435.055,7.70688,0.0,1.0
174,43.25,46.4097,48.7764,140.18,116.436,31.5292,0.0292357,0.243251,20.5708,434.685,11.702,0.0,1.0
180,44.75,47.1494,49.8032,138.193,116.456,29.4155,0.0341846,0.276436,20.5055,434.295,12.3251,0.0,1.0
186,46.25,48.3957,50.9763,135.393,116.449,30.8745,0.0374397,0.301825,20.465,433.974,11.891,0.0,1.0
192,47.75,48.7006,52.2442,144.915,116.468,38.0301,0.038747,0.316341,20.4437,433.634,10.0253,0.0,1.0
198,49.25,49.8666,52.8735,139.345,116.451,34.8338,0.0386191,0.320152,20.4511,433.354,10.8104,0.0,0.0
204,50.75,50.9699,54.19,138.603,116.478,42.4597,0.0380543,0.317479,20.4705,433.044,9.03916,0.0,0.0
210,52.25,51.2415,54.6955,137.41,116.461,48.5988,0.0376084,0.311404,20.4903,432.823,7.82825,0.0,0.0
216,53.75,51.9424,55.5969,139.364,116.471,55.2217,0.0372924,0.304482,20.5091,432.463,6.68463,0.0,0.0
222,55.25,52.4369,55.9947,140.216,116.473,60.7834,0.0370394,0.297553,20.5254,432.173,5.82531,0.0,0.0
228,56.75,52.8925,56.6687,138.668,116.472,62.8287,0.0367627,0.292188,20.5492,431.893,5.52876,0.0,0.0
234,58.25,53.2274,57.505,137.713,116.473,64.3001,0.0364516,0.28952,20.5626,431.692,5.32151,0.0,0.0
240,59.75,53.6504,57.933,136.812,116.48,64.4116,0.0360929,0.288621,20.5697,431.372,5.30651,0.0,0.0
246,61.25,54.5374,58.5635,143.759,116.492,71.6573,0.0356306,0.288694,20.5722,431.122,4.35258,0.0,0.0
252,62.75,54.2368,59.1624,137.339,116.48,68.2696,0.035127,0.290076,20.5726,430.792,4.78541,0.0,0.0
258,64.25,54.9638,59.448,137.091,116.487,63.7674,0.0344961,0.290833,20.5733,430.491,5.39708,0.0,0.0
264,65.75,55.7894,60.1366,137.064,116.5,63.674,0.0339543,0.29019,20.5743,430.251,5.41122,0.0,0.0
270,67.25,56.0577,60.6514,139.851,116.495,60.0088,0.0334144,0.289231,20.5754,430.081,5.94185,0.0,0.0
276,68.75,56.5911,60.8017,138.467,116.488,57.5006,0.0328712,0.2879,20.5773,429.731,6.32371,0.0,0.0
282,70.25,56.9333,61.6989,138.684,116.484,55.317,0.0323686,0.284819,20.579,429.52,6.67024,0.0,0.0
288,71.75,56.8431,61.6249,137.813,116.483,56.9951,0.0319516,0.283381,20.5813,429.21,6.40244,0.0,0.0
294,73.25,57.1583,62.0036,138.088,116.494,56.0832,0.0316146,0.282593,20.5828,428.94,6.54778,0.0,0.0
300,74.75,57.3252,62.4645,140.623,116.483,56.7043,0.0314022,0.281277,20.5847,428.69,6.44826,0.0,0.0
306,76.25,57.9561,62.9311,140.159,116.505,58.2275,0.0312395,0.280142,20.5866,428.409,6.21256,0.0,0.0
312,77.75,58.2006,63.0176,138.253,116.481,58.0273,0.0310576,0.279337,20.5878,428.169,6.24153,0.0,0.0
318,79.25,58.4768,63.5567,143.175,116.483,61.0335,0.0307638,0.278656,20.592,427.919,5.78925,0.0,0.0
324,80.75,58.4929,63.86,140.938,116.475,58.5827,0.0304451,0.278257,20.5947,427.679,6.15578,0.0,0.0
330,82.25,59.2369,64.3977,138.186,116.486,57.982,0.0303445,0.277988,20.5967,427.449,6.24889,0.0,0.0
336,83.75,59.0273,64.303,137.013,116.48,56.0499,0.0304258,0.277013,20.5983,427.188,6.55201,0.0,0.0
342,85.25,59.4516,64.8146,137.411,116.491,55.8636,0.0305038,0.275638,20.5995,426.978,6.58271,0.0,0.0
348,86.75,59.6803,65.1031,138.329,116.468,57.2305,0.0303732,0.27484,20.6009,426.728,6.3644,0.0,0.0
354,88.25,60.0986,64.9629,138.361,116.482,60.3542,0.0299591,0.273829,20.6023,426.508,5.88946,0.0,0.0
360,89.75,59.8307,65.1255,139.915,116.466,61.1218,0.0294506,0.271951,20.6071,426.167,5.77499,0.0,0.0
366,91.25,60.4083,65.9928,138.139,116.487,56.5138,0.0289571,0.268444,20.6143,425.987,6.47874,0.0,0.0
372,92.75,60.0477,65.7957,139.854,116.482,61.1963,0.0284143,0.265004,20.6218,425.787,5.76535,0.0,0.0
378,94.25,60.6142,65.8784,143.217,116.468,60.4254,0.0277547,0.260963,20.6285,425.537,5.87782,0.0,0.0
384,95.75,60.7429,65.9144,137.761,116.45,59.5251,0.0272674,0.257337,20.6346,425.317,6.01091,0.0,0.0
390,97.25,61.0548,66.3359,138.987,116.449,59.028,0.0268644,0.254492,20.6388,425.096,6.08592,0.0,0.0
396,98.75,60.9209,66.3636,137.529,116.428,61.8751,0.0263598,0.25193,20.644,424.886,5.66234,0.0,0.0
402,100.25,60.9435,66.5623,139.419,116.425,63.8668,0.0256865,0.249567,20.6481,424.706,5.37838,0.0,0.0
408,101.75,61.1384,66.6629,141.712,116.395,62.7158,0.0248187,0.247315,20.652,424.426,5.53896,0.0,0.0
414,103.25,61.3981,66.7051,142.928,116.392,61.9931,0.024128,0.244834,20.6562,424.226,5.64257,0.0,0.0
420,104.75,61.1158,66.5817,140.341,116.382,65.3891,0.0232498,0.241913,20.6629,424.046,5.16405,0.0,0.0
426,106.25,60.871,66.4058,142.145,116.377,63.138,0.0225109,0.238943,20.6702,423.855,5.47749,0.0,0.0
432,107.75,61.6,66.8862,138.867,116.372,62.5073,0.0219948,0.235565,20.6751,423.655,5.56702,0.0,0.0
438,109.25,61.1485,66.8018,141.605,116.345,63.9172,0.0216383,0.232724,20.6791,423.445,5.36512,0.0,0.0
444,110.75,61.6429,66.9363,143.616,116.365,67.7706,0.0212534,0.230554,20.6825,423.255,4.84232,0.0,0.0
450,112.25,61.4662,66.8935,139.506,116.324,67.348,0.0207762,0.228241,20.6875,423.075,4.89517,0.0,0.0
456,113.75,61.1388,66.9549,141.222,116.318,67.7461,0.0203833,0.225132,20.6939,422.865,4.8419,0.0,0.0
462,115.25,61.2414,66.7056,137.562,116.289,69.4793,0.0200126,0.221957,20.6998,422.704,4.61342,0.0,0.0
468,116.75,61.7445,67.0642,140.267,116.284,68.2197,0.0196047,0.219716,20.703,422.504,4.7769,0.0,0.0
474,118.25,61.2616,66.6848,143.214,116.245,71.021,0.019234,0.218304,20.7051,422.334,4.41346,0.0,0.0
480,119.75,61.3743,66.7621,142.747,116.238,72.1563,0.0190615,0.216529,20.7084,422.174,4.27087,0.0,0.0
486,121.25,61.1604,66.6028,138.59,116.213,74.0994,0.0190773,0.214384,20.7115,421.954,4.03088,0.0,0.0
492,122.75,61.5432,66.6578,138.806,116.192,70.0324,0.019094,0.212266,20.7135,421.804,4.53493,0.0,0.0
498,124.25,61.6638,66.9763,148.008,116.166,75.7572,0.0190008,0.209987,20.7175,421.623,3.8291,0.0,0.0
504,125.75,61.4238,66.9054,138.499,116.16,71.7535,0.0187072,0.207288,20.7249,421.473,4.31498,0.0,0.0
510,127.25,61.3283,66.6604,138.439,116.122,73.9237,0.0182961,0.204681,20.7293,421.303,4.04518,0.0,0.0
516,128.75,61.0386,66.4679,143.174,116.114,76.2825,0.0177377,0.201515,20.7359,421.143,3.76321,0.0,0.0
522,130.25,61.1687,66.3821,140.982,116.076,76.08,0.017236,0.198925,20.7401,420.973,3.78405,0.0,0.0
528,131.75,61.2266,66.3533,142.669,116.065,78.5466,0.0167283,0.196568,20.7436,420.823,3.49746,0.0,0.0
534,133.25,61.0167,66.1613,142.926,116.022,75.1265,0.0163258,0.19387,20.7478,420.673,3.89288,0.0,0.0
540,134.75,60.8851,66.2794,142.395,116.012,76.8675,0.0161104,0.191597,20.7501,420.492,3.68691,0.0,0.0
546,136.25,60.8499,65.9933,144.227,115.974,77.1917,0.0160553,0.190252,20.7522,420.372,3.64623,0.0,0.0
552,137.75,60.959,66.2886,147.595,115.957,79.7313,0.0160327,0.189382,20.7534,420.202,3.35497,0.0,0.0
558,139.25,60.5955,65.82,141.418,115.923,80.2141,0.0159699,0.188286,20.7541,420.032,3.29828,0.0,0.0
564,140.75,60.8071,65.6747,145.33,115.912,73.5464,0.0158637,0.187051,20.7555,419.852,4.07482,0.0,0.0
570,142.25,60.7875,65.7902,145.578,115.892,75.9329,0.0157282,0.186064,20.7563,419.742,3.78721,0.0,0.0
576,143.75,60.8528,65.6939,141.844,115.876,76.8213,0.0156123,0.185792,20.7559,419.602,3.68175,0.0,0.0
582,145.25,60.8108,65.5816,142.337,115.868,75.4973,0.0154254,0.18584,20.7554,419.482,3.83685,0.0,0.0
588,146.75,60.6723,65.7088,143.733,115.863,73.711,0.0152444,0.185125,20.7558,419.321,4.05093,0.0,0.0
594,148.25,59.696,64.9288,141.926,115.912,74.265,0.0150648,0.184172,20.7582,419.181,3.98769,0.0,0.0
600,149.75,60.616,65.4193,142.962,115.965,75.5126,0.0148855,0.183275,20.7602,419.021,3.84253,0.0,0.0
606,151.25,60.723,65.0286,144.03,116.023,78.9364,0.0146564,0.1825,20.7607,418.901,3.44988,0.0,0.0
612,152.75,60.4261,64.874,141.835,116.072,76.7459,0.014452,0.182017,20.7608,418.761,3.70574,0.0,0.0
618,154.25,60.1036,65.1674,144.78,116.127,77.5658,0.0142342,0.182015,20.7609,418.601,3.61477,0.0,0.0
624,155.75,60.1254,64.9808,144.192,116.152,78.892,0.0139022,0.182532,20.761,418.441,3.46483,0.0,0.0
630,157.25,60.5379,65.1725,145.048,116.199,80.215,0.0135122,0.182748,20.761,418.3,3.31953,0.0,0.0
636,158.75,60.32,64.9549,140.605,116.217,76.4361,0.0131589,0.182746,20.7616,418.14,3.75312,0.0,0.0
642,160.25,59.9593,64.8517,141.944,116.284,78.4291,0.0128522,0.182381,20.7633,418.01,3.52774,0.0,0.0
648,161.75,59.9875,64.7447,143.003,116.296,76.0032,0.0125907,0.181048,20.7668,417.84,3.81011,0.0,0.0
654,163.25,60.1378,64.9241,140.999,116.334,81.6148,0.0123086,0.179437,20.7697,417.71,3.17491,0.0,0.0
660,164.75,60.236,64.8358,143.589,116.336,81.1228,0.0120526,0.177867,20.772,417.57,3.22929,0.0,0.0
666,166.25,59.6851,64.547,146.033,116.389,84.1457,0.0118767,0.176329,20.7743,417.47,2.90564,0.0,0.0
672,167.75,59.395,64.066,142.493,116.403,82.8361,0.0117589,0.17537,20.7756,417.33,3.04719,0.0,0.0
678,169.25,59.8771,64.5596,141.953,116.434,83.9894,0.0116546,0.175299,20.7763,417.159,2.92573,0.0,0.0
684,170.75,59.4968,64.3384,142.533,116.441,85.8691,0.011522,0.175535,20.7767,416.989,2.72805,0.0,0.0
690,172.25,59.6881,64.2343,137.526,116.467,84.7445,0.0114042,0.175774,20.777,416.879,2.84809,0.0,0.0
696,173.75,59.7446,64.2672,143.814,116.469,85.2499,0.011383,0.176098,20.7778,416.679,2.79497,0.0,0.0
702,175.25,59.837,64.4844,142.019,116.494,83.2324,0.0115016,0.176166,20.7776,416.579,3.01143,0.0,0.0
708,176.75,59.5998,64.2593,143.86,116.497,84.8698,0.011763,0.176205,20.7774,416.429,2.83717,0.0,0.0
714,178.25,59.8392,64.7537,144.249,116.52,83.7387,0.0120493,0.176761,20.7758,416.299,2.95913,0.0,0.0
720,179.75,59.8087,64.4136,141.166,116.523,84.548,0.0122983,0.177386,20.7744,416.149,2.87323,0.0,0.0
726,181.25,59.6517,64.3889,145.154,116.526,87.532,0.0124355,0.177506,20.7736,415.968,2.56273,0.0,0.0
732,182.75,59.5181,63.9618,143.991,116.53,86.5045,0.0125178,0.177557,20.7732,415.848,2.66882,0.0,0.0
738,184.25,59.6123,64.2689,142.282,116.526,81.6296,0.012573,0.177489,20.773,415.708,3.18809,0.0,0.0
744,185.75,59.2884,63.8309,142.192,116.537,85.3753,0.0126036,0.177204,20.7718,415.538,2.78706,0.0,0.0
750,187.25,59.7812,64.3523,140.968,116.512,86.6455,0.0126424,0.177784,20.7695,415.418,2.65289,0.0,0.0
756,188.75,59.7211,64.2777,141.07,116.53,87.5029,0.0126993,0.179069,20.7678,415.208,2.56603,0.0,0.0
762,190.25,59.3644,64.0258,147.028,116.512,89.0659,0.0127326,0.180497,20.766,415.108,2.40607,0.0,0.0
768,191.75,59.5381,64.1507,141.429,116.517,83.7568,0.0127092,0.181808,20.7638,414.968,2.95694,0.0,0.0
774,193.25,59.8468,64.3297,141.579,116.491,87.1001,0.0126497,0.18291,20.7629,414.857,2.60439,0.0,0.0
780,194.75,59.3212,63.9195,139.829,116.49,88.1549,0.0126039,0.183825,20.7637,414.677,2.49646,0.0,0.0
786,196.25,59.221,63.6153,145.694,116.459,86.9739,0.01268,0.184249,20.764,414.517,2.61492,0.0,0.0
792,197.75,59.0292,63.4693,142.759,116.449,85.8391,0.0129181,0.184185,20.7645,414.367,2.73176,0.0,0.0
798,199.25,59.4971,63.8264,144.187,116.404,84.0412,0.0131329,0.183457,20.766,414.227,2.91789,0.0,0.0
804,200.75,59.0407,63.7201,145.135,116.378,84.665,0.0132919,0.18264,20.7682,414.057,2.8497,0.0,0.0
810,202.25,59.4693,63.7603,144.932,116.348,85.7304,0.0133779,0.181806,20.7697,413.927,2.73533,0.0,0.0
816,203.75,59.8454,63.8672,146.454,116.315,83.4534,0.0134226,0.180773,20.7705,413.786,2.97395,0.0,0.0
822,205.25,59.3197,63.6462,139.833,116.276,85.2583,0.0134172,0.18015,20.7703,413.606,2.77925,0.0,0.0
828,206.75,59.0728,63.2818,141.402,116.249,85.3614,0.013385,0.179973,20.7697,413.476,2.76635,0.0,0.0
834,208.25,59.6129,63.8273,141.044,116.189,85.6268,0.0133543,0.179493,20.7707,413.326,2.7339,0.0,0.0
840,209.75,59.548,63.4646,140.851,116.183,82.1091,0.0133354,0.178456,20.7721,413.206,3.10921,0.0,0.0
846,211.25,59.1913,63.2992,144.941,116.113,85.04,0.0134286,0.177458,20.7728,413.016,2.78965,0.0,0.0
852,212.75,59.2019,63.5476,138.377,116.094,84.8083,0.0136176,0.176754,20.7732,412.876,2.8126,0.0,0.0
858,214.25,58.3502,62.5177,139.14,116.011,82.1873,0.0138793,0.176723,20.7718,412.726,3.08744,0.0,0.0
864,215.75,59.2931,63.3744,146.645,115.949,83.1491,0.0141319,0.177408,20.7705,412.585,2.97842,0.0,0.0
870,217.25,59.1722,63.286,140.983,115.879,82.936,0.0145255,0.179592,20.7677,412.425,2.996,0.0,0.0
876,218.75,59.0858,63.4225,141.209,115.807,81.4331,0.015033,0.182441,20.7601,412.285,3.15427,0.0,0.0
882,220.25,59.3177,63.4577,145.551,115.723,79.5339,0.0156841,0.185662,20.7531,412.065,3.35913,0.0,0.0
888,221.75,59.2436,63.278,144.686,115.677,78.6571,0.0165021,0.189321,20.7394,411.885,3.45485,0.0,0.0
894,223.25,59.1106,63.4008,143.946,115.613,77.5704,0.0171811,0.195739,20.7272,411.785,3.57447,0.0,0.0
900,224.75,59.6908,63.6629,140.006,115.543,74.7958,0.0179511,0.201861,20.7163,411.595,3.89536,0.0,0.0
906,226.25,59.4449,63.6847,139.771,115.567,75.0844,0.0185529,0.206031,20.7096,411.494,3.86273,0.0,0.0
912,227.75,59.7329,63.9693,140.338,115.562,74.099,0.0188978,0.208709,20.7079,411.324,3.98063,0.0,0.0
918,229.25,59.9948,64.2045,141.187,115.58,77.692,0.0190403,0.208937,20.7086,411.194,3.55792,0.0,0.0
924,230.75,59.835,64.0507,138.819,115.581,75.7988,0.0191061,0.208628,20.7098,410.984,3.77896,0.0,0.0
930,232.25,59.8421,64.253,140.37,115.601,77.0488,0.0191569,0.208663,20.7098,410.824,3.63403,0.0,0.0
936,233.75,61.0455,65.0922,144.407,115.588,74.4541,0.0191441,0.208713,20.7096,410.674,3.93981,0.0,0.0
942,235.25,60.4131,64.5207,141.897,115.581,73.1195,0.0190101,0.208184,20.7121,410.544,4.10127,0.0,0.0
948,236.75,59.2915,63.8736,141.083,115.611,76.9748,0.0187603,0.206061,20.7172,410.373,3.64336,0.0,0.0
954,238.25,59.8902,64.5742,134.27,115.644,73.5329,0.0184597,0.203528,20.721,410.263,4.0557,0.0,0.0
960,239.75,61.5298,65.5862,143.166,115.638,73.4682,0.0181567,0.200342,20.7265,410.073,4.06311,0.0,0.0
966,241.25,60.1406,64.5158,141.928,115.645,73.6069,0.0178792,0.197838,20.7326,409.933,4.04676,0.0,0.0
972,242.75,58.8031,63.4667,144.536,115.655,74.7935,0.0176399,0.194354,20.7402,409.793,3.90428,0.0,0.0
978,244.25,59.9422,64.1444,144.414,115.678,76.3468,0.0173893,0.190714,20.747,409.643,3.72195,0.0,0.0
984,245.75,59.9767,64.3127,136.045,115.669,78.5202,0.0170998,0.186828,20.7535,409.503,3.46983,0.0,0.0
990,247.25,59.6735,63.8321,142.731,115.7,78.0236,0.0167717,0.183416,20.76,409.373,3.52907,0.0,0.0
996,248.75,59.8618,64.114,144.384,115.696,83.9695,0.0163154,0.180299,20.7657,409.252,2.87094,0.0,0.0
1002,250.25,59.4915,63.7352,145.984,115.732,80.6488,0.0156829,0.176797,20.7755,409.132,3.23513,0.0,0.0
1008,251.75,60.7762,64.694,144.515,115.726,77.5468,0.0150472,0.171988,20.7824,408.972,3.58601,0.0,0.0
1014,253.25,59.7236,64.0466,143.502,115.741,79.5801,0.0144117,0.167844,20.7875,408.872,3.3553,0.0,0.0
1020,254.75,59.5061,63.6734,146.193,115.75,86.0999,0.013879,0.164378,20.7923,408.752,2.65067,0.0,0.0
1026,256.25,59.7839,63.8499,145.091,115.768,84.5101,0.013399,0.161424,20.7979,408.642,2.81899,0.0,0.0
1032,257.75,59.4971,63.5576,142.349,115.786,83.1852,0.0129556,0.159148,20.8022,408.512,2.96191,0.0,0.0
1038,259.25,59.4757,63.4216,140.449,115.781,85.4553,0.0125552,0.156993,20.8055,408.402,2.72039,0.0,0.0
1044,260.75,58.695,62.833,142.078,115.806,86.7598,0.0122721,0.155325,20.8076,408.262,2.58662,0.0,0.0
1050,262.25,59.0709,63.0923,145.367,115.811,86.147,0.0120441,0.154402,20.8089,408.161,2.65046,0.0,0.0
1056,263.75,59.2405,62.9812,144.482,115.822,85.0381,0.0118087,0.153611,20.8108,408.041,2.76738,0.0,0.0
1062,265.25,59.1907,63.1327,144.2,115.821,81.6125,0.0116051,0.151735,20.8142,407.911,3.13561,0.0,0.0
1068,266.75,58.5892,62.463,145.45,115.849,83.3151,0.0113317,0.149348,20.8173,407.801,2.95285,0.0,0.0
1074,268.25,58.894,62.7776,144.802,115.853,85.8104,0.0109538,0.147535,20.8198,407.721,2.68881,0.0,0.0
1080,269.75,58.6999,62.7982,146.486,115.852,88.1133,0.0104536,0.145798,20.8235,407.621,2.45152,0.0,0.0
1086,271.25,58.4837,62.3723,145.835,115.861,89.9029,0.00999466,0.143856,20.8274,407.481,2.27208,0.0,0.0
1092,272.75,58.5136,62.4433,141.082,115.882,88.1003,0.00963617,0.14202,20.8295,407.401,2.45513,0.0,0.0
1098,274.25,58.2775,62.2192,144.781,115.876,91.5219,0.00938165,0.140534,20.8306,407.341,2.11337,0.0,0.0
1104,275.75,58.5038,62.025,145.109,115.898,92.2557,0.00930222,0.139659,20.8312,407.181,2.04358,0.0,0.0
1110,277.25,58.2463,62.0338,149.481,115.886,88.6659,0.00927721,0.139588,20.8306,407.061,2.3981,0.0,0.0
1116,278.75,58.2624,62.2115,147.728,115.909,90.5688,0.00925315,0.139997,20.8291,406.98,2.20968,0.0,0.0
1122,280.25,58.574,62.1891,141.899,115.901,88.3265,0.0091791,0.141059,20.8266,406.91,2.43362,0.0,0.0
1128,281.75,57.7102,61.9947,141.77,115.913,90.3547,0.00907474,0.142487,20.8237,406.78,2.23125,0.0,0.0
1134,283.25,57.5228,61.6407,145.254,115.912,86.8171,0.00897373,0.143835,20.8222,406.68,2.58888,0.0,0.0
1140,284.75,57.2983,61.2784,148.905,115.93,88.824,0.00890595,0.14429,20.8213,406.6,2.3856,0.0,0.0
1146,286.25,57.9643,61.601,142.959,115.95,90.9249,0.00884549,0.143806,20.822,406.49,2.17774,0.0,0.0
1152,287.75,57.3624,61.0366,145.983,115.947,90.2691,0.00879804,0.143344,20.8234,406.39,2.24235,0.0,0.0
1158,289.25,57.2511,61.0103,147.187,115.953,90.4638,0.00874264,0.14292,20.8245,406.3,2.22353,0.0,0.0
1164,290.75,57.6537,61.3305,144.231,115.957,90.3158,0.00870069,0.142349,20.8266,406.2,2.23848,0.0,0.0
1170,292.25,57.2754,60.9793,153.586,115.972,94.3963,0.00869349,0.140938,20.8293,406.1,1.8438,0.0,0.0
1176,293.75,56.6939,60.5083,145.252,115.976,90.6261,0.00867172,0.139503,20.8319,406,2.20922,0.0,0.0
1182,295.25,57.6787,61.1438,142.944,115.981,88.2025,0.00854655,0.137864,20.8352,405.94,2.45242,0.0,0.0
1188,296.75,57.3763,61.005,144.129,115.978,88.5706,0.00827477,0.135879,20.8391,405.839,2.4149,0.0,0.0
1194,298.25,57.7108,60.9819,145.759,115.997,91.1491,0.00796743,0.134079,20.8422,405.739,2.15927,0.0,0.0
1200,299.75,57.3393,60.7829,146.425,115.984,92.5988,0.00769344,0.132166,20.8456,405.649,2.01695,0.0,0.0
1206,301.25,57.15,60.7173,146.771,115.993,92.184,0.00743947,0.130562,20.8478,405.549,2.05785,0.0,0.0
1212,302.75,57.0168,60.621,143.745,115.972,92.2049,0.00717454,0.129482,20.8489,405.509,2.05419,0.0,0.0
1218,304.25,56.4377,60.0957,143.379,115.991,95.3156,0.00696774,0.128532,20.8495,405.389,1.75851,0.0,0.0
1224,305.75,56.8036,60.2244,143.567,115.983,88.1998,0.00679708,0.127856,20.8508,405.319,2.45284,0.0,0.0
1230,307.25,56.4854,59.7831,146.556,115.984,93.4266,0.00660431,0.127658,20.8516,405.249,1.93723,0.0,0.0
1236,308.75,56.6127,59.9028,145.443,115.965,92.4305,0.00646319,0.127483,20.852,405.139,2.03175,0.0,0.0
1242,310.25,56.7958,59.9931,149.44,115.971,93.877,0.00643346,0.127071,20.8524,405.029,1.89317,0.0,0.0
1248,311.75,56.2962,59.8104,143.455,115.943,93.4363,0.00647836,0.126124,20.8535,404.989,1.93318,0.0,0.0
1254,313.25,56.5404,59.6821,144.792,115.946,92.9637,0.00654881,0.125368,20.8541,404.919,1.97878,0.0,0.0
1260,314.75,56.0836,59.4363,143.596,115.92,93.5117,0.00653836,0.125043,20.8542,404.829,1.92413,0.0,0.0
1266,316.25,56.2711,59.325,148.982,115.93,91.7891,0.00644171,0.1249,20.8534,404.738,2.09144,0.0,0.0
1272,317.75,56.1247,59.4627,142.93,115.904,91.3961,0.00640376,0.124783,20.8527,404.678,2.12787,0.0,0.0
1278,319.25,56.4543,59.4727,149.263,115.894,92.1947,0.00645218,0.124946,20.8515,404.608,2.04918,0.0,0.0
1284,320.75,56.0106,59.2988,145.913,115.863,91.7595,0.0064917,0.125447,20.8507,404.538,2.08916,0.0,0.0
1290,322.25,55.9457,59.4531,148.735,115.854,93.3036,0.00648418,0.126295,20.8494,404.458,1.939,0.0,0.0
1296,323.75,55.7934,59.079,147.095,115.832,93.0146,0.00653771,0.126958,20.8487,404.368,1.96511,0.0,0.0
1302,325.25,55.5024,58.5383,145.194,115.814,96.0467,0.0066452,0.127116,20.8483,404.298,1.67636,0.0,0.0
1308,326.75,57.318,60.3441,147.882,115.803,94.659,0.00672931,0.127291,20.8481,404.248,1.80588,0.0,0.0
1314,328.25,55.844,59.078,148.66,115.784,94.7561,0.00659283,0.127516,20.848,404.138,1.79521,0.0,0.0
1320,329.75,54.6002,57.9317,144.29,115.769,90.6594,0.00640686,0.127348,20.848,404.078,2.18992,0.0,0.0
1326,331.25,55.7315,58.6715,151.068,115.733,94.9027,0.0062297,0.126773,20.8489,403.998,1.77739,0.0,0.0
1332,332.75,55.1644,58.3494,144.345,115.729,90.4948,0.00617256,0.12631,20.8496,403.928,2.20314,0.0,0.0
1338,334.25,55.1724,58.6149,144.417,115.705,95.2652,0.00617483,0.126335,20.85,403.878,1.74109,0.0,0.0
1344,335.75,55.2306,58.5965,141.955,115.698,93.4516,0.00620794,0.126139,20.8502,403.778,1.91275,0.0,0.0
1350,337.25,55.688,58.6868,146.432,115.671,91.169,0.00618949,0.125657,20.8511,403.738,2.13213,0.0,0.0
1356,338.75,55.4814,58.2171,148.365,115.67,91.5561,0.00607759,0.125113,20.8519,403.647,2.09415,0.0,0.0
1362,340.25,55.1192,58.1923,143.232,115.64,93.8557,0.00593472,0.124937,20.8519,403.587,1.86961,0.0,0.0
1368,341.75,54.792,58.0246,143.978,115.638,91.6578,0.00577343,0.124844,20.8512,403.547,2.08169,0.0,0.0
1374,343.25,54.6403,57.6459,145.162,115.603,91.1898,0.00555414,0.124935,20.8509,403.457,2.12484,0.0,0.0
1380,344.75,54.3541,57.2459,144.977,115.596,91.9792,0.00537043,0.125302,20.8507,403.387,2.04709,0.0,0.0
1386,346.25,54.7797,57.8077,143.772,115.59,90.6169,0.00532074,0.125725,20.8498,403.307,2.18024,0.0,0.0
1392,347.75,54.399,57.3874,149.749,115.593,87.6943,0.0053868,0.126416,20.849,403.247,2.47417,0.0,0.0
1398,349.25,54.6547,57.6962,143.518,115.57,90.5013,0.00555261,0.127095,20.8476,403.177,2.19014,0.0,0.0
1404,350.75,54.6971,57.8739,146.342,115.563,92.2701,0.00561175,0.127556,20.8468,403.117,2.01622,0.0,0.0
1410,352.25,54.1855,57.2699,148.175,115.541,91.4488,0.00553409,0.127428,20.848,403.027,2.09459,0.0,0.0
1416,353.75,54.7065,57.5258,144.612,115.536,91.9926,0.00534372,0.126564,20.8498,403.007,2.04115,0.0,0.0
1422,355.25,54.5682,57.3582,147.529,115.509,94.5295,0.00514206,0.125876,20.8517,402.957,1.79533,0.0,0.0
1428,356.75,54.7247,57.4217,146.114,115.515,93.2476,0.00496374,0.125637,20.8521,402.867,1.91813,0.0,0.0
1434,358.25,54.5311,57.3785,148.398,115.478,91.9135,0.00480376,0.126574,20.8492,402.857,2.04429,0.0,0.0
1440,359.75,54.0691,56.9717,144.038,115.473,92.5096,0.00468144,0.127809,20.846,402.737,1.98602,0.0,0.0
1446,361.25,54.3141,57.2679,150.026,115.462,91.6176,0.00465289,0.129229,20.8429,402.707,2.07194,0.0,0.0
1452,362.75,54.4129,57.1516,148.145,115.438,89.9908,0.00471146,0.130725,20.84,402.627,2.23055,0.0,0.0
1458,364.25,54.2286,57.2532,145.448,115.426,89.0664,0.00485058,0.132303,20.8362,402.557,2.32213,0.0,0.0
1464,365.75,54.2659,57.0151,145.731,115.421,86.8102,0.00490304,0.134538,20.8318,402.496,2.55159,0.0,0.0
1470,367.25,53.9582,56.8992,146.463,115.41,88.4143,0.00492209,0.138366,20.8253,402.416,2.38674,0.0,0.0
1476,368.75,54.3646,57.33,146.854,115.391,89.2851,0.00493054,0.141258,20.8177,402.346,2.29745,0.0,0.0
1482,370.25,54.3525,57.2973,148.186,115.383,86.8319,0.00496524,0.144213,20.813,402.256,2.54642,0.0,0.0
1488,371.75,54.5231,57.3853,143.879,115.363,86.4592,0.00498389,0.146479,20.8093,402.216,2.58334,0.0,0.0
1494,373.25,54.8831,57.8654,145.355,115.37,86.2206,0.00497478,0.148229,20.8066,402.156,2.60865,0.0,0.0
1500,374.75,54.5042,57.2737,146.898,115.355,87.163,0.00494276,0.149544,20.8043,402.086,2.51014,0.0,0.0
1506,376.25,54.5185,57.2658,142.154,115.342,85.7577,0.00490624,0.150557,20.8029,402.016,2.65475,0.0,0.0
1512,377.75,54.6839,57.6046,143.526,115.31,87.4978,0.00486387,0.151307,20.8022,401.956,2.47233,0.0,0.0
1518,379.25,54.2839,57.3431,137.723,115.315,87.2319,0.00480812,0.151665,20.804,401.916,2.49995,0.0,0.0
1524,380.75,54.5994,57.5541,144.143,115.272,87.3919,0.00481477,0.151329,20.8072,401.856,2.48021,0.0,0.0
1530,382.25,54.9822,58.0144,148.462,115.27,85.5935,0.0048389,0.150694,20.8095,401.816,2.66628,0.0,0.0
1536,383.75,54.2387,57.0506,145.968,115.242,89.5482,0.00477528,0.150195,20.8111,401.716,2.25951,0.0,0.0
1542,385.25,54.8473,57.8105,145.378,115.247,88.8176,0.00458683,0.149767,20.8126,401.676,2.33333,0.0,0.0
1548,386.75,54.6645,57.6839,149.922,115.224,90.4402,0.00427405,0.149148,20.8144,401.626,2.16933,0.0,0.0
1554,388.25,54.7379,57.6379,144.785,115.228,90.9017,0.00405825,0.148381,20.8157,401.606,2.12403,0.0,0.0
1560,389.75,54.4106,56.9013,147.712,115.212,89.3549,0.00391782,0.147481,20.818,401.496,2.27656,0.0,0.0
1566,391.25,54.6259,57.5743,145.699,115.215,91.6966,0.00389165,0.146616,20.8195,401.446,2.04506,0.0,0.0
1572,392.75,54.6578,57.5109,142.303,115.195,89.8691,0.00382602,0.145642,20.8212,401.365,2.2238,0.0,0.0
1578,394.25,54.5515,57.3504,144.914,115.199,92.0962,0.00362232,0.144601,20.8242,401.335,2.00487,0.0,0.0
1584,395.75,54.2586,57.2713,146.103,115.19,93.7119,0.0032885,0.143384,20.8281,401.285,1.84839,0.0,0.0
1590,397.25,54.5182,57.2067,146.479,115.206,94.2853,0.00302739,0.141719,20.8316,401.215,1.795,0.0,0.0
1596,398.75,54.7835,57.5113,148.934,115.197,91.3771,0.00283013,0.140353,20.8342,401.155,2.0749,0.0,0.0
1602,400.25,54.2161,56.9536,143.146,115.197,92.7649,0.00265669,0.139126,20.8357,401.125,1.93992,0.0,0.0
1608,401.75,54.5168,57.1287,148.221,115.191,89.7757,0.00244302,0.137544,20.839,401.055,2.23286,0.0,0.0
1614,403.25,54.566,57.2117,145.143,115.205,91.3364,0.00217481,0.136185,20.8419,401.015,2.07951,0.0,0.0
1620,404.75,54.239,57.106,154.235,115.213,97.3484,0.00200529,0.134373,20.8446,400.975,1.50917,0.0,0.0
1626,406.25,54.259,56.7829,148.382,115.211,94.3755,0.00191158,0.132801,20.8473,400.935,1.7868,0.0,0.0
1632,407.75,54.4686,57.3558,149.47,115.228,96.2534,0.00182292,0.131838,20.8493,400.905,1.61167,0.0,0.0
1638,409.25,53.6861,56.4847,146.338,115.213,98.6553,0.00169555,0.1312,20.8504,400.865,1.38973,0.0,0.0
1644,410.75,54.2071,56.8179,151.323,115.221,93.0099,0.00150082,0.130644,20.8518,400.835,1.91819,0.0,0.0
1650,412.25,53.6547,56.5667,145.325,115.209,94.0707,0.00116571,0.130273,20.8528,400.765,1.81566,0.0,0.0
1656,413.75,53.1773,55.8765,144.594,115.238,96.8079,0.000871872,0.129722,20.8534,400.725,1.56099,0.0,0.0
1662,415.25,53.4674,55.9522,145.643,115.224,96.2964,0.000728555,0.128971,20.8542,400.695,1.60734,0.0,0.0
1668,416.75,53.4515,56.2961,145.89,115.24,94.2132,0.000708329,0.128345,20.8552,400.655,1.80452,0.0,0.0
1674,418.25,53.5601,56.1802,144.471,115.235,96.0217,0.000808677,0.127904,20.8562,400.625,1.63377,0.0,0.0
1680,419.75,53.6347,56.2772,149.444,115.255,98.1281,0.000871549,0.127303,20.8572,400.605,1.44097,0.0,0.0
1686,421.25,53.7202,56.429,149.14,115.253,101.616,0.000888311,0.126653,20.8587,400.575,1.12796,0.0,0.0
1692,422.75,53.0213,55.6938,147.347,115.288,96.9743,0.000874507,0.126416,20.8597,400.555,1.54951,0.0,0.0
1698,424.25,53.6828,56.3753,148.913,115.257,96.2395,0.000886259,0.12646,20.8592,400.515,1.61519,0.0,0.0
1704,425.75,53.1747,55.9475,146.719,115.297,97.3984,0.00089302,0.126603,20.8589,400.455,1.51112,0.0,0.0
1710,427.25,53.3413,56.0035,147.778,115.282,97.6264,0.000819842,0.126529,20.8587,400.405,1.48897,0.0,0.0
1716,428.75,53.1662,55.9259,144.836,115.31,95.415,0.000593632,0.126282,20.8587,400.375,1.69636,0.0,0.0
1722,430.25,53.1848,55.859,147.597,115.306,95.1931,0.000309166,0.126263,20.8586,400.345,1.71696,0.0,0.0
1728,431.75,52.74,55.3412,145.202,115.339,98.5669,4.40212e-05,0.126633,20.8586,400.315,1.40755,0.0,0.0
1734,433.25,53.5739,56.1842,147.309,115.326,97.397,-0.000157949,0.126763,20.859,400.315,1.51344,0.0,0.0
1740,434.75,53.0187,55.8198,148.571,115.353,96.3917,-0.000300667,0.126564,20.8605,400.275,1.60854,0.0,0.0
1746,436.25,54.045,56.7356,146.797,115.339,97.6638,-0.00042951,0.125868,20.8617,400.245,1.49,0.0,0.0
1752,437.75,52.5652,55.3301,147.625,115.381,95.4455,-0.000482242,0.125341,20.8628,400.204,1.69901,0.0,0.0
1758,439.25,52.8655,55.5313,148.12,115.382,99.508,-0.000449208,0.125243,20.8634,400.174,1.32577,0.0,0.0
1764,440.75,52.3452,55.0353,150.711,115.377,100.489,-0.000345854,0.125092,20.8637,400.144,1.23747,0.0,0.0
1770,442.25,52.7554,55.5996,147.67,115.398,99.0187,-0.000283463,0.125102,20.8647,400.114,1.37116,0.0,0.0
1776,443.75,52.6774,55.2608,145.587,115.398,101.24,-0.000333795,0.125201,20.8655,400.104,1.17246,0.0,0.0
1782,445.25,52.5313,55.2034,147.191,115.417,100.76,-0.000501916,0.12505,20.8648,400.094,1.21653,0.0,0.0
1788,446.75,52.5719,55.2306,144.814,115.412,98.5637,-0.000721256,0.124992,20.8652,400.044,1.41351,0.0,0.0
1794,448.25,52.8023,55.1881,146.2,115.434,98.0217,-0.00106977,0.125033,20.8644,400.004,1.46458,0.0,0.0
1800,449.75,52.4271,55.0551,148.142,115.445,98.8462,-0.00136575,0.124958,20.8643,400.014,1.39039,0.0,0.0
1806,451.25,52.3593,54.9369,148.281,115.449,98.8134,-0.00163919,0.124626,20.8648,399.984,1.39373,0.0,0.0
1812,452.75,52.599,55.0043,149.167,115.443,97.5625,-0.00179723,0.124238,20.8651,399.944,1.50737,0.0,0.0
1818,454.25,52.4062,55.3998,146.141,115.464,98.3857,-0.0018351,0.12375,20.8663,399.924,1.43376,0.0,0.0
1824,455.75,52.4875,54.9946,144.027,115.45,100.994,-0.00184619,0.122936,20.8686,399.894,1.19827,0.0,0.0
1830,457.25,52.166,54.9311,150.733,115.477,105.302,-0.00187236,0.121544,20.8713,399.884,0.826196,0.0,0.0
1836,458.75,52.1239,54.6921,151.202,115.46,105.799,-0.00192011,0.119931,20.875,399.874,0.782733,0.0,0.0
1842,460.25,51.9095,54.4793,146.284,115.481,105.057,-0.00203003,0.118693,20.8776,399.844,0.847358,0.0,0.0
1848,461.75,51.5948,54.1293,147.515,115.485,102.451,-0.0022172,0.117813,20.8794,399.834,1.07266,0.0,0.0
1854,463.25,51.9835,54.6653,148.343,115.497,103.894,-0.00241283,0.116999,20.8804,399.824,0.948347,0.0,0.0
1860,464.75,50.6629,53.1861,150.248,115.479,102.702,-0.00260052,0.116388,20.8811,399.814,1.0503,0.0,0.0
1866,466.25,52.2361,54.9441,145.561,115.489,103.614,-0.00273018,0.115904,20.8824,399.794,0.971919,0.0,0.0
1872,467.75,52.9798,55.4848,147.17,115.484,104.615,-0.00280163,0.115535,20.883,399.744,0.885388,0.0,0.0
1878,469.25,52.0884,54.2128,147.194,115.514,103.66,-0.00283669,0.115498,20.8836,399.724,0.969858,0.0,0.0
1884,470.75,51.8837,54.2974,148.872,115.495,104.495,-0.00292343,0.115216,20.8848,399.714,0.896561,0.0,0.0
1890,472.25,51.4908,54.2191,147.579,115.502,105.625,-0.00313651,0.114355,20.8854,399.694,0.800717,0.0,0.0
1896,473.75,50.4623,52.9105,144.716,115.511,103.507,-0.00335412,0.113829,20.8859,399.704,0.982878,0.0,0.0
1902,475.25,51.6906,54.1295,148.102,115.524,104.659,-0.00357799,0.113537,20.8871,399.664,0.884727,0.0,0.0
1908,476.75,52.7298,55.2042,145.958,115.51,105.062,-0.00371861,0.112962,20.8888,399.664,0.849263,0.0,0.0
1914,478.25,51.272,53.2911,149.588,115.526,105.496,-0.0037366,0.111745,20.8908,399.634,0.813487,0.0,0.0
1920,479.75,50.6214,53.0825,147.422,115.536,105.517,-0.00372039,0.110512,20.8918,399.634,0.812523,0.0,0.0
1926,481.25,51.5034,53.978,147.536,115.534,105.981,-0.00374598,0.109636,20.8931,399.614,0.773054,0.0,0.0
1932,482.75,51.3285,54.1027,146.986,115.518,106.091,-0.0037975,0.108776,20.895,399.594,0.762516,0.0,0.0
1938,484.25,50.7387,53.4179,147.513,115.534,106.652,-0.00383217,0.108012,20.8968,399.564,0.716445,0.0,0.0
1944,485.75,51.3474,53.4609,152.521,115.536,107.093,-0.0038347,0.107311,20.8987,399.564,0.679692,0.0,0.0
1950,487.25,50.8093,53.4811,147.791,115.53,106.289,-0.00388042,0.106476,20.9003,399.584,0.746768,0.0,0.0
1956,488.75,50.8036,53.1446,145.989,115.545,108.607,-0.00398834,0.105526,20.9019,399.574,0.554678,0.0,0.0
1962,490.25,50.8357,53.5016,148.669,115.533,108.723,-0.00414263,0.10453,20.9039,399.554,0.544201,0.0,0.0
1968,491.75,51.1576,53.1519,144.262,115.545,107.773,-0.0042775,0.103488,20.9054,399.544,0.623671,0.0,0.0
1974,493.25,51.3415,53.5141,149.154,115.53,106.671,-0.0044182,0.102689,20.9066,399.514,0.714639,0.0,0.0
1980,494.75,51.1091,53.4589,147.065,115.548,108.618,-0.00452004,0.101825,20.9074,399.524,0.553982,0.0,0.0
1986,496.25,50.0652,52.3295,149.15,115.526,108.444,-0.00459693,0.100671,20.9085,399.504,0.566654,0.0,0.0
1992,497.75,50.6876,52.7621,146.863,115.543,108.786,-0.00463282,0.0997936,20.91,399.474,0.539824,0.0,0.0
1998,499.25,50.7174,52.9438,149.245,115.534,107.342,-0.00468004,0.0989153,20.9115,399.474,0.658725,0.0,0.0
2004,500.75,50.1339,52.8659,148.768,115.542,109.603,-0.004747,0.0979043,20.9141,399.484,0.472649,0.0,0.0
2010,502.25,50.4153,52.6835,148.513,115.519,109.292,-0.00481857,0.0968557,20.9159,399.474,0.49633,0.0,0.0
2016,503.75,50.4476,52.5962,148.434,115.542,110.465,-0.00486496,0.0959456,20.9175,399.464,0.40248,0.0,0.0
2022,505.25,50.1592,52.4027,148.064,115.523,109.319,-0.00488465,0.0950958,20.9195,399.444,0.494461,0.0,0.0
2028,506.75,50.4571,52.653,149.079,115.528,110.699,-0.00487777,0.0940318,20.9213,399.454,0.382507,0.0,0.0
2034,508.25,50.0365,52.3362,152.53,115.513,109.81,-0.00481025,0.0930599,20.9225,399.454,0.453471,0.0,0.0
2040,509.75,49.9672,52.2434,146.115,115.51,110.03,-0.00470969,0.0920691,20.9232,399.434,0.435317,0.0,0.0
2046,511.25,49.708,51.8635,146.163,115.51,110.484,-0.00468386,0.0910601,20.9247,399.424,0.398498,0.0,0.0
2052,512.75,49.544,51.645,148.37,115.504,111.454,-0.00475142,0.0900753,20.9269,399.404,0.31975,0.0,0.0
2058,514.25,49.6675,51.7994,152.281,115.508,111.095,-0.00482466,0.0888621,20.9283,399.414,0.348854,0.0,0.0
2064,515.75,49.3064,51.579,150.185,115.5,110.482,-0.00484243,0.0875389,20.9299,399.384,0.397883,0.0,0.0
2070,517.25,49.1892,51.4133,153.253,115.506,111.187,-0.00476332,0.0861441,20.9331,399.374,0.341367,0.0,0.0
2076,518.75,49.5373,51.4479,148.556,115.518,110.63,-0.00469954,0.0849574,20.9347,399.374,0.387207,0.0,0.0
2082,520.25,49.1052,51.3619,150.282,115.542,111.433,-0.00469842,0.0837331,20.9366,399.364,0.324415,0.0,0.0
2088,521.75,49.4165,51.1722,151.627,115.497,111.589,-0.00474375,0.0829245,20.9378,399.374,0.30832,0.0,0.0
2094,523.25,49.3921,51.5407,147.987,115.511,111.263,-0.00480142,0.0821395,20.9384,399.374,0.335622,0.0,0.0
2100,524.75,49.1778,51.1877,147.876,115.503,111.218,-0.00482272,0.081453,20.9396,399.374,0.338614,0.0,0.0
2106,526.25,48.3306,50.1536,148.469,115.515,110.795,-0.00478137,0.0809724,20.9409,399.364,0.373668,0.0,0.0
2112,527.75,48.9823,50.6424,148.976,115.494,110.43,-0.00472103,0.0802512,20.942,399.334,0.401608,0.0,0.0
2118,529.25,48.8702,50.4857,153.697,115.5,111.202,-0.00473004,0.0796214,20.9428,399.354,0.339662,0.0,0.0
2124,530.75,48.3694,49.7977,148.661,115.48,110.552,-0.00479186,0.0787898,20.9432,399.364,0.39069,0.0,0.0
2130,532.25,48.1947,50.3841,148.903,115.501,112.24,-0.00480997,0.0780393,20.9445,399.364,0.256464,0.0,0.0
2136,533.75,48.2028,50.2889,148.041,115.497,110.304,-0.00478255,0.0774384,20.9459,399.354,0.412035,0.0,0.0
2142,535.25,48.2158,50.2768,146.269,115.513,111.042,-0.00476744,0.0770062,20.947,399.364,0.353581,0.0,0.0
2148,536.75,48.0213,49.6732,151.262,115.497,110.787,-0.00484894,0.0768018,20.9476,399.334,0.372917,0.0,0.0
2154,538.25,47.5074,50.0319,149.822,115.519,111.706,-0.00497686,0.0767532,20.9479,399.344,0.300649,0.0,0.0
2160,539.75,47.7709,50.0614,149.333,115.479,111.354,-0.0051252,0.0767965,20.9479,399.334,0.325809,0.0,0.0
2166,541.25,47.2126,49.9682,146.622,115.497,110.727,-0.00530688,0.0767595,20.9478,399.314,0.377779,0.0,0.0
2172,542.75,47.5898,49.1845,151.225,115.475,111.264,-0.00549811,0.0766017,20.9477,399.304,0.332774,0.0,0.0
2178,544.25,47.8008,49.5387,152.819,115.477,110.894,-0.00573731,0.0765178,20.9488,399.324,0.362715,0.0,0.0
2184,545.75,48.0263,49.4623,151.091,115.475,111.382,-0.00594943,0.0764132,20.9493,399.314,0.323249,0.0,0.0
2190,547.25,47.4275,49.2426,152.187,115.478,111.315,-0.00607584,0.0762462,20.9492,399.314,0.328899,0.0,0.0
2196,548.75,47.8719,49.0848,150.582,115.476,111.942,-0.00612581,0.0760416,20.9495,399.284,0.278364,0.0,0.0
2202,550.25,47.7883,49.3724,151.148,115.464,111.52,-0.00617028,0.0758746,20.9497,399.284,0.311297,0.0,0.0
2208,551.75,47.1846,49.148,146.541,115.466,112.109,-0.00618991,0.0757675,20.9491,399.274,0.264286,0.0,0.0
2214,553.25,47.0556,49.0886,150.791,115.459,110.983,-0.00620794,0.0755627,20.9495,399.274,0.354123,0.0,0.0
2220,554.75,46.9067,49.6141,152.507,115.459,110.736,-0.00626001,0.0754635,20.9497,399.284,0.374148,0.0,0.0
2226,556.25,47.0733,48.8519,150.24,115.448,111.615,-0.00635093,0.075227,20.9498,399.284,0.302446,0.0,0.0
2232,557.75,47.0232,48.8255,148.08,115.446,110.979,-0.00645485,0.0749662,20.9503,399.284,0.353472,0.0,0.0
2238,559.25,46.4785,48.0207,147.565,115.43,110.569,-0.0065604,0.0746906,20.9512,399.274,0.385434,0.0,0.0
2244,560.75,46.9265,48.9507,149.067,115.423,111.22,-0.00669411,0.0744672,20.9517,399.284,0.332258,0.0,0.0
2250,562.25,47.1113,48.4566,150.979,115.405,110.684,-0.00681668,0.0742527,20.952,399.274,0.374138,0.0,0.0
2256,563.75,46.6993,48.111,150.528,115.409,111.983,-0.00691739,0.0741253,20.9524,399.284,0.269923,0.0,0.0
2262,565.25,47.004,48.7916,150.156,115.404,111.514,-0.00691492,0.0741649,20.9529,399.264,0.307143,0.0,0.0
2268,566.75,46.2376,48.4893,151.074,115.402,111.797,-0.00681641,0.0742233,20.9531,399.254,0.28422,0.0,0.0
2274,568.25,47.0959,48.6571,152.028,115.411,111.402,-0.00673269,0.0742771,20.9533,399.254,0.316684,0.0,0.0
2280,569.75,46.8241,48.5734,150.772,115.376,111.385,-0.00672106,0.0742829,20.9534,399.244,0.315283,0.0,0.0
2286,571.25,46.7317,48.8642,150.44,115.371,111.581,-0.00674492,0.0742278,20.9534,399.254,0.299164,0.0,0.0
2292,572.75,46.1662,48.7803,145.93,115.391,112.052,-0.00676648,0.0741731,20.9534,399.254,0.262988,0.0,0.0
2298,574.25,46.8281,47.7874,152.758,115.37,111.114,-0.00679299,0.0742093,20.9531,399.234,0.336662,0.0,0.0
2304,575.75,46.6839,48.5474,150.91,115.388,112.383,-0.00686213,0.0741778,20.9529,399.254,0.236341,0.0,0.0
2310,577.25,46.6324,48.7665,151.232,115.368,111.787,-0.00693636,0.0741383,20.9527,399.234,0.282441,0.0,0.0
2316,578.75,46.4446,48.0627,151.91,115.377,111.791,-0.00705252,0.0741632,20.9527,399.254,0.282802,0.0,0.0
2322,580.25,46.9417,48.4971,150.947,115.366,111.138,-0.00717226,0.0742761,20.9526,399.244,0.334394,0.0,0.0
2328,581.75,46.312,48.2084,151.054,115.362,110.425,-0.007237,0.0742867,20.9526,399.244,0.391795,0.0,0.0
2334,583.25,46.3792,48.3643,150.958,115.362,109.991,-0.00725839,0.0742766,20.9526,399.234,0.427087,0.0,0.0
2340,584.75,46.1204,47.7877,152.914,115.366,111.764,-0.00724741,0.0743224,20.9526,399.234,0.284112,0.0,0.0
2346,586.25,46.5546,47.927,150.027,115.355,111.127,-0.00720308,0.0744882,20.9523,399.224,0.33445,0.0,0.0
2352,587.75,46.3178,47.7748,148.518,115.363,111.422,-0.00719894,0.0746714,20.9513,399.214,0.31136,0.0,0.0
2358,589.25,46.3539,48.3198,147.613,115.359,112.162,-0.00722176,0.0749845,20.9507,399.184,0.251746,0.0,0.0
2364,590.75,45.6507,47.2678,148.328,115.366,111.691,-0.00729622,0.0752843,20.9502,399.234,0.290005,0.0,0.0
2370,592.25,46.1765,47.8082,146.851,115.358,111.336,-0.00744387,0.0754927,20.9499,399.204,0.3178,0.0,0.0
2376,593.75,46.0925,47.7481,151.414,115.347,112.534,-0.0075853,0.075652,20.9498,399.214,0.221117,0.0,0.0
2382,595.25,46.004,47.5871,151.142,115.348,111.482,-0.00770044,0.075797,20.9498,399.204,0.305395,0.0,0.0
2388,596.75,46.1846,47.5943,151.614,115.344,110.597,-0.00777419,0.0759202,20.9501,399.174,0.376463,0.0,0.0
2394,598.25,45.7072,46.6862,148.638,115.34,111.504,-0.00776178,0.0761794,20.9503,399.174,0.302954,0.0,0.0
2400,599.75,45.9747,47.6674,152.703,115.335,111.528,-0.00764952,0.0764754,20.9493,399.174,0.30062,0.0,0.0
2406,601.25,46.1167,47.6331,152.048,115.35,111.942,-0.00753088,0.0766949,20.9488,399.184,0.268648,0.0,0.0
2412,602.75,45.4406,47.5788,149.075,115.329,111.949,-0.00743123,0.0768315,20.9485,399.194,0.266411,0.0,0.0
2418,604.25,45.7998,47.1537,148.95,115.344,111.519,-0.00735562,0.0770314,20.9484,399.174,0.302094,0.0,0.0
2424,605.75,45.8255,47.5791,152.291,115.313,111.771,-0.00731003,0.0772323,20.948,399.154,0.279462,0.0,0.0
2430,607.25,45.7261,47.7566,149.996,115.327,111.05,-0.00727577,0.0773591,20.9477,399.184,0.338482,0.0,0.0
2436,608.75,45.5309,47.3574,151.519,115.321,112.186,-0.00723033,0.0773998,20.9468,399.174,0.246865,0.0,0.0
2442,610.25,45.3911,47.274,150.923,115.323,111.512,-0.00719777,0.0773632,20.9463,399.174,0.301043,0.0,0.0
2448,611.75,45.5159,47.372,153.214,115.31,112.02,-0.00717062,0.0772519,20.946,399.184,0.259216,0.0,0.0
2454,613.25,45.5965,47.0469,149.7,115.316,111.422,-0.00715188,0.076925,20.9463,399.174,0.307741,0.0,0.0
2460,614.75,45.3769,47.5292,152.119,115.302,111.287,-0.00718399,0.0766696,20.9471,399.164,0.317468,0.0,0.0
2466,616.25,45.8733,47.3737,153.068,115.325,111.597,-0.0072855,0.0766025,20.9475,399.174,0.294321,0.0,0.0
2472,617.75,45.1817,47.5681,153.331,115.301,111.178,-0.00735057,0.0764967,20.9478,399.174,0.326147,0.0,0.0
2478,619.25,45.1331,46.9008,150.014,115.34,110.882,-0.00735751,0.0762984,20.9479,399.154,0.353057,0.0,0.0
2484,620.75,45.2672,46.9296,154.447,115.307,111.138,-0.00734511,0.0760889,20.9479,399.164,0.329863,0.0,0.0
2490,622.25,45.6012,47.2321,148.179,115.32,111.497,-0.00733359,0.0758511,20.948,399.154,0.302012,0.0,0.0
2496,623.75,45.3652,47.5368,151.449,115.326,111.78,-0.00731096,0.0757243,20.948,399.133,0.279744,0.0,0.0
2502,625.25,45.305,47.4249,152.716,115.335,112.015,-0.00729952,0.075747,20.948,399.133,0.261671,0.0,0.0
2508,626.75,44.5876,46.4666,150.772,115.326,111.112,-0.00729161,0.0757688,20.948,399.154,0.333414,0.0,0.0
2514,628.25,45.5361,46.9095,148.57,115.348,112.041,-0.00727808,0.0757383,20.948,399.123,0.260551,0.0,0.0
2520,629.75,45.4879,47.347,149.489,115.347,110.812,-0.00726622,0.0758268,20.948,399.133,0.359247,0.0,0.0
2526,631.25,45.4823,47.0365,149.666,115.353,111.924,-0.0072697,0.0758641,20.9477,399.123,0.270347,0.0,0.0
2532,632.75,45.1971,47.1336,150.53,115.378,110.603,-0.0072814,0.0758979,20.948,399.093,0.378534,0.0,0.0
2538,634.25,44.8192,47.5824,148.476,115.375,111.164,-0.00728749,0.0759871,20.9488,399.073,0.333038,0.0,0.0
2544,635.75,45.245,46.9844,148.95,115.393,111.082,-0.0072599,0.0760193,20.9492,399.083,0.341063,0.0,0.0
2550,637.25,45.0568,46.171,149.226,115.392,111.94,,0.0761193,,399.103,0.272048,0.0,0.0
2556,638.75,45.13,47.1051,144.654,115.404,111.493,,0.0762469,,399.093,0.308777,0.0,0.0
2562,640.25,45.4457,46.7422,149.159,115.403,112.119,,,,399.083,0.258616,0.0,0.0
2568,641.75,45.1787,46.9405,150.588,115.435,111.47,,,,399.083,0.313046,0.0,0.0
2574,643.25,45.0163,47.2166,149.054,115.428,111.971,,,,399.093,0.272345,0.0,0.0
2580,644.75,45.2505,46.7739,148.685,115.448,111.862,,,,399.073,0.28265,0.0,0.0
2586,646.25,44.957,47.0345,148.926,115.451,111.808,,,,399.083,0.287202,0.0,0.0
2592,647.75,45.1923,47.034,147.855,115.477,111.097,,,,399.073,0.346296,0.0,0.0