File: 01_Data/PVC/Cone/PVC_Cone_HF50Scan_220210_R2.csv
Names,Time,Stack TC,Smoke TC,Exh Press,Smoke Comp,Smoke Meas,CO Meter,CO2 Meter,O2 Meter,Sample Mass,Ext Coeff,Start Test,Flame Verif
Chan Gain,,500,500,1,1,1,1,1,1,1,1,1.0,1.0
Offset,,0,0,0.140898,0,0,0,0,0,0,0,0.0,0.0
Gain,,1,1,25.011,12.9668,12.6588,1,1,1,1.00088,1.01977,1.0,1.0
Units,sec,C,C,Pa,%,%,%,%,%,g,/m,,
Baseline,,31.4326,33.682,156.833,98.7105,100.399,0.000372068,0.0681269,20.9785,-870.109,-0.151648,,
6,1.25,31.2451,32.986,155.068,99.0047,98.5236,3.84665e-05,0.0710984,20.9772,43.9486,0.0435721,0.0,0.0
12,2.75,31.1968,32.976,155.825,98.9429,98.1438,-4.67798e-05,0.07047,20.9783,43.9586,0.072538,0.0,0.0
18,4.25,30.9259,32.7641,157.287,98.8757,98.1979,-7.45688e-05,0.0698928,20.9791,43.9386,0.0615263,0.0,0.0
24,5.75,31.3504,33.1039,151.216,98.7941,98.2389,-1.1545e-05,0.0692043,20.9806,43.9486,0.0504184,0.0,0.0
30,7.25,31.5625,33.1538,157.94,98.7178,98.7983,7.66181e-05,0.0685378,20.9814,43.8986,-0.00729159,0.0,0.0
36,8.75,32.088,33.0957,156.93,98.6327,98.6812,0.000134552,0.0679257,20.9832,43.9286,-0.00439878,0.0,0.0
42,10.25,31.6959,32.9274,157.851,98.5504,99.0513,7.17393e-05,0.0672792,20.9838,43.9186,-0.0453527,0.0,0.0
48,11.75,31.8532,33.6224,157.475,98.4673,98.8357,-9.49765e-05,0.0665997,20.9842,43.8585,-0.0334092,0.0,0.0
54,13.25,31.6739,33.5468,153.218,98.3786,97.8414,-0.000247266,0.0663025,20.9844,43.8585,0.0489878,0.0,0.0
60,14.75,31.7389,33.679,156.474,98.2777,97.9024,-0.000304623,0.0659033,20.9844,43.8685,0.0342299,0.0,0.0
66,16.25,31.5717,33.1675,153.972,98.1875,97.4716,-0.000290503,0.065681,20.9845,43.8585,0.0654577,0.0,0.0
72,17.75,31.7097,33.5705,154.816,98.0898,97.7154,-0.000240664,0.0655675,20.9845,43.8485,0.0342044,0.0,0.0
78,19.25,32.2399,33.7794,157.293,97.9885,98.1809,-0.000145771,0.0655418,20.9845,43.8385,-0.0175531,0.0,0.0
84,20.75,32.4575,34.1197,157.662,97.8959,98.1755,-5.75927e-05,0.0654356,20.9845,43.8385,-0.0255172,0.0,0.0
90,22.25,32.4986,33.6797,155.037,97.8195,98.3042,1.92473e-05,0.0652572,20.9833,43.8285,-0.0442119,0.0,0.0
96,23.75,31.5084,33.0459,156.479,97.7475,97.1719,0.000139017,0.0652719,20.9832,43.8285,0.0528325,0.0,0.0
102,25.25,31.9175,33.6641,152.476,97.6782,95.8762,0.000384569,0.0654518,20.9824,43.8485,0.166575,0.0,0.0
108,26.75,32.2803,34.4022,152.908,97.622,95.323,0.000704414,0.0658099,20.981,43.7684,0.213191,0.0,0.0
114,28.25,32.0019,34.2845,152.684,97.5587,92.5589,0.00113101,0.0664646,20.9797,43.6684,0.470612,0.0,0.0
120,29.75,32.4857,34.1011,155.523,97.5089,90.2583,0.00160488,0.0673101,20.9784,43.5182,0.691181,0.0,0.0
126,31.25,32.314,34.4478,155.439,97.4705,89.9473,0.00211135,0.0689841,20.9769,43.3881,0.718534,0.0,0.0
132,32.75,32.5418,34.4776,156.881,97.4234,89.5587,0.00276022,0.0715272,20.973,43.1679,0.752945,0.0,0.0
138,34.25,32.8914,34.9118,153.761,97.3838,89.1457,0.0034343,0.0756225,20.9682,42.9878,0.790655,0.0,0.0
144,35.75,32.7956,34.6531,153.333,97.3672,87.8856,0.00476429,0.0796382,20.9642,42.7976,0.916482,0.0,0.0
150,37.25,33.0173,35.4982,160.666,97.3379,87.0712,0.00639534,0.0828585,20.9583,42.5774,0.997067,0.0,0.0
156,38.75,33.722,35.5674,151.928,97.3221,87.2196,0.00909129,0.0885364,20.9457,42.3372,0.980384,0.0,0.0
162,40.25,33.9553,35.751,156.603,97.2948,83.057,0.0115445,0.0996727,20.9208,42.117,1.41532,0.0,0.0
168,41.75,33.8422,36.6933,146.622,97.2975,85.9934,0.0135112,0.117699,20.8887,41.8568,1.10478,0.0,0.0
174,43.25,35.3704,37.6146,147.995,97.2817,84.1565,0.0156727,0.142435,20.8437,41.5965,1.29648,0.0,0.0
180,44.75,36.0496,38.8442,141.126,97.277,83.8455,0.0179345,0.164829,20.8045,41.3763,1.32916,0.0,0.0
186,46.25,36.5503,39.7372,153.029,97.2699,83.9478,0.0216277,0.190169,20.7667,41.1361,1.31759,0.0,0.0
192,47.75,37.6934,40.42,142.582,97.2884,51.875,0.0262424,0.215267,20.7139,40.8058,5.62521,0.0,1.0
198,49.25,38.3909,41.836,143.677,97.2774,35.4307,0.0314317,0.243559,20.6466,40.3955,9.03469,0.0,1.0
204,50.75,39.4331,43.3847,140.32,97.2995,29.9376,0.035587,0.268522,20.5948,40.2053,10.5437,0.0,1.0
210,52.25,40.1012,43.6796,143.042,97.2999,28.5759,0.0383041,0.287497,20.5659,39.875,10.9601,0.0,0.0
216,53.75,40.4187,44.9086,141.336,97.3126,30.3444,0.0392179,0.297909,20.551,39.5447,10.4241,0.0,0.0
222,55.25,41.2388,45.4886,143.504,97.3213,32.5715,0.0388814,0.299566,20.5499,39.3145,9.79137,0.0,0.0
228,56.75,41.5014,46.8421,149.265,97.3371,36.8604,0.0379267,0.294762,20.5605,39.0843,8.68629,0.0,0.0
234,58.25,42.4672,47.1142,149.742,97.3652,41.1729,0.0369473,0.28463,20.5793,38.8641,7.69915,0.0,0.0
240,59.75,43.0091,47.5225,145.152,97.3696,42.4118,0.036354,0.27506,20.6002,38.5939,7.43435,0.0,0.0
246,61.25,43.4393,47.9289,145.995,97.3882,50.9707,0.0361041,0.265054,20.6203,38.3537,5.7917,0.0,0.0
252,62.75,43.7717,49.0783,144.362,97.3985,52.3135,0.0359581,0.255974,20.6393,38.1235,5.56003,0.0,0.0
258,64.25,44.2271,49.254,141.417,97.4202,56.3358,0.0356277,0.248401,20.6551,37.8532,4.89939,0.0,0.0
264,65.75,44.4357,49.3554,147.669,97.423,59.0455,0.0350202,0.2413,20.6686,37.633,4.47942,0.0,0.0
270,67.25,44.885,49.6524,147.621,97.4479,60.0982,0.0340107,0.235166,20.681,37.4129,4.32363,0.0,0.0
276,68.75,44.8603,50.1376,147.498,97.4467,60.4652,0.0328866,0.230028,20.689,37.1526,4.26906,0.0,0.0
282,70.25,44.9736,50.3849,148.202,97.476,60.8368,0.0318792,0.227399,20.692,36.9625,4.21693,0.0,0.0
288,71.75,45.3986,50.4375,145.863,97.4895,62.5741,0.0309608,0.229066,20.6889,36.7122,3.9663,0.0,0.0
294,73.25,45.1431,51.2096,146.055,97.4851,68.5098,0.0300286,0.234454,20.6821,36.5121,3.15522,0.0,0.0
300,74.75,45.9829,51.6519,145.086,97.4816,66.3704,0.0291156,0.241356,20.6757,36.3119,3.43869,0.0,0.0
306,76.25,46.4135,51.908,147.108,97.4946,68.9684,0.0282492,0.246624,20.6723,36.0717,3.09642,0.0,0.0
312,77.75,46.4429,52.4657,144.489,97.4784,70.3526,0.0276049,0.249623,20.6705,35.8915,2.91718,0.0,0.0
318,79.25,46.6004,52.5547,146.254,97.5021,70.368,0.0272066,0.251791,20.6695,35.6913,2.91739,0.0,0.0
324,80.75,46.2758,52.3534,142.752,97.4895,69.5772,0.0269767,0.253936,20.6685,35.4511,3.01732,0.0,0.0
330,82.25,46.9175,53.229,145.436,97.5045,65.48,0.0268421,0.255004,20.6689,35.2209,3.56163,0.0,0.0
336,83.75,47.168,53.2898,145.494,97.4796,66.1622,0.0268208,0.254457,20.6701,35.0508,3.46662,0.0,0.0
342,85.25,48.0998,53.1165,145.161,97.4911,70.6555,0.0269704,0.252778,20.671,34.8406,2.87991,0.0,0.0
348,86.75,47.4359,53.7143,146.892,97.4649,64.6617,0.0271771,0.252357,20.6708,34.5904,3.67048,0.0,0.0
354,88.25,47.7549,53.8684,144.339,97.4638,66.0185,0.0273048,0.253434,20.6694,34.4002,3.48462,0.0,0.0
360,89.75,48.1843,53.7832,143.075,97.4614,66.7552,0.027229,0.254723,20.6688,34.18,3.38513,0.0,0.0
366,91.25,48.1661,54.5817,146.391,97.4586,67.5672,0.027108,0.255398,20.6677,34.0099,3.27672,0.0,0.0
372,92.75,48.3098,54.3638,145.52,97.442,65.7635,0.0271243,0.255576,20.6667,33.7997,3.51723,0.0,0.0
378,94.25,48.4434,54.7975,146.879,97.4293,63.8725,0.027147,0.256349,20.6662,33.6496,3.77706,0.0,0.0
384,95.75,48.861,54.9866,144.688,97.4186,67.223,0.0270303,0.257009,20.6658,33.4193,3.31874,0.0,0.0
390,97.25,48.703,54.9647,139.899,97.3961,69.2794,0.0267068,0.257131,20.6649,33.1992,3.04713,0.0,0.0
396,98.75,48.9085,55.1297,142.868,97.3897,67.4185,0.0263676,0.257236,20.6655,33.029,3.29011,0.0,0.0
402,100.25,49.0136,55.6101,144.212,97.3719,66.6536,0.0260671,0.256811,20.6658,32.8088,3.39054,0.0,0.0
408,101.75,48.9149,55.5884,141.91,97.3743,70.8602,0.0257847,0.256778,20.6666,32.6687,2.84331,0.0,0.0
414,103.25,49.448,55.8147,146.136,97.3656,70.1784,0.0254685,0.257456,20.6681,32.4385,2.929,0.0,0.0
420,104.75,49.7,55.3101,146.678,97.3605,69.8249,0.0250213,0.257021,20.6704,32.2683,2.9737,0.0,0.0
426,106.25,48.8108,56.1697,150.67,97.3355,72.1362,0.0245993,0.256199,20.6723,32.0782,2.68009,0.0,0.0
432,107.75,48.497,55.7198,146.191,97.3304,69.9775,0.0243041,0.254891,20.6747,31.898,2.95141,0.0,0.0
438,109.25,49.3529,56.5917,141.722,97.3118,70.4526,0.0240855,0.252676,20.6787,31.7179,2.88916,0.0,0.0
444,110.75,49.7595,55.77,144.312,97.3169,71.2554,0.0238788,0.249987,20.6835,31.5377,2.78828,0.0,0.0
450,112.25,49.7711,55.7949,144.763,97.2983,71.5046,0.0235876,0.246961,20.6892,31.3776,2.75535,0.0,0.0
456,113.75,49.9764,56.0466,146.558,97.3078,71.9562,0.0233753,0.244739,20.6926,31.1574,2.6999,0.0,0.0
462,115.25,49.335,55.7503,147.237,97.2845,71.1121,0.023003,0.242808,20.6948,31.0673,2.80331,0.0,0.0
468,116.75,49.6594,56.1447,144.171,97.294,73.4532,0.0226208,0.241785,20.6967,30.8771,2.51444,0.0,0.0
474,118.25,49.297,55.309,147.658,97.273,77.2147,0.0221913,0.240146,20.7007,30.707,2.06576,0.0,0.0
480,119.75,49.388,56.0759,147.964,97.2793,75.1282,0.0217852,0.237844,20.7051,30.6069,2.31139,0.0,0.0
486,121.25,49.5818,55.8639,144.074,97.2655,75.5095,0.0214805,0.235563,20.7098,30.3967,2.26483,0.0,0.0
492,122.75,49.6999,55.8978,148.265,97.2817,73.802,0.0211491,0.233162,20.7145,30.2466,2.47093,0.0,0.0
498,124.25,49.7161,55.8579,147.938,97.2754,73.7128,0.0208112,0.231003,20.7178,30.1465,2.48117,0.0,0.0
504,125.75,49.8326,55.3966,146.673,97.2706,76.6051,0.0204592,0.22935,20.7204,29.9363,2.13644,0.0,0.0
510,127.25,49.4254,55.8128,146.244,97.2837,77.0927,0.0200477,0.227954,20.7225,29.7962,2.0809,0.0,0.0
516,128.75,49.7508,55.6525,150.741,97.2956,77.3696,0.0196064,0.226868,20.7253,29.656,2.0499,0.0,0.0
522,130.25,49.3324,55.3961,147.484,97.3007,79.2495,0.0192263,0.225213,20.7296,29.4959,1.83563,0.0,0.0
528,131.75,49.3301,55.5823,147.912,97.3146,77.0019,0.0189912,0.223137,20.7348,29.3658,2.09427,0.0,0.0
534,133.25,49.6677,55.4282,150.369,97.3292,80.7348,0.0187567,0.220794,20.7392,29.2157,1.67214,0.0,0.0
540,134.75,49.5443,55.2801,149.281,97.3415,79.8896,0.0184392,0.218655,20.7422,29.0956,1.76742,0.0,0.0
546,136.25,49.0267,55.5835,150.132,97.3735,81.6875,0.0179107,0.216511,20.7457,28.9254,1.57128,0.0,0.0
552,137.75,49.5822,54.8921,146.101,97.3767,79.956,0.0172758,0.214766,20.7491,28.8253,1.76322,0.0,0.0
558,139.25,48.7749,55.7289,149.87,97.406,80.8708,0.0166333,0.213361,20.7516,28.6652,1.66414,0.0,0.0
564,140.75,49.3162,55.0926,147.047,97.4238,80.5571,0.0160468,0.211356,20.7549,28.5551,1.70054,0.0,0.0
570,142.25,48.8322,55.2703,146.972,97.461,82.2832,0.0155694,0.209262,20.7569,28.425,1.51431,0.0,0.0
576,143.75,48.6248,54.5242,148.904,97.4938,83.1037,0.0151688,0.207198,20.7621,28.2949,1.42856,0.0,0.0
582,145.25,49.3822,54.1798,145.334,97.5437,82.4458,0.0148853,0.204377,20.7677,28.2248,1.50424,0.0,0.0
588,146.75,48.3767,54.8652,151.129,97.5591,82.4146,0.0146488,0.201177,20.7735,28.1047,1.50905,0.0,0.0
594,148.25,48.8373,54.2439,150.427,97.6189,84.0858,0.0143787,0.198143,20.7775,27.9245,1.33494,0.0,0.0
600,149.75,48.7335,54.2496,154.138,97.6569,84.3492,0.0141862,0.195379,20.7805,27.8445,1.31044,0.0,0.0
606,151.25,47.4049,54.1873,149.111,97.7146,84.7031,0.0140918,0.192888,20.7846,27.7444,1.27828,0.0,0.0
612,152.75,48.1837,54.0747,144.468,97.7506,81.3947,0.0141203,0.190946,20.7881,27.6243,1.63798,0.0,0.0
618,154.25,47.7922,53.2053,149.46,97.8282,84.2901,0.0141738,0.189085,20.7913,27.4841,1.33239,0.0,0.0
624,155.75,48.0646,53.9368,152.321,97.8765,83.8571,0.0141459,0.187423,20.7931,27.374,1.38288,0.0,0.0
630,157.25,48.3123,53.3934,145.631,97.9386,84.9113,0.0139629,0.186021,20.794,27.294,1.2768,0.0,0.0
636,158.75,48.0707,53.3428,149.02,98.0003,84.7916,0.0137434,0.184953,20.7963,27.1939,1.29506,0.0,0.0
642,160.25,48.1346,53.4108,151.723,98.066,85.0241,0.013547,0.184172,20.7987,27.0738,1.27655,0.0,0.0
648,161.75,48.4346,53.1598,151.445,98.1309,86.3361,0.0134425,0.183484,20.8013,26.9537,1.1455,0.0,0.0
654,163.25,47.7948,53.5309,149.871,98.2053,85.3498,0.0134878,0.181791,20.8041,26.8136,1.25505,0.0,0.0
660,164.75,47.7449,53.5063,147.634,98.2777,84.9457,0.013643,0.180053,20.8056,26.7135,1.3041,0.0,0.0
666,166.25,48.163,52.8743,153.817,98.3513,84.4288,0.0136411,0.178869,20.8064,26.6134,1.36539,0.0,0.0
672,167.75,47.6923,52.8993,147.379,98.4198,85.5047,0.0134058,0.178138,20.8078,26.4833,1.25835,0.0,0.0
678,169.25,47.5818,52.7712,149.499,98.4879,88.0138,0.0129933,0.177849,20.8086,26.4032,1.00581,0.0,0.0
684,170.75,47.5855,52.9344,147.356,98.5591,87.7063,0.0126154,0.177935,20.8088,26.2831,1.04358,0.0,0.0
690,172.25,47.804,52.571,148.441,98.6141,87.3355,0.0124345,0.177893,20.8087,26.213,1.08648,0.0,0.0
696,173.75,47.6821,52.6664,144.273,98.6881,86.4597,0.012464,0.17713,20.8089,26.1129,1.18334,0.0,0.0
702,175.25,47.5241,52.2314,144.754,98.7411,85.6523,0.012541,0.175228,20.8127,25.9628,1.27208,0.0,0.0
708,176.75,47.6356,52.1448,145.702,98.827,86.9685,0.0125232,0.172816,20.816,25.9027,1.14344,0.0,0.0
714,178.25,47.122,52.1169,150.042,98.8618,87.5321,0.0123531,0.170805,20.8182,25.8027,1.0888,0.0,0.0
720,179.75,46.9536,51.6953,152.461,98.9366,90.4411,0.0121152,0.169983,20.8189,25.6826,0.80312,0.0,0.0
726,181.25,47.2116,51.9464,151.633,98.9789,89.7905,0.0117793,0.170295,20.8187,25.6125,0.871526,0.0,0.0
732,182.75,46.6857,51.2998,152.396,99.0288,88.652,0.0114188,0.171148,20.8185,25.5324,0.990175,0.0,0.0
738,184.25,47.269,52.2442,149.037,99.0581,90.8826,0.0111028,0.171365,20.8185,25.4524,0.770529,0.0,0.0
744,185.75,46.9124,51.6895,148.089,99.0981,90.178,0.0108425,0.170744,20.8206,25.3423,0.843765,0.0,0.0
750,187.25,47.1323,51.4923,147.25,99.1182,91.6553,0.0106665,0.169151,20.824,25.2722,0.700232,0.0,0.0
756,188.75,46.76,51.5524,154.446,99.1451,90.6848,0.010554,0.166796,20.828,25.1421,0.797877,0.0,0.0
762,190.25,46.4518,51.229,152.856,99.1451,91.1021,0.0105006,0.16445,20.8306,25.092,0.756816,0.0,0.0
768,191.75,46.5141,51.2481,150.546,99.1629,88.394,0.0105892,0.162647,20.8323,25.022,1.02836,0.0,0.0
774,193.25,46.5123,51.3541,157.64,99.1447,87.8454,0.010833,0.161005,20.8348,24.8618,1.08241,0.0,0.0
780,194.75,46.3067,51.1684,151.722,99.1463,87.2273,0.0112298,0.158335,20.8388,24.7918,1.14571,0.0,0.0
786,196.25,46.6096,50.7024,149.041,99.1131,85.4529,0.0116509,0.15552,20.8421,24.7117,1.32656,0.0,0.0
792,197.75,46.5293,50.6843,148.432,99.0866,87.7608,0.0119984,0.153196,20.8449,24.6016,1.08578,0.0,0.0
798,199.25,46.3921,50.7868,154.047,99.0438,86.3828,0.0120457,0.1515,20.8463,24.5315,1.22349,0.0,0.0
804,200.75,46.5902,50.6505,151.783,99.0237,86.1205,0.0119195,0.15043,20.8471,24.4415,1.24887,0.0,0.0
810,202.25,47.0131,50.1047,150.048,98.937,87.2655,0.0116861,0.150086,20.8475,24.3814,1.12289,0.0,0.0
816,203.75,46.0847,50.6888,151.109,98.9002,87.8276,0.0114772,0.150296,20.8477,24.2413,1.06213,0.0,0.0
822,205.25,46.4322,50.5802,149.445,98.8365,88.7984,0.011276,0.150832,20.8478,24.1512,0.958025,0.0,0.0
828,206.75,46.2162,50.0397,153.831,98.7839,88.8664,0.0112235,0.151068,20.8479,24.0511,0.946413,0.0,0.0
834,208.25,46.0239,49.9262,151.513,98.7138,87.3822,0.0112941,0.15055,20.8479,24.0011,1.09073,0.0,0.0
840,209.75,46.0931,50.4001,154.708,98.6584,87.6947,0.011433,0.150136,20.8479,23.891,1.05377,0.0,0.0
846,211.25,45.9659,50.3797,148.623,98.5927,86.0765,0.0115088,0.150036,20.8479,23.8009,1.21443,0.0,0.0
852,212.75,45.6888,50.0725,154.035,98.5207,87.8864,0.0115017,0.149738,20.8476,23.7308,1.02176,0.0,0.0
858,214.25,46.0815,49.9438,151.675,98.4768,86.6598,0.0113819,0.149294,20.8481,23.6107,1.14349,0.0,0.0
864,215.75,45.4772,49.9693,145.715,98.419,87.981,0.011186,0.148981,20.8491,23.5407,1.00289,0.0,0.0
870,217.25,45.6706,49.9922,151.44,98.3842,89.9613,0.0109834,0.148433,20.8511,23.4406,0.800616,0.0,0.0
876,218.75,45.7763,49.8626,153.555,98.3434,88.1317,0.0108629,0.147507,20.8524,23.3405,0.980712,0.0,0.0
882,220.25,45.8743,49.4859,149.668,98.4613,88.5373,0.0108253,0.147034,20.8535,23.2404,0.950355,0.0,0.0
888,221.75,45.3519,50.0099,153.089,98.5492,89.2222,0.0108504,0.147074,20.8535,23.1804,0.889396,0.0,0.0
894,223.25,45.2768,49.459,148.774,98.6564,89.0233,0.0108616,0.147321,20.8537,23.1103,0.919093,0.0,0.0
900,224.75,45.7785,49.7022,149.541,98.7055,89.6908,0.0108184,0.147537,20.8538,23.0102,0.856714,0.0,0.0
906,226.25,45.5953,49.3997,153.2,98.7787,88.7366,0.0107761,0.147272,20.8548,22.9401,0.959023,0.0,0.0
912,227.75,45.7094,49.7073,150.644,98.8139,90.0864,0.0108195,0.14657,20.8566,22.81,0.827167,0.0,0.0
918,229.25,45.3628,49.4754,151.741,98.8547,90.3333,0.0108844,0.145329,20.8583,22.73,0.806377,0.0,0.0
924,230.75,45.583,49.2869,151.985,98.8432,90.2151,0.0108558,0.143928,20.8603,22.6799,0.817052,0.0,0.0
930,232.25,45.3521,49.0537,146.632,98.8503,88.8919,0.0107371,0.142817,20.8626,22.6199,0.949865,0.0,0.0
936,233.75,45.4785,49.1339,147.1,98.812,91.323,0.0106318,0.14213,20.8639,22.5298,0.705032,0.0,0.0
942,235.25,45.634,49.2107,150.503,98.7787,91.1364,0.0105595,0.141404,20.8655,22.4497,0.720318,0.0,0.0
948,236.75,45.244,49.1218,145.944,98.7249,91.1349,0.0104517,0.140785,20.8671,22.3797,0.715595,0.0,0.0
954,238.25,44.9417,49.4798,154.285,98.643,91.0615,0.0102307,0.139982,20.8687,22.3096,0.715377,0.0,0.0
960,239.75,45.2499,49.0583,148.685,98.5504,90.6825,0.0100043,0.139006,20.8703,22.1995,0.744283,0.0,0.0
966,241.25,45.4338,48.9325,151.867,98.4333,91.3984,0.00976909,0.137989,20.8712,22.1194,0.663306,0.0,0.0
972,242.75,45.6458,48.4993,152.695,98.305,91.1221,0.00965686,0.136783,20.8727,22.0293,0.678723,0.0,0.0
978,244.25,44.5707,48.4595,149.426,98.1693,91.3037,0.00964141,0.135823,20.8743,21.9493,0.648557,0.0,0.0
984,245.75,44.982,49.0232,150.925,98.0126,91.5958,0.00960806,0.135055,20.8757,21.8992,0.605698,0.0,0.0
990,247.25,45.1141,48.8341,148.836,97.9695,92.9374,0.00947405,0.134374,20.8765,21.8292,0.471682,0.0,0.0
996,248.75,44.0452,48.4725,149.285,98.0098,91.2118,0.00927007,0.133873,20.8775,21.7191,0.643026,0.0,0.0
1002,250.25,45.0037,48.7965,152.158,98.0399,90.4681,0.00918659,0.133356,20.8785,21.619,0.719001,0.0,0.0
1008,251.75,44.6333,48.6888,149.288,98.0878,90.7976,0.00924885,0.132499,20.8795,21.599,0.690845,0.0,0.0
1014,253.25,44.6289,48.3901,152.364,98.1297,92.436,0.00935828,0.131556,20.8806,21.4989,0.534698,0.0,0.0
1020,254.75,44.2585,48.7071,152.327,98.1824,92.2741,0.00947116,0.130973,20.8809,21.4388,0.555172,0.0,0.0
1026,256.25,44.9786,48.1515,149.406,98.218,92.1042,0.00948145,0.130702,20.8799,21.3588,0.574909,0.0,0.0
1032,257.75,44.7552,48.1241,150.634,98.2781,92.4708,0.00934595,0.130591,20.8796,21.2787,0.544851,0.0,0.0
1038,259.25,45.042,47.802,150.992,98.3157,92.735,0.00921418,0.130499,20.8802,21.1986,0.522745,0.0,0.0
1044,260.75,44.9542,48.0311,149.331,98.3838,94.2274,0.00911657,0.130457,20.8806,21.1185,0.38613,0.0,0.0
1050,262.25,44.7437,47.966,151.169,98.4238,92.9873,0.00905797,0.130376,20.8808,21.0585,0.508269,0.0,0.0
1056,263.75,44.9808,48.1227,152.265,98.4697,93.4489,0.00899673,0.130879,20.88,20.9584,0.46814,0.0,0.0
1062,265.25,44.5355,48.0706,149.049,98.4997,93.3357,0.00892528,0.132268,20.8779,20.8783,0.481713,0.0,0.0
1068,266.75,44.8112,48.0867,149.927,98.5282,93.4968,0.00880524,0.134143,20.875,20.7983,0.468874,0.0,0.0
1074,268.25,44.4687,48.1875,146.12,98.5211,93.024,0.0087448,0.136049,20.8722,20.7082,0.513583,0.0,0.0
1080,269.75,44.7541,47.9542,147.55,98.5405,93.5807,0.00877948,0.138116,20.8703,20.6381,0.461971,0.0,0.0
1086,271.25,44.65,48.1981,151.587,98.5001,93.3775,0.00886075,0.13911,20.8697,20.5581,0.477751,0.0,0.0
1092,272.75,44.7811,48.1085,156.351,98.4914,92.9421,0.0088903,0.138612,20.87,20.498,0.518765,0.0,0.0
1098,274.25,44.1637,48.3005,152.102,98.4511,90.832,0.00888458,0.13797,20.8701,20.4279,0.720526,0.0,0.0
1104,275.75,44.5386,48.2158,149.942,98.4075,91.8925,0.00898223,0.137749,20.87,20.3779,0.612741,0.0,0.0
1110,277.25,44.0378,48.2905,148.34,98.3604,90.5411,0.00912587,0.138012,20.8685,20.3178,0.740983,0.0,0.0
1116,278.75,44.3972,48.3663,149.068,98.3114,91.5954,0.00932387,0.138357,20.867,20.2178,0.632961,0.0,0.0
1122,280.25,44.0465,47.2384,145.041,98.2485,91.0592,0.0095434,0.138799,20.8656,20.1277,0.679756,0.0,0.0
1128,281.75,44.1408,48.1815,148.895,98.1646,90.1691,0.00984777,0.139328,20.8646,20.0176,0.759982,0.0,0.0
1134,283.25,44.8156,47.6632,152.962,98.0894,88.6007,0.0102585,0.13983,20.8641,19.9675,0.910097,0.0,0.0
1140,284.75,43.8934,47.5755,155.355,97.9972,86.8437,0.0105865,0.140232,20.8629,19.8775,1.08086,0.0,0.0
1146,286.25,44.1581,48.2092,149.216,97.9283,86.5547,0.0109626,0.140747,20.861,19.7874,1.10438,0.0,0.0
1152,287.75,44.2789,48.2423,150.721,97.8337,86.999,0.0113043,0.141534,20.8592,19.7173,1.04994,0.0,0.0
1158,289.25,45.2186,47.9221,146.921,97.7589,86.6536,0.0114863,0.142851,20.8581,19.6272,1.07868,0.0,0.0
1164,290.75,44.9393,48.0887,150.866,97.6735,86.3337,0.0116369,0.144019,20.8559,19.5372,1.10394,0.0,0.0
1170,292.25,44.374,47.5236,148.604,97.6193,87.1095,0.011704,0.144932,20.854,19.4471,1.01896,0.0,0.0
1176,293.75,44.8855,48.0084,150.517,97.5271,84.5795,0.0117654,0.145959,20.8524,19.377,1.27416,0.0,0.0
1182,295.25,45.03125,48.5636,148.054,97.4776,85.0075,0.0118449,0.146577,20.8515,19.2569,1.22446,0.0,0.0
1188,296.75,45.1607,48.2726,143.626,97.4115,84.5026,0.0119306,0.146938,20.8498,19.1869,1.27169,0.0,0.0
1194,298.25,44.8382,48.334,150.081,97.3791,86.4037,0.0119716,0.147168,20.8486,19.0367,1.06969,0.0,0.0
1200,299.75,44.7175,48.6353,150.215,97.3169,84.8642,0.0120099,0.147345,20.8471,18.9566,1.2248,0.0,0.0
1206,301.25,44.9691,48.3448,148.574,97.3063,84.5714,0.012092,0.147523,20.8462,18.8866,1.25474,0.0,0.0
1212,302.75,44.6975,48.673,148.933,97.2659,85.8296,0.0122688,0.147957,20.8452,18.7665,1.11892,0.0,0.0
1218,304.25,44.8808,48.8913,146.299,97.2671,84.5069,0.0125834,0.14899,20.8435,18.6964,1.25797,0.0,0.0
1224,305.75,45.3932,48.3122,149.084,97.2501,84.4945,0.0128608,0.15057,20.8401,18.6164,1.25771,0.0,0.0
1230,307.25,45.2923,48.6036,147.97,97.2722,84.9496,0.0130042,0.152147,20.8386,18.4962,1.2117,0.0,0.0
1236,308.75,45.1342,48.8025,154.651,97.2687,85.0813,0.0130046,0.153383,20.8368,18.3761,1.19751,0.0,0.0
1242,310.25,44.9441,49.1022,152.425,97.3066,84.5617,0.0129307,0.154303,20.8358,18.3061,1.2558,0.0,0.0
1248,311.75,45.0862,48.688,151.967,97.3332,87.2679,0.0128617,0.155173,20.8351,18.216,0.97645,0.0,0.0
1254,313.25,45.7323,48.7838,151.553,97.3783,84.4269,0.0127941,0.156042,20.8342,18.1259,1.27665,0.0,0.0
1260,314.75,45.2006,49.2501,145.31,97.4341,83.3437,0.0127329,0.156696,20.8338,18.0559,1.39729,0.0,0.0
1266,316.25,45.6904,49.3526,146.714,97.4918,85.5943,0.0126606,0.157545,20.8326,17.9358,1.16423,0.0,0.0
1272,317.75,44.9966,48.8991,148.452,97.5579,84.3508,0.0126684,0.158165,20.8313,17.8357,1.30121,0.0,0.0
1278,319.25,44.7195,49.174,151.841,97.6371,85.0438,0.0127292,0.158664,20.8297,17.7356,1.23527,0.0,0.0
1284,320.75,45.6602,49.2901,151.327,97.717,84.1078,0.0127362,0.159282,20.8289,17.6055,1.34159,0.0,0.0
1290,322.25,45.2437,49.7182,150.432,97.793,84.1769,0.0127323,0.159852,20.8285,17.5254,1.34119,0.0,0.0
1296,323.75,45.4652,49.0826,150.774,97.8848,85.6449,0.0127854,0.159963,20.8282,17.4553,1.19493,0.0,0.0
1302,325.25,45.78,49.7657,147.388,97.9671,84.9229,0.0128992,0.159836,20.8281,17.3352,1.27818,0.0,0.0
1308,326.75,45.8011,49.7927,148.41,98.0696,84.8093,0.0130177,0.159736,20.828,17.2351,1.2995,0.0,0.0
1314,328.25,45.9952,49.9345,147.647,98.1491,86.2391,0.013104,0.15991,20.828,17.125,1.15721,0.0,0.0
1320,329.75,46.0946,50.0913,146.206,98.2536,86.2658,0.0131634,0.160359,20.8279,17.045,1.16396,0.0,0.0
1326,331.25,45.8744,50.4081,149.378,98.3462,86.5358,0.0132653,0.160891,20.827,16.9048,1.14443,0.0,0.0
1332,332.75,46.0942,50.1308,152.579,98.4463,86.4562,0.013386,0.160973,20.8264,16.8348,1.16176,0.0,0.0
1338,334.25,45.7827,50.3669,150.219,98.5144,85.665,0.0134633,0.160454,20.8266,16.7147,1.25018,0.0,0.0
1344,335.75,46.4833,50.1775,147.187,98.6038,87.2682,0.0134205,0.158851,20.829,16.6346,1.09243,0.0,0.0
1350,337.25,46.2396,50.292,149.775,98.6841,89.0407,0.0132951,0.15716,20.8338,16.5045,0.919858,0.0,0.0
1356,338.75,46.4446,50.204,152.109,98.7771,88.7753,0.0131211,0.154827,20.8374,16.4244,0.954986,0.0,0.0
1362,340.25,46.3756,49.9549,153.364,98.8432,88.5933,0.0130055,0.152782,20.8404,16.3343,0.979321,0.0,0.0
1368,341.75,46.3667,50.0125,150.148,98.9358,89.3281,0.0129744,0.151176,20.8429,16.2543,0.913813,0.0,0.0
1374,343.25,46.1231,50.04,150.496,98.9694,88.4875,0.0129314,0.149849,20.8449,16.1642,1.00143,0.0,0.0
1380,344.75,46.4296,49.7132,148.448,99.0288,90.766,0.0127215,0.148696,20.8473,16.0741,0.779375,0.0,0.0
1386,346.25,46.3982,49.9789,150.345,99.0688,91.2122,0.0123792,0.148041,20.8488,15.984,0.739118,0.0,0.0
1392,347.75,45.7479,50.3471,147.932,99.1147,92.2587,0.0120578,0.147334,20.8504,15.914,0.641211,0.0,0.0
1398,349.25,46.1584,49.8948,148.919,99.1281,91.6359,0.0116641,0.14648,20.8526,15.8239,0.703012,0.0,0.0
1404,350.75,46.5137,49.8769,149.76,99.1499,93.0421,0.0113194,0.145945,20.8537,15.7238,0.568747,0.0,0.0
1410,352.25,46.0431,49.9809,147.784,99.161,91.8345,0.0110755,0.145738,20.8548,15.6638,0.686611,0.0,0.0
1416,353.75,46.1084,49.8657,149.862,99.1594,91.9226,0.0110077,0.14553,20.856,15.5737,0.677892,0.0,0.0
1422,355.25,45.8499,49.2696,150.591,99.1451,93.194,0.0110504,0.145067,20.8575,15.4736,0.553734,0.0,0.0
1428,356.75,45.8732,49.7227,149.329,99.1147,91.6413,0.0110982,0.143866,20.8595,15.4035,0.701269,0.0,0.0
1434,358.25,46.1004,49.8355,149.216,99.089,91.9944,0.0111169,0.142559,20.8621,15.3335,0.664547,0.0,0.0
1440,359.75,46.3011,49.7357,155.923,99.0383,90.6644,0.0111065,0.141414,20.864,15.2434,0.790251,0.0,0.0
1446,361.25,45.6778,49.624,146.457,98.9912,91.6645,0.0111325,0.140061,20.8649,15.1733,0.687857,0.0,0.0
1452,362.75,45.8622,49.4915,149.794,98.9228,91.6742,0.0111814,0.139595,20.8647,15.1233,0.680726,0.0,0.0
1458,364.25,45.6099,49.6981,148.894,98.8673,91.184,0.0112251,0.14033,20.8628,15.0432,0.723679,0.0,0.0
1464,365.75,45.5093,49.7072,150.449,98.7882,90.414,0.0113623,0.141907,20.86,14.9431,0.792367,0.0,0.0
1470,367.25,45.6255,49.3027,148.452,98.7316,88.8815,0.0116111,0.143438,20.856,14.8631,0.940166,0.0,0.0
1476,368.75,45.82,49.4967,145.686,98.6386,86.7344,0.0119766,0.145304,20.8504,14.773,1.15049,0.0,0.0
1482,370.25,45.9474,49.6844,148.104,98.5852,87.4135,0.0123915,0.147858,20.8452,14.6829,1.07587,0.0,0.0
1488,371.75,46.1518,49.2615,148.988,98.4974,84.4771,0.0127779,0.150833,20.8401,14.6028,1.37355,0.0,0.0
1494,373.25,45.5516,50.0376,144.806,98.4499,84.1646,0.0131995,0.153923,20.8341,14.5127,1.40239,0.0,0.0
1500,374.75,45.8923,50.0167,144.516,98.3885,81.7397,0.0135504,0.157264,20.8279,14.4127,1.65833,0.0,0.0
1506,376.25,46.3489,49.9696,148.799,98.362,80.7403,0.0139852,0.161404,20.8168,14.3126,1.76597,0.0,0.0
1512,377.75,46.5862,49.6772,148.536,98.4384,78.9551,0.0145174,0.166417,20.8065,14.2225,1.97291,0.0,0.0
1518,379.25,46.8117,50.0323,149.039,98.5828,75.3372,0.0152775,0.172172,20.7981,14.1224,2.4056,0.0,0.0
1524,380.75,46.7314,50.4823,144.761,98.6758,71.634,0.0161628,0.179182,20.7875,14.0023,2.86492,0.0,0.0
1530,382.25,47.0536,50.7582,150.148,98.774,68.7347,0.017142,0.185424,20.776,13.8522,3.2434,0.0,0.0
1536,383.75,47.0909,51.2385,141.729,98.8246,72.8907,0.0178617,0.191983,20.7623,13.7221,2.72283,0.0,0.0
1542,385.25,47.0292,50.7949,144.586,98.8673,72.606,0.0183087,0.197306,20.755,13.662,2.76171,0.0,0.0
1548,386.75,47.5184,51.9291,147.203,98.8713,72.6724,0.0184582,0.200221,20.7512,13.5219,2.75389,0.0,0.0
1554,388.25,47.8024,52.14,144.503,98.8729,75.258,0.018427,0.20146,20.7491,13.4018,2.44129,0.0,0.0
1560,389.75,47.6633,51.5101,146.452,98.8313,77.1375,0.0183843,0.201949,20.7482,13.3017,2.21688,0.0,0.0
1566,391.25,47.9982,52.7661,144.987,98.7803,73.7684,0.018303,0.202741,20.7483,13.1616,2.61175,0.0,0.0
1572,392.75,48.2811,51.5715,142.537,98.7075,75.2352,0.0180254,0.203457,20.7487,13.1015,2.42902,0.0,0.0
1578,394.25,48.667,52.8768,147.363,98.6066,77.2619,0.0174899,0.203283,20.7508,12.9914,2.1821,0.0,0.0
1584,395.75,48.3733,53.1356,145.74,98.4954,78.3258,0.0168983,0.201759,20.7547,12.9013,2.04967,0.0,0.0
1590,397.25,48.1983,53.2473,150.68,98.3434,80.3045,0.0164401,0.199185,20.7621,12.8012,1.81268,0.0,0.0
1596,398.75,48.3833,53.3639,145.799,98.1851,80.4698,0.0161835,0.195901,20.769,12.7112,1.77988,0.0,0.0
1602,400.25,48.5182,53.3745,152.85,98.0134,80.9029,0.0160617,0.192095,20.7751,12.6211,1.7162,0.0,0.0
1608,401.75,48.9077,52.8056,147.231,98.0174,79.137,0.0160035,0.18881,20.7798,12.501,1.91398,0.0,0.0
1614,403.25,48.8739,53.0684,147.66,98.028,78.9667,0.0159427,0.186484,20.7828,12.3909,1.93423,0.0,0.0
1620,404.75,48.8197,52.9229,151.097,98.0728,81.448,0.0157934,0.184737,20.7853,12.2908,1.66155,0.0,0.0
1626,406.25,48.5749,53.3484,147.263,98.1119,82.2979,0.015629,0.183784,20.7878,12.2207,1.57226,0.0,0.0
1632,407.75,48.6367,52.8923,152.076,98.1626,81.8069,0.0154961,0.183444,20.7891,12.1006,1.63041,0.0,0.0
1638,409.25,48.6738,53.4338,150.717,98.1863,81.3842,0.0154137,0.18458,20.7858,12.0406,1.67891,0.0,0.0
1644,410.75,48.6063,53.3222,143.214,98.2492,80.3022,0.0154802,0.18725,20.7803,11.8904,1.80437,0.0,0.0
1650,412.25,49.1677,53.388,145.299,98.2734,78.4583,0.0157222,0.190802,20.7729,11.8404,2.01437,0.0,0.0
1656,413.75,49.2881,53.6202,144.79,98.3296,78.2118,0.0161283,0.194501,20.767,11.7103,2.04762,0.0,0.0
1662,415.25,49.0866,53.6935,145.657,98.3743,76.886,0.0165603,0.197333,20.761,11.5902,2.20463,0.0,0.0
1668,416.75,49.3595,53.8035,145.229,98.436,76.5398,0.0168829,0.199338,20.7574,11.5001,2.25061,0.0,0.0
1674,418.25,49.1414,53.9103,148.254,98.457,74.7539,0.0170084,0.200579,20.756,11.4,2.46371,0.0,0.0
1680,419.75,48.9767,54.156,149.634,98.4989,76.9397,0.0170037,0.200956,20.7558,11.2699,2.20971,0.0,0.0
1686,421.25,48.7717,53.4047,147.156,98.516,74.6507,0.0169417,0.200757,20.7558,11.1998,2.48142,0.0,0.0
1692,422.75,49.567,54.1889,139.792,98.5227,74.5526,0.0169059,0.200386,20.7558,11.0997,2.4938,0.0,0.0
1698,424.25,49.3448,54.3992,143.707,98.5187,74.3394,0.0169081,0.199586,20.7566,11.0097,2.51906,0.0,0.0
1704,425.75,49.0383,53.9302,149.313,98.497,74.9046,0.0168925,0.198725,20.758,10.8796,2.44933,0.0,0.0
1710,427.25,49.561,54.0988,145.857,98.476,77.8205,0.0167704,0.197993,20.7609,10.7995,2.10581,0.0,0.0
1716,428.75,49.5768,54.3296,148.785,98.44,76.8531,0.0164111,0.197373,20.7626,10.6994,2.21443,0.0,0.0
1722,430.25,49.8569,54.4911,150.42,98.3921,79.2912,0.0160608,0.196281,20.7654,10.6193,1.9307,0.0,0.0
1728,431.75,49.5731,54.2713,148.881,98.3343,80.8129,0.0158103,0.194543,20.7702,10.5092,1.7554,0.0,0.0
1734,433.25,49.6588,53.9514,149.598,98.2611,78.4849,0.0154985,0.192117,20.7755,10.4692,2.01021,0.0,0.0
1740,434.75,49.6,54.4501,151.468,98.1832,78.444,0.0151876,0.189702,20.7802,10.3991,2.00778,0.0,0.0
1746,436.25,49.8673,54.307,148.467,98.1024,80.0352,0.0148457,0.18662,20.7842,10.299,1.82078,0.0,0.0
1752,437.75,49.7848,54.1554,154.47,98.0051,78.8508,0.0146064,0.183482,20.7891,10.1889,1.94527,0.0,0.0
1758,439.25,49.6915,54.593,150.726,97.9196,80.2663,0.0144225,0.179799,20.7959,10.0889,1.77831,0.0,0.0
1764,440.75,49.768,53.5621,146.373,97.8235,82.3226,0.0141986,0.176014,20.8037,10.0889,1.54324,0.0,0.0
1770,442.25,49.3774,53.9496,150.097,97.7443,80.629,0.01384,0.171742,20.8107,10.0188,1.72195,0.0,0.0
1776,443.75,49.7251,53.742,145.627,97.6276,83.0219,0.0134836,0.168071,20.8164,9.89869,1.44965,0.0,0.0
1782,445.25,49.2989,53.7165,147.271,97.5512,82.4648,0.0131903,0.164503,20.8229,9.85866,1.50287,0.0,0.0
1788,446.75,49.2152,53.602,149.354,97.4586,82.7155,0.0129885,0.161091,20.8276,9.7886,1.46722,0.0,0.0
1794,448.25,49.4408,53.2903,147.761,97.4099,82.595,0.012869,0.15841,20.8303,9.73855,1.4758,0.0,0.0
1800,449.75,48.9327,53.3793,149.53,97.3292,82.0128,0.0127818,0.155777,20.8336,9.68851,1.53166,0.0,0.0
1806,451.25,48.3791,53.5191,153.183,97.313,82.571,0.0126615,0.153648,20.8371,9.60844,1.46948,0.0,0.0
1812,452.75,48.7669,52.7374,148.601,97.2445,83.8026,0.0125099,0.151139,20.8425,9.53838,1.33075,0.0,0.0
1818,454.25,48.7175,52.5701,144.809,97.2334,83.5669,0.0124014,0.148584,20.8471,9.50835,1.35492,0.0,0.0
1824,455.75,48.409,52.5974,150.649,97.2141,82.7391,0.0124108,0.146179,20.8501,9.4483,1.4422,0.0,0.0
1830,457.25,48.1115,52.3804,150.538,97.2378,82.8136,0.012559,0.144161,20.8524,9.40826,1.43633,0.0,0.0
1836,458.75,48.4768,52.3227,149.291,97.2457,83.8007,0.0127242,0.142236,20.8551,9.32819,1.33107,0.0,0.0
1842,460.25,47.8245,51.4569,147.414,97.2825,82.819,0.0127757,0.140592,20.8581,9.27815,1.43985,0.0,0.0
1848,461.75,48.153,51.8433,147.421,97.3161,86.1464,0.0126741,0.139002,20.8605,9.22811,1.09059,0.0,0.0
1854,463.25,47.8384,52.0033,149.591,97.4004,85.5449,0.0124475,0.137453,20.8624,9.15804,1.16101,0.0,0.0
1860,464.75,47.3548,51.2467,151.028,97.461,83.7578,0.0122402,0.136038,20.8639,9.11801,1.35542,0.0,0.0
1866,466.25,47.6598,51.5447,149.781,97.5342,86.1985,0.0121377,0.134616,20.8663,9.05796,1.10519,0.0,0.0
1872,467.75,47.3758,51.3839,150.032,97.6315,84.2519,0.0121266,0.133083,20.869,9.00791,1.31845,0.0,0.0
1878,469.25,47.3683,51.375,148.112,97.7376,85.4108,0.0121167,0.131611,20.871,8.97789,1.20595,0.0,0.0
1884,470.75,47.1386,51.1384,150.393,97.8239,87.4633,0.0120168,0.130123,20.8738,8.91783,1.00142,0.0,0.0
1890,472.25,47.3981,50.6072,152.276,97.9283,86.423,0.0118584,0.128791,20.8752,8.8778,1.11801,0.0,0.0
1896,473.75,47.2893,50.8516,149.324,98.047,88.2904,0.0116638,0.127941,20.8764,8.85778,0.93761,0.0,0.0
1902,475.25,46.6076,50.4892,152.562,98.1392,87.3007,0.0115058,0.127457,20.8779,8.79773,1.04686,0.0,0.0
1908,476.75,46.8921,50.25,153.897,98.2583,87.9648,0.0112946,0.126939,20.8789,8.75769,0.989925,0.0,0.0
1914,478.25,46.5366,50.5071,147.614,98.3529,89.5765,0.0110843,0.126414,20.88,8.71766,0.836116,0.0,0.0
1920,479.75,46.1726,50.4174,151.325,98.4633,88.6262,0.0108757,0.125885,20.8813,8.69764,0.941561,0.0,0.0
1926,481.25,46.7195,49.7127,152.585,98.5361,88.3488,0.0106825,0.125349,20.8835,8.62758,0.976214,0.0,0.0
1932,482.75,46.2765,49.9818,148.269,98.6374,89.8349,0.0105031,0.124668,20.885,8.58754,0.836183,0.0,0.0
1938,484.25,46.2969,50.1351,151.292,98.711,89.7515,0.0103367,0.123956,20.8859,8.55752,0.851168,0.0,0.0
1944,485.75,46.5612,49.3612,151.744,98.8013,88.9,0.0101271,0.123326,20.8866,8.5375,0.944607,0.0,0.0
1950,487.25,46.0969,49.9075,147.106,98.8642,89.2454,0.00989016,0.122924,20.8877,8.49746,0.915617,0.0,0.0
1956,488.75,46.0018,49.5422,149.01,98.9374,90.7853,0.00967309,0.122514,20.8893,8.45743,0.769212,0.0,0.0
1962,490.25,46.1602,49.0053,152.143,98.9789,90.4075,0.00950497,0.121904,20.8903,8.4274,0.810272,0.0,0.0
1968,491.75,45.2245,49.6525,156.774,99.0466,88.9089,0.00939217,0.121599,20.8908,8.38737,0.965898,0.0,0.0
1974,493.25,45.4689,48.6827,149.995,99.0711,89.6623,0.00930899,0.12143,20.8911,8.34733,0.892641,0.0,0.0
1980,494.75,45.9841,48.8236,151.731,99.1068,91.4965,0.00926006,0.120991,20.8918,8.33732,0.714707,0.0,0.0
1986,496.25,45.9457,48.8341,149.842,99.123,91.0723,0.00916373,0.120263,20.893,8.29729,0.757736,0.0,0.0
1992,497.75,45.8293,48.7875,148.382,99.1538,91.4192,0.00902999,0.119545,20.8949,8.27727,0.726513,0.0,0.0
1998,499.25,45.0963,48.222,151.761,99.1527,91.573,0.00888736,0.118964,20.8959,8.22723,0.711373,0.0,0.0
2004,500.75,45.652,48.646,151.374,99.1602,90.3688,0.00871139,0.118479,20.8966,8.21722,0.830459,0.0,0.0
2010,502.25,45.2344,48.5652,146.061,99.1546,92.1003,0.00853781,0.118055,20.8979,8.16717,0.660188,0.0,0.0
2016,503.75,44.8672,48.1475,149.294,99.1317,92.1061,0.00842686,0.117533,20.8988,8.12714,0.657554,0.0,0.0
2022,505.25,45.4048,48.2203,145.499,99.1131,91.1279,0.00840104,0.117306,20.8992,8.12714,0.751382,0.0,0.0
2028,506.75,45.2561,48.0808,154.611,99.0822,92.6701,0.00842058,0.11742,20.8985,8.06709,0.598479,0.0,0.0
2034,508.25,44.8915,48.3562,146.968,99.0597,90.7629,0.00840531,0.117874,20.8977,8.05708,0.782468,0.0,0.0
2040,509.75,45.32,47.8234,150.635,99.0138,91.0333,0.00836063,0.118218,20.8972,8.01704,0.751709,0.0,0.0
2046,511.25,45.2522,47.4108,154.159,98.9726,92.4932,0.00834787,0.118376,20.8969,7.967,0.605673,0.0,0.0
2052,512.75,44.9388,48.1089,147.699,98.9295,90.8564,0.00831828,0.118517,20.8967,7.95699,0.761494,0.0,0.0
2058,514.25,44.445,47.8811,149.227,98.8903,92.9703,0.00823736,0.118578,20.8967,7.95699,0.552207,0.0,0.0
2064,515.75,45.2315,47.5381,148.156,98.823,91.6993,0.00815441,0.11863,20.8966,7.91695,0.669253,0.0,0.0
2070,517.25,44.5338,47.6737,154.356,98.7898,91.3597,0.00812253,0.118979,20.8966,7.87692,0.699432,0.0,0.0
2076,518.75,44.4148,46.7532,156.149,98.7296,91.7256,0.00814067,0.119626,20.8966,7.87692,0.658233,0.0,0.0
2082,520.25,44.7003,47.3706,149.66,98.6731,93.4277,0.00811611,0.120424,20.8961,7.8569,0.488633,0.0,0.0
2088,521.75,44.4253,47.4706,152.815,98.6113,90.0169,0.0080325,0.121217,20.8943,7.82687,0.815714,0.0,0.0
2094,523.25,44.7347,47.5013,150.889,98.5619,92.8219,0.00792548,0.122144,20.893,7.81687,0.536733,0.0,0.0
2100,524.75,44.4833,47.5717,152.063,98.5061,90.1764,0.0078074,0.12296,20.8922,7.75681,0.790321,0.0,0.0
2106,526.25,44.2728,47.3651,147.648,98.4795,90.8942,0.00760792,0.123754,20.8912,7.72679,0.716991,0.0,0.0
2112,527.75,44.5213,47.5947,152.751,98.4206,89.7921,0.00740572,0.124366,20.8902,7.70677,0.820766,0.0,0.0
2118,529.25,44.6597,47.4783,146.15,98.398,91.2272,0.00729997,0.125182,20.8882,7.66673,0.676871,0.0,0.0
2124,530.75,44.4686,46.7878,154.029,98.3612,92.0655,0.00726459,0.126107,20.8865,7.65672,0.5917,0.0,0.0
2130,532.25,44.5118,47.3499,150.674,98.3881,91.3578,0.00721643,0.126773,20.8856,7.63671,0.663177,0.0,0.0
2136,533.75,44.733,47.1502,152.518,98.4894,91.2176,0.00712623,0.127379,20.8851,7.58666,0.686124,0.0,0.0
2142,535.25,44.4973,47.3754,153.699,98.5824,93.9407,0.00699606,0.127807,20.8842,7.58666,0.431427,0.0,0.0
2148,536.75,44.6614,47.1424,155.974,98.6541,91.345,0.00689762,0.128094,20.8831,7.53662,0.68857,0.0,0.0
2154,538.25,44.0877,47.624,148.001,98.7344,92.8374,0.00689094,0.128834,20.8816,7.5166,0.550889,0.0,0.0
2160,539.75,44.597,47.2172,146.601,98.7787,92.9475,0.00693503,0.129637,20.8809,7.49658,0.544301,0.0,0.0
2166,541.25,44.5386,47.6713,156.069,98.8179,91.8156,0.00689952,0.130422,20.8799,7.46656,0.657452,0.0,0.0
2172,542.75,44.1171,47.40625,148.041,98.8547,93.0939,0.00674658,0.131003,20.8782,7.44654,0.537098,0.0,0.0
2178,544.25,44.9818,47.061,148.745,98.8713,91.9802,0.00659812,0.13161,20.8765,7.41651,0.646267,0.0,0.0
2184,545.75,44.6967,47.5359,152.824,98.8907,92.6334,0.00652494,0.132238,20.8749,7.3965,0.584714,0.0,0.0
2190,547.25,44.1928,47.4994,147.532,98.8887,93.0448,0.00647794,0.133162,20.8733,7.37648,0.544893,0.0,0.0
2196,548.75,45.077,47.1131,153.521,98.8927,92.5527,0.00636261,0.134357,20.8723,7.33644,0.592694,0.0,0.0
2202,550.25,44.6548,47.4097,149.722,98.8666,92.2127,0.00622694,0.13518,20.872,7.32643,0.623249,0.0,0.0
2208,551.75,44.4674,47.0139,147.201,98.8567,91.7615,0.0061228,0.13562,20.8719,7.30642,0.666233,0.0,0.0
2214,553.25,44.4472,47.3091,151.636,98.8159,93.4663,0.00607169,0.13566,20.8718,7.2864,0.497875,0.0,0.0
2220,554.75,44.3273,47.5225,147.882,98.7846,92.441,0.00601704,0.135746,20.8718,7.24636,0.593713,0.0,0.0
2226,556.25,44.3781,47.3112,152.309,98.7332,92.6311,0.00592619,0.13603,20.8708,7.23636,0.57068,0.0,0.0
2232,557.75,44.1618,47.584,147.648,98.6667,93.1488,0.00585202,0.136907,20.8696,7.19632,0.514804,0.0,0.0
2238,559.25,44.337,47.5989,152.836,98.5919,92.7991,0.00582807,0.138023,20.8685,7.16629,0.541658,0.0,0.0
2244,560.75,44.7524,46.9845,149.091,98.5334,92.1397,0.00584386,0.139075,20.8666,7.1763,0.600136,0.0,0.0
2250,562.25,44.0849,47.0918,151.698,98.4439,91.8697,0.00579805,0.140178,20.865,7.13627,0.618268,0.0,0.0
2256,563.75,44.6346,47.6294,150.168,98.3751,92.7022,0.00569506,0.141146,20.8635,7.11625,0.531313,0.0,0.0
2262,565.25,44.2846,48.0202,149.641,98.2421,92.5086,0.00547009,0.14164,20.8627,7.09623,0.537911,0.0,0.0
2268,566.75,44.019,47.1934,152.173,98.1384,91.6359,0.00532288,0.142126,20.8623,7.06621,0.613253,0.0,0.0
2274,568.25,44.5047,46.8979,149.822,98.0229,91.4181,0.00524934,0.142683,20.861,7.00615,0.624009,0.0,0.0
2280,569.75,44.5024,47.8749,148.93,98.0458,91.6232,0.00524611,0.143165,20.8603,7.02617,0.606053,0.0,0.0
2286,571.25,44.8331,47.2649,151.038,98.0395,92.4897,0.00526195,0.143641,20.8599,6.99614,0.521274,0.0,0.0
2292,572.75,44.8537,47.3787,149.924,98.0609,92.9935,0.00528678,0.143888,20.8598,6.98614,0.474634,0.0,0.0
2298,574.25,44.3971,47.8335,157.96,98.0724,92.4093,0.00526906,0.143918,20.8597,6.98614,0.532046,0.0,0.0
2304,575.75,44.6596,47.6247,151.419,98.0981,92.2429,0.0051982,0.143879,20.8596,6.9461,0.550524,0.0,0.0
2310,577.25,44.7786,47.5007,149.762,98.1202,94.0033,0.00515228,0.143479,20.8605,6.88605,0.383431,0.0,0.0
2316,578.75,44.9152,47.5408,153.456,98.1519,93.6432,0.00513529,0.142841,20.8617,6.87604,0.420645,0.0,0.0
2322,580.25,44.4742,47.4191,152.28,98.1871,93.1476,0.00508622,0.14189,20.8634,6.88605,0.471326,0.0,0.0
2328,581.75,44.6022,47.674,151.909,98.214,94.1563,0.00499486,0.140911,20.865,6.85602,0.377432,0.0,0.0
2334,583.25,43.9311,47.8246,155.781,98.256,94.3641,0.00491217,0.139826,20.8672,6.836,0.361528,0.0,0.0
2340,584.75,44.668,47.3962,152.334,98.2758,95.819,0.00485582,0.138352,20.8706,6.836,0.226465,0.0,0.0
2346,586.25,44.1984,47.4029,151.838,98.3173,96.1373,0.00480693,0.136281,20.8742,6.80598,0.200578,0.0,0.0
2352,587.75,44.8735,47.3141,148.599,98.3335,96.2652,0.00476452,0.134302,20.8778,6.79597,0.190163,0.0,0.0
2358,589.25,44.5802,47.2553,150.402,98.3691,96.9308,0.00470542,0.132203,20.8802,6.75593,0.131763,0.0,0.0
2364,590.75,44.2746,47.2184,152.253,98.3964,96.7917,0.0047079,0.130367,20.8843,6.75593,0.147089,0.0,0.0
2370,592.25,44.5049,46.7329,152.37,98.4301,97.5976,0.00478126,0.127577,20.8888,6.72591,0.0759793,0.0,0.0
2376,593.75,43.5271,46.1501,150.562,98.4542,98.2628,0.00491794,0.124834,20.8939,6.72591,0.0174075,0.0,0.0
2382,595.25,44.2566,46.3754,153.785,98.4784,98.8462,0.00504627,0.12207,20.8984,6.72591,-0.0333477,0.0,0.0
2388,596.75,44.0327,46.7311,154.524,98.4795,98.4881,0.0052331,0.118803,20.9039,6.70589,-0.000772616,0.0,0.0
2394,598.25,43.8606,46.4172,156.216,98.4902,99.6922,0.00545349,0.116072,20.9104,6.7159,-0.108507,0.0,0.0
2400,599.75,43.7628,46.2767,150.399,98.4879,99.11,0.0057402,0.112646,20.9163,6.67586,-0.0563314,0.0,0.0
2406,601.25,43.487,45.7071,158.893,98.4993,100.397,0.00616776,0.109126,20.9213,6.68587,-0.17072,0.0,0.0
2412,602.75,43.4549,45.9722,152.056,98.4736,100.135,0.00697493,0.105209,20.9259,6.66585,-0.149654,0.0,0.0
2418,604.25,43.125,46.0846,158.132,98.4538,98.6847,0.00778703,0.101711,20.93,6.67586,-0.0209509,0.0,0.0
2424,605.75,42.5169,45.2724,153.36,98.415,100.082,0.00848784,0.0986535,20.9337,6.65585,-0.150212,0.0,0.0
2430,607.25,43.2893,45.4482,154.371,98.3961,99.8255,0.00888471,0.096001,20.9371,6.66585,-0.129016,0.0,0.0
2436,608.75,43.0398,45.5935,152.083,98.3454,99.2978,0.00890699,0.0941245,20.939,6.67586,-0.0862087,0.0,0.0
2442,610.25,42.9369,45.3781,153.817,98.3031,99.6764,0.0086309,0.0926239,20.9405,6.65585,-0.124102,0.0,0.0
2448,611.75,42.398,44.6986,151.443,98.2477,99.4728,0.00813758,0.09128,20.943,6.65585,-0.110855,0.0,0.0
2454,613.25,42.011,44.1996,151.806,98.1851,99.8297,0.00760487,0.0902793,20.9455,6.64584,-0.148592,0.0,0.0
2460,614.75,41.7261,44.3261,151.783,98.1416,99.1158,0.0070904,0.089529,20.9478,6.64584,-0.0883585,0.0,0.0
2466,616.25,42.0185,44.6328,152.817,98.0854,98.3119,0.00662747,0.089031,20.9498,6.64584,-0.0206303,0.0,0.0
2472,617.75,41.4551,43.9769,152.386,98.0371,99.8154,0.006133,0.0887006,20.9513,6.63583,-0.160805,0.0,0.0
2478,619.25,41.6202,43.9267,154.655,97.9437,99.4573,0.00568863,0.0884347,20.9521,6.62582,-0.137179,0.0,0.0
2484,620.75,41.5818,44.0455,152.523,97.8816,99.1467,0.0053298,0.0883264,20.9525,6.6058,-0.114876,0.0,0.0
2490,622.25,41.4024,43.9215,156.372,97.7867,99.044,0.00505848,0.0881245,20.9528,6.62582,-0.114283,0.0,0.0
2496,623.75,41.6085,44.1138,149.091,97.7332,99.2259,0.00482372,0.0879674,20.9529,6.59579,-0.135589,0.0,0.0
2502,625.25,41.4308,43.7183,154.386,97.6276,99.6516,0.00454589,0.0878735,20.9536,6.59579,-0.183562,0.0,0.0
2508,626.75,41.5055,43.1086,149.352,97.5749,98.6144,0.00420952,0.0877838,20.9544,6.58578,-0.0947876,0.0,0.0
2514,628.25,41.1217,43.9425,149.748,97.5057,98.5564,0.00389272,0.0876022,20.9548,6.55576,-0.0958804,0.0,0.0
2520,629.75,41.1705,43.644,152.737,97.4329,99.1931,0.00362778,0.0873421,20.955,6.54575,-0.160162,0.0,0.0
2526,631.25,41.0974,43.2311,153.793,97.3624,98.694,0.00347426,0.0871338,20.9561,6.53574,-0.121505,0.0,0.0
2532,632.75,40.3202,42.8195,153.729,97.3237,98.5618,0.0034119,0.0870429,20.9568,6.53574,-0.113086,0.0,0.0
2538,634.25,41.032,43.2935,149.21,97.2627,98.7782,0.0033621,0.0869748,20.9571,6.54575,-0.138302,0.0,0.0
2544,635.75,40.8375,42.838,152.424,97.2287,99.1031,0.00326679,0.0869386,20.9571,6.55576,-0.170806,0.0,0.0
2550,637.25,40.47,42.9955,152.918,97.1986,98.0983,0.00312255,0.0868706,20.957,6.55576,-0.0824141,0.0,0.0
2556,638.75,40.6794,43.1717,153.121,97.1927,98.3579,0.00295797,0.0867434,20.957,6.55576,-0.106601,0.0,0.0
2562,640.25,40.3916,42.0786,155.531,97.1713,98.1547,0.00284585,0.0866496,20.957,6.55576,-0.0900684,0.0,0.0
2568,641.75,40.4667,42.9015,151.747,97.2049,99.3646,0.00275817,0.0866241,20.957,6.54575,-0.196568,0.0,0.0
2574,643.25,40.4204,42.9265,153.133,97.1899,98.8493,0.00263183,0.0866859,20.957,6.54575,-0.151436,0.0,0.0
2580,644.75,40.2098,42.5129,155.807,97.2307,99.042,0.00247471,0.0867918,20.9569,6.53574,-0.165113,0.0,0.0
2586,646.25,40.8002,42.5528,156.139,97.2746,99.0803,0.00228589,0.0868972,20.9565,6.55576,-0.164527,0.0,0.0
2592,647.75,40.4827,42.8432,151.782,97.3272,99.2437,0.00216129,0.0868082,20.9564,6.55576,-0.17443,0.0,0.0
2598,649.25,40.5918,42.2793,152.011,97.4048,99.015,0.00209391,0.0867149,20.9563,6.53574,-0.146666,0.0,0.0
2604,650.75,40.6485,42.2216,156.64,97.4729,99.1405,0.00206547,0.0866552,20.9562,6.52573,-0.151753,0.0,0.0
2610,652.25,40.477,42.7099,158.39,97.5864,98.5074,0.00206356,0.0866129,20.9562,6.52573,-0.0840232,0.0,0.0
2616,653.75,40.1486,41.6628,152.701,97.6624,99.7733,0.00201675,0.0865115,20.9562,6.50571,-0.191289,0.0,0.0
2622,655.25,40.2123,42.0564,154.799,97.7526,99.5999,0.00187166,0.0865064,20.9565,6.50571,-0.167464,0.0,0.0
2628,656.75,40.1042,42.0778,151.029,97.8662,98.9775,0.00171049,0.086437,20.9567,6.50571,-0.101007,0.0,0.0
2634,658.25,40.0705,42.3592,153.968,97.9837,99.5408,0.00158552,0.0862337,20.9564,6.50571,-0.141031,0.0,0.0
2640,659.75,40.0816,41.9347,153.281,98.0941,99.506,0.00152899,0.0860468,20.9561,6.46568,-0.127833,0.0,0.0
2646,661.25,40.2325,41.8388,153.945,98.2215,100.042,0.00148384,0.0859205,20.9559,6.47569,-0.164261,0.0,0.0
2652,662.75,39.9519,42.055,151.722,98.3046,100.597,0.0014391,0.0857896,20.9558,6.47569,-0.206231,0.0,0.0
2658,664.25,40.0108,42.2148,157.09,98.4625,100.413,0.00143195,0.0857588,20.9558,6.52573,-0.175474,0.0,0.0
2664,665.75,39.9505,41.945,155.927,98.5413,99.7092,0.00144908,0.0859826,20.9558,6.4957,-0.105397,0.0,0.0
2670,667.25,40.2977,42.0584,154.559,98.6604,100.267,0.00144647,0.0862188,20.9551,6.47569,-0.144532,0.0,0.0
2676,668.75,39.3087,40.8574,160.026,98.7475,100.402,0.00143331,0.0865159,20.9543,6.45567,-0.148628,0.0,0.0
2682,670.25,39.9906,41.6805,151.908,98.8523,100.272,0.00142457,0.086728,20.9539,6.42564,-0.127562,0.0,0.0
2688,671.75,39.9666,41.9805,155.568,98.918,101.037,0.00140697,0.0868598,20.9537,6.45567,-0.189633,0.0,0.0
2694,673.25,39.8684,41.9702,152.065,99.0059,99.8378,0.00135287,0.0869036,20.9545,6.42564,-0.0748578,0.0,0.0
2700,674.75,40.097,41.5057,158.234,99.0343,102.033,0.00133074,0.0869079,20.9551,6.40563,-0.266793,0.0,0.0
2706,676.25,39.8836,41.81,151.705,99.081,100.896,0.00136253,0.0868979,20.9553,6.44566,-0.162408,0.0,0.0
2712,677.75,39.728,41.5609,152.38,99.1064,100.691,0.00144157,0.0868497,20.9555,6.45567,-0.141882,0.0,0.0
2718,679.25,39.5519,41.8534,153.85,99.1317,100.719,0.00151136,0.0868154,20.9556,6.43565,-0.142103,0.0,0.0
2724,680.75,39.8549,42.034,151.422,99.119,100.935,0.00153174,0.0866443,20.9556,6.43565,-0.162369,0.0,0.0
2730,682.25,39.8242,41.7179,155.31,99.144,101.341,0.00148978,0.0866134,20.9554,6.42564,-0.196066,0.0,0.0
2736,683.75,39.4544,41.6416,152.017,99.1222,100.835,0.00142867,0.0866137,20.9552,6.41563,-0.153212,0.0,0.0
2742,685.25,39.6521,41.7096,152.987,99.1155,101.733,0.00140399,0.086255,20.9552,6.42564,-0.233182,0.0,0.0
2748,686.75,39.4773,41.8384,153.521,99.068,100.945,0.00144565,0.0861467,20.955,6.41563,-0.167902,0.0,0.0
2754,688.25,39.5617,41.7457,154.263,99.0403,100.588,0.00148488,0.086156,20.9547,6.42564,-0.138682,0.0,0.0
2760,689.75,39.6216,41.3803,153.365,98.9825,101.444,0.00144101,0.0862271,20.9545,6.41563,-0.219711,0.0,0.0
2766,691.25,39.4305,41.6475,151.674,98.9243,100.751,0.00134854,0.0865327,20.9539,6.41563,-0.163714,0.0,0.0
2772,692.75,39.6082,41.5038,154.923,98.8713,100.394,0.00131192,0.0867729,20.953,6.41563,-0.136727,0.0,0.0
2778,694.25,39.7211,41.4961,158.606,98.812,100.714,0.00134324,0.0869286,20.9525,6.40563,-0.170521,0.0,0.0
2784,695.75,38.9122,40.7901,155.955,98.7593,100.66,0.00137853,0.0870707,20.9523,6.39562,-0.170516,0.0,0.0
2790,697.25,39.7445,41.9074,152.829,98.6928,101.235,0.0014145,0.0870817,20.953,6.38561,-0.227512,0.0,0.0
2796,698.75,39.1948,42.0262,152.193,98.6465,100.619,0.00145905,0.08711,20.954,6.39562,-0.177132,0.0,0.0
2802,700.25,39.9812,41.4868,150.6,98.5935,100.665,0.00147419,0.0872217,20.9545,6.39562,-0.186027,0.0,0.0
2808,701.75,39.7142,41.5174,156.335,98.5567,99.7938,0.00150962,0.0872411,20.9548,6.40563,-0.111583,0.0,0.0
2814,703.25,38.941,41.1474,148.178,98.5061,100.096,0.00156774,0.087241,20.9549,6.40563,-0.143186,0.0,0.0
2820,704.75,39.8591,41.7081,159.089,98.474,100.11,0.00156807,0.0871549,20.9559,6.40563,-0.147375,0.0,0.0
2826,706.25,39.6932,41.3938,150.551,98.4269,100.902,0.00153867,0.0871007,20.9566,6.38561,-0.22214,0.0,0.0
2832,707.75,39.254,41.5099,154.256,98.4024,98.952,0.00142873,0.0871052,20.9562,6.39562,-0.0498259,0.0,0.0
2838,709.25,39.241,41.8344,152.486,98.3715,99.6277,0.001314,0.087013,20.9558,6.41563,-0.113505,0.0,0.0
2844,710.75,39.42,41.0466,152.681,98.3541,99.9383,0.00123671,0.0868453,20.9556,6.39562,-0.142933,0.0,0.0
2850,712.25,39.9753,41.6949,152.636,98.3759,99.1135,0.00123557,0.0869365,20.9555,6.38561,-0.0668223,0.0,0.0
2856,713.75,39.8132,41.8796,149.478,98.4602,99.4643,0.00131093,0.0870709,20.9554,6.38561,-0.0907637,0.0,0.0
2862,715.25,39.3358,42.0109,149.032,98.5156,100.036,0.00142345,0.0871225,20.9554,6.39562,-0.13704,0.0,0.0
2868,716.75,39.6835,42.4173,153.574,98.5528,100.316,0.00146255,0.0871712,20.9554,6.3756,-0.158639,0.0,0.0
2874,718.25,39.6424,41.7803,152.098,98.5773,99.4291,0.00142032,0.0872371,20.9554,6.36559,-0.0769662,0.0,0.0
2880,719.75,39.6092,41.7591,151.484,98.6279,100.176,,0.0872701,,6.36559,-0.139337,0.0,0.0
2886,721.25,39.8192,41.6997,155.278,98.6525,100.432,,0.0873281,,6.35558,-0.159921,0.0,0.0
2892,722.75,39.5836,42.1452,152.386,98.6822,100.158,,,,6.34557,-0.132767,0.0,0.0
2898,724.25,39.6541,42.1488,153.093,98.7146,99.5813,,,,6.34557,-0.0781979,0.0,0.0
2904,725.75,39.3567,41.733,153.508,98.7482,100.405,,,,6.31555,-0.148833,0.0,0.0
2910,727.25,39.7444,42.0977,154.603,98.7751,99.146,,,,6.31555,-0.0335179,0.0,0.0
2916,728.75,39.7907,41.5523,156.597,98.7926,101.006,,,,6.32556,-0.198247,0.0,0.0
2922,730.25,38.7545,41.5546,151.438,98.8139,100.912,,,,6.31555,-0.18796,0.0,0.0
2923,730.5,39.0314,40.9302,158,98.8112,99.6972,,,,6.28552,-0.0798573,0.0,0.0