File: 01_Data/PVC/Cone/PVC_Cone_HF75Scan_220210_R2.csv
Names,Time,Stack TC,Smoke TC,Exh Press,Smoke Comp,Smoke Meas,CO Meter,CO2 Meter,O2 Meter,Sample Mass,Ext Coeff,Start Test,Flame Verif
Chan Gain,,500,500,1,1,1,1,1,1,1,1,1.0,1.0
Offset,,0,0,0.140898,0,0,0,0,0,0,0,0.0,0.0
Gain,,1,1,25.011,12.9668,12.6588,1,1,1,1.00088,1.01977,1.0,1.0
Units,sec,C,C,Pa,%,%,%,%,%,g,/m,,
Baseline,,47.9387,50.5723,149.955,98.8686,98.7801,-0.000172506,0.0658335,20.9802,-865.195,0.00813307,,
4,0.75,46.6136,48.3597,151.552,98.256,97.6235,-0.000159011,0.0713129,20.9714,42.107,0.0577701,0.0,0.0
8,1.75,46.8154,48.7732,151.422,98.2904,98.517,-0.000169181,0.0721965,20.9703,42.177,-0.0206009,0.0,0.0
12,2.75,46.2652,47.9569,152.166,98.3292,97.3264,-0.000165036,0.0729548,20.9695,42.1871,0.0916946,0.0,0.0
16,3.75,46.6241,48.4042,149.558,98.3751,98.2308,-0.000166756,0.073481,20.9688,42.1971,0.0131333,0.0,0.0
20,4.75,45.4973,48.2496,151.982,98.4111,98.7944,-0.00019048,0.0739127,20.9683,42.167,-0.034774,0.0,0.0
24,5.75,46.3658,48.9468,151.945,98.4447,99.219,-0.000216683,0.0739476,20.968,42.147,-0.0700771,0.0,0.0
28,6.75,46.3013,48.7611,149.436,98.4716,98.908,-0.000223162,0.0738845,20.9686,42.147,-0.0395504,0.0,0.0
32,7.75,46.5746,48.4821,149.713,98.5088,98.6909,-0.00020271,0.0736435,20.969,42.167,-0.0165146,0.0,0.0
36,8.75,46.078,48.8071,145.991,98.5326,98.1674,-0.000159262,0.0732107,20.9692,42.137,0.0332143,0.0,0.0
40,9.75,46.3698,48.7644,148.681,98.5666,97.9673,-7.76266e-05,0.0727381,20.9694,42.137,0.0545561,0.0,0.0
44,10.75,46.354,48.947,151.531,98.5789,98.4552,3.91985e-05,0.0722379,20.9695,42.107,0.0112282,0.0,0.0
48,11.75,46.7073,48.7404,151.817,98.5951,98.3942,0.000187038,0.0720439,20.9696,42.0669,0.0182482,0.0,0.0
52,12.75,46.2008,48.9933,145.875,98.6125,91.9326,0.000724357,0.0719559,20.9706,42.0269,0.627445,0.0,0.0
56,13.75,46.611,49.0082,146.228,98.6252,92.6415,0.00165499,0.0729156,20.9711,41.8568,0.55988,0.0,0.0
60,14.75,46.9542,49.5046,146.101,98.6196,90.0266,0.00294296,0.0756395,20.9669,41.6766,0.815508,0.0,0.0
64,15.75,46.8438,49.6576,148.175,98.6184,86.7228,0.00423653,0.079123,20.9591,41.5265,1.14985,0.0,0.0
68,16.75,46.4715,49.7647,146.369,98.6121,83.069,0.00711913,0.085854,20.9485,41.2963,1.53433,0.0,0.0
72,17.75,47.0779,50.1382,142.333,98.5998,82.2083,0.0107315,0.0986562,20.9252,41.0961,1.62639,0.0,0.0
76,18.75,47.5844,50.7796,143.644,98.5801,79.6586,0.0149533,0.116866,20.8908,40.8459,1.90642,0.0,0.0
80,19.75,48.6072,51.9966,132.402,98.567,78.7948,0.0201859,0.143421,20.83,40.5957,2.00277,0.0,0.0
84,20.75,49.1811,52.3123,136.737,98.5361,79.1869,0.0262078,0.183427,20.7478,40.3354,1.95557,0.0,0.0
88,21.75,50.4406,53.7922,134.439,98.5053,66.6957,0.0326985,0.230766,20.6585,40.0151,3.48841,0.0,0.0
92,22.75,51.0913,54.8426,133.074,98.4677,56.0843,0.0384907,0.280037,20.5852,39.7749,5.03508,0.0,0.0
96,23.75,51.8837,56.7529,132.943,98.4336,34.9605,0.0451695,0.326066,20.5113,39.4547,9.25988,0.0,1.0
100,24.75,52.7827,57.6921,132.763,98.383,29.5363,0.0506249,0.363066,20.4492,39.1644,10.7635,0.0,1.0
104,25.75,53.7162,58.947,130.421,98.3537,24.372,0.0553003,0.394232,20.3949,38.9342,12.48,0.0,1.0
108,26.75,54.3922,59.8624,133.311,98.2801,29.8028,0.0586061,0.416156,20.3523,38.6339,10.6737,0.0,1.0
112,27.75,55.2592,60.4866,135.674,98.2469,32.6577,0.0604366,0.431944,20.3232,38.3637,9.85242,0.0,0.0
116,28.75,55.6686,61.5108,130.793,98.1772,45.9883,0.0607265,0.443725,20.3041,38.1135,6.78402,0.0,0.0
120,29.75,56.6082,62.3484,132.515,98.1147,58.3458,0.0598238,0.453288,20.2922,37.9033,4.64933,0.0,0.0
124,30.75,56.9168,63.448,128.674,98.0633,72.8466,0.0576249,0.461263,20.2873,37.593,2.65906,0.0,0.0
128,31.75,57.5044,64.4409,136.729,98.0031,77.4083,0.0553102,0.467277,20.2868,37.2427,2.11025,0.0,0.0
132,32.75,58.4302,65.1017,132.745,97.9414,77.2031,0.053717,0.471513,20.2865,37.2327,2.12835,0.0,0.0
136,33.75,58.9728,66.217,132.042,97.8769,73.525,0.0531756,0.476252,20.2863,37.0125,2.55912,0.0,0.0
140,34.75,59.5659,66.3714,127.834,97.8223,58.0194,0.0537359,0.48136,20.2835,36.6422,4.67282,0.0,0.0
144,35.75,60.238,67.5396,136.874,97.7752,39.8208,0.0555596,0.485411,20.279,36.5021,8.03543,0.0,0.0
148,36.75,60.653,68.3366,132.594,97.7115,40.3616,0.0579355,0.487092,20.2746,36.1818,7.90892,0.0,0.0
152,37.75,61.4645,68.8326,131.639,97.6751,37.579,0.0612191,0.487932,20.2686,35.9616,8.5446,0.0,0.0
156,38.75,62.4168,69.3946,132.263,97.6236,37.4156,0.064091,0.486328,20.2639,35.6213,8.57887,0.0,0.0
160,39.75,62.2729,70.0211,127.855,97.5647,29.8105,0.0662041,0.482618,20.2607,35.351,10.6061,0.0,0.0
164,40.75,63.0306,70.4387,130.248,97.5144,24.6621,0.0673529,0.475611,20.2697,35.0908,12.2974,0.0,0.0
168,41.75,63.1838,71.2672,134.277,97.5112,25.9064,0.0676189,0.463761,20.2881,34.8406,11.8568,0.0,0.0
172,42.75,63.7957,72.2865,133.641,97.4448,26.3028,0.0671235,0.448448,20.3094,34.5303,11.7149,0.0,0.0
176,43.75,63.912,72.954,136.745,97.4194,27.7128,0.066281,0.43177,20.3284,34.2501,11.2455,0.0,0.0
180,44.75,64.8921,72.8081,136.831,97.3985,27.8492,0.0650431,0.415989,20.3484,33.9999,11.1996,0.0,0.0
184,45.75,64.9296,73.4658,133.94,97.3921,30.8296,0.0637947,0.402934,20.3659,33.7296,10.2895,0.0,0.0
188,46.75,65.3741,73.8777,134.031,97.3747,30.7134,0.0629189,0.392163,20.3772,33.4794,10.3217,0.0,0.0
192,47.75,65.6746,74.4462,135.696,97.3739,32.8667,0.0618418,0.38221,20.3939,33.2192,9.71552,0.0,0.0
196,48.75,65.856,74.8444,136.466,97.3755,30.2683,0.0608615,0.373795,20.4072,32.9589,10.4524,0.0,0.0
200,49.75,66.4353,74.9672,134.181,97.404,30.7122,0.0599837,0.368789,20.4175,32.7187,10.3248,0.0,0.0
204,50.75,66.7636,75.1559,135.779,97.4103,31.5463,0.0590189,0.36323,20.4256,32.4685,10.0857,0.0,0.0
208,51.75,66.6366,75.7373,139.785,97.4436,33.7896,0.0579446,0.358323,20.4341,32.2583,9.47419,0.0,0.0
212,52.75,66.8735,76.0796,135.034,97.4634,36.8253,0.0568102,0.353651,20.4427,32.0582,8.70642,0.0,0.0
216,53.75,67.0384,76.5568,139.128,97.4954,30.6349,0.0556868,0.349541,20.4503,31.838,10.3557,0.0,0.0
220,54.75,67.156,76.7374,134.852,97.5389,34.308,0.0546731,0.345558,20.4582,31.5477,9.34673,0.0,0.0
224,55.75,67.6693,76.8354,133.253,97.5805,38.6174,0.0537261,0.342136,20.4651,31.3475,8.2921,0.0,0.0
228,56.75,67.5535,76.9396,133.204,97.6355,33.3805,0.0530072,0.338979,20.4696,31.0973,9.60076,0.0,0.0
232,57.75,67.7916,77.2113,137.173,97.6881,31.7294,0.0522234,0.335999,20.4735,30.8971,10.0594,0.0,0.0
236,58.75,68.1038,77.406,134.55,97.7384,36.0047,0.0516289,0.332795,20.4782,30.6369,8.9332,0.0,0.0
240,59.75,68.1681,77.8194,135.69,97.8064,33.7224,0.0509843,0.329424,20.4856,30.3967,9.52525,0.0,0.0
244,60.75,68.3658,77.7046,134.117,97.8765,34.8226,0.0502871,0.32687,20.4932,30.2065,9.24446,0.0,0.0
248,61.75,68.3076,77.9133,133.235,97.9529,36.2369,0.0495785,0.323973,20.5,29.9963,8.89531,0.0,0.0
252,62.75,68.3984,78.0922,135.147,98.0189,34.2196,0.0489214,0.321079,20.5061,29.7561,9.41374,0.0,0.0
256,63.75,69.0368,78.3315,132.321,98.1024,35.3422,0.0483082,0.318117,20.5125,29.5459,9.1326,0.0,0.0
260,64.75,68.9542,78.7491,139.461,98.1796,35.4357,0.047557,0.315186,20.518,29.3358,9.116,0.0,0.0
264,65.75,68.3943,78.7847,136.9,98.254,35.7498,0.046828,0.312532,20.523,29.1156,9.04384,0.0,0.0
268,66.75,69.009,78.8654,132.759,98.3319,34.3502,0.0460591,0.310001,20.5276,28.9054,9.40819,0.0,0.0
272,67.75,69.2894,78.4785,139.021,98.4241,37.5867,0.0451615,0.307161,20.5346,28.6952,8.6111,0.0,0.0
276,68.75,69.347,78.6548,136.853,98.4906,37.5856,0.0446671,0.303701,20.5402,28.515,8.61742,0.0,0.0
280,69.75,69.012,78.8435,140.511,98.5686,42.5675,0.0439494,0.29999,20.5474,28.3149,7.51106,0.0,0.0
284,70.75,69.159,78.1339,135.363,98.6446,41.5905,0.0433871,0.295546,20.5545,28.1147,7.72565,0.0,0.0
288,71.75,69.6872,79.196,137.338,98.7217,40.0495,0.0428536,0.29294,20.5603,27.9345,8.07039,0.0,0.0
292,72.75,69.4739,78.8067,137.872,98.787,39.4163,0.0423707,0.290269,20.5645,27.7444,8.21885,0.0,0.0
296,73.75,69.1823,79.1531,142.953,98.8622,42.931,0.0420087,0.288371,20.5673,27.5342,7.46159,0.0,0.0
300,74.75,68.771,78.9105,135.278,98.9121,39.6562,0.0417406,0.286993,20.5699,27.354,8.17589,0.0,0.0
304,75.75,69.5482,79.0453,135.782,98.9698,41.0412,0.0415295,0.285817,20.5726,27.1739,7.87404,0.0,0.0
308,76.75,69.2162,79.1445,137.888,99.0268,41.7049,0.041312,0.284715,20.5749,26.9737,7.73569,0.0,0.0
312,77.75,69.6117,78.8741,140.545,99.0624,43.0612,0.0411251,0.283687,20.5765,26.8035,7.45261,0.0,0.0
316,78.75,68.9856,78.8904,134.609,99.1079,39.5677,0.0407846,0.282838,20.5781,26.6234,8.21356,0.0,0.0
320,79.75,69.4603,79.0043,133.747,99.1471,44.8441,0.0403517,0.28217,20.5793,26.4532,7.09735,0.0,0.0
324,80.75,70.1275,78.7695,136.319,99.1709,45.1983,0.0398868,0.281625,20.5801,26.243,7.02911,0.0,0.0
328,81.75,69.8514,79.0991,137.486,99.1914,43.7519,0.0393583,0.28111,20.5823,26.0729,7.3219,0.0,0.0
332,82.75,69.8928,78.9088,137.252,99.2005,44.62,0.038822,0.280358,20.5861,25.8827,7.14698,0.0,0.0
336,83.75,70.1133,78.8329,135.734,99.2195,43.8559,0.0384197,0.279612,20.5888,25.6725,7.30321,0.0,0.0
340,84.75,69.576,79.4999,137.8,99.2187,42.7375,0.0381466,0.278885,20.5911,25.5424,7.53422,0.0,0.0
344,85.75,69.9001,78.894,137.081,99.231,46.669,0.0380008,0.278194,20.5926,25.2922,6.74809,0.0,0.0
348,86.75,69.9127,79.1443,136.867,99.2183,45.7407,0.0379152,0.27757,20.5936,25.1521,6.92668,0.0,0.0
352,87.75,69.6774,79.3065,131.741,99.2172,47.3717,0.0378294,0.2769,20.5947,24.9919,6.61316,0.0,0.0
356,88.75,70.1496,78.9236,138.079,99.1966,47.7542,0.0376656,0.275991,20.5971,24.8218,6.53937,0.0,0.0
360,89.75,69.8242,79.2259,138.376,99.1776,47.1477,0.0374086,0.274515,20.6001,24.6817,6.652,0.0,0.0
364,90.75,70.3712,78.9955,138.056,99.1436,48.9,0.0371225,0.272929,20.6034,24.5015,6.32249,0.0,0.0
368,91.75,69.7353,79.4407,135.315,99.1167,51.8986,0.0368144,0.271463,20.6062,24.3414,5.78768,0.0,0.0
372,92.75,69.8289,79.2497,136.507,99.0755,49.7387,0.036463,0.269713,20.6096,24.1912,6.16422,0.0,0.0
376,93.75,69.8632,78.8762,134.503,99.0375,46.5373,0.0361766,0.267941,20.6124,24.0211,6.75592,0.0,0.0
380,94.75,69.7695,78.9512,139.104,98.9821,50.5009,0.0359836,0.266116,20.616,23.861,6.01974,0.0,0.0
384,95.75,69.9153,78.9709,138.972,98.9493,51.0468,0.0359104,0.263979,20.6208,23.6708,5.92061,0.0,0.0
388,96.75,69.6293,78.8873,134.182,98.9006,46.2452,0.0359284,0.261677,20.6239,23.5507,6.79986,0.0,0.0
392,97.75,69.953,78.7064,137.682,98.8559,49.4474,0.0359941,0.259832,20.6259,23.3705,6.19691,0.0,0.0
396,98.75,69.6208,78.9213,136.294,98.8104,49.6672,0.0360385,0.258314,20.6272,23.2104,6.15311,0.0,0.0
400,99.75,69.7859,78.8312,138.382,98.7601,48.8791,0.0360431,0.257004,20.6289,23.0302,6.29164,0.0,0.0
404,100.75,69.7934,78.7229,138.269,98.7134,52.3336,0.035982,0.25582,20.6307,22.9101,5.67655,0.0,0.0
408,101.75,69.7149,78.8629,140.918,98.6699,51.09,0.0358708,0.254908,20.6328,22.74,5.88773,0.0,0.0
412,102.75,70.0152,78.5545,135.043,98.622,50.1868,0.0357157,0.253844,20.6349,22.6099,6.04295,0.0,0.0
416,103.75,69.607,78.9222,138.789,98.5856,51.8322,0.0355366,0.252486,20.6369,22.5098,5.75109,0.0,0.0
420,104.75,69.7485,78.653,139.872,98.5468,51.2179,0.0352988,0.250822,20.6402,22.3196,5.85421,0.0,0.0
424,105.75,69.4498,78.2238,140.38,98.5156,54.881,0.0350453,0.249247,20.643,22.2195,5.23345,0.0,0.0
428,106.75,69.5659,78.6684,136.042,98.4708,54.7616,0.0346922,0.248045,20.6456,22.0594,5.24887,0.0,0.0
432,107.75,69.913,78.3731,137.844,98.4534,55.0367,0.0343192,0.246267,20.6479,21.8892,5.20247,0.0,0.0
436,108.75,69.2407,78.7671,137.896,98.4198,52.8582,0.0340014,0.24468,20.6506,21.7891,5.56068,0.0,0.0
440,109.75,69.4302,77.9548,139.597,98.3984,54.9339,0.0337477,0.243355,20.6535,21.629,5.21419,0.0,0.0
444,110.75,69.4307,78.5523,138.944,98.4681,58.6093,0.0335476,0.24192,20.6565,21.5089,4.64119,0.0,0.0
448,111.75,69.8554,78.0017,137.187,98.5448,57.3665,0.033412,0.240622,20.6586,21.3187,4.83988,0.0,0.0
452,112.75,70.0041,77.8585,137.563,98.6125,57.46,0.0332556,0.239317,20.661,21.1886,4.83145,0.0,0.0
456,113.75,69.021,77.6117,135.99,98.6687,60.9508,0.0331044,0.237564,20.6642,21.1085,4.30898,0.0,0.0
460,114.75,69.3257,78.2038,140.087,98.7348,61.2351,0.0329946,0.236168,20.6678,20.9284,4.27334,0.0,0.0
464,115.75,69.5263,77.6051,140.634,98.7791,60.3667,0.0329402,0.23425,20.6702,20.7983,4.40512,0.0,0.0
468,116.75,69.0887,77.3274,134.033,98.8167,58.6468,0.0329259,0.232808,20.6718,20.6882,4.66708,0.0,0.0
472,117.75,69.2138,77.762,141.4,98.8559,58.6711,0.0329416,0.231879,20.6728,20.538,4.66692,0.0,0.0
476,118.75,69.2439,77.3946,138.659,98.8792,57.5446,0.0329295,0.231133,20.6737,20.4179,4.84245,0.0,0.0
480,119.75,69.4223,77.3471,138.297,98.8919,56.3864,0.0328745,0.230103,20.6748,20.2678,5.02548,0.0,0.0
484,120.75,69.5095,77.2877,141.52,98.8939,59.2498,0.0327798,0.228905,20.6767,20.1577,4.58256,0.0,0.0
488,121.75,69.1106,77.4975,138.707,98.9089,60.7028,0.0326621,0.227652,20.6779,19.9976,4.3672,0.0,0.0
492,122.75,69.2798,77.0947,136.435,98.8994,61.1428,0.032583,0.226856,20.6787,19.9075,4.30173,0.0,0.0
496,123.75,69.2527,77.2421,135.4,98.8895,62.3195,0.0325832,0.226834,20.6792,19.7674,4.13032,0.0,0.0
500,124.75,68.8648,77.4673,136.005,98.867,56.8751,0.0326593,0.227037,20.6795,19.6072,4.94603,0.0,0.0
504,125.75,68.6548,77.5389,140.81,98.8428,59.2375,0.0327644,0.227193,20.679,19.5071,4.5798,0.0,0.0
508,126.75,68.9118,77.2679,143.173,98.8187,59.7246,0.0329589,0.227462,20.6786,19.307,4.50436,0.0,0.0
512,127.75,68.6091,77.3803,136.687,98.7803,59.6686,0.0331217,0.228101,20.6776,19.2069,4.50927,0.0,0.0
516,128.75,68.6464,77.1624,136.887,98.7415,59.0868,0.0333142,0.229116,20.6769,19.0667,4.59341,0.0,0.0
520,129.75,69.2951,77.3754,133.032,98.7055,56.901,0.0335339,0.230173,20.6761,18.9266,4.92734,0.0,0.0
524,130.75,69.1555,77.3707,137.397,98.6592,57.3739,0.0338346,0.230908,20.6746,18.8265,4.84911,0.0,0.0
528,131.75,69.1396,76.9706,136.622,98.601,60.2767,0.0342798,0.231154,20.6737,18.6964,4.40233,0.0,0.0
532,132.75,68.9259,77.2116,136.926,98.5401,60.0565,0.0348156,0.231101,20.6731,18.5663,4.42954,0.0,0.0
536,133.75,69.5305,77.2691,136.094,98.4677,56.731,0.0351815,0.231288,20.6728,18.3861,4.93252,0.0,0.0
540,134.75,68.7466,77.3432,136.721,98.4012,54.932,0.0357782,0.231725,20.6709,18.236,5.21475,0.0,0.0
544,135.75,69.6689,77.3165,134.61,98.3213,56.5255,0.0363822,0.232443,20.6689,18.1159,4.95167,0.0,0.0
548,136.75,68.6829,76.9437,138.48,98.2291,57.0787,0.0369486,0.233068,20.6668,17.9558,4.85616,0.0,0.0
552,137.75,68.9261,76.6047,134.876,98.1464,53.7382,0.0374203,0.234106,20.6638,17.8557,5.38809,0.0,0.0
556,138.75,69.5192,77.0509,137.441,98.0542,54.038,0.0378404,0.235625,20.6601,17.6955,5.32992,0.0,0.0
560,139.75,69.1665,76.8055,139.036,98.0328,56.451,0.0382394,0.237697,20.6552,17.5554,4.9372,0.0,0.0
564,140.75,69.2994,77.0835,143.445,98.0443,55.5416,0.0385852,0.239855,20.6508,17.3953,5.08352,0.0,0.0
568,141.75,69.1236,76.7655,138.587,98.0629,53.2971,0.0389073,0.242084,20.646,17.2552,5.45422,0.0,0.0
572,142.75,68.6289,76.8853,136.658,98.0811,54.9018,0.0391959,0.244777,20.6405,17.1451,5.19051,0.0,0.0
576,143.75,69.3691,76.6604,136.361,98.0993,49.9914,0.039412,0.247421,20.6361,17.0149,6.03032,0.0,0.0
580,144.75,68.6685,76.8986,136.037,98.1119,51.4203,0.0395459,0.250047,20.6309,16.8448,5.77936,0.0,0.0
584,145.75,68.7411,76.3434,135.961,98.1365,50.1899,0.0396109,0.252903,20.6251,16.7047,5.99825,0.0,0.0
588,146.75,68.8059,76.8614,135.034,98.1598,55.9325,0.0396333,0.256019,20.6197,16.5746,5.03131,0.0,0.0
592,147.75,69.235,77.0396,137.178,98.182,52.3838,0.0396378,0.25923,20.615,16.4244,5.61968,0.0,0.0
596,148.75,69.2082,76.9922,137.773,98.2172,49.4494,0.0396442,0.262371,20.6102,16.2743,6.13858,0.0,0.0
600,149.75,68.6569,77.4617,138.177,98.2144,48.7381,0.039635,0.265187,20.6052,16.1342,6.26792,0.0,0.0
604,150.75,69.724,76.9419,135.884,98.2496,48.477,0.039626,0.267639,20.6021,15.964,6.31919,0.0,0.0
608,151.75,69.398,77.4797,135.867,98.2734,48.4527,0.0394834,0.269654,20.6005,15.8139,6.32584,0.0,0.0
612,152.75,68.7445,77.6345,132.327,98.2849,48.2309,0.0392355,0.271749,20.5998,15.6537,6.36792,0.0,0.0
616,153.75,69.4822,77.052,132.704,98.3331,48.5442,0.0388996,0.272147,20.5994,15.4736,6.31439,0.0,0.0
620,154.75,69.529,77.929,139.128,98.349,49.3284,0.0385693,0.271829,20.5991,15.3435,6.17247,0.0,0.0
624,155.75,69.5218,78.0083,136.737,98.3893,51.3149,0.0381106,0.2705,20.6021,15.1833,5.82298,0.0,0.0
628,156.75,69.5883,77.8724,143.546,98.4091,52.3525,0.0376056,0.268542,20.6072,15.0232,5.6457,0.0,0.0
632,157.75,69.6605,77.7525,138.035,98.4424,52.2637,0.0369722,0.266766,20.6113,14.843,5.66392,0.0,0.0
636,158.75,69.5131,77.7518,139.022,98.4629,58.3231,0.0366414,0.264977,20.6152,14.7329,4.68452,0.0,0.0
640,159.75,69.4759,77.6339,140.689,98.4902,55.2762,0.0362761,0.263239,20.62,14.5528,5.16697,0.0,0.0
644,160.75,69.8059,77.4741,142.177,98.5112,57.2333,0.0360057,0.26136,20.6242,14.4327,4.85763,0.0,0.0
648,161.75,70.1479,77.5446,140.259,98.5346,61.2397,0.0358354,0.259499,20.6275,14.2525,4.2545,0.0,0.0
652,162.75,69.5788,77.4053,137.748,98.552,56.1303,0.0357448,0.257637,20.6306,14.1524,5.0354,0.0,0.0
656,163.75,69.5112,77.4653,135.768,98.5575,57.2927,0.035749,0.256077,20.6327,14.0223,4.85254,0.0,0.0
660,164.75,69.6546,77.3476,144.925,98.5702,59.1204,0.0358613,0.254996,20.6333,13.8722,4.57279,0.0,0.0
664,165.75,69.5065,77.1938,134.538,98.5947,55.2986,0.0360007,0.255647,20.6318,13.7421,5.17282,0.0,0.0
668,166.75,69.356,77.6783,138.173,98.607,50.4611,0.0361163,0.257355,20.6303,13.5619,5.99283,0.0,0.0
672,167.75,69.1884,77.3025,140.407,98.618,56.0588,0.0361934,0.258743,20.6293,13.4118,5.05279,0.0,0.0
676,168.75,69.6853,76.9487,140.053,98.6184,57.8958,0.0361497,0.259148,20.6286,13.2616,4.76441,0.0,0.0
680,169.75,69.564,77.2145,139.902,98.6196,55.688,0.035999,0.258745,20.6294,13.1415,5.11231,0.0,0.0
684,170.75,69.488,77.3923,135.996,98.6192,54.6283,0.0357581,0.257845,20.6312,12.9814,5.28414,0.0,0.0
688,171.75,69.5811,77.3812,140.64,98.6299,57.02,0.0354242,0.256321,20.6336,12.8613,4.9018,0.0,0.0
692,172.75,69.4734,77.2472,141.303,98.6153,54.8165,0.0350227,0.254684,20.6354,12.6611,5.25302,0.0,0.0
696,173.75,69.9966,77.1573,138.326,98.6121,56.5842,0.0347202,0.252888,20.6378,12.6111,4.96881,0.0,0.0
700,174.75,69.4005,77.2212,135.768,98.6034,57.2819,0.0341693,0.251002,20.6414,12.3909,4.8584,0.0,0.0
704,175.75,69.4579,77.5939,141.229,98.5959,60.7159,0.0335648,0.249385,20.645,12.2908,4.33691,0.0,0.0
708,176.75,69.4765,76.8426,137.051,98.5808,58.7982,0.0329178,0.24757,20.6494,12.1407,4.62264,0.0,0.0
712,177.75,69.311,77.0569,141.472,98.5702,58.3115,0.0323251,0.245435,20.654,12.0706,4.69603,0.0,0.0
716,178.75,69.1099,76.7576,138.789,98.552,64.0035,0.0317677,0.24322,20.6591,11.9005,3.86123,0.0,0.0
720,179.75,69.1397,76.4749,140.195,98.5433,64.1665,0.0312867,0.241101,20.6639,11.7503,3.83768,0.0,0.0
724,180.75,69.0911,76.5526,138.125,98.5179,60.1581,0.0308896,0.239285,20.6675,11.6803,4.41241,0.0,0.0
728,181.75,69.0178,76.7902,142.984,98.4938,57.7698,0.0305412,0.237349,20.6715,11.5902,4.77258,0.0,0.0
732,182.75,68.6863,76.7023,141.919,98.474,57.8556,0.0301271,0.234965,20.6753,11.4801,4.75751,0.0,0.0
736,183.75,68.9999,76.1623,139.25,98.4515,58.8291,0.0297613,0.232183,20.6786,11.36,4.60619,0.0,0.0
740,184.75,68.6065,76.3468,139.274,98.423,58.3625,0.0293853,0.229541,20.6826,11.2499,4.67484,0.0,0.0
744,185.75,68.6128,76.2269,137.038,98.3996,60.5374,0.0290344,0.2269,20.6873,11.1398,4.34542,0.0,0.0
748,186.75,68.2687,76.125,141.377,98.3731,60.3875,0.028702,0.22457,20.6915,10.9897,4.36519,0.0,0.0
752,187.75,68.6878,75.9661,139.405,98.3438,57.3561,0.0283687,0.22262,20.6948,10.8695,4.82324,0.0,0.0
756,188.75,68.6585,75.9339,137.376,98.3023,63.7574,0.028094,0.220841,20.698,10.7795,3.87299,0.0,0.0
760,189.75,68.4149,75.7374,138.301,98.2762,63.9474,0.0276764,0.219136,20.7013,10.6694,3.84399,0.0,0.0
764,190.75,68.4896,75.7137,139.382,98.2421,62.5606,0.0272072,0.217356,20.7043,10.5693,4.03703,0.0,0.0
768,191.75,68.4848,75.5008,140.552,98.2045,60.311,0.0267155,0.21576,20.7066,10.4792,4.36118,0.0,0.0
772,192.75,68.2004,75.3484,138.471,98.1661,59.8757,0.0262305,0.214356,20.7087,10.3291,4.4225,0.0,0.0
776,193.75,68.3409,75.2425,140.002,98.1365,59.873,0.0258124,0.213032,20.7115,10.209,4.4202,0.0,0.0
780,194.75,68.0509,75.3471,142.947,98.1032,65.8555,0.0254535,0.211903,20.714,10.1189,3.56524,0.0,0.0
784,195.75,68.2308,75.2351,142.639,98.0542,63.1852,0.0251495,0.210799,20.7156,10.0088,3.93102,0.0,0.0
788,196.75,67.9891,75.2076,139.833,98.0249,60.2114,0.024793,0.209997,20.7167,9.94874,4.3596,0.0,0.0
792,197.75,67.8786,75.2863,137.181,97.9976,63.079,0.0244526,0.2091,20.7176,9.85866,3.94091,0.0,0.0
796,198.75,68.0497,75.082,141.746,97.977,62.6622,0.0240752,0.207979,20.7194,9.76858,3.99834,0.0,0.0
800,199.75,68.2029,75.0709,139.847,97.9279,65.3799,0.023729,0.206894,20.7225,9.65848,3.61407,0.0,0.0
804,200.75,67.9214,74.6268,138.211,97.901,64.5872,0.0234306,0.205197,20.7273,9.54839,3.72073,0.0,0.0
808,201.75,67.7189,74.7147,138.924,97.8551,64.1499,0.0231842,0.203287,20.7315,9.47832,3.77731,0.0,0.0
812,202.75,67.6319,74.5105,141.169,97.8341,65.5522,0.0229699,0.201665,20.7343,9.37824,3.58195,0.0,0.0
816,203.75,67.6604,74.2193,139.209,97.7946,66.0366,0.022733,0.200436,20.7366,9.26814,3.51247,0.0,0.0
820,204.75,67.471,74.1136,137.624,97.7617,66.1607,0.0224726,0.199446,20.7384,9.22811,3.49268,0.0,0.0
824,205.75,67.5661,73.9358,139.235,97.7447,63.9992,0.0222471,0.198695,20.7394,9.108,3.78825,0.0,0.0
828,206.75,67.3754,74.1837,139.208,97.7008,64.9098,0.0219167,0.198057,20.7402,9.05796,3.65785,0.0,0.0
832,207.75,66.9543,73.5016,137.058,97.6695,63.4661,0.0215913,0.197603,20.741,8.93785,3.85619,0.0,0.0
836,208.75,67.4388,73.9728,139.919,97.6446,62.3921,0.0213015,0.197041,20.7426,8.85778,4.00657,0.0,0.0
840,209.75,66.885,73.9106,139.719,97.6153,65.7492,0.0210692,0.196072,20.7447,8.81775,3.53508,0.0,0.0
844,210.75,67.233,74.0325,140.491,97.605,64.61,0.0208551,0.195091,20.7461,8.69764,3.69049,0.0,0.0
848,211.75,66.3909,73.5369,138.131,97.5742,64.8746,0.020653,0.194245,20.747,8.61757,3.6511,0.0,0.0
852,212.75,67.0876,73.7363,137.863,97.5429,65.5595,0.0204746,0.193494,20.748,8.52749,3.55428,0.0,0.0
856,213.75,66.8634,73.6852,141.606,97.5195,66.7838,0.0202812,0.192769,20.7495,8.44742,3.38664,0.0,0.0
860,214.75,66.9437,73.2698,138.504,97.5136,65.1995,0.0200937,0.191939,20.7516,8.38737,3.60086,0.0,0.0
864,215.75,66.3284,73.1005,137.706,97.4831,69.1133,0.0198721,0.191157,20.753,8.27727,3.07659,0.0,0.0
868,216.75,66.5006,73.6996,143.484,97.4645,64.7011,0.0196581,0.190127,20.7555,8.20721,3.66499,0.0,0.0
872,217.75,66.1742,72.6179,144.809,97.4459,68.9618,0.0194118,0.188885,20.7575,8.13715,3.0928,0.0,0.0
876,218.75,66.7132,72.9368,139.041,97.4297,68.7996,0.0191587,0.187562,20.7601,8.0871,3.11238,0.0,0.0
880,219.75,66.221,73.228,144.463,97.4206,69.6081,0.0189257,0.186409,20.7625,7.99702,3.00703,0.0,0.0
884,220.75,66.4079,72.7652,138.237,97.4068,69.2883,0.0187593,0.185287,20.7646,7.92696,3.04696,0.0,0.0
888,221.75,66.1924,72.5572,139.615,97.3901,72.6566,0.0185844,0.183883,20.7672,7.8569,2.62081,0.0,0.0
892,222.75,66.3028,72.3845,142.267,97.3834,71.2268,0.0184039,0.182474,20.7691,7.78684,2.79798,0.0,0.0
896,223.75,66.1309,72.506,140.82,97.3909,69.3802,0.018194,0.181621,20.771,7.72679,3.03364,0.0,0.0
900,224.75,66.3784,72.1154,138.827,97.3648,70.562,0.0179942,0.181104,20.7724,7.65672,2.88016,0.0,0.0
904,225.75,66.1307,72.3782,141.596,97.3648,71.1175,0.0177863,0.180612,20.773,7.61669,2.81001,0.0,0.0
908,226.75,65.8392,72.3085,146.599,97.3617,71.9886,0.0175627,0.180174,20.7742,7.5166,2.70081,0.0,0.0
912,227.75,65.8667,72.0221,143.769,97.3609,70.8648,0.0173391,0.17932,20.775,7.44654,2.84149,0.0,0.0
916,228.75,65.9321,72.0566,146.251,97.3664,73.8491,0.0171038,0.178639,20.7763,7.3965,2.473,0.0,0.0
920,229.75,66.0127,71.6767,141.114,97.3719,69.8797,0.0168338,0.178281,20.778,7.30642,2.96773,0.0,0.0
924,230.75,65.612,71.687,142.716,97.383,72.4182,0.0165757,0.178018,20.7791,7.24636,2.64956,0.0,0.0
928,231.75,65.516,71.9752,142.868,97.3747,73.7591,0.016353,0.177546,20.7798,7.1763,2.48467,0.0,0.0
932,232.75,65.5987,71.5504,138.842,97.3806,73.4257,0.0162435,0.176838,20.7802,7.12626,2.52574,0.0,0.0
936,233.75,65.5039,71.4294,139.78,97.389,71.3574,0.0162303,0.176131,20.781,7.08622,2.78211,0.0,0.0
940,234.75,65.7173,71.3082,144.633,97.4032,73.3512,0.0162843,0.17549,20.7818,6.99614,2.5369,0.0,0.0
944,235.75,65.3535,70.8875,141.823,97.4068,73.3373,0.0163297,0.174905,20.7824,6.96612,2.53893,0.0,0.0
948,236.75,65.2779,71.0203,140.617,97.4214,73.8426,0.0163218,0.17443,20.7829,6.92608,2.47885,0.0,0.0
952,237.75,65.3361,71.0594,145.55,97.4333,73.1781,0.0162771,0.174017,20.7839,6.826,2.5608,0.0,0.0
956,238.75,65.1646,71.0406,141.47,97.4539,72.7586,0.0161617,0.173796,20.7845,6.77595,2.61412,0.0,0.0
960,239.75,65.2714,70.6516,141.74,97.4677,72.9127,0.0160349,0.173692,20.7849,6.7159,2.59646,0.0,0.0
964,240.75,65.1849,70.6326,144.239,97.4891,70.4519,0.015903,0.173594,20.7852,6.67586,2.90554,0.0,0.0
968,241.75,65.054,70.4812,136.752,97.5029,76.2856,0.0157654,0.173505,20.7853,6.58578,2.19516,0.0,0.0
972,242.75,65.0045,70.4905,142.248,97.518,74.1126,0.0156065,0.173372,20.7855,6.57578,2.45506,0.0,0.0
976,243.75,64.6841,69.8958,139.704,97.5445,71.6997,0.0154876,0.173098,20.7863,6.4957,2.75357,0.0,0.0
980,244.75,64.8605,70.2293,140.105,97.5678,74.1756,0.0153309,0.172601,20.7882,6.42564,2.45203,0.0,0.0
984,245.75,64.8595,70.1403,142.612,97.5955,73.5196,0.0152344,0.172076,20.7894,6.36559,2.53403,0.0,0.0
988,246.75,64.379,69.8081,142.667,97.6197,75.695,0.015239,0.17127,20.7904,6.32556,2.2754,0.0,0.0
992,247.75,64.4598,70.2338,144.463,97.6434,76.0133,0.0153332,0.170246,20.7921,6.25549,2.24004,0.0,0.0
996,248.75,64.5356,69.981,140.543,97.6723,74.4248,0.0155527,0.168671,20.795,6.23548,2.43161,0.0,0.0
1000,249.75,64.5539,70.0609,148.427,97.6972,76.3069,0.0157574,0.166697,20.7986,6.1454,2.21048,0.0,0.0
1004,250.75,64.2385,69.3817,142.695,97.7328,75.0108,0.0159237,0.164569,20.8017,6.09535,2.36699,0.0,0.0
1008,251.75,64.1233,69.688,138.97,97.7673,76.7353,0.0160344,0.162537,20.8054,6.08534,2.16681,0.0,0.0
1012,252.75,63.9442,69.7203,144.054,97.7981,75.17,0.0160998,0.160677,20.8077,6.0353,2.354,0.0,0.0
1016,253.75,64.082,69.2551,145.773,97.8314,75.588,0.0161315,0.15913,20.8097,5.98526,2.30743,0.0,0.0
1020,254.75,63.7536,68.5848,143.376,97.861,77.7297,0.016128,0.157999,20.8114,5.93521,2.06021,0.0,0.0
1024,255.75,63.8003,69.2891,139.977,97.9014,77.3283,0.0160747,0.15725,20.8127,5.89518,2.11021,0.0,0.0
1028,256.75,63.4506,69.2449,145.77,97.9303,76.0523,0.0159729,0.156825,20.8141,5.87516,2.26169,0.0,0.0
1032,257.75,63.6713,69.2291,141.091,97.9758,77.0447,0.0158471,0.156493,20.8151,5.79509,2.14987,0.0,0.0
1036,258.75,63.8994,68.8086,148.046,98.0007,78.6012,0.0157427,0.155921,20.8157,5.75505,1.97323,0.0,0.0
1040,259.75,63.4921,68.4883,143.767,98.0371,75.7471,0.0155885,0.155571,20.8161,5.74505,2.30742,0.0,0.0
1044,260.75,63.5218,68.628,144.106,98.0751,77.6984,0.0154017,0.155302,20.8169,5.68499,2.08336,0.0,0.0
1048,261.75,63.5526,68.4401,142.936,98.1139,78.2257,0.0151867,0.155015,20.8177,5.64496,2.02639,0.0,0.0
1052,262.75,63.377,68.7328,142.935,98.1499,77.8359,0.0149395,0.15459,20.8194,5.5749,2.07436,0.0,0.0
1056,263.75,63.282,68.4663,138.327,98.1828,78.4289,0.0146345,0.154017,20.8209,5.53486,2.00946,0.0,0.0
1060,264.75,63.2441,68.4474,142.855,98.2124,78.6739,0.0142688,0.153495,20.8218,5.50483,1.98427,0.0,0.0
1064,265.75,63.0835,68.246,146.357,98.2524,80.556,0.0138517,0.153125,20.8225,5.45479,1.77643,0.0,0.0
1068,266.75,63.0327,68.2041,144.198,98.307,79.0088,0.0134345,0.153373,20.8223,5.42476,1.95488,0.0,0.0
1072,267.75,62.9098,67.8538,142.282,98.3335,78.5773,0.0128626,0.153854,20.822,5.37472,2.00628,0.0,0.0
1076,268.75,62.8969,67.863,144.6,98.3565,80.5127,0.0121136,0.154367,20.8218,5.36471,1.79071,0.0,0.0
1080,269.75,62.7647,67.5959,142.569,98.3925,79.2726,0.0116682,0.154725,20.8216,5.31467,1.93283,0.0,0.0
1084,270.75,62.6488,67.7956,137.265,98.4424,79.7115,0.0111987,0.154999,20.8218,5.28464,1.88798,0.0,0.0
1088,271.75,63.0322,67.8968,145.139,98.457,81.0821,0.0108304,0.155143,20.8224,5.24461,1.7368,0.0,0.0
1092,272.75,62.6845,67.394,143.205,98.4898,81.4295,0.0105836,0.155086,20.8229,5.21458,1.70155,0.0,0.0
1096,273.75,62.4892,67.7624,141.675,98.5235,80.2744,0.010436,0.155074,20.8231,5.17454,1.8324,0.0,0.0
1100,274.75,62.8105,67.4216,143.976,98.5714,79.9464,0.0103268,0.155243,20.8233,5.14452,1.87337,0.0,0.0
1104,275.75,62.4412,67.3829,146.213,98.5868,83.905,0.0102247,0.155393,20.8234,5.06445,1.44246,0.0,0.0
1108,276.75,62.3505,67.3657,144.317,98.6204,79.8197,0.0100269,0.155545,20.8235,5.02441,1.89201,0.0,0.0
1112,277.75,62.5058,67.2259,144.1,98.6489,83.3684,0.00975769,0.15558,20.8237,5.0144,1.50548,0.0,0.0
1116,278.75,62.4799,67.1604,144.922,98.6909,82.2307,0.00946781,0.155371,20.8244,4.98438,1.6322,0.0,0.0
1120,279.75,62.2687,67.0095,142.71,98.7237,82.588,0.00921456,0.154887,20.8252,4.93433,1.59639,0.0,0.0
1124,280.75,62.0988,66.7852,141.899,98.7463,82.8206,0.0089533,0.154243,20.8266,4.92432,1.57328,0.0,0.0
1128,281.75,62.2418,67.0751,143.39,98.7823,84.6649,0.00872752,0.153462,20.829,4.88429,1.37953,0.0,0.0
1132,282.75,61.921,66.7396,147.765,98.8171,85.2714,0.00852087,0.152647,20.8306,4.86427,1.31883,0.0,0.0
1136,283.75,62.3746,67.0963,142.98,98.8499,86.1217,0.00832179,0.152013,20.8316,4.87428,1.23304,0.0,0.0
1140,284.75,62.4292,66.4567,143.777,98.8626,84.7348,0.00812831,0.151372,20.8331,4.84425,1.37941,0.0,0.0
1144,285.75,62.2249,66.7413,147.278,98.8867,86.8939,0.00795233,0.150501,20.8349,4.81423,1.15652,0.0,0.0
1148,286.75,62.2378,66.6716,140.24,98.9125,85.5039,0.00775785,0.149505,20.8362,4.7842,1.30309,0.0,0.0
1152,287.75,62.1654,66.7436,145.009,98.9524,86.1155,0.00756596,0.148429,20.8377,4.71414,1.24296,0.0,0.0
1156,288.75,61.9183,66.4131,142.563,98.9706,87.2543,0.00738321,0.147369,20.8402,4.72415,1.12708,0.0,0.0
1160,289.75,61.918,66.1837,149.404,99.0059,87.2118,0.00720972,0.14646,20.8422,4.71414,1.13462,0.0,0.0
1164,290.75,61.4016,65.8761,144.266,99.0233,86.8456,0.00703991,0.145585,20.844,4.69412,1.17383,0.0,0.0
1168,291.75,61.5105,66.2685,142.176,99.0379,88.0301,0.00688547,0.144886,20.846,4.68411,1.05398,0.0,0.0
1172,292.75,61.8174,66.0833,143.323,99.062,89.7909,0.00673294,0.144326,20.8476,4.6641,0.878994,0.0,0.0
1176,293.75,61.6212,65.7435,142.617,99.0854,89.1778,0.00659407,0.143532,20.8487,4.64408,0.942389,0.0,0.0
1180,294.75,61.4708,65.6403,141.605,99.1139,89.5943,0.00642735,0.14266,20.8509,4.63407,0.903284,0.0,0.0
1184,295.75,61.432,65.9714,139.362,99.1206,89.2373,0.00628607,0.141963,20.8524,4.59404,0.939602,0.0,0.0
1188,296.75,61.1522,65.7228,141.661,99.1345,91.155,0.00616335,0.141308,20.8534,4.554,0.750657,0.0,0.0
1192,297.75,61.3751,65.3099,142.036,99.1503,90.1579,0.00605931,0.14077,20.8546,4.56401,0.85047,0.0,0.0
1196,298.75,61.1437,65.5543,144.85,99.1748,91.1921,0.00591158,0.14033,20.8556,4.56401,0.75066,0.0,0.0
1200,299.75,61.1459,65.4318,143.691,99.1966,91.0217,0.00573991,0.139925,20.8565,4.51396,0.76935,0.0,0.0
1204,300.75,61.2718,65.3902,145.816,99.1926,91.3794,0.00554999,0.139593,20.8571,4.51396,0.733904,0.0,0.0
1208,301.75,60.9956,65.4446,144.391,99.2013,91.5938,0.0053701,0.139376,20.8575,4.53398,0.713726,0.0,0.0
1212,302.75,61.0698,64.7949,140.468,99.1986,91.7337,0.00522703,0.139234,20.8586,4.46392,0.699829,0.0,0.0
1216,303.75,61.1868,65.182,141.267,99.2148,92.9587,0.00512025,0.138841,20.8601,4.43389,0.582626,0.0,0.0
1220,304.75,61.3608,65.2662,146.423,99.2298,93.8198,0.00503004,0.138227,20.8611,4.41388,0.501501,0.0,0.0
1224,305.75,60.9988,65.26,146.447,99.2294,94.6879,0.0049464,0.137414,20.8625,4.41388,0.41908,0.0,0.0
1228,306.75,60.695,65.0564,143.01,99.2235,94.205,0.00487749,0.136639,20.8642,4.42389,0.464282,0.0,0.0
1232,307.75,60.9196,64.4218,142.687,99.2195,94.886,0.00478037,0.136032,20.866,4.40387,0.399485,0.0,0.0
1236,308.75,60.7598,65.0065,141.702,99.2263,94.069,0.00463008,0.135589,20.8673,4.39386,0.477453,0.0,0.0
1240,309.75,60.9055,64.9965,142.56,99.2211,95.0116,0.00446717,0.135216,20.8684,4.34382,0.387798,0.0,0.0
1244,310.75,60.6561,64.5623,148.979,99.216,95.1402,0.00430466,0.134904,20.8699,4.34382,0.375231,0.0,0.0
1248,311.75,60.3519,64.7327,144.983,99.2152,96.0844,0.00417856,0.134525,20.8714,4.30378,0.286825,0.0,0.0
1252,312.75,59.8242,64.9414,144.307,99.2013,95.3728,0.00408651,0.134177,20.8724,4.30378,0.352071,0.0,0.0
1256,313.75,59.7731,64.1181,142.513,99.1907,96.3262,0.00403301,0.133667,20.8731,4.27375,0.262127,0.0,0.0
1260,314.75,59.9642,65.2676,141.552,99.1768,96.6252,0.00400867,0.133067,20.8736,4.25374,0.233153,0.0,0.0
1264,315.75,60.1214,64.6142,147.656,99.1641,96.3471,0.00402462,0.132476,20.8739,4.31379,0.257798,0.0,0.0
1268,316.75,60.4369,64.3346,141.924,99.1487,95.2847,0.00405993,0.131734,20.8749,4.31379,0.35559,0.0,0.0
1272,317.75,60.115,63.7764,143.929,99.1329,96.174,0.00412034,0.131023,20.8762,4.33381,0.271062,0.0,0.0
1276,318.75,60.0217,64.1623,144.695,99.1159,96.5329,0.00419505,0.130336,20.8778,4.31379,0.236207,0.0,0.0
1280,319.75,59.5164,64.151,145.433,99.0874,97.9673,0.00427343,0.129405,20.8794,4.27375,0.101693,0.0,0.0
1284,320.75,59.7858,63.8709,145.319,99.0573,97.6683,0.00432381,0.12822,20.8816,4.28376,0.126321,0.0,0.0
1288,321.75,59.9562,63.4668,142.445,99.0351,97.88,0.0043641,0.126979,20.8831,4.27375,0.104951,0.0,0.0
1292,322.75,59.808,63.4628,149.558,99.0154,98.067,0.00436393,0.125508,20.8854,4.28376,0.0860934,0.0,0.0
1296,323.75,59.441,63.7145,147.095,98.9817,98.6831,0.00434827,0.1244,20.8876,4.27375,0.0270246,0.0,0.0
1300,324.75,58.9495,63.1819,142.921,98.9655,98.8114,0.00434437,0.123005,20.8899,4.26374,0.0139393,0.0,0.0
1304,325.75,58.5765,62.7656,146.809,98.9287,98.8415,0.00436438,0.121677,20.8929,4.23372,0.00788444,0.0,0.0
1308,326.75,58.6555,62.5124,146.669,98.9014,98.4834,0.00439462,0.120507,20.8957,4.25374,0.0378845,0.0,0.0
1312,327.75,58.3412,62.2382,149.476,98.8614,98.6743,0.0044364,0.119408,20.8982,4.25374,0.0169509,0.0,0.0
1316,328.75,58.6602,62.1014,145.804,98.8317,98.6051,0.00447246,0.11822,20.9004,4.20369,0.020536,0.0,0.0
1320,329.75,58.2828,62.2768,149.903,98.7969,99.4863,0.00450087,0.117036,20.9022,4.20369,-0.062201,0.0,0.0
1324,330.75,58.2374,62.0714,145.78,98.7641,99.3967,0.00451509,0.116057,20.9033,4.2137,-0.0571137,0.0,0.0
1328,331.75,58.6348,62.1657,144.633,98.7336,97.3948,0.00450312,0.115328,20.9041,4.18367,0.122129,0.0,0.0
1332,332.75,58.4128,61.7265,149.248,98.7008,97.7502,0.00447807,0.114713,20.9046,4.17367,0.0865687,0.0,0.0
1336,333.75,58.1414,61.8595,145.198,98.6687,98.4,0.00445322,0.114195,20.9057,4.15365,0.0243961,0.0,0.0
1340,334.75,57.34,61.8409,147.286,98.6351,97.4956,0.00443914,0.113793,20.9063,4.15365,0.103941,0.0,0.0
1344,335.75,57.7232,61.5212,141.589,98.6018,98.8833,0.00442094,0.113341,20.9068,4.15365,-0.0254958,0.0,0.0
1348,336.75,58.0117,61.1951,149.671,98.5729,98.1404,0.0044076,0.112944,20.9072,4.14364,0.0393412,0.0,0.0
1352,337.75,58.0909,61.5196,143.193,98.5448,98.3698,0.00440543,0.112669,20.9071,4.13363,0.0159003,0.0,0.0
1356,338.75,57.8165,60.9135,145.75,98.5239,97.6617,0.00442155,0.11229,20.9076,4.1036,0.0786222,0.0,0.0
1360,339.75,57.4887,60.6919,145.218,98.495,99.1421,0.00442774,0.111851,20.9086,4.14364,-0.0585777,0.0,0.0
1364,340.75,57.7595,61.077,150.548,98.4673,98.7225,0.00439035,0.111312,20.9095,4.13363,-0.0231589,0.0,0.0
1368,341.75,56.995,60.8236,147.938,98.4566,97.6918,0.00430867,0.110759,20.9105,4.13363,0.0697525,0.0,0.0
1372,342.75,57.4031,60.893,143.633,98.4245,98.6499,0.00421783,0.110205,20.9119,4.13363,-0.0204598,0.0,0.0
1376,343.75,57.1632,60.3653,151.927,98.4119,98.755,0.00408822,0.109615,20.9128,4.13363,-0.0311339,0.0,0.0
1380,344.75,56.8901,60.1537,143.155,98.4431,98.2887,0.00396164,0.109105,20.914,4.11361,0.0140437,0.0,0.0
1384,345.75,57.2867,60.7518,146.152,98.5065,98.1052,0.00382834,0.108537,20.9149,4.0936,0.0365114,0.0,0.0
1388,346.75,56.7127,60.305,145.646,98.5595,97.9445,0.00368413,0.108038,20.9156,4.08359,0.055991,0.0,0.0
1392,347.75,56.95,60.3935,146.523,98.6109,99.2116,0.00352191,0.107489,20.9166,4.0936,-0.0543265,0.0,0.0
1396,348.75,56.7627,59.6046,142.042,98.6505,98.6549,0.00334141,0.106836,20.9174,4.07358,-0.000402563,0.0,0.0
1400,349.75,56.9633,60.3936,145.401,98.6901,99.1185,0.00315689,0.106175,20.9184,4.06357,-0.0387503,0.0,0.0
1404,350.75,56.8957,60.3834,147.184,98.7534,98.4127,0.00293909,0.10556,20.9194,4.06357,0.0309117,0.0,0.0
1408,351.75,56.3897,60.1853,147.672,98.7819,99.1467,0.00274353,0.105077,20.9201,4.05356,-0.0329784,0.0,0.0
1412,352.75,56.2,59.4837,145.38,98.8175,98.0755,0.00257214,0.104725,20.9202,4.05356,0.0674244,0.0,0.0
1416,353.75,56.6277,59.5865,145.797,98.8397,99.0154,0.00243151,0.104321,20.9203,4.04355,-0.0158891,0.0,0.0
1420,354.75,56.13,59.6637,147.643,98.8705,98.3926,0.00231107,0.1039,20.9204,4.03354,0.0433418,0.0,0.0
1424,355.75,56.9643,60.2711,145.541,98.9053,97.637,0.00218656,0.103542,20.9204,4.03354,0.115456,0.0,0.0
1428,356.75,56.2513,60.0825,148.416,98.9049,98.242,0.00205883,0.10326,20.9209,4.06357,0.0601643,0.0,0.0
1432,357.75,56.3901,59.977,145.291,98.9164,99.9545,0.00193878,0.103024,20.9215,4.04355,-0.0933882,0.0,0.0
1436,358.75,56.0332,59.8897,148.287,98.9243,99.2302,0.00182975,0.102821,20.9219,4.04355,-0.0276124,0.0,0.0
1440,359.75,56.4995,59.7482,144.836,98.9251,98.1485,0.00174615,0.102654,20.9222,4.06357,0.0705058,0.0,0.0
1444,360.75,56.8949,59.8255,147.252,98.9231,98.8071,0.0016775,0.102519,20.9229,4.05356,0.0104965,0.0,0.0
1448,361.75,56.4204,59.6618,140.247,98.9089,98.7345,0.00162382,0.102382,20.9233,4.04355,0.0157843,0.0,0.0
1452,362.75,56.157,59.5929,144.541,98.8923,99.3886,0.00156648,0.102224,20.9237,4.05356,-0.0447788,0.0,0.0
1456,363.75,56.2409,59.7369,146.26,98.8919,99.0946,0.00150595,0.10203,20.9243,4.04355,-0.0183149,0.0,0.0
1460,364.75,56.025,59.4478,143.584,98.8776,98.2339,0.0014105,0.10181,20.9253,4.03354,0.0584323,0.0,0.0
1464,365.75,56.2349,59.1795,145.931,98.8582,98.1713,0.00130266,0.101648,20.926,4.04355,0.0623788,0.0,0.0
1468,366.75,55.7158,59.5244,149.726,98.8179,98.8655,0.00120182,0.101493,20.9264,4.02353,-0.00430703,0.0,0.0
1472,367.75,56.2578,59.3244,149.296,98.7965,98.2729,0.00112128,0.101372,20.9267,4.02353,0.0475379,0.0,0.0
1476,368.75,55.5482,59.438,143.403,98.7581,99.0413,0.00107067,0.101229,20.9268,4.01353,-0.0256076,0.0,0.0
1480,369.75,56.1241,59.0747,147.011,98.7253,98.1914,0.00104663,0.101043,20.927,4.01353,0.0485095,0.0,0.0
1484,370.75,55.5634,59.0134,145.65,98.6782,98.0361,0.00104379,0.100803,20.9276,4.03354,0.0584016,0.0,0.0
1488,371.75,55.8886,58.8999,147.701,98.6347,97.7587,0.00104192,0.100658,20.9283,4.02353,0.0797997,0.0,0.0
1492,372.75,55.8915,58.9351,149.692,98.5856,98.3567,0.00104546,0.100587,20.9286,3.9835,0.0207934,0.0,0.0
1496,373.75,55.8638,59.1045,150.932,98.5401,98.7747,0.00105998,0.100573,20.9286,3.99351,-0.0212716,0.0,0.0
1500,374.75,55.7841,58.6763,145.887,98.4736,98.711,0.0010834,0.100616,20.9286,4.00352,-0.0215345,0.0,0.0
1504,375.75,55.8201,58.78,149.971,98.415,97.1564,0.00110098,0.100618,20.9286,4.01353,0.11514,0.0,0.0
1508,376.75,55.5588,58.6397,148.639,98.3553,98.4969,0.00110962,0.100619,20.9286,4.00352,-0.0128728,0.0,0.0
1512,377.75,55.6967,59.0171,139.279,98.2758,97.3349,0.00110451,0.100542,20.9286,3.9835,0.0860522,0.0,0.0
1516,378.75,55.1801,58.794,148.938,98.2041,97.8201,0.00108392,0.100413,20.9286,3.99351,0.0350489,0.0,0.0
1520,379.75,55.3814,57.7851,145.463,98.1412,97.9298,0.00104025,0.100274,20.9292,3.9835,0.0192879,0.0,0.0
1524,380.75,55.1128,58.1899,149.537,98.0371,98.9385,0.000990066,0.100151,20.9298,4.00352,-0.0818674,0.0,0.0
1528,381.75,55.2982,58.4706,146.531,98.0288,97.467,0.000957141,0.100032,20.9302,3.97349,0.0514151,0.0,0.0
1532,382.75,54.9276,58.5434,148.12,98.0415,98.4622,0.000940548,0.100046,20.9296,3.96348,-0.0382999,0.0,0.0
1536,383.75,54.6791,57.9958,144.88,98.0609,97.598,0.000941878,0.100162,20.9291,3.96348,0.0423273,0.0,0.0
1540,384.75,54.7803,58.1934,144.661,98.0795,98.7225,0.000934266,0.100271,20.9287,3.95347,-0.0584585,0.0,0.0
1544,385.75,55.5028,58.8735,145.462,98.087,97.8696,0.000913906,0.100245,20.9284,3.95347,0.0198529,0.0,0.0
1548,386.75,55.2096,58.1835,149.846,98.1179,98.5727,0.000882817,0.100167,20.9283,3.95347,-0.0413671,0.0,0.0
1552,387.75,54.5858,58.0263,146.348,98.1333,98.1605,0.000859812,0.100029,20.9282,3.93345,-0.00247485,0.0,0.0
1556,388.75,55.3911,58.0573,149.125,98.1483,97.9383,0.000836055,0.100012,20.9281,3.94346,0.0191613,0.0,0.0
1560,389.75,55.2507,58.1643,144.809,98.165,96.3343,0.000813562,0.10005,20.9283,3.96348,0.168391,0.0,0.0
1564,390.75,55.4748,58.2248,148.097,98.1954,97.462,0.000786484,0.0999724,20.929,3.96348,0.0670645,0.0,0.0
1568,391.75,54.6251,57.6036,146.741,98.2128,98.4247,0.000750414,0.0998521,20.9294,3.94346,-0.0192751,0.0,0.0
1572,392.75,55.3635,58.4093,147.36,98.2235,98.2887,0.000711696,0.0997731,20.9297,3.90343,-0.00593524,0.0,0.0
1576,393.75,54.9637,58.2279,146.021,98.2457,98.2779,0.000686289,0.0996633,20.93,3.90343,-0.00293246,0.0,0.0
1580,394.75,55.4981,58.07,146.814,98.2568,98.2141,0.000667923,0.099508,20.9304,3.90343,0.00387967,0.0,0.0
1584,395.75,54.8402,57.6527,146.066,98.2801,97.9912,0.000657112,0.0993161,20.9311,3.93345,0.0263303,0.0,0.0
1588,396.75,54.4496,58.3487,144.574,98.2955,98.6414,0.000663376,0.0991045,20.9317,3.92345,-0.0314212,0.0,0.0
1592,397.75,55.4293,57.8733,144.676,98.305,97.2101,0.000678499,0.0989871,20.9323,3.92345,0.100193,0.0,0.0
1596,398.75,55.1893,58.6164,147.089,98.3288,98.4486,0.000721408,0.0989693,20.9327,3.91344,-0.010898,0.0,0.0
1600,399.75,54.9207,58.385,147.187,98.3383,97.8835,0.000752185,0.0989738,20.9329,3.90343,0.0414686,0.0,0.0
1604,400.75,54.4924,58.4429,151.576,98.364,99.6304,0.000752038,0.098929,20.9331,3.90343,-0.114432,0.0,0.0
1608,401.75,54.9798,58.444,146.166,98.3933,97.9236,0.000729607,0.0989402,20.9332,3.91344,0.0427995,0.0,0.0
1612,402.75,54.954,58.3211,147.915,98.4032,99.2769,0.000708789,0.0990577,20.9332,3.8734,-0.0790763,0.0,0.0
1616,403.75,55.0129,58.2917,144.954,98.417,98.7388,0.000716638,0.0992136,20.9333,3.91344,-0.0291967,0.0,0.0
1620,404.75,55.2245,58.3338,143.568,98.4443,99.3445,0.000744375,0.0993508,20.9333,3.91344,-0.0814251,0.0,0.0
1624,405.75,55.383,58.3302,145.025,98.4574,97.992,0.00078087,0.0994325,20.9333,3.90343,0.0423814,0.0,0.0
1628,406.75,54.7804,58.0183,148.236,98.4657,98.009,0.000761779,0.0994181,20.9328,3.90343,0.0415843,0.0,0.0
1632,407.75,54.6844,58.3844,144.815,98.4906,98.9605,0.000706247,0.0992695,20.9322,3.88341,-0.0425756,0.0,0.0
1636,408.75,54.8031,58.2205,144.232,98.4831,98.6484,0.000644024,0.0991178,20.9319,3.88341,-0.0149982,0.0,0.0
1640,409.75,54.6395,58.444,144.03,98.4985,97.0228,0.000616093,0.0989459,20.9317,3.86339,0.135041,0.0,0.0
1644,410.75,54.8967,57.9108,144.798,98.5017,98.7407,0.000625712,0.098728,20.9321,3.88341,-0.0216772,0.0,0.0
1648,411.75,54.8776,58.1507,143.743,98.5243,98.5545,0.000657444,0.0984168,20.9326,3.86339,-0.00274472,0.0,0.0
1652,412.75,54.8084,57.5048,144.021,98.533,98.7009,0.000686797,0.0980522,20.9329,3.91344,-0.0152332,0.0,0.0
1656,413.75,54.898,58.065,144.85,98.5571,98.0341,0.000697756,0.0976579,20.9331,3.92345,0.0475931,0.0,0.0
1660,414.75,54.5425,57.928,143.866,98.5555,99.8425,0.000672965,0.0972081,20.9341,3.90343,-0.116053,0.0,0.0
1664,415.75,54.9632,57.8315,145.582,98.5627,98.7465,0.000628908,0.0966193,20.9354,3.8734,-0.01667,0.0,0.0
1668,416.75,54.9494,58.115,148.036,98.567,98.4683,0.00060043,0.0961751,20.9363,3.8734,0.00895833,0.0,0.0
1672,417.75,55.0555,58.3225,146.324,98.5793,98.1983,0.000593939,0.0958681,20.9369,3.88341,0.0346357,0.0,0.0
1676,418.75,55.3497,58.0806,145.241,98.5808,97.2796,0.000620176,0.0956937,20.9378,3.8734,0.118859,0.0,0.0
1680,419.75,54.4897,57.5288,149.235,98.5848,98.121,0.000665935,0.0955201,20.9387,3.84338,0.0421797,0.0,0.0
1684,420.75,54.7812,57.9838,144.561,98.5888,98.2389,0.00071669,0.0953191,20.9392,3.84338,0.0318033,0.0,0.0
1688,421.75,54.451,57.7778,146.073,98.5844,98.823,0.000765968,0.0951352,20.9396,3.86339,-0.0216211,0.0,0.0
1692,422.75,54.8679,57.6701,144.778,98.5892,98.6329,0.000799797,0.0948922,20.9403,3.89342,-0.00396937,0.0,0.0
1696,423.75,54.7021,57.5318,144.31,98.59,97.9677,0.00081678,0.0947083,20.9411,3.89342,0.0566396,0.0,0.0
1700,424.75,54.5853,57.9369,145.886,98.5907,98.3853,0.000824069,0.0946121,20.9416,3.89342,0.0186601,0.0,0.0
1704,425.75,54.4059,57.8946,147.514,98.5955,97.8263,0.000833162,0.0945419,20.9418,3.88341,0.0700625,0.0,0.0
1708,426.75,54.7393,57.9052,142.434,98.5998,98.3401,0.000852043,0.0944785,20.9418,3.89342,0.0235974,0.0,0.0
1712,427.75,54.2184,57.3167,147.903,98.6034,98.5441,0.000860125,0.094397,20.9418,3.8734,0.0053846,0.0,0.0
1716,428.75,54.4764,57.7516,146.769,98.5975,98.5611,0.000852287,0.0943469,20.9418,3.91344,0.00330406,0.0,0.0
1720,429.75,54.5545,58.3327,144.372,98.6086,98.0279,0.000812594,0.094363,20.9421,3.90343,0.0528251,0.0,0.0
1724,430.75,53.8548,57.1199,149.328,98.6018,99.2757,0.000784013,0.0944083,20.9423,3.89342,-0.0609319,0.0,0.0
1728,431.75,54.4095,57.5626,143.671,98.6145,99.3379,0.00076815,0.0944958,20.9424,3.90343,-0.0653854,0.0,0.0
1732,432.75,54.2489,57.5671,145.429,98.5994,98.0202,0.000759893,0.0945688,20.9425,3.85338,0.0527053,0.0,0.0
1736,433.75,54.5331,57.6772,150.951,98.6062,98.8871,,0.0945974,,3.84338,-0.0254498,0.0,0.0
1740,434.75,54.6215,57.7258,144.443,98.5987,99.3225,,0.0945299,,3.76331,-0.06543,0.0,0.0
1744,435.75,54.2067,57.6133,147.242,98.5994,98.0774,,0.0944199,,3.76331,0.0474892,0.0,0.0
1748,436.75,54.4872,57.5725,144.454,98.6022,98.4394,,,,3.82336,0.0147858,0.0,0.0
1752,437.75,54.3029,57.6092,146.591,98.6188,98.2821,,,,3.83337,0.0305929,0.0,0.0
1756,438.75,54.656,57.563,143.487,98.601,97.9542,,,,3.79333,0.0588793,0.0,0.0
1760,439.75,54.4361,57.4258,150.482,98.5967,99.3109,,,,3.79333,-0.0645659,0.0,0.0
1764,440.75,54.4217,58.0413,145.323,98.6101,98.6337,,,,3.79333,-0.00213619,0.0,0.0
1768,441.75,54.4885,57.7519,147.924,98.5943,98.349,,,,3.80334,0.022286,0.0,0.0
1772,442.75,54.46,57.8293,144.597,98.605,98.3285,,,,3.82336,0.0251182,0.0,0.0
1776,443.75,54.5527,58.1147,147.345,98.6129,99.5137,,,,3.82336,-0.0813428,0.0,0.0
1779,444.5,53.6882,57.9566,145.095,98.5923,98.5537,,,,3.79333,0.0035034,0.0,0.0