File: 01_Data/PVC/Cone/PVC_Cone_HF75Scan_220210_R3.csv
Names,Time,Stack TC,Smoke TC,Exh Press,Smoke Comp,Smoke Meas,CO Meter,CO2 Meter,O2 Meter,Sample Mass,Ext Coeff,Start Test,Flame Verif
Chan Gain,,500,500,1,1,1,1,1,1,1,1,1.0,1.0
Offset,,0,0,0.140898,0,0,0,0,0,0,0,0.0,0.0
Gain,,1,1,25.011,12.9668,12.6588,1,1,1,1.00088,1.01977,1.0,1.0
Units,sec,C,C,Pa,%,%,%,%,%,g,/m,,
Baseline,,48.3095,51.135,149.746,98.4185,98.5487,-0.000260341,0.0654588,20.9773,-871.876,-0.0116756,,
4,0.75,46.2899,48.7574,153.26,98.5401,99.5566,-0.00025441,0.070213,20.9669,41.4064,-0.0918049,0.0,0.0
8,1.75,46.5044,48.7481,147.679,98.5334,99.4542,-0.000262913,0.0703831,20.9671,41.6466,-0.0832127,0.0,0.0
12,2.75,45.9299,48.2364,149.772,98.5413,99.4863,-0.000279203,0.0704775,20.9672,41.3863,-0.085377,0.0,0.0
16,3.75,46.4251,48.8361,146.901,98.5504,98.5951,-0.000292034,0.0704443,20.9673,41.4064,-0.00405418,0.0,0.0
20,4.75,46.0572,48.827,148.826,98.5583,99.0691,-0.000300453,0.0704606,20.968,41.4564,-0.0462392,0.0,0.0
24,5.75,45.5685,48.7518,148.566,98.5528,98.7983,-0.000299548,0.0705217,20.9686,41.4264,-0.0222561,0.0,0.0
28,6.75,46.8702,49.2376,144.711,98.5674,98.7484,-0.000290385,0.070559,20.969,41.4264,-0.0164142,0.0,0.0
32,7.75,46.4369,49.2948,145.822,98.5718,98.0349,-0.000274903,0.070471,20.9692,41.4164,0.0488531,0.0,0.0
36,8.75,46.3405,49.2888,150.085,98.5808,98.2609,-0.000241686,0.0703382,20.9694,41.3763,0.0290805,0.0,0.0
40,9.75,46.9026,49.6619,151.181,98.5725,99.62,-0.000207427,0.0702007,20.9695,41.3663,-0.0945505,0.0,0.0
44,10.75,47.1376,49.2205,150.537,98.5824,98.7975,-3.45511e-05,0.0700933,20.9699,41.3463,-0.0194931,0.0,0.0
48,11.75,46.1089,49.2618,146.099,98.5998,98.2713,0.00035339,0.0700713,20.9702,41.3663,0.0298543,0.0,0.0
52,12.75,46.9791,49.3063,145.899,98.5785,97.7714,0.00102183,0.070282,20.9698,41.2863,0.0735354,0.0,0.0
56,13.75,46.8675,49.8915,146.811,98.5793,91.0955,0.00220982,0.0709694,20.9671,41.1862,0.706258,0.0,0.0
60,14.75,46.8426,49.4526,149.471,98.5741,90.5203,0.00336604,0.0737224,20.962,40.986,0.762457,0.0,0.0
64,15.75,47.4166,49.8644,145.332,98.5638,85.2691,0.00551344,0.0807192,20.95,40.8058,1.29612,0.0,0.0
68,16.75,47.2008,50.644,138.875,98.5571,86.5366,0.00816292,0.0947414,20.928,40.5656,1.16351,0.0,0.0
72,17.75,47.9307,50.8254,147.119,98.5532,82.8963,0.0116038,0.110335,20.9018,40.3154,1.54759,0.0,0.0
76,18.75,48.3035,51.2463,148.614,98.5492,81.9765,0.015785,0.127943,20.8668,40.0652,1.64705,0.0,0.0
80,19.75,49.0322,51.9869,140.493,98.5274,79.2352,0.0205042,0.152824,20.8143,39.815,1.94932,0.0,0.0
84,20.75,49.593,52.7917,129.384,98.5076,80.3675,0.0265728,0.183072,20.7617,39.4547,1.8206,0.0,0.0
88,21.75,50.2053,53.835,134.532,98.4997,68.329,0.032521,0.226002,20.6993,39.2345,3.27148,0.0,0.0
92,22.75,51.0704,55.1065,130.935,98.4788,56.4282,0.0396189,0.27532,20.6153,38.9842,4.98141,0.0,0.0
96,23.75,51.897,56.9049,135.598,98.4534,30.2374,0.0467266,0.321203,20.5369,38.6539,10.56,0.0,1.0
100,24.75,53.4128,58.1635,131.738,98.44,25.8801,0.0527088,0.36259,20.4588,38.4137,11.9507,0.0,1.0
104,25.75,54.1502,59.6436,125.366,98.417,21.3734,0.0573298,0.395689,20.3958,38.0834,13.6601,0.0,1.0
108,26.75,55.4068,60.4984,134.823,98.3909,23.5425,0.0605631,0.417534,20.3529,37.7331,12.7931,0.0,1.0
112,27.75,55.1239,60.9973,131.776,98.3688,25.6673,0.06259,0.430105,20.3247,37.4729,12.0181,0.0,0.0
116,28.75,55.9308,62.0887,130.956,98.343,28.8726,0.0631404,0.436774,20.3071,37.2127,10.9631,0.0,0.0
120,29.75,56.9392,63.2209,135.373,98.3015,48.9367,0.0625405,0.441688,20.2988,36.9625,6.23947,0.0,0.0
124,30.75,56.9209,63.7804,134.685,98.2773,66.45,0.0608561,0.446858,20.292,36.7823,3.5007,0.0,0.0
128,31.75,58.3385,64.6684,133.602,98.2488,77.6254,0.0585235,0.453643,20.2887,36.5521,2.1076,0.0,0.0
132,32.75,58.9019,65.8749,136.744,98.218,77.314,0.0564846,0.458375,20.2887,36.2218,2.14075,0.0,0.0
136,33.75,59.1225,66.9022,129.138,98.1867,75.4172,0.0547488,0.462951,20.2914,36.1417,2.3601,0.0,0.0
140,34.75,60.1645,67.4575,135.814,98.1436,72.9583,0.0535696,0.465883,20.2957,35.8915,2.65268,0.0,0.0
144,35.75,60.6289,68.1309,137.711,98.1072,70.769,0.0530243,0.468677,20.2985,35.7814,2.9219,0.0,0.0
148,36.75,61.4407,68.9265,130.667,98.0601,62.0641,0.0543009,0.472715,20.2997,35.3811,4.0917,0.0,0.0
152,37.75,61.7719,70.0682,132.709,98.0213,38.0827,0.0566415,0.477992,20.291,35.1008,8.45713,0.0,0.0
156,38.75,62.1437,70.4202,134.606,97.9952,29.3883,0.0594544,0.481178,20.2828,34.8306,10.7731,0.0,0.0
160,39.75,62.7375,70.928,129.491,97.954,22.2615,0.0621403,0.481846,20.2775,34.5103,13.2538,0.0,0.0
164,40.75,63.315,72.1733,129.752,97.9157,23.3081,0.0643884,0.477496,20.2746,34.2,12.8393,0.0,0.0
168,41.75,63.4835,72.1563,135.982,97.8682,26.2101,0.0659578,0.469322,20.2759,33.8898,11.7853,0.0,0.0
172,42.75,64.414,73.6637,136.023,97.8258,24.5829,0.0669239,0.457253,20.2792,33.6996,12.3547,0.0,0.0
176,43.75,64.9365,73.992,134.949,97.7811,25.5997,0.0673409,0.445594,20.2884,33.4093,11.9881,0.0,0.0
180,44.75,65.7509,74.3099,133.754,97.7491,27.0789,0.0672019,0.434061,20.3015,33.0991,11.4827,0.0,0.0
184,45.75,65.3691,74.8127,135.257,97.7123,28.4712,0.0665735,0.418976,20.3207,32.8789,11.0308,0.0,0.0
188,46.75,65.4659,75.1806,134.723,97.6794,31.0039,0.0656187,0.404576,20.3442,32.5786,10.2655,0.0,0.0
192,47.75,66.3371,75.9103,136.01,97.6434,30.3583,0.0644305,0.392579,20.3688,32.2984,10.4504,0.0,0.0
196,48.75,66.4418,76.1234,138.947,97.6007,33.0517,0.0630873,0.380534,20.3889,32.1082,9.6861,0.0,0.0
200,49.75,66.9091,76.6564,139.068,97.5785,28.8923,0.0617884,0.369448,20.4048,31.8179,10.8872,0.0,0.0
204,50.75,67.1538,77.1561,135.973,97.5429,31.0618,0.0602944,0.360848,20.4186,31.5877,10.2363,0.0,0.0
208,51.75,67.488,77.1997,134.636,97.5128,30.9927,0.0588097,0.353884,20.4304,31.3675,10.2534,0.0,0.0
212,52.75,67.6318,77.6602,130.208,97.4756,33.8545,0.0574947,0.347631,20.4413,31.0973,9.45996,0.0,0.0
216,53.75,67.6968,77.9422,134.333,97.4586,31.3516,0.0562228,0.341981,20.4524,30.8871,10.1455,0.0,0.0
220,54.75,68.0248,77.9856,134.705,97.4448,33.9824,0.0551724,0.336764,20.4628,30.6769,9.42341,0.0,0.0
224,55.75,68.5003,78.5534,131.335,97.402,30.1385,0.0542154,0.332311,20.4701,30.4267,10.4933,0.0,0.0
228,56.75,68.5658,78.5763,135.062,97.3775,33.4187,0.0534956,0.328835,20.476,30.1665,9.56684,0.0,0.0
232,57.75,68.5337,78.6469,138.516,97.3632,34.4239,0.0527417,0.326475,20.481,29.9863,9.30044,0.0,0.0
236,58.75,68.8283,78.9136,130.082,97.3589,33.1989,0.0520332,0.324939,20.4844,29.7161,9.62417,0.0,0.0
240,59.75,68.9705,79.1423,135.471,97.3375,35.9198,0.0513113,0.323531,20.4874,29.586,8.91758,0.0,0.0
244,60.75,69.384,79.4413,135.81,97.3375,35.8583,0.0506463,0.321456,20.494,29.3057,8.93289,0.0,0.0
248,61.75,69.6571,79.5136,131.464,97.3344,34.145,0.0498897,0.318774,20.4996,29.1056,9.37056,0.0,0.0
252,62.75,69.7755,79.4808,134.508,97.3419,34.3644,0.0492487,0.316008,20.5061,28.8453,9.31395,0.0,0.0
256,63.75,69.5818,79.296,137.016,97.3545,34.4475,0.048692,0.313032,20.5115,28.6352,9.29352,0.0,0.0
260,64.75,69.5451,79.447,134.87,97.3597,36.4158,0.0481059,0.310371,20.5155,28.415,8.79693,0.0,0.0
264,65.75,69.6422,80.1837,137.679,97.3632,33.824,0.0475793,0.308351,20.5185,28.2448,9.45771,0.0,0.0
268,66.75,70.6575,80.0667,136.631,97.383,36.9261,0.0470188,0.306845,20.5211,28.0346,8.67459,0.0,0.0
272,67.75,70.0316,79.6725,136.029,97.4068,36.1087,0.0465033,0.304882,20.5252,27.8144,8.87702,0.0,0.0
276,68.75,70.1435,80.399,133.704,97.4345,38.5633,0.0460233,0.3025,20.5298,27.6143,8.29124,0.0,0.0
280,69.75,69.9008,80.8605,134.708,97.4732,37.3414,0.0456444,0.300075,20.5333,27.4041,8.58283,0.0,0.0
284,70.75,70.5567,80.3736,135.916,97.499,36.8075,0.0451186,0.297829,20.5369,27.2339,8.71401,0.0,0.0
288,71.75,70.2592,80.6408,131.954,97.5381,38.9064,0.0445106,0.295655,20.5402,27.0538,8.22153,0.0,0.0
292,72.75,70.9225,80.4109,136.625,97.5777,41.1296,0.0438207,0.293603,20.5444,26.8035,7.72806,0.0,0.0
296,73.75,70.5383,80.7851,135.443,97.6272,41.2312,0.043154,0.291447,20.5485,26.6334,7.71052,0.0,0.0
300,74.75,70.6941,80.9542,134.245,97.6762,39.2649,0.0424825,0.28956,20.5523,26.4332,8.15214,0.0,0.0
304,75.75,70.8547,81.0899,138.258,97.7328,38.7101,0.0418682,0.287881,20.5557,26.243,8.2846,0.0,0.0
308,76.75,70.7014,80.8001,132.069,97.8009,41.3116,0.0413026,0.286268,20.559,26.0729,7.70901,0.0,0.0
312,77.75,70.9062,80.8788,135.954,97.8646,41.5511,0.0407621,0.284723,20.5627,25.8427,7.66312,0.0,0.0
316,78.75,70.932,80.7006,140.418,97.9441,39.8845,0.0403524,0.282942,20.5654,25.6225,8.03657,0.0,0.0
320,79.75,70.5938,80.7541,135.32,97.9992,40.3821,0.0400194,0.281384,20.5684,25.4423,7.93069,0.0,0.0
324,80.75,70.8232,80.9351,138.734,98.083,39.8953,0.039665,0.280228,20.5723,25.3022,8.04682,0.0,0.0
328,81.75,71.1043,80.6779,137.481,98.1353,45.145,0.0392549,0.279444,20.5748,25.082,6.94576,0.0,0.0
332,82.75,71.0487,81.0697,135.536,98.2085,40.9705,0.0387867,0.27852,20.5765,24.9019,7.82038,0.0,0.0
336,83.75,70.9354,81.1193,133.869,98.2813,40.8523,0.03839,0.276844,20.5793,24.7818,7.85286,0.0,0.0
340,84.75,70.8668,80.9729,139.622,98.3695,42.6907,0.0380147,0.275203,20.583,24.6016,7.46711,0.0,0.0
344,85.75,71.1057,80.8759,141.361,98.4245,44.9256,0.0377476,0.273608,20.5866,24.3914,7.01567,0.0,0.0
348,86.75,71.0944,80.91,140.187,98.4859,45.8292,0.0376336,0.272712,20.5889,24.2013,6.84311,0.0,0.0
352,87.75,70.4534,81.2563,137.547,98.5559,44.9472,0.0376127,0.272255,20.5904,24.0511,7.0233,0.0,0.0
356,88.75,70.8026,81.0656,135.954,98.6157,43.4224,0.0376299,0.272116,20.5914,23.8409,7.33745,0.0,0.0
360,89.75,71.0301,81.2022,134.946,98.6778,45.9725,0.0376031,0.272292,20.5921,23.6508,6.8326,0.0,0.0
364,90.75,70.9622,81.3514,138.172,98.738,45.1245,0.0375031,0.272441,20.5925,23.4806,7.00459,0.0,0.0
368,91.75,70.8549,81.1869,135.766,98.7791,47.748,0.0372687,0.27212,20.5934,23.3005,6.5028,0.0,0.0
372,92.75,70.6982,80.684,136.838,98.8424,47.8446,0.0369606,0.271504,20.5954,23.1703,6.49046,0.0,0.0
376,93.75,71.3541,80.9498,139.486,98.8951,48.1374,0.0367103,0.270039,20.5976,23.0302,6.44064,0.0,0.0
380,94.75,71.0228,81.0394,138.048,98.9489,48.5373,0.0362832,0.26803,20.6021,22.8501,6.37151,0.0,0.0
384,95.75,71.0451,80.9869,136.032,98.9805,53.717,0.035939,0.265747,20.6067,22.6999,5.46733,0.0,0.0
388,96.75,70.6967,80.5402,138.592,99.0312,51.4424,0.035732,0.263932,20.611,22.5498,5.85895,0.0,0.0
392,97.75,70.638,80.788,138.598,99.07,53.4327,0.0356612,0.262136,20.6139,22.3997,5.52289,0.0,0.0
396,98.75,70.9122,80.5928,138.505,99.1048,50.9475,0.0357914,0.260846,20.6158,22.2295,5.95207,0.0,0.0
400,99.75,70.8549,80.493,136.495,99.123,53.3469,0.0360112,0.259989,20.617,22.1294,5.54204,0.0,0.0
404,100.75,70.8097,80.2322,139.424,99.1455,54.2721,0.0362598,0.259426,20.6176,21.9393,5.39026,0.0,0.0
408,101.75,70.669,80.6605,141.574,99.1697,51.9905,0.0365172,0.25944,20.6174,21.7891,5.77663,0.0,0.0
412,102.75,70.7788,80.1381,139.361,99.1819,54.5839,0.0367169,0.259829,20.6173,21.649,5.34231,0.0,0.0
416,103.75,70.8725,80.2274,140.637,99.1859,55.3059,0.0369024,0.26018,20.6169,21.5189,5.22511,0.0,0.0
420,104.75,70.4038,79.9083,136.128,99.1903,56.0407,0.0370275,0.260308,20.6164,21.3287,5.10744,0.0,0.0
424,105.75,71.0233,80.0409,135.615,99.1843,58.6255,0.0370743,0.260384,20.6161,21.1686,4.70354,0.0,0.0
428,106.75,70.65,79.9946,135.236,99.1685,60.0653,0.037085,0.260415,20.6159,21.0285,4.48508,0.0,0.0
432,107.75,70.7991,80.1467,135.988,99.1622,60.2859,0.0370664,0.260462,20.6158,20.9184,4.45172,0.0,0.0
436,108.75,71.041,80.0674,137.688,99.1321,62.6355,0.0370006,0.260613,20.6165,20.8083,4.10699,0.0,0.0
440,109.75,70.5807,80.2275,141.65,99.1107,62.5602,0.0368732,0.260331,20.6182,20.6481,4.11583,0.0,0.0
444,110.75,70.4413,80.047,133.337,99.068,56.8025,0.0367106,0.258775,20.6221,20.478,4.97563,0.0,0.0
448,111.75,70.9847,79.4316,138.309,99.0252,59.6018,0.0365532,0.256571,20.6254,20.3679,4.54145,0.0,0.0
452,112.75,70.428,79.6245,135.727,98.9809,60.1816,0.0363738,0.254907,20.6275,20.2578,4.45084,0.0,0.0
456,113.75,70.5683,79.1927,132.971,98.9465,59.8386,0.0362003,0.254129,20.6289,20.0876,4.49887,0.0,0.0
460,114.75,70.3198,79.7817,137.862,98.8903,60.3999,0.0360197,0.253829,20.6298,19.9375,4.41026,0.0,0.0
464,115.75,70.6789,79.6905,134.843,98.8234,61.8007,0.03571,0.253611,20.6297,19.8474,4.19912,0.0,0.0
468,116.75,71.024,79.157,136.779,98.7842,62.9596,0.0355346,0.253823,20.6296,19.6673,4.02938,0.0,0.0
472,117.75,70.1196,79.7282,140.277,98.7312,61.5314,0.0352118,0.254178,20.6301,19.5572,4.22983,0.0,0.0
476,118.75,69.82,80.1957,137.927,98.6715,62.9307,0.034999,0.254209,20.6305,19.4571,4.02328,0.0,0.0
480,119.75,70.6478,79.3763,137.831,98.6295,60.1221,0.0345336,0.253728,20.6316,19.327,4.42788,0.0,0.0
484,120.75,70.4751,79.4324,138.47,98.5812,60.8214,0.0339518,0.252661,20.633,19.1969,4.32006,0.0,0.0
488,121.75,70.4,79.3295,138.154,98.5227,64.5698,0.0333106,0.251637,20.6356,19.0768,3.77976,0.0,0.0
492,122.75,70.6493,79.2854,138.042,98.4847,63.6028,0.0326759,0.250452,20.6382,19.0067,3.91128,0.0,0.0
496,123.75,70.1579,79.033,141.113,98.436,68.5705,0.032118,0.249378,20.6406,18.7865,3.23414,0.0,0.0
500,124.75,69.9216,79.206,138.467,98.404,64.2855,0.0315656,0.24859,20.643,18.6864,3.80846,0.0,0.0
504,125.75,69.9846,79.2837,138.755,98.3735,67.4278,0.0310097,0.248014,20.6445,18.6464,3.37878,0.0,0.0
508,126.75,70.2336,79.1425,137.456,98.381,65.6592,0.0305929,0.247395,20.6456,18.4862,3.61723,0.0,0.0
512,127.75,70.0049,78.8228,138.07,98.4827,67.4166,0.0300748,0.246509,20.6489,18.3461,3.39019,0.0,0.0
516,128.75,70.2143,78.8152,139.682,98.5789,65.6198,0.0295845,0.245663,20.6517,18.236,3.64057,0.0,0.0
520,129.75,70.1418,78.7867,141.004,98.6461,67.4683,0.0291447,0.244813,20.655,18.0859,3.39816,0.0,0.0
524,130.75,70.1281,78.9431,136.14,98.711,67.7303,0.0287284,0.243987,20.6574,18.0158,3.36938,0.0,0.0
528,131.75,69.5263,78.4146,136.951,98.7601,67.697,0.0283471,0.243467,20.6595,17.9057,3.37822,0.0,0.0
532,132.75,70.3806,78.5268,136.986,98.8096,67.2632,0.0279636,0.243248,20.6612,17.7956,3.44021,0.0,0.0
536,133.75,70.0873,78.5078,135.399,98.8337,68.9978,0.027595,0.24306,20.6623,17.6155,3.21464,0.0,0.0
540,134.75,70.1155,78.1619,141.714,98.8578,67.2659,0.0272515,0.242786,20.6638,17.5654,3.44422,0.0,0.0
544,135.75,69.4039,78.0488,140.134,98.8539,67.9014,0.0269661,0.242179,20.6656,17.4854,3.35975,0.0,0.0
548,136.75,69.5312,78.6719,142.313,98.8713,70.4839,0.0267619,0.241717,20.6667,17.3152,3.02741,0.0,0.0
552,137.75,70.0037,77.9871,137.854,98.84,66.807,0.0266202,0.241545,20.6675,17.1851,3.50385,0.0,0.0
556,138.75,69.934,78.0846,134.754,98.8298,64.953,0.0265388,0.241639,20.6675,17.105,3.75467,0.0,0.0
560,139.75,69.3739,77.9763,139.942,98.785,71.0908,0.026454,0.241776,20.6672,16.9549,2.94291,0.0,0.0
564,140.75,69.9522,77.8051,137.588,98.7233,67.3976,0.026411,0.241869,20.667,16.8548,3.41453,0.0,0.0
568,141.75,69.638,77.9309,139.495,98.6711,68.3128,0.026453,0.241781,20.6671,16.7347,3.28915,0.0,0.0
572,142.75,68.9909,78.0685,137.557,98.5983,67.5657,0.0266039,0.241412,20.6678,16.6246,3.38092,0.0,0.0
576,143.75,69.7721,78.0503,137.609,98.5061,67.6333,0.0268272,0.240557,20.6682,16.4444,3.36361,0.0,0.0
580,144.75,69.6845,77.734,138.606,98.4293,68.3213,0.0273287,0.239681,20.6685,16.3844,3.26609,0.0,0.0
584,145.75,69.7828,77.5228,141.095,98.3074,67.1651,0.0278266,0.239274,20.6687,16.2343,3.40769,0.0,0.0
588,146.75,69.6472,77.7627,137.401,98.1824,64.8352,0.028277,0.239999,20.6663,16.1342,3.71212,0.0,0.0
592,147.75,69.6518,77.8273,139.005,98.047,64.5084,0.0288301,0.2422,20.6628,16.0041,3.74499,0.0,0.0
596,148.75,69.8542,77.4417,138.227,97.9869,67.0187,0.0292454,0.244287,20.6594,15.8139,3.398,0.0,0.0
600,149.75,69.1144,78.5441,140.216,98.0063,66.1595,0.0295221,0.245532,20.6566,15.7338,3.51519,0.0,0.0
604,150.75,69.9975,77.5776,137.942,98.0443,66.4508,0.029555,0.246952,20.6549,15.6237,3.47936,0.0,0.0
608,151.75,69.8495,77.5308,140.006,98.0652,65.8068,0.0294754,0.247695,20.6539,15.5036,3.56838,0.0,0.0
612,152.75,69.4084,77.7718,139.462,98.0906,65.4966,0.0292968,0.248136,20.6532,15.3635,3.61296,0.0,0.0
616,153.75,69.6486,77.6672,137.565,98.1289,65.2625,0.0291436,0.248359,20.6528,15.2534,3.64849,0.0,0.0
620,154.75,69.2044,77.6646,137.565,98.1551,63.8767,0.0290326,0.248689,20.6525,15.1333,3.84285,0.0,0.0
624,155.75,69.9175,77.4228,142.957,98.1962,65.6573,0.0289726,0.249077,20.6515,15.0232,3.60067,0.0,0.0
628,156.75,69.4643,77.8731,140.797,98.2429,66.0768,0.0289373,0.249573,20.6501,14.8631,3.54795,0.0,0.0
632,157.75,69.5344,77.512,138.481,98.2872,68.4276,0.0289086,0.250068,20.6492,14.763,3.23927,0.0,0.0
636,158.75,69.408,77.7053,136.653,98.3268,63.5974,0.0289096,0.250565,20.6486,14.5728,3.89769,0.0,0.0
640,159.75,69.5305,77.4964,138.5,98.379,67.8268,0.0289504,0.250905,20.6479,14.4727,3.3265,0.0,0.0
644,160.75,69.3123,77.6801,136.667,98.4364,64.1302,0.0290578,0.250957,20.647,14.3526,3.83304,0.0,0.0
648,161.75,69.5529,77.3033,135.834,98.4653,62.668,0.029248,0.250679,20.6461,14.2525,4.04199,0.0,0.0
652,162.75,69.3445,77.8238,140.198,98.5084,65.1056,0.0294168,0.250306,20.6456,14.1024,3.70454,0.0,0.0
656,163.75,69.4507,77.4327,136.437,98.5361,63.4599,0.0295949,0.249947,20.6451,14.0023,3.93608,0.0,0.0
660,164.75,69.8356,77.3908,141.45,98.5603,64.547,0.0296839,0.249792,20.6446,13.8722,3.78633,0.0,0.0
664,165.75,69.5271,77.6895,139.907,98.5749,63.0744,0.0296633,0.249796,20.6437,13.7421,3.99411,0.0,0.0
668,166.75,69.7466,77.3356,137.735,98.5848,63.6948,0.0296055,0.250139,20.6431,13.622,3.90745,0.0,0.0
672,167.75,69.5355,77.0321,140.519,98.5765,67.7604,0.0294366,0.250939,20.6427,13.5719,3.3532,0.0,0.0
676,168.75,69.5924,77.8897,142.203,98.5781,68.0637,0.0292813,0.251591,20.6425,13.4418,3.3134,0.0,0.0
680,169.75,69.6213,77.2646,142.247,98.567,66.4998,0.0291421,0.251163,20.6438,13.3217,3.52032,0.0,0.0
684,170.75,69.2658,76.7345,142.074,98.5476,68.2336,0.0290304,0.250091,20.6471,13.2216,3.28833,0.0,0.0
688,171.75,69.6013,77.2533,139.394,98.5393,67.4363,0.0289613,0.247753,20.6503,13.1115,3.39272,0.0,0.0
692,172.75,69.0474,77.4079,140.82,98.4839,69.2995,0.028918,0.245518,20.6548,13.0014,3.14389,0.0,0.0
696,173.75,69.428,76.6695,136.146,98.4542,67.505,0.0288378,0.243144,20.6596,12.8713,3.37588,0.0,0.0
700,174.75,69.0839,76.736,141.465,98.4111,69.7689,0.0286534,0.241028,20.6635,12.7812,3.07689,0.0,0.0
704,175.75,69.7694,76.6809,143.648,98.3723,71.447,0.0284118,0.239609,20.6668,12.6311,2.86075,0.0,0.0
708,176.75,68.8921,77.2805,142.445,98.3082,72.2791,0.02821,0.238699,20.669,12.531,2.75133,0.0,0.0
712,177.75,69.2541,76.2801,141.266,98.2477,68.3024,0.0280805,0.237867,20.6713,12.3909,3.25205,0.0,0.0
716,178.75,68.8712,76.1977,142.495,98.1923,71.7638,0.0280184,0.236661,20.674,12.2908,2.80479,0.0,0.0
720,179.75,69.0794,76.4148,138.491,98.1274,67.5665,0.027981,0.234675,20.6768,12.2107,3.33799,0.0,0.0
724,180.75,69.3601,76.5678,143.08,98.0664,69.6178,0.0279477,0.232445,20.6803,12.1106,3.06489,0.0,0.0
728,181.75,69.6312,76.657,139.828,97.9715,70.7254,0.0278447,0.230348,20.6838,12.0206,2.91503,0.0,0.0
732,182.75,69.1938,76.4104,136.991,97.9161,72.5202,0.0276974,0.228118,20.6877,11.9105,2.6858,0.0,0.0
736,183.75,68.6925,76.5662,142.32,97.8603,72.1065,0.027562,0.226091,20.6905,11.8204,2.73188,0.0,0.0
740,184.75,69.2276,76.0366,141.534,97.7997,69.5769,0.0274785,0.224497,20.6924,11.7103,3.04579,0.0,0.0
744,185.75,68.6434,76.1608,143.079,97.7328,69.8106,0.02745,0.223478,20.6936,11.6202,3.00968,0.0,0.0
748,186.75,68.9115,75.8701,139.672,97.6588,69.3926,0.0274491,0.222828,20.6945,11.5001,3.05662,0.0,0.0
752,187.75,69.2842,75.9993,140.216,97.6038,71.9593,0.0274388,0.222442,20.695,11.38,2.72669,0.0,0.0
756,188.75,68.5804,76.1271,141.308,97.5496,71.9152,0.0273745,0.221973,20.6961,11.3199,2.72719,0.0,0.0
760,189.75,68.7155,75.7241,139.599,97.4954,71.041,0.0272453,0.221366,20.6969,11.2098,2.83163,0.0,0.0
764,190.75,68.5543,76.0057,139.794,97.4511,68.0134,0.0271051,0.220284,20.698,11.1198,3.21715,0.0,0.0
768,191.75,68.8177,75.4274,146.325,97.4076,69.8403,0.0269765,0.219326,20.6989,11.0297,2.97604,0.0,0.0
772,192.75,68.5382,75.7315,140.993,97.3791,70.5728,0.0269361,0.218746,20.6994,10.9096,2.8801,0.0,0.0
776,193.75,68.6795,75.7599,141.423,97.3553,69.7422,0.0269693,0.218659,20.699,10.8395,2.98382,0.0,0.0
780,194.75,68.3392,75.6998,137.999,97.3371,67.0055,0.027053,0.219156,20.6979,10.7194,3.34024,0.0,0.0
784,195.75,68.4107,75.8167,137.159,97.3189,70.5971,0.0271453,0.219611,20.6973,10.6393,2.87149,0.0,0.0
788,196.75,68.5157,75.3616,141.878,97.3197,67.0438,0.0271862,0.219817,20.6966,10.5693,3.33353,0.0,0.0
792,197.75,68.054,75.2946,139.658,97.3431,69.9682,0.0271552,0.21982,20.6965,10.4592,2.95376,0.0,0.0
796,198.75,68.2553,75.5911,135.903,97.3676,65.8624,0.027048,0.219753,20.6968,10.3491,3.49696,0.0,0.0
800,199.75,68.4618,75.4045,138.324,97.3977,71.4447,0.0268567,0.219389,20.6974,10.279,2.77197,0.0,0.0
804,200.75,68.1458,75.1179,137.897,97.4273,69.4038,0.0266229,0.218616,20.6981,10.1489,3.03395,0.0,0.0
808,201.75,67.98,75.0446,139.163,97.4732,72.3935,0.026404,0.217649,20.6999,10.1089,2.66089,0.0,0.0
812,202.75,67.9578,75.4814,144.795,97.533,71.2867,0.0260296,0.216847,20.7011,9.98877,2.80419,0.0,0.0
816,203.75,68.7079,74.7941,144.425,97.5939,71.4126,0.0256725,0.216423,20.7024,9.91871,2.79399,0.0,0.0
820,204.75,67.8845,74.5795,138.738,97.6687,71.5687,0.0253618,0.216145,20.7035,9.82863,2.78132,0.0,0.0
824,205.75,68.2086,74.9227,144.38,97.7364,75.3577,0.0250937,0.215818,20.7051,9.73855,2.32604,0.0,0.0
828,206.75,67.8129,74.4874,139.357,97.8187,73.8657,0.0248926,0.215067,20.7072,9.65848,2.51245,0.0,0.0
832,207.75,67.8235,74.9058,142.174,97.8947,75.2955,0.0247571,0.2139,20.7099,9.57841,2.3479,0.0,0.0
836,208.75,68.245,74.3871,138.463,97.9806,71.7294,0.0246508,0.21244,20.7126,9.50835,2.78977,0.0,0.0
840,209.75,67.8974,74.3916,139.943,98.0652,72.1926,0.024539,0.211058,20.7149,9.42828,2.73991,0.0,0.0
844,210.75,67.8759,74.442,141.131,98.1543,77.2147,0.0243578,0.209929,20.7164,9.35822,2.14644,0.0,0.0
848,211.75,68.0598,74.0539,144.873,98.2425,76.8721,0.0241433,0.208535,20.7186,9.28816,2.19426,0.0,0.0
852,212.75,67.4215,74.1404,143.987,98.3407,75.0147,0.0238389,0.207128,20.7216,9.2181,2.42199,0.0,0.0
856,213.75,67.4928,74.2776,141.026,98.4273,75.7212,0.0235407,0.205621,20.7246,9.12802,2.346,0.0,0.0
860,214.75,67.0085,73.9269,141.818,98.5112,78.5081,0.0233115,0.204123,20.7273,9.03794,2.03031,0.0,0.0
864,215.75,67.2427,74.0379,140.305,98.5955,73.9469,0.023173,0.202596,20.7301,8.96788,2.57338,0.0,0.0
868,216.75,67.3839,74.1072,139.427,98.6774,78.5097,0.0231131,0.201064,20.7331,8.86779,2.04521,0.0,0.0
872,217.75,67.4762,73.7404,142.021,98.7486,76.6496,0.0231055,0.199456,20.7362,8.80774,2.26616,0.0,0.0
876,218.75,67.0685,73.7289,143.28,98.8321,78.7252,0.0231124,0.197611,20.7395,8.71766,2.0347,0.0,0.0
880,219.75,67.4738,73.4272,142.626,98.8907,74.366,0.0230953,0.195676,20.7422,8.66761,2.54956,0.0,0.0
884,220.75,67.1904,73.5428,140.402,98.9504,76.9532,0.0230368,0.1942,20.7444,8.57753,2.24905,0.0,0.0
888,221.75,67.0141,73.6717,141.463,99.009,78.9489,0.0229385,0.193131,20.7466,8.50747,2.02531,0.0,0.0
892,222.75,66.92,73.3958,143.611,99.0573,79.0837,0.0228349,0.192282,20.7488,8.43741,2.01441,0.0,0.0
896,223.75,67.0749,73.2309,143.354,99.1016,77.9893,0.0227024,0.19156,20.7502,8.35734,2.14307,0.0,0.0
900,224.75,67.2402,73.2774,142.172,99.136,77.5365,0.0225532,0.190675,20.7518,8.31731,2.19826,0.0,0.0
904,225.75,67.2399,73.387,141.185,99.157,81.2575,0.022395,0.189425,20.7533,8.24724,1.78085,0.0,0.0
908,226.75,67.3732,73.0114,143.835,99.1752,82.3083,0.0221127,0.187997,20.7556,8.20721,1.66755,0.0,0.0
912,227.75,66.8596,73.2636,145.154,99.2112,81.5179,0.0217661,0.186658,20.7583,8.16717,1.75712,0.0,0.0
916,228.75,66.7829,73.0653,139.548,99.1994,80.787,0.021291,0.186114,20.7604,8.0871,1.83662,0.0,0.0
920,229.75,66.2848,73.223,139.737,99.2053,79.3746,0.0208315,0.185778,20.7617,7.98701,1.99492,0.0,0.0
924,230.75,66.6568,73.1225,139.769,99.2009,81.3479,0.0203527,0.185707,20.7629,7.89694,1.77486,0.0,0.0
928,231.75,66.8063,72.7675,137.944,99.1756,79.4925,0.0198569,0.185624,20.7642,7.84689,1.97898,0.0,0.0
932,232.75,66.5544,72.6081,140.878,99.1665,80.5255,0.0194095,0.185467,20.765,7.79685,1.86266,0.0,0.0
936,233.75,66.2202,72.076,143.724,99.1384,81.025,0.0190627,0.185312,20.7656,7.68675,1.80481,0.0,0.0
940,234.75,66.6235,72.4778,138.484,99.1111,79.9533,0.0188468,0.18521,20.7659,7.63671,1.92144,0.0,0.0
944,235.75,66.1926,72.5209,141.02,99.0723,80.5243,0.0187908,0.185073,20.7661,7.58666,1.85429,0.0,0.0
948,236.75,66.48,72.6438,141.827,99.0458,82.753,0.0187936,0.184768,20.7663,7.52661,1.60768,0.0,0.0
952,237.75,66.0884,72.0807,143.525,98.9956,82.87,0.018841,0.1843,20.7664,7.40651,1.5905,0.0,0.0
956,238.75,66.2762,72.3624,139.158,98.9588,81.2386,0.018854,0.183967,20.7673,7.40651,1.76503,0.0,0.0
960,239.75,66.3019,72.4072,147.493,98.9073,83.3993,0.0187857,0.183454,20.7683,7.37648,1.52557,0.0,0.0
964,240.75,66.3201,72.1086,141.017,98.8515,81.7655,0.0186013,0.182773,20.7701,7.26638,1.69749,0.0,0.0
968,241.75,65.4261,72.205,141.893,98.7993,81.7509,0.0184267,0.18191,20.7713,7.22635,1.69437,0.0,0.0
972,242.75,66.3503,72.0889,142.854,98.7518,80.5204,0.0181865,0.180933,20.7725,7.13627,1.82573,0.0,0.0
976,243.75,66.054,71.7105,139.786,98.7,83.0914,0.0179951,0.179801,20.7743,7.08622,1.53988,0.0,0.0
980,244.75,66.4405,71.7743,143.866,98.645,82.3894,0.0178133,0.17895,20.7753,7.04619,1.61079,0.0,0.0
984,245.75,66.2794,72.2088,144.145,98.6133,83.2594,0.0176941,0.17757,20.7765,6.93609,1.51395,0.0,0.0
988,246.75,66.3419,71.2871,142.17,98.5551,83.3919,0.0176276,0.176806,20.7775,6.89606,1.49445,0.0,0.0
992,247.75,66.0108,71.6573,141.717,98.5156,81.6214,0.0175913,0.176395,20.7781,6.84601,1.68282,0.0,0.0
996,248.75,66.0356,71.6674,143.381,98.4681,82.209,0.0175547,0.176237,20.7785,6.836,1.61434,0.0,0.0
1000,249.75,65.8194,71.9852,141.556,98.4317,81.2371,0.017477,0.176067,20.7788,6.75593,1.71742,0.0,0.0
1004,250.75,66.0616,71.6582,142.913,98.4079,84.4107,0.0173814,0.175787,20.7789,6.7159,1.37246,0.0,0.0
1008,251.75,65.8108,71.5879,138.522,98.3953,83.1996,0.0172228,0.175226,20.7806,6.64584,1.50059,0.0,0.0
1012,252.75,65.7543,71.5961,144.058,98.4803,84.0947,0.0170614,0.174513,20.7817,6.59579,1.41259,0.0,0.0
1016,253.75,65.9143,71.2954,137.827,98.5698,82.7746,0.0169323,0.173764,20.7827,6.53574,1.56224,0.0,0.0
1020,254.75,65.9697,70.8829,140.624,98.6477,84.4945,0.016815,0.173394,20.7834,6.52573,1.38535,0.0,0.0
1024,255.75,65.7511,71.0238,144.295,98.7095,82.4574,0.0167054,0.173241,20.7838,6.45567,1.60925,0.0,0.0
1028,256.75,65.6648,71.4083,144.085,98.774,83.8698,0.01658,0.173244,20.7841,6.42564,1.46317,0.0,0.0
1032,257.75,65.8287,70.8653,140.865,98.8123,81.0709,0.0164322,0.173329,20.7843,6.32556,1.77026,0.0,0.0
1036,258.75,65.3272,71.2324,140.321,98.8472,83.8447,0.0162232,0.173391,20.7844,6.32556,1.47248,0.0,0.0
1040,259.75,65.3507,71.2354,142.691,98.8741,82.7719,0.0159934,0.173244,20.785,6.23548,1.59011,0.0,0.0
1044,260.75,65.3297,71.0076,145.097,98.8966,82.2268,0.0157808,0.172858,20.7859,6.23548,1.65125,0.0,0.0
1048,261.75,65.199,71.1953,139.595,98.8939,83.0041,0.0156039,0.172247,20.787,6.16541,1.56684,0.0,0.0
1052,262.75,64.9945,71.2081,143.313,98.8887,84.9975,0.0154649,0.171616,20.7878,6.08534,1.35409,0.0,0.0
1056,263.75,65.4289,70.7812,138.599,98.882,79.8201,0.0153507,0.171177,20.7883,6.08534,1.91567,0.0,0.0
1060,264.75,65.4269,70.9405,145.248,98.8614,81.2255,0.0152284,0.170736,20.7886,6.0353,1.75767,0.0,0.0
1064,265.75,65.2618,70.7081,145.852,98.8294,86.0382,0.0151105,0.170064,20.7886,5.97525,1.23985,0.0,0.0
1068,266.75,65.5035,70.3673,140.919,98.808,80.9284,0.0149726,0.169242,20.7896,5.96524,1.78561,0.0,0.0
1072,267.75,65.6256,70.215,141.292,98.7506,83.1945,0.0148082,0.168394,20.7915,5.90519,1.53337,0.0,0.0
1076,268.75,65.0495,69.7858,143.126,98.7059,82.4269,0.0146589,0.167585,20.7931,5.89518,1.61224,0.0,0.0
1080,269.75,64.5305,70.9645,145.27,98.62,83.2869,0.0145448,0.166624,20.7954,5.84513,1.51162,0.0,0.0
1084,270.75,65.1451,70.4682,145.087,98.5393,83.205,0.0144699,0.165615,20.7972,5.8051,1.51309,0.0,0.0
1088,271.75,64.5347,70.6284,141.894,98.4621,81.4746,0.0143979,0.164738,20.7984,5.76506,1.69407,0.0,0.0
1092,272.75,64.1904,70.3253,143.692,98.3676,82.1538,0.0143003,0.164145,20.7992,5.73504,1.61122,0.0,0.0
1096,273.75,65.0356,69.7634,141.512,98.2568,81.7648,0.0141864,0.163816,20.7997,5.73504,1.64359,0.0,0.0
1100,274.75,64.6801,69.9729,140.939,98.1384,82.7035,0.014031,0.16369,20.8,5.67498,1.5307,0.0,0.0
1104,275.75,64.767,69.9555,142.365,98.0304,83.6813,0.0138566,0.163429,20.8006,5.66498,1.41571,0.0,0.0
1108,276.75,64.3088,69.3479,148.317,98.0102,85.8435,0.0136965,0.16294,20.8009,5.65497,1.18567,0.0,0.0
1112,277.75,64.4146,69.7003,143.709,98.0336,83.1111,0.0134951,0.162374,20.8019,5.60492,1.47716,0.0,0.0
1116,278.75,63.8739,69.1805,141.301,98.0546,80.5239,0.0133464,0.161899,20.8032,5.5749,1.76196,0.0,0.0
1120,279.75,64.2718,69.6501,143.019,98.0838,84.2534,0.0132159,0.161474,20.804,5.51484,1.35963,0.0,0.0
1124,280.75,63.4227,69.5775,141.119,98.1131,83.0361,0.0130661,0.161032,20.8049,5.49483,1.49249,0.0,0.0
1128,281.75,64.3411,69.3702,144.856,98.1499,84.1538,0.0129266,0.160719,20.8061,5.44478,1.37624,0.0,0.0
1132,282.75,64.5385,69.0247,141.732,98.1796,81.02,0.0127968,0.160401,20.8073,5.42476,1.71843,0.0,0.0
1136,283.75,63.8334,69.2796,141.636,98.2235,81.6732,0.0126518,0.159854,20.8085,5.37472,1.65059,0.0,0.0
1140,284.75,63.7567,69.165,139.177,98.2441,80.0086,0.012524,0.159469,20.8092,5.36471,1.83667,0.0,0.0
1144,285.75,64.0838,69.0472,148.356,98.2722,83.2193,0.012301,0.159014,20.8101,5.27463,1.48727,0.0,0.0
1148,286.75,64.3749,68.5517,143.109,98.3157,83.3904,0.0120794,0.158488,20.8108,5.27463,1.47286,0.0,0.0
1152,287.75,63.7117,68.9351,145.696,98.3533,85.1613,0.0118511,0.157882,20.8112,5.20457,1.2883,0.0,0.0
1156,288.75,63.4132,69.0036,142.323,98.385,84.496,0.0116547,0.157303,20.8123,5.20457,1.36133,0.0,0.0
1160,289.75,63.7869,68.73,150.851,98.4344,86.197,0.0114382,0.156611,20.814,5.16454,1.18754,0.0,0.0
1164,290.75,63.7898,68.507,147.403,98.4621,83.9656,0.0112506,0.156049,20.8152,5.11449,1.42468,0.0,0.0
1168,291.75,63.4284,68.7534,144.977,98.4898,86.0189,0.0111067,0.15568,20.8159,5.09447,1.21108,0.0,0.0
1172,292.75,63.8108,68.2287,142.817,98.5239,86.1336,0.011014,0.155536,20.8168,5.04443,1.20224,0.0,0.0
1176,293.75,63.1862,68.6685,139.231,98.5353,84.0637,0.0109519,0.155619,20.8178,5.05444,1.42088,0.0,0.0
1180,294.75,63.941,68.1696,141.083,98.5464,84.9449,0.0108857,0.155678,20.8184,4.99439,1.3286,0.0,0.0
1184,295.75,63.6647,68.2838,139.553,98.5686,84.6923,0.010822,0.155538,20.8188,4.99439,1.35726,0.0,0.0
1188,296.75,63.6838,68.0036,146.306,98.5725,85.9648,0.0107078,0.155017,20.8194,4.96436,1.22421,0.0,0.0
1192,297.75,63.6005,68.1184,140.492,98.571,85.5804,0.0105184,0.154601,20.8197,4.95435,1.26416,0.0,0.0
1196,298.75,63.4522,68.2387,142.726,98.5725,86.5331,0.0103302,0.154388,20.8208,4.92432,1.16527,0.0,0.0
1200,299.75,63.2896,68.1306,149.007,98.5512,87.4363,0.0101143,0.154222,20.8219,4.90431,1.07045,0.0,0.0
1204,300.75,63.2144,68.1861,141.371,98.5318,86.2812,0.00994326,0.154024,20.8227,4.82424,1.18765,0.0,0.0
1208,301.75,63.5502,67.537,140.932,98.5128,84.831,0.00972998,0.153653,20.8237,4.82424,1.33756,0.0,0.0
1212,302.75,63.1134,67.6304,142.698,98.4831,85.3038,0.00952923,0.153061,20.8254,4.76418,1.28514,0.0,0.0
1216,303.75,63.3147,67.303,144.454,98.4598,84.5667,0.00935661,0.152389,20.8277,4.72415,1.36065,0.0,0.0
1220,304.75,63.123,67.6267,147.661,98.4388,87.8195,0.00920255,0.151187,20.8299,4.70413,1.02112,0.0,0.0
1224,305.75,62.9662,66.8668,150.637,98.3858,86.1417,0.00907536,0.150147,20.8314,4.70413,1.18885,0.0,0.0
1228,306.75,62.727,67.6347,144.087,98.3304,88.2109,0.00891791,0.149464,20.8323,4.65409,0.971489,0.0,0.0
1232,307.75,62.5051,67.0561,145.188,98.2805,87.4861,0.00876309,0.149016,20.8336,4.65409,1.04075,0.0,0.0
1236,308.75,62.8205,67.2468,146.181,98.2207,88.0219,0.0086078,0.148544,20.8346,4.6641,0.980689,0.0,0.0
1240,309.75,62.8731,67.003,144.32,98.1804,86.0421,0.00846341,0.147839,20.8361,4.57402,1.18052,0.0,0.0
1244,310.75,62.6555,67.3534,147.772,98.11,89.0434,0.00832844,0.146776,20.8378,4.554,0.867387,0.0,0.0
1248,311.75,62.5026,66.5429,142.457,98.0458,87.2466,0.0082165,0.145695,20.8389,4.52397,1.04389,0.0,0.0
1252,312.75,62.1488,67.3199,143.33,97.9928,88.9626,0.00808604,0.14464,20.8399,4.52397,0.864815,0.0,0.0
1256,313.75,62.7693,66.8303,142.432,97.9434,86.4802,0.00792236,0.143841,20.8412,4.49395,1.11347,0.0,0.0
1260,314.75,63.0007,66.4451,142.764,97.8812,86.3337,0.00778862,0.143277,20.8426,4.46392,1.12295,0.0,0.0
1264,315.75,62.2506,66.532,145.59,97.8049,88.8564,0.00767974,0.14273,20.8443,4.41388,0.85833,0.0,0.0
1268,316.75,62.1194,66.5451,144.607,97.7344,86.7432,0.00759591,0.142163,20.8458,4.43389,1.06719,0.0,0.0
1272,317.75,61.778,67.1843,143.629,97.6869,89.0329,0.00750933,0.141527,20.847,4.41388,0.829782,0.0,0.0
1276,318.75,62.2687,66.3816,147.824,97.6339,89.6707,0.00741124,0.140896,20.8486,4.38385,0.761071,0.0,0.0
1280,319.75,61.743,66.7664,143.448,97.5821,91.5386,0.00729482,0.140406,20.8502,4.39386,0.571903,0.0,0.0
1284,320.75,62.397,66.2295,145.533,97.5267,89.0584,0.00706962,0.140066,20.8512,4.39386,0.812533,0.0,0.0
1288,321.75,61.9293,66.0646,145.08,97.4796,90.035,0.00680438,0.139837,20.8519,4.35382,0.710652,0.0,0.0
1292,322.75,62.0395,66.3567,146.411,97.4459,90.0555,0.00659146,0.139489,20.8527,4.31379,0.705532,0.0,0.0
1296,323.75,62.2285,65.9598,147.419,97.4036,90.9665,0.00622415,0.138987,20.8538,4.34382,0.611614,0.0,0.0
1300,324.75,62.3214,65.5947,144.104,97.3605,90.742,0.00602307,0.138216,20.8552,4.29377,0.629751,0.0,0.0
1304,325.75,61.3798,66.1704,142.72,97.345,92.1185,0.00581634,0.137649,20.8571,4.27375,0.493661,0.0,0.0
1308,326.75,61.951,65.3846,142.353,97.3209,91.8194,0.00566394,0.136417,20.8589,4.26374,0.520526,0.0,0.0
1312,327.75,61.9918,65.8378,146.135,97.3114,91.5857,0.00554135,0.135787,20.8599,4.25374,0.542452,0.0,0.0
1316,328.75,61.4001,65.8487,143.501,97.2995,88.2572,0.00544442,0.135278,20.8605,4.25374,0.872516,0.0,0.0
1320,329.75,61.4592,65.7991,146.89,97.2964,91.3949,0.00535373,0.134904,20.8612,4.24373,0.559729,0.0,0.0
1324,330.75,61.326,65.8922,150.719,97.3011,92.4078,0.00525993,0.134459,20.8627,4.22371,0.46157,0.0,0.0
1328,331.75,61.3027,65.5371,145.298,97.3098,91.9137,0.00516839,0.13359,20.8643,4.2137,0.510329,0.0,0.0
1332,332.75,61.3596,65.5601,146.131,97.33,92.5635,0.00509013,0.13265,20.8657,4.19368,0.449166,0.0,0.0
1336,333.75,61.1364,65.4092,144.596,97.3609,91.3068,0.00502082,0.1318,20.8666,4.19368,0.574282,0.0,0.0
1340,334.75,60.9833,65.3444,143.233,97.3878,91.2999,0.00493948,0.131182,20.8676,4.19368,0.577435,0.0,0.0
1344,335.75,60.7551,65.3367,143.85,97.4341,92.9564,0.0048169,0.130758,20.8689,4.16366,0.420839,0.0,0.0
1348,336.75,60.7887,65.0634,148.128,97.4855,92.0451,0.00469362,0.130461,20.8701,4.16366,0.513691,0.0,0.0
1352,337.75,61.2106,64.7184,143.405,97.5445,92.5179,0.00452943,0.13026,20.8709,4.16366,0.473264,0.0,0.0
1356,338.75,60.8308,64.5901,144.897,97.5951,92.1042,0.00434549,0.129905,20.8725,4.15365,0.518001,0.0,0.0
1360,339.75,60.6305,64.8892,143.304,97.662,94.3514,0.0041721,0.129595,20.8736,4.0936,0.308497,0.0,0.0
1364,340.75,60.4582,64.6379,147.083,97.7364,94.5712,0.00403197,0.129233,20.8749,4.0936,0.294491,0.0,0.0
1368,341.75,60.2731,64.4321,147.501,97.8037,95.2399,0.00392798,0.128733,20.8759,4.11361,0.237616,0.0,0.0
1372,342.75,60.5222,64.2818,145.571,97.884,94.9799,0.00385995,0.128027,20.8771,4.07358,0.269413,0.0,0.0
1376,343.75,60.1641,63.7872,144.286,97.9608,94.2196,0.00380935,0.127482,20.8781,4.05356,0.348318,0.0,0.0
1380,344.75,60.3045,64.3729,143.82,98.0336,94.7524,0.0037562,0.127113,20.8793,4.03354,0.304528,0.0,0.0
1384,345.75,60.5355,64.0235,142.954,98.1171,93.1712,0.00367741,0.126797,20.8804,4.02353,0.462681,0.0,0.0
1388,346.75,60.4358,63.9841,148.815,98.1867,95.4045,0.00360699,0.12655,20.8811,4.02353,0.257139,0.0,0.0
1392,347.75,59.7338,63.8128,147.266,98.2461,95.0097,0.003552,0.126352,20.8816,3.99351,0.299641,0.0,0.0
1396,348.75,60.0984,63.6986,139.771,98.3418,94.3827,0.00355521,0.125974,20.8819,3.99351,0.367584,0.0,0.0
1400,349.75,60.2758,63.6261,146.668,98.3957,95.0456,0.0035642,0.125478,20.8825,3.95347,0.309868,0.0,0.0
1404,350.75,60.0841,63.8267,144.702,98.4621,95.1823,0.0035427,0.124917,20.8833,3.94346,0.303047,0.0,0.0
1408,351.75,59.5301,63.6461,146.313,98.5456,96.847,0.00347775,0.124291,20.885,3.94346,0.155538,0.0,0.0
1412,352.75,59.7065,63.7536,142.937,98.6145,97.0876,0.00337375,0.123276,20.8869,3.93345,0.139584,0.0,0.0
1416,353.75,59.9708,63.1379,150.472,98.6774,97.3608,0.00324922,0.122257,20.8892,3.93345,0.120159,0.0,0.0
1420,354.75,59.7567,63.2794,142.388,98.7471,95.8596,0.00314394,0.121414,20.891,3.94346,0.265475,0.0,0.0
1424,355.75,59.6117,63.3329,150.467,98.8068,98.7253,0.00308678,0.120542,20.8928,3.95347,0.00738687,0.0,0.0
1428,356.75,59.5679,63.107,148.244,98.8626,97.19,0.00308835,0.119706,20.894,3.90343,0.152633,0.0,0.0
1432,357.75,59.491,63.2477,149.631,98.914,98.4896,0.00314192,0.118787,20.8947,3.90343,0.0384685,0.0,0.0
1436,358.75,59.6199,63.1193,149.148,98.9623,98.5491,0.00322769,0.117638,20.8951,3.91344,0.037431,0.0,0.0
1440,359.75,59.0176,63.095,145.172,99.0161,98.8952,0.00335392,0.116192,20.8957,3.89342,0.01093,0.0,0.0
1444,360.75,58.628,62.4777,146.745,99.0454,99.3704,0.00347291,0.115097,20.8971,3.92345,-0.0293027,0.0,0.0
1448,361.75,58.363,62.5084,145.643,99.0763,99.9464,0.00358198,0.113466,20.8996,3.91344,-0.0782167,0.0,0.0
1452,362.75,58.4893,61.9265,147.713,99.1048,99.5431,0.00371697,0.111949,20.9025,3.92345,-0.0394743,0.0,0.0
1456,363.75,58.7046,61.326,146.698,99.1384,98.7337,0.003834,0.1106,20.9048,3.93345,0.0365878,0.0,0.0
1460,364.75,58.5409,61.7855,147.079,99.1455,100.034,0.00390905,0.109476,20.9069,3.89342,-0.0798116,0.0,0.0
1464,365.75,58.1561,61.6862,145.978,99.1681,98.7426,0.00394032,0.108516,20.9088,3.88341,0.038461,0.0,0.0
1468,366.75,58.1433,61.4942,148.376,99.1756,98.2763,0.00393842,0.107652,20.9105,3.92345,0.0814811,0.0,0.0
1472,367.75,58.6098,61.3724,146.375,99.1819,100.479,0.00392123,0.106944,20.9115,3.90343,-0.116236,0.0,0.0
1476,368.75,57.953,61.6347,145.973,99.1986,100.583,0.0038805,0.106343,20.913,3.91344,-0.123949,0.0,0.0
1480,369.75,57.9961,61.1135,140.557,99.1855,99.968,0.00381932,0.105812,20.914,3.8734,-0.070298,0.0,0.0
1484,370.75,57.4766,61.5455,145.101,99.1808,99.4631,0.00375615,0.10551,20.9147,3.86339,-0.02543,0.0,0.0
1488,371.75,57.6965,61.2566,148.216,99.1736,99.076,0.0036955,0.105162,20.9155,3.83337,0.00880812,0.0,0.0
1492,372.75,57.4089,61.04,149.653,99.1804,99.829,0.00362574,0.104829,20.9164,3.86339,-0.0583082,0.0,0.0
1496,373.75,57.8751,61.1073,143.63,99.1653,99.5516,0.00353692,0.104396,20.9175,3.84338,-0.0347756,0.0,0.0
1500,374.75,57.5458,60.9327,147.117,99.14,99.8259,0.00343629,0.103885,20.9185,3.86339,-0.0616722,0.0,0.0
1504,375.75,57.1585,60.9208,147.217,99.1443,98.8319,0.00333981,0.103233,20.9194,3.86339,0.0282376,0.0,0.0
1508,376.75,57.3316,60.7041,147.543,99.1202,99.0192,0.0032501,0.102531,20.9205,3.80334,0.00911706,0.0,0.0
1512,377.75,56.8012,60.4906,146.105,99.1068,100.636,0.00315397,0.101827,20.9221,3.83337,-0.136972,0.0,0.0
1516,378.75,57.166,60.305,146.85,99.0882,98.4962,0.00306748,0.100924,20.9231,3.83337,0.0536032,0.0,0.0
1520,379.75,56.2088,59.6381,146.439,99.0612,99.4164,0.00298451,0.100157,20.9238,3.81335,-0.0320104,0.0,0.0
1524,380.75,57.3052,60.0869,149.818,99.0518,98.66,0.00287571,0.0994527,20.9246,3.82336,0.0354525,0.0,0.0
1528,381.75,57.2171,60.3355,148.218,99.0332,99.0057,0.00275273,0.0988543,20.9264,3.81335,0.00247896,0.0,0.0
1532,382.75,57.0253,60.5937,149.383,99.0181,99.3526,0.00263025,0.0982631,20.9276,3.85338,-0.0301688,0.0,0.0
1536,383.75,57.0688,59.9242,145.318,98.9987,99.127,0.00248047,0.0977766,20.9284,3.78332,-0.0115845,0.0,0.0
1540,384.75,57.2975,60.1409,148.938,98.9718,99.1147,0.00236704,0.0971873,20.9289,3.78332,-0.0129006,0.0,0.0
1544,385.75,56.7918,60.196,146.795,98.9619,98.9679,0.00228394,0.0966739,20.9299,3.8734,-0.000535866,0.0,0.0
1548,386.75,56.5976,60.0711,147.441,98.9307,99.698,0.00222942,0.0962392,20.9307,3.83337,-0.0691147,0.0,0.0
1552,387.75,56.8028,59.4704,143.807,98.9065,99.088,0.00218987,0.0958696,20.9312,3.83337,-0.0163976,0.0,0.0
1556,388.75,56.7187,59.4804,146.467,98.8844,98.8168,0.0021547,0.0955266,20.9316,3.79333,0.00611459,0.0,0.0
1560,389.75,56.7186,59.52,149.461,98.8654,99.2588,0.00212454,0.0951388,20.9317,3.80334,-0.0355224,0.0,0.0
1564,390.75,56.3373,59.5568,146.822,98.8448,100.021,0.00205872,0.0947156,20.9327,3.81335,-0.105847,0.0,0.0
1568,391.75,56.3664,59.5432,147.35,98.8397,99.1908,0.00197945,0.0943439,20.9333,3.80334,-0.0317198,0.0,0.0
1572,392.75,56.4749,59.4251,148.221,98.8159,97.1865,0.00190741,0.0940971,20.9345,3.79333,0.148728,0.0,0.0
1576,393.75,56.201,59.4398,145.473,98.8171,99.4967,0.00184934,0.0938012,20.9353,3.76331,-0.0613119,0.0,0.0
1580,394.75,56.5321,59.6484,147.519,98.8021,98.7117,0.00180356,0.093456,20.9364,3.77331,0.00818169,0.0,0.0
1584,395.75,56.074,59.4483,146.686,98.7866,99.3866,0.00174326,0.0931902,20.9373,3.7533,-0.0541666,0.0,0.0
1588,396.75,56.223,59.4161,147.511,98.7846,99.7474,0.00163732,0.0929508,20.9379,3.77331,-0.0867632,0.0,0.0
1592,397.75,56.4869,59.0797,146.395,98.7819,98.8021,0.00151895,0.0926825,20.9383,3.77331,-0.00183327,0.0,0.0
1596,398.75,56.0197,58.8911,146.847,98.7775,98.4556,0.00139594,0.0924447,20.9386,3.76331,0.0292006,0.0,0.0
1600,399.75,56.0858,59.1174,141.897,98.766,99.0494,0.00129194,0.0922713,20.9388,3.77331,-0.0256241,0.0,0.0
1604,400.75,55.838,59.2641,144.866,98.751,97.9178,0.00120688,0.0922065,20.9389,3.74329,0.0757921,0.0,0.0
1608,401.75,56.0131,59.2228,150.255,98.736,97.9576,0.00114677,0.092115,20.9397,3.72327,0.0707957,0.0,0.0
1612,402.75,56.0574,58.4213,145.793,98.7285,99.6721,0.00111739,0.0920551,20.9402,3.7533,-0.0850944,0.0,0.0
1616,403.75,55.8311,58.5263,146.988,98.717,98.5754,0.0010795,0.0919752,20.9406,3.74329,0.0128426,0.0,0.0
1620,404.75,55.7622,58.8413,143.368,98.7126,98.432,0.00104596,0.0918495,20.9408,3.74329,0.0254638,0.0,0.0
1624,405.75,55.006,58.0767,150.313,98.7023,97.9936,0.000998115,0.0917587,20.9406,3.72327,0.0644679,0.0,0.0
1628,406.75,55.4257,58.6274,145.218,98.6869,99.416,0.000960264,0.0916014,20.9403,3.7533,-0.0658436,0.0,0.0
1632,407.75,55.2984,58.9828,147.045,98.6901,97.671,0.000943913,0.0914982,20.9401,3.76331,0.0928502,0.0,0.0
1636,408.75,55.3276,58.6015,144.532,98.6707,99.1228,0.000952695,0.0913879,20.94,3.7533,-0.040892,0.0,0.0
1640,409.75,55.2226,58.346,150.791,98.6727,98.325,0.000979999,0.0911832,20.9399,3.77331,0.0315716,0.0,0.0
1644,410.75,55.8358,58.7516,145.779,98.6663,98.5568,0.00100543,0.0909725,20.9398,3.7533,0.00993409,0.0,0.0
1648,411.75,55.4438,58.6235,148.925,98.6556,99.0741,0.00104046,0.0908099,20.9404,3.73328,-0.0378614,0.0,0.0
1652,412.75,55.5287,58.5935,146.848,98.6541,97.9874,0.00107206,0.0906858,20.941,3.72327,0.0606557,0.0,0.0
1656,413.75,55.379,57.93,145.086,98.6422,99.1305,0.00109496,0.0906533,20.9413,3.74329,-0.0441722,0.0,0.0
1660,414.75,55.351,58.4307,150.167,98.6454,98.2721,0.00108646,0.0906319,20.9415,3.73328,0.0339122,0.0,0.0
1664,415.75,55.4129,58.5529,147.415,98.6402,98.7855,0.00105997,0.0905775,20.9409,3.73328,-0.0131671,0.0,0.0
1668,416.75,55.017,57.9613,147.944,98.6469,99.2027,0.00102884,0.0905089,20.9405,3.72327,-0.0502586,0.0,0.0
1672,417.75,55.3392,58.316,149.699,98.6564,99.2302,0.000999932,0.0905179,20.9407,3.71326,-0.0518705,0.0,0.0
1676,418.75,55.3694,58.761,148.941,98.6525,98.2779,0.000976985,0.090581,20.9411,3.71326,0.0340302,0.0,0.0
1680,419.75,55.3599,58.291,149.084,98.6612,98.7963,0.000966563,0.0906468,20.9414,3.70325,-0.0122455,0.0,0.0
1684,420.75,54.9572,58.1097,148.207,98.6711,98.8269,0.000978069,0.0907223,20.9416,3.70325,-0.0141112,0.0,0.0
1688,421.75,55.5277,58.5557,149.736,98.6794,98.6291,0.000998516,0.0908308,20.9418,3.72327,0.00456289,0.0,0.0
1692,422.75,55.5511,58.3467,141.82,98.6853,99.9916,0.00101511,0.0909193,20.9418,3.68323,-0.117631,0.0,0.0
1696,423.75,55.139,57.9114,149.052,98.6857,99.1448,0.0010231,0.0909774,20.9419,3.6432,-0.0415166,0.0,0.0
1700,424.75,55.4075,58.0207,143.303,98.7075,98.4869,0.00100347,0.0909179,20.9419,3.65321,0.0200136,0.0,0.0
1704,425.75,54.9596,58.1076,143.688,98.7039,98.5692,0.000968344,0.0907633,20.9419,3.66322,0.0122197,0.0,0.0
1708,426.75,55.0167,58.1734,148.109,98.7225,98.4413,0.000930553,0.0906174,20.942,3.67323,0.0255169,0.0,0.0
1712,427.75,54.8206,58.013,145.741,98.736,97.6169,0.000907403,0.0906186,20.9412,3.65321,0.101965,0.0,0.0
1716,428.75,55.1987,58.0697,142.989,98.7569,99.1923,0.000910415,0.0908258,20.94,3.66322,-0.0393485,0.0,0.0
1720,429.75,55.0069,58.1592,146.754,98.7712,98.6206,0.000935102,0.0910138,20.9392,3.65321,0.0136529,0.0,0.0
1724,430.75,54.9544,57.7065,146.305,98.787,99.8158,0.000961992,0.0911563,20.9387,3.67323,-0.0926782,0.0,0.0
1728,431.75,55.0276,57.9253,144.59,98.8048,98.8608,0.000957571,0.091255,20.9384,3.65321,-0.00507041,0.0,0.0
1732,432.75,55.0285,58.0778,150.177,98.825,99.426,0.000920193,0.0913391,20.9382,3.66322,-0.054238,0.0,0.0
1736,433.75,54.978,57.8008,147.434,98.8476,98.8543,0.000844032,0.0914129,20.9381,3.63319,-0.000607317,0.0,0.0
1740,434.75,54.8669,57.9533,147.979,98.8662,99.0069,0.000749589,0.0914722,20.938,3.6432,-0.0127223,0.0,0.0
1744,435.75,54.5143,58.3781,142.691,98.8915,98.4096,0.000662004,0.0916089,20.9379,3.63319,0.0436931,0.0,0.0
1748,436.75,54.9558,58.2671,146.247,98.9065,98.4853,0.000601369,0.0917474,20.9379,3.63319,0.0381744,0.0,0.0
1752,437.75,54.6243,57.814,144.287,98.935,98.4432,0.00056447,0.0919116,20.9378,3.60316,0.0445759,0.0,0.0
1756,438.75,55.2996,57.6526,143.9,98.9683,98.7558,0.000561748,0.0919949,20.9372,3.61317,0.0192262,0.0,0.0
1760,439.75,55.0484,57.9359,143.985,98.9884,98.8921,0.000577157,0.0920984,20.9372,3.60316,0.00870692,0.0,0.0
1764,440.75,55.1348,58.0148,145.908,99.0086,98.8473,0.000598016,0.0922818,20.9374,3.59316,0.0145856,0.0,0.0
1768,441.75,54.4416,57.344,147.174,99.0359,98.4691,0.000616001,0.0924333,20.9375,3.59316,0.051344,0.0,0.0
1772,442.75,54.6684,58.0404,143.067,99.0605,99.1726,0.000636279,0.0925056,20.9376,3.59316,-0.0101213,0.0,0.0
1776,443.75,55.1239,57.5624,147.311,99.0791,99.093,0.000668501,0.0925042,20.9376,3.60316,-0.00126107,0.0,0.0
1780,444.75,53.8627,57.3089,151.017,99.0992,99.8467,0.000710001,0.0924383,20.9374,3.58315,-0.0672203,0.0,0.0
1784,445.75,54.9218,57.7034,149.372,99.1186,99.3831,0.000752765,0.0922899,20.9372,3.58315,-0.0238405,0.0,0.0
1788,446.75,54.482,57.7794,146.884,99.1277,99.0783,0.000772139,0.0921924,20.9371,3.59316,0.00445844,0.0,0.0
1792,447.75,54.953,57.3976,144.841,99.1467,98.8918,0.000771115,0.092167,20.9371,3.58315,0.0230337,0.0,0.0
1796,448.75,54.0442,57.571,147.279,99.161,99.139,0.000748932,0.0921877,20.937,3.57314,0.00198322,0.0,0.0
1800,449.75,54.664,57.733,144.1,99.174,98.675,0.000717174,0.0923177,20.937,3.57314,0.0451224,0.0,0.0
1804,450.75,54.6992,58.1389,145.11,99.1815,98.6943,0.00069295,0.092466,20.9373,3.56313,0.0440496,0.0,0.0
1808,451.75,54.8203,57.4918,146.136,99.1914,98.3119,0.000677395,0.0925388,20.9377,3.56313,0.0796739,0.0,0.0
1812,452.75,53.5522,57.9908,147.575,99.1978,99.4755,0.000670239,0.0925757,20.9379,3.56313,-0.0250082,0.0,0.0
1816,453.75,54.7491,57.84,144.439,99.2045,99.2645,0.000673312,0.0926244,20.9381,3.52309,-0.00541345,0.0,0.0
1820,454.75,54.4982,57.56,146.415,99.2152,97.9928,0.000684629,0.0926563,20.9383,3.5331,0.110897,0.0,0.0
1824,455.75,54.4118,57.5886,144.87,99.2013,97.8437,0.000702809,0.0926647,20.9387,3.56313,0.123271,0.0,0.0
1828,456.75,54.6611,57.8125,148.227,99.1954,98.1241,0.000719393,0.0926539,20.9389,3.54311,0.0971308,0.0,0.0
1832,457.75,54.1568,57.4709,143.191,99.1815,98.6453,0.000725069,0.0926427,20.939,3.54311,0.0484978,0.0,0.0
1836,458.75,54.4612,57.9411,144.693,99.1649,98.1659,0.000715513,0.0926701,20.9391,3.54311,0.0905788,0.0,0.0
1840,459.75,54.9826,57.8628,148.584,99.1531,98.872,0.000689691,0.0926636,20.9392,3.56313,0.0253872,0.0,0.0
1844,460.75,54.6991,57.7445,143.77,99.1178,98.7534,0.00067095,0.0925615,20.9392,3.56313,0.0329465,0.0,0.0
1848,461.75,54.7632,57.342,144.379,99.0977,98.184,0.000661704,0.0924753,20.9392,3.54311,0.0828547,0.0,0.0
1852,462.75,54.2558,57.8228,148.845,99.068,98.6855,0.000672841,0.0924521,20.9392,3.57314,0.034607,0.0,0.0
1856,463.75,54.7086,57.9217,146.37,99.0248,98.59,0.000721022,0.0925283,20.9393,3.54311,0.0393646,0.0,0.0
1860,464.75,54.9946,57.5863,150.851,98.9778,97.5817,0.000774684,0.0926439,20.9393,3.51309,0.127065,0.0,0.0
1864,465.75,54.6423,57.4465,146.258,98.9208,98.4954,0.000812694,0.0926792,20.9393,3.50308,0.0385492,0.0,0.0
1868,466.75,54.766,57.4037,150.085,98.8713,99.1463,0.000824365,0.0926482,20.9393,3.51309,-0.0248483,0.0,0.0
1872,467.75,54.6173,57.5863,143.298,98.8139,98.6704,0.000813279,0.0925759,20.9393,3.52309,0.0130034,0.0,0.0
1876,468.75,54.6948,57.7284,150.99,98.7328,99.1112,0.000788169,0.092504,20.9393,3.5331,-0.0342158,0.0,0.0
1880,469.75,54.6833,57.4491,148.323,98.6829,98.5518,,0.0924761,,3.52309,0.011897,0.0,0.0
1884,470.75,54.1563,57.3791,145.614,98.6058,98.3845,,0.0924438,,3.5331,0.0200955,0.0,0.0
1888,471.75,54.3297,57.5861,149.613,98.5342,98.2454,,0.0923596,,3.55312,0.0262485,0.0,0.0
1892,472.75,54.1057,57.5876,148.955,98.4598,98.2678,,,,3.54311,0.0174533,0.0,0.0
1896,473.75,54.1426,57.3228,150.062,98.3672,98.2161,,,,3.55312,0.0137498,0.0,0.0
1900,474.75,53.9937,57.7187,151.492,98.3019,96.5236,,,,3.49307,0.163299,0.0,0.0
1904,475.75,54.2881,57.5858,151.275,98.2033,98.0051,,,,3.46304,0.0180716,0.0,0.0
1908,476.75,53.8444,57.3798,149.365,98.1175,98.3111,,,,3.48306,-0.0176375,0.0,0.0
1912,477.75,54.1646,57.7451,151.533,98.0336,97.3851,,,,3.49307,0.0593666,0.0,0.0
1916,478.75,54.4457,56.9277,146.173,97.9568,96.9273,,,,3.47305,0.0945091,0.0,0.0
1920,479.75,54.4501,57.387,144.313,97.8686,96.3084,,,,3.47305,0.143746,0.0,0.0
1922,480.25,53.9331,56.8229,146.496,97.8322,98.3397,,,,3.46304,-0.0462879,0.0,0.0