File: 01_Data/PVC/Cone/PVC_Cone_HF75Scan_220210_R1.csv
Names,Time,Stack TC,Smoke TC,Exh Press,Smoke Comp,Smoke Meas,CO Meter,CO2 Meter,O2 Meter,Sample Mass,Ext Coeff,Start Test,Flame Verif
Chan Gain,,500,500,1,1,1,1,1,1,1,1,1.0,1.0
Offset,,0,0,0.140898,0,0,0,0,0,0,0,0.0,0.0
Gain,,1,1,25.011,12.9668,12.6588,1,1,1,1.00088,1.01977,1.0,1.0
Units,sec,C,C,Pa,%,%,%,%,%,g,/m,,
Baseline,,43.8862,47.0906,151.339,98.1509,99.718,0.000233018,0.0724049,20.9689,-871.468,-0.141594,,
4,0.75,42.1646,44.8932,155.768,98.527,100.393,0.000131845,0.0807815,20.9589,42.0069,-0.16786,0.0,0.0
8,1.75,42.4046,45.1349,152.338,98.5057,100.114,7.54438e-05,0.0807472,20.9594,42.077,-0.144844,0.0,0.0
12,2.75,42.1727,44.8152,150.392,98.4811,100.335,4.89138e-05,0.0805739,20.9597,42.0169,-0.16683,0.0,0.0
16,3.75,42.0703,44.9,152.206,98.4495,100.053,6.24119e-05,0.0802831,20.9599,42.0169,-0.144527,0.0,0.0
20,4.75,42.0663,45.1363,155.493,98.4071,99.6667,0.000121719,0.0799545,20.96,42.0369,-0.11377,0.0,0.0
24,5.75,42.4608,44.5255,147.7,98.3553,100.207,0.000213607,0.0795932,20.9601,41.9969,-0.166825,0.0,0.0
28,6.75,42.2581,45.0222,148.958,98.2841,99.4508,0.000305712,0.0792796,20.9604,41.9969,-0.105561,0.0,0.0
32,7.75,42.2624,45.2192,148.175,98.2279,98.8342,0.000361683,0.0789959,20.9611,41.9869,-0.0550459,0.0,0.0
36,8.75,42.2493,45.2907,149.614,98.127,98.8091,0.000366425,0.0787178,20.9608,42.0169,-0.0619669,0.0,0.0
40,9.75,42.643,45.2044,153.003,98.0561,100.022,0.000315429,0.0784191,20.9604,42.0069,-0.177541,0.0,0.0
44,10.75,41.8105,45.0808,151.932,97.973,98.6097,0.00029108,0.0781246,20.9601,41.9969,-0.0579455,0.0,0.0
48,11.75,42.5794,45.0831,146.667,97.8975,97.7154,0.000366923,0.077917,20.9598,41.9669,0.0166486,0.0,0.0
52,12.75,42.5292,45.2689,147.118,97.8124,95.5594,0.000701633,0.0777692,20.9595,41.9368,0.208456,0.0,0.0
56,13.75,42.3547,45.7073,149.879,97.7253,92.1919,0.00143833,0.0781821,20.9587,41.8267,0.521414,0.0,0.0
60,14.75,42.5757,45.517,153.063,97.6521,91.0198,0.00219899,0.0797167,20.9557,41.6666,0.629166,0.0,0.0
64,15.75,42.6821,45.7314,155.256,97.5654,87.0079,0.00409547,0.0840148,20.9481,41.5165,1.02446,0.0,0.0
68,16.75,43.0513,46.1724,145.053,97.4994,88.4218,0.00640447,0.0919848,20.9394,41.3363,0.874206,0.0,0.0
72,17.75,43.5487,46.3988,146.162,97.4285,82.5838,0.00934622,0.103553,20.9275,41.0861,1.47872,0.0,0.0
76,18.75,44.1084,46.7677,141.298,97.3609,82.9187,0.0126528,0.120535,20.9025,40.8158,1.4363,0.0,0.0
80,19.75,44.4805,47.6455,140.264,97.3233,78.3818,0.0175137,0.142062,20.8641,40.5356,1.93619,0.0,0.0
84,20.75,44.7602,48.4655,137.605,97.2833,78.1094,0.0232275,0.175206,20.7936,40.3254,1.96365,0.0,0.0
88,21.75,45.9905,50.0215,131.836,97.2481,68.5241,0.0302083,0.214853,20.7015,40.0151,3.13158,0.0,0.0
92,22.75,46.7485,51.578,131.832,97.2406,64.3187,0.0366141,0.260557,20.6094,39.7049,3.69745,0.0,0.0
96,23.75,48.3127,53.0902,132.904,97.2315,47.5896,0.0426302,0.302522,20.5358,39.5547,6.39126,0.0,0.0
100,24.75,48.7056,54.1116,138.025,97.2457,28.8888,0.0482678,0.342844,20.4665,39.3145,10.8577,0.0,1.0
104,25.75,49.9547,55.109,129.801,97.2647,27.2728,0.0526496,0.375216,20.4117,38.9542,11.3744,0.0,1.0
108,26.75,50.679,56.1258,129.423,97.3066,22.175,0.0559714,0.398869,20.3718,38.684,13.2293,0.0,1.0
112,27.75,51.6704,57.4498,133.132,97.3545,23.1087,0.057935,0.4157,20.3457,38.4137,12.8647,0.0,1.0
116,28.75,52.2531,57.9721,132.572,97.4052,32.8829,0.0580821,0.427972,20.3285,38.1035,9.71397,0.0,1.0
120,29.75,52.4901,59.0807,132.202,97.4661,50.5237,0.0567513,0.436772,20.3188,37.8432,5.87764,0.0,0.0
124,30.75,53.2174,60.1099,142.268,97.537,68.7227,0.0525641,0.44054,20.3241,37.6931,3.13222,0.0,0.0
128,31.75,53.7866,60.9037,137.909,97.6331,76.5201,0.0490981,0.435578,20.345,37.4629,2.17965,0.0,0.0
132,32.75,54.5925,61.7027,138.916,97.7297,75.4609,0.0441085,0.425335,20.3878,37.2227,2.31318,0.0,0.0
136,33.75,55.06,61.8955,143.083,97.8314,71.5104,0.03941,0.406071,20.443,37.1326,2.80349,0.0,0.0
140,34.75,54.7214,61.9781,138.204,97.939,71.3551,0.0356492,0.379252,20.4886,36.8624,2.83278,0.0,0.0
144,35.75,55.3818,62.2957,134.061,98.0498,74.4004,0.032669,0.358575,20.5186,36.7823,2.46904,0.0,0.0
148,36.75,55.6586,62.6379,128.807,98.157,78.5209,0.0305682,0.347615,20.5382,36.5421,1.99664,0.0,0.0
152,37.75,56.4469,63.4944,136.806,98.2758,79.1378,0.0292303,0.346006,20.5511,36.2819,1.93744,0.0,0.0
156,38.75,56.6964,63.9224,143.506,98.3822,73.1993,0.0284922,0.351024,20.551,36.1217,2.6449,0.0,0.0
160,39.75,57.0926,65.0326,140.255,98.4799,81.1648,0.0285266,0.360168,20.5431,35.9215,1.72977,0.0,0.0
164,40.75,57.8102,65.3357,136.721,98.584,83.7508,0.0292912,0.369868,20.525,35.6813,1.45865,0.0,0.0
168,41.75,58.458,66.3356,132.329,98.6703,78.4629,0.0303866,0.389299,20.4927,35.5913,2.04989,0.0,0.0
172,42.75,59.0488,67.0982,132.173,98.7605,77.1773,0.0325718,0.412134,20.445,35.2109,2.20586,0.0,0.0
176,43.75,59.7572,68.0763,128.953,98.8476,74.0689,0.0354764,0.435349,20.4082,35.0208,2.58147,0.0,0.0
180,44.75,60.0843,68.5288,131.364,98.9255,53.9507,0.0383787,0.451644,20.384,34.8106,5.42352,0.0,0.0
184,45.75,60.1857,68.9958,131.301,98.9861,26.0861,0.0416579,0.457257,20.3694,34.5804,11.9293,0.0,0.0
188,46.75,61.2762,70.2535,135.652,99.0419,24.3264,0.0446532,0.454874,20.3655,34.2801,12.5591,0.0,0.0
192,47.75,61.393,70.3012,131.469,99.0802,26.1865,0.047125,0.446478,20.3712,34.0599,11.9034,0.0,0.0
196,48.75,62.0281,71.0875,134.911,99.1064,24.8495,0.0489543,0.433229,20.3816,33.8097,12.3746,0.0,0.0
200,49.75,61.6933,71.0415,135.002,99.144,28.5855,0.0502746,0.421031,20.3924,33.5294,11.1251,0.0,0.0
204,50.75,62.5659,72.0674,135.578,99.1538,30.4932,0.0510971,0.40947,20.4031,33.2892,10.5481,0.0,0.0
208,51.75,62.2765,71.843,134.146,99.1633,30.8548,0.0514243,0.398515,20.4144,33.059,10.4435,0.0,0.0
212,52.75,62.8295,72.216,136.062,99.1629,34.0967,0.0514046,0.388055,20.4261,32.8388,9.54971,0.0,0.0
216,53.75,62.607,71.9464,136.69,99.1451,33.6532,0.0511537,0.379215,20.4401,32.6287,9.66522,0.0,0.0
220,54.75,62.9903,72.491,133.46,99.1368,33.5057,0.0505948,0.370273,20.4554,32.3884,9.70378,0.0,0.0
224,55.75,63.754,73.0292,141.362,99.1052,34.3115,0.0499291,0.361242,20.4708,32.1382,9.48832,0.0,0.0
228,56.75,63.8422,72.8997,137.212,99.0612,38.6298,0.0491876,0.353469,20.486,31.9781,8.42396,0.0,0.0
232,57.75,63.8535,73.4175,132.995,99.0213,37.9228,0.0484455,0.346077,20.4987,31.7078,8.58557,0.0,0.0
236,58.75,63.9899,73.7575,139.173,98.9671,40.0155,0.0478355,0.339292,20.5084,31.5477,8.10019,0.0,0.0
240,59.75,64.5933,74.5302,136.662,98.914,39.2571,0.047019,0.333249,20.5185,31.3575,8.26654,0.0,0.0
244,60.75,64.5475,73.8891,137.104,98.8614,39.7447,0.0462581,0.328493,20.5256,31.1574,8.15137,0.0,0.0
248,61.75,64.9501,74.105,139.356,98.8048,41.8779,0.0456117,0.326169,20.5301,30.9672,7.67857,0.0,0.0
252,62.75,64.2591,74.104,139.384,98.732,40.8901,0.0449761,0.324048,20.5344,30.797,7.8855,0.0,0.0
256,63.75,64.4557,74.0115,137.905,98.6746,40.4041,0.0443567,0.322416,20.5382,30.5268,7.98726,0.0,0.0
260,64.75,65.1435,74.5124,137.456,98.6161,42.3628,0.0438219,0.320116,20.5417,30.2966,7.5585,0.0,0.0
264,65.75,64.9924,74.5828,136.513,98.563,42.3747,0.0433857,0.317261,20.5462,30.1064,7.55115,0.0,0.0
268,66.75,65.2794,74.6364,139.337,98.5033,43.0091,0.0429928,0.314025,20.5508,29.9463,7.41282,0.0,0.0
272,67.75,65.2798,74.6763,136.363,98.4388,38.9925,0.0426858,0.310903,20.5561,29.7661,8.28396,0.0,0.0
276,68.75,65.4475,74.599,136.469,98.4008,44.7011,0.0424892,0.308097,20.5607,29.5459,7.05832,0.0,0.0
280,69.75,65.4136,75.3408,138.697,98.3612,41.3858,0.0422682,0.305468,20.565,29.3658,7.74407,0.0,0.0
284,70.75,65.5144,75.1614,132.556,98.4317,42.9391,0.0420622,0.303506,20.568,29.1856,7.42086,0.0,0.0
288,71.75,66.0532,75.3991,134.412,98.5452,42.9774,0.0417964,0.302492,20.5705,28.9654,7.42321,0.0,0.0
292,72.75,65.2526,74.8574,137.954,98.6434,42.1205,0.0415155,0.301641,20.5722,28.7953,7.61227,0.0,0.0
296,73.75,65.6788,75.5691,134.472,98.7201,42.5563,0.041258,0.301051,20.5731,28.6051,7.52715,0.0,0.0
300,74.75,65.8566,75.716,135.18,98.7835,46.7108,0.0410001,0.300582,20.5742,28.3749,6.69966,0.0,0.0
304,75.75,65.6817,75.6629,135.706,98.8266,43.8818,0.0407105,0.300075,20.5751,28.2348,7.26243,0.0,0.0
308,76.75,65.4508,75.0069,138.206,98.8578,43.8481,0.0404009,0.299076,20.577,28.0446,7.27212,0.0,0.0
312,77.75,66.0303,75.3777,136.767,98.8844,46.3434,0.0400013,0.297672,20.5805,27.8344,6.77943,0.0,0.0
316,78.75,66.5426,76.4323,138.102,98.8958,45.8052,0.0396002,0.295976,20.5836,27.6543,6.88495,0.0,0.0
320,79.75,66.6597,76.2736,136.499,98.884,48.1436,0.0391789,0.294428,20.5864,27.4441,6.43849,0.0,0.0
324,80.75,66.6421,76.2515,137.042,98.8721,47.2616,0.0388074,0.292664,20.5894,27.304,6.60281,0.0,0.0
328,81.75,66.5997,76.0479,143.892,98.8246,50.3259,0.0385354,0.290772,20.5929,27.1138,6.03655,0.0,0.0
332,82.75,65.9855,75.7641,138.599,98.7751,47.1654,0.0383272,0.289179,20.596,27.0037,6.61225,0.0,0.0
336,83.75,66.0539,75.6887,139.49,98.7178,46.5342,0.0381445,0.287574,20.5982,26.7635,6.72759,0.0,0.0
340,84.75,65.9593,75.5543,136.226,98.6386,47.0986,0.0379993,0.286355,20.5997,26.6634,6.61257,0.0,0.0
344,85.75,66.3403,75.9543,139.05,98.5468,51.8426,0.0378476,0.285576,20.6008,26.4432,5.74577,0.0,0.0
348,86.75,66.6909,76.2666,132.622,98.4479,49.3273,0.03773,0.285066,20.6025,26.2931,6.18168,0.0,0.0
352,87.75,66.3742,76.239,134.98,98.3221,49.4072,0.0376534,0.284676,20.6037,26.0929,6.15575,0.0,0.0
356,88.75,66.2101,75.6656,137.443,98.1883,48.5987,0.0375941,0.284476,20.6044,25.9328,6.29117,0.0,0.0
360,89.75,66.5261,75.876,135.98,98.0617,52.6504,0.0375163,0.284481,20.6049,25.7626,5.56331,0.0,0.0
364,90.75,66.6738,76.4416,134.917,98.0363,50.2089,0.0374003,0.284925,20.6052,25.5925,5.98575,0.0,0.0
368,91.75,66.2251,75.7278,140.768,98.0553,49.724,0.0372731,0.284913,20.6054,25.4123,6.07428,0.0,0.0
372,92.75,66.5023,76.0808,140.717,98.0807,51.362,0.0371462,0.284136,20.6069,25.2622,5.78666,0.0,0.0
376,93.75,66.6435,76.1709,141.729,98.1009,52.3131,0.0370066,0.282748,20.6093,25.052,5.62437,0.0,0.0
380,94.75,66.9771,76.5614,139.052,98.1384,49.4123,0.0368393,0.280906,20.6123,24.9219,6.13812,0.0,0.0
384,95.75,67.0283,76.0963,141.214,98.1523,53.2125,0.0366213,0.279049,20.6152,24.7617,5.47658,0.0,0.0
388,96.75,66.5358,75.8388,140.937,98.1879,53.418,0.0363757,0.277304,20.6187,24.5916,5.44534,0.0,0.0
392,97.75,67.1117,76.8514,138.077,98.2263,53.8708,0.0361224,0.274878,20.6223,24.4515,5.37334,0.0,0.0
396,98.75,66.6465,76.5067,138.833,98.2611,51.9755,0.0358727,0.272796,20.6253,24.3013,5.69689,0.0,0.0
400,99.75,66.8428,76.2512,138.448,98.2932,50.6767,0.0356726,0.271104,20.6272,24.1612,5.92618,0.0,0.0
404,100.75,67.1592,76.2639,136.465,98.3181,53.4937,0.0354171,0.269559,20.6297,24.0211,5.44453,0.0,0.0
408,101.75,66.6558,76.1127,141.062,98.3422,56.2879,0.0351255,0.267976,20.6329,23.871,4.99126,0.0,0.0
412,102.75,67.062,76.4761,138.396,98.3715,57.3909,0.0347811,0.266403,20.6358,23.7509,4.82034,0.0,0.0
416,103.75,66.8892,76.217,136.026,98.4087,56.0492,0.0343315,0.264838,20.6395,23.6207,5.03533,0.0,0.0
420,104.75,67.0538,76.4548,136.025,98.4285,57.1915,0.0337579,0.262944,20.644,23.4506,4.85664,0.0,0.0
424,105.75,66.8145,76.2845,139.534,98.4558,56.9474,0.0331366,0.260769,20.6501,23.3105,4.89739,0.0,0.0
428,106.75,67.2437,76.4524,136.025,98.4966,59.8115,0.0325934,0.25776,20.6556,23.1703,4.46214,0.0,0.0
432,107.75,67.0369,76.2854,141.188,98.4958,57.0992,0.0320266,0.254408,20.6604,23.0402,4.87721,0.0,0.0
436,108.75,66.7629,76.1846,139.805,98.5088,59.8506,0.0315243,0.251221,20.665,22.9101,4.45742,0.0,0.0
440,109.75,67.1174,76.3408,138.286,98.5049,60.1302,0.0310426,0.248167,20.6694,22.75,4.41536,0.0,0.0
444,110.75,66.8781,76.0562,138.821,98.5045,60.7082,0.0306519,0.246163,20.6733,22.6599,4.32975,0.0,0.0
448,111.75,67.0072,75.9447,140.531,98.4914,61.2154,0.0303328,0.243647,20.6779,22.5298,4.25414,0.0,0.0
452,112.75,66.9865,76.0385,144.215,98.4756,61.7713,0.0300896,0.241305,20.6821,22.4297,4.17183,0.0,0.0
456,113.75,66.8845,75.9043,140.737,98.4475,60.9736,0.0299124,0.239182,20.6856,22.2796,4.28556,0.0,0.0
460,114.75,66.9112,76.0087,140.612,98.4273,58.6082,0.0297922,0.237232,20.6878,22.1795,4.63766,0.0,0.0
464,115.75,66.7307,75.664,143.034,98.3984,61.9394,0.0296986,0.235686,20.6891,22.0394,4.14052,0.0,0.0
468,116.75,66.4702,75.6941,135.747,98.3529,60.9898,0.0295989,0.234627,20.6899,21.8992,4.27458,0.0,0.0
472,117.75,66.5819,75.4626,139.605,98.3118,59.0138,0.0294911,0.233895,20.6905,21.7591,4.56545,0.0,0.0
476,118.75,66.8628,75.6069,138.442,98.2762,66.535,0.0293546,0.233388,20.6908,21.619,3.48916,0.0,0.0
480,119.75,66.433,75.4737,133.82,98.2374,61.5979,0.029174,0.233188,20.6915,21.5089,4.17532,0.0,0.0
484,120.75,66.4268,75.1241,140.767,98.1867,63.2471,0.0289844,0.23319,20.6923,21.3988,3.93436,0.0,0.0
488,121.75,66.5172,75.3246,138.791,98.142,62.948,0.0286989,0.233145,20.6928,21.3087,3.97268,0.0,0.0
492,122.75,66.3992,75.044,141.68,98.0886,64.1379,0.0283832,0.233002,20.6939,21.1986,3.8003,0.0,0.0
496,123.75,66.7051,75.313,140.058,98.0431,64.4531,0.0280839,0.23251,20.6953,21.0785,3.75229,0.0,0.0
500,124.75,66.55,75.3574,136.074,97.9861,63.7848,0.0277431,0.231603,20.6976,20.9384,3.84033,0.0,0.0
504,125.75,66.5678,75.0511,138.157,97.9457,64.4937,0.0274071,0.230573,20.6994,20.8583,3.73777,0.0,0.0
508,126.75,66.5186,75.1838,138.543,97.9066,60.4443,0.0271251,0.229525,20.7006,20.7582,4.31425,0.0,0.0
512,127.75,66.4533,74.9616,139.962,97.8353,64.8649,0.0269101,0.228727,20.7014,20.6481,3.67634,0.0,0.0
516,128.75,66.2662,74.8978,139.734,97.7823,63.2691,0.0267581,0.22823,20.7019,20.498,3.89433,0.0,0.0
520,129.75,66.3779,74.942,140.337,97.7404,67.8689,0.0266557,0.227923,20.7023,20.4079,3.26269,0.0,0.0
524,130.75,66.378,75.0491,136.994,97.6877,65.969,0.0265863,0.227589,20.7025,20.2678,3.51185,0.0,0.0
528,131.75,66.3155,74.6934,138.096,97.6343,65.4127,0.0265043,0.227453,20.7034,20.1677,3.58271,0.0,0.0
532,132.75,66.4721,74.8528,140.195,97.5935,66.9217,0.0263735,0.227449,20.7046,20.0776,3.37497,0.0,0.0
536,133.75,66.3814,74.8018,141.664,97.529,65.0643,0.0262025,0.227487,20.7054,19.9375,3.62084,0.0,0.0
540,134.75,66.6825,74.9443,138.274,97.4859,66.404,0.0260602,0.22756,20.7059,19.8174,3.43456,0.0,0.0
544,135.75,66.3263,74.6426,141.545,97.444,67.145,0.0259376,0.227627,20.7063,19.6973,3.33145,0.0,0.0
548,136.75,66.3164,74.7266,138.754,97.3913,65.813,0.0258912,0.227765,20.7065,19.5972,3.50586,0.0,0.0
552,137.75,66.46,74.8686,138.435,97.3688,65.7056,0.0259385,0.228106,20.706,19.4971,3.5184,0.0,0.0
556,138.75,66.4453,74.7587,134.824,97.3209,63.8115,0.0260816,0.228456,20.7056,19.397,3.77566,0.0,0.0
560,139.75,66.4928,74.5861,138.752,97.2884,66.0548,0.0262926,0.228794,20.704,19.2969,3.46359,0.0,0.0
564,140.75,66.5891,74.7351,139.919,97.2671,65.5016,0.0265263,0.229251,20.7027,19.1768,3.53686,0.0,0.0
568,141.75,66.4631,74.7104,142.784,97.2414,65.3598,0.0267269,0.229827,20.7016,19.0868,3.55388,0.0,0.0
572,142.75,66.3113,74.7303,137.332,97.2192,66.3318,0.0268995,0.230436,20.7003,18.9466,3.41979,0.0,0.0
576,143.75,66.4833,74.5488,141.302,97.203,67.3772,0.0270001,0.231117,20.6994,18.8365,3.27842,0.0,0.0
580,144.75,66.7296,74.6087,135.365,97.1939,65.5143,0.0270398,0.231884,20.6981,18.7164,3.52839,0.0,0.0
584,145.75,66.5032,74.2974,138.592,97.1959,67.6171,0.0270312,0.232911,20.6972,18.5763,3.24597,0.0,0.0
588,146.75,66.4716,74.4667,142.11,97.1907,66.6833,0.0269865,0.233684,20.6966,18.4862,3.36989,0.0,0.0
592,147.75,66.6177,74.4074,146.618,97.1852,65.9532,0.0269375,0.233944,20.6956,18.3661,3.46786,0.0,0.0
596,148.75,66.1424,74.1436,136.867,97.1852,64.1244,0.0269122,0.234013,20.6948,18.216,3.71941,0.0,0.0
600,149.75,66.454,74.2145,139.546,97.1978,65.9775,0.0269169,0.234222,20.6944,18.0559,3.46573,0.0,0.0
604,150.75,66.3287,74.1596,141.124,97.2026,61.8138,0.0269407,0.234725,20.6917,17.9358,4.04929,0.0,0.0
608,151.75,66.5263,74.4436,139.709,97.2129,65.2296,0.0270021,0.235394,20.6896,17.8257,3.56909,0.0,0.0
612,152.75,66.6124,74.3713,136.468,97.2267,62.063,0.0271201,0.236118,20.6877,17.7256,4.01552,0.0,0.0
616,153.75,66.3343,74.2869,138.28,97.2425,63.2266,0.0272283,0.236872,20.6865,17.6155,3.85082,0.0,0.0
620,154.75,66.3055,74.2713,138.424,97.2501,64.0266,0.02739,0.237473,20.6853,17.4954,3.73903,0.0,0.0
624,155.75,66.39,74.4101,137.681,97.2635,63.91,0.0275526,0.238163,20.6842,17.3352,3.75658,0.0,0.0
628,156.75,65.8946,73.947,137.571,97.273,65.7852,0.0277377,0.238891,20.6835,17.1751,3.49877,0.0,0.0
632,157.75,66.5348,74.4022,138.728,97.2884,62.0062,0.0279525,0.23986,20.6818,17.085,4.02939,0.0,0.0
636,158.75,66.6072,74.4204,142.042,97.3051,62.2507,0.0282386,0.240977,20.6796,16.9649,3.99571,0.0,0.0
640,159.75,66.5261,74.4932,139.248,97.3312,61.7582,0.0285102,0.241521,20.6773,16.8348,4.06917,0.0,0.0
644,160.75,66.7338,74.5923,136.364,97.3446,62.4076,0.0288094,0.241826,20.6758,16.7147,3.97684,0.0,0.0
648,161.75,66.5865,74.5845,136.475,97.3522,65.4093,0.0290848,0.24216,20.6749,16.6046,3.5573,0.0,0.0
652,162.75,66.5039,74.6896,133.682,97.3822,65.3351,0.029283,0.242663,20.6738,16.4945,3.57021,0.0,0.0
656,163.75,66.4695,74.5291,133.88,97.3981,64.863,0.0294042,0.243448,20.6723,16.3444,3.63654,0.0,0.0
660,164.75,66.8204,74.5278,134.007,97.4139,62.7421,0.0294771,0.244448,20.6707,16.2443,3.93537,0.0,0.0
664,165.75,66.6711,74.6001,139.486,97.4321,65.3266,0.0295027,0.245674,20.67,16.1342,3.57596,0.0,0.0
668,166.75,66.5441,74.4072,138.609,97.4404,65.3185,0.0295157,0.246318,20.6696,16.0041,3.57783,0.0,0.0
672,167.75,66.2717,74.2845,135.652,97.4598,68.2784,0.0295399,0.246104,20.6692,15.894,3.18316,0.0,0.0
676,168.75,67.0297,74.976,138.834,97.4721,64.8507,0.0295839,0.245876,20.6689,15.8139,3.64503,0.0,0.0
680,169.75,66.8089,74.814,138.773,97.4812,64.9866,0.0296746,0.245864,20.6688,15.6838,3.62713,0.0,0.0
684,170.75,67.2335,74.6826,139.982,97.4819,63.2556,0.0297243,0.24598,20.6687,15.5837,3.86872,0.0,0.0
688,171.75,67.0877,75.0061,137.33,97.495,60.7495,0.0297251,0.246045,20.6686,15.4135,4.23152,0.0,0.0
692,172.75,66.9987,75.1709,138.069,97.4986,65.6762,0.0296924,0.245958,20.6694,15.2734,3.53431,0.0,0.0
696,173.75,67.3237,74.9897,147.36,97.493,64.6227,0.0296447,0.245604,20.6707,15.1033,3.67845,0.0,0.0
700,174.75,66.6297,74.4209,136.447,97.4875,65.3482,0.0295925,0.2452,20.6715,15.0532,3.57808,0.0,0.0
704,175.75,67.0655,74.7551,138.987,97.4823,64.7637,0.0295541,0.244802,20.672,14.9231,3.65798,0.0,0.0
708,176.75,67.117,74.9987,137.238,97.4843,65.1029,0.0294953,0.244594,20.6723,14.823,3.61143,0.0,0.0
712,177.75,67.1514,75.0477,138.671,97.4717,66.5137,0.0294208,0.244484,20.6725,14.6929,3.41849,0.0,0.0
716,178.75,67.1343,75.0234,138.701,97.4661,64.2225,0.0293121,0.244708,20.6744,14.5828,3.73156,0.0,0.0
720,179.75,67.0737,74.9291,138.521,97.4618,67.1125,0.0292117,0.244886,20.6748,14.4127,3.33741,0.0,0.0
724,180.75,67.1307,75.0227,142.62,97.4535,63.434,0.0291417,0.245282,20.675,14.3226,3.8409,0.0,0.0
728,181.75,67.3233,75.2078,141.933,97.4562,65.3556,0.0291099,0.245487,20.6752,14.1925,3.57421,0.0,0.0
732,182.75,66.8498,74.7007,140.957,97.4364,68.397,0.0291065,0.245451,20.6761,14.0523,3.16549,0.0,0.0
736,183.75,67.7653,75.3211,134.83,97.4305,65.9617,0.029116,0.245347,20.6767,13.9523,3.48926,0.0,0.0
740,184.75,67.3245,74.9656,139.889,97.4206,65.9354,0.0291001,0.245336,20.6771,13.7921,3.49192,0.0,0.0
744,185.75,67.2026,74.9977,134.959,97.3941,67.0214,0.0290284,0.245523,20.6774,13.672,3.34336,0.0,0.0
748,186.75,67.0768,74.929,138.363,97.3858,65.5352,0.0289008,0.245883,20.6771,13.5319,3.54318,0.0,0.0
752,187.75,67.4898,75.3376,137.429,97.364,69.9786,0.028768,0.246496,20.6766,13.4718,2.95435,0.0,0.0
756,188.75,67.1073,75.2163,135.48,97.3569,67.3227,0.0286325,0.247314,20.676,13.3517,3.29981,0.0,0.0
760,189.75,67.642,75.3577,134.202,97.3411,67.6151,0.0285248,0.247984,20.6751,13.2516,3.25958,0.0,0.0
764,190.75,66.941,74.8725,138.036,97.3252,65.7998,0.0284124,0.248369,20.6745,13.1516,3.50157,0.0,0.0
768,191.75,67.7756,75.5821,138.478,97.3138,68.2781,0.0282993,0.248569,20.6741,13.0314,3.1698,0.0,0.0
772,192.75,67.4626,75.24,135.947,97.2924,63.7666,0.0281267,0.248658,20.6737,12.8813,3.77932,0.0,0.0
776,193.75,67.9225,75.4826,136.878,97.2861,62.3875,0.0280183,0.248378,20.6742,12.7912,3.97433,0.0,0.0
780,194.75,67.1409,74.8229,132.479,97.2754,62.3323,0.0278076,0.247635,20.6753,12.6511,3.98127,0.0,0.0
784,195.75,67.3882,75.3607,137.393,97.2437,65.1222,0.0275912,0.246495,20.6762,12.551,3.58667,0.0,0.0
788,196.75,67.5115,75.437,138.215,97.2441,61.4623,0.0273029,0.245942,20.6768,12.4109,4.10413,0.0,0.0
792,197.75,67.5621,75.3717,138.815,97.2216,64.88,0.0269456,0.245481,20.6771,12.3308,3.61797,0.0,0.0
796,198.75,67.7059,75.47,139.433,97.2101,65.2714,0.0266152,0.245188,20.6774,12.2207,3.56312,0.0,0.0
800,199.75,67.5341,75.354,134.198,97.2006,64.2569,0.026382,0.244901,20.678,12.0906,3.70237,0.0,0.0
804,200.75,67.7182,75.3679,136.213,97.203,64.6397,0.0262174,0.244365,20.6788,11.9705,3.64945,0.0,0.0
808,201.75,67.6986,75.4085,139.743,97.1955,63.1165,0.0261409,0.244013,20.6795,11.8604,3.86208,0.0,0.0
812,202.75,67.7846,75.3859,136.799,97.1899,62.7893,0.0261306,0.243868,20.6799,11.7703,3.90807,0.0,0.0
816,203.75,67.6818,75.2156,134.199,97.1907,63.4352,0.0261244,0.243973,20.6802,11.6202,3.81659,0.0,0.0
820,204.75,67.8039,75.4946,144.636,97.2038,64.119,0.026073,0.243985,20.6804,11.4901,3.72188,0.0,0.0
824,205.75,68.0102,75.5439,138.726,97.2105,64.3376,0.026008,0.243897,20.6805,11.4,3.69205,0.0,0.0
828,206.75,67.669,75.134,139.646,97.2243,68.207,0.0259447,0.243225,20.6814,11.33,3.17089,0.0,0.0
832,207.75,67.706,75.2985,140.774,97.2354,66.9731,0.0259031,0.242006,20.6851,11.2399,3.33522,0.0,0.0
836,208.75,67.5991,75.1492,142.756,97.2532,68.0606,0.025888,0.240158,20.6883,11.1098,3.19277,0.0,0.0
840,209.75,67.6439,75.2702,137.265,97.2738,65.0573,0.0259024,0.237924,20.6916,10.9796,3.59836,0.0,0.0
844,210.75,67.3716,74.8162,143.656,97.2995,65.2768,0.0259105,0.235892,20.6942,10.8896,3.5706,0.0,0.0
848,211.75,67.647,75.0635,140.497,97.3336,64.4381,0.0258932,0.234113,20.6958,10.7695,3.68941,0.0,0.0
852,212.75,67.4673,74.9617,139.41,97.3684,62.9531,0.0258296,0.232746,20.6971,10.6794,3.90117,0.0,0.0
856,213.75,67.2684,74.8054,138.706,97.4198,64.3797,0.0257085,0.23168,20.6986,10.5793,3.70544,0.0,0.0
860,214.75,67.296,74.8462,138.439,97.4634,65.2061,0.0255182,0.230556,20.6999,10.4692,3.59535,0.0,0.0
864,215.75,67.1824,74.7796,137.131,97.5097,64.975,0.0252225,0.229444,20.7033,10.4192,3.63134,0.0,0.0
868,216.75,67.2853,74.8003,134.82,97.5591,69.7913,0.0249359,0.227953,20.7065,10.3191,2.99624,0.0,0.0
872,217.75,67.3605,74.745,138.91,97.6066,70.8896,0.0245973,0.226025,20.7102,10.229,2.86091,0.0,0.0
876,218.75,67.3895,74.5129,137.999,97.6652,72.3008,0.0242378,0.223811,20.7144,10.1489,2.68995,0.0,0.0
880,219.75,67.2966,74.445,140.736,97.7115,74.2382,0.0239969,0.221386,20.7177,10.0688,2.45765,0.0,0.0
884,220.75,67.1951,74.5195,145.134,97.7657,76.3525,0.0237533,0.219216,20.7219,9.96876,2.21141,0.0,0.0
888,221.75,66.8618,74.2698,142.792,97.8223,77.263,0.0236049,0.217419,20.7258,9.88869,2.11053,0.0,0.0
892,222.75,67.1651,73.9573,138.18,97.8804,76.1767,0.0235338,0.216352,20.7291,9.83864,2.24252,0.0,0.0
896,223.75,66.916,74.3697,144.619,97.9434,77.9746,0.02354,0.214657,20.7324,9.74856,2.03959,0.0,0.0
900,224.75,66.9611,74.3003,139.561,98.0011,76.823,0.0236048,0.212734,20.735,9.63846,2.17796,0.0,0.0
904,225.75,66.5159,73.9564,142.57,98.0597,74.7249,0.0236959,0.210593,20.7379,9.54839,2.43101,0.0,0.0
908,226.75,66.9974,74.1577,140.405,98.1214,76.4062,0.0237739,0.207901,20.7418,9.45831,2.23761,0.0,0.0
912,227.75,66.7958,73.9548,143.227,98.1855,74.4124,0.0238156,0.205668,20.7459,9.36823,2.47997,0.0,0.0
916,228.75,66.6556,73.9833,141.395,98.2168,77.6076,0.023796,0.20345,20.7494,9.30818,2.10673,0.0,0.0
920,229.75,66.5895,73.6325,141.911,98.2777,78.2501,0.0236958,0.201579,20.7527,9.2181,2.03853,0.0,0.0
924,230.75,66.8473,73.8831,141.22,98.3331,77.5589,0.0235838,0.199988,20.7552,9.11801,2.12293,0.0,0.0
928,231.75,66.5982,73.6239,141.175,98.3656,77.2167,0.0233343,0.198686,20.7574,9.07797,2.16545,0.0,0.0
932,232.75,66.552,73.6452,142.944,98.4107,79.3468,0.0230478,0.197402,20.7596,8.96788,1.92612,0.0,0.0
936,233.75,66.5426,73.4907,139.066,98.4427,77.443,0.0228051,0.196187,20.761,8.8778,2.14628,0.0,0.0
940,234.75,66.5972,73.4733,135.561,98.476,78.0268,0.0225672,0.195189,20.762,8.7677,2.08212,0.0,0.0
944,235.75,66.4118,73.3746,140.502,98.5001,81.0458,0.0223296,0.194583,20.7634,8.71766,1.74473,0.0,0.0
948,236.75,66.2789,73.3577,137.372,98.5076,77.6613,0.0220625,0.194221,20.7643,8.6576,2.127,0.0,0.0
952,237.75,66.389,73.2301,141.742,98.5053,79.0718,0.0217701,0.193831,20.7651,8.57753,1.96578,0.0,0.0
956,238.75,66.2704,73.1439,141.056,98.5128,80.7495,0.0214113,0.193354,20.7662,8.49746,1.77864,0.0,0.0
960,239.75,66.0746,72.8324,141.896,98.4981,79.3051,0.021083,0.192857,20.7669,8.44742,1.93877,0.0,0.0
964,240.75,66.1543,72.8607,140.906,98.4859,80.252,0.0207517,0.192092,20.7682,8.37736,1.83149,0.0,0.0
968,241.75,66.0868,72.7801,139.227,98.459,78.2296,0.0204572,0.191642,20.7696,8.26726,2.05736,0.0,0.0
972,242.75,66.1118,72.9018,142.124,98.4245,77.8525,0.0201812,0.191285,20.7708,8.22723,2.09745,0.0,0.0
976,243.75,66.3097,72.84,141.725,98.3755,78.7507,0.0199835,0.190852,20.7715,8.15716,1.99037,0.0,0.0
980,244.75,65.6855,72.4393,143.336,98.3426,79.5859,0.0198852,0.19029,20.772,8.10712,1.89301,0.0,0.0
984,245.75,65.7784,72.4822,142.625,98.3205,78.0893,0.0198461,0.189466,20.7735,8.06709,2.06081,0.0,0.0
988,246.75,65.4576,72.3728,141.701,98.2991,76.5947,0.0199292,0.188519,20.7757,8.00703,2.23175,0.0,0.0
992,247.75,65.9915,72.7493,142.117,98.2481,79.7841,0.0200004,0.187441,20.7774,7.94698,1.86216,0.0,0.0
996,248.75,65.7163,72.2148,141.678,98.2029,78.0596,0.0199832,0.186676,20.7785,7.82687,2.05352,0.0,0.0
1000,249.75,65.557,71.8578,138.202,98.1713,75.2576,0.0198414,0.186144,20.7792,7.76682,2.37764,0.0,0.0
1004,250.75,65.57,72.3092,140.852,98.1313,76.1527,0.0196167,0.185883,20.7797,7.72679,2.26823,0.0,0.0
1008,251.75,65.5996,71.8563,137.738,98.1115,78.8326,0.0194199,0.18593,20.78,7.65672,1.95704,0.0,0.0
1012,252.75,65.5888,71.9731,141.141,98.0898,77.5164,0.019234,0.18618,20.7802,7.59667,2.10567,0.0,0.0
1016,253.75,65.6043,72.1851,139.915,98.0637,76.3818,0.0191215,0.186318,20.7811,7.53662,2.23519,0.0,0.0
1020,254.75,65.3934,71.7353,141.714,98.0494,77.9738,0.0190594,0.185662,20.7817,7.44654,2.04936,0.0,0.0
1024,255.75,65.2822,71.5406,142.828,98.1737,78.036,0.0190022,0.184763,20.7828,7.3965,2.05356,0.0,0.0
1028,256.75,65.6961,72.2079,136.352,98.3205,78.2168,0.0189176,0.183765,20.7844,7.38649,2.04622,0.0,0.0
1032,257.75,65.4811,71.8654,145.696,98.4685,79.8865,0.018808,0.183017,20.7854,7.27639,1.87073,0.0,0.0
1036,258.75,65.5436,71.8425,142.455,98.5852,77.477,0.0186842,0.182411,20.7861,7.21634,2.15529,0.0,0.0
1040,259.75,65.3378,71.4731,140.904,98.6861,75.7008,0.0185721,0.181982,20.7868,7.16629,2.37191,0.0,0.0
1044,260.75,64.9961,71.3121,145.748,98.7747,77.4148,0.0184754,0.181667,20.7878,7.09623,2.17965,0.0,0.0
1048,261.75,65.3109,71.5062,142.038,98.8519,80.8801,0.0183886,0.181352,20.7885,7.04619,1.79493,0.0,0.0
1052,262.75,65.1199,71.3184,140.564,98.8761,77.7471,0.0183035,0.180606,20.7895,6.96612,2.15051,0.0,0.0
1056,263.75,65.0268,71.2254,142.518,98.8958,81.8567,0.0182195,0.179934,20.7904,6.91607,1.69154,0.0,0.0
1060,264.75,64.9837,71.1853,144.205,98.9022,79.9576,0.0181456,0.179485,20.7916,6.86603,1.90209,0.0,0.0
1064,265.75,64.8138,70.8484,134.784,98.8974,77.416,0.0180596,0.179145,20.7925,6.81599,2.19062,0.0,0.0
1068,266.75,65.01,71.0751,142.747,98.8717,76.9389,0.017921,0.178607,20.7936,6.75593,2.24359,0.0,0.0
1072,267.75,64.9058,70.8786,144.398,98.8258,80.1032,0.0177338,0.177738,20.7954,6.70589,1.8789,0.0,0.0
1076,268.75,64.5773,70.5344,137.261,98.753,80.0746,0.0175671,0.176443,20.7966,6.63583,1.8755,0.0,0.0
1080,269.75,64.562,70.6965,137.838,98.6632,77.3028,0.0173177,0.175184,20.7978,6.62582,2.1825,0.0,0.0
1084,270.75,64.7345,70.6797,141.416,98.5607,78.0287,0.0170677,0.174318,20.7989,6.52573,2.08959,0.0,0.0
1088,271.75,64.3462,70.3461,143.242,98.4317,78.3559,0.0168217,0.173568,20.7999,6.50571,2.04044,0.0,0.0
1092,272.75,64.7557,70.8798,144.335,98.3711,78.4915,0.0166446,0.172622,20.8011,6.44566,2.01947,0.0,0.0
1096,273.75,64.178,70.0857,141.626,98.4032,78.7264,0.0164493,0.171911,20.8019,6.3756,1.99566,0.0,0.0
1100,274.75,64.6134,70.61,144.417,98.4708,78.8504,0.0163026,0.1717,20.8024,6.33556,1.98773,0.0,0.0
1104,275.75,64.6494,70.5022,141.423,98.5231,77.3183,0.016204,0.171587,20.8034,6.2655,2.168,0.0,0.0
1108,276.75,64.4629,70.3424,143.84,98.5987,78.6858,0.0161277,0.171245,20.8042,6.25549,2.01802,0.0,0.0
1112,277.75,64.4983,70.3044,143.199,98.6643,78.3215,0.0160358,0.170649,20.8053,6.15541,2.06549,0.0,0.0
1116,278.75,64.3585,70.2483,140.266,98.7407,78.5046,0.0158967,0.170034,20.8062,6.11537,2.05152,0.0,0.0
1120,279.75,64.1481,69.8475,141.891,98.8171,78.6221,0.0157656,0.169409,20.8068,6.13539,2.04506,0.0,0.0
1124,280.75,63.9253,69.7174,141.269,98.8875,79.0204,0.0155451,0.168864,20.8072,6.05532,2.00624,0.0,0.0
1128,281.75,63.8861,69.6005,141.929,98.9572,78.2937,0.0152331,0.168451,20.8084,6.02529,2.09518,0.0,0.0
1132,282.75,63.921,69.6823,146.257,99.0114,80.6043,0.0150494,0.168104,20.8089,6.00527,1.83991,0.0,0.0
1136,283.75,64.2359,69.9044,143.771,99.0585,77.8722,0.0147664,0.167716,20.81,5.90519,2.15261,0.0,0.0
1140,284.75,63.6885,69.5439,145.982,99.1111,81.2826,0.0145046,0.167101,20.8109,5.86515,1.77394,0.0,0.0
1144,285.75,63.8206,69.4514,139.13,99.1372,81.8811,0.0142435,0.16666,20.8114,5.82512,1.71068,0.0,0.0
1148,286.75,63.9565,69.6458,142.778,99.1499,83.3433,0.0139915,0.16628,20.8118,5.8051,1.55349,0.0,0.0
1152,287.75,63.9244,69.5258,139.031,99.1535,81.6697,0.0137302,0.166388,20.812,5.72503,1.73526,0.0,0.0
1156,288.75,63.9161,69.5043,143.58,99.1471,79.3847,0.0134939,0.166801,20.8122,5.695,1.98854,0.0,0.0
1160,289.75,63.6985,69.3485,141.681,99.1155,78.0608,0.0132454,0.167073,20.8125,5.61493,2.13613,0.0,0.0
1164,290.75,63.3768,68.9979,140.067,99.0743,82.2376,0.0130008,0.16693,20.8133,5.56489,1.66613,0.0,0.0
1168,291.75,63.5315,69.1289,141.081,99.0146,79.3128,0.0127917,0.166469,20.8138,5.55488,1.98468,0.0,0.0
1172,292.75,63.5084,69.0017,138.558,98.9552,80.5633,0.0126221,0.165871,20.8146,5.53486,1.83937,0.0,0.0
1176,293.75,63.4728,68.8914,144.802,98.8662,81.0543,0.0125022,0.165259,20.8154,5.49483,1.77697,0.0,0.0
1180,294.75,63.1724,68.8026,139.782,98.7815,79.3727,0.0124121,0.164815,20.8166,5.4648,1.95684,0.0,0.0
1184,295.75,62.8978,68.3092,139.606,98.6643,82.5053,0.0122937,0.164421,20.8176,5.40475,1.59997,0.0,0.0
1188,296.75,63.4682,68.941,147.348,98.548,83.6114,0.012128,0.163803,20.8186,5.39474,1.47029,0.0,0.0
1192,297.75,63.0996,68.234,141.746,98.4123,85.1389,0.0119043,0.163293,20.8196,5.34469,1.29602,0.0,0.0
1196,298.75,63.1517,68.5222,139.843,98.2777,82.2438,0.0116471,0.16297,20.8203,5.3547,1.59325,0.0,0.0
1200,299.75,63.1671,68.4158,142.864,98.1468,82.7711,0.0113873,0.162816,20.8208,5.30466,1.52415,0.0,0.0
1204,300.75,63.2314,68.5622,144.936,98.0047,81.7895,0.0111795,0.162641,20.8211,5.26462,1.61791,0.0,0.0
1208,301.75,63.0406,68.3672,138.057,97.8713,80.9454,0.0109966,0.162437,20.822,5.19456,1.69853,0.0,0.0
1212,302.75,62.8198,67.956,147.472,97.7463,84.1341,0.0108517,0.16215,20.8227,5.13451,1.34148,0.0,0.0
1216,303.75,62.8084,67.902,142.838,97.6292,84.401,0.010734,0.162064,20.8231,5.13451,1.30241,0.0,0.0
1220,304.75,62.8151,67.9409,145.065,97.5188,82.1403,0.0106229,0.162187,20.8234,5.09447,1.53516,0.0,0.0
1224,305.75,62.7067,67.7536,140.95,97.4266,82.9175,0.0104946,0.162303,20.8236,5.07446,1.44246,0.0,0.0
1228,306.75,62.8151,67.809,142.71,97.3482,80.0912,0.0103481,0.162283,20.8237,5.04443,1.74548,0.0,0.0
1232,307.75,62.8028,67.9492,142.476,97.2845,83.8717,0.010169,0.162069,20.8238,5.0044,1.32705,0.0,0.0
1236,308.75,62.7825,68.0537,142.207,97.2457,82.6552,0.00992209,0.161494,20.8246,5.0144,1.45418,0.0,0.0
1240,309.75,62.4109,67.8498,140.418,97.2216,83.6736,0.00968544,0.160847,20.8259,4.99439,1.34242,0.0,0.0
1244,310.75,62.5941,67.732,145.252,97.2085,84.9399,0.00949794,0.159891,20.8276,4.92432,1.20685,0.0,0.0
1248,311.75,62.5335,67.6114,140.466,97.2394,83.181,0.0093721,0.159164,20.8294,4.91432,1.39687,0.0,0.0
1252,312.75,62.4111,67.5947,145.275,97.2754,83.8204,0.00929431,0.15866,20.8313,4.87428,1.33169,0.0,0.0
1256,313.75,62.4208,67.3066,138.96,97.3466,86.9101,0.00922535,0.15813,20.8327,4.87428,1.01443,0.0,0.0
1260,314.75,62.333,67.4786,146.213,97.4258,85.4827,0.00915987,0.157574,20.8336,4.87428,1.16984,0.0,0.0
1264,315.75,62.2514,67.5056,145.485,97.5168,86.7255,0.00906755,0.157129,20.8343,4.84425,1.04908,0.0,0.0
1268,316.75,62.1308,67.193,143.455,97.6398,83.2088,0.00895395,0.156871,20.8353,4.7842,1.43065,0.0,0.0
1272,317.75,62.1714,67.2643,139.724,97.7463,84.1696,0.00884749,0.156702,20.8363,4.81423,1.3377,0.0,0.0
1276,318.75,62.0234,66.8289,146.762,97.8535,88.4936,0.0087623,0.15629,20.8383,4.77419,0.899374,0.0,0.0
1280,319.75,61.3041,66.3185,144.984,97.9655,86.8769,0.00868237,0.155285,20.8406,4.72415,1.07454,0.0,0.0
1284,320.75,61.9259,66.9576,151.065,98.0783,88.5674,0.00858012,0.154096,20.843,4.73416,0.912441,0.0,0.0
1288,321.75,62.0793,66.8731,147.172,98.1855,87.6403,0.0084841,0.152836,20.8448,4.71414,1.01635,0.0,0.0
1292,322.75,61.7224,66.8732,142.034,98.2663,88.3565,0.0083219,0.151581,20.8464,4.70413,0.950898,0.0,0.0
1296,323.75,61.4003,66.5598,143.977,98.3509,88.4755,0.00810829,0.15038,20.8488,4.65409,0.946566,0.0,0.0
1300,324.75,61.8396,66.8348,144.078,98.4202,87.9053,0.00787898,0.149521,20.8504,4.60404,1.0107,0.0,0.0
1304,325.75,61.4911,66.4779,143.874,98.4708,89.5243,0.0076506,0.148568,20.852,4.554,0.852043,0.0,0.0
1308,326.75,61.7539,66.5862,144.39,98.5215,89.2651,0.00744118,0.147746,20.8541,4.57402,0.882583,0.0,0.0
1312,327.75,61.229,66.0835,143.906,98.5156,91.0503,0.00722473,0.146915,20.8562,4.53398,0.704915,0.0,0.0
1316,328.75,61.2085,65.9609,143.012,98.5152,91.4258,0.00700082,0.146148,20.8575,4.56401,0.668064,0.0,0.0
1320,329.75,61.3487,65.9703,145.096,98.4942,90.6145,0.00674258,0.145306,20.8584,4.54399,0.74589,0.0,0.0
1324,330.75,61.4998,66.2165,140.64,98.4499,90.9985,0.00649601,0.144451,20.86,4.57402,0.704036,0.0,0.0
1328,331.75,60.935,65.6623,141.968,98.3826,93.056,0.00623707,0.143314,20.8616,4.53398,0.497915,0.0,0.0
1332,332.75,61.1576,65.9364,146.286,98.3153,91.3049,0.00599585,0.142212,20.8635,4.53398,0.661739,0.0,0.0
1336,333.75,60.7971,65.5392,144.57,98.2639,92.1907,0.00581255,0.141156,20.8662,4.51396,0.570689,0.0,0.0
1340,334.75,60.9027,65.5762,146.861,98.2018,93.5668,0.00568567,0.140045,20.8681,4.51396,0.432498,0.0,0.0
1344,335.75,60.978,65.5252,144.388,98.1373,93.999,0.00562502,0.138747,20.8697,4.46392,0.385386,0.0,0.0
1348,336.75,60.5349,65.0167,146.847,98.0767,93.814,0.00560821,0.13741,20.8719,4.43389,0.397494,0.0,0.0
1352,337.75,60.7899,65.3828,147.681,98.0296,95.2878,0.00558817,0.13606,20.8749,4.40387,0.253761,0.0,0.0
1356,338.75,60.6009,65.2191,143.255,98.0055,95.2422,0.00556713,0.134732,20.8775,4.43389,0.255839,0.0,0.0
1360,339.75,60.6217,65.0945,145.032,98.1365,95.4682,0.00550922,0.133495,20.881,4.42389,0.246585,0.0,0.0
1364,340.75,60.3904,64.7827,141.775,98.3569,95.5555,0.00543596,0.131997,20.8837,4.38385,0.258476,0.0,0.0
1368,341.75,60.3758,64.7961,143.009,98.5294,95.3519,0.00535485,0.130797,20.8862,4.36383,0.293233,0.0,0.0
1372,342.75,60.3455,64.8392,145.838,98.6691,95.7811,0.00530164,0.129629,20.8884,4.36383,0.265731,0.0,0.0
1376,343.75,59.844,64.4031,143.709,98.7775,94.9053,0.00528402,0.128539,20.8909,4.38385,0.357725,0.0,0.0
1380,344.75,60.1393,64.416,143.605,98.846,96.1126,0.00533646,0.127507,20.8926,4.36383,0.250851,0.0,0.0
1384,345.75,59.8904,64.2497,144.478,98.8733,96.7149,0.00544716,0.126183,20.8937,4.37384,0.197443,0.0,0.0
1388,346.75,59.8461,63.9823,142.166,98.8666,97.3225,0.00557617,0.124865,20.895,4.37384,0.140805,0.0,0.0
1392,347.75,59.6402,63.8575,143.22,98.8167,97.7065,0.00572933,0.123523,20.8973,4.36383,0.101067,0.0,0.0
1396,348.75,59.6397,63.7203,151.187,98.7281,96.8856,0.00586079,0.121998,20.9004,4.35382,0.168514,0.0,0.0
1400,349.75,59.6939,63.7407,142.907,98.6184,97.3643,0.00595805,0.120286,20.9032,4.3238,0.114494,0.0,0.0
1404,350.75,59.4091,63.5063,145.218,98.4495,96.524,0.00602343,0.118518,20.9064,4.33381,0.176685,0.0,0.0
1408,351.75,59.5181,63.292,151.153,98.3691,97.5018,0.00603961,0.116972,20.9092,4.37384,0.0792247,0.0,0.0
1412,352.75,58.7102,63.227,143.21,98.4297,96.2826,0.00600286,0.115607,20.9119,4.30378,0.197291,0.0,0.0
1416,353.75,58.4862,62.5708,144.432,98.5163,96.157,0.00592473,0.114193,20.9142,4.28376,0.216836,0.0,0.0
1420,354.75,58.3546,62.3218,141.065,98.6062,98.1137,0.00583947,0.112969,20.9165,4.3238,0.0447882,0.0,0.0
1424,355.75,58.0424,62.0791,146.412,98.7154,96.0713,0.00575849,0.112018,20.918,4.33381,0.242873,0.0,0.0
1428,356.75,57.6508,61.9114,147.804,98.8329,97.0838,0.00571231,0.111518,20.919,4.34382,0.159732,0.0,0.0
1432,357.75,57.813,61.4445,146.739,98.9137,98.0901,0.00568562,0.11152,20.9196,4.3238,0.0747865,0.0,0.0
1436,358.75,57.5249,61.2149,147.679,98.9999,99.2425,0.00567102,0.111774,20.9201,4.3238,-0.0218942,0.0,0.0
1440,359.75,58.063,61.6986,144.848,99.0692,98.6797,0.00567439,0.112073,20.9203,4.29377,0.0352379,0.0,0.0
1444,360.75,57.7932,61.6306,145.044,99.1147,97.8247,0.00568671,0.112343,20.9205,4.29377,0.117183,0.0,0.0
1448,361.75,57.7323,61.2744,151.222,99.1392,97.7104,0.00569579,0.11215,20.9206,4.27375,0.12986,0.0,0.0
1452,362.75,57.3843,60.3883,146.183,99.1384,97.9951,0.00565759,0.111604,20.9204,4.29377,0.10376,0.0,0.0
1456,363.75,57.2649,60.743,149.121,99.1123,98.6534,0.0055972,0.11095,20.9203,4.23372,0.0415142,0.0,0.0
1460,364.75,57.3578,61.2943,151.129,99.0719,97.8302,0.0055078,0.110378,20.9209,4.24373,0.112831,0.0,0.0
1464,365.75,57.0383,60.9106,145.397,98.9778,97.0857,0.00537391,0.109653,20.922,4.23372,0.172653,0.0,0.0
1468,366.75,56.2212,59.5839,143.166,98.8804,97.2542,0.00520913,0.108808,20.9227,4.19368,0.148345,0.0,0.0
1472,367.75,57.1167,60.1497,145.723,98.7546,96.9103,0.00505424,0.107866,20.9238,4.24373,0.168633,0.0,0.0
1476,368.75,56.6314,60.447,146.255,98.6089,97.0931,0.00486484,0.106697,20.9255,4.22371,0.138582,0.0,0.0
1480,369.75,57.1714,60.5703,149.009,98.442,97.5655,0.00470323,0.105559,20.9274,4.2137,0.0799973,0.0,0.0
1484,370.75,56.2665,59.5116,147.56,98.2916,97.547,0.00456265,0.104541,20.929,4.24373,0.0680234,0.0,0.0
1488,371.75,56.231,60.2958,149.382,98.1123,97.7459,0.00443003,0.103532,20.9305,4.23372,0.0334682,0.0,0.0
1492,372.75,56.5406,59.9536,146.687,97.9493,96.6326,0.00427429,0.102628,20.9319,4.26374,0.121067,0.0,0.0
1496,373.75,56.6257,59.9371,139.134,97.7795,97.1854,0.00410755,0.101676,20.9334,4.22371,0.0545211,0.0,0.0
1500,374.75,56.3851,59.8807,147.99,97.6379,96.7759,0.00390955,0.100674,20.9349,4.19368,0.079322,0.0,0.0
1504,375.75,56.0566,59.51,145.75,97.4918,95.8143,0.00371929,0.099773,20.9359,4.23372,0.155258,0.0,0.0
1508,376.75,56.1486,59.2945,148.395,97.3747,96.2775,0.00354497,0.0989614,20.9365,4.12362,0.101364,0.0,0.0
1512,377.75,56.2856,59.2946,144.965,97.3003,95.8267,0.00339574,0.09838,20.937,4.19368,0.136512,0.0,0.0
1516,378.75,56.1677,59.274,147.585,97.2556,95.8796,0.00328066,0.0979791,20.9377,4.17367,0.127461,0.0,0.0
1520,379.75,55.6096,59.7753,146.482,97.2354,94.99,0.00318166,0.0976531,20.9385,4.2137,0.208998,0.0,0.0
1524,380.75,55.7937,59.421,146.399,97.2457,95.7854,0.00308934,0.0974642,20.9391,4.18367,0.135351,0.0,0.0
1528,381.75,55.8805,59.1254,149.936,97.2987,96.5306,0.00298849,0.0973802,20.9394,4.17367,0.0709025,0.0,0.0
1532,382.75,55.5898,58.7189,147.378,97.3751,97.5493,0.00288055,0.0973283,20.9396,4.16366,-0.0159879,0.0,0.0
1536,383.75,55.8972,58.8552,149.295,97.4808,95.8881,0.00277697,0.0972666,20.9398,4.16366,0.147354,0.0,0.0
1540,384.75,55.4787,59.4815,146.709,97.5963,95.7962,0.00268957,0.0972435,20.9399,4.15365,0.166533,0.0,0.0
1544,385.75,55.5233,58.9879,145.57,97.7083,96.5866,0.00260485,0.0972283,20.9398,4.15365,0.103288,0.0,0.0
1548,386.75,55.52,58.658,149.75,97.8563,97.7367,0.00251313,0.0971449,20.9397,4.12362,0.0109428,0.0,0.0
1552,387.75,55.3984,58.7601,142.611,97.9849,95.5574,0.00239612,0.0970688,20.9398,4.16366,0.224401,0.0,0.0
1556,388.75,55.8427,58.3154,150.613,98.1068,96.8412,0.00226346,0.0969667,20.9405,4.11361,0.116149,0.0,0.0
1560,389.75,55.6619,58.3187,146.914,98.2453,96.7844,0.00214624,0.0968753,20.9409,4.13363,0.134015,0.0,0.0
1564,390.75,55.4408,58.4054,147.694,98.3276,97.3534,0.00205244,0.0967663,20.9412,4.13363,0.089066,0.0,0.0
1568,391.75,55.262,58.7814,148.507,98.4123,97.7834,0.00198008,0.0965791,20.942,4.14364,0.0573452,0.0,0.0
1572,392.75,55.6552,58.4621,144.908,98.478,97.1356,0.00192828,0.0963672,20.9427,4.1036,0.122779,0.0,0.0
1576,393.75,55.189,57.995,141.841,98.5144,97.8943,0.00188564,0.0960909,20.9431,4.15365,0.0564838,0.0,0.0
1580,394.75,55.574,58.5693,146.986,98.5076,96.8547,0.00186448,0.0957329,20.9439,4.11361,0.151375,0.0,0.0
1584,395.75,54.434,58.0523,145.247,98.4839,97.9263,0.00186608,0.0952715,20.9447,4.13363,0.0507874,0.0,0.0
1588,396.75,55.0283,58.2568,148.525,98.4467,96.5132,0.00187079,0.094818,20.9457,4.0936,0.177436,0.0,0.0
1592,397.75,54.9005,58.3101,148.188,98.3751,97.6119,0.00185816,0.0943004,20.9467,4.1036,0.0696689,0.0,0.0
1596,398.75,54.943,58.3467,144.4,98.29,97.0938,0.00181152,0.0938048,20.9473,4.14364,0.10953,0.0,0.0
1600,399.75,54.6966,58.0388,146.324,98.2124,96.6747,0.00171391,0.0933086,20.9484,4.12362,0.14117,0.0,0.0
1604,400.75,55.4036,58.3711,144.944,98.1408,96.4282,0.00158941,0.0928853,20.9492,4.1036,0.157478,0.0,0.0
1608,401.75,54.9772,57.7379,146.107,98.0732,95.9283,0.00147968,0.0926075,20.9491,4.0936,0.197804,0.0,0.0
1612,402.75,54.8468,58.0814,150.967,98.0039,95.632,0.00139905,0.0924466,20.9489,4.0936,0.219158,0.0,0.0
1616,403.75,54.8734,58.4669,145.818,97.9477,96.1833,0.00133321,0.0923859,20.9488,4.08359,0.16261,0.0,0.0
1620,404.75,54.6221,57.7688,145.886,98.1194,96.8037,0.00127215,0.0923018,20.9487,4.08359,0.120764,0.0,0.0
1624,405.75,54.8267,57.8038,143.987,98.3565,97.0506,0.00120928,0.0922176,20.9487,4.08359,0.119567,0.0,0.0
1628,406.75,54.65,58.2513,147.083,98.5405,96.4228,0.00116378,0.092145,20.9486,4.06357,0.194336,0.0,0.0
1632,407.75,54.8155,57.8781,149.941,98.6841,97.7459,0.00114005,0.0921707,20.9486,4.02353,0.0854513,0.0,0.0
1636,408.75,54.8325,57.8745,147.224,98.7708,97.005,0.00115505,0.0922261,20.9487,4.04355,0.161371,0.0,0.0
1640,409.75,54.633,57.9209,148.617,98.8246,97.6049,0.00118862,0.0922535,20.9489,4.05356,0.11109,0.0,0.0
1644,410.75,54.6471,57.7247,147.717,98.8373,96.1381,0.00123869,0.0922663,20.949,4.05356,0.24769,0.0,0.0
1648,411.75,54.5578,57.3411,141.722,98.7815,95.3179,0.00129853,0.09246,20.9491,4.01353,0.319278,0.0,0.0
1652,412.75,54.5046,57.6633,149.09,98.696,95.5683,0.00138056,0.0926218,20.9491,4.02353,0.288073,0.0,0.0
1656,413.75,54.4562,57.637,145.667,98.5397,96.3788,0.00143746,0.0928012,20.9491,4.02353,0.19835,0.0,0.0
1660,414.75,54.4042,57.6145,151.785,98.3414,97.6351,0.00151819,0.0929767,20.9492,4.02353,0.0644859,0.0,0.0
1664,415.75,54.6894,57.6948,145.398,98.3873,97.9885,0.00159279,0.0931267,20.9492,4.03354,0.036333,0.0,0.0
1668,416.75,54.887,57.14,149.861,98.4637,97.7243,0.00164173,0.0931949,20.9492,4.04355,0.0674286,0.0,0.0
1672,417.75,53.9985,57.0578,150.286,98.5658,97.9124,0.00165005,0.0933181,20.9492,4.02353,0.0594948,0.0,0.0
1676,418.75,54.7695,57.2891,149.828,98.6746,97.4604,0.00163402,0.0935348,20.9492,4.01353,0.110754,0.0,0.0
1680,419.75,55.0796,57.3428,148.272,98.7941,97.9267,0.00159894,0.0937141,20.9492,4.00352,0.0788875,0.0,0.0
1684,420.75,53.9608,57.2484,146.449,98.8958,97.8839,0.00157012,0.0937553,20.9492,4.00352,0.092008,0.0,0.0
1688,421.75,54.288,57.5985,145.225,98.9888,96.8223,0.00155121,0.093765,20.9492,4.02353,0.197962,0.0,0.0
1692,422.75,54.0663,57.027,146.758,99.0775,96.9393,0.0015388,0.0936735,20.9492,4.04355,0.195161,0.0,0.0
1696,423.75,54.5964,57.3517,150.7,99.123,97.574,0.00152827,0.093575,20.9492,4.02353,0.14089,0.0,0.0
1700,424.75,54.4311,56.6832,148.077,99.1356,98.186,0.00151943,0.0935,20.9492,4.01353,0.0861071,0.0,0.0
1704,425.75,53.8537,57.471,147.582,99.1131,97.5211,0.00150499,0.0934508,20.9492,3.99351,0.14485,0.0,0.0
1708,426.75,54.432,57.3774,147.12,99.0696,97.3318,0.00148256,0.0933414,20.9492,3.97349,0.158301,0.0,0.0
1712,427.75,54.0584,57.2177,149.736,98.9726,98.0175,0.00145424,0.0931949,20.9492,3.97349,0.0867429,0.0,0.0
1716,428.75,54.303,57.3236,146.128,98.8571,97.0869,0.00141838,0.0930415,20.9492,3.95347,0.161632,0.0,0.0
1720,429.75,53.9974,56.9743,149.753,98.7205,96.7771,0.001381,0.0929158,20.9492,3.94346,0.177861,0.0,0.0
1724,430.75,53.8578,57.3633,146.052,98.5183,96.9034,0.00135372,0.0927986,20.9492,3.94346,0.147851,0.0,0.0
1728,431.75,53.8556,56.7709,143.653,98.3268,96.0114,0.00130563,0.0926972,20.9495,3.9835,0.213168,0.0,0.0
1732,432.75,53.8563,56.447,150.7,98.1214,96.3189,0.0012443,0.0926552,20.9499,3.97349,0.16586,0.0,0.0
1736,433.75,54.048,56.7495,145.6,97.9374,95.9314,0.00115495,0.0926951,20.9501,3.99351,0.185127,0.0,0.0
1740,434.75,53.6042,56.96,144.184,97.7372,95.7178,0.00106182,0.0927476,20.9502,3.97349,0.186762,0.0,0.0
1744,435.75,53.7141,56.8004,141.845,97.5777,95.5146,0.000990336,0.0927127,20.9501,3.99351,0.191165,0.0,0.0
1748,436.75,53.9325,56.5695,149.55,97.4452,95.2268,0.000952728,0.0926653,20.9494,3.9835,0.205999,0.0,0.0
1752,437.75,54.168,57.3036,145.992,97.3427,96.2775,0.000939806,0.0926343,20.949,3.96348,0.0984187,0.0,0.0
1756,438.75,54.1361,56.8302,145.891,97.2869,95.744,0.000943545,0.0926383,20.9495,3.95347,0.142996,0.0,0.0
1760,439.75,53.5398,56.5115,149.383,97.2619,96.7519,0.000963228,0.0926217,20.9499,3.93345,0.0470288,0.0,0.0
1764,440.75,53.9499,56.6,147.359,97.2873,95.6815,0.000995533,0.0926249,20.9501,3.94346,0.148882,0.0,0.0
1768,441.75,53.7108,56.5719,146.531,97.3379,95.5235,0.0010439,0.0925782,20.9502,3.94346,0.168322,0.0,0.0
1772,442.75,53.9313,56.8038,143.888,97.4428,95.1163,0.00109824,0.0924754,20.9503,3.96348,0.216166,0.0,0.0
1776,443.75,53.9567,56.8159,146.921,97.5829,95.6525,0.00114481,0.0923173,20.9504,3.9835,0.17873,0.0,0.0
1780,444.75,54.2042,56.7569,146.144,97.7142,96.3467,0.00117719,0.0921616,20.9504,3.92345,0.126077,0.0,0.0
1784,445.75,53.9237,56.4414,150.568,97.8698,95.9102,0.00119843,0.0921083,20.9504,3.92345,0.180925,0.0,0.0
1788,446.75,53.417,56.6024,148.511,98.0276,96.6778,0.00120374,0.0920977,20.9504,3.93345,0.124036,0.0,0.0
1792,447.75,53.4863,56.5538,144.664,98.1602,96.5997,0.00116411,0.0920908,20.9505,3.89342,0.143349,0.0,0.0
1796,448.75,53.6975,56.6204,147.699,98.2821,96.9432,0.00107361,0.0920093,20.9505,3.89342,0.122702,0.0,0.0
1800,449.75,53.4403,56.418,148.146,98.3889,97.1054,0.000957889,0.0919279,20.9505,3.90343,0.117462,0.0,0.0
1804,450.75,53.2764,56.172,147.53,98.476,97.671,0.000868085,0.091836,20.9505,3.88341,0.0734254,0.0,0.0
1808,451.75,53.5911,56.2492,148.72,98.5207,96.5623,0.000826898,0.0917378,20.9505,3.90343,0.179612,0.0,0.0
1812,452.75,53.0665,56.6455,146.29,98.5251,96.8419,0.0008124,0.0917223,20.9505,3.90343,0.154133,0.0,0.0
1816,453.75,53.3779,56.1275,145.951,98.51,96.7392,0.0008212,0.0917752,20.9505,3.90343,0.162265,0.0,0.0
1820,454.75,52.957,56.6024,149.482,98.4689,97.0857,0.000840545,0.0918792,20.9504,3.90343,0.126542,0.0,0.0
1824,455.75,53.3461,56.926,147.982,98.3885,96.6897,0.000866404,0.0918704,20.9502,3.90343,0.155801,0.0,0.0
1828,456.75,53.1343,56.46875,151.821,98.2738,96.5866,0.000904656,0.091844,20.9501,3.88341,0.154909,0.0,0.0
1832,457.75,53.6073,56.1283,150.415,98.1768,95.5833,0.000946986,0.0918266,20.95,3.8734,0.239482,0.0,0.0
1836,458.75,53.1144,56.1559,147.119,98.0985,96.6538,0.00097841,0.0919129,20.9499,3.8734,0.132714,0.0,0.0
1840,459.75,53.0436,56.5416,140.33,98.0126,96.2602,0.000999026,0.0919696,20.9499,3.85338,0.161388,0.0,0.0
1844,460.75,52.9331,55.871,149.2,97.9556,95.5045,0.000975933,0.0919579,20.9501,3.85338,0.226683,0.0,0.0
1848,461.75,53.0122,56.2497,150.277,98.0735,95.5277,0.000943558,0.0918732,20.9503,3.8734,0.235275,0.0,0.0
1852,462.75,53.4538,56.6832,148.21,98.341,96.9586,,0.0917034,,3.92345,0.126641,0.0,0.0
1856,463.75,53.2961,56.0458,145.699,98.5563,97.139,,0.0915163,,3.91344,0.129572,0.0,0.0
1860,464.75,52.9456,55.3578,146.968,98.7063,96.4777,,0.0913935,,3.92345,0.204287,0.0,0.0
1864,465.75,53.282,56.1481,148.646,98.789,96.9281,,,,3.90343,0.170112,0.0,0.0
1868,466.75,53.4763,55.9047,145.492,98.8155,96.5816,,,,3.89342,0.20455,0.0,0.0
1872,467.75,52.8087,56.2218,146.724,98.7866,97.0367,,,,3.84338,0.159883,0.0,0.0
1876,468.75,52.7841,55.55,143.25,98.6944,96.5472,,,,3.82336,0.196766,0.0,0.0
1880,469.75,53.3583,56.8382,148.981,98.5286,96.14,,,,3.83337,0.219531,0.0,0.0
1884,470.75,52.9919,56.1072,149.857,98.3213,96.3127,,,,3.82336,0.184634,0.0,0.0
1888,471.75,52.2656,55.6315,147.038,98.4012,96.1342,,,,3.80334,0.208495,0.0,0.0
1892,472.75,53.4573,56.4335,144.663,98.4954,97.8943,,,,3.80334,0.0547585,0.0,0.0