File: 01_Data/PVC/Cone/PVC_Cone_HF25Scan_220218_R3.csv
Names,Time,Stack TC,Smoke TC,Exh Press,Smoke Comp,Smoke Meas,CO Meter,CO2 Meter,O2 Meter,Sample Mass,Ext Coeff,Start Test,Flame Verif
Chan Gain,,500,500,1,1,1,1,1,1,1,1,1.0,1.0
Offset,,0,0,0.132436,0,0,0,0,0,0,0,0.0,0.0
Gain,,1,1,25.011,15.4219,15.1528,1,1,1,1.00089,1.02113,1.0,1.0
Units,sec,C,C,Pa,%,%,%,%,%,g,/m,,
Baseline,,23.1981,24.3825,162.565,115.519,115.855,-0.00877037,0.0516708,20.9817,-479.564,-0.0260204,,
4,0.75,21.3391,22.7717,160.912,116.171,116.675,-0.00873792,0.0521616,20.9834,436.376,-0.0387697,0.0,0.0
8,1.75,22.261,22.4215,165.835,116.184,116.803,-0.00870051,0.0522023,20.9837,436.366,-0.0476177,0.0,0.0
12,2.75,21.2394,23.1171,164.292,116.204,116.692,-0.0086624,0.0521301,20.984,436.467,-0.0375424,0.0,0.0
16,3.75,21.7201,22.4909,165.768,116.213,116.579,-0.00861971,0.0519175,20.9841,436.326,-0.028188,0.0,0.0
20,4.75,21.4993,22.3914,163.127,116.215,116.509,-0.00857183,0.0517268,20.9842,436.366,-0.0226052,0.0,0.0
24,5.75,21.7462,22.4201,164.252,116.256,116.764,-0.00853086,0.0515766,20.9843,436.356,-0.0390523,0.0,0.0
28,6.75,21.994,22.913,161.974,116.249,116.456,-0.00850771,0.0514471,20.9845,436.437,-0.0159755,0.0,0.0
32,7.75,21.248,22.7005,158.563,116.284,116.646,-0.00851167,0.0513567,20.9853,436.386,-0.027827,0.0,0.0
36,8.75,21.8949,23.106,161.434,116.299,116.799,-0.00854597,0.0512975,20.9858,436.376,-0.0384136,0.0,0.0
40,9.75,21.9213,22.7102,163.232,116.308,116.443,-0.00858853,0.0512586,20.9861,436.397,-0.010448,0.0,0.0
44,10.75,21.8073,22.4963,162.657,116.334,116.603,-0.00861675,0.0511828,20.9863,436.427,-0.0207535,0.0,0.0
48,11.75,21.495,22.7383,160.236,116.351,116.798,-0.00862728,0.0511331,20.9864,436.386,-0.0343926,0.0,0.0
52,12.75,21.4209,22.982,162.266,116.374,116.651,-0.00862951,0.0510412,20.9865,436.266,-0.021332,0.0,0.0
56,13.75,21.7875,22.7157,164.065,116.388,116.755,-0.00862938,0.0509398,20.9866,436.397,-0.0281955,0.0,0.0
60,14.75,21.733,22.6582,163.717,116.402,116.751,-0.00862031,0.0508732,20.9866,436.397,-0.0267907,0.0,0.0
64,15.75,22.0044,22.7705,163.088,116.422,117.007,-0.00860827,0.0508296,20.986,436.326,-0.0449028,0.0,0.0
68,16.75,21.8395,22.8585,162.44,116.438,116.976,-0.00860196,0.0507593,20.9854,436.316,-0.0412634,0.0,0.0
72,17.75,21.8123,23.0158,164.23,116.453,116.981,-0.00859518,0.0506934,20.9851,436.406,-0.0405297,0.0,0.0
76,18.75,21.811,22.8073,164.005,116.476,117.274,-0.00857512,0.0506197,20.9853,436.487,-0.0611764,0.0,0.0
80,19.75,21.6241,22.8854,162.43,116.488,116.884,-0.00853965,0.0505377,20.986,436.397,-0.0303771,0.0,0.0
84,20.75,21.9162,23.1635,160.387,116.505,116.948,-0.00848627,0.0504553,20.9864,436.497,-0.0340335,0.0,0.0
88,21.75,22.0327,22.7443,159.346,116.531,116.837,-0.00844315,0.0504059,20.9867,436.447,-0.0234686,0.0,0.0
92,22.75,21.8279,23.0149,163.356,116.54,117.117,-0.00844143,0.0504105,20.9865,436.427,-0.0442037,0.0,0.0
96,23.75,21.3035,22.798,163.474,116.559,117.243,-0.00848817,0.0504492,20.9859,436.427,-0.0523713,0.0,0.0
100,24.75,21.7178,22.9322,166.324,116.575,117.052,-0.0085723,0.0504746,20.9856,436.366,-0.0365753,0.0,0.0
104,25.75,21.6465,22.6036,161.793,116.61,116.97,-0.00868143,0.0505163,20.9854,436.386,-0.0275619,0.0,0.0
108,26.75,22.0467,22.7977,159.495,116.596,116.843,-0.00878276,0.0505437,20.9852,436.406,-0.0189738,0.0,0.0
112,27.75,22.1504,22.3896,162.155,116.618,117.065,-0.00889388,0.0505617,20.9851,436.457,-0.0342742,0.0,0.0
116,28.75,21.7295,22.8106,166.484,116.617,116.838,-0.00897563,0.0505986,20.9851,436.427,-0.0169212,0.0,0.0
120,29.75,21.3487,22.7722,161.655,116.648,116.656,-0.00901394,0.0506228,20.9855,436.457,-0.000628414,0.0,0.0
124,30.75,21.541,22.9554,163.562,116.653,116.832,-0.00901261,0.0506386,20.986,436.386,-0.0137492,0.0,0.0
128,31.75,21.3617,22.8637,160.664,116.662,117.124,-0.00896302,0.0506126,20.9864,436.376,-0.0354415,0.0,0.0
132,32.75,22.1112,23.0528,162.109,116.693,117.106,-0.00889889,0.050521,20.9867,436.366,-0.0316779,0.0,0.0
136,33.75,21.7215,22.9842,165.559,116.699,117.168,-0.00883907,0.0504945,20.9869,436.356,-0.0359465,0.0,0.0
140,34.75,21.9268,23.3073,162.165,116.718,117.077,-0.00880738,0.050454,20.987,436.336,-0.0275699,0.0,0.0
144,35.75,21.5705,22.261,162.834,116.718,117.042,-0.00880889,0.0504275,20.9871,436.427,-0.024845,0.0,0.0
148,36.75,21.9197,23.3532,165.963,116.733,117.129,-0.00885361,0.0505357,20.9871,436.437,-0.030376,0.0,0.0
152,37.75,21.6725,23.2728,167.628,116.728,117.251,-0.00889091,0.0505472,20.9872,436.376,-0.0399966,0.0,0.0
156,38.75,22.1936,23.2759,160.642,116.743,117.372,-0.00891315,0.0504973,20.9872,436.386,-0.0481996,0.0,0.0
160,39.75,22.3846,23.3275,163.235,116.755,117.191,-0.00891179,0.0504724,20.9872,436.326,-0.0334156,0.0,0.0
164,40.75,22.2941,22.7589,164.594,116.769,117.111,-0.00890662,0.0504898,20.9872,436.406,-0.026145,0.0,0.0
168,41.75,22.4572,23.1201,162.538,116.754,117.311,-0.00883592,0.0505085,20.9867,436.406,-0.0426371,0.0,0.0
172,42.75,22.0621,23.4092,166.129,116.766,117.327,-0.00874134,0.0505386,20.986,436.366,-0.0429349,0.0,0.0
176,43.75,22.0569,23.463,164.004,116.76,117.421,-0.0086818,0.0505444,20.9855,436.336,-0.0504967,0.0,0.0
180,44.75,22.1057,23.4512,162.264,116.784,117.22,-0.00867394,0.0505224,20.9851,436.306,-0.0333685,0.0,0.0
184,45.75,21.979,23.2974,162.419,116.782,117.078,-0.00870296,0.0504651,20.9849,436.346,-0.02273,0.0,0.0
188,46.75,21.5672,23.4897,157.274,116.774,117.01,-0.00874686,0.0504097,20.9848,436.397,-0.0181066,0.0,0.0
192,47.75,22.0188,23.5868,164.241,116.781,116.69,-0.00878369,0.0503952,20.9847,436.397,0.00696567,0.0,0.0
196,48.75,22.1816,23.2804,160.25,116.791,117.077,-0.00881583,0.0504391,20.9846,436.406,-0.0219378,0.0,0.0
200,49.75,22.1239,23.5011,164.161,116.785,117.269,-0.00883028,0.0504679,20.984,436.366,-0.037077,0.0,0.0
204,50.75,22.5961,23.2393,163.554,116.805,117.229,-0.00883527,0.050512,20.9836,436.296,-0.0324522,0.0,0.0
208,51.75,21.8832,23.3575,163.208,116.792,117.304,-0.00884032,0.0505694,20.9834,436.336,-0.0391488,0.0,0.0
212,52.75,21.8023,23.2843,166.181,116.8,117.274,-0.00884588,0.0506302,20.9833,436.366,-0.0362751,0.0,0.0
216,53.75,21.8352,23.4897,163.281,116.799,117.339,-0.00885449,0.0506555,20.9832,436.276,-0.0413621,0.0,0.0
220,54.75,22.5126,23.2874,164.753,116.811,117.213,-0.00886387,0.0506438,20.9832,436.326,-0.0307811,0.0,0.0
224,55.75,22.4431,23.3541,163.677,116.816,117.235,-0.00886062,0.0506467,20.9831,436.366,-0.0320808,0.0,0.0
228,56.75,22.0934,23.5841,160.871,116.82,117.332,-0.00882981,0.0506234,20.9831,436.386,-0.039137,0.0,0.0
232,57.75,22.3208,23.5284,165.142,116.826,117.378,-0.00877713,0.0505903,20.9831,436.336,-0.0421624,0.0,0.0
236,58.75,22.3568,23.0758,161.734,116.824,117.112,-0.00871607,0.0505937,20.9831,436.376,-0.0220283,0.0,0.0
240,59.75,22.1157,23.2568,164.94,116.834,117.011,-0.00866595,0.0506158,20.9831,436.336,-0.0135214,0.0,0.0
244,60.75,22.438,23.1963,158.01,116.832,117.404,-0.00862182,0.0506355,20.9831,436.276,-0.0437396,0.0,0.0
248,61.75,22.3589,23.2398,163.463,116.845,117.333,-0.00861059,0.0506234,20.9831,436.316,-0.0373306,0.0,0.0
252,62.75,22.4059,23.4546,162.629,116.833,116.995,-0.00863277,0.0506748,20.9831,436.286,-0.0124259,0.0,0.0
256,63.75,22.1911,23.467,160.79,116.859,117.422,-0.00865399,0.0507391,20.9831,436.296,-0.0430947,0.0,0.0
260,64.75,21.9676,23.4131,162.377,116.861,117.369,-0.00869489,0.0508169,20.9829,436.326,-0.0388576,0.0,0.0
264,65.75,21.9021,23.0996,162.708,116.861,117.191,-0.00873296,0.050893,20.9826,436.386,-0.0252599,0.0,0.0
268,66.75,22.165,24.0366,160.244,116.853,117.108,-0.00876679,0.0509153,20.9825,436.467,-0.01958,0.0,0.0
272,67.75,21.9467,23.2833,165.921,116.856,117.081,-0.00879137,0.050949,20.9824,436.346,-0.0172047,0.0,0.0
276,68.75,22.5908,23.2597,163.198,116.866,116.843,-0.00880004,0.0510194,20.9824,436.336,0.0018268,0.0,0.0
280,69.75,22.1725,23.6208,164.007,116.872,116.866,-0.00879705,0.0510867,20.9823,436.326,0.000450595,0.0,0.0
284,70.75,22.4485,23.3248,166.889,116.88,116.757,-0.00878864,0.0510952,20.9823,436.316,0.00943213,0.0,0.0
288,71.75,22.3331,23.4877,163.417,116.872,116.728,-0.00879435,0.0510254,20.982,436.316,0.0110192,0.0,0.0
292,72.75,21.9971,23.4577,165.028,116.878,116.84,-0.0088105,0.0509796,20.9814,436.316,0.00294127,0.0,0.0
296,73.75,21.7575,23.518,165.489,116.881,116.946,-0.00883328,0.0509765,20.9806,436.316,-0.00492118,0.0,0.0
300,74.75,22.5,23.352,165.566,116.885,116.874,-0.0088596,0.0509671,20.9801,436.326,0.00089476,0.0,0.0
304,75.75,22.5521,23.5024,164.808,116.887,117.063,-0.00888236,0.050897,20.98,436.376,-0.0134808,0.0,0.0
308,76.75,21.7475,23.6713,160.228,116.888,116.713,-0.00893443,0.0508688,20.9805,436.366,0.0134525,0.0,0.0
312,77.75,22.305,23.1375,165.751,116.885,116.64,-0.00897393,0.0508722,20.9808,436.366,0.0188096,0.0,0.0
316,78.75,22.5366,23.2933,160.229,116.882,116.374,-0.00897109,0.050916,20.9806,436.406,0.0390364,0.0,0.0
320,79.75,22.4044,22.8086,162.264,116.889,116.431,-0.00893745,0.051016,20.9804,436.356,0.0352359,0.0,0.0
324,80.75,22.331,23.7382,161.416,116.897,116.283,-0.00889423,0.0511226,20.9808,436.266,0.0471689,0.0,0.0
328,81.75,22.3921,23.164,163.66,116.89,115.747,-0.00882318,0.0512797,20.9802,436.356,0.0880786,0.0,0.0
332,82.75,22.4628,23.6249,160.181,116.89,116.106,-0.00875,0.0514308,20.9798,436.356,0.0603165,0.0,0.0
336,83.75,22.911,23.8746,161.609,116.894,115.21,-0.00867713,0.051729,20.9796,436.346,0.129975,0.0,0.0
340,84.75,22.1238,23.6402,160.858,116.896,114.719,-0.00862083,0.0520038,20.9794,436.376,0.168419,0.0,0.0
344,85.75,22.0036,23.4139,160.277,116.892,114.661,-0.00858973,0.0522732,20.9793,436.276,0.172609,0.0,0.0
348,86.75,22.9239,24.0507,163.477,116.895,114.632,-0.00857171,0.0525002,20.9792,436.176,0.175102,0.0,0.0
352,87.75,22.6148,23.2715,165.305,116.892,115.089,-0.00860259,0.0527245,20.9807,436.196,0.139292,0.0,0.0
356,88.75,22.589,23.8628,164.407,116.896,113.333,-0.00862958,0.0529471,20.9817,436.256,0.277289,0.0,0.0
360,89.75,22.7081,23.3904,163.811,116.904,113.978,-0.00863667,0.053107,20.9823,436.176,0.227026,0.0,0.0
364,90.75,22.658,23.9952,165.923,116.896,113.785,-0.00863492,0.0531954,20.9827,436.056,0.241652,0.0,0.0
368,91.75,23.236,23.918,162.515,116.896,114.231,-0.00863282,0.0532382,20.983,436.046,0.206556,0.0,0.0
372,92.75,22.9508,24.0973,162.565,116.897,115.389,-0.00863602,0.0532841,20.9832,436.076,0.116326,0.0,0.0
376,93.75,22.4209,23.6991,159.929,116.886,113.193,-0.00865516,0.0533896,20.9833,436.016,0.287576,0.0,0.0
380,94.75,23.0051,24.1348,164.783,116.883,113.263,-0.00867944,0.0535183,20.9834,435.986,0.281836,0.0,0.0
384,95.75,22.9837,24.3507,159.52,116.884,113.736,-0.008689,0.0535791,20.9834,436.006,0.244538,0.0,0.0
388,96.75,22.6775,24.4245,162.563,116.873,114.213,-0.00866871,0.0535489,20.9835,435.926,0.206275,0.0,0.0
392,97.75,22.6803,24.3331,160.321,116.883,113.588,-0.00862168,0.0535527,20.9835,435.956,0.2562,0.0,0.0
396,98.75,22.9912,23.9865,159.337,116.877,113.575,-0.00857129,0.0535797,20.9835,435.906,0.256679,0.0,0.0
400,99.75,22.5588,24.2514,160.451,116.863,113.761,-0.00853135,0.0536014,20.9835,435.726,0.240949,0.0,0.0
404,100.75,23.0831,24.1327,164.099,116.862,114.075,-0.00849888,0.0536051,20.9831,435.746,0.216152,0.0,0.0
408,101.75,22.576,24.3442,162.743,116.889,113.396,-0.0084749,0.0536108,20.9824,435.716,0.271742,0.0,0.0
412,102.75,23.0555,24.1112,161.725,116.869,112.966,-0.00845817,0.0535934,20.982,435.676,0.30419,0.0,0.0
416,103.75,22.8095,24.7798,164.243,116.852,113.196,-0.00843125,0.053625,20.9818,435.606,0.284723,0.0,0.0
420,104.75,22.9161,24.5689,159.81,116.862,112.972,-0.00838805,0.0536636,20.9816,435.586,0.303209,0.0,0.0
424,105.75,22.9694,24.598,160.836,116.846,113.563,-0.00833909,0.0537444,20.9815,435.486,0.25532,0.0,0.0
428,106.75,23.4222,24.4488,161.804,116.839,113.747,-0.00827876,0.0538279,20.9814,435.466,0.240237,0.0,0.0
432,107.75,23.2326,24.7897,166.099,116.857,114.054,-0.00821741,0.0538689,20.9813,435.466,0.217497,0.0,0.0
436,108.75,23.3175,24.6782,164.456,116.838,112.547,-0.00817012,0.0539858,20.9813,435.396,0.335164,0.0,0.0
440,109.75,23.2397,25.0597,161.505,116.827,112.776,-0.0081256,0.0541517,20.9813,435.266,0.316061,0.0,0.0
444,110.75,23.1311,25.0343,161.534,116.825,112.535,-0.00809143,0.0542857,20.9799,435.095,0.335183,0.0,0.0
448,111.75,22.9995,24.6144,159.559,116.815,112.675,-0.00806238,0.0544239,20.979,435.115,0.323171,0.0,0.0
452,112.75,23.2452,25.0078,160.48,116.818,113.485,-0.00803694,0.0545657,20.9784,435.155,0.259285,0.0,0.0
456,113.75,23.3132,24.7086,160.796,116.806,111.984,-0.00800238,0.0547836,20.9781,435.115,0.377649,0.0,0.0
460,114.75,23.4569,24.8173,159.169,116.832,111.815,-0.00794428,0.0548512,20.9781,435.015,0.393144,0.0,0.0
464,115.75,23.2821,24.818,159.465,116.824,111.736,-0.0078683,0.0550552,20.9782,435.025,0.398866,0.0,0.0
468,116.75,23.6819,25.0285,158.5,116.812,111.305,-0.00779666,0.0552738,20.9782,434.985,0.432583,0.0,0.0
472,117.75,22.8633,24.921,158.723,116.816,110.485,-0.00774585,0.055451,20.9782,434.965,0.49913,0.0,0.0
476,118.75,23.831,25.12,163.52,116.832,112.812,-0.00771499,0.0555599,20.9782,434.905,0.313668,0.0,0.0
480,119.75,23.4597,25.3517,159.856,116.815,110.832,-0.0076961,0.0556135,20.9782,434.755,0.470912,0.0,0.0
484,120.75,23.6565,24.9291,161.963,116.836,111.534,-0.00768146,0.0557493,20.9782,434.765,0.415984,0.0,0.0
488,121.75,23.3351,25.3392,161.051,116.826,112.45,-0.00767549,0.0558887,20.9782,434.705,0.341956,0.0,0.0
492,122.75,23.0919,24.8073,162.156,116.818,112.085,-0.00768433,0.055955,20.9782,434.565,0.370453,0.0,0.0
496,123.75,23.4606,24.7168,164.335,116.817,111.935,-0.00774845,0.0559391,20.9782,434.525,0.382401,0.0,0.0
500,124.75,23.7643,25.5925,161.006,116.818,111.861,-0.00781208,0.0559523,20.9782,434.575,0.388357,0.0,0.0
504,125.75,23.3705,24.8062,160.482,116.816,110.874,-0.00791689,0.0559716,20.9779,434.565,0.467619,0.0,0.0
508,126.75,23.7595,25.0411,164.604,116.818,110.474,-0.00801507,0.0559911,20.9777,434.505,0.500175,0.0,0.0
512,127.75,23.7737,25.1609,159.752,116.812,110.067,-0.00809153,0.0560207,20.9776,434.445,0.532761,0.0,0.0
516,128.75,23.6188,25.2509,161.958,116.817,110.141,-0.0081524,0.055864,20.9775,434.375,0.527102,0.0,0.0
520,129.75,23.5415,25.3017,161.13,116.822,110.787,-0.00820526,0.0557612,20.9774,434.305,0.47508,0.0,0.0
524,130.75,24.1536,24.8985,165.844,116.818,110.64,-0.00825429,0.0557944,20.9774,434.255,0.486762,0.0,0.0
528,131.75,23.5048,25.229,153.048,116.831,109.806,-0.00831342,0.055791,20.9774,434.175,0.555417,0.0,0.0
532,132.75,24.0017,25.2739,158.443,116.832,111.376,-0.00835091,0.0558139,20.9773,434.145,0.428369,0.0,0.0
536,133.75,23.4747,25.1217,159.823,116.826,111.594,-0.00837232,0.0560272,20.9775,434.094,0.410397,0.0,0.0
540,134.75,23.8169,25.5257,163.631,116.832,110.635,-0.00835158,0.0564013,20.9772,434.014,0.488219,0.0,0.0
544,135.75,23.7438,25.5992,163.962,116.833,111.163,-0.00831337,0.0567931,20.9768,433.904,0.445601,0.0,0.0
548,136.75,24.03,25.349,161.007,116.833,112.047,-0.00826005,0.0572486,20.9764,433.874,0.374675,0.0,0.0
552,137.75,23.9645,25.5237,163.033,116.837,111.1,-0.00822281,0.0578466,20.9762,433.834,0.451032,0.0,0.0
556,138.75,23.6389,25.4627,162.028,116.84,111.486,-0.00820492,0.0582103,20.9752,433.764,0.420172,0.0,0.0
560,139.75,23.8714,25.4503,162.441,116.84,111.032,-0.00821435,0.0585705,20.9746,433.754,0.45673,0.0,0.0
564,140.75,23.901,25.4104,161.73,116.848,111.552,-0.00823459,0.0587735,20.9742,433.724,0.41551,0.0,0.0
568,141.75,23.9748,25.8932,159.125,116.85,111.468,-0.00824857,0.0588531,20.9739,433.684,0.42234,0.0,0.0
572,142.75,23.7363,25.8694,158.207,116.85,110.183,-0.00825443,0.0587795,20.9743,433.644,0.526245,0.0,0.0
576,143.75,23.9164,25.7971,160.606,116.865,110.977,-0.00825182,0.0586304,20.9748,433.564,0.463046,0.0,0.0
580,144.75,24.054,25.619,160.557,116.869,109.828,-0.00824213,0.0584822,20.9751,433.454,0.556603,0.0,0.0
584,145.75,23.9917,25.5282,160.798,116.871,110.441,-0.00822585,0.0584102,20.9753,433.444,0.506915,0.0,0.0
588,146.75,23.6928,25.3082,162.005,116.878,110.72,-0.00818973,0.0583629,20.9754,433.394,0.484832,0.0,0.0
592,147.75,24.1924,25.9217,161.945,116.887,111.341,-0.00812588,0.0584432,20.9755,433.274,0.435415,0.0,0.0
596,148.75,23.8381,25.5483,157.42,116.88,112.06,-0.00804053,0.0585788,20.9748,433.284,0.377213,0.0,0.0
600,149.75,24.0215,25.1169,158.916,116.89,111.814,-0.00796393,0.0587011,20.9743,433.234,0.397691,0.0,0.0
604,150.75,24.2896,25.7244,164.178,116.889,111.837,-0.00791699,0.058987,20.9732,433.154,0.395804,0.0,0.0
608,151.75,24.133,25.4986,165.217,116.919,113.051,-0.00789872,0.0594004,20.9725,433.134,0.301341,0.0,0.0
612,152.75,24.2743,25.534,160.971,116.91,111.772,-0.0079269,0.0597871,20.972,433.084,0.40254,0.0,0.0
616,153.75,24.3098,25.8789,165.636,116.902,110.008,-0.00798968,0.060148,20.9717,433.054,0.544469,0.0,0.0
620,154.75,24.1481,25.8035,160.597,116.889,110.533,-0.00806116,0.0604857,20.9715,433.024,0.500862,0.0,0.0
624,155.75,23.6111,26.2302,164.275,116.895,111.089,-0.00809694,0.0606476,20.9714,433.003,0.456327,0.0,0.0
628,156.75,24.2416,25.8953,159.379,116.906,111.11,-0.00807416,0.060718,20.9719,432.963,0.455477,0.0,0.0
632,157.75,24.3593,25.8107,158.472,116.903,110.954,-0.00802292,0.0607389,20.9723,432.893,0.46787,0.0,0.0
636,158.75,24.4317,26.1998,162.977,116.895,110.804,-0.00794149,0.0607473,20.9727,432.803,0.479324,0.0,0.0
640,159.75,24.1532,26.3488,160.897,116.909,109.558,-0.00785265,0.0606284,20.9729,432.753,0.581648,0.0,0.0
644,160.75,23.862,25.9687,160.751,116.908,111.089,-0.00776744,0.0607059,20.9731,432.673,0.457337,0.0,0.0
648,161.75,24.3187,25.8155,158.368,116.914,110.992,-0.00768683,0.0608752,20.9732,432.653,0.465565,0.0,0.0
652,162.75,24.4092,26.126,163.07,116.914,112.084,-0.00764102,0.0610651,20.9732,432.613,0.377923,0.0,0.0
656,163.75,24.9891,25.9206,159.505,116.916,111.885,-0.00764384,0.0613411,20.9733,432.613,0.394009,0.0,0.0
660,164.75,23.9297,26.3937,163.897,116.913,111.694,-0.00767692,0.0615978,20.9733,432.533,0.409059,0.0,0.0
664,165.75,24.187,25.9359,165.09,116.888,111.067,-0.00772571,0.0616905,20.9733,432.463,0.457574,0.0,0.0
668,166.75,24.3533,26.3312,161.201,116.899,111.742,-0.00777004,0.0616253,20.9732,432.413,0.40412,0.0,0.0
672,167.75,24.8457,26.2708,159.714,116.879,111.674,-0.00779004,0.0614061,20.973,432.393,0.407984,0.0,0.0
676,168.75,24.0426,25.7808,158.053,116.875,112.281,-0.00776879,0.0611082,20.9728,432.343,0.359201,0.0,0.0
680,169.75,24.3453,26.3414,158.176,116.857,110.003,-0.00769494,0.060788,20.9732,432.253,0.541419,0.0,0.0
684,170.75,24.21,25.8607,162.226,116.848,110.389,-0.00759349,0.0605023,20.9737,432.203,0.509385,0.0,0.0
688,171.75,24.5174,25.9505,163.543,116.835,110.585,-0.00750859,0.0600378,20.9741,432.193,0.492406,0.0,0.0
692,172.75,24.7522,25.9643,161.772,116.813,110.192,-0.00746774,0.0595315,20.9743,432.183,0.522641,0.0,0.0
696,173.75,24.5229,26.4298,161.818,116.81,111.453,-0.00748645,0.0590987,20.9753,432.123,0.420536,0.0,0.0
700,174.75,24.6269,26.17,159.239,116.786,109.975,-0.00753142,0.0586636,20.9759,431.963,0.538269,0.0,0.0
704,175.75,24.8757,26.4652,166.464,116.784,111.422,-0.00757781,0.0581264,20.9763,431.993,0.420969,0.0,0.0
708,176.75,24.8251,26.3091,161.976,116.745,112.591,-0.00760665,0.0575162,20.9766,431.923,0.324557,0.0,0.0
712,177.75,24.8278,26.4385,161.616,116.73,111.687,-0.00760254,0.0569275,20.9768,431.893,0.395613,0.0,0.0
716,178.75,24.9402,26.2957,159.251,116.702,110.681,-0.00757863,0.0564398,20.9777,431.792,0.474439,0.0,0.0
720,179.75,24.9669,26.2697,161.399,116.673,110.745,-0.00752628,0.0560774,20.978,431.782,0.467071,0.0,0.0
724,180.75,24.7637,26.1074,160.632,116.647,111.087,-0.00748662,0.0558509,20.9782,431.812,0.437451,0.0,0.0
728,181.75,24.1307,26.4244,160.98,116.616,111.333,-0.00747031,0.0557221,20.9783,431.732,0.415213,0.0,0.0
732,182.75,24.7689,26.2424,159.297,116.581,110.52,-0.00745894,0.0556291,20.9784,431.692,0.478183,0.0,0.0
736,183.75,24.6459,26.124,162.218,116.541,111.008,-0.00745803,0.0555933,20.9782,431.662,0.435694,0.0,0.0
740,184.75,24.4243,26.4172,159.302,116.494,109.815,-0.00747454,0.0556452,20.9776,431.622,0.528828,0.0,0.0
744,185.75,24.3922,26.6265,160.17,116.448,110.622,-0.00751543,0.0559447,20.9771,431.632,0.459739,0.0,0.0
748,186.75,24.4453,26.4367,160.483,116.399,109.975,-0.0075837,0.0562167,20.9769,431.582,0.508473,0.0,0.0
752,187.75,24.8737,26.1599,155.745,116.366,110.451,-0.00767119,0.0563448,20.9767,431.532,0.467229,0.0,0.0
756,188.75,24.9707,26.5344,161.505,116.301,111.167,-0.00773922,0.0563282,20.9766,431.482,0.404401,0.0,0.0
760,189.75,24.4751,26.5825,162.087,116.244,110.366,-0.00780442,0.056373,20.9765,431.412,0.464817,0.0,0.0
764,190.75,24.4314,26.4318,157.606,116.197,110.263,-0.00786613,0.0564913,20.9764,431.402,0.469525,0.0,0.0
768,191.75,24.3944,26.8111,160.944,116.138,109.101,-0.00791397,0.056676,20.9764,431.392,0.559894,0.0,0.0
772,192.75,24.6364,26.4147,167.241,116.067,109.422,-0.00794383,0.0568475,20.9764,431.312,0.528138,0.0,0.0
776,193.75,24.9356,26.5702,158.814,116.003,109.774,-0.00795422,0.05696,20.9763,431.262,0.494325,0.0,0.0
780,194.75,24.8121,26.5102,162.693,115.935,109.837,-0.00793762,0.0569584,20.9763,431.152,0.484033,0.0,0.0
784,195.75,25.0104,26.8529,164.877,115.854,110.531,-0.00791239,0.0568063,20.9771,431.202,0.421277,0.0,0.0
788,196.75,25.0798,26.5905,163.801,115.775,110.329,-0.00790268,0.0564884,20.9776,431.052,0.431553,0.0,0.0
792,197.75,24.9141,27.0118,163.042,115.696,109.906,-0.00791429,0.0560961,20.9783,431.112,0.459852,0.0,0.0
796,198.75,24.4047,26.4229,167.177,115.611,110.885,-0.00795112,0.0556819,20.9787,431.052,0.373861,0.0,0.0
800,199.75,25.1247,26.4937,163.86,115.585,109.619,-0.00801124,0.0553242,20.9789,431.032,0.474645,0.0,0.0
804,200.75,24.272,26.4116,163.007,115.47,110.393,-0.00805814,0.0550565,20.9791,430.982,0.402712,0.0,0.0
808,201.75,24.6483,26.8174,162.92,115.386,109.968,-0.00808714,0.05491,20.9792,430.932,0.430759,0.0,0.0
812,202.75,24.9314,26.1406,160.922,115.311,111.028,-0.00805022,0.054878,20.9793,430.902,0.339067,0.0,0.0
816,203.75,25.2216,26.4396,161.465,115.232,109.766,-0.00795571,0.0548391,20.9793,430.872,0.43528,0.0,0.0
820,204.75,24.7046,26.3622,160.991,115.155,109.108,-0.00784223,0.0549288,20.9793,430.772,0.483175,0.0,0.0
824,205.75,25.0009,26.9325,164.581,115.07,109.977,-0.00775599,0.0553741,20.9788,430.792,0.405532,0.0,0.0
828,206.75,25.1727,26.8944,161.684,114.995,108.516,-0.00771259,0.0560942,20.978,430.751,0.519482,0.0,0.0
832,207.75,24.9593,26.4823,162.48,114.925,110.155,-0.00770107,0.0570019,20.9768,430.751,0.379678,0.0,0.0
836,208.75,25.0123,26.4085,162.279,114.874,108.748,-0.00770785,0.0580216,20.9753,430.701,0.490839,0.0,0.0
840,209.75,24.5561,26.591,155.53,114.805,108.87,-0.00771053,0.0589409,20.9739,430.591,0.475504,0.0,0.0
844,210.75,25.0775,26.4284,159.714,114.726,111.154,-0.00769857,0.059842,20.9721,430.591,0.283368,0.0,0.0
848,211.75,24.9258,26.5318,159.242,114.694,109.033,-0.00767271,0.0606747,20.9704,430.671,0.453378,0.0,0.0
852,212.75,25.0635,27.0643,158.413,114.613,109.593,-0.00763886,0.0616953,20.9687,430.551,0.401166,0.0,0.0
856,213.75,24.8128,26.6468,161.453,114.565,110.108,-0.00761729,0.0625618,20.9676,430.441,0.355445,0.0,0.0
860,214.75,24.912,27.186,164.739,114.515,109.602,-0.00761018,0.0630798,20.9669,430.501,0.392757,0.0,0.0
864,215.75,24.8672,26.7297,159.383,114.483,108.775,-0.00768311,0.063016,20.9672,430.451,0.45812,0.0,0.0
868,216.75,24.9241,26.4879,162.847,114.442,108.597,-0.00776124,0.0625958,20.9682,430.471,0.469548,0.0,0.0
872,217.75,24.456,26.66,162.276,114.426,109.226,-0.00785285,0.0618831,20.9695,430.341,0.416575,0.0,0.0
876,218.75,25.1738,26.7236,162.398,114.395,109.377,-0.00792868,0.0610892,20.9709,430.291,0.401789,0.0,0.0
880,219.75,24.8544,26.8179,163.443,114.395,110.806,-0.00799969,0.0603018,20.9719,430.281,0.285492,0.0,0.0
884,220.75,25.2162,26.7871,161.429,114.406,108.646,-0.00807678,0.0596637,20.9725,430.251,0.462708,0.0,0.0
888,221.75,25.189,26.7071,161.102,114.395,109.592,-0.00814253,0.059152,20.973,430.161,0.384196,0.0,0.0
892,222.75,24.6126,26.2713,161.395,114.421,109.103,-0.00820508,0.0586734,20.9733,430.171,0.426337,0.0,0.0
896,223.75,24.9385,26.6575,163.169,114.443,108.262,-0.00823966,0.0579567,20.9743,430.191,0.497318,0.0,0.0
900,224.75,24.7962,26.9106,156.254,114.473,109.953,-0.00825439,0.0572851,20.9749,430.131,0.360842,0.0,0.0
904,225.75,25.2826,26.8444,158.899,114.519,109.832,-0.00825342,0.0567851,20.9757,430.091,0.374325,0.0,0.0
908,226.75,25.0452,26.5677,162.453,114.57,109.57,-0.00823576,0.0563715,20.9765,430.141,0.39967,0.0,0.0
912,227.75,24.9179,26.9928,161.887,114.623,109.291,-0.00819925,0.0560439,20.977,430.091,0.426691,0.0,0.0
916,228.75,25.1789,27.092,164.463,114.691,109.047,-0.00815821,0.0558289,20.9773,429.991,0.45198,0.0,0.0
920,229.75,25.3864,26.5634,167.489,114.745,110.127,-0.00806385,0.0558137,20.9775,429.901,0.367912,0.0,0.0
924,230.75,24.9506,26.3178,161.148,114.825,110.788,-0.00798955,0.0559043,20.9777,429.891,0.320606,0.0,0.0
928,231.75,24.9911,26.8186,161.884,114.89,110.859,-0.0079577,0.0559043,20.9784,429.811,0.319952,0.0,0.0
932,232.75,25.1586,26.9512,163.635,114.966,110.594,-0.00795702,0.055859,20.979,429.771,0.347255,0.0,0.0
936,233.75,24.9653,26.7447,163.211,115.047,110.113,-0.00796107,0.0556848,20.9794,429.751,0.39267,0.0,0.0
940,234.75,24.6768,26.8542,157.773,115.14,110.326,-0.00796373,0.0553556,20.9803,429.711,0.382523,0.0,0.0
944,235.75,24.8326,26.9967,164.192,115.207,110.252,-0.00798037,0.0550365,20.9811,429.681,0.393806,0.0,0.0
948,236.75,24.9528,26.7654,160.983,115.296,109.967,-0.00801454,0.0548159,20.9816,429.701,0.423854,0.0,0.0
952,237.75,25.352,26.9846,161.443,115.376,109.154,-0.00805345,0.0546419,20.9819,429.671,0.49653,0.0,0.0
956,238.75,25.092,26.9888,158.526,115.466,110.033,-0.00808632,0.0544565,20.9821,429.671,0.431658,0.0,0.0
960,239.75,25.1781,26.6827,160.388,115.533,110.83,-0.00811043,0.0541961,20.9823,429.63,0.372252,0.0,0.0
964,240.75,24.697,26.9081,164.317,115.611,111.34,-0.00812334,0.0539377,20.9824,429.58,0.337178,0.0,0.0
968,241.75,25.3608,27.0384,161.767,115.673,111.489,-0.00812863,0.053788,20.9824,429.55,0.329945,0.0,0.0
972,242.75,25.0517,27.0962,160.187,115.759,111.474,-0.0081374,0.0536753,20.9825,429.51,0.337912,0.0,0.0
976,243.75,25.2646,27.0134,160.712,115.8,111.13,-0.00813928,0.0535168,20.982,429.56,0.368693,0.0,0.0
980,244.75,24.6997,26.6379,158.381,115.879,111.778,-0.00812137,0.0534332,20.9814,429.5,0.322777,0.0,0.0
984,245.75,24.8561,27.0549,168.38,115.92,110.988,-0.00806236,0.053412,20.981,429.44,0.389422,0.0,0.0
988,246.75,25.2779,27.1306,159.993,115.988,110.379,-0.00791658,0.0537592,20.9808,429.44,0.44398,0.0,0.0
992,247.75,25.4131,26.8345,159.887,116.037,111.728,-0.0077952,0.0545618,20.9798,429.36,0.338922,0.0,0.0
996,248.75,25.0497,26.4293,162.342,116.104,112.64,-0.00741443,0.055838,20.9781,429.32,0.271305,0.0,0.0
1000,249.75,24.7362,26.261,162.603,116.139,112.536,-0.00689393,0.0581874,20.9753,429.32,0.282269,0.0,0.0
1004,250.75,24.8802,26.7276,158.697,116.175,111.793,-0.00621491,0.0615298,20.9701,429.25,0.344372,0.0,1.0
1008,251.75,25.4327,27.0047,158.219,116.192,107.396,-0.00537506,0.0651817,20.962,429.2,0.70515,0.0,1.0
1012,252.75,25.1397,26.765,157.136,116.212,104,-0.00446388,0.0716132,20.9453,429.25,0.994418,0.0,1.0
1016,253.75,25.0118,27.2538,154.816,116.241,96.388,-0.00351875,0.0791504,20.9253,428.95,1.67758,0.0,1.0
1020,254.75,25.4551,27.0301,156.373,116.261,94.1124,-0.00255734,0.0883443,20.9067,429.2,1.89311,0.0,1.0
1024,255.75,25.0381,26.9071,158.681,116.275,89.7817,-0.00168111,0.0982479,20.8881,428.97,2.31615,0.0,1.0
1028,256.75,25.3488,27.0589,153.212,116.291,83.0779,-0.00079184,0.108304,20.872,429.06,3.01245,0.0,1.0
1032,257.75,25.4086,27.3643,153.61,116.291,81.6134,4.56851e-05,0.117759,20.8561,428.91,3.17176,0.0,1.0
1036,258.75,25.8314,27.5136,160.091,116.272,82.1235,0.000757072,0.125716,20.8433,428.86,3.11451,0.0,1.0
1040,259.75,25.6359,27.43,152.664,116.269,81.729,0.00129404,0.132438,20.8325,428.84,3.15741,0.0,0.0
1044,260.75,26.4837,28.2477,158.036,116.255,84.1281,0.00166658,0.138506,20.8237,428.77,2.89714,0.0,0.0
1048,261.75,26.3997,28.2693,153.552,116.223,81.8645,0.00188862,0.143308,20.8172,428.67,3.13906,0.0,0.0
1052,262.75,26.2003,27.6871,150.407,116.214,84.3718,0.00200205,0.146985,20.8121,428.63,2.86808,0.0,0.0
1056,263.75,27.0576,28.2745,156.835,116.165,85.2597,0.00204238,0.149668,20.8081,428.53,2.77054,0.0,0.0
1060,264.75,27.1081,28.9041,153.165,116.135,84.185,0.00206706,0.152457,20.8041,428.5,2.88188,0.0,0.0
1064,265.75,27.2088,29.6874,158.242,116.113,85.0446,0.00208049,0.155289,20.8003,428.379,2.7892,0.0,0.0
1068,266.75,26.4666,29.4014,152.858,116.07,84.1202,0.00208931,0.157928,20.7979,428.279,2.88372,0.0,0.0
1072,267.75,27.7382,29.6593,156.004,116.034,85.9672,0.00210046,0.160068,20.7963,428.269,2.68646,0.0,0.0
1076,268.75,27.4796,29.8146,157.196,115.995,86.6275,0.00210922,0.161432,20.7952,428.189,2.61487,0.0,0.0
1080,269.75,28.2213,30.1703,152.383,115.978,88.7283,0.00210903,0.162387,20.7946,428.109,2.39893,0.0,0.0
1084,270.75,27.6699,30.1659,155.212,115.949,87.4243,0.0020944,0.162885,20.7941,428.019,2.52929,0.0,0.0
1088,271.75,28.1628,30.4439,153.014,115.924,84.8985,0.00206473,0.162761,20.7952,427.949,2.78996,0.0,0.0
1092,272.75,28.6335,30.6554,152.581,115.905,88.2835,0.00201449,0.161437,20.7995,427.909,2.43831,0.0,0.0
1096,273.75,28.061,30.8924,157.438,116.007,89.0164,0.00192635,0.160568,20.8035,427.869,2.37211,0.0,0.0
1100,274.75,28.9685,31.1068,155.237,116.146,89.1824,0.00177274,0.15947,20.8072,427.839,2.3662,0.0,0.0
1104,275.75,28.9792,31.3817,151.861,116.282,89.391,0.00159925,0.158791,20.8097,427.789,2.35576,0.0,0.0
1108,276.75,28.8436,31.3229,151.218,116.379,92.9859,0.00140204,0.158294,20.8121,427.709,2.01006,0.0,0.0
1112,277.75,28.8899,31.7052,152.579,116.464,94.8074,0.00111088,0.157453,20.8149,427.669,1.84285,0.0,0.0
1116,278.75,29.2776,31.8069,158.113,116.552,101.121,0.000705386,0.155998,20.8196,427.569,1.27203,0.0,0.0
1120,279.75,29.4162,32.0021,155.968,116.618,102.081,0.000277532,0.154198,20.8245,427.549,1.1925,0.0,0.0
1124,280.75,29.5687,32.1468,157.493,116.672,101.556,-0.000128919,0.152239,20.83,427.479,1.24294,0.0,0.0
1128,281.75,29.649,32.3018,156.944,116.73,102.418,-0.000502022,0.150039,20.8354,427.358,1.1716,0.0,0.0
1132,282.75,30.015,32.2472,161.362,116.771,105.497,-0.000746323,0.147527,20.8397,427.298,0.909482,0.0,0.0
1136,283.75,29.8865,32.2224,153.276,116.764,105.452,-0.000991806,0.144396,20.8451,427.258,0.912711,0.0,0.0
1140,284.75,30.1126,32.1796,154.265,116.791,104.326,-0.00124501,0.14099,20.8512,427.268,1.01097,0.0,0.0
1144,285.75,30.356,32.7028,154.72,116.793,106.917,-0.00146956,0.13808,20.8571,427.198,0.791372,0.0,0.0
1148,286.75,29.5994,32.0199,157.923,116.783,106.762,-0.00166634,0.134627,20.8632,427.168,0.803565,0.0,0.0
1152,287.75,29.8058,32.6591,151.461,116.757,108.437,-0.00186735,0.131165,20.8707,427.078,0.662185,0.0,0.0
1156,288.75,29.925,32.7015,156.759,116.714,107.956,-0.0021161,0.126959,20.879,427.048,0.698711,0.0,0.0
1160,289.75,30.1208,32.8773,154.031,116.667,108.626,-0.00240066,0.122136,20.887,427.038,0.639713,0.0,0.0
1164,290.75,29.2963,31.9139,155.416,116.594,108.974,-0.00272549,0.117501,20.8936,426.948,0.605369,0.0,0.0
1168,291.75,29.7263,32.4374,158.156,116.512,109.591,-0.00306272,0.113039,20.9007,426.888,0.548551,0.0,0.0
1172,292.75,29.8212,32.511,158.734,116.415,108.891,-0.00340213,0.108989,20.9064,426.898,0.598466,0.0,0.0
1176,293.75,30.0342,32.5991,159.527,116.325,109.777,-0.00374116,0.105077,20.9117,426.858,0.518959,0.0,0.0
1180,294.75,29.8628,32.3142,157.859,116.203,109.427,-0.00413361,0.100135,20.9187,426.818,0.538175,0.0,0.0
1184,295.75,29.7192,32.3883,162.691,116.095,109.356,-0.00452361,0.0953368,20.9267,426.888,0.535583,0.0,0.0
1188,296.75,29.8129,32.3844,158.368,116.072,110.463,-0.00489315,0.0915824,20.9335,426.818,0.443656,0.0,0.0
1192,297.75,29.1394,31.7416,164.605,116.079,110.899,-0.00520238,0.0873298,20.9386,426.758,0.408875,0.0,0.0
1196,298.75,29.5006,32.0054,158.923,116.13,111.65,-0.00554546,0.0834001,20.9444,426.718,0.35238,0.0,0.0
1200,299.75,29.7979,32.029,157.905,116.175,110.783,-0.00589772,0.0798869,20.9497,426.588,0.425659,0.0,0.0
1204,300.75,29.3135,31.8007,161.074,116.22,110.467,-0.00625787,0.0758612,20.9564,426.668,0.454753,0.0,0.0
1208,301.75,28.9816,31.5227,161.486,116.278,109.777,-0.00658343,0.0720656,20.962,426.648,0.515296,0.0,0.0
1212,302.75,28.497,31.0302,162.5,116.335,110.413,-0.00691603,0.0688189,20.9666,426.638,0.467913,0.0,0.0
1216,303.75,28.6159,31.0677,159.06,116.389,110.98,-0.00717852,0.0657912,20.9701,426.588,0.426241,0.0,0.0
1220,304.75,28.7562,31.0172,159.103,116.454,111.172,-0.00736638,0.0633814,20.9726,426.578,0.415726,0.0,0.0
1224,305.75,27.3442,29.5003,162.516,116.504,110.89,-0.00748481,0.0614863,20.9742,426.528,0.442393,0.0,0.0
1228,306.75,28.3772,30.4709,163.269,116.576,112.022,-0.00753489,0.0600287,20.9753,426.438,0.356913,0.0,0.0
1232,307.75,28.2532,30.1726,159.578,116.629,111.7,-0.00754441,0.0588711,20.9768,426.368,0.386807,0.0,0.0
1236,308.75,27.7494,30.3129,160.931,116.695,112.575,-0.00754431,0.0579331,20.9776,426.378,0.321944,0.0,0.0
1240,309.75,27.7331,29.9816,161.288,116.743,111.592,-0.00756894,0.0572002,20.9783,426.398,0.404232,0.0,0.0
1244,310.75,27.9109,29.5998,161.413,116.792,111.013,-0.00766375,0.0565797,20.9794,426.368,0.454544,0.0,0.0
1248,311.75,27.7402,29.9432,159.421,116.83,112.373,-0.00778059,0.05615,20.9802,426.308,0.348436,0.0,0.0
1252,312.75,27.8895,29.9165,166.528,116.862,111.638,-0.00792385,0.0556808,20.9811,426.298,0.409578,0.0,0.0
1256,313.75,27.934,29.6845,161.706,116.891,111.84,-0.00803529,0.0552734,20.9821,426.258,0.395653,0.0,0.0
1260,314.75,27.6313,30.0164,164.738,116.902,112.441,-0.00810158,0.0548457,20.9829,426.247,0.348501,0.0,0.0
1264,315.75,27.5585,29.4299,158.386,116.918,111.924,-0.00813167,0.0544857,20.9833,426.117,0.391006,0.0,0.0
1268,316.75,27.1205,29.418,166.236,116.922,111.734,-0.00814982,0.0541491,20.9836,426.167,0.406554,0.0,0.0
1272,317.75,27.5601,29.3503,158.755,116.94,112.44,-0.00818532,0.0538078,20.9839,426.137,0.351496,0.0,0.0
1276,318.75,26.9422,29.3829,160.781,116.921,112.914,-0.00823752,0.0535018,20.9843,426.077,0.31241,0.0,0.0
1280,319.75,27.0216,29.5027,163.112,116.921,112.751,-0.00828335,0.053256,20.9845,426.017,0.325368,0.0,0.0
1284,320.75,27.3109,29.0564,164.653,116.89,113.417,-0.00831901,0.0531199,20.9847,426.027,0.270135,0.0,0.0
1288,321.75,26.6044,28.7361,160.043,116.88,112.503,-0.00832892,0.0530108,20.9848,425.937,0.341944,0.0,0.0
1292,322.75,26.6586,28.8939,162.23,116.856,112.715,-0.00831519,0.052899,20.9849,425.917,0.323148,0.0,0.0
1296,323.75,26.9076,29.0913,163.463,116.817,113.603,-0.00828139,0.0526773,20.985,426.027,0.249945,0.0,0.0
1300,324.75,26.7212,29.0315,162.863,116.776,113.482,-0.00823484,0.0524995,20.985,425.997,0.256364,0.0,0.0
1304,325.75,26.7604,28.3367,163.412,116.74,114.073,-0.00819496,0.0523325,20.985,425.977,0.207022,0.0,0.0
1308,326.75,26.6141,28.5457,163.012,116.678,113.978,-0.00815567,0.0521728,20.985,425.847,0.209701,0.0,0.0
1312,327.75,26.6552,28.4589,160.49,116.628,113.048,-0.00812839,0.0520323,20.9851,425.927,0.27925,0.0,0.0
1316,328.75,26.0051,28.019,165.033,116.578,113.312,-0.00812302,0.0519204,20.9851,425.847,0.254521,0.0,0.0
1320,329.75,26.6631,28.4954,161.111,116.512,112.456,-0.00813916,0.0518218,20.9851,425.797,0.317377,0.0,0.0
1324,330.75,25.8218,28.0348,162.301,116.464,112.508,-0.00818092,0.0517914,20.9851,425.827,0.309488,0.0,0.0
1328,331.75,26.2954,28.0575,164.34,116.364,112.649,-0.00823382,0.0517425,20.9851,425.757,0.29059,0.0,0.0
1332,332.75,26.2243,27.9865,159.937,116.303,113.889,-0.00829155,0.0516998,20.9851,425.827,0.187874,0.0,0.0
1336,333.75,26.2944,27.8233,159.045,116.225,112.499,-0.00834811,0.0516718,20.9851,425.897,0.291854,0.0,0.0
1340,334.75,26.0264,28.0643,166.247,116.156,113.185,-0.00839743,0.0516256,20.9852,425.717,0.232121,0.0,0.0
1344,335.75,26.1396,27.8072,159.295,116.064,112.745,-0.00844582,0.0515875,20.9854,425.727,0.259875,0.0,0.0
1348,336.75,25.4934,27.0543,165.794,115.979,112.823,-0.00849485,0.051635,20.9856,425.767,0.247128,0.0,0.0
1352,337.75,26.3573,27.4993,161.301,115.903,112.344,-0.00852832,0.0517563,20.9857,425.747,0.279426,0.0,0.0
1356,338.75,25.9737,27.7184,161.064,115.816,112.022,-0.00854726,0.0518108,20.9858,425.717,0.298321,0.0,0.0
1360,339.75,25.9394,27.5306,161.518,115.729,112.44,-0.00853496,0.0517712,20.9858,425.657,0.258256,0.0,0.0
1364,340.75,25.9174,27.599,163.719,115.653,112.624,-0.00852207,0.0517954,20.9857,425.617,0.237704,0.0,0.0
1368,341.75,26.0051,27.6474,162.089,115.576,112.147,-0.00848479,0.0518312,20.9851,425.527,0.26976,0.0,0.0
1372,342.75,25.8209,27.6366,163.057,115.496,111.443,-0.00844507,0.0518599,20.9848,425.577,0.319984,0.0,0.0
1376,343.75,25.8175,27.713,165.887,115.415,112.426,-0.00841725,0.0518748,20.9845,425.637,0.235032,0.0,0.0
1380,344.75,26.0041,27.4386,163.758,115.361,112.357,-0.00841677,0.0518885,20.9844,425.477,0.236359,0.0,0.0
1384,345.75,25.8377,27.1896,161.388,115.267,112.24,-0.00844036,0.0519173,20.9843,425.477,0.238341,0.0,0.0
1388,346.75,25.5771,27.3119,161.248,115.203,112.146,-0.00849657,0.0519614,20.9842,425.387,0.240899,0.0,0.0
1392,347.75,25.6116,27.3931,163.864,115.119,112.084,-0.00856743,0.0518966,20.9842,425.457,0.239371,0.0,0.0
1396,348.75,25.7704,27.2338,162.196,115.058,112.761,-0.00863428,0.0518056,20.9839,425.257,0.180632,0.0,0.0
1400,349.75,25.6148,27.0468,161.905,114.991,112.725,-0.00868018,0.0517143,20.9836,425.327,0.178294,0.0,0.0
1404,350.75,25.8848,27.4429,163.286,114.931,111.66,-0.0086868,0.0517079,20.9833,425.357,0.258626,0.0,0.0
1408,351.75,25.4224,26.6859,161.595,114.875,112.82,-0.00864776,0.0516786,20.9828,425.367,0.161668,0.0,0.0
1412,352.75,25.4329,27.1951,163.012,114.809,111.933,-0.008586,0.0516844,20.9825,425.267,0.227224,0.0,0.0
1416,353.75,25.6226,26.8904,158.641,114.753,111.881,-0.00848173,0.0517636,20.9822,425.337,0.227073,0.0,0.0
1420,354.75,25.2686,26.6152,166.606,114.7,112.054,-0.00835039,0.0518156,20.9827,425.307,0.209048,0.0,0.0
1424,355.75,25.5708,27.1927,160.518,114.654,110.874,-0.00821905,0.0517743,20.9827,425.317,0.30028,0.0,0.0
1428,356.75,25.5147,26.9875,160.877,114.611,111.855,-0.00811518,0.0517611,20.9825,425.257,0.217971,0.0,0.0
1432,357.75,25.3258,26.8545,161.587,114.576,111.662,-0.00804226,0.0517848,20.9825,425.267,0.230741,0.0,0.0
1436,358.75,25.0213,26.3833,163.2,114.524,111.564,-0.00801213,0.0518297,20.9824,425.197,0.23456,0.0,0.0
1440,359.75,25.2324,26.8383,161.171,114.506,111.273,-0.00800431,0.0517984,20.9824,425.076,0.256545,0.0,0.0
1444,360.75,24.7172,25.7668,158.425,114.482,112.029,-0.00801802,0.0517601,20.9824,425.187,0.193975,0.0,0.0
1448,361.75,25.4066,26.8359,162.078,114.451,111.71,-0.00803347,0.0517098,20.9824,425.197,0.217128,0.0,0.0
1452,362.75,24.9237,26.5888,160.856,114.428,111.405,-0.00805157,0.0517522,20.9824,425.237,0.239866,0.0,0.0
1456,363.75,24.309,26.4321,159.738,114.428,110.818,-0.00807462,0.05178,20.9825,425.207,0.287136,0.0,0.0
1460,364.75,25.1206,26.8561,164.698,114.424,111.289,-0.00810501,0.0517705,20.983,425.107,0.248797,0.0,0.0
1464,365.75,25.089,26.9571,161.358,114.413,111.029,-0.00813131,0.0517418,20.9832,425.076,0.268928,0.0,0.0
1468,366.75,25.4135,26.1872,162.341,114.403,112.053,-0.00815183,0.0517731,20.9834,425.046,0.185938,0.0,0.0
1472,367.75,24.275,26.032,159.07,114.407,111.03,-0.00814228,0.0518942,20.9838,425.056,0.268374,0.0,0.0
1476,368.75,25.1403,26.4463,162.501,114.412,111.64,-0.00810502,0.0519946,20.9841,424.956,0.219672,0.0,0.0
1480,369.75,24.8189,26.4841,164.565,114.416,111.37,-0.00806859,0.0520589,20.9843,424.946,0.241697,0.0,0.0
1484,370.75,24.9063,26.481,163.912,114.434,111.686,-0.00805857,0.0520978,20.9844,425.036,0.217693,0.0,0.0
1488,371.75,24.3716,25.9974,167.795,114.437,111.935,-0.00807414,0.052159,20.9845,424.996,0.197984,0.0,0.0
1492,372.75,24.5474,26.1872,162.644,114.433,111.208,-0.00810078,0.0521991,20.9845,425.016,0.256051,0.0,0.0
1496,373.75,24.9802,26.006,162.245,114.454,111.696,-0.00812992,0.0522198,20.9846,424.966,0.218499,0.0,0.0
1500,374.75,24.068,25.5526,165.635,114.449,111.067,-0.00815345,0.0521888,20.9846,424.936,0.268669,0.0,0.0
1504,375.75,24.7388,26.3559,164.819,114.469,111.309,-0.00816411,0.0521182,20.9846,424.866,0.250808,0.0,0.0
1508,376.75,24.8774,26.5983,160.41,114.479,111.383,-0.00816886,0.0520125,20.9846,424.836,0.245628,0.0,0.0
1512,377.75,24.8961,26.5929,165.331,114.502,112.095,-0.00818437,0.0519271,20.9846,424.886,0.190272,0.0,0.0
1516,378.75,24.8612,26.1269,162.538,114.503,112.146,-0.00820851,0.0518573,20.9846,424.866,0.186282,0.0,0.0
1520,379.75,24.9014,26.2258,161.451,114.535,111.995,-0.00823074,0.0518294,20.9846,424.826,0.200871,0.0,0.0
1524,380.75,24.6918,26.7611,162.843,114.562,111.985,-0.00824367,0.0519043,20.9846,424.816,0.20382,0.0,0.0
1528,381.75,25.0391,26.2956,160.783,114.589,111.852,-0.00823925,0.0520069,20.9846,424.806,0.216575,0.0,0.0
1532,382.75,24.8907,26.4639,162.566,114.612,112.066,-0.00821452,0.0520742,20.9846,424.766,0.201175,0.0,0.0
1536,383.75,24.4001,26.5182,159.303,114.631,111.299,-0.00817872,0.0520681,20.9846,424.766,0.264249,0.0,0.0
1540,384.75,24.8169,25.8413,163.601,114.653,112,-0.0081438,0.051985,20.9846,424.686,0.209661,0.0,0.0
1544,385.75,24.7272,26.5689,161.942,114.679,111.251,-0.00812407,0.0519487,20.9846,424.706,0.27187,0.0,0.0
1548,386.75,24.4651,26.3782,163.666,114.707,112.834,-0.00813968,0.0519553,20.9847,424.676,0.147418,0.0,0.0
1552,387.75,24.6021,26.3581,167.207,114.734,112.186,-0.00817306,0.0520244,20.9848,424.686,0.201165,0.0,0.0
1556,388.75,24.3596,25.9291,157.563,114.773,111.595,-0.00819247,0.0520857,20.9844,424.746,0.251561,0.0,0.0
1560,389.75,24.5504,26.1768,162.486,114.798,111.759,-0.00818085,0.0521259,20.984,424.706,0.240342,0.0,0.0
1564,390.75,24.1978,26.357,156.123,114.804,112.039,-0.00814394,0.0520829,20.9838,424.676,0.218313,0.0,0.0
1568,391.75,24.538,26.2564,161.314,114.833,111.544,-0.00811937,0.0520131,20.9837,424.616,0.260346,0.0,0.0
1572,392.75,24.6357,25.7131,164.198,114.883,111.377,-0.0081314,0.0520102,20.9836,424.626,0.277578,0.0,0.0
1576,393.75,24.5653,26.0168,164.371,114.908,111.925,-0.00818122,0.0520261,20.9835,424.566,0.235561,0.0,0.0
1580,394.75,24.4376,26.0567,158.632,114.926,112.03,-0.00823859,0.0520147,20.9835,424.516,0.228668,0.0,0.0
1584,395.75,25.0072,26.042,161.669,114.976,112.166,-0.00828216,0.0519683,20.9835,424.526,0.221692,0.0,0.0
1588,396.75,25.097,25.6763,158.691,114.996,112.697,-0.00828885,0.0519735,20.9835,424.446,0.180828,0.0,0.0
1592,397.75,24.2554,25.7133,162.202,115.006,113.039,-0.00827093,0.0519016,20.9835,424.456,0.154551,0.0,0.0
1596,398.75,24.5578,25.8389,164.081,115.037,112.498,-0.0082277,0.0518148,20.9834,424.426,0.199835,0.0,0.0
1600,399.75,24.2962,25.0281,162.173,115.067,112.547,-0.00819757,0.0517274,20.9834,424.416,0.198352,0.0,0.0
1604,400.75,24.3485,25.6419,163.645,115.092,112.699,-0.00819306,0.0516846,20.9834,424.396,0.188157,0.0,0.0
1608,401.75,24.1472,25.9928,156.972,115.133,112.1,-0.00819791,0.0516756,20.9834,424.376,0.239101,0.0,0.0
1612,402.75,24.377,25.3974,156.81,115.137,111.76,-0.00822193,0.0517088,20.9834,424.406,0.266595,0.0,0.0
1616,403.75,23.6658,25.5446,163.963,115.173,111.322,-0.0082492,0.0517822,20.9834,424.396,0.30469,0.0,0.0
1620,404.75,24.477,25.5878,157.011,115.212,112.665,-0.00827384,0.0518764,20.9834,424.366,0.200286,0.0,0.0
1624,405.75,24.1902,25.8081,160.364,115.245,112.275,-0.00829544,0.0519132,20.9834,424.376,0.233856,0.0,0.0
1628,406.75,24.675,26.2168,160.546,115.278,112.704,-0.00830127,0.0518978,20.9834,424.336,0.202319,0.0,0.0
1632,407.75,24.0908,25.0733,162.167,115.289,112.325,-0.00829705,0.051877,20.9834,424.276,0.233311,0.0,0.0
1636,408.75,24.2496,25.8401,161.983,115.322,112.171,-0.00826164,0.0518383,20.9827,424.216,0.248159,0.0,0.0
1640,409.75,24.284,25.8896,160.596,115.347,112.575,-0.00815422,0.0518631,20.982,424.226,0.217915,0.0,0.0
1644,410.75,24.3001,25.4956,163.118,115.375,112.417,-0.00808173,0.0518992,20.9817,424.256,0.232627,0.0,0.0
1648,411.75,23.6657,25.154,158.544,115.402,112.736,,0.0519281,,424.216,0.209358,0.0,0.0
1652,412.75,24.2719,25.6424,163.634,115.433,111.976,,0.0519202,,424.236,0.27234,0.0,0.0
1656,413.75,23.7683,25.6418,164.897,115.458,113.141,,0.051921,,424.166,0.181578,0.0,0.0
1660,414.75,24.5126,25.8602,158.842,115.484,113.014,,,,424.186,0.193622,0.0,0.0
1664,415.75,24.1387,26.0312,161.47,115.506,112.904,,,,424.166,0.204065,0.0,0.0
1668,416.75,24.2344,25.7663,161.243,115.542,112.459,,,,424.136,0.242238,0.0,0.0
1672,417.75,24.3038,25.7784,161.961,115.578,113.566,,,,424.106,0.157302,0.0,0.0
1676,418.75,24.2878,25.6417,163.105,115.577,113.109,,,,424.066,0.1933,0.0,0.0
1680,419.75,24.3713,25.3464,161.554,115.621,112.999,,,,424.066,0.20541,0.0,0.0
1684,420.75,24.0135,25.8112,163.08,115.632,113.205,,,,424.046,0.190026,0.0,0.0
1688,421.75,24.6563,25.8001,160.934,115.638,113.255,,,,424.066,0.18644,0.0,0.0