File: 01_Data/PVC/Cone/PVC_Cone_HF50Scan_220210_R3.csv
Names,Time,Stack TC,Smoke TC,Exh Press,Smoke Comp,Smoke Meas,CO Meter,CO2 Meter,O2 Meter,Sample Mass,Ext Coeff,Start Test,Flame Verif
Chan Gain,,500,500,1,1,1,1,1,1,1,1,1.0,1.0
Offset,,0,0,0.140898,0,0,0,0,0,0,0,0.0,0.0
Gain,,1,1,25.011,12.9668,12.6588,1,1,1,1.00088,1.01977,1.0,1.0
Units,sec,C,C,Pa,%,%,%,%,%,g,/m,,
Baseline,,35.1602,37.1519,156.097,97.9369,100.298,0.00027194,0.0659782,20.9844,-870.531,-0.213068,,
6,1.25,33.0934,34.7113,156.384,98.7027,101.044,0.000330684,0.0739095,20.9751,43.4882,-0.209668,0.0,0.0
12,2.75,33.1066,34.5898,158.214,98.8044,101.152,0.00036479,0.0730149,20.9761,43.6183,-0.210062,0.0,0.0
18,4.25,33.3612,34.7019,162.053,98.8586,101.364,0.000470914,0.0724574,20.976,43.5082,-0.223891,0.0,0.0
24,5.75,32.7932,35.0853,159.673,98.8875,101.925,0.000597782,0.0723551,20.9755,43.5783,-0.270643,0.0,0.0
30,7.25,33.4845,35.0315,158.589,98.8745,100.57,0.000677066,0.0725558,20.9743,43.5182,-0.152054,0.0,0.0
36,8.75,33.3472,35.5035,161.596,98.8325,100.942,0.000654873,0.0729269,20.9736,43.5482,-0.18888,0.0,0.0
42,10.25,33.9371,35.3728,156.281,98.7308,101.285,0.000541416,0.073183,20.9732,43.5583,-0.228473,0.0,0.0
48,11.75,33.9714,34.8594,159.65,98.6066,100.744,0.000428555,0.0731608,20.9736,43.5382,-0.191808,0.0,0.0
54,13.25,33.775,35.6104,155.785,98.4333,101.252,0.000330254,0.0729236,20.9732,43.5783,-0.25254,0.0,0.0
60,14.75,33.2528,35.5514,155.38,98.233,100.692,0.000218556,0.0724991,20.973,43.5282,-0.221198,0.0,0.0
66,16.25,33.9874,35.8329,156.149,98.0466,100.097,0.000120811,0.0719226,20.9738,43.5583,-0.185176,0.0,0.0
72,17.75,33.7178,35.5158,154.037,98.0743,100.364,3.31541e-05,0.0715798,20.9742,43.5082,-0.206439,0.0,0.0
78,19.25,33.7691,35.76,158.616,98.106,100.439,-1.98655e-05,0.0710604,20.9744,43.5282,-0.210265,0.0,0.0
84,20.75,33.5925,35.3653,154.05,98.1602,100.236,-3.30377e-05,0.0705838,20.9745,43.4782,-0.187172,0.0,0.0
90,22.25,33.6594,34.8812,158.38,98.214,100.604,3.07761e-05,0.0703406,20.9746,43.4782,-0.21503,0.0,0.0
96,23.75,33.7664,36.0026,154.869,98.2647,99.8904,0.000156157,0.0701824,20.9746,43.5082,-0.146782,0.0,0.0
102,25.25,33.7057,35.9898,159.806,98.3046,97.7525,0.000255607,0.0704194,20.9746,43.5082,0.0503845,0.0,0.0
108,26.75,33.9375,35.5569,159.276,98.3581,96.5263,0.000383975,0.0708154,20.9739,43.3581,0.168161,0.0,0.0
114,28.25,34.4129,36.1754,156.394,98.3889,97.1475,0.000835377,0.0715303,20.9732,43.268,0.113584,0.0,0.0
120,29.75,34.2779,35.9121,153.814,98.4431,95.5424,0.00139399,0.0722383,20.9722,43.1479,0.267549,0.0,0.0
126,31.25,33.7598,36.558,159.973,98.4598,92.4271,0.00205878,0.0732371,20.9693,42.9777,0.565591,0.0,0.0
132,32.75,34.2613,36.471,154.74,98.4641,91.9508,0.00265368,0.0750811,20.9661,42.8476,0.612207,0.0,0.0
138,34.25,34.444,36.4067,150.921,98.4388,92.2467,0.00336583,0.0778764,20.9616,42.6074,0.581163,0.0,0.0
144,35.75,34.7444,36.9725,155.347,98.4004,92.8552,0.00404265,0.0812021,20.9579,42.4373,0.518866,0.0,0.0
150,37.25,34.8024,36.9438,158.303,98.3327,90.8988,0.00503682,0.0856009,20.955,42.137,0.70319,0.0,0.0
156,38.75,35.0556,37.8147,152.503,98.2433,86.6671,0.00644704,0.0907078,20.947,41.8968,1.1215,0.0,0.0
162,40.25,35.2815,38.0236,147.063,98.1452,85.9065,0.00828206,0.102447,20.9144,41.6766,1.19142,0.0,0.0
168,41.75,36.2091,38.3985,146.076,98.0387,89.7639,0.0102916,0.122454,20.8777,41.4064,0.788801,0.0,0.0
174,43.25,36.608,39.7985,148.135,97.9149,85.9424,0.0126765,0.145003,20.8429,41.1461,1.16666,0.0,0.0
180,44.75,37.1935,40.6906,143.731,97.795,84.406,0.0157512,0.172062,20.801,40.9059,1.31706,0.0,0.0
186,46.25,38.4942,41.486,139.144,97.6707,82.3779,0.0187839,0.203875,20.7452,40.6957,1.52326,0.0,0.0
192,47.75,39.1286,42.9067,142.487,97.5342,82.6753,0.0222084,0.233221,20.6908,40.4455,1.4785,0.0,0.0
198,49.25,40.1686,43.9421,141.552,97.4404,43.7245,0.0273759,0.262931,20.6406,40.2453,7.16818,0.0,1.0
204,50.75,40.8799,45.0087,138.511,97.3324,30.0404,0.0322569,0.287021,20.5862,39.7849,10.516,0.0,1.0
210,52.25,41.834,45.6987,141.18,97.2596,26.3534,0.0359567,0.30634,20.5496,39.5447,11.6807,0.0,1.0
216,53.75,42.6069,46.9406,141.078,97.1955,31.9488,0.0378746,0.317064,20.5328,39.2144,9.95249,0.0,0.0
222,55.25,43.2572,47.9706,138.9,97.1614,31.6938,0.0384909,0.316963,20.5344,38.9542,10.021,0.0,0.0
228,56.75,44.1145,48.8264,147.152,97.1274,39.1509,0.0376251,0.309496,20.548,38.754,8.12773,0.0,0.0
234,58.25,43.9753,49.1077,146.779,97.1389,39.5662,0.0365898,0.297681,20.566,38.5038,8.0344,0.0,0.0
240,59.75,44.436,49.4573,147.854,97.1381,46.8209,0.0355158,0.284948,20.5915,38.2236,6.52835,0.0,0.0
246,61.25,44.1649,49.4224,149.376,97.1915,51.6722,0.034622,0.273494,20.6157,38.0134,5.65133,0.0,0.0
252,62.75,45.0021,49.9208,145.331,97.2279,52.6511,0.0338525,0.262367,20.6366,37.8432,5.4868,0.0,0.0
258,64.25,45.6507,51.0961,144.342,97.3102,56.3358,0.0330312,0.254616,20.6526,37.573,4.88928,0.0,0.0
264,65.75,45.3595,50.7338,144.357,97.3965,67.9327,0.0320898,0.249078,20.665,37.3528,3.22276,0.0,0.0
270,67.25,46.1358,51.7389,147.401,97.5045,70.6651,0.0309922,0.245226,20.6757,37.1626,2.87992,0.0,0.0
276,68.75,46.1924,51.844,142.547,97.6228,74.3185,0.0297299,0.243138,20.6841,36.9725,2.43985,0.0,0.0
282,70.25,46.2121,51.9492,142.236,97.7309,80.9095,0.0280058,0.241988,20.691,36.7423,1.68965,0.0,0.0
288,71.75,46.839,52.5575,146.169,97.8448,80.9408,0.0265996,0.241469,20.6961,36.5321,1.69662,0.0,0.0
294,73.25,47.2217,52.8163,141.069,97.9825,84.4458,0.0254398,0.240647,20.7003,36.3119,1.32999,0.0,0.0
300,74.75,47.0178,53.1473,143.839,98.1072,81.2015,0.0245977,0.239728,20.7028,36.1417,1.6918,0.0,0.0
306,76.25,47.5216,53.3113,142.911,98.2508,81.3607,0.0241021,0.240629,20.704,35.9516,1.68737,0.0,0.0
312,77.75,47.0482,53.0743,145.487,98.3672,79.1687,0.023987,0.242531,20.7016,35.7114,1.94226,0.0,0.0
318,79.25,47.5484,53.4693,140.847,98.4728,72.6566,0.0242575,0.245798,20.6939,35.5312,2.71971,0.0,0.0
324,80.75,48.0923,53.8696,139.255,98.5888,74.208,0.0245843,0.25157,20.6826,35.281,2.54124,0.0,0.0
330,82.25,48.2271,54.3461,145.41,98.6849,73.1086,0.0251355,0.257633,20.6722,35.1108,2.68348,0.0,0.0
336,83.75,48.46,54.3776,144.06,98.7708,70.9552,0.025737,0.261676,20.6654,34.8906,2.9587,0.0,0.0
342,85.25,48.7631,55.1777,142.207,98.8582,69.7043,0.02648,0.264234,20.6612,34.7405,3.12572,0.0,0.0
348,86.75,49.0134,55.0572,144.167,98.9366,67.8373,0.0271754,0.266017,20.6585,34.5303,3.37568,0.0,0.0
354,88.25,49.6939,55.4318,145.37,98.9778,67.3729,0.0275168,0.267216,20.656,34.2901,3.44084,0.0,0.0
360,89.75,49.361,55.9605,145.97,99.0434,68.3781,0.0275484,0.268093,20.6546,34.14,3.3143,0.0,0.0
366,91.25,50.1142,56.35,145.418,99.062,68.5917,0.0273599,0.268809,20.6539,33.8798,3.28807,0.0,0.0
372,92.75,49.3837,56.5339,144.583,99.1044,67.3578,0.0272011,0.269314,20.6538,33.7196,3.45428,0.0,0.0
378,94.25,50.5182,56.6818,141.701,99.1131,67.8539,0.0270736,0.268968,20.6552,33.4994,3.38943,0.0,0.0
384,95.75,50.6606,55.8149,146.921,99.1321,68.7355,0.0269067,0.266985,20.6591,33.3193,3.27567,0.0,0.0
390,97.25,50.8248,56.8372,144.675,99.1076,70.8142,0.0266311,0.264291,20.6627,33.0791,3.00694,0.0,0.0
396,98.75,50.2987,57.3922,146.576,99.1064,69.3903,0.0262689,0.26095,20.667,32.9089,3.18854,0.0,0.0
402,100.25,49.9114,56.4074,142.761,99.0763,70.4395,0.0260334,0.258068,20.6709,32.7287,3.05158,0.0,0.0
408,101.75,50.9719,57.1208,145.156,99.0597,71.731,0.0258605,0.256149,20.6754,32.4885,2.88755,0.0,0.0
414,103.25,50.702,57.1875,142.075,99.0126,65.8068,0.0257503,0.254446,20.6784,32.3284,3.65438,0.0,0.0
420,104.75,50.0916,57.0285,146.721,98.9896,68.7355,0.0255844,0.252926,20.6818,32.0982,3.26281,0.0,0.0
426,106.25,50.7262,57.3971,143.891,98.9433,71.972,0.0254002,0.251687,20.685,31.9781,2.84703,0.0,0.0
432,107.75,51.0293,57.2604,147.692,98.9042,72.103,0.0252261,0.250805,20.6882,31.7279,2.82723,0.0,0.0
438,109.25,50.9244,57.4444,146.973,98.8551,71.8739,0.0249942,0.249449,20.6915,31.6578,2.85125,0.0,0.0
444,110.75,51.7574,58.0156,147.996,98.8052,70.2881,0.0247039,0.247198,20.696,31.3976,3.04632,0.0,0.0
450,112.25,51.4407,57.5954,150.788,98.7573,72.3467,0.0243023,0.244707,20.6995,31.2274,2.78375,0.0,0.0
456,113.75,51.6345,58.0034,145.554,98.7087,71.5158,0.0238046,0.243521,20.7022,31.0773,2.88268,0.0,0.0
462,115.25,52.1608,58.0218,146.745,98.6699,75.1545,0.0233716,0.242583,20.7049,30.9572,2.43522,0.0,0.0
468,116.75,51.4264,57.793,146.793,98.6363,76.3069,0.0229555,0.241553,20.7072,30.727,2.29605,0.0,0.0
474,118.25,50.9622,58.3033,147.928,98.5714,74.2123,0.0225651,0.240652,20.709,30.5969,2.53914,0.0,0.0
480,119.75,51.4692,57.9935,146.905,98.5326,74.8319,0.0222724,0.239775,20.7105,30.4868,2.46124,0.0,0.0
486,121.25,51.2554,58.0347,148.209,98.5041,75.9967,0.0219847,0.237782,20.7151,30.2566,2.3205,0.0,0.0
492,122.75,51.829,58.2178,146.118,98.4554,78.5015,0.021623,0.235136,20.7216,30.1665,2.02599,0.0,0.0
498,124.25,51.8207,58.0404,148.607,98.4238,76.7457,0.0212737,0.232302,20.7268,29.9363,2.22546,0.0,0.0
504,125.75,51.8252,58.1067,142.141,98.3913,76.0851,0.0208809,0.229626,20.731,29.8462,2.29984,0.0,0.0
510,127.25,51.2316,57.4889,146.882,98.3775,76.7612,0.0205255,0.227037,20.7341,29.596,2.21945,0.0,0.0
516,128.75,51.2319,57.8053,142.251,98.349,77.834,0.020011,0.224324,20.7379,29.4959,2.09271,0.0,0.0
522,130.25,51.3546,57.6598,146.71,98.3375,81.5148,0.0194778,0.222641,20.7413,29.3558,1.67833,0.0,0.0
528,131.75,52.0341,58.2663,144.797,98.3395,81.6319,0.0189506,0.221603,20.7436,29.2057,1.66567,0.0,0.0
534,133.25,51.6753,57.7805,149.08,98.3996,84.0522,0.0183031,0.220727,20.7463,29.1056,1.40978,0.0,0.0
540,134.75,51.6033,57.2141,143.637,98.4447,79.9112,0.017646,0.219668,20.7485,28.9254,1.86581,0.0,0.0
546,136.25,51.559,57.6176,142.654,98.5009,84.5323,0.0170206,0.218412,20.751,28.8153,1.36802,0.0,0.0
552,137.75,51.6466,57.624,144.822,98.5183,84.5099,0.0165775,0.21688,20.7535,28.5951,1.37198,0.0,0.0
558,139.25,51.5461,57.8447,149.215,98.5623,85.5356,0.0162653,0.215375,20.756,28.6151,1.26805,0.0,0.0
564,140.75,51.3393,57.2368,146.911,98.5781,86.0255,0.0160111,0.213987,20.7572,28.3549,1.21841,0.0,0.0
570,142.25,51.1246,57.061,144.469,98.6137,85.5491,0.0156838,0.212348,20.7607,28.2848,1.2713,0.0,0.0
576,143.75,51.5387,57.4252,145.125,98.6089,85.0388,0.0152819,0.210459,20.7636,28.1447,1.3244,0.0,0.0
582,145.25,50.7547,57.293,145.843,98.6311,86.3979,0.0148455,0.208914,20.7662,28.0546,1.18457,0.0,0.0
588,146.75,51.1899,57.5221,148.663,98.6469,86.7077,0.0143648,0.207802,20.7689,27.8745,1.15399,0.0,0.0
594,148.25,51.4387,56.981,145.353,98.6628,87.045,0.0139616,0.206314,20.7709,27.8044,1.1207,0.0,0.0
600,149.75,50.7086,57.038,141.442,98.6632,84.7699,0.0136993,0.204689,20.7738,27.6543,1.35764,0.0,0.0
606,151.25,50.9705,56.825,149.714,98.6667,86.6304,0.0135408,0.20289,20.7772,27.5242,1.16376,0.0,0.0
612,152.75,51.1316,56.5703,148.297,98.6695,87.8033,0.0134188,0.200953,20.7804,27.4141,1.04371,0.0,0.0
618,154.25,50.8775,56.588,146.658,98.6596,87.0086,0.0133647,0.19909,20.7844,27.284,1.12414,0.0,0.0
624,155.75,50.3054,56.5717,148.477,98.6723,86.2766,0.0134249,0.196634,20.7884,27.2239,1.20087,0.0,0.0
630,157.25,50.5951,56.7085,150.116,98.6533,88.5122,0.0134937,0.194356,20.7928,27.0638,0.970311,0.0,0.0
636,158.75,50.2206,56.4088,152.358,98.6568,88.2788,0.0134329,0.191678,20.7965,27.0037,0.994247,0.0,0.0
642,160.25,50.8161,56.5149,147.137,98.6323,86.9998,0.0131828,0.189122,20.7997,26.8636,1.12258,0.0,0.0
648,161.75,50.6662,56.2521,150.781,98.6347,89.1991,0.0129196,0.187308,20.8028,26.7835,0.899474,0.0,0.0
654,163.25,50.0864,55.5976,141.709,98.6078,88.0772,0.0126713,0.18527,20.807,26.6034,1.01025,0.0,0.0
660,164.75,50.2767,55.889,148.573,98.6129,88.2889,0.0124962,0.183269,20.8104,26.5733,0.989245,0.0,0.0
666,166.25,50.0449,55.5728,149.088,98.5729,88.5643,0.0123242,0.181215,20.8128,26.4332,0.957755,0.0,0.0
672,167.75,50.0443,55.4362,147.313,98.5567,90.3599,0.0120952,0.179691,20.8145,26.3632,0.776734,0.0,0.0
678,169.25,49.576,55.0255,153.526,98.5104,90.854,0.0118305,0.178891,20.8157,26.223,0.723749,0.0,0.0
684,170.75,49.7774,55.0743,146.725,98.478,91.1801,0.0115574,0.178107,20.8167,26.0929,0.688758,0.0,0.0
690,172.25,50.2906,55.582,142.739,98.4277,89.0086,0.011325,0.177449,20.8172,26.0629,0.899807,0.0,0.0
696,173.75,49.9261,55.263,149.785,98.3873,92.2857,0.01106,0.176735,20.8175,25.9528,0.572704,0.0,0.0
702,175.25,49.9259,54.9103,144.964,98.3197,89.3733,0.0108048,0.175728,20.82,25.9027,0.853407,0.0,0.0
708,176.75,49.5047,54.9651,151.486,98.3454,92.3244,0.0106078,0.174566,20.8225,25.7626,0.565146,0.0,0.0
714,178.25,49.8136,55.3261,148.159,98.3612,90.0219,0.0104681,0.173423,20.8238,25.6826,0.7925,0.0,0.0
720,179.75,49.9823,55.0315,146.898,98.3972,90.5508,0.0104261,0.172463,20.8256,25.4824,0.743374,0.0,0.0
726,181.25,49.5009,54.8685,150.529,98.4214,91.7082,0.0104993,0.171501,20.827,25.4624,0.631956,0.0,0.0
732,182.75,49.6256,54.7334,147.101,98.4534,91.0259,0.0106807,0.170482,20.8291,25.3523,0.701664,0.0,0.0
738,184.25,49.1662,54.5039,151.936,98.4823,90.3796,0.0109756,0.168995,20.8305,25.2622,0.76803,0.0,0.0
744,185.75,49.4169,54.6462,147.811,98.5171,91.131,0.0111301,0.167475,20.8319,25.1621,0.697131,0.0,0.0
750,187.25,49.3711,54.4428,149.874,98.563,93.4246,0.0110749,0.166906,20.8331,25.082,0.478949,0.0,0.0
756,188.75,49.6707,54.5056,149.071,98.5951,92.2266,0.0109169,0.166202,20.8346,25.002,0.597304,0.0,0.0
762,190.25,49.2411,54.179,153.305,98.6521,91.2604,0.0108202,0.165085,20.8367,24.9019,0.69668,0.0,0.0
768,191.75,49.4668,54.1224,153.772,98.6948,89.7573,0.0107539,0.163282,20.8393,24.8418,0.84912,0.0,0.0
774,193.25,48.776,53.8154,149.203,98.7534,89.7932,0.010664,0.161652,20.8413,24.7117,0.850847,0.0,0.0
780,194.75,48.7814,53.7993,147.703,98.7941,93.4505,0.010581,0.160708,20.8422,24.7017,0.497421,0.0,0.0
786,196.25,49.2679,53.6806,150.614,98.8515,91.1573,0.0105751,0.159887,20.8428,24.5215,0.724862,0.0,0.0
792,197.75,48.7308,53.6096,145.124,98.8923,90.3171,0.0106413,0.158651,20.845,24.5015,0.811385,0.0,0.0
798,199.25,48.6085,53.7208,147.472,98.9524,90.9216,0.0107117,0.156931,20.848,24.3214,0.757144,0.0,0.0
804,200.75,48.9504,53.6132,148.497,98.9813,90.1146,0.0106816,0.155636,20.8499,24.3514,0.839507,0.0,0.0
810,202.25,48.2302,52.8174,147.139,99.0426,90.7625,0.0103468,0.154996,20.8513,24.2013,0.780969,0.0,0.0
816,203.75,48.3631,53.2269,145.976,99.0636,94.4677,0.00994338,0.154984,20.852,24.1312,0.424946,0.0,0.0
822,205.25,48.7717,53.056,148.422,99.1012,92.4677,0.00958163,0.155557,20.8524,24.0211,0.619756,0.0,0.0
828,206.75,48.8024,53.0969,149.33,99.1087,95.097,0.00932821,0.156055,20.853,23.941,0.369626,0.0,0.0
834,208.25,49.0405,53.2576,153.159,99.1226,95.1418,0.00917193,0.155971,20.8546,23.8409,0.366663,0.0,0.0
840,209.75,48.3017,53.3559,149.197,99.1099,92.7443,0.00911024,0.155088,20.8559,23.7609,0.593822,0.0,0.0
846,211.25,48.3938,53.005,147.199,99.0901,93.8974,0.00909586,0.153204,20.8577,23.6708,0.481498,0.0,0.0
852,212.75,48.2021,52.5779,148.019,99.0367,95.3724,0.00906425,0.151742,20.8586,23.5707,0.337251,0.0,0.0
858,214.25,48.3401,52.5591,146.195,98.99,95.2047,0.00894274,0.151553,20.8591,23.5307,0.348773,0.0,0.0
864,215.75,48.22,52.8628,148.919,98.9053,93.6336,0.00870637,0.151904,20.8594,23.3805,0.489973,0.0,0.0
870,217.25,48.1768,52.3962,154.703,98.846,94.5434,0.0085149,0.151743,20.8603,23.3505,0.398106,0.0,0.0
876,218.75,47.9978,52.4613,148.861,98.7368,92.8223,0.00843589,0.150918,20.8611,23.1904,0.552555,0.0,0.0
882,220.25,48.0883,52.6386,152.218,98.6307,92.3873,0.00844392,0.149965,20.8625,23.1603,0.584961,0.0,0.0
888,221.75,48.3169,52.3721,146.911,98.5037,93.9531,0.00856518,0.149164,20.863,23.0803,0.423101,0.0,0.0
894,223.25,47.985,52.1607,149.437,98.3719,93.6776,0.00880366,0.148323,20.8643,23.0202,0.437391,0.0,0.0
900,224.75,48.0847,52.2807,153.122,98.218,91.2346,0.00904139,0.147251,20.8656,22.9201,0.659768,0.0,0.0
906,226.25,48.0018,52.1759,146.095,98.0621,90.856,0.00913368,0.146088,20.8667,22.8901,0.682754,0.0,0.0
912,227.75,47.4528,52.2632,147.701,97.9121,93.3701,0.00911797,0.145655,20.8679,22.78,0.424891,0.0,0.0
918,229.25,47.6304,51.894,149.366,97.7502,90.912,0.00910267,0.144933,20.8694,22.6599,0.64875,0.0,0.0
924,230.75,47.3174,51.4982,148.757,97.6058,90.1108,0.00912173,0.143586,20.8707,22.5998,0.714709,0.0,0.0
930,232.25,48.0091,51.8791,148.179,97.4796,91.5158,0.00921,0.142492,20.8722,22.4898,0.56473,0.0,0.0
936,233.75,47.6442,51.5746,151.812,97.3593,91.4015,0.00937857,0.141388,20.8722,22.4597,0.564869,0.0,0.0
942,235.25,47.3979,51.231,148.694,97.2532,89.5494,0.00955457,0.14032,20.8719,22.3396,0.738234,0.0,0.0
948,236.75,47.4225,51.4784,151.557,97.1923,91.1048,0.0096837,0.139679,20.8724,22.3196,0.578597,0.0,0.0
954,238.25,47.6634,51.7454,153.814,97.1361,89.23,0.00974551,0.139417,20.872,22.1795,0.759425,0.0,0.0
960,239.75,47.5787,51.974,146.606,97.1226,89.4896,0.00979535,0.139514,20.8718,22.1394,0.732198,0.0,0.0
966,241.25,47.4866,51.4899,149.06,97.1116,92.0593,0.00983905,0.139482,20.8717,22.0293,0.477923,0.0,0.0
972,242.75,47.7567,51.3777,148.678,97.1602,90.8324,0.00987994,0.139353,20.8717,22.0093,0.602427,0.0,0.0
978,244.25,47.5545,51.4448,150.42,97.2065,88.6157,0.00992881,0.139192,20.8719,21.8592,0.827701,0.0,0.0
984,245.75,47.098,51.087,147.219,97.2979,88.3789,0.00996935,0.139079,20.8722,21.7891,0.860045,0.0,0.0
990,247.25,47.2375,51.2896,151.405,97.3905,89.9825,0.0100036,0.138902,20.8723,21.7091,0.7077,0.0,0.0
996,248.75,47.2554,51.0667,148.333,97.5184,89.1716,0.0100412,0.138715,20.8724,21.629,0.800408,0.0,0.0
1002,250.25,47.4963,51.4695,145.959,97.6347,88.7297,0.0101159,0.138423,20.8722,21.5689,0.855518,0.0,0.0
1008,251.75,47.2289,50.9221,149.542,97.774,88.9499,0.01019,0.13847,20.8713,21.4188,0.846099,0.0,0.0
1014,253.25,47.006,51.0469,148.504,97.9038,90.4708,0.0102005,0.139137,20.8711,21.3487,0.706305,0.0,0.0
1020,254.75,47.1519,50.7168,146.83,98.0284,90.8235,0.0100941,0.13986,20.8711,21.2286,0.682881,0.0,0.0
1026,256.25,47.1834,51.4586,154.359,98.1384,91.5865,0.00998414,0.139961,20.8711,21.2186,0.618081,0.0,0.0
1032,257.75,47.4453,51.0005,151.835,98.2449,90.0517,0.00986361,0.1398,20.8711,21.0485,0.778957,0.0,0.0
1038,259.25,47.4126,50.8984,155.657,98.3232,90.9437,0.00980822,0.139468,20.8711,21.0585,0.697917,0.0,0.0
1044,260.75,47.0729,50.7973,150.322,98.3929,89.7581,0.00980186,0.138606,20.8717,20.9084,0.821636,0.0,0.0
1050,262.25,46.8706,50.7448,146.749,98.4388,90.1463,0.00983492,0.137686,20.8734,20.8683,0.787198,0.0,0.0
1056,263.75,46.9701,50.8824,149.686,98.4471,89.6086,0.00982565,0.136762,20.8744,20.7983,0.841475,0.0,0.0
1062,265.25,46.868,50.7334,143.33,98.4443,90.8819,0.00975544,0.13647,20.875,20.7382,0.715008,0.0,0.0
1068,266.75,47.0563,50.7719,148.414,98.4044,91.7372,0.00972724,0.136657,20.8756,20.6682,0.627584,0.0,0.0
1074,268.25,47.1449,50.7553,146.617,98.3632,91.0429,0.00978909,0.136714,20.8761,20.548,0.691792,0.0,0.0
1080,269.75,47.2938,50.5286,148.127,98.3078,91.7233,0.0099003,0.136333,20.8768,20.518,0.620159,0.0,0.0
1086,271.25,47.0345,50.3128,151.137,98.2469,91.692,0.0100336,0.135764,20.8778,20.3879,0.617664,0.0,0.0
1092,272.75,47.0194,50.9552,148.044,98.1808,91.2713,0.0101041,0.135537,20.8783,20.3178,0.652782,0.0,0.0
1098,274.25,46.7775,50.6991,149.488,98.121,91.9786,0.0100036,0.135537,20.8786,20.1977,0.578278,0.0,0.0
1104,275.75,47.1448,51.0538,147.92,98.07,92.1567,0.00982631,0.135478,20.8788,20.1877,0.55632,0.0,0.0
1110,277.25,46.9392,50.633,149.684,98.049,91.262,0.00962742,0.135297,20.8788,20.0676,0.641677,0.0,0.0
1116,278.75,46.707,50.7294,148.313,98.2674,91.3597,0.00954044,0.135138,20.8789,20.0276,0.652009,0.0,0.0
1122,280.25,46.91,50.9363,145.723,98.5444,91.4698,0.00955993,0.134969,20.8789,19.8875,0.666415,0.0,0.0
1128,281.75,47.0862,51.0427,149.032,98.7126,93.2067,0.00964127,0.135158,20.8789,19.8474,0.5134,0.0,0.0
1134,283.25,47.0193,50.6953,149.831,98.8397,92.1285,0.00966337,0.135446,20.8789,19.6973,0.628987,0.0,0.0
1140,284.75,47.1576,50.8466,148.059,98.882,93.5544,0.00959183,0.13557,20.8779,19.6973,0.495429,0.0,0.0
1146,286.25,46.6739,50.4261,148.994,98.8578,93.7657,0.00951678,0.135715,20.8773,19.5472,0.473063,0.0,0.0
1152,287.75,46.7622,50.4255,152.45,98.7443,93.3496,0.00958252,0.136717,20.8761,19.4871,0.502562,0.0,0.0
1158,289.25,46.8112,50.2557,148.655,98.5801,91.9875,0.00978121,0.137819,20.8745,19.377,0.619164,0.0,0.0
1164,290.75,46.4029,50.8885,147.487,98.3438,90.2236,0.0100546,0.139186,20.8715,19.317,0.7709,0.0,0.0
1170,292.25,47.0848,50.5922,148.61,98.3925,89.8759,0.010421,0.140605,20.8687,19.1969,0.809865,0.0,0.0
1176,293.75,46.5974,50.737,146.527,98.5009,83.3827,0.0108508,0.143377,20.8624,19.0968,1.49052,0.0,0.0
1182,295.25,47.0217,51.2619,151.237,98.6295,85.264,0.0113053,0.14651,20.8545,19.0067,1.3026,0.0,0.0
1188,296.75,47.2016,50.7885,148.551,98.7708,84.5594,0.0117403,0.148924,20.8502,18.8566,1.38964,0.0,0.0
1194,298.25,47.1403,50.7761,149.159,98.9152,85.6654,0.0121635,0.150311,20.8472,18.8265,1.28647,0.0,0.0
1200,299.75,47.4649,50.701,150.476,99.0209,84.0394,0.0126228,0.152,20.8439,18.6264,1.46744,0.0,0.0
1206,301.25,47.3895,50.9272,142.992,99.0897,84.2739,0.0130871,0.153876,20.8398,18.5563,1.44873,0.0,0.0
1212,302.75,47.7312,51.1662,147.134,99.1167,85.8733,0.0135503,0.155669,20.8362,18.4162,1.28299,0.0,0.0
1218,304.25,47.0239,50.928,147.15,99.0719,85.2173,0.013977,0.157156,20.8334,18.3561,1.34754,0.0,0.0
1224,305.75,47.8833,51.541,148.717,98.9845,84.2442,0.0142041,0.158512,20.8314,18.166,1.44238,0.0,0.0
1230,307.25,47.824,51.6028,149.825,98.8313,84.4655,0.0143559,0.160166,20.8294,18.1359,1.40506,0.0,0.0
1236,308.75,47.9658,51.4652,152.894,98.6355,82.2098,0.0144108,0.161709,20.8256,17.9558,1.62945,0.0,0.0
1242,310.25,47.808,51.9352,153.618,98.3862,81.1131,0.0144339,0.163527,20.8219,17.8957,1.72695,0.0,0.0
1248,311.75,47.8374,52.1284,152.488,98.15625,79.6114,0.0144592,0.165399,20.8185,17.7856,1.87318,0.0,0.0
1254,313.25,47.734,52.1006,144.996,97.8975,79.5257,0.014566,0.167035,20.8172,17.6655,1.8592,0.0,0.0
1260,314.75,48.049,52.0088,145.719,97.6834,80.0619,0.014689,0.168337,20.8159,17.5554,1.77951,0.0,0.0
1266,316.25,48.215,52.4474,143.851,97.478,78.0975,0.0148335,0.169363,20.8143,17.4253,1.9829,0.0,0.0
1272,317.75,48.0986,52.6929,149.387,97.2995,78.2443,0.0149963,0.170939,20.8105,17.3052,1.94971,0.0,0.0
1278,319.25,48.5704,52.9051,144.517,97.1705,76.4023,0.0151583,0.173333,20.8057,17.135,2.15095,0.0,0.0
1284,320.75,48.6464,52.7242,146.359,97.1492,76.609,0.0152632,0.176282,20.8003,17.095,2.12481,0.0,0.0
1290,322.25,48.6318,53.1434,149.31,97.1658,77.6103,0.015291,0.179146,20.7946,16.9349,2.01018,0.0,0.0
1296,323.75,49.3499,53.423,145.473,97.2714,76.3652,0.0153004,0.181446,20.791,16.9449,2.16457,0.0,0.0
1302,325.25,49.4355,53.5895,150.706,97.3751,78.0113,0.015307,0.182938,20.7897,16.7347,1.98333,0.0,0.0
1308,326.75,49.2272,53.7666,149.518,97.552,77.1877,0.0152818,0.183708,20.7902,16.6546,2.09451,0.0,0.0
1314,328.25,49.0402,53.271,146.874,97.7194,76.2509,0.0151965,0.183866,20.7905,16.5445,2.21908,0.0,0.0
1320,329.75,49.3004,53.7261,148.393,97.9188,77.7154,0.0150664,0.183713,20.7905,16.4545,2.06714,0.0,0.0
1326,331.25,49.2833,53.5621,149.698,98.0842,78.6035,0.0149754,0.183377,20.7906,16.3744,1.98059,0.0,0.0
1332,332.75,49.9599,54.0447,148.558,98.2579,77.1317,0.0149261,0.183026,20.7906,16.2042,2.16551,0.0,0.0
1338,334.25,49.7306,54.4294,145.253,98.3648,74.898,0.0149088,0.182838,20.7906,16.1442,2.43811,0.0,0.0
1344,335.75,49.4641,53.8974,147.657,98.4249,75.6888,0.0148586,0.182695,20.791,15.984,2.34962,0.0,0.0
1350,337.25,49.9237,54.4083,152.16,98.4697,78.4011,0.0147445,0.182537,20.7916,15.954,2.03874,0.0,0.0
1356,338.75,49.9965,54.6327,147.317,98.4198,76.128,0.0146633,0.182018,20.7922,15.7638,2.29739,0.0,0.0
1362,340.25,50.0417,54.6424,149.911,98.3434,76.0747,0.014605,0.181497,20.7932,15.7138,2.29671,0.0,0.0
1368,341.75,50.1688,54.5428,148.188,98.2512,76.8952,0.0145546,0.180902,20.7951,15.5737,2.19236,0.0,0.0
1374,343.25,50.3669,54.9697,145.697,98.1547,75.0162,0.0145343,0.180107,20.7962,15.5236,2.40487,0.0,0.0
1380,344.75,50.4158,54.3478,144.532,98.0542,75.2005,0.0146106,0.179323,20.797,15.3735,2.37376,0.0,0.0
1386,346.25,50.125,54.6754,148.278,98.0094,76.772,0.0147724,0.178697,20.7983,15.2734,2.18466,0.0,0.0
1392,347.75,50.1119,54.5149,145.6,98.1325,78.3949,0.0149863,0.178165,20.7984,15.1933,2.00876,0.0,0.0
1398,349.25,50.3383,55.0929,149.445,98.4795,76.9111,0.0151014,0.178057,20.798,15.0632,2.21128,0.0,0.0
1404,350.75,50.4745,55.214,152.598,98.7051,76.4649,0.0151281,0.178238,20.7973,14.9631,2.28379,0.0,0.0
1410,352.25,50.4558,55.219,147.042,98.8325,73.8553,0.0150917,0.178599,20.7956,14.813,2.60594,0.0,0.0
1416,353.75,50.5994,55.1751,147.541,98.8428,74.028,0.0149473,0.1794,20.7943,14.7429,2.58598,0.0,0.0
1422,355.25,50.442,54.9297,144.223,98.768,80.3918,0.0147612,0.180249,20.7937,14.6228,1.8415,0.0,0.0
1428,356.75,50.5573,55.3099,146.571,98.5575,79.076,0.0146112,0.180436,20.7936,14.5628,1.97004,0.0,0.0
1434,358.25,50.4899,54.7799,146.963,98.3193,79.4476,0.0146137,0.18006,20.7942,14.4627,1.90645,0.0,0.0
1440,359.75,50.6785,55.1464,144.983,98.4218,76.9493,0.0147587,0.179684,20.7944,14.3526,2.20158,0.0,0.0
1446,361.25,50.5735,55.1065,145.006,98.5714,76.2196,0.014981,0.179948,20.7941,14.3226,2.30041,0.0,0.0
1452,362.75,50.922,55.4099,146.277,98.7455,79.0088,0.0151656,0.180798,20.7913,14.1124,1.99469,0.0,0.0
1458,364.25,50.267,54.9114,151.418,98.9196,78.1813,0.0153516,0.182483,20.788,14.0523,2.10463,0.0,0.0
1464,365.75,50.6714,55.1084,146.539,99.0375,75.9484,0.0156427,0.184502,20.784,13.8522,2.37449,0.0,0.0
1470,367.25,50.4305,55.2856,149.062,99.1,73.0865,0.0159968,0.186344,20.7802,13.8221,2.72373,0.0,0.0
1476,368.75,50.8885,55.509,145.498,99.0937,70.3785,0.0165298,0.188211,20.7761,13.652,3.0609,0.0,0.0
1482,370.25,50.3296,54.9905,142.294,99.0157,69.7472,0.0171122,0.190212,20.7715,13.5819,3.13446,0.0,0.0
1488,371.75,51.041,55.4357,145.083,98.8559,71.1074,0.0175592,0.192868,20.7662,13.4718,2.94723,0.0,0.0
1494,373.25,51.0317,55.6578,144.874,98.6426,73.5814,0.0177758,0.196086,20.7602,13.3717,2.62197,0.0,0.0
1500,374.75,51.3086,55.0727,142.591,98.3794,74.6789,0.0177424,0.199763,20.7553,13.2717,2.46564,0.0,0.0
1506,376.25,51.207,56.055,145.431,98.068,76.1029,0.0175416,0.203265,20.7524,13.1616,2.26831,0.0,0.0
1512,377.75,51.5185,56.0195,145.72,97.7669,80.0279,0.0172723,0.205118,20.7521,13.0915,1.79095,0.0,0.0
1518,379.25,51.4516,56.2784,148.256,97.5061,77.5771,0.0169698,0.205279,20.7525,12.9113,2.04529,0.0,0.0
1524,380.75,51.8014,56.6154,143.86,97.3189,76.3532,0.0167096,0.204831,20.7539,12.8313,2.17034,0.0,0.0
1530,382.25,51.7045,56.4628,145.69,97.182,81.2019,0.0163831,0.204189,20.7558,12.6711,1.607,0.0,0.0
1536,383.75,51.7907,56.2867,148.355,97.1903,80.7928,0.0161015,0.203698,20.7579,12.6311,1.65295,0.0,0.0
1542,385.25,51.6316,56.259,145.267,97.2449,79.1691,0.0159884,0.203294,20.7597,12.521,1.83958,0.0,0.0
1548,386.75,51.8266,56.4314,141.053,97.4242,79.0656,0.0160591,0.20253,20.7612,12.4209,1.86776,0.0,0.0
1554,388.25,51.5995,56.7792,145.143,97.6022,78.1995,0.0161164,0.202069,20.7619,12.3408,1.98263,0.0,0.0
1560,389.75,51.6702,56.8188,151.677,97.8421,80.2578,0.016016,0.202239,20.7625,12.2207,1.77217,0.0,0.0
1566,391.25,51.9128,56.9164,144.671,98.0435,79.0984,0.015726,0.202163,20.763,12.1807,1.92073,0.0,0.0
1572,392.75,52.21,56.515,144.055,98.2477,77.5234,0.0155265,0.200029,20.7687,12.0005,2.11925,0.0,0.0
1578,394.25,52.031,56.7605,148.487,98.3862,79.487,0.0153633,0.195526,20.778,11.9905,1.9081,0.0,0.0
1584,395.75,51.981,56.9757,147.556,98.4705,81.6554,0.0152106,0.191269,20.7856,11.8704,1.675,0.0,0.0
1590,397.25,52.068,56.4779,146.647,98.4534,83.1022,0.0150046,0.18574,20.7937,11.7904,1.51635,0.0,0.0
1596,398.75,51.8683,56.6777,146.539,98.3854,80.935,0.014739,0.18041,20.8016,11.7103,1.74654,0.0,0.0
1602,400.25,51.7634,56.4023,150.657,98.2635,84.0661,0.0144849,0.17598,20.809,11.6702,1.39592,0.0,0.0
1608,401.75,51.7978,56.036,145.687,98.1452,80.0596,0.0143571,0.172104,20.8124,11.5802,1.82196,0.0,0.0
1614,403.25,51.6102,56.3349,147.03,98.0197,81.769,0.0142876,0.168542,20.8169,11.44,1.62152,0.0,0.0
1620,404.75,50.6922,56.0089,144.219,97.96,82.0116,0.0142184,0.165314,20.8211,11.44,1.58957,0.0,0.0
1626,406.25,52.0053,55.449,150.964,98.3185,81.1246,0.0140415,0.161455,20.8277,11.3199,1.71952,0.0,0.0
1632,407.75,51.3493,55.9052,150.274,98.6347,82.318,0.0138172,0.15816,20.8334,11.2799,1.61761,0.0,0.0
1638,409.25,51.031,55.5862,148.702,98.8052,81.1571,0.0136085,0.154836,20.8387,11.1698,1.76012,0.0,0.0
1644,410.75,51.1706,55.5265,153.839,98.8191,85.4039,0.0134679,0.151771,20.8432,11.0797,1.30512,0.0,0.0
1650,412.25,50.7891,55.4747,148.196,98.7217,85.6013,0.0134359,0.149061,20.8471,11.0397,1.27565,0.0,0.0
1656,413.75,51.0028,55.259,153.211,98.4127,83.1586,0.0134613,0.146621,20.8508,10.9596,1.50657,0.0,0.0
1662,415.25,50.6334,54.8979,146.347,98.3846,81.8911,0.0134455,0.14453,20.8541,10.9596,1.64141,0.0,0.0
1668,416.75,50.315,54.9016,150.577,98.5365,81.9722,0.013381,0.143043,20.8571,10.8295,1.64636,0.0,0.0
1674,418.25,50.5598,54.6491,150.616,98.7407,79.4426,0.0133282,0.141082,20.8601,10.8095,1.94527,0.0,0.0
1680,419.75,50.0464,54.5011,152.957,98.9105,80.0206,0.0132868,0.138743,20.8627,10.6894,1.8958,0.0,0.0
1686,421.25,50.3024,54.2449,149.884,99.0616,81.4959,0.0131811,0.136441,20.8653,10.7094,1.74604,0.0,0.0
1692,422.75,50.4538,54.3753,143.336,99.0945,77.6211,0.0130393,0.134611,20.8674,10.6093,2.18476,0.0,0.0
1698,424.25,50.1251,54.0268,153.04,99.0628,82.1696,0.0129062,0.132564,20.8698,10.5292,1.6725,0.0,0.0
1704,425.75,50.0238,54.0053,149.21,98.9069,80.0835,0.012852,0.130603,20.8727,10.5192,1.88844,0.0,0.0
1710,427.25,49.9595,53.8394,145.164,98.7023,81.0988,0.0128485,0.128628,20.8751,10.4292,1.75723,0.0,0.0
1716,428.75,49.5,53.3737,151.806,98.3838,79.562,0.0127927,0.126701,20.8792,10.4091,1.89945,0.0,0.0
1722,430.25,48.9552,53.8377,148.169,98.0613,79.907,0.0127111,0.125174,20.8821,10.3091,1.83137,0.0,0.0
1728,431.75,49.6501,53.6001,150.384,97.7214,81.5871,0.0125187,0.123647,20.8852,10.299,1.61418,0.0,0.0
1734,433.25,49.2394,53.2391,146.918,97.4586,79.6821,0.0123257,0.122777,20.8874,10.229,1.80143,0.0,0.0
1740,434.75,49.4623,53.2962,153.225,97.2449,80.34,0.0120963,0.121818,20.8902,10.1689,1.70824,0.0,0.0
1746,436.25,49.2168,52.8846,152.411,97.1959,80.5946,0.0118744,0.120254,20.8933,10.1589,1.67543,0.0,0.0
1752,437.75,48.9942,52.9753,152.089,97.2445,82.5563,0.0116494,0.118611,20.8954,10.0388,1.46478,0.0,0.0
1758,439.25,49.1111,52.8086,144.861,97.4048,82.102,0.0114447,0.117348,20.8974,9.99878,1.52887,0.0,0.0
1764,440.75,48.6802,52.4465,150.24,97.6216,82.4586,0.0112807,0.115931,20.899,9.88869,1.51,0.0,0.0
1770,442.25,48.735,52.2843,152.749,97.882,80.8063,0.0110887,0.114486,20.902,9.9087,1.71489,0.0,0.0
1776,443.75,48.6263,52.074,147.235,98.1337,83.9776,0.0108697,0.113196,20.9047,9.82863,1.39351,0.0,0.0
1782,445.25,48.3319,51.9959,151.249,98.3355,83.7748,0.010615,0.112419,20.9061,9.81862,1.43352,0.0,0.0
1788,446.75,48.4713,51.791,154.063,98.4439,83.6175,0.0104349,0.112068,20.9062,9.86867,1.46018,0.0,0.0
1794,448.25,48.1777,51.7622,148.894,98.4522,82.4868,0.0103152,0.112605,20.9026,9.71854,1.58273,0.0,0.0
1800,449.75,48.2339,51.8922,149.247,98.3929,78.0816,0.0102529,0.114823,20.8979,9.64847,2.06829,0.0,0.0
1806,451.25,48.2337,51.7266,149.505,98.2251,76.1864,0.0102137,0.118185,20.8924,9.52837,2.27283,0.0,0.0
1812,452.75,47.9118,51.4009,151.609,98.0925,73.1727,0.0101329,0.121968,20.8869,9.53838,2.62178,0.0,0.0
1818,454.25,47.9126,51.7651,149.986,97.9437,75.2047,0.0100174,0.125787,20.8808,9.40826,2.36317,0.0,0.0
1824,455.75,48.6221,51.6653,151.392,98.0795,75.0479,0.00990396,0.128945,20.8753,9.40826,2.39424,0.0,0.0
1830,457.25,48.1826,51.3699,152.78,98.4784,76.271,0.0098468,0.131076,20.8718,9.31818,2.28593,0.0,0.0
1836,458.75,48.3671,51.3473,149.592,98.7415,75.5474,0.00982598,0.132507,20.8693,9.28816,2.39507,0.0,0.0
1842,460.25,48.6501,52.0081,151.405,98.7811,77.5771,0.00978748,0.13365,20.868,9.24812,2.1615,0.0,0.0
1848,461.75,47.6665,51.5145,146.697,98.6968,75.938,0.00968432,0.134459,20.8673,9.16805,2.34489,0.0,0.0
1854,463.25,48.0945,51.4866,147.424,98.3909,75.1951,0.00949425,0.134849,20.8669,9.108,2.40507,0.0,0.0
1860,464.75,48.3335,51.3059,148.919,98.3818,74.9733,0.0092604,0.135006,20.8667,9.05796,2.43066,0.0,0.0
1866,466.25,48.2595,51.5006,145.176,98.5654,77.355,0.00903233,0.134849,20.8674,8.9979,2.1676,0.0,0.0
1872,467.75,47.3356,52.2753,152.269,98.7692,77.5226,0.00887618,0.134285,20.8695,8.95787,2.16671,0.0,0.0
1878,469.25,47.9051,51.432,148.239,98.941,77.53,0.00870333,0.133182,20.8713,8.86779,2.1814,0.0,0.0
1884,470.75,48.2213,51.7195,151.439,99.066,79.0401,0.00845144,0.132315,20.8727,8.79773,2.02014,0.0,0.0
1890,472.25,47.7234,51.1597,152.163,99.0921,78.1017,0.0082096,0.131916,20.874,8.74768,2.12933,0.0,0.0
1896,473.75,47.9102,51.4962,148.017,99.0446,80.026,0.0079523,0.131702,20.8748,8.68763,1.90732,0.0,0.0
1902,475.25,47.8753,51.2369,148.169,98.8784,78.2953,0.00775886,0.131056,20.8757,8.68763,2.08788,0.0,0.0
1908,476.75,47.2922,50.9569,152.465,98.6545,79.8274,0.00759439,0.130199,20.877,8.60756,1.89423,0.0,0.0
1914,478.25,48.1675,51.4738,148.81,98.3545,80.2813,0.00743481,0.129743,20.8788,8.55752,1.81627,0.0,0.0
1920,479.75,47.4857,51.0244,151.619,98.0478,80.9647,0.00728364,0.129646,20.8797,8.5375,1.71251,0.0,0.0
1926,481.25,47.9115,51.4355,147.22,97.751,80.0472,0.007125,0.129401,20.8802,8.48745,1.78734,0.0,0.0
1932,482.75,47.7694,51.2627,148.713,97.5085,79.1328,0.0069343,0.128862,20.8816,8.45743,1.86789,0.0,0.0
1938,484.25,47.2366,50.8655,147.872,97.3304,80.1847,0.00668386,0.127795,20.8834,8.36735,1.73341,0.0,0.0
1944,485.75,47.8635,51.4806,146.012,97.2386,79.0528,0.0064403,0.126558,20.8849,8.33732,1.85214,0.0,0.0
1950,487.25,47.7929,50.8135,153.447,97.2433,82.1635,0.00625201,0.125502,20.8862,8.29729,1.50734,0.0,0.0
1956,488.75,47.7315,50.7153,147.869,97.3205,83.2807,0.00613067,0.124687,20.8879,8.25725,1.39362,0.0,0.0
1962,490.25,47.9439,50.9923,151.775,97.4622,82.3771,0.00603554,0.123838,20.8895,8.21722,1.50422,0.0,0.0
1968,491.75,47.4416,50.884,151.199,97.6391,83.3912,0.00594635,0.123197,20.891,8.16717,1.41099,0.0,0.0
1974,493.25,47.7506,50.3754,153.54,97.8417,84.8963,0.005883,0.122547,20.8926,8.15716,1.26953,0.0,0.0
1980,494.75,47.1098,50.5825,150.761,98.0193,84.8418,0.00584994,0.121997,20.8941,8.10712,1.2915,0.0,0.0
1986,496.25,47.5077,50.4122,148.175,98.2073,84.4253,0.00579557,0.121423,20.8953,8.0871,1.35265,0.0,0.0
1992,497.75,47.0591,50.5229,151,98.324,85.0322,0.00567714,0.120533,20.896,8.05708,1.2992,0.0,0.0
1998,499.25,47.3547,50.456,149.474,98.4333,85.0473,0.0054832,0.119641,20.8977,7.98701,1.30755,0.0,0.0
2004,500.75,47.2847,50.0257,151.198,98.4724,85.3842,0.00532494,0.119193,20.8986,7.99702,1.27575,0.0,0.0
2010,502.25,46.8357,50.2736,149.507,98.4993,86.1827,0.00522329,0.119026,20.8991,7.92696,1.19492,0.0,0.0
2016,503.75,47.3675,50.3506,150.971,98.4487,87.1643,0.0051545,0.118843,20.8993,7.92696,1.08901,0.0,0.0
2022,505.25,46.4288,49.4765,146.059,98.4119,87.563,0.00510112,0.118686,20.8995,7.92696,1.04484,0.0,0.0
2028,506.75,46.7655,50.0158,147.111,98.3015,86.2928,0.00506652,0.118735,20.8996,7.90694,1.16551,0.0,0.0
2034,508.25,46.9411,49.8024,149.379,98.1602,85.8362,0.0050017,0.119135,20.8996,7.86691,1.20011,0.0,0.0
2040,509.75,46.6175,49.8696,155.792,98.1202,87.0874,0.00492218,0.119362,20.8996,7.80686,1.06701,0.0,0.0
2046,511.25,46.3204,48.9131,152.702,98.0716,88.2035,0.00473063,0.119383,20.8996,7.76682,0.948659,0.0,0.0
2052,512.75,46.6163,49.7206,152.16,98.0067,86.0908,0.00446695,0.11921,20.8996,7.7468,1.15962,0.0,0.0
2058,514.25,46.4256,49.6693,150.88,97.9687,87.6971,0.00423894,0.119172,20.8996,7.71678,0.990781,0.0,0.0
2064,515.75,45.737,49.0404,148.855,97.9315,88.214,0.00414755,0.119307,20.8996,7.69676,0.934814,0.0,0.0
2070,517.25,46.5358,49.6566,149.816,97.9315,87.366,0.00419268,0.119305,20.8996,7.68675,1.02122,0.0,0.0
2076,518.75,46.5876,49.3491,149.872,98.1479,88.7386,0.00425657,0.119258,20.8996,7.67674,0.901524,0.0,0.0
2082,520.25,46.4797,49.3878,147.616,98.326,88.9329,0.00426601,0.119387,20.8996,7.6267,0.898171,0.0,0.0
2088,521.75,46.0202,49.2042,150.664,98.4815,89.3706,0.00421249,0.119305,20.8996,7.58666,0.868391,0.0,0.0
2094,523.25,46.3932,49.0027,146.891,98.5955,88.8185,0.00407551,0.11911,20.8996,7.60668,0.934164,0.0,0.0
2100,524.75,46.1013,48.9627,149.603,98.6877,90.7949,0.00388376,0.119171,20.8996,7.58666,0.745656,0.0,0.0
2106,526.25,46.1837,49.1884,155.801,98.7348,90.3259,0.00365392,0.119313,20.9002,7.54663,0.796248,0.0,0.0
2112,527.75,45.9744,48.7533,153.006,98.7977,91.4544,0.00348142,0.119294,20.901,7.53662,0.690885,0.0,0.0
2118,529.25,45.9522,48.7681,145.928,98.7835,90.6184,0.00339022,0.119219,20.9014,7.5166,0.771741,0.0,0.0
2124,530.75,46.2119,48.6043,152.61,98.7775,91.5892,0.00336519,0.119294,20.9017,7.52661,0.67588,0.0,0.0
2130,532.25,45.9868,48.7509,151.556,98.7391,91.1585,0.00336332,0.119426,20.9018,7.49658,0.714572,0.0,0.0
2136,533.75,46.0807,48.818,151.812,98.6825,90.9081,0.00336688,0.119467,20.9025,7.44654,0.734044,0.0,0.0
2142,535.25,46.2028,48.9487,150.21,98.5848,91.6305,0.0033656,0.11922,20.9033,7.45655,0.654375,0.0,0.0
2148,536.75,45.6623,48.6963,147.401,98.5104,91.0905,0.0033412,0.118844,20.9037,7.45655,0.700502,0.0,0.0
2154,538.25,46.0465,48.5828,151.373,98.3719,93.1607,0.00327369,0.118423,20.905,7.42652,0.486886,0.0,0.0
2160,539.75,45.6469,48.53,146.605,98.3312,92.0141,0.00319026,0.117998,20.9057,7.41651,0.593958,0.0,0.0
2166,541.25,45.6173,48.465,154.799,98.3513,92.898,0.00314848,0.117658,20.906,7.41651,0.510274,0.0,0.0
2172,542.75,45.3304,47.9796,149.709,98.4052,93.5613,0.00314288,0.117571,20.9062,7.3965,0.451523,0.0,0.0
2178,544.25,45.4922,48.383,151.452,98.4681,92.9525,0.00315745,0.117788,20.9069,7.31643,0.515641,0.0,0.0
2184,545.75,45.6663,48.2121,153.332,98.5365,92.1772,0.00318911,0.118106,20.9068,7.31643,0.596786,0.0,0.0
2190,547.25,45.6536,48.3251,151.073,98.5785,92.2158,0.00320644,0.11833,20.9062,7.31643,0.596846,0.0,0.0
2196,548.75,45.349,47.9738,146.623,98.6537,92.2146,0.00319316,0.118627,20.9059,7.2864,0.603778,0.0,0.0
2202,550.25,45.4671,47.9185,149.66,98.7071,93.4624,0.00312471,0.119003,20.9057,7.25637,0.488389,0.0,0.0
2208,551.75,45.4911,48.0978,150.074,98.7763,93.3149,0.00303269,0.119077,20.9056,7.22635,0.508798,0.0,0.0
2214,553.25,45.3616,48.0663,152.384,98.823,93.1067,0.00295575,0.118565,20.9067,7.23636,0.533008,0.0,0.0
2220,554.75,45.5497,48.1298,154.187,98.8891,93.9114,0.00290726,0.117751,20.9083,7.23636,0.462007,0.0,0.0
2226,556.25,45.0764,48.0155,152.36,98.9433,94.0968,0.00288631,0.117054,20.9091,7.18631,0.449265,0.0,0.0
2232,557.75,45.2368,47.6161,146.388,98.9841,94.3869,0.00291823,0.116545,20.9095,7.18631,0.425411,0.0,0.0
2238,559.25,45.252,47.6757,150.242,99.0335,94.589,0.00297013,0.116108,20.9107,7.16629,0.410751,0.0,0.0
2244,560.75,45.1174,48.0371,149.565,99.0652,93.6309,0.00299206,0.115757,20.9114,7.16629,0.504678,0.0,0.0
2250,562.25,45.3125,47.7332,147.813,99.1016,94.3336,0.00297956,0.115178,20.9131,7.13627,0.44108,0.0,0.0
2256,563.75,45.2023,47.37,147.288,99.1056,95.564,0.0029407,0.114083,20.9156,7.15629,0.325514,0.0,0.0
2262,565.25,45.066,47.5833,150.343,99.1329,94.6948,0.00287062,0.113077,20.9173,7.11625,0.409715,0.0,0.0
2268,566.75,44.9749,47.5072,156.713,99.1277,96.4332,0.00282095,0.112264,20.9182,7.10624,0.24652,0.0,0.0
2274,568.25,45.0755,46.922,149.987,99.138,95.017,0.00282668,0.111352,20.9191,7.08622,0.379794,0.0,0.0
2280,569.75,45.06,47.3878,150.819,99.1194,96.1485,0.00284383,0.110652,20.9196,7.06621,0.272219,0.0,0.0
2286,571.25,44.6088,47.278,150.345,99.1297,96.3355,0.00280564,0.110091,20.9208,7.0562,0.255768,0.0,0.0
2292,572.75,44.7406,47.14,156.941,99.0941,96.6418,0.00274197,0.109528,20.9222,7.03618,0.224153,0.0,0.0
2298,574.25,44.4063,47.1839,150.676,99.0826,95.622,0.00272397,0.108911,20.9233,7.03618,0.31802,0.0,0.0
2304,575.75,44.6917,47.2126,150.23,99.0541,95.5791,0.00277436,0.108221,20.924,7.03618,0.319461,0.0,0.0
2310,577.25,44.3401,47.1682,149.671,99.0399,96.5456,0.00284791,0.107377,20.9245,6.98614,0.228166,0.0,0.0
2316,578.75,44.3979,46.878,154.407,98.9853,97.5072,0.00289188,0.106557,20.9263,6.98614,0.134583,0.0,0.0
2322,580.25,44.6344,46.6949,150.964,98.941,96.3405,0.00290276,0.105607,20.9277,6.98614,0.238253,0.0,0.0
2328,581.75,44.3933,47.0554,151.392,98.8974,96.7338,0.00293707,0.10451,20.9293,6.97613,0.197875,0.0,0.0
2334,583.25,43.7938,46.6719,153.764,98.8662,95.9635,0.00303244,0.103522,20.9314,6.96612,0.266566,0.0,0.0
2340,584.75,44.0741,46.4096,151.917,98.8294,96.3451,0.00318268,0.102702,20.9325,6.95611,0.227728,0.0,0.0
2346,586.25,43.7522,46.5208,148.513,98.7763,97.4759,0.0032875,0.101913,20.9345,6.90607,0.118551,0.0,0.0
2352,587.75,44.1452,46.3798,153.632,98.7166,96.813,0.00333365,0.100884,20.9363,6.92608,0.174183,0.0,0.0
2358,589.25,44.2809,46.4679,153.086,98.6889,95.7973,0.00335706,0.0998383,20.9379,6.92608,0.26601,0.0,0.0
2364,590.75,44.0135,46.3357,154.558,98.6367,96.4185,0.00338477,0.0989609,20.939,6.89606,0.203455,0.0,0.0
2370,592.25,44.0768,46.2671,152.773,98.6066,96.3649,0.00340887,0.0981791,20.9404,6.90607,0.205711,0.0,0.0
2376,593.75,43.8877,46.3316,151.981,98.5508,97.4736,0.00337547,0.0971079,20.9412,6.88605,0.0983143,0.0,0.0
2382,595.25,43.7151,46.235,154.776,98.5258,96.8647,0.00329096,0.0961537,20.9424,6.90607,0.152101,0.0,0.0
2388,596.75,43.4977,45.929,150.09,98.497,96.7199,0.00320685,0.0952431,20.9436,6.88605,0.162865,0.0,0.0
2394,598.25,43.5527,46.0017,152.647,98.4708,96.6001,0.00319614,0.0944769,20.9451,6.87604,0.171575,0.0,0.0
2400,599.75,43.4819,45.7576,148.96,98.4542,97.1491,0.00322629,0.0936322,20.9459,6.85602,0.119376,0.0,0.0
2406,601.25,43.1495,45.5415,150.686,98.4143,97.2534,0.00321601,0.092929,20.9475,6.85602,0.106144,0.0,0.0
2412,602.75,43.2556,45.6414,152.747,98.4004,96.7906,0.00318541,0.0920353,20.9493,6.85602,0.147556,0.0,0.0
2418,604.25,43.1685,45.7293,153.19,98.3628,96.5673,0.00319452,0.0910545,20.9509,6.85602,0.164798,0.0,0.0
2424,605.75,42.6493,44.2317,152.889,98.3537,96.9347,0.00328762,0.0899448,20.9524,6.836,0.130003,0.0,0.0
2430,607.25,42.8757,45.3823,151.925,98.3098,97.6988,0.00341351,0.0887342,20.954,6.836,0.0557674,0.0,0.0
2436,608.75,42.7842,45.0345,153.081,98.2813,97.681,0.00353399,0.0877584,20.9558,6.826,0.054802,0.0,0.0
2442,610.25,41.7811,44.5856,152.192,98.2572,96.9084,0.00358892,0.087034,20.9569,6.836,0.123641,0.0,0.0
2448,611.75,41.8491,44.3673,147.728,98.2445,96.6302,0.00354342,0.0862522,20.9575,6.87604,0.148201,0.0,0.0
2454,613.25,41.5171,43.7618,155.971,98.2275,97.3488,0.00345946,0.0857978,20.9578,6.84601,0.0803789,0.0,0.0
2460,614.75,42.4268,44.2928,153.131,98.2397,96.558,0.00337902,0.0858508,20.9577,6.81599,0.154458,0.0,0.0
2466,616.25,41.8367,44.0774,156.61,98.2219,98.5112,0.00338486,0.0862065,20.9576,6.80598,-0.0263081,0.0,0.0
2472,617.75,41.1821,43.5032,148.072,98.2346,96.8103,0.00339246,0.0867157,20.9573,6.80598,0.13065,0.0,0.0
2478,619.25,41.772,43.8318,156.149,98.2227,96.7983,0.00335619,0.086995,20.9564,6.78596,0.130675,0.0,0.0
2484,620.75,42.0914,43.6359,155.08,98.2445,97.8336,0.00327456,0.0869122,20.9566,6.78596,0.0374884,0.0,0.0
2490,622.25,41.905,44.1842,152.841,98.2101,96.3328,0.0031357,0.0866304,20.9581,6.73592,0.172645,0.0,0.0
2496,623.75,41.9896,44.291,153.564,98.2267,97.5223,0.0029533,0.086228,20.9589,6.73592,0.0643822,0.0,0.0
2502,625.25,41.7565,43.6443,152.405,98.2279,96.6836,0.00276581,0.0857493,20.9601,6.7159,0.141753,0.0,0.0
2508,626.75,42.2523,43.9227,153.91,98.233,96.4495,0.00260388,0.0852562,20.961,6.73592,0.163908,0.0,0.0
2514,628.25,41.912,43.8827,154.072,98.2338,97.8572,0.00247587,0.0848502,20.9615,6.73592,0.0343616,0.0,0.0
2520,629.75,41.5287,43.8961,152.577,98.2382,97.8441,0.00243138,0.0845417,20.9618,6.72591,0.0359591,0.0,0.0
2526,631.25,41.7048,43.2898,154.454,98.2548,97.1777,0.00245302,0.0841228,20.9619,6.74592,0.0986043,0.0,0.0
2532,632.75,41.4732,43.5929,155.217,98.2611,97.1321,0.0025031,0.0838012,20.9626,6.72591,0.103379,0.0,0.0
2538,634.25,41.5879,43.3527,156.003,98.2789,96.1736,0.00254129,0.0836552,20.9634,6.7159,0.193707,0.0,0.0
2544,635.75,41.3016,43.1263,150.438,98.2983,97.2565,0.00255442,0.0834616,20.9638,6.69588,0.0953152,0.0,0.0
2550,637.25,41.4718,43.5915,153.302,98.3181,96.9787,0.00250155,0.0831841,20.9646,6.70589,0.122701,0.0,0.0
2556,638.75,42.0951,42.9834,153.011,98.3462,97.6103,0.00243917,0.083021,20.9651,6.67586,0.0671831,0.0,0.0
2562,640.25,41.6133,43.5325,150.815,98.3822,96.7122,0.00236283,0.0829464,20.9654,6.69588,0.153152,0.0,0.0
2568,641.75,41.5419,43.0351,156.152,98.3957,97.6667,0.00227512,0.082646,20.9658,6.65585,0.0665142,0.0,0.0
2574,643.25,41.1274,43.4586,152.271,98.4301,97.9596,0.00220437,0.0822634,20.9672,6.69588,0.0428632,0.0,0.0
2580,644.75,41.2136,42.7213,159.27,98.4613,98.2624,0.00211428,0.0820572,20.9679,6.66585,0.0180886,0.0,0.0
2586,646.25,40.8285,42.9746,154.243,98.5021,98.0573,0.00200575,0.081885,20.9683,6.67586,0.0404857,0.0,0.0
2592,647.75,41.4656,43.6507,151.505,98.51,97.455,0.00193075,0.0817556,20.9685,6.65585,0.0963154,0.0,0.0
2598,649.25,40.9903,42.9758,150.476,98.5674,98.4054,0.00189534,0.0818226,20.9686,6.67586,0.0147155,0.0,0.0
2604,650.75,40.5903,43.3427,152.34,98.5765,98.5213,0.00187562,0.0818562,20.9687,6.65585,0.00501265,0.0,0.0
2610,652.25,40.7858,42.3193,154.778,98.6268,97.2553,0.00185032,0.0818522,20.9687,6.66585,0.125262,0.0,0.0
2616,653.75,41.09,42.7961,155.762,98.662,97.5539,0.00184161,0.0817818,20.9681,6.66585,0.101031,0.0,0.0
2622,655.25,40.6227,41.9826,150.826,98.7205,98.1218,0.00191362,0.0817807,20.9676,6.67586,0.0544172,0.0,0.0
2628,656.75,41.0498,42.7828,149.771,98.732,97.6814,0.00199249,0.0816553,20.9674,6.68587,0.0956961,0.0,0.0
2634,658.25,41.0633,42.9417,152.847,98.7941,98.5985,0.00206671,0.0816373,20.9672,6.67586,0.0177289,0.0,0.0
2640,659.75,40.9611,43.1723,153.49,98.8171,98.5502,0.00210463,0.0817164,20.9655,6.64584,0.0241887,0.0,0.0
2646,661.25,40.9882,43.0315,152.576,98.8535,98.626,0.00207111,0.08182,20.9644,6.66585,0.0206136,0.0,0.0
2652,662.75,40.6839,42.661,154.933,98.8895,98.697,0.00198943,0.0818891,20.9638,6.65585,0.0174267,0.0,0.0
2658,664.25,41.0415,43.1516,152.212,98.9279,98.8334,0.00188851,0.0819588,20.9638,6.64584,0.00854711,0.0,0.0
2664,665.75,40.8351,42.7287,154.751,98.9592,98.2972,0.0018019,0.0820418,20.9639,6.65585,0.0600372,0.0,0.0
2670,667.25,40.9152,42.6766,152.265,98.9936,98.0024,0.00177134,0.0820677,20.9639,6.65585,0.090013,0.0,0.0
2676,668.75,40.7508,42.8674,150.41,99.0347,99.219,0.00174676,0.0820635,20.9639,6.65585,-0.0166246,0.0,0.0
2682,670.25,40.5681,42.6909,154.179,99.0557,98.3606,0.00172605,0.0820526,20.9631,6.63583,0.0629972,0.0,0.0
2688,671.75,40.1699,42.6173,148.406,99.0981,98.3884,0.00169453,0.0820849,20.9624,6.65585,0.0642911,0.0,0.0
2694,673.25,40.5296,42.6435,150.429,99.0984,99.0061,0.00166038,0.0820268,20.9621,6.65585,0.00833937,0.0,0.0
2700,674.75,40.7238,42.3562,155.399,99.121,98.1655,0.00167128,0.0820474,20.9619,6.64584,0.086651,0.0,0.0
2706,676.25,40.4469,42.7126,154.275,99.1467,98.9957,0.00173145,0.0821969,20.9628,6.64584,0.0136391,0.0,0.0
2712,677.75,40.014,41.9897,156.489,99.1562,99.2263,0.00180569,0.0821958,20.9634,6.63583,-0.00632046,0.0,0.0
2718,679.25,39.8159,42.3252,152.703,99.155,97.8336,0.00184635,0.0820527,20.9636,6.61581,0.120014,0.0,0.0
2724,680.75,40.7508,42.45,156.155,99.1641,98.8512,0.00183548,0.0820475,20.9638,6.6058,0.0282748,0.0,0.0
2730,682.25,40.0897,41.5907,150.281,99.1542,98.3374,0.00174092,0.0820432,20.9647,6.6058,0.0739986,0.0,0.0
2736,683.75,39.7454,41.1584,155.354,99.1515,99.0447,0.00159585,0.0820156,20.9653,6.59579,0.00963584,0.0,0.0
2742,685.25,40.1592,42.3406,153.361,99.1451,99.5794,0.00143342,0.0819812,20.9653,6.59579,-0.0390946,0.0,0.0
2748,686.75,40.2877,42.2387,154.925,99.1265,99.3627,0.00134855,0.0820972,20.9652,6.59579,-0.0212833,0.0,0.0
2754,688.25,40.289,42.0453,156.213,99.0949,99.1996,0.00140658,0.082274,20.9652,6.58578,-0.00945141,0.0,0.0
2760,689.75,40.5591,41.9167,158.108,99.0707,99.1606,0.00153268,0.0824212,20.9652,6.57578,-0.0081118,0.0,0.0
2766,691.25,39.1072,41.5451,154.772,99.0355,99.0752,0.00170019,0.0825015,20.9652,6.58578,-0.00358691,0.0,0.0
2772,692.75,39.7016,42.0519,148.72,99.0157,99.4195,0.00179849,0.0824826,20.9652,6.57578,-0.0363987,0.0,0.0
2778,694.25,40.3449,42.0862,156.156,98.9584,99.3696,0.00180727,0.0825408,20.9647,6.58578,-0.0370984,0.0,0.0
2784,695.75,40.0442,41.7964,154.446,98.9504,98.9663,0.00174038,0.0826297,20.9639,6.57578,-0.00143385,0.0,0.0
2790,697.25,40.2804,41.946,154.466,98.8622,98.8713,0.0015868,0.0826751,20.9638,6.57578,-0.000820607,0.0,0.0
2796,698.75,40.2269,41.8673,152.991,98.8432,97.9124,0.0014585,0.0825968,20.9644,6.56577,0.0846337,0.0,0.0
2802,700.25,39.9042,41.7042,151.69,98.785,98.8995,0.00140855,0.0827012,20.9651,6.56577,-0.0103562,0.0,0.0
2808,701.75,39.9175,41.979,154.778,98.7478,98.7361,0.00143344,0.0829019,20.9655,6.54575,0.00106737,0.0,0.0
2814,703.25,40.0619,41.7725,154.844,98.6936,97.7934,0.00146413,0.0829442,20.9657,6.56577,0.081965,0.0,0.0
2820,704.75,39.4965,41.4339,149.536,98.6442,98.8122,0.00140776,0.0828818,20.9655,6.56577,-0.0152225,0.0,0.0
2826,706.25,40.1035,41.8526,154.907,98.6078,97.8707,0.00126925,0.0828351,20.965,6.54575,0.0671132,0.0,0.0
2832,707.75,39.5052,41.8544,152.905,98.5528,98.534,0.00115813,0.0826985,20.9647,6.54575,0.00170069,0.0,0.0
2838,709.25,39.9725,41.3294,154.154,98.516,98.7913,0.00116631,0.0826517,20.9645,6.53574,-0.0249675,0.0,0.0
2844,710.75,39.58,42.143,153.924,98.4606,98.9215,0.00121905,0.0827641,20.9645,6.52573,-0.0417796,0.0,0.0
2850,712.25,40.1527,41.9656,158.107,98.4305,99.4198,0.00126785,0.0828828,20.9636,6.52573,-0.0894641,0.0,0.0
2856,713.75,39.6877,41.4375,156.293,98.3846,98.3702,0.00126161,0.0831452,20.9629,6.51572,0.00130514,0.0,0.0
2862,715.25,40.0251,41.6807,148.467,98.3668,98.7187,0.00120141,0.0832723,20.9625,6.51572,-0.0319456,0.0,0.0
2868,716.75,39.0844,41.3618,158.28,98.3367,98.5989,0.00114226,0.0831671,20.9623,6.52573,-0.0238223,0.0,0.0
2874,718.25,39.5593,41.7165,151.245,98.4,97.9082,0.00116759,0.0830903,20.9622,6.52573,0.0448221,0.0,0.0
2880,719.75,38.759,41.4012,150.039,98.476,98.8593,,0.0834213,,6.52573,-0.0347515,0.0,0.0
2886,721.25,39.363,41.8491,154.85,98.5532,98.5684,,0.0836076,,6.52573,-0.00138425,0.0,0.0
2892,722.75,39.5727,41.9573,152.189,98.5963,99.4237,,,,6.50571,-0.0747562,0.0,0.0
2898,724.25,39.6498,41.4517,155.77,98.6849,98.6507,,,,6.50571,0.00310472,0.0,0.0
2904,725.75,39.6003,41.4632,152.857,98.7106,98.7612,,,,6.4857,-0.00457802,0.0,0.0
2910,727.25,39.166,41.0048,153.456,98.7676,98.9709,,,,6.4857,-0.0183951,0.0,0.0
2916,728.75,39.7504,41.723,156.323,98.774,98.7786,,,,6.4957,-0.000415893,0.0,0.0
2919,729.5,39.8182,41.6108,154.395,98.8088,98.9026,,,,6.50571,-0.00848591,0.0,0.0