File: 01_Data/Feather_Pillow_Feathers/STA/N2/10K_min/Feather_Pillow_Feathers_STA_N2_10KData_2236_R3.csv
##Temp./Â°C,Time/min,Mass loss(subtr.2)/mg,DSC(subtr.2)/(mW/mg),Sensit./(uV/mW)
49.619,10.01,-0.00999,0.03030239,1.0702
50.219,10.7312,-0.008947175,0.05918321,1.07004
50.819,10.92259,-0.00880374,0.0849142,1.06987
51.419,11.06369,-0.007589772,0.1074,1.06971
52.019,11.18142,-0.006116076,0.12481,1.06954
52.619,11.2865,-0.0058403,0.13881,1.06937
53.219,11.38305,-0.00610685,0.15415,1.06921
53.819,11.4727,-0.00689346,0.1672,1.06904
54.419,11.5573,-0.00764469,0.17799,1.06887
55.019,11.63856,-0.007799701,0.18692,1.0687
55.619,11.71774,-0.008550666,0.19796,1.06854
56.219,11.79526,-0.00915763,0.20618,1.06837
56.819,11.87021,-0.009445637,0.2145,1.0682
57.419,11.94341,-0.008775275,0.2231,1.06803
58.019,12.0155,-0.008049425,0.22761,1.06786
58.619,12.08589,-0.008575479,0.23475,1.06769
59.219,12.15573,-0.008540471,0.24072,1.06752
59.819,12.22456,-0.00961551,0.24684,1.06735
60.419,12.29289,-0.009760558,0.2526,1.06718
61.019,12.36081,-0.01085739,0.25776,1.06701
61.619,12.42805,-0.009566277,0.26459,1.06684
62.219,12.49514,-0.01089287,0.26849,1.06666
62.819,12.56161,-0.01088812,0.2738,1.06649
63.419,12.6279,-0.0095593,0.27855,1.06632
64.019,12.69398,-0.009452983,0.2836,1.06614
64.619,12.75957,-0.00954998,0.2894,1.06597
65.219,12.82488,-0.008413255,0.29226,1.0658
65.819,12.88982,-0.01085965,0.29832,1.06562
66.419,12.95463,-0.01129442,0.30213,1.06545
67.019,13.01944,-0.01218,0.30624,1.06527
67.619,13.08412,-0.01216038,0.31151,1.0651
68.219,13.14848,-0.01217716,0.31612,1.06492
68.819,13.2127,-0.01361922,0.31918,1.06474
69.419,13.27697,-0.01482006,0.32453,1.06457
70.019,13.34095,-0.01352259,0.32869,1.06439
70.619,13.40492,-0.01491011,0.3325,1.06421
71.219,13.46858,-0.01434431,0.33898,1.06404
71.819,13.5324,-0.01481987,0.34237,1.06386
72.419,13.59571,-0.01592433,0.34618,1.06368
73.019,13.65887,-0.01614006,0.35043,1.0635
73.619,13.722,-0.01743914,0.35532,1.06332
74.219,13.785,-0.01745999,0.3589,1.06314
74.819,13.84813,-0.01746011,0.36382,1.06296
75.419,13.9108,-0.01875911,0.36714,1.06278
76.019,13.9734,-0.01876999,0.36953,1.0626
76.619,14.0362,-0.01876296,0.37507,1.06242
77.219,14.0986,-0.02009647,0.37806,1.06224
77.819,14.161,-0.02106498,0.38386,1.06205
78.419,14.22318,-0.02237725,0.38544,1.06187
79.019,14.28498,-0.02275487,0.39048,1.06169
79.619,14.3468,-0.02405029,0.39496,1.06151
80.219,14.40865,-0.02405032,0.39836,1.06132
80.819,14.4704,-0.02272821,0.40003,1.06114
81.419,14.532,-0.02532793,0.40402,1.06095
82.019,14.59332,-0.02535523,0.40525,1.06077
82.619,14.65506,-0.0266781,0.40867,1.06058
83.219,14.7164,-0.02783172,0.41062,1.0604
83.819,14.7778,-0.02799997,0.4133,1.06021
84.419,14.8388,-0.0279997,0.41432,1.06003
85.019,14.8997,-0.02931096,0.41757,1.05984
85.619,14.96049,-0.03062973,0.41976,1.05965
86.219,15.02099,-0.03062995,0.42107,1.05947
86.819,15.08143,-0.03139786,0.42303,1.05928
87.419,15.1418,-0.03193994,0.42516,1.05909
88.019,15.202,-0.03194,0.42518,1.0589
88.619,15.262,-0.03193776,0.4257,1.05871
89.219,15.3223,-0.03461747,0.42619,1.05852
89.819,15.38238,-0.03325677,0.42557,1.05834
90.419,15.44263,-0.03326738,0.42728,1.05815
91.019,15.5023,-0.03458327,0.42535,1.05796
91.619,15.5619,-0.03457957,0.42745,1.05776
92.219,15.6217,-0.03555778,0.4272,1.05757
92.819,15.6815,-0.03592366,0.42605,1.05738
93.419,15.7409,-0.03728443,0.42489,1.05719
94.019,15.80049,-0.03853999,0.42384,1.057
94.619,15.85939,-0.0391466,0.42293,1.05681
95.219,15.9187,-0.04116949,0.42221,1.05661
95.819,15.9779,-0.04150828,0.41901,1.05642
96.419,16.03749,-0.04249359,0.4196,1.05622
97.019,16.09682,-0.04284208,0.4159,1.05603
97.619,16.1564,-0.04421041,0.4134,1.05584
98.219,16.21558,-0.04414004,0.41122,1.05564
98.819,16.27471,-0.04420308,0.41032,1.05545
99.419,16.33385,-0.04644404,0.40787,1.05525
100.019,16.39284,-0.04840683,0.40593,1.05505
100.619,16.45203,-0.04829223,0.40378,1.05486
101.219,16.51114,-0.04709221,0.40106,1.05466
101.819,16.5699,-0.04578404,0.3984,1.05446
102.419,16.6287,-0.0448013,0.39727,1.05427
103.019,16.68721,-0.04611331,0.39416,1.05407
103.619,16.74579,-0.0473728,0.39117,1.05387
104.219,16.80453,-0.04844264,0.38825,1.05367
104.819,16.86338,-0.04942611,0.38417,1.05347
105.419,16.9221,-0.04931328,0.38443,1.05327
106.019,16.98082,-0.04929001,0.37984,1.05307
106.619,17.0394,-0.04929,0.37705,1.05287
107.219,17.09804,-0.04928445,0.37539,1.05267
107.819,17.15675,-0.04862883,0.37117,1.05247
108.419,17.21542,-0.04914003,0.36817,1.05227
109.019,17.27405,-0.04997069,0.36613,1.05207
109.619,17.33257,-0.05064789,0.36315,1.05186
110.219,17.39115,-0.05038914,0.3602,1.05166
110.819,17.4497,-0.0490906,0.35764,1.05146
111.419,17.5078,-0.04906569,0.35508,1.05126
112.019,17.5663,-0.05078165,0.35278,1.05105
112.619,17.62485,-0.05176221,0.3496,1.05085
113.219,17.68336,-0.05068891,0.34778,1.05064
113.819,17.74205,-0.05225084,0.34405,1.05044
114.419,17.80041,-0.0535917,0.34213,1.05023
115.019,17.85887,-0.05356943,0.34102,1.05003
115.619,17.91701,-0.05222878,0.33917,1.04982
116.219,17.9754,-0.0522595,0.33653,1.04961
116.819,18.03378,-0.05347129,0.33448,1.04941
117.419,18.0921,-0.05356999,0.33065,1.0492
118.019,18.15045,-0.05357,0.32951,1.04899
118.619,18.20893,-0.05206484,0.32673,1.04878
119.219,18.26734,-0.0530636,0.32554,1.04858
119.819,18.32565,-0.05333932,0.32428,1.04837
120.419,18.38409,-0.05609369,0.32136,1.04816
121.019,18.44258,-0.05598343,0.31928,1.04795
121.619,18.5007,-0.05455832,0.31773,1.04774
122.219,18.55874,-0.0545602,0.3168,1.04753
122.819,18.61673,-0.05378294,0.31541,1.04732
123.419,18.67469,-0.05456033,0.31384,1.04711
124.019,18.7328,-0.05456001,0.31107,1.04689
124.619,18.79091,-0.05456859,0.30937,1.04668
125.219,18.84895,-0.05323929,0.30932,1.04647
125.819,18.90707,-0.05323351,0.30799,1.04626
126.419,18.9653,-0.05456185,0.30773,1.04604
127.019,19.02308,-0.05325343,0.30728,1.04583
127.619,19.08118,-0.05367816,0.30333,1.04562
128.219,19.13926,-0.05456077,0.30288,1.0454
128.819,19.19734,-0.05588197,0.30226,1.04519
129.419,19.25585,-0.05456421,0.30208,1.04497
130.019,19.31374,-0.05527929,0.30196,1.04476
130.619,19.37136,-0.0545655,0.30137,1.04454
131.219,19.42909,-0.05455819,0.29901,1.04433
131.819,19.48685,-0.05324967,0.30362,1.04411
132.419,19.5446,-0.05325,0.30035,1.04389
133.019,19.60264,-0.05324988,0.30124,1.04367
133.619,19.66058,-0.05170221,0.3006,1.04346
134.219,19.71836,-0.05502745,0.30007,1.04324
134.819,19.7762,-0.0564199,0.30027,1.04302
135.419,19.83405,-0.05641294,0.29784,1.0428
136.019,19.89187,-0.05642364,0.29873,1.04258
136.619,19.9499,-0.05357625,0.29817,1.04236
137.219,20.00785,-0.05454216,0.29829,1.04214
137.819,20.06554,-0.05576443,0.29859,1.04192
138.419,20.12314,-0.05598993,0.29835,1.0417
139.019,20.1805,-0.05599,0.29837,1.04148
139.619,20.23845,-0.05598997,0.29776,1.04126
140.219,20.29616,-0.05570264,0.29725,1.04103
140.819,20.35378,-0.05370726,0.2976,1.04081
141.419,20.4117,-0.05336,0.29674,1.04059
142.019,20.46937,-0.05468711,0.29765,1.04036
142.619,20.5272,-0.05336905,0.29822,1.04014
143.219,20.58445,-0.05533846,0.29997,1.03992
143.819,20.6422,-0.05533731,0.29916,1.03969
144.419,20.69966,-0.05291367,0.30117,1.03947
145.019,20.75737,-0.05291861,0.29971,1.03924
145.619,20.81557,-0.05282646,0.29765,1.03901
146.219,20.8733,-0.05424704,0.30074,1.03879
146.819,20.9309,-0.05424004,0.30003,1.03856
147.419,20.9884,-0.05371965,0.30097,1.03833
148.019,21.0459,-0.05423282,0.29963,1.03811
148.619,21.10333,-0.05423,0.30071,1.03788
149.219,21.16106,-0.05423135,0.30273,1.03765
149.819,21.2186,-0.0529082,0.30157,1.03742
150.419,21.2762,-0.05291,0.30148,1.03719
151.019,21.33376,-0.05292051,0.30103,1.03696
151.619,21.391,-0.05424043,0.30213,1.03673
152.219,21.4484,-0.05379027,0.30329,1.0365
152.819,21.50574,-0.0537764,0.30387,1.03627
153.419,21.56333,-0.05247639,0.30495,1.03604
154.019,21.62104,-0.0524818,0.30498,1.03581
154.619,21.67843,-0.05281078,0.30487,1.03558
155.219,21.73556,-0.05281098,0.30546,1.03535
155.819,21.793,-0.0541805,0.30636,1.03511
156.419,21.85043,-0.0551545,0.30775,1.03488
157.019,21.90845,-0.05491865,0.30796,1.03465
157.619,21.96605,-0.05412978,0.30642,1.03441
158.219,22.02328,-0.05413,0.30956,1.03418
158.819,22.08065,-0.05413082,0.30872,1.03395
159.419,22.13794,-0.05396402,0.3124,1.03371
160.019,22.19524,-0.05411941,0.31101,1.03347
160.619,22.25255,-0.05541603,0.31364,1.03324
161.219,22.30979,-0.05543832,0.3152,1.033
161.819,22.36704,-0.05411765,0.31377,1.03277
162.419,22.42456,-0.05370828,0.31517,1.03253
163.019,22.48189,-0.05279997,0.31571,1.03229
163.619,22.53923,-0.05279928,0.31605,1.03205
164.219,22.59664,-0.05148567,0.31675,1.03182
164.819,22.65407,-0.05150828,0.31806,1.03158
165.419,22.7115,-0.05221699,0.31776,1.03134
166.019,22.7687,-0.05280009,0.31889,1.0311
166.619,22.8259,-0.05279898,0.31955,1.03086
167.219,22.88324,-0.05144037,0.32073,1.03062
167.819,22.9404,-0.05078427,0.31873,1.03038
168.419,22.99791,-0.05119019,0.32172,1.03014
169.019,23.05526,-0.05288648,0.32059,1.02989
169.619,23.11241,-0.05522357,0.3212,1.02965
170.219,23.1697,-0.05522,0.32231,1.02941
170.819,23.22707,-0.05522,0.32195,1.02917
171.419,23.28429,-0.05522001,0.32377,1.02892
172.019,23.34157,-0.05523331,0.3238,1.02868
172.619,23.3989,-0.05368887,0.32581,1.02844
173.219,23.4564,-0.05369,0.3255,1.02819
173.819,23.51384,-0.05368861,0.32554,1.02795
174.419,23.5711,-0.05236627,0.32739,1.0277
175.019,23.62823,-0.05383781,0.3267,1.02746
175.619,23.68516,-0.05450469,0.3278,1.02721
176.219,23.74235,-0.05564087,0.33008,1.02696
176.819,23.79975,-0.05510886,0.32936,1.02672
177.419,23.8573,-0.05599706,0.33091,1.02647
178.019,23.91465,-0.05380154,0.33137,1.02622
178.619,23.97198,-0.05379856,0.33081,1.02597
179.219,24.02925,-0.05512683,0.33273,1.02573
179.819,24.08676,-0.05373893,0.33285,1.02548
180.419,24.14395,-0.05509037,0.33427,1.02523
181.019,24.20081,-0.05389779,0.33631,1.02498
181.619,24.2575,-0.05387642,0.33522,1.02473
182.219,24.31437,-0.05456011,0.33568,1.02448
182.819,24.3719,-0.05488233,0.33702,1.02423
183.419,24.4293,-0.0554914,0.33724,1.02397
184.019,24.48708,-0.05621111,0.33871,1.02372
184.619,24.54414,-0.05758169,0.33989,1.02347
185.219,24.60131,-0.05644275,0.34177,1.02322
185.819,24.6585,-0.05752132,0.34175,1.02296
186.419,24.7155,-0.05704315,0.34356,1.02271
187.019,24.77273,-0.05742363,0.3464,1.02246
187.619,24.82943,-0.05609928,0.34622,1.0222
188.219,24.88671,-0.05610001,0.34845,1.02195
188.819,24.94361,-0.05613461,0.34854,1.02169
189.419,25.0004,-0.05742011,0.35015,1.02144
190.019,25.05733,-0.05741652,0.35107,1.02118
190.619,25.11373,-0.05872598,0.35422,1.02093
191.219,25.17053,-0.05874,0.35392,1.02067
191.819,25.22755,-0.05874,0.35539,1.02041
192.419,25.28481,-0.05874665,0.3573,1.02015
193.019,25.34178,-0.05661381,0.35791,1.0199
193.619,25.3992,-0.05607871,0.36079,1.01964
194.219,25.45705,-0.05811484,0.36241,1.01938
194.819,25.51468,-0.05856497,0.36581,1.01912
195.419,25.57273,-0.05746255,0.36534,1.01886
196.019,25.63015,-0.05731,0.36588,1.0186
196.619,25.68721,-0.05731007,0.36872,1.01834
197.219,25.7443,-0.05755892,0.3712,1.01808
197.819,25.80145,-0.06016059,0.37302,1.01782
198.419,25.8586,-0.06012622,0.37372,1.01756
199.019,25.9159,-0.06146918,0.37761,1.01729
199.619,25.97325,-0.06212837,0.3779,1.01703
200.219,26.03042,-0.06137664,0.38426,1.01677
200.819,26.08749,-0.06136998,0.38537,1.0165
201.419,26.14455,-0.06136403,0.38663,1.01624
202.019,26.2015,-0.06278671,0.3901,1.01598
202.619,26.2584,-0.06279959,0.39268,1.01571
203.219,26.3153,-0.06411339,0.39633,1.01545
203.819,26.3723,-0.06420122,0.39875,1.01518
204.419,26.4296,-0.06555031,0.40157,1.01491
205.019,26.48671,-0.0642225,0.40431,1.01465
205.619,26.5442,-0.06559574,0.40839,1.01438
206.219,26.60132,-0.06291756,0.41276,1.01411
206.819,26.65858,-0.06388977,0.4157,1.01385
207.419,26.71568,-0.06439487,0.42146,1.01358
208.019,26.7728,-0.06553624,0.4247,1.01331
208.619,26.82987,-0.06751451,0.43096,1.01304
209.219,26.88679,-0.06751494,0.43703,1.01277
209.819,26.9438,-0.06818175,0.44249,1.0125
210.419,27.00096,-0.06916667,0.44783,1.01223
211.019,27.058,-0.07048267,0.45334,1.01196
211.619,27.1151,-0.07048,0.45963,1.01169
212.219,27.1723,-0.07048589,0.46514,1.01142
212.819,27.22911,-0.07188834,0.47253,1.01115
213.419,27.28598,-0.07355867,0.48282,1.01088
214.019,27.3431,-0.07355969,0.4884,1.0106
214.619,27.40004,-0.07455339,0.4991,1.01033
215.219,27.45723,-0.07616861,0.50679,1.01006
215.819,27.51424,-0.07746014,0.51725,1.00978
216.419,27.57122,-0.07903925,0.52792,1.00951
217.019,27.62835,-0.08022685,0.53855,1.00923
217.619,27.6854,-0.080691,0.55058,1.00896
218.219,27.7424,-0.08068995,0.56259,1.00868
218.819,27.79963,-0.08070305,0.57523,1.00841
219.419,27.8568,-0.08319277,0.58927,1.00813
220.019,27.91396,-0.08322797,0.60408,1.00785
220.619,27.97125,-0.08597414,0.61858,1.00758
221.219,28.02853,-0.08749095,0.63775,1.0073
221.819,28.0858,-0.09013411,0.6536,1.00702
222.419,28.14306,-0.09358801,0.67197,1.00674
223.019,28.20038,-0.09585979,0.69052,1.00646
223.619,28.25746,-0.09619398,0.70924,1.00618
224.219,28.31451,-0.09702087,0.72692,1.0059
224.819,28.37143,-0.10027,0.75015,1.00562
225.419,28.42812,-0.10175,0.76961,1.00534
226.019,28.48531,-0.10267,0.78722,1.00506
226.619,28.54246,-0.10782,0.80434,1.00478
227.219,28.59977,-0.11154,0.82197,1.0045
227.819,28.6572,-0.11647,0.83454,1.00422
228.419,28.7144,-0.11761,0.84676,1.00393
229.019,28.77188,-0.12152,0.85425,1.00365
229.619,28.8293,-0.12271,0.86339,1.00337
230.219,28.88679,-0.12674,0.87017,1.00308
230.819,28.94417,-0.13076,0.87454,1.0028
231.419,29.00123,-0.13395,0.87276,1.00251
232.019,29.05837,-0.1383,0.87158,1.00223
232.619,29.11559,-0.13836,0.87091,1.00194
233.219,29.17272,-0.1418,0.8669,1.00166
233.819,29.2301,-0.14405,0.86222,1.00137
234.419,29.2873,-0.15093,0.85558,1.00108
235.019,29.34433,-0.15565,0.84897,1.00079
235.619,29.40111,-0.16003,0.84176,1.00051
236.219,29.4579,-0.16562,0.83548,1.00022
236.819,29.5148,-0.16606,0.82849,0.99993
237.419,29.5721,-0.17114,0.81967,0.99964
238.019,29.62908,-0.17234,0.81301,0.99935
238.619,29.6857,-0.17723,0.80505,0.99906
239.219,29.7422,-0.18085,0.79741,0.99877
239.819,29.79855,-0.18099,0.79145,0.99848
240.419,29.85535,-0.18908,0.78483,0.99819
241.019,29.9123,-0.19342,0.77977,0.9979
241.619,29.96968,-0.19825,0.77286,0.9976
242.219,30.02713,-0.19948,0.76835,0.99731
242.819,30.08465,-0.2034,0.76499,0.99702
243.419,30.14211,-0.20688,0.76163,0.99673
244.019,30.19905,-0.21117,0.75767,0.99643
244.619,30.25618,-0.21477,0.75379,0.99614
245.219,30.31318,-0.21694,0.75574,0.99584
245.819,30.37017,-0.22354,0.75261,0.99555
246.419,30.42707,-0.22537,0.75147,0.99525
247.019,30.4839,-0.23071,0.75057,0.99496
247.619,30.5409,-0.23238,0.75073,0.99466
248.219,30.59771,-0.23766,0.75103,0.99436
248.819,30.6549,-0.241,0.752,0.99406
249.419,30.71203,-0.24491,0.75307,0.99377
250.019,30.7692,-0.25086,0.75323,0.99347
250.619,30.8262,-0.25362,0.7546,0.99317
251.219,30.8832,-0.25794,0.75578,0.99287
251.819,30.94015,-0.26042,0.75828,0.99257
252.419,30.99721,-0.2646,0.75896,0.99227
253.019,31.0542,-0.26596,0.76019,0.99197
253.619,31.1113,-0.27105,0.76075,0.99167
254.219,31.1685,-0.2771,0.76384,0.99137
254.819,31.2259,-0.2807,0.76593,0.99107
255.419,31.28335,-0.28753,0.76898,0.99077
256.019,31.3406,-0.29131,0.76939,0.99046
256.619,31.3976,-0.29706,0.77142,0.99016
257.219,31.4542,-0.30017,0.7731,0.98986
257.819,31.5112,-0.30622,0.77561,0.98955
258.419,31.56819,-0.3102,0.77788,0.98925
259.019,31.6248,-0.31566,0.77894,0.98894
259.619,31.68243,-0.32023,0.78107,0.98864
260.219,31.73978,-0.32552,0.78237,0.98833
260.819,31.79723,-0.3303,0.7854,0.98803
261.419,31.85458,-0.33359,0.78537,0.98772
262.019,31.91157,-0.33961,0.78928,0.98741
262.619,31.9687,-0.34302,0.7916,0.98711
263.219,32.0258,-0.35082,0.79262,0.9868
263.819,32.0828,-0.3548,0.79547,0.98649
264.419,32.1399,-0.36086,0.79643,0.98618
265.019,32.19676,-0.36474,0.79898,0.98587
265.619,32.25404,-0.36962,0.79849,0.98556
266.219,32.3114,-0.37592,0.80164,0.98525
266.819,32.36889,-0.37929,0.80175,0.98494
267.419,32.4261,-0.38738,0.80312,0.98463
268.019,32.48321,-0.39052,0.80422,0.98432
268.619,32.54038,-0.39816,0.80527,0.98401
269.219,32.5976,-0.40583,0.80572,0.9837
269.819,32.6547,-0.41088,0.8082,0.98339
270.419,32.71158,-0.41241,0.81046,0.98307
271.019,32.76862,-0.41972,0.81103,0.98276
271.619,32.8255,-0.42926,0.81238,0.98245
272.219,32.88244,-0.43416,0.81364,0.98213
272.819,32.93974,-0.44207,0.81601,0.98182
273.419,32.99693,-0.44568,0.81798,0.9815
274.019,33.05407,-0.44821,0.81764,0.98119
274.619,33.11101,-0.46015,0.81797,0.98087
275.219,33.16796,-0.46524,0.82226,0.98055
275.819,33.22521,-0.47065,0.8212,0.98024
276.419,33.28244,-0.47614,0.82279,0.97992
277.019,33.33961,-0.48261,0.8253,0.9796
277.619,33.39675,-0.48771,0.82679,0.97928
278.219,33.45409,-0.49631,0.82924,0.97897
278.819,33.5112,-0.50117,0.83259,0.97865
279.419,33.56837,-0.50691,0.8348,0.97833
280.019,33.62546,-0.51709,0.83639,0.97801
280.619,33.6828,-0.52159,0.83985,0.97769
281.219,33.74001,-0.53146,0.84141,0.97737
281.819,33.7973,-0.53666,0.84343,0.97705
282.419,33.8546,-0.54547,0.84664,0.97672
283.019,33.9118,-0.55282,0.84841,0.9764
283.619,33.96908,-0.55882,0.85119,0.97608
284.219,34.02626,-0.56758,0.85194,0.97576
284.819,34.08332,-0.57306,0.85612,0.97543
285.419,34.14046,-0.57714,0.85606,0.97511
286.019,34.19784,-0.58608,0.86056,0.97479
286.619,34.2553,-0.59596,0.86301,0.97446
287.219,34.31269,-0.60248,0.86572,0.97414
287.819,34.3699,-0.61171,0.86719,0.97381
288.419,34.427,-0.62064,0.868,0.97348
289.019,34.48404,-0.6261,0.86907,0.97316
289.619,34.5411,-0.63446,0.87144,0.97283
290.219,34.59836,-0.64085,0.87153,0.9725
290.819,34.6556,-0.65129,0.87237,0.97218
291.419,34.713,-0.65797,0.87314,0.97185
292.019,34.7703,-0.66543,0.87365,0.97152
292.619,34.82761,-0.67532,0.87309,0.97119
293.219,34.88513,-0.68379,0.8718,0.97086
293.819,34.94242,-0.69485,0.87319,0.97053
294.419,34.99972,-0.70171,0.87215,0.9702
295.019,35.05706,-0.71142,0.86974,0.96987
295.619,35.11425,-0.71965,0.86709,0.96954
296.219,35.1716,-0.72826,0.86343,0.96921
296.819,35.22899,-0.73892,0.8601,0.96887
297.419,35.28633,-0.74733,0.85638,0.96854
298.019,35.34395,-0.75859,0.85341,0.96821
298.619,35.40146,-0.76452,0.84699,0.96788
299.219,35.45877,-0.77686,0.84075,0.96754
299.819,35.51619,-0.78504,0.83564,0.96721
300.419,35.5734,-0.79536,0.82525,0.96687
301.019,35.63095,-0.80519,0.81702,0.96654
301.619,35.68865,-0.81218,0.80677,0.9662
302.219,35.74596,-0.82189,0.79457,0.96587
302.819,35.8035,-0.82984,0.78419,0.96553
303.419,35.8609,-0.84058,0.77042,0.96519
304.019,35.9182,-0.84883,0.75567,0.96485
304.619,35.97551,-0.85918,0.74442,0.96452
305.219,36.03269,-0.86753,0.73042,0.96418
305.819,36.0899,-0.87771,0.71902,0.96384
306.419,36.14717,-0.88794,0.71014,0.9635
307.019,36.20469,-0.89534,0.7075,0.96316
307.619,36.26226,-0.9051,0.70756,0.96282
308.219,36.31981,-0.91292,0.71087,0.96248
308.819,36.37709,-0.92321,0.71493,0.96214
309.419,36.43434,-0.93288,0.72133,0.9618
310.019,36.4917,-0.94165,0.72715,0.96146
310.619,36.54866,-0.95157,0.73612,0.96111
311.219,36.60609,-0.96063,0.74445,0.96077
311.819,36.66356,-0.97192,0.75201,0.96043
312.419,36.72104,-0.98127,0.75834,0.96009
313.019,36.77882,-0.9956,0.76173,0.95974
313.619,36.83625,-1.00571,0.76625,0.9594
314.219,36.89372,-1.01865,0.77298,0.95905
314.819,36.95122,-1.02876,0.77988,0.95871
315.419,37.0085,-1.0386,0.78781,0.95836
316.019,37.0659,-1.05166,0.79013,0.95802
316.619,37.12343,-1.06127,0.79522,0.95767
317.219,37.1808,-1.07535,0.79915,0.95732
317.819,37.23843,-1.08788,0.80462,0.95697
318.419,37.29541,-1.10124,0.81074,0.95663
319.019,37.35295,-1.1163,0.82227,0.95628
319.619,37.41065,-1.1296,0.83001,0.95593
320.219,37.46832,-1.14764,0.83621,0.95558
320.819,37.52641,-1.16061,0.8396,0.95523
321.419,37.58399,-1.17532,0.8429,0.95488
322.019,37.6415,-1.18937,0.83662,0.95453
322.619,37.69882,-1.20274,0.83051,0.95418
323.219,37.756,-1.21924,0.83263,0.95383
323.819,37.81361,-1.23034,0.82573,0.95348
324.419,37.87121,-1.24649,0.8222,0.95312
325.019,37.92886,-1.2576,0.8033,0.95277
325.619,37.98687,-1.27212,0.79,0.95242
326.219,38.04449,-1.28578,0.78195,0.95206
326.819,38.10178,-1.29853,0.77275,0.95171
327.419,38.1592,-1.31412,0.76907,0.95135
328.019,38.21663,-1.32594,0.76577,0.951
328.619,38.27411,-1.33738,0.76332,0.95064
329.219,38.33166,-1.35475,0.76727,0.95029
329.819,38.38921,-1.37086,0.76775,0.94993
330.419,38.44672,-1.3816,0.76782,0.94958
331.019,38.5043,-1.39541,0.76963,0.94922
331.619,38.56205,-1.41081,0.76799,0.94886
332.219,38.61965,-1.42411,0.75741,0.9485
332.819,38.6772,-1.43935,0.74936,0.94814
333.419,38.7346,-1.45289,0.74457,0.94779
334.019,38.79207,-1.46658,0.74431,0.94743
334.619,38.84962,-1.48022,0.74165,0.94707
335.219,38.9071,-1.49279,0.74205,0.94671
335.819,38.96483,-1.50951,0.73838,0.94635
336.419,39.02257,-1.51988,0.73921,0.94598
337.019,39.0803,-1.53592,0.73424,0.94562
337.619,39.13823,-1.54757,0.72883,0.94526
338.219,39.1958,-1.56177,0.72374,0.9449
338.819,39.2534,-1.57574,0.71845,0.94454
339.419,39.31114,-1.58868,0.70795,0.94417
340.019,39.3688,-1.60432,0.69861,0.94381
340.619,39.42635,-1.61588,0.69083,0.94344
341.219,39.484,-1.63065,0.68302,0.94308
341.819,39.54169,-1.6413,0.67485,0.94271
342.419,39.59953,-1.65346,0.66962,0.94235
343.019,39.6573,-1.6682,0.6666,0.94198
343.619,39.71483,-1.6798,0.65812,0.94162
344.219,39.7725,-1.69325,0.64729,0.94125
344.819,39.83012,-1.70464,0.64231,0.94088
345.419,39.8878,-1.71961,0.63429,0.94051
346.019,39.9456,-1.73145,0.62573,0.94015
346.619,40.00316,-1.74122,0.61365,0.93978
347.219,40.0609,-1.75462,0.60256,0.93941
347.819,40.1184,-1.76234,0.59048,0.93904
348.419,40.17624,-1.77596,0.58369,0.93867
349.019,40.23413,-1.78466,0.57599,0.9383
349.619,40.29195,-1.79897,0.56935,0.93793
350.219,40.34988,-1.80908,0.56482,0.93756
350.819,40.40769,-1.81841,0.55989,0.93719
351.419,40.46549,-1.82789,0.55143,0.93681
352.019,40.52323,-1.83666,0.54681,0.93644
352.619,40.5809,-1.85043,0.54226,0.93607
353.219,40.6387,-1.85644,0.53438,0.93569
353.819,40.69634,-1.86826,0.5297,0.93532
354.419,40.75411,-1.88076,0.52321,0.93495
355.019,40.8118,-1.88957,0.51739,0.93457
355.619,40.86956,-1.89936,0.50896,0.9342
356.219,40.92739,-1.905,0.49957,0.93382
356.819,40.98514,-1.91657,0.49383,0.93344
357.419,41.04292,-1.92436,0.49073,0.93307
358.019,41.10072,-1.93435,0.48456,0.93269
358.619,41.1584,-1.94233,0.47798,0.93231
359.219,41.21617,-1.95182,0.47331,0.93194
359.819,41.27425,-1.96156,0.46763,0.93156
360.419,41.3323,-1.96839,0.46508,0.93118
361.019,41.3904,-1.97767,0.45951,0.9308
361.619,41.44849,-1.98261,0.45603,0.93042
362.219,41.50631,-1.99294,0.45304,0.93004
362.819,41.56418,-2.0023,0.44744,0.92966
363.419,41.62189,-2.00924,0.4441,0.92928
364.019,41.67986,-2.01813,0.44053,0.9289
364.619,41.7379,-2.02542,0.43686,0.92852
365.219,41.79596,-2.03467,0.42884,0.92813
365.819,41.85402,-2.0417,0.42618,0.92775
366.419,41.912,-2.05017,0.42086,0.92737
367.019,41.96976,-2.05685,0.416,0.92698
367.619,42.02778,-2.06172,0.41103,0.9266
368.219,42.0857,-2.0695,0.40477,0.92622
368.819,42.14362,-2.07501,0.40042,0.92583
369.419,42.2014,-2.08704,0.39486,0.92545
370.019,42.2592,-2.09118,0.39176,0.92506
370.619,42.31708,-2.09419,0.38502,0.92467
371.219,42.375,-2.10603,0.38199,0.92429
371.819,42.43322,-2.11072,0.37474,0.9239
372.419,42.4908,-2.11942,0.37039,0.92351
373.019,42.54891,-2.12378,0.36574,0.92313
373.619,42.60694,-2.13061,0.36394,0.92274
374.219,42.66499,-2.13787,0.35939,0.92235
374.819,42.7232,-2.14224,0.35478,0.92196
375.419,42.781,-2.14989,0.35323,0.92157
376.019,42.83907,-2.15406,0.34959,0.92118
376.619,42.8972,-2.16255,0.34772,0.92079
377.219,42.95519,-2.16823,0.3456,0.9204
377.819,43.01335,-2.17259,0.34098,0.92001
378.419,43.07141,-2.18083,0.33886,0.91961
379.019,43.1295,-2.18585,0.33531,0.91922
379.619,43.18785,-2.191,0.33323,0.91883
380.219,43.24603,-2.19456,0.33231,0.91844
380.819,43.3041,-2.20086,0.32816,0.91804
381.419,43.3622,-2.20576,0.32438,0.91765
382.019,43.4204,-2.20887,0.32287,0.91725
382.619,43.47867,-2.21712,0.31894,0.91686
383.219,43.53655,-2.22093,0.31743,0.91646
383.819,43.59475,-2.22792,0.31587,0.91607
384.419,43.65299,-2.23216,0.31343,0.91567
385.019,43.7115,-2.23761,0.31273,0.91528
385.619,43.76996,-2.24584,0.30898,0.91488
386.219,43.82828,-2.24852,0.30637,0.91448
386.819,43.88653,-2.25468,0.30273,0.91408
387.419,43.94464,-2.25872,0.30115,0.91369
388.019,44.00293,-2.26351,0.29718,0.91329
388.619,44.06131,-2.26602,0.29632,0.91289
389.219,44.11956,-2.27138,0.29565,0.91249
389.819,44.17773,-2.27835,0.29368,0.91209
390.419,44.2359,-2.28158,0.29118,0.91169
391.019,44.29405,-2.28741,0.28742,0.91129
391.619,44.35248,-2.29122,0.28614,0.91088
392.219,44.41082,-2.29536,0.28489,0.91048
392.819,44.46893,-2.30153,0.28143,0.91008
393.419,44.52698,-2.3037,0.27976,0.90968
394.019,44.58491,-2.3094,0.2777,0.90928
394.619,44.643,-2.31376,0.27628,0.90887
395.219,44.70125,-2.31769,0.27631,0.90847
395.819,44.7595,-2.32342,0.27478,0.90806
396.419,44.81762,-2.32532,0.27455,0.90766
397.019,44.87578,-2.33125,0.2706,0.90725
397.619,44.9339,-2.33229,0.26856,0.90685
398.219,44.992,-2.33499,0.2672,0.90644
398.819,45.05019,-2.33929,0.26296,0.90603
399.419,45.10825,-2.34173,0.26224,0.90563
400.019,45.16637,-2.34936,0.25902,0.90522
400.619,45.22448,-2.35319,0.25952,0.90481
401.219,45.28267,-2.35637,0.25799,0.9044
401.819,45.34087,-2.36089,0.25754,0.904
402.419,45.39901,-2.3643,0.25647,0.90359
403.019,45.4572,-2.36966,0.25488,0.90318
403.619,45.51531,-2.37065,0.25128,0.90277
404.219,45.57325,-2.37478,0.25003,0.90236
404.819,45.63134,-2.3785,0.24976,0.90195
405.419,45.68953,-2.38228,0.24802,0.90153
406.019,45.74788,-2.38798,0.24646,0.90112
406.619,45.80639,-2.39097,0.24524,0.90071
407.219,45.8645,-2.39667,0.24351,0.9003
407.819,45.92262,-2.40036,0.24223,0.89989
408.419,45.98069,-2.40129,0.23925,0.89947
409.019,46.03913,-2.40491,0.23584,0.89906
409.619,46.0974,-2.40635,0.23619,0.89864
410.219,46.15627,-2.41113,0.23446,0.89823
410.819,46.21512,-2.41198,0.232,0.89781
411.419,46.27394,-2.41476,0.22897,0.8974
412.019,46.3324,-2.41936,0.23073,0.89698
412.619,46.39097,-2.42247,0.22829,0.89657
413.219,46.44938,-2.42753,0.22642,0.89615
413.819,46.50781,-2.43134,0.22472,0.89573
414.419,46.5663,-2.43411,0.22613,0.89531
415.019,46.6248,-2.43773,0.22385,0.8949
415.619,46.68342,-2.44006,0.22391,0.89448
416.219,46.74199,-2.44291,0.2227,0.89406
416.819,46.80059,-2.44613,0.22214,0.89364
417.419,46.85915,-2.44986,0.21823,0.89322
418.019,46.9176,-2.45313,0.21887,0.8928
418.619,46.97588,-2.45524,0.21828,0.89238
419.219,47.03431,-2.46075,0.21686,0.89196
419.819,47.09288,-2.46121,0.21704,0.89154
420.419,47.15153,-2.46464,0.21564,0.89111
421.019,47.21014,-2.46641,0.21362,0.89069
421.619,47.26883,-2.46787,0.21383,0.89027
422.219,47.3274,-2.47367,0.21414,0.88985
422.819,47.3859,-2.47426,0.212,0.88942
423.419,47.44441,-2.47879,0.21005,0.889
424.019,47.50292,-2.48259,0.2093,0.88857
424.619,47.5616,-2.48393,0.20994,0.88815
425.219,47.62023,-2.48706,0.20841,0.88772
425.819,47.6788,-2.48857,0.20789,0.8873
426.419,47.73721,-2.49177,0.20612,0.88687
427.019,47.7958,-2.49543,0.20565,0.88644
427.619,47.85455,-2.49747,0.20475,0.88602
428.219,47.9133,-2.5003,0.20468,0.88559
428.819,47.97193,-2.50179,0.20093,0.88516
429.419,48.03048,-2.50482,0.20211,0.88473
430.019,48.0889,-2.50653,0.2016,0.88431
430.619,48.147,-2.509,0.20056,0.88388
431.219,48.2055,-2.51272,0.19826,0.88345
431.819,48.26393,-2.51437,0.20021,0.88302
432.419,48.3227,-2.5159,0.19918,0.88259
433.019,48.38125,-2.51604,0.19811,0.88216
433.619,48.4398,-2.5192,0.1973,0.88172
434.219,48.49822,-2.52093,0.19484,0.88129
434.819,48.5563,-2.52503,0.19407,0.88086
435.419,48.61438,-2.52908,0.19269,0.88043
436.019,48.67265,-2.53139,0.19426,0.88
436.619,48.73134,-2.53479,0.19287,0.87956
437.219,48.79011,-2.53689,0.19253,0.87913
437.819,48.8487,-2.53917,0.19209,0.87869
438.419,48.90732,-2.54151,0.1904,0.87826
439.019,48.96586,-2.54257,0.18911,0.87782
439.619,49.02442,-2.54621,0.18765,0.87739
440.219,49.08305,-2.54841,0.18582,0.87695
440.819,49.14177,-2.55017,0.18567,0.87652
441.419,49.2004,-2.55284,0.18636,0.87608
442.019,49.25912,-2.55411,0.18409,0.87564
442.619,49.3178,-2.55739,0.18323,0.87521
443.219,49.3769,-2.55737,0.1852,0.87477
443.819,49.43616,-2.56044,0.18367,0.87433
444.419,49.49542,-2.56254,0.18207,0.87389
445.019,49.5544,-2.56421,0.17972,0.87345
445.619,49.61312,-2.56759,0.179,0.87301
446.219,49.67176,-2.56882,0.17983,0.87257
446.819,49.7303,-2.5719,0.17966,0.87213
447.419,49.78906,-2.57246,0.17954,0.87169
448.019,49.8481,-2.57473,0.1785,0.87125
448.619,49.90708,-2.57762,0.17641,0.87081
449.219,49.9659,-2.57874,0.17794,0.87037
449.819,50.02463,-2.58047,0.17737,0.86992
450.419,50.08316,-2.58318,0.1758,0.86948
451.019,50.14192,-2.58551,0.17707,0.86904
451.619,50.20061,-2.58766,0.17589,0.8686
452.219,50.25952,-2.5888,0.1756,0.86815
452.819,50.3183,-2.59071,0.17365,0.86771
453.419,50.3772,-2.59202,0.17533,0.86726
454.019,50.436,-2.5946,0.17364,0.86682
454.619,50.4947,-2.59713,0.17351,0.86637
455.219,50.55353,-2.5981,0.17474,0.86592
455.819,50.6124,-2.60237,0.17391,0.86548
456.419,50.6712,-2.60399,0.17107,0.86503
457.019,50.73007,-2.60703,0.17367,0.86458
457.619,50.78884,-2.6073,0.17153,0.86414
458.219,50.84762,-2.60732,0.17123,0.86369
458.819,50.90656,-2.60887,0.16914,0.86324
459.419,50.96539,-2.61025,0.16841,0.86279
460.019,51.02434,-2.61165,0.168,0.86234
460.619,51.08333,-2.61566,0.16718,0.86189
461.219,51.14223,-2.61691,0.16529,0.86144
461.819,51.2012,-2.61997,0.16582,0.86099
462.419,51.26005,-2.61998,0.16533,0.86054
463.019,51.3189,-2.62274,0.16483,0.86009
463.619,51.37764,-2.62226,0.16429,0.85964
464.219,51.43636,-2.62429,0.16396,0.85918
464.819,51.4951,-2.62607,0.16156,0.85873
465.419,51.55407,-2.62714,0.16244,0.85828
466.019,51.61282,-2.62971,0.16116,0.85783
466.619,51.67185,-2.63159,0.16314,0.85737
467.219,51.73057,-2.63304,0.16183,0.85692
467.819,51.78928,-2.63558,0.15946,0.85646
468.419,51.84819,-2.63557,0.16092,0.85601
469.019,51.90735,-2.63699,0.15894,0.85555
469.619,51.96634,-2.63759,0.16082,0.8551
470.219,52.02539,-2.63979,0.15866,0.85464
470.819,52.08435,-2.6426,0.15796,0.85418
471.419,52.1432,-2.64391,0.15737,0.85373
472.019,52.202,-2.64553,0.16016,0.85327
472.619,52.2609,-2.64846,0.1601,0.85281
473.219,52.31947,-2.65125,0.16082,0.85235
473.819,52.3783,-2.65291,0.16079,0.85189
474.419,52.4367,-2.65252,0.15962,0.85144
475.019,52.4955,-2.65314,0.15776,0.85098
475.619,52.55464,-2.65466,0.16025,0.85052
476.219,52.61388,-2.65588,0.15765,0.85006
476.819,52.6729,-2.65864,0.16044,0.8496
477.419,52.7319,-2.65889,0.15807,0.84914
478.019,52.7908,-2.66202,0.15696,0.84867
478.619,52.8498,-2.66355,0.15626,0.84821
479.219,52.90886,-2.66422,0.15578,0.84775
479.819,52.9678,-2.66422,0.15612,0.84729
480.419,53.02694,-2.66435,0.15613,0.84682
481.019,53.086,-2.66681,0.15385,0.84636
481.619,53.1452,-2.66692,0.15438,0.8459
482.219,53.20431,-2.66897,0.15436,0.84543
482.819,53.26336,-2.67092,0.1546,0.84497
483.419,53.3223,-2.67355,0.15374,0.8445
484.019,53.38117,-2.67498,0.15337,0.84404
484.619,53.4401,-2.67498,0.15222,0.84357
485.219,53.49921,-2.67631,0.15181,0.84311
485.819,53.55825,-2.67802,0.1514,0.84264
486.419,53.61755,-2.67915,0.15188,0.84217
487.019,53.67664,-2.67919,0.14924,0.84171
487.619,53.73604,-2.6806,0.15088,0.84124
488.219,53.7952,-2.68374,0.15135,0.84077
488.819,53.85434,-2.68583,0.15135,0.8403
489.419,53.9133,-2.68704,0.14932,0.83983
490.019,53.97234,-2.68862,0.15008,0.83936
490.619,54.03144,-2.68906,0.14935,0.83889
491.219,54.09069,-2.6886,0.14752,0.83842
491.819,54.15,-2.69002,0.14854,0.83795
492.419,54.20932,-2.69002,0.14904,0.83748
493.019,54.26851,-2.69002,0.148,0.83701
493.619,54.3273,-2.69175,0.14708,0.83654
494.219,54.38652,-2.6943,0.14951,0.83607
494.819,54.44568,-2.69697,0.14759,0.8356
495.419,54.5049,-2.69705,0.14663,0.83512
496.019,54.56416,-2.69848,0.14778,0.83465
496.619,54.6233,-2.69874,0.14854,0.83418
497.219,54.68261,-2.69881,0.14797,0.8337
497.819,54.7419,-2.70031,0.14683,0.83323
498.419,54.80129,-2.7002,0.14608,0.83275
499.019,54.8606,-2.70263,0.14516,0.83228
499.619,54.92,-2.70309,0.14783,0.8318
500.219,54.9793,-2.70555,0.14689,0.83133
500.819,55.0385,-2.70739,0.14718,0.83085
501.419,55.09755,-2.70847,0.14617,0.83038
502.019,55.15664,-2.71074,0.1468,0.8299
502.619,55.2158,-2.71149,0.14493,0.82942
503.219,55.27514,-2.71015,0.14211,0.82894
503.819,55.3345,-2.71234,0.14464,0.82847
504.419,55.39391,-2.71165,0.14533,0.82799
505.019,55.4532,-2.71305,0.14401,0.82751
505.619,55.51226,-2.71303,0.14389,0.82703
506.219,55.57131,-2.71461,0.1417,0.82655
506.819,55.63061,-2.71603,0.14155,0.82607
507.419,55.6898,-2.7167,0.14192,0.82559
508.019,55.74915,-2.7167,0.14032,0.82511
508.619,55.80849,-2.71667,0.1416,0.82463
509.219,55.8679,-2.71824,0.14101,0.82415
509.819,55.9276,-2.7203,0.14028,0.82367
510.419,55.9865,-2.72164,0.14032,0.82318
511.019,56.04563,-2.72306,0.13899,0.8227
511.619,56.1049,-2.72394,0.13973,0.82222
512.219,56.16445,-2.72526,0.13941,0.82174
512.819,56.224,-2.72766,0.14087,0.82125
513.419,56.2835,-2.72639,0.13971,0.82077
514.019,56.3427,-2.72601,0.14332,0.82028
514.619,56.40192,-2.72531,0.14188,0.8198
515.219,56.46119,-2.72713,0.14185,0.81931
515.819,56.5206,-2.72947,0.13964,0.81883
516.419,56.57957,-2.73075,0.14252,0.81834
517.019,56.63885,-2.73207,0.14138,0.81786
517.619,56.6982,-2.73141,0.14219,0.81737
518.219,56.7576,-2.73136,0.14212,0.81688
518.819,56.8171,-2.73273,0.14547,0.8164
519.419,56.8766,-2.73276,0.14458,0.81591
520.019,56.93594,-2.73404,0.14353,0.81542
520.619,56.99545,-2.7354,0.14526,0.81493
521.219,57.0548,-2.73602,0.14517,0.81444
521.819,57.114,-2.73667,0.14599,0.81395
522.419,57.17329,-2.73661,0.14742,0.81346
523.019,57.23256,-2.73822,0.14708,0.81297
523.619,57.29184,-2.73823,0.1464,0.81248
524.219,57.35125,-2.73948,0.14714,0.81199
524.819,57.41055,-2.73956,0.15055,0.8115
525.419,57.4701,-2.73821,0.14747,0.81101
526.019,57.52956,-2.73953,0.14849,0.81052
526.619,57.5892,-2.74117,0.1475,0.81003
527.219,57.64875,-2.74249,0.14802,0.80954
527.819,57.70834,-2.74118,0.14851,0.80904
528.419,57.76778,-2.74243,0.14949,0.80855
529.019,57.8274,-2.74471,0.14868,0.80806
529.619,57.88689,-2.74535,0.14829,0.80756
530.219,57.9465,-2.74535,0.14883,0.80707
530.819,58.00597,-2.74542,0.14952,0.80657
531.419,58.06536,-2.74593,0.15028,0.80608
532.019,58.12477,-2.74733,0.14958,0.80558
532.619,58.18439,-2.74857,0.15076,0.80509
533.219,58.24394,-2.74865,0.14848,0.80459
533.819,58.3036,-2.75009,0.14999,0.8041
534.419,58.36316,-2.7501,0.14964,0.8036
535.019,58.42241,-2.75142,0.15039,0.8031
535.619,58.48202,-2.75269,0.15114,0.8026
536.219,58.54175,-2.75402,0.15336,0.80211
536.819,58.60161,-2.75402,0.15322,0.80161
537.419,58.6614,-2.75411,0.15162,0.80111
538.019,58.72096,-2.75435,0.15153,0.80061
538.619,58.78046,-2.75402,0.1518,0.80011
539.219,58.84029,-2.75403,0.15168,0.79961
539.819,58.9,-2.75545,0.15341,0.79911
540.419,58.9597,-2.75545,0.15393,0.79861
541.019,59.0193,-2.75704,0.15432,0.79811
541.619,59.07878,-2.75809,0.15176,0.79761
542.219,59.13814,-2.75841,0.15252,0.79711
542.819,59.1977,-2.75841,0.1524,0.79661
543.419,59.25704,-2.7599,0.15478,0.79611
544.019,59.31658,-2.76116,0.1543,0.79561
544.619,59.3762,-2.75989,0.15401,0.7951
545.219,59.4357,-2.7598,0.15364,0.7946
545.819,59.49539,-2.76181,0.15581,0.7941
546.419,59.55505,-2.76194,0.15608,0.79359
547.019,59.61456,-2.76259,0.15659,0.79309
547.619,59.67402,-2.76192,0.1571,0.79259
548.219,59.73341,-2.76259,0.1573,0.79208
548.819,59.79297,-2.76402,0.15827,0.79158
549.419,59.85269,-2.76425,0.15533,0.79107
550.019,59.9123,-2.76802,0.15808,0.79057
550.619,59.9719,-2.76959,0.16121,0.79006
551.219,60.031,-2.76951,0.16077,0.78955
551.819,60.09,-2.77083,0.15799,0.78905
552.419,60.14926,-2.76984,0.15981,0.78854
553.019,60.20865,-2.76984,0.16084,0.78803
553.619,60.26831,-2.77015,0.16183,0.78752
554.219,60.328,-2.77125,0.1614,0.78702
554.819,60.38726,-2.77207,0.16189,0.78651
555.419,60.4468,-2.77203,0.1646,0.786
556.019,60.5061,-2.77203,0.16435,0.78549
556.619,60.5658,-2.77268,0.16334,0.78498
557.219,60.6261,-2.77203,0.16654,0.78447
557.819,60.68605,-2.77131,0.16346,0.78396
558.419,60.7462,-2.77307,0.16722,0.78345
559.019,60.80595,-2.77412,0.16693,0.78294
559.619,60.86555,-2.77542,0.16729,0.78243
560.219,60.92519,-2.77542,0.16845,0.78192
560.819,60.9845,-2.77675,0.1675,0.78141
561.419,61.04413,-2.77695,0.16989,0.7809
562.019,61.1037,-2.77686,0.17084,0.78038
562.619,61.1631,-2.77823,0.1672,0.77987
563.219,61.22291,-2.7782,0.16894,0.77936
563.819,61.28253,-2.78103,0.17098,0.77884
564.419,61.34241,-2.78103,0.17127,0.77833
565.019,61.4022,-2.77971,0.17162,0.77782
565.619,61.46181,-2.78103,0.17292,0.7773
566.219,61.52134,-2.78103,0.17106,0.77679
566.819,61.5807,-2.78236,0.17341,0.77627
567.419,61.6405,-2.78105,0.17521,0.77576
568.019,61.70035,-2.78064,0.17429,0.77524
568.619,61.76036,-2.78115,0.17668,0.77473
569.219,61.8203,-2.78117,0.17488,0.77421
569.819,61.87993,-2.78389,0.17566,0.77369
570.419,61.93974,-2.7842,0.17581,0.77318
571.019,61.99946,-2.78521,0.17712,0.77266
571.619,62.0593,-2.78652,0.17882,0.77214
572.219,62.1191,-2.7855,0.17742,0.77163
572.819,62.17875,-2.78659,0.18009,0.77111
573.419,62.2386,-2.78643,0.18051,0.77059
574.019,62.29809,-2.78653,0.18004,0.77007
574.619,62.35794,-2.78655,0.18188,0.76955
575.219,62.41775,-2.78745,0.18202,0.76903
575.819,62.4777,-2.78795,0.18403,0.76851
576.419,62.5376,-2.79037,0.18454,0.76799
577.019,62.59746,-2.79037,0.18696,0.76747
577.619,62.6574,-2.79037,0.18639,0.76695
578.219,62.71741,-2.79037,0.18541,0.76643
578.819,62.77737,-2.79037,0.18585,0.76591
579.419,62.83735,-2.79172,0.18554,0.76539
580.019,62.8973,-2.79049,0.18793,0.76487
580.619,62.9572,-2.79168,0.18811,0.76435
581.219,63.01706,-2.793,0.18815,0.76382
581.819,63.0769,-2.79301,0.18627,0.7633
582.419,63.13697,-2.79432,0.18765,0.76278
583.019,63.19696,-2.79302,0.18825,0.76225
583.619,63.257,-2.79162,0.18702,0.76173
584.219,63.317,-2.79307,0.18784,0.76121
584.819,63.37673,-2.79267,0.19002,0.76068
585.419,63.43655,-2.79407,0.18862,0.76016
586.019,63.49638,-2.79657,0.19024,0.75963
586.619,63.5564,-2.79831,0.18889,0.75911
587.219,63.61649,-2.79955,0.19016,0.75858
587.819,63.6767,-2.80023,0.18992,0.75806
588.419,63.7367,-2.7989,0.19068,0.75753
589.019,63.79674,-2.80018,0.1918,0.757
589.619,63.85665,-2.80036,0.18973,0.75648
590.219,63.9163,-2.80036,0.19246,0.75595
590.819,63.9761,-2.80037,0.18963,0.75542
591.419,64.03576,-2.80167,0.19208,0.7549
592.019,64.0954,-2.80218,0.19317,0.75437
592.619,64.15528,-2.80299,0.19073,0.75384
593.219,64.21516,-2.80363,0.19183,0.75331
593.819,64.27577,-2.8028,0.19322,0.75278
594.419,64.33583,-2.80331,0.19302,0.75225
595.019,64.39577,-2.80334,0.19193,0.75173
595.619,64.4557,-2.80463,0.19012,0.7512
596.219,64.51562,-2.80593,0.19093,0.75067
596.819,64.57563,-2.80595,0.19168,0.75014
597.419,64.6357,-2.80694,0.18982,0.74961
598.019,64.69561,-2.80694,0.19059,0.74908
598.619,64.75559,-2.80694,0.19101,0.74854
599.219,64.81536,-2.80694,0.19126,0.74801
599.819,64.87526,-2.80694,0.1901,0.74748
600.419,64.93516,-2.80694,0.18855,0.74695
601.019,64.99521,-2.80711,0.18824,0.74642
601.619,65.0551,-2.80717,0.18714,0.74589
602.219,65.11497,-2.81013,0.18845,0.74535
602.819,65.175,-2.80906,0.18892,0.74482
603.419,65.23488,-2.81012,0.18917,0.74429
604.019,65.29467,-2.81149,0.19037,0.74375
604.619,65.35445,-2.81014,0.18949,0.74322
605.219,65.41378,-2.81143,0.1884,0.74269
605.819,65.47367,-2.8114,0.18707,0.74215
606.419,65.5335,-2.81276,0.18881,0.74162
607.019,65.59354,-2.81276,0.18549,0.74108
607.619,65.6542,-2.81276,0.18473,0.74055
608.219,65.71423,-2.81255,0.18251,0.74001
608.819,65.7749,-2.81292,0.18435,0.73947
609.419,65.83479,-2.81364,0.18519,0.73894
610.019,65.89483,-2.81364,0.18354,0.7384
610.619,65.95479,-2.81362,0.18298,0.73787
611.219,66.01487,-2.8143,0.18009,0.73733
611.819,66.07515,-2.81457,0.18185,0.73679
612.419,66.13532,-2.81611,0.18497,0.73625
613.019,66.19547,-2.81843,0.18297,0.73572
613.619,66.2555,-2.81954,0.18247,0.73518
614.219,66.31523,-2.81869,0.18264,0.73464
614.819,66.3753,-2.81995,0.18264,0.7341
615.419,66.4353,-2.82001,0.18023,0.73356
616.019,66.49546,-2.81971,0.17889,0.73303
616.619,66.5556,-2.81859,0.18034,0.73249
617.219,66.6155,-2.81978,0.17888,0.73195
617.819,66.6755,-2.82023,0.17749,0.73141
618.419,66.73566,-2.81896,0.17666,0.73087
619.019,66.79551,-2.82045,0.17487,0.73033
619.619,66.85554,-2.81903,0.17911,0.72979
620.219,66.9157,-2.82044,0.17556,0.72924
620.819,66.9762,-2.82185,0.17464,0.7287
621.419,67.0367,-2.8219,0.17401,0.72816
622.019,67.09698,-2.82305,0.17285,0.72762
622.619,67.15728,-2.82324,0.17482,0.72708
623.219,67.21726,-2.82289,0.17293,0.72654
623.819,67.2773,-2.82488,0.17149,0.72599
624.419,67.33736,-2.82483,0.17294,0.72545
625.019,67.39761,-2.82484,0.17424,0.72491
625.619,67.45776,-2.82384,0.17312,0.72437
626.219,67.51779,-2.82384,0.17291,0.72382
626.819,67.57797,-2.82384,0.17228,0.72328
627.419,67.63812,-2.82465,0.17208,0.72274
628.019,67.6984,-2.82574,0.17437,0.72219
628.619,67.75855,-2.82667,0.17054,0.72165
629.219,67.81846,-2.82714,0.17321,0.7211
629.819,67.87858,-2.828,0.17153,0.72056
630.419,67.93873,-2.82972,0.17248,0.72001
631.019,67.99894,-2.82846,0.17135,0.71947
631.619,68.0591,-2.8298,0.17035,0.71892
632.219,68.1191,-2.82978,0.17153,0.71837
632.819,68.17918,-2.8311,0.17036,0.71783
633.419,68.2394,-2.8311,0.1722,0.71728
634.019,68.2995,-2.82978,0.17131,0.71674
634.619,68.35973,-2.8311,0.1706,0.71619
635.219,68.41966,-2.82978,0.17026,0.71564
635.819,68.47985,-2.82978,0.16882,0.71509
636.419,68.54006,-2.83111,0.16869,0.71455
637.019,68.60022,-2.83242,0.16957,0.714
637.619,68.66083,-2.83243,0.16487,0.71345
638.219,68.72068,-2.83278,0.16404,0.7129
638.819,68.7804,-2.83406,0.16548,0.71235
639.419,68.84017,-2.83406,0.16619,0.71181
640.019,68.90003,-2.83472,0.16446,0.71126
640.619,68.96035,-2.83538,0.16483,0.71071
641.219,69.02049,-2.8367,0.16467,0.71016
641.819,69.08064,-2.83639,0.16554,0.70961
642.419,69.14094,-2.83779,0.16107,0.70906
643.019,69.2012,-2.83779,0.16152,0.70851
643.619,69.26161,-2.83731,0.16207,0.70796
644.219,69.32189,-2.83698,0.16124,0.70741
644.819,69.3825,-2.83779,0.15978,0.70686
645.419,69.44319,-2.83779,0.15835,0.7063
646.019,69.5039,-2.83859,0.15757,0.70575
646.619,69.56435,-2.83779,0.15732,0.7052
647.219,69.6245,-2.83921,0.15701,0.70465
647.819,69.68467,-2.83935,0.15584,0.7041
648.419,69.74468,-2.84042,0.15838,0.70355
649.019,69.80457,-2.84091,0.15732,0.70299
649.619,69.8648,-2.84139,0.15445,0.70244
650.219,69.92504,-2.84042,0.15691,0.70189
650.819,69.9856,-2.84032,0.15612,0.70133
651.419,70.04561,-2.84196,0.15731,0.70078
652.019,70.10563,-2.84336,0.15421,0.70023
652.619,70.16571,-2.84318,0.15221,0.69967
653.219,70.22599,-2.84591,0.15288,0.69912
653.819,70.28649,-2.84604,0.15337,0.69857
654.419,70.34682,-2.8471,0.15449,0.69801
655.019,70.40729,-2.84667,0.15387,0.69746
655.619,70.46766,-2.84406,0.15045,0.6969
656.219,70.52815,-2.84404,0.15176,0.69635
656.819,70.58855,-2.8444,0.14832,0.69579
657.419,70.6489,-2.84569,0.14907,0.69524
658.019,70.70926,-2.84472,0.14836,0.69468
658.619,70.76947,-2.84603,0.14666,0.69412
659.219,70.82975,-2.84603,0.14655,0.69357
659.819,70.89,-2.84734,0.14417,0.69301
660.419,70.95048,-2.84631,0.14217,0.69246
661.019,71.0108,-2.84735,0.1447,0.6919
661.619,71.07128,-2.84735,0.14199,0.69134
662.219,71.13149,-2.84866,0.14158,0.69078
662.819,71.19181,-2.84866,0.14133,0.69023
663.419,71.2521,-2.84883,0.14013,0.68967
664.019,71.3126,-2.85019,0.1392,0.68911
664.619,71.37316,-2.85144,0.14155,0.68855
665.219,71.43345,-2.85042,0.13888,0.688
665.819,71.49377,-2.85172,0.13555,0.68744
666.419,71.5541,-2.85003,0.1382,0.68688
667.019,71.61434,-2.84981,0.13465,0.68632
667.619,71.67469,-2.85084,0.13476,0.68576
668.219,71.7348,-2.85071,0.13356,0.6852
668.819,71.79509,-2.85228,0.13356,0.68464
669.419,71.8552,-2.85373,0.13193,0.68408
670.019,71.9155,-2.85426,0.13169,0.68352
670.619,71.97589,-2.85437,0.13391,0.68296
671.219,72.03625,-2.85437,0.13196,0.6824
671.819,72.09657,-2.85371,0.13191,0.68184
672.419,72.15669,-2.85371,0.13379,0.68128
673.019,72.21687,-2.85437,0.13362,0.68072
673.619,72.27721,-2.85643,0.12946,0.68016
674.219,72.33757,-2.85653,0.12859,0.6796
674.819,72.3981,-2.85644,0.12913,0.67904
675.419,72.45824,-2.85733,0.12861,0.67848
676.019,72.51852,-2.85786,0.12717,0.67791
676.619,72.57888,-2.85876,0.12921,0.67735
677.219,72.6391,-2.85876,0.12889,0.67679
677.819,72.69927,-2.85878,0.13023,0.67623
678.419,72.75944,-2.85744,0.12981,0.67566
679.019,72.81954,-2.85876,0.12661,0.6751
679.619,72.87997,-2.85876,0.1245,0.67454
680.219,72.94019,-2.85897,0.12768,0.67398
680.819,73.0004,-2.85897,0.1258,0.67341
681.419,73.06061,-2.85996,0.12559,0.67285
682.019,73.12082,-2.86134,0.12582,0.67229
682.619,73.18119,-2.86052,0.1241,0.67172
683.219,73.2414,-2.86128,0.12665,0.67116
683.819,73.30139,-2.86129,0.12806,0.67059
684.419,73.3614,-2.86227,0.12459,0.67003
685.019,73.42135,-2.8613,0.12199,0.66947
685.619,73.4814,-2.86128,0.12447,0.6689
686.219,73.5417,-2.86128,0.12263,0.66834
686.819,73.60203,-2.86128,0.12483,0.66777
687.419,73.6623,-2.86128,0.1231,0.66721
688.019,73.72247,-2.8626,0.12197,0.66664
688.619,73.78214,-2.8626,0.12336,0.66608
689.219,73.8421,-2.8626,0.1217,0.66551
689.819,73.90253,-2.8628,0.12197,0.66494
690.419,73.9628,-2.86392,0.12202,0.66438
691.019,74.0235,-2.86556,0.12159,0.66381
691.619,74.08386,-2.86642,0.12349,0.66325
692.219,74.14421,-2.86634,0.11929,0.66268
692.819,74.20464,-2.86494,0.11792,0.66211
693.419,74.265,-2.86524,0.11915,0.66155
694.019,74.32521,-2.86394,0.11488,0.66098
694.619,74.38548,-2.86392,0.11774,0.66041
695.219,74.4459,-2.86359,0.1178,0.65984
695.819,74.50605,-2.86462,0.11649,0.65928
696.419,74.56659,-2.86492,0.11833,0.65871
697.019,74.62696,-2.86647,0.11561,0.65814
697.619,74.68734,-2.86904,0.12006,0.65757
698.219,74.74807,-2.8693,0.11812,0.65701
698.819,74.8086,-2.8693,0.1201,0.65644
699.419,74.86929,-2.8693,0.11837,0.65587
700.019,74.92985,-2.87073,0.11473,0.6553
700.619,74.99043,-2.86974,0.11501,0.65473
701.219,75.0509,-2.86973,0.11432,0.65416
701.819,75.1113,-2.86974,0.11306,0.65359
702.419,75.1717,-2.86971,0.1129,0.65303
703.019,75.2321,-2.87105,0.11401,0.65246
703.619,75.2925,-2.87105,0.11194,0.65189
704.219,75.35293,-2.87105,0.11085,0.65132
704.819,75.4135,-2.87236,0.11463,0.65075
705.419,75.4739,-2.87237,0.11341,0.65018
706.019,75.53416,-2.87105,0.11653,0.64961
706.619,75.5946,-2.87269,0.11044,0.64904
707.219,75.655,-2.87269,0.11097,0.64847
707.819,75.71544,-2.87407,0.11187,0.6479
708.419,75.77569,-2.87416,0.11016,0.64733
709.019,75.8361,-2.8728,0.10946,0.64676
709.619,75.89664,-2.87541,0.10788,0.64618
710.219,75.95716,-2.87544,0.10822,0.64561
710.819,76.01773,-2.87411,0.10398,0.64504
711.419,76.07816,-2.87413,0.10258,0.64447
712.019,76.1387,-2.87413,0.09893351,0.6439
712.619,76.19926,-2.87413,0.09734472,0.64333
713.219,76.2599,-2.8751,0.09828991,0.64276
713.819,76.32064,-2.87545,0.09955202,0.64218
714.419,76.38139,-2.87709,0.09988802,0.64161
715.019,76.44188,-2.87597,0.09692475,0.64104
715.619,76.50227,-2.87493,0.09750209,0.64047
716.219,76.56274,-2.87587,0.09762391,0.6399
716.819,76.62331,-2.87625,0.09552508,0.63932
717.419,76.68384,-2.87653,0.09696846,0.63875
718.019,76.74441,-2.87749,0.09497472,0.63818
718.619,76.80516,-2.87907,0.09284283,0.63761
719.219,76.86588,-2.87838,0.08960707,0.63703
719.819,76.92657,-2.87699,0.09256753,0.63646
720.419,76.98699,-2.87644,0.09161011,0.63589
721.019,77.04741,-2.87828,0.0941461,0.63531
721.619,77.10808,-2.87841,0.09086979,0.63474
722.219,77.16884,-2.87841,0.09310993,0.63417
722.819,77.22973,-2.87709,0.09524839,0.63359
723.419,77.29032,-2.87808,0.09293466,0.63302
724.019,77.35077,-2.87913,0.09393325,0.63244
724.619,77.41133,-2.88105,0.09258254,0.63187
725.219,77.4717,-2.88238,0.09577838,0.6313
725.819,77.53229,-2.88235,0.09758438,0.63072
726.419,77.59295,-2.88215,0.09440959,0.63015
727.019,77.65345,-2.87995,0.09422057,0.62957
727.619,77.71427,-2.87863,0.09521278,0.629
728.219,77.77476,-2.87991,0.09365603,0.62842
728.819,77.8352,-2.88092,0.09385313,0.62785
729.419,77.89591,-2.8813,0.09253448,0.62727
730.019,77.95665,-2.88258,0.09255472,0.6267
730.619,78.0174,-2.88357,0.093184,0.62612
731.219,78.0784,-2.88501,0.08955301,0.62555
731.819,78.1391,-2.88511,0.09032444,0.62497
732.419,78.19986,-2.88511,0.09097466,0.6244
733.019,78.26063,-2.88379,0.09085848,0.62382
733.619,78.32136,-2.88346,0.08982394,0.62325
734.219,78.38192,-2.88346,0.08929841,0.62267
734.819,78.44221,-2.88499,0.08819011,0.62209
735.419,78.5027,-2.885,0.08620568,0.62152
736.019,78.56303,-2.886,0.0886075,0.62094
736.619,78.62371,-2.8873,0.08899705,0.62037
737.219,78.68437,-2.88629,0.08967338,0.61979
737.819,78.74501,-2.88631,0.0899022,0.61921
738.419,78.8057,-2.88631,0.08955049,0.61864
739.019,78.86616,-2.8863,0.08958013,0.61806
739.619,78.92663,-2.88763,0.08709397,0.61748
740.219,78.9871,-2.88803,0.08903044,0.61691
740.819,79.04741,-2.8892,0.08969789,0.61633
741.419,79.10783,-2.8889,0.08894768,0.61575
742.019,79.16826,-2.88891,0.08976052,0.61518
742.619,79.22869,-2.89044,0.08725963,0.6146
743.219,79.2893,-2.88906,0.08665991,0.61402
743.819,79.34976,-2.89038,0.0861668,0.61344
744.419,79.41034,-2.891,0.08104816,0.61287
745.019,79.4709,-2.88907,0.08414661,0.61229
745.619,79.53153,-2.88906,0.0857878,0.61171
746.219,79.5922,-2.88959,0.08215929,0.61113
746.819,79.6528,-2.88901,0.08491867,0.61056
747.419,79.7135,-2.8906,0.08442576,0.60998
748.019,79.7743,-2.89291,0.08618525,0.6094
748.619,79.83498,-2.89408,0.08296265,0.60882
749.219,79.89565,-2.89078,0.07849378,0.60824
749.819,79.95629,-2.88656,0.08267424,0.60767
750.219,79.99673,-2.88726,0.08298019,0.60728