File: 01_Data/Feather_Pillow_Feathers/STA/N2/10K_min/Feather_Pillow_Feathers_STA_N2_10KData_2226_R2.csv
##Temp./Â°C,Time/min,Mass loss(subtr.2)/mg,DSC(subtr.2)/(mW/mg),Sensit./(uV/mW)
49.684,10.01,-0.09596,0.04811247,1.07018
50.284,10.7334,-0.10375,0.07393344,1.07002
50.884,10.924,-0.10534,0.09720104,1.06985
51.484,11.0665,-0.10646,0.11696,1.06969
52.084,11.1853,-0.10693,0.13182,1.06952
52.684,11.29143,-0.1078,0.14823,1.06936
53.284,11.3888,-0.1082,0.16131,1.06919
53.884,11.47916,-0.10814,0.17564,1.06902
54.484,11.56484,-0.10867,0.18471,1.06885
55.084,11.647,-0.10855,0.19447,1.06869
55.684,11.72648,-0.10843,0.20544,1.06852
56.284,11.80348,-0.11035,0.2139,1.06835
56.884,11.87814,-0.11156,0.22093,1.06818
57.484,11.9511,-0.11171,0.22807,1.06801
58.084,12.02325,-0.1129,0.23358,1.06784
58.684,12.0945,-0.11307,0.24364,1.06767
59.284,12.16489,-0.11356,0.24884,1.0675
59.884,12.2342,-0.11369,0.25288,1.06733
60.484,12.3026,-0.11586,0.25958,1.06716
61.084,12.37067,-0.115,0.26365,1.06699
61.684,12.43821,-0.11558,0.26946,1.06682
62.284,12.50521,-0.11568,0.2737,1.06664
62.884,12.57225,-0.11571,0.27888,1.06647
63.484,12.63849,-0.1157,0.28288,1.0663
64.084,12.7048,-0.11703,0.28947,1.06613
64.684,12.7704,-0.11835,0.29332,1.06595
65.284,12.8362,-0.11895,0.29777,1.06578
65.884,12.90131,-0.11836,0.30202,1.0656
66.484,12.9666,-0.11836,0.30865,1.06543
67.084,13.03147,-0.11967,0.3115,1.06525
67.684,13.09627,-0.12063,0.31674,1.06508
68.284,13.16085,-0.12088,0.32012,1.0649
68.884,13.2249,-0.12333,0.3254,1.06472
69.484,13.2889,-0.12351,0.3286,1.06455
70.084,13.35286,-0.12484,0.33382,1.06437
70.684,13.4168,-0.12482,0.33853,1.06419
71.284,13.48068,-0.12615,0.3438,1.06402
71.884,13.54413,-0.12616,0.34718,1.06384
72.484,13.6075,-0.12647,0.35055,1.06366
73.084,13.6707,-0.12646,0.35503,1.06348
73.684,13.73374,-0.12797,0.35874,1.0633
74.284,13.79669,-0.12912,0.3635,1.06312
74.884,13.8597,-0.13043,0.36616,1.06294
75.484,13.9226,-0.13176,0.37143,1.06276
76.084,13.9852,-0.13306,0.37632,1.06258
76.684,14.0479,-0.1317,0.38064,1.0624
77.284,14.11011,-0.13273,0.3832,1.06222
77.884,14.17251,-0.13439,0.38796,1.06203
78.484,14.2351,-0.13643,0.39069,1.06185
79.084,14.2973,-0.13701,0.39561,1.06167
79.684,14.35939,-0.13774,0.39722,1.06149
80.284,14.4211,-0.13724,0.40039,1.0613
80.884,14.4828,-0.13977,0.40318,1.06112
81.484,14.54451,-0.14228,0.40659,1.06093
82.084,14.60617,-0.14228,0.4084,1.06075
82.684,14.66736,-0.14334,0.41258,1.06056
83.284,14.7288,-0.14492,0.4121,1.06038
83.884,14.78985,-0.1436,0.41456,1.06019
84.484,14.85104,-0.14525,0.41612,1.06001
85.084,14.91192,-0.14527,0.41745,1.05982
85.684,14.9726,-0.14755,0.41951,1.05963
86.284,15.03329,-0.14782,0.42278,1.05945
86.884,15.0939,-0.15018,0.42414,1.05926
87.484,15.1546,-0.15107,0.42275,1.05907
88.084,15.2149,-0.15118,0.42448,1.05888
88.684,15.27534,-0.15121,0.4249,1.05869
89.284,15.33554,-0.15281,0.42503,1.0585
89.884,15.3958,-0.15414,0.42414,1.05831
90.484,15.45595,-0.15543,0.42308,1.05812
91.084,15.51596,-0.15545,0.42366,1.05793
91.684,15.57595,-0.15677,0.42358,1.05774
92.284,15.6357,-0.15781,0.42381,1.05755
92.884,15.69537,-0.15809,0.42099,1.05736
93.484,15.75482,-0.16091,0.41964,1.05717
94.084,15.81445,-0.15917,0.41963,1.05698
94.684,15.8738,-0.15952,0.41764,1.05678
95.284,15.9335,-0.16184,0.41524,1.05659
95.884,15.99284,-0.16315,0.41471,1.0564
96.484,16.0522,-0.16312,0.41484,1.0562
97.084,16.1116,-0.16509,0.41209,1.05601
97.684,16.17099,-0.16577,0.4113,1.05582
98.284,16.23021,-0.1671,0.40888,1.05562
98.884,16.28903,-0.16709,0.40777,1.05542
99.484,16.348,-0.16709,0.40552,1.05523
100.084,16.40705,-0.16708,0.40315,1.05503
100.684,16.46585,-0.16973,0.40062,1.05484
101.284,16.52471,-0.16973,0.39879,1.05464
101.884,16.58352,-0.17003,0.39801,1.05444
102.484,16.64211,-0.17104,0.39382,1.05424
103.084,16.7009,-0.17104,0.39263,1.05405
103.684,16.75945,-0.17104,0.39018,1.05385
104.284,16.8183,-0.17236,0.38731,1.05365
104.884,16.87688,-0.17236,0.38436,1.05345
105.484,16.93526,-0.17264,0.3812,1.05325
106.084,16.99384,-0.17401,0.37845,1.05305
106.684,17.05242,-0.175,0.37576,1.05285
107.284,17.11127,-0.175,0.37405,1.05265
107.884,17.16994,-0.17632,0.36997,1.05245
108.484,17.2286,-0.17632,0.36745,1.05225
109.084,17.28722,-0.17623,0.36398,1.05205
109.684,17.34564,-0.17763,0.36215,1.05184
110.284,17.4042,-0.17763,0.35766,1.05164
110.884,17.4622,-0.17763,0.35697,1.05144
111.484,17.52073,-0.17765,0.35392,1.05123
112.084,17.57948,-0.17895,0.35223,1.05103
112.684,17.63844,-0.17895,0.35135,1.05083
113.284,17.69707,-0.18031,0.34774,1.05062
113.884,17.75539,-0.18126,0.34539,1.05042
114.484,17.8138,-0.18122,0.34276,1.05021
115.084,17.87191,-0.17994,0.34119,1.05001
115.684,17.93047,-0.1803,0.33863,1.0498
116.284,17.9889,-0.18193,0.33637,1.04959
116.884,18.04726,-0.18235,0.33299,1.04939
117.484,18.10559,-0.18323,0.33333,1.04918
118.084,18.16357,-0.18323,0.33138,1.04897
118.684,18.22201,-0.18223,0.32829,1.04876
119.284,18.28037,-0.18224,0.32707,1.04855
119.884,18.33896,-0.18055,0.32573,1.04834
120.484,18.39718,-0.18325,0.32547,1.04814
121.084,18.4555,-0.18455,0.32336,1.04793
121.684,18.51378,-0.18575,0.32198,1.04772
122.284,18.5722,-0.18455,0.32042,1.04751
122.884,18.6306,-0.18455,0.32015,1.04729
123.484,18.6887,-0.18552,0.31956,1.04708
124.084,18.74695,-0.18578,0.31757,1.04687
124.684,18.80498,-0.18519,0.31664,1.04666
125.284,18.86288,-0.18521,0.31682,1.04645
125.884,18.92085,-0.18454,0.31502,1.04623
126.484,18.97895,-0.18456,0.31363,1.04602
127.084,19.03683,-0.18586,0.31444,1.04581
127.684,19.09504,-0.18586,0.31265,1.04559
128.284,19.15305,-0.18717,0.31273,1.04538
128.884,19.21096,-0.18718,0.311,1.04516
129.484,19.26904,-0.1872,0.31193,1.04495
130.084,19.32698,-0.18628,0.31066,1.04473
130.684,19.3847,-0.18719,0.31082,1.04452
131.284,19.44236,-0.18719,0.30933,1.0443
131.884,19.50055,-0.18783,0.30992,1.04408
132.484,19.55856,-0.18784,0.30888,1.04387
133.084,19.61669,-0.18784,0.30945,1.04365
133.684,19.6747,-0.18808,0.30927,1.04343
134.284,19.73225,-0.18803,0.31048,1.04321
134.884,19.79012,-0.18785,0.30917,1.043
135.484,19.84788,-0.18785,0.30858,1.04278
136.084,19.9059,-0.18794,0.30891,1.04256
136.684,19.9637,-0.18916,0.30968,1.04234
137.284,20.02113,-0.18916,0.30889,1.04212
137.884,20.07905,-0.18911,0.31012,1.0419
138.484,20.137,-0.19015,0.3096,1.04167
139.084,20.19533,-0.19047,0.30995,1.04145
139.684,20.2531,-0.19048,0.31222,1.04123
140.284,20.31071,-0.19043,0.3103,1.04101
140.884,20.36801,-0.18917,0.31072,1.04079
141.484,20.4256,-0.18949,0.31094,1.04056
142.084,20.48321,-0.19046,0.31119,1.04034
142.684,20.54101,-0.19048,0.31069,1.04012
143.284,20.59893,-0.19105,0.31162,1.03989
143.884,20.65645,-0.1918,0.3119,1.03967
144.484,20.71407,-0.19178,0.31156,1.03944
145.084,20.77163,-0.18915,0.3124,1.03922
145.684,20.82914,-0.18942,0.31197,1.03899
146.284,20.88736,-0.19048,0.31211,1.03876
146.884,20.9444,-0.19023,0.31199,1.03854
147.484,21.00188,-0.18964,0.31407,1.03831
148.084,21.0596,-0.19047,0.31421,1.03808
148.684,21.11704,-0.19047,0.31499,1.03786
149.284,21.1749,-0.19047,0.31576,1.03763
149.884,21.23219,-0.19047,0.31639,1.0374
150.484,21.28966,-0.19048,0.31578,1.03717
151.084,21.34724,-0.19047,0.31755,1.03694
151.684,21.40481,-0.19075,0.31765,1.03671
152.284,21.46268,-0.19081,0.3181,1.03648
152.884,21.52019,-0.19081,0.31934,1.03625
153.484,21.5777,-0.19213,0.31867,1.03602
154.084,21.63532,-0.19213,0.31993,1.03579
154.684,21.6929,-0.19213,0.32073,1.03555
155.284,21.75048,-0.19216,0.32019,1.03532
155.884,21.80801,-0.19348,0.31957,1.03509
156.484,21.86553,-0.1924,0.3224,1.03486
157.084,21.923,-0.19246,0.32248,1.03462
157.684,21.9802,-0.19246,0.32191,1.03439
158.284,22.03763,-0.19274,0.32349,1.03415
158.884,22.09516,-0.19278,0.3265,1.03392
159.484,22.15263,-0.19278,0.32479,1.03368
160.084,22.21034,-0.19412,0.32567,1.03345
160.684,22.2677,-0.1941,0.32485,1.03321
161.284,22.32489,-0.1941,0.32544,1.03298
161.884,22.3825,-0.1941,0.32823,1.03274
162.484,22.44013,-0.1941,0.32851,1.0325
163.084,22.4975,-0.1941,0.3297,1.03227
163.684,22.55503,-0.19417,0.33052,1.03203
164.284,22.61252,-0.19542,0.33051,1.03179
164.884,22.66986,-0.19509,0.33263,1.03155
165.484,22.72737,-0.19509,0.33376,1.03131
166.084,22.7846,-0.19413,0.33191,1.03107
166.684,22.84194,-0.1941,0.33465,1.03083
167.284,22.89929,-0.19411,0.33566,1.03059
167.884,22.95671,-0.19541,0.33565,1.03035
168.484,23.014,-0.19509,0.3356,1.03011
169.084,23.07144,-0.19509,0.33592,1.02987
169.684,23.12885,-0.19509,0.33973,1.02963
170.284,23.18603,-0.1964,0.33974,1.02938
170.884,23.24331,-0.1964,0.33966,1.02914
171.484,23.3007,-0.1964,0.3406,1.0289
172.084,23.35804,-0.1964,0.34146,1.02865
172.684,23.41526,-0.19509,0.34292,1.02841
173.284,23.47263,-0.19641,0.34131,1.02817
173.884,23.53001,-0.1964,0.34222,1.02792
174.484,23.5873,-0.19662,0.3424,1.02768
175.084,23.64464,-0.19641,0.34649,1.02743
175.684,23.70196,-0.19644,0.34659,1.02718
176.284,23.7591,-0.19575,0.34552,1.02694
176.884,23.81653,-0.19674,0.34674,1.02669
177.484,23.8739,-0.19673,0.34927,1.02644
178.084,23.9311,-0.1968,0.34965,1.02619
178.684,23.9884,-0.19805,0.35112,1.02595
179.284,24.04559,-0.19805,0.35116,1.0257
179.884,24.10285,-0.19813,0.35321,1.02545
180.484,24.16,-0.19838,0.35431,1.0252
181.084,24.21707,-0.19838,0.35505,1.02495
181.684,24.27415,-0.19729,0.35664,1.0247
182.284,24.3312,-0.1974,0.35729,1.02445
182.884,24.38841,-0.19736,0.35762,1.0242
183.484,24.44574,-0.19839,0.36001,1.02395
184.084,24.50232,-0.19839,0.35993,1.02369
184.684,24.55933,-0.19839,0.36191,1.02344
185.284,24.616,-0.19936,0.36396,1.02319
185.884,24.67309,-0.20087,0.36437,1.02294
186.484,24.7305,-0.20101,0.36621,1.02268
187.084,24.7876,-0.20101,0.36638,1.02243
187.684,24.84479,-0.2006,0.36887,1.02218
188.284,24.90179,-0.20068,0.37069,1.02192
188.884,24.9588,-0.20068,0.37059,1.02167
189.484,25.01578,-0.20068,0.37385,1.02141
190.084,25.07307,-0.20063,0.37338,1.02115
190.684,25.1301,-0.202,0.37568,1.0209
191.284,25.18714,-0.202,0.37669,1.02064
191.884,25.24417,-0.20227,0.37753,1.02038
192.484,25.30121,-0.20266,0.37985,1.02013
193.084,25.35849,-0.20262,0.38163,1.01987
193.684,25.41568,-0.20365,0.38043,1.01961
194.284,25.4727,-0.20502,0.38232,1.01935
194.884,25.52981,-0.20497,0.38428,1.01909
195.484,25.58686,-0.20497,0.38588,1.01883
196.084,25.64414,-0.20497,0.38747,1.01857
196.684,25.70141,-0.20497,0.39092,1.01831
197.284,25.7586,-0.20531,0.39019,1.01805
197.884,25.81534,-0.2058,0.39159,1.01779
198.484,25.87247,-0.20662,0.3937,1.01753
199.084,25.9295,-0.20793,0.39586,1.01726
199.684,25.9865,-0.20794,0.39968,1.017
200.284,26.04395,-0.20789,0.40246,1.01674
200.884,26.1009,-0.20827,0.4057,1.01648
201.484,26.158,-0.20826,0.40872,1.01621
202.084,26.21518,-0.20958,0.41098,1.01595
202.684,26.27245,-0.20958,0.41208,1.01568
203.284,26.32957,-0.20992,0.41804,1.01542
203.884,26.3866,-0.20991,0.41971,1.01515
204.484,26.4435,-0.20991,0.42362,1.01489
205.084,26.50054,-0.21056,0.42828,1.01462
205.684,26.5576,-0.21056,0.43039,1.01435
206.284,26.61474,-0.21249,0.43595,1.01409
206.884,26.67179,-0.21254,0.43959,1.01382
207.484,26.72875,-0.21488,0.44421,1.01355
208.084,26.78596,-0.21485,0.45041,1.01328
208.684,26.843,-0.21485,0.45311,1.01301
209.284,26.90018,-0.21485,0.46018,1.01274
209.884,26.95719,-0.21487,0.46487,1.01247
210.484,27.01417,-0.21614,0.46976,1.0122
211.084,27.07103,-0.21786,0.47472,1.01193
211.684,27.12792,-0.21781,0.47952,1.01166
212.284,27.1849,-0.21838,0.4878,1.01139
212.884,27.24145,-0.21943,0.49543,1.01112
213.484,27.29843,-0.22045,0.50197,1.01085
214.084,27.35547,-0.22177,0.51043,1.01057
214.684,27.4126,-0.22308,0.51928,1.0103
215.284,27.46977,-0.22405,0.52983,1.01003
215.884,27.5267,-0.22569,0.53992,1.00975
216.484,27.58377,-0.22711,0.54943,1.00948
217.084,27.64082,-0.22814,0.55975,1.0092
217.684,27.69783,-0.22702,0.57127,1.00893
218.284,27.75473,-0.22928,0.58377,1.00865
218.884,27.81172,-0.23248,0.59638,1.00838
219.484,27.86872,-0.23368,0.60749,1.0081
220.084,27.9258,-0.235,0.62333,1.00782
220.684,27.9829,-0.23528,0.64272,1.00755
221.284,28.04015,-0.23636,0.65467,1.00727
221.884,28.0975,-0.23906,0.67287,1.00699
222.484,28.15496,-0.24041,0.69132,1.00671
223.084,28.21218,-0.24188,0.71078,1.00643
223.684,28.2695,-0.24604,0.72642,1.00615
224.284,28.3266,-0.24735,0.74562,1.00587
224.884,28.38379,-0.24999,0.7657,1.00559
225.484,28.4413,-0.25142,0.78416,1.00531
226.084,28.4987,-0.2542,0.79995,1.00503
226.684,28.5564,-0.25631,0.81791,1.00475
227.284,28.61366,-0.26024,0.83447,1.00447
227.884,28.67098,-0.26226,0.84519,1.00419
228.484,28.72825,-0.26842,0.8577,1.0039
229.084,28.7857,-0.27055,0.86566,1.00362
229.684,28.84293,-0.27333,0.87325,1.00334
230.284,28.9002,-0.27512,0.87978,1.00305
230.884,28.9576,-0.27825,0.88113,1.00277
231.484,29.01523,-0.28288,0.88302,1.00248
232.084,29.07256,-0.28607,0.88124,1.0022
232.684,29.12983,-0.28961,0.88003,1.00191
233.284,29.1871,-0.2928,0.87526,1.00162
233.884,29.2445,-0.29596,0.86891,1.00134
234.484,29.30188,-0.30039,0.86388,1.00105
235.084,29.35928,-0.30519,0.85819,1.00076
235.684,29.41654,-0.30844,0.85076,1.00048
236.284,29.47359,-0.31373,0.84453,1.00019
236.884,29.53067,-0.31864,0.83787,0.9999
237.484,29.58757,-0.32198,0.83019,0.99961
238.084,29.64467,-0.32447,0.82271,0.99932
238.684,29.7019,-0.32784,0.81538,0.99903
239.284,29.75905,-0.33159,0.81,0.99874
239.884,29.81614,-0.33481,0.80282,0.99845
240.484,29.8728,-0.3387,0.79698,0.99816
241.084,29.92965,-0.34199,0.79058,0.99786
241.684,29.9867,-0.3451,0.78658,0.99757
242.284,30.04392,-0.35009,0.78145,0.99728
242.884,30.101,-0.35345,0.77665,0.99699
243.484,30.158,-0.35637,0.77386,0.99669
244.084,30.2149,-0.36134,0.77032,0.9964
244.684,30.2721,-0.36453,0.76766,0.99611
245.284,30.32903,-0.36812,0.76695,0.99581
245.884,30.386,-0.37147,0.76541,0.99552
246.484,30.4428,-0.37525,0.76656,0.99522
247.084,30.49976,-0.37971,0.76664,0.99492
247.684,30.55658,-0.38383,0.7682,0.99463
248.284,30.6136,-0.38765,0.76954,0.99433
248.884,30.67055,-0.39189,0.77211,0.99403
249.484,30.7276,-0.39767,0.77479,0.99373
250.084,30.78452,-0.40033,0.77615,0.99344
250.684,30.841,-0.40375,0.77782,0.99314
251.284,30.89813,-0.40689,0.78043,0.99284
251.884,30.9552,-0.41139,0.78112,0.99254
252.484,31.0128,-0.41616,0.78152,0.99224
253.084,31.0702,-0.41994,0.78356,0.99194
253.684,31.12728,-0.42341,0.78607,0.99164
254.284,31.1844,-0.42835,0.7877,0.99134
254.884,31.2416,-0.43284,0.78855,0.99104
255.484,31.29883,-0.43747,0.79162,0.99073
256.084,31.356,-0.44228,0.79312,0.99043
256.684,31.41321,-0.44637,0.7951,0.99013
257.284,31.47017,-0.45046,0.79509,0.98982
257.884,31.52699,-0.45615,0.79974,0.98952
258.484,31.5842,-0.46123,0.7998,0.98922
259.084,31.64122,-0.46608,0.80265,0.98891
259.684,31.69855,-0.47051,0.80265,0.98861
260.284,31.75607,-0.47475,0.80354,0.9883
260.884,31.8132,-0.48001,0.80547,0.98799
261.484,31.87048,-0.48452,0.80842,0.98769
262.084,31.9274,-0.48969,0.811,0.98738
262.684,31.98428,-0.49527,0.81155,0.98707
263.284,32.04163,-0.50176,0.81329,0.98677
263.884,32.09887,-0.50563,0.81601,0.98646
264.484,32.15623,-0.5108,0.81798,0.98615
265.084,32.2134,-0.51584,0.81819,0.98584
265.684,32.2706,-0.52073,0.81988,0.98553
266.284,32.32763,-0.52697,0.82291,0.98522
266.884,32.38475,-0.53279,0.82489,0.98491
267.484,32.44192,-0.53866,0.82646,0.9846
268.084,32.49901,-0.54398,0.82752,0.98429
268.684,32.5561,-0.55067,0.82856,0.98398
269.284,32.61335,-0.55697,0.83057,0.98367
269.884,32.67046,-0.5628,0.8316,0.98335
270.484,32.72779,-0.56842,0.83363,0.98304
271.084,32.78513,-0.57421,0.83508,0.98273
271.684,32.84241,-0.5801,0.83589,0.98241
272.284,32.89968,-0.58503,0.83884,0.9821
272.884,32.95666,-0.59133,0.84129,0.98178
273.484,33.0137,-0.59646,0.84362,0.98147
274.084,33.07053,-0.60332,0.84368,0.98115
274.684,33.1276,-0.60878,0.84578,0.98084
275.284,33.18475,-0.61556,0.84884,0.98052
275.884,33.24191,-0.62345,0.85007,0.9802
276.484,33.2991,-0.62872,0.85163,0.97989
277.084,33.35611,-0.63357,0.85479,0.97957
277.684,33.41322,-0.63794,0.85702,0.97925
278.284,33.4703,-0.64216,0.85941,0.97893
278.884,33.52753,-0.65315,0.86048,0.97861
279.484,33.5847,-0.6598,0.86407,0.97829
280.084,33.6419,-0.66729,0.86608,0.97797
280.684,33.69923,-0.67463,0.86836,0.97765
281.284,33.7563,-0.68129,0.87299,0.97733
281.884,33.81347,-0.68766,0.87462,0.97701
282.484,33.87077,-0.69382,0.87932,0.97669
283.084,33.9279,-0.70104,0.88056,0.97637
283.684,33.9851,-0.70769,0.88461,0.97604
284.284,34.04237,-0.71452,0.88643,0.97572
284.884,34.09966,-0.72279,0.88834,0.9754
285.484,34.15688,-0.72998,0.89147,0.97507
286.084,34.2143,-0.73777,0.89307,0.97475
286.684,34.27152,-0.74501,0.8968,0.97443
287.284,34.3288,-0.75225,0.89889,0.9741
287.884,34.38615,-0.76094,0.89858,0.97377
288.484,34.44357,-0.76774,0.90009,0.97345
289.084,34.50079,-0.77531,0.90257,0.97312
289.684,34.558,-0.78425,0.90256,0.9728
290.284,34.61517,-0.79316,0.90481,0.97247
290.884,34.67222,-0.80053,0.90371,0.97214
291.484,34.72939,-0.80856,0.90652,0.97181
292.084,34.7866,-0.81793,0.90571,0.97148
292.684,34.8437,-0.82503,0.90584,0.97115
293.284,34.90104,-0.83325,0.90485,0.97082
293.884,34.95831,-0.84159,0.90402,0.97049
294.484,35.01559,-0.85064,0.9028,0.97016
295.084,35.0729,-0.85855,0.89917,0.96983
295.684,35.13001,-0.86828,0.89703,0.9695
296.284,35.18724,-0.87678,0.89475,0.96917
296.884,35.24443,-0.88619,0.89,0.96884
297.484,35.3017,-0.89492,0.88517,0.96851
298.084,35.35917,-0.90341,0.88037,0.96817
298.684,35.41662,-0.91176,0.87263,0.96784
299.284,35.47395,-0.92104,0.86816,0.96751
299.884,35.53093,-0.9317,0.85898,0.96717
300.484,35.58815,-0.94061,0.85325,0.96684
301.084,35.6453,-0.9497,0.84223,0.9665
301.684,35.70258,-0.95929,0.83712,0.96617
302.284,35.7599,-0.96882,0.82674,0.96583
302.884,35.81713,-0.97887,0.82104,0.96549
303.484,35.8746,-0.98505,0.81226,0.96516
304.084,35.93217,-0.99322,0.80375,0.96482
304.684,35.98956,-1.00316,0.79729,0.96448
305.284,36.0471,-1.01172,0.7897,0.96414
305.884,36.1045,-1.02217,0.78329,0.9638
306.484,36.16183,-1.03131,0.77578,0.96346
307.084,36.21927,-1.03912,0.77186,0.96312
307.684,36.27649,-1.04745,0.7705,0.96278
308.284,36.33372,-1.05799,0.77109,0.96244
308.884,36.39098,-1.06822,0.7744,0.9621
309.484,36.44835,-1.07812,0.78008,0.96176
310.084,36.50574,-1.08829,0.78394,0.96142
310.684,36.56261,-1.09925,0.79023,0.96108
311.284,36.62004,-1.10849,0.79765,0.96074
311.884,36.67734,-1.11949,0.80769,0.96039
312.484,36.73482,-1.13076,0.81175,0.96005
313.084,36.79268,-1.14173,0.81808,0.9597
313.684,36.85015,-1.15221,0.82486,0.95936
314.284,36.90783,-1.16489,0.82986,0.95902
314.884,36.9654,-1.1755,0.83302,0.95867
315.484,37.02306,-1.18653,0.83652,0.95832
316.084,37.08057,-1.1994,0.84161,0.95798
316.684,37.13805,-1.21187,0.84622,0.95763
317.284,37.19562,-1.2247,0.86221,0.95728
317.884,37.25313,-1.23713,0.87228,0.95694
318.484,37.31065,-1.25157,0.87495,0.95659
319.084,37.36792,-1.26454,0.86609,0.95624
319.684,37.42538,-1.27633,0.85811,0.95589
320.284,37.48278,-1.28875,0.86974,0.95554
320.884,37.54025,-1.30266,0.86783,0.95519
321.484,37.5978,-1.31803,0.87661,0.95484
322.084,37.6554,-1.32973,0.87686,0.95449
322.684,37.7132,-1.3455,0.87015,0.95414
323.284,37.771,-1.36067,0.86888,0.95379
323.884,37.82864,-1.37416,0.8664,0.95344
324.484,37.88613,-1.38723,0.85581,0.95308
325.084,37.94341,-1.40044,0.8531,0.95273
325.684,38.0009,-1.41401,0.84804,0.95238
326.284,38.05833,-1.42617,0.84268,0.95202
326.884,38.11578,-1.44021,0.82782,0.95167
327.484,38.1734,-1.45319,0.82605,0.95132
328.084,38.2309,-1.46621,0.82555,0.95096
328.684,38.28821,-1.48138,0.824,0.95061
329.284,38.34565,-1.49497,0.82792,0.95025
329.884,38.40263,-1.50791,0.82743,0.94989
330.484,38.45989,-1.52025,0.82843,0.94954
331.084,38.5175,-1.53664,0.82972,0.94918
331.684,38.57526,-1.54958,0.83088,0.94882
332.284,38.63333,-1.56344,0.82822,0.94846
332.884,38.6911,-1.57561,0.82601,0.94811
333.484,38.74863,-1.58888,0.82074,0.94775
334.084,38.80637,-1.60211,0.81498,0.94739
334.684,38.86412,-1.61765,0.81223,0.94703
335.284,38.9218,-1.63134,0.81163,0.94667
335.884,38.9794,-1.64539,0.81108,0.94631
336.484,39.03694,-1.6594,0.80858,0.94594
337.084,39.0946,-1.67221,0.80244,0.94558
337.684,39.15225,-1.68658,0.79602,0.94522
338.284,39.20977,-1.6994,0.7888,0.94486
338.884,39.2671,-1.71249,0.78761,0.9445
339.484,39.32475,-1.72605,0.78309,0.94413
340.084,39.3822,-1.73983,0.77807,0.94377
340.684,39.44028,-1.75525,0.77364,0.9434
341.284,39.49825,-1.76522,0.77023,0.94304
341.884,39.5559,-1.77708,0.76318,0.94267
342.484,39.6139,-1.79081,0.75414,0.94231
343.084,39.67154,-1.80356,0.74624,0.94194
343.684,39.72919,-1.81495,0.73739,0.94158
344.284,39.78695,-1.82812,0.73072,0.94121
344.884,39.8446,-1.8402,0.7198,0.94084
345.484,39.90253,-1.85121,0.71438,0.94047
346.084,39.96004,-1.86469,0.7046,0.94011
346.684,40.0175,-1.87658,0.69477,0.93974
347.284,40.07501,-1.88906,0.68572,0.93937
347.884,40.13272,-1.89904,0.67584,0.939
348.484,40.19032,-1.91087,0.67004,0.93863
349.084,40.24812,-1.91916,0.66214,0.93826
349.684,40.30573,-1.93022,0.65584,0.93789
350.284,40.36335,-1.94205,0.64976,0.93752
350.884,40.421,-1.95358,0.64583,0.93714
351.484,40.47874,-1.96301,0.63855,0.93677
352.084,40.536,-1.9726,0.63113,0.9364
352.684,40.59365,-1.98272,0.62363,0.93603
353.284,40.65117,-1.99404,0.61394,0.93565
353.884,40.70882,-2.00257,0.60897,0.93528
354.484,40.76664,-2.01374,0.60243,0.93491
355.084,40.82427,-2.02419,0.59627,0.93453
355.684,40.88205,-2.03351,0.59032,0.93416
356.284,40.93995,-2.04087,0.58501,0.93378
356.884,40.99775,-2.05034,0.58009,0.9334
357.484,41.05557,-2.05876,0.57502,0.93303
358.084,41.11365,-2.06794,0.5701,0.93265
358.684,41.17161,-2.07704,0.5663,0.93227
359.284,41.22955,-2.08596,0.56181,0.93189
359.884,41.2873,-2.09519,0.55809,0.93152
360.484,41.3451,-2.10439,0.55493,0.93114
361.084,41.40279,-2.11216,0.54999,0.93076
361.684,41.46055,-2.12066,0.54349,0.93038
362.284,41.51849,-2.12788,0.54004,0.93
362.884,41.5765,-2.13527,0.53459,0.92962
363.484,41.63433,-2.1436,0.52591,0.92924
364.084,41.6922,-2.15044,0.5226,0.92886
364.684,41.7502,-2.15948,0.51751,0.92847
365.284,41.80806,-2.1684,0.50987,0.92809
365.884,41.86587,-2.17579,0.50716,0.92771
366.484,41.92366,-2.18377,0.50279,0.92733
367.084,41.98165,-2.18862,0.49604,0.92694
367.684,42.03978,-2.19718,0.49123,0.92656
368.284,42.09785,-2.20293,0.48591,0.92617
368.884,42.15575,-2.21029,0.48201,0.92579
369.484,42.2138,-2.21714,0.47893,0.9254
370.084,42.27167,-2.22457,0.47519,0.92502
370.684,42.32969,-2.23164,0.47088,0.92463
371.284,42.38756,-2.23753,0.46728,0.92425
371.884,42.4456,-2.245,0.46146,0.92386
372.484,42.5038,-2.25038,0.45801,0.92347
373.084,42.56198,-2.25676,0.45714,0.92308
373.684,42.62001,-2.26242,0.45253,0.92269
374.284,42.67811,-2.26838,0.44846,0.92231
374.884,42.73617,-2.27416,0.44493,0.92192
375.484,42.79422,-2.28037,0.44222,0.92153
376.084,42.85238,-2.28726,0.43762,0.92114
376.684,42.91049,-2.29319,0.43327,0.92075
377.284,42.96869,-2.29939,0.4313,0.92036
377.884,43.02686,-2.3068,0.42989,0.91996
378.484,43.08497,-2.31027,0.42703,0.91957
379.084,43.14313,-2.31505,0.4233,0.91918
379.684,43.20133,-2.32068,0.41962,0.91879
380.284,43.25958,-2.32606,0.41645,0.91839
380.884,43.31791,-2.33144,0.41331,0.918
381.484,43.37605,-2.33787,0.41149,0.91761
382.084,43.4343,-2.34521,0.41051,0.91721
382.684,43.49259,-2.34876,0.40652,0.91682
383.284,43.55097,-2.35243,0.40348,0.91642
383.884,43.60927,-2.35785,0.40111,0.91603
384.484,43.66769,-2.36384,0.3985,0.91563
385.084,43.7259,-2.36878,0.3965,0.91523
385.684,43.78417,-2.3735,0.39433,0.91484
386.284,43.84217,-2.37914,0.3914,0.91444
386.884,43.9002,-2.38375,0.38939,0.91404
387.484,43.95828,-2.38893,0.38651,0.91364
388.084,44.01678,-2.39317,0.38783,0.91324
388.684,44.07516,-2.39888,0.38463,0.91284
389.284,44.1333,-2.40367,0.38307,0.91244
389.884,44.19144,-2.40839,0.38287,0.91204
390.484,44.2495,-2.41266,0.38015,0.91164
391.084,44.30788,-2.41757,0.37794,0.91124
391.684,44.3662,-2.42149,0.37606,0.91084
392.284,44.42452,-2.42627,0.37372,0.91044
392.884,44.48292,-2.43028,0.37129,0.91004
393.484,44.54104,-2.43379,0.37176,0.90963
394.084,44.59928,-2.43827,0.36854,0.90923
394.684,44.65756,-2.44355,0.36644,0.90883
395.284,44.71543,-2.44843,0.36603,0.90842
395.884,44.7736,-2.45303,0.36435,0.90802
396.484,44.83173,-2.45666,0.36309,0.90761
397.084,44.8902,-2.46125,0.36003,0.90721
397.684,44.94863,-2.46463,0.35883,0.9068
398.284,45.00687,-2.46771,0.35797,0.9064
398.884,45.0649,-2.4718,0.35565,0.90599
399.484,45.1229,-2.47606,0.35482,0.90558
400.084,45.18104,-2.48106,0.35278,0.90518
400.684,45.2393,-2.48342,0.35139,0.90477
401.284,45.29766,-2.4864,0.34821,0.90436
401.884,45.3559,-2.49098,0.34833,0.90395
402.484,45.41418,-2.49459,0.34909,0.90354
403.084,45.47234,-2.49933,0.34537,0.90313
403.684,45.5306,-2.50302,0.34556,0.90272
404.284,45.58875,-2.50717,0.34326,0.90231
404.884,45.64718,-2.5103,0.34298,0.9019
405.484,45.7055,-2.51266,0.33996,0.90149
406.084,45.76382,-2.51709,0.33755,0.90108
406.684,45.82192,-2.521,0.33769,0.90067
407.284,45.88025,-2.52405,0.33811,0.90025
407.884,45.9387,-2.52688,0.33618,0.89984
408.484,45.99709,-2.53047,0.33408,0.89943
409.084,46.0559,-2.53324,0.33171,0.89901
409.684,46.11444,-2.53886,0.33058,0.8986
410.284,46.17295,-2.54304,0.32842,0.89818
410.884,46.23133,-2.54696,0.32844,0.89777
411.484,46.28973,-2.54829,0.32795,0.89735
412.084,46.34827,-2.55022,0.32513,0.89694
412.684,46.40671,-2.55424,0.32485,0.89652
413.284,46.46521,-2.55783,0.32361,0.8961
413.884,46.52364,-2.56201,0.32357,0.89569
414.484,46.58208,-2.56531,0.32168,0.89527
415.084,46.64063,-2.56789,0.32253,0.89485
415.684,46.6991,-2.57146,0.32014,0.89443
416.284,46.7575,-2.5742,0.31994,0.89401
416.884,46.81584,-2.57647,0.31911,0.89359
417.484,46.8741,-2.58114,0.31598,0.89317
418.084,46.93241,-2.58395,0.31646,0.89275
418.684,46.99058,-2.58533,0.3176,0.89233
419.284,47.04878,-2.58933,0.31769,0.89191
419.884,47.1071,-2.59268,0.31487,0.89149
420.484,47.1655,-2.59573,0.31547,0.89107
421.084,47.22403,-2.59757,0.31326,0.89065
421.684,47.28265,-2.60064,0.31409,0.89022
422.284,47.34137,-2.60371,0.31478,0.8898
422.884,47.39987,-2.60515,0.31291,0.88938
423.484,47.45838,-2.60825,0.31125,0.88895
424.084,47.5169,-2.61112,0.31178,0.88853
424.684,47.57548,-2.61441,0.30998,0.8881
425.284,47.63425,-2.616,0.3109,0.88768
425.884,47.6926,-2.61864,0.30749,0.88725
426.484,47.75127,-2.62176,0.30486,0.88683
427.084,47.8099,-2.62503,0.30655,0.8864
427.684,47.8685,-2.62789,0.30501,0.88597
428.284,47.92749,-2.63088,0.30475,0.88554
428.884,47.98617,-2.63466,0.30459,0.88512
429.484,48.04493,-2.63695,0.30485,0.88469
430.084,48.10342,-2.63788,0.30246,0.88426
430.684,48.16199,-2.64023,0.30126,0.88383
431.284,48.22061,-2.64294,0.29972,0.8834
431.884,48.2787,-2.64501,0.29905,0.88297
432.484,48.33702,-2.64763,0.29811,0.88254
433.084,48.39589,-2.65069,0.29794,0.88211
433.684,48.4548,-2.65184,0.29868,0.88168
434.284,48.51405,-2.65513,0.2974,0.88125
434.884,48.57273,-2.65853,0.29641,0.88081
435.484,48.63126,-2.66118,0.29854,0.88038
436.084,48.68996,-2.66312,0.29769,0.87995
436.684,48.74888,-2.66643,0.29551,0.87952
437.284,48.80751,-2.66955,0.29519,0.87908
437.884,48.8658,-2.67082,0.29344,0.87865
438.484,48.92436,-2.67312,0.29378,0.87821
439.084,48.9828,-2.67372,0.29314,0.87778
439.684,49.04187,-2.67676,0.29433,0.87734
440.284,49.10015,-2.67806,0.29508,0.87691
440.884,49.15896,-2.68116,0.29398,0.87647
441.484,49.21784,-2.68322,0.29313,0.87603
442.084,49.27652,-2.68524,0.29181,0.8756
442.684,49.33531,-2.68645,0.29024,0.87516
443.284,49.39393,-2.68787,0.29035,0.87472
443.884,49.45257,-2.69076,0.28952,0.87428
444.484,49.51149,-2.693,0.28896,0.87384
445.084,49.5702,-2.69508,0.28787,0.87341
445.684,49.62892,-2.69827,0.28888,0.87297
446.284,49.6877,-2.70012,0.28666,0.87253
446.884,49.7466,-2.70157,0.28696,0.87209
447.484,49.8054,-2.70333,0.28529,0.87164
448.084,49.86424,-2.70472,0.28462,0.8712
448.684,49.92284,-2.70732,0.28592,0.87076
449.284,49.98152,-2.7094,0.28558,0.87032
449.884,50.04002,-2.71166,0.28364,0.86988
450.484,50.0986,-2.71466,0.28415,0.86943
451.084,50.15743,-2.71594,0.28358,0.86899
451.684,50.21621,-2.7176,0.28276,0.86855
452.284,50.27503,-2.71987,0.28329,0.8681
452.884,50.3339,-2.72023,0.28337,0.86766
453.484,50.3926,-2.72236,0.28216,0.86721
454.084,50.45135,-2.7235,0.28097,0.86677
454.684,50.5101,-2.72572,0.27916,0.86632
455.284,50.56875,-2.72938,0.27912,0.86588
455.884,50.6275,-2.73057,0.27908,0.86543
456.484,50.68633,-2.73123,0.27856,0.86498
457.084,50.74503,-2.73343,0.28011,0.86454
457.684,50.80373,-2.73535,0.28047,0.86409
458.284,50.86251,-2.73653,0.27741,0.86364
458.884,50.92122,-2.73898,0.27558,0.86319
459.484,50.98001,-2.74075,0.27575,0.86274
460.084,51.03898,-2.74363,0.2749,0.86229
460.684,51.09779,-2.7456,0.27577,0.86184
461.284,51.15678,-2.74711,0.27641,0.86139
461.884,51.2157,-2.74967,0.27564,0.86094
462.484,51.27458,-2.74889,0.27675,0.86049
463.084,51.33348,-2.75153,0.27476,0.86004
463.684,51.39222,-2.75278,0.27437,0.85959
464.284,51.4512,-2.75561,0.27442,0.85914
464.884,51.51021,-2.75744,0.27397,0.85868
465.484,51.56907,-2.75887,0.27218,0.85823
466.084,51.62786,-2.76017,0.27244,0.85778
466.684,51.68674,-2.7615,0.27285,0.85732
467.284,51.7454,-2.76191,0.27162,0.85687
467.884,51.8043,-2.76293,0.27269,0.85641
468.484,51.8632,-2.76532,0.27224,0.85596
469.084,51.92228,-2.76792,0.27073,0.8555
469.684,51.9812,-2.76984,0.27185,0.85505
470.284,52.03999,-2.77203,0.27003,0.85459
470.884,52.09876,-2.77336,0.26881,0.85413
471.484,52.15766,-2.77467,0.26808,0.85368
472.084,52.2169,-2.7761,0.26896,0.85322
472.684,52.27597,-2.77913,0.26952,0.85276
473.284,52.3352,-2.78037,0.26795,0.8523
473.884,52.39424,-2.78075,0.26526,0.85185
474.484,52.45326,-2.78171,0.26647,0.85139
475.084,52.5124,-2.78296,0.26615,0.85093
475.684,52.5714,-2.78443,0.26498,0.85047
476.284,52.63044,-2.78667,0.26376,0.85001
476.884,52.6893,-2.78825,0.26527,0.84955
477.484,52.7481,-2.7882,0.26235,0.84909
478.084,52.8072,-2.7896,0.26469,0.84862
478.684,52.86636,-2.79224,0.26249,0.84816
479.284,52.92567,-2.79385,0.26448,0.8477
479.884,52.9848,-2.79502,0.26523,0.84724
480.484,53.04391,-2.79539,0.26405,0.84677
481.084,53.1029,-2.79962,0.26385,0.84631
481.684,53.162,-2.79974,0.26467,0.84585
482.284,53.2208,-2.8006,0.26281,0.84538
482.884,53.27969,-2.80219,0.26379,0.84492
483.484,53.3389,-2.80321,0.26381,0.84445
484.084,53.39774,-2.80454,0.26511,0.84399
484.684,53.4571,-2.80575,0.26354,0.84352
485.284,53.5163,-2.80855,0.26337,0.84306
485.884,53.5753,-2.80866,0.26022,0.84259
486.484,53.63451,-2.80993,0.26158,0.84212
487.084,53.69353,-2.81122,0.25909,0.84166
487.684,53.75285,-2.81165,0.26071,0.84119
488.284,53.8123,-2.81256,0.26094,0.84072
488.884,53.87145,-2.81516,0.26067,0.84025
489.484,53.9306,-2.81649,0.26158,0.83978
490.084,53.98976,-2.81781,0.25995,0.83931
490.684,54.0488,-2.81781,0.26305,0.83884
491.284,54.1081,-2.81909,0.26112,0.83837
491.884,54.1674,-2.82044,0.25924,0.8379
492.484,54.2263,-2.82166,0.25905,0.83743
493.084,54.28558,-2.82361,0.25924,0.83696
493.684,54.34423,-2.82517,0.25911,0.83649
494.284,54.40353,-2.82713,0.25784,0.83602
494.884,54.46297,-2.82703,0.26083,0.83555
495.484,54.5225,-2.8276,0.2602,0.83507
496.084,54.58189,-2.83053,0.25966,0.8346
496.684,54.6411,-2.83205,0.26071,0.83413
497.284,54.7002,-2.83265,0.26103,0.83365
497.884,54.75955,-2.8323,0.25888,0.83318
498.484,54.81879,-2.83361,0.25806,0.8327
499.084,54.87781,-2.83542,0.25867,0.83223
499.684,54.937,-2.83639,0.25914,0.83175
500.284,54.99605,-2.83755,0.26122,0.83128
500.884,55.0552,-2.83706,0.2581,0.8308
501.484,55.1144,-2.83932,0.25711,0.83032
502.084,55.1734,-2.8405,0.2576,0.82985
502.684,55.2325,-2.84186,0.25865,0.82937
503.284,55.2918,-2.84317,0.25704,0.82889
503.884,55.35119,-2.84318,0.25731,0.82841
504.484,55.41044,-2.84449,0.25851,0.82794
505.084,55.4696,-2.8458,0.25868,0.82746
505.684,55.52839,-2.84568,0.25699,0.82698
506.284,55.58772,-2.84679,0.25847,0.8265
506.884,55.64694,-2.84809,0.2587,0.82602
507.484,55.70641,-2.84954,0.25812,0.82554
508.084,55.7656,-2.85032,0.25733,0.82506
508.684,55.82475,-2.84954,0.25613,0.82458
509.284,55.88386,-2.8495,0.25591,0.8241
509.884,55.94321,-2.85153,0.25554,0.82361
510.484,56.00246,-2.85295,0.25495,0.82313
511.084,56.0617,-2.85427,0.25506,0.82265
511.684,56.121,-2.85427,0.25458,0.82217
512.284,56.1801,-2.85558,0.25637,0.82168
512.884,56.2392,-2.85521,0.25343,0.8212
513.484,56.2983,-2.8574,0.25578,0.82072
514.084,56.3574,-2.859,0.25552,0.82023
514.684,56.4167,-2.8592,0.2547,0.81975
515.284,56.4758,-2.8592,0.25689,0.81926
515.884,56.5351,-2.85947,0.25623,0.81878
516.484,56.59425,-2.86052,0.25963,0.81829
517.084,56.65355,-2.86202,0.25827,0.8178
517.684,56.7127,-2.86314,0.26082,0.81732
518.284,56.77186,-2.86178,0.26114,0.81683
518.884,56.83113,-2.8633,0.26201,0.81634
519.484,56.8906,-2.86458,0.2653,0.81585
520.084,56.9501,-2.86458,0.26527,0.81537
520.684,57.0093,-2.86718,0.26522,0.81488
521.284,57.06876,-2.86849,0.26653,0.81439
521.884,57.12809,-2.86858,0.26745,0.8139
522.484,57.1876,-2.86797,0.26581,0.81341
523.084,57.24728,-2.86853,0.26729,0.81292
523.684,57.3068,-2.86854,0.2669,0.81243
524.284,57.366,-2.86985,0.26928,0.81194
524.884,57.4254,-2.87122,0.26748,0.81145
525.484,57.48465,-2.87116,0.26878,0.81096
526.084,57.5445,-2.87249,0.26821,0.81047
526.684,57.6041,-2.87347,0.26952,0.80997
527.284,57.66356,-2.87382,0.26674,0.80948
527.884,57.7232,-2.87512,0.26753,0.80899
528.484,57.7828,-2.87512,0.26816,0.8085
529.084,57.84228,-2.87771,0.26747,0.808
529.684,57.90197,-2.87672,0.26928,0.80751
530.284,57.96161,-2.8778,0.26849,0.80701
530.884,58.02129,-2.87709,0.2672,0.80652
531.484,58.0808,-2.87775,0.26901,0.80603
532.084,58.14034,-2.87909,0.26741,0.80553
532.684,58.1998,-2.88006,0.26936,0.80503
533.284,58.25931,-2.88006,0.2728,0.80454
533.884,58.3188,-2.88137,0.27141,0.80404
534.484,58.3782,-2.88269,0.26923,0.80355
535.084,58.43766,-2.88275,0.27138,0.80305
535.684,58.49711,-2.88268,0.26958,0.80255
536.284,58.55679,-2.88305,0.27115,0.80205
536.884,58.61623,-2.88434,0.27042,0.80156
537.484,58.67559,-2.88566,0.27263,0.80106
538.084,58.73486,-2.88697,0.27369,0.80056
538.684,58.7941,-2.88773,0.27192,0.80006
539.284,58.85365,-2.88829,0.27305,0.79956
539.884,58.913,-2.8897,0.27327,0.79906
540.484,58.9726,-2.88972,0.27269,0.79856
541.084,59.03193,-2.89093,0.27233,0.79806
541.684,59.09129,-2.89092,0.27378,0.79756
542.284,59.15075,-2.89224,0.27499,0.79706
542.884,59.21026,-2.89224,0.2758,0.79656
543.484,59.26976,-2.89224,0.2755,0.79605
544.084,59.32915,-2.89192,0.2782,0.79555
544.684,59.3886,-2.89323,0.27839,0.79505
545.284,59.44798,-2.89325,0.27787,0.79455
545.884,59.50759,-2.89318,0.27903,0.79404
546.484,59.56714,-2.89442,0.28036,0.79354
547.084,59.6265,-2.89584,0.27923,0.79304
547.684,59.6855,-2.89587,0.28013,0.79253
548.284,59.745,-2.89587,0.28011,0.79203
548.884,59.80463,-2.89586,0.28148,0.79152
549.484,59.86466,-2.89586,0.28192,0.79102
550.084,59.92428,-2.89709,0.28027,0.79051
550.684,59.98365,-2.89749,0.28305,0.79
551.284,60.04289,-2.8985,0.28281,0.7895
551.884,60.1026,-2.8985,0.28394,0.78899
552.484,60.16215,-2.89982,0.28515,0.78848
553.084,60.22185,-2.90112,0.28452,0.78798
553.684,60.2815,-2.90113,0.28326,0.78747
554.284,60.3411,-2.90248,0.28515,0.78696
554.884,60.40056,-2.90245,0.28692,0.78645
555.484,60.4602,-2.90245,0.29435,0.78594
556.084,60.5199,-2.90213,0.29498,0.78544
556.684,60.5797,-2.90212,0.29518,0.78493
557.284,60.6395,-2.90244,0.3004,0.78442
557.884,60.6991,-2.90507,0.29937,0.78391
558.484,60.75857,-2.90509,0.30103,0.7834
559.084,60.8181,-2.9064,0.30391,0.78289
559.684,60.8773,-2.90635,0.30317,0.78237
560.284,60.9371,-2.90772,0.3033,0.78186
560.884,60.9968,-2.90771,0.30242,0.78135
561.484,61.05669,-2.90844,0.30475,0.78084
562.084,61.11662,-2.9091,0.30522,0.78033
562.684,61.1765,-2.90905,0.30575,0.77982
563.284,61.23614,-2.91167,0.30553,0.7793
563.884,61.29606,-2.91168,0.30631,0.77879
564.484,61.3555,-2.912,0.30773,0.77828
565.084,61.4153,-2.91383,0.30794,0.77776
565.684,61.4749,-2.91464,0.30862,0.77725
566.284,61.53468,-2.91464,0.31136,0.77673
566.884,61.5943,-2.91464,0.30775,0.77622
567.484,61.65395,-2.91415,0.30948,0.7757
568.084,61.71355,-2.91398,0.31108,0.77519
568.684,61.7732,-2.91332,0.30868,0.77467
569.284,61.8329,-2.91332,0.30946,0.77416
569.884,61.8926,-2.91533,0.30878,0.77364
570.484,61.95239,-2.91596,0.30936,0.77312
571.084,62.01209,-2.9146,0.30727,0.7726
571.684,62.0717,-2.91544,0.30777,0.77209
572.284,62.13151,-2.91596,0.30725,0.77157
572.884,62.19138,-2.91807,0.3067,0.77105
573.484,62.25136,-2.91873,0.30881,0.77053
574.084,62.31126,-2.9187,0.31035,0.77001
574.684,62.37098,-2.92002,0.30957,0.7695
575.284,62.4308,-2.92002,0.30908,0.76898
575.884,62.4906,-2.92134,0.3099,0.76846
576.484,62.5506,-2.92134,0.31075,0.76794
577.084,62.61042,-2.92137,0.31003,0.76742
577.684,62.67029,-2.92134,0.31191,0.7669
578.284,62.7302,-2.92266,0.30972,0.76638
578.884,62.7902,-2.92397,0.31356,0.76585
579.484,62.85004,-2.92529,0.31355,0.76533
580.084,62.90987,-2.92562,0.31326,0.76481
580.684,62.9694,-2.92562,0.31254,0.76429
581.284,63.0287,-2.9243,0.31319,0.76377
581.884,63.0884,-2.9243,0.31089,0.76324
582.484,63.14838,-2.92562,0.3141,0.76272
583.084,63.20876,-2.92694,0.31356,0.7622
583.684,63.2691,-2.92694,0.31204,0.76167
584.284,63.32875,-2.92661,0.31463,0.76115
584.884,63.3886,-2.92792,0.31383,0.76063
585.484,63.44848,-2.92792,0.3152,0.7601
586.084,63.50832,-2.92891,0.31545,0.75958
586.684,63.56816,-2.93077,0.31661,0.75905
587.284,63.628,-2.93076,0.31674,0.75853
587.884,63.68789,-2.93082,0.31919,0.758
588.484,63.74791,-2.93072,0.31901,0.75747
589.084,63.80761,-2.93229,0.3175,0.75695
589.684,63.8673,-2.93121,0.31689,0.75642
590.284,63.9268,-2.93253,0.31898,0.75589
590.884,63.9866,-2.93253,0.31779,0.75537
591.484,64.0467,-2.93253,0.32084,0.75484
592.084,64.1066,-2.93253,0.31929,0.75431
592.684,64.1671,-2.93252,0.32043,0.75378
593.284,64.22716,-2.93384,0.31969,0.75326
593.884,64.287,-2.93376,0.32166,0.75273
594.484,64.3469,-2.93634,0.32072,0.7522
595.084,64.40681,-2.93648,0.32114,0.75167
595.684,64.46674,-2.93752,0.32332,0.75114
596.284,64.5269,-2.93649,0.32265,0.75061
596.884,64.58697,-2.93767,0.32417,0.75008
597.484,64.64684,-2.93781,0.32363,0.74955
598.084,64.7068,-2.93781,0.32373,0.74902
598.684,64.76684,-2.94013,0.32308,0.74849
599.284,64.82674,-2.94011,0.32602,0.74796
599.884,64.8867,-2.94142,0.32526,0.74742
600.484,64.9466,-2.94062,0.32309,0.74689
601.084,65.0065,-2.94022,0.32303,0.74636
601.684,65.0664,-2.9401,0.32458,0.74583
602.284,65.1264,-2.94111,0.32499,0.74529
602.884,65.1863,-2.9411,0.32487,0.74476
603.484,65.2463,-2.94131,0.32238,0.74423
604.084,65.30632,-2.94004,0.32551,0.7437
604.684,65.36635,-2.94146,0.3252,0.74316
605.284,65.4263,-2.9427,0.32506,0.74263
605.884,65.48642,-2.9441,0.32547,0.74209
606.484,65.5463,-2.94374,0.3263,0.74156
607.084,65.60644,-2.94376,0.32659,0.74102
607.684,65.66656,-2.94407,0.32532,0.74049
608.284,65.72664,-2.94541,0.32403,0.73995
608.884,65.78685,-2.94682,0.32394,0.73942
609.484,65.84699,-2.94811,0.32311,0.73888
610.084,65.907,-2.9478,0.32356,0.73834
610.684,65.96704,-2.94813,0.32388,0.73781
611.284,66.0271,-2.94829,0.32242,0.73727
611.884,66.08715,-2.9501,0.32255,0.73673
612.484,66.14746,-2.9501,0.32348,0.7362
613.084,66.20759,-2.9501,0.32398,0.73566
613.684,66.2679,-2.94909,0.32397,0.73512
614.284,66.32807,-2.9501,0.32353,0.73458
614.884,66.38808,-2.9501,0.32089,0.73404
615.484,66.4481,-2.9501,0.3201,0.73351
616.084,66.50809,-2.95002,0.32451,0.73297
616.684,66.56829,-2.95409,0.32431,0.73243
617.284,66.62854,-2.95444,0.32299,0.73189
617.884,66.6883,-2.95438,0.32225,0.73135
618.484,66.74831,-2.95438,0.32334,0.73081
619.084,66.80832,-2.95407,0.3219,0.73027
619.684,66.8685,-2.95403,0.32066,0.72973
620.284,66.92895,-2.95273,0.31971,0.72919
620.884,66.98905,-2.95405,0.32076,0.72865
621.484,67.0489,-2.95405,0.32345,0.7281
622.084,67.10889,-2.95405,0.32414,0.72756
622.684,67.169,-2.95538,0.32041,0.72702
623.284,67.22925,-2.95537,0.32253,0.72648
623.884,67.28956,-2.95669,0.32256,0.72594
624.484,67.3497,-2.95669,0.32462,0.72539
625.084,67.40981,-2.958,0.3212,0.72485
625.684,67.46999,-2.95734,0.32067,0.72431
626.284,67.5299,-2.95866,0.31961,0.72376
626.884,67.5901,-2.95866,0.32011,0.72322
627.484,67.65018,-2.95867,0.3206,0.72268
628.084,67.71002,-2.95998,0.32242,0.72213
628.684,67.7701,-2.95933,0.32215,0.72159
629.284,67.83026,-2.96064,0.31873,0.72104
629.884,67.89046,-2.96064,0.32106,0.7205
630.484,67.95089,-2.96064,0.32056,0.71995
631.084,68.01106,-2.96064,0.31919,0.71941
631.684,68.07119,-2.96064,0.31778,0.71886
632.284,68.13154,-2.96202,0.31615,0.71832
632.884,68.19171,-2.96064,0.31777,0.71777
633.484,68.2517,-2.96065,0.31833,0.71722
634.084,68.31172,-2.96196,0.31778,0.71668
634.684,68.37131,-2.96205,0.31874,0.71613
635.284,68.4313,-2.96328,0.31443,0.71558
635.884,68.49128,-2.96328,0.31305,0.71504
636.484,68.55158,-2.96339,0.31191,0.71449
637.084,68.61192,-2.96459,0.31285,0.71394
637.684,68.6722,-2.9646,0.31099,0.71339
638.284,68.73232,-2.96591,0.31151,0.71284
638.884,68.79245,-2.96591,0.31065,0.71229
639.484,68.85239,-2.96461,0.30994,0.71175
640.084,68.91245,-2.96459,0.30977,0.7112
640.684,68.9727,-2.96461,0.30893,0.71065
641.284,69.03291,-2.96591,0.30626,0.7101
641.884,69.09326,-2.96724,0.30645,0.70955
642.484,69.15342,-2.96723,0.30541,0.709
643.084,69.21345,-2.96853,0.30296,0.70845
643.684,69.2737,-2.96853,0.30315,0.7079
644.284,69.33385,-2.96986,0.30356,0.70735
644.884,69.3943,-2.97027,0.3031,0.7068
645.484,69.4545,-2.97084,0.30287,0.70625
646.084,69.51481,-2.97217,0.29817,0.70569
646.684,69.57508,-2.97171,0.30163,0.70514
647.284,69.63535,-2.97217,0.29913,0.70459
647.884,69.6955,-2.97217,0.29858,0.70404
648.484,69.75579,-2.97371,0.29982,0.70349
649.084,69.81604,-2.97367,0.29937,0.70293
649.684,69.8763,-2.97231,0.29992,0.70238
650.284,69.93648,-2.97238,0.2984,0.70183
650.884,69.99674,-2.97238,0.29875,0.70127
651.484,70.05667,-2.97303,0.29727,0.70072
652.084,70.117,-2.97369,0.29405,0.70017
652.684,70.17736,-2.97469,0.29495,0.69961
653.284,70.23796,-2.97644,0.29399,0.69906
653.884,70.29841,-2.97592,0.29179,0.69851
654.484,70.3587,-2.97513,0.29222,0.69795
655.084,70.41932,-2.97514,0.29404,0.6974
655.684,70.47968,-2.97579,0.29339,0.69684
656.284,70.53994,-2.97546,0.29336,0.69629
656.884,70.6002,-2.97645,0.29305,0.69573
657.484,70.6606,-2.97645,0.29003,0.69518
658.084,70.7212,-2.97645,0.29121,0.69462
658.684,70.78182,-2.97645,0.28922,0.69406
659.284,70.84219,-2.97548,0.28882,0.69351
659.884,70.90275,-2.97548,0.28712,0.69295
660.484,70.96311,-2.97513,0.29414,0.69239
661.084,71.02355,-2.97787,0.29153,0.69184
661.684,71.08373,-2.97931,0.2942,0.69128
662.284,71.1443,-2.97923,0.29546,0.69072
662.884,71.20498,-2.97832,0.29516,0.69017
663.484,71.26566,-2.97832,0.29661,0.68961
664.084,71.32629,-2.97959,0.29365,0.68905
664.684,71.38655,-2.97963,0.29431,0.68849
665.284,71.44696,-2.98103,0.29358,0.68793
665.884,71.50738,-2.97996,0.29454,0.68738
666.484,71.56783,-2.97996,0.29195,0.68682
667.084,71.62791,-2.97996,0.29277,0.68626
667.684,71.68804,-2.98127,0.29673,0.6857
668.284,71.7482,-2.98121,0.29583,0.68514
668.884,71.8087,-2.9826,0.29572,0.68458
669.484,71.869,-2.98261,0.29769,0.68402
670.084,71.9292,-2.98391,0.29806,0.68346
670.684,71.98943,-2.98391,0.29667,0.6829
671.284,72.04965,-2.98389,0.29551,0.68234
671.884,72.10991,-2.9849,0.29711,0.68178
672.484,72.17021,-2.9849,0.29654,0.68122
673.084,72.2306,-2.98528,0.29421,0.68066
673.684,72.2908,-2.98556,0.2921,0.6801
674.284,72.351,-2.98556,0.29189,0.67954
674.884,72.41113,-2.98488,0.29216,0.67898
675.484,72.47137,-2.98622,0.29191,0.67841
676.084,72.53157,-2.98753,0.29479,0.67785
676.684,72.5919,-2.98753,0.29447,0.67729
677.284,72.6523,-2.98753,0.29664,0.67673
677.884,72.71251,-2.98753,0.29531,0.67617
678.484,72.77294,-2.98884,0.29626,0.6756
679.084,72.83332,-2.98885,0.29642,0.67504
679.684,72.89372,-2.98885,0.29465,0.67448
680.284,72.95413,-2.98819,0.2942,0.67392
680.884,73.0144,-2.9882,0.29278,0.67335
681.484,73.0748,-2.98845,0.29295,0.67279
682.084,73.1352,-2.98952,0.29612,0.67223
682.684,73.19559,-2.99052,0.29706,0.67166
683.284,73.25524,-2.99051,0.29281,0.6711
683.884,73.31554,-2.99051,0.29456,0.67053
684.484,73.37603,-2.99051,0.29217,0.66997
685.084,73.43672,-2.99093,0.29375,0.6694
685.684,73.49763,-2.99139,0.29449,0.66884
686.284,73.55805,-2.9915,0.29634,0.66828
686.884,73.6185,-2.99215,0.2948,0.66771
687.484,73.67876,-2.99079,0.2942,0.66715
688.084,73.7393,-2.99177,0.29437,0.66658
688.684,73.79991,-2.99281,0.29343,0.66601
689.284,73.8605,-2.99413,0.29307,0.66545
689.884,73.9208,-2.99413,0.29505,0.66488
690.484,73.9811,-2.99413,0.2947,0.66432
691.084,74.04135,-2.99413,0.29748,0.66375
691.684,74.10164,-2.99544,0.29818,0.66318
692.284,74.16215,-2.99544,0.29798,0.66262
692.884,74.22265,-2.99602,0.2957,0.66205
693.484,74.28278,-2.99544,0.29499,0.66148
694.084,74.3433,-2.99645,0.294,0.66092
694.684,74.40364,-2.99643,0.29694,0.66035
695.284,74.46404,-2.99643,0.30012,0.65978
695.884,74.52458,-2.99676,0.29417,0.65922
696.484,74.58501,-2.99676,0.29887,0.65865
697.084,74.6453,-2.99763,0.29644,0.65808
697.684,74.70565,-2.99745,0.29527,0.65751
698.284,74.76576,-2.99708,0.29115,0.65694
698.884,74.82594,-2.99848,0.2952,0.65638
699.484,74.88589,-2.9984,0.29526,0.65581
700.084,74.946,-2.99874,0.29543,0.65524
700.684,75.006,-2.99972,0.29812,0.65467
701.284,75.06602,-2.99985,0.29624,0.6541
701.884,75.12616,-3.00071,0.29656,0.65353
702.484,75.18645,-3.00202,0.29666,0.65296
703.084,75.2467,-3.00203,0.30081,0.65239
703.684,75.30695,-3.0007,0.29799,0.65182
704.284,75.36713,-3.00202,0.2957,0.65126
704.884,75.42742,-3.00202,0.29875,0.65069
705.484,75.4876,-3.00202,0.29651,0.65012
706.084,75.54774,-3.00336,0.29502,0.64955
706.684,75.60801,-3.00204,0.29628,0.64898
707.284,75.66845,-3.00203,0.29374,0.6484
707.884,75.72873,-3.00335,0.29357,0.64783
708.484,75.7891,-3.00369,0.29115,0.64726
709.084,75.8494,-3.00368,0.2938,0.64669
709.684,75.90998,-3.00368,0.29201,0.64612
710.284,75.9706,-3.00499,0.29484,0.64555
710.884,76.03138,-3.005,0.2934,0.64498
711.484,76.09183,-3.00632,0.28839,0.64441
712.084,76.15222,-3.00576,0.29349,0.64384
712.684,76.21275,-3.00499,0.29342,0.64327
713.284,76.27335,-3.00499,0.29438,0.64269
713.884,76.33378,-3.00499,0.29316,0.64212
714.484,76.39452,-3.00499,0.29052,0.64155
715.084,76.455,-3.00498,0.29151,0.64098
715.684,76.5159,-3.00631,0.29208,0.64041
716.284,76.57644,-3.00694,0.28901,0.63983
716.884,76.63723,-3.00763,0.28907,0.63926
717.484,76.6978,-3.00649,0.28904,0.63869
718.084,76.75848,-3.00763,0.28884,0.63812
718.684,76.81916,-3.00763,0.29136,0.63754
719.284,76.87985,-3.00763,0.28882,0.63697
719.884,76.94017,-3.00665,0.28968,0.6364
720.484,77.0009,-3.00795,0.29089,0.63582
721.084,77.06165,-3.00795,0.28665,0.63525
721.684,77.1227,-3.00828,0.28726,0.63468
722.284,77.18349,-3.00828,0.2859,0.6341
722.884,77.2441,-3.0096,0.28669,0.63353
723.484,77.30455,-3.0096,0.28658,0.63296
724.084,77.36495,-3.00846,0.28848,0.63238
724.684,77.42545,-3.00961,0.28712,0.63181
725.284,77.48574,-3.01119,0.28579,0.63123
725.884,77.54639,-3.01224,0.2835,0.63066
726.484,77.6071,-3.01233,0.28631,0.63009
727.084,77.66794,-3.01093,0.2854,0.62951
727.684,77.729,-3.01187,0.2858,0.62894
728.284,77.7898,-3.01224,0.2841,0.62836
728.884,77.8502,-3.01224,0.28346,0.62779
729.484,77.9103,-3.01158,0.28399,0.62721
730.084,77.9708,-3.0129,0.28399,0.62664
730.684,78.03147,-3.0129,0.28151,0.62606
731.284,78.09255,-3.0144,0.28431,0.62549
731.884,78.1533,-3.0144,0.28304,0.62491
732.484,78.21379,-3.01312,0.2829,0.62433
733.084,78.27415,-3.01388,0.28783,0.62376
733.684,78.33463,-3.01444,0.28519,0.62318
734.284,78.39515,-3.01444,0.28322,0.62261
734.884,78.45561,-3.01444,0.28265,0.62203
735.484,78.51626,-3.01441,0.27986,0.62146
736.084,78.57679,-3.01507,0.27739,0.62088
736.684,78.63758,-3.01378,0.27968,0.6203
737.284,78.69806,-3.01444,0.27665,0.61973
737.884,78.7587,-3.01444,0.27638,0.61915
738.484,78.81942,-3.01381,0.27914,0.61857
739.084,78.87992,-3.01476,0.27579,0.618
739.684,78.9406,-3.01475,0.27767,0.61742
740.284,79.00109,-3.01608,0.27909,0.61684
740.884,79.06159,-3.01608,0.27687,0.61627
741.484,79.12201,-3.01608,0.2752,0.61569
742.084,79.1823,-3.01608,0.27781,0.61511
742.684,79.2427,-3.01607,0.27759,0.61454
743.284,79.30301,-3.01575,0.27817,0.61396
743.884,79.36346,-3.01714,0.27933,0.61338
744.484,79.42413,-3.0186,0.27801,0.6128
745.084,79.48482,-3.01711,0.27829,0.61223
745.684,79.54549,-3.01575,0.27754,0.61165
746.284,79.60628,-3.01575,0.27951,0.61107
746.884,79.667,-3.01574,0.27855,0.61049
747.484,79.72775,-3.01707,0.27845,0.60992
748.084,79.7884,-3.01707,0.27891,0.60934
748.684,79.84889,-3.01706,0.27761,0.60876
749.284,79.90938,-3.01805,0.27581,0.60818
749.884,79.96929,-3.01805,0.27902,0.6076
750.184,79.99936,-3.01805,0.27722,0.60731