File: 01_Data/Standard_Gypsum_Wallboard/Cone/Standard_Gypsum_Wallboard_Cone_HF50Scan_220511_R2.csv
Names,Time,Stack TC,Smoke TC,Exh Press,Smoke Comp,Smoke Meas,CO Meter,CO2 Meter,O2 Meter,Sample Mass,Ext Coeff,Start Test,Flame Verif
Chan Gain,,500,500,1,1,1,1,1,1,1,1,1.0,1.0
Offset,,0,0,0.138628,0,0,0,0,0,0,0,0.0,0.0
Gain,,1,1,25.011,13.1256,14.6231,1,1,1,1.001,0.958019,1.0,1.0
Units,sec,C,C,Pa,%,%,%,%,%,g,/m,,
Baseline,,34.1308,35.3929,135.014,99.8102,100.539,0.000298685,0.0414269,21.006,-445.267,-0.06108,,
2,0.25,31.6335,33.4324,135.887,99.5013,99.7519,0.000391748,0.0446668,21.0019,127.848,-0.0211409,0.0,0.0
4,0.75,31.7627,33.7851,136.652,99.4909,99.9737,0.000420226,0.04482,21.0016,127.768,-0.0406846,0.0,0.0
6,1.25,30.9024,32.2596,134.29,99.4881,99.9251,0.000432367,0.0450145,21.0015,127.598,-0.0368325,0.0,0.0
8,1.75,30.7058,31.7756,133.688,99.4857,100.336,0.000455031,0.0451721,21.0013,127.528,-0.0714924,0.0,0.0
10,2.25,30.2677,31.3964,136.79,99.4945,100.459,0.000475101,0.0453069,21.0012,127.498,-0.0810953,0.0,0.0
12,2.75,30.5208,32.1318,132.861,99.4861,100.647,0.000491358,0.0454225,21.0011,127.538,-0.0975068,0.0,0.0
14,3.25,30.5557,31.3111,133.011,99.4889,100.533,0.000504527,0.045509,21.001,127.618,-0.0877263,0.0,0.0
16,3.75,30.5014,32.0525,131.215,99.4833,100.434,0.000512021,0.0455727,21.0009,127.618,-0.0799144,0.0,0.0
18,4.25,30.5499,31.5174,136.188,99.4833,99.9126,0.000515237,0.0455998,21.0008,127.578,-0.0361876,0.0,0.0
20,4.75,30.6657,31.7506,134.364,99.4749,99.9304,0.000517842,0.0456462,21.0008,127.538,-0.0383988,0.0,0.0
22,5.25,30.6873,32.3149,136.395,99.4873,100.49,0.000506001,0.0456553,21.0007,127.548,-0.0842422,0.0,0.0
24,5.75,30.3486,31.4426,135.499,99.4576,100.239,0.000483853,0.045637,21.0007,127.558,-0.0657838,0.0,0.0
26,6.25,30.4657,31.9009,134.66,99.4716,99.789,0.000465914,0.0455794,21.0006,127.558,-0.0267645,0.0,0.0
28,6.75,30.4804,31.8465,132.587,99.4708,100.216,0.000442953,0.0454943,21.0006,127.628,-0.0626837,0.0,0.0
30,7.25,30.7244,31.9925,134.557,99.4548,100.24,0.000424355,0.0454254,21.0006,127.538,-0.0660584,0.0,0.0
32,7.75,30.6688,31.8497,134.765,99.4464,99.892,0.000408086,0.0453268,21.0006,127.508,-0.0375741,0.0,0.0
34,8.25,30.4856,31.6532,132.643,99.4492,100.222,0.000394908,0.0452085,21.0006,127.488,-0.0650725,0.0,0.0
36,8.75,30.7697,32.1746,132.811,99.4424,100.123,0.000387846,0.0451127,21.0006,127.488,-0.0573371,0.0,0.0
38,9.25,30.5921,31.8153,135.17,99.458,100.027,0.000382126,0.0448727,21.0006,127.468,-0.0479226,0.0,0.0
40,9.75,30.7926,31.8953,136.005,99.4352,99.8653,0.000385924,0.0446783,21.0006,127.458,-0.0362691,0.0,0.0
42,10.25,30.4738,31.9075,131.79,99.4424,100.104,0.000389,0.0444938,21.0005,127.448,-0.0557265,0.0,0.0
44,10.75,30.7127,31.8711,137.53,99.4356,99.8202,0.000392759,0.0443443,21.0005,127.418,-0.0324411,0.0,0.0
46,11.25,30.7031,31.1967,133.261,99.4348,100.469,0.000396946,0.0442503,21.0005,127.418,-0.086959,0.0,0.0
48,11.75,31.3833,32.1126,137.898,99.4244,100.023,0.000400336,0.0441742,21.0005,127.418,-0.0504282,0.0,0.0
50,12.25,30.6406,31.7958,134.183,99.438,99.8251,0.000403083,0.0441125,21.0005,127.388,-0.0326508,0.0,0.0
52,12.75,31.0593,32.1946,135.195,99.426,100.112,0.000405308,0.0440625,21.0005,127.408,-0.0578258,0.0,0.0
54,13.25,30.8129,31.9666,135.956,99.4268,99.7849,0.000402292,0.0440363,21.0005,127.318,-0.0302174,0.0,0.0
56,13.75,30.668,32.2699,132.841,99.4216,99.7506,0.000399849,0.0440279,21.0005,127.278,-0.027763,0.0,0.0
58,14.25,31.2304,32.0499,138.055,99.4484,100.28,0.000394371,0.0440638,21.0005,127.278,-0.0700033,0.0,0.0
60,14.75,31.11,32.4123,135.874,99.4344,99.6653,0.000385004,0.0441313,21.0005,127.268,-0.019496,0.0,0.0
62,15.25,31.2364,32.0801,135.863,99.4252,99.9719,0.000377416,0.044186,21.0005,127.288,-0.0460851,0.0,0.0
64,15.75,31.1376,32.2789,132.319,99.4148,100.099,0.00037372,0.0443657,21.0005,127.298,-0.0576508,0.0,0.0
66,16.25,30.6556,32.4229,137.74,99.4228,99.2829,0.000375926,0.0445112,21.0005,127.247,0.0118319,0.0,0.0
68,16.75,31.0819,32.716,134.042,99.4108,99.6511,0.000379697,0.0447509,21.0013,127.217,-0.0202893,0.0,0.0
70,17.25,31.6153,32.5789,135.389,99.4252,99.573,0.000395435,0.0448531,21.0019,127.177,-0.0124816,0.0,0.0
72,17.75,31.2475,32.2728,135.564,99.4072,99.3168,0.000419597,0.0450278,21.0019,127.167,0.00764123,0.0,0.0
74,18.25,31.2349,32.3206,133.403,99.4152,99.9809,0.000455033,0.0451694,21.002,127.127,-0.0476823,0.0,0.0
76,18.75,31.3956,32.5022,135.201,99.3991,99.6796,0.000498014,0.0454874,21.002,127.127,-0.0236797,0.0,0.0
78,19.25,31.411,32.0246,132.676,99.4156,99.7858,0.00053283,0.0455729,21.002,127.117,-0.0312409,0.0,0.0
80,19.75,31.7186,32.8761,134.273,99.3859,99.4538,0.000598444,0.045705,21.002,127.117,-0.00573875,0.0,0.0
82,20.25,30.9908,32.3049,132.337,99.3859,99.4235,0.000651592,0.0457991,21.0021,127.107,-0.00317379,0.0,0.0
84,20.75,31.4343,32.4641,131.467,99.3883,99.5814,0.000709135,0.045854,21.0021,127.107,-0.016313,0.0,0.0
86,21.25,31.605,32.9636,136.466,99.3883,99.7086,0.000755745,0.0458791,21.0021,127.087,-0.0270394,0.0,0.0
88,21.75,31.7154,32.6369,135.654,99.3807,99.5404,0.000801955,0.0458996,21.0021,127.047,-0.013491,0.0,0.0
90,22.25,31.2313,32.4207,132.624,99.3727,99.4842,0.000839386,0.0458349,21.0021,127.027,-0.00941966,0.0,0.0
92,22.75,31.6268,32.4673,136.49,99.3503,99.3364,0.000872249,0.0457824,21.0021,126.997,0.00117002,0.0,0.0
94,23.25,31.5646,32.8044,133.619,99.3675,99.739,0.000901158,0.0457806,21.0021,127.007,-0.0313576,0.0,0.0
96,23.75,31.1846,32.5165,136.563,99.3435,99.274,0.000929408,0.0457791,21.0021,126.987,0.00588049,0.0,0.0
98,24.25,31.0371,32.7197,132.353,99.3411,99.6716,0.00095229,0.0457779,21.0021,126.977,-0.0279143,0.0,0.0
100,24.75,31.4724,32.7304,136.399,99.3214,99.2615,0.000975659,0.0457769,21.0021,126.957,0.00507457,0.0,0.0
102,25.25,31.3237,32.6135,131.249,99.3274,99.4993,0.000994588,0.0458046,21.0017,126.917,-0.0145306,0.0,0.0
104,25.75,31.8306,32.5429,134.228,99.289,99.2463,0.00100992,0.0458527,21.0013,126.887,0.0036137,0.0,0.0
106,26.25,31.2394,32.6869,136.764,99.2854,98.3315,0.00104531,0.0459345,21.0011,126.887,0.0811313,0.0,0.0
108,26.75,31.8766,32.7379,134.886,99.273,98.8938,0.00107398,0.0460391,21.0008,126.807,0.0321622,0.0,0.0
110,27.25,31.7276,32.6973,134.283,99.2762,98.8906,0.0011195,0.0461667,21.0006,126.777,0.0327001,0.0,0.0
112,27.75,32.1126,32.819,135.115,99.2549,99.0049,0.00117643,0.0463085,21.0005,126.777,0.0211993,0.0,0.0
114,28.25,31.7227,33.2556,135.092,99.2602,98.863,0.00122255,0.0464234,21.0004,126.727,0.0336949,0.0,0.0
116,28.75,31.7072,33.0358,133.703,99.2485,98.5903,0.00129261,0.0465977,21.0003,126.737,0.0559202,0.0,0.0
118,29.25,32.0386,32.3603,131.186,99.2449,98.2895,0.00135957,0.0467389,21.0002,126.717,0.081292,0.0,0.0
120,29.75,31.7318,32.6999,131.862,99.2381,99.2811,0.001423,0.0469174,21.0001,126.707,-0.00363981,0.0,0.0
122,30.25,31.7134,32.9625,135.699,99.2305,98.5818,0.00147437,0.0471198,21.0001,126.657,0.055117,0.0,0.0
124,30.75,31.9693,33.0723,136.867,99.2189,97.949,0.00152812,0.0472837,21,126.617,0.10825,0.0,0.0
126,31.25,31.9083,33.3448,134.621,99.2193,98.1534,0.00157867,0.0475656,21,126.587,0.0907667,0.0,0.0
128,31.75,31.9319,33.1416,136.14,99.2113,97.8049,0.00162595,0.0477939,21,126.567,0.119981,0.0,0.0
130,32.25,32.2072,33.0111,131.022,99.2013,97.2426,0.00166424,0.0480195,20.9999,126.557,0.167586,0.0,0.0
132,32.75,32.4245,33.048,134.237,99.1901,97.551,0.00172682,0.0482022,20.9999,126.557,0.14003,0.0,0.0
134,33.25,31.8111,33.1006,135.436,99.1877,97.2627,0.00177751,0.0483502,20.9999,126.557,0.164698,0.0,0.0
136,33.75,31.8449,33.2078,133.676,99.1812,96.7829,0.0018526,0.0484701,20.9999,126.517,0.205706,0.0,0.0
138,34.25,32.1915,33.5931,140.055,99.1784,97.6969,0.00191341,0.0485536,20.9999,126.497,0.126483,0.0,0.0
140,34.75,31.9253,32.7143,137.417,99.1736,97.8825,0.00198572,0.0486213,20.9999,126.447,0.110122,0.0,0.0
142,35.25,32.2055,33.3999,132.045,99.1704,97.4104,0.00206504,0.0487439,20.9999,126.437,0.150485,0.0,0.0
144,35.75,32.3327,33.3378,135.411,99.1664,96.1403,0.00215433,0.0488432,20.9999,126.397,0.260435,0.0,0.0
146,36.25,32.1852,32.9079,134.009,99.1552,96.3358,0.00224918,0.0489522,20.9994,126.407,0.242417,0.0,0.0
148,36.75,32.048,33.3312,133.49,99.1552,96.8262,0.00235362,0.0490661,20.9991,126.387,0.199743,0.0,0.0
150,37.25,32.3692,32.512,134.317,99.1456,96.6375,0.00241121,0.0491798,20.9989,126.357,0.215327,0.0,0.0
152,37.75,32.2818,33.4656,131.102,99.1576,96.2791,0.0025097,0.0492912,20.9983,126.347,0.247565,0.0,0.0
154,38.25,32.1999,33.0654,131.051,99.1384,96.5165,0.00262349,0.0493814,20.9973,126.347,0.225239,0.0,0.0
156,38.75,31.8577,33.3048,133.683,99.1544,97.0119,0.00270234,0.049508,20.997,126.317,0.183578,0.0,0.0
158,39.25,32.2334,33.354,134.386,99.1268,95.9757,0.00283716,0.0496818,20.9979,126.317,0.27148,0.0,0.0
160,39.75,31.684,33.3459,129.92,99.1324,96.351,0.00294637,0.0498869,20.9987,126.256,0.239157,0.0,0.0
162,40.25,32.4293,33.5062,133.515,99.1248,96.0006,0.003074,0.0499743,20.9991,126.176,0.269122,0.0,0.0
164,40.75,32.2743,33.018,134.289,99.1284,96.2608,0.00317738,0.0501238,20.9992,126.166,0.246684,0.0,0.0
166,41.25,32.3617,33.3682,131.308,99.1111,95.8712,0.00326235,0.0527209,20.998,126.136,0.279304,0.0,0.0
168,41.75,32.2064,33.3451,135.587,99.1264,95.3973,0.00333117,0.0549493,20.9957,126.086,0.32224,0.0,0.0
170,42.25,32.3138,33.7287,134.296,99.1135,98.0963,0.00337467,0.0587598,20.9938,126.036,0.0866975,0.0,0.0
172,42.75,32.1905,33.3247,132.045,99.1176,101.727,0.00339889,0.0743371,20.9731,125.996,-0.218386,0.0,1.0
174,43.25,32.4115,33.3624,125.755,99.0931,103.313,0.00340369,0.0869547,20.9563,125.886,-0.350468,0.0,1.0
176,43.75,32.2553,33.9269,124.577,99.1043,102.915,0.00339425,0.107195,20.9186,125.706,-0.317111,0.0,1.0
178,44.25,32.5025,33.3393,123.015,99.0959,104.858,0.00337244,0.132608,20.8881,125.706,-0.474969,0.0,1.0
180,44.75,32.8955,33.5443,118.855,99.0947,103.781,0.00334204,0.160867,20.8489,125.496,-0.388324,0.0,0.0
182,45.25,33.4364,33.7666,121.854,99.0803,103.954,0.00330391,0.190665,20.8172,125.486,-0.403556,0.0,1.0
184,45.75,33.7376,34.1143,116.392,99.0843,104.572,0.00326087,0.220257,20.7832,125.516,-0.452961,0.0,1.0
186,46.25,34.0762,34.8172,115.75,99.0759,104.176,0.00322601,0.249136,20.7557,125.466,-0.42184,0.0,1.0
188,46.75,34.8345,35.0129,116.596,99.0799,105.052,0.00319777,0.275162,20.7303,125.386,-0.491871,0.0,1.0
190,47.25,35.2007,35.2276,118.999,99.0731,103.812,0.00314315,0.298615,20.7098,125.286,-0.392688,0.0,1.0
192,47.75,36.2359,35.6173,120.302,99.0791,103.986,0.00309891,0.31846,20.6931,125.175,-0.406255,0.0,1.0
194,48.25,36.3264,35.982,116.913,99.0643,103.164,0.00304478,0.335297,20.6797,125.125,-0.340744,0.0,1.0
196,48.75,36.9609,36.4115,118.917,99.0763,104.028,0.00300093,0.348934,20.6687,125.085,-0.409882,0.0,1.0
198,49.25,37.4868,36.9871,120.62,99.0535,103.602,0.00296349,0.35938,20.6599,124.985,-0.377321,0.0,1.0
200,49.75,37.7835,37.4051,118.835,99.0667,102.615,0.00293142,0.3673,20.6539,124.915,-0.295708,0.0,1.0
202,50.25,38.6672,37.8272,117.71,99.041,103.93,0.00292344,0.371849,20.6501,124.825,-0.404902,0.0,1.0
204,50.75,37.3439,36.9868,121.542,99.0547,103.574,0.00293315,0.373854,20.6499,124.745,-0.374938,0.0,0.0
206,51.25,37.9303,37.3209,119.583,99.035,102.885,0.00298475,0.375478,20.6525,124.685,-0.320475,0.0,0.0
208,51.75,38.5351,37.8588,121.273,99.0471,102.667,0.00306592,0.373727,20.6583,124.665,-0.301684,0.0,0.0
210,52.25,38.5895,38.0536,122.193,99.0134,102.542,0.00320974,0.369549,20.6663,124.635,-0.294305,0.0,0.0
212,52.75,38.3827,37.9617,124.498,99.0202,102.198,0.0033965,0.362769,20.6728,124.615,-0.265446,0.0,0.0
214,53.25,38.923,38.1007,124.009,99.0106,101.884,0.00354777,0.354221,20.6827,124.555,-0.240388,0.0,0.0
216,53.75,38.999,38.7707,122.383,99.0078,101.769,0.00384173,0.343151,20.6948,124.515,-0.231198,0.0,0.0
218,54.25,40.1199,39.4491,125.276,98.9974,102.194,0.00423412,0.330453,20.7129,124.445,-0.267054,0.0,0.0
220,54.75,39.5189,39.2295,127.189,98.9974,101.992,0.00471106,0.315691,20.7276,124.415,-0.250414,0.0,0.0
222,55.25,40.2352,39.548,128.255,98.9713,100.984,0.00524057,0.299706,20.7478,124.365,-0.169147,0.0,0.0
224,55.75,40.289,39.4259,129.418,98.9737,100.761,0.00581197,0.286759,20.7642,124.325,-0.150429,0.0,0.0
226,56.25,40.4328,40.1557,131.452,98.9521,100.874,0.00640303,0.267831,20.7809,124.345,-0.161676,0.0,0.0
228,56.75,40.0594,40.3246,127.496,98.9629,100.522,0.00688179,0.252499,20.7976,124.295,-0.131336,0.0,0.0
230,57.25,40.4207,40.3164,132.599,98.9441,100.912,0.00758145,0.240081,20.8131,124.265,-0.165517,0.0,0.0
232,57.75,40.3939,40.2464,132.459,98.9485,99.8403,0.00814818,0.221972,20.8276,124.244,-0.0753978,0.0,0.0
234,58.25,40.2502,40.1474,130.931,98.9281,100.505,0.008831,0.207304,20.8405,124.265,-0.132878,0.0,0.0
236,58.75,40.2385,40.3189,133.375,98.9441,100.578,0.00938409,0.192373,20.8521,124.164,-0.137635,0.0,0.0
238,59.25,40.3054,40.4365,132.614,98.9213,100.942,0.00995864,0.18028,20.8615,124.124,-0.169945,0.0,0.0
240,59.75,39.9082,40.4804,134.41,98.9353,100.172,0.0105379,0.168621,20.8692,124.084,-0.104421,0.0,0.0
242,60.25,39.9399,40.2514,131.016,98.9041,99.9541,0.0110071,0.159177,20.8766,124.024,-0.0887483,0.0,0.0
244,60.75,39.7516,40.461,130.091,98.9193,99.9608,0.0113872,0.150843,20.8827,124.004,-0.0880179,0.0,0.0
246,61.25,39.7993,39.8112,136.654,98.9117,99.9376,0.0118176,0.144092,20.8868,123.954,-0.0867125,0.0,0.0
248,61.75,39.6601,40.1401,133.352,98.8948,100.636,0.0122765,0.138485,20.8895,123.954,-0.146667,0.0,0.0
250,62.25,39.1947,39.466,131.76,98.8872,99.9545,0.0126816,0.133943,20.8917,123.874,-0.0902149,0.0,0.0
252,62.75,38.0837,39.9671,135.878,98.8996,99.9947,0.0130396,0.130263,20.8934,123.824,-0.0925362,0.0,0.0
254,63.25,38.7282,39.3977,130.952,98.8908,100.142,0.0133516,0.127283,20.8948,123.794,-0.10569,0.0,0.0
256,63.75,38.6943,39.5665,132.728,98.884,100.004,0.0136043,0.125246,20.896,123.764,-0.0946513,0.0,0.0
258,64.25,38.7443,39.2811,128.034,98.882,100.519,0.0137974,0.123596,20.8969,123.754,-0.137949,0.0,0.0
260,64.75,38.1667,39.5537,132.696,98.8848,100.248,0.0139538,0.12237,20.8977,123.734,-0.115033,0.0,0.0
262,65.25,38.7923,39.3874,131.913,98.8812,100.656,0.0140365,0.121476,20.8983,123.674,-0.149501,0.0,0.0
264,65.75,38.2842,39.7264,132.467,98.8832,99.8438,0.0141036,0.120679,20.8988,123.714,-0.0812455,0.0,0.0
266,66.25,38.4862,39.8519,130.13,98.8744,100.003,0.0140766,0.119967,20.8996,123.684,-0.095393,0.0,0.0
268,66.75,38.1002,39.3948,130.398,98.8612,100.255,0.0140547,0.119199,20.9007,123.664,-0.117641,0.0,0.0
270,67.25,38.0157,39.5477,130.452,98.8604,100.568,0.014037,0.118405,20.9021,123.624,-0.143928,0.0,0.0
272,67.75,38.4172,39.3047,131.344,98.8584,100.068,0.0139091,0.117497,20.9036,123.604,-0.10219,0.0,0.0
274,68.25,38.2408,39.3252,132.412,98.8572,99.963,0.0137031,0.116524,20.9049,123.584,-0.0934812,0.0,0.0
276,68.75,38.4614,39.6561,128.431,98.85,100.299,0.0135363,0.11545,20.9063,123.504,-0.122334,0.0,0.0
278,69.25,38.3775,39.6813,132.346,98.844,100.646,0.0132707,0.114323,20.9074,123.504,-0.151847,0.0,0.0
280,69.75,38.5117,39.7617,133.701,98.8384,99.8621,0.0130556,0.11341,20.9091,123.474,-0.0865987,0.0,0.0
282,70.25,38.1047,39.8172,130.64,98.8396,101.11,0.0128115,0.111823,20.911,123.454,-0.190848,0.0,0.0
284,70.75,37.9924,39.4949,133.673,98.8263,99.7939,0.0125509,0.110537,20.913,123.494,-0.0818726,0.0,0.0
286,71.25,38.1469,39.2243,131.543,98.8336,100.387,0.0122944,0.109094,20.9151,123.444,-0.131055,0.0,0.0
288,71.75,38.0348,39.485,133.97,98.8135,99.4699,0.0120456,0.107563,20.9168,123.424,-0.0556352,0.0,0.0
290,72.25,38.3142,38.9275,132.622,98.8083,100.648,0.0117993,0.106324,20.9186,123.404,-0.155028,0.0,0.0
292,72.75,37.8928,39.555,133.72,98.7947,99.9773,0.0115596,0.104696,20.92,123.354,-0.0999953,0.0,0.0
294,73.25,37.9355,39.4769,133.508,98.8288,100.234,0.0113154,0.103378,20.9221,123.294,-0.11864,0.0,0.0
296,73.75,38.1248,39.4139,133.035,98.8187,99.6252,0.0110727,0.10184,20.9237,123.284,-0.0683033,0.0,0.0
298,74.25,37.7981,39.1546,133.224,98.8183,100.442,0.010876,0.100595,20.9255,123.274,-0.136944,0.0,0.0
300,74.75,38.0834,38.9817,137.231,98.7947,99.7488,0.0106523,0.0993313,20.9274,123.253,-0.080768,0.0,0.0
302,75.25,37.9471,38.5755,129.775,98.8075,100.274,0.010413,0.0980788,20.9292,123.233,-0.12385,0.0,0.0
304,75.75,37.8291,39.2318,132.985,98.8059,100.139,0.0101775,0.0968029,20.9308,123.173,-0.112609,0.0,0.0
306,76.25,37.825,39.8464,132.212,98.8011,99.701,0.00994912,0.0955342,20.9321,123.143,-0.0761985,0.0,0.0
308,76.75,37.8552,38.9761,132.959,98.7919,99.5814,0.00972775,0.0945065,20.9336,123.083,-0.0668955,0.0,0.0
310,77.25,37.8275,39.4719,136.309,98.7911,99.5707,0.00951569,0.0932331,20.9348,123.073,-0.0660605,0.0,0.0
312,77.75,37.5927,39.0882,133.909,98.7919,99.7903,0.00934393,0.0922016,20.9362,123.043,-0.0845027,0.0,0.0
314,78.25,37.8059,39.3266,139.448,98.7923,99.3485,0.00913704,0.0909118,20.9374,123.013,-0.0471796,0.0,0.0
316,78.75,37.5288,39.1035,136.408,98.7787,99.635,0.00896946,0.0898671,20.9388,122.993,-0.0725377,0.0,0.0
318,79.25,37.1986,38.7557,135.304,98.7879,99.4909,0.0087761,0.0888254,20.9403,122.983,-0.0595877,0.0,0.0
320,79.75,36.6762,38.4997,130.279,98.7759,100.352,0.00861947,0.0878057,20.9416,122.983,-0.13301,0.0,0.0
322,80.25,37.1215,39.1206,130.265,98.7843,100.372,0.0085527,0.0869798,20.9423,122.963,-0.134013,0.0,0.0
324,80.75,37.2729,38.7792,131.988,98.7707,99.6149,0.00836723,0.0860222,20.9436,122.953,-0.0715257,0.0,0.0
326,81.25,36.8068,38.7529,134.383,98.7751,100.151,0.00821701,0.0852466,20.9447,122.903,-0.116282,0.0,0.0
328,81.75,37.2391,38.5533,133.454,98.7735,99.7042,0.00809532,0.0843436,20.946,122.863,-0.0788136,0.0,0.0
330,82.25,37.7376,38.7541,131.441,98.7699,99.6189,0.00792436,0.0836122,20.947,122.843,-0.0719329,0.0,0.0
332,82.75,37.0226,38.9144,134.57,98.7771,99.8519,0.00778588,0.0828681,20.9479,122.833,-0.0909476,0.0,0.0
334,83.25,37.1076,39.0007,134.789,98.7791,99.4333,0.00767371,0.082479,20.9486,122.843,-0.0554739,0.0,0.0
336,83.75,37.4628,38.7736,132.58,98.7631,100.173,0.00752926,0.0818137,20.9491,122.803,-0.119102,0.0,0.0
338,84.25,36.8166,38.1623,130.316,98.7679,100.422,0.00741226,0.0809456,20.9498,122.723,-0.139594,0.0,0.0
340,84.75,36.97,38.4739,128.789,98.7639,99.9813,0.00728761,0.0802425,20.9507,122.663,-0.102958,0.0,0.0
342,85.25,36.5137,37.9045,130.858,98.7699,99.7854,0.00718665,0.0794998,20.9518,122.673,-0.0859625,0.0,0.0
344,85.75,36.6814,39.0075,131.593,98.7534,99.9219,0.0070775,0.0787425,20.9531,122.653,-0.0988529,0.0,0.0
346,86.25,36.6659,38.2894,137.208,98.7707,99.7234,0.00698909,0.078129,20.9542,122.633,-0.0806689,0.0,0.0
348,86.75,36.6013,38.4831,131.169,98.7611,99.3092,0.00689137,0.0776321,20.955,122.653,-0.0465157,0.0,0.0
350,87.25,37.017,38.594,133.56,98.7683,100.016,0.00676344,0.0770105,20.9557,122.673,-0.105507,0.0,0.0
352,87.75,36.5407,38.3646,132.719,98.7546,100.344,0.00671954,0.076507,20.9563,122.643,-0.134181,0.0,0.0
354,88.25,36.4744,38.3997,136.016,98.7691,100.385,0.00664447,0.076017,20.9567,122.583,-0.136391,0.0,0.0
356,88.75,36.6154,38.3989,135.418,98.7603,99.9831,0.00658366,0.0756201,20.9571,122.563,-0.103414,0.0,0.0
358,89.25,36.5595,37.8802,134.185,98.7751,99.9782,0.0065135,0.0751617,20.9574,122.593,-0.10174,0.0,0.0
360,89.75,36.6345,38.0446,133.338,98.7611,100.456,0.00643787,0.0747905,20.9579,122.493,-0.143011,0.0,0.0
362,90.25,36.7097,38.347,134.375,98.7763,100.212,0.00636094,0.0742708,20.9585,122.453,-0.121233,0.0,0.0
364,90.75,36.08,38.1243,137.264,98.7619,100.13,0.00628453,0.0738499,20.959,122.463,-0.115609,0.0,0.0
366,91.25,36.4792,38.4599,134.905,98.7667,99.7568,0.00622263,0.0735089,20.9598,122.453,-0.0838298,0.0,0.0
368,91.75,36.0839,38.2098,130.83,98.7631,99.9148,0.00614029,0.0729046,20.9605,122.443,-0.0974344,0.0,0.0
370,92.25,36.0655,37.8615,133.689,98.7731,100.056,0.00607359,0.0724151,20.9614,122.403,-0.108472,0.0,0.0
372,92.75,36.0696,37.8164,131.236,98.7679,100.213,0.00598986,0.0719754,20.9622,122.343,-0.122061,0.0,0.0
374,93.25,36.4064,38.0843,135.708,98.7787,100.032,0.00592203,0.0715804,20.9633,122.343,-0.105971,0.0,0.0
376,93.75,36.2271,38.2547,131.465,98.7775,99.7653,0.00584977,0.0711598,20.9642,122.353,-0.0836239,0.0,0.0
378,94.25,36.3162,38.2332,130.462,98.7827,99.9322,0.00579125,0.0707285,20.9649,122.353,-0.0972276,0.0,0.0
380,94.75,36.3854,37.8677,131.945,98.7779,100.148,0.00573889,0.0703432,20.9655,122.323,-0.115781,0.0,0.0
382,95.25,36.3617,38.1472,135.202,98.7883,99.8354,0.00569648,0.0699987,20.9659,122.283,-0.088604,0.0,0.0
384,95.75,36.2915,37.7095,132.374,98.7987,100.122,0.0056784,0.0697197,20.9664,122.242,-0.111837,0.0,0.0
386,96.25,36.3166,38.357,133.371,98.7995,100.705,0.00564163,0.0693435,20.9671,122.222,-0.160545,0.0,0.0
388,96.75,36.0938,37.9974,134.202,98.8039,100.16,0.00560657,0.0690388,20.9677,122.182,-0.114578,0.0,0.0
390,97.25,36.3892,38.3045,131.328,98.8115,100.096,0.00556452,0.068669,20.9682,122.142,-0.108574,0.0,0.0
392,97.75,36.2561,37.5296,129.927,98.8055,100.101,0.00551816,0.0683696,20.9688,122.132,-0.109497,0.0,0.0
394,98.25,35.8337,37.5977,133.903,98.8099,99.8559,0.00545721,0.0680193,20.9695,122.102,-0.0884916,0.0,0.0
396,98.75,35.9645,38.1806,136.792,98.8175,100.126,0.00538679,0.0678189,20.9701,122.082,-0.110573,0.0,0.0
398,99.25,36.3368,37.8775,135.527,98.8283,99.768,0.00529795,0.0674762,20.9705,122.052,-0.0795225,0.0,0.0
400,99.75,36.4247,37.8814,132.538,98.8119,100.111,0.00519737,0.0670077,20.9709,122.042,-0.109739,0.0,0.0
402,100.25,36.0469,38.0148,131.137,98.8247,100.361,0.00509063,0.0666282,20.9712,122.062,-0.129638,0.0,0.0
404,100.75,36.0862,38.3047,136.427,98.8127,99.9684,0.00498142,0.0662253,20.9715,122.052,-0.0977116,0.0,0.0
406,101.25,36.217,37.6995,132.694,98.8247,100.479,0.00489296,0.065899,20.9717,121.992,-0.139497,0.0,0.0
408,101.75,35.9886,38.6167,132.209,98.8259,99.6484,0.00479671,0.0655629,20.9718,121.962,-0.0696472,0.0,0.0
410,102.25,36.1868,37.6022,133.493,98.832,99.7247,0.00471875,0.0652261,20.9722,121.932,-0.0755687,0.0,0.0
412,102.75,36.098,37.8347,136.291,98.8316,100.162,0.0046556,0.0648959,20.9727,121.882,-0.112414,0.0,0.0
414,103.25,35.8323,37.6426,136.575,98.8288,99.7814,0.0045983,0.0645767,20.9733,121.892,-0.0806163,0.0,0.0
416,103.75,35.6751,38.11,132.578,98.8307,100.234,0.00455189,0.0643182,20.974,121.842,-0.118508,0.0,0.0
418,104.25,35.8282,38.0462,131.604,98.8412,99.8215,0.0045106,0.0639045,20.9749,121.802,-0.0829425,0.0,0.0
420,104.75,35.8757,38.0637,134.823,98.8492,99.5417,0.00447716,0.0635693,20.9757,121.772,-0.0586727,0.0,0.0
422,105.25,35.7147,37.6298,128.931,98.8572,99.6288,0.00442255,0.0631616,20.9767,121.772,-0.065335,0.0,0.0
424,105.75,35.7062,37.4688,130.859,98.85,100.017,0.00438987,0.0628314,20.9772,121.772,-0.0986699,0.0,0.0
426,106.25,36.083,37.6508,131.4,98.8616,99.697,0.00436339,0.0625639,20.9777,121.722,-0.0707175,0.0,0.0
428,106.75,35.5164,37.4094,136.474,98.862,99.6845,0.00433142,0.062211,20.9778,121.702,-0.06963,0.0,0.0
430,107.25,35.8953,37.9206,133.262,98.866,99.7274,0.00427675,0.0619252,20.9784,121.692,-0.0729005,0.0,0.0
432,107.75,35.4045,37.0255,131.471,98.8768,99.4253,0.00422084,0.0616364,20.9789,121.682,-0.046484,0.0,0.0
434,108.25,35.5494,37.0373,137.785,98.8676,100.189,0.00416509,0.0612292,20.9793,121.682,-0.111595,0.0,0.0
436,108.75,35.7417,37.4521,137.307,98.8696,100.037,0.00411218,0.061021,20.9797,121.692,-0.0986137,0.0,0.0
438,109.25,34.754,37.2862,136.701,98.8764,100.092,0.00406236,0.0607449,20.9799,121.642,-0.102645,0.0,0.0
440,109.75,35.9076,37.5908,131.017,98.8808,100.834,0.004022,0.0605764,20.9802,121.602,-0.16435,0.0,0.0
442,110.25,35.3681,37.3928,133.022,98.8716,99.7434,0.00397706,0.060195,20.9803,121.572,-0.0737776,0.0,0.0
444,110.75,35.2126,37.0223,133.782,98.8864,100.196,0.00392962,0.0598023,20.9809,121.542,-0.110557,0.0,0.0
446,111.25,35.3023,37.2193,132.139,98.8732,100.382,0.00389119,0.0594843,20.9814,121.512,-0.127274,0.0,0.0
448,111.75,35.157,37.4627,133.664,98.8932,99.9193,0.00382454,0.0591178,20.982,121.522,-0.0867404,0.0,0.0
450,112.25,35.2461,37.081,137.977,98.89,100.046,0.00377055,0.058821,20.9827,121.482,-0.0976275,0.0,0.0
452,112.75,35.4639,37.1505,131.574,98.8832,99.8854,0.003703,0.0584733,20.9833,121.492,-0.084738,0.0,0.0
454,113.25,35.055,37.2712,133.719,98.8772,99.9505,0.00362683,0.058095,20.9837,121.452,-0.0907288,0.0,0.0
456,113.75,35.3618,37.5282,134.501,98.88,99.8773,0.00351504,0.0577886,20.9843,121.432,-0.0843347,0.0,0.0
458,114.25,35.0847,37.1936,133.971,98.872,100.156,0.00342448,0.0573637,20.985,121.422,-0.108451,0.0,0.0
460,114.75,35.5734,37.1421,134.685,98.89,99.9768,0.0033194,0.0570196,20.9856,121.392,-0.091853,0.0,0.0
462,115.25,35.8815,37.2002,137.449,98.8768,100.517,0.00323427,0.0566479,20.986,121.362,-0.138279,0.0,0.0
464,115.75,35.2466,37.2909,132.499,98.884,99.8894,0.00314703,0.0562631,20.9866,121.382,-0.0850077,0.0,0.0
466,116.25,35.2233,36.8776,133.307,98.8764,100.416,0.00307636,0.0558729,20.9873,121.342,-0.129803,0.0,0.0
468,116.75,34.5624,36.8244,133.205,98.8892,100.168,0.00301912,0.055486,20.9879,121.352,-0.10796,0.0,0.0
470,117.25,35.4134,36.8569,133.053,98.8732,99.6979,0.00294959,0.0550797,20.9892,121.322,-0.0698053,0.0,0.0
472,117.75,35.2177,37.0575,138.654,98.8888,99.9719,0.00289327,0.054667,20.9903,121.302,-0.0915421,0.0,0.0
474,118.25,35.093,36.9941,133.414,98.8736,100.03,0.00282085,0.0542241,20.9912,121.261,-0.0977486,0.0,0.0
476,118.75,35.0356,37.2488,136.277,98.8788,99.884,0.00276219,0.0538654,20.9919,121.221,-0.0850001,0.0,0.0
478,119.25,34.8838,37.1646,134.498,98.862,99.9925,0.00268789,0.0534892,20.9924,121.211,-0.0955485,0.0,0.0
480,119.75,34.7932,37.0448,132.483,98.888,99.5939,0.00262771,0.0531073,20.9929,121.181,-0.0597764,0.0,0.0
482,120.25,34.5484,36.7925,138.082,98.8704,100.586,0.00257064,0.0527979,20.9933,121.141,-0.144605,0.0,0.0
484,120.75,35.0566,36.7201,133.388,98.8816,100.043,0.00251692,0.0524117,20.9936,121.161,-0.0981545,0.0,0.0
486,121.25,34.8428,36.9891,135.795,98.8728,100.483,0.00246764,0.0520989,20.9938,121.131,-0.135746,0.0,0.0
488,121.75,35.0016,36.7146,134.08,98.8848,99.8041,0.00242255,0.0516963,20.994,121.121,-0.0777655,0.0,0.0
490,122.25,35.0219,36.838,133.742,98.8748,99.3681,0.00238602,0.0513702,20.9942,121.091,-0.0418247,0.0,0.0
492,122.75,35.1619,36.8596,135.193,98.8728,100.046,0.00234305,0.0510062,20.9943,121.051,-0.0990906,0.0,0.0
494,123.25,34.9502,36.8532,133.763,98.8728,99.859,0.00230825,0.0506214,20.9944,121.011,-0.0834079,0.0,0.0
496,123.75,34.8071,36.4424,134.547,98.8904,99.9331,0.00226535,0.0503098,20.9945,120.981,-0.0881414,0.0,0.0
498,124.25,34.7305,36.8415,135.733,98.8668,100.141,0.00221737,0.0499489,20.9946,120.971,-0.10762,0.0,0.0
500,124.75,34.7549,36.4455,133.113,98.8552,100.051,0.00216636,0.0496566,20.9946,120.951,-0.101077,0.0,0.0
502,125.25,35.104,36.9799,135.73,98.8472,99.5016,0.00211411,0.0492573,20.9951,120.921,-0.0554507,0.0,0.0
504,125.75,34.991,36.4211,133.855,98.8564,99.818,0.00206412,0.0489338,20.9955,120.901,-0.0813476,0.0,0.0
506,126.25,34.8764,36.7238,132.006,98.8396,99.706,0.00201673,0.0486005,20.9958,120.921,-0.0733426,0.0,0.0
508,126.75,34.8876,37.0147,130.575,98.864,99.9411,0.00197452,0.0482663,20.9961,120.921,-0.0910635,0.0,0.0
510,127.25,34.8142,37.0134,137.978,98.8464,99.2713,0.00193687,0.0479957,20.9963,120.921,-0.0360482,0.0,0.0
512,127.75,34.4705,36.9006,132.812,98.862,100.143,0.00190191,0.0476681,20.9965,120.871,-0.108179,0.0,0.0
514,128.25,34.3351,36.5794,132.493,98.8652,100.156,0.00186957,0.0474028,20.9966,120.881,-0.109029,0.0,0.0
516,128.75,34.6447,36.2715,130.965,98.8496,100.575,0.00184337,0.0470389,20.9967,120.861,-0.145406,0.0,0.0
518,129.25,34.7934,36.6832,135.696,98.8412,100.207,0.00182216,0.0467442,20.9968,120.871,-0.11534,0.0,0.0
520,129.75,34.541,36.7228,136.669,98.8456,99.9755,0.00177466,0.0464513,20.997,120.871,-0.0955191,0.0,0.0
522,130.25,34.4459,36.6817,132.929,98.8372,100.191,0.00173618,0.0462141,20.9973,120.821,-0.114295,0.0,0.0
524,130.75,34.3759,36.6867,133.951,98.8388,99.6051,0.00170502,0.0459543,20.9977,120.811,-0.0649055,0.0,0.0
526,131.25,34.6152,36.2122,133.438,98.8396,100.258,0.00163964,0.0457438,20.9983,120.811,-0.119779,0.0,0.0
528,131.75,34.5415,35.8559,136.534,98.8432,99.5752,0.00155055,0.0455733,20.9988,120.771,-0.0620075,0.0,0.0
530,132.25,34.5051,36.4358,129.818,98.8408,100.106,0.00147838,0.0453676,20.9992,120.771,-0.106874,0.0,0.0
532,132.75,34.345,36.1861,137.204,98.8572,99.5234,0.00136193,0.0452009,20.9995,120.741,-0.0564465,0.0,0.0
534,133.25,34.5739,36.6346,133.515,98.8251,99.6903,0.0012676,0.045066,20.9997,120.711,-0.0732526,0.0,0.0
536,133.75,34.6174,36.0902,134.548,98.8404,99.7876,0.0011574,0.0449025,20.9999,120.691,-0.0801551,0.0,0.0
538,134.25,34.4725,36.9997,130.564,98.8456,100.05,0.00106814,0.0447701,21.0003,120.671,-0.101819,0.0,0.0
540,134.75,34.5763,36.426,135.176,98.8456,99.7916,0.000975334,0.0446486,21.0008,120.661,-0.0800499,0.0,0.0
542,135.25,34.0621,36.4902,131.813,98.8304,100.186,0.000900163,0.0445374,21.0013,120.651,-0.1145,0.0,0.0
544,135.75,34.4595,36.3555,133.231,98.8356,100.523,0.000844098,0.0444473,21.0016,120.651,-0.142272,0.0,0.0
546,136.25,34.6776,35.8811,130.988,98.8239,99.5837,0.000798686,0.0443202,21.0019,120.651,-0.0643583,0.0,0.0
548,136.75,34.3556,36.143,132.619,98.8332,100.286,0.000778409,0.0442172,21.0021,120.641,-0.122605,0.0,0.0
550,137.25,34.0967,36.4077,135.788,98.8328,99.7537,0.000776841,0.0441203,21.0023,120.611,-0.0779445,0.0,0.0
552,137.75,34.8036,36.3809,134.489,98.8312,99.9211,0.000775571,0.0440418,21.0025,120.611,-0.0921675,0.0,0.0
554,138.25,34.2844,36.3783,131.41,98.842,99.701,0.000787886,0.0439512,21.0026,120.601,-0.0727241,0.0,0.0
556,138.75,34.6766,36.3872,134.192,98.842,100.475,0.00080987,0.0438777,21.0027,120.601,-0.137697,0.0,0.0
558,139.25,34.2058,36.856,129.542,98.8352,100.082,0.000823864,0.0438047,21.0028,120.571,-0.105365,0.0,0.0
560,139.75,34.058,36.0446,135.038,98.8372,99.4574,0.000831766,0.0437456,21.0028,120.561,-0.0525706,0.0,0.0
562,140.25,34.4184,36.216,139.065,98.8424,100.005,0.000828003,0.0436835,21.0029,120.541,-0.0982295,0.0,0.0
564,140.75,34.2908,36.2367,137.589,98.8328,100.322,0.000815805,0.0436203,21.0029,120.571,-0.125668,0.0,0.0
566,141.25,34.3982,36.0132,133.668,98.8307,100.238,0.000805925,0.0435692,21.0029,120.541,-0.118807,0.0,0.0
568,141.75,33.9624,35.9745,133.51,98.8239,99.7015,0.000772589,0.0435349,21.003,120.511,-0.0742946,0.0,0.0
570,142.25,34.2241,36.215,134.963,98.852,99.5498,0.000758377,0.0435135,21.003,120.501,-0.0591115,0.0,0.0
572,142.75,34.5048,36.3009,130.21,98.8296,99.4467,0.00072646,0.0434748,21.003,120.461,-0.0523125,0.0,0.0
574,143.25,34.5845,36.0066,133.625,98.8316,99.7019,0.000693754,0.0434243,21.003,120.441,-0.0736852,0.0,0.0
576,143.75,34.4422,35.5246,136.554,98.8307,99.4427,0.000665358,0.0433691,21.003,120.411,-0.051871,0.0,0.0
578,144.25,34.3607,36.0897,137.272,98.8279,100.199,0.000640644,0.0433116,21.003,120.381,-0.115752,0.0,0.0
580,144.75,34.5386,36.2569,134.506,98.8283,99.6805,0.000620626,0.0432935,21.003,120.411,-0.0721522,0.0,0.0
582,145.25,34.6918,36.2573,133.867,98.838,99.8385,0.000600606,0.0432992,21.0031,120.381,-0.0846424,0.0,0.0
584,145.75,34.2469,35.8428,129.811,98.8348,99.5582,0.000580964,0.0433091,21.0031,120.381,-0.0612925,0.0,0.0
586,146.25,34.1393,35.7757,135.158,98.8336,99.838,0.000565055,0.0433029,21.0031,120.361,-0.0849788,0.0,0.0
588,146.75,34.1648,35.6141,131.895,98.8299,99.7881,0.000548552,0.043285,21.0031,120.391,-0.0810776,0.0,0.0
590,147.25,33.9015,35.5577,134.535,98.8312,99.9456,0.00053582,0.0432705,21.0031,120.391,-0.0942314,0.0,0.0
592,147.75,34.395,35.9565,135.331,98.8288,99.8367,0.000526077,0.0432317,21.0031,120.341,-0.0852754,0.0,0.0
594,148.25,33.8539,36.0368,132.189,98.8271,99.9327,0.000518185,0.0432003,21.0031,120.291,-0.0934838,0.0,0.0
596,148.75,34.2565,36.1277,132.456,98.8219,99.8671,0.000517819,0.0431393,21.0031,120.25,-0.0884086,0.0,0.0
598,149.25,33.9007,36.157,134.429,98.8368,100.383,0.000517522,0.0430578,21.0031,120.271,-0.130484,0.0,0.0
600,149.75,33.8502,35.9795,133.614,98.8384,100.01,0.00052813,0.0429918,21.0031,120.26,-0.0990201,0.0,0.0
602,150.25,34.0916,35.5817,133.468,98.8259,100.485,0.000536723,0.0429384,21.0031,120.24,-0.139917,0.0,0.0
604,150.75,34.0723,35.6295,135.636,98.8243,99.6917,0.0005473,0.0429022,21.0031,120.22,-0.073433,0.0,0.0
606,151.25,34.1812,35.9222,132.529,98.8364,99.5239,0.000555868,0.0428793,21.0031,120.19,-0.0582551,0.0,0.0
608,151.75,33.7099,35.6835,132.88,98.8199,99.9688,0.000562807,0.0428607,21.0031,120.19,-0.0971364,0.0,0.0
610,152.25,34.378,35.7972,132.579,98.8231,99.8706,0.000568429,0.0428863,21.0031,120.18,-0.0886061,0.0,0.0
612,152.75,34.2861,35.5843,132.78,98.832,100.072,0.000563465,0.042907,21.0031,120.17,-0.104776,0.0,0.0
614,153.25,33.9202,35.8415,133.89,98.8251,99.8965,0.000550881,0.0429237,21.0032,120.14,-0.0906139,0.0,0.0
616,153.75,34.1216,36.1364,135.818,98.8147,100.006,0.000541955,0.0429373,21.0034,120.11,-0.10073,0.0,0.0
618,154.25,34.0377,35.9467,133.676,98.8191,100.013,0.000535867,0.0429213,21.0036,120.14,-0.100955,0.0,0.0
620,154.75,34.0923,35.6167,136.222,98.8179,99.9576,0.000530936,0.0429083,21.0038,120.12,-0.0963688,0.0,0.0
622,155.25,33.7192,36.0384,134.671,98.8291,99.8889,0.000526942,0.0428977,21.0039,120.05,-0.0896357,0.0,0.0
624,155.75,33.5046,35.6676,136.824,98.8219,100.014,0.000523707,0.0428892,21.004,120,-0.100792,0.0,0.0
626,156.25,33.6973,35.8069,129.845,98.8283,99.5047,0.000506627,0.0428688,21.0041,120.02,-0.0573159,0.0,0.0
628,156.75,33.6041,35.4642,137.979,98.8247,100.372,0.000492792,0.0428522,21.0041,119.99,-0.130572,0.0,0.0
630,157.25,33.7799,35.616,134.954,98.8243,100.626,0.000465928,0.042853,21.0042,120.01,-0.151802,0.0,0.0
632,157.75,33.7961,35.2039,134.265,98.8223,100.053,0.000444169,0.0428665,21.0042,120,-0.104019,0.0,0.0
634,158.25,33.9753,35.5596,133.802,98.8299,99.4922,0.000426544,0.0428917,21.0042,119.97,-0.0561243,0.0,0.0
636,158.75,33.6862,35.9724,132.777,98.8231,100.191,0.000412267,0.0429249,21.0043,119.95,-0.115487,0.0,0.0
638,159.25,33.9914,35.8827,136.08,98.8235,100.646,0.00041592,0.0429233,21.0043,119.94,-0.153547,0.0,0.0
640,159.75,33.774,36.0561,132.16,98.8191,99.876,0.000432574,0.0428964,21.0043,119.88,-0.0893973,0.0,0.0
642,160.25,33.8561,35.683,134.231,98.8167,100.011,0.000460658,0.0428746,21.0043,119.81,-0.100972,0.0,0.0
644,160.75,33.4506,35.2419,133.977,98.8227,99.5538,0.00049654,0.042857,21.0043,119.89,-0.0619374,0.0,0.0
646,161.25,34.0371,35.6603,133.532,98.8203,99.6404,0.000533224,0.0428427,21.0043,119.93,-0.0694462,0.0,0.0
648,161.75,33.6249,35.3667,135.384,98.8131,99.7238,0.000569794,0.0428446,21.0044,119.9,-0.0770947,0.0,0.0
650,162.25,33.5967,35.6171,130.637,98.8191,99.6395,0.000599416,0.0428462,21.0044,119.92,-0.0694729,0.0,0.0
652,162.75,33.4458,35.6488,135.927,98.8119,100.291,0.000629443,0.0428403,21.0044,119.92,-0.124859,0.0,0.0
654,163.25,33.7411,35.7251,136.618,98.8139,100.33,0.000653766,0.0428292,21.0044,119.85,-0.127979,0.0,0.0
656,163.75,33.6482,35.1355,132.221,98.8111,99.6533,0.000670291,0.0428201,21.0044,119.84,-0.0713222,0.0,0.0
658,164.25,33.7537,35.7752,133.016,98.84,99.6984,0.000680819,0.0428128,21.0044,119.85,-0.0726685,0.0,0.0
660,164.75,33.8519,35.3813,132.816,98.8103,100.183,0.000689346,0.0428069,21.0044,119.85,-0.115942,0.0,0.0
662,165.25,33.5599,35.0996,128.071,98.8219,99.9246,0.000695047,0.0427886,21.0044,119.82,-0.0932513,0.0,0.0
664,165.75,33.976,35.7611,131.548,98.8203,100.104,0.000699664,0.0427738,21.0044,119.8,-0.108462,0.0,0.0
666,166.25,34.5504,35.6823,133.574,98.8255,99.4431,0.000715473,0.0428023,21.0044,119.79,-0.0523513,0.0,0.0
668,166.75,33.4881,35.3817,134.511,98.8143,99.901,0.00073914,0.0428254,21.0044,119.8,-0.0919092,0.0,0.0
670,167.25,33.6886,35.7735,133.534,98.8163,100.224,0.000767844,0.042837,21.0044,119.75,-0.118873,0.0,0.0
672,167.75,33.5057,35.3692,133.68,98.8123,100.097,0.000799675,0.04284,21.0044,119.74,-0.108581,0.0,0.0
674,168.25,33.1116,35.0327,135.316,98.8227,100.116,0.000828637,0.0428425,21.0044,119.71,-0.109268,0.0,0.0
676,168.75,33.5077,35.9998,133.416,98.8267,99.5569,0.000854957,0.0428174,21.0044,119.71,-0.0618601,0.0,0.0
678,169.25,34.2203,35.8044,134.043,98.832,99.7283,0.000871826,0.0427971,21.0044,119.7,-0.0758694,0.0,0.0
680,169.75,33.7233,35.9007,134.764,98.8211,100.091,0.000881484,0.0427949,21.0044,119.71,-0.107307,0.0,0.0
682,170.25,33.6679,35.5404,133.398,98.838,99.4074,,0.0428059,,119.69,-0.0482777,0.0,0.0
684,170.75,33.5666,35.2879,135.997,98.8227,99.5944,,0.0428148,,119.68,-0.0653648,0.0,0.0
686,171.25,33.3372,35.0754,136.275,98.8356,100.72,,0.042822,,119.66,-0.158708,0.0,0.0
688,171.75,34.1511,35.1172,132.972,98.8195,100.079,,0.0428065,,119.68,-0.106431,0.0,0.0
690,172.25,33.7583,35.0183,132,98.8203,99.6551,,0.0427747,,119.67,-0.0706887,0.0,0.0
692,172.75,33.3953,35.3234,133.754,98.8207,99.5145,,0.0427419,,119.64,-0.0587917,0.0,0.0
694,173.25,33.7227,35.7234,139.805,98.8191,100.108,,,,119.63,-0.1089,0.0,0.0
696,173.75,33.688,35.0482,132.639,98.8087,99.8126,,,,119.61,-0.08495,0.0,0.0
698,174.25,33.571,35.5301,133.526,98.8099,100.142,,,,119.6,-0.112531,0.0,0.0
700,174.75,33.6126,35.2995,133.022,98.8147,99.7064,,,,119.6,-0.0754918,0.0,0.0
702,175.25,33.6884,35.3495,133.845,98.8083,99.9911,,,,119.59,-0.0999994,0.0,0.0
704,175.75,33.4991,35.5302,134.806,98.7859,100.091,,,,119.57,-0.110267,0.0,0.0
706,176.25,33.7657,35.2353,133.077,98.7955,99.4868,,,,119.53,-0.0586011,0.0,0.0
708,176.75,33.5598,35.2002,134.263,98.7875,99.6113,,,,119.48,-0.0697932,0.0,0.0
710,177.25,33.8749,35.2589,135.77,98.7887,99.9036,,,,119.48,-0.0943155,0.0,0.0
712,177.75,33.0464,34.8943,135.824,98.7771,99.0687,,,,119.52,-0.0247733,0.0,0.0
714,178.25,33.1891,35.176,130.109,98.7839,99.8269,,,,119.52,-0.0882649,0.0,0.0
716,178.75,33.1644,34.9745,133.23,98.7671,100.092,,,,119.46,-0.111944,0.0,0.0
718,179.25,33.4582,34.741,136.669,98.7494,99.6582,,,,119.46,-0.0769835,0.0,0.0
720,179.75,33.0918,35.1071,131.308,98.747,99.6868,,,,119.44,-0.0795963,0.0,0.0
722,180.25,33.4783,35.5169,131.855,98.7338,99.1816,,,,119.44,-0.0380259,0.0,0.0
724,180.75,33.902,35.2605,134.382,98.733,99.2472,,,,119.46,-0.0436513,0.0,0.0