File: 01_Data/Standard_Gypsum_Wallboard/Cone/Standard_Gypsum_Wallboard_Cone_HF25Scan_220510_R2.csv
Names,Time,Stack TC,Smoke TC,Exh Press,Smoke Comp,Smoke Meas,CO Meter,CO2 Meter,O2 Meter,Sample Mass,Ext Coeff,Start Test,Flame Verif
Chan Gain,,500,500,1,1,1,1,1,1,1,1,1.0,1.0
Offset,,0,0,0.138628,0,0,0,0,0,0,0,0.0,0.0
Gain,,1,1,25.011,13.1256,14.6231,1,1,1,1.001,0.958019,1.0,1.0
Units,sec,C,C,Pa,%,%,%,%,%,g,/m,,
Baseline,,19.0576,19.647,141.855,99.1192,98.252,0.00032648,0.0413956,21.0093,-443.199,0.0738449,,
7,1.5,16.8115,17.0794,141.767,98.3685,97.4831,0.000390031,0.0450937,21.0058,131.442,0.0759804,0.0,0.0
14,3.25,16.2968,17.3669,142.601,98.3188,97.4778,0.000323487,0.0448787,21.0059,131.422,0.072198,0.0,0.0
21,5,16.6898,17.5618,144.749,98.28,97.3756,0.000274035,0.0447147,21.0071,131.382,0.0776907,0.0,0.0
28,6.75,17.0396,17.5935,142.682,98.2403,97.4389,0.000276873,0.0444984,21.0074,131.352,0.0688333,0.0,0.0
35,8.5,17.2688,17.7373,146.019,98.2051,97.3983,0.000285516,0.0440252,21.0074,131.332,0.0693201,0.0,0.0
42,10.25,17.4005,17.6196,140.792,98.1702,97.3301,0.000300553,0.0436348,21.0074,131.322,0.0722308,0.0,0.0
49,12,16.3137,17.3959,142.286,98.119,97.3323,0.00033595,0.043533,21.0074,131.302,0.0676478,0.0,0.0
56,13.75,17.1179,17.7448,143.916,98.0765,97.2122,0.000389204,0.0439473,21.0063,131.302,0.0743818,0.0,0.0
63,15.5,17.5179,17.6381,138.476,98.0452,97.1931,0.000422624,0.0444516,21.0057,131.262,0.073363,0.0,0.0
70,17.25,17.3142,17.6139,140.001,98.008,97.102,0.000382174,0.0447107,21.0054,131.251,0.0780441,0.0,0.0
77,19,17.0342,17.5348,138.24,97.9904,97.1551,0.000296936,0.0449882,21.0053,131.231,0.0719388,0.0,0.0
84,20.75,17.5929,17.7009,142.733,97.9503,97.1212,0.000277665,0.0454056,21.0052,131.241,0.0714362,0.0,0.0
91,22.5,17.6438,17.9191,142.455,97.9199,97.0913,0.000317116,0.04562,21.0052,131.201,0.0714123,0.0,0.0
98,24.25,17.7387,17.9745,145.055,97.9043,97.0503,0.000371187,0.0456772,21.0051,131.171,0.0736251,0.0,0.0
105,26,17.2906,18.1287,141.486,97.8814,97.0578,0.000331263,0.0454991,21.0051,131.131,0.071009,0.0,0.0
112,27.75,17.3406,17.9248,142.166,97.8622,96.9811,0.000248192,0.0452485,21.0061,131.091,0.0760062,0.0,0.0
119,29.5,17.6727,17.8719,142.137,97.8374,96.907,0.000249341,0.0449239,21.0068,131.071,0.0802939,0.0,0.0
126,31.25,17.6196,17.9239,142.195,97.8273,97.0181,0.000268129,0.0445579,21.0071,131.001,0.069804,0.0,0.0
133,33,17.476,17.8076,143.683,97.8169,96.9815,0.00027284,0.0441663,21.0073,131.011,0.0720798,0.0,0.0
140,34.75,17.5495,18.1183,142.747,97.8097,96.9565,0.000334576,0.0436849,21.0074,131.001,0.0736261,0.0,0.0
147,36.5,17.6479,18.1467,142.475,97.8037,96.8606,0.000439725,0.0430766,21.0074,130.961,0.08143,0.0,0.0
154,38.25,17.5574,18.1886,144.293,97.8037,96.8941,0.000536056,0.0427529,21.0075,130.921,0.0785265,0.0,0.0
161,40,17.3897,18.4133,140.301,97.8049,96.9619,0.00060091,0.0425816,21.0079,130.901,0.0727492,0.0,0.0
168,41.75,17.517,18.1102,143.386,97.8053,96.9838,0.000599997,0.0423247,21.0087,130.901,0.0708878,0.0,0.0
175,43.5,17.5942,17.9,141.663,97.8077,97.0172,0.00054923,0.0421141,21.0094,130.871,0.0681953,0.0,0.0
182,45.25,17.634,18.0918,139.705,97.8025,96.944,0.000476167,0.0420222,21.0107,130.821,0.0740899,0.0,0.0
189,47,17.3438,18.1028,142.219,97.8169,96.8499,0.000386203,0.0421421,21.0115,130.761,0.0834943,0.0,0.0
196,48.75,17.4134,18.8412,140.113,97.8414,97.0333,0.000300963,0.0423255,21.0116,130.771,0.0696937,0.0,0.0
203,50.5,17.9193,18.2356,141.929,97.8402,96.9396,0.000250313,0.0424689,21.0115,130.751,0.0777106,0.0,0.0
210,52.25,17.4101,18.0201,144.994,97.8418,97.0364,0.000195971,0.0425805,21.0115,130.711,0.0694582,0.0,0.0
217,54,17.5402,18.258,142.171,97.8646,97.1181,0.000154333,0.0428311,21.0115,130.701,0.0643498,0.0,0.0
224,55.75,17.5033,18.5025,140.352,97.8918,97.0503,0.000152008,0.0428342,21.0115,130.651,0.0725595,0.0,0.0
231,57.5,18.0245,18.3818,141.92,97.9023,97.1413,0.000187123,0.042755,21.0105,130.661,0.0655745,0.0,0.0
238,59.25,17.7039,18.487,142.018,97.9155,97.0235,0.000307155,0.042954,21.0098,130.641,0.0769066,0.0,0.0
245,61,18.1644,18.1218,140.663,97.9599,97.073,0.000405578,0.0431432,21.0095,130.601,0.0764321,0.0,0.0
252,62.75,17.6292,18.1037,143.459,97.9804,97.0752,0.000405344,0.0430505,21.0105,130.581,0.0779925,0.0,0.0
259,64.5,17.7495,18.5889,142.529,98.0076,97.1672,0.000389601,0.043007,21.0105,130.551,0.0723728,0.0,0.0
266,66.25,17.6305,18.248,143.311,98.036,97.135,0.000454886,0.0429032,21.0101,130.501,0.0775915,0.0,0.0
273,68,18.2202,18.3585,141.87,98.0809,97.0953,0.000553258,0.0427249,21.0099,130.441,0.0848729,0.0,0.0
280,69.75,17.6116,18.6379,142.224,98.1202,97.2711,0.000601282,0.0424298,21.0098,130.411,0.0730313,0.0,0.0
287,71.5,18.0101,18.3051,143.525,98.167,97.1707,0.000611311,0.0421042,21.0098,130.381,0.0857228,0.0,0.0
294,73.25,17.7514,18.1605,139.47,98.2031,97.26,0.000622448,0.0419572,21.0098,130.351,0.0810936,0.0,0.0
301,75,17.873,18.1467,146.497,98.2415,97.2176,0.000659824,0.0419524,21.0097,130.351,0.0880469,0.0,0.0
308,76.75,18.0585,18.4735,139.84,98.2952,97.3684,0.000694413,0.0419738,21.0108,130.301,0.0796092,0.0,0.0
315,78.5,17.3762,18.6977,139.57,98.3449,97.4215,0.000702029,0.0419975,21.0114,130.311,0.0792728,0.0,0.0
322,80.25,17.8334,18.2501,140.799,98.3909,97.4144,0.000631993,0.0418655,21.0118,130.281,0.0838236,0.0,0.0
329,82,17.8437,18.2938,142.08,98.449,97.3805,0.000472625,0.041809,21.0119,130.24,0.0917091,0.0,0.0
336,83.75,18.2435,18.622,140.948,98.4875,97.3149,0.000307032,0.0416968,21.0132,130.19,0.100654,0.0,0.0
343,85.5,17.6605,18.506,144.111,98.5684,97.4622,0.000211754,0.041558,21.0138,130.1,0.0948478,0.0,0.0
350,87.25,17.8985,18.1464,141.996,98.6112,97.4782,0.000182105,0.0414266,21.0139,130.14,0.0971159,0.0,0.0
357,89,17.937,18.6729,137.197,98.6505,97.4019,0.000215218,0.0414891,21.0131,130.14,0.107042,0.0,0.0
364,90.75,17.8849,18.4018,136.127,98.697,97.4572,0.000290183,0.0415177,21.0125,130.08,0.106226,0.0,0.0
371,92.5,17.8851,18.9143,144.526,98.7699,97.5188,0.000335571,0.0415693,21.0104,130.08,0.107123,0.0,0.0
378,94.25,17.8642,18.7627,139.307,98.8259,97.5782,0.000340586,0.0414843,21.0091,130,0.106779,0.0,0.0
385,96,18.0394,18.7159,142.869,98.8656,97.6692,0.000326691,0.0414909,21.0084,129.99,0.102314,0.0,0.0
392,97.75,18.1635,18.77,139.888,98.9257,97.5751,0.000360421,0.041472,21.0076,129.88,0.115525,0.0,0.0
399,99.5,18.1426,18.9786,141.72,98.9585,97.713,0.000406011,0.0415829,21.0065,129.79,0.106447,0.0,0.0
406,101.25,18.5636,18.746,139.868,99.0078,97.6482,0.000398184,0.041983,21.006,129.86,0.116198,0.0,0.0
413,103,18.0566,19.4791,138.864,99.0491,97.5362,0.00042557,0.0424086,21.0057,129.82,0.129344,0.0,0.0
420,104.75,18.2404,19.0793,136.917,99.0783,97.6523,0.000473105,0.0431108,21.0056,129.78,0.121834,0.0,0.0
427,106.5,18.396,18.7775,142.73,99.0983,97.6295,0.000478008,0.0440253,21.0055,129.8,0.125491,0.0,0.0
434,108.25,18.3662,18.5197,139.703,99.1464,97.6215,0.000441944,0.0443002,21.0055,129.66,0.130258,0.0,0.0
441,110,18.306,18.9504,143.566,99.1816,97.5581,0.000459586,0.0442728,21.0055,129.56,0.138702,0.0,0.0
448,111.75,18.5497,18.799,144.618,99.2037,97.7179,0.000553629,0.0441753,21.0059,129.62,0.126817,0.0,0.0
455,113.5,18.0729,18.269,139.903,99.2321,97.5336,0.000625335,0.0439722,21.0064,129.59,0.145091,0.0,0.0
462,115.25,18.5685,18.4484,139.316,99.2505,97.7835,0.000671616,0.0437545,21.0066,129.52,0.125147,0.0,0.0
469,117,18.2789,18.8322,140.722,99.2822,97.7321,0.000720912,0.0435219,21.0079,129.49,0.132237,0.0,0.0
476,118.75,18.5392,19.0286,143.439,99.2946,97.6612,0.000751858,0.0434806,21.0081,129.44,0.139392,0.0,0.0
483,120.5,18.1584,19.2739,141.509,99.3014,97.71875,0.000768251,0.0434289,21.0074,129.49,0.135016,0.0,0.0
490,122.25,18.4814,18.6866,136.888,99.3042,97.5938,0.000808603,0.0433144,21.0071,129.4,0.146006,0.0,0.0
497,124,18.7242,19.0965,138.281,99.317,97.4746,0.000883697,0.0432936,21.0069,129.32,0.157356,0.0,0.0
504,125.75,18.3178,19.1522,135.19,99.3351,97.4282,0.000995716,0.0436574,21.0069,129.28,0.162883,0.0,0.0
511,127.5,18.4587,18.6046,143.369,99.327,97.4015,0.00109979,0.0440157,21.0068,129.27,0.164516,0.0,0.0
518,129.25,18.2776,18.9829,140.715,99.3411,97.5121,0.0011381,0.0441292,21.0068,129.229,0.156159,0.0,0.0
525,131,18.5193,19.0725,139.8,99.3527,97.4679,0.00110634,0.0440132,21.0068,129.149,0.16095,0.0,0.0
532,132.75,18.4646,19.1044,141.28,99.3763,97.534,0.00104889,0.0440223,21.0068,129.179,0.157256,0.0,0.0
539,134.5,18.3834,18.8591,146.132,99.3935,97.5884,0.000995596,0.0441891,21.0079,129.009,0.154024,0.0,0.0
546,136.25,18.6843,19.2146,145.381,99.4148,97.3515,0.000995662,0.0441923,21.009,129.069,0.176248,0.0,0.0
553,138,18.3281,18.7537,140.614,99.4096,97.2805,0.00101313,0.0440984,21.0095,129.019,0.181935,0.0,0.0
560,139.75,18.6664,18.978,137.472,99.4344,97.517,0.000955373,0.0440117,21.0098,129.049,0.163627,0.0,0.0
567,141.5,18.3989,19.1542,140.34,99.4556,97.3934,0.000891494,0.0440357,21.0099,129.039,0.176081,0.0,0.0
574,143.25,18.467,18.8728,140.102,99.4765,97.3631,0.00083594,0.0440301,21.01,128.899,0.18046,0.0,0.0
581,145,18.368,19.2174,135.563,99.4789,97.4666,0.000823185,0.0440453,21.0108,128.899,0.171731,0.0,0.0
588,146.75,18.4557,18.819,141.037,99.5029,97.3122,0.000891442,0.0438984,21.0116,128.799,0.187084,0.0,0.0
595,148.5,18.5626,19.2008,136.349,99.5241,97.526,0.00107882,0.0437223,21.012,128.719,0.170438,0.0,0.0
602,150.25,18.714,19.6271,137.15,99.5369,97.5215,0.00132116,0.043774,21.0122,128.689,0.171905,0.0,0.0
609,152,18.2194,19.2483,142.398,99.5622,97.2819,0.00148376,0.0438185,21.012,128.689,0.194711,0.0,0.0
616,153.75,18.8045,18.9367,138.172,99.5702,97.318,0.00143469,0.0440902,21.0104,128.669,0.192265,0.0,0.0
623,155.5,18.6541,18.8638,143.018,99.5946,97.3635,0.00130152,0.044575,21.009,128.639,0.190398,0.0,0.0
630,157.25,19.07,19.1794,142.079,99.6239,97.3341,0.00132089,0.045072,21.0078,128.609,0.195407,0.0,0.0
637,159,18.9473,19.163,140.123,99.6275,97.0654,0.00145938,0.0455987,21.0047,128.569,0.218938,0.0,0.0
644,160.75,18.8414,19.3017,140.644,99.6387,97.1707,0.00150882,0.0461279,21.0032,128.499,0.21077,0.0,0.0
651,162.5,18.6625,19.2384,142.743,99.6487,97.1975,0.00145475,0.0465346,21.0026,128.339,0.2093,0.0,0.0
658,164.25,18.2744,19.2455,142.102,99.6799,97.177,0.00135662,0.0467865,21.0011,128.449,0.21371,0.0,0.0
665,166,18.8832,19.2372,142.781,99.6819,96.9838,0.00134693,0.0470579,21.0003,128.319,0.230605,0.0,0.0
672,167.75,18.68,19.1814,139.725,99.6964,97.2359,0.0014807,0.0471705,20.9999,128.269,0.210002,0.0,0.0
679,169.5,19.1772,19.5113,142.112,99.7092,97.2113,0.0016314,0.0471829,21.0007,128.188,0.213204,0.0,0.0
686,171.25,18.3876,19.6213,143.754,99.7184,97.3202,0.00183791,0.0473033,21.0009,128.168,0.204572,0.0,0.0
693,173,18.6666,19.5646,139.573,99.7212,96.6799,0.00197929,0.0474683,21.0002,128.048,0.260289,0.0,0.0
700,174.75,19.0665,19.7455,142.03,99.7172,96.3907,0.00214773,0.0476065,20.9999,128.068,0.285125,0.0,0.0
707,176.5,18.6501,19.1287,142.666,99.7312,96.4772,0.00235819,0.0479955,20.9997,127.918,0.278762,0.0,0.0
714,178.25,18.8669,19.5809,139.257,99.7344,96.5031,0.00254873,0.048396,20.9996,127.968,0.276777,0.0,0.0
721,180,18.7932,19.8125,141.502,99.7296,96.2849,0.00272732,0.0486888,20.9996,127.848,0.295397,0.0,0.0
728,181.75,19.1808,19.2142,144.633,99.7348,96.4246,0.00302387,0.0491235,20.9998,127.798,0.283654,0.0,0.0
735,183.5,18.8336,19.4899,142.75,99.7252,96.7687,0.00322655,0.0495048,20.9998,127.748,0.252911,0.0,0.0
742,185.25,18.4306,19.6066,138.211,99.7316,96.6696,0.00336438,0.0502249,20.9999,127.638,0.262059,0.0,0.0
749,187,19.0032,19.4651,137.559,99.726,97.1636,0.00351515,0.0512456,20.9987,127.608,0.218751,0.0,0.0
756,188.75,18.6992,19.4801,140.707,99.7384,96.8811,0.00366497,0.0526364,20.9963,127.608,0.244264,0.0,0.0
763,190.5,19.0877,19.7591,138.445,99.7284,96.9427,0.00386249,0.0538899,20.9943,127.608,0.238081,0.0,0.0
770,192.25,18.7707,19.6124,141.32,99.714,97.4358,0.0040904,0.0546796,20.9924,127.468,0.194226,0.0,0.0
777,194,18.9063,19.4456,138.465,99.7268,97.6509,0.00434886,0.0551082,20.9915,127.388,0.176775,0.0,0.0
784,195.75,19.0567,19.6537,138.025,99.7188,97.7107,0.00463311,0.0552259,20.9911,127.318,0.170956,0.0,0.0
791,197.5,18.8613,19.6664,147.158,99.726,97.7147,0.00488298,0.0553544,20.9909,127.237,0.171217,0.0,0.0
798,199.25,19.2301,19.8468,140.109,99.7124,97.9446,0.00506733,0.0556313,20.9908,127.197,0.150327,0.0,0.0
805,201,19.2819,20.5147,142.604,99.7172,98.0811,0.00522405,0.0565859,20.9895,127.087,0.139024,0.0,0.0
812,202.75,19.3368,19.4689,143.174,99.7144,97.9932,0.00544161,0.0576351,20.9877,127.057,0.146323,0.0,0.0
819,204.5,18.8598,20.1022,138.109,99.718,98.0356,0.00572964,0.0588702,20.9878,127.077,0.142993,0.0,0.0
826,206.25,19.2148,19.7404,138.03,99.7348,98.2346,0.0060359,0.0603437,20.9865,127.007,0.127367,0.0,0.0
833,208,18.9628,19.7284,138.988,99.7168,98.3333,0.00637111,0.0618988,20.9841,126.907,0.117415,0.0,0.0
840,209.75,18.8607,20.1745,146.011,99.7424,98.4493,0.00690314,0.0634595,20.9819,126.807,0.109664,0.0,0.0
847,211.5,19.1547,20.2222,142.325,99.7228,98.3721,0.00751385,0.0657624,20.979,126.837,0.114604,0.0,0.0
854,213.25,18.9905,19.8032,139.827,99.7388,98.5095,0.00812429,0.0683157,20.9759,126.717,0.10422,0.0,0.0
861,215,19.6229,20.3091,135.94,99.7308,98.5854,0.00858386,0.0713479,20.9716,126.637,0.0970762,0.0,0.0
868,216.75,19.3611,20.3754,140.774,99.7532,98.464,0.00879964,0.0744172,20.9682,126.587,0.109319,0.0,0.0
875,218.5,19.78,19.8863,139.423,99.7649,98.7697,0.00890978,0.076865,20.9645,126.487,0.0842481,0.0,0.0
882,220.25,19.5355,19.9668,141.778,99.7572,98.7219,0.00907262,0.0783637,20.9627,126.417,0.0876711,0.0,0.0
889,222,19.4941,20.0711,141.986,99.7685,98.9246,0.0093327,0.0788388,20.9618,126.347,0.0713865,0.0,0.0
896,223.75,19.3964,19.7184,137.739,99.7797,98.9964,0.00958013,0.078968,20.9614,126.397,0.0662296,0.0,0.0
903,225.5,19.3702,19.8805,137.802,99.7985,99.0986,0.00975775,0.0790963,20.9612,126.307,0.0591448,0.0,0.0
910,227.25,19.7101,20.1064,139.574,99.8009,99.0816,0.0100358,0.0791345,20.9609,126.267,0.060786,0.0,0.0
917,229,19.6533,20.2621,139.095,99.8197,98.991,0.0102046,0.0794341,20.9606,126.106,0.0700573,0.0,0.0
924,230.75,19.5678,20.1858,139.656,99.7933,99.1544,0.0101834,0.079647,20.9605,126.046,0.0539774,0.0,0.0
931,232.5,19.8696,20.4252,143.623,99.8153,99.0995,0.0101303,0.0797873,20.9605,125.966,0.0604857,0.0,0.0
938,234.25,19.9822,20.5408,145.419,99.8169,98.929,0.0100509,0.0801508,20.9604,125.886,0.0750888,0.0,0.0
945,236,19.7065,20.4276,139.727,99.833,99.1196,0.0099047,0.0806292,20.9598,125.696,0.0602668,0.0,0.0
952,237.75,19.5164,20.1344,139.123,99.8334,99.0973,0.00976421,0.0806883,20.9589,125.676,0.0621923,0.0,0.0
959,239.5,19.319,20.6748,138.701,99.8273,99.0687,0.00972204,0.0805846,20.9585,125.686,0.0641093,0.0,0.0
966,241.25,19.7165,20.5105,137.178,99.8317,99.0937,0.00971605,0.08099,20.9583,125.656,0.0623603,0.0,0.0
973,243,19.8694,20.4493,139.242,99.8382,99.2039,0.00970249,0.0820442,20.957,125.586,0.0535563,0.0,0.0
980,244.75,19.5096,20.1929,139.313,99.839,99.2619,0.00965693,0.0830436,20.9564,125.486,0.0487112,0.0,0.0
987,246.5,20.3274,20.3608,141.063,99.8426,99.0165,0.00955941,0.0831985,20.9567,125.446,0.0698209,0.0,0.0
994,248.25,20.1134,20.5368,142.949,99.8562,99.1548,0.00940168,0.0825564,20.9574,125.396,0.0592334,0.0,0.0
1001,250,19.8447,20.7038,139.438,99.847,99.0343,0.00923497,0.0819639,20.9579,125.386,0.0686763,0.0,0.0
1008,251.75,19.8127,20.7143,137.488,99.847,99.2405,0.00901168,0.0814024,20.9595,125.286,0.0511998,0.0,0.0
1015,253.5,20.06,20.6064,138.948,99.8478,99.3668,0.00873956,0.0804221,20.9615,125.135,0.0405788,0.0,0.0
1022,255.25,19.6549,20.9162,140.449,99.8558,99.1999,0.00839412,0.0792516,20.9625,125.175,0.0553808,0.0,0.0
1029,257,19.9146,21.1984,142.467,99.8586,99.116,0.0080918,0.0781378,20.9634,125.115,0.0627272,0.0,0.0
1036,258.75,20.3928,20.5916,140.406,99.8618,99.2209,0.00779722,0.0770006,20.9657,125.085,0.0541098,0.0,0.0
1043,260.5,20.0494,20.8568,139.342,99.8402,99.0785,0.00746773,0.0757083,20.9675,124.975,0.0643558,0.0,0.0
1050,262.25,20.2626,20.8073,142.373,99.8358,99.0852,0.00704804,0.0743663,20.9689,125.005,0.0634163,0.0,0.0
1057,264,20.0135,20.9605,137.37,99.8614,99.2235,0.00663105,0.0729438,20.9703,124.965,0.05385,0.0,0.0
1064,265.75,20.3786,20.723,139.849,99.863,99.1794,0.006175,0.0717183,20.9715,124.955,0.0577272,0.0,0.0
1071,267.5,20.0669,20.583,141.538,99.8574,99.1205,0.00585027,0.0708662,20.9727,124.855,0.0622469,0.0,0.0
1078,269.25,20.4439,21.1509,137.369,99.8518,99.0865,0.00561679,0.0701086,20.9737,124.755,0.0646511,0.0,0.0
1085,271,20.3853,21.0104,143.132,99.8666,99.0861,0.00527931,0.0690675,20.9747,124.735,0.0659364,0.0,0.0
1092,272.75,19.8652,21.1702,141.094,99.8538,99.0986,0.00493388,0.0677196,20.976,124.665,0.0637981,0.0,0.0
1099,274.5,20.7181,20.75,139.958,99.855,99.1557,0.00453534,0.0663715,20.9772,124.605,0.0590563,0.0,0.0
1106,276.25,20.2832,21.1117,141.867,99.8418,99.1588,0.0042343,0.0650038,20.9791,124.565,0.0576794,0.0,0.0
1113,278,20.0665,20.9179,137.379,99.8662,99.0781,0.00408972,0.063594,20.9809,124.565,0.0665844,0.0,0.0
1120,279.75,20.2816,21.1176,141.302,99.8434,99.245,0.0040673,0.0622278,20.9836,124.415,0.0505187,0.0,0.0
1127,281.5,20.0148,20.6705,137.398,99.8518,99.1736,0.00405268,0.0611452,20.9857,124.445,0.0572744,0.0,0.0
1134,283.25,20.3237,20.782,140.829,99.843,99.2356,0.0039055,0.0603191,20.9874,124.425,0.0512775,0.0,0.0
1141,285,20.2664,21.3648,142.749,99.8366,99.1923,0.00356844,0.0595124,20.9887,124.355,0.0544054,0.0,0.0
1148,286.75,20.168,20.8888,142.007,99.8342,99.0803,0.00327903,0.0588391,20.9894,124.345,0.0636976,0.0,0.0
1155,288.5,20.2949,20.9261,141.702,99.8322,99.1388,0.00311195,0.0582018,20.9909,124.365,0.0585728,0.0,0.0
1162,290.25,20.3007,21.346,137.997,99.8193,99.128,0.00301825,0.0577959,20.9916,124.265,0.0584017,0.0,0.0
1169,292,20.2346,21.192,135.305,99.8085,99.2124,0.00294937,0.0573764,20.992,124.285,0.0503435,0.0,0.0
1176,293.75,20.1223,20.8705,143.837,99.8137,99.166,0.00280701,0.0569095,20.9921,124.214,0.0547139,0.0,0.0
1183,295.5,20.2195,21.0344,142.768,99.8161,98.9835,0.00263696,0.0561632,20.9922,124.194,0.0703981,0.0,0.0
1190,297.25,20.3248,20.9833,139.603,99.8189,99.0705,0.00251087,0.0553234,20.9921,124.134,0.0632492,0.0,0.0
1197,299,19.9396,21.149,141.937,99.7917,99.0642,0.00245452,0.0545717,20.9928,124.104,0.0614852,0.0,0.0
1204,300.75,19.8624,21.1129,138.91,99.7873,99.0745,0.00245299,0.0537537,20.9942,124.074,0.060244,0.0,0.0
1211,302.5,19.6844,20.6165,139.235,99.7969,99.1325,0.00249714,0.0531309,20.9952,123.994,0.0561341,0.0,0.0
1218,304.25,20.154,20.937,141.892,99.7921,99.2302,0.00253647,0.0525679,20.9958,123.964,0.0474491,0.0,0.0
1225,306,19.5336,20.9164,139.651,99.7869,98.9964,0.00244887,0.0521154,20.9964,123.954,0.0668368,0.0,0.0
1232,307.75,19.4735,21.0398,143.22,99.7568,99.1401,0.00226275,0.0516577,20.9975,123.974,0.0521178,0.0,0.0
1239,309.5,19.9648,21.4365,137.682,99.7701,98.9228,0.00203856,0.0511829,20.9985,123.904,0.0716726,0.0,0.0
1246,311.25,19.7027,20.9822,142.513,99.7617,99.0504,0.00182255,0.050684,20.9997,123.884,0.0601296,0.0,0.0
1253,313,19.699,20.81,142.531,99.7625,99.0401,0.00167989,0.0502875,21.0003,123.854,0.0610675,0.0,0.0
1260,314.75,19.3465,20.7961,141.662,99.7536,99.0607,0.00163913,0.0500506,21.0006,123.824,0.0585828,0.0,0.0
1267,316.5,20.3102,20.6455,139.374,99.7608,99.0473,0.00166728,0.0495428,21.0007,123.874,0.0603265,0.0,0.0
1274,318.25,19.8886,20.693,138.792,99.7829,98.9897,0.00175473,0.0491819,21.0008,123.804,0.0670684,0.0,0.0
1281,320,19.5422,21.0751,142.695,99.7825,99.3887,0.00183661,0.0488504,21.0009,123.804,0.0332329,0.0,0.0
1288,321.75,19.903,20.3037,138.771,99.7877,99.0741,0.00187065,0.0484221,21.0016,123.744,0.0603156,0.0,0.0
1295,323.5,20.0157,20.7047,142.111,99.7937,99.1517,0.00181922,0.0476824,21.0023,123.714,0.0542382,0.0,0.0
1302,325.25,19.5873,20.2734,142.853,99.8169,99.0455,0.00161063,0.0471044,21.0034,123.674,0.0652008,0.0,0.0
1309,327,19.3303,20.6131,142.189,99.8253,99.3342,0.0013554,0.0467354,21.004,123.654,0.0414461,0.0,0.0
1316,328.75,20.0409,20.7133,144.531,99.8133,99.3016,0.00115969,0.0462277,21.0051,123.614,0.0431915,0.0,0.0
1323,330.5,19.9423,20.4129,144.119,99.8113,99.3213,0.00109036,0.0458961,21.006,123.584,0.0413614,0.0,0.0
1330,332.25,20.0052,20.852,143.496,99.8233,99.0151,0.001114,0.045722,21.0064,123.544,0.0683156,0.0,0.0
1337,334,19.5598,21.0138,141.387,99.8257,99.1959,0.00117779,0.0456171,21.0066,123.494,0.053192,0.0,0.0
1344,335.75,19.6425,20.5655,140.05,99.833,99.1575,0.00127756,0.0455556,21.0064,123.474,0.0570516,0.0,0.0
1351,337.5,19.5694,20.8293,141.041,99.8362,99.2967,0.00132738,0.0454409,21.0054,123.444,0.0455293,0.0,0.0
1358,339.25,19.52,20.7738,138.938,99.8306,99.0084,0.00124493,0.0453417,21.0057,123.454,0.069491,0.0,0.0
1365,341,19.0737,20.5753,140.39,99.8322,99.236,0.00106542,0.045268,21.0059,123.414,0.0503305,0.0,0.0
1372,342.75,19.7892,20.8136,143.057,99.8402,99.0825,0.000913923,0.0450947,21.0063,123.374,0.0640148,0.0,0.0
1379,344.5,20.2382,20.3384,138.084,99.8309,99.1486,0.00081294,0.0450004,21.0069,123.354,0.0576386,0.0,0.0
1386,346.25,19.6502,20.9236,137.671,99.8257,99.128,0.000794883,0.0449261,21.0071,123.324,0.0589409,0.0,0.0
1393,348,20.1529,20.7144,137.856,99.8422,99.1713,0.000824086,0.0447406,21.0073,123.304,0.0566535,0.0,0.0
1400,349.75,19.9103,20.3445,141.548,99.8406,99.0816,0.000836587,0.0444754,21.0073,123.294,0.0641232,0.0,0.0
1407,351.5,19.6611,20.3321,143.36,99.8454,99.1575,0.000886323,0.0443571,21.0074,123.274,0.0580963,0.0,0.0
1414,353.25,19.5299,20.4771,143.04,99.845,99.2459,0.000967334,0.0443177,21.0074,123.223,0.0505775,0.0,0.0
1421,355,19.4697,20.769,147.392,99.841,99.0629,0.000949144,0.0441322,21.0086,123.193,0.0657475,0.0,0.0
1428,356.75,20.2449,20.4391,139.737,99.8394,99.2262,0.000835591,0.0440205,21.0092,123.183,0.0517683,0.0,0.0
1435,358.5,20.1679,20.8917,137.778,99.841,99.2026,0.000796936,0.043855,21.0102,123.193,0.0539067,0.0,0.0
1442,360.25,19.884,21.0465,143.434,99.8281,99.2526,0.000843671,0.0437589,21.0109,123.163,0.0485946,0.0,0.0
1449,362,20.0108,20.7043,140.826,99.8037,99.0557,0.000802896,0.0435205,21.0106,123.123,0.0632174,0.0,0.0
1456,363.75,19.5944,20.8527,136.337,99.8037,99.0049,0.000645158,0.0434714,21.0106,123.103,0.0675345,0.0,0.0
1463,365.5,20.2995,20.1917,141.43,99.7789,99.0883,0.000532793,0.0434476,21.0106,123.103,0.0583629,0.0,0.0
1470,367.25,19.8901,20.7416,140.285,99.7589,99.0803,0.000546531,0.0433316,21.0105,123.063,0.057357,0.0,0.0
1477,369,19.9521,20.4787,140.97,99.7292,98.8996,0.000699229,0.0431419,21.0104,123.033,0.0702034,0.0,0.0
1484,370.75,19.9247,20.7351,138.875,99.6984,99.0754,0.000825129,0.0429421,21.0094,123.013,0.0526763,0.0,0.0
1491,372.5,20.0948,20.8672,142.937,99.6667,98.9005,0.000868371,0.0428348,21.0098,122.983,0.0648598,0.0,0.0
1498,374.25,19.7591,21.0233,133.943,99.6102,98.8648,0.000853346,0.0427764,21.0096,122.923,0.0631299,0.0,0.0
1505,376,19.9314,20.5977,140.004,99.5578,98.863,0.000848087,0.0426758,21.0096,122.903,0.0588534,0.0,0.0
1512,377.75,20.3659,21.267,141.302,99.4961,99.0018,0.000794135,0.042556,21.0095,122.853,0.0418558,0.0,0.0
1519,379.5,20.2808,20.8514,140.108,99.4464,98.8014,0.000677002,0.0424311,21.0095,122.873,0.0546851,0.0,0.0
1526,381.25,20.4057,20.782,143.075,99.3955,98.6715,0.000475789,0.0422558,21.0102,122.873,0.0614384,0.0,0.0
1533,383,20.113,20.5136,141.888,99.2978,98.5283,0.000335178,0.0421954,21.0104,122.873,0.0653807,0.0,0.0
1540,384.75,20.135,20.5266,141.937,99.2045,98.5077,0.000242881,0.0420284,21.0111,122.843,0.0592284,0.0,0.0
1547,386.5,20.4078,20.9677,143.346,99.1039,98.4247,0.000196152,0.0420219,21.0115,122.833,0.0577918,0.0,0.0
1554,388.25,20.0829,20.9812,138.924,98.9946,98.414,0.0001917,0.0421259,21.0116,122.813,0.0494293,0.0,0.0
1561,390,19.9658,21.0432,141.65,98.8724,98.0954,0.000211369,0.0420576,21.0114,122.803,0.0663031,0.0,0.0
1568,391.75,20.3934,20.5831,142.899,98.751,97.9887,0.000266852,0.0420249,21.0107,122.793,0.0651233,0.0,0.0
1575,393.5,20.1885,21.0655,143.931,98.6301,97.8455,0.000316083,0.0419914,21.0103,122.753,0.0671161,0.0,0.0
1582,395.25,19.8437,21.3307,140.793,98.5131,97.7629,0.000321896,0.0419931,21.011,122.743,0.0642385,0.0,0.0
1589,397,20.3439,20.7718,138.72,98.405,97.6447,0.00030261,0.0419706,21.0117,122.703,0.0651799,0.0,0.0
1596,398.75,20.2311,21.0837,140.249,98.3084,97.559,0.000283477,0.0420124,21.012,122.693,0.0643091,0.0,0.0
1603,400.5,20.6005,20.9464,140.387,98.1999,97.6648,0.000274706,0.0420419,21.0122,122.633,0.0459189,0.0,0.0
1610,402.25,20.5953,21.1672,137.386,98.1053,97.4175,0.000271474,0.0420944,21.0113,122.583,0.0591249,0.0,0.0
1617,404,20.5089,21.0126,142.81,98.0328,97.2274,0.000232122,0.0420618,21.0118,122.563,0.0693281,0.0,0.0
1624,405.75,20.6212,21.2628,138.631,97.9491,97.2172,0.000130085,0.0420832,21.0121,122.593,0.0630355,0.0,0.0
1631,407.5,20.8159,20.9812,140.595,97.8866,97.2355,3.86315e-05,0.0420564,21.0122,122.553,0.0560913,0.0,0.0
1638,409.25,20.755,21.1888,140.436,97.8518,97.1123,3.08202e-06,0.0421544,21.0123,122.553,0.0637503,0.0,0.0
1645,411,20.6456,21.0719,139.92,97.8478,97.0681,3.69855e-05,0.0421826,21.0115,122.513,0.0672304,0.0,0.0
1652,412.75,20.9205,21.4422,140.399,97.8129,96.982,8.15154e-05,0.0422103,21.0107,122.503,0.0716974,0.0,0.0
1659,414.5,20.9582,21.6481,139.692,97.8121,97.0802,0.000115897,0.0423815,21.0112,122.483,0.063125,0.0,0.0
1666,416.25,21.1043,21.3743,142.854,97.8093,97.0021,0.000162472,0.0426597,21.0115,122.473,0.069647,0.0,0.0
1673,418,20.695,21.852,143.878,97.8482,97.1261,0.000214984,0.0429526,21.0116,122.423,0.062244,0.0,0.0
1680,419.75,20.6556,21.2092,137.469,97.8938,97.1752,0.000229015,0.0430551,21.0106,122.393,0.0619188,0.0,0.0
1687,421.5,20.5394,21.6799,135.445,97.9423,97.1141,0.000239002,0.0431333,21.0099,122.393,0.0713666,0.0,0.0
1694,423.25,20.7387,21.5895,138.944,98.0064,97.301,0.000323968,0.0431635,21.0097,122.393,0.0606995,0.0,0.0
1701,425,20.4247,21.2104,139.892,98.0917,97.3229,0.000372449,0.0430322,21.0101,122.383,0.0661242,0.0,0.0
1708,426.75,20.72,21.2645,138.912,98.177,97.4729,0.000302144,0.0428214,21.0112,122.343,0.0604926,0.0,0.0
1715,428.5,20.5757,21.8632,141.565,98.2772,97.4505,0.000194097,0.0425387,21.0126,122.313,0.0709842,0.0,0.0
1722,430.25,20.8584,21.4893,138.184,98.3697,97.5853,0.000104781,0.0423369,21.0133,122.293,0.0672781,0.0,0.0
1729,432,21.0115,21.4528,140.473,98.4574,97.7241,4.72598e-05,0.0421749,21.0137,122.283,0.0628257,0.0,0.0
1736,433.75,20.9081,21.3722,144.386,98.5728,97.7536,1.24731e-05,0.0420313,21.0138,122.283,0.0701338,0.0,0.0
1743,435.5,20.7125,21.5967,150.653,98.6569,97.7656,-2.78948e-05,0.0420651,21.0139,122.252,0.0762663,0.0,0.0
1750,437.25,20.6987,21.501,139.532,98.7538,98.0298,-7.0413e-05,0.0420463,21.0139,122.172,0.0618422,0.0,0.0
1757,439,20.5228,21.2236,142.057,98.846,98.061,-7.8268e-05,0.0420195,21.0129,122.212,0.0669998,0.0,0.0
1764,440.75,20.726,21.2691,141.799,98.9337,98.1458,-0.000135314,0.0419484,21.0112,122.212,0.0671916,0.0,0.0
1771,442.5,20.444,21.345,135.55,99.0006,98.1945,-0.000169657,0.041937,21.0104,122.182,0.0687081,0.0,0.0
1778,444.25,20.5399,21.5167,140.009,99.0779,98.352,-0.000127827,0.0419141,21.01,122.162,0.0617965,0.0,0.0
1785,446,20.8721,21.3923,139.306,99.1011,98.2569,1.38311e-05,0.0418999,21.0101,122.152,0.0718931,0.0,0.0
1792,447.75,20.8325,21.4998,141.019,99.1408,98.3132,0.00021263,0.0418157,21.0111,122.152,0.0704468,0.0,0.0
1799,449.5,20.7357,21.0012,142.115,99.1784,98.3618,0.000327191,0.0417836,21.012,122.132,0.0694811,0.0,0.0
1806,451.25,20.7094,21.1402,140.661,99.1736,98.3346,0.000277426,0.0417083,21.0132,122.082,0.0713994,0.0,0.0
1813,453,20.0241,21.0499,139.105,99.166,98.4359,0.000145132,0.04168,21.0138,122.022,0.0621027,0.0,0.0
1820,454.75,20.3873,21.2216,136.419,99.14,98.398,1.9691e-05,0.0415845,21.014,122.052,0.0631349,0.0,0.0
1827,456.5,20.3619,21.1523,140.746,99.1248,98.3301,-4.8675e-05,0.041521,21.0135,122.072,0.0676399,0.0,0.0
1834,458.25,20.56,21.1061,139.041,99.1003,98.1757,-8.09424e-05,0.041435,21.0127,122.052,0.0787746,0.0,0.0
1841,460,20.4415,21.3016,137.187,99.0559,98.2788,-0.000123495,0.0412623,21.0114,122.012,0.0661839,0.0,0.0
1848,461.75,20.2545,21.5803,140.067,99.0242,98.202,-0.0001355,0.0411789,21.0107,122.012,0.0700653,0.0,0.0
1855,463.5,20.0362,21.5487,139.206,98.9762,98.2262,-8.83244e-05,0.04135,21.0104,121.982,0.0639223,0.0,0.0
1862,465.25,20.0092,21.1366,139.156,98.9245,97.9142,-2.0719e-05,0.0414148,21.0102,121.972,0.0862642,0.0,0.0
1869,467,20.1739,21.2936,142.807,98.8808,98.0405,4.58273e-06,0.0413694,21.0113,121.932,0.0717222,0.0,0.0
1876,468.75,20.3365,21.2574,139.764,98.8424,98.1373,-2.06722e-05,0.0413617,21.0118,121.912,0.0601564,0.0,0.0
1883,470.5,20.4789,21.107,143.962,98.8043,98.0485,-3.6056e-05,0.0413517,21.0115,121.902,0.0645288,0.0,0.0
1890,472.25,20.0998,21.0875,136.023,98.9986,98.1405,3.97549e-05,0.0414486,21.0107,121.922,0.0731604,0.0,0.0
1897,474,20.38,21.1583,146.797,99.2109,98.2311,0.000197246,0.0415443,21.0104,121.872,0.083409,0.0,0.0
1904,475.75,20.3756,20.9005,143.489,99.3883,98.6287,0.000334058,0.0415796,21.0102,121.812,0.0644781,0.0,0.0
1911,477.5,20.2705,21.0458,143.356,99.5137,98.6822,0.000460026,0.0414875,21.0112,121.812,0.0705113,0.0,0.0
1918,479.25,19.8945,21.0614,143.515,99.6038,98.7407,0.000589903,0.0414515,21.0118,121.832,0.0731415,0.0,0.0
1925,481,19.9314,20.8844,146.838,99.6403,98.7429,0.000668784,0.0413777,21.0121,121.802,0.076026,0.0,0.0
1932,482.75,19.8751,21.1816,143.053,99.6275,98.788,0.000625087,0.0412914,21.0131,121.782,0.0711104,0.0,0.0
1939,484.5,20.315,21.4542,139.529,99.5638,98.6586,0.000576541,0.0411628,21.0135,121.792,0.0767527,0.0,0.0
1946,486.25,20.0849,20.9468,137.472,99.45,98.6041,0.000528511,0.0411351,21.0126,121.772,0.0717848,0.0,0.0
1953,488,20.312,20.8567,141.444,99.2682,98.4493,0.000461399,0.0412202,21.0122,121.732,0.0696113,0.0,0.0
1960,489.75,20.4107,21.057,140.838,99.0823,98.2342,0.00039175,0.0411662,21.0124,121.722,0.0722427,0.0,0.0
1967,491.5,20.4785,21.2052,139.229,99.1624,98.381,0.000371508,0.0412117,21.0125,121.682,0.066484,0.0,0.0
1974,493.25,19.858,20.9324,139.686,99.2662,98.3154,0.000368835,0.0411904,21.0117,121.652,0.0808763,0.0,0.0
1981,495,19.7285,20.7288,141.665,99.3799,98.4984,0.000286002,0.041195,21.0109,121.662,0.0748773,0.0,0.0
1988,496.75,20.0741,20.6993,140.764,99.5029,98.7559,0.000203182,0.0412432,21.0115,121.652,0.0633298,0.0,0.0
1995,498.5,19.8191,20.9315,140.453,99.6146,98.751,0.00022849,0.0412305,21.0119,121.632,0.0731803,0.0,0.0
2002,500.25,19.9078,21.0641,144.337,99.7164,98.8143,0.000258158,0.0413767,21.0118,121.622,0.0763685,0.0,0.0
2009,502,19.939,20.628,138.323,99.8065,98.9281,0.000236792,0.041438,21.0117,121.602,0.0742875,0.0,0.0
2016,503.75,19.9805,20.8652,139.039,99.873,99.0687,0.00020097,0.0413792,21.0117,121.612,0.0679519,0.0,0.0
2023,505.5,20.1067,20.9626,138.813,99.8862,99.0745,0.000126606,0.0414769,21.0109,121.572,0.0685729,0.0,0.0
2030,507.25,19.692,20.9335,141.049,99.869,98.9589,1.5549e-05,0.0414882,21.0113,121.572,0.0769324,0.0,0.0
2037,509,20.3763,21.3244,142.469,99.7849,99.0392,-1.79111e-05,0.0414556,21.0118,121.532,0.0630335,0.0,0.0
2044,510.75,19.8385,21.0085,139.758,99.6799,98.7264,4.89666e-05,0.04144,21.0121,121.482,0.0807761,0.0,0.0
2051,512.5,20.0175,20.7975,142.925,99.5149,98.6613,0.000229063,0.041392,21.0122,121.462,0.0723986,0.0,0.0
2058,514.25,19.9876,20.5643,141.508,99.3286,98.5118,0.000412127,0.0412983,21.0115,121.452,0.0693986,0.0,0.0
2065,516,20.1297,20.4439,140.895,99.0803,98.2244,0.000501199,0.0413392,21.0107,121.442,0.0729131,0.0,0.0
2072,517.75,20.1808,20.8561,139.915,98.864,98.0615,0.000440361,0.0413591,21.0093,121.412,0.0684944,0.0,0.0
2079,519.5,19.5283,20.8291,141.109,98.6297,97.7183,0.00035953,0.0413939,21.0085,121.432,0.0780133,0.0,0.0
2086,521.25,19.994,20.7908,139.923,98.421,97.6023,0.000298567,0.0413105,21.0081,121.422,0.0701964,0.0,0.0
2093,523,20.0758,20.9877,141.315,98.1971,97.3787,0.000239525,0.0414078,21.0079,121.402,0.0703285,0.0,0.0
2100,524.75,20.2315,20.4409,136.95,98.0485,97.2372,0.000189067,0.0413805,21.0078,121.312,0.0698179,0.0,0.0
2107,526.5,19.9028,20.4978,137.582,97.9359,97.0275,0.000177895,0.0414277,21.0078,121.322,0.0783121,0.0,0.0
2114,528.25,19.8445,20.7916,138.192,97.8738,97.1721,0.00018907,0.0416058,21.0084,121.342,0.0604688,0.0,0.0
2121,530,20.2147,20.8854,142.634,97.8658,96.9182,0.000219894,0.0415321,21.0091,121.352,0.0817702,0.0,0.0
2128,531.75,19.9842,20.9751,140.148,97.9063,97.023,0.00025169,0.0413733,21.0094,121.251,0.0761551,0.0,0.0
2135,533.5,20.1401,21.0171,143.146,98.016,97.1676,0.000207712,0.0414021,21.0096,121.221,0.0730561,0.0,0.0
2142,535.25,19.9416,20.6337,141.043,98.1438,97.497,0.000178998,0.0414516,21.0096,121.211,0.0555689,0.0,0.0
2149,537,19.8883,20.8353,138.765,98.3104,97.5666,0.000182434,0.0415419,21.0097,121.231,0.0638269,0.0,0.0
2156,538.75,19.9294,20.6989,136.563,98.4831,97.7803,0.000171956,0.0415628,21.0097,121.251,0.0601793,0.0,0.0
2163,540.5,20.0952,20.8646,141.683,98.6669,97.8348,0.00013273,0.0416524,21.0097,121.221,0.0711759,0.0,0.0
2170,542.25,20.301,20.4194,138.312,98.8412,97.9834,9.66472e-05,0.0415826,21.0108,121.211,0.0732488,0.0,0.0
2177,544,19.7902,20.8572,137.69,98.9798,98.0789,7.91287e-05,0.0415558,21.0114,121.201,0.0768371,0.0,0.0
2184,545.75,19.9793,20.9005,139.381,99.0791,98.5287,6.3719e-05,0.0415386,21.0117,121.191,0.0468126,0.0,0.0
2191,547.5,20.2175,21.0596,139.054,99.1652,98.2262,9.47059e-05,0.041554,21.0119,121.161,0.0799605,0.0,0.0
2198,549.25,20.2721,20.5772,144.617,99.2005,98.2819,0.000177919,0.0415276,21.0119,121.131,0.0781751,0.0,0.0
2205,551,19.5699,20.5566,140.105,99.2061,98.3216,0.000215911,0.0415276,21.012,121.151,0.0752556,0.0,0.0
2212,552.75,19.8761,20.8564,143.125,99.1528,98.3515,0.000203565,0.0415116,21.0122,121.101,0.0681864,0.0,0.0
2219,554.5,19.9727,20.95,140.338,99.0939,98.2592,0.000188456,0.0415232,21.0118,121.091,0.0710905,0.0,0.0
2226,556.25,19.6277,20.3654,142.06,99.0314,98.0874,0.00016775,0.0415799,21.0109,121.101,0.0804963,0.0,0.0
2233,558,20.2491,20.762,137.325,98.9665,98.2859,0.000172706,0.0416672,21.0104,121.081,0.0579908,0.0,0.0
2240,559.75,20.0704,21.0688,140.458,98.8904,98.0637,0.00023279,0.041807,21.0102,121.061,0.0705501,0.0,0.0
2247,561.5,19.5735,21.1185,144.04,98.8279,97.9214,0.000462716,0.0419296,21.0101,121.021,0.0774466,0.0,0.0
2254,563.25,20.5761,20.8022,147.096,98.7895,98.0079,0.000666415,0.0420127,21.01,121.011,0.0667494,0.0,0.0
2261,565,19.9705,20.8644,142.249,98.9858,98.306,0.000707046,0.041979,21.01,120.981,0.0579072,0.0,0.0
2268,566.75,20.4359,20.9245,144.063,99.2477,98.5144,0.000608294,0.0420109,21.01,120.971,0.0623215,0.0,0.0
2275,568.5,19.7029,20.9049,141.015,99.4392,98.7518,0.000501663,0.0419443,21.01,120.941,0.0582903,0.0,0.0
2282,570.25,20.1088,21.0617,140.446,99.5562,98.7367,0.000501716,0.0420484,21.01,120.941,0.0694612,0.0,0.0
2289,572,20.0121,20.8574,139.361,99.6271,98.7987,0.000509818,0.0421982,21.01,120.871,0.0701656,0.0,0.0
2296,573.75,20.2451,20.7944,143.366,99.6046,98.7947,0.000493546,0.0421363,21.01,120.811,0.0686157,0.0,0.0
2303,575.5,20.0633,20.7219,138.83,99.5145,98.6519,0.000407171,0.0420123,21.0093,120.841,0.0731634,0.0,0.0
2310,577.25,20.4649,20.7698,143.827,99.3439,98.5443,0.000333932,0.041929,21.0089,120.851,0.0679082,0.0,0.0
2317,579,19.9916,21.0265,140.066,99.1292,98.3243,0.000330432,0.0417567,21.0086,120.841,0.0685083,0.0,0.0
2324,580.75,20.2915,21.0016,140.877,99.1424,98.3752,0.00032272,0.0418417,21.0085,120.871,0.0652823,0.0,0.0
2331,582.5,20.0749,20.7866,144.14,99.2417,98.5484,0.000283359,0.0418956,21.0084,120.801,0.05892,0.0,0.0
2338,584.25,20.0867,21.0426,141.843,99.3807,98.5961,0.000238784,0.0419755,21.0084,120.731,0.0666112,0.0,0.0
2345,586,19.8415,21.0085,142.002,99.5049,98.6367,0.000165416,0.0419872,21.0084,120.721,0.073644,0.0,0.0
2352,587.75,20.3684,20.9055,137.945,99.6399,98.9089,0.000109984,0.0418183,21.0084,120.741,0.061877,0.0,0.0
2359,589.5,20.5498,20.8517,138.836,99.7592,98.8964,0.000149039,0.0418447,21.0084,120.721,0.0729985,0.0,0.0
2366,591.25,20.2553,20.5482,140.897,99.8309,99.1147,0.000194211,0.0417999,21.0084,120.671,0.0605145,0.0,0.0
2373,593,20.1394,20.9664,141.189,99.869,99.299,0.000197122,0.0418271,21.0084,120.611,0.0481046,0.0,0.0
2380,594.75,20.2914,21.4746,136.875,99.871,99.0508,0.000240066,0.0419147,21.0084,120.571,0.0692983,0.0,0.0
2387,596.5,20.1621,20.8858,138.113,99.8502,98.9486,0.000326676,0.0419758,21.0084,120.521,0.0762196,0.0,0.0
2394,598.25,20.4494,21.1063,139.983,99.7576,98.9839,0.000355692,0.041819,21.0084,120.501,0.0654354,0.0,0.0
2401,600,19.9607,20.7195,141.513,99.6207,98.7809,0.000346617,0.0416881,21.0086,120.581,0.0711431,0.0,0.0
2408,601.75,20.1712,21.0512,139.69,99.46,98.634,0.000357125,0.0416255,21.0086,120.491,0.0700822,0.0,0.0
2415,603.5,19.2629,20.1782,138.66,99.263,98.5434,0.000323222,0.0416757,21.0087,120.461,0.0611361,0.0,0.0
2422,605.25,19.9681,20.2109,137.283,99.0615,98.4176,0.000190956,0.0417064,21.0089,120.461,0.0548005,0.0,0.0
2429,607,19.5213,20.4834,141.559,98.834,97.9405,8.80908e-05,0.0416826,21.0092,120.541,0.0763109,0.0,0.0
2436,608.75,19.1853,20.982,139.037,98.6193,97.7603,4.34413e-05,0.0416991,21.0094,120.461,0.0735189,0.0,0.0
2443,610.5,19.4371,21.0636,142.648,98.4166,97.5295,3.86379e-05,0.041707,21.0095,120.431,0.0760866,0.0,0.0
2450,612.25,19.6742,20.574,144.009,98.2455,97.6219,0.000101148,0.0418331,21.0103,120.431,0.0535125,0.0,0.0
2457,614,19.7986,20.3055,136.749,98.0873,97.409,0.000213683,0.0421766,21.0111,120.441,0.0583122,0.0,0.0
2464,615.75,19.9356,20.3969,140.427,97.9852,97.094,0.000312211,0.0423729,21.0111,120.401,0.0767815,0.0,0.0
2471,617.5,19.8354,20.5834,141.812,97.9143,97.1243,0.000397828,0.042358,21.0111,120.341,0.0680731,0.0,0.0
2478,619.25,19.5895,20.8109,142.73,97.8866,97.0279,0.000423003,0.0421263,21.011,120.291,0.0740442,0.0,0.0
2485,621,19.584,20.2442,141.719,97.8978,96.9766,0.000396868,0.0420034,21.0113,120.401,0.0794534,0.0,0.0
2492,622.75,19.792,20.3246,140.557,97.9383,97.2234,0.000349282,0.0418581,21.0118,120.381,0.0615677,0.0,0.0
2499,624.5,19.1023,20.8203,135.796,97.9892,97.3399,0.000250844,0.0418951,21.011,120.341,0.0558704,0.0,0.0
2506,626.25,19.8162,20.0105,140.876,98.1049,97.3185,0.000143536,0.0418856,21.0105,120.321,0.0676408,0.0,0.0
2513,628,19.8331,20.2519,141.023,98.2111,97.3765,5.85235e-05,0.0418288,21.0102,120.291,0.0717202,0.0,0.0
2520,629.75,19.5618,20.2524,137.275,98.3297,97.8227,2.15793e-05,0.0417829,21.0101,120.301,0.0434357,0.0,0.0
2527,631.5,19.0311,20.5442,140.335,98.4418,97.6692,0.000105674,0.0418207,21.01,120.341,0.0662137,0.0,0.0
2534,633.25,19.5938,20.2418,138.911,98.5756,97.9954,0.000190306,0.0418162,21.01,120.331,0.0496055,0.0,0.0
2541,635,19.3365,20.3669,143.599,98.6881,97.8624,0.000237085,0.04177,21.01,120.281,0.0706077,0.0,0.0
2548,636.75,19.7489,20.3651,139.698,98.8031,98.1565,0.000247781,0.041676,21.01,120.281,0.0551747,0.0,0.0
2555,638.5,19.888,20.1809,144.018,98.8936,98.0468,0.000180179,0.0416197,21.01,120.291,0.0722755,0.0,0.0
2562,640.25,19.629,20.2558,141.74,98.9717,98.3645,6.27195e-05,0.0415594,21.01,120.19,0.0517206,0.0,0.0
2569,642,19.8963,20.0344,141.972,99.0639,98.4377,6.04712e-06,0.0415639,21.01,120.25,0.0532896,0.0,0.0
2576,643.75,19.4997,20.5332,139.945,99.1107,98.1918,1.01834e-05,0.0415192,21.01,120.18,0.0782823,0.0,0.0
2583,645.5,19.4674,20.4888,136.354,99.152,98.5698,7.81002e-05,0.0415038,21.0093,120.12,0.049493,0.0,0.0
2590,647.25,19.5553,20.6236,141.696,99.1792,98.5925,0.000155059,0.0415335,21.009,120.07,0.0498605,0.0,0.0
2597,649,19.7136,20.2402,143.832,99.2025,98.4158,0.0001583,0.0415708,21.0088,120.11,0.0669054,0.0,0.0
2604,650.75,19.9375,20.2561,142.458,99.1937,98.4872,7.3942e-05,0.0417534,21.0088,120.11,0.0600639,0.0,0.0
2611,652.5,19.764,20.3376,139.729,99.1768,98.5667,-3.18189e-05,0.0418211,21.0087,120.08,0.0518629,0.0,0.0
2618,654.25,19.7243,20.7288,141.463,99.1468,98.5296,-4.08229e-05,0.0417376,21.0087,120.08,0.0524752,0.0,0.0
2625,656,19.6718,20.3441,138.382,99.1232,98.6523,-9.49908e-06,0.0417107,21.0087,120.07,0.0400125,0.0,0.0
2632,657.75,19.6524,20.3126,143.858,99.0915,98.3038,1.02238e-05,0.0419197,21.0087,120.07,0.0670704,0.0,0.0
2639,659.5,20.0078,20.9074,142.612,99.0563,98.2743,1.13267e-05,0.0419961,21.0087,120.06,0.0665993,0.0,0.0
2646,661.25,19.8148,20.3141,143.435,99.0122,98.3109,2.55741e-05,0.0420872,21.0087,120.04,0.0597317,0.0,0.0
2653,663,19.394,19.8312,143.916,98.987,98.169,0.000105324,0.0420171,21.0087,119.99,0.0697285,0.0,0.0
2660,664.75,19.2303,20.1091,140.828,98.9593,98.3926,0.000212012,0.0419684,21.0089,120.04,0.0482639,0.0,0.0
2667,666.5,20.0973,20.2566,141.876,98.9161,98.1757,0.000285668,0.0418962,21.0098,119.91,0.0631349,0.0,0.0
2674,668.25,19.4761,20.5778,145.164,98.8904,98.0285,0.000255001,0.0418156,21.0092,119.94,0.0735715,0.0,0.0
2681,670,19.8146,19.5551,140.785,98.8388,98.0445,0.000128902,0.0417541,21.0089,119.93,0.0678018,0.0,0.0
2688,671.75,19.1004,20.4756,140.072,98.8251,98.0209,9.77439e-06,0.0419009,21.0088,119.9,0.0686713,0.0,0.0
2695,673.5,19.7305,20.1539,141.22,98.8075,97.9789,3.75917e-06,0.0419678,21.009,119.9,0.0707706,0.0,0.0
2702,675.25,19.6572,20.2415,140.004,98.7963,97.8964,3.39296e-06,0.0418946,21.0093,119.89,0.0769006,0.0,0.0
2709,677,19.4699,20.2986,136.411,98.7631,98.0588,-2.00702e-05,0.0416837,21.0096,119.85,0.0601395,0.0,0.0
2716,678.75,19.6553,20.1744,146.699,98.7506,98.0753,-3.66615e-05,0.0415845,21.0091,119.87,0.0576675,0.0,0.0
2723,680.5,19.2644,20.0902,139.575,98.7502,98.0735,-6.38379e-05,0.041662,21.0089,119.85,0.0577859,0.0,0.0
2730,682.25,19.2575,20.2821,139.942,98.7442,98.0726,-9.43003e-05,0.0417243,21.009,119.84,0.0573511,0.0,0.0
2737,684,19.7055,20.1547,145.237,98.7298,97.9753,-0.00011159,0.041772,21.01,119.8,0.0644652,0.0,0.0
2744,685.75,19.5146,20.4236,138.326,98.7198,98.1208,-9.1981e-05,0.0417238,21.0105,119.77,0.0511431,0.0,0.0
2751,687.5,19.4417,20.0686,140.89,98.7174,97.9222,-1.59989e-05,0.0418916,21.0098,119.75,0.0679638,0.0,0.0
2758,689.25,19.2781,20.1995,140.673,98.7615,97.9495,3.36773e-05,0.0420771,21.0093,119.75,0.0693778,0.0,0.0
2765,691,19.8654,20.4011,141.374,98.8279,97.9812,7.14741e-05,0.0421216,21.0103,119.72,0.0723162,0.0,0.0
2772,692.75,19.8857,20.2378,142.605,98.8912,98.2462,0.00015747,0.0422432,21.0115,119.69,0.0549916,0.0,0.0
2779,694.5,19.368,20.2272,138.806,98.9573,98.2587,0.000258572,0.0422435,21.0121,119.74,0.0595368,0.0,0.0
2786,696.25,19.2924,19.8739,140.903,99.0214,98.4154,0.000281886,0.042271,21.0119,119.74,0.0515921,0.0,0.0
2793,698,19.3873,19.8746,143.379,99.0943,98.3453,0.000292065,0.0423273,21.0111,119.73,0.0637613,0.0,0.0
2800,699.75,19.8004,20.1328,141.491,99.1292,98.423,0.000343273,0.0423415,21.0106,119.65,0.0600838,0.0,0.0
2807,701.5,19.1661,19.8462,139.987,99.1796,98.4854,0.000395167,0.0424157,21.01,119.64,0.0590284,0.0,0.0
2814,703.25,19.4857,19.9365,140.389,99.2269,98.4408,0.000363588,0.0424257,21.0097,119.71,0.0668418,0.0,0.0
2821,705,19.2727,20.1395,139.951,99.2529,98.4359,0.000319363,0.0424119,21.0096,119.64,0.0694662,0.0,0.0
2828,706.75,19.3543,20.0526,138.771,99.2854,98.5131,0.000292432,0.0423564,21.0095,119.66,0.0656233,0.0,0.0
2835,708.5,19.6548,20.3666,139.869,99.3174,98.6916,0.000281159,0.0424409,21.0095,119.64,0.0531213,0.0,0.0
2842,710.25,19.9308,20.0309,144.114,99.3435,98.634,,0.0424581,,119.62,0.0602281,0.0,0.0
2849,712,19.0978,20.4381,140.828,99.3803,98.5537,,0.0425426,,119.61,0.0701914,0.0,0.0
2856,713.75,19.2048,20.2036,141.719,99.4035,98.8116,,,,119.56,0.0501901,0.0,0.0
2863,715.5,19.3049,20.2931,140.47,99.4448,98.9134,,,,119.59,0.0450281,0.0,0.0
2870,717.25,19.6711,20.1371,139.902,99.462,98.7237,,,,119.57,0.0626129,0.0,0.0
2877,719,19.6302,20.0582,139.807,99.4945,98.7706,,,,119.57,0.0613659,0.0,0.0
2883,720.5,19.3335,20.2382,139.028,99.5001,99.1508,,,,119.57,0.0295521,0.0,0.0