File: 01_Data/Standard_Gypsum_Wallboard/Cone/Standard_Gypsum_Wallboard_Cone_HF75Scan_220511_R3.csv
Names,Time,Stack TC,Smoke TC,Exh Press,Smoke Comp,Smoke Meas,CO Meter,CO2 Meter,O2 Meter,Sample Mass,Ext Coeff,Start Test,Flame Verif
Chan Gain,,500,500,1,1,1,1,1,1,1,1,1.0,1.0
Offset,,0,0,0.138628,0,0,0,0,0,0,0,0.0,0.0
Gain,,1,1,25.011,13.1256,14.6231,1,1,1,1.001,0.958019,1.0,1.0
Units,sec,C,C,Pa,%,%,%,%,%,g,/m,,
Baseline,,45.0782,46.7764,130.602,99.3916,102.098,0.000172271,0.0411066,21.0091,-445.988,-0.225661,,
2,0.25,41.7469,43.5589,129.743,99.1764,102.152,3.98881e-05,0.0434278,21.0056,132.273,-0.248417,0.0,0.0
4,0.75,40.8863,42.9312,132.053,99.1576,102.15,9.66675e-05,0.0440223,21.0048,132.212,-0.249866,0.0,0.0
6,1.25,40.1513,42.0546,129.841,99.1548,101.522,0.000162315,0.0445038,21.001,132.202,-0.19829,0.0,0.0
8,1.75,39.9679,42.2276,129.463,99.1204,101.684,0.000233179,0.0488913,20.998,132.152,-0.214572,0.0,0.0
10,2.25,40.1266,42.0043,126.883,99.132,101.678,0.000314067,0.0524452,20.9886,132.122,-0.213107,0.0,0.0
12,2.75,40.2385,42.0892,127.11,99.1143,104.672,0.000400724,0.0597946,20.9809,132.132,-0.458443,0.0,0.0
14,3.25,40.4826,42.0779,126.251,99.1384,102.717,0.000503974,0.0697713,20.9712,132.202,-0.298029,0.0,0.0
16,3.75,40.4897,41.8925,123.56,99.1035,102.695,0.000617359,0.0801471,20.9634,132.062,-0.299195,0.0,1.0
18,4.25,40.1834,42.2831,123.501,99.0939,103.403,0.000746778,0.0906167,20.957,132.012,-0.357729,0.0,1.0
20,4.75,40.9368,42.6193,128.196,99.0771,101.836,0.000885428,0.0987782,20.9518,132.002,-0.23077,0.0,1.0
22,5.25,41.0427,42.3076,126.995,99.0879,101.859,0.000997734,0.105102,20.9477,131.972,-0.231804,0.0,1.0
24,5.75,41.1092,42.6141,128.376,99.0639,102.667,0.00113849,0.108337,20.9443,131.932,-0.300221,0.0,1.0
26,6.25,41.4666,42.831,126.209,99.0623,102.322,0.00129732,0.109258,20.9415,131.892,-0.27211,0.0,1.0
28,6.75,41.7001,42.7826,128.595,99.0451,102.305,0.00142598,0.108025,20.9428,131.832,-0.272178,0.0,1.0
30,7.25,41.5992,43.0752,129.995,99.0663,101.998,0.00159096,0.105245,20.9438,131.842,-0.245119,0.0,1.0
32,7.75,41.5413,42.6806,129.469,99.0286,102.379,0.00172459,0.102993,20.9473,131.802,-0.279581,0.0,0.0
34,8.25,42.132,43.3646,129.375,99.0282,100.718,0.00186684,0.0981557,20.9501,131.782,-0.142156,0.0,0.0
36,8.75,40.3749,41.8194,127.513,99.0138,101.942,0.00198206,0.0942375,20.9536,131.772,-0.2449,0.0,0.0
38,9.25,40.7678,41.86,126.56,99.0046,102.051,0.00208757,0.0900628,20.9576,131.712,-0.254654,0.0,0.0
40,9.75,40.8107,41.8493,129.866,98.9898,101.007,0.00218399,0.0857804,20.9608,131.692,-0.169513,0.0,0.0
42,10.25,40.2412,42.0073,127.63,98.985,100.806,0.00226595,0.0823117,20.9643,131.662,-0.153235,0.0,0.0
44,10.75,40.6937,41.698,130.904,98.9633,100.723,0.00233579,0.078371,20.9671,131.662,-0.148074,0.0,0.0
46,11.25,40.8635,42.1731,130.196,98.9753,100.61,0.00239429,0.075179,20.9702,131.632,-0.137666,0.0,0.0
48,11.75,40.4439,42.4478,132.363,98.9393,100.152,0.0024434,0.0720898,20.9728,131.622,-0.102359,0.0,0.0
50,12.25,40.9492,42.4596,129.545,98.9465,99.9898,0.00248319,0.0695876,20.9751,131.612,-0.0881424,0.0,0.0
52,12.75,40.9819,42.0755,128.65,98.9289,100.303,0.00252183,0.0674319,20.9772,131.472,-0.115928,0.0,0.0
54,13.25,40.7711,42.5184,129.056,98.9401,100.384,0.0025589,0.0655698,20.9788,131.422,-0.121777,0.0,0.0
56,13.75,40.6894,42.7004,130.343,98.9405,100.11,0.00260498,0.0640257,20.9802,131.492,-0.0987728,0.0,0.0
58,14.25,41.1502,42.4684,129.509,98.9501,99.5074,0.00265674,0.0627428,20.9813,131.472,-0.0471937,0.0,0.0
60,14.75,41.3064,42.291,127.038,98.9313,99.4944,0.00269868,0.0617036,20.9822,131.352,-0.0476994,0.0,0.0
62,15.25,41.0947,42.6318,129.56,98.9501,100.025,0.00273264,0.0609163,20.9829,131.332,-0.0907607,0.0,0.0
64,15.75,41.155,42.7277,134.318,98.9513,98.4787,0.00284566,0.0602786,20.984,131.342,0.0402309,0.0,0.0
66,16.25,41.1034,42.6077,130.476,98.9617,98.3904,0.00293721,0.059762,20.9854,131.282,0.0486594,0.0,0.0
68,16.75,41.5158,42.8887,126.306,98.9601,98.0887,0.00305175,0.0595476,20.9863,131.262,0.0743292,0.0,0.0
70,17.25,41.1279,42.4222,131.297,98.9673,98.0392,0.00314452,0.059374,20.9868,131.211,0.0791864,0.0,0.0
72,17.75,41.3052,42.8434,127.255,98.9589,97.0627,0.00322353,0.0592333,20.9872,131.121,0.162588,0.0,0.0
74,18.25,41.4722,42.5668,124.883,98.9665,96.5589,0.00329102,0.0629993,20.9849,131.081,0.206969,0.0,0.0
76,18.75,41.2361,42.2208,130.578,98.9617,96.2791,0.00334568,0.0660497,20.9831,130.981,0.230948,0.0,0.0
78,19.25,41.2364,43.3299,130.52,98.9814,98.6483,0.00334589,0.0792271,20.9636,130.931,0.0283241,0.0,0.0
80,19.75,41.6445,42.9801,122.884,98.9673,102.905,0.00334607,0.0899009,20.9479,130.801,-0.327861,0.0,0.0
82,20.25,41.3266,43.2102,120.347,98.9742,104.776,0.0033134,0.115062,20.9351,130.901,-0.478718,0.0,0.0
84,20.75,42.0206,42.9539,118.451,98.9621,103.375,0.00325742,0.135442,20.9077,130.851,-0.366591,0.0,0.0
86,21.25,41.9963,43.0354,117.313,98.9782,104.991,0.00320051,0.163063,20.8855,130.521,-0.495613,0.0,0.0
88,21.75,42.3755,43.4797,112.513,98.9633,105.595,0.00314401,0.195439,20.8567,130.611,-0.545062,0.0,0.0
90,22.25,42.4334,43.6921,117.945,98.9826,104.771,0.00309824,0.221663,20.8236,130.501,-0.477647,0.0,0.0
92,22.75,42.9945,44.0476,113.492,98.9794,105.219,0.00306117,0.250153,20.7841,130.421,-0.513745,0.0,0.0
94,23.25,43.9303,44.6244,112.94,98.993,104.622,0.00303371,0.279754,20.7521,130.351,-0.464798,0.0,0.0
96,23.75,44.0964,44.4203,112.235,98.989,104.84,0.00301378,0.303731,20.7222,130.19,-0.482613,0.0,0.0
98,24.25,44.4741,44.7014,111.663,99.0022,105.023,0.00299571,0.328552,20.698,130.15,-0.496108,0.0,0.0
100,24.75,45.0863,45.6699,114.09,98.9978,105.328,0.00297934,0.348656,20.6784,130.08,-0.520907,0.0,0.0
102,25.25,45.5601,45.9194,114.321,99.0026,104.721,0.00296608,0.365232,20.6626,130.02,-0.471936,0.0,0.0
104,25.75,46.3165,46.0909,113.719,98.9954,105.325,0.00295424,0.378659,20.6442,129.93,-0.520826,0.0,0.0
106,26.25,47.2206,47.1079,113.684,99.0046,105.278,0.00295105,0.387517,20.6393,129.84,-0.516341,0.0,0.0
108,26.75,47.5772,47.8915,111.31,99.0046,105.133,0.00295846,0.394692,20.6309,129.78,-0.504755,0.0,0.0
110,27.25,48.1969,48.357,115.812,99.0126,106.003,0.00297602,0.396965,20.6276,129.71,-0.573277,0.0,0.0
112,27.75,48.8057,49.1998,113.202,99.0122,104.733,0.00299025,0.398807,20.6249,129.59,-0.472051,0.0,0.0
114,28.25,49.3204,49.5055,115.99,99.0134,104.887,0.00309716,0.395149,20.6257,129.57,-0.48433,0.0,0.0
116,28.75,50.0481,49.974,114.961,99.0186,104.125,0.00318375,0.390923,20.629,129.48,-0.422595,0.0,0.0
118,29.25,50.3333,50.2874,120.95,99.021,103.577,0.00341833,0.385784,20.6347,129.43,-0.378046,0.0,0.0
120,29.75,50.5188,50.9613,118.438,99.0182,104.639,0.00360834,0.376997,20.6421,129.41,-0.463982,0.0,0.0
122,30.25,50.6569,51.3937,116.707,99.0278,103.926,0.00390126,0.369879,20.648,129.32,-0.405735,0.0,0.0
124,30.75,51.2358,51.2861,121.806,99.0266,104.48,0.00426363,0.354966,20.6633,129.27,-0.450464,0.0,0.0
126,31.25,51.3051,51.5699,121.324,99.035,104.198,0.00470633,0.342887,20.6757,129.209,-0.427035,0.0,0.0
128,31.75,52.0211,52.0123,121.115,99.0278,103.863,0.00519917,0.324228,20.6958,129.169,-0.400646,0.0,0.0
130,32.25,51.6508,52.0352,123.512,99.035,104.146,0.00575528,0.309115,20.7121,129.079,-0.422894,0.0,0.0
132,32.75,52.1433,52.272,125.799,99.0338,103.354,0.00634695,0.29258,20.7336,129.079,-0.358799,0.0,0.0
134,33.25,52.3487,52.4877,124.073,99.041,103.933,0.0068262,0.275321,20.7511,129.129,-0.405154,0.0,0.0
136,33.75,52.3554,52.6968,127.66,99.0443,102.728,0.00741725,0.258042,20.7684,129.059,-0.306888,0.0,0.0
138,34.25,52.1187,52.8622,127.97,99.0507,102.154,0.00807857,0.241076,20.7854,129.009,-0.259229,0.0,0.0
140,34.75,52.1769,52.4371,128.367,99.0483,102.198,0.00872482,0.224795,20.7991,128.989,-0.263104,0.0,0.0
142,35.25,51.7502,53.0924,127.183,99.0483,103.068,0.0093478,0.209324,20.815,128.959,-0.334284,0.0,0.0
144,35.75,52.4633,52.9466,128.037,99.0515,102.158,0.0099305,0.196792,20.8279,128.879,-0.259492,0.0,0.0
146,36.25,52.15,52.7147,127.602,99.0571,102.795,0.0104728,0.182991,20.841,128.819,-0.311275,0.0,0.0
148,36.75,52.1526,52.8015,129.857,99.0443,102.085,0.0109451,0.171812,20.8516,128.759,-0.254154,0.0,0.0
150,37.25,52.0118,52.7406,127.416,99.0647,103.158,0.0113574,0.161785,20.8602,128.719,-0.340275,0.0,0.0
152,37.75,51.5183,52.37,128.869,99.0719,102.301,0.0116914,0.152789,20.8698,128.699,-0.269498,0.0,0.0
154,38.25,51.8224,53.0139,126.851,99.0627,102.11,0.011962,0.145502,20.8776,128.729,-0.254574,0.0,0.0
156,38.75,51.9278,52.4231,126.639,99.0767,103.198,0.0121619,0.138917,20.8837,128.689,-0.342453,0.0,0.0
158,39.25,51.4025,52.6622,130.493,99.0659,103.467,0.0123238,0.133363,20.8884,128.669,-0.365292,0.0,0.0
160,39.75,51.5139,52.7484,129.216,99.0659,103.348,0.0124114,0.128666,20.8923,128.659,-0.355645,0.0,0.0
162,40.25,51.2964,52.6434,134.116,99.0719,102.728,0.0124824,0.124862,20.8957,128.569,-0.304581,0.0,0.0
164,40.75,50.8472,52.4562,128.678,99.0743,102.681,0.0125398,0.121781,20.8984,128.539,-0.300505,0.0,0.0
166,41.25,51.4613,52.5599,129.757,99.0695,102.424,0.01255,0.118743,20.9007,128.529,-0.27985,0.0,0.0
168,41.75,50.8526,52.7292,131.852,99.0855,103.265,0.0125254,0.116282,20.9029,128.539,-0.347228,0.0,0.0
170,42.25,50.8482,52.8342,125.269,99.0811,103.18,0.01248,0.113989,20.9047,128.479,-0.340626,0.0,0.0
172,42.75,50.753,51.3344,126.909,99.0895,102.884,0.0124202,0.111861,20.908,128.439,-0.31578,0.0,0.0
174,43.25,49.7377,51.5482,128.262,99.0843,103.39,0.0123429,0.110138,20.9106,128.399,-0.357456,0.0,0.0
176,43.75,49.094,50.8497,129.159,99.0891,103.182,0.0122542,0.108243,20.9131,128.369,-0.340165,0.0,0.0
178,44.25,49.0823,50.5852,128.666,99.0919,102.617,0.0121448,0.106708,20.9152,128.399,-0.293786,0.0,0.0
180,44.75,48.7362,51.0246,126.614,99.0991,102.865,0.0120224,0.105464,20.9173,128.349,-0.313433,0.0,0.0
182,45.25,49.3231,50.2078,127.592,99.0919,103.718,0.0118797,0.104166,20.919,128.309,-0.383428,0.0,0.0
184,45.75,49.091,50.5127,124.008,99.1131,103.231,0.011725,0.103115,20.9213,128.289,-0.342124,0.0,0.0
186,46.25,48.978,50.6067,128.595,99.1003,102.252,0.0115555,0.102001,20.9231,128.259,-0.263125,0.0,0.0
188,46.75,49.1537,50.1775,128.446,99.1224,102.553,0.0113786,0.101098,20.925,128.208,-0.285904,0.0,0.0
190,47.25,49.104,50.2979,130.949,99.0975,101.834,0.0112353,0.100035,20.9266,128.178,-0.22889,0.0,0.0
192,47.75,48.3848,50.4993,124.479,99.116,102.115,0.0110692,0.098999,20.9281,128.168,-0.250497,0.0,0.0
194,48.25,48.3454,50.0192,126.782,99.1143,102.968,0.0108897,0.098003,20.9295,128.128,-0.320524,0.0,0.0
196,48.75,48.6931,50.1196,129.84,99.1147,103.035,0.0107442,0.097051,20.9307,128.058,-0.325988,0.0,0.0
198,49.25,48.8162,49.9347,126.018,99.1043,102.071,0.0105658,0.096149,20.9316,128.068,-0.247846,0.0,0.0
200,49.75,48.6814,49.9763,127.579,99.1216,103.308,0.0104212,0.0954183,20.9323,128.028,-0.34762,0.0,0.0
202,50.25,48.8579,50.1392,128.187,99.1119,102.215,0.0102447,0.094523,20.9329,127.998,-0.259059,0.0,0.0
204,50.75,48.6545,50.4788,127.072,99.1512,102.834,0.0101018,0.0937978,20.9345,127.938,-0.306466,0.0,0.0
206,51.25,48.2193,50.13,128.995,99.1083,103.146,0.00994819,0.0929854,20.9357,127.908,-0.335553,0.0,0.0
208,51.75,48.5178,49.6249,127.912,99.1268,102.483,0.00978976,0.092125,20.9367,127.878,-0.279788,0.0,0.0
210,52.25,48.3024,50.4186,128.251,99.116,101.865,0.00963229,0.091428,20.9375,127.888,-0.229942,0.0,0.0
212,52.75,48.6128,49.8693,129.78,99.1312,102.118,0.00947853,0.0905063,20.9391,127.858,-0.249464,0.0,0.0
214,53.25,48.4762,49.82,127.641,99.1268,102.728,0.00933282,0.0897597,20.9403,127.848,-0.299854,0.0,0.0
216,53.75,48.4587,50.3084,124.671,99.1488,102.517,0.00919574,0.0889957,20.9413,127.868,-0.280701,0.0,0.0
218,54.25,47.8669,50.0842,125.842,99.1316,102.884,0.00908471,0.0882333,20.9421,127.828,-0.312214,0.0,0.0
220,54.75,48.2785,49.9155,124.594,99.15,103.027,0.00895587,0.0875073,20.9433,127.798,-0.322309,0.0,0.0
222,55.25,48.1077,49.881,131.523,99.1408,102.368,0.00890094,0.0868214,20.944,127.728,-0.269189,0.0,0.0
224,55.75,48.3205,49.5506,126.598,99.1488,103.266,0.0087938,0.0861791,20.9451,127.678,-0.341934,0.0,0.0
226,56.25,47.9602,50.0902,129.243,99.1352,102.539,0.00869515,0.0855806,20.9465,127.658,-0.283684,0.0,0.0
228,56.75,47.8654,49.6404,129.617,99.154,102.068,0.00859742,0.0850959,20.9477,127.658,-0.243378,0.0,0.0
230,57.25,48.1929,49.8847,128.086,99.1416,102.623,0.00850224,0.0844971,20.9486,127.628,-0.29005,0.0,0.0
232,57.75,47.606,49.701,126.837,99.1516,101.761,0.00839878,0.0840121,20.9493,127.608,-0.218338,0.0,0.0
234,58.25,47.5745,49.5793,126.34,99.1456,102.327,0.00829127,0.0838054,20.95,127.578,-0.265447,0.0,0.0
236,58.75,47.7698,49.7343,127.26,99.1572,102.813,0.00820418,0.0832595,20.9504,127.578,-0.30428,0.0,0.0
238,59.25,47.1801,49.6517,124.655,99.1564,103.057,0.00808362,0.0828174,20.9511,127.568,-0.32424,0.0,0.0
240,59.75,48.008,49.5492,126.926,99.18,102.06,0.00798598,0.0822533,20.9518,127.468,-0.240546,0.0,0.0
242,60.25,47.4111,49.4883,127.207,99.168,103.508,0.00788654,0.0817964,20.9524,127.408,-0.359965,0.0,0.0
244,60.75,47.7704,49.6254,129.439,99.172,102.701,0.00778768,0.0812068,20.9528,127.428,-0.293864,0.0,0.0
246,61.25,47.6335,49.4338,126.181,99.1652,102.891,0.00770761,0.0807292,20.9536,127.398,-0.309945,0.0,0.0
248,61.75,47.3524,49.8413,129.868,99.1756,102.19,0.00764275,0.08026,20.9543,127.378,-0.251642,0.0,0.0
250,62.25,47.3755,49.6749,126.293,99.166,101.801,0.00756461,0.07988,20.9548,127.368,-0.220394,0.0,0.0
252,62.75,47.4562,49.3708,130.036,99.1861,101.896,0.00747827,0.0794923,20.9559,127.318,-0.226504,0.0,0.0
254,63.25,47.7101,49.3773,127.022,99.1808,101.948,0.00739653,0.0791064,20.9568,127.318,-0.231287,0.0,0.0
256,63.75,47.1218,49.4423,127.263,99.1788,103.051,0.0073197,0.0787939,20.9574,127.278,-0.321829,0.0,0.0
258,64.25,46.6828,49.0545,128.539,99.1893,102.562,0.00725746,0.0785407,20.958,127.278,-0.280966,0.0,0.0
260,64.75,47.0197,49.5651,128.449,99.1921,102.252,0.00718338,0.0782396,20.9585,127.268,-0.255314,0.0,0.0
262,65.25,47.0684,48.9511,128.547,99.1864,103.256,0.00710832,0.0779958,20.9588,127.257,-0.337872,0.0,0.0
264,65.75,46.9586,49.7586,129.298,99.2065,103.187,0.00703395,0.0776901,20.9596,127.207,-0.330581,0.0,0.0
266,66.25,46.4775,49.0182,127.825,99.1844,102.72,0.00695278,0.0773451,20.9602,127.167,-0.294308,0.0,0.0
268,66.75,46.9349,49.3401,124.994,99.1985,103.203,0.00686817,0.0770657,20.9606,127.157,-0.332567,0.0,0.0
270,67.25,46.7081,49.099,128.716,99.2165,103.192,0.00679964,0.0767023,20.961,127.117,-0.330168,0.0,0.0
272,67.75,46.8419,48.9809,133.648,99.2033,101.628,0.00670066,0.076408,20.9618,127.077,-0.202896,0.0,0.0
274,68.25,46.7643,48.8812,129,99.2129,102.184,0.00662048,0.0760874,20.9624,127.037,-0.247936,0.0,0.0
276,68.75,46.7082,48.877,129.406,99.2233,102.791,0.00652225,0.0758278,20.9629,127.007,-0.296857,0.0,0.0
278,69.25,46.8753,49.1046,126.253,99.2229,102.445,0.00641271,0.0755216,20.9637,126.967,-0.268567,0.0,0.0
280,69.75,46.8945,48.801,127.052,99.2173,101.69,0.00632398,0.0752736,20.9644,126.917,-0.206873,0.0,0.0
282,70.25,46.6858,49.1419,129.211,99.2425,102.566,0.0061889,0.0749358,20.965,126.847,-0.276857,0.0,0.0
284,70.75,46.5931,49.3379,131.574,99.2329,101.757,0.00607948,0.0746622,20.9654,126.797,-0.211081,0.0,0.0
286,71.25,46.3586,49.1734,128.572,99.2381,102.634,0.00596872,0.074311,20.9658,126.757,-0.282785,0.0,0.0
288,71.75,46.4574,49.1003,129.21,99.2321,102.776,0.00585909,0.0739098,20.9662,126.797,-0.294906,0.0,0.0
290,72.25,46.6319,49.4595,125.955,99.2325,101.993,0.00575728,0.0735848,20.9666,126.817,-0.230588,0.0,0.0
292,72.75,46.6477,49.0876,127.685,99.2349,102.347,0.00566312,0.0731575,20.9673,126.797,-0.259528,0.0,0.0
294,73.25,46.6043,48.6889,127.592,99.2421,102.201,0.00557839,0.0728113,20.9679,126.717,-0.246854,0.0,0.0
296,73.75,46.2726,48.8567,126.522,99.2509,102.707,0.00550216,0.0724306,20.9684,126.727,-0.287617,0.0,0.0
298,74.25,46.7763,48.6964,127.783,99.2565,101.908,0.00542742,0.072032,20.9688,126.687,-0.221526,0.0,0.0
300,74.75,46.207,48.9348,124.381,99.2505,102.819,0.00535519,0.0716156,20.9695,126.647,-0.296811,0.0,0.0
302,75.25,46.2437,48.6591,129.848,99.2646,101.717,0.00529668,0.0711941,20.9702,126.607,-0.20512,0.0,0.0
304,75.75,46.9498,48.501,128.198,99.2694,102.192,0.00523371,0.0708528,20.9707,126.567,-0.243851,0.0,0.0
306,76.25,46.4115,49.0013,128.423,99.275,103.175,0.00516869,0.070467,20.9711,126.567,-0.323835,0.0,0.0
308,76.75,46.3472,48.7195,127.53,99.2782,103.475,0.00510823,0.0701545,20.9714,126.527,-0.347954,0.0,0.0
310,77.25,45.7303,48.7019,128.309,99.3042,102.231,0.00505226,0.069833,20.9716,126.507,-0.244093,0.0,0.0
312,77.75,46.7034,48.7893,125.58,99.283,103.006,0.004992,0.0695727,20.9719,126.477,-0.30937,0.0,0.0
314,78.25,46.4292,48.8413,126.685,99.2962,101.879,0.00492978,0.0690887,20.9725,126.447,-0.215814,0.0,0.0
316,78.75,46.5831,48.7167,128.663,99.2946,103.93,0.00485606,0.0686967,20.973,126.417,-0.383415,0.0,0.0
318,79.25,45.9753,48.7895,126.312,99.313,102.371,0.00477536,0.068178,20.9738,126.387,-0.254822,0.0,0.0
320,79.75,46.7759,48.6352,130.946,99.3158,102.219,0.00468089,0.067577,20.9745,126.367,-0.242157,0.0,0.0
322,80.25,46.4992,48.4211,130.72,99.327,102.684,0.00457816,0.0670901,20.9759,126.327,-0.279313,0.0,0.0
324,80.75,46.5906,48.3673,129.521,99.327,103.188,0.00449496,0.0663685,20.9771,126.317,-0.320446,0.0,0.0
326,81.25,45.5296,48.6512,129.995,99.3395,102.5,0.00437241,0.065784,20.978,126.297,-0.263239,0.0,0.0
328,81.75,46.2701,48.5151,128.933,99.329,102.548,0.00427314,0.0650926,20.9787,126.267,-0.267997,0.0,0.0
330,82.25,46.35,48.1892,128.551,99.3451,102.637,0.00417209,0.0645325,20.9794,126.267,-0.273989,0.0,0.0
332,82.75,45.718,48.6896,131.3,99.3379,103.471,0.00407167,0.06382,20.9801,126.256,-0.342541,0.0,0.0
334,83.25,45.9641,48.3697,124.674,99.3715,103.013,0.00399032,0.0632429,20.9808,126.196,-0.302463,0.0,0.0
336,83.75,46.1755,48.2327,125.339,99.3559,102.809,0.00389627,0.0624888,20.9813,126.156,-0.287093,0.0,0.0
338,84.25,46.5219,48.2009,132.252,99.3743,102.473,0.00382008,0.061878,20.9819,126.116,-0.258022,0.0,0.0
340,84.75,46.1889,48.5422,130.322,99.3687,102.603,0.00375838,0.0612544,20.9826,126.096,-0.269176,0.0,0.0
342,85.25,45.7803,48.4466,127.798,99.3839,102.799,0.00367413,0.0606332,20.9831,126.126,-0.283919,0.0,0.0
344,85.75,45.7166,48.6761,128.027,99.3819,101.749,0.0036059,0.0601301,20.9833,126.036,-0.197844,0.0,0.0
346,86.25,45.749,48.5045,130.22,99.3951,102.355,0.0035384,0.0594506,20.9838,126.036,-0.246594,0.0,0.0
348,86.75,46.151,48.1327,128.276,99.3967,103.238,0.00348373,0.0589002,20.9843,126.026,-0.318657,0.0,0.0
350,87.25,45.8469,48.4601,128.689,99.4052,103.305,0.00343455,0.0584544,20.985,125.996,-0.323429,0.0,0.0
352,87.75,45.5836,48.3765,130.025,99.3987,102.704,0.00339472,0.0577808,20.9858,125.946,-0.274929,0.0,0.0
354,88.25,45.6489,48.2354,126.056,99.4108,103.011,0.0033539,0.0572351,20.9866,125.916,-0.298925,0.0,0.0
356,88.75,45.9417,48.1665,132.193,99.4007,102.924,0.00332084,0.0565894,20.9875,125.886,-0.292669,0.0,0.0
358,89.25,45.7491,48.0511,127.099,99.426,102.066,0.00329406,0.0560664,20.9883,125.856,-0.22021,0.0,0.0
360,89.75,45.539,48.0887,128.637,99.42,103.227,0.00324427,0.0554798,20.9888,125.856,-0.315821,0.0,0.0
362,90.25,46.3465,47.6939,129.057,99.4384,102.615,0.00320394,0.0550047,20.9893,125.836,-0.264234,0.0,0.0
364,90.75,46.0248,48.4954,125.277,99.4308,103.015,0.00312734,0.0544434,20.9899,125.816,-0.297559,0.0,0.0
366,91.25,45.7656,48.0337,129.55,99.446,103.413,0.00306529,0.0539887,20.9906,125.786,-0.328683,0.0,0.0
368,91.75,45.9997,48.2897,127.303,99.4376,102.351,0.00297975,0.0534919,20.9912,125.756,-0.242639,0.0,0.0
370,92.25,45.3751,48.2852,128.385,99.45,103.054,0.00287873,0.0529738,20.9921,125.736,-0.299174,0.0,0.0
372,92.75,45.885,48.0003,129.606,99.4496,103.06,0.00274944,0.0525542,20.9928,125.716,-0.299645,0.0,0.0
374,93.25,45.7016,48.3504,131.379,99.4628,103.86,0.00264472,0.0520651,20.9934,125.676,-0.363521,0.0,0.0
376,93.75,45.4077,47.9179,126.466,99.4548,102.5,0.0025356,0.051669,20.9939,125.626,-0.253449,0.0,0.0
378,94.25,45.2125,48.0994,130.752,99.4672,102.325,0.00242533,0.0513053,20.9943,125.616,-0.238045,0.0,0.0
380,94.75,45.5609,47.9997,130.985,99.4769,102.676,0.00232324,0.0509721,20.9946,125.576,-0.265991,0.0,0.0
382,95.25,45.7125,48.0444,129.618,99.4921,102.823,0.00222905,0.0506595,20.9949,125.596,-0.276713,0.0,0.0
384,95.75,45.3307,47.4396,130.461,99.4833,102.708,0.00215275,0.0503677,20.9951,125.576,-0.268079,0.0,0.0
386,96.25,45.7052,47.963,127.954,99.4929,103.18,0.00208584,0.0500886,20.9957,125.526,-0.305773,0.0,0.0
388,96.75,45.2118,47.5802,131.436,99.4929,102.481,0.00202704,0.0498239,20.9966,125.516,-0.248661,0.0,0.0
390,97.25,45.8277,47.6262,129.538,99.4997,103.463,0.00197699,0.0495597,20.9974,125.506,-0.328283,0.0,0.0
392,97.75,45.7113,48.0167,127.09,99.4957,103.393,0.00193645,0.0493007,20.998,125.496,-0.322928,0.0,0.0
394,98.25,45.7156,47.4994,128.63,99.5157,102.904,0.00190106,0.0490909,20.9985,125.506,-0.281389,0.0,0.0
396,98.75,45.3196,47.7811,126.681,99.5169,102.816,0.00187009,0.0487719,20.9989,125.466,-0.274105,0.0,0.0
398,99.25,45.3063,47.99,128.756,99.5321,103.64,0.0018431,0.0485136,20.9992,125.456,-0.339884,0.0,0.0
400,99.75,45.7798,47.6656,128.155,99.5205,102.779,0.00181951,0.0482401,20.9999,125.456,-0.270773,0.0,0.0
402,100.25,45.3354,48.3434,129.15,99.551,103.594,0.0018004,0.0479609,21.0005,125.436,-0.334531,0.0,0.0
404,100.75,45.1975,47.8515,127.656,99.5506,102.668,0.00177522,0.0477062,21.0011,125.426,-0.259109,0.0,0.0
406,101.25,45.2433,48.1952,125.83,99.5518,102.456,0.00175482,0.0474743,21.0019,125.416,-0.241639,0.0,0.0
408,101.75,45.4699,48.2022,130.169,99.5518,102.323,0.00172254,0.0472436,21.0025,125.406,-0.230724,0.0,0.0
410,102.25,45.4739,47.578,129.356,99.5522,102.778,0.00169639,0.0470183,21.003,125.366,-0.268028,0.0,0.0
412,102.75,45.082,47.4713,130.321,99.5666,102.95,0.00167521,0.0468358,21.0034,125.306,-0.280847,0.0,0.0
414,103.25,45.3377,47.2878,129.217,99.579,103.048,0.00162535,0.0466068,21.0038,125.306,-0.287737,0.0,0.0
416,103.75,45.3016,47.4891,128.177,99.5754,102.654,0.00158496,0.0464212,21.004,125.276,-0.255917,0.0,0.0
418,104.25,45.2978,47.5415,129.727,99.583,103.757,0.00153823,0.0462033,21.0042,125.235,-0.34503,0.0,0.0
420,104.75,44.9112,47.3275,128.8,99.5966,102.533,0.00148776,0.0460267,21.0044,125.225,-0.244183,0.0,0.0
422,105.25,45.0593,47.6398,126.119,99.6022,103.031,0.00143924,0.0458267,21.0046,125.205,-0.284429,0.0,0.0
424,105.75,44.9384,47.5992,126.812,99.6146,103.149,0.00139306,0.0456134,21.0047,125.185,-0.292985,0.0,0.0
426,106.25,44.9529,47.1927,129.82,99.6062,103.282,0.00135121,0.0454407,21.0048,125.145,-0.304522,0.0,0.0
428,106.75,44.7574,47.6436,127.645,99.5978,101.83,0.00131329,0.0452195,21.0048,125.135,-0.186276,0.0,0.0
430,107.25,45.1442,47.7083,127.841,99.6074,103.024,0.00128258,0.0450404,21.0049,125.105,-0.283408,0.0,0.0
432,107.75,44.8234,47.8443,132.693,99.6247,103.457,0.00124052,0.0448811,21.005,125.065,-0.317227,0.0,0.0
434,108.25,45.2766,47.101,126.277,99.6058,102.23,0.001191,0.0447392,21.0049,125.075,-0.218534,0.0,0.0
436,108.75,45.1968,47.2777,133.051,99.6211,102.29,0.00113436,0.0446029,21.0048,125.085,-0.2222,0.0,0.0
438,109.25,45.1653,47.1203,130.485,99.6327,102.906,0.00107361,0.0444733,21.0047,125.025,-0.271627,0.0,0.0
440,109.75,45.4026,47.415,128.632,99.6383,102.375,0.0010244,0.0443683,21.0047,125.015,-0.227747,0.0,0.0
442,110.25,45.1023,47.0025,130.264,99.6335,102.483,0.000964227,0.0442619,21.0047,124.995,-0.237013,0.0,0.0
444,110.75,45.0059,47.2205,127.26,99.6415,103.569,0.000897195,0.0441565,21.0046,124.965,-0.324865,0.0,0.0
446,111.25,44.959,47.5916,127.703,99.6355,102.038,0.000828943,0.0440711,21.0046,124.945,-0.200207,0.0,0.0
448,111.75,45.0753,47.6143,132.496,99.6455,101.953,0.000761097,0.0439884,21.0046,124.925,-0.192413,0.0,0.0
450,112.25,44.8755,47.6149,128.776,99.6487,103.16,0.000706142,0.0439215,21.0046,124.915,-0.291023,0.0,0.0
452,112.75,44.3217,47.0816,129.435,99.6559,103.8,0.000642273,0.0438402,21.0046,124.905,-0.342348,0.0,0.0
454,113.25,44.742,46.9304,130.406,99.6619,102.697,0.000590539,0.0437743,21.0046,124.865,-0.252088,0.0,0.0
456,113.75,44.8092,47.6851,129.561,99.6615,102.347,0.000551044,0.043721,21.0046,124.855,-0.22348,0.0,0.0
458,114.25,44.4669,47.1732,129.363,99.6575,103.141,0.000519053,0.0436507,21.0048,124.825,-0.288716,0.0,0.0
460,114.75,44.9941,47.2977,128.02,99.6779,103.913,0.00049948,0.0435938,21.0049,124.835,-0.349663,0.0,0.0
462,115.25,44.9101,47.073,131.426,99.6751,103.112,0.000489332,0.0435406,21.005,124.835,-0.284903,0.0,0.0
464,115.75,44.5369,47.4297,127.12,99.6815,103.513,0.000489357,0.043491,21.0051,124.835,-0.316996,0.0,0.0
466,116.25,44.7655,47.317,128.534,99.6715,101.596,0.000496797,0.0434584,21.0051,124.785,-0.160739,0.0,0.0
468,116.75,44.7357,47.0219,129.63,99.6852,102.881,0.000502824,0.0434388,21.0052,124.785,-0.265161,0.0,0.0
470,117.25,44.8415,47.301,123.955,99.6767,103.142,0.000519764,0.0433802,21.0052,124.745,-0.287204,0.0,0.0
472,117.75,44.9813,46.9646,126.012,99.6847,103.116,0.000544336,0.0432942,21.0052,124.715,-0.284383,0.0,0.0
474,118.25,44.7312,47.3213,133.983,99.6775,103.576,0.000571858,0.0432033,21.0053,124.685,-0.32244,0.0,0.0
476,118.75,44.3808,47.3153,128.782,99.6952,103.731,0.000601008,0.0431104,21.0053,124.655,-0.333473,0.0,0.0
478,119.25,45.0453,47.3,128.834,99.6847,103.099,0.00062716,0.0430351,21.0053,124.675,-0.283001,0.0,0.0
480,119.75,44.7745,46.877,127.574,99.6992,103.452,0.000650629,0.0430283,21.0053,124.675,-0.310509,0.0,0.0
482,120.25,44.5983,46.8714,128.496,99.6924,103.712,0.00066964,0.0430227,21.0053,124.645,-0.332154,0.0,0.0
484,120.75,44.9611,47.3359,128.005,99.7028,102.997,0.000682624,0.0430253,21.0053,124.645,-0.273184,0.0,0.0
486,121.25,44.7886,47.6513,128.742,99.6944,102.445,0.000693141,0.0430339,21.0053,124.645,-0.228731,0.0,0.0
488,121.75,44.7408,47.0641,131.926,99.7104,102.584,0.000700454,0.0430408,21.0053,124.615,-0.238795,0.0,0.0
490,122.25,44.7201,47.1828,130.076,99.6928,103.041,0.000706377,0.0429788,21.0053,124.595,-0.277595,0.0,0.0
492,122.75,44.5834,47.2109,130.735,99.706,103.048,0.000709905,0.0429285,21.0054,124.575,-0.2771,0.0,0.0
494,123.25,43.9911,47.1075,129.466,99.698,101.829,0.000711619,0.0428608,21.0054,124.585,-0.17772,0.0,0.0
496,123.75,44.8525,46.8569,129.13,99.708,102.995,0.000713008,0.0428059,21.0054,124.555,-0.272563,0.0,0.0
498,124.25,44.1863,46.9699,129.437,99.704,102.889,0.000703275,0.042802,21.0054,124.515,-0.26423,0.0,0.0
500,124.75,44.7212,46.8708,129.092,99.7104,102.879,0.000695392,0.0427989,21.0054,124.515,-0.262889,0.0,0.0
502,125.25,44.2737,47.1075,130.07,99.7016,102.334,0.000685198,0.0428234,21.0054,124.515,-0.218967,0.0,0.0
504,125.75,44.6702,47.1923,126.559,99.7152,102.318,0.000673514,0.0428433,21.0054,124.495,-0.216573,0.0,0.0
506,126.25,44.855,46.5541,128.144,99.7016,103.702,0.00066278,0.0428593,21.0054,124.445,-0.330619,0.0,0.0
508,126.75,44.7548,46.7016,128.021,99.7196,102.297,0.000652944,0.0427912,21.0054,124.415,-0.214479,0.0,0.0
510,127.25,44.9469,46.8623,128.162,99.7132,102.978,0.000645611,0.042736,21.0054,124.425,-0.270776,0.0,0.0
512,127.75,44.6983,46.5322,129.783,99.7252,102.577,0.000640242,0.0427198,21.0054,124.395,-0.236961,0.0,0.0
514,128.25,44.0674,46.7745,126.453,99.7152,103.173,0.000636528,0.0427323,21.0054,124.385,-0.286471,0.0,0.0
516,128.75,44.6199,46.7861,129.754,99.7268,103.282,0.000634091,0.0427424,21.0054,124.385,-0.294393,0.0,0.0
518,129.25,44.2545,47.1345,129.411,99.7108,102.22,0.000632117,0.0427641,21.0054,124.315,-0.208839,0.0,0.0
520,129.75,44.8575,46.7448,127.853,99.7172,102.623,0.000630518,0.0427817,21.0054,124.295,-0.241364,0.0,0.0
522,130.25,44.2433,46.778,127.572,99.7124,103.388,0.000629223,0.0427689,21.0054,124.265,-0.304209,0.0,0.0
524,130.75,44.4865,47.0816,129.203,99.722,103.291,0.000628174,0.0427585,21.0054,124.254,-0.295488,0.0,0.0
526,131.25,44.1053,46.8791,130.482,99.7248,102.762,0.000630498,0.0427501,21.0054,124.224,-0.252153,0.0,0.0
528,131.75,44.3872,46.6563,128.792,99.7252,102.958,0.000635237,0.0427433,21.0058,124.194,-0.268089,0.0,0.0
530,132.25,44.6578,47.039,128.417,99.7136,102.876,0.000646694,0.0427108,21.0061,124.154,-0.2624,0.0,0.0
532,132.75,44.1246,46.6388,128.805,99.7308,102.863,0.000662832,0.0426844,21.0063,124.114,-0.259854,0.0,0.0
534,133.25,43.743,46.4446,130.541,99.7192,102.61,0.000675903,0.042663,21.0066,124.164,-0.240136,0.0,0.0
536,133.75,44.6444,46.1539,128.856,99.738,102.729,0.000705802,0.0426386,21.0067,124.164,-0.248338,0.0,0.0
538,134.25,44.3452,46.0656,129.544,99.7232,102.764,0.00073002,0.0426124,21.0069,124.154,-0.252434,0.0,0.0
540,134.75,44.1265,46.8673,130.109,99.7236,103.275,0.000755357,0.0425912,21.007,124.154,-0.294046,0.0,0.0
542,135.25,44.3762,46.6586,127.706,99.7292,103.344,0.000781026,0.0425876,21.0071,124.144,-0.2992,0.0,0.0
544,135.75,44.0255,46.8868,132.075,99.7248,103.07,0.000801818,0.0425846,21.0071,124.124,-0.27726,0.0,0.0
546,136.25,44.4322,46.4669,129.878,99.7344,102.495,0.000805379,0.0425751,21.0072,124.114,-0.229419,0.0,0.0
548,136.75,43.9459,46.2275,128.647,99.7352,103.187,0.000808264,0.042561,21.0073,124.104,-0.285947,0.0,0.0
550,137.25,44.559,46.7996,129.03,99.7344,102.812,0.000786464,0.0425424,21.0073,124.084,-0.255393,0.0,0.0
552,137.75,44.3341,46.6685,130.213,99.7316,103.716,0.000768806,0.042521,21.0073,124.074,-0.329208,0.0,0.0
554,138.25,44.5255,46.5941,128.226,99.7328,102.884,0.000743713,0.0425321,21.0074,124.054,-0.261435,0.0,0.0
556,138.75,43.8708,46.4463,130.426,99.73,103.19,0.000713676,0.0425667,21.0074,124.034,-0.286639,0.0,0.0
558,139.25,44.0015,46.6003,128.376,99.75,102.55,0.000689346,0.0425948,21.0074,123.984,-0.232601,0.0,0.0
560,139.75,44.4807,46.9187,128.124,99.7396,102.669,0.000673256,0.0426175,21.0074,123.974,-0.243237,0.0,0.0
562,140.25,44.4433,46.478,125.973,99.736,103.236,0.000669744,0.0426359,21.0074,123.954,-0.28984,0.0,0.0
564,140.75,44.1293,46.6079,128.274,99.7444,102.915,0.000675469,0.0426579,21.0074,123.934,-0.262971,0.0,0.0
566,141.25,44.4613,46.834,125.684,99.7396,103.787,0.000689634,0.0426822,21.0074,123.914,-0.33428,0.0,0.0
568,141.75,43.751,46.6529,128.618,99.7384,103.365,0.000709681,0.0427018,21.0079,123.904,-0.300165,0.0,0.0
570,142.25,43.8573,46.2727,128.905,99.7376,103.448,0.000733544,0.0426771,21.0082,123.864,-0.306979,0.0,0.0
572,142.75,44.3718,46.3621,128.696,99.7468,102.703,0.000759736,0.0426572,21.0085,123.874,-0.245405,0.0,0.0
574,143.25,44.0623,46.4357,126.273,99.7408,102.344,0.000780951,0.0426545,21.0088,123.844,-0.216502,0.0,0.0
576,143.75,44.1874,46.2343,133.513,99.738,102.348,0.000794513,0.0426523,21.009,123.814,-0.217104,0.0,0.0
578,144.25,44.0061,45.6038,129.728,99.7504,102.591,0.000805499,0.0426641,21.0091,123.794,-0.236004,0.0,0.0
580,144.75,44.5919,46.2289,129.969,99.7392,102.665,0.000814397,0.0426737,21.0092,123.834,-0.242979,0.0,0.0
582,145.25,44.2453,46.522,129.176,99.7408,102.334,0.000787813,0.0426543,21.0093,123.824,-0.215659,0.0,0.0
584,145.75,44.1902,46.516,128.872,99.7492,102.744,0.00076628,0.0426387,21.0094,123.814,-0.248561,0.0,0.0
586,146.25,43.8844,46.2211,131.244,99.7536,102.981,0.000736146,0.0425719,21.0095,123.784,-0.267587,0.0,0.0
588,146.75,43.8595,46.5685,131.053,99.7432,102.591,0.000700313,0.0425178,21.0095,123.784,-0.236612,0.0,0.0
590,147.25,43.7483,46.2455,125.034,99.7488,103.499,0.000661775,0.0424954,21.0096,123.764,-0.310166,0.0,0.0
592,147.75,43.9365,46.6439,128.246,99.7452,103.199,0.000621996,0.0424964,21.0096,123.754,-0.286048,0.0,0.0
594,148.25,43.9981,46.1477,132.384,99.7488,104.105,0.000589775,0.0424973,21.0096,123.764,-0.359192,0.0,0.0
596,148.75,43.8177,46.5994,130.574,99.7472,102.282,0.000563676,0.0425122,21.0092,123.714,-0.210867,0.0,0.0
598,149.25,43.8954,46.5613,127.176,99.7564,102.826,0.000542536,0.0425371,21.0089,123.704,-0.254704,0.0,0.0
600,149.75,43.9029,46.118,128.98,99.7492,102.896,0.000549517,0.0425643,21.0086,123.674,-0.261035,0.0,0.0
602,150.25,44.2041,46.3993,129.263,99.7488,102.819,0.000555171,0.0425928,21.0084,123.654,-0.254762,0.0,0.0
604,150.75,44.1605,46.1067,129.728,99.7548,103.215,0.000594732,0.0426159,21.0082,123.624,-0.286545,0.0,0.0
606,151.25,44.1708,46.2919,128.413,99.7621,103.234,0.000626776,0.0426481,21.0081,123.634,-0.287501,0.0,0.0
608,151.75,44.2276,45.8724,127.093,99.7621,102.453,,0.0426742,,123.634,-0.223686,0.0,0.0
610,152.25,44.1962,46.3454,128.743,99.7637,103.409,,0.042736,,123.624,-0.301558,0.0,0.0
612,152.75,43.9945,46.1397,131.784,99.754,102.8,,0.0427859,,123.604,-0.252754,0.0,0.0
614,153.25,43.6687,46.7162,130.479,99.7621,103.341,,0.0428122,,123.604,-0.296178,0.0,0.0
616,153.75,44.2379,46.1691,131.429,99.7512,102.394,,0.0428207,,123.554,-0.219764,0.0,0.0
618,154.25,43.511,46.4388,135.032,99.7653,103.644,,0.0428133,,123.534,-0.32055,0.0,0.0
620,154.75,43.8056,46.135,128.823,99.7605,103.56,,,,123.504,-0.314149,0.0,0.0
622,155.25,43.9937,46.1745,131.658,99.7733,102.44,,,,123.504,-0.22168,0.0,0.0
624,155.75,44.2155,45.9375,125.841,99.756,102.468,,,,123.494,-0.225437,0.0,0.0
626,156.25,43.9499,46.6037,126.697,99.7789,102.915,,,,123.464,-0.260033,0.0,0.0
628,156.75,44.1137,45.9397,129.391,99.7637,102.378,,,,123.444,-0.217399,0.0,0.0
630,157.25,44.0229,46.3045,128.763,99.7773,102.489,,,,123.444,-0.225368,0.0,0.0
632,157.75,43.6087,46.5332,131.41,99.7629,103.204,,,,123.424,-0.284999,0.0,0.0
634,158.25,44.0846,46.384,128.637,99.7813,102.215,,,,123.404,-0.202533,0.0,0.0
636,158.75,43.7241,46.9213,130.212,99.7641,102.903,,,,123.384,-0.260298,0.0,0.0
638,159.25,44.1842,46.1007,128.622,99.7777,102.72,,,,123.384,-0.244194,0.0,0.0
640,159.75,43.9939,46.4417,127.501,99.7753,103.117,,,,123.364,-0.276828,0.0,0.0
642,160.25,43.7916,45.9295,129.859,99.7821,102.284,,,,123.354,-0.208114,0.0,0.0
644,160.75,43.292,46.4038,129.459,99.7805,102.308,,,,123.344,-0.210229,0.0,0.0
646,161.25,44.0002,46.1051,132.185,99.7925,103.413,,,,123.324,-0.299491,0.0,0.0
648,161.75,43.8882,46.1431,129.753,99.7753,102.082,,,,123.294,-0.192099,0.0,0.0
650,162.25,43.7943,46.3714,128.963,99.7905,102.273,,,,123.243,-0.206489,0.0,0.0