File: 01_Data/Standard_Gypsum_Wallboard/Cone/Standard_Gypsum_Wallboard_Cone_HF50Scan_220511_R1.csv
Names,Time,Stack TC,Smoke TC,Exh Press,Smoke Comp,Smoke Meas,CO Meter,CO2 Meter,O2 Meter,Sample Mass,Ext Coeff,Start Test,Flame Verif
Chan Gain,,500,500,1,1,1,1,1,1,1,1,1.0,1.0
Offset,,0,0,0.138628,0,0,0,0,0,0,0,0.0,0.0
Gain,,1,1,25.011,13.1256,14.6231,1,1,1,1.001,0.958019,1.0,1.0
Units,sec,C,C,Pa,%,%,%,%,%,g,/m,,
Baseline,,33.9426,35.2677,134.917,99.4946,100.201,0.000383343,0.0420457,21.0009,-445.244,-0.0594194,,
2,0.25,31.8746,33.3594,137.012,99.3939,99.6935,0.000344602,0.0463376,20.9976,126.597,-0.0252863,0.0,0.0
4,0.75,32.1607,33.0303,130.352,99.3907,99.6314,0.000313479,0.0463522,20.9977,126.587,-0.020327,0.0,0.0
6,1.25,30.756,31.9117,133.19,99.3855,99.8367,0.000288269,0.0463639,20.9978,126.567,-0.0380637,0.0,0.0
8,1.75,30.449,31.6465,134.826,99.3795,100.001,0.000275068,0.0463727,20.9979,126.567,-0.0524219,0.0,0.0
10,2.25,30.0625,31.8001,137.578,99.3847,99.8322,0.000264375,0.0463799,20.9979,126.537,-0.0377557,0.0,0.0
12,2.75,30.2453,31.652,135.214,99.3763,99.4909,0.000273767,0.04635,20.998,126.557,-0.00968042,0.0,0.0
14,3.25,29.9419,31.7398,131.757,99.3707,99.8782,0.000281375,0.0462937,20.998,126.517,-0.0428099,0.0,0.0
16,3.75,30.1535,31.1016,136.501,99.3615,99.9599,0.000304397,0.0462482,20.9981,126.527,-0.0504574,0.0,0.0
18,4.25,30.2726,31.6866,135.953,99.3699,100.608,0.000323044,0.0461436,20.9981,126.507,-0.104046,0.0,0.0
20,4.75,30.1906,31.9489,134.472,99.3531,100.097,0.0003514,0.0460588,20.9981,126.507,-0.0626792,0.0,0.0
22,5.25,30.3683,31.4484,132.784,99.3659,100.175,0.000382258,0.0460173,20.9981,126.517,-0.0681488,0.0,0.0
24,5.75,30.1399,31.5826,133.58,99.3751,100.089,0.000389358,0.0459836,20.9981,126.487,-0.060179,0.0,0.0
26,6.25,30.0727,31.5183,135.311,99.3399,99.9313,0.0004015,0.0459699,20.9982,126.547,-0.049885,0.0,0.0
28,6.75,30.2793,31.8197,133.828,99.3471,100.168,0.000411335,0.0459588,20.9982,126.447,-0.0691416,0.0,0.0
30,7.25,30.1894,31.7344,132.58,99.3347,99.851,0.000395214,0.0459498,20.9984,126.467,-0.0435687,0.0,0.0
32,7.75,30.465,31.7722,136.308,99.3447,99.9353,0.000382155,0.0459425,20.9988,126.467,-0.0498164,0.0,0.0
34,8.25,30.0078,31.7364,137.192,99.3315,100.01,0.000352319,0.0458824,20.9991,126.477,-0.0572373,0.0,0.0
36,8.75,30.6639,31.8551,136.546,99.3403,99.6421,0.000328151,0.0458338,20.9994,126.467,-0.0254983,0.0,0.0
38,9.25,30.7712,31.9275,130.994,99.329,99.9112,0.000304733,0.0457801,20.9996,126.447,-0.0491115,0.0,0.0
40,9.75,30.8408,31.8197,135.7,99.3278,99.6908,0.000282305,0.0457238,20.9999,126.437,-0.0306507,0.0,0.0
42,10.25,30.6662,32.2992,134.222,99.3238,99.8385,0.000271739,0.0456782,21.0002,126.397,-0.0434322,0.0,0.0
44,10.75,30.8651,31.7089,134.334,99.3126,99.78,0.000270021,0.0456413,21.0004,126.357,-0.0394586,0.0,0.0
46,11.25,31.0727,32.0936,135.943,99.3062,99.9019,0.00026863,0.0456114,21.0006,126.317,-0.0502558,0.0,0.0
48,11.75,31.1091,32.2622,135.47,99.305,100.118,0.000301219,0.0455662,21.0003,126.287,-0.0685437,0.0,0.0
50,12.25,30.434,31.9576,131.984,99.2986,99.6404,0.000327616,0.0455106,20.9996,126.256,-0.0288722,0.0,0.0
52,12.75,31.2722,31.7489,139.941,99.3022,99.9202,0.000375512,0.0454657,20.9991,126.277,-0.0521336,0.0,0.0
54,13.25,30.7901,32.2636,134.119,99.2978,99.9224,0.000414307,0.0454563,20.9986,126.287,-0.0526941,0.0,0.0
56,13.75,30.8839,32.1814,135.225,99.2894,99.963,0.000445732,0.0454488,20.9983,126.287,-0.0568202,0.0,0.0
58,14.25,31.0661,32.3154,133.416,99.2802,99.7872,0.000474803,0.0454427,20.998,126.226,-0.0428054,0.0,0.0
60,14.75,30.8376,32.0181,134.783,99.2902,99.6667,0.000498351,0.0454377,20.9978,126.196,-0.0318045,0.0,0.0
62,15.25,30.7051,32.0991,132.784,99.2746,99.9942,0.000502959,0.0454201,20.9976,126.186,-0.0607007,0.0,0.0
64,15.75,31.201,32.324,139.451,99.2946,99.9144,0.000506691,0.0454059,20.9974,126.156,-0.0522893,0.0,0.0
66,16.25,30.5863,32.1502,135.263,99.2726,99.3315,0.000497663,0.0453303,20.9973,126.156,-0.00499093,0.0,0.0
68,16.75,31.1651,32.2475,137.722,99.2834,99.8983,0.000490351,0.0452113,20.9972,126.156,-0.0518871,0.0,0.0
70,17.25,31.0892,32.122,134.209,99.281,99.4788,0.000480813,0.045115,20.9971,126.116,-0.0167281,0.0,0.0
72,17.75,30.6068,32.5945,133.058,99.2918,100.202,0.000473087,0.0449828,20.997,126.126,-0.0766645,0.0,0.0
74,18.25,31.5208,32.4106,133.956,99.2714,99.6167,0.000468035,0.0448757,20.997,126.096,-0.0291829,0.0,0.0
76,18.75,31.1003,32.7281,134.671,99.2774,99.5627,0.000463942,0.0448032,20.9969,126.076,-0.0241183,0.0,0.0
78,19.25,31.2807,32.3766,134.206,99.2694,99.3583,0.000460627,0.0447573,20.9973,126.066,-0.00752686,0.0,0.0
80,19.75,31.0497,32.2645,134.196,99.2838,99.5783,0.000457942,0.044666,20.9977,126.016,-0.0248939,0.0,0.0
82,20.25,31.1266,32.3924,134.792,99.2578,99.2182,0.000448539,0.0445921,20.9982,126.026,0.00335034,0.0,0.0
84,20.75,31.3847,32.2731,137.533,99.2646,99.7965,0.000440923,0.0445186,20.9989,126.066,-0.0449177,0.0,0.0
86,21.25,31.3892,32.2129,133.026,99.2589,99.9099,0.000431584,0.0444592,20.9994,126.026,-0.0549318,0.0,0.0
88,21.75,31.1383,32.8082,133.454,99.2682,99.5422,0.000421166,0.044411,20.9998,126.026,-0.0231649,0.0,0.0
90,22.25,31.5726,32.4038,133.899,99.2602,99.2592,0.000412728,0.0443862,21.0002,125.976,7.7138e-05,0.0,0.0
92,22.75,31.3433,32.6614,133.435,99.2666,99.4476,0.000415529,0.044379,21.0005,125.936,-0.0153099,0.0,0.0
94,23.25,31.7036,32.7014,133.238,99.2586,99.1352,0.000417798,0.0443731,21.0007,125.906,0.0104513,0.0,0.0
96,23.75,31.6232,32.6331,133.723,99.2658,99.564,0.00043289,0.0443327,21.0009,125.876,-0.0252139,0.0,0.0
98,24.25,31.8367,32.3146,130.504,99.2441,99.3449,0.000445115,0.044268,21.001,125.876,-0.00853112,0.0,0.0
100,24.75,31.5196,32.5762,132.648,99.2565,99.4221,0.000465864,0.0442155,21.0011,125.836,-0.0140083,0.0,0.0
102,25.25,31.2403,32.1814,133.006,99.2397,99.5114,0.000482671,0.0442407,21.0012,125.806,-0.022973,0.0,0.0
104,25.75,31.8232,32.7774,133.332,99.2421,99.3012,0.000499901,0.0442611,21.0013,125.806,-0.00499995,0.0,0.0
106,26.25,31.2993,32.3906,131.643,99.2409,99.1959,0.000513857,0.0443453,21.0014,125.816,0.00381498,0.0,0.0
108,26.75,31.6183,32.502,133.489,99.2421,99.5658,0.000516724,0.0444135,21.0014,125.806,-0.027366,0.0,0.0
110,27.25,31.7029,33.0416,131.549,99.2329,99.3266,0.000519046,0.0444552,21.0015,125.786,-0.00793296,0.0,0.0
112,27.75,31.2326,32.7822,132.239,99.2337,98.796,0.000508878,0.0444889,21.0015,125.766,0.0371475,0.0,0.0
114,28.25,31.9111,33.0484,135.466,99.2185,98.4676,0.000489797,0.0445569,21.0015,125.756,0.0638438,0.0,0.0
116,28.75,31.6044,32.8771,136.528,99.2285,98.6675,0.000474342,0.0446119,21.0016,125.786,0.0476464,0.0,0.0
118,29.25,31.5377,33.0253,138.664,99.2073,98.4256,0.000460618,0.044643,21.0016,125.746,0.0664741,0.0,0.0
120,29.75,31.7086,33.0069,134.944,99.2121,98.601,0.000449502,0.0446681,21.0016,125.696,0.0519197,0.0,0.0
122,30.25,31.3537,32.5351,132.615,99.1909,97.8093,0.000475445,0.0446387,21.0016,125.656,0.117868,0.0,0.0
124,30.75,31.7884,33.0264,133.316,99.1852,98.6157,0.000496459,0.0445699,21.0016,125.646,0.0483924,0.0,0.0
126,31.25,31.7152,32.5402,136.347,99.172,98.5582,0.000577437,0.0445142,21.0014,125.646,0.0521795,0.0,0.0
128,31.75,31.6739,33.2785,132.941,99.166,97.3765,0.000611959,0.0444691,21.0012,125.636,0.153038,0.0,0.0
130,32.25,32.1045,33.4203,134.866,99.1508,97.4796,0.000731434,0.0444326,21.0008,125.586,0.142856,0.0,0.0
132,32.75,31.8048,32.6088,134.792,99.1588,97.8517,0.000828208,0.0444977,21.0006,125.556,0.11151,0.0,0.0
134,33.25,32.4821,32.9552,131.867,99.144,97.5764,0.000958654,0.0445505,21.0003,125.536,0.133935,0.0,0.0
136,33.75,32.147,33.0258,134.483,99.146,98.1802,0.00106432,0.0446359,21.0001,125.516,0.0822633,0.0,0.0
138,34.25,32.5458,33.5234,133.948,99.1212,97.4639,0.00118692,0.0447436,21,125.426,0.14169,0.0,0.0
140,34.75,32.2391,33.6478,135.224,99.1208,96.9101,0.00131955,0.0448323,20.9999,125.416,0.189544,0.0,0.0
142,35.25,32.1613,33.3389,132.278,99.1007,97.2163,0.00145447,0.0449839,20.9998,125.396,0.16134,0.0,0.0
144,35.75,31.7289,33.3334,137.852,99.1099,96.8686,0.0015885,0.0451424,20.9993,125.306,0.192226,0.0,0.0
146,36.25,32.4649,33.1588,131.913,99.0887,96.5625,0.0017214,0.0453027,20.9988,125.316,0.217027,0.0,0.0
148,36.75,31.7593,32.8788,133.295,99.0899,96.8316,0.00185093,0.0454612,20.9981,125.326,0.193742,0.0,0.0
150,37.25,32.1355,33.5683,136.97,99.0735,96.0261,0.00197894,0.0456152,20.9974,125.306,0.262548,0.0,0.0
152,37.75,31.9558,33.3739,136.122,99.0711,96.3938,0.00210339,0.0457399,20.9969,125.286,0.230225,0.0,0.0
154,38.25,32.2648,33.1841,132.974,99.0691,96.8343,0.00220419,0.0458951,20.9965,125.255,0.191744,0.0,0.0
156,38.75,32.2741,33.5417,134.394,99.0611,95.8248,0.00233462,0.0460208,20.9962,125.225,0.279127,0.0,0.0
158,39.25,32.1008,33.2786,137.913,99.0527,95.3072,0.00244027,0.0462174,20.9959,125.195,0.323935,0.0,0.0
160,39.75,32.3717,33.4907,132.013,99.0418,95.3103,0.00258568,0.0463767,20.9952,125.175,0.322742,0.0,0.0
162,40.25,32.3979,33.4883,136.919,99.0302,94.7016,0.00270347,0.0466276,20.9943,125.195,0.375598,0.0,0.0
164,40.75,32.5389,33.1352,134.176,99.0479,94.5976,0.00279888,0.0468309,20.9935,125.175,0.386325,0.0,0.0
166,41.25,32.498,33.6693,132.18,99.0226,94.3593,0.00291092,0.0472123,20.9929,125.175,0.405381,0.0,0.0
168,41.75,32.2106,33.5667,134.132,99.0186,94.8667,0.00303297,0.0475213,20.9923,125.025,0.359974,0.0,0.0
170,42.25,32.3046,33.5555,137.467,99.0134,95.3402,0.00313184,0.0486261,20.9915,125.005,0.317692,0.0,0.0
172,42.75,32.3714,33.3702,133.867,99.0138,93.7734,0.00321803,0.0495211,20.9911,124.995,0.45698,0.0,0.0
174,43.25,31.9369,33.5218,137.265,99.0142,93.1852,0.00328786,0.0545936,20.9911,124.965,0.50989,0.0,0.0
176,43.75,32.2376,33.175,131.444,99.0214,96.5295,0.00332509,0.0626152,20.9911,124.905,0.214192,0.0,0.0
178,44.25,32.7179,33.4102,129.357,99.0266,102.161,0.00333785,0.0691126,20.9793,124.785,-0.261855,0.0,0.0
180,44.75,32.3419,33.5149,124.104,99.0234,102.483,0.00331987,0.0743756,20.9522,124.555,-0.28859,0.0,1.0
182,45.25,32.4766,33.4078,120.587,99.035,102.514,0.00327984,0.0949952,20.9146,124.675,-0.290129,0.0,1.0
184,45.75,32.5485,33.3865,120.587,99.0294,102.236,0.00321978,0.126418,20.874,124.635,-0.26782,0.0,1.0
186,46.25,32.8385,33.7964,115.817,99.0318,103.946,0.00314626,0.159279,20.832,124.485,-0.407018,0.0,1.0
188,46.75,32.9458,34.2576,121.023,99.0226,103.498,0.00305014,0.192563,20.7942,124.425,-0.371499,0.0,1.0
190,47.25,34.1315,34.6955,120.41,99.0314,103.936,0.00293909,0.224772,20.7604,124.325,-0.406223,0.0,1.0
192,47.75,34.9478,34.309,117.722,99.0326,103.31,0.00290921,0.255586,20.733,124.244,-0.355344,0.0,1.0
194,48.25,35.3012,34.7645,115.681,99.0418,103.162,0.00283255,0.283197,20.7099,124.134,-0.342538,0.0,1.0
196,48.75,35.2659,35.3693,120.751,99.031,104.294,0.00277045,0.307951,20.6912,124.074,-0.435145,0.0,1.0
198,49.25,36.1048,35.2751,121.028,99.0362,104.033,0.00272624,0.328804,20.676,124.044,-0.413641,0.0,1.0
200,49.75,35.7992,35.202,119.599,99.0434,104.23,0.00269042,0.346417,20.6638,123.954,-0.428947,0.0,1.0
202,50.25,35.7141,35.6199,118.392,99.0443,103.795,0.00268455,0.365359,20.6538,123.864,-0.393689,0.0,0.0
204,50.75,36.9094,36.3113,120.508,99.0434,102.909,0.0027006,0.370233,20.6458,123.784,-0.321765,0.0,0.0
206,51.25,36.9568,36.8582,121.464,99.0426,103.829,0.00276245,0.378568,20.6393,123.714,-0.39657,0.0,0.0
208,51.75,37.4535,36.8662,125.137,99.0342,103.995,0.0028565,0.380658,20.6404,123.754,-0.41071,0.0,0.0
210,52.25,37.9588,37.4091,122.287,99.0454,103.11,0.00300036,0.382352,20.6413,123.664,-0.338015,0.0,0.0
212,52.75,38.2333,37.7002,125.075,99.0394,103.699,0.0031778,0.377819,20.6455,123.644,-0.386325,0.0,0.0
214,53.25,38.112,37.8746,121.511,99.0599,102.907,0.00332152,0.374148,20.6519,123.564,-0.320154,0.0,0.0
216,53.75,39.3039,38.7295,118.445,99.0515,102.026,0.00362365,0.366554,20.6673,123.484,-0.248655,0.0,0.0
218,54.25,39.1548,38.7908,122.897,99.0515,101.882,0.00386836,0.356245,20.6797,123.434,-0.236774,0.0,0.0
220,54.75,39.3118,39.0433,124.472,99.0487,102.356,0.00423929,0.347895,20.6897,123.384,-0.276013,0.0,0.0
222,55.25,39.9223,39.4481,128.214,99.0559,101.68,0.00469518,0.331341,20.7075,123.294,-0.219709,0.0,0.0
224,55.75,40.2179,39.7245,129.363,99.0467,101.874,0.00521489,0.317932,20.7218,123.253,-0.236519,0.0,0.0
226,56.25,40.3643,39.9246,131.658,99.0479,101.465,0.00577127,0.299749,20.7405,123.253,-0.202629,0.0,0.0
228,56.75,40.6429,40.3836,130.988,99.0454,100.816,0.00639345,0.285021,20.7556,123.253,-0.148882,0.0,0.0
230,57.25,40.3545,40.2278,133.189,99.0607,101.141,0.00705178,0.268971,20.7708,123.233,-0.174665,0.0,0.0
232,57.75,40.2489,40.3517,132.181,99.0515,100.425,0.00774793,0.252263,20.7858,123.253,-0.11576,0.0,0.0
234,58.25,40.4696,40.5575,134.016,99.0479,100.11,0.00845843,0.238729,20.8041,123.203,-0.0896226,0.0,0.0
236,58.75,40.6632,40.3414,132.368,99.0495,100.403,0.00918731,0.221913,20.8189,123.083,-0.1141,0.0,0.0
238,59.25,40.2025,40.4424,137.353,99.0615,99.9715,0.00991574,0.208293,20.8331,123.013,-0.0768465,0.0,0.0
240,59.75,40.5541,40.7299,133.085,99.0591,100.173,0.0106148,0.194075,20.8446,123.013,-0.0939888,0.0,0.0
242,60.25,41.5519,40.5585,135.498,99.0567,99.6386,0.0112791,0.182559,20.8548,123.033,-0.0492224,0.0,0.0
244,60.75,40.1888,40.4928,130.746,99.0495,100.397,0.0118171,0.171446,20.863,122.993,-0.113577,0.0,0.0
246,61.25,39.2138,40.5898,134.525,99.0711,99.8836,0.0123162,0.162444,20.8697,122.903,-0.0686376,0.0,0.0
248,61.75,39.0733,40.0958,132.961,99.0535,100.448,0.0127773,0.154201,20.8755,122.873,-0.117495,0.0,0.0
250,62.25,39.3535,39.1134,132.45,99.0707,99.7783,0.0131385,0.147524,20.8803,122.863,-0.0598062,0.0,0.0
252,62.75,39.1211,40.1228,128.986,99.0563,100.659,0.0134201,0.141542,20.8851,122.873,-0.13486,0.0,0.0
254,63.25,39.2974,39.7312,133.484,99.0735,100.489,0.0136121,0.136697,20.8891,122.853,-0.11923,0.0,0.0
256,63.75,38.9275,40.135,134.1,99.0595,99.784,0.0137353,0.132472,20.8923,122.813,-0.0612456,0.0,0.0
258,64.25,39.097,39.7917,130.507,99.0787,100.696,0.013835,0.12878,20.8957,122.833,-0.136049,0.0,0.0
260,64.75,38.9206,39.6765,134.283,99.0667,100.273,0.0138405,0.125789,20.8985,122.793,-0.101725,0.0,0.0
262,65.25,38.6477,39.8883,132.251,99.0919,99.8827,0.0137773,0.122739,20.9004,122.783,-0.0667956,0.0,0.0
264,65.75,39.0596,39.574,131.874,99.0975,100.469,0.0136821,0.120269,20.9019,122.683,-0.115474,0.0,0.0
266,66.25,38.9218,39.7478,133.999,99.0859,100,0.0135655,0.117892,20.904,122.673,-0.077212,0.0,0.0
268,66.75,38.7037,39.6448,134.081,99.0743,99.7323,0.0134359,0.115967,20.9057,122.653,-0.0556276,0.0,0.0
270,67.25,38.5364,39.576,132.311,99.0811,100.357,0.0132994,0.114408,20.9075,122.613,-0.10753,0.0,0.0
272,67.75,38.6009,39.6911,131.907,99.0775,100.097,0.0131888,0.112714,20.9089,122.543,-0.0860212,0.0,0.0
274,68.25,38.7706,39.3553,135.629,99.0819,100.05,0.0130602,0.111342,20.9101,122.513,-0.0816754,0.0,0.0
276,68.75,38.7459,39.6421,133.325,99.0739,100.194,0.0129208,0.110092,20.9111,122.533,-0.0944538,0.0,0.0
278,69.25,38.2999,39.2189,131.549,99.0795,100.412,0.0127662,0.10908,20.9119,122.543,-0.112299,0.0,0.0
280,69.75,38.2489,39.4378,132.483,99.0887,100.443,0.0126035,0.108037,20.9134,122.513,-0.114056,0.0,0.0
282,70.25,38.2604,39.175,132.463,99.0959,99.9474,0.0124214,0.107193,20.9146,122.423,-0.0718981,0.0,0.0
284,70.75,38.4521,39.7048,128.841,99.0779,100.081,0.0122286,0.106261,20.9164,122.443,-0.0846383,0.0,0.0
286,71.25,38.4657,39.0192,136.843,99.0871,100.261,0.0120196,0.105283,20.9179,122.423,-0.0989446,0.0,0.0
288,71.75,38.2688,39.1356,130.473,99.0887,100.608,0.0118027,0.104148,20.9205,122.353,-0.12786,0.0,0.0
290,72.25,38.0889,38.647,137.157,99.0975,100.345,0.011627,0.10292,20.9225,122.333,-0.105165,0.0,0.0
292,72.75,38.1858,39.7043,136.895,99.0959,100.637,0.0113833,0.101627,20.9244,122.323,-0.129671,0.0,0.0
294,73.25,37.8014,38.943,131.139,99.1031,100.525,0.0111858,0.100311,20.9262,122.363,-0.119701,0.0,0.0
296,73.75,37.9925,39.1862,131.143,99.1027,100.467,0.010982,0.0992457,20.9276,122.373,-0.114921,0.0,0.0
298,74.25,37.8536,38.9877,136.781,99.1115,100.374,0.0107773,0.0978991,20.9291,122.293,-0.106406,0.0,0.0
300,74.75,37.7661,39.206,131.558,99.1011,100.18,0.0106115,0.0968083,20.9304,122.232,-0.0910205,0.0,0.0
302,75.25,37.7521,39.1712,134.752,99.1099,100.424,0.0103964,0.0956489,20.9319,122.212,-0.110688,0.0,0.0
304,75.75,38.0597,38.6835,133.954,99.1264,101.044,0.0102221,0.0947097,20.9335,122.192,-0.161007,0.0,0.0
306,76.25,37.8772,38.8756,134.647,99.1163,100.163,0.0100551,0.0937531,20.9351,122.202,-0.0883069,0.0,0.0
308,76.75,37.6694,38.5844,134.259,99.1103,99.9661,0.0098966,0.0928019,20.9365,122.182,-0.0722512,0.0,0.0
310,77.25,36.969,38.8367,132.529,99.1188,100.434,0.00974101,0.0920315,20.9377,122.152,-0.1108,0.0,0.0
312,77.75,37.6132,39.0609,135.075,99.1091,100.395,0.00959053,0.0910906,20.9387,122.122,-0.108365,0.0,0.0
314,78.25,37.4745,38.7672,132.959,99.1087,100.325,0.00941459,0.0903285,20.9397,122.112,-0.102495,0.0,0.0
316,78.75,37.4594,38.1522,129.249,99.1135,100.228,0.00927208,0.0894938,20.9407,122.072,-0.093972,0.0,0.0
318,79.25,37.3646,38.7079,134.348,99.1328,100.197,0.00912758,0.0886222,20.9415,122.062,-0.0897598,0.0,0.0
320,79.75,37.1919,38.2684,135.073,99.1184,100.367,0.00898437,0.0876919,20.9426,122.052,-0.105193,0.0,0.0
322,80.25,37.135,38.8398,137.111,99.1236,100.363,0.00883802,0.0867364,20.9435,122.032,-0.104416,0.0,0.0
324,80.75,37.2894,39.0716,132.874,99.1232,100.377,0.00869217,0.0858034,20.9447,122.012,-0.105608,0.0,0.0
326,81.25,36.3086,38.1697,134.969,99.1188,100.206,0.00857403,0.0849045,20.9457,121.992,-0.0916595,0.0,0.0
328,81.75,36.8543,38.4087,131.799,99.1272,100.667,0.00844277,0.0840319,20.9464,121.942,-0.129518,0.0,0.0
330,82.25,36.9855,38.2952,130.714,99.126,100.391,0.00830444,0.083195,20.9473,121.862,-0.106603,0.0,0.0
332,82.75,36.5374,38.7938,134.002,99.1244,100.123,0.00819239,0.0824088,20.9482,121.812,-0.0842578,0.0,0.0
334,83.25,37.0327,38.2095,132.272,99.1272,100.587,0.00806914,0.0816745,20.9489,121.732,-0.122847,0.0,0.0
336,83.75,36.6779,38.4759,132.636,99.1332,100.032,0.0079693,0.0810797,20.9495,121.682,-0.0758664,0.0,0.0
338,84.25,36.7305,38.5419,133.988,99.1412,99.9478,0.0078747,0.0803785,20.9502,121.652,-0.0680988,0.0,0.0
340,84.75,37.1146,38.5599,131.607,99.1324,99.8621,0.00779807,0.0798106,20.951,121.602,-0.0616381,0.0,0.0
342,85.25,36.4181,38.5926,134.371,99.1316,100.059,0.00771852,0.0793505,20.952,121.652,-0.078214,0.0,0.0
344,85.75,36.3575,38.2262,132.152,99.138,99.8586,0.0076846,0.0787311,20.9527,121.572,-0.0608621,0.0,0.0
346,86.25,36.728,38.3365,133.92,99.1352,99.4815,0.0076115,0.0782294,20.9539,121.572,-0.029305,0.0,0.0
348,86.75,36.717,38.2597,135.192,99.15,99.7756,0.0075387,0.0777221,20.9548,121.552,-0.0528559,0.0,0.0
350,87.25,36.6033,38.2806,132.161,99.1456,100.008,0.00747973,0.0772204,20.9556,121.542,-0.0727514,0.0,0.0
352,87.75,36.6207,38.0681,131.739,99.148,100.802,0.00738211,0.0767418,20.9562,121.502,-0.139033,0.0,0.0
354,88.25,36.4594,38.0473,132.729,99.1496,100.135,0.00730303,0.0762894,20.9567,121.512,-0.0831292,0.0,0.0
356,88.75,36.5714,38.1069,134.433,99.1664,99.386,0.00723898,0.0760028,20.9571,121.492,-0.0185863,0.0,0.0
358,89.25,36.652,38.568,133.486,99.1456,99.9273,0.00716154,0.0755128,20.9575,121.482,-0.0659984,0.0,0.0
360,89.75,36.2012,38.1523,130.412,99.1612,99.8461,0.00707582,0.0751159,20.9577,121.452,-0.0578415,0.0,0.0
362,90.25,36.1454,38.1638,129.467,99.1424,100.023,0.0069861,0.0747007,20.958,121.462,-0.074335,0.0,0.0
364,90.75,36.2371,37.7268,132.478,99.1488,100.698,0.00689516,0.0742802,20.9581,121.412,-0.130292,0.0,0.0
366,91.25,35.9994,37.6985,132.183,99.1492,100.335,0.00678672,0.0739396,20.9585,121.412,-0.0999254,0.0,0.0
368,91.75,36.3528,37.684,129.748,99.1704,99.9559,0.00669889,0.0734859,20.959,121.412,-0.0662952,0.0,0.0
370,92.25,36.0687,37.9588,131.774,99.1504,99.9751,0.00661271,0.0731183,20.9594,121.362,-0.0696058,0.0,0.0
372,92.75,36.1753,37.8204,132.408,99.1612,99.9492,0.00652939,0.0726983,20.9606,121.191,-0.0665133,0.0,0.0
374,93.25,36.1324,37.7074,133.659,99.1632,101.194,0.0064619,0.072248,20.9616,121.241,-0.170344,0.0,0.0
376,93.75,35.4886,37.5261,130.783,99.1724,100.658,0.0063973,0.0718257,20.9624,121.251,-0.124937,0.0,0.0
378,94.25,35.9521,37.8992,132.974,99.1632,100.68,0.00634498,0.0714318,20.963,121.181,-0.12758,0.0,0.0
380,94.75,35.8188,37.8826,134.548,99.1752,99.8978,0.00630012,0.0710768,20.9636,121.161,-0.0610089,0.0,0.0
382,95.25,35.6846,37.3916,131.662,99.1768,99.7876,0.00626379,0.0707569,20.964,121.151,-0.0515958,0.0,0.0
384,95.75,36.1288,37.665,133.893,99.1772,100.583,0.00623435,0.0704474,20.9643,121.131,-0.118267,0.0,0.0
386,96.25,35.8735,37.7042,134.779,99.1788,99.8113,0.00620307,0.0701515,20.9646,121.111,-0.0534174,0.0,0.0
388,96.75,35.7914,37.5252,133.516,99.1885,100.152,0.00617773,0.0699117,20.9648,121.091,-0.0812227,0.0,0.0
390,97.25,35.9291,37.7806,133.38,99.1732,100.212,0.00615101,0.069581,20.965,121.071,-0.0876033,0.0,0.0
392,97.75,35.636,37.5298,134.515,99.1913,100.087,0.00612936,0.0693131,20.9651,121.021,-0.0755166,0.0,0.0
394,98.25,35.3426,37.352,136.159,99.1933,100.24,0.00609075,0.0690529,20.9655,120.991,-0.0882259,0.0,0.0
396,98.75,35.8477,37.556,131.39,99.1929,100.392,0.00605948,0.0688034,20.966,120.941,-0.100971,0.0,0.0
398,99.25,35.8467,37.5267,133.56,99.1808,100.121,0.00599081,0.0686013,20.9664,120.851,-0.0792459,0.0,0.0
400,99.75,35.4492,37.7765,132.383,99.2081,99.9081,0.00593518,0.0682601,20.9667,120.851,-0.0590899,0.0,0.0
402,100.25,35.7508,37.4921,132.232,99.188,100.199,0.00583693,0.0679837,20.9672,120.851,-0.0852253,0.0,0.0
404,100.75,35.4233,37.5146,136.697,99.1937,100.222,0.00573719,0.0676097,20.9678,120.861,-0.0866958,0.0,0.0
406,101.25,35.3547,37.4671,133.891,99.1861,100.369,0.00563826,0.0673068,20.9685,120.831,-0.099605,0.0,0.0
408,101.75,35.2424,37.597,133.426,99.2021,100.392,0.00555813,0.0669659,20.9693,120.821,-0.10019,0.0,0.0
410,102.25,35.5368,37.4174,135.565,99.1929,99.7684,0.00548022,0.0666898,20.9699,120.801,-0.0486223,0.0,0.0
412,102.75,35.2172,37.5374,133.954,99.1973,100.907,0.00540543,0.066398,20.9705,120.841,-0.143633,0.0,0.0
414,103.25,35.4819,37.5284,131.049,99.1933,100.336,0.00534485,0.0661616,20.9709,120.721,-0.0962284,0.0,0.0
416,103.75,35.7428,37.4513,135.151,99.2045,99.5917,0.0052785,0.0658883,20.9712,120.771,-0.0327393,0.0,0.0
418,104.25,35.3917,37.0783,134.654,99.1961,100.362,0.00522476,0.0656669,20.9715,120.741,-0.0981591,0.0,0.0
420,104.75,35.1081,37.233,134.792,99.2121,99.9496,0.00516566,0.0652013,20.9717,120.681,-0.0622411,0.0,0.0
422,105.25,34.9545,37.5711,132.569,99.1913,99.9081,0.00510377,0.0648241,20.9723,120.701,-0.060515,0.0,0.0
424,105.75,35.4075,36.8774,134.607,99.2101,100.527,0.00503872,0.0645186,20.9728,120.651,-0.110823,0.0,0.0
426,106.25,34.7524,36.9661,130.697,99.1989,100.481,0.00497261,0.0639306,20.9732,120.661,-0.107929,0.0,0.0
428,106.75,35.2968,37.2242,139.276,99.2081,100.137,0.00490222,0.0634542,20.9736,120.651,-0.0782868,0.0,0.0
430,107.25,34.7761,36.5682,132.165,99.2013,100.052,0.00483004,0.0629824,20.9743,120.631,-0.0717445,0.0,0.0
432,107.75,35.1182,36.9233,131.559,99.2209,99.793,0.00475604,0.0625228,20.9748,120.601,-0.0483145,0.0,0.0
434,108.25,34.9967,37.2487,131.518,99.2025,100.183,0.00468211,0.0621147,20.9753,120.621,-0.0826557,0.0,0.0
436,108.75,35.3403,37.1256,130.707,99.2169,99.9634,0.00462224,0.0617519,20.9757,120.611,-0.0629971,0.0,0.0
438,109.25,35.0981,36.7822,136.997,99.2029,100.025,0.00454301,0.0614437,20.976,120.591,-0.0693598,0.0,0.0
440,109.75,34.8845,36.9725,130.863,99.2161,100.489,0.00447883,0.0611812,20.9762,120.581,-0.107143,0.0,0.0
442,110.25,35.01,37.1425,132.667,99.2089,100.955,0.00442685,0.0608969,20.9764,120.531,-0.146625,0.0,0.0
444,110.75,34.5581,36.6406,131.766,99.2165,100.519,0.00434423,0.0606022,20.9771,120.481,-0.109646,0.0,0.0
446,111.25,34.9266,36.6842,135.761,99.2133,100.328,0.00427731,0.0603634,20.9781,120.501,-0.0938596,0.0,0.0
448,111.75,34.7168,36.9051,133.838,99.2249,100.455,0.0041912,0.0599659,20.979,120.471,-0.10356,0.0,0.0
450,112.25,34.9359,36.8803,135.496,99.2173,100.076,0.00412146,0.059644,20.9796,120.431,-0.0724114,0.0,0.0
452,112.75,34.5664,36.4038,132.477,99.2297,99.9456,0.00402821,0.0593832,20.9804,120.381,-0.0604106,0.0,0.0
454,113.25,34.4406,36.7073,132.016,99.2189,99.838,0.00395267,0.0589931,20.9813,120.371,-0.0522777,0.0,0.0
456,113.75,34.4971,36.354,133.802,99.2337,99.8345,0.00387026,0.058516,20.9819,120.371,-0.050723,0.0,0.0
458,114.25,34.6404,36.8603,133.593,99.2269,100.625,0.0037844,0.0579394,20.9829,120.331,-0.117564,0.0,0.0
460,114.75,35.2648,36.8471,138.401,99.2381,99.9768,0.00369812,0.0574723,20.9837,120.331,-0.0623244,0.0,0.0
462,115.25,34.6319,37.0685,133.08,99.2341,99.9675,0.00361317,0.0568901,20.9842,120.301,-0.0618753,0.0,0.0
464,115.75,34.4021,37.2143,134.247,99.2317,100.081,0.00354437,0.0564186,20.9846,120.291,-0.071602,0.0,0.0
466,116.25,34.7894,36.6638,134.113,99.2337,100.177,0.00347127,0.0559152,20.9849,120.24,-0.0794856,0.0,0.0
468,116.75,34.3118,36.7865,133.29,99.2533,99.9081,0.00339643,0.0553981,20.9856,120.21,-0.0552565,0.0,0.0
470,117.25,34.5042,36.8062,134.479,99.2385,100.052,0.00332167,0.0549792,20.9862,120.25,-0.0685897,0.0,0.0
472,117.75,34.4281,36.56,135.064,99.2425,99.9153,0.0032484,0.0544491,20.9866,120.301,-0.0567733,0.0,0.0
474,118.25,34.4096,36.8273,130.325,99.2509,100.189,0.00317106,0.0540197,20.987,120.26,-0.079075,0.0,0.0
476,118.75,34.3141,36.2477,134.218,99.2489,100.172,0.00309225,0.0536005,20.9877,120.21,-0.0777842,0.0,0.0
478,119.25,34.8527,36.3204,136.775,99.2485,100.027,0.0030098,0.0531967,20.9883,120.271,-0.0656425,0.0,0.0
480,119.75,34.4893,36.7619,132.303,99.2626,100.382,0.00292627,0.0527839,20.9888,120.15,-0.0942461,0.0,0.0
482,120.25,34.7797,36.116,133.156,99.2666,100.505,0.00285862,0.0523725,20.9892,120.1,-0.104175,0.0,0.0
484,120.75,34.3731,36.5741,131.614,99.2682,100.224,0.00276973,0.0519607,20.9897,120.11,-0.0804985,0.0,0.0
486,121.25,34.6494,36.6287,136.788,99.2782,99.8242,0.00269772,0.0515565,20.9904,120.13,-0.0460941,0.0,0.0
488,121.75,34.4867,36.677,132.067,99.2718,100.423,0.00261385,0.0511363,20.9909,120.12,-0.0969028,0.0,0.0
490,122.25,34.1239,36.1371,135.588,99.2798,100.205,0.00254591,0.0507125,20.9913,119.99,-0.0779809,0.0,0.0
492,122.75,34.0062,36.2888,137.065,99.2802,100.628,0.00246657,0.0503693,20.9917,120.02,-0.113351,0.0,0.0
494,123.25,34.1639,36.4611,130.272,99.289,100.399,0.00238043,0.0499286,20.9924,120.01,-0.0934655,0.0,0.0
496,123.75,34.3104,35.9554,132.799,99.2846,100.14,0.00231066,0.0495716,20.993,120,-0.0720704,0.0,0.0
498,124.25,34.3885,36.2128,133.232,99.3014,100.049,0.00220793,0.0492012,20.9935,119.99,-0.063041,0.0,0.0
500,124.75,34.0604,36.0393,132.508,99.3126,100.028,0.00212473,0.0489012,20.9938,119.96,-0.0603298,0.0,0.0
502,125.25,34.3018,36.2877,132.289,99.3002,100.149,0.00202607,0.0485869,20.9941,119.92,-0.0715348,0.0,0.0
504,125.75,34.4531,36.5643,135.469,99.3018,100.138,0.00191802,0.0482681,20.995,119.95,-0.0704629,0.0,0.0
506,126.25,33.7221,36.2355,133.876,99.3102,100.576,0.00180183,0.0479743,20.9957,119.9,-0.10641,0.0,0.0
508,126.75,34.2326,36.1393,134.057,99.3086,100.856,0.00163081,0.0477042,20.9971,119.87,-0.129893,0.0,0.0
510,127.25,33.908,36.1579,133.414,99.3331,100.538,0.00156317,0.0474854,20.9975,119.9,-0.101309,0.0,0.0
512,127.75,34.0912,36.0895,133.596,99.3022,100.3,0.00144751,0.0472006,20.9981,119.92,-0.0840504,0.0,0.0
514,128.25,34.0505,36.0803,138.149,99.3138,100.253,0.00134303,0.04697,20.9987,119.86,-0.0791023,0.0,0.0
516,128.75,34.4046,35.6112,134.549,99.3078,100.223,0.00124867,0.0467546,20.9991,119.87,-0.0770674,0.0,0.0
518,129.25,34.3518,36.2644,135.353,99.3214,99.83,0.00117224,0.0465545,20.9994,119.84,-0.0429217,0.0,0.0
520,129.75,34.0753,36.0018,131.583,99.3102,100.212,0.00110791,0.0462421,20.9997,119.81,-0.0759659,0.0,0.0
522,130.25,33.9157,36.1237,133.634,99.3198,100.433,0.00105581,0.0461453,21,119.77,-0.0936565,0.0,0.0
524,130.75,33.9873,35.7283,131.416,99.317,100.833,0.00101602,0.0459584,21.0001,119.74,-0.127284,0.0,0.0
526,131.25,33.9892,35.7378,132.713,99.3307,101.009,0.00098379,0.0457878,21.0003,119.74,-0.14081,0.0,0.0
528,131.75,34.0097,35.685,135.528,99.3335,99.9755,0.000951649,0.0456495,21.0004,119.72,-0.0541428,0.0,0.0
530,132.25,34.1679,35.5079,135.451,99.329,99.8407,0.000925614,0.0454293,21.0005,119.69,-0.0431785,0.0,0.0
532,132.75,33.8102,35.3482,134.094,99.3359,100.701,0.000904526,0.0452509,21.0006,119.66,-0.114675,0.0,0.0
534,133.25,33.7596,35.6836,132.181,99.3447,100.2,0.000879187,0.0450253,21.0005,119.58,-0.0720405,0.0,0.0
536,133.75,33.6705,36.2619,130.743,99.3302,100.369,0.000851231,0.0448425,21.0003,119.64,-0.0873968,0.0,0.0
538,134.25,33.7771,35.6473,136.589,99.3479,100.337,0.000826047,0.0447015,21.0001,119.58,-0.0832516,0.0,0.0
540,134.75,33.6003,35.7222,133.807,99.3463,100.404,0.000803362,0.0445938,20.9999,119.56,-0.0889918,0.0,0.0
542,135.25,33.5238,35.9435,136.232,99.3487,100.473,0.000784986,0.0445065,20.9998,119.55,-0.0945759,0.0,0.0
544,135.75,33.7873,35.8639,133.061,99.3355,100.215,0.000755629,0.0444215,20.9997,119.53,-0.074093,0.0,0.0
546,136.25,33.7839,35.7289,133.97,99.3615,100.58,0.000731849,0.0443399,20.9996,119.55,-0.102445,0.0,0.0
548,136.75,34.0088,36.0027,135.284,99.3591,100.403,0.000712587,0.0442738,20.9995,119.55,-0.0877957,0.0,0.0
550,137.25,33.4918,36.0761,133.225,99.3671,100.083,0.00067649,0.0442203,20.9995,119.55,-0.0603687,0.0,0.0
552,137.75,33.48,35.6335,136.67,99.3491,100.647,0.000647252,0.0441769,20.9995,119.55,-0.10905,0.0,0.0
554,138.25,33.1709,35.3969,132.825,99.3715,100.577,0.000612722,0.0441418,20.9994,119.56,-0.1013,0.0,0.0
556,138.75,33.6139,35.9437,135.143,99.3579,100.258,0.000598002,0.0441133,20.9994,119.53,-0.0758239,0.0,0.0
558,139.25,33.5884,35.5787,134.391,99.3691,100.257,0.000572196,0.0440902,20.9994,119.54,-0.0747636,0.0,0.0
560,139.75,33.3556,35.7562,133.291,99.3707,100.908,0.000550722,0.0439904,20.9994,119.49,-0.12899,0.0,0.0
562,140.25,33.0343,35.4327,133.801,99.3699,100.809,0.000534597,0.0439095,20.9993,119.46,-0.120803,0.0,0.0
564,140.75,33.7213,35.7502,131.661,99.3671,99.9518,0.000522676,0.043817,20.9993,119.45,-0.0493075,0.0,0.0
566,141.25,33.9164,35.2417,131.946,99.3787,99.8987,0.000518096,0.043742,20.9993,119.45,-0.0438592,0.0,0.0
568,141.75,33.697,35.4461,134.938,99.3663,100.685,0.000518952,0.0437029,20.9993,119.38,-0.11076,0.0,0.0
570,142.25,33.8317,35.4564,135.358,99.3911,100.175,0.000527894,0.0436361,20.9993,119.38,-0.0659777,0.0,0.0
572,142.75,33.8388,35.5039,127.557,99.3739,100.412,0.00054256,0.0435748,20.9997,119.36,-0.087327,0.0,0.0
574,143.25,33.3358,35.3187,132.809,99.3855,99.8577,0.000554439,0.0435188,21.0001,119.32,-0.039829,0.0,0.0
576,143.75,33.3884,35.7274,132.54,99.3799,100.127,0.000576122,0.0434805,21.0004,119.27,-0.0629189,0.0,0.0
578,144.25,33.4154,35.5376,134.251,99.3895,100.309,0.000593685,0.0434559,21.0006,119.31,-0.0773737,0.0,0.0
580,144.75,33.3283,35.3684,135.409,99.3831,100.441,0.000602198,0.043436,21.0008,119.249,-0.0889751,0.0,0.0
582,145.25,33.4601,35.491,134.006,99.3979,100.304,0.000603952,0.0434199,21.0009,119.27,-0.076252,0.0,0.0
584,145.75,33.5548,35.1485,133.824,99.3899,99.7898,0.000605373,0.0434068,21.001,119.31,-0.0337461,0.0,0.0
586,146.25,33.999,35.4035,130.358,99.4072,100.572,0.000587316,0.0433151,21.0011,119.32,-0.0979128,0.0,0.0
588,146.75,33.8255,35.2198,134.879,99.3951,100.29,0.000572691,0.0432408,21.001,119.29,-0.0753291,0.0,0.0
590,147.25,33.7253,35.1045,136.545,99.4072,100.534,0.000553614,0.0431521,21.0009,119.28,-0.094743,0.0,0.0
592,147.75,33.0759,35.4051,134.759,99.4024,100.082,0.000538161,0.0430547,21.0009,119.259,-0.0572383,0.0,0.0
594,148.25,33.7575,35.3449,131.797,99.41,100.409,0.00052945,0.0429758,21.0009,119.239,-0.084055,0.0,0.0
596,148.75,33.1874,35.0946,134.561,99.4136,100.338,0.000525819,0.0429652,21.0008,119.239,-0.0777721,0.0,0.0
598,149.25,33.3947,35.107,132.683,99.4196,99.9086,0.000531315,0.0429566,21.0008,119.209,-0.0412312,0.0,0.0
600,149.75,33.5334,34.8472,133.81,99.416,100.827,0.000535767,0.0429227,21.0008,119.209,-0.118434,0.0,0.0
602,150.25,33.5982,35.0093,132.784,99.4292,100.216,0.000539373,0.0428951,21.0008,119.219,-0.0662786,0.0,0.0
604,150.75,33.5801,35.1289,129.561,99.4276,100.565,0.000544704,0.0428728,21.0005,119.199,-0.0956265,0.0,0.0
606,151.25,33.3492,35.2199,134.421,99.4304,100.874,0.000549023,0.0428548,21.0001,119.219,-0.121156,0.0,0.0
608,151.75,33.0136,35.5016,135.471,99.422,100.172,0.000556138,0.042833,21,119.149,-0.0631828,0.0,0.0
610,152.25,33.3805,35.0164,132.255,99.4292,100.251,0.000561902,0.042809,21.0002,119.079,-0.0691967,0.0,0.0
612,152.75,33.2443,35.5779,136.437,99.43,100.378,0.000568474,0.0427896,21.0003,119.089,-0.0797096,0.0,0.0
614,153.25,33.5757,34.9942,131.055,99.4328,100.445,0.00057551,0.0427738,21.0004,119.089,-0.085075,0.0,0.0
616,153.75,33.2379,35.1135,134.648,99.4384,100.408,0.000576387,0.042761,21.0004,119.119,-0.0815388,0.0,0.0
618,154.25,33.2086,35.201,134.944,99.4372,100.658,0.000577097,0.0427507,21.0005,119.089,-0.102567,0.0,0.0
620,154.75,32.7857,34.6367,131.568,99.4424,100.162,0.000566823,0.0427423,21.0005,119.089,-0.0606326,0.0,0.0
622,155.25,33.0338,34.2118,134.673,99.4464,100.473,0.000558502,0.0427,21.0006,119.049,-0.0862763,0.0,0.0
624,155.75,32.948,34.8599,136.047,99.466,100.727,0.000551762,0.0426336,21.0006,119.029,-0.105866,0.0,0.0
626,156.25,33.1842,35.1258,133.379,99.4456,100.466,0.000546302,0.0425941,21.0006,118.969,-0.0857834,0.0,0.0
628,156.75,33.0882,35.5822,130.148,99.4576,100.64,0.000535495,0.0425749,21.0009,118.949,-0.0992766,0.0,0.0
630,157.25,33.1768,35.3864,133.241,99.4596,100.055,0.000520995,0.0425665,21.0013,118.929,-0.050149,0.0,0.0
632,157.75,33.4324,35.4245,133.168,99.458,100.507,0.000509249,0.0425661,21.0017,118.929,-0.0881677,0.0,0.0
634,158.25,33.8313,34.9607,134.553,99.4616,100.323,0.000509375,0.0425657,21.0021,118.999,-0.0724387,0.0,0.0
636,158.75,32.9129,35.3131,136.909,99.4785,100.138,0.000509478,0.0425655,21.0024,118.939,-0.0555646,0.0,0.0
638,159.25,33.4323,35.1505,133.922,99.4708,100.368,0.000517998,0.0426201,21.0028,118.949,-0.0754721,0.0,0.0
640,159.75,33.6033,35.3227,135.195,99.4672,100.512,0.000524899,0.0426643,21.003,118.949,-0.0878002,0.0,0.0
642,160.25,33.353,35.5113,134.144,99.4624,99.8876,0.000535311,0.0427001,21.0032,118.939,-0.0358445,0.0,0.0
644,160.75,33.1642,35.4097,135.36,99.468,100.154,0.000543745,0.0426615,21.0034,118.939,-0.0577552,0.0,0.0
646,161.25,33.4245,35.2894,134.16,99.4736,100.149,0.000544549,0.0426302,21.0035,118.929,-0.0568318,0.0,0.0
648,161.75,33.2057,34.7985,131.052,99.4833,100.34,0.0005452,0.0425836,21.0036,118.889,-0.072032,0.0,0.0
650,162.25,33.2991,35.1119,135.324,99.4757,100.724,0.000533677,0.0425266,21.0039,118.889,-0.104793,0.0,0.0
652,162.75,33.1995,35.0123,134.541,99.4913,100.746,0.000513498,0.0424946,21.0044,118.839,-0.105298,0.0,0.0
654,163.25,33.2316,34.9351,134.41,99.4849,100.511,0.0004827,0.0424815,21.0048,118.839,-0.0862738,0.0,0.0
656,163.75,33.4524,34.9939,132.227,99.4937,100.442,0.000457754,0.0424852,21.0051,118.829,-0.0797071,0.0,0.0
658,164.25,33.3672,35.2995,138.497,99.4913,100.731,0.000437548,0.0425009,21.0053,118.809,-0.10407,0.0,0.0
660,164.75,33.3189,35.2513,130.524,99.5037,100.197,0.000428407,0.0425137,21.0051,118.769,-0.0583751,0.0,0.0
662,165.25,33.2566,35.255,134.394,99.5041,99.755,0.000421002,0.042524,21.0049,118.789,-0.0211675,0.0,0.0
664,165.75,32.9864,35.0751,133.914,99.5121,100.832,0.000441512,0.0425182,21.0047,118.779,-0.110757,0.0,0.0
666,166.25,33.1161,35.2719,135.879,99.4985,101.118,0.000458124,0.0425006,21.0046,118.709,-0.135678,0.0,0.0
668,166.75,32.6521,34.8058,133.277,99.5137,100.573,0.000503012,0.0424437,21.0045,118.709,-0.0889477,0.0,0.0
670,167.25,33.2255,34.7808,135.128,99.5157,100.347,0.00053937,0.0423592,21.0043,118.729,-0.0698896,0.0,0.0
672,167.75,33.3107,34.7341,134.08,99.5297,100.262,0.000586607,0.0422907,21.0041,118.759,-0.0615645,0.0,0.0
674,168.25,33.283,34.9685,133.615,99.5373,100.517,0.000640876,0.0423029,21.0039,118.699,-0.0823274,0.0,0.0
676,168.75,33.3041,34.5703,132.103,99.5437,100.451,0.000684834,0.0423127,21.0038,118.679,-0.0762626,0.0,0.0
678,169.25,32.9879,34.5286,132.399,99.5385,100.784,0.000739764,0.0423132,21.0037,118.679,-0.10447,0.0,0.0
680,169.75,32.7408,34.9528,134.392,99.5474,100.2,,0.0423068,,118.659,-0.05495,0.0,0.0
682,170.25,32.926,34.654,133.81,99.5514,100.071,,0.0423016,,118.639,-0.0437887,0.0,0.0
684,170.75,33.1815,35.1307,132.313,99.5674,100.44,,0.042365,,118.639,-0.0732966,0.0,0.0
686,171.25,33.0907,34.7854,132.653,99.553,100.057,,0.0424164,,118.629,-0.042454,0.0,0.0
688,171.75,33.2851,35.0993,134.809,99.563,100.651,,0.0423904,,118.619,-0.0913117,0.0,0.0
690,172.25,32.8992,34.8637,135.569,99.5598,100.164,,0.0423694,,118.629,-0.0508701,0.0,0.0
692,172.75,33.0616,34.707,134.992,99.5802,100.148,,,,118.609,-0.0477982,0.0,0.0
694,173.25,33.0155,35.1431,133.296,99.5706,100.041,,,,118.589,-0.0395794,0.0,0.0
696,173.75,32.8047,34.7979,130.707,99.5918,100.295,,,,118.559,-0.0591292,0.0,0.0
698,174.25,33.0681,34.9157,134.226,99.589,101.293,,,,118.559,-0.142598,0.0,0.0
700,174.75,33.0552,34.771,131.946,99.5986,100.56,,,,118.579,-0.0807357,0.0,0.0
702,175.25,32.9097,34.744,133.863,99.5918,100.584,,,,118.579,-0.0833244,0.0,0.0
704,175.75,33.0892,34.1864,133.19,99.6138,100.256,,,,118.619,-0.0539785,0.0,0.0
706,176.25,32.7136,34.695,132.847,99.5962,100.656,,,,118.599,-0.0889528,0.0,0.0
708,176.75,33.1416,35.0369,133.056,99.6179,100.435,,,,118.559,-0.0686275,0.0,0.0
710,177.25,32.6834,34.3894,133.222,99.6118,101.005,,,,118.499,-0.116683,0.0,0.0
712,177.75,32.7334,34.6878,134.766,99.6315,100.493,,,,118.439,-0.0723689,0.0,0.0
714,178.25,33.3406,34.7416,134.524,99.6162,100.26,,,,118.389,-0.0541499,0.0,0.0
716,178.75,32.8538,34.9683,135.739,99.6275,100.079,,,,118.429,-0.0379666,0.0,0.0
718,179.25,33.0431,34.4055,133.938,99.6255,100.409,,,,118.419,-0.0658192,0.0,0.0
720,179.75,32.8207,34.4201,131.323,99.6407,100.676,,,,118.399,-0.086878,0.0,0.0
722,180.25,32.5814,34.2993,132.189,99.6359,100.211,,,,118.399,-0.0483412,0.0,0.0