File: 01_Data/LatexPillow_C_Foam/STA/N2/10K_min/Latex_Pillow_C_STA_N2_10KData_220805_R3.csv
##Temp./Â°C,Time/min,Mass loss(subtr.2)/mg,DSC(subtr.2)/(mW/mg),Sensit./(uV/mW)
49.433,10.01,0.02768,0.01125572,1.07025
49.933,10.6942,0.02722487,0.04084571,1.07012
50.433,10.8726,0.02702055,0.06871811,1.06998
50.933,11.00452,0.0290197,0.09196564,1.06984
51.433,11.11397,0.02838459,0.10942,1.0697
51.933,11.20951,0.03018172,0.12757,1.06956
52.433,11.29706,0.02874275,0.14072,1.06943
52.933,11.37694,0.02889389,0.1528,1.06929
53.433,11.45481,0.02864339,0.16632,1.06915
53.933,11.5281,0.02981593,0.17698,1.06901
54.433,11.5984,0.03130293,0.18642,1.06887
54.933,11.66623,0.02959586,0.19502,1.06873
55.433,11.7319,0.0287315,0.20291,1.06859
55.933,11.79622,0.02935477,0.21116,1.06845
56.433,11.85931,0.02935663,0.21727,1.06831
56.933,11.9214,0.03092717,0.22163,1.06817
57.433,11.9823,0.03087451,0.22631,1.06803
57.933,12.0422,0.03029687,0.23032,1.06789
58.433,12.10108,0.03018412,0.23324,1.06774
58.933,12.1594,0.03086086,0.2387,1.0676
59.433,12.21702,0.03082976,0.24073,1.06746
59.933,12.27455,0.02945689,0.24482,1.06732
60.433,12.3316,0.0300349,0.24672,1.06717
60.933,12.38825,0.0309591,0.24864,1.06703
61.433,12.4444,0.03103761,0.25163,1.06689
61.933,12.49951,0.03000756,0.25592,1.06675
62.433,12.55525,0.03109281,0.25698,1.0666
62.933,12.61065,0.03024703,0.25855,1.06646
63.433,12.66589,0.030933,0.26295,1.06631
63.933,12.72103,0.03129765,0.2634,1.06617
64.433,12.77577,0.03111457,0.26521,1.06602
64.933,12.83,0.03196044,0.26873,1.06588
65.433,12.88438,0.03233676,0.26851,1.06573
65.933,12.93862,0.03240301,0.27133,1.06559
66.433,12.9924,0.0310641,0.2717,1.06544
66.933,13.0466,0.03269467,0.27292,1.0653
67.433,13.1004,0.03364334,0.27323,1.06515
67.933,13.15417,0.03224919,0.27537,1.065
68.433,13.20793,0.0312971,0.27681,1.06486
68.933,13.26141,0.0326016,0.27883,1.06471
69.433,13.3148,0.03390373,0.27886,1.06456
69.933,13.36803,0.0326199,0.27952,1.06442
70.433,13.4213,0.03123195,0.28293,1.06427
70.933,13.4744,0.03230404,0.28491,1.06412
71.433,13.5272,0.03252506,0.28375,1.06397
71.933,13.57976,0.03261975,0.28453,1.06382
72.433,13.63216,0.03266114,0.28564,1.06367
72.933,13.6845,0.03134515,0.28617,1.06352
73.433,13.73676,0.03131602,0.28876,1.06338
73.933,13.78935,0.03258786,0.28969,1.06323
74.433,13.8416,0.03267787,0.29138,1.06308
74.933,13.8938,0.03459407,0.29324,1.06293
75.433,13.9459,0.03458336,0.29334,1.06278
75.933,13.99801,0.03541739,0.29513,1.06262
76.433,14.0499,0.03459042,0.29498,1.06247
76.933,14.10181,0.03458705,0.29688,1.06232
77.433,14.15355,0.03457965,0.29633,1.06217
77.933,14.2054,0.035076,0.29828,1.06202
78.433,14.2568,0.03591956,0.29757,1.06187
78.933,14.30805,0.03601757,0.29814,1.06172
79.433,14.3598,0.03602003,0.29954,1.06156
79.933,14.411,0.03545384,0.29924,1.06141
80.433,14.4627,0.03598875,0.29941,1.06126
80.933,14.5145,0.03471643,0.30137,1.0611
81.433,14.56565,0.03587629,0.30283,1.06095
81.933,14.6161,0.03600999,0.30474,1.0608
82.433,14.6669,0.03495678,0.30411,1.06064
82.933,14.7179,0.03600617,0.30597,1.06049
83.433,14.76865,0.03602001,0.30811,1.06033
83.933,14.82035,0.03602,0.30794,1.06018
84.433,14.87134,0.03602,0.30882,1.06002
84.933,14.9221,0.03602312,0.31122,1.05987
85.433,14.9726,0.03696874,0.31242,1.05971
85.933,15.02305,0.03634041,0.31253,1.05956
86.433,15.0734,0.03636353,0.31292,1.0594
86.933,15.1236,0.03742802,0.31274,1.05924
87.433,15.17392,0.03728879,0.31293,1.05909
87.933,15.2241,0.03601189,0.31313,1.05893
88.433,15.2742,0.03601024,0.31463,1.05877
88.933,15.32425,0.0360201,0.31547,1.05861
89.433,15.37416,0.0360046,0.31492,1.05846
89.933,15.4241,0.03527735,0.31844,1.0583
90.433,15.4742,0.03599546,0.31952,1.05814
90.933,15.52411,0.03601963,0.31824,1.05798
91.433,15.57395,0.03636059,0.32042,1.05782
91.933,15.62374,0.03636635,0.32135,1.05766
92.433,15.6734,0.03600974,0.32305,1.0575
92.933,15.72315,0.03600968,0.3233,1.05735
93.433,15.7731,0.03742582,0.32253,1.05719
93.933,15.8227,0.03711229,0.32319,1.05703
94.433,15.87219,0.03601054,0.32414,1.05686
94.933,15.92169,0.03681029,0.32481,1.0567
95.433,15.97073,0.0373301,0.32605,1.05654
95.933,16.02009,0.03733,0.32599,1.05638
96.433,16.06966,0.03702599,0.32571,1.05622
96.933,16.11915,0.03666635,0.32734,1.05606
97.433,16.16868,0.0373427,0.3286,1.0559
97.933,16.21792,0.03599854,0.3291,1.05573
98.433,16.26719,0.03603296,0.32924,1.05557
98.933,16.3163,0.0373195,0.3299,1.05541
99.433,16.36534,0.037331,0.33069,1.05525
99.933,16.41454,0.03835322,0.3301,1.05508
100.433,16.4636,0.03865027,0.33054,1.05492
100.933,16.51267,0.03864992,0.33228,1.05475
101.433,16.56196,0.0381356,0.33146,1.05459
101.933,16.61107,0.03831141,0.33304,1.05443
102.433,16.66026,0.03864386,0.33393,1.05426
102.933,16.7091,0.03799256,0.3345,1.0541
103.433,16.75815,0.03733685,0.33522,1.05393
103.933,16.80698,0.03732998,0.33552,1.05377
104.433,16.85601,0.03733199,0.33496,1.0536
104.933,16.90523,0.03862755,0.33732,1.05343
105.433,16.9546,0.03804611,0.33668,1.05327
105.933,17.00385,0.03864961,0.33912,1.0531
106.433,17.05266,0.03792507,0.33831,1.05293
106.933,17.10175,0.0378633,0.33866,1.05277
107.433,17.15064,0.03667005,0.34007,1.0526
107.933,17.1995,0.03667403,0.34102,1.05243
108.433,17.24844,0.03798597,0.34211,1.05226
108.933,17.29756,0.03799,0.34131,1.0521
109.433,17.34633,0.0379995,0.34031,1.05193
109.933,17.3952,0.03835615,0.34397,1.05176
110.433,17.4441,0.03797737,0.34274,1.05159
110.933,17.49299,0.03898426,0.3431,1.05142
111.433,17.54182,0.03898017,0.34453,1.05125
111.933,17.59071,0.03762559,0.34515,1.05108
112.433,17.63934,0.0379889,0.34678,1.05091
112.933,17.688,0.03794053,0.34591,1.05074
113.433,17.7368,0.03902088,0.34666,1.05057
113.933,17.7856,0.03765425,0.34684,1.0504
114.433,17.83455,0.03797914,0.34821,1.05023
114.933,17.88353,0.03867675,0.34656,1.05006
115.433,17.9324,0.03937245,0.34848,1.04989
115.933,17.98113,0.04033297,0.3471,1.04971
116.433,18.0299,0.04029713,0.35175,1.04954
116.933,18.07845,0.03766472,0.34911,1.04937
117.433,18.12714,0.03755861,0.3493,1.0492
117.933,18.17579,0.03863205,0.34894,1.04902
118.433,18.22445,0.03766435,0.34871,1.04885
118.933,18.27305,0.03765999,0.35167,1.04868
119.433,18.3213,0.03766214,0.3512,1.0485
119.933,18.37005,0.03765901,0.34965,1.04833
120.433,18.41876,0.03766109,0.35182,1.04815
120.933,18.46744,0.03896688,0.3523,1.04798
121.433,18.5165,0.0388278,0.35128,1.0478
121.933,18.5652,0.03938891,0.35193,1.04763
122.433,18.61368,0.03929986,0.35303,1.04745
122.933,18.662,0.03930007,0.35258,1.04728
123.433,18.71043,0.03929025,0.35373,1.0471
123.933,18.7588,0.03897016,0.35477,1.04693
124.433,18.80732,0.03896978,0.35411,1.04675
124.933,18.85596,0.03921365,0.35407,1.04657
125.433,18.90427,0.03898086,0.35561,1.04639
125.933,18.95255,0.03898,0.3562,1.04622
126.433,19.00124,0.03898,0.35549,1.04604
126.933,19.0498,0.03897969,0.35561,1.04586
127.433,19.0981,0.03923862,0.35642,1.04568
127.933,19.14669,0.03898217,0.35649,1.0455
128.433,19.19501,0.03898001,0.35602,1.04533
128.933,19.24341,0.03897048,0.35686,1.04515
129.433,19.292,0.03767117,0.35488,1.04497
129.933,19.34074,0.0376591,0.35777,1.04479
130.433,19.3891,0.03897567,0.35789,1.04461
130.933,19.43756,0.03898002,0.35898,1.04443
131.433,19.48604,0.03898,0.35892,1.04425
131.933,19.5346,0.03898028,0.35805,1.04407
132.433,19.5829,0.03951492,0.35927,1.04389
132.933,19.63139,0.03995261,0.35874,1.0437
133.433,19.6799,0.03896839,0.35805,1.04352
133.933,19.7283,0.03929976,0.35904,1.04334
134.433,19.77672,0.0393,0.36002,1.04316
134.933,19.8251,0.0393,0.3593,1.04298
135.433,19.87347,0.0393,0.36007,1.04279
135.933,19.9219,0.03929982,0.35816,1.04261
136.433,19.97032,0.04063756,0.35915,1.04243
136.933,20.01865,0.04064159,0.35932,1.04225
137.433,20.06716,0.04030038,0.35912,1.04206
137.933,20.11552,0.040298,0.35908,1.04188
138.433,20.16384,0.03920231,0.35934,1.04169
138.933,20.21201,0.03946058,0.35839,1.04151
139.433,20.2602,0.04063007,0.35937,1.04132
139.933,20.3084,0.04028942,0.35795,1.04114
140.433,20.3566,0.03891331,0.35919,1.04095
140.933,20.4048,0.03981466,0.36195,1.04077
141.433,20.453,0.0391185,0.36023,1.04058
141.933,20.50119,0.03897987,0.36035,1.0404
142.433,20.54946,0.03895224,0.36084,1.04021
142.933,20.59769,0.04030055,0.36012,1.04002
143.433,20.64619,0.03987792,0.36156,1.03984
143.933,20.69439,0.03963964,0.36095,1.03965
144.433,20.74277,0.03964,0.36098,1.03946
144.933,20.79074,0.03963982,0.36108,1.03927
145.433,20.8388,0.03903933,0.36066,1.03908
145.933,20.8869,0.03897977,0.35973,1.0389
146.433,20.93477,0.03898012,0.36163,1.03871
146.933,20.98292,0.03892336,0.36156,1.03852
147.433,21.03106,0.04029032,0.3613,1.03833
147.933,21.079,0.04031628,0.36041,1.03814
148.433,21.12705,0.03897853,0.36024,1.03795
148.933,21.17515,0.03930894,0.36028,1.03776
149.433,21.2232,0.0396392,0.36086,1.03757
149.933,21.27115,0.03920463,0.36064,1.03738
150.433,21.31935,0.03832068,0.35985,1.03719
150.933,21.36732,0.03901863,0.35976,1.037
151.433,21.41518,0.03897991,0.36081,1.03681
151.933,21.463,0.03898,0.36143,1.03661
152.433,21.5109,0.03898,0.3608,1.03642
152.933,21.55893,0.03897999,0.36243,1.03623
153.433,21.60673,0.03899425,0.36087,1.03604
153.933,21.65474,0.03982205,0.36154,1.03584
154.433,21.70275,0.03930977,0.362,1.03565
154.933,21.75062,0.03927121,0.36365,1.03546
155.433,21.79834,0.03798994,0.3633,1.03526
155.933,21.84628,0.03789103,0.36454,1.03507
156.433,21.89408,0.03931051,0.36673,1.03488
156.933,21.9419,0.03931086,0.36503,1.03468
157.433,21.98979,0.0389724,0.36636,1.03449
157.933,22.03796,0.04030197,0.36781,1.03429
158.433,22.08586,0.03890159,0.36837,1.0341
158.933,22.13375,0.03898013,0.3685,1.0339
159.433,22.18168,0.03898,0.36822,1.0337
159.933,22.22934,0.03898,0.36826,1.03351
160.433,22.2771,0.03898,0.36908,1.03331
160.933,22.325,0.03898173,0.37045,1.03312
161.433,22.37298,0.04014999,0.36772,1.03292
161.933,22.42088,0.04029002,0.36937,1.03272
162.433,22.4688,0.04029001,0.37035,1.03252
162.933,22.51676,0.04027621,0.37052,1.03233
163.433,22.5645,0.03899332,0.37026,1.03213
163.933,22.6125,0.03897998,0.37015,1.03193
164.433,22.66046,0.03898,0.37047,1.03173
164.933,22.7083,0.03898,0.36958,1.03153
165.433,22.75615,0.03897998,0.36855,1.03133
165.933,22.80377,0.0389924,0.36987,1.03113
166.433,22.85162,0.03798687,0.3707,1.03093
166.933,22.89941,0.03799446,0.37119,1.03073
167.433,22.94738,0.03930446,0.3709,1.03053
167.933,22.99513,0.04060667,0.3696,1.03033
168.433,23.043,0.04037933,0.36972,1.03013
168.933,23.09066,0.03859454,0.36935,1.02993
169.433,23.13855,0.03799028,0.36765,1.02973
169.933,23.18626,0.03799001,0.36787,1.02953
170.433,23.23422,0.03798421,0.3685,1.02932
170.933,23.28206,0.03930209,0.36775,1.02912
171.433,23.33,0.03799001,0.36796,1.02892
171.933,23.37803,0.03799,0.36584,1.02871
172.433,23.42586,0.03799,0.36818,1.02851
172.933,23.47354,0.03799,0.36655,1.02831
173.433,23.52126,0.03799006,0.36596,1.0281
173.933,23.56917,0.03801189,0.36659,1.0279
174.433,23.6169,0.03666763,0.36629,1.0277
174.933,23.66474,0.03666997,0.36405,1.02749
175.433,23.71262,0.03668482,0.36568,1.02729
175.933,23.76033,0.03766138,0.36488,1.02708
176.433,23.8081,0.03766001,0.36544,1.02688
176.933,23.85606,0.03766373,0.36504,1.02667
177.433,23.90385,0.03628758,0.36663,1.02646
177.933,23.9516,0.03634005,0.36539,1.02626
178.433,23.99926,0.03634,0.36529,1.02605
178.933,24.04707,0.03633996,0.36509,1.02584
179.433,24.0949,0.03640368,0.36446,1.02564
179.933,24.14274,0.03768985,0.36173,1.02543
180.433,24.1907,0.0350305,0.3644,1.02522
180.933,24.2384,0.03503,0.36081,1.02501
181.433,24.28625,0.03503,0.36155,1.0248
181.933,24.33386,0.03503,0.36308,1.0246
182.433,24.38164,0.03503004,0.36234,1.02439
182.933,24.42923,0.0350402,0.36296,1.02418
183.433,24.47691,0.0363236,0.36152,1.02397
183.933,24.52459,0.03503181,0.36101,1.02376
184.433,24.57226,0.03502999,0.35971,1.02355
184.933,24.62004,0.03503005,0.361,1.02334
185.433,24.66798,0.03372017,0.35879,1.02313
185.933,24.71578,0.03370997,0.36012,1.02292
186.433,24.7636,0.03370965,0.35943,1.02271
186.933,24.81123,0.03379394,0.35913,1.02249
187.433,24.8588,0.03503218,0.3589,1.02228
187.933,24.90636,0.03367192,0.3585,1.02207
188.433,24.95395,0.03371007,0.35954,1.02186
188.933,25.00135,0.03370997,0.3583,1.02164
189.433,25.04901,0.03369739,0.35868,1.02143
189.933,25.0965,0.03239136,0.3609,1.02122
190.433,25.1437,0.0323634,0.36148,1.021
190.933,25.19134,0.03271958,0.36262,1.02079
191.433,25.23905,0.03272,0.36048,1.02058
191.933,25.28663,0.03272,0.36087,1.02036
192.433,25.33428,0.03272,0.36139,1.02015
192.933,25.3822,0.03271992,0.36083,1.01993
193.433,25.42972,0.03271451,0.36154,1.01972
193.933,25.47718,0.03106962,0.3624,1.0195
194.433,25.52466,0.03107,0.36375,1.01929
194.933,25.572,0.03107,0.36232,1.01907
195.433,25.61952,0.03107,0.36131,1.01885
195.933,25.66669,0.0310655,0.36405,1.01864
196.433,25.71398,0.03011693,0.36385,1.01842
196.933,25.76136,0.03139888,0.36486,1.0182
197.433,25.80872,0.03143119,0.36428,1.01799
197.933,25.85614,0.03005083,0.36365,1.01777
198.433,25.90386,0.02884606,0.36493,1.01755
198.933,25.95138,0.02744779,0.36479,1.01733
199.433,25.9988,0.02875445,0.36388,1.01711
199.933,26.04627,0.0287644,0.36628,1.01689
200.433,26.09359,0.02775119,0.36796,1.01667
200.933,26.14102,0.02877224,0.3667,1.01645
201.433,26.1885,0.02877001,0.36904,1.01623
201.933,26.2361,0.02876987,0.36711,1.01601
202.433,26.2833,0.02883481,0.36925,1.01579
202.933,26.3307,0.02744981,0.36711,1.01557
203.433,26.37823,0.02744949,0.36987,1.01535
203.933,26.4257,0.02708979,0.36997,1.01513
204.433,26.4733,0.02712005,0.37014,1.01491
204.933,26.5213,0.02712,0.36986,1.01469
205.433,26.56883,0.02712,0.37243,1.01446
205.933,26.6164,0.02712051,0.37154,1.01424
206.433,26.6638,0.02569285,0.37344,1.01402
206.933,26.7113,0.02449838,0.37232,1.0138
207.433,26.75876,0.02449002,0.37285,1.01357
207.933,26.8064,0.02449,0.37293,1.01335
208.433,26.85411,0.02449,0.37229,1.01313
208.933,26.9016,0.02449,0.3745,1.0129
209.433,26.94909,0.02449,0.37371,1.01268
209.933,26.9966,0.0244881,0.37626,1.01245
210.433,27.0441,0.02319579,0.37664,1.01223
210.933,27.0918,0.02316997,0.37848,1.012
211.433,27.13945,0.02317,0.37688,1.01178
211.933,27.18695,0.02317,0.37846,1.01155
212.433,27.23447,0.02317,0.37934,1.01132
212.933,27.282,0.02316995,0.38001,1.0111
213.433,27.3296,0.02287117,0.38359,1.01087
213.933,27.3775,0.02185092,0.38235,1.01064
214.433,27.4252,0.02184988,0.38292,1.01041
214.933,27.4724,0.02128332,0.38309,1.01019
215.433,27.52001,0.02053,0.38471,1.00996
215.933,27.56713,0.02053,0.38549,1.00973
216.433,27.6144,0.02052622,0.38623,1.0095
216.933,27.6624,0.01955482,0.38799,1.00927
217.433,27.71027,0.01954,0.38922,1.00904
217.933,27.75814,0.01954,0.38977,1.00881
218.433,27.8064,0.01953863,0.39163,1.00858
218.933,27.854,0.01883655,0.39285,1.00835
219.433,27.90151,0.0185626,0.39458,1.00812
219.933,27.94925,0.01724346,0.39628,1.00789
220.433,27.9969,0.01723998,0.39792,1.00766
220.933,28.04451,0.01724,0.39911,1.00743
221.433,28.09233,0.01723941,0.40055,1.0072
221.933,28.1397,0.0166037,0.40217,1.00697
222.433,28.1867,0.01526515,0.40381,1.00674
222.933,28.23402,0.01527001,0.40566,1.0065
223.433,28.2813,0.01527001,0.41079,1.00627
223.933,28.32872,0.01527229,0.41409,1.00604
224.433,28.3765,0.01391377,0.41538,1.0058
224.933,28.4242,0.01395007,0.41953,1.00557
225.433,28.47185,0.01395016,0.42185,1.00534
225.933,28.5197,0.0139621,0.42253,1.0051
226.433,28.56795,0.01134667,0.42118,1.00487
226.933,28.61595,0.01263852,0.42449,1.00463
227.433,28.66388,0.01263494,0.42989,1.0044
227.933,28.71152,0.01192444,0.43329,1.00416
228.433,28.7591,0.009995452,0.43514,1.00393
228.933,28.80668,0.01000003,0.43981,1.00369
229.433,28.8542,0.01000003,0.44328,1.00345
229.933,28.9017,0.009989757,0.4473,1.00322
230.433,28.94929,0.008678444,0.44947,1.00298
230.933,28.9969,0.007388833,0.45434,1.00274
231.433,29.0446,0.00598981,0.45889,1.00251
231.933,29.0922,0.006040521,0.4629,1.00227
232.433,29.13995,0.006695657,0.46714,1.00203
232.933,29.1875,0.00604636,0.47047,1.00179
233.433,29.2351,0.00558077,0.47362,1.00155
233.933,29.2827,0.00473388,0.48075,1.00131
234.433,29.33032,0.0034087,0.48867,1.00108
234.933,29.37797,0.00342342,0.48933,1.00084
235.433,29.4253,0.002416112,0.49509,1.0006
235.933,29.47305,0.002419592,0.49847,1.00036
236.433,29.52079,0.0020758,0.50321,1.00012
236.933,29.5685,0.002088666,0.50784,0.99987
237.433,29.61601,0.0008114016,0.51498,0.99963
237.933,29.66378,0.0004196604,0.51585,0.99939
238.433,29.71149,-0.0005640863,0.52025,0.99915
238.933,29.7592,-0.000540035,0.52703,0.99891
239.433,29.8068,-0.0006344763,0.53231,0.99867
239.933,29.8546,-0.002187596,0.53836,0.99842
240.433,29.9022,-0.002733749,0.5469,0.99818
240.933,29.9497,-0.003510207,0.54948,0.99794
241.433,29.99728,-0.00481555,0.55764,0.9977
241.933,30.0451,-0.005341601,0.56655,0.99745
242.433,30.09283,-0.005943315,0.56873,0.99721
242.933,30.14077,-0.007129615,0.57533,0.99696
243.433,30.1885,-0.007128653,0.58739,0.99672
243.933,30.2362,-0.007233722,0.59377,0.99647
244.433,30.28388,-0.008427863,0.59928,0.99623
244.933,30.33165,-0.01108914,0.60568,0.99598
245.433,30.3795,-0.01239758,0.6149,0.99574
245.933,30.4274,-0.01235259,0.62136,0.99549
246.433,30.47529,-0.01372337,0.62849,0.99524
246.933,30.52298,-0.0137356,0.63682,0.995
247.433,30.5707,-0.01503837,0.64493,0.99475
247.933,30.61853,-0.01634441,0.65151,0.9945
248.433,30.66607,-0.01762868,0.65961,0.99426
248.933,30.71387,-0.01800644,0.66602,0.99401
249.433,30.7616,-0.02036536,0.67683,0.99376
249.933,30.80913,-0.02161306,0.68333,0.99351
250.433,30.85678,-0.02305233,0.69072,0.99326
250.933,30.90447,-0.02405816,0.69823,0.99301
251.433,30.9519,-0.02434059,0.70759,0.99276
251.933,30.99952,-0.02567711,0.71501,0.99251
252.433,31.04738,-0.02585369,0.72415,0.99226
252.933,31.0951,-0.02700241,0.73149,0.99201
253.433,31.143,-0.02841002,0.73938,0.99176
253.933,31.19111,-0.03070805,0.74541,0.99151
254.433,31.23883,-0.03219133,0.75366,0.99126
254.933,31.28653,-0.03354896,0.7643,0.99101
255.433,31.33408,-0.03489539,0.77182,0.99076
255.933,31.3817,-0.03618715,0.77886,0.99051
256.433,31.42942,-0.03753981,0.78755,0.99025
256.933,31.4771,-0.03753264,0.79304,0.99
257.433,31.52484,-0.03910964,0.80611,0.98975
257.933,31.57259,-0.04170617,0.81025,0.9895
258.433,31.62022,-0.04291806,0.81922,0.98924
258.933,31.6679,-0.04500631,0.82787,0.98899
259.433,31.7157,-0.04671563,0.83549,0.98873
259.933,31.76315,-0.04839372,0.84134,0.98848
260.433,31.8106,-0.04838899,0.84941,0.98822
260.933,31.8584,-0.04989392,0.85483,0.98797
261.433,31.9061,-0.05128287,0.86256,0.98771
261.933,31.9541,-0.05329606,0.86828,0.98746
262.433,32.00246,-0.05610828,0.87662,0.9872
262.933,32.05007,-0.05752648,0.88483,0.98695
263.433,32.09754,-0.05978737,0.89266,0.98669
263.933,32.14492,-0.06122378,0.89961,0.98643
264.433,32.1925,-0.06260595,0.90592,0.98618
264.933,32.2401,-0.06399992,0.90863,0.98592
265.433,32.28803,-0.06572078,0.91636,0.98566
265.933,32.33593,-0.06902145,0.91773,0.9854
266.433,32.3838,-0.07032205,0.92366,0.98514
266.933,32.4317,-0.07179365,0.92986,0.98489
267.433,32.47937,-0.07382372,0.93782,0.98463
267.933,32.52698,-0.07625045,0.94192,0.98437
268.433,32.5747,-0.07778687,0.9561,0.98411
268.933,32.62247,-0.07994549,0.95774,0.98385
269.433,32.6703,-0.0818997,0.96697,0.98359
269.933,32.71836,-0.08323624,0.96986,0.98333
270.433,32.76614,-0.08451922,0.97462,0.98307
270.933,32.81389,-0.08713253,0.97976,0.98281
271.433,32.86158,-0.08941077,0.98371,0.98254
271.933,32.90943,-0.09215531,0.98659,0.98228
272.433,32.9572,-0.09418326,0.98903,0.98202
272.933,33.00503,-0.09622488,0.9901,0.98176
273.433,33.05301,-0.09971286,0.98979,0.9815
273.933,33.1008,-0.10125,0.9894,0.98123
274.433,33.1486,-0.10418,0.98643,0.98097
274.933,33.1964,-0.10663,0.9818,0.98071
275.433,33.2442,-0.10902,0.9761,0.98044
275.933,33.29206,-0.11029,0.97143,0.98018
276.433,33.33976,-0.11199,0.96069,0.97991
276.933,33.3875,-0.11371,0.95197,0.97965
277.433,33.4352,-0.11528,0.93685,0.97938
277.933,33.48291,-0.11704,0.92376,0.97912
278.433,33.53082,-0.11895,0.90802,0.97885
278.933,33.57862,-0.12053,0.8893,0.97859
279.433,33.62593,-0.12216,0.87048,0.97832
279.933,33.67351,-0.12437,0.84656,0.97805
280.433,33.72096,-0.1261,0.82297,0.97779
280.933,33.7686,-0.12769,0.79441,0.97752
281.433,33.81646,-0.12939,0.77035,0.97725
281.933,33.8643,-0.13186,0.74247,0.97698
282.433,33.91199,-0.13303,0.71748,0.97672
282.933,33.95936,-0.13433,0.6891,0.97645
283.433,34.00657,-0.13548,0.66518,0.97618
283.933,34.05413,-0.13839,0.63769,0.97591
284.433,34.10158,-0.13843,0.61446,0.97564
284.933,34.14918,-0.13974,0.59073,0.97537
285.433,34.1967,-0.14039,0.57094,0.9751
285.933,34.2444,-0.14107,0.54982,0.97483
286.433,34.29186,-0.14243,0.53411,0.97456
286.933,34.33912,-0.14329,0.5183,0.97429
287.433,34.3866,-0.14365,0.50277,0.97402
287.933,34.43423,-0.14497,0.48928,0.97375
288.433,34.48189,-0.14633,0.47784,0.97348
288.933,34.52959,-0.14765,0.46945,0.9732
289.433,34.57736,-0.14781,0.45777,0.97293
289.933,34.6246,-0.14892,0.44599,0.97266
290.433,34.67192,-0.15028,0.44239,0.97239
290.933,34.7192,-0.15029,0.43718,0.97211
291.433,34.76661,-0.1516,0.42791,0.97184
291.933,34.8142,-0.15152,0.42447,0.97157
292.433,34.86161,-0.15328,0.41965,0.97129
292.933,34.90914,-0.15325,0.41322,0.97102
293.433,34.95677,-0.15454,0.41182,0.97074
293.933,35.00443,-0.15496,0.41041,0.97047
294.433,35.05231,-0.15606,0.40804,0.97019
294.933,35.1001,-0.1572,0.40274,0.96992
295.433,35.1479,-0.15712,0.40003,0.96964
295.933,35.1957,-0.15852,0.39684,0.96936
296.433,35.24346,-0.15868,0.39494,0.96909
296.933,35.29116,-0.15984,0.39111,0.96881
297.433,35.3389,-0.16115,0.39023,0.96853
297.933,35.38657,-0.16251,0.38821,0.96826
298.433,35.43424,-0.16252,0.38607,0.96798
298.933,35.4822,-0.16379,0.3818,0.9677
299.433,35.52989,-0.1651,0.37969,0.96742
299.933,35.5778,-0.1651,0.37649,0.96714
300.433,35.62553,-0.16637,0.37536,0.96686
300.933,35.67317,-0.16725,0.37588,0.96659
301.433,35.72095,-0.16872,0.37479,0.96631
301.933,35.76875,-0.16895,0.37706,0.96603
302.433,35.8164,-0.17063,0.36958,0.96575
302.933,35.86394,-0.17158,0.37442,0.96547
303.433,35.91194,-0.17154,0.37448,0.96518
303.933,35.95989,-0.1729,0.37356,0.9649
304.433,36.00764,-0.17425,0.37335,0.96462
304.933,36.05574,-0.17658,0.36867,0.96434
305.433,36.10352,-0.17747,0.36667,0.96406
305.933,36.15129,-0.17784,0.36752,0.96378
306.433,36.19892,-0.17791,0.36521,0.96349
306.933,36.24662,-0.17937,0.36021,0.96321
307.433,36.2945,-0.18061,0.35845,0.96293
307.933,36.34228,-0.18191,0.35915,0.96264
308.433,36.3903,-0.18324,0.35545,0.96236
308.933,36.4383,-0.18374,0.35772,0.96208
309.433,36.48633,-0.18454,0.35679,0.96179
309.933,36.53452,-0.18591,0.35443,0.96151
310.433,36.58251,-0.18739,0.35058,0.96122
310.933,36.6305,-0.18861,0.35075,0.96094
311.433,36.67861,-0.18946,0.35009,0.96065
311.933,36.72656,-0.18995,0.348,0.96036
312.433,36.7744,-0.19115,0.34708,0.96008
312.933,36.82237,-0.19353,0.3447,0.95979
313.433,36.8705,-0.19486,0.34315,0.9595
313.933,36.91851,-0.19607,0.34172,0.95922
314.433,36.96671,-0.19618,0.33869,0.95893
314.933,37.01485,-0.19768,0.33656,0.95864
315.433,37.0627,-0.19795,0.3341,0.95835
315.933,37.11047,-0.19962,0.33532,0.95806
316.433,37.15834,-0.20198,0.33339,0.95778
316.933,37.20606,-0.20469,0.33033,0.95749
317.433,37.25415,-0.20591,0.32912,0.9572
317.933,37.3025,-0.20591,0.32831,0.95691
318.433,37.3504,-0.20727,0.32482,0.95662
318.933,37.3987,-0.20857,0.32291,0.95633
319.433,37.4467,-0.20988,0.32041,0.95604
319.933,37.49455,-0.2122,0.32041,0.95575
320.433,37.54247,-0.21409,0.31828,0.95546
320.933,37.5905,-0.21542,0.31352,0.95516
321.433,37.63843,-0.21765,0.31255,0.95487
321.933,37.68628,-0.21872,0.31125,0.95458
322.433,37.73382,-0.22008,0.31215,0.95429
322.933,37.78158,-0.222,0.3107,0.95399
323.433,37.8294,-0.2238,0.30839,0.9537
323.933,37.87781,-0.22656,0.30717,0.95341
324.433,37.9264,-0.22835,0.30326,0.95311
324.933,37.97484,-0.23108,0.30204,0.95282
325.433,38.02281,-0.23263,0.30253,0.95253
325.933,38.0709,-0.2351,0.29193,0.95223
326.433,38.11905,-0.23676,0.29288,0.95194
326.933,38.16702,-0.23873,0.28885,0.95164
327.433,38.2149,-0.24098,0.28372,0.95135
327.933,38.26311,-0.24371,0.28172,0.95105
328.433,38.31077,-0.24577,0.27715,0.95075
328.933,38.35856,-0.24976,0.27534,0.95046
329.433,38.40665,-0.25255,0.27685,0.95016
329.933,38.45471,-0.25392,0.2758,0.94986
330.433,38.50235,-0.25597,0.26983,0.94957
330.933,38.55018,-0.25931,0.27179,0.94927
331.433,38.59836,-0.26133,0.27258,0.94897
331.933,38.64669,-0.26398,0.26973,0.94867
332.433,38.69491,-0.26754,0.26854,0.94837
332.933,38.74353,-0.27045,0.26298,0.94808
333.433,38.79155,-0.27338,0.25786,0.94778
333.933,38.83933,-0.27778,0.25897,0.94748
334.433,38.88722,-0.27984,0.25397,0.94718
334.933,38.93537,-0.2838,0.24699,0.94688
335.433,38.9835,-0.28772,0.24515,0.94658
335.933,39.03188,-0.29107,0.24045,0.94628
336.433,39.08025,-0.29326,0.23749,0.94598
336.933,39.1285,-0.29834,0.23369,0.94567
337.433,39.1766,-0.3009,0.23082,0.94537
337.933,39.22481,-0.30649,0.22517,0.94507
338.433,39.27279,-0.31004,0.22252,0.94477
338.933,39.3209,-0.31436,0.21962,0.94447
339.433,39.36914,-0.31796,0.21935,0.94416
339.933,39.41727,-0.32242,0.21074,0.94386
340.433,39.46552,-0.32678,0.21233,0.94356
340.933,39.51367,-0.3305,0.21097,0.94325
341.433,39.56157,-0.33408,0.20662,0.94295
341.933,39.60987,-0.34009,0.20346,0.94264
342.433,39.65804,-0.34551,0.20089,0.94234
342.933,39.70632,-0.34982,0.19485,0.94204
343.433,39.7546,-0.35604,0.19116,0.94173
343.933,39.8029,-0.36145,0.18948,0.94142
344.433,39.85122,-0.36544,0.18624,0.94112
344.933,39.89953,-0.37273,0.18116,0.94081
345.433,39.94764,-0.37906,0.17719,0.94051
345.933,39.99589,-0.38407,0.17454,0.9402
346.433,40.0441,-0.39044,0.17048,0.93989
346.933,40.09215,-0.39677,0.16914,0.93958
347.433,40.1397,-0.40386,0.16815,0.93928
347.933,40.18762,-0.41129,0.16405,0.93897
348.433,40.2355,-0.41792,0.1636,0.93866
348.933,40.2837,-0.42528,0.16191,0.93835
349.433,40.3324,-0.43324,0.16038,0.93804
349.933,40.38084,-0.44101,0.15649,0.93773
350.433,40.42934,-0.44866,0.15322,0.93742
350.933,40.47782,-0.45589,0.15329,0.93711
351.433,40.5261,-0.46382,0.14912,0.9368
351.933,40.57483,-0.47325,0.14314,0.93649
352.433,40.6237,-0.48185,0.14176,0.93618
352.933,40.67194,-0.49069,0.13936,0.93587
353.433,40.72053,-0.49994,0.13632,0.93556
353.933,40.769,-0.50978,0.13171,0.93525
354.433,40.81735,-0.51982,0.13148,0.93494
354.933,40.866,-0.53033,0.12531,0.93462
355.433,40.91458,-0.54063,0.12253,0.93431
355.933,40.9629,-0.55109,0.12253,0.934
356.433,41.01101,-0.5621,0.12011,0.93369
356.933,41.05914,-0.57432,0.11907,0.93337
357.433,41.10737,-0.58442,0.12398,0.93306
357.933,41.15573,-0.59695,0.11893,0.93274
358.433,41.2042,-0.60847,0.11696,0.93243
358.933,41.25264,-0.62159,0.11577,0.93212
359.433,41.30106,-0.63325,0.11538,0.9318
359.933,41.34955,-0.64672,0.11418,0.93149
360.433,41.3979,-0.65979,0.11693,0.93117
360.933,41.44617,-0.67427,0.12106,0.93085
361.433,41.49447,-0.68818,0.11971,0.93054
361.933,41.5428,-0.70154,0.11908,0.93022
362.433,41.59089,-0.71596,0.12039,0.9299
362.933,41.63941,-0.73257,0.12012,0.92959
363.433,41.68781,-0.74826,0.12293,0.92927
363.933,41.73597,-0.76368,0.12122,0.92895
364.433,41.78394,-0.77936,0.12254,0.92863
364.933,41.83189,-0.79545,0.12727,0.92832
365.433,41.8799,-0.81255,0.13064,0.928
365.933,41.92774,-0.83031,0.1339,0.92768
366.433,41.97602,-0.84512,0.13506,0.92736
366.933,42.02445,-0.86193,0.13853,0.92704
367.433,42.07333,-0.88035,0.13906,0.92672
367.933,42.12226,-0.89949,0.14358,0.9264
368.433,42.17106,-0.91894,0.14871,0.92608
368.933,42.21999,-0.93766,0.145,0.92576
369.433,42.26832,-0.95643,0.14851,0.92544
369.933,42.31653,-0.97717,0.15275,0.92512
370.433,42.365,-0.99644,0.15667,0.92479
370.933,42.4133,-1.01729,0.15984,0.92447
371.433,42.46182,-1.03652,0.1684,0.92415
371.933,42.5103,-1.05701,0.16895,0.92383
372.433,42.55891,-1.07687,0.17077,0.9235
372.933,42.60738,-1.09913,0.17607,0.92318
373.433,42.656,-1.11963,0.18078,0.92286
373.933,42.70473,-1.14054,0.18576,0.92253
374.433,42.75338,-1.1622,0.18921,0.92221
374.933,42.802,-1.18377,0.19328,0.92188
375.433,42.85088,-1.2067,0.19832,0.92156
375.933,42.89971,-1.22858,0.20273,0.92124
376.433,42.94828,-1.24966,0.20842,0.92091
376.933,42.99647,-1.2713,0.2088,0.92058
377.433,43.04456,-1.29433,0.21955,0.92026
377.933,43.09263,-1.31612,0.22143,0.91993
378.433,43.14098,-1.33782,0.22715,0.91961
378.933,43.1897,-1.36029,0.23045,0.91928
379.433,43.2387,-1.3829,0.23885,0.91895
379.933,43.28693,-1.40561,0.24373,0.91862
380.433,43.33534,-1.4278,0.243,0.9183
380.933,43.38409,-1.44813,0.24856,0.91797
381.433,43.43242,-1.46941,0.25271,0.91764
381.933,43.48114,-1.49104,0.2583,0.91731
382.433,43.5297,-1.51324,0.26483,0.91698
382.933,43.57832,-1.53442,0.26517,0.91665
383.433,43.6269,-1.55778,0.27015,0.91632
383.933,43.6761,-1.57754,0.2739,0.91599
384.433,43.72548,-1.5995,0.28033,0.91566
384.933,43.7739,-1.62007,0.28388,0.91533
385.433,43.82204,-1.63955,0.28561,0.915
385.933,43.8705,-1.65969,0.28867,0.91467
386.433,43.91905,-1.68005,0.29152,0.91434
386.933,43.96812,-1.70172,0.29551,0.91401
387.433,44.01797,-1.72293,0.30067,0.91368
387.933,44.0674,-1.74092,0.30305,0.91334
388.433,44.11629,-1.76045,0.30509,0.91301
388.933,44.1651,-1.78097,0.30234,0.91268
389.433,44.21369,-1.80098,0.3059,0.91235
389.933,44.26231,-1.81874,0.30787,0.91201
390.433,44.31111,-1.83661,0.30978,0.91168
390.933,44.36012,-1.8544,0.31347,0.91134
391.433,44.4087,-1.87304,0.31383,0.91101
391.933,44.4574,-1.8905,0.31476,0.91067
392.433,44.50605,-1.90703,0.31731,0.91034
392.933,44.55485,-1.9242,0.31971,0.91
393.433,44.60351,-1.94129,0.32116,0.90967
393.933,44.6526,-1.9585,0.32841,0.90933
394.433,44.70131,-1.97416,0.33029,0.909
394.933,44.75012,-1.99074,0.32807,0.90866
395.433,44.79895,-2.00538,0.33206,0.90832
395.933,44.8478,-2.02187,0.33397,0.90799
396.433,44.89611,-2.03707,0.33378,0.90765
396.933,44.9444,-2.05115,0.33634,0.90731
397.433,44.99262,-2.06678,0.33683,0.90697
397.933,45.04087,-2.08059,0.33767,0.90664
398.433,45.0899,-2.09673,0.34222,0.9063
398.933,45.13901,-2.11005,0.34258,0.90596
399.433,45.18801,-2.12374,0.34168,0.90562
399.933,45.23685,-2.1368,0.34328,0.90528
400.433,45.28504,-2.15112,0.34519,0.90494
400.933,45.3333,-2.16487,0.34373,0.9046
401.433,45.3817,-2.17895,0.34381,0.90426
401.933,45.4305,-2.19194,0.34567,0.90392
402.433,45.47959,-2.2042,0.34451,0.90358
402.933,45.5289,-2.21799,0.34479,0.90324
403.433,45.5783,-2.22995,0.34653,0.90289
403.933,45.6278,-2.24381,0.34761,0.90255
404.433,45.67692,-2.25578,0.34835,0.90221
404.933,45.72549,-2.26613,0.34685,0.90187
405.433,45.774,-2.27936,0.3492,0.90152
405.933,45.8221,-2.2918,0.35051,0.90118
406.433,45.8705,-2.30381,0.35021,0.90084
406.933,45.92004,-2.31544,0.34994,0.90049
407.433,45.96953,-2.32707,0.35113,0.90015
407.933,46.019,-2.33877,0.3482,0.89981
408.433,46.0686,-2.35053,0.34937,0.89946
408.933,46.11763,-2.36069,0.34916,0.89912
409.433,46.16649,-2.37388,0.34974,0.89877
409.933,46.21542,-2.38441,0.35482,0.89843
410.433,46.26422,-2.39441,0.35317,0.89808
410.933,46.31283,-2.40549,0.35284,0.89773
411.433,46.36146,-2.41822,0.35501,0.89739
411.933,46.41028,-2.4292,0.3545,0.89704
412.433,46.45905,-2.43914,0.35355,0.8967
412.933,46.50813,-2.4497,0.35771,0.89635
413.433,46.5571,-2.45992,0.36017,0.896
413.933,46.60603,-2.47197,0.36112,0.89565
414.433,46.65503,-2.48208,0.36161,0.8953
414.933,46.70367,-2.49241,0.36102,0.89496
415.433,46.75248,-2.50292,0.36152,0.89461
415.933,46.80122,-2.51379,0.36217,0.89426
416.433,46.84997,-2.52348,0.36128,0.89391
416.933,46.89883,-2.53409,0.36186,0.89356
417.433,46.94746,-2.54409,0.36128,0.89321
417.933,46.9961,-2.55497,0.36252,0.89286
418.433,47.045,-2.56659,0.3628,0.89251
418.933,47.09377,-2.57611,0.36227,0.89216
419.433,47.14241,-2.58689,0.3621,0.89181
419.933,47.19133,-2.59717,0.3607,0.89146
420.433,47.24004,-2.60549,0.36306,0.8911
420.933,47.28888,-2.61607,0.36205,0.89075
421.433,47.33778,-2.62611,0.36278,0.8904
421.933,47.38666,-2.6361,0.36308,0.89005
422.433,47.43543,-2.64685,0.3619,0.88969
422.933,47.4842,-2.65875,0.36176,0.88934
423.433,47.53297,-2.66707,0.36151,0.88899
423.933,47.58178,-2.67731,0.35924,0.88863
424.433,47.63058,-2.68753,0.35984,0.88828
424.933,47.67958,-2.69605,0.35659,0.88793
425.433,47.72846,-2.70496,0.35973,0.88757
425.933,47.77734,-2.71552,0.3611,0.88722
426.433,47.82629,-2.7268,0.35748,0.88686
426.933,47.8752,-2.73545,0.35784,0.88651
427.433,47.92416,-2.745,0.35766,0.88615
427.933,47.97327,-2.75557,0.35572,0.88579
428.433,48.02214,-2.76455,0.35504,0.88544
428.933,48.07111,-2.77403,0.35639,0.88508
429.433,48.12003,-2.78399,0.3551,0.88472
429.933,48.16887,-2.79331,0.35435,0.88437
430.433,48.21783,-2.80316,0.35219,0.88401
430.933,48.2667,-2.81222,0.35149,0.88365
431.433,48.3155,-2.82196,0.35271,0.88329
431.933,48.3647,-2.8316,0.34836,0.88294
432.433,48.41356,-2.84021,0.34973,0.88258
432.933,48.46202,-2.84899,0.3481,0.88222
433.433,48.5112,-2.85759,0.34527,0.88186
433.933,48.55985,-2.86707,0.34492,0.8815
434.433,48.60886,-2.8776,0.3447,0.88114
434.933,48.6584,-2.88681,0.34343,0.88078
435.433,48.70743,-2.89677,0.3402,0.88042
435.933,48.75659,-2.90537,0.34019,0.88006
436.433,48.80574,-2.91466,0.33786,0.8797
436.933,48.85458,-2.92347,0.33738,0.87934
437.433,48.9036,-2.93262,0.33518,0.87897
437.933,48.95267,-2.9414,0.33222,0.87861
438.433,49.00165,-2.95046,0.33061,0.87825
438.933,49.05079,-2.95766,0.32887,0.87789
439.433,49.09993,-2.96622,0.32751,0.87752
439.933,49.14869,-2.97508,0.32555,0.87716
440.433,49.19788,-2.98309,0.32504,0.8768
440.933,49.24702,-2.99332,0.3208,0.87643
441.433,49.29599,-3.00147,0.31937,0.87607
441.933,49.34516,-3.01045,0.3201,0.87571
442.433,49.39448,-3.01834,0.31385,0.87534
442.933,49.44356,-3.02658,0.31245,0.87498
443.433,49.49277,-3.03521,0.31081,0.87461
443.933,49.5422,-3.04261,0.30555,0.87425
444.433,49.59149,-3.0513,0.30466,0.87388
444.933,49.64091,-3.05896,0.29922,0.87352
445.433,49.69011,-3.06714,0.29848,0.87315
445.933,49.73924,-3.07468,0.29713,0.87278
446.433,49.78815,-3.08139,0.29414,0.87242
446.933,49.83713,-3.09106,0.29137,0.87205
447.433,49.8863,-3.09838,0.28856,0.87168
447.933,49.9356,-3.10585,0.28639,0.87131
448.433,49.98502,-3.11307,0.2819,0.87095
448.933,50.03454,-3.1201,0.27918,0.87058
449.433,50.08365,-3.12666,0.27712,0.87021
449.933,50.13273,-3.1337,0.27381,0.86984
450.433,50.18172,-3.14066,0.27103,0.86947
450.933,50.23085,-3.14745,0.26884,0.8691
451.433,50.27994,-3.1545,0.2648,0.86873
451.933,50.32909,-3.16212,0.26182,0.86836
452.433,50.3783,-3.16742,0.26085,0.86799
452.933,50.42723,-3.1736,0.25589,0.86762
453.433,50.47633,-3.18048,0.25084,0.86725
453.933,50.52531,-3.18677,0.24833,0.86688
454.433,50.5745,-3.19358,0.24716,0.86651
454.933,50.62378,-3.19873,0.2437,0.86614
455.433,50.67286,-3.2048,0.2394,0.86577
455.933,50.72231,-3.21012,0.23591,0.86539
456.433,50.77153,-3.21611,0.23083,0.86502
456.933,50.82072,-3.2198,0.22997,0.86465
457.433,50.86997,-3.22532,0.22589,0.86428
457.933,50.91901,-3.2297,0.22675,0.8639
458.433,50.9681,-3.23563,0.22275,0.86353
458.933,51.0171,-3.24125,0.22068,0.86315
459.433,51.06624,-3.24816,0.21727,0.86278
459.933,51.1153,-3.25078,0.21513,0.86241
460.433,51.1646,-3.25527,0.2106,0.86203
460.933,51.2138,-3.25923,0.20858,0.86166
461.433,51.26296,-3.26404,0.20595,0.86128
461.933,51.31212,-3.26801,0.20199,0.86091
462.433,51.36128,-3.272,0.19639,0.86053
462.933,51.4104,-3.27552,0.19181,0.86015
463.433,51.4596,-3.28061,0.18778,0.85978
463.933,51.5087,-3.2852,0.18565,0.8594
464.433,51.558,-3.28648,0.18154,0.85902
464.933,51.6073,-3.29128,0.18024,0.85865
465.433,51.65661,-3.29405,0.17682,0.85827
465.933,51.7059,-3.29738,0.17189,0.85789
466.433,51.7551,-3.30078,0.167,0.85751
466.933,51.8043,-3.30376,0.16409,0.85713
467.433,51.85349,-3.30703,0.16234,0.85676
467.933,51.9024,-3.30952,0.15835,0.85638
468.433,51.95156,-3.31195,0.15672,0.856
468.933,52.00091,-3.31509,0.15233,0.85562
469.433,52.0503,-3.31535,0.14802,0.85524
469.933,52.09964,-3.31828,0.14407,0.85486
470.433,52.14906,-3.32094,0.14301,0.85448
470.933,52.19818,-3.32381,0.14053,0.8541
471.433,52.24719,-3.3253,0.13784,0.85372
471.933,52.29632,-3.32748,0.13459,0.85334
472.433,52.34545,-3.32955,0.13119,0.85295
472.933,52.39459,-3.33079,0.12692,0.85257
473.433,52.4437,-3.33178,0.12519,0.85219
473.933,52.4929,-3.33268,0.12265,0.85181
474.433,52.54209,-3.33401,0.1176,0.85143
474.933,52.59125,-3.33543,0.11929,0.85104
475.433,52.64046,-3.33677,0.1164,0.85066
475.933,52.6896,-3.33676,0.11578,0.85028
476.433,52.7388,-3.33806,0.11278,0.84989
476.933,52.7877,-3.33807,0.10819,0.84951
477.433,52.83673,-3.3406,0.10865,0.84912
477.933,52.8857,-3.34186,0.10783,0.84874
478.433,52.93478,-3.34273,0.10378,0.84836
478.933,52.98412,-3.34272,0.1023,0.84797
479.433,53.0334,-3.34399,0.10165,0.84758
479.933,53.0825,-3.344,0.098488,0.8472
480.433,53.13163,-3.34531,0.09847345,0.84681
480.933,53.1806,-3.34529,0.0975187,0.84643
481.433,53.2297,-3.34629,0.09419337,0.84604
481.933,53.2787,-3.3463,0.09486629,0.84565
482.433,53.32767,-3.34761,0.09375274,0.84527
482.933,53.37685,-3.3473,0.09321141,0.84488
483.433,53.426,-3.34819,0.09217237,0.84449
483.933,53.4752,-3.34724,0.0951548,0.8441
484.433,53.5244,-3.34728,0.09507273,0.84372
484.933,53.57354,-3.34728,0.09861988,0.84333
485.433,53.62256,-3.34728,0.09959641,0.84294
485.933,53.67151,-3.34807,0.09566247,0.84255
486.433,53.7205,-3.3486,0.10127,0.84216
486.933,53.76954,-3.34992,0.10043,0.84177
487.433,53.8187,-3.35119,0.10224,0.84138
487.933,53.868,-3.35124,0.10069,0.84099
488.433,53.9174,-3.34987,0.10174,0.8406
488.933,53.96671,-3.34992,0.09992451,0.84021
489.433,54.0159,-3.34986,0.1009,0.83982
489.933,54.06504,-3.35096,0.09962636,0.83943
490.433,54.11421,-3.34959,0.09886684,0.83904
490.933,54.1634,-3.3496,0.09876981,0.83865
491.433,54.2127,-3.3509,0.09876045,0.83826
491.933,54.26206,-3.35091,0.09650874,0.83786
492.433,54.3115,-3.35124,0.09761848,0.83747
492.933,54.36094,-3.35124,0.09574236,0.83708
493.433,54.41033,-3.35256,0.09643487,0.83669
493.933,54.45978,-3.35256,0.09785676,0.83629
494.433,54.50917,-3.35256,0.09706052,0.8359
494.933,54.55843,-3.35347,0.09787016,0.83551
495.433,54.60768,-3.35288,0.10042,0.83511
495.933,54.6569,-3.35288,0.09886927,0.83472
496.433,54.70606,-3.3529,0.1032,0.83432
496.933,54.75538,-3.35354,0.10271,0.83393
497.433,54.8048,-3.35354,0.10573,0.83353
497.933,54.85425,-3.35246,0.10364,0.83314
498.433,54.90374,-3.35256,0.10192,0.83274
498.933,54.95315,-3.35238,0.10376,0.83235
499.433,55.0026,-3.35354,0.10275,0.83195
499.933,55.05189,-3.35354,0.10204,0.83156
500.433,55.10136,-3.35354,0.10138,0.83116
500.933,55.1509,-3.35354,0.10141,0.83076
501.433,55.2004,-3.35354,0.10038,0.83036
501.933,55.2498,-3.35353,0.09770668,0.82997
502.433,55.29922,-3.35486,0.09721943,0.82957
502.933,55.34855,-3.35608,0.09565776,0.82917
503.433,55.3979,-3.35486,0.09416953,0.82877
503.933,55.4473,-3.35558,0.09219818,0.82838
504.433,55.49683,-3.35524,0.09344063,0.82798
504.933,55.54631,-3.3538,0.09058152,0.82758
505.433,55.5959,-3.35387,0.09096147,0.82718
505.933,55.6455,-3.35387,0.08725618,0.82678
506.433,55.69503,-3.35387,0.08868635,0.82638
506.933,55.74462,-3.35429,0.08575142,0.82598
507.433,55.7943,-3.35519,0.08540034,0.82558
507.933,55.84391,-3.35526,0.08479722,0.82518
508.433,55.8935,-3.35388,0.08369171,0.82478
508.933,55.94304,-3.35388,0.08284854,0.82438
509.433,55.99259,-3.35408,0.07996834,0.82398
509.933,56.0421,-3.35519,0.07841706,0.82357
510.433,56.0916,-3.35518,0.07499611,0.82317
510.933,56.1411,-3.35453,0.07456982,0.82277
511.433,56.19066,-3.35453,0.07466503,0.82237
511.933,56.2401,-3.35552,0.07141982,0.82197
512.433,56.2895,-3.35552,0.07249389,0.82156
512.933,56.339,-3.35552,0.07131001,0.82116
513.433,56.3885,-3.35419,0.06897218,0.82076
513.933,56.4378,-3.35552,0.07195879,0.82035
514.433,56.4874,-3.35552,0.06838492,0.81995
514.933,56.537,-3.35552,0.07048621,0.81954
515.433,56.58654,-3.35552,0.06921632,0.81914
515.933,56.6363,-3.35552,0.07133959,0.81874
516.433,56.68591,-3.35544,0.07291461,0.81833
516.933,56.7355,-3.35586,0.07273473,0.81793
517.433,56.785,-3.35586,0.07208058,0.81752
517.933,56.83446,-3.35586,0.07148021,0.81711
518.433,56.88395,-3.35586,0.07334992,0.81671
518.933,56.9334,-3.35586,0.07194418,0.8163
519.433,56.98301,-3.35586,0.07005216,0.8159
519.933,57.03286,-3.35586,0.07291802,0.81549
520.433,57.0824,-3.35593,0.07077332,0.81508
520.933,57.1316,-3.35618,0.06977897,0.81468
521.433,57.1813,-3.35618,0.07003766,0.81427
521.933,57.23089,-3.35618,0.0704153,0.81386
522.433,57.2807,-3.35657,0.07147848,0.81345
522.933,57.3309,-3.3575,0.0705502,0.81304
523.433,57.38064,-3.35651,0.07014634,0.81264
523.933,57.43023,-3.35584,0.06872026,0.81223
524.433,57.4798,-3.35552,0.06924947,0.81182
524.933,57.52946,-3.35552,0.06955018,0.81141
525.433,57.57903,-3.35552,0.06971158,0.811
525.933,57.62863,-3.35552,0.06867589,0.81059
526.433,57.67824,-3.35684,0.06994329,0.81018
526.933,57.7279,-3.35818,0.06712538,0.80977
527.433,57.77751,-3.35816,0.0679926,0.80936
527.933,57.82716,-3.35816,0.06873757,0.80895
528.433,57.8768,-3.3571,0.0672527,0.80854
528.933,57.92601,-3.35684,0.06721924,0.80813
529.433,57.97563,-3.35684,0.06663797,0.80772
529.933,58.02516,-3.35684,0.0655423,0.8073
530.433,58.07475,-3.35684,0.06616314,0.80689
530.933,58.12461,-3.35822,0.06693846,0.80648
531.433,58.1744,-3.35849,0.06749975,0.80607
531.933,58.2241,-3.35848,0.06496257,0.80565
532.433,58.2737,-3.35822,0.06748512,0.80524
532.933,58.3231,-3.35783,0.06606283,0.80483
533.433,58.3728,-3.35783,0.06465769,0.80442
533.933,58.42199,-3.35783,0.0663176,0.804
534.433,58.47158,-3.35783,0.06769294,0.80359
534.933,58.52111,-3.35783,0.06701195,0.80317
535.433,58.5708,-3.35783,0.06505848,0.80276
535.933,58.62067,-3.35718,0.06700107,0.80234
536.433,58.67024,-3.35717,0.0653252,0.80193
536.933,58.7196,-3.35717,0.06629285,0.80151
537.433,58.76924,-3.35717,0.06658414,0.8011
537.933,58.81893,-3.35717,0.06865964,0.80068
538.433,58.86851,-3.35717,0.06688032,0.80027
538.933,58.9184,-3.35848,0.06858932,0.79985
539.433,58.968,-3.35849,0.06709439,0.79944
539.933,59.0174,-3.35849,0.06603347,0.79902
540.433,59.0671,-3.35849,0.06709243,0.7986
540.933,59.11676,-3.35849,0.06991044,0.79818
541.433,59.16641,-3.3577,0.06816978,0.79777
541.933,59.21598,-3.3575,0.06901859,0.79735
542.433,59.26555,-3.35753,0.06890946,0.79693
542.933,59.31527,-3.3585,0.06855108,0.79651
543.433,59.36489,-3.35849,0.06860023,0.7961
543.933,59.41457,-3.35851,0.07025761,0.79568
544.433,59.46447,-3.35915,0.06656929,0.79526
544.933,59.51413,-3.35915,0.06396122,0.79484
545.433,59.5638,-3.35915,0.06936848,0.79442
545.933,59.6137,-3.35812,0.0702439,0.794
546.433,59.66345,-3.35684,0.06923847,0.79358
546.933,59.71318,-3.35684,0.06940548,0.79316
547.433,59.76302,-3.35684,0.06898332,0.79274
547.933,59.81292,-3.35793,0.07075021,0.79232
548.433,59.8625,-3.35816,0.06962331,0.7919
548.933,59.91216,-3.35816,0.0720394,0.79148
549.433,59.96153,-3.35816,0.07080577,0.79106
549.833,59.9993,-3.35816,0.0718239,0.79072