File: 01_Data/Masonite_Board/STA/N2/3K_min/Masonite_STA_N2_3KData_222406_R1.csv
##Temp./Â°C,Time/min,Mass loss(subtr.)/mg,DSC(subtr.)/mW,Sensit./(uV/mW)
50.084,10.00917,-0.03985,0.08013801,1.05676
50.684,11.07979,-0.04310779,0.15688,1.0567
51.284,11.44598,-0.04370132,0.20748,1.05663
51.884,11.73996,-0.04401635,0.24086,1.05656
52.484,12.0024,-0.04534597,0.27139,1.05649
53.084,12.2483,-0.04626014,0.28686,1.05643
53.684,12.48572,-0.04666115,0.29835,1.05636
54.284,12.71761,-0.04718063,0.3091,1.05629
54.884,12.94638,-0.04797862,0.32584,1.05622
55.484,13.172,-0.04797785,0.32049,1.05615
56.084,13.39485,-0.04929003,0.32995,1.05607
56.684,13.61553,-0.05038543,0.33751,1.056
57.284,13.8339,-0.05062996,0.33549,1.05593
57.884,14.05061,-0.0519324,0.34396,1.05586
58.484,14.26529,-0.05193,0.34734,1.05578
59.084,14.47869,-0.05060902,0.36142,1.05571
59.684,14.69036,-0.05325558,0.36293,1.05564
60.284,14.9001,-0.05423224,0.36637,1.05556
60.884,15.10772,-0.05288549,0.37502,1.05548
61.484,15.31475,-0.05423001,0.37772,1.05541
62.084,15.5209,-0.0568699,0.38042,1.05533
62.684,15.72666,-0.05524631,0.38475,1.05525
63.284,15.93276,-0.05719934,0.38217,1.05518
63.884,16.13738,-0.0571902,0.38254,1.0551
64.484,16.34123,-0.05817904,0.38683,1.05502
65.084,16.54596,-0.05850999,0.38317,1.05494
65.684,16.75009,-0.05949419,0.37954,1.05486
66.284,16.954,-0.05951778,0.37808,1.05478
66.884,17.15695,-0.06166339,0.39335,1.05469
67.484,17.3592,-0.06082,0.38704,1.05461
68.084,17.5613,-0.06181231,0.37944,1.05453
68.684,17.76349,-0.06214008,0.38116,1.05445
69.284,17.96585,-0.06345212,0.38495,1.05436
69.884,18.16786,-0.06345012,0.38489,1.05428
70.484,18.3696,-0.06443979,0.37558,1.05419
71.084,18.57159,-0.06556729,0.3805,1.05411
71.684,18.7738,-0.06450908,0.37359,1.05402
72.284,18.9752,-0.0664062,0.3769,1.05393
72.884,19.17655,-0.06707964,0.37395,1.05385
73.484,19.3781,-0.06774006,0.37446,1.05376
74.084,19.57958,-0.06839978,0.37589,1.05367
74.684,19.78053,-0.06839905,0.3768,1.05358
75.284,19.98143,-0.06904989,0.37195,1.05349
75.884,20.18149,-0.06775287,0.37173,1.0534
76.484,20.38185,-0.06903602,0.37624,1.05331
77.084,20.58225,-0.06902892,0.36996,1.05322
77.684,20.7829,-0.06905704,0.36819,1.05313
78.284,20.98409,-0.06905741,0.37004,1.05303
78.884,21.18444,-0.07036999,0.36095,1.05294
79.484,21.3845,-0.07168911,0.36244,1.05285
80.084,21.5843,-0.07134698,0.36025,1.05275
80.684,21.78424,-0.07204328,0.35931,1.05266
81.284,21.98434,-0.07272443,0.35519,1.05256
81.884,22.18415,-0.07168001,0.35574,1.05247
82.484,22.3854,-0.07371391,0.34969,1.05237
83.084,22.58621,-0.07228975,0.34769,1.05227
83.684,22.7862,-0.07366,0.35034,1.05217
84.284,22.98686,-0.07252213,0.34168,1.05208
84.884,23.1873,-0.07367,0.34586,1.05198
85.484,23.38844,-0.07366,0.33671,1.05188
86.084,23.5887,-0.07366,0.33735,1.05178
86.684,23.7885,-0.07497973,0.33672,1.05168
87.284,23.98899,-0.07498,0.33376,1.05157
87.884,24.18959,-0.07432032,0.33157,1.05147
88.484,24.39024,-0.07595998,0.32861,1.05137
89.084,24.5908,-0.07597114,0.32464,1.05127
89.684,24.7902,-0.07564974,0.32321,1.05116
90.284,24.98986,-0.07596995,0.31949,1.05106
90.884,25.18885,-0.07597,0.3296,1.05095
91.484,25.38849,-0.07695935,0.3259,1.05085
92.084,25.58771,-0.07597656,0.32802,1.05074
92.684,25.78629,-0.07794823,0.329,1.05063
93.284,25.98491,-0.07656957,0.32918,1.05053
93.884,26.18318,-0.07629062,0.33231,1.05042
94.484,26.38175,-0.07662,0.33446,1.05031
95.084,26.5808,-0.07794,0.3351,1.0502
95.684,26.78027,-0.07794,0.33391,1.05009
96.284,26.9784,-0.07926,0.33652,1.04998
96.884,27.1776,-0.07893984,0.33156,1.04987
97.484,27.3758,-0.07888568,0.34013,1.04976
98.084,27.5747,-0.07925999,0.33473,1.04965
98.684,27.774,-0.07859341,0.33353,1.04953
99.284,27.97307,-0.07976465,0.33135,1.04942
99.884,28.1717,-0.07983191,0.33389,1.04931
100.484,28.37032,-0.07991995,0.33532,1.04919
101.084,28.5687,-0.08156981,0.3308,1.04908
101.684,28.7677,-0.0806015,0.33486,1.04896
102.284,28.9671,-0.08075259,0.33902,1.04884
102.884,29.16589,-0.08156977,0.33304,1.04873
103.484,29.364,-0.08084221,0.33828,1.04861
104.084,29.5617,-0.08124002,0.33724,1.04849
104.684,29.7593,-0.08091039,0.33913,1.04837
105.284,29.95655,-0.08157,0.33416,1.04825
105.884,30.15403,-0.08288888,0.32853,1.04813
106.484,30.3525,-0.08228234,0.32998,1.04801
107.084,30.55188,-0.08355932,0.3164,1.04789
107.684,30.75143,-0.08158347,0.32305,1.04777
108.284,30.95102,-0.08223926,0.31208,1.04765
108.884,31.15043,-0.08354818,0.31615,1.04752
109.484,31.34938,-0.08288156,0.32931,1.0474
110.084,31.5478,-0.08254999,0.32678,1.04727
110.684,31.74591,-0.08256,0.32715,1.04715
111.284,31.94305,-0.08257275,0.32151,1.04702
111.884,32.13963,-0.08355003,0.33226,1.0469
112.484,32.33644,-0.08490866,0.33301,1.04677
113.084,32.53287,-0.08354,0.33205,1.04664
113.684,32.72957,-0.08419967,0.33471,1.04652
114.284,32.92621,-0.08558848,0.32706,1.04639
114.884,33.1231,-0.08486,0.32492,1.04626
115.484,33.32027,-0.08552274,0.32329,1.04613
116.084,33.5176,-0.08551999,0.32242,1.046
116.684,33.71497,-0.08559162,0.32782,1.04587
117.284,33.91163,-0.08519,0.32343,1.04574
117.884,34.1089,-0.08518999,0.32544,1.0456
118.484,34.30627,-0.08650006,0.32443,1.04547
119.084,34.50377,-0.08651618,0.32522,1.04534
119.684,34.70111,-0.08650842,0.32632,1.0452
120.284,34.8981,-0.08651,0.31976,1.04507
120.884,35.09583,-0.08651,0.32627,1.04493
121.484,35.2934,-0.08782662,0.32564,1.0448
122.084,35.4913,-0.08650997,0.33124,1.04466
122.684,35.68911,-0.0875,0.33013,1.04452
123.284,35.8865,-0.08783001,0.33065,1.04438
123.884,36.08491,-0.08650997,0.32997,1.04425
124.484,36.28269,-0.08781917,0.32219,1.04411
125.084,36.48102,-0.08749144,0.33053,1.04397
125.684,36.67947,-0.08814978,0.33486,1.04383
126.284,36.87767,-0.08881,0.33153,1.04369
126.884,37.07615,-0.08829232,0.31599,1.04354
127.484,37.27386,-0.08913999,0.32137,1.0434
128.084,37.472,-0.0883237,0.32454,1.04326
128.684,37.66969,-0.08981014,0.32623,1.04312
129.284,37.86755,-0.08981003,0.33074,1.04297
129.884,38.0663,-0.08872706,0.32691,1.04283
130.484,38.2643,-0.08881976,0.32942,1.04268
131.084,38.46177,-0.09014287,0.32907,1.04254
131.684,38.65882,-0.09013,0.33154,1.04239
132.284,38.85549,-0.09013,0.32838,1.04224
132.884,39.05168,-0.08980007,0.33483,1.04209
133.484,39.24831,-0.09046,0.33032,1.04195
134.084,39.44429,-0.09012984,0.33755,1.0418
134.684,39.64108,-0.09145003,0.32963,1.04165
135.284,39.83854,-0.09145,0.33766,1.0415
135.884,40.03533,-0.09045243,0.34246,1.04135
136.484,40.2327,-0.09045961,0.33831,1.04119
137.084,40.42994,-0.09177,0.3453,1.04104
137.684,40.62617,-0.0914404,0.34004,1.04089
138.284,40.82253,-0.09080206,0.3426,1.04074
138.884,41.01778,-0.09178034,0.34523,1.04058
139.484,41.21387,-0.09178351,0.34373,1.04043
140.084,41.4093,-0.09178,0.35645,1.04027
140.684,41.60495,-0.09144973,0.35161,1.04012
141.284,41.8011,-0.09277,0.35103,1.03996
141.884,41.997,-0.09163076,0.34161,1.0398
142.484,42.1933,-0.09249821,0.33712,1.03964
143.084,42.39069,-0.0919993,0.33682,1.03949
143.684,42.5885,-0.09277589,0.33973,1.03933
144.284,42.7862,-0.0914374,0.33198,1.03917
144.884,42.98435,-0.09375658,0.33479,1.03901
145.484,43.18065,-0.09277,0.33556,1.03885
146.084,43.378,-0.09407517,0.34675,1.03868
146.684,43.5751,-0.09410512,0.34482,1.03852
147.284,43.77281,-0.09335813,0.34549,1.03836
147.884,43.96897,-0.09474022,0.35055,1.0382
148.484,44.16553,-0.09375013,0.34054,1.03803
149.084,44.36289,-0.09442943,0.34554,1.03787
149.684,44.5597,-0.0954,0.34536,1.0377
150.284,44.7567,-0.0954,0.3482,1.03754
150.884,44.95293,-0.0954,0.34569,1.03737
151.484,45.14949,-0.0954,0.34579,1.0372
152.084,45.34535,-0.09638959,0.34907,1.03703
152.684,45.54156,-0.09639243,0.35279,1.03686
153.284,45.73764,-0.09705198,0.35327,1.0367
153.884,45.93385,-0.09705,0.34547,1.03653
154.484,46.13077,-0.09572999,0.34643,1.03635
155.084,46.32707,-0.0980344,0.33845,1.03618
155.684,46.5227,-0.09738,0.35703,1.03601
156.284,46.71741,-0.0973801,0.34905,1.03584
156.884,46.91274,-0.0973717,0.357,1.03567
157.484,47.1085,-0.09869,0.35222,1.03549
158.084,47.30503,-0.09904513,0.3604,1.03532
158.684,47.50032,-0.09869,0.357,1.03514
159.284,47.69615,-0.09764059,0.35568,1.03497
159.884,47.8919,-0.09935172,0.35413,1.03479
160.484,48.08795,-0.09803148,0.35438,1.03461
161.084,48.28412,-0.09944676,0.36078,1.03444
161.684,48.48016,-0.09872521,0.35421,1.03426
162.284,48.6757,-0.09967999,0.36305,1.03408
162.884,48.87195,-0.1007,0.36315,1.0339
163.484,49.06783,-0.10001,0.35887,1.03372
164.084,49.2636,-0.09868609,0.35544,1.03354
164.684,49.45969,-0.10002,0.35951,1.03336
165.284,49.6556,-0.09968,0.35493,1.03318
165.884,49.851,-0.101,0.35725,1.03299
166.484,50.04632,-0.10167,0.35941,1.03281
167.084,50.2412,-0.10167,0.36389,1.03263
167.684,50.4367,-0.10036,0.35545,1.03244
168.284,50.63244,-0.10167,0.36178,1.03226
168.884,50.82782,-0.10166,0.365,1.03207
169.484,51.02402,-0.1023,0.36825,1.03188
170.084,51.21911,-0.10165,0.36307,1.0317
170.684,51.4151,-0.10165,0.35296,1.03151
171.284,51.60978,-0.10297,0.37087,1.03132
171.884,51.80532,-0.10297,0.37288,1.03113
172.484,52.00177,-0.10363,0.36415,1.03094
173.084,52.19838,-0.10363,0.36599,1.03075
173.684,52.39459,-0.10363,0.36253,1.03056
174.284,52.59019,-0.10462,0.35564,1.03037
174.884,52.785,-0.10495,0.35958,1.03017
175.484,52.9797,-0.10596,0.36522,1.02998
176.084,53.17435,-0.10594,0.3653,1.02979
176.684,53.36923,-0.10627,0.36972,1.02959
177.284,53.5642,-0.10561,0.37143,1.0294
177.884,53.7592,-0.10561,0.37582,1.0292
178.484,53.95417,-0.1066,0.3752,1.02901
179.084,54.1486,-0.10693,0.37589,1.02881
179.684,54.34329,-0.10822,0.37772,1.02861
180.284,54.538,-0.10693,0.37707,1.02841
180.884,54.73314,-0.10837,0.38001,1.02821
181.484,54.92884,-0.10762,0.38451,1.02801
182.084,55.12441,-0.10827,0.38583,1.02781
182.684,55.3201,-0.10824,0.38847,1.02761
183.284,55.51542,-0.10824,0.38969,1.02741
183.884,55.7104,-0.10999,0.38775,1.02721
184.484,55.9055,-0.10923,0.38743,1.02701
185.084,56.10154,-0.10956,0.38611,1.0268
185.684,56.29744,-0.11088,0.38784,1.0266
186.284,56.494,-0.11088,0.38599,1.02639
186.884,56.6903,-0.11018,0.3898,1.02619
187.484,56.88606,-0.11022,0.38916,1.02598
188.084,57.08178,-0.1122,0.39047,1.02578
188.684,57.27666,-0.1122,0.39195,1.02557
189.284,57.47113,-0.1122,0.38124,1.02536
189.884,57.6658,-0.11285,0.38866,1.02515
190.484,57.8606,-0.11286,0.39367,1.02494
191.084,58.0554,-0.11385,0.39192,1.02473
191.684,58.2509,-0.11451,0.38994,1.02452
192.284,58.44619,-0.11316,0.39028,1.02431
192.884,58.6413,-0.11451,0.391,1.0241
193.484,58.8369,-0.11582,0.38969,1.02389
194.084,59.03201,-0.11487,0.39497,1.02367
194.684,59.22687,-0.11582,0.39804,1.02346
195.284,59.4214,-0.11637,0.39791,1.02324
195.884,59.6162,-0.11681,0.39922,1.02303
196.484,59.81103,-0.11681,0.40239,1.02281
197.084,60.0062,-0.11681,0.39742,1.0226
197.684,60.2007,-0.11813,0.40592,1.02238
198.284,60.39565,-0.11944,0.40996,1.02216
198.884,60.5908,-0.11879,0.40916,1.02194
199.484,60.7859,-0.11925,0.41022,1.02172
200.084,60.98101,-0.11904,0.41399,1.0215
200.684,61.17615,-0.12113,0.41133,1.02128
201.284,61.37067,-0.12109,0.40898,1.02106
201.884,61.5657,-0.12109,0.40633,1.02084
202.484,61.76048,-0.12109,0.41405,1.02062
203.084,61.9556,-0.1224,0.41188,1.02039
203.684,62.15039,-0.12375,0.41375,1.02017
204.284,62.34575,-0.12372,0.41563,1.01994
204.884,62.54135,-0.12273,0.41271,1.01972
205.484,62.7359,-0.12435,0.41709,1.01949
206.084,62.93045,-0.12438,0.43093,1.01927
206.684,63.1242,-0.12543,0.42584,1.01904
207.284,63.31805,-0.12497,0.42469,1.01881
207.884,63.51186,-0.12599,0.42906,1.01858
208.484,63.7061,-0.12603,0.43129,1.01835
209.084,63.90085,-0.12833,0.42676,1.01812
209.684,64.09544,-0.12735,0.43134,1.01789
210.284,64.2903,-0.12833,0.43294,1.01766
210.884,64.48485,-0.1297,0.42289,1.01743
211.484,64.68008,-0.12965,0.4231,1.0172
212.084,64.87595,-0.13128,0.42767,1.01696
212.684,65.0723,-0.1313,0.426,1.01673
213.284,65.26881,-0.1313,0.4323,1.0165
213.884,65.46476,-0.13361,0.42729,1.01626
214.484,65.66038,-0.13361,0.42481,1.01602
215.084,65.8559,-0.1346,0.43576,1.01579
215.684,66.05088,-0.13591,0.4321,1.01555
216.284,66.24563,-0.13623,0.44154,1.01531
216.884,66.43942,-0.13624,0.43895,1.01507
217.484,66.63365,-0.13757,0.44364,1.01484
218.084,66.827,-0.13824,0.44691,1.0146
218.684,67.02034,-0.14018,0.4509,1.01435
219.284,67.21378,-0.14078,0.44872,1.01411
219.884,67.40844,-0.14248,0.44999,1.01387
220.484,67.60417,-0.14245,0.44867,1.01363
221.084,67.79866,-0.1451,0.44884,1.01339
221.684,67.99319,-0.14478,0.45247,1.01314
222.284,68.18669,-0.14643,0.44767,1.0129
222.884,68.3815,-0.14677,0.44551,1.01265
223.484,68.57653,-0.14677,0.44535,1.01241
224.084,68.77156,-0.1495,0.44828,1.01216
224.684,68.9666,-0.15072,0.44227,1.01191
225.284,69.16119,-0.15205,0.45053,1.01166
225.884,69.35643,-0.15205,0.4504,1.01142
226.484,69.5518,-0.15338,0.44968,1.01117
227.084,69.7469,-0.15435,0.44674,1.01092
227.684,69.94221,-0.156,0.45608,1.01067
228.284,70.137,-0.15779,0.45625,1.01042
228.884,70.33071,-0.1591,0.45404,1.01016
229.484,70.5237,-0.15995,0.45453,1.00991
230.084,70.7167,-0.16021,0.45974,1.00966
230.684,70.91,-0.16423,0.45943,1.0094
231.284,71.10365,-0.16554,0.45904,1.00915
231.884,71.29788,-0.16621,0.4621,1.00889
232.484,71.49206,-0.16753,0.45929,1.00864
233.084,71.68632,-0.16919,0.46257,1.00838
233.684,71.8806,-0.17049,0.47594,1.00812
234.284,72.0754,-0.1728,0.46325,1.00787
234.884,72.27015,-0.17411,0.46515,1.00761
235.484,72.46513,-0.17642,0.46181,1.00735
236.084,72.6606,-0.17693,0.46368,1.00709
236.684,72.8558,-0.18079,0.464,1.00683
237.284,73.05102,-0.18213,0.46846,1.00657
237.884,73.24608,-0.18345,0.4675,1.0063
238.484,73.44115,-0.18608,0.47292,1.00604
239.084,73.6363,-0.18812,0.47137,1.00578
239.684,73.83157,-0.19069,0.47585,1.00551
240.284,74.02648,-0.19192,0.46906,1.00525
240.884,74.22071,-0.196,0.46521,1.00498
241.484,74.41526,-0.19727,0.47207,1.00472
242.084,74.60897,-0.19959,0.47091,1.00445
242.684,74.80343,-0.20427,0.4683,1.00418
243.284,74.99746,-0.20561,0.47661,1.00392
243.884,75.1926,-0.20877,0.47549,1.00365
244.484,75.38792,-0.21105,0.46919,1.00338
245.084,75.5834,-0.21508,0.46997,1.00311
245.684,75.7786,-0.2177,0.47391,1.00284
246.284,75.9744,-0.22033,0.46994,1.00257
246.884,76.17009,-0.22428,0.47457,1.00229
247.484,76.36556,-0.22824,0.47853,1.00202
248.084,76.56061,-0.23132,0.47605,1.00175
248.684,76.75494,-0.23615,0.48272,1.00147
249.284,76.94859,-0.23878,0.47692,1.0012
249.884,77.14271,-0.24141,0.47414,1.00092
250.484,77.33652,-0.24603,0.46932,1.00065
251.084,77.5316,-0.24997,0.48324,1.00037
251.684,77.72668,-0.25454,0.47633,1.00009
252.284,77.92166,-0.25677,0.47349,0.99981
252.884,78.1159,-0.26253,0.46998,0.99954
253.484,78.30924,-0.26788,0.4772,0.99926
254.084,78.50362,-0.27182,0.47181,0.99898
254.684,78.69869,-0.27805,0.46986,0.9987
255.284,78.89349,-0.28201,0.46907,0.99841
255.884,79.0886,-0.28621,0.48055,0.99813
256.484,79.28268,-0.29009,0.4711,0.99785
257.084,79.4765,-0.29673,0.48104,0.99757
257.684,79.67025,-0.30163,0.47533,0.99728
258.284,79.8639,-0.3076,0.48133,0.997
258.884,80.05816,-0.31248,0.49146,0.99671
259.484,80.2525,-0.31827,0.48823,0.99642
260.084,80.4469,-0.32275,0.48462,0.99614
260.684,80.64177,-0.33108,0.48156,0.99585
261.284,80.83723,-0.33493,0.47515,0.99556
261.884,81.0335,-0.34109,0.47489,0.99527
262.484,81.22926,-0.348,0.47617,0.99498
263.084,81.42435,-0.35427,0.47824,0.99469
263.684,81.6199,-0.36065,0.47834,0.9944
264.284,81.81534,-0.36726,0.48047,0.99411
264.884,82.0112,-0.37306,0.48547,0.99382
265.484,82.20642,-0.38062,0.47785,0.99352
266.084,82.4012,-0.38762,0.47818,0.99323
266.684,82.59604,-0.39362,0.47311,0.99294
267.284,82.79131,-0.40103,0.47254,0.99264
267.884,82.98611,-0.40885,0.47407,0.99235
268.484,83.18127,-0.41605,0.46505,0.99205
269.084,83.37651,-0.42307,0.46872,0.99175
269.684,83.5712,-0.42924,0.46312,0.99145
270.284,83.76603,-0.4383,0.46037,0.99116
270.884,83.96064,-0.44538,0.46425,0.99086
271.484,84.15609,-0.45259,0.46925,0.99056
272.084,84.351,-0.4582,0.4709,0.99026
272.684,84.5461,-0.46709,0.47408,0.98996
273.284,84.74055,-0.47409,0.47343,0.98965
273.884,84.93499,-0.48179,0.46864,0.98935
274.484,85.12917,-0.49051,0.46669,0.98905
275.084,85.32369,-0.49582,0.46803,0.98874
275.684,85.51844,-0.50481,0.46105,0.98844
276.284,85.71344,-0.51315,0.45451,0.98813
276.884,85.9091,-0.51982,0.45414,0.98783
277.484,86.1046,-0.52812,0.45293,0.98752
278.084,86.29991,-0.53555,0.45143,0.98721
278.684,86.4954,-0.54335,0.45142,0.98691
279.284,86.69068,-0.55027,0.45376,0.9866
279.884,86.88584,-0.55985,0.46716,0.98629
280.484,87.08104,-0.56567,0.45867,0.98598
281.084,87.27595,-0.5737,0.45708,0.98567
281.684,87.4709,-0.58203,0.46048,0.98536
282.284,87.66555,-0.58923,0.46057,0.98505
282.884,87.8599,-0.59678,0.46027,0.98473
283.484,88.0541,-0.60651,0.46237,0.98442
284.084,88.24929,-0.61402,0.46132,0.98411
284.684,88.4447,-0.62133,0.44786,0.98379
285.284,88.64009,-0.62858,0.46116,0.98348
285.884,88.83546,-0.63804,0.45476,0.98316
286.484,89.0313,-0.64498,0.45896,0.98284
287.084,89.22588,-0.65351,0.45232,0.98253
287.684,89.42103,-0.66122,0.45676,0.98221
288.284,89.61615,-0.66738,0.45104,0.98189
288.884,89.81093,-0.67547,0.44941,0.98157
289.484,90.0065,-0.68542,0.45678,0.98125
290.084,90.2007,-0.69193,0.46257,0.98093
290.684,90.39525,-0.69928,0.46359,0.98061
291.284,90.59005,-0.70839,0.46082,0.98029
291.884,90.785,-0.7155,0.46016,0.97996
292.484,90.98058,-0.72313,0.46464,0.97964
293.084,91.17534,-0.73214,0.47427,0.97931
293.684,91.3702,-0.73932,0.47524,0.97899
294.284,91.56439,-0.74914,0.47238,0.97866
294.884,91.7585,-0.75483,0.47482,0.97834
295.484,91.95281,-0.76405,0.47569,0.97801
296.084,92.14748,-0.77227,0.48092,0.97768
296.684,92.34238,-0.78145,0.47637,0.97736
297.284,92.53854,-0.79028,0.48561,0.97703
297.884,92.7349,-0.79838,0.49508,0.9767
298.484,92.93097,-0.8067,0.48729,0.97637
299.084,93.1273,-0.8167,0.49261,0.97604
299.684,93.32275,-0.82371,0.49634,0.9757
300.284,93.51781,-0.83356,0.49774,0.97537
300.884,93.71213,-0.84113,0.50653,0.97504
301.484,93.90641,-0.85032,0.51662,0.97471
302.084,94.101,-0.86097,0.52408,0.97437
302.684,94.296,-0.86979,0.52739,0.97404
303.284,94.49125,-0.87725,0.53139,0.9737
303.884,94.68634,-0.88955,0.52882,0.97337
304.484,94.88197,-0.89847,0.53226,0.97303
305.084,95.0782,-0.90727,0.53636,0.97269
305.684,95.27447,-0.91618,0.53545,0.97235
306.284,95.47078,-0.92829,0.53523,0.97201
306.884,95.66649,-0.93624,0.54964,0.97167
307.484,95.86199,-0.94708,0.55831,0.97133
308.084,96.05715,-0.95614,0.55923,0.97099
308.684,96.25262,-0.96793,0.56885,0.97065
309.284,96.44835,-0.97863,0.57717,0.97031
309.884,96.64437,-0.98984,0.58772,0.96997
310.484,96.84097,-1.00187,0.59051,0.96962
311.084,97.03715,-1.01243,0.60747,0.96928
311.684,97.23277,-1.02259,0.61427,0.96893
312.284,97.42846,-1.03519,0.61962,0.96859
312.884,97.62424,-1.04608,0.63647,0.96824
313.484,97.81981,-1.05881,0.64882,0.96789
314.084,98.01512,-1.07026,0.65402,0.96755
314.684,98.2097,-1.0834,0.67142,0.9672
315.284,98.40389,-1.09666,0.66745,0.96685
315.884,98.59899,-1.10946,0.68132,0.9665
316.484,98.79425,-1.12208,0.68873,0.96615
317.084,98.98976,-1.13571,0.70232,0.9658
317.684,99.18534,-1.14918,0.71745,0.96545
318.284,99.38131,-1.16332,0.73135,0.96509
318.884,99.57717,-1.17814,0.75452,0.96474
319.484,99.77238,-1.19174,0.76068,0.96439
320.084,99.96846,-1.20634,0.77365,0.96403
320.684,100.164,-1.22258,0.7965,0.96368
321.284,100.36,-1.23848,0.80466,0.96332
321.884,100.556,-1.25309,0.82228,0.96296
322.484,100.752,-1.27036,0.83931,0.96261
323.084,100.948,-1.2869,0.86356,0.96225
323.684,101.1442,-1.30461,0.8726,0.96189
324.284,101.341,-1.32184,0.89117,0.96153
324.884,101.538,-1.34087,0.91286,0.96117
325.484,101.735,-1.35939,0.92983,0.96081
326.084,101.931,-1.37817,0.95156,0.96045
326.684,102.128,-1.39776,0.98088,0.96009
327.284,102.324,-1.41806,0.99543,0.95973
327.884,102.52,-1.43805,1.01958,0.95936
328.484,102.716,-1.46009,1.0385,0.959
329.084,102.912,-1.48127,1.06545,0.95864
329.684,103.106,-1.50417,1.1043,0.95827
330.284,103.301,-1.52651,1.1277,0.9579
330.884,103.495,-1.55094,1.15737,0.95754
331.484,103.689,-1.57344,1.1773,0.95717
332.084,103.884,-1.59824,1.20279,0.9568
332.684,104.08,-1.62366,1.2275,0.95644
333.284,104.277,-1.64977,1.2607,0.95607
333.884,104.473,-1.67669,1.28003,0.9557
334.484,104.67,-1.70289,1.30821,0.95533
335.084,104.867,-1.72997,1.3335,0.95495
335.684,105.064,-1.75963,1.35612,0.95458
336.284,105.261,-1.78784,1.37961,0.95421
336.884,105.458,-1.82006,1.41163,0.95384
337.484,105.6547,-1.84865,1.43623,0.95346
338.084,105.851,-1.88007,1.46047,0.95309
338.684,106.047,-1.91147,1.49366,0.95271
339.284,106.244,-1.94385,1.50431,0.95234
339.884,106.44,-1.97712,1.53262,0.95196
340.484,106.636,-2.00816,1.55047,0.95158
341.084,106.832,-2.04314,1.56308,0.95121
341.684,107.028,-2.07591,1.57638,0.95083
342.284,107.224,-2.10959,1.5919,0.95045
342.884,107.42,-2.14491,1.58838,0.95007
343.484,107.617,-2.1813,1.60042,0.94969
344.084,107.813,-2.2144,1.60751,0.94931
344.684,108.01,-2.24988,1.59991,0.94893
345.284,108.2053,-2.28503,1.59867,0.94854
345.884,108.401,-2.31999,1.58982,0.94816
346.484,108.597,-2.35548,1.57938,0.94778
347.084,108.793,-2.38887,1.55924,0.94739
347.684,108.989,-2.42405,1.53376,0.94701
348.284,109.186,-2.4583,1.50288,0.94662
348.884,109.382,-2.49106,1.4826,0.94624
349.484,109.579,-2.52375,1.44381,0.94585
350.084,109.776,-2.5558,1.3928,0.94546
350.684,109.9713,-2.5858,1.34555,0.94507
351.284,110.167,-2.61593,1.30359,0.94468
351.884,110.363,-2.64591,1.24751,0.9443
352.484,110.559,-2.67375,1.18735,0.9439
353.084,110.755,-2.69922,1.122,0.94351
353.684,110.95,-2.72418,1.05645,0.94312
354.284,111.145,-2.7486,0.99018,0.94273
354.884,111.341,-2.77217,0.90634,0.94234
355.484,111.537,-2.79204,0.84331,0.94194
356.084,111.732,-2.81252,0.76096,0.94155
356.684,111.928,-2.82906,0.68534,0.94115
357.284,112.123,-2.84658,0.61801,0.94076
357.884,112.319,-2.86106,0.54549,0.94036
358.484,112.5151,-2.8751,0.47598,0.93997
359.084,112.7107,-2.88648,0.40906,0.93957
359.684,112.907,-2.89753,0.3494,0.93917
360.284,113.102,-2.90625,0.29295,0.93877
360.884,113.298,-2.91663,0.24632,0.93837
361.484,113.494,-2.92384,0.19979,0.93797
362.084,113.69,-2.9307,0.15384,0.93757
362.684,113.887,-2.93546,0.11609,0.93717
363.284,114.083,-2.94085,0.08539122,0.93677
363.884,114.279,-2.94483,0.06594173,0.93637
364.484,114.475,-2.94878,0.04273087,0.93596
365.084,114.672,-2.95404,0.02868582,0.93556
365.684,114.867,-2.95667,0.01484341,0.93515
366.284,115.063,-2.958,0.0006993211,0.93475
366.884,115.259,-2.96064,-0.01307574,0.93434
367.484,115.456,-2.96427,-0.01316267,0.93394
368.084,115.652,-2.96628,-0.02125885,0.93353
368.684,115.848,-2.96887,-0.02886517,0.93312
369.284,116.0453,-2.97009,-0.02922182,0.93271
369.884,116.243,-2.97282,-0.03448261,0.9323
370.484,116.44,-2.97414,-0.03713332,0.93189
371.084,116.637,-2.97713,-0.03784854,0.93148
371.684,116.834,-2.97874,-0.03894945,0.93107
372.284,117.031,-2.98139,-0.03628427,0.93066
372.884,117.228,-2.98402,-0.04573878,0.93025
373.484,117.425,-2.98608,-0.0438509,0.92983
374.084,117.622,-2.98731,-0.05109638,0.92942
374.684,117.82,-2.98997,-0.05418341,0.92901
375.284,118.017,-2.98995,-0.04650538,0.92859
375.884,118.213,-2.99296,-0.05797564,0.92817
376.484,118.41,-2.99498,-0.06307876,0.92776
377.084,118.607,-2.99654,-0.0704996,0.92734
377.684,118.804,-2.99784,-0.07342673,0.92692
378.284,119.001,-2.99917,-0.06863956,0.92651
378.884,119.199,-3.00313,-0.08139449,0.92609
379.484,119.395,-3.0028,-0.07962324,0.92567
380.084,119.592,-3.00578,-0.08925632,0.92525
380.684,119.789,-3.0084,-0.07487973,0.92483
381.284,119.986,-3.0087,-0.08529479,0.92441
381.884,120.182,-3.01125,-0.09037526,0.92398
382.484,120.3787,-3.01301,-0.09176514,0.92356
383.084,120.576,-3.01522,-0.10249,0.92314
383.684,120.773,-3.01531,-0.10831,0.92271
384.284,120.97,-3.01927,-0.10744,0.92229
384.884,121.166,-3.01926,-0.11066,0.92186
385.484,121.363,-3.02265,-0.11278,0.92144
386.084,121.56,-3.02387,-0.11267,0.92101
386.684,121.758,-3.02643,-0.12105,0.92058
387.284,121.956,-3.02997,-0.13078,0.92016
387.884,122.154,-3.03078,-0.12934,0.91973
388.484,122.352,-3.03276,-0.12552,0.9193
389.084,122.55,-3.03408,-0.13528,0.91887
389.684,122.747,-3.03539,-0.134,0.91844
390.284,122.944,-3.03803,-0.12552,0.91801
390.884,123.14,-3.0387,-0.13147,0.91758
391.484,123.338,-3.04264,-0.12974,0.91714
392.084,123.535,-3.04406,-0.13874,0.91671
392.684,123.732,-3.04692,-0.13584,0.91628
393.284,123.929,-3.04693,-0.13745,0.91584
393.884,124.127,-3.04959,-0.14202,0.91541
394.484,124.324,-3.05097,-0.14342,0.91497
395.084,124.522,-3.05301,-0.14452,0.91454
395.684,124.719,-3.05581,-0.15263,0.9141
396.284,124.917,-3.05713,-0.14491,0.91366
396.884,125.115,-3.05791,-0.15503,0.91322
397.484,125.312,-3.05939,-0.15364,0.91279
398.084,125.511,-3.06174,-0.14993,0.91235
398.684,125.709,-3.06438,-0.15379,0.91191
399.284,125.907,-3.06701,-0.14831,0.91147
399.884,126.1044,-3.06833,-0.14921,0.91103
400.484,126.303,-3.06965,-0.15004,0.91058
401.084,126.501,-3.07108,-0.14454,0.91014
401.684,126.699,-3.07425,-0.14335,0.9097
402.284,126.897,-3.07629,-0.14275,0.90926
402.884,127.094,-3.07755,-0.15546,0.90881
403.484,127.29,-3.07925,-0.14355,0.90837
404.084,127.487,-3.08187,-0.1466,0.90792
404.684,127.684,-3.08315,-0.14106,0.90747
405.284,127.88,-3.08447,-0.13423,0.90703
405.884,128.077,-3.08668,-0.13656,0.90658
406.484,128.273,-3.08974,-0.1353,0.90613
407.084,128.47,-3.08974,-0.14337,0.90568
407.684,128.667,-3.09237,-0.13746,0.90524
408.284,128.866,-3.09367,-0.14079,0.90479
408.884,129.064,-3.09544,-0.14156,0.90434
409.484,129.263,-3.09632,-0.13374,0.90388
410.084,129.461,-3.09771,-0.13497,0.90343
410.684,129.6597,-3.10127,-0.14022,0.90298
411.284,129.858,-3.10159,-0.13537,0.90253
411.884,130.056,-3.10422,-0.12553,0.90207
412.484,130.254,-3.1068,-0.13138,0.90162
413.084,130.451,-3.10719,-0.12113,0.90117
413.684,130.648,-3.10851,-0.12809,0.90071
414.284,130.846,-3.10973,-0.12269,0.90025
414.884,131.043,-3.11289,-0.12511,0.8998
415.484,131.239,-3.11477,-0.12132,0.89934
416.084,131.435,-3.11467,-0.11861,0.89888
416.684,131.632,-3.11708,-0.12077,0.89842
417.284,131.829,-3.11839,-0.10713,0.89797
417.884,132.027,-3.12103,-0.11423,0.89751
418.484,132.226,-3.12228,-0.10732,0.89705
419.084,132.425,-3.12442,-0.11539,0.89658
419.684,132.624,-3.125,-0.11318,0.89612
420.284,132.823,-3.12864,-0.10778,0.89566
420.884,133.021,-3.12894,-0.10219,0.8952
421.484,133.219,-3.13124,-0.10148,0.89474
422.084,133.417,-3.13124,-0.1066,0.89427
422.684,133.615,-3.1319,-0.10054,0.89381
423.284,133.812,-3.13387,-0.0972951,0.89334
423.884,134.01,-3.13519,-0.0973142,0.89288
424.484,134.207,-3.13651,-0.094421,0.89241
425.084,134.405,-3.1385,-0.09369978,0.89194
425.684,134.603,-3.13914,-0.08890445,0.89148
426.284,134.801,-3.14179,-0.09078549,0.89101
426.884,135.001,-3.14178,-0.0876721,0.89054
427.484,135.202,-3.14309,-0.09719152,0.89007
428.084,135.401,-3.14441,-0.08866157,0.8896
428.684,135.601,-3.14574,-0.08163849,0.88913
429.284,135.799,-3.1477,-0.0790029,0.88866
429.884,135.998,-3.14836,-0.0705077,0.88819
430.484,136.197,-3.14902,-0.05830447,0.88771
431.084,136.395,-3.15034,-0.0678624,0.88724
431.684,136.594,-3.15373,-0.06238668,0.88677
432.284,136.792,-3.15166,-0.0611484,0.88629
432.884,136.991,-3.15429,-0.05770426,0.88582
433.484,137.191,-3.15561,-0.05845745,0.88534
434.084,137.39,-3.15693,-0.05304827,0.88487
434.684,137.59,-3.15693,-0.05189013,0.88439
435.284,137.789,-3.15791,-0.05079927,0.88392
435.884,137.988,-3.16055,-0.04886016,0.88344
436.484,138.187,-3.16123,-0.05028927,0.88296
437.084,138.386,-3.1622,-0.0600757,0.88248
437.684,138.585,-3.16351,-0.05838504,0.882
438.284,138.783,-3.16446,-0.05756028,0.88152
438.884,138.982,-3.16483,-0.05431805,0.88104
439.484,139.18,-3.16582,-0.048573,0.88056
440.084,139.3792,-3.16846,-0.04074411,0.88008
440.684,139.578,-3.16734,-0.03855166,0.8796
441.284,139.776,-3.16847,-0.03834871,0.87911
441.884,139.974,-3.16977,-0.0377404,0.87863
442.484,140.1732,-3.17241,-0.02893806,0.87815
443.084,140.372,-3.17239,-0.02667748,0.87766
443.684,140.571,-3.17273,-0.03127419,0.87718
444.284,140.769,-3.17405,-0.02525013,0.87669
444.884,140.968,-3.17504,-0.0225148,0.8762
445.484,141.166,-3.17504,-0.02966705,0.87572
446.084,141.366,-3.17773,-0.03222116,0.87523
446.684,141.564,-3.17767,-0.02677467,0.87474
447.284,141.763,-3.17997,-0.02468947,0.87425
447.884,141.961,-3.17998,-0.0205877,0.87376
448.484,142.159,-3.1813,-0.01546205,0.87327
449.084,142.357,-3.18032,-0.01695586,0.87278
449.684,142.554,-3.18328,-0.02042348,0.87229
450.284,142.751,-3.18331,-0.02231939,0.8718
450.884,142.949,-3.18558,-0.02363711,0.87131
451.484,143.1463,-3.18677,-0.01612841,0.87081
452.084,143.346,-3.1859,-0.01309136,0.87032
452.684,143.544,-3.1869,-0.01018946,0.86983
453.284,143.743,-3.18723,-0.01487042,0.86933
453.884,143.942,-3.18725,-0.02028632,0.86884
454.484,144.14,-3.19052,-0.02111663,0.86834
455.084,144.338,-3.18953,-0.005981193,0.86785
455.684,144.537,-3.19084,-0.01933635,0.86735
456.284,144.737,-3.19217,-0.01880992,0.86685
456.884,144.936,-3.19349,-0.01411484,0.86635
457.484,145.136,-3.19349,-0.01779014,0.86586
458.084,145.335,-3.19448,-0.01923297,0.86536
458.684,145.535,-3.19579,-0.01539282,0.86486
459.284,145.734,-3.19586,-0.0185635,0.86436
459.884,145.934,-3.19578,-0.0177884,0.86386
460.484,146.135,-3.19843,-0.01739444,0.86336
461.084,146.336,-3.19845,-0.01327882,0.86285
461.684,146.537,-3.19908,-0.006184379,0.86235
462.284,146.736,-3.20007,-0.01857891,0.86185
462.884,146.935,-3.20139,-0.009356588,0.86134
463.484,147.134,-3.20174,-0.005648026,0.86084
464.084,147.333,-3.20273,-0.007654516,0.86034
464.684,147.5319,-3.20403,-0.002828513,0.85983
465.284,147.731,-3.20463,-0.00329783,0.85933
465.884,147.93,-3.20534,-0.007797089,0.85882
466.484,148.1284,-3.20666,-0.000807247,0.85831
467.084,148.327,-3.2079,-0.01301054,0.8578
467.684,148.526,-3.20765,-0.008289595,0.8573
468.284,148.724,-3.20897,-0.00633338,0.85679
468.884,148.923,-3.20897,-0.006971316,0.85628
469.484,149.121,-3.21028,-0.00952743,0.85577
470.084,149.319,-3.21127,-0.008791486,0.85526
470.684,149.518,-3.2116,-0.01100783,0.85475
471.284,149.7162,-3.21259,-0.006862453,0.85424
471.884,149.915,-3.21325,-0.00403188,0.85373
472.484,150.114,-3.21325,-0.008468694,0.85321
473.084,150.3133,-3.21457,-0.005989166,0.8527
473.684,150.513,-3.21588,-0.00671164,0.85219
474.284,150.712,-3.21615,-0.005069932,0.85167
474.884,150.912,-3.21753,-0.00282671,0.85116
475.484,151.112,-3.21753,-0.008002975,0.85064
476.084,151.311,-3.21882,-0.009052149,0.85013
476.684,151.511,-3.21918,-0.01028501,0.84961
477.284,151.711,-3.21918,0.0008739681,0.84909
477.884,151.91,-3.22148,-0.004666222,0.84858
478.484,152.1092,-3.22082,-0.008979112,0.84806
479.084,152.308,-3.22082,-0.008229452,0.84754
479.684,152.508,-3.22313,-0.00475789,0.84702
480.284,152.708,-3.22313,-0.006454445,0.8465
480.884,152.908,-3.22445,-0.01384926,0.84598
481.484,153.108,-3.22445,-0.01070337,0.84546
482.084,153.307,-3.22576,-0.01242287,0.84494
482.684,153.507,-3.22576,-0.009454226,0.84442
483.284,153.707,-3.22676,-0.00410649,0.8439
483.884,153.906,-3.22773,-0.005687172,0.84338
484.484,154.1065,-3.22775,-0.01006423,0.84285
485.084,154.306,-3.22972,-0.00734778,0.84233
485.684,154.506,-3.22841,-0.009587418,0.8418
486.284,154.705,-3.22884,-0.009076654,0.84128
486.884,154.904,-3.23103,-0.01468699,0.84075
487.484,155.103,-3.23004,-0.006246036,0.84023
488.084,155.3031,-3.23268,-0.01576223,0.8397
488.684,155.503,-3.23137,-0.01168586,0.83918
489.284,155.702,-3.234,-0.01466366,0.83865
489.884,155.901,-3.23349,-0.01195295,0.83812
490.484,156.101,-3.23466,-0.01440135,0.83759
491.084,156.3,-3.23597,-0.01655875,0.83706
491.684,156.499,-3.23597,-0.020108,0.83653
492.284,156.698,-3.23795,-0.01258118,0.836
492.884,156.898,-3.23761,-0.0232569,0.83547
493.484,157.0983,-3.23762,-0.01793803,0.83494
494.084,157.298,-3.23927,-0.01399761,0.83441
494.684,157.499,-3.23894,-0.02015892,0.83388
495.284,157.6997,-3.24124,-0.0254282,0.83335
495.884,157.9,-3.24091,-0.02408926,0.83281
496.484,158.0986,-3.24091,-0.02553972,0.83228
497.084,158.298,-3.24223,-0.02363348,0.83174
497.684,158.497,-3.24289,-0.02173173,0.83121
498.284,158.697,-3.24364,-0.02177098,0.83067
498.884,158.897,-3.24441,-0.02363612,0.83014
499.484,159.097,-3.24553,-0.02239271,0.8296
500.084,159.297,-3.24684,-0.0222291,0.82907
500.684,159.496,-3.24618,-0.02749235,0.82853
501.284,159.695,-3.24751,-0.0201274,0.82799
501.884,159.894,-3.24849,-0.03100397,0.82745
502.484,160.093,-3.24849,-0.02152264,0.82691
503.084,160.292,-3.24846,-0.02925253,0.82638
503.684,160.492,-3.24983,-0.02620293,0.82584
504.284,160.692,-3.25113,-0.03309937,0.8253
504.884,160.893,-3.25254,-0.03268526,0.82475
505.484,161.094,-3.25277,-0.03416865,0.82421
506.084,161.294,-3.2531,-0.02794867,0.82367
506.684,161.494,-3.2531,-0.03499001,0.82313
507.284,161.694,-3.25442,-0.03674583,0.82259
507.884,161.894,-3.25606,-0.03985221,0.82204
508.484,162.094,-3.25492,-0.03842368,0.8215
509.084,162.294,-3.25607,-0.03778893,0.82096
509.684,162.494,-3.25845,-0.03594132,0.82041
510.284,162.694,-3.25672,-0.03851708,0.81987
510.884,162.8949,-3.25903,-0.03682207,0.81932
511.484,163.095,-3.25939,-0.0424718,0.81877
512.084,163.296,-3.26068,-0.04465247,0.81823
512.684,163.496,-3.2607,-0.03404013,0.81768
513.284,163.6968,-3.26101,-0.03391854,0.81713
513.884,163.897,-3.26096,-0.03156304,0.81658
514.484,164.097,-3.26362,-0.03991355,0.81604
515.084,164.297,-3.26449,-0.03938982,0.81549
515.684,164.497,-3.26232,-0.03870481,0.81494
516.284,164.6964,-3.26496,-0.03836279,0.81439
516.884,164.896,-3.2643,-0.04083004,0.81384
517.484,165.096,-3.26693,-0.03709739,0.81329
518.084,165.296,-3.26759,-0.04929376,0.81273
518.684,165.497,-3.26691,-0.04098018,0.81218
519.284,165.697,-3.26752,-0.03663762,0.81163
519.884,165.8986,-3.26824,-0.04174418,0.81108
520.484,166.1,-3.26967,-0.03154891,0.81052
521.084,166.302,-3.27066,-0.02969549,0.80997
521.684,166.5032,-3.27066,-0.03137063,0.80942
522.284,166.704,-3.27099,-0.03351362,0.80886
522.884,166.904,-3.27327,-0.03451815,0.8083
523.484,167.104,-3.27428,-0.03114109,0.80775
524.084,167.304,-3.27297,-0.04434531,0.80719
524.684,167.504,-3.2737,-0.03654424,0.80664
525.284,167.704,-3.27494,-0.03685376,0.80608
525.884,167.905,-3.27626,-0.03707963,0.80552
526.484,168.105,-3.27626,-0.04148853,0.80496
527.084,168.3052,-3.27718,-0.03923915,0.8044
527.684,168.506,-3.27626,-0.03801117,0.80385
528.284,168.706,-3.27725,-0.04154258,0.80329
528.884,168.9068,-3.27716,-0.03678096,0.80273
529.484,169.107,-3.27955,-0.03933212,0.80217
530.084,169.3076,-3.28047,-0.04013415,0.8016
530.684,169.508,-3.28054,-0.04284398,0.80104
531.284,169.709,-3.28054,-0.04179329,0.80048
531.884,169.91,-3.28186,-0.02770087,0.79992
532.484,170.111,-3.28186,-0.04781784,0.79936
533.084,170.311,-3.28252,-0.05224243,0.79879
533.684,170.511,-3.28252,-0.04818782,0.79823
534.284,170.711,-3.28252,-0.05782292,0.79767
534.884,170.912,-3.28416,-0.0560117,0.7971
535.484,171.1124,-3.28515,-0.05160239,0.79654
536.084,171.314,-3.28612,-0.06308024,0.79597
536.684,171.514,-3.28622,-0.05733922,0.7954
537.284,171.715,-3.28615,-0.05491634,0.79484
537.884,171.915,-3.28714,-0.06204067,0.79427
538.484,172.116,-3.28747,-0.05562259,0.7937
539.084,172.317,-3.28747,-0.05464596,0.79314
539.684,172.517,-3.28845,-0.04582024,0.79257
540.284,172.717,-3.2901,-0.0433765,0.792
540.884,172.917,-3.2901,-0.03935001,0.79143
541.484,173.1183,-3.28976,-0.06047418,0.79086
542.084,173.319,-3.29108,-0.0560242,0.79029
542.684,173.5191,-3.2924,-0.05602823,0.78972
543.284,173.719,-3.29108,-0.05317567,0.78915
543.884,173.919,-3.29175,-0.04738965,0.78858
544.484,174.12,-3.29306,-0.04830041,0.78801
545.084,174.3192,-3.29306,-0.04942293,0.78743
545.684,174.52,-3.29438,-0.04936863,0.78686
546.284,174.72,-3.29471,-0.04696923,0.78629
546.884,174.921,-3.29603,-0.0471337,0.78572
547.484,175.121,-3.29603,-0.03954165,0.78514
548.084,175.322,-3.29694,-0.03888183,0.78457
548.684,175.524,-3.29735,-0.04755524,0.78399
549.284,175.725,-3.29735,-0.04816719,0.78342
549.884,175.926,-3.29866,-0.04850815,0.78284
550.484,176.126,-3.29768,-0.03836355,0.78227
551.084,176.327,-3.29899,-0.04058028,0.78169
551.684,176.527,-3.29847,-0.03777849,0.78111
552.284,176.728,-3.30031,-0.04375368,0.78053
552.884,176.929,-3.30162,-0.02835178,0.77996
553.484,177.13,-3.30031,-0.04385969,0.77938
554.084,177.33,-3.30163,-0.04493083,0.7788
554.684,177.53,-3.30196,-0.04744881,0.77822
555.284,177.731,-3.30261,-0.05129341,0.77764
555.884,177.931,-3.30395,-0.0431875,0.77706
556.484,178.131,-3.30261,-0.05765384,0.77648
557.084,178.332,-3.30458,-0.05081011,0.7759
557.684,178.533,-3.30469,-0.05647532,0.77532
558.284,178.734,-3.30507,-0.05786413,0.77474
558.884,178.935,-3.30591,-0.05951445,0.77416
559.484,179.136,-3.30591,-0.04980672,0.77357
560.084,179.336,-3.30459,-0.05087222,0.77299
560.684,179.536,-3.30722,-0.06902247,0.77241
561.284,179.737,-3.30757,-0.05346401,0.77183
561.884,179.938,-3.30821,-0.04856599,0.77124
562.484,180.139,-3.30821,-0.062449,0.77066
563.084,180.34,-3.30854,-0.05664019,0.77007
563.684,180.542,-3.30986,-0.05174324,0.76949
564.284,180.743,-3.30986,-0.05892027,0.7689
564.884,180.943,-3.30986,-0.05985811,0.76832
565.484,181.1445,-3.31118,-0.05740505,0.76773
566.084,181.3451,-3.31249,-0.05738555,0.76714
566.684,181.545,-3.31118,-0.06111616,0.76656
567.284,181.746,-3.31249,-0.06478432,0.76597
567.884,181.945,-3.31382,-0.05935774,0.76538
568.484,182.146,-3.31282,-0.06166864,0.76479
569.084,182.346,-3.31414,-0.05732341,0.7642
569.684,182.546,-3.31554,-0.06871528,0.76361
570.284,182.747,-3.31546,-0.06164682,0.76302
570.884,182.9484,-3.31546,-0.0672537,0.76243
571.484,183.149,-3.31678,-0.05520341,0.76184
572.084,183.351,-3.31678,-0.0574682,0.76125
572.684,183.552,-3.31742,-0.05400389,0.76066
573.284,183.752,-3.31875,-0.05263378,0.76007
573.884,183.953,-3.31876,-0.05038244,0.75948
574.484,184.153,-3.31876,-0.04434649,0.75889
575.084,184.355,-3.31743,-0.04673503,0.75829
575.684,184.556,-3.31875,-0.04432798,0.7577
576.284,184.758,-3.31875,-0.04334537,0.75711
576.884,184.96,-3.3197,-0.04884422,0.75651
577.484,185.1603,-3.3204,-0.03308111,0.75592
578.084,185.361,-3.32066,-0.03686704,0.75533
578.684,185.561,-3.32138,-0.0404152,0.75473
579.284,185.76,-3.32072,-0.03609427,0.75414
579.884,185.961,-3.32171,-0.02544424,0.75354
580.484,186.161,-3.32171,-0.03615449,0.75294
581.084,186.363,-3.32237,-0.04502029,0.75235
581.684,186.5657,-3.32237,-0.05157866,0.75175
582.284,186.768,-3.32267,-0.05513405,0.75115
582.884,186.97,-3.32534,-0.04287615,0.75056
583.484,187.1722,-3.32369,-0.04443833,0.74996
584.084,187.374,-3.325,-0.04256418,0.74936
584.684,187.575,-3.325,-0.04344734,0.74876
585.284,187.776,-3.32599,-0.04587298,0.74816
585.884,187.977,-3.32599,-0.0487198,0.74756
586.484,188.177,-3.32632,-0.03055533,0.74696
587.084,188.379,-3.32698,-0.04197967,0.74636
587.684,188.579,-3.32732,-0.03990934,0.74576
588.284,188.779,-3.3283,-0.03579787,0.74516
588.884,188.979,-3.32863,-0.04098581,0.74456
589.484,189.18,-3.32797,-0.0440897,0.74396
590.084,189.381,-3.3306,-0.03453013,0.74336
590.684,189.582,-3.32928,-0.0555334,0.74276
591.284,189.785,-3.32928,-0.04747379,0.74215
591.884,189.986,-3.33057,-0.04961842,0.74155
592.484,190.188,-3.3306,-0.04375324,0.74095
593.084,190.39,-3.33324,-0.02818397,0.74035
593.684,190.592,-3.33146,-0.03538781,0.73974
594.284,190.792,-3.33325,-0.03682161,0.73914
594.884,190.992,-3.33225,-0.02915712,0.73853
595.484,191.192,-3.33291,-0.02723156,0.73793
596.084,191.392,-3.33357,-0.02565086,0.73732
596.684,191.593,-3.33323,-0.03101736,0.73672
597.284,191.793,-3.33455,-0.02497645,0.73611
597.884,191.994,-3.33456,-0.01620904,0.7355
598.484,192.196,-3.33543,-0.01269262,0.7349
599.084,192.397,-3.33587,-0.01708361,0.73429
599.684,192.598,-3.33389,-0.02497521,0.73368
600.284,192.801,-3.33653,-0.03263813,0.73308
600.884,193.0027,-3.33654,-0.03004434,0.73247
601.484,193.204,-3.33654,-0.0191661,0.73186
602.084,193.406,-3.33786,-0.0227377,0.73125
602.684,193.607,-3.33786,-0.02709457,0.73064
603.284,193.81,-3.33884,-0.0293804,0.73003
603.884,194.012,-3.33884,-0.03739162,0.72942
604.484,194.214,-3.33884,-0.03295373,0.72881
605.084,194.416,-3.33884,-0.02469405,0.7282
605.684,194.617,-3.33884,-0.02696009,0.72759
606.284,194.818,-3.33984,-0.01174032,0.72698
606.884,195.018,-3.34049,-0.005411046,0.72637
607.484,195.219,-3.3395,-0.007460566,0.72576
608.084,195.42,-3.3395,-0.001589162,0.72515
608.684,195.622,-3.34004,-0.0003170268,0.72454
609.284,195.823,-3.34082,-0.00896753,0.72392
609.884,196.025,-3.34281,-0.01973689,0.72331
610.484,196.226,-3.3418,-0.01183391,0.7227
611.084,196.428,-3.34214,-0.02884084,0.72208
611.684,196.629,-3.34345,-0.01602151,0.72147
612.284,196.831,-3.34345,-0.02684231,0.72086
612.884,197.033,-3.34444,-0.03661517,0.72024
613.484,197.234,-3.34444,-0.04698493,0.71963
614.084,197.436,-3.34444,-0.04500851,0.71901
614.684,197.638,-3.34733,-0.04311459,0.7184
615.284,197.84,-3.3451,-0.03981967,0.71778
615.884,198.043,-3.34477,-0.03639604,0.71717
616.484,198.244,-3.34642,-0.03453689,0.71655
617.084,198.445,-3.34612,-0.04954548,0.71593
617.684,198.647,-3.3461,-0.05621296,0.71532
618.284,198.849,-3.34772,-0.04049856,0.7147
618.884,199.051,-3.34747,-0.05289618,0.71408
619.484,199.252,-3.34872,-0.04511417,0.71346
620.084,199.453,-3.3474,-0.04040044,0.71285
620.684,199.655,-3.35004,-0.03718685,0.71223
621.284,199.858,-3.35004,-0.02593638,0.71161
621.884,200.062,-3.35004,-0.03980843,0.71099
622.484,200.2669,-3.35029,-0.03237302,0.71037
623.084,200.471,-3.3507,-0.04696206,0.70975
623.684,200.674,-3.35071,-0.03433364,0.70913
624.284,200.874,-3.35168,-0.03981399,0.70851
624.884,201.074,-3.35196,-0.0288464,0.70789
625.484,201.2735,-3.35144,-0.05018549,0.70727
626.084,201.473,-3.35201,-0.04517155,0.70665
626.684,201.671,-3.35267,-0.05739474,0.70603
627.284,201.871,-3.3521,-0.03863641,0.70541
627.884,202.07,-3.35366,-0.04121743,0.70479
628.484,202.271,-3.35267,-0.05095588,0.70417
629.084,202.472,-3.35267,-0.04691961,0.70354
629.684,202.674,-3.35264,-0.05670906,0.70292
630.284,202.8761,-3.35432,-0.05454691,0.7023
630.884,203.0782,-3.35366,-0.05330329,0.70168
631.484,203.28,-3.35465,-0.03881434,0.70105
632.084,203.482,-3.35465,-0.03429231,0.70043
632.684,203.685,-3.35591,-0.03640177,0.69981
633.284,203.888,-3.35364,-0.02609488,0.69918
633.884,204.091,-3.35497,-0.02919094,0.69856
634.484,204.294,-3.35497,-0.0297858,0.69793
635.084,204.496,-3.35391,-0.03430077,0.69731
635.684,204.699,-3.3523,-0.03073647,0.69668
636.284,204.901,-3.35596,-0.03142172,0.69606
636.884,205.103,-3.35493,-0.03052428,0.69543
637.484,205.304,-3.35596,-0.04025752,0.69481
638.084,205.505,-3.35586,-0.04293275,0.69418
638.684,205.705,-3.35632,-0.03914112,0.69355
639.284,205.905,-3.35694,-0.05361115,0.69293
639.884,206.106,-3.35712,-0.04687872,0.6923
640.484,206.3069,-3.35564,-0.04650659,0.69167
641.084,206.509,-3.35498,-0.05076407,0.69104
641.684,206.71,-3.36058,-0.04341726,0.69042
642.284,206.912,-3.36509,-0.0335917,0.68979
642.884,207.1144,-3.36782,-0.04541574,0.68916
643.484,207.317,-3.36172,-0.04531037,0.68853
644.084,207.52,-3.35991,-0.03985948,0.6879
644.684,207.722,-3.3609,-0.0446736,0.68728
645.284,207.9245,-3.36058,-0.03046994,0.68665
645.884,208.127,-3.35961,-0.02741602,0.68602
646.484,208.329,-3.35992,-0.03226032,0.68539
647.084,208.531,-3.36125,-0.03246221,0.68476
647.684,208.733,-3.36158,-0.0358992,0.68413
648.284,208.936,-3.36124,-0.02440233,0.6835
648.884,209.138,-3.36255,-0.01609765,0.68287
649.484,209.341,-3.36124,-0.02241692,0.68224
650.084,209.543,-3.36124,-0.02626419,0.6816
650.684,209.744,-3.36256,-0.03278058,0.68097
651.284,209.944,-3.36288,-0.03510846,0.68034
651.384,209.976,-3.36288,-0.03780349,0.68024