File: 01_Data/Vinyl_Siding/STA/N2/10K_min/Vinyl_Siding_STA_N2_10KData_213006_R2.csv
##Temp./Â°C,Time/min,Mass loss(subtr.2)/mg,DSC(subtr.2)/mW,Sensit./(uV/mW)
49.307,10.01,0.01952,-0.00370173,0.61831
49.907,11.4076,0.0202695,0.10079,0.61863
50.507,11.7442,0.02214108,0.16213,0.61894
51.107,11.98541,0.02326971,0.20092,0.61926
51.707,12.18393,0.02180708,0.2505,0.61958
52.307,12.3561,0.02184267,0.28762,0.61989
52.907,12.50962,0.02457189,0.31626,0.6202
53.507,12.6568,0.02382693,0.35807,0.62052
54.107,12.79054,0.02553375,0.37882,0.62083
54.707,12.91722,0.02504023,0.40262,0.62114
55.307,13.04002,0.0237995,0.41004,0.62144
55.907,13.1559,0.02322661,0.43848,0.62175
56.507,13.26879,0.02383096,0.43963,0.62206
57.107,13.3795,0.02226204,0.47668,0.62236
57.707,13.48595,0.02358688,0.48772,0.62266
58.307,13.5892,0.02490597,0.50428,0.62296
58.907,13.69095,0.02464386,0.5201,0.62327
59.507,13.78979,0.02468381,0.53232,0.62356
60.107,13.8869,0.02428462,0.54482,0.62386
60.707,13.98272,0.02566671,0.56395,0.62416
61.307,14.07651,0.02559108,0.56209,0.62445
61.907,14.1683,0.02506783,0.57781,0.62475
62.507,14.26,0.02445999,0.56759,0.62504
63.107,14.351,0.02506139,0.57254,0.62533
63.707,14.43945,0.02501106,0.59017,0.62562
64.307,14.5258,0.02440035,0.58654,0.62591
64.907,14.6119,0.02516364,0.60676,0.6262
65.507,14.6971,0.02568611,0.61941,0.62649
66.107,14.7813,0.0251177,0.62561,0.62677
66.707,14.86457,0.0269088,0.6258,0.62706
67.307,14.94692,0.02577718,0.6413,0.62734
67.907,15.0285,0.02709778,0.65023,0.62762
68.507,15.1096,0.02711086,0.65966,0.6279
69.107,15.1894,0.0267047,0.64433,0.62818
69.707,15.2683,0.02708736,0.66399,0.62846
70.307,15.34649,0.02778486,0.66921,0.62874
70.907,15.4239,0.0272852,0.67515,0.62901
71.507,15.5006,0.02707295,0.68101,0.62929
72.107,15.5768,0.02716616,0.69824,0.62956
72.707,15.6529,0.02720018,0.69772,0.62983
73.307,15.7281,0.02859052,0.69683,0.6301
73.907,15.8028,0.02719604,0.71421,0.63037
74.507,15.8765,0.02737174,0.726,0.63064
75.107,15.95019,0.02852063,0.72552,0.6309
75.707,16.02365,0.02855008,0.73107,0.63117
76.307,16.09648,0.02799811,0.73833,0.63143
76.907,16.1684,0.02850142,0.73948,0.6317
77.507,16.23977,0.0285047,0.75582,0.63196
78.107,16.31107,0.02724585,0.75744,0.63222
78.707,16.38172,0.02851995,0.75882,0.63248
79.307,16.45164,0.0285102,0.78082,0.63273
79.907,16.52099,0.0285296,0.78846,0.63299
80.507,16.59036,0.02851982,0.78908,0.63325
81.107,16.6598,0.02720445,0.79487,0.6335
81.707,16.72857,0.02851994,0.8156,0.63375
82.307,16.79666,0.02989614,0.82039,0.634
82.907,16.86441,0.02981957,0.82043,0.63425
83.507,16.93206,0.0298394,0.84435,0.6345
84.107,16.99931,0.02885732,0.85809,0.63475
84.707,17.066,0.03015525,0.88173,0.635
85.307,17.13231,0.02982345,0.87965,0.63524
85.907,17.19856,0.02766114,0.89188,0.63548
86.507,17.2647,0.02719995,0.90319,0.63573
87.107,17.33061,0.02839765,0.90137,0.63597
87.707,17.39602,0.0287382,0.92663,0.63621
88.307,17.4613,0.02743132,0.94059,0.63645
88.907,17.52585,0.02904645,0.93209,0.63668
89.507,17.59019,0.03038914,0.92959,0.63692
90.107,17.6542,0.02906349,0.92738,0.63716
90.707,17.7181,0.03027245,0.9312,0.63739
91.307,17.78183,0.02913018,0.93567,0.63762
91.907,17.84548,0.03038024,0.94003,0.63785
92.507,17.90878,0.03037996,0.93608,0.63808
93.107,17.9717,0.02957723,0.93972,0.63831
93.707,18.03446,0.02907007,0.94338,0.63854
94.307,18.09706,0.02907001,0.94218,0.63876
94.907,18.15954,0.02936243,0.9493,0.63899
95.507,18.22208,0.02922685,0.94481,0.63921
96.107,18.28429,0.02908675,0.95392,0.63943
96.707,18.34629,0.02942528,0.95113,0.63966
97.307,18.40791,0.02988743,0.96082,0.63988
97.907,18.46949,0.03005999,0.97007,0.64009
98.507,18.5309,0.03006833,0.97954,0.64031
99.107,18.59206,0.0287446,0.994,0.64053
99.707,18.65288,0.02906941,0.99648,0.64074
100.307,18.7136,0.03047685,1.01041,0.64095
100.907,18.77415,0.02910833,1.0153,0.64117
101.507,18.8345,0.03052593,1.02058,0.64138
102.107,18.89524,0.03201649,1.04144,0.64159
102.707,18.95605,0.03070436,1.04779,0.6418
103.307,19.01695,0.02977909,1.05267,0.642
103.907,19.07732,0.03071889,1.05832,0.64221
104.507,19.13728,0.03071014,1.06665,0.64241
105.107,19.19724,0.0320811,1.07991,0.64262
105.707,19.25708,0.0300083,1.088,0.64282
106.307,19.31707,0.02959531,1.09897,0.64302
106.907,19.37681,0.02997623,1.10748,0.64322
107.507,19.43619,0.0288106,1.12707,0.64342
108.107,19.49527,0.029384,1.14074,0.64361
108.707,19.55489,0.03080657,1.14296,0.64381
109.307,19.61455,0.03162584,1.15198,0.644
109.907,19.67464,0.03190091,1.169,0.6442
110.507,19.734,0.03081973,1.1652,0.64439
111.107,19.79308,0.03082,1.16298,0.64458
111.707,19.8519,0.03081995,1.17885,0.64477
112.307,19.91077,0.02947178,1.18946,0.64496
112.907,19.96978,0.02951001,1.19431,0.64514
113.507,20.02877,0.02951,1.20211,0.64533
114.107,20.08756,0.02948771,1.20614,0.64551
114.707,20.14629,0.03081899,1.2156,0.6457
115.307,20.205,0.03175037,1.22803,0.64588
115.907,20.26383,0.03254491,1.21881,0.64606
116.507,20.32245,0.03259825,1.21866,0.64624
117.107,20.38101,0.03356351,1.23029,0.64642
117.707,20.43923,0.03355961,1.22494,0.64659
118.307,20.4974,0.03221275,1.22916,0.64677
118.907,20.5554,0.03224275,1.23677,0.64694
119.507,20.6134,0.03117969,1.24185,0.64712
120.107,20.67137,0.03101428,1.24114,0.64729
120.707,20.7291,0.02550854,1.25137,0.64746
121.307,20.787,0.03695076,1.24782,0.64763
121.907,20.84477,0.03264409,1.25425,0.64779
122.507,20.9024,0.03125998,1.25313,0.64796
123.107,20.95994,0.03191507,1.26427,0.64813
123.707,21.01736,0.03264098,1.28061,0.64829
124.307,21.0749,0.03257004,1.27094,0.64845
124.907,21.1324,0.03257001,1.28302,0.64862
125.507,21.1897,0.03256763,1.28536,0.64878
126.107,21.24675,0.03136651,1.28774,0.64894
126.707,21.3036,0.03388813,1.30189,0.64909
127.307,21.36044,0.03396678,1.29009,0.64925
127.907,21.41733,0.0265283,1.30988,0.64941
128.507,21.4745,0.03694824,1.31788,0.64956
129.107,21.53146,0.0342837,1.32164,0.64971
129.707,21.58801,0.03222878,1.3271,0.64986
130.307,21.64465,0.03223772,1.33188,0.65001
130.907,21.70119,0.03223974,1.3322,0.65016
131.507,21.75755,0.03326712,1.3335,0.65031
132.107,21.8142,0.03227168,1.34429,0.65046
132.707,21.8705,0.03191993,1.34987,0.6506
133.307,21.92662,0.03214587,1.34518,0.65075
133.907,21.98258,0.0335876,1.3503,0.65089
134.507,22.03846,0.03303797,1.36051,0.65103
135.107,22.09443,0.03365284,1.36778,0.65117
135.707,22.1504,0.03355831,1.37507,0.65131
136.307,22.20656,0.03225129,1.38134,0.65145
136.907,22.26237,0.03224999,1.38147,0.65159
137.507,22.31816,0.03226085,1.39516,0.65172
138.107,22.3737,0.03360208,1.38418,0.65186
138.707,22.4293,0.03367001,1.40197,0.65199
139.307,22.48484,0.03367,1.4042,0.65212
139.907,22.54034,0.03367,1.40358,0.65225
140.507,22.59572,0.03367,1.40691,0.65238
141.107,22.651,0.03367068,1.40609,0.65251
141.707,22.70624,0.03232077,1.42049,0.65264
142.307,22.76146,0.03235999,1.42482,0.65276
142.907,22.81656,0.03236007,1.42097,0.65289
143.507,22.87169,0.03242612,1.42846,0.65301
144.107,22.9268,0.03367934,1.42828,0.65313
144.707,22.98193,0.03366947,1.43076,0.65325
145.307,23.03709,0.03254486,1.43116,0.65337
145.907,23.09216,0.032842,1.43965,0.65349
146.507,23.14716,0.03278995,1.43541,0.65361
147.107,23.20208,0.0327898,1.43804,0.65372
147.707,23.25708,0.03414895,1.45338,0.65384
148.307,23.312,0.03345048,1.46014,0.65395
148.907,23.36695,0.03192719,1.45715,0.65406
149.507,23.42173,0.03015349,1.46313,0.65417
150.107,23.47643,0.03183068,1.46876,0.65428
150.707,23.53116,0.03279962,1.48046,0.65439
151.307,23.5857,0.03304885,1.47672,0.6545
151.907,23.64033,0.03412054,1.47908,0.6546
152.507,23.695,0.03412001,1.48661,0.65471
153.107,23.74944,0.03411794,1.49805,0.65481
153.707,23.80378,0.03543139,1.5005,0.65491
154.307,23.85829,0.03275361,1.50411,0.65501
154.907,23.91281,0.03657125,1.51858,0.65511
155.507,23.96743,0.03373658,1.52411,0.65521
156.107,24.02215,0.02784965,1.51754,0.65531
156.707,24.07664,0.03223594,1.53206,0.6554
157.307,24.13091,0.03224979,1.52256,0.6555
157.907,24.18515,0.03145261,1.53322,0.65559
158.507,24.23951,0.03223989,1.52875,0.65569
159.107,24.29395,0.03224,1.54884,0.65578
159.707,24.3484,0.03223978,1.54244,0.65587
160.307,24.40261,0.03304075,1.53265,0.65596
160.907,24.45703,0.03323005,1.53635,0.65604
161.507,24.51145,0.03322972,1.54444,0.65613
162.107,24.56589,0.03211651,1.54796,0.65621
162.707,24.62039,0.03060301,1.5428,0.6563
163.307,24.67463,0.03201363,1.54761,0.65638
163.907,24.729,0.03192683,1.55058,0.65646
164.507,24.78337,0.03324364,1.5501,0.65654
165.107,24.83788,0.03324,1.55833,0.65662
165.707,24.89228,0.03324,1.56,0.6567
166.307,24.9465,0.03324193,1.56008,0.65678
166.907,25.0008,0.03455264,1.57108,0.65685
167.507,25.05489,0.03343789,1.56503,0.65693
168.107,25.10902,0.03191697,1.57488,0.657
168.707,25.16324,0.03322848,1.56689,0.65707
169.307,25.2175,0.03187141,1.58091,0.65714
169.907,25.27175,0.03103274,1.59531,0.65721
170.507,25.32599,0.03192051,1.58588,0.65728
171.107,25.38009,0.03192,1.59356,0.65735
171.707,25.4343,0.03192,1.60991,0.65741
172.307,25.48836,0.03192,1.61384,0.65748
172.907,25.54247,0.03192,1.60708,0.65754
173.507,25.596,0.03192189,1.61105,0.6576
174.107,25.65012,0.0329003,1.60778,0.65766
174.707,25.70421,0.03268504,1.6104,0.65772
175.307,25.75829,0.03457707,1.61803,0.65778
175.907,25.81308,0.03456001,1.6307,0.65784
176.507,25.8672,0.03456678,1.62928,0.6579
177.107,25.92114,0.03323761,1.63262,0.65795
177.707,25.97513,0.03225415,1.63621,0.658
178.307,26.02891,0.032248,1.63082,0.65806
178.907,26.08279,0.03354704,1.62917,0.65811
179.507,26.1369,0.03356001,1.64531,0.65816
180.107,26.19078,0.03356,1.63527,0.65821
180.707,26.2448,0.03356663,1.63648,0.65826
181.307,26.29869,0.03223828,1.65122,0.6583
181.907,26.35225,0.03224,1.63389,0.65835
182.507,26.4061,0.03224,1.63137,0.65839
183.107,26.45996,0.03224,1.64308,0.65844
183.707,26.51391,0.0322401,1.64222,0.65848
184.307,26.56793,0.03340384,1.63624,0.65852
184.907,26.62162,0.03355991,1.62724,0.65856
185.507,26.6752,0.03356,1.64237,0.6586
186.107,26.72883,0.03355892,1.64726,0.65864
186.707,26.78257,0.03224367,1.65978,0.65867
187.307,26.83628,0.03224993,1.65133,0.65871
187.907,26.88999,0.03225039,1.64462,0.65874
188.507,26.94367,0.03008663,1.63174,0.65877
189.107,26.9972,0.02993996,1.63591,0.65881
189.707,27.05078,0.02994191,1.63647,0.65884
190.307,27.1044,0.03124767,1.64497,0.65887
190.907,27.15788,0.03256619,1.64776,0.65889
191.507,27.2112,0.03258199,1.65909,0.65892
192.107,27.26462,0.03234665,1.656,0.65895
192.707,27.318,0.03224994,1.65461,0.65897
193.307,27.3714,0.03225,1.66626,0.65899
193.907,27.425,0.03225,1.6628,0.65902
194.507,27.4784,0.03224978,1.6656,0.65904
195.107,27.5318,0.03121407,1.66929,0.65906
195.707,27.58532,0.03126008,1.6621,0.65908
196.307,27.6387,0.03126,1.66889,0.65909
196.907,27.692,0.03126,1.662,0.65911
197.507,27.7453,0.03126,1.66439,0.65913
198.107,27.79846,0.03126,1.66908,0.65914
198.707,27.8517,0.03125697,1.66798,0.65915
199.307,27.90515,0.03092768,1.67187,0.65917
199.907,27.95855,0.03093449,1.67743,0.65918
200.507,28.012,0.02962157,1.67201,0.65919
201.107,28.06539,0.02962,1.6805,0.6592
201.707,28.1187,0.02962,1.68495,0.6592
202.307,28.17207,0.02962033,1.68689,0.65921
202.907,28.22552,0.02982994,1.68332,0.65921
203.507,28.27897,0.02929008,1.67942,0.65922
204.107,28.3323,0.02929,1.68773,0.65922
204.707,28.38533,0.02929,1.69209,0.65922
205.307,28.4387,0.02929,1.69249,0.65922
205.907,28.492,0.02929,1.69936,0.65922
206.507,28.5455,0.02929,1.69743,0.65922
207.107,28.59927,0.02929,1.69535,0.65922
207.707,28.65271,0.02929,1.70205,0.65922
208.307,28.70605,0.02929,1.68038,0.65921
208.907,28.75938,0.02929,1.69336,0.6592
209.507,28.8128,0.02929285,1.68991,0.6592
210.107,28.86593,0.02864531,1.69346,0.65919
210.707,28.9193,0.02863,1.7029,0.65918
211.307,28.97275,0.02863,1.69347,0.65917
211.907,29.0261,0.02862999,1.68541,0.65916
212.507,29.07955,0.02863084,1.68167,0.65915
213.107,29.13298,0.028139,1.69674,0.65913
213.707,29.1862,0.02830005,1.69159,0.65912
214.307,29.23971,0.0283,1.69813,0.6591
214.907,29.2931,0.02830002,1.69409,0.65908
215.507,29.3466,0.02827151,1.68841,0.65907
216.107,29.4003,0.02732036,1.69704,0.65905
216.707,29.4537,0.02732,1.69288,0.65903
217.307,29.5074,0.02732,1.69058,0.659
217.907,29.56087,0.02732,1.69278,0.65898
218.507,29.61423,0.02732,1.68845,0.65896
219.107,29.66762,0.02731999,1.69102,0.65893
219.707,29.72072,0.02731826,1.69842,0.65891
220.307,29.77435,0.02601373,1.6821,0.65888
220.907,29.82788,0.02608093,1.69889,0.65885
221.507,29.8815,0.02468009,1.69599,0.65882
222.107,29.93528,0.02468,1.6993,0.65879
222.707,29.9888,0.02468067,1.71164,0.65876
223.307,30.0423,0.02568449,1.71053,0.65873
223.907,30.09583,0.02566998,1.7036,0.65869
224.507,30.1493,0.02567,1.70294,0.65866
225.107,30.20288,0.02566982,1.70208,0.65862
225.707,30.2563,0.02488276,1.7123,0.65859
226.307,30.3096,0.02467998,1.70778,0.65855
226.907,30.36311,0.02468,1.71235,0.65851
227.507,30.41654,0.02468004,1.7098,0.65847
228.107,30.47,0.0246798,1.7184,0.65843
228.707,30.52372,0.0233595,1.71228,0.65839
229.307,30.57723,0.02336,1.70928,0.65834
229.907,30.63073,0.02335991,1.71197,0.6583
230.507,30.6844,0.02299406,1.71274,0.65825
231.107,30.7378,0.02180074,1.72495,0.65821
231.707,30.79135,0.02171004,1.72284,0.65816
232.307,30.84478,0.02171045,1.73601,0.65811
232.907,30.8978,0.02093602,1.73228,0.65806
233.507,30.9512,0.02039998,1.73413,0.65801
234.107,31.0046,0.02039912,1.73762,0.65796
234.707,31.05834,0.01915468,1.73376,0.65791
235.307,31.1121,0.01909006,1.73617,0.65785
235.907,31.16559,0.01909,1.74899,0.6578
236.507,31.21896,0.01909026,1.75415,0.65774
237.107,31.27239,0.01793842,1.75408,0.65769
237.707,31.3257,0.01887623,1.74882,0.65763
238.307,31.3792,0.01909004,1.7688,0.65757
238.907,31.43283,0.01909,1.75859,0.65751
239.507,31.4863,0.01908999,1.77763,0.65745
240.107,31.5398,0.01909107,1.78597,0.65739
240.707,31.5933,0.01842665,1.79723,0.65732
241.307,31.64657,0.01523153,1.80143,0.65726
241.907,31.70001,0.01381996,1.81798,0.65719
242.507,31.7536,0.01252535,1.80938,0.65713
243.107,31.8072,0.01117362,1.82719,0.65706
243.707,31.86096,0.008806342,1.82797,0.65699
244.307,31.9145,0.007189246,1.83156,0.65692
244.907,31.9679,0.007240265,1.83191,0.65685
245.507,32.02133,0.005827845,1.84381,0.65678
246.107,32.07479,0.005809055,1.83966,0.65671
246.707,32.1282,0.004570124,1.84554,0.65663
247.307,32.18144,0.00449178,1.84067,0.65656
247.907,32.235,0.00343132,1.85945,0.65648
248.507,32.28857,0.000193175,1.86252,0.65641
249.107,32.34214,-0.001067618,1.85881,0.65633
249.707,32.39594,-0.002426673,1.85772,0.65625
250.307,32.44939,-0.005160297,1.853,0.65617
250.907,32.50287,-0.00576654,1.87674,0.65609
251.507,32.55645,-0.006484445,1.86704,0.65601
252.107,32.61002,-0.007791206,1.87613,0.65593
252.707,32.6636,-0.01016354,1.87589,0.65585
253.307,32.71706,-0.01320468,1.86448,0.65576
253.907,32.77039,-0.01418131,1.88173,0.65568
254.507,32.82383,-0.0144847,1.87544,0.65559
255.107,32.87733,-0.01419645,1.8726,0.6555
255.707,32.9309,-0.01450318,1.87754,0.65541
256.307,32.98452,-0.01709569,1.8872,0.65532
256.907,33.0381,-0.01841489,1.88722,0.65523
257.507,33.0916,-0.02127353,1.89821,0.65514
258.107,33.14517,-0.02258683,1.89118,0.65505
258.707,33.19875,-0.02389907,1.9014,0.65496
259.307,33.2523,-0.02550889,1.90657,0.65486
259.907,33.30598,-0.02404388,1.89993,0.65477
260.507,33.35951,-0.02369915,1.91029,0.65467
261.107,33.41303,-0.02501757,1.90928,0.65457
261.707,33.46669,-0.02815928,1.91671,0.65447
262.307,33.52021,-0.02974444,1.92267,0.65438
262.907,33.5739,-0.03144104,1.93263,0.65428
263.507,33.6276,-0.03219725,1.92164,0.65417
264.107,33.68117,-0.03409794,1.9248,0.65407
264.707,33.73475,-0.03559541,1.92024,0.65397
265.307,33.78844,-0.03761277,1.93734,0.65387
265.907,33.842,-0.03902377,1.94194,0.65376
266.507,33.8956,-0.04203184,1.94786,0.65365
267.107,33.94927,-0.0419749,1.9358,0.65355
267.707,34.00285,-0.04212179,1.94421,0.65344
268.307,34.05655,-0.04614983,1.95036,0.65333
268.907,34.11002,-0.04870171,1.95751,0.65322
269.507,34.16369,-0.05058037,1.95284,0.65311
270.107,34.21739,-0.05352386,1.96286,0.653
270.707,34.27112,-0.05614029,1.97193,0.65289
271.307,34.32497,-0.05988381,1.96864,0.65277
271.907,34.3786,-0.06290424,1.9702,0.65266
272.507,34.43231,-0.06451904,1.97756,0.65254
273.107,34.48581,-0.06889027,1.98089,0.65243
273.707,34.5396,-0.07227297,1.98142,0.65231
274.307,34.59341,-0.07542178,1.97301,0.65219
274.907,34.647,-0.07952907,1.96473,0.65207
275.507,34.70069,-0.08154345,1.9595,0.65195
276.107,34.7543,-0.08690943,1.9746,0.65183
276.707,34.80791,-0.09276103,1.98425,0.65171
277.307,34.8617,-0.09735653,2.01846,0.65159
277.907,34.91563,-0.10284,2.04943,0.65146
278.507,34.9694,-0.10995,2.11501,0.65134
279.107,35.02315,-0.11664,2.18328,0.65121
279.707,35.07691,-0.1222,2.25783,0.65109
280.307,35.13067,-0.12841,2.33181,0.65096
280.907,35.18462,-0.13725,2.41543,0.65083
281.507,35.23868,-0.14586,2.49964,0.6507
282.107,35.29251,-0.15325,2.56984,0.65057
282.707,35.34661,-0.16111,2.65314,0.65044
283.307,35.40054,-0.17038,2.73163,0.65031
283.907,35.45458,-0.17965,2.80939,0.65018
284.507,35.50889,-0.18965,2.87235,0.65004
285.107,35.56285,-0.1997,2.9517,0.64991
285.707,35.61708,-0.21068,3.01887,0.64977
286.307,35.67096,-0.2229,3.0817,0.64964
286.907,35.72502,-0.23607,3.13073,0.6495
287.507,35.7793,-0.24737,3.18202,0.64936
288.107,35.83334,-0.26121,3.23914,0.64922
288.707,35.88755,-0.27613,3.2935,0.64908
289.307,35.9417,-0.29138,3.34487,0.64894
289.907,35.99593,-0.3049,3.39275,0.6488
290.507,36.05016,-0.31793,3.44281,0.64866
291.107,36.10445,-0.3354,3.48244,0.64852
291.707,36.15868,-0.35115,3.53527,0.64837
292.307,36.2128,-0.36915,3.56489,0.64823
292.907,36.2671,-0.38507,3.59546,0.64808
293.507,36.32127,-0.40348,3.63817,0.64793
294.107,36.37542,-0.42078,3.66954,0.64779
294.707,36.4298,-0.4389,3.72133,0.64764
295.307,36.4842,-0.45689,3.74166,0.64749
295.907,36.53853,-0.47642,3.75756,0.64734
296.507,36.59287,-0.49764,3.79551,0.64719
297.107,36.64725,-0.51847,3.82455,0.64704
297.707,36.70148,-0.53925,3.85311,0.64688
298.307,36.7558,-0.55812,3.86627,0.64673
298.907,36.81017,-0.57934,3.8821,0.64657
299.507,36.8645,-0.60254,3.89012,0.64642
300.107,36.91897,-0.62251,3.8965,0.64626
300.707,36.9733,-0.64339,3.89852,0.64611
301.307,37.02766,-0.66496,3.90513,0.64595
301.907,37.082,-0.68493,3.89629,0.64579
302.507,37.13628,-0.70921,3.89184,0.64563
303.107,37.19081,-0.72961,3.85763,0.64547
303.707,37.24521,-0.75253,3.8464,0.64531
304.307,37.2996,-0.77686,3.81753,0.64515
304.907,37.35393,-0.79738,3.79657,0.64498
305.507,37.4082,-0.81875,3.77,0.64482
306.107,37.4624,-0.84092,3.72671,0.64466
306.707,37.5167,-0.86008,3.70067,0.64449
307.307,37.57119,-0.88146,3.64372,0.64433
307.907,37.62556,-0.90203,3.61254,0.64416
308.507,37.67985,-0.92119,3.57217,0.64399
309.107,37.73422,-0.94005,3.52362,0.64382
309.707,37.78862,-0.95786,3.48559,0.64365
310.307,37.8429,-0.97589,3.4497,0.64348
310.907,37.89717,-0.99478,3.38715,0.64331
311.507,37.95149,-1.01124,3.34104,0.64314
312.107,38.00567,-1.02843,3.30499,0.64297
312.707,38.05977,-1.04798,3.26069,0.6428
313.307,38.1143,-1.06122,3.21739,0.64262
313.907,38.16872,-1.07429,3.15801,0.64245
314.507,38.22313,-1.09094,3.12436,0.64227
315.107,38.2778,-1.10598,3.09285,0.6421
315.707,38.33205,-1.12201,3.03506,0.64192
316.307,38.38637,-1.13534,3.0123,0.64174
316.907,38.44079,-1.15017,2.96339,0.64156
317.507,38.49525,-1.16739,2.92216,0.64138
318.107,38.5497,-1.18113,2.8857,0.6412
318.707,38.60402,-1.19427,2.86755,0.64102
319.307,38.6584,-1.20777,2.83347,0.64084
319.907,38.7128,-1.21971,2.80161,0.64066
320.507,38.76713,-1.23162,2.77146,0.64047
321.107,38.8217,-1.24223,2.72767,0.64029
321.707,38.87625,-1.2558,2.70279,0.64011
322.307,38.93072,-1.26637,2.67538,0.63992
322.907,38.98489,-1.27614,2.6363,0.63973
323.507,39.03934,-1.28812,2.5973,0.63955
324.107,39.09373,-1.29901,2.57003,0.63936
324.707,39.14828,-1.30809,2.55514,0.63917
325.307,39.2032,-1.31892,2.51262,0.63898
325.907,39.25775,-1.32897,2.47367,0.63879
326.507,39.3124,-1.33917,2.4534,0.6386
327.107,39.3671,-1.34983,2.41721,0.63841
327.707,39.42132,-1.35875,2.3961,0.63822
328.307,39.476,-1.36672,2.36406,0.63802
328.907,39.53068,-1.3738,2.33849,0.63783
329.507,39.58546,-1.38463,2.31491,0.63764
330.107,39.64048,-1.39178,2.26298,0.63744
330.707,39.69526,-1.40138,2.24697,0.63724
331.307,39.7498,-1.40758,2.19765,0.63705
331.907,39.80445,-1.41828,2.1751,0.63685
332.507,39.85918,-1.42574,2.14033,0.63665
333.107,39.914,-1.4336,2.12389,0.63645
333.707,39.9687,-1.43998,2.09301,0.63625
334.307,40.02341,-1.44652,2.04993,0.63605
334.907,40.0781,-1.45369,2.0094,0.63585
335.507,40.1327,-1.46247,1.98449,0.63565
336.107,40.18714,-1.46832,1.95097,0.63545
336.707,40.24185,-1.47524,1.91569,0.63525
337.307,40.29661,-1.48227,1.88519,0.63504
337.907,40.35152,-1.48638,1.85239,0.63484
338.507,40.4064,-1.48926,1.81204,0.63463
339.107,40.461,-1.49383,1.78726,0.63443
339.707,40.51575,-1.49906,1.7577,0.63422
340.307,40.57047,-1.50397,1.71935,0.63401
340.907,40.62545,-1.51247,1.70205,0.63381
341.507,40.67985,-1.51673,1.66302,0.6336
342.107,40.73465,-1.51945,1.62799,0.63339
342.707,40.7894,-1.52259,1.59964,0.63318
343.307,40.84413,-1.52904,1.55462,0.63297
343.907,40.8994,-1.5352,1.51936,0.63276
344.507,40.95432,-1.53799,1.49863,0.63255
345.107,41.0092,-1.5408,1.46604,0.63233
345.707,41.06394,-1.54704,1.43276,0.63212
346.307,41.1188,-1.55095,1.41365,0.63191
346.907,41.17368,-1.55456,1.38033,0.63169
347.507,41.22844,-1.55896,1.35634,0.63148
348.107,41.2832,-1.56368,1.33849,0.63126
348.707,41.338,-1.56765,1.3071,0.63104
349.307,41.39278,-1.57161,1.28084,0.63083
349.907,41.44766,-1.57447,1.26221,0.63061
350.507,41.50274,-1.57616,1.24613,0.63039
351.107,41.55769,-1.57877,1.22803,0.63017
351.707,41.6128,-1.58013,1.21203,0.62995
352.307,41.66788,-1.58381,1.19456,0.62973
352.907,41.72299,-1.58681,1.18288,0.62951
353.507,41.77816,-1.58814,1.17606,0.62929
354.107,41.8332,-1.59059,1.15974,0.62907
354.707,41.88824,-1.5915,1.14456,0.62884
355.307,41.9433,-1.59437,1.13797,0.62862
355.907,41.99831,-1.59784,1.12558,0.6284
356.507,42.05332,-1.59869,1.1175,0.62817
357.107,42.1083,-1.59936,1.11588,0.62795
357.707,42.1635,-1.60226,1.10508,0.62772
358.307,42.2189,-1.60482,1.10596,0.62749
358.907,42.27414,-1.60616,1.10189,0.62727
359.507,42.32936,-1.60609,1.09615,0.62704
360.107,42.38431,-1.60908,1.0976,0.62681
360.707,42.43949,-1.60993,1.09835,0.62658
361.307,42.49495,-1.60992,1.09207,0.62635
361.907,42.55032,-1.61063,1.09295,0.62612
362.507,42.60585,-1.61192,1.1121,0.62589
363.107,42.66132,-1.61342,1.11438,0.62566
363.707,42.71674,-1.61468,1.11113,0.62543
364.307,42.7723,-1.61685,1.11694,0.62519
364.907,42.82768,-1.61733,1.11944,0.62496
365.507,42.88321,-1.61717,1.12466,0.62473
366.107,42.93877,-1.61918,1.12176,0.62449
366.707,42.99442,-1.62149,1.13229,0.62426
367.307,43.0501,-1.62216,1.13704,0.62402
367.907,43.1055,-1.62289,1.12927,0.62379
368.507,43.16082,-1.62417,1.13296,0.62355
369.107,43.21608,-1.62685,1.13373,0.62331
369.707,43.27149,-1.6266,1.1398,0.62308
370.307,43.32695,-1.62665,1.13188,0.62284
370.907,43.3825,-1.62722,1.13501,0.6226
371.507,43.43803,-1.62792,1.14236,0.62236
372.107,43.49361,-1.62962,1.1438,0.62212
372.707,43.54911,-1.63093,1.13928,0.62188
373.307,43.60477,-1.6318,1.1445,0.62164
373.907,43.66025,-1.63367,1.15663,0.62139
374.507,43.71583,-1.63496,1.1594,0.62115
375.107,43.77147,-1.63368,1.15405,0.62091
375.707,43.82699,-1.63352,1.15268,0.62067
376.307,43.88244,-1.63727,1.15828,0.62042
376.907,43.9381,-1.63897,1.16533,0.62018
377.507,43.99395,-1.64046,1.16559,0.61993
378.107,44.04987,-1.64024,1.16968,0.61969
378.707,44.10584,-1.64069,1.17298,0.61944
379.307,44.16167,-1.64217,1.1605,0.61919
379.907,44.21728,-1.64299,1.15783,0.61895
380.507,44.27305,-1.64432,1.17294,0.6187
381.107,44.32886,-1.64431,1.16615,0.61845
381.707,44.38465,-1.64669,1.18682,0.6182
382.307,44.44052,-1.64836,1.18292,0.61795
382.907,44.49646,-1.64947,1.17636,0.6177
383.507,44.55219,-1.65063,1.17723,0.61745
384.107,44.60797,-1.65103,1.19811,0.6172
384.707,44.66382,-1.65375,1.18231,0.61695
385.307,44.7196,-1.65569,1.18509,0.6167
385.907,44.77561,-1.65586,1.19615,0.61645
386.507,44.8316,-1.65677,1.18767,0.6162
387.107,44.88748,-1.65916,1.20544,0.61594
387.707,44.94344,-1.66105,1.22378,0.61569
388.307,44.99938,-1.66348,1.21373,0.61543
388.907,45.0554,-1.66612,1.22108,0.61518
389.507,45.11158,-1.66635,1.21417,0.61492
390.107,45.16754,-1.6677,1.22769,0.61467
390.707,45.22361,-1.67085,1.22295,0.61441
391.307,45.27952,-1.67074,1.23379,0.61416
391.907,45.33567,-1.67354,1.23117,0.6139
392.507,45.39183,-1.67638,1.24097,0.61364
393.107,45.44798,-1.67757,1.24652,0.61338
393.707,45.50416,-1.68054,1.24741,0.61312
394.307,45.56031,-1.68203,1.24615,0.61287
394.907,45.6167,-1.68363,1.25372,0.61261
395.507,45.6729,-1.68713,1.2473,0.61235
396.107,45.72916,-1.68846,1.2555,0.61209
396.707,45.78548,-1.6928,1.26319,0.61182
397.307,45.8417,-1.6941,1.26184,0.61156
397.907,45.89797,-1.69632,1.26162,0.6113
398.507,45.95427,-1.69661,1.26207,0.61104
399.107,46.01054,-1.69817,1.26893,0.61078
399.707,46.0668,-1.70274,1.27773,0.61051
400.307,46.12317,-1.70427,1.28178,0.61025
400.907,46.17957,-1.70814,1.28722,0.60998
401.507,46.23584,-1.70951,1.27699,0.60972
402.107,46.29225,-1.71281,1.28137,0.60946
402.707,46.34865,-1.71614,1.27544,0.60919
403.307,46.40482,-1.71962,1.28363,0.60892
403.907,46.4611,-1.72099,1.28752,0.60866
404.507,46.51748,-1.72548,1.27407,0.60839
405.107,46.57379,-1.72556,1.27152,0.60812
405.707,46.6302,-1.73008,1.2776,0.60786
406.307,46.68639,-1.73287,1.28246,0.60759
406.907,46.7427,-1.73608,1.28144,0.60732
407.507,46.79911,-1.73922,1.27621,0.60705
408.107,46.85555,-1.74172,1.27442,0.60678
408.707,46.91238,-1.74589,1.25751,0.60651
409.307,46.9687,-1.74872,1.27159,0.60624
409.907,47.0252,-1.75137,1.27285,0.60597
410.507,47.08175,-1.75341,1.26486,0.6057
411.107,47.13798,-1.75743,1.25287,0.60543
411.707,47.1945,-1.76341,1.24849,0.60516
412.307,47.25077,-1.76329,1.24544,0.60489
412.907,47.30699,-1.76558,1.23437,0.60461
413.507,47.3635,-1.76898,1.2326,0.60434
414.107,47.4198,-1.77264,1.20876,0.60407
414.707,47.47609,-1.77432,1.21347,0.60379
415.307,47.53262,-1.77859,1.20423,0.60352
415.907,47.58899,-1.78111,1.19091,0.60325
416.507,47.64537,-1.78605,1.17578,0.60297
417.107,47.70192,-1.78892,1.15737,0.6027
417.707,47.7583,-1.79293,1.14069,0.60242
418.307,47.81469,-1.79486,1.14234,0.60214
418.907,47.8713,-1.80025,1.12727,0.60187
419.507,47.92785,-1.80122,1.12694,0.60159
420.107,47.98452,-1.80338,1.11082,0.60131
420.707,48.041,-1.80744,1.09739,0.60104
421.307,48.09754,-1.8119,1.08349,0.60076
421.907,48.15413,-1.81347,1.07389,0.60048
422.507,48.21074,-1.81673,1.06642,0.6002
423.107,48.26733,-1.81987,1.05547,0.59992
423.707,48.32362,-1.82351,1.04275,0.59964
424.307,48.3802,-1.8266,1.03229,0.59937
424.907,48.4369,-1.83006,1.02703,0.59909
425.507,48.49369,-1.83342,1.00616,0.59881
426.107,48.5509,-1.83499,0.99814,0.59852
426.707,48.60773,-1.8393,0.99917,0.59824
427.307,48.66434,-1.84144,0.99356,0.59796
427.907,48.72095,-1.84579,0.97845,0.59768
428.507,48.7776,-1.85256,0.96474,0.5974
429.107,48.83443,-1.85471,0.96064,0.59712
429.707,48.8912,-1.85869,0.94944,0.59683
430.307,48.94795,-1.86113,0.93096,0.59655
430.907,49.0047,-1.86504,0.9349,0.59627
431.507,49.06145,-1.86954,0.9333,0.59598
432.107,49.11837,-1.87101,0.9324,0.5957
432.707,49.1753,-1.87311,0.92909,0.59542
433.307,49.23216,-1.87872,0.91494,0.59513
433.907,49.28914,-1.88448,0.91289,0.59485
434.507,49.34612,-1.88712,0.90539,0.59456
435.107,49.40296,-1.88944,0.90636,0.59428
435.707,49.45991,-1.89307,0.90166,0.59399
436.307,49.51692,-1.89844,0.89813,0.5937
436.907,49.57393,-1.90182,0.90136,0.59342
437.507,49.63112,-1.90875,0.90015,0.59313
438.107,49.68824,-1.91287,0.92673,0.59284
438.707,49.7453,-1.91752,0.92653,0.59256
439.307,49.80236,-1.92288,0.92495,0.59227
439.907,49.8596,-1.92433,0.93552,0.59198
440.507,49.9168,-1.9289,0.93744,0.59169
441.107,49.97376,-1.93453,0.93777,0.59141
441.707,50.03089,-1.93989,0.95803,0.59112
442.307,50.08797,-1.94657,0.9456,0.59083
442.907,50.1451,-1.95135,0.9702,0.59054
443.507,50.2023,-1.95768,0.99776,0.59025
444.107,50.25946,-1.96354,1.00848,0.58996
444.707,50.31669,-1.96909,1.02061,0.58967
445.307,50.37369,-1.97407,1.0425,0.58938
445.907,50.43091,-1.98004,1.05969,0.58909
446.507,50.48809,-1.98501,1.08417,0.5888
447.107,50.54517,-1.99,1.10609,0.58851
447.707,50.60246,-1.99703,1.14206,0.58822
448.307,50.6596,-2.00446,1.14297,0.58792
448.907,50.71694,-2.01229,1.15911,0.58763
449.507,50.7741,-2.01726,1.19332,0.58734
450.107,50.83145,-2.02293,1.20004,0.58705
450.707,50.8887,-2.03159,1.21419,0.58675
451.307,50.94604,-2.03929,1.24967,0.58646
451.907,51.0034,-2.04667,1.25481,0.58617
452.507,51.0608,-2.05143,1.27302,0.58588
453.107,51.11828,-2.05871,1.30519,0.58558
453.707,51.17563,-2.06787,1.30878,0.58529
454.307,51.233,-2.07454,1.33074,0.58499
454.907,51.2905,-2.08091,1.3519,0.5847
455.507,51.34809,-2.08739,1.38056,0.5844
456.107,51.40568,-2.09582,1.37989,0.58411
456.707,51.46325,-2.10359,1.38994,0.58381
457.307,51.52081,-2.1126,1.4032,0.58352
457.907,51.57805,-2.12035,1.41069,0.58322
458.507,51.63561,-2.12662,1.40418,0.58293
459.107,51.6931,-2.13281,1.41741,0.58263
459.707,51.75059,-2.14016,1.43583,0.58234
460.307,51.8082,-2.14729,1.44599,0.58204
460.907,51.86566,-2.15608,1.46198,0.58174
461.507,51.92324,-2.16276,1.46177,0.58145
462.107,51.98083,-2.16877,1.50421,0.58115
462.707,52.03832,-2.17661,1.52135,0.58085
463.307,52.0959,-2.18123,1.54085,0.58056
463.907,52.1535,-2.19038,1.55233,0.58026
464.507,52.21115,-2.19513,1.57582,0.57996
465.107,52.26895,-2.20372,1.58345,0.57966
465.707,52.3264,-2.21275,1.5809,0.57936
466.307,52.38398,-2.21793,1.58207,0.57907
466.907,52.44158,-2.22586,1.59047,0.57877
467.507,52.4993,-2.23307,1.58773,0.57847
468.107,52.5572,-2.24003,1.5858,0.57817
468.707,52.61506,-2.24586,1.58937,0.57787
469.307,52.6728,-2.25287,1.57552,0.57757
469.907,52.7305,-2.25843,1.569,0.57727
470.507,52.78804,-2.26502,1.55446,0.57697
471.107,52.84551,-2.27015,1.55472,0.57667
471.707,52.90316,-2.2749,1.54549,0.57637
472.307,52.9609,-2.28322,1.53837,0.57607
472.907,53.01874,-2.28637,1.5226,0.57577
473.507,53.07654,-2.2941,1.52308,0.57547
474.107,53.13434,-2.29719,1.50351,0.57517
474.707,53.1922,-2.30203,1.49955,0.57487
475.307,53.25017,-2.30946,1.49248,0.57457
475.907,53.3081,-2.31462,1.48532,0.57427
476.507,53.3658,-2.31888,1.47245,0.57397
477.107,53.42358,-2.32412,1.4631,0.57367
477.707,53.48146,-2.32746,1.4653,0.57336
478.307,53.5393,-2.33448,1.45636,0.57306
478.907,53.59721,-2.33772,1.4428,0.57276
479.507,53.65509,-2.34111,1.44539,0.57246
480.107,53.7131,-2.34643,1.4275,0.57216
480.707,53.77084,-2.35006,1.42216,0.57185
481.307,53.82877,-2.35586,1.40643,0.57155
481.907,53.88666,-2.36098,1.39986,0.57125
482.507,53.94458,-2.36197,1.38683,0.57095
483.107,54.0026,-2.36662,1.37571,0.57064
483.707,54.0604,-2.37255,1.36555,0.57034
484.307,54.11821,-2.37788,1.36051,0.57004
484.907,54.17618,-2.38253,1.35158,0.56974
485.507,54.2342,-2.38394,1.35867,0.56943
486.107,54.29223,-2.38737,1.3427,0.56913
486.707,54.3503,-2.39261,1.32257,0.56883
487.307,54.40823,-2.39626,1.31732,0.56852
487.907,54.46635,-2.39859,1.30873,0.56822
488.507,54.5245,-2.40214,1.29732,0.56791
489.107,54.5826,-2.40409,1.29448,0.56761
489.707,54.64076,-2.40577,1.2853,0.56731
490.307,54.6988,-2.4086,1.28443,0.567
490.907,54.75705,-2.41461,1.26395,0.5667
491.507,54.81527,-2.41257,1.26287,0.56639
492.107,54.87335,-2.41118,1.25779,0.56609
492.707,54.9315,-2.4177,1.23802,0.56578
493.307,54.98978,-2.4212,1.22939,0.56548
493.907,55.0479,-2.42369,1.22663,0.56518
494.507,55.10611,-2.42727,1.21094,0.56487
495.107,55.16418,-2.42908,1.19594,0.56457
495.707,55.2224,-2.43215,1.19395,0.56426
496.307,55.2807,-2.43338,1.19168,0.56396
496.907,55.3389,-2.43469,1.18963,0.56365
497.507,55.3973,-2.43653,1.18693,0.56335
498.107,55.4554,-2.43896,1.17944,0.56304
498.707,55.51364,-2.44026,1.15992,0.56273
499.307,55.5718,-2.4421,1.1547,0.56243
499.907,55.63006,-2.44269,1.15502,0.56212
500.507,55.68851,-2.44028,1.148,0.56182
501.107,55.74678,-2.44438,1.15524,0.56151
501.707,55.8051,-2.44497,1.13754,0.56121
502.307,55.8635,-2.44623,1.14453,0.5609
502.907,55.9217,-2.44753,1.16053,0.56059
503.507,55.98007,-2.44819,1.1588,0.56029
504.107,56.0384,-2.44879,1.14234,0.55998
504.707,56.0967,-2.45019,1.14058,0.55968
505.307,56.15504,-2.45007,1.14174,0.55937
505.907,56.21355,-2.45208,1.13235,0.55906
506.507,56.272,-2.45553,1.1278,0.55876
507.107,56.3307,-2.45553,1.12154,0.55845
507.707,56.38907,-2.45818,1.12229,0.55815
508.307,56.44745,-2.45964,1.11302,0.55784
508.907,56.50594,-2.46093,1.12037,0.55753
509.507,56.5647,-2.4596,1.11299,0.55723
510.107,56.62314,-2.46098,1.12549,0.55692
510.707,56.68164,-2.46356,1.12514,0.55661
511.307,56.7399,-2.46355,1.10813,0.55631
511.907,56.7983,-2.46487,1.12517,0.556
512.507,56.8568,-2.46618,1.11403,0.55569
513.107,56.9152,-2.46611,1.11981,0.55539
513.707,56.97356,-2.46779,1.12084,0.55508
514.307,57.0319,-2.46683,1.11897,0.55477
514.907,57.09029,-2.46685,1.11996,0.55447
515.507,57.14875,-2.46815,1.11511,0.55416
516.107,57.2073,-2.46952,1.11549,0.55385
516.707,57.26582,-2.47074,1.09862,0.55355
517.307,57.32435,-2.4704,1.12036,0.55324
517.907,57.3827,-2.46948,1.12527,0.55293
518.507,57.44124,-2.47078,1.12605,0.55263
519.107,57.49974,-2.4721,1.12312,0.55232
519.707,57.55826,-2.4744,1.114,0.55201
520.307,57.61705,-2.47353,1.1206,0.55171
520.907,57.67549,-2.47351,1.12171,0.5514
521.507,57.73395,-2.47254,1.10202,0.55109
522.107,57.79241,-2.4735,1.09935,0.55079
522.707,57.8508,-2.47353,1.10704,0.55048
523.307,57.90941,-2.47353,1.10556,0.55017
523.907,57.9681,-2.47353,1.10477,0.54987
524.507,58.0267,-2.47392,1.10858,0.54956
525.107,58.08526,-2.47534,1.10553,0.54925
525.707,58.14388,-2.47616,1.09904,0.54895
526.307,58.20255,-2.47485,1.08915,0.54864
526.907,58.26125,-2.47685,1.09701,0.54833
527.507,58.32,-2.47748,1.09147,0.54803
528.107,58.3787,-2.47703,1.08519,0.54772
528.707,58.43725,-2.47773,1.09258,0.54741
529.307,58.496,-2.47817,1.08622,0.54711
529.907,58.555,-2.47815,1.08434,0.5468
530.507,58.61407,-2.47871,1.07832,0.54649
531.107,58.6728,-2.47877,1.0572,0.54619
531.707,58.7316,-2.48086,1.05507,0.54588
532.307,58.7905,-2.47957,1.04283,0.54557
532.907,58.84956,-2.47957,1.02688,0.54527
533.507,58.90844,-2.47959,1.02687,0.54496
534.107,58.9674,-2.47956,1.00727,0.54465
534.707,59.02616,-2.48089,1.01804,0.54435
535.307,59.08504,-2.48088,1.00809,0.54404
535.907,59.1439,-2.48221,1.01397,0.54374
536.507,59.2027,-2.48142,1.01231,0.54343
537.107,59.2614,-2.4822,1.01121,0.54312
537.707,59.32035,-2.4822,1.02204,0.54282
538.307,59.37913,-2.4845,1.01981,0.54251
538.907,59.43799,-2.48451,1.02786,0.5422
539.507,59.4969,-2.48358,1.0288,0.5419
540.107,59.5558,-2.4844,1.02321,0.54159
540.707,59.6149,-2.48581,1.03104,0.54129
541.307,59.6739,-2.48439,1.03816,0.54098
541.907,59.73294,-2.48439,1.03825,0.54068
542.507,59.792,-2.48439,1.04302,0.54037
543.107,59.85111,-2.48447,1.03998,0.54006
543.707,59.91032,-2.48703,1.05439,0.53976
544.307,59.9694,-2.4857,1.04787,0.53945
544.907,60.02842,-2.48707,1.04712,0.53915
545.507,60.0875,-2.48702,1.04124,0.53884
546.107,60.14654,-2.48805,1.04036,0.53854
546.707,60.2055,-2.48969,1.05148,0.53823
547.307,60.26449,-2.48965,1.04785,0.53793
547.907,60.32355,-2.48965,1.05011,0.53762
548.507,60.38259,-2.48965,1.05621,0.53732
549.107,60.4419,-2.48965,1.06485,0.53701
549.707,60.50088,-2.48965,1.08088,0.53671
550.307,60.55989,-2.48833,1.09514,0.5364
550.907,60.61903,-2.48701,1.10821,0.5361
551.507,60.6784,-2.48836,1.1101,0.53579
552.107,60.73774,-2.48834,1.1026,0.53549
552.707,60.79707,-2.49014,1.11022,0.53518
553.307,60.8562,-2.49097,1.11502,0.53488
553.907,60.91531,-2.48965,1.11736,0.53458
554.507,60.9745,-2.48966,1.12749,0.53427
555.107,61.03382,-2.48988,1.13519,0.53397
555.707,61.09313,-2.49228,1.1273,0.53366
556.307,61.15255,-2.49357,1.15848,0.53336
556.907,61.212,-2.4944,1.16303,0.53306
557.507,61.27134,-2.49231,1.15294,0.53275
558.107,61.3308,-2.49097,1.18347,0.53245
558.707,61.39025,-2.48997,1.18285,0.53215
559.307,61.44976,-2.49007,1.20082,0.53184
559.907,61.50904,-2.49164,1.20284,0.53154
560.507,61.5684,-2.49238,1.21166,0.53124
561.107,61.62771,-2.49228,1.21665,0.53093
561.707,61.6873,-2.49218,1.21305,0.53063
562.307,61.7466,-2.49382,1.19792,0.53033
562.907,61.80605,-2.49311,1.20841,0.53003
563.507,61.8653,-2.49317,1.20455,0.52972
564.107,61.9247,-2.49317,1.2117,0.52942
564.707,61.9842,-2.49317,1.19232,0.52912
565.307,62.0437,-2.49317,1.20395,0.52882
565.907,62.1031,-2.4932,1.20299,0.52852
566.507,62.16256,-2.49448,1.21002,0.52821
567.107,62.22205,-2.49317,1.21142,0.52791
567.707,62.28167,-2.49317,1.21437,0.52761
568.307,62.3414,-2.49451,1.21157,0.52731
568.907,62.40116,-2.4958,1.20136,0.52701
569.507,62.46079,-2.49812,1.20803,0.52671
570.107,62.52039,-2.49811,1.20726,0.52641
570.707,62.5799,-2.49546,1.19642,0.5261
571.307,62.63941,-2.49689,1.19733,0.5258
571.907,62.69895,-2.49689,1.20356,0.5255
572.507,62.75851,-2.49667,1.1886,0.5252
573.107,62.81801,-2.49557,1.19892,0.5249
573.707,62.87764,-2.49553,1.2011,0.5246
574.307,62.937,-2.49824,1.20812,0.5243
574.907,62.9965,-2.49957,1.1898,0.524
575.507,63.0561,-2.49953,1.18312,0.5237
576.107,63.1156,-2.49816,1.18007,0.5234
576.707,63.1753,-2.49821,1.20118,0.5231
577.307,63.23511,-2.49821,1.19414,0.5228
577.907,63.2945,-2.49964,1.19838,0.52251
578.507,63.35399,-2.49963,1.1955,0.52221
579.107,63.41353,-2.49966,1.1866,0.52191
579.707,63.47325,-2.50092,1.18749,0.52161
580.307,63.53309,-2.50136,1.19039,0.52131
580.907,63.5929,-2.50095,1.19567,0.52101
581.507,63.65257,-2.50095,1.19058,0.52071
582.107,63.7123,-2.50095,1.18509,0.52042
582.707,63.77216,-2.50095,1.19004,0.52012
583.307,63.83203,-2.49959,1.1785,0.51982
583.907,63.8919,-2.50102,1.19295,0.51952
584.507,63.9517,-2.50381,1.19801,0.51923
585.107,64.01142,-2.50382,1.20284,0.51893
585.707,64.07127,-2.50249,1.2195,0.51863
586.307,64.13129,-2.50249,1.21856,0.51834
586.907,64.1913,-2.50386,1.22501,0.51804
587.507,64.2513,-2.5038,1.23252,0.51774
588.107,64.31108,-2.5038,1.24182,0.51745
588.707,64.37108,-2.5038,1.26888,0.51715
589.307,64.43123,-2.50453,1.26942,0.51685
589.907,64.4913,-2.50479,1.30056,0.51656
590.507,64.5514,-2.50479,1.32528,0.51626
591.107,64.61131,-2.50479,1.40585,0.51597
591.707,64.67129,-2.50441,1.42239,0.51567
592.307,64.73132,-2.50447,1.43548,0.51538
592.907,64.79133,-2.50425,1.44826,0.51508
593.507,64.85129,-2.50512,1.55434,0.51479
594.107,64.91115,-2.50644,1.55398,0.51449
594.707,64.9713,-2.50709,1.55936,0.5142
595.307,65.03153,-2.50709,1.57054,0.51391
595.907,65.0919,-2.50578,1.59105,0.51361
596.507,65.15211,-2.50546,1.60426,0.51332
597.107,65.212,-2.50611,1.61204,0.51302
597.707,65.2721,-2.50742,1.62444,0.51273
598.307,65.33197,-2.50742,1.63286,0.51244
598.907,65.3922,-2.50742,1.65504,0.51215
599.507,65.45223,-2.50797,1.65558,0.51185
600.107,65.51233,-2.50876,1.64824,0.51156
600.707,65.57251,-2.50875,1.6586,0.51127
601.307,65.6326,-2.50874,1.68166,0.51098
601.907,65.69301,-2.50874,1.70587,0.51068
602.507,65.75307,-2.50875,1.73861,0.51039
603.107,65.81313,-2.51006,1.74676,0.5101
603.707,65.87317,-2.51006,1.76101,0.50981
604.307,65.9332,-2.5115,1.76703,0.50952
604.907,65.99319,-2.51269,1.79086,0.50923
605.507,66.05335,-2.51176,1.82661,0.50894
606.107,66.11341,-2.5127,1.85291,0.50865
606.707,66.17385,-2.51127,1.8713,0.50836
607.307,66.2339,-2.51103,1.9119,0.50807
607.907,66.29397,-2.51005,1.92136,0.50778
608.507,66.35422,-2.51005,1.94577,0.50749
609.107,66.41447,-2.51136,1.96303,0.5072
609.707,66.4747,-2.51006,1.98474,0.50691
610.307,66.53486,-2.51131,1.9969,0.50662
610.907,66.59515,-2.51138,1.99887,0.50633
611.507,66.65523,-2.51268,2.00811,0.50604
612.107,66.7154,-2.51268,2.01716,0.50576
612.707,66.77563,-2.51401,2.003,0.50547
613.307,66.83583,-2.51401,1.99454,0.50518
613.907,66.89615,-2.514,1.95555,0.50489
614.507,66.9563,-2.51467,1.89475,0.50461
615.107,67.01641,-2.51504,1.84841,0.50432
615.707,67.07651,-2.51598,1.7774,0.50403
616.307,67.13671,-2.51598,1.73282,0.50375
616.907,67.19697,-2.51729,1.70567,0.50346
617.507,67.25706,-2.51599,1.66035,0.50317
618.107,67.31736,-2.51598,1.63258,0.50289
618.707,67.37761,-2.51674,1.6195,0.5026
619.307,67.438,-2.51641,1.61181,0.50232
619.907,67.49848,-2.51759,1.62363,0.50203
620.507,67.5589,-2.51729,1.62404,0.50175
621.107,67.61912,-2.51729,1.62149,0.50146
621.707,67.67948,-2.51861,1.6105,0.50118
622.307,67.73962,-2.51926,1.59666,0.5009
622.907,67.79997,-2.51862,1.58191,0.50061
623.507,67.86027,-2.51864,1.5781,0.50033
624.107,67.92054,-2.52124,1.57733,0.50004
624.707,67.98089,-2.52124,1.58458,0.49976
625.307,68.04126,-2.52124,1.56995,0.49948
625.907,68.10155,-2.52124,1.57308,0.4992
626.507,68.16192,-2.52124,1.57977,0.49891
627.107,68.2226,-2.52125,1.57168,0.49863
627.707,68.28331,-2.52253,1.58207,0.49835
628.307,68.34428,-2.52257,1.57371,0.49807
628.907,68.40505,-2.52253,1.58833,0.49779
629.507,68.4657,-2.52157,1.59678,0.49751
630.107,68.5265,-2.5222,1.58222,0.49723
630.707,68.58708,-2.5229,1.62166,0.49695
631.307,68.64789,-2.52421,1.61877,0.49667
631.907,68.70859,-2.52498,1.62382,0.49639
632.507,68.76918,-2.5248,1.63636,0.49611
633.107,68.82974,-2.52552,1.62646,0.49583
633.707,68.89026,-2.52553,1.64592,0.49555
634.307,68.95091,-2.52619,1.64797,0.49527
634.907,69.0116,-2.52619,1.62829,0.49499
635.507,69.07221,-2.52601,1.65303,0.49471
636.107,69.13339,-2.52618,1.6399,0.49443
636.707,69.19676,-2.52561,1.656,0.49415
637.307,69.26029,-2.52455,1.64966,0.49388
637.907,69.324,-2.52552,1.64924,0.4936
638.507,69.38497,-2.52552,1.65974,0.49332
639.107,69.4457,-2.52627,1.63002,0.49305
639.707,69.50639,-2.52683,1.64359,0.49277
640.307,69.5672,-2.52618,1.67234,0.49249
640.907,69.62783,-2.52667,1.67191,0.49222
641.507,69.68858,-2.52738,1.66432,0.49194
642.107,69.7492,-2.52908,1.66338,0.49167
642.707,69.8099,-2.52948,1.66905,0.49139
643.307,69.87065,-2.5278,1.6844,0.49112
643.907,69.9314,-2.5274,1.68751,0.49084
644.507,69.9922,-2.52597,1.69221,0.49057
645.107,70.05288,-2.5268,1.69354,0.49029
645.707,70.1134,-2.52883,1.69243,0.49002
646.307,70.17394,-2.5275,1.69151,0.48975
646.907,70.2345,-2.52751,1.71249,0.48947
647.507,70.29518,-2.52881,1.69961,0.4892
648.107,70.35602,-2.52881,1.72682,0.48893
648.707,70.41671,-2.53013,1.71952,0.48866
649.307,70.4774,-2.53013,1.74095,0.48838
649.907,70.538,-2.53013,1.75893,0.48811
650.507,70.59874,-2.52949,1.75602,0.48784
651.107,70.65958,-2.52947,1.76171,0.48757
651.707,70.72033,-2.52947,1.77064,0.4873
652.307,70.78111,-2.52945,1.77492,0.48703
652.907,70.84199,-2.53083,1.76505,0.48676
653.507,70.90271,-2.53277,1.77099,0.48649
654.107,70.96347,-2.53276,1.78095,0.48622
654.707,71.02417,-2.53407,1.79629,0.48595
655.307,71.08502,-2.53276,1.80875,0.48568
655.907,71.1459,-2.53402,1.80165,0.48541
656.507,71.20681,-2.53407,1.822,0.48514
657.107,71.26759,-2.53407,1.83373,0.48487
657.707,71.32826,-2.53407,1.84984,0.48461
658.307,71.38924,-2.5331,1.86541,0.48434
658.907,71.45021,-2.53377,1.86478,0.48407
659.507,71.5112,-2.53571,1.88062,0.4838
660.107,71.57206,-2.53441,1.87756,0.48354
660.707,71.63284,-2.53441,1.89614,0.48327
661.307,71.69349,-2.53442,1.90314,0.48301
661.907,71.75445,-2.53573,1.89153,0.48274
662.507,71.81543,-2.53572,1.90712,0.48247
663.107,71.87652,-2.53539,1.90653,0.48221
663.707,71.9375,-2.53671,1.91608,0.48194
664.307,71.99849,-2.53671,1.92602,0.48168
664.907,72.0594,-2.53608,1.92561,0.48141
665.507,72.12043,-2.53605,1.92797,0.48115
666.107,72.18156,-2.53605,1.93002,0.48089
666.707,72.24248,-2.53605,1.94233,0.48062
667.307,72.3034,-2.53681,1.9457,0.48036
667.907,72.3643,-2.53671,1.94314,0.4801
668.507,72.4252,-2.538,1.95435,0.47984
669.107,72.48618,-2.53803,1.9566,0.47957
669.707,72.54703,-2.53934,1.96233,0.47931
670.307,72.60804,-2.53934,1.96084,0.47905
670.907,72.66909,-2.53934,1.9647,0.47879
671.507,72.72991,-2.53934,1.95459,0.47853
672.107,72.791,-2.53941,1.98806,0.47827
672.707,72.85194,-2.54066,1.98307,0.47801
673.307,72.91287,-2.53934,1.98621,0.47775
673.907,72.97389,-2.53942,2.00918,0.47749
674.507,73.03489,-2.53932,2.02299,0.47723
675.107,73.09589,-2.53933,2.03625,0.47697
675.707,73.157,-2.54066,2.06931,0.47671
676.307,73.21807,-2.54147,2.09215,0.47645
676.907,73.27924,-2.54198,2.12782,0.47619
677.507,73.34046,-2.54164,2.1951,0.47594
678.107,73.4017,-2.54066,2.19451,0.47568
678.707,73.46275,-2.54197,2.20315,0.47542
679.307,73.52387,-2.54066,2.2617,0.47516
679.907,73.585,-2.54066,2.29701,0.47491
680.507,73.646,-2.54061,2.27935,0.47465
681.107,73.7073,-2.54212,2.29332,0.4744
681.707,73.76858,-2.54329,2.31537,0.47414
682.307,73.82993,-2.54427,2.35533,0.47389
682.907,73.8912,-2.54461,2.38274,0.47363
683.507,73.95241,-2.54412,2.46518,0.47338
684.107,74.01371,-2.5446,2.50569,0.47312
684.707,74.07489,-2.54465,2.59012,0.47287
685.307,74.13622,-2.54603,2.65421,0.47261
685.907,74.1974,-2.54553,2.73264,0.47236
686.507,74.2585,-2.54669,2.79458,0.47211
687.107,74.31981,-2.54801,2.86492,0.47186
687.707,74.38122,-2.54933,2.92133,0.4716
688.307,74.44251,-2.55064,2.98332,0.47135
688.907,74.50411,-2.54925,3.05676,0.4711
689.507,74.56554,-2.54778,3.0935,0.47085
690.107,74.62691,-2.54779,3.16135,0.4706
690.707,74.68818,-2.54911,3.19413,0.47035
691.307,74.74934,-2.54911,3.2005,0.4701
691.907,74.81056,-2.55041,3.17875,0.46985
692.507,74.87184,-2.55205,3.14111,0.4696
693.107,74.93324,-2.55338,3.11704,0.46935
693.707,74.99452,-2.55462,3.05172,0.4691
694.307,75.05578,-2.5547,3.00665,0.46885
694.907,75.11711,-2.55601,3.0101,0.4686
695.507,75.17841,-2.55733,3.00489,0.46835
696.107,75.23968,-2.556,3.00195,0.4681
696.707,75.301,-2.55733,3.0194,0.46786
697.307,75.36231,-2.55865,3.01527,0.46761
697.907,75.42375,-2.55993,3.01516,0.46736
698.507,75.48519,-2.55996,3.03482,0.46712
699.107,75.54648,-2.56003,3.02872,0.46687
699.707,75.6079,-2.56,3.05351,0.46662
700.307,75.66922,-2.56257,3.07875,0.46638
700.907,75.73063,-2.56416,3.08682,0.46613
701.507,75.7918,-2.56557,3.09661,0.46589
702.107,75.85314,-2.56687,3.11416,0.46564
702.707,75.91465,-2.5655,3.12277,0.4654
703.307,75.97609,-2.56688,3.12849,0.46516
703.907,76.03737,-2.56688,3.09134,0.46491
704.507,76.09872,-2.56821,3.10139,0.46467
705.107,76.1598,-2.56951,3.09492,0.46443
705.707,76.22117,-2.57083,3.07452,0.46419
706.307,76.28259,-2.57219,3.09197,0.46394
706.907,76.34404,-2.57081,3.10213,0.4637
707.507,76.40534,-2.56995,3.08565,0.46346
708.107,76.4665,-2.57185,3.06565,0.46322
708.707,76.5278,-2.57346,3.07034,0.46298
709.307,76.58901,-2.5747,3.06421,0.46274
709.907,76.65048,-2.57477,3.047,0.4625
710.507,76.712,-2.57616,3.05316,0.46226
711.107,76.77331,-2.57813,3.04267,0.46202
711.707,76.8347,-2.57879,3.02575,0.46178
712.307,76.89611,-2.57993,2.98741,0.46154
712.907,76.95759,-2.58013,2.96046,0.4613
713.507,77.01921,-2.58015,2.9606,0.46106
714.107,77.08075,-2.58146,2.96482,0.46083
714.707,77.14214,-2.57901,2.93633,0.46059
715.307,77.20365,-2.58008,2.90575,0.46035
715.907,77.26476,-2.58154,2.8846,0.46011
716.507,77.32634,-2.58288,2.86841,0.45988
717.107,77.38778,-2.58298,2.84118,0.45964
717.707,77.4496,-2.58519,2.86487,0.45941
718.307,77.51109,-2.5865,2.8343,0.45917
718.907,77.57267,-2.5852,2.80188,0.45894
719.507,77.63416,-2.58486,2.80385,0.4587
720.107,77.69588,-2.58733,2.77882,0.45847
720.707,77.75757,-2.58795,2.76438,0.45823
721.307,77.81918,-2.58881,2.75683,0.458
721.907,77.881,-2.5878,2.77282,0.45777
722.507,77.9426,-2.5875,2.75221,0.45753
723.107,78.00424,-2.58882,2.75372,0.4573
723.707,78.06568,-2.58896,2.75532,0.45707
724.307,78.12738,-2.5918,2.74936,0.45684
724.907,78.1891,-2.59177,2.74404,0.4566
725.507,78.2509,-2.59178,2.75904,0.45637
726.107,78.31272,-2.59106,2.7584,0.45614
726.707,78.3742,-2.59278,2.73951,0.45591
727.307,78.43584,-2.59275,2.75296,0.45568
727.907,78.4974,-2.59243,2.76655,0.45545
728.507,78.5589,-2.59473,2.78129,0.45522
729.107,78.62052,-2.59703,2.78528,0.45499
729.707,78.68226,-2.59619,2.80577,0.45476
730.307,78.7441,-2.59166,2.81344,0.45453
730.907,78.806,-2.58936,2.81368,0.45431
731.507,78.86775,-2.59088,2.80213,0.45408
732.107,78.92956,-2.58946,2.77864,0.45385
732.707,78.99126,-2.59079,2.79005,0.45362
733.307,79.0527,-2.59348,2.78268,0.4534
733.907,79.11444,-2.59486,2.783,0.45317
734.507,79.17616,-2.59355,2.78338,0.45294
735.107,79.23795,-2.59484,2.78546,0.45272
735.707,79.30003,-2.59616,2.78202,0.45249
736.307,79.36186,-2.59847,2.79296,0.45227
736.907,79.4235,-2.59847,2.80155,0.45204
737.507,79.4853,-2.59692,2.81567,0.45182
738.107,79.5472,-2.59693,2.8001,0.45159
738.707,79.6092,-2.59824,2.80519,0.45137
739.307,79.67095,-2.59824,2.78841,0.45115
739.907,79.73276,-2.59693,2.78827,0.45092
740.507,79.79443,-2.59563,2.78967,0.4507
741.107,79.8562,-2.59705,2.78994,0.45048
741.707,79.91775,-2.59956,2.76321,0.45025
742.307,79.97924,-2.59956,2.77393,0.45003
742.507,79.9999,-2.59956,2.77391,0.44996