File: 01_Data/Vinyl_Siding/STA/N2/10K_min/Vinyl_Siding_STA_N2_10KData_210107_R3.csv
##Temp./Â°C,Time/min,Mass loss(subtr.2)/mg,DSC(subtr.2)/mW,Sensit./(uV/mW)
49.259,10.01,0.02106,-0.19743,0.61828
49.859,11.39545,0.02079791,-0.09686957,0.6186
50.459,11.73611,0.02290463,-0.02457916,0.61892
51.059,11.98161,0.02337657,0.02707872,0.61924
51.659,12.1829,0.02315702,0.07988556,0.61955
52.259,12.35709,0.02352227,0.13206,0.61987
52.859,12.51379,0.02415269,0.15174,0.62018
53.459,12.6587,0.02287354,0.19263,0.62049
54.059,12.79523,0.02424125,0.22076,0.6208
54.659,12.9223,0.02259112,0.25022,0.62111
55.259,13.043,0.02010111,0.26809,0.62142
55.859,13.1602,0.02228338,0.28719,0.62173
56.459,13.27416,0.02262124,0.3039,0.62203
57.059,13.3843,0.02305343,0.3401,0.62234
57.659,13.4903,0.0224892,0.35662,0.62264
58.259,13.5938,0.02360321,0.38597,0.62294
58.859,13.6937,0.022438,0.39391,0.62324
59.459,13.7926,0.02144777,0.41264,0.62354
60.059,13.8914,0.02127792,0.42675,0.62384
60.659,13.988,0.02383575,0.42967,0.62414
61.259,14.08189,0.02180885,0.44023,0.62443
61.859,14.17445,0.02119899,0.44476,0.62473
62.459,14.26459,0.02261052,0.46114,0.62502
63.059,14.35489,0.02292237,0.46434,0.62531
63.659,14.44386,0.02392655,0.47608,0.6256
64.259,14.5306,0.02292838,0.47742,0.62589
64.859,14.6165,0.02276072,0.48761,0.62618
65.459,14.7021,0.02251554,0.49578,0.62646
66.059,14.7864,0.02364299,0.51015,0.62675
66.659,14.86987,0.02380972,0.51593,0.62703
67.259,14.95227,0.0251142,0.52592,0.62732
67.859,15.03365,0.02209315,0.53662,0.6276
68.459,15.11394,0.02199173,0.5427,0.62788
69.059,15.19374,0.02233371,0.54795,0.62816
69.659,15.27259,0.02373231,0.55222,0.62844
70.259,15.35116,0.02500222,0.55938,0.62871
70.859,15.42936,0.02441374,0.57489,0.62899
71.459,15.5065,0.02311507,0.57871,0.62926
72.059,15.58305,0.02205024,0.58988,0.62954
72.659,15.6587,0.02338569,0.59205,0.62981
73.259,15.734,0.02303285,0.60289,0.63008
73.859,15.80821,0.02337004,0.61184,0.63035
74.459,15.88217,0.02207807,0.61555,0.63062
75.059,15.9555,0.02208737,0.63871,0.63088
75.659,16.0289,0.02202871,0.63789,0.63115
76.259,16.10143,0.02335518,0.64922,0.63141
76.859,16.17372,0.02242473,0.65967,0.63167
77.459,16.24515,0.02369996,0.6622,0.63194
78.059,16.31617,0.02461601,0.68592,0.6322
78.659,16.38704,0.02269701,0.68227,0.63246
79.259,16.45756,0.02205965,0.69594,0.63271
79.859,16.52749,0.02072812,0.70002,0.63297
80.459,16.59696,0.02201516,0.70454,0.63322
81.059,16.66599,0.0233703,0.72831,0.63348
81.659,16.73491,0.02190895,0.73013,0.63373
82.259,16.80326,0.0222372,0.73798,0.63398
82.859,16.8714,0.02206299,0.75243,0.63423
83.459,16.93914,0.02072684,0.78556,0.63448
84.059,17.00649,0.02337621,0.79759,0.63473
84.659,17.0737,0.02467577,0.81844,0.63498
85.259,17.14038,0.02170732,0.8249,0.63522
85.859,17.20682,0.02164904,0.83296,0.63546
86.459,17.27289,0.02118942,0.83844,0.63571
87.059,17.3388,0.02074106,0.85526,0.63595
87.659,17.40409,0.02205814,0.87102,0.63619
88.259,17.46921,0.02205727,0.86839,0.63643
88.859,17.53417,0.02309216,0.87159,0.63667
89.459,17.59911,0.02172016,0.87419,0.6369
90.059,17.66364,0.02172137,0.88478,0.63714
90.659,17.72774,0.023031,0.87282,0.63737
91.259,17.79147,0.02172799,0.8662,0.6376
91.859,17.8549,0.02180548,0.87944,0.63783
92.459,17.91818,0.0217542,0.8724,0.63806
93.059,17.98131,0.02171999,0.86871,0.63829
93.659,18.04411,0.02172,0.85595,0.63852
94.259,18.1069,0.02173289,0.88336,0.63875
94.859,18.1694,0.02184272,0.87643,0.63897
95.459,18.23167,0.02053937,0.879,0.63919
96.059,18.29371,0.02325296,0.88768,0.63942
96.659,18.35567,0.02315322,0.89496,0.63964
97.259,18.41754,0.02315034,0.91574,0.63986
97.859,18.47919,0.02183024,0.91727,0.64008
98.459,18.54029,0.02116261,0.9317,0.64029
99.059,18.60148,0.02217492,0.93962,0.64051
99.659,18.6624,0.02216998,0.94594,0.64072
100.259,18.72352,0.02206694,0.95831,0.64094
100.859,18.78455,0.02052355,0.96726,0.64115
101.459,18.84534,0.02183652,0.9706,0.64136
102.059,18.90571,0.02180548,0.99703,0.64157
102.659,18.96634,0.02186724,0.99961,0.64178
103.259,19.02656,0.02312505,1.00803,0.64199
103.859,19.08671,0.0218413,1.0237,0.64219
104.459,19.1467,0.02184684,1.02297,0.6424
105.059,19.2065,0.0211946,1.04593,0.6426
105.659,19.2664,0.0218294,1.05706,0.6428
106.259,19.32641,0.02183014,1.07271,0.643
106.859,19.38624,0.02322882,1.08698,0.6432
107.459,19.4462,0.0218416,1.08693,0.6434
108.059,19.50564,0.02184,1.09733,0.6436
108.659,19.56496,0.02184646,1.10285,0.64379
109.259,19.62417,0.02052188,1.10871,0.64399
109.859,19.68336,0.02052,1.12777,0.64418
110.459,19.7428,0.02052537,1.14343,0.64437
111.059,19.80229,0.02083937,1.15245,0.64456
111.659,19.8615,0.02051448,1.16314,0.64475
112.259,19.92016,0.02182994,1.17357,0.64494
112.859,19.979,0.02051056,1.18118,0.64513
113.459,20.03772,0.02051999,1.17762,0.64531
114.059,20.09654,0.020519,1.18671,0.6455
114.659,20.15551,0.01915507,1.19592,0.64568
115.259,20.21399,0.01920004,1.19877,0.64586
115.859,20.27246,0.0193049,1.19968,0.64604
116.459,20.33086,0.02051796,1.19982,0.64622
117.059,20.38917,0.01920288,1.21749,0.6464
117.659,20.44763,0.02051414,1.21605,0.64658
118.259,20.50575,0.02185982,1.21009,0.64675
118.859,20.56375,0.02051625,1.20835,0.64693
119.459,20.62138,0.02052,1.21756,0.6471
120.059,20.67912,0.02051999,1.22487,0.64727
120.659,20.7368,0.02046898,1.22648,0.64744
121.259,20.7945,0.02059902,1.21601,0.64761
121.859,20.85255,0.02004862,1.22164,0.64778
122.459,20.91059,0.02052018,1.23499,0.64795
123.059,20.96803,0.01917364,1.23604,0.64811
123.659,21.02574,0.0192118,1.23749,0.64828
124.259,21.08296,0.02052684,1.24691,0.64844
124.859,21.14016,0.02051997,1.25037,0.6486
125.459,21.19751,0.01930561,1.25131,0.64876
126.059,21.25477,0.01921284,1.26051,0.64892
126.659,21.3119,0.02052291,1.26173,0.64908
127.259,21.3689,0.02052,1.26252,0.64924
127.859,21.42587,0.02052,1.25862,0.64939
128.459,21.48263,0.02052031,1.26543,0.64955
129.059,21.5395,0.01889316,1.27734,0.6497
129.659,21.59607,0.01820871,1.28487,0.64985
130.259,21.65265,0.01679935,1.30102,0.65
130.859,21.70919,0.01822008,1.30712,0.65015
131.459,21.7656,0.01822049,1.30675,0.6503
132.059,21.8219,0.01710903,1.31548,0.65045
132.659,21.87815,0.01820932,1.32148,0.65059
133.259,21.93432,0.01820977,1.33762,0.65074
133.859,21.99055,0.01822053,1.33718,0.65088
134.459,22.0467,0.01689718,1.3419,0.65102
135.059,22.1026,0.01822612,1.35919,0.65116
135.659,22.15877,0.01821998,1.36323,0.6513
136.259,22.21477,0.01813126,1.36646,0.65144
136.859,22.2707,0.01953994,1.37663,0.65158
137.459,22.3264,0.01959186,1.38717,0.65171
138.059,22.3818,0.01822075,1.39702,0.65185
138.659,22.43731,0.01822,1.40194,0.65198
139.259,22.49286,0.01822528,1.40538,0.65211
139.859,22.54853,0.01854304,1.41763,0.65224
140.459,22.60385,0.01772724,1.41557,0.65237
141.059,22.65948,0.01821024,1.41689,0.6525
141.659,22.71486,0.01821,1.42757,0.65263
142.259,22.77038,0.01821,1.43739,0.65275
142.859,22.82583,0.01821049,1.44035,0.65288
143.459,22.88111,0.01714621,1.44634,0.653
144.059,22.93613,0.01689997,1.44987,0.65312
144.659,22.99113,0.01690017,1.44742,0.65324
145.259,23.04605,0.01715221,1.45865,0.65336
145.859,23.10086,0.01823509,1.46168,0.65348
146.459,23.15575,0.01689958,1.46741,0.6536
147.059,23.2106,0.0169,1.47173,0.65371
147.659,23.26548,0.01690002,1.47192,0.65383
148.259,23.32027,0.01690319,1.47352,0.65394
148.859,23.37511,0.01624124,1.48509,0.65405
149.459,23.42976,0.01624,1.49515,0.65416
150.059,23.4844,0.01624,1.50356,0.65427
150.659,23.53913,0.01624011,1.50137,0.65438
151.259,23.59375,0.01528677,1.5161,0.65449
151.859,23.64847,0.01550155,1.52679,0.65459
152.459,23.70315,0.01557988,1.53922,0.6547
153.059,23.75774,0.01575575,1.54191,0.6548
153.659,23.81223,0.01690042,1.53546,0.6549
154.259,23.86632,0.01689803,1.53091,0.65501
154.859,23.9207,0.01557748,1.52214,0.6551
155.459,23.97508,0.01558701,1.53012,0.6552
156.059,24.0295,0.01426941,1.53676,0.6553
156.659,24.0841,0.01427124,1.55357,0.6554
157.259,24.1384,0.01557181,1.551,0.65549
157.859,24.1928,0.01551788,1.54833,0.65559
158.459,24.24717,0.01493027,1.59293,0.65568
159.059,24.30159,0.01493281,1.6071,0.65577
159.659,24.35611,0.01525199,1.61914,0.65586
160.259,24.41037,0.0152591,1.60968,0.65595
160.859,24.46473,0.01448248,1.60333,0.65604
161.459,24.51915,0.02304298,1.6038,0.65612
162.059,24.57349,0.008252894,1.61536,0.65621
162.659,24.62792,0.01183532,1.61867,0.65629
163.259,24.68234,0.01435134,1.6035,0.65637
163.859,24.73678,0.01480883,1.60429,0.65646
164.459,24.79102,0.01415956,1.60984,0.65654
165.059,24.84519,0.01414998,1.61492,0.65662
165.659,24.89914,0.01415,1.61427,0.65669
166.259,24.9532,0.01414549,1.61724,0.65677
166.859,25.00744,0.01547202,1.61995,0.65685
167.459,25.06186,0.01414514,1.61739,0.65692
168.059,25.11616,0.01316416,1.62963,0.65699
168.659,25.1704,0.01317086,1.62911,0.65707
169.259,25.22471,0.01447656,1.62825,0.65714
169.859,25.279,0.01449,1.63983,0.65721
170.459,25.33338,0.01449254,1.63108,0.65727
171.059,25.38775,0.01314696,1.63703,0.65734
171.659,25.44205,0.01316794,1.63429,0.65741
172.259,25.4965,0.01381662,1.63702,0.65747
172.859,25.55075,0.01382975,1.64376,0.65754
173.459,25.605,0.01257643,1.63718,0.6576
174.059,25.65908,0.01250914,1.64333,0.65766
174.659,25.7133,0.01316311,1.64798,0.65772
175.259,25.7673,0.01317081,1.64952,0.65778
175.859,25.82129,0.01117286,1.66404,0.65783
176.459,25.87521,0.01120002,1.67105,0.65789
177.059,25.92896,0.01121327,1.66945,0.65795
177.659,25.983,0.01246882,1.66771,0.658
178.259,26.03687,0.01315914,1.67351,0.65805
178.859,26.09082,0.01315144,1.67633,0.65811
179.459,26.14473,0.0121817,1.67614,0.65816
180.059,26.1985,0.01254379,1.67175,0.6582
180.659,26.25238,0.01217985,1.6834,0.65825
181.259,26.30632,0.01218027,1.68564,0.6583
181.859,26.36015,0.01150712,1.6827,0.65835
182.459,26.414,0.01087099,1.67712,0.65839
183.059,26.4678,0.01217394,1.67512,0.65843
183.659,26.52148,0.01220702,1.672,0.65848
184.259,26.57535,0.01085959,1.6772,0.65852
184.859,26.62925,0.01085018,1.67502,0.65856
185.459,26.6831,0.009545291,1.67093,0.6586
186.059,26.73674,0.01081311,1.69078,0.65863
186.659,26.7904,0.01216743,1.69105,0.65867
187.259,26.84382,0.01095189,1.69148,0.6587
187.859,26.89726,0.009856607,1.70094,0.65874
188.459,26.95079,0.008559819,1.69087,0.65877
189.059,27.0045,0.008466062,1.70529,0.6588
189.659,27.0583,0.00954932,1.71003,0.65883
190.259,27.11197,0.009549999,1.71171,0.65886
190.859,27.16563,0.009550267,1.71159,0.65889
191.459,27.219,0.00897202,1.72037,0.65892
192.059,27.2723,0.008229768,1.71357,0.65894
192.659,27.32602,0.008229963,1.71224,0.65897
193.259,27.3795,0.008520025,1.71354,0.65899
193.859,27.4332,0.009550658,1.71279,0.65902
194.459,27.48671,0.009159049,1.70547,0.65904
195.059,27.53985,0.008230025,1.7099,0.65906
195.659,27.59325,0.00823,1.70574,0.65908
196.259,27.6466,0.008230124,1.71074,0.65909
196.859,27.7001,0.00955312,1.70618,0.65911
197.459,27.7537,0.008057039,1.71733,0.65913
198.059,27.8071,0.00691058,1.69816,0.65914
198.659,27.86063,0.006912896,1.70242,0.65915
199.259,27.9138,0.00822671,1.70735,0.65917
199.859,27.9673,0.00694474,1.70573,0.65918
200.459,28.02062,0.00560381,1.71409,0.65919
201.059,28.074,0.00691683,1.71347,0.6592
201.659,28.1274,0.006918683,1.71656,0.6592
202.259,28.1806,0.007239771,1.71115,0.65921
202.859,28.234,0.0072454,1.71453,0.65921
203.459,28.2873,0.005926108,1.71302,0.65922
204.059,28.3408,0.005929999,1.71495,0.65922
204.659,28.394,0.00593,1.7315,0.65922
205.259,28.4474,0.00593,1.71318,0.65922
205.859,28.5009,0.005929999,1.73032,0.65922
206.459,28.55418,0.00593306,1.71665,0.65922
207.059,28.6078,0.004597842,1.712,0.65922
207.659,28.6611,0.00461999,1.72663,0.65922
208.259,28.71436,0.004631486,1.72873,0.65921
208.859,28.76779,0.006006215,1.72562,0.65921
209.459,28.8211,0.00461007,1.71775,0.6592
210.059,28.87455,0.004609995,1.71635,0.65919
210.659,28.9279,0.00461314,1.71299,0.65918
211.259,28.9813,0.00330825,1.72812,0.65917
211.859,29.03482,0.003299982,1.7115,0.65916
212.459,29.08829,0.00329981,1.72218,0.65915
213.059,29.14159,0.004081677,1.72559,0.65913
213.659,29.19483,0.004609363,1.71875,0.65912
214.259,29.24816,0.00335126,1.7207,0.6591
214.859,29.30155,0.001989912,1.72461,0.65908
215.459,29.3551,0.000579106,1.73006,0.65907
216.059,29.4086,0.00166645,1.72828,0.65905
216.659,29.462,0.001662673,1.73653,0.65903
217.259,29.51523,0.002968316,1.73979,0.65901
217.859,29.5686,0.002970175,1.73897,0.65898
218.459,29.622,0.00214322,1.74802,0.65896
219.059,29.67543,0.001649765,1.75225,0.65893
219.659,29.729,0.00165001,1.75046,0.65891
220.259,29.7826,0.001051864,1.7522,0.65888
220.859,29.83591,-0.0009788947,1.76323,0.65885
221.459,29.8895,-0.0009798047,1.75295,0.65882
222.059,29.9428,-0.0006589526,1.76584,0.65879
222.659,29.99622,-0.00064999,1.77633,0.65876
223.259,30.0497,-0.0006500005,1.78912,0.65873
223.859,30.103,-0.0006546039,1.7759,0.6587
224.459,30.15633,0.000318839,1.79804,0.65866
225.059,30.20972,0.000348158,1.79179,0.65863
225.659,30.2631,-0.001144368,1.80543,0.65859
226.259,30.3166,-0.001969786,1.8052,0.65855
226.859,30.37013,-0.00197,1.79694,0.65851
227.459,30.42353,-0.001964634,1.7958,0.65847
228.059,30.4769,-0.00293255,1.81376,0.65843
228.659,30.5302,-0.002949999,1.8067,0.65839
229.259,30.58365,-0.002956914,1.81258,0.65835
229.859,30.637,-0.003281543,1.81277,0.6583
230.459,30.69029,-0.00328,1.82427,0.65826
231.059,30.74373,-0.00328139,1.82245,0.65821
231.659,30.7972,-0.004574547,1.82073,0.65816
232.259,30.85075,-0.004931208,1.83728,0.65812
232.859,30.9043,-0.00619701,1.82443,0.65807
233.459,30.95785,-0.007507225,1.83091,0.65802
234.059,31.0112,-0.007669918,1.82306,0.65796
234.659,31.06434,-0.00771844,1.82529,0.65791
235.259,31.1178,-0.008989172,1.83208,0.65786
235.859,31.17127,-0.00899044,1.83372,0.6578
236.459,31.22477,-0.01027521,1.84161,0.65775
237.059,31.27856,-0.01029969,1.84854,0.65769
237.659,31.3319,-0.01142406,1.84907,0.65763
238.259,31.38526,-0.01161646,1.86043,0.65757
238.859,31.43886,-0.01295007,1.86861,0.65751
239.459,31.49223,-0.01390625,1.87665,0.65745
240.059,31.5459,-0.01391997,1.88198,0.65739
240.659,31.5994,-0.01393097,1.89873,0.65733
241.259,31.6529,-0.01647114,1.90504,0.65726
241.859,31.70648,-0.0167948,1.90874,0.6572
242.459,31.7598,-0.01755642,1.9285,0.65713
243.059,31.8133,-0.0185286,1.92239,0.65707
243.659,31.86685,-0.01991246,1.93347,0.657
244.259,31.92045,-0.02117199,1.93376,0.65693
244.859,31.9742,-0.02324622,1.95494,0.65686
245.459,32.02787,-0.02427394,1.95401,0.65679
246.059,32.0815,-0.02560204,1.96726,0.65671
246.659,32.13507,-0.0281772,1.96605,0.65664
247.259,32.18868,-0.02746967,1.97677,0.65657
247.859,32.24222,-0.02998336,1.98858,0.65649
248.459,32.29593,-0.03143869,1.99323,0.65641
249.059,32.3496,-0.03399537,1.99943,0.65634
249.659,32.40318,-0.03531796,1.99069,0.65626
250.259,32.45686,-0.03661517,1.99716,0.65618
250.859,32.51035,-0.03794113,2.00252,0.6561
251.459,32.56393,-0.03937791,1.99546,0.65602
252.059,32.61762,-0.04049677,2.00471,0.65594
252.659,32.67126,-0.04176446,2.00743,0.65585
253.259,32.7248,-0.04309173,2.00752,0.65577
253.859,32.77827,-0.04517419,2.01631,0.65568
254.459,32.83191,-0.04742526,2.02589,0.6556
255.059,32.88554,-0.05062006,2.01345,0.65551
255.659,32.93952,-0.05056528,1.99746,0.65542
256.259,32.99345,-0.05287874,2.00433,0.65533
256.859,33.0471,-0.05418356,2.00193,0.65524
257.459,33.10073,-0.05535031,1.99488,0.65515
258.059,33.15433,-0.05766917,2.00381,0.65506
258.659,33.2081,-0.05958983,1.99941,0.65496
259.259,33.26167,-0.06145805,2.00406,0.65487
259.859,33.31516,-0.06310794,2.01429,0.65477
260.459,33.36861,-0.0653399,2.00787,0.65468
261.059,33.42208,-0.06839174,2.01234,0.65458
261.659,33.47567,-0.06955072,2.02195,0.65448
262.259,33.5293,-0.07188791,2.01868,0.65438
262.859,33.5826,-0.07486556,2.02078,0.65428
263.459,33.63622,-0.07605521,2.0361,0.65418
264.059,33.68988,-0.07951909,2.03207,0.65408
264.659,33.74349,-0.08051618,2.0462,0.65398
265.259,33.7973,-0.08318876,2.05314,0.65387
265.859,33.85086,-0.08547242,2.06574,0.65377
266.459,33.90436,-0.08808948,2.06472,0.65366
267.059,33.95787,-0.09154742,2.07491,0.65356
267.659,34.0115,-0.09360547,2.08132,0.65345
268.259,34.0651,-0.09617621,2.07848,0.65334
268.859,34.1187,-0.09848608,2.07796,0.65323
269.459,34.17249,-0.10166,2.09662,0.65312
270.059,34.22606,-0.10487,2.09496,0.65301
270.659,34.27933,-0.1077,2.11104,0.6529
271.259,34.333,-0.11333,2.12284,0.65278
271.859,34.3865,-0.11695,2.12161,0.65267
272.459,34.44027,-0.1201,2.12907,0.65255
273.059,34.49426,-0.12346,2.12251,0.65244
273.659,34.548,-0.12647,2.12497,0.65232
274.259,34.6017,-0.13091,2.12324,0.6522
274.859,34.65531,-0.13606,2.12017,0.65208
275.459,34.70902,-0.14179,2.13391,0.65196
276.059,34.76272,-0.14866,2.12678,0.65184
276.659,34.81644,-0.15378,2.15743,0.65172
277.259,34.87028,-0.15995,2.19091,0.6516
277.859,34.92408,-0.16803,2.23497,0.65147
278.459,34.97788,-0.1771,2.291,0.65135
279.059,35.0317,-0.1848,2.38173,0.65122
279.659,35.0858,-0.19231,2.48776,0.6511
280.259,35.13969,-0.20155,2.58856,0.65097
280.859,35.19356,-0.21173,2.69093,0.65084
281.459,35.24747,-0.22186,2.77889,0.65071
282.059,35.30129,-0.23375,2.91489,0.65058
282.659,35.35533,-0.24493,3.00779,0.65045
283.259,35.4093,-0.25872,3.10457,0.65032
283.859,35.46348,-0.2725,3.20672,0.65019
284.459,35.51763,-0.28642,3.30221,0.65005
285.059,35.57168,-0.30099,3.39203,0.64992
285.659,35.62628,-0.31425,3.47944,0.64978
286.259,35.68042,-0.33018,3.55333,0.64965
286.859,35.73468,-0.34757,3.63642,0.64951
287.459,35.78906,-0.3649,3.72896,0.64937
288.059,35.84325,-0.38314,3.80997,0.64923
288.659,35.89763,-0.40166,3.86814,0.64909
289.259,35.95208,-0.42193,3.9311,0.64895
289.859,36.00649,-0.44083,4.00566,0.64881
290.459,36.06089,-0.46257,4.06512,0.64867
291.059,36.11525,-0.48347,4.13111,0.64853
291.659,36.1696,-0.50522,4.18668,0.64838
292.259,36.22384,-0.52795,4.23373,0.64824
292.859,36.27809,-0.54996,4.29855,0.64809
293.459,36.3324,-0.5742,4.33749,0.64795
294.059,36.38671,-0.59933,4.40492,0.6478
294.659,36.44119,-0.62409,4.44573,0.64765
295.259,36.49548,-0.6486,4.47201,0.6475
295.859,36.5498,-0.67514,4.5208,0.64735
296.459,36.6041,-0.70049,4.54953,0.6472
297.059,36.65833,-0.72954,4.57693,0.64705
297.659,36.7126,-0.75702,4.61909,0.6469
298.259,36.7669,-0.78507,4.65148,0.64674
298.859,36.82115,-0.81426,4.68299,0.64659
299.459,36.87559,-0.84242,4.70333,0.64643
300.059,36.93009,-0.87128,4.6961,0.64628
300.659,36.98457,-0.90014,4.68226,0.64612
301.259,37.03918,-0.92882,4.67968,0.64596
301.859,37.09343,-0.95838,4.65672,0.6458
302.459,37.14792,-0.98845,4.64881,0.64564
303.059,37.20221,-1.01443,4.62589,0.64548
303.659,37.25659,-1.04352,4.60266,0.64532
304.259,37.31107,-1.07322,4.56526,0.64516
304.859,37.36544,-1.10118,4.53532,0.645
305.459,37.41982,-1.13032,4.49724,0.64483
306.059,37.4742,-1.15771,4.46254,0.64467
306.659,37.52852,-1.18271,4.41788,0.64451
307.259,37.58298,-1.21052,4.35851,0.64434
307.859,37.63736,-1.23564,4.3055,0.64417
308.459,37.69165,-1.25998,4.24826,0.64401
309.059,37.74608,-1.28414,4.19092,0.64384
309.659,37.8003,-1.3095,4.13873,0.64367
310.259,37.8547,-1.33434,4.07748,0.6435
310.859,37.9092,-1.35838,4.02388,0.64333
311.459,37.9636,-1.38214,3.95369,0.64316
312.059,38.0182,-1.40518,3.89455,0.64298
312.659,38.07247,-1.42579,3.84095,0.64281
313.259,38.12677,-1.44659,3.7886,0.64264
313.859,38.18119,-1.46702,3.73356,0.64246
314.459,38.23547,-1.4886,3.68288,0.64229
315.059,38.29,-1.51047,3.62398,0.64211
315.659,38.3444,-1.52901,3.57431,0.64193
316.259,38.39878,-1.54774,3.51965,0.64175
316.859,38.4531,-1.56683,3.4759,0.64158
317.459,38.5075,-1.58317,3.43318,0.6414
318.059,38.5618,-1.60054,3.37939,0.64122
318.659,38.61615,-1.61977,3.33305,0.64104
319.259,38.67058,-1.63718,3.28306,0.64085
319.859,38.725,-1.65141,3.24364,0.64067
320.459,38.77946,-1.66786,3.20249,0.64049
321.059,38.83379,-1.68367,3.1603,0.6403
321.659,38.888,-1.70058,3.10741,0.64012
322.259,38.94242,-1.7147,3.07711,0.63993
322.859,38.99693,-1.72956,3.04154,0.63975
323.459,39.05128,-1.74295,3.00038,0.63956
324.059,39.106,-1.75595,2.95914,0.63937
324.659,39.16032,-1.7712,2.91562,0.63919
325.259,39.21485,-1.78561,2.87554,0.639
325.859,39.2695,-1.79643,2.83765,0.63881
326.459,39.3238,-1.81042,2.80208,0.63862
327.059,39.37834,-1.82266,2.76717,0.63842
327.659,39.43275,-1.83479,2.73053,0.63823
328.259,39.48722,-1.84671,2.69102,0.63804
328.859,39.5417,-1.85832,2.66567,0.63785
329.459,39.59623,-1.86905,2.62093,0.63765
330.059,39.65074,-1.88093,2.58929,0.63746
330.659,39.70525,-1.89317,2.54555,0.63726
331.259,39.75987,-1.90424,2.52103,0.63706
331.859,39.81443,-1.91328,2.46509,0.63687
332.459,39.8691,-1.92367,2.43623,0.63667
333.059,39.92353,-1.93442,2.39899,0.63647
333.659,39.97804,-1.94382,2.35315,0.63627
334.259,40.03263,-1.95325,2.30117,0.63607
334.859,40.08721,-1.96107,2.27021,0.63587
335.459,40.14188,-1.97221,2.22567,0.63567
336.059,40.19661,-1.9806,2.18075,0.63547
336.659,40.25128,-1.99009,2.13348,0.63526
337.259,40.30596,-1.99635,2.08183,0.63506
337.859,40.36078,-2.00328,2.04462,0.63485
338.459,40.41531,-2.01077,1.99887,0.63465
339.059,40.4698,-2.02038,1.9544,0.63444
339.659,40.5244,-2.02628,1.9053,0.63424
340.259,40.5789,-2.03516,1.88202,0.63403
340.859,40.63363,-2.04254,1.81947,0.63382
341.459,40.68837,-2.04876,1.78719,0.63361
342.059,40.74301,-2.05571,1.74339,0.63341
342.659,40.79777,-2.0608,1.7033,0.6332
343.259,40.85262,-2.06556,1.65288,0.63299
343.859,40.90737,-2.07151,1.61212,0.63277
344.459,40.96213,-2.07627,1.58268,0.63256
345.059,41.0169,-2.08295,1.52537,0.63235
345.659,41.07185,-2.08728,1.4919,0.63214
346.259,41.12682,-2.09435,1.4577,0.63192
346.859,41.18188,-2.09966,1.41151,0.63171
347.459,41.23685,-2.10333,1.3874,0.63149
348.059,41.2917,-2.10707,1.35454,0.63128
348.659,41.3463,-2.11147,1.32655,0.63106
349.259,41.40117,-2.1153,1.2956,0.63084
349.859,41.45605,-2.11962,1.26263,0.63063
350.459,41.5111,-2.12242,1.23505,0.63041
351.059,41.5661,-2.12783,1.21521,0.63019
351.659,41.621,-2.13065,1.19242,0.62997
352.259,41.67592,-2.13483,1.17385,0.62975
352.859,41.7309,-2.13513,1.15695,0.62953
353.459,41.78568,-2.1386,1.14075,0.62931
354.059,41.84068,-2.14322,1.12307,0.62908
354.659,41.89562,-2.145,1.11322,0.62886
355.259,41.95062,-2.1478,1.09684,0.62864
355.859,42.006,-2.15095,1.08816,0.62841
356.459,42.06107,-2.15234,1.07422,0.62819
357.059,42.1162,-2.15541,1.06674,0.62796
357.659,42.17136,-2.15838,1.06704,0.62774
358.259,42.22639,-2.15868,1.0712,0.62751
358.859,42.28138,-2.16085,1.05844,0.62728
359.459,42.33645,-2.16324,1.0669,0.62706
360.059,42.3915,-2.16589,1.06716,0.62683
360.659,42.44662,-2.16619,1.07285,0.6266
361.259,42.5018,-2.16853,1.06867,0.62637
361.859,42.5569,-2.1703,1.06805,0.62614
362.459,42.61235,-2.17202,1.08376,0.62591
363.059,42.66771,-2.17332,1.09024,0.62568
363.659,42.72314,-2.1748,1.09714,0.62545
364.259,42.77848,-2.17606,1.10313,0.62521
364.859,42.83372,-2.17734,1.11648,0.62498
365.459,42.88895,-2.17926,1.11617,0.62475
366.059,42.9445,-2.18001,1.11606,0.62451
366.659,43,-2.18132,1.11703,0.62428
367.259,43.0556,-2.18267,1.12,0.62404
367.859,43.11105,-2.18394,1.12795,0.62381
368.459,43.16638,-2.18527,1.11313,0.62357
369.059,43.2219,-2.18741,1.13363,0.62333
369.659,43.2774,-2.1879,1.13498,0.62309
370.259,43.33286,-2.18922,1.13948,0.62286
370.859,43.38831,-2.19067,1.14583,0.62262
371.459,43.44373,-2.19189,1.14889,0.62238
372.059,43.4991,-2.19386,1.15615,0.62214
372.659,43.5548,-2.19613,1.14287,0.6219
373.259,43.61039,-2.19733,1.16072,0.62166
373.859,43.66612,-2.1989,1.16916,0.62141
374.459,43.72172,-2.19976,1.1529,0.62117
375.059,43.77729,-2.20237,1.18092,0.62093
375.659,43.83295,-2.20367,1.19144,0.62069
376.259,43.88858,-2.20522,1.18714,0.62044
376.859,43.94445,-2.20676,1.19383,0.6202
377.459,44.00026,-2.20963,1.19626,0.61995
378.059,44.056,-2.21171,1.20357,0.61971
378.659,44.1118,-2.21193,1.21144,0.61946
379.259,44.1676,-2.21323,1.20331,0.61921
379.859,44.22345,-2.2136,1.21009,0.61897
380.459,44.27922,-2.21488,1.21429,0.61872
381.059,44.33505,-2.21608,1.21783,0.61847
381.659,44.39093,-2.21969,1.21944,0.61822
382.259,44.44668,-2.22077,1.21801,0.61797
382.859,44.50246,-2.21898,1.23101,0.61772
383.459,44.5584,-2.23261,1.23408,0.61747
384.059,44.61419,-2.22919,1.24729,0.61722
384.659,44.67002,-2.22794,1.24525,0.61697
385.259,44.7259,-2.23107,1.24631,0.61672
385.859,44.78154,-2.23254,1.25968,0.61647
386.459,44.83739,-2.23365,1.26607,0.61622
387.059,44.89333,-2.23665,1.26626,0.61596
387.659,44.9492,-2.23939,1.28419,0.61571
388.259,45.00515,-2.24066,1.28077,0.61545
388.859,45.061,-2.24536,1.28077,0.6152
389.459,45.11688,-2.24611,1.28806,0.61494
390.059,45.17282,-2.24923,1.30046,0.61469
390.659,45.22882,-2.2514,1.30857,0.61443
391.259,45.28455,-2.25385,1.31639,0.61418
391.859,45.34077,-2.25604,1.31811,0.61392
392.459,45.39674,-2.2466,1.30975,0.61366
393.059,45.4529,-2.27368,1.33195,0.6134
393.659,45.50911,-2.26974,1.33594,0.61314
394.259,45.56507,-2.26836,1.33424,0.61289
394.859,45.62124,-2.26975,1.34354,0.61263
395.459,45.6774,-2.26988,1.34163,0.61237
396.059,45.7335,-2.27755,1.35298,0.61211
396.659,45.78966,-2.27917,1.36059,0.61185
397.259,45.84594,-2.28251,1.36759,0.61158
397.859,45.90218,-2.28575,1.36635,0.61132
398.459,45.95854,-2.28892,1.36191,0.61106
399.059,46.01488,-2.29239,1.37304,0.6108
399.659,46.07118,-2.29543,1.38471,0.61053
400.259,46.12762,-2.29871,1.3799,0.61027
400.859,46.18394,-2.30214,1.38398,0.61001
401.459,46.24044,-2.30629,1.38789,0.60974
402.059,46.2967,-2.30879,1.39013,0.60948
402.659,46.3531,-2.31395,1.39139,0.60921
403.259,46.40948,-2.31745,1.3904,0.60895
403.859,46.4653,-2.3191,1.38315,0.60868
404.459,46.5219,-2.32348,1.39047,0.60841
405.059,46.57844,-2.32755,1.38596,0.60815
405.659,46.63498,-2.33211,1.38528,0.60788
406.259,46.69189,-2.33581,1.3853,0.60761
406.859,46.7485,-2.34105,1.38527,0.60734
407.459,46.805,-2.34322,1.37689,0.60707
408.059,46.8617,-2.33956,1.37705,0.6068
408.659,46.91827,-2.35477,1.37928,0.60653
409.259,46.97465,-2.3602,1.3666,0.60626
409.859,47.03105,-2.35943,1.3658,0.60599
410.459,47.08745,-2.36277,1.35903,0.60572
411.059,47.14397,-2.36665,1.34044,0.60545
411.659,47.2005,-2.37119,1.33256,0.60518
412.259,47.25708,-2.37494,1.3347,0.60491
412.859,47.3138,-2.37979,1.33081,0.60464
413.459,47.37034,-2.38236,1.32648,0.60436
414.059,47.4269,-2.38552,1.30839,0.60409
414.659,47.48325,-2.38865,1.29413,0.60382
415.259,47.53955,-2.39428,1.27915,0.60354
415.859,47.59602,-2.39781,1.26838,0.60327
416.459,47.65265,-2.40323,1.25897,0.60299
417.059,47.7092,-2.40774,1.24446,0.60272
417.659,47.76572,-2.41063,1.24268,0.60244
418.259,47.82182,-2.41369,1.22464,0.60217
418.859,47.8782,-2.41869,1.20905,0.60189
419.459,47.9349,-2.42372,1.20417,0.60161
420.059,47.9914,-2.42639,1.17805,0.60134
420.659,48.0481,-2.43039,1.17981,0.60106
421.259,48.10457,-2.43398,1.17122,0.60078
421.859,48.1609,-2.43838,1.15519,0.6005
422.459,48.21741,-2.44463,1.15174,0.60023
423.059,48.27401,-2.44864,1.12289,0.59995
423.659,48.33054,-2.44965,1.13196,0.59967
424.259,48.38722,-2.45634,1.12136,0.59939
424.859,48.44377,-2.46007,1.09829,0.59911
425.459,48.50045,-2.46444,1.087,0.59883
426.059,48.5571,-2.46902,1.06704,0.59855
426.659,48.61392,-2.47286,1.07267,0.59827
427.259,48.67078,-2.47641,1.04205,0.59799
427.859,48.7277,-2.48144,1.04176,0.5977
428.459,48.78412,-2.48642,1.03997,0.59742
429.059,48.8409,-2.49269,1.03165,0.59714
429.659,48.89781,-2.4956,1.01666,0.59686
430.259,48.9549,-2.49775,1.0079,0.59657
430.859,49.01202,-2.50385,1.01871,0.59629
431.459,49.06893,-2.50984,1.00152,0.59601
432.059,49.12594,-2.51491,0.99866,0.59572
432.659,49.18306,-2.51937,0.99175,0.59544
433.259,49.2401,-2.52487,0.98583,0.59515
433.859,49.29701,-2.52991,0.99152,0.59487
434.459,49.354,-2.53618,0.9899,0.59458
435.059,49.41084,-2.54075,0.98619,0.5943
435.659,49.46795,-2.5455,0.99325,0.59401
436.259,49.525,-2.55151,0.99343,0.59373
436.859,49.58215,-2.55631,1.00103,0.59344
437.459,49.63929,-2.56175,1.00371,0.59315
438.059,49.69641,-2.56768,1.00834,0.59287
438.659,49.7536,-2.57387,1.0111,0.59258
439.259,49.81066,-2.57933,1.01067,0.59229
439.859,49.86777,-2.58495,1.03097,0.59201
440.459,49.92483,-2.59086,1.037,0.59172
441.059,49.98205,-2.59937,1.06531,0.59143
441.659,50.03921,-2.60591,1.07359,0.59114
442.259,50.09635,-2.61221,1.08377,0.59085
442.859,50.15344,-2.61917,1.10231,0.59056
443.459,50.21055,-2.62597,1.1234,0.59027
444.059,50.26769,-2.63403,1.14036,0.58998
444.659,50.32498,-2.64331,1.17213,0.58969
445.259,50.38216,-2.65089,1.19011,0.5894
445.859,50.4394,-2.65787,1.21581,0.58911
446.459,50.49654,-2.66326,1.24122,0.58882
447.059,50.55369,-2.67277,1.28187,0.58853
447.659,50.6109,-2.6817,1.31036,0.58824
448.259,50.6682,-2.69028,1.32849,0.58795
448.859,50.72579,-2.69915,1.37467,0.58766
449.459,50.78307,-2.70601,1.39742,0.58736
450.059,50.8404,-2.71588,1.43483,0.58707
450.659,50.8975,-2.72472,1.45585,0.58678
451.259,50.9548,-2.73477,1.48455,0.58649
451.859,51.01186,-2.74466,1.50947,0.58619
452.459,51.06928,-2.75369,1.52221,0.5859
453.059,51.12665,-2.7621,1.54521,0.58561
453.659,51.1844,-2.7728,1.56997,0.58531
454.259,51.24195,-2.78175,1.5895,0.58502
454.859,51.29935,-2.79125,1.60872,0.58472
455.459,51.35672,-2.80193,1.62601,0.58443
456.059,51.41402,-2.80858,1.63998,0.58413
456.659,51.4715,-2.8192,1.6576,0.58384
457.259,51.5289,-2.82941,1.6786,0.58354
457.859,51.58636,-2.84006,1.70345,0.58325
458.459,51.64397,-2.84932,1.71784,0.58295
459.059,51.70153,-2.85746,1.73282,0.58266
459.659,51.75934,-2.86938,1.7395,0.58236
460.259,51.81711,-2.87771,1.76299,0.58206
460.859,51.87471,-2.88716,1.77815,0.58177
461.459,51.93226,-2.89501,1.79932,0.58147
462.059,51.9897,-2.90366,1.82354,0.58117
462.659,52.0473,-2.91402,1.84397,0.58088
463.259,52.1049,-2.92434,1.86932,0.58058
463.859,52.1624,-2.93364,1.87502,0.58028
464.459,52.22011,-2.942,1.89031,0.57998
465.059,52.2778,-2.95207,1.91603,0.57969
465.659,52.33556,-2.96214,1.90375,0.57939
466.259,52.39343,-2.97138,1.90496,0.57909
466.859,52.45129,-2.97912,1.89683,0.57879
467.459,52.5091,-2.98906,1.88957,0.57849
468.059,52.56697,-2.99739,1.8987,0.57819
468.659,52.62481,-3.00549,1.89459,0.57789
469.259,52.68263,-3.01507,1.87783,0.5776
469.859,52.7404,-3.02366,1.86614,0.5773
470.459,52.798,-3.0287,1.85812,0.577
471.059,52.8558,-3.03907,1.83938,0.5767
471.659,52.9136,-3.04574,1.85449,0.5764
472.259,52.97156,-3.05231,1.84555,0.5761
472.859,53.0291,-3.06052,1.83396,0.5758
473.459,53.08654,-3.06811,1.82525,0.5755
474.059,53.14434,-3.07493,1.81039,0.5752
474.659,53.20214,-3.08247,1.80758,0.57489
475.259,53.26059,-3.09036,1.80702,0.57459
475.859,53.3186,-3.09792,1.79734,0.57429
476.459,53.3765,-3.10506,1.79425,0.57399
477.059,53.4344,-3.11264,1.79025,0.57369
477.659,53.49227,-3.11706,1.78201,0.57339
478.259,53.55005,-3.12332,1.77193,0.57309
478.859,53.608,-3.13014,1.76308,0.57279
479.459,53.6661,-3.13628,1.73967,0.57248
480.059,53.724,-3.14134,1.73682,0.57218
480.659,53.7818,-3.14709,1.72184,0.57188
481.259,53.8396,-3.1519,1.71266,0.57158
481.859,53.8977,-3.15732,1.71477,0.57127
482.459,53.9558,-3.16429,1.6966,0.57097
483.059,54.01393,-3.16986,1.69021,0.57067
483.659,54.07198,-3.17486,1.67487,0.57037
484.259,54.12992,-3.17968,1.67161,0.57006
484.859,54.18784,-3.18439,1.66769,0.56976
485.459,54.2459,-3.18822,1.65343,0.56946
486.059,54.30393,-3.19388,1.63465,0.56915
486.659,54.3619,-3.19802,1.6301,0.56885
487.259,54.4199,-3.20216,1.60635,0.56855
487.859,54.4779,-3.20582,1.60155,0.56824
488.459,54.5359,-3.21275,1.5951,0.56794
489.059,54.59409,-3.21642,1.59241,0.56763
489.659,54.65224,-3.21963,1.56769,0.56733
490.259,54.7104,-3.22371,1.55109,0.56703
490.859,54.7685,-3.22715,1.54275,0.56672
491.459,54.8266,-3.22849,1.54166,0.56642
492.059,54.88474,-3.23158,1.53685,0.56611
492.659,54.943,-3.2365,1.5131,0.56581
493.259,55.0011,-3.23869,1.4969,0.5655
493.859,55.0592,-3.24154,1.493,0.5652
494.459,55.1173,-3.24466,1.49576,0.56489
495.059,55.17533,-3.2476,1.48666,0.56459
495.659,55.23349,-3.25024,1.48902,0.56429
496.259,55.2917,-3.25078,1.48222,0.56398
496.859,55.3501,-3.25438,1.46856,0.56367
497.459,55.40855,-3.25603,1.45053,0.56337
498.059,55.46694,-3.25845,1.45071,0.56306
498.659,55.5253,-3.26154,1.44418,0.56276
499.259,55.58351,-3.26279,1.45713,0.56245
499.859,55.6418,-3.26572,1.43653,0.56215
500.459,55.70012,-3.26699,1.43269,0.56184
501.059,55.7586,-3.26845,1.42348,0.56154
501.659,55.817,-3.26985,1.42367,0.56123
502.259,55.8753,-3.27257,1.41676,0.56093
502.859,55.9335,-3.27496,1.42424,0.56062
503.459,55.99168,-3.27663,1.40834,0.56031
504.059,56.05008,-3.27796,1.42635,0.56001
504.659,56.1085,-3.27928,1.40748,0.5597
505.259,56.1669,-3.28059,1.40917,0.5594
505.859,56.22526,-3.28185,1.40052,0.55909
506.459,56.2836,-3.28331,1.40057,0.55878
507.059,56.342,-3.28353,1.39968,0.55848
507.659,56.40051,-3.2848,1.39714,0.55817
508.259,56.4589,-3.28733,1.39804,0.55786
508.859,56.51739,-3.28741,1.37986,0.55756
509.459,56.5759,-3.28882,1.38123,0.55725
510.059,56.6342,-3.29013,1.37161,0.55694
510.659,56.69265,-3.29262,1.37048,0.55664
511.259,56.751,-3.29277,1.37772,0.55633
511.859,56.8093,-3.29404,1.38066,0.55603
512.459,56.86785,-3.29536,1.37408,0.55572
513.059,56.92643,-3.29541,1.37336,0.55541
513.659,56.9849,-3.29782,1.37772,0.55511
514.259,57.04342,-3.29803,1.36801,0.5548
514.859,57.10195,-3.29935,1.372,0.55449
515.459,57.1605,-3.29806,1.3664,0.55419
516.059,57.2191,-3.30026,1.36278,0.55388
516.659,57.2777,-3.3018,1.37166,0.55357
517.259,57.33595,-3.30198,1.36131,0.55327
517.859,57.39444,-3.30069,1.36081,0.55296
518.459,57.45285,-3.3021,1.35887,0.55265
519.059,57.5113,-3.30335,1.3454,0.55235
519.659,57.5699,-3.30461,1.35162,0.55204
520.259,57.62843,-3.30593,1.35073,0.55173
520.859,57.68704,-3.30486,1.35949,0.55142
521.459,57.74561,-3.30465,1.34038,0.55112
522.059,57.8042,-3.3063,1.33799,0.55081
522.659,57.86277,-3.30823,1.32344,0.5505
523.259,57.9214,-3.30686,1.32011,0.5502
523.859,57.9802,-3.30824,1.33342,0.54989
524.459,58.0389,-3.30967,1.33549,0.54958
525.059,58.09755,-3.29974,1.3526,0.54928
525.659,58.1559,-3.3138,1.33983,0.54897
526.259,58.2143,-3.31866,1.35322,0.54866
526.859,58.2732,-3.31232,1.34995,0.54836
527.459,58.3321,-3.31121,1.33581,0.54805
528.059,58.3914,-3.31251,1.34128,0.54774
528.659,58.4504,-3.31118,1.35174,0.54744
529.259,58.50934,-3.3112,1.34023,0.54713
529.859,58.5683,-3.31251,1.34817,0.54682
530.459,58.6274,-3.31242,1.3606,0.54652
531.059,58.68629,-3.3153,1.37243,0.54621
531.659,58.74521,-3.31526,1.35671,0.5459
532.259,58.804,-3.3153,1.36168,0.5456
532.859,58.86303,-3.31657,1.35202,0.54529
533.459,58.92176,-3.31783,1.35415,0.54499
534.059,58.9803,-3.31657,1.353,0.54468
534.659,59.0393,-3.31657,1.333,0.54437
535.259,59.0983,-3.31803,1.33284,0.54407
535.859,59.15746,-3.32034,1.32708,0.54376
536.459,59.21686,-3.31898,1.32312,0.54345
537.059,59.27575,-3.31908,1.31788,0.54315
537.659,59.33484,-3.31909,1.37386,0.54284
538.259,59.39394,-3.32007,1.35893,0.54254
538.859,59.4531,-3.32041,1.36963,0.54223
539.459,59.51234,-3.32171,1.35802,0.54192
540.059,59.5713,-3.32172,1.36747,0.54162
540.659,59.6303,-3.32172,1.35858,0.54131
541.259,59.6892,-3.32304,1.34946,0.54101
541.859,59.74776,-3.32304,1.33915,0.5407
542.459,59.80693,-3.32295,1.33978,0.54039
543.059,59.866,-3.32304,1.32683,0.54009
543.659,59.92508,-3.32304,1.32874,0.53978
544.259,59.9842,-3.32305,1.32602,0.53948
544.859,60.04329,-3.32436,1.3295,0.53917
545.459,60.1024,-3.32436,1.34203,0.53887
546.059,60.1616,-3.32436,1.32952,0.53856
546.659,60.2207,-3.32436,1.33113,0.53826
547.259,60.2797,-3.32437,1.34442,0.53795
547.859,60.33885,-3.32436,1.34736,0.53765
548.459,60.398,-3.32427,1.35901,0.53734
549.059,60.4573,-3.32666,1.36001,0.53704
549.659,60.5165,-3.32729,1.36152,0.53673
550.259,60.57578,-3.32796,1.3661,0.53643
550.859,60.63505,-3.32731,1.37498,0.53612
551.459,60.69418,-3.32837,1.37043,0.53582
552.059,60.7534,-3.32798,1.37031,0.53551
552.659,60.8125,-3.32798,1.38896,0.53521
553.259,60.87155,-3.32798,1.38393,0.53491
553.859,60.93088,-3.32903,1.38746,0.5346
554.459,60.99018,-3.32929,1.37218,0.5343
555.059,61.0496,-3.32929,1.37579,0.53399
555.659,61.10884,-3.32954,1.40565,0.53369
556.259,61.16803,-3.3293,1.4016,0.53339
556.859,61.2272,-3.3293,1.39154,0.53308
557.459,61.2864,-3.32933,1.4071,0.53278
558.059,61.3457,-3.33061,1.40096,0.53247
558.659,61.40506,-3.33061,1.40279,0.53217
559.259,61.46386,-3.33063,1.40899,0.53187
559.859,61.5232,-3.33876,1.41493,0.53156
560.459,61.58263,-3.32422,1.44356,0.53126
561.059,61.6422,-3.33151,1.43418,0.53096
561.659,61.70175,-3.3327,1.44965,0.53066
562.259,61.76101,-3.33401,1.45743,0.53035
562.859,61.8204,-3.33401,1.46092,0.53005
563.459,61.88018,-3.3327,1.46606,0.52975
564.059,61.9396,-3.333,1.46991,0.52945
564.659,61.9992,-3.33401,1.48311,0.52914
565.259,62.0584,-3.33533,1.50491,0.52884
565.859,62.11773,-3.33532,1.51253,0.52854
566.459,62.17716,-3.33396,1.52106,0.52824
567.059,62.23652,-3.33533,1.51723,0.52794
567.659,62.296,-3.33533,1.53944,0.52763
568.259,62.3555,-3.33533,1.54332,0.52733
568.859,62.41508,-3.33639,1.55671,0.52703
569.459,62.4747,-3.33565,1.55038,0.52673
570.059,62.5343,-3.33908,1.56474,0.52643
570.659,62.59398,-3.34184,1.57475,0.52613
571.259,62.65339,-3.33319,1.59111,0.52583
571.859,62.713,-3.33611,1.59419,0.52553
572.459,62.7724,-3.33742,1.58977,0.52523
573.059,62.832,-3.3397,1.59838,0.52493
573.659,62.89164,-3.34011,1.59288,0.52463
574.259,62.95143,-3.34139,1.59583,0.52433
574.859,63.01118,-3.34037,1.59374,0.52403
575.459,63.07088,-3.34038,1.5972,0.52373
576.059,63.1306,-3.34169,1.59917,0.52343
576.659,63.19027,-3.34037,1.61737,0.52313
577.259,63.2499,-3.34038,1.62125,0.52283
577.859,63.30966,-3.3418,1.60757,0.52253
578.459,63.3694,-3.34247,1.62476,0.52223
579.059,63.42909,-3.34246,1.61109,0.52193
579.659,63.48887,-3.3434,1.61577,0.52163
580.259,63.54844,-3.34314,1.60445,0.52133
580.859,63.6081,-3.34445,1.62124,0.52104
581.459,63.6678,-3.34485,1.61594,0.52074
582.059,63.7277,-3.34443,1.64254,0.52044
582.659,63.7876,-3.34443,1.64267,0.52014
583.259,63.8475,-3.34574,1.613,0.51984
583.859,63.90732,-3.34618,1.65284,0.51955
584.459,63.9671,-3.34641,1.70841,0.51925
585.059,64.02707,-3.34641,1.70652,0.51895
585.659,64.087,-3.34641,1.73397,0.51866
586.259,64.14693,-3.3464,1.73558,0.51836
586.859,64.2068,-3.34772,1.74646,0.51806
587.459,64.26677,-3.34708,1.74975,0.51777
588.059,64.32665,-3.34772,1.79186,0.51747
588.659,64.3867,-3.34772,1.79781,0.51717
589.259,64.44649,-3.34772,1.8019,0.51688
589.859,64.50583,-3.34772,1.79702,0.51658
590.459,64.5656,-3.34902,1.81831,0.51629
591.059,64.6254,-3.34912,1.82182,0.51599
591.659,64.6854,-3.35164,1.82279,0.5157
592.259,64.7457,-3.35035,1.83787,0.5154
592.859,64.80569,-3.35166,1.84766,0.51511
593.459,64.86575,-3.35167,1.83931,0.51481
594.059,64.92565,-3.35297,1.87222,0.51452
594.659,64.98561,-3.35298,1.87682,0.51422
595.259,65.04558,-3.35246,1.88134,0.51393
595.859,65.1054,-3.35316,1.9059,0.51363
596.459,65.16534,-3.35434,1.89895,0.51334
597.059,65.22528,-3.3531,1.91701,0.51305
597.659,65.28545,-3.3531,1.93184,0.51275
598.259,65.34574,-3.3531,1.94424,0.51246
598.859,65.4054,-3.3531,1.94568,0.51217
599.459,65.46518,-3.353,1.98299,0.51188
600.059,65.52494,-3.35573,1.98798,0.51158
600.659,65.58505,-3.35706,2.01441,0.51129
601.259,65.64514,-3.3559,2.03771,0.511
601.859,65.70527,-3.35708,2.0451,0.51071
602.459,65.76526,-3.35705,2.07357,0.51042
603.059,65.8253,-3.35705,2.09663,0.51012
603.659,65.88553,-3.35705,2.12618,0.50983
604.259,65.94564,-3.35767,2.14585,0.50954
604.859,66.00579,-3.35968,2.18937,0.50925
605.459,66.06599,-3.35936,2.20552,0.50896
606.059,66.1262,-3.35838,2.25174,0.50867
606.659,66.18655,-3.35836,2.28826,0.50838
607.259,66.24681,-3.35968,2.32004,0.50809
607.859,66.30715,-3.35968,2.3429,0.5078
608.459,66.3672,-3.35968,2.3698,0.50751
609.059,66.4272,-3.36097,2.40315,0.50722
609.659,66.48748,-3.35967,2.42217,0.50693
610.259,66.5476,-3.36098,2.45001,0.50664
610.859,66.60791,-3.36165,2.45236,0.50636
611.459,66.66819,-3.36165,2.46366,0.50607
612.059,66.72844,-3.36166,2.44878,0.50578
612.659,66.7885,-3.36287,2.40939,0.50549
613.259,66.84884,-3.36297,2.38228,0.5052
613.859,66.90887,-3.36298,2.33081,0.50492
614.459,66.96902,-3.36427,2.25748,0.50463
615.059,67.02903,-3.36297,2.18783,0.50434
615.659,67.0891,-3.36428,2.08831,0.50406
616.259,67.14952,-3.36298,2.0118,0.50377
616.859,67.20984,-3.36428,1.94288,0.50348
617.459,67.27015,-3.36561,1.9178,0.5032
618.059,67.3306,-3.36561,1.87482,0.50291
618.659,67.39089,-3.36561,1.86051,0.50263
619.259,67.4512,-3.368,1.85381,0.50234
619.859,67.5116,-3.36824,1.83994,0.50206
620.459,67.57211,-3.36824,1.83364,0.50177
621.059,67.63257,-3.36824,1.8454,0.50149
621.659,67.6931,-3.36823,1.83837,0.5012
622.259,67.7535,-3.36823,1.81445,0.50092
622.859,67.8138,-3.36954,1.81588,0.50063
623.459,67.87436,-3.3696,1.81162,0.50035
624.059,67.93482,-3.37087,1.79659,0.50007
624.659,67.99526,-3.37087,1.7958,0.49978
625.259,68.05584,-3.37087,1.80106,0.4995
625.859,68.11641,-3.37219,1.80566,0.49922
626.459,68.17694,-3.37085,1.80741,0.49894
627.059,68.23745,-3.37219,1.7944,0.49865
627.659,68.29778,-3.37089,1.79639,0.49837
628.259,68.3584,-3.37317,1.79381,0.49809
628.859,68.41892,-3.37218,1.79713,0.49781
629.459,68.4795,-3.37215,1.80653,0.49753
630.059,68.53994,-3.37349,1.78905,0.49725
630.659,68.60022,-3.37447,1.79477,0.49697
631.259,68.66068,-3.3735,1.78691,0.49669
631.859,68.72117,-3.3742,1.79068,0.49641
632.459,68.7817,-3.37482,1.78307,0.49613
633.059,68.8421,-3.37482,1.80092,0.49585
633.659,68.9025,-3.37567,1.80055,0.49557
634.259,68.96305,-3.37481,1.81062,0.49529
634.859,69.0235,-3.37576,1.82099,0.49501
635.459,69.084,-3.37613,1.83626,0.49473
636.059,69.14432,-3.37558,1.83397,0.49445
636.659,69.20475,-3.37608,1.83276,0.49418
637.259,69.26547,-3.37745,1.84966,0.4939
637.859,69.32599,-3.37745,1.85258,0.49362
638.459,69.3866,-3.37783,1.85832,0.49335
639.059,69.44715,-3.37876,1.86753,0.49307
639.659,69.50771,-3.37876,1.85199,0.49279
640.259,69.56819,-3.37958,1.85369,0.49252
640.859,69.6289,-3.38013,1.84288,0.49224
641.459,69.68951,-3.37906,1.8748,0.49196
642.059,69.75005,-3.38008,1.88058,0.49169
642.659,69.81089,-3.3814,1.87893,0.49141
643.259,69.8716,-3.3814,1.89367,0.49114
643.859,69.93257,-3.38273,1.89393,0.49086
644.459,69.99336,-3.38143,1.90634,0.49059
645.059,70.05404,-3.3814,1.90128,0.49032
645.659,70.1146,-3.3814,1.91186,0.49004
646.259,70.17511,-3.37976,1.93716,0.48977
646.859,70.23583,-3.38258,1.94804,0.4895
647.459,70.29652,-3.38403,1.95352,0.48922
648.059,70.3574,-3.3854,1.97669,0.48895
648.659,70.41839,-3.38409,1.97553,0.48868
649.259,70.47919,-3.38403,1.96334,0.48841
649.859,70.5399,-3.38403,1.96469,0.48813
650.459,70.60047,-3.38403,1.97678,0.48786
651.059,70.6612,-3.38536,1.98872,0.48759
651.659,70.72206,-3.38436,1.99231,0.48732
652.259,70.78291,-3.38532,2.00605,0.48705
652.859,70.84414,-3.38566,2.02745,0.48678
653.459,70.90486,-3.38666,2.0125,0.48651
654.059,70.96559,-3.38698,2.01438,0.48624
654.659,71.0264,-3.38699,2.03382,0.48597
655.259,71.0874,-3.38698,2.05088,0.4857
655.859,71.14815,-3.3883,2.05585,0.48543
656.459,71.20921,-3.38796,2.0557,0.48516
657.059,71.26991,-3.38665,2.03443,0.4849
657.659,71.33069,-3.38929,2.03838,0.48463
658.259,71.39149,-3.39061,2.02995,0.48436
658.859,71.45227,-3.39061,2.03329,0.48409
659.459,71.51326,-3.39063,2.03015,0.48383
660.059,71.57411,-3.38884,2.04317,0.48356
660.659,71.63504,-3.38995,2.059,0.48329
661.259,71.69582,-3.38993,2.06023,0.48303
661.859,71.7568,-3.39035,2.07451,0.48276
662.459,71.81788,-3.39061,2.0908,0.4825
663.059,71.87891,-3.39061,2.09545,0.48223
663.659,71.93988,-3.39061,2.09265,0.48197
664.259,72.00063,-3.39033,2.08919,0.4817
664.859,72.06143,-3.39061,2.08885,0.48144
665.459,72.12223,-3.39201,2.09352,0.48117
666.059,72.18308,-3.39193,2.11412,0.48091
666.659,72.2439,-3.39192,2.1193,0.48064
667.259,72.3048,-3.39454,2.12599,0.48038
667.859,72.36551,-3.39325,2.13972,0.48012
668.459,72.42627,-3.39194,2.13539,0.47986
669.059,72.48698,-3.39243,2.12973,0.47959
669.659,72.54763,-3.39457,2.14937,0.47933
670.259,72.60844,-3.39456,2.15257,0.47907
670.859,72.6692,-3.3934,2.17496,0.47881
671.459,72.7302,-3.39444,2.18744,0.47855
672.059,72.79129,-3.39444,2.19615,0.47829
672.659,72.85213,-3.39576,2.21092,0.47803
673.259,72.91298,-3.39576,2.23137,0.47777
673.859,72.97363,-3.39576,2.24038,0.47751
674.459,73.03448,-3.39675,2.23579,0.47725
675.059,73.0954,-3.39693,2.26104,0.47699
675.659,73.15646,-3.39671,2.27208,0.47673
676.259,73.21773,-3.39653,2.30997,0.47647
676.859,73.27895,-3.3993,2.32699,0.47621
677.459,73.34012,-3.39971,2.33072,0.47596
678.059,73.40117,-3.40061,2.3521,0.4757
678.659,73.4623,-3.39839,2.36577,0.47544
679.259,73.5234,-3.39907,2.40138,0.47519
679.859,73.58465,-3.39906,2.42608,0.47493
680.459,73.64593,-3.39906,2.4372,0.47467
681.059,73.7071,-3.39908,2.46197,0.47442
681.659,73.7683,-3.40037,2.48764,0.47416
682.259,73.82946,-3.40066,2.56409,0.47391
682.859,73.89068,-3.40169,2.59721,0.47365
683.459,73.95204,-3.40282,2.68606,0.4734
684.059,74.0133,-3.40227,2.78405,0.47314
684.659,74.07469,-3.40234,2.8803,0.47289
685.259,74.13608,-3.40362,2.95724,0.47263
685.859,74.19748,-3.40366,3.03626,0.47238
686.459,74.25891,-3.40362,3.14356,0.47213
687.059,74.32003,-3.40432,3.25475,0.47188
687.659,74.38136,-3.40465,3.357,0.47162
688.259,74.4426,-3.40498,3.42647,0.47137
688.859,74.5038,-3.40631,3.51231,0.47112
689.459,74.56501,-3.40847,3.54017,0.47087
690.059,74.62634,-3.40893,3.58504,0.47062
690.659,74.68772,-3.40893,3.56109,0.47037
691.259,74.74892,-3.40892,3.52165,0.47012
691.859,74.81009,-3.41035,3.4747,0.46987
692.459,74.87128,-3.41166,3.40967,0.46962
693.059,74.93255,-3.41365,3.31904,0.46937
693.659,74.99377,-3.41369,3.23094,0.46912
694.259,75.05465,-3.4152,3.16938,0.46887
694.859,75.1158,-3.41631,3.10464,0.46862
695.459,75.17696,-3.41769,3.05319,0.46837
696.059,75.23826,-3.41763,3.03924,0.46812
696.659,75.29945,-3.42006,3.02986,0.46788
697.259,75.36062,-3.42115,3.01772,0.46763
697.859,75.42205,-3.42191,2.98874,0.46738
698.459,75.48336,-3.42374,2.98629,0.46714
699.059,75.54472,-3.42441,2.96612,0.46689
699.659,75.60597,-3.42629,2.94131,0.46664
700.259,75.66752,-3.42777,2.93567,0.4664
700.859,75.72891,-3.42891,2.92853,0.46615
701.459,75.79029,-3.42966,2.8835,0.46591
702.059,75.85174,-3.43111,2.84476,0.46566
702.659,75.91329,-3.43252,2.82738,0.46542
703.259,75.9749,-3.43395,2.80522,0.46518
703.859,76.0364,-3.43397,2.81403,0.46493
704.459,76.0978,-3.43394,2.79773,0.46469
705.059,76.1593,-3.43526,2.77337,0.46445
705.659,76.2207,-3.43656,2.72836,0.4642
706.259,76.2821,-3.4394,2.7271,0.46396
706.859,76.3433,-3.4398,2.70046,0.46372
707.459,76.4045,-3.43931,2.68076,0.46348
708.059,76.46588,-3.44057,2.66989,0.46324
708.659,76.5273,-3.4433,2.64111,0.463
709.259,76.58889,-3.44326,2.61957,0.46276
709.859,76.65038,-3.44428,2.56682,0.46252
710.459,76.7119,-3.44458,2.58086,0.46228
711.059,76.77343,-3.44577,2.5651,0.46204
711.659,76.83485,-3.4472,2.56692,0.4618
712.259,76.89627,-3.44835,2.52371,0.46156
712.859,76.95782,-3.4493,2.51377,0.46132
713.459,77.01926,-3.44984,2.51016,0.46108
714.059,77.08081,-3.44987,2.49852,0.46084
714.659,77.14215,-3.45115,2.51221,0.46061
715.259,77.2037,-3.45255,2.50517,0.46037
715.859,77.26535,-3.45395,2.51814,0.46013
716.459,77.32704,-3.45389,2.50999,0.4599
717.059,77.38869,-3.45521,2.51342,0.45966
717.659,77.45019,-3.45621,2.52072,0.45943
718.259,77.5117,-3.45649,2.53017,0.45919
718.859,77.57303,-3.45653,2.54592,0.45895
719.459,77.6344,-3.45653,2.54848,0.45872
720.059,77.69585,-3.45782,2.53257,0.45849
720.659,77.7573,-3.46037,2.53567,0.45825
721.259,77.81894,-3.45137,2.52723,0.45802
721.859,77.88062,-3.47201,2.50799,0.45778
722.459,77.94227,-3.46357,2.52239,0.45755
723.059,78.0039,-3.46321,2.53391,0.45732
723.659,78.06549,-3.46486,2.5394,0.45709
724.259,78.12711,-3.46387,2.53246,0.45685
724.859,78.1887,-3.46388,2.52483,0.45662
725.459,78.2503,-3.46388,2.52249,0.45639
726.059,78.31209,-3.46521,2.4921,0.45616
726.659,78.37357,-3.4652,2.52638,0.45593
727.259,78.43496,-3.46656,2.51978,0.4557
727.859,78.49634,-3.46748,2.5163,0.45547
728.459,78.55764,-3.4675,2.49863,0.45524
729.059,78.61912,-3.4675,2.48066,0.45501
729.659,78.6807,-3.46882,2.48395,0.45478
730.259,78.7423,-3.46872,2.49925,0.45455
730.859,78.80386,-3.46891,2.50986,0.45432
731.459,78.8655,-3.46883,2.53268,0.4541
732.059,78.92697,-3.47024,2.55762,0.45387
732.659,78.98876,-3.47024,2.54371,0.45364
733.259,79.05026,-3.47024,2.5541,0.45341
733.859,79.11205,-3.47024,2.53044,0.45319
734.459,79.17402,-3.47025,2.54176,0.45296
735.059,79.2358,-3.47134,2.55133,0.45274
735.659,79.29795,-3.4729,2.54317,0.45251
736.259,79.35983,-3.47299,2.54552,0.45228
736.859,79.4217,-3.47299,2.56199,0.45206
737.459,79.48356,-3.47306,2.59662,0.45183
738.059,79.54555,-3.47168,2.61864,0.45161
738.659,79.6074,-3.47299,2.62189,0.45139
739.259,79.66929,-3.473,2.61873,0.45116
739.859,79.73103,-3.47298,2.63278,0.45094
740.459,79.7928,-3.47359,2.63595,0.45072
741.059,79.85472,-3.4743,2.63544,0.45049
741.659,79.9165,-3.4743,2.64307,0.45027
742.259,79.9781,-3.47464,2.6471,0.45005
742.459,79.99898,-3.47463,2.64716,0.44998