File: 01_Data/Vinyl_Siding/STA/N2/10K_min/Vinyl_Siding_STA_N2_10KData_213006_R1.csv
##Temp./Â°C,Time/min,Mass loss(subtr.2)/mg,DSC(subtr.2)/mW,Sensit./(uV/mW)
49.336,10.01,0.00932,-0.07156482,0.61832
49.936,11.39842,0.008605672,0.03683615,0.61864
50.536,11.73651,0.008281665,0.070039,0.61896
51.136,11.97927,0.009255934,0.1167,0.61928
51.736,12.18,0.00933,0.15269,0.61959
52.336,12.35464,0.00942918,0.18332,0.61991
52.936,12.50913,0.009429435,0.2176,0.62022
53.536,12.6538,0.00961339,0.23646,0.62053
54.136,12.78815,0.008836202,0.24824,0.62084
54.736,12.91574,0.008300461,0.28124,0.62115
55.336,13.03795,0.009798729,0.29868,0.62146
55.936,13.15501,0.008453492,0.31038,0.62176
56.536,13.26799,0.008316216,0.32946,0.62207
57.136,13.3776,0.00840226,0.33333,0.62237
57.736,13.48415,0.008268247,0.3596,0.62268
58.336,13.58845,0.008663373,0.37386,0.62298
58.936,13.69065,0.01108058,0.38208,0.62328
59.536,13.7902,0.009748681,0.40141,0.62358
60.136,13.88635,0.009690417,0.40543,0.62388
60.736,13.98231,0.0097633,0.41696,0.62417
61.336,14.0775,0.0112921,0.42337,0.62447
61.936,14.16983,0.009990149,0.43842,0.62476
62.536,14.2606,0.009939289,0.42795,0.62506
63.136,14.35033,0.008672429,0.43079,0.62535
63.736,14.43925,0.01126813,0.44028,0.62564
64.336,14.52661,0.01130095,0.44474,0.62593
64.936,14.613,0.01001987,0.44624,0.62621
65.536,14.69805,0.01001775,0.44756,0.6265
66.136,14.7818,0.00998257,0.45478,0.62679
66.736,14.8654,0.00848943,0.45322,0.62707
67.336,14.94796,0.008670428,0.45219,0.62735
67.936,15.02956,0.008672215,0.47873,0.62764
68.536,15.1097,0.0099803,0.47011,0.62792
69.136,15.1898,0.008666896,0.47742,0.62819
69.736,15.2695,0.008962925,0.48318,0.62847
70.336,15.3483,0.0101996,0.49204,0.62875
70.936,15.42547,0.009980591,0.50267,0.62902
71.536,15.5027,0.009824905,0.50771,0.6293
72.136,15.5794,0.008690229,0.52572,0.62957
72.736,15.65535,0.009988899,0.51188,0.62984
73.336,15.7304,0.009982064,0.51838,0.63011
73.936,15.80478,0.009004619,0.52375,0.63038
74.536,15.8788,0.01127612,0.53326,0.63065
75.136,15.9524,0.01083703,0.53472,0.63092
75.736,16.0255,0.01130364,0.53982,0.63118
76.336,16.09846,0.01122171,0.52985,0.63145
76.936,16.17062,0.009989936,0.54265,0.63171
77.536,16.2419,0.01130663,0.55048,0.63197
78.136,16.31279,0.01117587,0.55296,0.63223
78.736,16.3835,0.009979742,0.55269,0.63249
79.336,16.4539,0.009980016,0.56362,0.63275
79.936,16.524,0.009990022,0.57017,0.633
80.536,16.59366,0.009029221,0.59507,0.63326
81.136,16.66319,0.009984016,0.59448,0.63351
81.736,16.73207,0.008654291,0.595,0.63376
82.336,16.8005,0.01000108,0.60649,0.63402
82.936,16.86864,0.009569309,0.625,0.63427
83.536,16.93655,0.008950701,0.63043,0.63451
84.136,17.00403,0.01004248,0.64755,0.63476
84.736,17.07113,0.01129942,0.66286,0.63501
85.336,17.1377,0.009946367,0.66017,0.63525
85.936,17.2038,0.01000055,0.64833,0.6355
86.536,17.2697,0.01099595,0.66014,0.63574
87.136,17.33509,0.009983607,0.64653,0.63598
87.736,17.40043,0.008660129,0.6297,0.63622
88.336,17.46586,0.009983061,0.61769,0.63646
88.936,17.5308,0.00995428,0.6054,0.6367
89.536,17.59538,0.009323715,0.58673,0.63693
90.136,17.6595,0.01001614,0.55456,0.63717
90.736,17.72348,0.009980395,0.53557,0.6374
91.336,17.78675,0.009517905,0.51066,0.63763
91.936,17.8504,0.01063324,0.49841,0.63786
92.536,17.91385,0.008617309,0.47325,0.63809
93.136,17.9776,0.008586267,0.44951,0.63832
93.736,18.04056,0.009980011,0.43546,0.63855
94.336,18.10323,0.009980087,0.41493,0.63877
94.936,18.1657,0.0105202,0.40414,0.639
95.536,18.2281,0.009989469,0.3971,0.63922
96.136,18.2901,0.00899073,0.40329,0.63945
96.736,18.3519,0.009179793,0.39223,0.63967
97.336,18.41359,0.01118107,0.38452,0.63989
97.936,18.47534,0.009980281,0.38971,0.6401
98.536,18.53709,0.008675176,0.37202,0.64032
99.136,18.5985,0.00866,0.38279,0.64054
99.736,18.65938,0.008660324,0.39058,0.64075
100.336,18.72018,0.009978581,0.38683,0.64096
100.936,18.78114,0.01073419,0.38886,0.64118
101.536,18.84205,0.00997421,0.38647,0.64139
102.136,18.90263,0.009960844,0.38849,0.6416
102.736,18.96329,0.009588155,0.39162,0.64181
103.336,19.02358,0.00861817,0.39644,0.64201
103.936,19.08389,0.008669966,0.40454,0.64222
104.536,19.14388,0.008629688,0.39491,0.64242
105.136,19.20392,0.009989,0.39858,0.64263
105.736,19.264,0.00997575,0.39974,0.64283
106.336,19.32382,0.009962333,0.40157,0.64303
106.936,19.38353,0.01092796,0.39087,0.64323
107.536,19.44305,0.01086816,0.40089,0.64343
108.136,19.50271,0.009977461,0.39393,0.64362
108.736,19.56235,0.009980034,0.40119,0.64382
109.336,19.622,0.01006301,0.40712,0.64401
109.936,19.6813,0.01031323,0.39261,0.64421
110.536,19.74053,0.00999016,0.39771,0.6444
111.136,19.7998,0.01062949,0.40234,0.64459
111.736,19.8588,0.009980272,0.40111,0.64478
112.336,19.9178,0.009980016,0.40125,0.64497
112.936,19.9768,0.01003092,0.39802,0.64515
113.536,20.03567,0.008660836,0.3935,0.64534
114.136,20.09439,0.00866,0.42215,0.64552
114.736,20.15298,0.008658938,0.49394,0.64571
115.336,20.21159,0.009397793,0.55645,0.64589
115.936,20.27018,0.00866468,0.60944,0.64607
116.536,20.3287,0.00867421,0.64361,0.64625
117.136,20.38719,0.007350801,0.66872,0.64642
117.736,20.44549,0.00843408,0.67936,0.6466
118.336,20.50371,0.008659929,0.69766,0.64678
118.936,20.56215,0.008659998,0.69977,0.64695
119.536,20.62004,0.008659905,0.71092,0.64712
120.136,20.67811,0.008164211,0.71984,0.6473
120.736,20.7359,0.00867187,0.71384,0.64747
121.336,20.79365,0.01003573,0.7177,0.64764
121.936,20.85161,0.008670709,0.72662,0.6478
122.536,20.90946,0.008670021,0.7251,0.64797
123.136,20.96725,0.00910427,0.73255,0.64813
123.736,21.0245,0.009980246,0.73215,0.6483
124.336,21.0822,0.009965916,0.72905,0.64846
124.936,21.13951,0.008660155,0.73374,0.64862
125.536,21.19685,0.008659176,0.7478,0.64878
126.136,21.25414,0.008714332,0.73667,0.64894
126.736,21.3111,0.00867001,0.73417,0.6491
127.336,21.36795,0.008671519,0.74144,0.64926
127.936,21.4249,0.007999269,0.73205,0.64941
128.536,21.48164,0.007348771,0.74854,0.64957
129.136,21.53858,0.008671791,0.75119,0.64972
129.736,21.5955,0.008670002,0.75089,0.64987
130.336,21.6522,0.008669573,0.74832,0.65002
130.936,21.70887,0.007390977,0.77056,0.65017
131.536,21.7656,0.007876968,0.77058,0.65032
132.136,21.82206,0.008660031,0.77296,0.65047
132.736,21.87823,0.00866,0.77009,0.65061
133.336,21.9341,0.008660289,0.78446,0.65075
133.936,21.98999,0.008010556,0.78415,0.6509
134.536,22.04606,0.008010075,0.78738,0.65104
135.136,22.10209,0.00801,0.79353,0.65118
135.736,22.1584,0.00801,0.79969,0.65132
136.336,22.2146,0.00801612,0.79549,0.65146
136.936,22.27058,0.00669057,0.79357,0.65159
137.536,22.32655,0.00668815,0.80121,0.65173
138.136,22.38243,0.00734061,0.80238,0.65186
138.736,22.43804,0.007859872,0.81166,0.652
139.336,22.4936,0.00734996,0.81447,0.65213
139.936,22.54896,0.00735838,0.81628,0.65226
140.536,22.6042,0.008347055,0.83908,0.65239
141.136,22.6595,0.007019371,0.87452,0.65252
141.736,22.71472,0.00702,0.89611,0.65264
142.336,22.76994,0.00702,0.90226,0.65277
142.936,22.82499,0.00702,0.90194,0.65289
143.536,22.8801,0.007020001,0.90888,0.65301
144.136,22.9352,0.006985895,0.91841,0.65314
144.736,22.99054,0.00734525,0.91924,0.65326
145.336,23.0457,0.00867126,0.92567,0.65338
145.936,23.10087,0.007346864,0.92508,0.65349
146.536,23.1559,0.00734501,0.9343,0.65361
147.136,23.21063,0.008011672,0.93594,0.65373
147.736,23.26555,0.008009997,0.93215,0.65384
148.336,23.32039,0.00801049,0.92527,0.65395
148.936,23.37525,0.007564524,0.93326,0.65407
149.536,23.4303,0.00799998,0.93978,0.65418
150.136,23.48517,0.008000403,0.9457,0.65429
150.736,23.54019,0.006692841,0.94078,0.65439
151.336,23.5951,0.006689967,0.94726,0.6545
151.936,23.6499,0.00669,0.95451,0.65461
152.536,23.70467,0.00669,0.95058,0.65471
153.136,23.75938,0.006690045,0.94861,0.65482
153.736,23.81394,0.00810594,0.95164,0.65492
154.336,23.86843,0.00802767,0.9526,0.65502
154.936,23.9228,0.009188798,0.94587,0.65512
155.536,23.97705,0.006935465,0.95478,0.65522
156.136,24.0315,0.006694016,0.95774,0.65531
156.736,24.08607,0.007999295,0.95719,0.65541
157.336,24.1406,0.008009998,0.95649,0.6555
157.936,24.19505,0.008009872,0.96356,0.6556
158.536,24.24934,0.006741778,0.95668,0.65569
159.136,24.30376,0.006700129,0.97161,0.65578
159.736,24.35805,0.006703527,0.95648,0.65587
160.336,24.4125,0.005714009,0.96324,0.65596
160.936,24.4669,0.005709996,0.96501,0.65605
161.536,24.52126,0.005710002,0.97488,0.65613
162.136,24.57564,0.00570579,0.98246,0.65622
162.736,24.63,0.00668995,0.97649,0.6563
163.336,24.6843,0.00591128,0.98398,0.65638
163.936,24.7386,0.005411019,0.98644,0.65647
164.536,24.79276,0.004054101,0.9861,0.65655
165.136,24.847,0.00551533,0.97332,0.65663
165.736,24.90121,0.006637925,0.97222,0.6567
166.336,24.95544,0.005700275,0.96322,0.65678
166.936,25.00979,0.005699921,0.96869,0.65686
167.536,25.06405,0.00540334,0.96795,0.65693
168.136,25.11819,0.00536122,0.95755,0.657
168.736,25.1725,0.005487206,0.96683,0.65707
169.336,25.22666,0.00669297,0.9652,0.65714
169.936,25.28077,0.00538549,0.97369,0.65721
170.536,25.33514,0.00537998,0.96657,0.65728
171.136,25.38916,0.00538,0.95955,0.65735
171.736,25.44339,0.005380004,0.95623,0.65742
172.336,25.49756,0.005376567,0.9571,0.65748
172.936,25.55177,0.006679779,0.95039,0.65754
173.536,25.60596,0.006690015,0.94427,0.65761
174.136,25.66001,0.00669,0.95358,0.65767
174.736,25.71404,0.00669546,0.95139,0.65773
175.336,25.76794,0.005367859,0.96596,0.65778
175.936,25.82187,0.006730393,0.96664,0.65784
176.536,25.87578,0.00660127,0.97205,0.6579
177.136,25.92963,0.005370113,0.97522,0.65795
177.736,25.98366,0.00537046,0.97892,0.65801
178.336,26.03784,0.00574461,0.98303,0.65806
178.936,26.09204,0.00536913,0.9753,0.65811
179.536,26.1462,0.004087969,0.97592,0.65816
180.136,26.2002,0.004049984,0.97499,0.65821
180.736,26.2541,0.004407717,0.97944,0.65826
181.336,26.308,0.005369952,0.99365,0.65831
181.936,26.3619,0.00537,1.00007,0.65835
182.536,26.41576,0.005370035,1.00288,0.6584
183.136,26.4695,0.0053632,1.01632,0.65844
183.736,26.52314,0.004059504,1.00094,0.65848
184.336,26.57684,0.004048234,1.01562,0.65852
184.936,26.63049,0.004050657,1.00911,0.65856
185.536,26.6841,0.00271443,1.01031,0.6586
186.136,26.7377,0.003698483,1.01982,0.65864
186.736,26.79102,0.00406009,1.02419,0.65867
187.336,26.84463,0.00405954,1.03349,0.65871
187.936,26.89815,0.005414256,1.02974,0.65874
188.536,26.95171,0.00538003,1.02594,0.65878
189.136,27.0054,0.00538036,1.02838,0.65881
189.736,27.05893,0.004772424,1.0275,0.65884
190.336,27.11252,0.004720089,1.01408,0.65887
190.936,27.1661,0.00472003,1.01526,0.6589
191.536,27.2197,0.004716677,1.02922,0.65892
192.136,27.2732,0.004061248,1.02929,0.65895
192.736,27.32658,0.004156339,1.01945,0.65897
193.336,27.3799,0.003063278,1.0234,0.659
193.936,27.43347,0.00265405,1.01893,0.65902
194.536,27.48694,0.00315265,1.02616,0.65904
195.136,27.5406,0.004020099,1.0174,0.65906
195.736,27.59412,0.00275015,1.02401,0.65908
196.336,27.6474,0.002737228,1.02778,0.6591
196.936,27.7007,0.001428604,1.02816,0.65911
197.536,27.75415,0.001430957,1.02453,0.65913
198.136,27.8077,0.005024921,1.02791,0.65914
198.736,27.86141,0.00545519,1.02235,0.65916
199.336,27.91507,-0.001491404,1.0275,0.65917
199.936,27.96837,0.001769937,1.02472,0.65918
200.536,28.0217,0.003286996,1.01777,0.65919
201.136,28.0751,0.003290005,1.01887,0.6592
201.736,28.12862,0.00329,1.00928,0.6592
202.336,28.1823,0.00329022,1.01371,0.65921
202.936,28.23586,0.002729955,1.00039,0.65922
203.536,28.2893,0.001970017,1.01465,0.65922
204.136,28.34277,0.00197,1.01095,0.65922
204.736,28.39609,0.00197,1.00012,0.65922
205.336,28.4493,0.001970001,1.01049,0.65922
205.936,28.50292,0.001972014,1.00419,0.65922
206.536,28.5564,0.004656233,1.00459,0.65922
207.136,28.60998,0.004288101,1.00806,0.65922
207.736,28.66358,-0.004631993,1.00794,0.65922
208.336,28.71712,-0.001241287,0.99757,0.65921
208.936,28.7705,0.000120182,1.00089,0.6592
209.536,28.8239,8.031854e-05,1.0013,0.6592
210.136,28.87728,0.001431931,1.0022,0.65919
210.736,28.9306,0.001390057,1.00458,0.65918
211.336,28.98387,7.095951e-05,0.99371,0.65917
211.936,29.03718,-0.00117454,1.00502,0.65916
212.536,29.0904,0.0001201098,1.00228,0.65914
213.136,29.14385,0.000193847,0.99755,0.65913
213.736,29.1974,-0.002316458,1.00588,0.65912
214.336,29.2509,-0.002519941,1.00755,0.6591
214.936,29.30465,-0.00252,1.00582,0.65908
215.536,29.35796,-0.00252,0.99367,0.65906
216.136,29.41136,-0.00252,1.00121,0.65904
216.736,29.46472,-0.002519991,0.99926,0.65902
217.336,29.5178,-0.002525895,1.00512,0.659
217.936,29.5711,-0.001201014,1.00293,0.65898
218.536,29.6242,-0.001247179,0.99443,0.65896
219.136,29.6775,-0.002519091,0.97823,0.65893
219.736,29.7309,-0.002532421,0.9773,0.65891
220.336,29.78428,-0.002511377,0.98281,0.65888
220.936,29.83783,-0.00386222,0.99436,0.65885
221.536,29.89132,-0.003748715,0.98718,0.65882
222.136,29.94466,-0.003244125,0.97209,0.65879
222.736,29.9982,-0.004175481,0.97975,0.65876
223.336,30.05175,-0.004170005,0.98728,0.65873
223.936,30.1051,-0.00417,0.97043,0.65869
224.536,30.1587,-0.00417003,0.97744,0.65866
225.136,30.2119,-0.004221223,0.981,0.65862
225.736,30.26517,-0.00550544,0.96699,0.65859
226.336,30.31857,-0.00644703,0.96897,0.65855
226.936,30.3717,-0.006797883,0.97803,0.65851
227.536,30.42513,-0.008116777,0.97804,0.65847
228.136,30.4786,-0.008109954,0.97526,0.65843
228.736,30.53215,-0.008023071,0.97275,0.65839
229.336,30.58577,-0.006802012,0.97095,0.65834
229.936,30.63915,-0.007780618,0.97357,0.6583
230.536,30.69265,-0.007790976,0.98095,0.65825
231.136,30.74608,-0.00906542,0.9844,0.65821
231.736,30.79921,-0.01009503,0.97028,0.65816
232.336,30.8527,-0.008849775,0.97416,0.65811
232.936,30.90625,-0.009100258,0.97113,0.65806
233.536,30.9597,-0.0104016,0.98671,0.65801
234.136,31.01343,-0.01041987,0.98403,0.65796
234.736,31.0669,-0.01042013,0.98625,0.6579
235.336,31.12025,-0.01043524,0.97653,0.65785
235.936,31.17388,-0.01174026,0.9744,0.6578
236.536,31.2273,-0.01036728,0.97843,0.65774
237.136,31.2808,-0.01147701,0.97931,0.65768
237.736,31.3344,-0.01437538,0.98173,0.65763
238.336,31.3878,-0.01437022,0.98036,0.65757
238.936,31.4412,-0.01360711,1.00252,0.65751
239.536,31.4946,-0.01296019,0.98895,0.65745
240.136,31.548,-0.01571008,1.00277,0.65738
240.736,31.6015,-0.01615986,1.00799,0.65732
241.336,31.6551,-0.01843429,1.02517,0.65726
241.936,31.70873,-0.01962953,1.00364,0.65719
242.536,31.76251,-0.02093045,1.02719,0.65712
243.136,31.81611,-0.02075913,1.02605,0.65706
243.736,31.86985,-0.02225188,1.03463,0.65699
244.336,31.92333,-0.02451212,1.04552,0.65692
244.936,31.9768,-0.02490175,1.04799,0.65685
245.536,32.03049,-0.02621183,1.04105,0.65678
246.136,32.0841,-0.02621163,1.05509,0.6567
246.736,32.13777,-0.02751264,1.05351,0.65663
247.336,32.1914,-0.02882675,1.04617,0.65656
247.936,32.2449,-0.03122248,1.05093,0.65648
248.536,32.29846,-0.03182799,1.05576,0.6564
249.136,32.3521,-0.03183173,1.05835,0.65633
249.736,32.4056,-0.0324905,1.06567,0.65625
250.336,32.45929,-0.03571385,1.06462,0.65617
250.936,32.51232,-0.03576589,1.0605,0.65609
251.536,32.56607,-0.0370956,1.0618,0.65601
252.136,32.61994,-0.0417803,1.07472,0.65592
252.736,32.67367,-0.04095479,1.0662,0.65584
253.336,32.7278,-0.03779666,1.06664,0.65576
253.936,32.7813,-0.04309828,1.05396,0.65567
254.536,32.8348,-0.04429646,1.06561,0.65558
255.136,32.88832,-0.04431148,1.06503,0.6555
255.736,32.942,-0.04703192,1.06297,0.65541
256.336,32.99558,-0.04831646,1.05654,0.65532
256.936,33.0493,-0.04827011,1.05927,0.65523
257.536,33.10269,-0.04959502,1.06958,0.65514
258.136,33.15637,-0.05219494,1.05258,0.65505
258.736,33.2096,-0.0440623,1.06353,0.65495
259.336,33.2633,-0.06216667,1.07907,0.65486
259.936,33.3172,-0.06225814,1.06952,0.65476
260.536,33.37102,-0.06010963,1.07743,0.65467
261.136,33.42516,-0.06011075,1.07509,0.65457
261.736,33.4788,-0.06154657,1.07946,0.65447
262.336,33.5324,-0.06183633,1.08301,0.65437
262.936,33.58586,-0.06188517,1.07478,0.65427
263.536,33.63962,-0.06935662,1.09529,0.65417
264.136,33.69331,-0.0678386,1.08265,0.65407
264.736,33.7472,-0.06295086,1.08283,0.65396
265.336,33.80104,-0.06812612,1.07695,0.65386
265.936,33.85459,-0.06985466,1.0928,0.65376
266.536,33.90807,-0.07165473,1.08554,0.65365
267.136,33.96176,-0.07629991,1.0956,0.65354
267.736,34.01553,-0.07866262,1.09003,0.65343
268.336,34.06935,-0.08054704,1.10056,0.65333
268.936,34.12325,-0.08280407,1.10301,0.65322
269.536,34.17699,-0.08599931,1.10633,0.65311
270.136,34.2306,-0.08948931,1.11721,0.65299
270.736,34.28458,-0.09246501,1.10536,0.65288
271.336,34.33848,-0.09387684,1.11284,0.65277
271.936,34.39228,-0.09516184,1.11129,0.65265
272.536,34.44611,-0.0982537,1.10395,0.65254
273.136,34.49985,-0.1009,1.1179,0.65242
273.736,34.55366,-0.10303,1.11252,0.6523
274.336,34.6075,-0.10818,1.10622,0.65219
274.936,34.66131,-0.11353,1.09816,0.65207
275.536,34.71503,-0.11791,1.08666,0.65195
276.136,34.76886,-0.12217,1.08987,0.65183
276.736,34.82263,-0.12576,1.10509,0.6517
277.336,34.8765,-0.13044,1.1396,0.65158
277.936,34.93036,-0.13518,1.17011,0.65146
278.536,34.98422,-0.14124,1.22845,0.65133
279.136,35.0381,-0.14773,1.30723,0.65121
279.736,35.09214,-0.15387,1.3782,0.65108
280.336,35.14593,-0.16093,1.45006,0.65095
280.936,35.1999,-0.16847,1.5355,0.65083
281.536,35.2539,-0.17565,1.61073,0.6507
282.136,35.30788,-0.18452,1.69977,0.65057
282.736,35.3621,-0.19365,1.7794,0.65044
283.336,35.41623,-0.20339,1.84163,0.6503
283.936,35.4704,-0.21187,1.91558,0.65017
284.536,35.52465,-0.22268,1.98886,0.65004
285.136,35.57885,-0.23349,2.04767,0.6499
285.736,35.6331,-0.24504,2.1114,0.64977
286.336,35.68721,-0.25828,2.16889,0.64963
286.936,35.74135,-0.26982,2.23528,0.64949
287.536,35.7956,-0.28204,2.27277,0.64936
288.136,35.8497,-0.29552,2.32435,0.64922
288.736,35.90388,-0.31069,2.36771,0.64908
289.336,35.95803,-0.32357,2.42583,0.64894
289.936,36.01225,-0.33779,2.47643,0.64879
290.536,36.06651,-0.35337,2.50373,0.64865
291.136,36.12084,-0.36903,2.53625,0.64851
291.736,36.17498,-0.38603,2.59167,0.64836
292.336,36.2293,-0.404,2.63247,0.64822
292.936,36.2836,-0.42015,2.67372,0.64807
293.536,36.33793,-0.43674,2.71416,0.64793
294.136,36.39237,-0.45721,2.74365,0.64778
294.736,36.4467,-0.47593,2.77652,0.64763
295.336,36.5011,-0.4922,2.81302,0.64748
295.936,36.5554,-0.51439,2.85041,0.64733
296.536,36.60958,-0.53335,2.8727,0.64718
297.136,36.6637,-0.55247,2.89095,0.64703
297.736,36.71797,-0.5744,2.91357,0.64688
298.336,36.7723,-0.5956,2.93751,0.64672
298.936,36.82669,-0.61606,2.95639,0.64657
299.536,36.88114,-0.63707,2.98143,0.64641
300.136,36.9355,-0.6609,2.99854,0.64626
300.736,36.98992,-0.68178,3.01347,0.6461
301.336,37.0443,-0.70506,3.00882,0.64594
301.936,37.09868,-0.72747,3.00832,0.64578
302.536,37.15313,-0.74935,2.99087,0.64562
303.136,37.20747,-0.77261,2.97522,0.64546
303.736,37.26195,-0.79413,2.95463,0.6453
304.336,37.3163,-0.81517,2.9464,0.64514
304.936,37.3705,-0.83754,2.90285,0.64498
305.536,37.42479,-0.85656,2.87779,0.64481
306.136,37.47875,-0.88099,2.85215,0.64465
306.736,37.5329,-0.90025,2.82043,0.64448
307.336,37.58706,-0.92081,2.77525,0.64432
307.936,37.6413,-0.94016,2.73243,0.64415
308.536,37.6956,-0.96062,2.68673,0.64398
309.136,37.75,-0.97872,2.63913,0.64382
309.736,37.80423,-0.998,2.60315,0.64365
310.336,37.8585,-1.01891,2.55818,0.64348
310.936,37.91283,-1.0354,2.51536,0.64331
311.536,37.9671,-1.05291,2.45439,0.64313
312.136,38.0214,-1.07092,2.42888,0.64296
312.736,38.07578,-1.08822,2.37264,0.64279
313.336,38.1302,-1.10526,2.3352,0.64261
313.936,38.18455,-1.12054,2.29126,0.64244
314.536,38.239,-1.13832,2.24312,0.64226
315.136,38.2934,-1.15272,2.19505,0.64209
315.736,38.34775,-1.16566,2.15961,0.64191
316.336,38.40213,-1.183,2.13559,0.64173
316.936,38.45647,-1.19667,2.09128,0.64155
317.536,38.51081,-1.21179,2.0343,0.64137
318.136,38.56524,-1.22542,1.9987,0.64119
318.736,38.61972,-1.23862,1.96412,0.64101
319.336,38.67385,-1.2532,1.92103,0.64083
319.936,38.72833,-1.26554,1.89498,0.64065
320.536,38.78284,-1.27646,1.86405,0.64047
321.136,38.8373,-1.28776,1.82664,0.64028
321.736,38.89199,-1.30028,1.77911,0.6401
322.336,38.94625,-1.31362,1.77171,0.63991
322.936,39.00057,-1.32203,1.72444,0.63972
323.536,39.05514,-1.33476,1.70944,0.63954
324.136,39.1097,-1.34643,1.67572,0.63935
324.736,39.1643,-1.35718,1.64463,0.63916
325.336,39.21882,-1.36775,1.60229,0.63897
325.936,39.2733,-1.37749,1.58701,0.63878
326.536,39.32778,-1.38713,1.54636,0.63859
327.136,39.38236,-1.39743,1.52837,0.6384
327.736,39.43696,-1.40713,1.48681,0.63821
328.336,39.49153,-1.41492,1.46089,0.63801
328.936,39.54618,-1.42264,1.44167,0.63782
329.536,39.60082,-1.43091,1.40672,0.63763
330.136,39.6554,-1.43967,1.38155,0.63743
330.736,39.71006,-1.44973,1.34811,0.63723
331.336,39.7646,-1.45779,1.32646,0.63704
331.936,39.81884,-1.46537,1.28008,0.63684
332.536,39.8735,-1.47387,1.25161,0.63664
333.136,39.92796,-1.48066,1.23637,0.63644
333.736,39.98278,-1.48941,1.20171,0.63624
334.336,40.03755,-1.49584,1.15298,0.63604
334.936,40.09223,-1.50239,1.12483,0.63584
335.536,40.14691,-1.50811,1.09389,0.63564
336.136,40.20179,-1.51572,1.06889,0.63544
336.736,40.25643,-1.52239,1.03695,0.63524
337.336,40.31094,-1.53072,0.98717,0.63503
337.936,40.36534,-1.5372,0.96931,0.63483
338.536,40.41976,-1.54578,0.92936,0.63462
339.136,40.47468,-1.55037,0.90437,0.63442
339.736,40.5297,-1.55205,0.85422,0.63421
340.336,40.58489,-1.55741,0.81237,0.634
340.936,40.63973,-1.56376,0.7838,0.6338
341.536,40.6941,-1.57052,0.74733,0.63359
342.136,40.74882,-1.57519,0.70741,0.63338
342.736,40.80372,-1.58005,0.67794,0.63317
343.336,40.85866,-1.58043,0.62355,0.63296
343.936,40.91381,-1.58654,0.60228,0.63275
344.536,40.9686,-1.59164,0.59573,0.63254
345.136,41.02323,-1.59764,0.55296,0.63232
345.736,41.07802,-1.60241,0.52759,0.63211
346.336,41.13284,-1.60408,0.50321,0.6319
346.936,41.18727,-1.6096,0.45965,0.63168
347.536,41.24216,-1.61301,0.4383,0.63147
348.136,41.29699,-1.61627,0.42007,0.63125
348.736,41.35184,-1.61807,0.38393,0.63103
349.336,41.40721,-1.6208,0.35798,0.63082
349.936,41.46221,-1.62494,0.32386,0.6306
350.536,41.51705,-1.62875,0.30986,0.63038
351.136,41.57195,-1.63167,0.29071,0.63016
351.736,41.62692,-1.6334,0.27482,0.62994
352.336,41.6817,-1.63585,0.23537,0.62972
352.936,41.7369,-1.63774,0.23004,0.6295
353.536,41.79207,-1.64052,0.21619,0.62928
354.136,41.8472,-1.64309,0.19037,0.62906
354.736,41.90249,-1.64475,0.17722,0.62883
355.336,41.95747,-1.64543,0.19221,0.62861
355.936,42.01252,-1.648,0.18272,0.62839
356.536,42.0674,-1.652,0.17363,0.62816
357.136,42.12246,-1.6522,0.17565,0.62794
357.736,42.17755,-1.65359,0.16363,0.62771
358.336,42.2327,-1.6555,0.16984,0.62748
358.936,42.28799,-1.65969,0.16777,0.62726
359.536,42.3432,-1.66089,0.15982,0.62703
360.136,42.39857,-1.66098,0.16092,0.6268
360.736,42.45378,-1.66116,0.15315,0.62657
361.336,42.509,-1.66355,0.167,0.62634
361.936,42.56433,-1.66494,0.17476,0.62611
362.536,42.61958,-1.66489,0.17189,0.62588
363.136,42.67479,-1.66575,0.18403,0.62565
363.736,42.73016,-1.66624,0.1829,0.62542
364.336,42.78545,-1.66806,0.18072,0.62518
364.936,42.841,-1.66894,0.19291,0.62495
365.536,42.89648,-1.67009,0.19232,0.62472
366.136,42.9519,-1.6715,0.191,0.62448
366.736,43.00732,-1.6728,0.20104,0.62425
367.336,43.06269,-1.67205,0.20034,0.62401
367.936,43.1181,-1.67315,0.20629,0.62378
368.536,43.17358,-1.67517,0.20886,0.62354
369.136,43.22903,-1.67579,0.19126,0.6233
369.736,43.2845,-1.67744,0.18957,0.62306
370.336,43.3399,-1.67852,0.19966,0.62283
370.936,43.39552,-1.67984,0.19298,0.62259
371.536,43.4512,-1.67985,0.20424,0.62235
372.136,43.50656,-1.68022,0.20644,0.62211
372.736,43.56214,-1.68112,0.20531,0.62187
373.336,43.6175,-1.68375,0.20365,0.62162
373.936,43.673,-1.68513,0.2022,0.62138
374.536,43.7288,-1.68375,0.19873,0.62114
375.136,43.78459,-1.68648,0.19706,0.6209
375.736,43.84039,-1.68774,0.21131,0.62065
376.336,43.8961,-1.68779,0.21542,0.62041
376.936,43.95175,-1.68906,0.2111,0.62017
377.536,44.00734,-1.68978,0.20241,0.61992
378.136,44.06304,-1.69175,0.20497,0.61968
378.736,44.11895,-1.694,0.20856,0.61943
379.336,44.1749,-1.69524,0.21011,0.61918
379.936,44.23072,-1.68667,0.20327,0.61894
380.536,44.28683,-1.69727,0.21694,0.61869
381.136,44.34256,-1.70843,0.21044,0.61844
381.736,44.3983,-1.69915,0.21537,0.61819
382.336,44.45411,-1.69988,0.19761,0.61794
382.936,44.5099,-1.70134,0.2087,0.61769
383.536,44.5659,-1.70288,0.21286,0.61744
384.136,44.6218,-1.70418,0.24687,0.61719
384.736,44.67778,-1.70591,0.25246,0.61694
385.336,44.73381,-1.70706,0.25349,0.61669
385.936,44.78973,-1.70604,0.25493,0.61644
386.536,44.8454,-1.70897,0.27462,0.61618
387.136,44.90119,-1.71142,0.26663,0.61593
387.736,44.957,-1.71297,0.27726,0.61568
388.336,45.01277,-1.71319,0.28477,0.61542
388.936,45.06926,-1.71582,0.29506,0.61517
389.536,45.1254,-1.71776,0.28902,0.61491
390.136,45.1815,-1.71934,0.29027,0.61466
390.736,45.2375,-1.72145,0.2912,0.6144
391.336,45.2934,-1.72273,0.2998,0.61414
391.936,45.34915,-1.72475,0.29733,0.61389
392.536,45.40494,-1.72704,0.30251,0.61363
393.136,45.46098,-1.72843,0.295,0.61337
393.736,45.51686,-1.73037,0.29454,0.61311
394.336,45.57292,-1.73218,0.30009,0.61285
394.936,45.62903,-1.73348,0.31165,0.61259
395.536,45.68515,-1.73508,0.32056,0.61233
396.136,45.74133,-1.73792,0.31283,0.61207
396.736,45.79752,-1.73954,0.3206,0.61181
397.336,45.8536,-1.7424,0.31896,0.61155
397.936,45.90951,-1.74377,0.32547,0.61129
398.536,45.96559,-1.74614,0.32863,0.61103
399.136,46.02152,-1.74875,0.33001,0.61076
399.736,46.07752,-1.75201,0.32857,0.6105
400.336,46.13394,-1.75365,0.34125,0.61024
400.936,46.19023,-1.75663,0.34771,0.60997
401.536,46.24662,-1.75946,0.34983,0.60971
402.136,46.303,-1.76206,0.34805,0.60944
402.736,46.35934,-1.76314,0.34691,0.60918
403.336,46.4157,-1.76532,0.3363,0.60891
403.936,46.47207,-1.76876,0.342,0.60865
404.536,46.52833,-1.77233,0.35111,0.60838
405.136,46.58471,-1.77455,0.35018,0.60811
405.736,46.64112,-1.77753,0.34822,0.60784
406.336,46.69765,-1.78051,0.34675,0.60758
406.936,46.75432,-1.78358,0.35672,0.60731
407.536,46.81075,-1.78172,0.34576,0.60704
408.136,46.86737,-1.78172,0.35283,0.60677
408.736,46.92344,-1.79763,0.34204,0.6065
409.336,46.97987,-1.79401,0.33849,0.60623
409.936,47.03638,-1.79716,0.32757,0.60596
410.536,47.0929,-1.79866,0.30843,0.60569
411.136,47.14945,-1.80165,0.31631,0.60542
411.736,47.20602,-1.80489,0.31092,0.60515
412.336,47.2627,-1.80807,0.29647,0.60487
412.936,47.3194,-1.81081,0.29402,0.6046
413.536,47.37615,-1.81441,0.28343,0.60433
414.136,47.43277,-1.81522,0.2746,0.60405
414.736,47.48918,-1.81713,0.27345,0.60378
415.336,47.54568,-1.8212,0.25506,0.60351
415.936,47.60215,-1.82383,0.22952,0.60323
416.536,47.65853,-1.82691,0.23391,0.60296
417.136,47.71506,-1.82932,0.24058,0.60268
417.736,47.77143,-1.83191,0.23943,0.60241
418.336,47.8279,-1.8366,0.21986,0.60213
418.936,47.88463,-1.83991,0.2179,0.60185
419.536,47.9413,-1.84256,0.19754,0.60158
420.136,47.99815,-1.84416,0.18382,0.6013
420.736,48.0548,-1.84743,0.17982,0.60102
421.336,48.11138,-1.85123,0.16879,0.60075
421.936,48.16793,-1.85379,0.16141,0.60047
422.536,48.22455,-1.85509,0.15308,0.60019
423.136,48.28087,-1.85667,0.14333,0.59991
423.736,48.3375,-1.86144,0.11691,0.59963
424.336,48.3939,-1.86568,0.11512,0.59935
424.936,48.45053,-1.86712,0.11608,0.59907
425.536,48.5073,-1.87333,0.10517,0.59879
426.136,48.564,-1.87469,0.10495,0.59851
426.736,48.62096,-1.87904,0.09565405,0.59823
427.336,48.67752,-1.88002,0.07225233,0.59795
427.936,48.73437,-1.88145,0.07310516,0.59767
428.536,48.7911,-1.88632,0.07441999,0.59739
429.136,48.8478,-1.89262,0.06893235,0.5971
429.736,48.9048,-1.89718,0.08096179,0.59682
430.336,48.96157,-1.89899,0.06463263,0.59654
430.936,49.01853,-1.9006,0.07410772,0.59625
431.536,49.07553,-1.90483,0.0704173,0.59597
432.136,49.1324,-1.90871,0.06485395,0.59569
432.736,49.18925,-1.91203,0.06285285,0.5954
433.336,49.246,-1.91683,0.06250414,0.59512
433.936,49.30268,-1.92001,0.05896084,0.59483
434.536,49.35965,-1.92442,0.05655949,0.59455
435.136,49.41655,-1.92669,0.05505873,0.59426
435.736,49.4735,-1.93015,0.06338647,0.59398
436.336,49.5304,-1.93289,0.06157247,0.59369
436.936,49.5871,-1.93878,0.06279132,0.5934
437.536,49.644,-1.94549,0.07300956,0.59312
438.136,49.70107,-1.94702,0.06416339,0.59283
438.736,49.75832,-1.94899,0.08155366,0.59254
439.336,49.81538,-1.94037,0.08224927,0.59226
439.936,49.8721,-1.96318,0.0953021,0.59197
440.536,49.92893,-1.98267,0.08964997,0.59168
441.136,49.98584,-1.97422,0.10778,0.59139
441.736,50.04293,-1.97821,0.12146,0.5911
442.336,50.10025,-1.98303,0.15357,0.59081
442.936,50.15737,-1.98997,0.16581,0.59052
443.536,50.21471,-1.99395,0.17684,0.59024
444.136,50.27191,-1.99877,0.1929,0.58995
444.736,50.32908,-2.00544,0.20968,0.58966
445.336,50.38637,-2.00949,0.23264,0.58937
445.936,50.44355,-2.0162,0.25304,0.58907
446.536,50.5008,-2.02577,0.2764,0.58878
447.136,50.55814,-2.03037,0.30273,0.58849
447.736,50.61545,-2.03559,0.3142,0.5882
448.336,50.67272,-2.04159,0.32827,0.58791
448.936,50.72997,-2.05014,0.37003,0.58762
449.536,50.78722,-2.05565,0.3864,0.58733
450.136,50.84451,-2.06276,0.41391,0.58703
450.736,50.90187,-2.0696,0.41659,0.58674
451.336,50.95915,-2.07771,0.44677,0.58645
451.936,51.0165,-2.08486,0.44952,0.58615
452.536,51.0739,-2.09394,0.47875,0.58586
453.136,51.13108,-2.10033,0.47967,0.58557
453.736,51.18844,-2.10549,0.51128,0.58527
454.336,51.2457,-2.11238,0.51747,0.58498
454.936,51.3033,-2.1195,0.54019,0.58469
455.536,51.36074,-2.12888,0.5539,0.58439
456.136,51.41826,-2.13589,0.56178,0.5841
456.736,51.4756,-2.14416,0.58051,0.5838
457.336,51.533,-2.15158,0.59413,0.58351
457.936,51.59042,-2.15901,0.60846,0.58321
458.536,51.64806,-2.1644,0.61958,0.58291
459.136,51.70536,-2.17149,0.64061,0.58262
459.736,51.76271,-2.17799,0.64739,0.58232
460.336,51.82015,-2.18531,0.66335,0.58203
460.936,51.8774,-2.19559,0.66675,0.58173
461.536,51.93517,-2.2043,0.69164,0.58143
462.136,51.9927,-2.20881,0.69776,0.58114
462.736,52.05028,-2.21735,0.72125,0.58084
463.336,52.10792,-2.22307,0.75496,0.58054
463.936,52.16551,-2.22979,0.76662,0.58024
464.536,52.22291,-2.23955,0.77217,0.57995
465.136,52.28058,-2.24354,0.75786,0.57965
465.736,52.3382,-2.25343,0.75422,0.57935
466.336,52.396,-2.26156,0.75797,0.57905
466.936,52.45371,-2.26891,0.77792,0.57875
467.536,52.51144,-2.27286,0.76688,0.57845
468.136,52.56913,-2.27821,0.78002,0.57816
468.736,52.6268,-2.28359,0.75628,0.57786
469.336,52.6845,-2.29333,0.74876,0.57756
469.936,52.74221,-2.30001,0.74991,0.57726
470.536,52.8,-2.30462,0.75374,0.57696
471.136,52.85759,-2.311,0.7557,0.57666
471.736,52.9153,-2.31688,0.74239,0.57636
472.336,52.97303,-2.32542,0.72975,0.57606
472.936,53.0308,-2.32687,0.7197,0.57576
473.536,53.08857,-2.33363,0.71079,0.57546
474.136,53.1463,-2.33789,0.71081,0.57516
474.736,53.2041,-2.3458,0.7036,0.57486
475.336,53.2618,-2.35034,0.70949,0.57456
475.936,53.3197,-2.357,0.70035,0.57425
476.536,53.3777,-2.3619,0.68863,0.57395
477.136,53.4358,-2.36759,0.69086,0.57365
477.736,53.4939,-2.37231,0.67806,0.57335
478.336,53.55196,-2.37751,0.67469,0.57305
478.936,53.60989,-2.38107,0.67009,0.57275
479.536,53.6679,-2.38496,0.66052,0.57244
480.136,53.72589,-2.39002,0.63409,0.57214
480.736,53.78397,-2.39516,0.64539,0.57184
481.336,53.8419,-2.39847,0.64499,0.57154
481.936,53.89991,-2.40189,0.63173,0.57124
482.536,53.9577,-2.40721,0.61062,0.57093
483.136,54.0155,-2.41141,0.60973,0.57063
483.736,54.0732,-2.41558,0.60015,0.57033
484.336,54.131,-2.42112,0.58668,0.57002
484.936,54.1889,-2.42641,0.57456,0.56972
485.536,54.24694,-2.43,0.56931,0.56942
486.136,54.30503,-2.42853,0.5582,0.56911
486.736,54.3629,-2.43211,0.55303,0.56881
487.336,54.42095,-2.43775,0.54695,0.56851
487.936,54.4789,-2.44065,0.53827,0.5682
488.536,54.537,-2.44184,0.53478,0.5679
489.136,54.5951,-2.44174,0.52205,0.5676
489.736,54.65308,-2.44587,0.51518,0.56729
490.336,54.7113,-2.45019,0.5055,0.56699
490.936,54.7693,-2.45385,0.47963,0.56668
491.536,54.82735,-2.45684,0.47178,0.56638
492.136,54.8853,-2.46043,0.47291,0.56607
492.736,54.9433,-2.46512,0.44611,0.56577
493.336,55.00131,-2.467,0.44019,0.56547
493.936,55.0595,-2.46838,0.43677,0.56516
494.536,55.1176,-2.47075,0.42367,0.56486
495.136,55.1755,-2.47281,0.41189,0.56455
495.736,55.23349,-2.47433,0.41293,0.56425
496.336,55.2915,-2.47707,0.40067,0.56394
496.936,55.34961,-2.47767,0.40488,0.56364
497.536,55.408,-2.47836,0.39886,0.56333
498.136,55.4661,-2.47986,0.37986,0.56303
498.736,55.5241,-2.48035,0.38411,0.56272
499.336,55.58231,-2.48271,0.35822,0.56241
499.936,55.6406,-2.48405,0.34298,0.56211
500.536,55.6989,-2.48712,0.35997,0.5618
501.136,55.75727,-2.49024,0.34782,0.5615
501.736,55.8156,-2.4902,0.34408,0.56119
502.336,55.8738,-2.49092,0.33376,0.56089
502.936,55.93212,-2.49161,0.33537,0.56058
503.536,55.99052,-2.49284,0.31715,0.56027
504.136,56.0489,-2.49278,0.33638,0.55997
504.736,56.1073,-2.49583,0.33306,0.55966
505.336,56.16567,-2.49719,0.32728,0.55936
505.936,56.224,-2.49854,0.31883,0.55905
506.536,56.2824,-2.49864,0.31481,0.55874
507.136,56.3406,-2.50127,0.3043,0.55844
507.736,56.39875,-2.50456,0.31477,0.55813
508.336,56.457,-2.50462,0.3139,0.55782
508.936,56.5153,-2.50446,0.30703,0.55752
509.536,56.57368,-2.50318,0.31034,0.55721
510.136,56.63205,-2.50328,0.31134,0.55691
510.736,56.69053,-2.50457,0.30422,0.5566
511.336,56.749,-2.50596,0.29197,0.55629
511.936,56.80746,-2.50805,0.3024,0.55599
512.536,56.86595,-2.50873,0.30247,0.55568
513.136,56.9245,-2.5086,0.28664,0.55537
513.736,56.98288,-2.51041,0.30313,0.55507
514.336,57.0415,-2.51126,0.29169,0.55476
514.936,57.1,-2.51127,0.28759,0.55445
515.536,57.15844,-2.51144,0.29855,0.55415
516.136,57.21689,-2.51389,0.28952,0.55384
516.736,57.27551,-2.51389,0.28184,0.55353
517.336,57.3341,-2.51519,0.29148,0.55323
517.936,57.3928,-2.51389,0.28222,0.55292
518.536,57.4516,-2.51521,0.28038,0.55261
519.136,57.51014,-2.51521,0.28875,0.55231
519.736,57.5687,-2.51523,0.289,0.552
520.336,57.6272,-2.51652,0.28079,0.55169
520.936,57.6857,-2.51784,0.28038,0.55139
521.536,57.7443,-2.51792,0.27797,0.55108
522.136,57.80276,-2.51786,0.28039,0.55077
522.736,57.8613,-2.51916,0.27565,0.55047
523.336,57.91976,-2.51916,0.27316,0.55016
523.936,57.97829,-2.51787,0.27434,0.54985
524.536,58.037,-2.51918,0.26419,0.54954
525.136,58.09561,-2.52139,0.26535,0.54924
525.736,58.15432,-2.5218,0.25646,0.54893
526.336,58.21291,-2.5218,0.26595,0.54862
526.936,58.27123,-2.5218,0.25939,0.54832
527.536,58.32979,-2.52181,0.26729,0.54801
528.136,58.38847,-2.52182,0.26455,0.5477
528.736,58.44718,-2.52288,0.26197,0.5474
529.336,58.5059,-2.52311,0.26105,0.54709
529.936,58.5645,-2.52391,0.25523,0.54678
530.536,58.62311,-2.52442,0.2638,0.54648
531.136,58.6819,-2.5244,0.26607,0.54617
531.736,58.74061,-2.52413,0.27121,0.54587
532.336,58.7995,-2.52538,0.27109,0.54556
532.936,58.8583,-2.52442,0.27839,0.54525
533.536,58.917,-2.5244,0.28346,0.54495
534.136,58.97585,-2.52798,0.27661,0.54464
534.736,59.0346,-2.52894,0.29041,0.54433
535.336,59.09358,-2.52888,0.29633,0.54403
535.936,59.1525,-2.52826,0.29086,0.54372
536.536,59.2113,-2.52826,0.28429,0.54341
537.136,59.27016,-2.52826,0.28371,0.54311
537.736,59.32898,-2.52991,0.2914,0.5428
538.336,59.3878,-2.52991,0.31752,0.5425
538.936,59.4467,-2.5299,0.30708,0.54219
539.536,59.50544,-2.53123,0.31371,0.54188
540.136,59.5642,-2.5313,0.3195,0.54158
540.736,59.6231,-2.53127,0.32651,0.54127
541.336,59.682,-2.53194,0.31259,0.54097
541.936,59.741,-2.53188,0.31705,0.54066
542.536,59.79975,-2.53188,0.32335,0.54036
543.136,59.8586,-2.53188,0.3186,0.54005
543.736,59.91757,-2.53051,0.33448,0.53974
544.336,59.9765,-2.53186,0.31791,0.53944
544.936,60.03541,-2.5332,0.32241,0.53913
545.536,60.09445,-2.5333,0.31479,0.53883
546.136,60.1534,-2.5333,0.32205,0.53852
546.736,60.21236,-2.53335,0.33582,0.53822
547.336,60.27157,-2.53463,0.31883,0.53791
547.936,60.3306,-2.53392,0.33946,0.53761
548.536,60.39003,-2.53462,0.33794,0.5373
549.136,60.4492,-2.53462,0.35364,0.537
549.736,60.5083,-2.53597,0.36873,0.53669
550.336,60.5675,-2.53739,0.37262,0.53639
550.936,60.6267,-2.53606,0.36838,0.53608
551.536,60.6859,-2.53741,0.3922,0.53578
552.136,60.74511,-2.53737,0.4,0.53547
552.736,60.80435,-2.53704,0.40556,0.53517
553.336,60.8635,-2.53704,0.41685,0.53487
553.936,60.9226,-2.53704,0.40577,0.53456
554.536,60.9818,-2.53712,0.39881,0.53426
555.136,61.04091,-2.53803,0.40689,0.53395
555.736,61.10029,-2.53836,0.40597,0.53365
556.336,61.15961,-2.53966,0.4133,0.53335
556.936,61.21914,-2.53835,0.39977,0.53304
557.536,61.27853,-2.53835,0.40722,0.53274
558.136,61.33786,-2.53832,0.4059,0.53244
558.736,61.39734,-2.53933,0.41697,0.53213
559.336,61.4571,-2.53934,0.41921,0.53183
559.936,61.5167,-2.54077,0.41357,0.53153
560.536,61.57635,-2.54214,0.41737,0.53122
561.136,61.6358,-2.54143,0.40821,0.53092
561.736,61.6953,-2.54143,0.41679,0.53062
562.336,61.75485,-2.54143,0.43322,0.53031
562.936,61.8143,-2.54275,0.4327,0.53001
563.536,61.87381,-2.54274,0.41578,0.52971
564.136,61.93326,-2.54277,0.43243,0.52941
564.736,61.9926,-2.54406,0.43399,0.52911
565.336,62.0519,-2.54341,0.44009,0.5288
565.936,62.1112,-2.5434,0.42786,0.5285
566.536,62.17054,-2.54238,0.419,0.5282
567.136,62.23,-2.54307,0.42778,0.5279
567.736,62.2894,-2.54186,0.43113,0.5276
568.336,62.3489,-2.5448,0.42898,0.52729
568.936,62.4083,-2.5477,0.42208,0.52699
569.536,62.4678,-2.54462,0.42729,0.52669
570.136,62.52726,-2.54476,0.42551,0.52639
570.736,62.5867,-2.54593,0.42929,0.52609
571.336,62.64624,-2.545,0.42171,0.52579
571.936,62.7058,-2.54352,0.42359,0.52549
572.536,62.76545,-2.54634,0.42863,0.52519
573.136,62.82495,-2.54629,0.43119,0.52489
573.736,62.88434,-2.54724,0.43799,0.52459
574.336,62.94376,-2.54753,0.42666,0.52429
574.936,63.003,-2.54759,0.44648,0.52399
575.536,63.0627,-2.54889,0.44011,0.52369
576.136,63.1223,-2.54757,0.45226,0.52339
576.736,63.18245,-2.54757,0.46319,0.52309
577.336,63.24216,-2.54758,0.46341,0.52279
577.936,63.3019,-2.54889,0.44694,0.52249
578.536,63.36165,-2.5492,0.46999,0.52219
579.136,63.4213,-2.54854,0.46382,0.52189
579.736,63.4809,-2.55182,0.47813,0.52159
580.336,63.54081,-2.55217,0.47744,0.5213
580.936,63.6003,-2.55152,0.48471,0.521
581.536,63.6602,-2.55086,0.48234,0.5207
582.136,63.72009,-2.54942,0.50576,0.5204
582.736,63.78017,-2.54943,0.50614,0.5201
583.336,63.8401,-2.55075,0.50634,0.51981
583.936,63.89999,-2.55075,0.51546,0.51951
584.536,63.95946,-2.55207,0.52163,0.51921
585.136,64.01921,-2.55166,0.51608,0.51891
585.736,64.07891,-2.55201,0.52771,0.51862
586.336,64.13846,-2.55342,0.53656,0.51832
586.936,64.19843,-2.55338,0.54685,0.51802
587.536,64.2577,-2.55338,0.55352,0.51773
588.136,64.3174,-2.55266,0.54865,0.51743
588.736,64.37711,-2.55338,0.55375,0.51714
589.336,64.43745,-2.55338,0.56115,0.51684
589.936,64.49764,-2.55452,0.54947,0.51654
590.536,64.5579,-2.5547,0.55723,0.51625
591.136,64.6177,-2.55471,0.58322,0.51595
591.736,64.67737,-2.55337,0.57942,0.51566
592.336,64.73727,-2.5547,0.57656,0.51536
592.936,64.7973,-2.55514,0.58952,0.51507
593.536,64.85724,-2.55441,0.60114,0.51477
594.136,64.9174,-2.55489,0.62651,0.51448
594.736,64.9773,-2.55766,0.63457,0.51418
595.336,65.0372,-2.55631,0.64013,0.51389
595.936,65.09711,-2.55522,0.65399,0.5136
596.536,65.15719,-2.55371,0.67238,0.5133
597.136,65.21732,-2.55443,0.68463,0.51301
597.736,65.2773,-2.5552,0.71132,0.51272
598.336,65.3373,-2.55536,0.72396,0.51242
598.936,65.3971,-2.55667,0.7334,0.51213
599.536,65.45681,-2.55801,0.75089,0.51184
600.136,65.5167,-2.55798,0.76301,0.51155
600.736,65.5766,-2.55798,0.7826,0.51125
601.336,65.63675,-2.55929,0.80317,0.51096
601.936,65.69683,-2.56048,0.81548,0.51067
602.536,65.7569,-2.56038,0.84256,0.51038
603.136,65.8168,-2.56029,0.87306,0.51009
603.736,65.8768,-2.56028,0.90423,0.5098
604.336,65.93681,-2.56041,0.91955,0.50951
604.936,65.9969,-2.56172,0.94318,0.50921
605.536,66.05699,-2.56172,0.96061,0.50892
606.136,66.1168,-2.56168,0.99486,0.50863
606.736,66.177,-2.56205,1.04123,0.50834
607.336,66.23705,-2.56073,1.074,0.50805
607.936,66.29724,-2.56073,1.09803,0.50776
608.536,66.35757,-2.5607,1.13778,0.50747
609.136,66.41776,-2.56304,1.15431,0.50719
609.736,66.47792,-2.56169,1.17154,0.5069
610.336,66.53809,-2.56438,1.19253,0.50661
610.936,66.59823,-2.56622,1.20377,0.50632
611.536,66.6585,-2.56489,1.21577,0.50603
612.136,66.71876,-2.57058,1.18342,0.50574
612.736,66.77891,-2.55681,1.18871,0.50545
613.336,66.839,-2.5637,1.14825,0.50517
613.936,66.89913,-2.56381,1.09372,0.50488
614.536,66.95918,-2.56511,1.03955,0.50459
615.136,67.0192,-2.56511,0.97164,0.50431
615.736,67.0792,-2.56511,0.92386,0.50402
616.336,67.13946,-2.56644,0.86825,0.50373
616.936,67.19972,-2.56773,0.83045,0.50345
617.536,67.26006,-2.56754,0.80214,0.50316
618.136,67.32002,-2.56853,0.79042,0.50287
618.736,67.3802,-2.57337,0.77879,0.50259
619.336,67.4405,-2.56553,0.78205,0.5023
619.936,67.50116,-2.56832,0.81005,0.50202
620.536,67.5615,-2.5683,0.7928,0.50173
621.136,67.62185,-2.5683,0.78438,0.50145
621.736,67.68207,-2.56962,0.80652,0.50117
622.336,67.74243,-2.57061,0.80431,0.50088
622.936,67.80253,-2.57192,0.80745,0.5006
623.536,67.8629,-2.57191,0.80706,0.50031
624.136,67.92328,-2.57191,0.82,0.50003
624.736,67.9839,-2.57062,0.82917,0.49975
625.336,68.0442,-2.57192,0.83398,0.49947
625.936,68.10432,-2.57192,0.83255,0.49918
626.536,68.16464,-2.57192,0.8469,0.4989
627.136,68.22482,-2.57325,0.83701,0.49862
627.736,68.28524,-2.57288,0.83755,0.49834
628.336,68.3457,-2.5743,0.84726,0.49806
628.936,68.4058,-2.57211,0.86311,0.49777
629.536,68.4662,-2.56235,0.87244,0.49749
630.136,68.52642,-2.58796,0.85185,0.49721
630.736,68.5868,-2.57466,0.86618,0.49693
631.336,68.64703,-2.57456,0.86569,0.49665
631.936,68.70745,-2.57194,0.87323,0.49637
632.536,68.76787,-2.57056,0.86755,0.49609
633.136,68.8283,-2.57327,0.88231,0.49581
633.736,68.88877,-2.57523,0.88045,0.49553
634.336,68.94914,-2.57522,0.90179,0.49525
634.936,69.00969,-2.57718,0.89084,0.49498
635.536,69.07036,-2.57718,0.90514,0.4947
636.136,69.131,-2.57582,0.9063,0.49442
636.736,69.19161,-2.57587,0.91897,0.49414
637.336,69.2521,-2.57587,0.92089,0.49386
637.936,69.31267,-2.5772,0.91471,0.49359
638.536,69.3733,-2.5785,0.94584,0.49331
639.136,69.43395,-2.5785,0.93519,0.49303
639.736,69.49468,-2.57845,0.94765,0.49276
640.336,69.55536,-2.58113,0.9615,0.49248
640.936,69.61595,-2.57982,0.98087,0.4922
641.536,69.67649,-2.57982,0.9691,0.49193
642.136,69.73705,-2.57982,0.97438,0.49165
642.736,69.79775,-2.579,0.97589,0.49138
643.336,69.85834,-2.57982,0.9876,0.4911
643.936,69.91928,-2.57982,1.00291,0.49083
644.536,69.98002,-2.5808,1.0016,0.49055
645.136,70.04079,-2.58118,1.02269,0.49028
645.736,70.10155,-2.58245,1.00982,0.49001
646.336,70.1623,-2.58024,1.02961,0.48973
646.936,70.22296,-2.57975,1.02916,0.48946
647.536,70.28344,-2.5808,1.04013,0.48919
648.136,70.34395,-2.58079,1.02587,0.48892
648.736,70.40459,-2.57943,1.04981,0.48864
649.336,70.46506,-2.58167,1.05683,0.48837
649.936,70.5256,-2.58212,1.07899,0.4881
650.536,70.58645,-2.58212,1.0883,0.48783
651.136,70.6471,-2.58244,1.08958,0.48756
651.736,70.7083,-2.58244,1.10281,0.48729
652.336,70.76913,-2.58343,1.12829,0.48702
652.936,70.82977,-2.58375,1.132,0.48674
653.536,70.8904,-2.58442,1.14942,0.48648
654.136,70.95099,-2.58354,1.15627,0.48621
654.736,71.0117,-2.58648,1.15841,0.48594
655.336,71.07248,-2.58496,1.15825,0.48567
655.936,71.13334,-2.58257,1.16574,0.4854
656.536,71.19431,-2.58289,1.18556,0.48513
657.136,71.25519,-2.58261,1.18361,0.48486
657.736,71.31622,-2.58395,1.20256,0.48459
658.336,71.37729,-2.58566,1.23561,0.48433
658.936,71.43814,-2.58694,1.24842,0.48406
659.536,71.49914,-2.58551,1.26717,0.48379
660.136,71.56,-2.5842,1.28758,0.48352
660.736,71.62083,-2.58553,1.29016,0.48326
661.336,71.68215,-2.58684,1.29632,0.48299
661.936,71.7431,-2.58552,1.31956,0.48273
662.536,71.804,-2.58532,1.31332,0.48246
663.136,71.86485,-2.58692,1.32855,0.4822
663.736,71.92564,-2.5869,1.34562,0.48193
664.336,71.9866,-2.58564,1.37066,0.48167
664.936,72.0474,-2.58694,1.36936,0.4814
665.536,72.1083,-2.58563,1.37961,0.48114
666.136,72.16911,-2.58695,1.37248,0.48087
666.736,72.2299,-2.58925,1.37951,0.48061
667.336,72.29085,-2.58926,1.39697,0.48035
667.936,72.35172,-2.58876,1.38928,0.48009
668.536,72.4126,-2.59065,1.38033,0.47982
669.136,72.4736,-2.59103,1.4131,0.47956
669.736,72.5347,-2.59203,1.42655,0.4793
670.336,72.59559,-2.59046,1.44637,0.47904
670.936,72.65679,-2.59155,1.44496,0.47878
671.536,72.71783,-2.59155,1.46762,0.47852
672.136,72.77885,-2.59155,1.48416,0.47825
672.736,72.84016,-2.59155,1.50847,0.47799
673.336,72.901,-2.59056,1.50926,0.47773
673.936,72.96234,-2.59056,1.52218,0.47747
674.536,73.02351,-2.58927,1.51583,0.47722
675.136,73.08474,-2.59056,1.52717,0.47696
675.736,73.14562,-2.59055,1.54738,0.4767
676.336,73.2063,-2.59056,1.57229,0.47644
676.936,73.26723,-2.59187,1.57682,0.47618
677.536,73.32799,-2.59163,1.57299,0.47592
678.136,73.3888,-2.59059,1.60394,0.47567
678.736,73.4495,-2.59188,1.61252,0.47541
679.336,73.5103,-2.5929,1.64752,0.47515
679.936,73.5716,-2.59329,1.66872,0.4749
680.536,73.63293,-2.59419,1.70107,0.47464
681.136,73.6947,-2.59446,1.73001,0.47438
681.736,73.75599,-2.59396,1.77184,0.47413
682.336,73.81715,-2.59467,1.81698,0.47387
682.936,73.8784,-2.59528,1.85477,0.47362
683.536,73.9396,-2.59528,1.89355,0.47336
684.136,74.0008,-2.59527,1.94167,0.47311
684.736,74.06174,-2.59752,2.02299,0.47286
685.336,74.12278,-2.59668,2.11401,0.4726
685.936,74.18386,-2.59803,2.19192,0.47235
686.536,74.24506,-2.59803,2.25376,0.4721
687.136,74.30636,-2.59803,2.3347,0.47184
687.736,74.3677,-2.59803,2.40643,0.47159
688.336,74.429,-2.59844,2.48997,0.47134
688.936,74.49045,-2.59934,2.54955,0.47109
689.536,74.55184,-2.59935,2.61233,0.47084
690.136,74.61345,-2.60071,2.64822,0.47058
690.736,74.67488,-2.60142,2.69125,0.47033
691.336,74.73639,-2.60141,2.69877,0.47008
691.936,74.79788,-2.59962,2.66813,0.46983
692.536,74.8593,-2.60153,2.65711,0.46958
693.136,74.9208,-2.60367,2.62473,0.46933
693.736,74.98213,-2.60563,2.60569,0.46909
694.336,75.04353,-2.60562,2.58405,0.46884
694.936,75.105,-2.6069,2.5833,0.46859
695.536,75.16596,-2.6069,2.57523,0.46834
696.136,75.22721,-2.60833,2.57632,0.46809
696.736,75.28842,-2.60965,2.57645,0.46784
697.336,75.3498,-2.61096,2.58425,0.4676
697.936,75.41123,-2.6122,2.59092,0.46735
698.536,75.47273,-2.61227,2.6268,0.4671
699.136,75.53416,-2.6136,2.6353,0.46686
699.736,75.59575,-2.61415,2.63778,0.46661
700.336,75.65714,-2.61507,2.64504,0.46637
700.936,75.71836,-2.61489,2.63831,0.46612
701.536,75.77919,-2.61624,2.64485,0.46588
702.136,75.8403,-2.61756,2.63941,0.46563
702.736,75.90159,-2.61885,2.6417,0.46539
703.336,75.96315,-2.61881,2.6464,0.46515
703.936,76.02503,-2.61952,2.64396,0.4649
704.536,76.0865,-2.61952,2.65352,0.46466
705.136,76.1477,-2.62021,2.65458,0.46442
705.736,76.2091,-2.62117,2.63961,0.46417
706.336,76.27042,-2.62152,2.33688,0.46393
706.936,76.33175,-2.62434,2.33893,0.46369
707.536,76.39313,-2.62567,2.34582,0.46345
708.136,76.4545,-2.62429,2.3473,0.46321
708.736,76.51603,-2.62437,2.35387,0.46297
709.336,76.57759,-2.62634,2.35013,0.46273
709.936,76.63905,-2.62846,2.35826,0.46249
710.536,76.70056,-2.62852,2.37647,0.46225
711.136,76.762,-2.62992,2.36933,0.46201
711.736,76.82341,-2.62998,2.3479,0.46177
712.336,76.88479,-2.63422,2.33854,0.46153
712.936,76.94629,-2.63488,2.3042,0.46129
713.536,77.0077,-2.63488,2.29706,0.46105
714.136,77.06911,-2.63487,2.29165,0.46081
714.736,77.13072,-2.6329,2.2841,0.46058
715.336,77.19224,-2.63421,2.28697,0.46034
715.936,77.2537,-2.63358,2.29234,0.4601
716.536,77.31511,-2.63373,2.2987,0.45987
717.136,77.37645,-2.6351,2.31264,0.45963
717.736,77.4381,-2.6351,2.31872,0.4594
718.336,77.4996,-2.63735,2.31758,0.45916
718.936,77.56138,-2.63863,2.31248,0.45892
719.536,77.6229,-2.63773,2.3056,0.45869
720.136,77.6846,-2.63776,2.31196,0.45846
720.736,77.7462,-2.63841,2.30284,0.45822
721.336,77.80751,-2.63938,2.30408,0.45799
721.936,77.8691,-2.63939,2.31013,0.45775
722.536,77.9305,-2.64168,2.31881,0.45752
723.136,77.9921,-2.64177,2.32929,0.45729
723.736,78.0539,-2.643,2.35187,0.45706
724.336,78.11546,-2.643,2.36652,0.45682
724.936,78.17711,-2.643,2.3869,0.45659
725.536,78.2388,-2.64294,2.39062,0.45636
726.136,78.30073,-2.64564,2.34442,0.45613
726.736,78.36244,-2.64659,2.34293,0.4559
727.336,78.4243,-2.64563,2.34573,0.45567
727.936,78.486,-2.64527,2.34064,0.45544
728.536,78.5476,-2.64569,2.33344,0.45521
729.136,78.60935,-2.64838,2.33557,0.45498
729.736,78.6709,-2.64971,2.36846,0.45475
730.336,78.73231,-2.64739,2.39204,0.45452
730.936,78.794,-2.64865,2.37494,0.45429
731.536,78.85574,-2.64848,2.40032,0.45407
732.136,78.91747,-2.64718,2.38791,0.45384
732.736,78.97905,-2.64622,2.40776,0.45361
733.336,79.04056,-2.6475,2.40315,0.45339
733.936,79.10213,-2.64882,2.41469,0.45316
734.536,79.16374,-2.6501,2.43087,0.45293
735.136,79.22543,-2.64881,2.4401,0.45271
735.736,79.28711,-2.65014,2.43513,0.45248
736.336,79.3489,-2.65309,2.44392,0.45226
736.936,79.4106,-2.65308,2.43861,0.45203
737.536,79.47239,-2.65252,2.45789,0.45181
738.136,79.53411,-2.65309,2.43475,0.45158
738.736,79.59589,-2.65308,2.44298,0.45136
739.336,79.6577,-2.65308,2.43892,0.45113
739.936,79.7192,-2.65335,2.43214,0.45091
740.536,79.78103,-2.6544,2.44338,0.45069
741.136,79.84278,-2.6544,2.44586,0.45047
741.736,79.90505,-2.6544,2.45555,0.45024
742.336,79.96712,-2.65443,2.43809,0.45002
742.636,79.9983,-2.65544,2.44467,0.44991