File: 01_Data/Overstuffed_Chair_Polyester_Fabric/FTIR/ATR/Overstuffed_Chair_Polyester_Fabric_ATR_210608_R5.tst
4497.79,0.01916
4493.93,0.01895
4490.07,0.01917
4486.22,0.01918
4482.36,0.01893
4478.5,0.01914
4474.64,0.01911
4470.79,0.01926
4466.93,0.01932
4463.07,0.01955
4459.21,0.01920
4455.36,0.01931
4451.5,0.01944
4447.64,0.01937
4443.79,0.01938
4439.93,0.01965
4436.07,0.01960
4432.21,0.01954
4428.36,0.01973
4424.5,0.01984
4420.64,0.01960
4416.78,0.01947
4412.93,0.01958
4409.07,0.01977
4405.21,0.01974
4401.35,0.01956
4397.5,0.01939
4393.64,0.01960
4389.78,0.01960
4385.92,0.01965
4382.07,0.01988
4378.21,0.01999
4374.35,0.01960
4370.49,0.01960
4366.64,0.01972
4362.78,0.01983
4358.92,0.01986
4355.06,0.01968
4351.21,0.01950
4347.35,0.01970
4343.49,0.01973
4339.63,0.01981
4335.78,0.02001
4331.92,0.02006
4328.06,0.01997
4324.2,0.02024
4320.35,0.02030
4316.49,0.02014
4312.63,0.02019
4308.77,0.02008
4304.92,0.02014
4301.06,0.01994
4297.2,0.02000
4293.34,0.02035
4289.49,0.02052
4285.63,0.02026
4281.77,0.02021
4277.91,0.02022
4274.06,0.02035
4270.2,0.02053
4266.34,0.02032
4262.48,0.02030
4258.63,0.02031
4254.77,0.02036
4250.91,0.02030
4247.06,0.02009
4243.2,0.02028
4239.34,0.02047
4235.48,0.02041
4231.63,0.02039
4227.77,0.02041
4223.91,0.02043
4220.05,0.02054
4216.2,0.02057
4212.34,0.02064
4208.48,0.02054
4204.62,0.02051
4200.77,0.02063
4196.91,0.02058
4193.05,0.02085
4189.19,0.02075
4185.34,0.02063
4181.48,0.02083
4177.62,0.02071
4173.76,0.02077
4169.91,0.02070
4166.05,0.02081
4162.19,0.02086
4158.33,0.02093
4154.48,0.02092
4150.62,0.02078
4146.76,0.02087
4142.9,0.02093
4139.05,0.02107
4135.19,0.02108
4131.33,0.02100
4127.47,0.02076
4123.62,0.02092
4119.76,0.02104
4115.9,0.02125
4112.04,0.02105
4108.19,0.02120
4104.33,0.02132
4100.47,0.02126
4096.61,0.02139
4092.76,0.02136
4088.9,0.02166
4085.04,0.02169
4081.18,0.02164
4077.33,0.02141
4073.47,0.02150
4069.61,0.02139
4065.75,0.02130
4061.9,0.02155
4058.04,0.02155
4054.18,0.02145
4050.33,0.02154
4046.47,0.02186
4042.61,0.02170
4038.75,0.02126
4034.9,0.02161
4031.04,0.02168
4027.18,0.02172
4023.32,0.02183
4019.47,0.02195
4015.61,0.02193
4011.75,0.02187
4007.89,0.02209
4004.04,0.02176
4000.18,0.02159
3996.32,0.02200
3992.46,0.02241
3988.61,0.02207
3984.75,0.02207
3980.89,0.02248
3977.03,0.02296
3973.18,0.02336
3969.32,0.02251
3965.46,0.02213
3961.6,0.02317
3957.75,0.02316
3953.89,0.02300
3950.03,0.02451
3946.17,0.02413
3942.32,0.02386
3938.46,0.02286
3934.6,0.02404
3930.74,0.02539
3926.89,0.02459
3923.03,0.02485
3919.17,0.02487
3915.31,0.02372
3911.46,0.02226
3907.6,0.02412
3903.74,0.02931
3899.88,0.02771
3896.03,0.02504
3892.17,0.02621
3888.31,0.02493
3884.45,0.02705
3880.6,0.02573
3876.74,0.02426
3872.88,0.02713
3869.02,0.02767
3865.17,0.02806
3861.31,0.02612
3857.45,0.02655
3853.59,0.03051
3849.74,0.02592
3845.88,0.02504
3842.02,0.02845
3838.17,0.03024
3834.31,0.02652
3830.45,0.02521
3826.59,0.02604
3822.74,0.02756
3818.88,0.02805
3815.02,0.02489
3811.16,0.02331
3807.31,0.02526
3803.45,0.02693
3799.59,0.02713
3795.73,0.02417
3791.88,0.02249
3788.02,0.02343
3784.16,0.02428
3780.3,0.02406
3776.45,0.02293
3772.59,0.02376
3768.73,0.02592
3764.87,0.02497
3761.02,0.02543
3757.16,0.02717
3753.3,0.03006
3749.44,0.03325
3745.59,0.03142
3741.73,0.02910
3737.87,0.03063
3734.01,0.03059
3730.16,0.02623
3726.3,0.02792
3722.44,0.02705
3718.58,0.02452
3714.73,0.02551
3710.87,0.02824
3707.01,0.02419
3703.15,0.02392
3699.3,0.02359
3695.44,0.02412
3691.58,0.02745
3687.72,0.02639
3683.87,0.02359
3680.01,0.02518
3676.15,0.02881
3672.29,0.02873
3668.44,0.02625
3664.58,0.02326
3660.72,0.02350
3656.86,0.02508
3653.01,0.02648
3649.15,0.03284
3645.29,0.02630
3641.44,0.02460
3637.58,0.02401
3633.72,0.02542
3629.86,0.02843
3626.01,0.02584
3622.15,0.02617
3618.29,0.02942
3614.43,0.02930
3610.58,0.02840
3606.72,0.02603
3602.86,0.02550
3599,0.02722
3595.15,0.02676
3591.29,0.02588
3587.43,0.02876
3583.57,0.02541
3579.72,0.02470
3575.86,0.02464
3572,0.02489
3568.14,0.02947
3564.29,0.02824
3560.43,0.02562
3556.57,0.02473
3552.71,0.02594
3548.86,0.02632
3545,0.02755
3541.14,0.02429
3537.28,0.02459
3533.43,0.02448
3529.57,0.02623
3525.71,0.02748
3521.85,0.02556
3518,0.02380
3514.14,0.02351
3510.28,0.02485
3506.42,0.02486
3502.57,0.02629
3498.71,0.02421
3494.85,0.02382
3490.99,0.02366
3487.14,0.02420
3483.28,0.02464
3479.42,0.02407
3475.56,0.02348
3471.71,0.02328
3467.85,0.02367
3463.99,0.02418
3460.13,0.02410
3456.28,0.02361
3452.42,0.02342
3448.56,0.02462
3444.7,0.02489
3440.85,0.02432
3436.99,0.02409
3433.13,0.02444
3429.28,0.02461
3425.42,0.02464
3421.56,0.02523
3417.7,0.02416
3413.85,0.02396
3409.99,0.02377
3406.13,0.02358
3402.27,0.02365
3398.42,0.02398
3394.56,0.02434
3390.7,0.02391
3386.84,0.02367
3382.99,0.02384
3379.13,0.02377
3375.27,0.02359
3371.41,0.02376
3367.56,0.02416
3363.7,0.02415
3359.84,0.02400
3355.98,0.02395
3352.13,0.02372
3348.27,0.02361
3344.41,0.02377
3340.55,0.02408
3336.7,0.02451
3332.84,0.02409
3328.98,0.02423
3325.12,0.02410
3321.27,0.02391
3317.41,0.02392
3313.55,0.02424
3309.69,0.02451
3305.84,0.02417
3301.98,0.02403
3298.12,0.02411
3294.26,0.02422
3290.41,0.02444
3286.55,0.02428
3282.69,0.02438
3278.83,0.02422
3274.98,0.02448
3271.12,0.02428
3267.26,0.02426
3263.4,0.02416
3259.55,0.02407
3255.69,0.02429
3251.83,0.02397
3247.97,0.02414
3244.12,0.02436
3240.26,0.02411
3236.4,0.02407
3232.55,0.02413
3228.69,0.02419
3224.83,0.02390
3220.97,0.02407
3217.12,0.02402
3213.26,0.02400
3209.4,0.02400
3205.54,0.02394
3201.69,0.02403
3197.83,0.02424
3193.97,0.02392
3190.11,0.02383
3186.26,0.02404
3182.4,0.02415
3178.54,0.02424
3174.68,0.02405
3170.83,0.02404
3166.97,0.02394
3163.11,0.02387
3159.25,0.02390
3155.4,0.02403
3151.54,0.02402
3147.68,0.02395
3143.82,0.02399
3139.97,0.02403
3136.11,0.02420
3132.25,0.02433
3128.39,0.02439
3124.54,0.02454
3120.68,0.02467
3116.82,0.02462
3112.96,0.02451
3109.11,0.02453
3105.25,0.02463
3101.39,0.02499
3097.53,0.02484
3093.68,0.02464
3089.82,0.02457
3085.96,0.02475
3082.1,0.02503
3078.25,0.02502
3074.39,0.02483
3070.53,0.02494
3066.67,0.02528
3062.82,0.02522
3058.96,0.02522
3055.1,0.02546
3051.24,0.02528
3047.39,0.02516
3043.53,0.02475
3039.67,0.02450
3035.82,0.02467
3031.96,0.02510
3028.1,0.02472
3024.24,0.02465
3020.39,0.02480
3016.53,0.02507
3012.67,0.02574
3008.81,0.02569
3004.96,0.02575
3001.1,0.02578
2997.24,0.02596
2993.38,0.02611
2989.53,0.02624
2985.67,0.02661
2981.81,0.02716
2977.95,0.02789
2974.1,0.02881
2970.24,0.02945
2966.38,0.02962
2962.52,0.02949
2958.67,0.02923
2954.81,0.02899
2950.95,0.02850
2947.09,0.02814
2943.24,0.02763
2939.38,0.02733
2935.52,0.02732
2931.66,0.02749
2927.81,0.02772
2923.95,0.02814
2920.09,0.02852
2916.23,0.02872
2912.38,0.02880
2908.52,0.02894
2904.66,0.02877
2900.8,0.02826
2896.95,0.02780
2893.09,0.02758
2889.23,0.02743
2885.37,0.02731
2881.52,0.02715
2877.66,0.02710
2873.8,0.02710
2869.94,0.02711
2866.09,0.02703
2862.23,0.02712
2858.37,0.02729
2854.51,0.02750
2850.66,0.02763
2846.8,0.02720
2842.94,0.02663
2839.08,0.02628
2835.23,0.02613
2831.37,0.02600
2827.51,0.02588
2823.66,0.02569
2819.8,0.02556
2815.94,0.02556
2812.08,0.02562
2808.23,0.02558
2804.37,0.02554
2800.51,0.02560
2796.65,0.02555
2792.8,0.02544
2788.94,0.02543
2785.08,0.02538
2781.22,0.02539
2777.37,0.02531
2773.51,0.02531
2769.65,0.02531
2765.79,0.02519
2761.94,0.02523
2758.08,0.02527
2754.22,0.02532
2750.36,0.02520
2746.51,0.02532
2742.65,0.02529
2738.79,0.02522
2734.93,0.02516
2731.08,0.02515
2727.22,0.02512
2723.36,0.02511
2719.5,0.02511
2715.65,0.02508
2711.79,0.02501
2707.93,0.02498
2704.07,0.02500
2700.22,0.02501
2696.36,0.02496
2692.5,0.02495
2688.64,0.02494
2684.79,0.02493
2680.93,0.02486
2677.07,0.02487
2673.21,0.02486
2669.36,0.02486
2665.5,0.02493
2661.64,0.02488
2657.78,0.02481
2653.93,0.02471
2650.07,0.02464
2646.21,0.02438
2642.35,0.02424
2638.5,0.02418
2634.64,0.02409
2630.78,0.02394
2626.93,0.02394
2623.07,0.02388
2619.21,0.02370
2615.35,0.02356
2611.5,0.02353
2607.64,0.02351
2603.78,0.02345
2599.92,0.02345
2596.07,0.02348
2592.21,0.02349
2588.35,0.02336
2584.49,0.02338
2580.64,0.02345
2576.78,0.02331
2572.92,0.02333
2569.06,0.02321
2565.21,0.02318
2561.35,0.02308
2557.49,0.02309
2553.63,0.02306
2549.78,0.02300
2545.92,0.02303
2542.06,0.02295
2538.2,0.02292
2534.35,0.02289
2530.49,0.02287
2526.63,0.02284
2522.77,0.02297
2518.92,0.02300
2515.06,0.02295
2511.2,0.02287
2507.34,0.02268
2503.49,0.02268
2499.63,0.02267
2495.77,0.02267
2491.91,0.02261
2488.06,0.02255
2484.2,0.02248
2480.34,0.02254
2476.48,0.02252
2472.63,0.02251
2468.77,0.02256
2464.91,0.02241
2461.05,0.02254
2457.2,0.02236
2453.34,0.02229
2449.48,0.02237
2445.62,0.02226
2441.77,0.02219
2437.91,0.02232
2434.05,0.02266
2430.2,0.02271
2426.34,0.02270
2422.48,0.02277
2418.62,0.02269
2414.77,0.02264
2410.91,0.02273
2407.05,0.02278
2403.19,0.02277
2399.34,0.02294
2395.48,0.02295
2391.62,0.02297
2387.76,0.02326
2383.91,0.02364
2380.05,0.02372
2376.19,0.02314
2372.33,0.02151
2368.48,0.01868
2364.62,0.01738
2360.76,0.01707
2356.9,0.01766
2353.05,0.01994
2349.19,0.02173
2345.33,0.01995
2341.47,0.01817
2337.62,0.01804
2333.76,0.01886
2329.9,0.01990
2326.04,0.02088
2322.19,0.02217
2318.33,0.02266
2314.47,0.02286
2310.61,0.02356
2306.76,0.02348
2302.9,0.02303
2299.04,0.02275
2295.18,0.02259
2291.33,0.02273
2287.47,0.02263
2283.61,0.02226
2279.75,0.02187
2275.9,0.02184
2272.04,0.02144
2268.18,0.02141
2264.32,0.02141
2260.47,0.02143
2256.61,0.02149
2252.75,0.02147
2248.89,0.02153
2245.04,0.02145
2241.18,0.02118
2237.32,0.02094
2233.46,0.02086
2229.61,0.02080
2225.75,0.02044
2221.89,0.02046
2218.04,0.02037
2214.18,0.02021
2210.32,0.01963
2206.46,0.01980
2202.61,0.01995
2198.75,0.01980
2194.89,0.01947
2191.03,0.01921
2187.18,0.01892
2183.32,0.01825
2179.46,0.01816
2175.6,0.01829
2171.75,0.01830
2167.89,0.01830
2164.03,0.01813
2160.17,0.01797
2156.32,0.01843
2152.46,0.01877
2148.6,0.01911
2144.74,0.01956
2140.89,0.01977
2137.03,0.01983
2133.17,0.01981
2129.31,0.01990
2125.46,0.01988
2121.6,0.02001
2117.74,0.02000
2113.88,0.02022
2110.03,0.01989
2106.17,0.02003
2102.31,0.02015
2098.45,0.02003
2094.6,0.02012
2090.74,0.02047
2086.88,0.02052
2083.02,0.02035
2079.17,0.02028
2075.31,0.02002
2071.45,0.01985
2067.59,0.02021
2063.74,0.02042
2059.88,0.01994
2056.02,0.01952
2052.16,0.01933
2048.31,0.01890
2044.45,0.01947
2040.59,0.01943
2036.73,0.01848
2032.88,0.01821
2029.02,0.01844
2025.16,0.01886
2021.31,0.01860
2017.45,0.01922
2013.59,0.01916
2009.73,0.01918
2005.88,0.01887
2002.02,0.01874
1998.16,0.01892
1994.3,0.01959
1990.45,0.02034
1986.59,0.01954
1982.73,0.01956
1978.87,0.01912
1975.02,0.01858
1971.16,0.01954
1967.3,0.02102
1963.44,0.02011
1959.59,0.02041
1955.73,0.02076
1951.87,0.02023
1948.01,0.02044
1944.16,0.02145
1940.3,0.02039
1936.44,0.01954
1932.58,0.01940
1928.73,0.01877
1924.87,0.01988
1921.01,0.02081
1917.15,0.01982
1913.3,0.01893
1909.44,0.02001
1905.58,0.01871
1901.72,0.01831
1897.87,0.01868
1894.01,0.01889
1890.15,0.01910
1886.29,0.01852
1882.44,0.01788
1878.58,0.01770
1874.72,0.01778
1870.86,0.01992
1867.01,0.02054
1863.15,0.01816
1859.29,0.01812
1855.43,0.01756
1851.58,0.01768
1847.72,0.02002
1843.86,0.02156
1840,0.01898
1836.15,0.01887
1832.29,0.01949
1828.43,0.02063
1824.57,0.02005
1820.72,0.01858
1816.86,0.01835
1813,0.01915
1809.15,0.01951
1805.29,0.01889
1801.43,0.02053
1797.57,0.02027
1793.72,0.02133
1789.86,0.01923
1786,0.01788
1782.14,0.01855
1778.29,0.01828
1774.43,0.01918
1770.57,0.02013
1766.71,0.01770
1762.86,0.01793
1759,0.01897
1755.14,0.01925
1751.28,0.02409
1747.43,0.03275
1743.57,0.04114
1739.71,0.05835
1735.85,0.07749
1732,0.11427
1728.14,0.13713
1724.28,0.16443
1720.42,0.19405
1716.57,0.23937
1712.71,0.24005
1708.85,0.21355
1704.99,0.16906
1701.14,0.13594
1697.28,0.10291
1693.42,0.08186
1689.56,0.07565
1685.71,0.07256
1681.85,0.06735
1677.99,0.06095
1674.13,0.05733
1670.28,0.05480
1666.42,0.04826
1662.56,0.04607
1658.7,0.04344
1654.85,0.04507
1650.99,0.04426
1647.13,0.04427
1643.27,0.03952
1639.42,0.03929
1635.56,0.03962
1631.7,0.03594
1627.84,0.03605
1623.99,0.03694
1620.13,0.03617
1616.27,0.03652
1612.42,0.03446
1608.56,0.03387
1604.7,0.03244
1600.84,0.03104
1596.99,0.03018
1593.13,0.03005
1589.27,0.02948
1585.41,0.02968
1581.56,0.03211
1577.7,0.03577
1573.84,0.03398
1569.98,0.03272
1566.13,0.03142
1562.27,0.03209
1558.41,0.03666
1554.55,0.03442
1550.7,0.03246
1546.84,0.03300
1542.98,0.04083
1539.12,0.03525
1535.27,0.03385
1531.41,0.03245
1527.55,0.03425
1523.69,0.03788
1519.84,0.03595
1515.98,0.03409
1512.12,0.03462
1508.26,0.04396
1504.41,0.04337
1500.55,0.03768
1496.69,0.03178
1492.83,0.02849
1488.98,0.03197
1485.12,0.02853
1481.26,0.02952
1477.4,0.03320
1473.55,0.04149
1469.69,0.03796
1465.83,0.03555
1461.97,0.03480
1458.12,0.04025
1454.26,0.03849
1450.4,0.03579
1446.54,0.03430
1442.69,0.03222
1438.83,0.03288
1434.97,0.03242
1431.11,0.02973
1427.26,0.02752
1423.4,0.02844
1419.54,0.03427
1415.69,0.04695
1411.83,0.06472
1407.97,0.07215
1404.11,0.05880
1400.26,0.04849
1396.4,0.04371
1392.54,0.03814
1388.68,0.03834
1384.83,0.03755
1380.97,0.03633
1377.11,0.03701
1373.25,0.03807
1369.4,0.03640
1365.54,0.03430
1361.68,0.03236
1357.82,0.02921
1353.97,0.03033
1350.11,0.03632
1346.25,0.05412
1342.39,0.08075
1338.54,0.08871
1334.68,0.06186
1330.82,0.04124
1326.96,0.03262
1323.11,0.03146
1319.25,0.03377
1315.39,0.03556
1311.53,0.03792
1307.68,0.04113
1303.82,0.04604
1299.96,0.05402
1296.1,0.06500
1292.25,0.07663
1288.39,0.08900
1284.53,0.10106
1280.67,0.11522
1276.82,0.13147
1272.96,0.14998
1269.1,0.17155
1265.24,0.19265
1261.39,0.21059
1257.53,0.22426
1253.67,0.23878
1249.81,0.25767
1245.96,0.27517
1242.1,0.28151
1238.24,0.26671
1234.38,0.23217
1230.53,0.19310
1226.67,0.16314
1222.81,0.14211
1218.95,0.12363
1215.1,0.10749
1211.24,0.09555
1207.38,0.08600
1203.53,0.07737
1199.67,0.06963
1195.81,0.06280
1191.95,0.05746
1188.1,0.05420
1184.24,0.05282
1180.38,0.05335
1176.52,0.05434
1172.67,0.05354
1168.81,0.05067
1164.95,0.04877
1161.09,0.04894
1157.24,0.05021
1153.38,0.05231
1149.52,0.05601
1145.66,0.06247
1141.81,0.07369
1137.95,0.09200
1134.09,0.11894
1130.23,0.15037
1126.38,0.17756
1122.52,0.19461
1118.66,0.19864
1114.8,0.19532
1110.95,0.20016
1107.09,0.21374
1103.23,0.23077
1099.37,0.24306
1095.52,0.24328
1091.66,0.23177
1087.8,0.21421
1083.94,0.19383
1080.09,0.16968
1076.23,0.14508
1072.37,0.12492
1068.51,0.11040
1064.66,0.09952
1060.8,0.09123
1056.94,0.08588
1053.08,0.08334
1049.23,0.08280
1045.37,0.08237
1041.51,0.08033
1037.65,0.07618
1033.8,0.07170
1029.94,0.07133
1026.08,0.09402
1022.22,0.13816
1018.37,0.16197
1014.51,0.14255
1010.65,0.10628
1006.8,0.08634
1002.94,0.07605
999.08,0.06992
995.223,0.06602
991.365,0.06417
987.508,0.06327
983.65,0.06308
979.793,0.06561
975.935,0.07271
972.078,0.08104
968.221,0.08096
964.363,0.07369
960.506,0.06610
956.648,0.06009
952.791,0.05576
948.933,0.05234
945.076,0.05046
941.218,0.04875
937.361,0.04715
933.503,0.04585
929.646,0.04430
925.789,0.04309
921.931,0.04252
918.074,0.04197
914.216,0.04193
910.359,0.04295
906.501,0.04525
902.644,0.04754
898.786,0.04871
894.929,0.04835
891.072,0.04735
887.214,0.04818
883.357,0.05224
879.499,0.06233
875.642,0.08321
871.784,0.10136
867.927,0.07745
864.069,0.06175
860.212,0.05974
856.354,0.06247
852.497,0.06734
848.64,0.07291
844.782,0.07074
840.925,0.06310
837.067,0.05682
833.21,0.05199
829.352,0.04837
825.495,0.04604
821.637,0.04409
817.78,0.04284
813.922,0.04260
810.065,0.04289
806.208,0.04304
802.35,0.04310
798.493,0.04417
794.635,0.04908
790.778,0.04905
786.92,0.04384
783.063,0.03962
779.205,0.03732
775.348,0.03607
771.49,0.03436
767.633,0.03239
763.776,0.03069
759.918,0.02920
756.061,0.02876
752.203,0.02888
748.346,0.02927
744.488,0.03339
740.631,0.04797
736.773,0.08637
732.916,0.15365
729.058,0.24043
725.201,0.31409
721.344,0.27966
717.486,0.18409
713.629,0.12737
709.771,0.10075
705.914,0.08594
702.056,0.07523
698.199,0.06556
694.341,0.05810
690.484,0.05393
686.627,0.05192
682.769,0.05180
678.912,0.05136
675.054,0.05014
671.197,0.04868
667.339,0.04526
663.482,0.04466
659.624,0.04481
655.767,0.04277
651.909,0.04099
648.052,0.04041
644.195,0.04007
640.337,0.03978
636.48,0.04051
632.622,0.04245
628.765,0.03986
624.907,0.03735
621.05,0.03712
617.192,0.03798
613.335,0.03658
609.477,0.03612
605.62,0.03589
601.763,0.03734
599.834,0.04000