File: 01_Data/Overstuffed_Chair_Polyester_Fabric/FTIR/ATR/Overstuffed_Chair_Polyester_Fabric_ATR_210608_R1.tst
4497.79,0.02204
4493.93,0.02204
4490.07,0.02184
4486.22,0.02201
4482.36,0.02200
4478.5,0.02241
4474.64,0.02194
4470.79,0.02214
4466.93,0.02211
4463.07,0.02222
4459.21,0.02225
4455.36,0.02247
4451.5,0.02230
4447.64,0.02202
4443.79,0.02252
4439.93,0.02269
4436.07,0.02248
4432.21,0.02222
4428.36,0.02227
4424.5,0.02271
4420.64,0.02262
4416.78,0.02271
4412.93,0.02273
4409.07,0.02238
4405.21,0.02239
4401.35,0.02261
4397.5,0.02255
4393.64,0.02252
4389.78,0.02275
4385.92,0.02267
4382.07,0.02262
4378.21,0.02262
4374.35,0.02250
4370.49,0.02245
4366.64,0.02260
4362.78,0.02252
4358.92,0.02266
4355.06,0.02249
4351.21,0.02249
4347.35,0.02268
4343.49,0.02280
4339.63,0.02311
4335.78,0.02300
4331.92,0.02285
4328.06,0.02298
4324.2,0.02295
4320.35,0.02292
4316.49,0.02302
4312.63,0.02267
4308.77,0.02280
4304.92,0.02292
4301.06,0.02278
4297.2,0.02298
4293.34,0.02313
4289.49,0.02328
4285.63,0.02312
4281.77,0.02305
4277.91,0.02295
4274.06,0.02304
4270.2,0.02315
4266.34,0.02318
4262.48,0.02306
4258.63,0.02315
4254.77,0.02315
4250.91,0.02310
4247.06,0.02299
4243.2,0.02301
4239.34,0.02313
4235.48,0.02289
4231.63,0.02297
4227.77,0.02329
4223.91,0.02328
4220.05,0.02315
4216.2,0.02307
4212.34,0.02325
4208.48,0.02329
4204.62,0.02346
4200.77,0.02345
4196.91,0.02323
4193.05,0.02344
4189.19,0.02350
4185.34,0.02337
4181.48,0.02341
4177.62,0.02338
4173.76,0.02349
4169.91,0.02364
4166.05,0.02369
4162.19,0.02345
4158.33,0.02351
4154.48,0.02340
4150.62,0.02334
4146.76,0.02351
4142.9,0.02361
4139.05,0.02371
4135.19,0.02364
4131.33,0.02338
4127.47,0.02350
4123.62,0.02360
4119.76,0.02379
4115.9,0.02388
4112.04,0.02376
4108.19,0.02393
4104.33,0.02411
4100.47,0.02398
4096.61,0.02404
4092.76,0.02399
4088.9,0.02433
4085.04,0.02435
4081.18,0.02423
4077.33,0.02406
4073.47,0.02406
4069.61,0.02399
4065.75,0.02383
4061.9,0.02413
4058.04,0.02411
4054.18,0.02403
4050.33,0.02395
4046.47,0.02423
4042.61,0.02426
4038.75,0.02393
4034.9,0.02422
4031.04,0.02398
4027.18,0.02413
4023.32,0.02442
4019.47,0.02452
4015.61,0.02436
4011.75,0.02426
4007.89,0.02446
4004.04,0.02409
4000.18,0.02402
3996.32,0.02467
3992.46,0.02491
3988.61,0.02456
3984.75,0.02442
3980.89,0.02466
3977.03,0.02517
3973.18,0.02547
3969.32,0.02483
3965.46,0.02465
3961.6,0.02566
3957.75,0.02549
3953.89,0.02550
3950.03,0.02680
3946.17,0.02659
3942.32,0.02635
3938.46,0.02521
3934.6,0.02624
3930.74,0.02736
3926.89,0.02669
3923.03,0.02716
3919.17,0.02723
3915.31,0.02594
3911.46,0.02474
3907.6,0.02663
3903.74,0.03126
3899.88,0.02970
3896.03,0.02711
3892.17,0.02812
3888.31,0.02709
3884.45,0.02896
3880.6,0.02785
3876.74,0.02650
3872.88,0.02935
3869.02,0.02994
3865.17,0.03013
3861.31,0.02821
3857.45,0.02871
3853.59,0.03309
3849.74,0.02810
3845.88,0.02708
3842.02,0.03039
3838.17,0.03204
3834.31,0.02845
3830.45,0.02715
3826.59,0.02806
3822.74,0.02933
3818.88,0.02979
3815.02,0.02695
3811.16,0.02541
3807.31,0.02725
3803.45,0.02917
3799.59,0.02937
3795.73,0.02628
3791.88,0.02456
3788.02,0.02555
3784.16,0.02632
3780.3,0.02622
3776.45,0.02516
3772.59,0.02587
3768.73,0.02769
3764.87,0.02709
3761.02,0.02743
3757.16,0.02904
3753.3,0.03134
3749.44,0.03460
3745.59,0.03269
3741.73,0.03043
3737.87,0.03176
3734.01,0.03191
3730.16,0.02820
3726.3,0.02973
3722.44,0.02881
3718.58,0.02642
3714.73,0.02731
3710.87,0.02982
3707.01,0.02620
3703.15,0.02597
3699.3,0.02541
3695.44,0.02602
3691.58,0.02957
3687.72,0.02838
3683.87,0.02569
3680.01,0.02736
3676.15,0.03051
3672.29,0.03076
3668.44,0.02794
3664.58,0.02507
3660.72,0.02548
3656.86,0.02710
3653.01,0.02814
3649.15,0.03364
3645.29,0.02856
3641.44,0.02661
3637.58,0.02593
3633.72,0.02748
3629.86,0.03072
3626.01,0.02808
3622.15,0.02832
3618.29,0.03112
3614.43,0.03099
3610.58,0.03017
3606.72,0.02807
3602.86,0.02749
3599,0.02904
3595.15,0.02841
3591.29,0.02744
3587.43,0.03013
3583.57,0.02724
3579.72,0.02655
3575.86,0.02633
3572,0.02675
3568.14,0.03102
3564.29,0.02991
3560.43,0.02744
3556.57,0.02651
3552.71,0.02748
3548.86,0.02795
3545,0.02938
3541.14,0.02639
3537.28,0.02631
3533.43,0.02618
3529.57,0.02815
3525.71,0.02930
3521.85,0.02732
3518,0.02566
3514.14,0.02529
3510.28,0.02637
3506.42,0.02634
3502.57,0.02772
3498.71,0.02592
3494.85,0.02540
3490.99,0.02524
3487.14,0.02571
3483.28,0.02598
3479.42,0.02553
3475.56,0.02518
3471.71,0.02491
3467.85,0.02504
3463.99,0.02549
3460.13,0.02564
3456.28,0.02516
3452.42,0.02494
3448.56,0.02607
3444.7,0.02632
3440.85,0.02583
3436.99,0.02552
3433.13,0.02587
3429.28,0.02596
3425.42,0.02595
3421.56,0.02660
3417.7,0.02552
3413.85,0.02519
3409.99,0.02515
3406.13,0.02502
3402.27,0.02517
3398.42,0.02531
3394.56,0.02548
3390.7,0.02524
3386.84,0.02508
3382.99,0.02521
3379.13,0.02504
3375.27,0.02482
3371.41,0.02494
3367.56,0.02531
3363.7,0.02523
3359.84,0.02519
3355.98,0.02513
3352.13,0.02486
3348.27,0.02474
3344.41,0.02499
3340.55,0.02523
3336.7,0.02556
3332.84,0.02514
3328.98,0.02510
3325.12,0.02510
3321.27,0.02491
3317.41,0.02491
3313.55,0.02526
3309.69,0.02550
3305.84,0.02516
3301.98,0.02518
3298.12,0.02525
3294.26,0.02530
3290.41,0.02547
3286.55,0.02531
3282.69,0.02535
3278.83,0.02530
3274.98,0.02550
3271.12,0.02525
3267.26,0.02524
3263.4,0.02515
3259.55,0.02509
3255.69,0.02536
3251.83,0.02507
3247.97,0.02523
3244.12,0.02534
3240.26,0.02523
3236.4,0.02527
3232.55,0.02532
3228.69,0.02538
3224.83,0.02503
3220.97,0.02523
3217.12,0.02515
3213.26,0.02524
3209.4,0.02521
3205.54,0.02513
3201.69,0.02534
3197.83,0.02547
3193.97,0.02514
3190.11,0.02506
3186.26,0.02524
3182.4,0.02521
3178.54,0.02546
3174.68,0.02518
3170.83,0.02521
3166.97,0.02509
3163.11,0.02507
3159.25,0.02515
3155.4,0.02522
3151.54,0.02518
3147.68,0.02528
3143.82,0.02537
3139.97,0.02536
3136.11,0.02544
3132.25,0.02554
3128.39,0.02565
3124.54,0.02573
3120.68,0.02585
3116.82,0.02588
3112.96,0.02580
3109.11,0.02599
3105.25,0.02603
3101.39,0.02634
3097.53,0.02606
3093.68,0.02590
3089.82,0.02585
3085.96,0.02604
3082.1,0.02644
3078.25,0.02641
3074.39,0.02623
3070.53,0.02635
3066.67,0.02671
3062.82,0.02651
3058.96,0.02656
3055.1,0.02679
3051.24,0.02665
3047.39,0.02639
3043.53,0.02595
3039.67,0.02584
3035.82,0.02609
3031.96,0.02640
3028.1,0.02606
3024.24,0.02604
3020.39,0.02613
3016.53,0.02640
3012.67,0.02707
3008.81,0.02711
3004.96,0.02720
3001.1,0.02722
2997.24,0.02746
2993.38,0.02766
2989.53,0.02781
2985.67,0.02815
2981.81,0.02875
2977.95,0.02952
2974.1,0.03048
2970.24,0.03118
2966.38,0.03140
2962.52,0.03132
2958.67,0.03102
2954.81,0.03073
2950.95,0.03015
2947.09,0.02964
2943.24,0.02915
2939.38,0.02880
2935.52,0.02884
2931.66,0.02902
2927.81,0.02915
2923.95,0.02935
2920.09,0.02954
2916.23,0.02957
2912.38,0.02991
2908.52,0.03021
2904.66,0.03006
2900.8,0.02955
2896.95,0.02916
2893.09,0.02889
2889.23,0.02880
2885.37,0.02865
2881.52,0.02849
2877.66,0.02854
2873.8,0.02846
2869.94,0.02843
2866.09,0.02841
2862.23,0.02849
2858.37,0.02865
2854.51,0.02868
2850.66,0.02859
2846.8,0.02829
2842.94,0.02788
2839.08,0.02750
2835.23,0.02726
2831.37,0.02716
2827.51,0.02703
2823.66,0.02683
2819.8,0.02673
2815.94,0.02685
2812.08,0.02691
2808.23,0.02691
2804.37,0.02680
2800.51,0.02676
2796.65,0.02671
2792.8,0.02670
2788.94,0.02667
2785.08,0.02657
2781.22,0.02660
2777.37,0.02658
2773.51,0.02653
2769.65,0.02647
2765.79,0.02645
2761.94,0.02642
2758.08,0.02638
2754.22,0.02640
2750.36,0.02645
2746.51,0.02651
2742.65,0.02641
2738.79,0.02633
2734.93,0.02629
2731.08,0.02630
2727.22,0.02626
2723.36,0.02629
2719.5,0.02622
2715.65,0.02614
2711.79,0.02613
2707.93,0.02611
2704.07,0.02611
2700.22,0.02610
2696.36,0.02613
2692.5,0.02612
2688.64,0.02611
2684.79,0.02609
2680.93,0.02597
2677.07,0.02603
2673.21,0.02599
2669.36,0.02602
2665.5,0.02603
2661.64,0.02603
2657.78,0.02588
2653.93,0.02571
2650.07,0.02559
2646.21,0.02539
2642.35,0.02531
2638.5,0.02526
2634.64,0.02510
2630.78,0.02502
2626.93,0.02502
2623.07,0.02487
2619.21,0.02469
2615.35,0.02458
2611.5,0.02453
2607.64,0.02441
2603.78,0.02446
2599.92,0.02447
2596.07,0.02448
2592.21,0.02452
2588.35,0.02449
2584.49,0.02443
2580.64,0.02435
2576.78,0.02424
2572.92,0.02424
2569.06,0.02418
2565.21,0.02416
2561.35,0.02408
2557.49,0.02405
2553.63,0.02416
2549.78,0.02408
2545.92,0.02403
2542.06,0.02407
2538.2,0.02410
2534.35,0.02408
2530.49,0.02394
2526.63,0.02383
2522.77,0.02380
2518.92,0.02383
2515.06,0.02371
2511.2,0.02366
2507.34,0.02371
2503.49,0.02379
2499.63,0.02360
2495.77,0.02361
2491.91,0.02364
2488.06,0.02350
2484.2,0.02341
2480.34,0.02331
2476.48,0.02338
2472.63,0.02354
2468.77,0.02355
2464.91,0.02343
2461.05,0.02338
2457.2,0.02326
2453.34,0.02318
2449.48,0.02324
2445.62,0.02318
2441.77,0.02322
2437.91,0.02333
2434.05,0.02348
2430.2,0.02359
2426.34,0.02346
2422.48,0.02344
2418.62,0.02359
2414.77,0.02352
2410.91,0.02356
2407.05,0.02369
2403.19,0.02376
2399.34,0.02384
2395.48,0.02375
2391.62,0.02379
2387.76,0.02411
2383.91,0.02449
2380.05,0.02457
2376.19,0.02382
2372.33,0.02230
2368.48,0.02003
2364.62,0.01860
2360.76,0.01770
2356.9,0.01877
2353.05,0.02115
2349.19,0.02274
2345.33,0.02121
2341.47,0.01936
2337.62,0.01926
2333.76,0.01980
2329.9,0.02105
2326.04,0.02185
2322.19,0.02279
2318.33,0.02344
2314.47,0.02370
2310.61,0.02425
2306.76,0.02431
2302.9,0.02397
2299.04,0.02369
2295.18,0.02349
2291.33,0.02341
2287.47,0.02337
2283.61,0.02322
2279.75,0.02275
2275.9,0.02258
2272.04,0.02238
2268.18,0.02238
2264.32,0.02221
2260.47,0.02218
2256.61,0.02226
2252.75,0.02219
2248.89,0.02210
2245.04,0.02206
2241.18,0.02179
2237.32,0.02164
2233.46,0.02173
2229.61,0.02156
2225.75,0.02129
2221.89,0.02113
2218.04,0.02113
2214.18,0.02093
2210.32,0.02040
2206.46,0.02063
2202.61,0.02050
2198.75,0.02004
2194.89,0.02008
2191.03,0.02013
2187.18,0.01943
2183.32,0.01911
2179.46,0.01936
2175.6,0.01910
2171.75,0.01917
2167.89,0.01925
2164.03,0.01919
2160.17,0.01846
2156.32,0.01863
2152.46,0.01969
2148.6,0.02025
2144.74,0.02026
2140.89,0.02045
2137.03,0.02049
2133.17,0.02049
2129.31,0.02058
2125.46,0.02077
2121.6,0.02049
2117.74,0.02055
2113.88,0.02066
2110.03,0.02048
2106.17,0.02060
2102.31,0.02063
2098.45,0.02089
2094.6,0.02081
2090.74,0.02121
2086.88,0.02096
2083.02,0.02062
2079.17,0.02050
2075.31,0.02046
2071.45,0.02049
2067.59,0.02069
2063.74,0.02083
2059.88,0.02040
2056.02,0.02001
2052.16,0.02029
2048.31,0.01964
2044.45,0.01943
2040.59,0.01990
2036.73,0.01912
2032.88,0.01870
2029.02,0.01870
2025.16,0.01937
2021.31,0.01944
2017.45,0.01992
2013.59,0.01930
2009.73,0.01954
2005.88,0.01933
2002.02,0.01930
1998.16,0.01926
1994.3,0.02044
1990.45,0.02092
1986.59,0.02017
1982.73,0.01996
1978.87,0.01951
1975.02,0.01914
1971.16,0.01990
1967.3,0.02125
1963.44,0.02043
1959.59,0.02075
1955.73,0.02103
1951.87,0.02065
1948.01,0.02054
1944.16,0.02135
1940.3,0.02065
1936.44,0.01996
1932.58,0.01976
1928.73,0.01923
1924.87,0.02040
1921.01,0.02115
1917.15,0.02011
1913.3,0.01923
1909.44,0.02002
1905.58,0.01900
1901.72,0.01873
1897.87,0.01888
1894.01,0.01914
1890.15,0.01950
1886.29,0.01895
1882.44,0.01836
1878.58,0.01799
1874.72,0.01796
1870.86,0.02024
1867.01,0.02078
1863.15,0.01839
1859.29,0.01834
1855.43,0.01776
1851.58,0.01791
1847.72,0.02017
1843.86,0.02141
1840,0.01911
1836.15,0.01905
1832.29,0.01948
1828.43,0.02062
1824.57,0.02021
1820.72,0.01878
1816.86,0.01846
1813,0.01909
1809.15,0.01952
1805.29,0.01889
1801.43,0.02042
1797.57,0.02029
1793.72,0.02119
1789.86,0.01925
1786,0.01784
1782.14,0.01839
1778.29,0.01825
1774.43,0.01921
1770.57,0.01991
1766.71,0.01752
1762.86,0.01771
1759,0.01871
1755.14,0.01904
1751.28,0.02380
1747.43,0.03250
1743.57,0.04140
1739.71,0.05916
1735.85,0.07880
1732,0.11685
1728.14,0.14066
1724.28,0.16871
1720.42,0.19904
1716.57,0.24624
1712.71,0.24773
1708.85,0.21981
1704.99,0.17334
1701.14,0.13918
1697.28,0.10521
1693.42,0.08407
1689.56,0.07744
1685.71,0.07402
1681.85,0.06852
1677.99,0.06193
1674.13,0.05806
1670.28,0.05549
1666.42,0.04891
1662.56,0.04646
1658.7,0.04371
1654.85,0.04491
1650.99,0.04407
1647.13,0.04403
1643.27,0.03941
1639.42,0.03918
1635.56,0.03946
1631.7,0.03593
1627.84,0.03598
1623.99,0.03693
1620.13,0.03619
1616.27,0.03646
1612.42,0.03456
1608.56,0.03393
1604.7,0.03249
1600.84,0.03109
1596.99,0.03024
1593.13,0.03004
1589.27,0.02950
1585.41,0.02972
1581.56,0.03204
1577.7,0.03558
1573.84,0.03393
1569.98,0.03260
1566.13,0.03122
1562.27,0.03173
1558.41,0.03603
1554.55,0.03393
1550.7,0.03206
1546.84,0.03245
1542.98,0.03961
1539.12,0.03419
1535.27,0.03317
1531.41,0.03198
1527.55,0.03371
1523.69,0.03707
1519.84,0.03551
1515.98,0.03363
1512.12,0.03409
1508.26,0.04340
1504.41,0.04341
1500.55,0.03766
1496.69,0.03164
1492.83,0.02837
1488.98,0.03196
1485.12,0.02872
1481.26,0.02965
1477.4,0.03315
1473.55,0.04103
1469.69,0.03763
1465.83,0.03538
1461.97,0.03484
1458.12,0.04023
1454.26,0.03866
1450.4,0.03600
1446.54,0.03450
1442.69,0.03244
1438.83,0.03289
1434.97,0.03218
1431.11,0.02957
1427.26,0.02730
1423.4,0.02806
1419.54,0.03374
1415.69,0.04657
1411.83,0.06469
1407.97,0.07259
1404.11,0.05919
1400.26,0.04853
1396.4,0.04333
1392.54,0.03777
1388.68,0.03798
1384.83,0.03726
1380.97,0.03599
1377.11,0.03666
1373.25,0.03766
1369.4,0.03596
1365.54,0.03371
1361.68,0.03172
1357.82,0.02870
1353.97,0.02987
1350.11,0.03597
1346.25,0.05379
1342.39,0.08040
1338.54,0.08834
1334.68,0.06182
1330.82,0.04097
1326.96,0.03207
1323.11,0.03089
1319.25,0.03310
1315.39,0.03485
1311.53,0.03725
1307.68,0.04060
1303.82,0.04572
1299.96,0.05380
1296.1,0.06498
1292.25,0.07680
1288.39,0.08953
1284.53,0.10188
1280.67,0.11629
1276.82,0.13278
1272.96,0.15176
1269.1,0.17425
1265.24,0.19621
1261.39,0.21475
1257.53,0.22866
1253.67,0.24326
1249.81,0.26237
1245.96,0.28013
1242.1,0.28654
1238.24,0.27127
1234.38,0.23519
1230.53,0.19408
1226.67,0.16244
1222.81,0.14025
1218.95,0.12109
1215.1,0.10481
1211.24,0.09286
1207.38,0.08326
1203.53,0.07487
1199.67,0.06758
1195.81,0.06139
1191.95,0.05686
1188.1,0.05432
1184.24,0.05356
1180.38,0.05436
1176.52,0.05593
1172.67,0.05560
1168.81,0.05289
1164.95,0.05103
1161.09,0.05142
1157.24,0.05286
1153.38,0.05503
1149.52,0.05853
1145.66,0.06471
1141.81,0.07565
1137.95,0.09352
1134.09,0.12028
1130.23,0.15170
1126.38,0.17888
1122.52,0.19587
1118.66,0.19990
1114.8,0.19629
1110.95,0.20048
1107.09,0.21431
1103.23,0.23231
1099.37,0.24516
1095.52,0.24559
1091.66,0.23371
1087.8,0.21556
1083.94,0.19449
1080.09,0.16935
1076.23,0.14347
1072.37,0.12284
1068.51,0.10783
1064.66,0.09666
1060.8,0.08840
1056.94,0.08317
1053.08,0.08063
1049.23,0.08008
1045.37,0.07967
1041.51,0.07767
1037.65,0.07383
1033.8,0.06965
1029.94,0.06943
1026.08,0.09167
1022.22,0.13540
1018.37,0.15963
1014.51,0.14000
1010.65,0.10291
1006.8,0.08283
1002.94,0.07281
999.08,0.06660
995.223,0.06299
991.365,0.06151
987.508,0.06071
983.65,0.06036
979.793,0.06334
975.935,0.07038
972.078,0.07808
968.221,0.07779
964.363,0.07078
960.506,0.06342
956.648,0.05775
952.791,0.05374
948.933,0.05077
945.076,0.04894
941.218,0.04727
937.361,0.04564
933.503,0.04437
929.646,0.04309
925.789,0.04234
921.931,0.04172
918.074,0.04118
914.216,0.04141
910.359,0.04239
906.501,0.04418
902.644,0.04646
898.786,0.04743
894.929,0.04715
891.072,0.04629
887.214,0.04704
883.357,0.05151
879.499,0.06134
875.642,0.08188
871.784,0.09876
867.927,0.07543
864.069,0.06098
860.212,0.05875
856.354,0.06089
852.497,0.06568
848.64,0.07098
844.782,0.06914
840.925,0.06190
837.067,0.05507
833.21,0.05061
829.352,0.04737
825.495,0.04482
821.637,0.04356
817.78,0.04297
813.922,0.04177
810.065,0.04209
806.208,0.04221
802.35,0.04234
798.493,0.04347
794.635,0.04814
790.778,0.04837
786.92,0.04331
783.063,0.03909
779.205,0.03636
775.348,0.03495
771.49,0.03371
767.633,0.03208
763.776,0.02981
759.918,0.02870
756.061,0.02764
752.203,0.02742
748.346,0.02734
744.488,0.03212
740.631,0.04738
736.773,0.08627
732.916,0.15321
729.058,0.23998
725.201,0.31245
721.344,0.27413
717.486,0.17689
713.629,0.12203
709.771,0.09693
705.914,0.08278
702.056,0.07278
698.199,0.06329
694.341,0.05626
690.484,0.05217
686.627,0.05000
682.769,0.04954
678.912,0.05005
675.054,0.04996
671.197,0.04872
667.339,0.04543
663.482,0.04490
659.624,0.04419
655.767,0.04207
651.909,0.04035
648.052,0.03934
644.195,0.03892
640.337,0.03876
636.48,0.03911
632.622,0.04113
628.765,0.03942
624.907,0.03786
621.05,0.04025
617.192,0.04280
613.335,0.04062
609.477,0.03864
605.62,0.04173
601.763,0.04391
599.834,0.04383