File: 01_Data/Overstuffed_Chair_Polyester_Fabric/FTIR/ATR/Overstuffed_Chair_Polyester_Fabric_ATR_210608_R2.tst
4497.79,0.02115
4493.93,0.02124
4490.07,0.02133
4486.22,0.02130
4482.36,0.02121
4478.5,0.02157
4474.64,0.02129
4470.79,0.02145
4466.93,0.02140
4463.07,0.02143
4459.21,0.02155
4455.36,0.02180
4451.5,0.02170
4447.64,0.02120
4443.79,0.02171
4439.93,0.02191
4436.07,0.02164
4432.21,0.02162
4428.36,0.02191
4424.5,0.02207
4420.64,0.02185
4416.78,0.02186
4412.93,0.02178
4409.07,0.02180
4405.21,0.02200
4401.35,0.02193
4397.5,0.02228
4393.64,0.02205
4389.78,0.02198
4385.92,0.02201
4382.07,0.02196
4378.21,0.02214
4374.35,0.02180
4370.49,0.02167
4366.64,0.02188
4362.78,0.02200
4358.92,0.02212
4355.06,0.02201
4351.21,0.02208
4347.35,0.02221
4343.49,0.02218
4339.63,0.02229
4335.78,0.02229
4331.92,0.02212
4328.06,0.02213
4324.2,0.02214
4320.35,0.02220
4316.49,0.02220
4312.63,0.02218
4308.77,0.02220
4304.92,0.02246
4301.06,0.02223
4297.2,0.02223
4293.34,0.02230
4289.49,0.02254
4285.63,0.02245
4281.77,0.02235
4277.91,0.02242
4274.06,0.02226
4270.2,0.02252
4266.34,0.02250
4262.48,0.02253
4258.63,0.02223
4254.77,0.02241
4250.91,0.02232
4247.06,0.02216
4243.2,0.02236
4239.34,0.02250
4235.48,0.02235
4231.63,0.02237
4227.77,0.02254
4223.91,0.02249
4220.05,0.02252
4216.2,0.02240
4212.34,0.02251
4208.48,0.02267
4204.62,0.02280
4200.77,0.02285
4196.91,0.02264
4193.05,0.02263
4189.19,0.02265
4185.34,0.02267
4181.48,0.02293
4177.62,0.02279
4173.76,0.02272
4169.91,0.02276
4166.05,0.02302
4162.19,0.02284
4158.33,0.02288
4154.48,0.02277
4150.62,0.02280
4146.76,0.02288
4142.9,0.02290
4139.05,0.02287
4135.19,0.02292
4131.33,0.02285
4127.47,0.02268
4123.62,0.02284
4119.76,0.02297
4115.9,0.02307
4112.04,0.02298
4108.19,0.02322
4104.33,0.02327
4100.47,0.02308
4096.61,0.02327
4092.76,0.02340
4088.9,0.02371
4085.04,0.02378
4081.18,0.02363
4077.33,0.02332
4073.47,0.02354
4069.61,0.02331
4065.75,0.02316
4061.9,0.02343
4058.04,0.02335
4054.18,0.02322
4050.33,0.02331
4046.47,0.02357
4042.61,0.02368
4038.75,0.02331
4034.9,0.02340
4031.04,0.02341
4027.18,0.02343
4023.32,0.02355
4019.47,0.02373
4015.61,0.02376
4011.75,0.02363
4007.89,0.02371
4004.04,0.02339
4000.18,0.02325
3996.32,0.02372
3992.46,0.02426
3988.61,0.02393
3984.75,0.02388
3980.89,0.02408
3977.03,0.02447
3973.18,0.02468
3969.32,0.02414
3965.46,0.02382
3961.6,0.02471
3957.75,0.02466
3953.89,0.02472
3950.03,0.02604
3946.17,0.02582
3942.32,0.02562
3938.46,0.02446
3934.6,0.02564
3930.74,0.02659
3926.89,0.02599
3923.03,0.02657
3919.17,0.02652
3915.31,0.02516
3911.46,0.02398
3907.6,0.02581
3903.74,0.03084
3899.88,0.02907
3896.03,0.02641
3892.17,0.02744
3888.31,0.02632
3884.45,0.02830
3880.6,0.02710
3876.74,0.02579
3872.88,0.02866
3869.02,0.02936
3865.17,0.02975
3861.31,0.02773
3857.45,0.02804
3853.59,0.03175
3849.74,0.02742
3845.88,0.02654
3842.02,0.02972
3838.17,0.03158
3834.31,0.02782
3830.45,0.02663
3826.59,0.02759
3822.74,0.02886
3818.88,0.02941
3815.02,0.02611
3811.16,0.02475
3807.31,0.02659
3803.45,0.02839
3799.59,0.02867
3795.73,0.02573
3791.88,0.02394
3788.02,0.02484
3784.16,0.02577
3780.3,0.02543
3776.45,0.02424
3772.59,0.02509
3768.73,0.02702
3764.87,0.02633
3761.02,0.02666
3757.16,0.02830
3753.3,0.03089
3749.44,0.03436
3745.59,0.03207
3741.73,0.02987
3737.87,0.03162
3734.01,0.03160
3730.16,0.02761
3726.3,0.02914
3722.44,0.02820
3718.58,0.02580
3714.73,0.02678
3710.87,0.02915
3707.01,0.02557
3703.15,0.02544
3699.3,0.02477
3695.44,0.02550
3691.58,0.02907
3687.72,0.02769
3683.87,0.02496
3680.01,0.02663
3676.15,0.02974
3672.29,0.02955
3668.44,0.02743
3664.58,0.02436
3660.72,0.02479
3656.86,0.02650
3653.01,0.02766
3649.15,0.03371
3645.29,0.02778
3641.44,0.02609
3637.58,0.02544
3633.72,0.02697
3629.86,0.02983
3626.01,0.02730
3622.15,0.02734
3618.29,0.03034
3614.43,0.02987
3610.58,0.02944
3606.72,0.02741
3602.86,0.02683
3599,0.02819
3595.15,0.02748
3591.29,0.02680
3587.43,0.02961
3583.57,0.02669
3579.72,0.02593
3575.86,0.02565
3572,0.02612
3568.14,0.03045
3564.29,0.02924
3560.43,0.02662
3556.57,0.02574
3552.71,0.02683
3548.86,0.02727
3545,0.02879
3541.14,0.02573
3537.28,0.02578
3533.43,0.02564
3529.57,0.02758
3525.71,0.02875
3521.85,0.02677
3518,0.02506
3514.14,0.02478
3510.28,0.02598
3506.42,0.02603
3502.57,0.02743
3498.71,0.02544
3494.85,0.02504
3490.99,0.02492
3487.14,0.02531
3483.28,0.02571
3479.42,0.02516
3475.56,0.02463
3471.71,0.02451
3467.85,0.02468
3463.99,0.02515
3460.13,0.02524
3456.28,0.02475
3452.42,0.02469
3448.56,0.02588
3444.7,0.02603
3440.85,0.02535
3436.99,0.02529
3433.13,0.02578
3429.28,0.02579
3425.42,0.02577
3421.56,0.02633
3417.7,0.02541
3413.85,0.02503
3409.99,0.02492
3406.13,0.02481
3402.27,0.02488
3398.42,0.02512
3394.56,0.02527
3390.7,0.02500
3386.84,0.02493
3382.99,0.02497
3379.13,0.02471
3375.27,0.02472
3371.41,0.02484
3367.56,0.02524
3363.7,0.02526
3359.84,0.02519
3355.98,0.02508
3352.13,0.02486
3348.27,0.02485
3344.41,0.02505
3340.55,0.02522
3336.7,0.02556
3332.84,0.02512
3328.98,0.02517
3325.12,0.02523
3321.27,0.02498
3317.41,0.02495
3313.55,0.02516
3309.69,0.02545
3305.84,0.02525
3301.98,0.02514
3298.12,0.02519
3294.26,0.02518
3290.41,0.02545
3286.55,0.02535
3282.69,0.02532
3278.83,0.02522
3274.98,0.02538
3271.12,0.02515
3267.26,0.02507
3263.4,0.02508
3259.55,0.02504
3255.69,0.02529
3251.83,0.02496
3247.97,0.02512
3244.12,0.02525
3240.26,0.02506
3236.4,0.02505
3232.55,0.02503
3228.69,0.02502
3224.83,0.02475
3220.97,0.02497
3217.12,0.02502
3213.26,0.02500
3209.4,0.02499
3205.54,0.02491
3201.69,0.02509
3197.83,0.02510
3193.97,0.02478
3190.11,0.02484
3186.26,0.02511
3182.4,0.02505
3178.54,0.02507
3174.68,0.02493
3170.83,0.02489
3166.97,0.02485
3163.11,0.02473
3159.25,0.02468
3155.4,0.02491
3151.54,0.02490
3147.68,0.02485
3143.82,0.02486
3139.97,0.02491
3136.11,0.02504
3132.25,0.02512
3128.39,0.02519
3124.54,0.02543
3120.68,0.02557
3116.82,0.02550
3112.96,0.02541
3109.11,0.02555
3105.25,0.02558
3101.39,0.02586
3097.53,0.02571
3093.68,0.02548
3089.82,0.02540
3085.96,0.02550
3082.1,0.02592
3078.25,0.02600
3074.39,0.02578
3070.53,0.02578
3066.67,0.02611
3062.82,0.02605
3058.96,0.02621
3055.1,0.02641
3051.24,0.02616
3047.39,0.02591
3043.53,0.02547
3039.67,0.02532
3035.82,0.02557
3031.96,0.02588
3028.1,0.02551
3024.24,0.02554
3020.39,0.02555
3016.53,0.02583
3012.67,0.02651
3008.81,0.02659
3004.96,0.02666
3001.1,0.02665
2997.24,0.02688
2993.38,0.02708
2989.53,0.02722
2985.67,0.02762
2981.81,0.02822
2977.95,0.02896
2974.1,0.02987
2970.24,0.03062
2966.38,0.03089
2962.52,0.03075
2958.67,0.03046
2954.81,0.03018
2950.95,0.02958
2947.09,0.02909
2943.24,0.02861
2939.38,0.02843
2935.52,0.02857
2931.66,0.02881
2927.81,0.02908
2923.95,0.02932
2920.09,0.02941
2916.23,0.02951
2912.38,0.02978
2908.52,0.02983
2904.66,0.02966
2900.8,0.02921
2896.95,0.02875
2893.09,0.02854
2889.23,0.02841
2885.37,0.02816
2881.52,0.02801
2877.66,0.02796
2873.8,0.02795
2869.94,0.02805
2866.09,0.02797
2862.23,0.02802
2858.37,0.02828
2854.51,0.02847
2850.66,0.02837
2846.8,0.02794
2842.94,0.02743
2839.08,0.02708
2835.23,0.02683
2831.37,0.02668
2827.51,0.02649
2823.66,0.02633
2819.8,0.02627
2815.94,0.02635
2812.08,0.02646
2808.23,0.02632
2804.37,0.02624
2800.51,0.02631
2796.65,0.02627
2792.8,0.02621
2788.94,0.02616
2785.08,0.02605
2781.22,0.02610
2777.37,0.02607
2773.51,0.02602
2769.65,0.02599
2765.79,0.02588
2761.94,0.02587
2758.08,0.02591
2754.22,0.02589
2750.36,0.02590
2746.51,0.02592
2742.65,0.02591
2738.79,0.02583
2734.93,0.02577
2731.08,0.02574
2727.22,0.02575
2723.36,0.02575
2719.5,0.02570
2715.65,0.02561
2711.79,0.02563
2707.93,0.02564
2704.07,0.02561
2700.22,0.02559
2696.36,0.02557
2692.5,0.02552
2688.64,0.02554
2684.79,0.02554
2680.93,0.02545
2677.07,0.02547
2673.21,0.02545
2669.36,0.02542
2665.5,0.02543
2661.64,0.02546
2657.78,0.02536
2653.93,0.02520
2650.07,0.02510
2646.21,0.02490
2642.35,0.02486
2638.5,0.02478
2634.64,0.02463
2630.78,0.02459
2626.93,0.02458
2623.07,0.02451
2619.21,0.02431
2615.35,0.02422
2611.5,0.02413
2607.64,0.02405
2603.78,0.02399
2599.92,0.02401
2596.07,0.02398
2592.21,0.02394
2588.35,0.02391
2584.49,0.02388
2580.64,0.02396
2576.78,0.02387
2572.92,0.02386
2569.06,0.02380
2565.21,0.02365
2561.35,0.02352
2557.49,0.02356
2553.63,0.02360
2549.78,0.02349
2545.92,0.02351
2542.06,0.02352
2538.2,0.02358
2534.35,0.02346
2530.49,0.02344
2526.63,0.02342
2522.77,0.02340
2518.92,0.02338
2515.06,0.02324
2511.2,0.02318
2507.34,0.02319
2503.49,0.02323
2499.63,0.02298
2495.77,0.02294
2491.91,0.02298
2488.06,0.02308
2484.2,0.02295
2480.34,0.02296
2476.48,0.02290
2472.63,0.02285
2468.77,0.02288
2464.91,0.02288
2461.05,0.02288
2457.2,0.02284
2453.34,0.02288
2449.48,0.02275
2445.62,0.02275
2441.77,0.02280
2437.91,0.02293
2434.05,0.02302
2430.2,0.02311
2426.34,0.02300
2422.48,0.02309
2418.62,0.02305
2414.77,0.02298
2410.91,0.02316
2407.05,0.02318
2403.19,0.02321
2399.34,0.02330
2395.48,0.02331
2391.62,0.02331
2387.76,0.02351
2383.91,0.02400
2380.05,0.02411
2376.19,0.02327
2372.33,0.02171
2368.48,0.01910
2364.62,0.01724
2360.76,0.01718
2356.9,0.01786
2353.05,0.02020
2349.19,0.02196
2345.33,0.02023
2341.47,0.01849
2337.62,0.01832
2333.76,0.01890
2329.9,0.02038
2326.04,0.02152
2322.19,0.02248
2318.33,0.02288
2314.47,0.02307
2310.61,0.02366
2306.76,0.02362
2302.9,0.02318
2299.04,0.02305
2295.18,0.02292
2291.33,0.02291
2287.47,0.02291
2283.61,0.02253
2279.75,0.02219
2275.9,0.02213
2272.04,0.02199
2268.18,0.02194
2264.32,0.02161
2260.47,0.02167
2256.61,0.02165
2252.75,0.02167
2248.89,0.02159
2245.04,0.02160
2241.18,0.02154
2237.32,0.02129
2233.46,0.02102
2229.61,0.02102
2225.75,0.02085
2221.89,0.02066
2218.04,0.02072
2214.18,0.02031
2210.32,0.01982
2206.46,0.02000
2202.61,0.02012
2198.75,0.01954
2194.89,0.01940
2191.03,0.01938
2187.18,0.01909
2183.32,0.01835
2179.46,0.01823
2175.6,0.01833
2171.75,0.01848
2167.89,0.01835
2164.03,0.01835
2160.17,0.01812
2156.32,0.01818
2152.46,0.01909
2148.6,0.01925
2144.74,0.01963
2140.89,0.02008
2137.03,0.02008
2133.17,0.01984
2129.31,0.01999
2125.46,0.02016
2121.6,0.02007
2117.74,0.02027
2113.88,0.02022
2110.03,0.01988
2106.17,0.02014
2102.31,0.02013
2098.45,0.02013
2094.6,0.02014
2090.74,0.02041
2086.88,0.02037
2083.02,0.02017
2079.17,0.02000
2075.31,0.01983
2071.45,0.01984
2067.59,0.02019
2063.74,0.02045
2059.88,0.01975
2056.02,0.01926
2052.16,0.01914
2048.31,0.01873
2044.45,0.01880
2040.59,0.01943
2036.73,0.01866
2032.88,0.01803
2029.02,0.01815
2025.16,0.01876
2021.31,0.01889
2017.45,0.01944
2013.59,0.01891
2009.73,0.01900
2005.88,0.01866
2002.02,0.01881
1998.16,0.01888
1994.3,0.01958
1990.45,0.02001
1986.59,0.01983
1982.73,0.01961
1978.87,0.01906
1975.02,0.01876
1971.16,0.01936
1967.3,0.02073
1963.44,0.02008
1959.59,0.02039
1955.73,0.02081
1951.87,0.02041
1948.01,0.02014
1944.16,0.02094
1940.3,0.02010
1936.44,0.01922
1932.58,0.01911
1928.73,0.01889
1924.87,0.02002
1921.01,0.02048
1917.15,0.01952
1913.3,0.01886
1909.44,0.01980
1905.58,0.01855
1901.72,0.01828
1897.87,0.01858
1894.01,0.01884
1890.15,0.01899
1886.29,0.01843
1882.44,0.01779
1878.58,0.01756
1874.72,0.01761
1870.86,0.01975
1867.01,0.02034
1863.15,0.01804
1859.29,0.01788
1855.43,0.01734
1851.58,0.01756
1847.72,0.01974
1843.86,0.02115
1840,0.01876
1836.15,0.01865
1832.29,0.01912
1828.43,0.02024
1824.57,0.01976
1820.72,0.01841
1816.86,0.01824
1813,0.01902
1809.15,0.01924
1805.29,0.01853
1801.43,0.02017
1797.57,0.02004
1793.72,0.02087
1789.86,0.01891
1786,0.01765
1782.14,0.01819
1778.29,0.01797
1774.43,0.01885
1770.57,0.01969
1766.71,0.01736
1762.86,0.01760
1759,0.01853
1755.14,0.01888
1751.28,0.02368
1747.43,0.03239
1743.57,0.04117
1739.71,0.05872
1735.85,0.07808
1732,0.11564
1728.14,0.13923
1724.28,0.16736
1720.42,0.19800
1716.57,0.24676
1712.71,0.25059
1708.85,0.22355
1704.99,0.17625
1701.14,0.14097
1697.28,0.10604
1693.42,0.08424
1689.56,0.07735
1685.71,0.07379
1681.85,0.06861
1677.99,0.06205
1674.13,0.05796
1670.28,0.05518
1666.42,0.04883
1662.56,0.04644
1658.7,0.04357
1654.85,0.04498
1650.99,0.04402
1647.13,0.04369
1643.27,0.03920
1639.42,0.03898
1635.56,0.03931
1631.7,0.03576
1627.84,0.03579
1623.99,0.03658
1620.13,0.03585
1616.27,0.03618
1612.42,0.03444
1608.56,0.03389
1604.7,0.03238
1600.84,0.03109
1596.99,0.03028
1593.13,0.03014
1589.27,0.02968
1585.41,0.02987
1581.56,0.03220
1577.7,0.03570
1573.84,0.03394
1569.98,0.03263
1566.13,0.03114
1562.27,0.03151
1558.41,0.03567
1554.55,0.03378
1550.7,0.03197
1546.84,0.03235
1542.98,0.04003
1539.12,0.03454
1535.27,0.03314
1531.41,0.03185
1527.55,0.03354
1523.69,0.03672
1519.84,0.03493
1515.98,0.03338
1512.12,0.03386
1508.26,0.04301
1504.41,0.04288
1500.55,0.03719
1496.69,0.03128
1492.83,0.02814
1488.98,0.03164
1485.12,0.02849
1481.26,0.02951
1477.4,0.03317
1473.55,0.04136
1469.69,0.03794
1465.83,0.03536
1461.97,0.03451
1458.12,0.03972
1454.26,0.03844
1450.4,0.03578
1446.54,0.03422
1442.69,0.03214
1438.83,0.03260
1434.97,0.03212
1431.11,0.02938
1427.26,0.02715
1423.4,0.02812
1419.54,0.03382
1415.69,0.04684
1411.83,0.06497
1407.97,0.07246
1404.11,0.05882
1400.26,0.04815
1396.4,0.04306
1392.54,0.03765
1388.68,0.03786
1384.83,0.03709
1380.97,0.03588
1377.11,0.03667
1373.25,0.03777
1369.4,0.03608
1365.54,0.03381
1361.68,0.03174
1357.82,0.02872
1353.97,0.02993
1350.11,0.03620
1346.25,0.05436
1342.39,0.08087
1338.54,0.08744
1334.68,0.06064
1330.82,0.04042
1326.96,0.03211
1323.11,0.03102
1319.25,0.03334
1315.39,0.03538
1311.53,0.03775
1307.68,0.04119
1303.82,0.04629
1299.96,0.05439
1296.1,0.06570
1292.25,0.07773
1288.39,0.09052
1284.53,0.10321
1280.67,0.11814
1276.82,0.13503
1272.96,0.15429
1269.1,0.17645
1265.24,0.19811
1261.39,0.21655
1257.53,0.23024
1253.67,0.24445
1249.81,0.26292
1245.96,0.27954
1242.1,0.28439
1238.24,0.26715
1234.38,0.22938
1230.53,0.18767
1226.67,0.15652
1222.81,0.13517
1218.95,0.11668
1215.1,0.10097
1211.24,0.08954
1207.38,0.08037
1203.53,0.07232
1199.67,0.06509
1195.81,0.05898
1191.95,0.05450
1188.1,0.05174
1184.24,0.05074
1180.38,0.05144
1176.52,0.05265
1172.67,0.05210
1168.81,0.04922
1164.95,0.04738
1161.09,0.04756
1157.24,0.04879
1153.38,0.05096
1149.52,0.05481
1145.66,0.06154
1141.81,0.07315
1137.95,0.09195
1134.09,0.11965
1130.23,0.15150
1126.38,0.17809
1122.52,0.19393
1118.66,0.19673
1114.8,0.19300
1110.95,0.19772
1107.09,0.21106
1103.23,0.22826
1099.37,0.24011
1095.52,0.23961
1091.66,0.22709
1087.8,0.20840
1083.94,0.18695
1080.09,0.16186
1076.23,0.13653
1072.37,0.11658
1068.51,0.10228
1064.66,0.09190
1060.8,0.08438
1056.94,0.07965
1053.08,0.07758
1049.23,0.07751
1045.37,0.07736
1041.51,0.07575
1037.65,0.07211
1033.8,0.06837
1029.94,0.06869
1026.08,0.09138
1022.22,0.13392
1018.37,0.15565
1014.51,0.13438
1010.65,0.09762
1006.8,0.07850
1002.94,0.06913
999.08,0.06377
995.223,0.06024
991.365,0.05904
987.508,0.05847
983.65,0.05835
979.793,0.06146
975.935,0.06853
972.078,0.07586
968.221,0.07514
964.363,0.06771
960.506,0.06046
956.648,0.05492
952.791,0.05111
948.933,0.04819
945.076,0.04628
941.218,0.04473
937.361,0.04331
933.503,0.04234
929.646,0.04119
925.789,0.04009
921.931,0.03961
918.074,0.03923
914.216,0.03936
910.359,0.04021
906.501,0.04202
902.644,0.04446
898.786,0.04568
894.929,0.04543
891.072,0.04451
887.214,0.04508
883.357,0.04954
879.499,0.05978
875.642,0.08077
871.784,0.09891
867.927,0.07515
864.069,0.05978
860.212,0.05807
856.354,0.06032
852.497,0.06467
848.64,0.06929
844.782,0.06700
840.925,0.05976
837.067,0.05336
833.21,0.04857
829.352,0.04529
825.495,0.04318
821.637,0.04242
817.78,0.04144
813.922,0.04071
810.065,0.04100
806.208,0.04119
802.35,0.04106
798.493,0.04220
794.635,0.04699
790.778,0.04663
786.92,0.04158
783.063,0.03771
779.205,0.03533
775.348,0.03427
771.49,0.03296
767.633,0.03040
763.776,0.02913
759.918,0.02854
756.061,0.02750
752.203,0.02701
748.346,0.02686
744.488,0.03141
740.631,0.04569
736.773,0.08494
732.916,0.15111
729.058,0.23760
725.201,0.31396
721.344,0.27958
717.486,0.18079
713.629,0.12380
709.771,0.09764
705.914,0.08350
702.056,0.07316
698.199,0.06347
694.341,0.05656
690.484,0.05237
686.627,0.04995
682.769,0.04931
678.912,0.04955
675.054,0.04823
671.197,0.04662
667.339,0.04372
663.482,0.04315
659.624,0.04280
655.767,0.04076
651.909,0.03948
648.052,0.03873
644.195,0.03839
640.337,0.03828
636.48,0.03886
632.622,0.04044
628.765,0.03833
624.907,0.03540
621.05,0.03576
617.192,0.04129
613.335,0.03919
609.477,0.03886
605.62,0.03465
601.763,0.03721
599.834,0.03882