File: 01_Data/Air_Fryer/MCC/Air_Fryer_MCC_30K_min_220203_R1.txt
Sample ID:	C:\MCC\MCC Cal\Test\Air_Fryer_MCC_30K_min_220203_R1.txt
Sample Weight (mg):	4.86
Heating Rate (C/s):	0.5
Combustor Temp (C):	900
N2 Flow Rate (cc/min):	80
O2 Flow Rate (cc/min):	20
Calibration File:	C:\MCC\MCC Cal\Coeff1 JN10440_30_210304.txt.txt
T Correction Coefficients:	0	1.024463	0
Time Shift (s):	14
*
Time (s)	Temperature (C)	N2 flow rate (cc/min)	O2 flow rate (cc/min)	Flow Rate (cc/min)	Oxygen (%)	HRR (W/g)	Heating rate (C/s)
0.000	112.076	80.006	19.995	103.796	20.171	-0.138	-0.012
2.000	112.053	80.007	19.996	103.812	20.171	-0.154	-0.013
4.000	112.087	80.007	19.996	103.818	20.172	-0.207	-0.002
6.000	112.090	80.007	19.993	103.818	20.172	-0.233	0.009
8.000	112.025	80.007	19.994	103.817	20.168	0.048	-0.027
10.000	112.063	80.008	19.993	103.836	20.163	0.382	-0.011
12.000	112.066	80.009	19.994	103.884	20.163	0.354	0.007
14.000	112.115	80.010	19.993	103.908	20.158	0.738	0.030
16.001	112.193	80.009	19.994	103.916	20.154	0.972	0.056
18.001	112.260	80.008	19.995	103.908	20.153	1.056	0.045
20.000	112.339	80.006	19.993	103.940	20.149	1.279	0.049
22.000	112.492	80.006	19.994	103.950	20.146	1.481	0.089
24.000	112.619	80.008	19.993	103.946	20.143	1.681	0.078
26.000	112.761	80.006	19.994	103.957	20.145	1.589	0.100
28.000	112.980	80.006	19.993	103.985	20.139	1.953	0.125
30.000	113.204	80.006	19.995	103.986	20.137	2.128	0.102
32.001	113.449	80.006	19.994	103.994	20.141	1.841	0.122
34.000	113.720	80.006	19.994	104.000	20.136	2.186	0.122
36.000	114.002	80.007	19.993	103.988	20.135	2.240	0.136
38.000	114.304	80.007	19.994	103.993	20.134	2.309	0.179
40.000	114.631	80.007	19.993	104.000	20.132	2.429	0.162
42.001	115.015	80.005	19.993	103.997	20.135	2.233	0.181
44.000	115.354	80.005	19.994	103.991	20.133	2.361	0.165
46.000	115.726	80.005	19.994	103.987	20.132	2.420	0.185
48.000	116.152	80.005	19.993	103.993	20.134	2.332	0.210
50.000	116.569	80.006	19.994	104.000	20.129	2.617	0.225
52.000	116.957	80.006	19.994	104.005	20.133	2.374	0.194
54.000	117.431	80.005	19.993	104.007	20.131	2.514	0.235
56.000	117.905	80.006	19.994	104.004	20.133	2.409	0.202
58.001	118.317	80.006	19.993	104.011	20.132	2.433	0.192
60.000	118.807	80.007	19.994	104.017	20.128	2.735	0.257
62.001	119.327	80.007	19.995	104.022	20.131	2.488	0.261
64.000	119.852	80.007	19.993	104.022	20.129	2.656	0.246
66.001	120.388	80.007	19.994	104.022	20.128	2.735	0.257
68.000	120.917	80.008	19.995	104.024	20.130	2.590	0.268
70.000	121.460	80.008	19.995	104.024	20.129	2.669	0.304
72.000	122.077	80.008	19.994	104.023	20.130	2.550	0.273
74.000	122.653	80.009	19.995	104.026	20.126	2.826	0.309
76.000	123.237	80.008	19.994	104.029	20.126	2.863	0.283
78.000	123.852	80.007	19.994	104.042	20.127	2.802	0.290
80.000	124.497	80.007	19.993	104.057	20.124	2.957	0.313
82.000	125.152	80.008	19.993	104.058	20.125	2.944	0.301
84.000	125.783	80.008	19.994	104.062	20.127	2.799	0.322
86.000	126.502	80.007	19.995	104.065	20.125	2.942	0.348
88.000	127.148	80.008	19.995	104.066	20.124	2.970	0.339
90.001	127.864	80.008	19.996	104.067	20.119	3.315	0.376
92.001	128.580	80.008	19.994	104.072	20.118	3.391	0.373
94.000	129.315	80.008	19.995	104.077	20.119	3.344	0.343
96.000	130.092	80.008	19.995	104.077	20.118	3.410	0.388
98.000	130.849	80.007	19.995	104.083	20.116	3.498	0.372
100.000	131.622	80.008	19.994	104.074	20.116	3.488	0.408
102.000	132.379	80.007	19.995	104.088	20.117	3.481	0.379
104.001	133.185	80.005	19.995	104.095	20.119	3.310	0.390
106.000	133.957	80.006	19.994	104.096	20.118	3.367	0.419
108.000	134.793	80.006	19.994	104.097	20.117	3.424	0.409
110.000	135.645	80.006	19.993	104.091	20.115	3.553	0.419
112.001	136.544	80.006	19.993	104.086	20.118	3.393	0.431
114.001	137.375	80.005	19.994	104.084	20.115	3.580	0.435
116.000	138.319	80.006	19.994	104.093	20.116	3.540	0.430
118.000	139.218	80.006	19.994	104.088	20.118	3.413	0.452
120.000	140.142	80.005	19.995	104.084	20.117	3.440	0.476
122.000	141.039	80.007	19.994	104.078	20.120	3.231	0.421
124.000	141.969	80.006	19.995	104.079	20.117	3.428	0.451
126.000	142.921	80.007	19.994	104.089	20.115	3.556	0.485
128.000	143.873	80.007	19.993	104.083	20.118	3.358	0.477
130.000	144.766	80.007	19.994	104.086	20.117	3.433	0.454
132.000	145.783	80.006	19.995	104.079	20.117	3.437	0.463
134.000	146.743	80.006	19.993	104.083	20.117	3.448	0.455
136.000	147.737	80.005	19.994	104.074	20.117	3.471	0.534
138.000	148.675	80.006	19.994	104.078	20.115	3.595	0.465
140.000	149.685	80.005	19.995	104.067	20.118	3.416	0.532
142.000	150.702	80.005	19.994	104.074	20.119	3.333	0.536
144.000	151.637	80.006	19.995	104.082	20.119	3.293	0.496
146.000	152.638	80.008	19.994	104.070	20.117	3.469	0.514
148.000	153.597	80.007	19.993	104.071	20.118	3.388	0.478
150.000	154.584	80.008	19.996	104.067	20.117	3.420	0.493
152.000	155.626	80.009	19.994	104.067	20.122	3.101	0.499
154.000	156.517	80.008	19.994	104.064	20.122	3.098	0.455
156.000	157.558	80.006	19.996	104.063	20.119	3.320	0.498
158.000	158.565	80.005	19.994	104.063	20.119	3.348	0.510
160.000	159.516	80.008	19.995	104.065	20.120	3.274	0.469
162.000	160.474	80.007	19.994	104.064	20.120	3.236	0.481
164.000	161.464	80.007	19.994	104.057	20.120	3.258	0.477
166.000	162.516	80.007	19.994	104.065	20.119	3.287	0.515
168.001	163.490	80.006	19.996	104.067	20.118	3.397	0.509
170.000	164.500	80.008	19.995	104.062	20.118	3.402	0.524
172.000	165.516	80.006	19.994	104.064	20.119	3.327	0.532
174.000	166.500	80.009	19.993	104.064	20.118	3.375	0.531
176.000	167.502	80.007	19.995	104.064	20.119	3.340	0.499
178.000	168.517	80.009	19.994	104.060	20.121	3.175	0.508
180.000	169.509	80.008	19.994	104.051	20.123	3.040	0.494
182.000	170.491	80.009	19.992	104.043	20.124	2.957	0.519
184.000	171.489	80.007	19.995	104.047	20.120	3.259	0.475
186.000	172.495	80.007	19.992	104.047	20.125	2.934	0.502
188.000	173.477	80.007	19.996	104.046	20.118	3.356	0.498
190.001	174.479	80.005	19.995	104.044	20.124	3.001	0.494
192.000	175.452	80.007	19.996	104.045	20.121	3.211	0.506
194.000	176.478	80.006	19.996	104.035	20.123	3.044	0.513
196.000	177.463	80.005	19.995	104.039	20.122	3.097	0.514
198.000	178.467	80.005	19.996	104.036	20.123	3.068	0.502
200.000	179.419	80.007	19.996	104.031	20.119	3.299	0.495
202.000	180.387	80.008	19.995	104.031	20.120	3.220	0.487
204.000	181.422	80.008	19.993	104.034	20.123	3.066	0.515
206.000	182.409	80.006	19.993	104.037	20.121	3.157	0.499
208.000	183.385	80.007	19.995	104.032	20.125	2.885	0.492
210.000	184.360	80.007	19.996	104.037	20.121	3.214	0.498
212.000	185.360	80.006	19.995	104.033	20.123	3.018	0.486
214.000	186.368	80.007	19.995	104.029	20.122	3.143	0.490
216.000	187.431	80.006	19.995	104.025	20.121	3.202	0.554
218.000	188.398	80.006	19.994	104.027	20.122	3.110	0.507
220.000	189.342	80.005	19.994	104.025	20.124	2.952	0.483
222.000	190.357	80.007	19.994	104.023	20.124	3.001	0.514
224.000	191.314	80.005	19.994	104.028	20.124	2.966	0.473
226.000	192.298	80.005	19.994	104.032	20.123	3.031	0.513
228.001	193.262	80.006	19.994	104.027	20.124	2.992	0.528
230.000	194.227	80.006	19.994	104.028	20.123	3.034	0.476
232.000	195.218	80.007	19.993	104.027	20.124	2.978	0.484
234.000	196.188	80.008	19.994	104.027	20.126	2.854	0.484
236.000	197.164	80.009	19.994	104.027	20.123	3.022	0.480
238.000	198.121	80.009	19.995	104.028	20.124	2.998	0.453
240.000	199.143	80.007	19.995	104.031	20.124	2.985	0.512
242.000	200.139	80.008	19.994	104.038	20.123	3.042	0.491
244.000	201.105	80.006	19.995	104.034	20.123	3.068	0.506
246.000	202.078	80.007	19.994	104.031	20.121	3.176	0.520
248.000	203.122	80.007	19.993	104.031	20.123	3.065	0.527
250.000	204.106	80.007	19.994	104.032	20.124	2.961	0.518
252.000	205.128	80.008	19.994	104.029	20.124	2.997	0.529
254.000	206.183	80.008	19.994	104.032	20.123	3.067	0.525
256.000	207.180	80.009	19.994	104.026	20.124	2.997	0.534
258.000	208.194	80.008	19.994	104.025	20.126	2.815	0.501
260.000	209.189	80.009	19.996	104.022	20.125	2.896	0.471
262.000	210.239	80.009	19.994	104.021	20.124	2.979	0.495
264.000	211.276	80.009	19.994	104.021	20.122	3.108	0.507
266.000	212.284	80.008	19.994	104.022	20.123	3.067	0.475
268.000	213.295	80.008	19.994	104.019	20.128	2.700	0.497
270.000	214.306	80.007	19.994	104.018	20.127	2.793	0.521
272.000	215.317	80.005	19.995	104.023	20.127	2.773	0.507
274.000	216.335	80.009	19.993	104.020	20.125	2.922	0.531
276.000	217.326	80.007	19.993	104.020	20.126	2.867	0.508
278.000	218.320	80.008	19.994	104.018	20.126	2.850	0.507
280.000	219.340	80.007	19.995	104.016	20.127	2.776	0.512
282.000	220.327	80.006	19.993	104.005	20.127	2.782	0.464
284.000	221.327	80.008	19.994	104.016	20.130	2.549	0.499
286.000	222.291	80.006	19.994	104.015	20.130	2.585	0.493
288.000	223.288	80.007	19.995	104.004	20.133	2.401	0.458
290.000	224.303	80.006	19.995	103.996	20.128	2.681	0.503
292.000	225.309	80.005	19.996	104.000	20.132	2.479	0.510
294.000	226.287	80.005	19.995	104.014	20.129	2.664	0.471
296.000	227.306	80.006	19.995	103.994	20.131	2.506	0.497
298.000	228.315	80.005	19.995	104.001	20.127	2.811	0.488
300.000	229.326	80.007	19.995	103.998	20.128	2.727	0.516
302.000	230.334	80.006	19.994	103.992	20.131	2.501	0.504
304.000	231.272	80.007	19.993	103.999	20.128	2.710	0.472
306.000	232.291	80.007	19.994	103.992	20.126	2.863	0.506
308.000	233.297	80.005	19.995	103.996	20.128	2.703	0.510
310.000	234.276	80.006	19.994	104.005	20.133	2.396	0.496
312.000	235.216	80.005	19.994	103.999	20.126	2.826	0.474
314.000	236.188	80.006	19.995	103.994	20.130	2.607	0.461
316.000	237.172	80.007	19.994	104.000	20.129	2.668	0.459
318.000	238.175	80.008	19.993	103.992	20.126	2.816	0.526
320.000	239.134	80.008	19.994	103.988	20.125	2.908	0.466
322.000	240.115	80.009	19.994	103.986	20.128	2.737	0.474
324.000	241.049	80.010	19.994	103.986	20.124	3.002	0.447
326.000	242.074	80.008	19.994	103.986	20.125	2.881	0.516
328.000	243.054	80.008	19.994	103.986	20.125	2.923	0.490
330.000	244.038	80.008	19.996	103.990	20.126	2.838	0.507
332.000	244.981	80.007	19.994	103.987	20.127	2.800	0.471
334.000	245.945	80.007	19.994	103.985	20.128	2.730	0.498
336.000	246.908	80.008	19.994	103.986	20.128	2.713	0.500
338.000	247.830	80.007	19.994	103.986	20.128	2.691	0.467
340.000	248.828	80.009	19.993	103.985	20.127	2.794	0.471
342.000	249.806	80.009	19.995	103.984	20.129	2.669	0.505
344.000	250.771	80.008	19.993	103.984	20.126	2.847	0.489
346.000	251.729	80.009	19.992	103.984	20.127	2.787	0.501
348.000	252.668	80.009	19.994	103.982	20.128	2.686	0.459
350.000	253.606	80.008	19.993	103.979	20.126	2.822	0.474
352.000	254.571	80.007	19.993	103.983	20.126	2.840	0.465
354.000	255.498	80.006	19.995	103.985	20.131	2.488	0.485
356.000	256.439	80.006	19.995	103.982	20.129	2.668	0.460
358.000	257.366	80.006	19.994	103.986	20.128	2.723	0.438
360.000	258.296	80.006	19.996	103.986	20.127	2.765	0.486
362.000	259.270	80.005	19.995	103.985	20.129	2.647	0.478
364.000	260.251	80.007	19.993	103.984	20.128	2.702	0.477
366.000	261.148	80.006	19.995	103.986	20.129	2.675	0.450
368.000	262.138	80.007	19.994	103.987	20.128	2.691	0.516
370.000	263.083	80.005	19.995	103.988	20.124	3.011	0.468
372.000	264.031	80.005	19.994	103.987	20.125	2.903	0.519
374.000	264.983	80.006	19.994	103.987	20.128	2.719	0.473
376.000	265.939	80.006	19.995	103.989	20.126	2.849	0.472
378.000	266.902	80.004	19.995	103.988	20.127	2.778	0.494
380.000	267.925	80.006	19.996	103.989	20.125	2.881	0.475
382.000	268.882	80.005	19.995	103.989	20.126	2.855	0.494
384.000	269.827	80.005	19.996	103.988	20.125	2.916	0.496
386.000	270.852	80.005	19.995	103.988	20.125	2.914	0.487
388.000	271.836	80.006	19.996	103.985	20.126	2.840	0.504
390.000	272.808	80.006	19.997	103.985	20.125	2.943	0.486
392.000	273.846	80.008	19.996	103.987	20.126	2.831	0.483
394.000	274.834	80.006	19.996	103.984	20.128	2.693	0.513
396.000	275.849	80.007	19.995	103.985	20.122	3.145	0.522
398.000	276.867	80.006	19.994	103.985	20.124	2.987	0.517
400.000	277.859	80.008	19.994	103.985	20.123	3.066	0.507
402.000	278.872	80.009	19.994	103.983	20.126	2.866	0.516
404.000	279.896	80.009	19.994	103.985	20.122	3.112	0.540
406.000	280.924	80.009	19.995	103.986	20.124	3.007	0.522
408.000	281.911	80.007	19.993	103.987	20.124	2.978	0.492
410.000	282.935	80.007	19.994	103.986	20.124	2.969	0.496
412.000	283.959	80.008	19.994	103.984	20.123	3.046	0.508
414.000	285.025	80.006	19.994	103.985	20.127	2.783	0.511
416.000	286.044	80.007	19.993	103.984	20.123	3.026	0.521
418.000	287.142	80.008	19.994	103.985	20.122	3.125	0.530
420.001	288.199	80.007	19.994	103.985	20.124	2.960	0.540
422.000	289.261	80.009	19.995	103.987	20.124	2.994	0.549
424.000	290.298	80.008	19.994	103.986	20.124	2.993	0.535
426.000	291.368	80.009	19.993	103.987	20.120	3.215	0.566
428.000	292.423	80.009	19.993	103.989	20.122	3.090	0.519
430.000	293.478	80.009	19.993	103.984	20.124	2.963	0.525
432.000	294.510	80.008	19.993	103.985	20.122	3.127	0.517
434.000	295.563	80.007	19.993	103.985	20.124	2.987	0.515
436.000	296.586	80.006	19.993	103.984	20.122	3.081	0.515
438.000	297.660	80.005	19.993	103.987	20.123	3.026	0.539
440.000	298.649	80.005	19.993	103.987	20.123	3.015	0.514
442.000	299.681	80.006	19.994	103.984	20.125	2.891	0.503
444.000	300.762	80.005	19.995	103.986	20.120	3.270	0.546
446.000	301.759	80.006	19.995	103.981	20.124	2.972	0.519
448.000	302.801	80.005	19.995	103.977	20.125	2.939	0.504
450.000	303.845	80.006	19.998	103.982	20.123	3.036	0.503
452.000	304.857	80.007	19.995	103.976	20.128	2.735	0.511
454.000	305.867	80.006	19.995	103.976	20.124	2.996	0.480
456.000	306.894	80.006	19.994	103.966	20.126	2.823	0.507
458.000	307.894	80.006	19.995	103.968	20.124	2.954	0.462
460.000	308.955	80.008	19.994	103.971	20.127	2.755	0.528
462.001	309.962	80.006	19.994	103.958	20.124	2.968	0.507
464.000	310.993	80.006	19.994	103.966	20.123	3.019	0.510
466.000	312.039	80.005	19.994	103.969	20.123	3.064	0.512
468.000	313.053	80.006	19.995	103.968	20.123	3.069	0.512
470.000	314.083	80.005	19.994	103.976	20.122	3.104	0.496
472.000	315.073	80.007	19.995	103.959	20.122	3.080	0.490
474.000	316.085	80.005	19.996	103.964	20.122	3.097	0.514
476.000	317.088	80.007	19.995	103.955	20.125	2.924	0.482
478.000	318.092	80.006	19.995	103.960	20.122	3.115	0.472
480.000	319.073	80.007	19.996	103.961	20.124	3.008	0.525
482.000	320.095	80.006	19.996	103.958	20.122	3.110	0.514
484.000	321.099	80.008	19.995	103.966	20.123	3.014	0.499
486.000	322.053	80.008	19.995	103.968	20.120	3.225	0.472
488.000	323.090	80.007	19.994	103.962	20.118	3.356	0.487
490.000	324.101	80.007	19.994	103.961	20.118	3.350	0.498
492.000	325.102	80.008	19.994	103.959	20.119	3.319	0.505
494.001	326.100	80.008	19.993	103.960	20.120	3.255	0.537
496.000	327.068	80.006	19.994	103.961	20.119	3.295	0.471
498.000	328.064	80.007	19.994	103.971	20.121	3.213	0.466
500.000	329.026	80.007	19.994	103.965	20.118	3.360	0.476
502.000	330.036	80.007	19.995	103.963	20.118	3.376	0.527
504.000	331.015	80.007	19.994	103.966	20.120	3.259	0.461
506.000	332.026	80.008	19.993	103.956	20.117	3.423	0.487
508.000	333.081	80.009	19.994	103.961	20.120	3.216	0.534
510.000	334.105	80.009	19.997	103.978	20.118	3.394	0.524
512.000	335.041	80.009	19.996	103.965	20.116	3.541	0.466
514.000	336.061	80.009	19.994	103.974	20.113	3.682	0.509
516.000	337.049	80.009	19.995	103.959	20.115	3.568	0.485
518.001	338.047	80.008	19.993	103.951	20.114	3.623	0.481
520.000	339.024	80.008	19.993	103.952	20.113	3.695	0.475
522.000	340.067	80.007	19.994	103.962	20.111	3.836	0.509
524.000	341.057	80.008	19.995	103.958	20.114	3.618	0.519
526.000	342.079	80.007	19.994	103.951	20.113	3.699	0.537
528.000	343.000	80.006	19.993	103.946	20.112	3.801	0.475
530.000	344.000	80.007	19.994	103.949	20.111	3.823	0.495
532.000	345.031	80.008	19.994	103.947	20.112	3.757	0.512
534.000	346.025	80.007	19.994	103.947	20.111	3.840	0.501
536.000	347.048	80.008	19.993	103.951	20.110	3.930	0.528
538.000	348.048	80.007	19.994	103.952	20.111	3.859	0.534
540.000	349.056	80.006	19.994	103.947	20.112	3.781	0.504
542.000	350.096	80.007	19.993	103.948	20.107	4.105	0.517
544.000	351.066	80.006	19.995	103.947	20.110	3.919	0.488
546.000	352.073	80.006	19.995	103.948	20.109	3.972	0.505
548.000	353.080	80.007	19.995	103.953	20.103	4.375	0.501
550.000	354.120	80.005	19.996	103.951	20.109	3.972	0.473
552.000	355.129	80.005	19.994	103.954	20.106	4.173	0.500
554.000	356.113	80.005	19.995	103.950	20.103	4.356	0.502
556.000	357.158	80.006	19.995	103.952	20.104	4.314	0.515
558.000	358.164	80.007	19.995	103.953	20.103	4.376	0.487
560.000	359.199	80.008	19.995	103.952	20.104	4.316	0.523
562.000	360.190	80.006	19.996	103.950	20.104	4.286	0.503
564.000	361.226	80.008	19.994	103.956	20.101	4.511	0.531
566.000	362.203	80.008	19.993	103.953	20.100	4.556	0.497
568.000	363.216	80.007	19.994	103.953	20.101	4.490	0.511
570.000	364.226	80.007	19.995	103.948	20.099	4.617	0.479
572.000	365.267	80.008	19.993	103.949	20.098	4.723	0.496
574.001	366.266	80.006	19.995	103.950	20.100	4.560	0.491
576.000	367.325	80.006	19.994	103.953	20.094	4.955	0.504
578.000	368.373	80.007	19.994	103.949	20.102	4.477	0.543
580.000	369.366	80.007	19.995	103.948	20.098	4.733	0.542
582.000	370.453	80.007	19.996	103.946	20.092	5.102	0.559
584.000	371.500	80.007	19.995	103.946	20.091	5.192	0.488
586.000	372.419	80.007	19.994	103.945	20.090	5.256	0.579
588.000	373.690	80.009	19.994	103.945	20.090	5.276	0.578
590.000	374.386	80.008	19.993	103.947	20.090	5.276	0.483
592.000	375.948	80.009	19.994	103.946	20.088	5.355	0.680
594.000	376.665	80.009	19.992	103.947	20.086	5.546	0.090
596.000	377.689	80.008	19.993	103.947	20.082	5.765	0.482
598.001	378.678	80.009	19.993	103.946	20.086	5.533	0.528
600.000	379.713	80.008	19.994	103.943	20.077	6.084	0.507
602.000	380.818	80.007	19.994	103.945	20.078	6.042	0.461
604.000	381.846	80.006	19.994	103.948	20.076	6.174	0.537
606.000	382.870	80.007	19.993	103.947	20.073	6.371	0.464
608.000	383.867	80.006	19.993	103.945	20.074	6.295	0.481
610.000	384.894	80.007	19.993	103.945	20.071	6.518	0.495
612.000	385.973	80.006	19.993	103.944	20.069	6.661	0.528
614.000	386.969	80.005	19.994	103.947	20.069	6.677	0.538
616.000	388.003	80.006	19.993	103.947	20.065	6.907	0.521
618.000	389.012	80.008	19.994	103.948	20.062	7.144	0.494
620.000	390.032	80.006	19.994	103.944	20.064	7.008	0.520
622.000	391.053	80.006	19.993	103.950	20.060	7.274	0.522
624.000	392.133	80.007	19.993	103.947	20.052	7.766	0.536
626.000	393.134	80.007	19.994	103.945	20.049	7.988	0.533
628.000	394.189	80.006	19.992	103.945	20.049	8.005	0.528
630.000	395.213	80.006	19.994	103.949	20.046	8.160	0.506
632.000	396.199	80.006	19.994	103.948	20.043	8.405	0.526
634.000	397.248	80.006	19.994	103.942	20.037	8.767	0.512
636.000	398.262	80.005	19.994	103.941	20.031	9.191	0.519
638.000	399.247	80.006	19.994	103.941	20.029	9.286	0.513
640.000	400.262	80.005	19.994	103.939	20.024	9.640	0.498
642.000	401.307	80.006	19.994	103.944	20.015	10.240	0.501
644.000	402.333	80.008	19.994	103.937	20.011	10.510	0.533
646.001	403.394	80.007	19.994	103.926	20.002	11.121	0.532
648.000	404.371	80.009	19.994	103.928	19.999	11.303	0.493
650.000	405.391	80.007	19.995	103.936	19.993	11.697	0.513
652.000	406.411	80.008	19.996	103.929	19.988	12.040	0.542
654.000	407.442	80.008	19.993	103.926	19.981	12.522	0.500
656.000	408.450	80.008	19.994	103.934	19.975	12.916	0.480
658.000	409.491	80.009	19.994	103.941	19.966	13.507	0.544
660.000	410.528	80.007	19.992	103.937	19.953	14.353	0.525
662.000	411.516	80.008	19.995	103.941	19.939	15.350	0.511
664.000	412.500	80.007	19.993	103.922	19.924	16.336	0.482
666.000	413.511	80.007	19.995	103.910	19.914	16.976	0.490
668.000	414.528	80.008	19.995	103.904	19.908	17.407	0.492
670.000	415.505	80.008	19.993	103.905	19.898	18.063	0.462
672.000	416.552	80.007	19.995	103.904	19.892	18.429	0.520
674.000	417.560	80.009	19.994	103.906	19.879	19.327	0.503
676.000	418.543	80.008	19.993	103.921	19.869	20.019	0.505
678.000	419.531	80.009	19.994	103.918	19.849	21.307	0.476
680.000	420.518	80.008	19.995	103.913	19.834	22.343	0.501
682.000	421.541	80.009	19.994	103.910	19.808	24.074	0.501
684.000	422.550	80.006	19.994	103.926	19.776	26.211	0.481
686.000	423.515	80.006	19.993	103.947	19.747	28.129	0.478
688.000	424.488	80.007	19.993	103.919	19.713	30.400	0.471
690.000	425.522	80.006	19.996	103.893	19.683	32.368	0.531
692.000	426.472	80.006	19.994	103.880	19.652	34.459	0.486
694.000	427.502	80.007	19.994	103.886	19.618	36.687	0.481
696.000	428.474	80.007	19.994	103.908	19.576	39.514	0.492
698.000	429.501	80.006	19.993	103.901	19.530	42.611	0.483
700.000	430.464	80.006	19.994	103.909	19.470	46.579	0.471
702.000	431.432	80.006	19.995	103.894	19.409	50.669	0.473
704.000	432.461	80.006	19.993	103.881	19.336	55.487	0.505
706.000	433.423	80.007	19.993	103.874	19.261	60.476	0.486
708.000	434.391	80.006	19.995	103.872	19.163	66.954	0.495
710.000	435.399	80.007	19.994	103.896	19.043	74.963	0.495
712.000	436.413	80.006	19.993	103.911	18.912	83.754	0.487
714.000	437.418	80.006	19.994	103.878	18.772	93.081	0.532
716.000	438.373	80.006	19.994	103.839	18.638	101.947	0.474
718.000	439.391	80.005	19.994	103.768	18.509	110.487	0.488
720.000	440.369	80.006	19.993	103.735	18.358	120.484	0.488
722.000	441.373	80.006	19.993	103.777	18.195	131.378	0.511
724.000	442.286	80.007	19.994	103.800	18.011	143.493	0.502
726.000	443.302	80.007	19.994	103.786	17.833	155.280	0.513
728.000	444.297	80.007	19.994	103.707	17.637	168.368	0.474
730.000	445.290	80.007	19.993	103.663	17.415	183.101	0.466
732.000	446.282	80.008	19.992	103.670	17.188	197.945	0.486
734.000	447.232	80.008	19.996	103.659	16.958	213.001	0.486
736.000	448.257	80.009	19.994	103.572	16.687	231.027	0.486
738.000	449.267	80.008	19.993	103.560	16.398	250.367	0.514
740.000	450.230	80.008	19.992	103.594	16.128	268.067	0.478
742.000	451.235	80.007	19.994	103.510	15.876	284.643	0.479
744.000	452.269	80.006	19.995	103.391	15.614	302.156	0.518
746.000	453.249	80.007	19.994	103.335	15.294	322.182	0.515
748.000	454.305	80.007	19.995	103.406	14.954	344.354	0.559
750.000	455.304	80.008	19.994	103.413	14.594	367.800	0.512
752.000	456.244	80.007	19.994	103.256	14.157	396.798	0.503
754.000	457.265	80.007	19.995	103.373	13.763	423.078	0.506
756.000	458.290	80.009	19.996	103.130	13.355	448.651	0.522
758.000	459.326	80.009	19.994	102.888	12.965	473.860	0.529
760.000	460.359	80.008	19.996	102.840	12.583	499.073	0.505
762.000	461.340	80.009	19.992	102.748	12.140	528.420	0.499
764.000	462.404	80.008	19.993	102.907	11.764	552.699	0.509
766.000	463.402	80.007	19.995	102.751	11.428	574.640	0.472
768.000	464.441	80.004	19.994	102.479	11.116	594.795	0.503
770.000	465.429	80.005	19.994	102.483	10.847	613.953	0.495
772.000	466.476	80.007	19.993	102.521	10.649	627.642	0.545
774.000	467.507	80.006	19.995	102.483	10.498	636.732	0.543
776.000	468.563	80.007	19.994	102.434	10.462	638.954	0.541
778.000	469.553	80.006	19.995	102.353	10.404	643.347	0.473
780.000	470.618	80.006	19.994	102.460	10.356	645.543	0.513
782.000	471.646	80.008	19.994	102.715	10.356	644.780	0.528
784.000	472.717	80.007	19.993	102.615	10.384	643.711	0.506
786.000	473.766	80.007	19.993	102.542	10.412	643.390	0.543
788.000	474.824	80.007	19.994	102.582	10.546	635.512	0.525
790.000	475.876	80.008	19.994	102.582	10.816	617.650	0.508
792.000	476.951	80.006	19.995	102.390	11.177	594.007	0.516
794.000	478.035	80.006	19.995	102.389	11.619	565.974	0.521
796.000	479.061	80.005	19.994	102.593	12.120	533.811	0.519
798.000	480.118	80.005	19.994	102.816	12.695	496.401	0.528
800.000	481.201	80.005	19.994	102.906	13.341	454.117	0.558
802.000	482.268	80.004	19.995	102.856	14.019	409.380	0.534
804.000	483.305	80.005	19.995	103.022	14.709	363.714	0.519
806.000	484.393	80.006	19.994	103.207	15.384	318.894	0.542
808.000	485.462	80.007	19.993	103.389	16.019	276.670	0.533
810.000	486.515	80.007	19.994	103.539	16.598	238.078	0.537
812.000	487.589	80.008	19.993	103.650	17.125	202.941	0.527
814.000	488.660	80.007	19.994	103.738	17.587	172.209	0.541
816.000	489.672	80.009	19.992	103.800	17.994	145.088	0.497
818.001	490.745	80.008	19.993	103.839	18.347	121.536	0.518
820.000	491.789	80.006	19.993	103.866	18.650	101.320	0.549
822.000	492.835	80.008	19.993	103.873	18.919	83.406	0.540
824.000	493.904	80.007	19.994	103.891	19.147	68.209	0.556
826.000	494.935	80.008	19.993	103.909	19.339	55.402	0.554
828.000	495.963	80.007	19.993	103.916	19.513	43.788	0.502
830.000	496.976	80.007	19.995	103.925	19.653	34.412	0.510
832.000	497.974	80.007	19.994	103.948	19.770	26.612	0.486
834.000	499.030	80.008	19.994	103.951	19.862	20.479	0.531
836.000	500.025	80.009	19.994	103.966	19.931	15.860	0.526
838.001	501.022	80.009	19.996	103.982	19.981	12.547	0.519
840.000	502.028	80.009	19.994	103.960	20.021	9.871	0.500
842.000	503.052	80.009	19.992	103.947	20.046	8.175	0.488
844.000	504.053	80.009	19.994	103.941	20.062	7.119	0.480
846.001	505.026	80.009	19.995	103.927	20.075	6.256	0.481
848.000	506.043	80.008	19.996	103.920	20.084	5.676	0.504
850.000	507.078	80.008	19.995	103.917	20.091	5.175	0.516
852.000	508.062	80.006	19.994	103.909	20.094	4.976	0.503
854.000	509.091	80.006	19.994	103.907	20.096	4.871	0.529
856.000	510.108	80.007	19.994	103.906	20.099	4.666	0.497
858.000	511.104	80.006	19.996	103.906	20.104	4.295	0.508
860.000	512.115	80.006	19.994	103.905	20.104	4.288	0.473
862.000	513.098	80.005	19.995	103.903	20.105	4.270	0.492
864.000	514.126	80.006	19.996	103.890	20.108	4.040	0.531
866.000	515.166	80.007	19.996	103.894	20.107	4.121	0.533
868.000	516.186	80.006	19.995	103.870	20.108	4.017	0.479
870.000	517.201	80.007	19.997	103.836	20.111	3.870	0.518
872.000	518.223	80.007	19.996	103.774	20.110	3.927	0.518
874.000	519.290	80.008	19.996	103.685	20.115	3.568	0.514
876.000	520.301	80.006	19.993	103.648	20.112	3.760	0.508
878.000	521.293	80.005	19.994	103.699	20.114	3.631	0.503
880.000	522.300	80.006	19.995	103.786	20.114	3.651	0.495
882.000	523.350	80.006	19.995	103.851	20.115	3.611	0.509
884.000	524.393	80.004	19.994	103.876	20.116	3.518	0.523
886.000	525.364	80.005	19.993	103.897	20.113	3.683	0.512
888.000	526.416	80.007	19.995	103.912	20.113	3.734	0.540
890.000	527.423	80.007	19.995	103.911	20.116	3.535	0.481
892.000	528.455	80.006	19.993	103.915	20.118	3.397	0.529
894.000	529.471	80.007	19.996	103.919	20.116	3.488	0.509
896.001	530.503	80.009	19.992	103.926	20.120	3.239	0.524
898.000	531.503	80.008	19.993	103.917	20.122	3.118	0.495
900.000	532.496	80.006	19.996	103.927	20.117	3.461	0.503
902.000	533.504	80.008	19.992	103.928	20.117	3.415	0.526
904.000	534.576	80.009	19.993	103.919	20.117	3.474	0.580
906.000	535.588	80.008	19.994	103.921	20.116	3.505	0.519
908.000	536.603	80.010	19.993	103.926	20.118	3.395	0.519
910.000	537.611	80.009	19.995	103.911	20.122	3.124	0.506
912.000	538.668	80.007	19.992	103.911	20.115	3.609	0.523
914.000	539.660	80.008	19.993	103.918	20.117	3.471	0.534
916.000	540.650	80.008	19.992	103.914	20.120	3.224	0.490
918.000	541.674	80.009	19.993	103.918	20.117	3.448	0.496
920.001	542.673	80.010	19.994	103.911	20.117	3.437	0.535
922.000	543.673	80.010	19.994	103.907	20.117	3.475	0.484
924.000	544.700	80.009	19.995	103.908	20.117	3.415	0.511
926.000	545.698	80.010	19.994	103.907	20.121	3.152	0.512
928.000	546.730	80.009	19.991	103.906	20.118	3.350	0.536
930.000	547.720	80.009	19.996	103.907	20.117	3.458	0.519
932.000	548.787	80.008	19.995	103.908	20.115	3.600	0.513
934.000	549.737	80.007	19.995	103.907	20.118	3.389	0.464
936.000	550.785	80.006	19.995	103.906	20.116	3.508	0.513
938.000	551.834	80.007	19.994	103.907	20.117	3.461	0.528
940.000	552.857	80.006	19.994	103.898	20.116	3.521	0.486
942.000	553.919	80.005	19.994	103.904	20.115	3.565	0.537
944.000	554.989	80.006	19.995	103.908	20.115	3.609	0.534
946.000	556.021	80.007	19.994	103.906	20.113	3.681	0.563
948.000	557.117	80.008	19.994	103.906	20.114	3.637	0.532
950.000	558.209	80.009	19.994	103.913	20.113	3.722	0.558
952.000	559.266	80.008	19.993	103.910	20.113	3.681	0.559
954.000	560.377	80.008	19.993	103.909	20.112	3.811	0.536
956.000	561.480	80.007	19.994	103.909	20.114	3.644	0.576
958.000	562.624	80.007	19.995	103.914	20.113	3.722	0.566
960.000	563.714	80.005	19.996	103.916	20.113	3.685	0.566
962.000	564.840	80.005	19.995	103.925	20.113	3.712	0.573
964.000	565.983	80.006	19.996	103.921	20.114	3.659	0.583
966.000	567.117	80.006	19.994	103.913	20.116	3.508	0.581
968.000	568.206	80.005	19.994	103.926	20.119	3.341	0.578
970.000	569.342	80.005	19.996	103.922	20.116	3.525	0.548
972.000	570.486	80.006	19.994	103.917	20.117	3.472	0.587
974.000	571.615	80.006	19.995	103.912	20.115	3.556	0.570
976.000	572.764	80.008	19.994	103.912	20.117	3.448	0.567
978.000	573.934	80.007	19.991	103.911	20.118	3.394	0.587
980.000	575.101	80.008	19.994	103.912	20.119	3.328	0.598
982.000	576.252	80.008	19.994	103.914	20.119	3.286	0.592
984.000	577.388	80.008	19.994	103.911	20.120	3.253	0.579
986.000	578.443	80.008	19.993	103.911	20.117	3.436	0.510
988.000	579.636	80.007	19.994	103.908	20.116	3.490	0.591
990.000	580.742	80.007	19.995	103.910	20.114	3.666	0.539
992.000	581.835	80.007	19.996	103.913	20.115	3.565	0.566
994.000	582.967	80.007	19.993	103.907	20.119	3.339	0.562
996.001	584.066	80.007	19.993	103.903	20.118	3.367	0.517
998.000	585.172	80.008	19.994	103.904	20.116	3.488	0.537
1000.000	586.282	80.008	19.993	103.906	20.118	3.372	0.556
1002.000	587.352	80.008	19.994	103.907	20.119	3.335	0.533
1004.000	588.435	80.009	19.994	103.909	20.120	3.242	0.548
1006.000	589.539	80.009	19.991	103.905	20.120	3.244	0.533
1008.000	590.625	80.008	19.992	103.902	20.117	3.470	0.549
1010.000	591.733	80.010	19.992	103.906	20.119	3.292	0.541
1012.000	592.793	80.009	19.993	103.905	20.116	3.497	0.542
1014.000	593.889	80.008	19.993	103.905	20.120	3.266	0.554
1016.000	594.970	80.007	19.994	103.908	20.119	3.293	0.541
1018.000	596.077	80.007	19.993	103.905	20.118	3.347	0.560
1020.000	597.122	80.006	19.993	103.910	20.119	3.321	0.525
1022.000	598.180	80.007	19.992	103.909	20.120	3.242	0.527
1024.001	599.211	80.005	19.995	103.910	20.119	3.293	0.501
1026.000	600.270	80.005	19.995	103.910	20.120	3.251	0.521
1028.001	601.328	80.004	19.997	103.906	20.119	3.336	0.548
1030.000	602.386	80.007	19.994	103.911	20.121	3.168	0.568
1032.000	603.421	80.007	19.994	103.913	20.122	3.121	0.493
1034.000	604.427	80.006	19.995	103.905	20.124	2.974	0.506
1036.000	605.459	80.006	19.995	103.909	20.124	2.992	0.510
1038.000	606.517	80.007	19.994	103.908	20.123	3.042	0.532
1040.000	607.547	80.005	19.994	103.906	20.122	3.117	0.508
1042.000	608.601	80.006	19.995	103.907	20.124	3.002	0.543
1044.000	609.621	80.006	19.994	103.907	20.124	3.011	0.526
1046.000	610.645	80.007	19.995	103.902	20.121	3.211	0.508
1048.000	611.680	80.005	19.996	103.900	20.121	3.152	0.531
1050.000	612.694	80.006	19.998	103.906	20.121	3.189	0.521
1052.001	613.691	80.005	19.995	103.910	20.123	3.045	0.500
1054.000	614.730	80.005	19.995	103.904	20.120	3.231	0.503
1056.000	615.750	80.007	19.994	103.905	20.120	3.213	0.502
1058.000	616.786	80.008	19.994	103.906	20.125	2.880	0.503
1060.000	617.795	80.008	19.996	103.906	20.124	2.987	0.491
1062.000	618.790	80.006	19.993	103.903	20.123	3.064	0.499
1064.000	619.810	80.008	19.995	103.902	20.118	3.360	0.524
1066.000	620.828	80.007	19.994	103.905	20.124	3.002	0.510
1068.000	621.833	80.008	19.994	103.907	20.122	3.101	0.513
1070.000	622.834	80.007	19.994	103.907	20.123	3.071	0.497
1072.000	623.843	80.006	19.993	103.908	20.118	3.365	0.509
1074.000	624.869	80.006	19.993	103.910	20.122	3.121	0.492
1076.000	625.895	80.008	19.994	103.910	20.120	3.235	0.513
1078.000	626.882	80.006	19.994	103.907	20.121	3.169	0.509
1080.000	627.890	80.006	19.994	103.910	20.122	3.124	0.471
1082.000	628.932	80.007	19.992	103.908	20.120	3.275	0.501
1084.000	629.920	80.007	19.993	103.913	20.122	3.143	0.506
1086.000	630.916	80.008	19.993	103.913	20.121	3.167	0.492
1088.000	631.909	80.009	19.993	103.911	20.121	3.167	0.507
1090.000	632.914	80.008	19.993	103.908	20.122	3.128	0.513
1092.000	633.871	80.008	19.992	103.908	20.121	3.145	0.476
1094.000	634.877	80.009	19.994	103.909	20.121	3.192	0.499
1096.000	635.919	80.007	19.994	103.910	20.122	3.103	0.530
1098.000	636.913	80.006	19.994	103.911	20.122	3.139	0.487
1100.000	637.911	80.006	19.993	103.911	20.123	3.053	0.490
1102.000	638.961	80.006	19.993	103.911	20.121	3.170	0.532
1104.000	639.920	80.007	19.992	103.912	20.124	3.007	0.497
1106.000	640.925	80.007	19.994	103.910	20.117	3.433	0.493
1108.000	641.920	80.006	19.993	103.915	20.120	3.225	0.511
1110.000	642.894	80.006	19.995	103.910	20.121	3.202	0.490
1112.000	643.918	80.006	19.995	103.914	20.120	3.258	0.514
1114.000	644.885	80.004	19.994	103.910	20.123	3.036	0.479
1116.000	645.896	80.008	19.995	103.908	20.119	3.297	0.532
1118.000	646.866	80.007	19.994	103.909	20.121	3.147	0.467
1120.000	647.883	80.007	19.995	103.909	20.122	3.091	0.493
1122.000	648.857	80.008	19.995	103.912	20.121	3.202	0.497
1124.000	649.907	80.005	19.995	103.912	20.119	3.316	0.545
1126.000	650.923	80.007	19.995	103.908	20.120	3.235	0.513
1128.000	651.908	80.008	19.994	103.908	20.121	3.209	0.516
1130.000	652.910	80.005	19.994	103.907	20.118	3.369	0.510
1132.000	653.896	80.004	19.995	103.904	20.116	3.525	0.514
1134.000	654.934	80.006	19.994	103.912	20.118	3.367	0.518
1136.000	655.932	80.007	19.995	103.909	20.120	3.240	0.493
1138.000	656.942	80.007	19.994	103.916	20.118	3.383	0.494
1140.000	657.972	80.006	19.994	103.914	20.122	3.093	0.520
1142.000	659.010	80.006	19.995	103.909	20.120	3.260	0.538
1144.000	659.958	80.007	19.995	103.909	20.121	3.167	0.498
1146.000	660.932	80.007	19.994	103.909	20.122	3.095	0.454
1148.000	662.014	80.009	19.994	103.909	20.119	3.304	0.525
1150.000	663.025	80.006	19.994	103.913	20.118	3.385	0.545
1152.000	664.036	80.007	19.995	103.909	20.121	3.165	0.512
1154.001	665.047	80.007	19.995	103.908	20.122	3.097	0.527
1156.000	666.021	80.007	19.994	103.907	20.119	3.281	0.495
1158.000	667.063	80.006	19.993	103.906	20.126	2.853	0.523
1160.001	668.056	80.006	19.994	103.913	20.124	2.956	0.478
1162.000	669.062	80.004	19.994	103.912	20.121	3.211	0.497
1164.000	670.090	80.008	19.993	103.912	20.122	3.099	0.519
1166.000	671.102	80.009	19.992	103.913	20.120	3.224	0.510
1168.000	672.100	80.008	19.995	103.911	20.123	3.056	0.507
1170.000	673.127	80.010	19.993	103.911	20.122	3.084	0.510
1172.000	674.169	80.009	19.994	103.915	20.122	3.080	0.518
1174.000	675.219	80.007	19.994	103.911	20.121	3.161	0.518
1176.000	676.197	80.009	19.993	103.906	20.125	2.904	0.485
1178.000	677.206	80.008	19.995	103.907	20.120	3.259	0.507
1180.000	678.206	80.007	19.993	103.906	20.124	3.009	0.495
1182.000	679.226	80.008	19.994	103.909	20.119	3.306	0.495
1184.000	680.239	80.006	19.995	103.908	20.117	3.475	0.537
1186.000	681.240	80.006	19.994	103.912	20.118	3.350	0.501
1188.000	682.237	80.006	19.995	103.909	20.119	3.304	0.501
1190.000	683.259	80.007	19.996	103.909	20.119	3.294	0.529
1192.000	684.258	80.007	19.993	103.908	20.117	3.429	0.496
1194.000	685.297	80.008	19.993	103.901	20.114	3.622	0.484
1196.000	686.265	80.008	19.995	103.908	20.117	3.431	0.490
1198.000	687.235	80.008	19.995	103.905	20.118	3.350	0.496
1200.000	688.275	80.006	19.993	103.915	20.119	3.321	0.494
1202.000	689.302	80.008	19.994	103.909	20.122	3.097	0.524
1204.000	690.287	80.006	19.994	103.910	20.121	3.200	0.525
1206.000	691.288	80.004	19.993	103.913	20.117	3.475	0.472
1208.000	692.272	80.006	19.994	103.911	20.116	3.508	0.471
1210.000	693.309	80.006	19.995	103.912	20.119	3.288	0.520
1212.000	694.301	80.007	19.994	103.909	20.115	3.561	0.498
1214.000	695.369	80.006	19.995	103.907	20.114	3.650	0.532
1216.000	696.361	80.006	19.994	103.912	20.115	3.604	0.502
1218.000	697.367	80.006	19.995	103.911	20.115	3.558	0.475
1220.000	698.399	80.008	19.994	103.915	20.116	3.523	0.484
1222.000	699.333	80.006	19.995	103.910	20.115	3.554	0.484
1224.000	700.384	80.006	19.994	103.910	20.116	3.505	0.508
1226.000	701.397	80.008	19.994	103.908	20.115	3.611	0.531
1228.000	702.332	80.006	19.993	103.912	20.114	3.651	0.513
1230.000	703.400	80.008	19.994	103.910	20.111	3.817	0.507
1232.000	704.414	80.007	19.994	103.916	20.112	3.800	0.517
1234.000	705.434	80.009	19.994	103.912	20.115	3.563	0.491
1236.000	706.438	80.007	19.994	103.906	20.114	3.670	0.480
1238.001	707.447	80.008	19.994	103.912	20.118	3.392	0.488
1240.000	708.544	80.006	19.994	103.908	20.116	3.539	0.536
1242.000	709.580	80.006	19.994	103.907	20.114	3.668	0.517
1244.000	710.635	80.006	19.994	103.910	20.120	3.222	0.544
1246.000	711.704	80.006	19.995	103.907	20.116	3.539	0.551
1248.000	712.726	80.007	19.995	103.906	20.118	3.370	0.525
1250.000	713.759	80.007	19.994	103.905	20.114	3.636	0.529
1252.001	714.834	80.009	19.995	103.904	20.116	3.482	0.533
1254.000	715.897	80.009	19.994	103.906	20.117	3.473	0.530
1256.000	716.934	80.008	19.994	103.906	20.116	3.521	0.519
1258.000	717.972	80.009	19.994	103.901	20.117	3.440	0.515
1260.000	719.003	80.008	19.994	103.891	20.115	3.554	0.522
1262.000	720.026	80.006	19.994	103.906	20.114	3.637	0.508
1264.000	721.038	80.008	19.994	103.906	20.114	3.644	0.497
1266.000	722.056	80.008	19.994	103.909	20.110	3.879	0.527
1268.000	723.075	80.007	19.993	103.909	20.117	3.455	0.516
1270.000	724.091	80.005	19.993	103.911	20.121	3.204	0.496
1272.000	725.092	80.006	19.994	103.911	20.117	3.426	0.462
1274.000	726.101	80.006	19.992	103.912	20.115	3.547	0.511
1276.000	727.110	80.007	19.993	103.911	20.118	3.405	0.491
1278.000	728.097	80.006	19.994	103.909	20.114	3.616	0.508
1280.000	729.127	80.006	19.994	103.912	20.116	3.541	0.519
1282.000	730.150	80.007	19.996	103.910	20.116	3.517	0.527
1284.000	731.150	80.008	19.994	103.908	20.118	3.404	0.514
1286.000	732.086	80.007	19.993	103.908	20.119	3.322	0.463
1288.000	733.105	80.005	19.993	103.906	20.115	3.565	0.477
1290.000	734.063	80.008	19.995	103.912	20.113	3.681	0.507
1292.000	735.038	80.007	19.994	103.911	20.122	3.110	0.479
1294.000	735.980	80.007	19.993	103.913	20.118	3.405	0.469
1296.000	736.908	80.007	19.993	103.902	20.116	3.502	0.470
1298.000	737.884	80.006	19.993	103.900	20.116	3.512	0.496
1300.000	738.841	80.006	19.995	103.902	20.113	3.697	0.477
1302.000	739.769	80.006	19.994	103.904	20.115	3.559	0.468
1304.000	740.684	80.007	19.995	103.902	20.120	3.246	0.471
1306.000	741.679	80.007	19.995	103.902	20.115	3.567	0.471
1308.000	742.589	80.008	19.994	103.905	20.116	3.504	0.458
1310.000	743.512	80.008	19.993	103.905	20.120	3.264	0.449
1311.000	743.994	80.009	19.995	103.901	20.110	3.929	0.478