File: 01_Data/Air_Fryer/MCC/Air_Fryer_MCC_30K_min_220203_R2.txt
Sample ID:	C:\MCC\MCC Cal\Test\Air_Fryer_MCC_30K_min_220203_R2.txt
Sample Weight (mg):	4.48
Heating Rate (C/s):	0.5
Combustor Temp (C):	900
N2 Flow Rate (cc/min):	80
O2 Flow Rate (cc/min):	20
Calibration File:	C:\MCC\MCC Cal\Coeff1 JN10440_30_210304.txt.txt
T Correction Coefficients:	0	1.024463	0
Time Shift (s):	14
*
Time (s)	Temperature (C)	N2 flow rate (cc/min)	O2 flow rate (cc/min)	Flow Rate (cc/min)	Oxygen (%)	HRR (W/g)	Heating rate (C/s)
0.000	112.556	80.008	19.994	103.831	20.113	0.050	-0.020
2.000	112.571	80.007	19.996	103.827	20.112	0.092	-0.005
4.000	112.545	80.008	19.995	103.832	20.116	-0.229	-0.014
6.000	112.569	80.008	19.995	103.831	20.111	0.181	0.009
8.000	112.573	80.008	19.996	103.834	20.110	0.267	-0.019
10.001	112.579	80.008	19.994	103.834	20.111	0.159	0.005
12.001	112.543	80.006	19.995	103.836	20.107	0.460	0.001
14.001	112.563	80.007	19.994	103.859	20.106	0.554	-0.021
16.000	112.549	80.007	19.994	103.890	20.099	1.012	0.005
18.000	112.606	80.008	19.995	103.856	20.096	1.231	-0.010
20.000	112.671	80.008	19.995	103.956	20.094	1.421	0.015
22.000	112.707	80.006	19.996	103.990	20.091	1.580	0.033
24.000	112.795	80.007	19.995	103.943	20.089	1.722	0.056
26.000	112.937	80.008	19.996	103.945	20.090	1.661	0.068
28.000	113.032	80.009	19.996	103.950	20.085	2.028	0.051
30.000	113.255	80.007	19.996	103.986	20.082	2.233	0.101
32.000	113.441	80.011	19.995	104.004	20.081	2.347	0.107
34.000	113.674	80.009	19.995	103.985	20.079	2.454	0.134
36.000	113.914	80.010	19.995	104.001	20.076	2.672	0.117
38.000	114.231	80.009	19.994	104.019	20.079	2.499	0.161
40.000	114.536	80.009	19.994	104.014	20.075	2.768	0.169
42.001	114.845	80.009	19.994	104.034	20.073	2.918	0.174
44.000	115.186	80.007	19.996	104.039	20.073	2.914	0.199
46.000	115.525	80.007	19.994	104.032	20.069	3.173	0.177
48.000	115.922	80.006	19.994	104.038	20.071	3.084	0.162
50.000	116.390	80.007	19.994	104.054	20.070	3.156	0.205
52.000	116.837	80.007	19.995	104.064	20.069	3.232	0.227
54.001	117.291	80.007	19.995	104.068	20.068	3.311	0.233
56.000	117.815	80.007	19.994	104.068	20.066	3.409	0.257
58.001	118.367	80.007	19.993	104.069	20.064	3.558	0.293
60.000	118.904	80.007	19.994	104.078	20.065	3.505	0.288
62.000	119.496	80.007	19.994	104.084	20.066	3.400	0.281
64.001	120.071	80.008	19.994	104.076	20.061	3.796	0.283
66.000	120.682	80.009	19.994	104.079	20.062	3.693	0.289
68.001	121.335	80.007	19.993	104.074	20.061	3.769	0.306
70.000	121.975	80.008	19.993	104.076	20.061	3.789	0.332
72.001	122.674	80.008	19.993	104.100	20.059	3.902	0.356
74.001	123.392	80.007	19.994	104.096	20.062	3.727	0.363
76.000	124.093	80.007	19.994	104.090	20.063	3.659	0.348
78.001	124.801	80.007	19.994	104.093	20.057	4.074	0.351
80.000	125.574	80.008	19.994	104.101	20.058	4.030	0.371
82.000	126.291	80.008	19.994	104.098	20.059	3.964	0.349
84.000	127.068	80.007	19.995	104.095	20.060	3.831	0.384
86.000	127.847	80.007	19.994	104.083	20.055	4.196	0.387
88.000	128.614	80.008	19.996	104.098	20.053	4.391	0.416
90.000	129.414	80.008	19.996	104.102	20.057	4.052	0.397
92.001	130.177	80.007	19.995	104.094	20.058	3.974	0.387
94.000	131.058	80.008	19.996	104.097	20.059	3.928	0.418
96.000	131.898	80.009	19.995	104.101	20.061	3.787	0.418
98.000	132.762	80.009	19.994	104.094	20.059	3.938	0.454
100.000	133.598	80.008	19.994	104.089	20.057	4.090	0.427
102.001	134.449	80.007	19.993	104.101	20.057	4.050	0.418
104.000	135.385	80.009	19.995	104.097	20.056	4.138	0.448
106.000	136.249	80.009	19.995	104.099	20.057	4.066	0.452
108.001	137.169	80.008	19.995	104.097	20.058	4.034	0.480
110.000	138.062	80.008	19.995	104.094	20.059	3.938	0.445
112.000	138.991	80.008	19.994	104.098	20.057	4.083	0.437
114.000	139.940	80.008	19.994	104.101	20.058	3.976	0.481
116.001	140.850	80.009	19.995	104.090	20.057	4.042	0.436
118.000	141.820	80.009	19.995	104.097	20.057	4.080	0.456
120.000	142.806	80.008	19.995	104.100	20.057	4.111	0.514
122.000	143.788	80.008	19.995	104.079	20.062	3.722	0.497
124.000	144.802	80.008	19.997	104.090	20.055	4.203	0.501
126.001	145.775	80.006	19.994	104.090	20.060	3.828	0.483
128.000	146.741	80.026	20.000	104.097	20.055	4.211	0.484
130.000	147.775	80.006	19.997	104.090	20.056	4.167	0.538
132.000	148.760	80.007	19.995	104.075	20.059	3.961	0.481
134.000	149.744	80.009	19.994	104.082	20.053	4.332	0.496
136.000	150.741	80.006	19.994	104.072	20.060	3.837	0.494
138.000	151.733	80.008	19.996	104.083	20.057	4.091	0.461
140.000	152.748	80.008	19.995	104.078	20.059	3.941	0.485
142.000	153.756	80.007	19.995	104.070	20.063	3.632	0.500
144.000	154.705	80.007	19.995	104.073	20.058	4.009	0.496
146.000	155.711	80.007	19.995	104.069	20.057	4.102	0.495
148.000	156.729	80.008	19.995	104.066	20.060	3.875	0.505
150.000	157.733	80.008	19.997	104.064	20.058	4.012	0.479
152.000	158.761	80.009	19.994	104.065	20.059	3.951	0.495
154.001	159.798	80.008	19.994	104.063	20.060	3.831	0.531
156.000	160.795	80.008	19.995	104.061	20.060	3.882	0.517
158.000	161.780	80.007	19.994	104.052	20.062	3.687	0.494
160.000	162.794	80.007	19.994	104.054	20.062	3.735	0.503
162.000	163.755	80.007	19.996	104.052	20.061	3.779	0.492
164.000	164.801	80.009	19.995	104.057	20.068	3.292	0.477
166.000	165.794	80.009	19.995	104.039	20.061	3.755	0.513
168.000	166.772	80.009	19.994	104.046	20.066	3.398	0.476
170.000	167.803	80.010	19.995	104.046	20.063	3.647	0.506
172.000	168.770	80.008	19.994	104.044	20.063	3.635	0.468
174.000	169.745	80.009	19.994	104.035	20.064	3.550	0.497
176.000	170.737	80.009	19.995	104.036	20.065	3.502	0.491
178.000	171.710	80.009	19.994	104.036	20.066	3.416	0.506
180.000	172.719	80.007	19.995	104.039	20.062	3.677	0.526
182.000	173.682	80.009	19.994	104.040	20.062	3.677	0.483
184.000	174.640	80.009	19.993	104.037	20.061	3.793	0.496
186.000	175.603	80.009	19.994	104.051	20.059	3.917	0.503
188.000	176.572	80.008	19.995	104.046	20.060	3.884	0.531
190.000	177.520	80.009	19.994	104.046	20.060	3.826	0.483
192.000	178.549	80.008	19.996	104.037	20.062	3.691	0.518
194.000	179.489	80.009	19.994	104.043	20.063	3.629	0.456
196.001	180.458	80.009	19.994	104.045	20.059	3.940	0.499
198.000	181.471	80.010	19.994	104.042	20.061	3.773	0.490
200.000	182.413	80.011	19.994	104.036	20.064	3.547	0.483
202.000	183.370	80.009	19.995	104.039	20.063	3.665	0.469
204.001	184.387	80.008	19.993	104.041	20.063	3.665	0.499
206.000	185.382	80.007	19.994	104.045	20.063	3.631	0.489
208.000	186.422	80.008	19.995	104.035	20.061	3.810	0.525
210.001	187.419	80.006	19.995	104.040	20.062	3.723	0.501
212.000	188.383	80.008	19.995	104.040	20.064	3.563	0.464
214.000	189.380	80.008	19.996	104.036	20.067	3.378	0.524
216.000	190.373	80.008	19.995	104.028	20.064	3.577	0.491
218.000	191.389	80.008	19.996	104.026	20.066	3.445	0.490
220.000	192.368	80.007	19.996	104.033	20.064	3.535	0.508
222.000	193.320	80.008	19.996	104.037	20.066	3.435	0.466
224.000	194.310	80.007	19.996	104.033	20.064	3.577	0.506
226.000	195.342	80.007	19.996	104.030	20.062	3.706	0.475
228.000	196.341	80.008	19.995	104.026	20.061	3.790	0.485
230.000	197.347	80.009	19.993	104.029	20.065	3.463	0.470
232.000	198.313	80.009	19.994	104.028	20.064	3.559	0.471
234.000	199.317	80.008	19.994	104.024	20.067	3.348	0.512
236.000	200.267	80.009	19.994	104.024	20.066	3.413	0.491
238.000	201.292	80.009	19.995	104.026	20.066	3.441	0.497
240.000	202.289	80.008	19.994	104.029	20.066	3.405	0.485
242.000	203.272	80.008	19.996	104.027	20.066	3.393	0.482
244.000	204.278	80.008	19.995	104.027	20.065	3.479	0.455
246.000	205.256	80.008	19.995	104.027	20.067	3.332	0.491
248.000	206.273	80.008	19.994	104.028	20.066	3.441	0.489
250.000	207.295	80.008	19.994	104.028	20.067	3.361	0.516
252.000	208.316	80.009	19.996	104.029	20.069	3.198	0.510
254.000	209.350	80.009	19.994	104.026	20.067	3.336	0.504
256.000	210.317	80.009	19.994	104.028	20.064	3.543	0.501
258.000	211.326	80.009	19.993	104.028	20.063	3.666	0.493
260.000	212.333	80.009	19.994	104.026	20.065	3.515	0.510
262.000	213.320	80.008	19.994	104.022	20.065	3.465	0.504
264.000	214.316	80.008	19.994	104.022	20.065	3.523	0.502
266.000	215.337	80.008	19.994	104.026	20.064	3.537	0.531
268.000	216.266	80.008	19.993	104.021	20.064	3.571	0.476
270.000	217.278	80.009	19.995	104.026	20.067	3.363	0.516
272.000	218.277	80.009	19.993	104.027	20.065	3.499	0.490
274.000	219.247	80.009	19.994	104.019	20.067	3.329	0.491
276.000	220.290	80.009	19.994	104.028	20.064	3.540	0.489
278.000	221.278	80.009	19.995	104.025	20.064	3.594	0.501
280.000	222.286	80.012	19.994	104.014	20.062	3.739	0.526
282.000	223.256	80.011	19.994	104.013	20.065	3.482	0.499
284.000	224.259	80.011	19.995	104.007	20.066	3.389	0.490
286.000	225.249	80.011	19.994	104.009	20.065	3.495	0.508
288.000	226.230	80.010	19.995	104.005	20.065	3.500	0.501
290.000	227.237	80.009	19.994	104.003	20.066	3.441	0.489
292.000	228.232	80.009	19.995	104.003	20.066	3.393	0.484
294.000	229.223	80.009	19.994	104.006	20.062	3.738	0.488
296.000	230.210	80.008	19.994	104.008	20.065	3.476	0.513
298.000	231.257	80.008	19.995	104.016	20.070	3.162	0.541
300.000	232.233	80.009	19.995	104.002	20.066	3.454	0.536
302.000	233.176	80.008	19.995	104.007	20.068	3.255	0.489
304.000	234.173	80.008	19.995	103.997	20.067	3.347	0.499
306.000	235.138	80.008	19.996	104.003	20.066	3.454	0.460
308.000	236.140	80.007	19.996	104.001	20.067	3.338	0.463
310.001	237.126	80.008	19.996	104.004	20.067	3.347	0.490
312.000	238.134	80.007	19.996	103.992	20.067	3.323	0.510
314.000	239.107	80.009	19.995	103.997	20.068	3.259	0.448
316.000	240.074	80.008	19.996	103.992	20.068	3.249	0.491
318.000	241.073	80.008	19.995	103.995	20.066	3.436	0.512
320.000	242.060	80.006	19.994	103.991	20.069	3.223	0.481
322.000	243.088	80.007	19.997	104.008	20.063	3.637	0.519
324.000	244.065	80.007	19.996	103.999	20.065	3.520	0.514
326.000	245.094	80.008	19.994	103.990	20.065	3.482	0.496
328.000	246.061	80.008	19.994	103.991	20.066	3.452	0.520
330.000	247.055	80.007	19.995	103.994	20.062	3.709	0.481
332.000	247.994	80.008	19.994	103.996	20.067	3.338	0.474
334.000	249.042	80.008	19.995	103.996	20.063	3.667	0.522
336.000	250.022	80.007	19.993	103.998	20.064	3.593	0.506
338.000	250.978	80.009	19.994	103.990	20.062	3.695	0.510
340.000	251.948	80.009	19.994	103.992	20.063	3.665	0.463
342.000	252.964	80.009	19.994	103.992	20.063	3.609	0.479
344.000	253.940	80.009	19.994	103.990	20.063	3.653	0.484
346.000	254.925	80.009	19.994	103.991	20.064	3.563	0.498
348.000	255.916	80.007	19.994	103.987	20.060	3.836	0.509
350.000	256.923	80.008	19.994	103.986	20.067	3.384	0.484
352.000	257.839	80.009	19.992	103.986	20.065	3.462	0.487
354.000	258.858	80.008	19.993	103.988	20.066	3.440	0.494
356.000	259.844	80.009	19.993	103.988	20.064	3.569	0.472
358.000	260.822	80.009	19.996	103.985	20.066	3.440	0.500
360.000	261.784	80.010	19.994	103.985	20.065	3.514	0.492
362.000	262.766	80.011	19.993	103.985	20.063	3.611	0.491
364.000	263.750	80.012	19.993	103.985	20.066	3.450	0.460
366.000	264.758	80.012	19.995	103.985	20.069	3.231	0.491
368.000	265.700	80.011	19.993	103.990	20.066	3.424	0.472
370.000	266.688	80.012	19.993	103.988	20.068	3.259	0.465
372.000	267.732	80.010	19.993	103.984	20.066	3.446	0.506
374.000	268.765	80.009	19.995	103.987	20.066	3.386	0.534
376.000	269.724	80.009	19.993	103.986	20.065	3.504	0.515
378.000	270.741	80.008	19.993	103.991	20.066	3.434	0.507
380.000	271.752	80.007	19.995	103.987	20.065	3.496	0.520
382.000	272.728	80.007	19.994	103.991	20.065	3.476	0.502
384.000	273.727	80.007	19.993	103.986	20.067	3.372	0.543
386.000	274.732	80.007	19.995	103.987	20.063	3.617	0.504
388.000	275.743	80.008	19.994	103.990	20.062	3.685	0.510
390.000	276.708	80.009	19.996	103.989	20.067	3.354	0.505
392.000	277.734	80.008	19.992	103.988	20.067	3.368	0.541
394.000	278.772	80.009	19.994	103.991	20.065	3.506	0.522
396.000	279.772	80.009	19.994	103.988	20.070	3.155	0.507
398.000	280.743	80.009	19.995	103.997	20.064	3.571	0.487
400.001	281.708	80.009	19.994	103.991	20.064	3.536	0.464
402.000	282.780	80.009	19.994	103.985	20.065	3.486	0.495
404.000	283.797	80.009	19.994	103.989	20.069	3.181	0.504
406.000	284.807	80.007	19.995	103.992	20.066	3.406	0.493
408.001	285.832	80.008	19.995	103.988	20.068	3.262	0.513
410.000	286.871	80.008	19.995	103.989	20.064	3.589	0.522
412.000	287.866	80.007	19.996	103.981	20.066	3.400	0.493
414.000	288.848	80.008	19.996	103.980	20.065	3.490	0.522
416.000	289.883	80.008	19.995	103.981	20.066	3.440	0.542
418.000	290.896	80.009	19.994	103.982	20.066	3.432	0.541
420.000	291.890	80.010	19.994	103.982	20.065	3.488	0.479
422.000	292.924	80.010	19.995	103.981	20.062	3.695	0.489
424.000	293.928	80.008	19.995	103.983	20.062	3.685	0.485
426.000	294.964	80.010	19.994	103.979	20.061	3.782	0.536
428.000	295.968	80.010	19.994	103.973	20.063	3.625	0.504
430.000	296.953	80.010	19.993	103.981	20.060	3.842	0.477
432.000	297.958	80.009	19.996	103.979	20.064	3.585	0.502
434.000	298.991	80.009	19.994	103.977	20.063	3.661	0.520
436.000	299.971	80.010	19.995	103.972	20.061	3.760	0.509
438.000	300.932	80.009	19.994	103.977	20.059	3.900	0.477
440.000	301.931	80.009	19.995	103.976	20.063	3.645	0.511
442.000	302.928	80.010	19.995	103.977	20.058	3.978	0.498
444.000	303.895	80.009	19.995	103.977	20.061	3.796	0.455
446.001	304.914	80.010	19.994	103.976	20.062	3.708	0.474
448.000	305.909	80.011	19.994	103.981	20.059	3.947	0.491
450.000	306.908	80.010	19.995	103.971	20.061	3.771	0.514
452.001	307.866	80.011	19.994	103.976	20.062	3.739	0.495
454.000	308.818	80.011	19.995	103.976	20.062	3.681	0.497
456.000	309.834	80.009	19.995	103.967	20.063	3.607	0.486
458.000	310.843	80.009	19.993	103.960	20.062	3.721	0.505
460.000	311.846	80.008	19.994	103.980	20.058	3.998	0.489
462.000	312.800	80.008	19.994	103.983	20.058	4.010	0.482
464.000	313.840	80.008	19.994	103.983	20.059	3.920	0.496
466.000	314.820	80.008	19.994	103.985	20.060	3.864	0.477
468.000	315.794	80.008	19.994	103.981	20.060	3.886	0.479
470.000	316.827	80.009	19.994	103.980	20.057	4.047	0.484
472.000	317.830	80.008	19.996	103.983	20.056	4.165	0.486
474.000	318.775	80.008	19.994	103.980	20.059	3.914	0.487
476.000	319.780	80.008	19.995	103.980	20.059	3.940	0.500
478.000	320.811	80.008	19.995	103.977	20.058	4.014	0.520
480.000	321.802	80.008	19.995	103.982	20.060	3.824	0.515
482.000	322.807	80.009	19.996	103.971	20.062	3.745	0.488
484.000	323.825	80.009	19.995	103.975	20.057	4.075	0.499
486.000	324.822	80.008	19.995	103.976	20.056	4.167	0.505
488.000	325.798	80.008	19.994	103.981	20.059	3.910	0.496
490.000	326.792	80.007	19.994	103.982	20.057	4.083	0.471
492.000	327.872	80.008	19.994	103.984	20.059	3.944	0.512
494.000	328.903	80.007	19.995	103.977	20.060	3.826	0.531
496.000	329.895	80.008	19.995	103.979	20.058	3.999	0.573
498.000	330.879	80.007	19.994	103.976	20.054	4.270	0.488
500.000	331.907	80.008	19.995	103.977	20.054	4.292	0.555
502.000	332.940	80.007	19.994	103.978	20.053	4.392	0.530
504.000	333.998	80.007	19.997	103.976	20.055	4.180	0.534
506.000	335.018	80.009	19.995	103.971	20.053	4.378	0.532
508.000	336.018	80.009	19.995	103.951	20.054	4.324	0.504
510.000	337.061	80.010	19.996	103.969	20.051	4.481	0.520
512.000	338.061	80.010	19.995	103.966	20.053	4.338	0.508
514.000	339.120	80.009	19.995	103.965	20.053	4.378	0.487
516.000	340.142	80.009	19.994	103.965	20.050	4.547	0.532
518.000	341.118	80.010	19.995	103.972	20.057	4.070	0.497
520.000	342.208	80.010	19.994	103.957	20.055	4.194	0.539
522.000	343.191	80.009	19.994	103.972	20.053	4.335	0.502
524.000	344.173	80.008	19.994	103.962	20.052	4.467	0.517
526.000	345.224	80.009	19.994	103.962	20.053	4.371	0.523
528.000	346.215	80.008	19.993	103.954	20.051	4.487	0.530
530.000	347.287	80.008	19.993	103.954	20.051	4.477	0.515
532.001	348.327	80.012	19.994	103.953	20.050	4.582	0.519
534.000	349.388	80.010	19.993	103.955	20.050	4.598	0.518
536.000	350.379	80.011	19.993	103.961	20.045	4.908	0.470
538.000	351.403	80.010	19.994	103.952	20.048	4.715	0.515
540.000	352.417	80.010	19.994	103.953	20.053	4.356	0.527
542.000	353.450	80.007	19.994	103.954	20.050	4.574	0.478
544.000	354.424	80.007	19.994	103.948	20.049	4.624	0.513
546.000	355.461	80.008	19.995	103.959	20.051	4.513	0.473
548.000	356.570	80.009	19.994	103.964	20.049	4.672	0.536
550.000	357.279	80.009	19.994	103.972	20.047	4.824	0.178
552.000	358.726	80.008	19.994	103.953	20.047	4.815	0.385
554.000	359.624	80.007	19.993	103.954	20.046	4.854	0.585
556.000	360.693	80.008	19.994	103.957	20.046	4.842	0.580
558.001	361.683	80.006	19.994	103.953	20.046	4.899	0.505
560.000	362.726	80.008	19.993	103.954	20.043	5.061	0.536
562.000	363.706	80.009	19.994	103.954	20.041	5.258	0.512
564.000	364.750	80.009	19.994	103.951	20.041	5.252	0.489
566.000	365.792	80.008	19.994	103.963	20.040	5.310	0.511
568.000	366.797	80.007	19.995	103.948	20.039	5.402	0.511
570.000	367.842	80.009	19.996	103.953	20.039	5.408	0.510
572.000	368.879	80.008	19.995	103.956	20.037	5.541	0.515
574.000	369.881	80.008	19.996	103.960	20.035	5.657	0.545
576.000	370.888	80.007	19.994	103.966	20.036	5.571	0.534
578.000	371.911	80.006	19.994	103.962	20.033	5.816	0.522
580.000	372.963	80.007	19.995	103.965	20.033	5.812	0.517
582.000	373.999	80.005	19.994	103.963	20.029	6.119	0.506
584.000	375.109	80.008	19.994	103.961	20.026	6.296	0.546
586.000	376.161	80.009	19.994	103.957	20.025	6.395	0.541
588.000	377.265	80.010	19.994	103.956	20.021	6.652	0.566
590.000	378.317	80.009	19.994	103.953	20.019	6.798	0.551
592.000	379.361	80.010	19.994	103.962	20.017	6.973	0.516
594.000	380.481	80.008	19.995	103.960	20.013	7.282	0.524
596.000	381.571	80.009	19.995	103.960	20.014	7.188	0.530
598.000	382.633	80.007	19.994	103.949	20.012	7.311	0.538
600.000	383.726	80.008	19.995	103.950	20.008	7.624	0.539
602.000	384.813	80.008	19.996	103.949	20.009	7.544	0.530
604.000	385.950	80.005	19.995	103.949	20.003	7.957	0.590
606.000	387.043	80.010	19.994	103.954	20.001	8.128	0.519
608.000	388.120	80.008	19.995	103.951	19.998	8.327	0.555
610.000	389.226	80.010	19.995	103.946	19.997	8.446	0.554
612.000	390.297	80.008	19.996	103.945	19.995	8.528	0.511
614.000	391.454	80.011	19.995	103.944	19.993	8.737	0.561
616.000	392.553	80.013	19.994	103.945	19.989	8.968	0.566
618.000	393.647	80.009	19.994	103.943	19.989	9.007	0.571
620.000	394.753	80.011	19.994	103.939	19.984	9.382	0.548
622.000	395.849	80.008	19.994	103.940	19.982	9.467	0.556
624.000	396.933	80.010	19.995	103.945	19.979	9.686	0.523
626.000	398.006	80.008	19.994	103.935	19.974	10.062	0.544
628.000	399.078	80.007	19.994	103.939	19.973	10.157	0.539
630.000	400.192	80.008	19.995	103.947	19.967	10.600	0.570
632.000	401.221	80.010	19.995	103.951	19.959	11.130	0.523
634.000	402.305	80.010	19.993	103.939	19.953	11.577	0.538
636.000	403.316	80.008	19.994	103.945	19.949	11.890	0.513
638.000	404.397	80.007	19.994	103.936	19.947	12.068	0.516
640.000	405.427	80.008	19.995	103.946	19.941	12.479	0.524
642.000	406.536	80.009	19.994	103.936	19.933	13.080	0.556
644.000	407.598	80.009	19.995	103.940	19.933	13.067	0.555
646.000	408.599	80.011	19.996	103.928	19.924	13.733	0.515
648.000	409.624	80.008	19.994	103.932	19.915	14.321	0.532
650.000	410.659	80.008	19.994	103.945	19.906	15.006	0.533
652.000	411.678	80.011	19.995	103.941	19.897	15.645	0.527
654.000	412.699	80.009	19.995	103.938	19.884	16.591	0.521
656.001	413.687	80.008	19.994	103.931	19.873	17.368	0.497
658.000	414.720	80.009	19.993	103.931	19.862	18.151	0.493
660.000	415.731	80.008	19.993	103.918	19.851	18.972	0.507
662.000	416.728	80.007	19.995	103.925	19.836	20.075	0.494
664.000	417.741	80.009	19.995	103.916	19.822	21.081	0.482
666.000	418.727	80.009	19.994	103.920	19.810	21.946	0.487
668.000	419.731	80.008	19.995	103.918	19.798	22.804	0.485
670.000	420.730	80.010	19.994	103.912	19.780	24.090	0.480
672.000	421.729	80.008	19.995	103.920	19.762	25.427	0.474
674.000	422.714	80.011	19.995	103.917	19.735	27.403	0.486
676.000	423.659	80.012	19.995	103.920	19.707	29.419	0.476
678.000	424.656	80.011	19.994	103.919	19.670	32.072	0.458
680.000	425.657	80.009	19.995	103.910	19.635	34.637	0.525
682.000	426.663	80.009	19.994	103.902	19.600	37.119	0.517
684.000	427.643	80.011	19.995	103.899	19.556	40.305	0.490
686.000	428.621	80.009	19.994	103.894	19.513	43.440	0.502
688.000	429.595	80.007	19.995	103.905	19.460	47.227	0.494
690.000	430.547	80.008	19.996	103.906	19.402	51.468	0.501
692.000	431.489	80.010	19.995	103.888	19.330	56.619	0.450
694.000	432.477	80.012	19.995	103.876	19.253	62.207	0.464
696.000	433.470	80.011	19.995	103.895	19.169	68.261	0.477
698.000	434.472	80.011	19.995	103.878	19.076	75.030	0.492
700.000	435.426	80.011	19.996	103.866	18.973	82.440	0.502
702.000	436.406	80.011	19.995	103.854	18.865	90.240	0.493
704.000	437.354	80.010	19.995	103.863	18.755	98.159	0.481
706.000	438.373	80.009	19.997	103.829	18.628	107.318	0.506
708.001	439.314	80.008	19.996	103.808	18.499	116.624	0.493
710.000	440.319	80.009	19.994	103.830	18.357	126.823	0.496
712.000	441.316	80.010	19.995	103.812	18.207	137.614	0.487
714.000	442.308	80.010	19.994	103.784	18.043	149.446	0.490
716.000	443.352	80.010	19.994	103.759	17.869	161.941	0.503
718.000	444.270	80.008	19.995	103.741	17.685	175.150	0.482
720.000	445.305	80.007	19.993	103.723	17.488	189.281	0.487
722.000	446.264	80.008	19.995	103.673	17.261	205.590	0.477
724.001	447.300	80.007	19.994	103.662	17.028	222.271	0.526
726.000	448.290	80.009	19.994	103.644	16.787	239.684	0.498
728.000	449.316	80.008	19.996	103.598	16.534	257.642	0.505
730.000	450.315	80.008	19.993	103.565	16.272	276.391	0.495
732.000	451.303	80.007	19.995	103.535	16.012	295.208	0.504
734.000	452.258	80.008	19.995	103.490	15.726	315.401	0.493
736.000	453.291	80.008	19.995	103.471	15.452	334.960	0.511
738.000	454.249	80.009	19.995	103.438	15.169	355.124	0.456
740.000	455.278	80.009	19.995	103.316	14.828	378.377	0.502
742.000	456.229	80.010	19.995	103.333	14.470	403.768	0.473
744.000	457.201	80.009	19.994	103.325	14.116	430.028	0.483
746.000	458.140	80.008	19.995	103.141	13.720	458.689	0.496
748.000	459.140	80.009	19.995	103.216	13.407	480.140	0.521
750.000	460.089	80.010	19.995	102.960	13.123	498.300	0.443
752.000	461.018	80.010	19.995	102.747	12.807	521.108	0.461
754.000	461.989	80.010	19.995	102.840	12.455	548.518	0.491
756.000	462.960	80.010	19.994	103.017	12.131	572.140	0.497
758.000	463.858	80.010	19.993	102.954	11.940	585.004	0.454
760.000	464.830	80.011	19.994	102.570	11.843	590.983	0.491
762.000	465.771	80.010	19.994	102.274	11.694	601.436	0.456
764.000	466.729	80.011	19.995	102.651	11.563	611.087	0.482
766.000	467.737	80.010	19.996	102.924	11.454	619.520	0.507
768.000	468.696	80.009	19.995	102.863	11.389	624.377	0.498
770.000	469.692	80.008	19.995	102.671	11.384	624.571	0.484
772.000	470.702	80.009	19.994	102.560	11.428	621.304	0.499
774.000	471.715	80.009	19.995	102.591	11.501	616.663	0.516
776.000	472.669	80.010	19.995	102.678	11.610	609.372	0.476
778.000	473.680	80.011	19.994	102.764	11.783	597.272	0.515
780.000	474.748	80.011	19.994	102.758	12.020	579.842	0.540
782.000	475.756	80.013	19.993	102.717	12.295	560.556	0.521
784.000	476.746	80.013	19.994	102.756	12.620	538.079	0.489
786.000	477.826	80.012	19.995	102.859	12.992	512.480	0.530
788.000	478.849	80.010	19.994	102.935	13.443	480.838	0.525
790.000	479.909	80.008	19.994	102.901	13.977	442.651	0.553
792.001	480.900	80.009	19.996	102.908	14.550	401.516	0.486
794.000	481.965	80.009	19.996	103.009	15.130	359.863	0.541
796.000	482.991	80.009	19.995	103.228	15.694	319.320	0.513
798.000	484.030	80.009	19.995	103.435	16.226	280.987	0.520
800.000	485.072	80.009	19.995	103.551	16.725	245.001	0.518
802.001	486.192	80.008	19.995	103.615	17.185	211.772	0.557
804.001	487.197	80.008	19.994	103.671	17.593	182.309	0.528
806.000	488.241	80.010	19.995	103.727	17.961	155.763	0.542
808.000	489.302	80.010	19.994	103.773	18.281	132.555	0.551
810.000	490.300	80.011	19.996	103.799	18.570	111.668	0.501
812.000	491.357	80.010	19.996	103.835	18.822	93.463	0.538
814.000	492.396	80.010	19.995	103.865	19.037	77.875	0.545
816.000	493.400	80.010	19.994	103.887	19.227	64.138	0.500
818.000	494.514	80.009	19.994	103.902	19.392	52.222	0.540
820.000	495.536	80.011	19.995	103.907	19.538	41.662	0.530
822.000	496.553	80.010	19.995	103.913	19.660	32.813	0.504
824.000	497.597	80.009	19.996	103.934	19.756	25.882	0.544
826.000	498.577	80.010	19.994	103.947	19.837	19.977	0.473
828.000	499.635	80.008	19.994	103.961	19.897	15.660	0.473
830.000	500.692	80.008	19.995	103.957	19.939	12.584	0.516
832.000	501.684	80.010	19.995	103.947	19.974	10.089	0.510
834.000	502.784	80.008	19.994	103.933	19.995	8.518	0.506
836.000	503.740	80.010	19.995	103.919	20.012	7.301	0.502
838.000	504.790	80.011	19.994	103.913	20.027	6.229	0.478
840.000	505.843	80.011	19.995	103.887	20.034	5.716	0.544
842.000	506.842	80.011	19.993	103.852	20.039	5.372	0.521
844.000	507.880	80.010	19.993	103.802	20.041	5.207	0.496
846.000	508.925	80.011	19.994	103.719	20.042	5.154	0.528
848.000	509.936	80.010	19.994	103.666	20.046	4.849	0.496
850.000	511.022	80.008	19.993	103.693	20.050	4.586	0.552
852.000	512.011	80.009	19.994	103.766	20.050	4.610	0.488
854.000	513.018	80.009	19.994	103.827	20.050	4.555	0.500
856.000	514.103	80.011	19.995	103.864	20.054	4.276	0.538
858.000	515.136	80.010	19.994	103.887	20.052	4.423	0.522
860.000	516.130	80.009	19.994	103.906	20.052	4.448	0.501
862.000	517.168	80.010	19.995	103.909	20.056	4.161	0.514
864.000	518.211	80.011	19.995	103.910	20.055	4.243	0.526
866.000	519.231	80.010	19.993	103.914	20.057	4.055	0.518
868.000	520.235	80.011	19.995	103.922	20.054	4.291	0.524
870.000	521.229	80.011	19.995	103.922	20.059	3.926	0.481
872.000	522.242	80.010	19.995	103.934	20.057	4.041	0.515
874.000	523.226	80.010	19.995	103.930	20.059	3.942	0.500
876.000	524.271	80.008	19.993	103.927	20.056	4.167	0.511
878.000	525.259	80.008	19.995	103.935	20.061	3.760	0.527
880.000	526.262	80.010	19.995	103.936	20.059	3.937	0.504
882.000	527.270	80.009	19.994	103.923	20.060	3.888	0.502
884.000	528.237	80.010	19.995	103.924	20.060	3.850	0.495
886.000	529.254	80.008	19.994	103.930	20.059	3.904	0.504
888.000	530.255	80.006	19.994	103.915	20.059	3.905	0.516
890.000	531.203	80.009	19.996	103.916	20.059	3.911	0.471
892.000	532.206	80.009	19.996	103.916	20.058	3.993	0.507
894.000	533.229	80.007	19.995	103.919	20.061	3.768	0.475
896.000	534.206	80.010	19.995	103.915	20.060	3.851	0.509
898.000	535.218	80.009	19.996	103.908	20.060	3.860	0.517
900.000	536.183	80.009	19.996	103.906	20.057	4.069	0.467
902.000	537.188	80.008	19.996	103.905	20.057	4.081	0.486
904.000	538.204	80.010	19.995	103.901	20.059	3.943	0.528
906.000	539.165	80.008	19.995	103.908	20.061	3.766	0.466
908.000	540.198	80.006	19.993	103.907	20.055	4.212	0.481
910.000	541.182	80.009	19.995	103.910	20.054	4.302	0.504
912.000	542.183	80.008	19.994	103.910	20.056	4.164	0.512
914.000	543.201	80.009	19.994	103.911	20.058	4.025	0.460
916.000	544.219	80.009	19.995	103.911	20.058	4.018	0.494
918.000	545.220	80.010	19.994	103.911	20.060	3.889	0.500
920.000	546.233	80.009	19.994	103.915	20.059	3.941	0.510
922.000	547.196	80.012	19.994	103.914	20.058	4.022	0.511
924.000	548.213	80.011	19.995	103.912	20.056	4.110	0.505
926.000	549.214	80.009	19.994	103.917	20.063	3.648	0.507
928.000	550.230	80.008	19.994	103.943	20.063	3.664	0.526
930.000	551.202	80.009	19.996	103.950	20.062	3.705	0.492
932.000	552.251	80.009	19.996	103.946	20.063	3.661	0.480
934.000	553.283	80.009	19.995	103.949	20.058	3.968	0.497
936.000	554.320	80.009	19.994	103.948	20.059	3.940	0.528
938.000	555.382	80.010	19.994	103.944	20.058	3.989	0.506
940.000	556.426	80.011	19.994	103.946	20.059	3.922	0.510
942.000	557.498	80.011	19.993	103.939	20.059	3.926	0.523
944.000	558.562	80.011	19.994	103.937	20.061	3.770	0.557
946.000	559.574	80.011	19.994	103.918	20.058	4.021	0.527
948.000	560.642	80.012	19.993	103.922	20.058	3.981	0.523
950.000	561.665	80.012	19.994	103.922	20.056	4.134	0.533
952.000	562.734	80.010	19.993	103.937	20.059	3.929	0.508
954.000	563.720	80.011	19.995	103.926	20.060	3.887	0.499
956.000	564.796	80.009	19.993	103.921	20.063	3.636	0.523
958.000	565.809	80.009	19.995	103.916	20.055	4.184	0.515
960.000	566.837	80.009	19.996	103.910	20.059	3.953	0.501
962.001	567.866	80.009	19.995	103.909	20.057	4.047	0.530
964.000	568.893	80.008	19.995	103.907	20.061	3.784	0.518
966.000	569.959	80.009	19.995	103.909	20.062	3.677	0.564
968.000	570.962	80.009	19.994	103.907	20.060	3.856	0.496
970.000	571.973	80.010	19.995	103.909	20.061	3.754	0.524
972.000	572.976	80.010	19.995	103.908	20.061	3.798	0.508
974.000	574.019	80.009	19.995	103.909	20.056	4.150	0.545
976.000	575.027	80.009	19.993	103.915	20.061	3.781	0.499
978.000	576.061	80.009	19.994	103.913	20.059	3.900	0.492
980.000	577.065	80.010	19.995	103.914	20.059	3.908	0.494
982.000	578.069	80.009	19.995	103.912	20.055	4.178	0.521
984.000	579.031	80.009	19.994	103.910	20.061	3.776	0.503
986.000	580.064	80.008	19.995	103.918	20.061	3.798	0.470
988.000	581.047	80.008	19.995	103.937	20.063	3.635	0.495
990.000	582.057	80.007	19.998	103.922	20.058	4.017	0.510
992.000	583.080	80.007	19.996	103.923	20.061	3.770	0.502
994.000	584.042	80.007	19.995	103.911	20.061	3.794	0.491
996.000	585.035	80.007	19.995	103.911	20.057	4.075	0.519
998.001	586.063	80.008	19.994	103.911	20.061	3.810	0.515
1000.000	587.052	80.009	19.995	103.917	20.058	3.963	0.499
1002.000	588.081	80.011	19.995	103.909	20.060	3.856	0.485
1004.000	589.096	80.010	19.994	103.907	20.060	3.844	0.522
1006.000	590.048	80.010	19.994	103.908	20.059	3.920	0.516
1008.000	591.083	80.010	19.995	103.907	20.057	4.099	0.476
1010.000	592.073	80.009	19.992	103.910	20.059	3.901	0.492
1012.000	593.107	80.010	19.994	103.913	20.060	3.865	0.507
1014.000	594.186	80.011	19.994	103.909	20.059	3.929	0.547
1016.000	595.192	80.011	19.995	103.917	20.056	4.108	0.520
1018.000	596.219	80.009	19.995	103.911	20.058	3.965	0.530
1020.000	597.184	80.012	19.995	103.912	20.054	4.288	0.520
1022.000	598.207	80.009	19.994	103.907	20.061	3.810	0.502
1024.000	599.220	80.010	19.994	103.912	20.056	4.164	0.525
1026.000	600.175	80.012	19.994	103.912	20.058	3.989	0.510
1028.000	601.236	80.012	19.994	103.908	20.058	4.015	0.516
1030.000	602.237	80.013	19.994	103.907	20.061	3.812	0.509
1032.000	603.245	80.012	19.994	103.906	20.056	4.143	0.500
1034.000	604.273	80.012	19.994	103.906	20.060	3.884	0.523
1036.000	605.341	80.011	19.993	103.919	20.062	3.729	0.541
1038.001	606.310	80.011	19.993	103.920	20.064	3.564	0.497
1040.000	607.339	80.009	19.994	103.922	20.060	3.883	0.506
1042.001	608.366	80.010	19.993	103.925	20.062	3.729	0.516
1044.000	609.428	80.010	19.994	103.921	20.058	4.014	0.532
1046.000	610.441	80.009	19.994	103.928	20.057	4.036	0.517
1048.000	611.472	80.009	19.994	103.927	20.057	4.084	0.523
1050.000	612.538	80.008	19.996	103.939	20.056	4.108	0.527
1052.000	613.577	80.009	19.996	103.939	20.059	3.908	0.512
1054.001	614.612	80.010	19.995	103.936	20.061	3.778	0.508
1056.000	615.644	80.010	19.995	103.932	20.059	3.902	0.513
1058.000	616.701	80.009	19.993	103.940	20.057	4.071	0.537
1060.000	617.677	80.009	19.994	103.943	20.059	3.934	0.461
1062.001	618.721	80.008	19.995	103.944	20.055	4.182	0.498
1064.000	619.773	80.009	19.995	103.934	20.055	4.239	0.529
1066.001	620.825	80.009	19.994	103.925	20.059	3.918	0.514
1068.001	621.839	80.008	19.995	103.927	20.062	3.701	0.518
1070.000	622.903	80.008	19.995	103.929	20.056	4.129	0.512
1072.001	623.896	80.009	19.995	103.916	20.055	4.235	0.501
1074.000	624.929	80.008	19.996	103.921	20.058	3.992	0.505
1076.000	625.991	80.007	19.995	103.936	20.056	4.159	0.541
1078.000	626.982	80.008	19.996	103.924	20.056	4.163	0.508
1080.001	628.020	80.009	19.995	103.928	20.055	4.245	0.493
1082.000	629.082	80.010	19.996	103.926	20.055	4.223	0.527
1084.001	630.094	80.010	19.995	103.925	20.057	4.043	0.490
1086.001	631.158	80.008	19.995	103.930	20.051	4.476	0.526
1088.000	632.132	80.010	19.994	103.934	20.055	4.196	0.512
1090.000	633.164	80.011	19.995	103.934	20.056	4.114	0.520
1092.000	634.190	80.010	19.994	103.932	20.059	3.958	0.525
1094.000	635.219	80.010	19.995	103.932	20.051	4.516	0.506
1096.000	636.238	80.009	19.994	103.923	20.057	4.076	0.529
1098.000	637.253	80.010	19.995	103.933	20.051	4.512	0.529
1100.000	638.295	80.009	19.995	103.944	20.055	4.201	0.509
1102.000	639.266	80.009	19.995	103.930	20.053	4.378	0.503
1104.000	640.268	80.010	19.995	103.935	20.057	4.086	0.505
1106.000	641.316	80.011	19.994	103.929	20.059	3.950	0.506
1108.001	642.313	80.012	19.994	103.935	20.053	4.363	0.522
1110.000	643.294	80.012	19.995	103.943	20.050	4.542	0.495
1112.000	644.317	80.011	19.993	103.929	20.053	4.365	0.486
1114.001	645.294	80.011	19.994	103.941	20.055	4.179	0.486
1116.000	646.323	80.010	19.994	103.935	20.052	4.400	0.470
1118.000	647.321	80.010	19.993	103.937	20.053	4.393	0.486
1120.000	648.336	80.010	19.995	103.935	20.050	4.592	0.491
1122.000	649.334	80.009	19.993	103.942	20.055	4.228	0.505
1124.000	650.376	80.010	19.993	103.927	20.051	4.506	0.511
1126.001	651.392	80.008	19.995	103.937	20.053	4.330	0.518
1128.000	652.377	80.009	19.995	103.942	20.055	4.231	0.495
1130.000	653.342	80.008	19.994	103.940	20.054	4.268	0.518
1132.001	654.389	80.010	19.995	103.943	20.051	4.540	0.513
1134.000	655.374	80.009	19.993	103.945	20.055	4.249	0.491
1136.001	656.362	80.011	19.994	103.921	20.057	4.079	0.471
1138.000	657.415	80.011	19.996	103.921	20.051	4.474	0.478
1140.000	658.449	80.010	19.995	103.929	20.055	4.209	0.516
1142.000	659.458	80.008	19.995	103.926	20.054	4.265	0.518
1144.000	660.468	80.009	19.995	103.936	20.056	4.121	0.508
1146.001	661.474	80.010	19.995	103.930	20.057	4.042	0.469
1148.000	662.496	80.009	19.995	103.918	20.060	3.835	0.479
1150.000	663.521	80.010	19.996	103.936	20.059	3.918	0.508
1152.000	664.533	80.010	19.996	103.943	20.056	4.121	0.530
1154.000	665.531	80.008	19.995	103.924	20.052	4.440	0.521
1156.000	666.572	80.009	19.994	103.937	20.055	4.203	0.546
1158.000	667.547	80.010	19.995	103.934	20.052	4.420	0.521
1160.000	668.538	80.007	19.995	103.921	20.054	4.257	0.551
1162.000	669.559	80.008	19.995	103.924	20.052	4.448	0.529
1164.000	670.565	80.009	19.995	103.927	20.053	4.353	0.527
1166.000	671.498	80.010	19.995	103.926	20.050	4.605	0.470
1168.000	672.530	80.012	19.995	103.931	20.051	4.509	0.484
1170.000	673.574	80.011	19.997	103.944	20.048	4.695	0.479
1172.000	674.573	80.010	19.995	103.944	20.049	4.675	0.506
1174.000	675.614	80.011	19.995	103.938	20.053	4.390	0.516
1176.000	676.654	80.008	19.995	103.940	20.050	4.553	0.515
1178.000	677.679	80.010	19.996	103.922	20.049	4.646	0.516
1180.000	678.643	80.009	19.995	103.925	20.048	4.701	0.477
1182.000	679.675	80.009	19.995	103.928	20.045	4.970	0.496
1184.001	680.712	80.009	19.995	103.937	20.045	4.948	0.498
1186.000	681.732	80.009	19.994	103.927	20.050	4.559	0.524
1188.000	682.754	80.009	19.995	103.915	20.047	4.786	0.545
1190.000	683.775	80.012	19.995	103.926	20.046	4.898	0.522
1192.001	684.807	80.010	19.995	103.937	20.046	4.836	0.510
1194.000	685.848	80.011	19.994	103.937	20.048	4.700	0.524
1196.001	686.872	80.011	19.992	103.922	20.052	4.439	0.537
1198.000	687.925	80.009	19.993	103.921	20.049	4.685	0.553
1200.000	688.965	80.011	19.993	103.931	20.056	4.176	0.557
1202.000	689.996	80.013	19.995	103.926	20.049	4.619	0.508
1204.000	691.027	80.009	19.994	103.923	20.048	4.686	0.505
1206.000	692.094	80.008	19.995	103.911	20.053	4.384	0.523
1208.001	693.133	80.008	19.995	103.925	20.052	4.455	0.545
1210.000	694.183	80.009	19.995	103.913	20.050	4.608	0.538
1212.000	695.211	80.007	19.994	103.913	20.050	4.587	0.509
1214.000	696.266	80.010	19.996	103.913	20.049	4.624	0.520
1216.000	697.289	80.010	19.994	103.910	20.048	4.732	0.513
1218.000	698.321	80.008	19.995	103.919	20.046	4.898	0.503
1220.001	699.389	80.009	19.995	103.915	20.049	4.658	0.529
1222.000	700.408	80.010	19.995	103.911	20.049	4.645	0.500
1224.000	701.411	80.009	19.995	103.913	20.050	4.585	0.521
1226.001	702.423	80.008	19.994	103.921	20.048	4.728	0.488
1228.000	703.463	80.009	19.994	103.922	20.051	4.503	0.510
1230.000	704.455	80.008	19.996	103.930	20.047	4.780	0.508
1232.000	705.459	80.010	19.996	103.942	20.045	4.955	0.491
1234.000	706.524	80.009	19.994	103.931	20.052	4.446	0.507
1236.001	707.522	80.009	19.995	103.927	20.045	4.947	0.521
1238.001	708.533	80.009	19.994	103.916	20.051	4.472	0.504
1240.001	709.560	80.008	19.994	103.922	20.048	4.703	0.491
1242.000	710.564	80.008	19.994	103.927	20.044	5.014	0.471
1244.000	711.597	80.009	19.995	103.922	20.049	4.667	0.517
1246.000	712.613	80.007	19.995	103.925	20.047	4.758	0.514
1248.000	713.642	80.009	19.996	103.923	20.048	4.752	0.523
1250.000	714.687	80.011	19.996	103.931	20.053	4.348	0.509
1252.000	715.742	80.009	19.994	103.936	20.048	4.730	0.525
1254.001	716.754	80.010	19.995	103.927	20.046	4.897	0.461
1256.000	717.766	80.009	19.994	103.922	20.046	4.845	0.512
1258.000	718.790	80.010	19.994	103.927	20.046	4.853	0.502
1260.000	719.801	80.009	19.994	103.923	20.049	4.654	0.514
1262.000	720.848	80.009	19.994	103.913	20.049	4.630	0.525
1264.000	721.858	80.010	19.994	103.914	20.047	4.764	0.543
1266.001	722.833	80.010	19.995	103.910	20.042	5.174	0.508
1268.000	723.847	80.008	19.994	103.913	20.044	4.981	0.489
1270.000	724.843	80.010	19.995	103.913	20.048	4.696	0.522
1272.001	725.818	80.010	19.996	103.907	20.048	4.724	0.501
1274.000	726.806	80.011	19.996	103.906	20.048	4.722	0.493
1276.000	727.847	80.012	19.995	103.915	20.050	4.601	0.500
1278.000	728.843	80.011	19.996	103.908	20.047	4.798	0.503
1280.000	729.798	80.010	19.996	103.907	20.052	4.417	0.472
1282.000	730.821	80.011	19.995	103.906	20.044	5.017	0.515
1284.000	731.838	80.010	19.995	103.913	20.042	5.136	0.515
1286.001	732.791	80.010	19.997	103.921	20.040	5.327	0.498
1288.000	733.823	80.008	19.995	103.915	20.047	4.804	0.507
1290.000	734.843	80.009	19.996	103.910	20.046	4.833	0.534
1292.000	735.825	80.009	19.995	103.918	20.044	4.975	0.456
1294.000	736.836	80.009	19.996	103.914	20.046	4.882	0.499
1296.000	737.780	80.010	19.995	103.910	20.044	4.995	0.488
1298.000	738.794	80.010	19.994	103.914	20.044	5.011	0.504
1300.000	739.796	80.008	19.995	103.908	20.039	5.341	0.513
1302.000	740.828	80.010	19.994	103.912	20.041	5.218	0.502
1304.000	741.851	80.009	19.995	103.918	20.047	4.798	0.503
1306.000	742.821	80.008	19.995	103.916	20.042	5.184	0.476
1307.500	743.597	80.009	19.993	103.911	20.044	4.987	0.525