File: 01_Data/Air_Fryer/MCC/Air_Fryer_MCC_30K_min_220203_R3.txt
Sample ID:	C:\MCC\MCC Cal\Test\Air_Fryer_MCC_30K_min_220203_R3.txt
Sample Weight (mg):	4.11
Heating Rate (C/s):	0.5
Combustor Temp (C):	900
N2 Flow Rate (cc/min):	80
O2 Flow Rate (cc/min):	20
Calibration File:	C:\MCC\MCC Cal\Coeff1 JN10440_30_210304.txt.txt
T Correction Coefficients:	0	1.024463	0
Time Shift (s):	14
*
Time (s)	Temperature (C)	N2 flow rate (cc/min)	O2 flow rate (cc/min)	Flow Rate (cc/min)	Oxygen (%)	HRR (W/g)	Heating rate (C/s)
0.000	114.349	80.007	19.993	103.834	20.179	-0.484	-0.006
1.500	114.358	80.008	19.993	103.834	20.176	-0.197	-0.003
3.000	114.334	80.008	19.995	103.831	20.177	-0.289	-0.025
4.500	114.329	80.009	19.993	103.832	20.176	-0.234	-0.021
6.000	114.356	80.008	19.994	103.832	20.172	0.069	0.027
7.500	114.366	80.007	19.993	103.832	20.179	-0.471	-0.002
9.000	114.329	80.008	19.994	103.832	20.175	-0.176	-0.014
10.500	114.306	80.005	19.992	103.832	20.175	-0.161	-0.022
12.000	114.337	80.007	19.995	103.855	20.175	-0.132	-0.005
13.500	114.345	80.007	19.994	103.859	20.173	-0.015	0.003
15.001	114.349	80.006	19.994	103.857	20.175	-0.169	-0.024
16.500	114.366	80.006	19.995	103.870	20.172	0.056	0.005
18.000	114.376	80.007	19.995	103.876	20.170	0.269	0.009
19.500	114.368	80.005	19.995	103.883	20.166	0.587	-0.010
21.000	114.406	80.007	19.994	103.900	20.159	1.084	0.045
22.500	114.490	80.007	19.994	103.934	20.159	1.134	0.023
24.000	114.548	80.006	19.993	103.955	20.156	1.339	0.034
25.500	114.635	80.008	19.995	103.966	20.153	1.569	0.060
27.000	114.715	80.008	19.994	103.980	20.147	2.054	0.058
28.500	114.831	80.008	19.994	103.995	20.146	2.176	0.078
30.000	114.937	80.008	19.994	104.016	20.145	2.252	0.069
31.500	115.115	80.009	19.994	104.024	20.143	2.391	0.118
33.001	115.267	80.008	19.995	104.030	20.141	2.563	0.116
34.500	115.424	80.009	19.995	104.030	20.142	2.470	0.114
36.000	115.648	80.008	19.994	104.049	20.139	2.728	0.165
37.500	115.851	80.008	19.994	104.054	20.139	2.694	0.134
39.000	116.097	80.005	19.995	104.058	20.135	3.015	0.153
40.500	116.375	80.005	19.995	104.056	20.137	2.830	0.171
42.001	116.616	80.007	19.995	104.054	20.136	2.965	0.177
43.500	116.943	80.005	19.995	104.058	20.132	3.274	0.210
45.001	117.235	80.005	19.995	104.061	20.134	3.059	0.189
46.500	117.601	80.006	19.996	104.063	20.131	3.317	0.254
48.000	117.923	80.005	19.995	104.069	20.133	3.200	0.207
49.500	118.254	80.005	19.995	104.068	20.128	3.526	0.230
51.000	118.624	80.006	19.994	104.061	20.130	3.437	0.244
52.501	119.009	80.006	19.995	104.061	20.130	3.376	0.271
54.000	119.437	80.006	19.994	104.062	20.133	3.179	0.260
55.500	119.863	80.006	19.994	104.062	20.131	3.303	0.286
57.000	120.273	80.007	19.994	104.062	20.129	3.507	0.276
58.500	120.677	80.007	19.993	104.062	20.129	3.496	0.270
60.000	121.084	80.005	19.993	104.069	20.128	3.592	0.285
61.501	121.567	80.006	19.993	104.070	20.128	3.598	0.331
63.000	122.040	80.006	19.994	104.066	20.126	3.709	0.311
64.501	122.489	80.006	19.995	104.067	20.130	3.385	0.287
66.000	123.013	80.006	19.995	104.068	20.128	3.603	0.369
67.500	123.517	80.006	19.994	104.068	20.127	3.657	0.329
69.000	123.979	80.005	19.994	104.066	20.127	3.661	0.318
70.500	124.466	80.006	19.993	104.071	20.129	3.496	0.326
72.000	125.004	80.005	19.994	104.073	20.127	3.609	0.349
73.500	125.523	80.004	19.994	104.069	20.127	3.648	0.342
75.000	126.004	80.005	19.994	104.069	20.130	3.440	0.334
76.500	126.588	80.004	19.993	104.068	20.126	3.751	0.372
78.000	127.136	80.004	19.994	104.076	20.127	3.618	0.344
79.500	127.701	80.006	19.992	104.072	20.125	3.836	0.378
81.000	128.247	80.005	19.994	104.072	20.125	3.803	0.348
82.500	128.837	80.006	19.993	104.068	20.129	3.486	0.389
84.000	129.431	80.007	19.994	104.068	20.130	3.408	0.409
85.501	129.966	80.007	19.995	104.073	20.128	3.534	0.379
87.001	130.597	80.006	19.994	104.090	20.124	3.896	0.409
88.500	131.202	80.007	19.993	104.094	20.128	3.570	0.414
90.000	131.797	80.008	19.994	104.082	20.127	3.620	0.382
91.500	132.393	80.007	19.993	104.082	20.127	3.672	0.410
93.000	133.026	80.007	19.994	104.081	20.127	3.646	0.420
94.500	133.605	80.007	19.993	104.088	20.130	3.424	0.398
96.000	134.303	80.007	19.993	104.091	20.127	3.681	0.455
97.501	134.942	80.007	19.993	104.073	20.128	3.546	0.439
99.000	135.567	80.007	19.994	104.072	20.126	3.750	0.407
100.500	136.201	80.007	19.993	104.072	20.127	3.659	0.430
102.000	136.888	80.007	19.993	104.074	20.128	3.559	0.450
103.501	137.574	80.007	19.994	104.078	20.127	3.620	0.451
105.001	138.218	80.007	19.994	104.074	20.126	3.728	0.440
106.500	138.869	80.008	19.993	104.072	20.128	3.568	0.438
108.000	139.562	80.007	19.995	104.069	20.130	3.407	0.461
109.500	140.235	80.008	19.994	104.067	20.129	3.487	0.456
111.001	140.924	80.008	19.995	104.074	20.128	3.587	0.470
112.500	141.631	80.007	19.995	104.070	20.130	3.400	0.473
114.000	142.321	80.009	19.993	104.070	20.129	3.457	0.439
115.500	143.031	80.010	19.995	104.065	20.127	3.613	0.449
117.000	143.754	80.008	19.995	104.064	20.128	3.548	0.468
118.501	144.458	80.008	19.994	104.067	20.127	3.674	0.474
120.000	145.182	80.008	19.993	104.064	20.129	3.472	0.479
121.500	145.904	80.006	19.994	104.064	20.130	3.413	0.476
123.000	146.628	80.006	19.994	104.064	20.131	3.307	0.495
124.500	147.350	80.006	19.993	104.065	20.128	3.537	0.481
126.000	148.074	80.005	19.994	104.065	20.132	3.220	0.501
127.501	148.801	80.006	19.996	104.066	20.129	3.513	0.486
129.000	149.558	80.006	19.996	104.065	20.131	3.341	0.485
130.500	150.282	80.004	19.995	104.066	20.129	3.450	0.501
132.000	150.995	80.005	19.995	104.067	20.130	3.418	0.466
133.500	151.732	80.005	19.994	104.067	20.134	3.078	0.493
135.000	152.475	80.005	19.995	104.067	20.131	3.326	0.514
136.500	153.234	80.006	19.995	104.064	20.131	3.333	0.508
138.000	153.949	80.005	19.995	104.063	20.128	3.544	0.475
139.500	154.707	80.006	19.995	104.066	20.130	3.435	0.509
141.000	155.460	80.005	19.995	104.062	20.132	3.233	0.516
142.500	156.167	80.004	19.994	104.061	20.132	3.252	0.441
144.000	156.892	80.006	19.995	104.064	20.132	3.226	0.485
145.500	157.643	80.005	19.995	104.065	20.133	3.183	0.475
147.000	158.415	80.006	19.996	104.065	20.134	3.063	0.498
148.500	159.155	80.005	19.995	104.062	20.135	3.004	0.499
150.000	159.874	80.004	19.995	104.060	20.137	2.839	0.474
151.500	160.612	80.005	19.996	104.061	20.138	2.743	0.471
153.000	161.360	80.005	19.994	104.063	20.136	2.954	0.501
154.500	162.107	80.005	19.996	104.066	20.134	3.119	0.496
156.000	162.884	80.006	19.995	104.064	20.139	2.719	0.524
157.500	163.589	80.006	19.994	104.047	20.138	2.739	0.472
159.000	164.384	80.005	19.994	104.043	20.136	2.897	0.530
160.500	165.164	80.006	19.996	104.043	20.138	2.741	0.510
162.000	165.850	80.006	19.994	104.053	20.141	2.576	0.467
163.500	166.673	80.006	19.994	104.052	20.141	2.517	0.516
165.000	167.410	80.007	19.994	104.041	20.141	2.554	0.476
166.500	168.163	80.007	19.995	104.034	20.137	2.853	0.509
168.000	168.897	80.007	19.995	104.035	20.137	2.888	0.514
169.500	169.667	80.007	19.994	104.037	20.141	2.536	0.510
171.000	170.448	80.008	19.994	104.037	20.141	2.519	0.523
172.500	171.200	80.008	19.994	104.037	20.139	2.730	0.510
174.000	171.913	80.008	19.995	104.029	20.142	2.452	0.485
175.500	172.650	80.007	19.993	104.028	20.142	2.458	0.491
177.000	173.398	80.006	19.993	104.028	20.141	2.556	0.498
178.501	174.156	80.006	19.994	104.026	20.140	2.628	0.503
180.000	174.901	80.007	19.993	104.026	20.141	2.521	0.500
181.500	175.636	80.007	19.995	104.034	20.144	2.334	0.483
183.000	176.397	80.006	19.994	104.036	20.142	2.480	0.511
184.500	177.114	80.006	19.994	104.034	20.142	2.447	0.476
186.000	177.876	80.007	19.994	104.033	20.142	2.464	0.484
187.500	178.619	80.007	19.993	104.026	20.140	2.627	0.503
189.000	179.347	80.007	19.994	104.032	20.140	2.595	0.505
190.500	180.103	80.009	19.994	104.030	20.140	2.625	0.482
192.000	180.850	80.009	19.993	104.026	20.143	2.412	0.500
193.500	181.622	80.008	19.994	104.027	20.143	2.345	0.521
195.000	182.363	80.008	19.994	104.028	20.142	2.464	0.485
196.500	183.076	80.008	19.993	104.029	20.144	2.282	0.459
198.000	183.833	80.008	19.993	104.027	20.144	2.338	0.501
199.500	184.579	80.007	19.993	104.026	20.140	2.577	0.496
201.000	185.345	80.007	19.994	104.027	20.141	2.512	0.506
202.500	186.084	80.006	19.994	104.026	20.146	2.124	0.485
204.000	186.859	80.006	19.995	104.019	20.145	2.217	0.514
205.500	187.563	80.004	19.996	104.018	20.145	2.209	0.472
207.000	188.334	80.005	19.994	104.022	20.144	2.297	0.503
208.500	189.102	80.005	19.994	104.005	20.150	1.810	0.505
210.000	189.842	80.004	19.995	104.015	20.151	1.736	0.485
211.500	190.555	80.005	19.995	103.967	20.157	1.252	0.477
213.000	191.247	80.005	19.994	103.842	20.159	1.121	0.461
214.500	191.876	80.006	19.994	103.902	20.157	1.267	0.431
216.000	192.553	80.005	19.995	103.983	20.153	1.564	0.452
217.500	193.240	80.006	19.995	103.997	20.150	1.858	0.446
219.000	193.946	80.006	19.994	104.006	20.150	1.792	0.477
220.500	194.603	80.006	19.997	104.012	20.150	1.860	0.434
222.000	195.293	80.007	19.995	104.022	20.150	1.823	0.461
223.500	195.928	80.005	19.995	104.022	20.149	1.932	0.438
225.000	196.605	80.006	19.996	104.016	20.149	1.940	0.458
226.500	197.289	80.004	19.995	104.013	20.147	2.079	0.443
228.000	197.956	80.006	19.994	103.998	20.148	1.994	0.438
229.500	198.650	80.006	19.994	103.994	20.147	2.062	0.455
231.000	199.330	80.006	19.994	103.998	20.143	2.355	0.487
232.500	200.053	80.006	19.996	103.992	20.145	2.238	0.474
234.000	200.737	80.005	19.995	103.998	20.148	2.008	0.471
235.500	201.441	80.005	19.994	104.000	20.148	2.010	0.449
237.000	202.148	80.004	19.996	104.008	20.146	2.179	0.481
238.500	202.859	80.003	19.996	104.000	20.147	2.053	0.470
240.000	203.489	80.003	19.996	103.989	20.145	2.235	0.445
241.500	204.210	80.005	19.995	103.993	20.147	2.077	0.476
243.000	204.897	80.006	19.995	103.992	20.144	2.331	0.439
244.500	205.592	80.007	19.995	104.001	20.145	2.209	0.445
246.000	206.370	80.006	19.995	103.992	20.146	2.155	0.528
247.500	207.049	80.007	19.994	103.992	20.146	2.146	0.455
249.000	207.766	80.007	19.993	103.995	20.149	1.888	0.478
250.500	208.490	80.007	19.994	103.989	20.144	2.283	0.482
252.000	209.188	80.008	19.994	103.993	20.143	2.360	0.475
253.500	209.910	80.007	19.993	103.992	20.145	2.225	0.489
255.000	210.611	80.007	19.994	103.990	20.147	2.053	0.481
256.500	211.332	80.006	19.995	103.992	20.146	2.159	0.468
258.000	212.038	80.005	19.994	103.989	20.145	2.203	0.464
259.500	212.709	80.005	19.993	103.989	20.149	1.894	0.452
261.000	213.464	80.007	19.995	103.995	20.148	1.944	0.506
262.500	214.149	80.006	19.993	104.005	20.146	2.138	0.472
264.000	214.870	80.005	19.994	104.000	20.147	2.099	0.509
265.500	215.580	80.006	19.993	103.997	20.147	2.027	0.482
267.000	216.328	80.006	19.995	103.992	20.147	2.051	0.487
268.500	217.038	80.006	19.994	103.993	20.147	2.099	0.482
270.000	217.729	80.006	19.994	103.996	20.147	2.097	0.460
271.500	218.464	80.006	19.994	103.992	20.148	1.988	0.499
273.000	219.195	80.008	19.994	103.995	20.148	1.960	0.494
274.500	219.952	80.006	19.995	103.993	20.149	1.925	0.490
276.000	220.650	80.008	19.994	103.990	20.150	1.838	0.463
277.500	221.390	80.006	19.993	103.993	20.149	1.929	0.485
279.000	222.109	80.008	19.994	103.995	20.146	2.157	0.474
280.500	222.859	80.007	19.993	103.994	20.147	2.036	0.491
282.000	223.602	80.007	19.994	103.992	20.150	1.786	0.500
283.500	224.306	80.008	19.993	103.991	20.148	1.990	0.482
285.000	225.067	80.006	19.994	103.990	20.147	2.029	0.510
286.500	225.834	80.005	19.994	103.990	20.152	1.701	0.511
288.000	226.547	80.007	19.994	103.988	20.149	1.890	0.469
289.500	227.268	80.006	19.994	103.991	20.148	2.023	0.486
291.000	228.063	80.007	19.993	103.992	20.146	2.127	0.523
292.500	228.799	80.005	19.995	103.991	20.148	1.990	0.480
294.000	229.547	80.005	19.995	103.989	20.146	2.146	0.495
295.500	230.310	80.006	19.995	103.987	20.149	1.905	0.511
297.000	231.053	80.006	19.996	103.987	20.145	2.196	0.493
298.500	231.788	80.006	19.995	103.987	20.149	1.883	0.495
300.000	232.596	80.006	19.994	103.987	20.150	1.801	0.526
301.500	233.310	80.005	19.995	103.988	20.148	1.953	0.479
303.000	234.043	80.006	19.997	103.989	20.148	1.970	0.485
304.500	234.808	80.006	19.996	103.985	20.147	2.079	0.505
306.000	235.531	80.005	19.994	103.986	20.149	1.888	0.474
307.500	236.260	80.006	19.995	103.986	20.149	1.942	0.477
309.000	237.065	80.006	19.995	103.983	20.148	1.979	0.534
310.500	237.751	80.006	19.995	103.985	20.150	1.851	0.464
312.000	238.535	80.005	19.995	103.985	20.149	1.892	0.503
313.500	239.315	80.005	19.995	103.981	20.150	1.853	0.520
315.000	240.051	80.005	19.994	103.984	20.148	1.953	0.505
316.500	240.830	80.005	19.995	103.988	20.149	1.920	0.508
318.000	241.556	80.005	19.995	103.989	20.151	1.762	0.487
319.500	242.340	80.006	19.995	103.989	20.152	1.701	0.523
321.000	243.099	80.005	19.996	103.989	20.151	1.714	0.495
322.500	243.892	80.006	19.996	103.989	20.154	1.484	0.509
324.000	244.645	80.005	19.995	103.989	20.151	1.712	0.521
325.500	245.387	80.005	19.996	103.988	20.152	1.649	0.488
327.000	246.100	80.006	19.995	103.987	20.151	1.712	0.501
328.500	246.916	80.006	19.995	103.986	20.152	1.664	0.521
330.000	247.666	80.006	19.994	103.988	20.154	1.471	0.496
331.500	248.401	80.007	19.996	103.987	20.154	1.523	0.467
333.000	249.171	80.007	19.995	103.985	20.155	1.462	0.498
334.500	249.952	80.005	19.997	103.982	20.151	1.714	0.545
336.000	250.746	80.005	19.995	103.981	20.154	1.482	0.538
337.500	251.501	80.005	19.995	103.980	20.155	1.462	0.500
339.000	252.257	80.005	19.994	103.984	20.154	1.499	0.518
340.500	252.991	80.006	19.992	103.979	20.155	1.395	0.491
342.000	253.743	80.006	19.993	103.972	20.153	1.579	0.509
343.500	254.508	80.006	19.994	103.981	20.154	1.518	0.506
345.000	255.284	80.006	19.993	103.978	20.152	1.681	0.521
346.500	256.019	80.007	19.993	103.987	20.154	1.486	0.499
348.000	256.792	80.008	19.994	103.977	20.156	1.386	0.504
349.500	257.515	80.008	19.995	103.979	20.158	1.225	0.509
351.000	258.260	80.008	19.995	103.983	20.156	1.325	0.494
352.500	259.012	80.007	19.993	103.982	20.159	1.084	0.491
354.000	259.780	80.008	19.995	103.969	20.156	1.373	0.518
355.500	260.508	80.007	19.994	103.959	20.155	1.397	0.475
357.000	261.245	80.008	19.994	103.969	20.154	1.512	0.501
358.500	261.971	80.009	19.994	103.976	20.157	1.303	0.497
360.000	262.728	80.009	19.994	103.978	20.155	1.416	0.519
361.500	263.478	80.008	19.996	103.977	20.156	1.366	0.507
363.000	264.208	80.007	19.996	103.972	20.154	1.540	0.498
364.500	264.953	80.008	19.995	103.970	20.158	1.201	0.499
366.000	265.706	80.005	19.995	103.970	20.158	1.206	0.489
367.500	266.453	80.006	19.995	103.975	20.154	1.473	0.494
369.000	267.195	80.007	19.994	103.969	20.156	1.340	0.478
370.500	267.920	80.007	19.995	103.977	20.158	1.210	0.491
372.000	268.665	80.005	19.994	103.978	20.157	1.236	0.491
373.500	269.442	80.006	19.994	103.973	20.157	1.264	0.498
375.000	270.172	80.006	19.994	103.974	20.159	1.130	0.486
376.500	270.964	80.006	19.993	103.976	20.157	1.305	0.514
378.000	271.740	80.006	19.995	103.974	20.157	1.268	0.511
379.500	272.456	80.006	19.996	103.981	20.153	1.607	0.484
381.000	273.190	80.007	19.994	103.979	20.155	1.403	0.474
382.500	273.946	80.007	19.995	103.978	20.156	1.377	0.503
384.000	274.715	80.007	19.994	103.981	20.154	1.471	0.518
385.500	275.495	80.007	19.994	103.983	20.153	1.581	0.525
387.000	276.217	80.006	19.995	103.973	20.157	1.268	0.469
388.500	276.967	80.007	19.996	103.959	20.156	1.312	0.495
390.000	277.734	80.007	19.996	103.966	20.157	1.279	0.497
391.500	278.443	80.005	19.993	103.973	20.156	1.338	0.516
393.000	279.228	80.006	19.996	103.964	20.158	1.182	0.529
394.500	280.029	80.005	19.996	103.976	20.156	1.360	0.553
396.000	280.768	80.006	19.995	103.977	20.153	1.579	0.508
397.500	281.515	80.005	19.995	103.963	20.153	1.588	0.493
399.000	282.260	80.005	19.994	103.955	20.153	1.572	0.474
400.500	283.036	80.005	19.995	103.962	20.157	1.283	0.539
402.000	283.817	80.005	19.995	103.969	20.159	1.153	0.511
403.501	284.588	80.005	19.995	103.966	20.154	1.538	0.498
405.000	285.333	80.006	19.995	103.960	20.154	1.498	0.500
406.500	286.078	80.005	19.994	103.965	20.157	1.283	0.506
408.000	286.885	80.006	19.996	103.964	20.154	1.488	0.531
409.500	287.603	80.007	19.995	103.956	20.156	1.327	0.486
411.000	288.368	80.007	19.994	103.954	20.155	1.403	0.496
412.500	289.182	80.007	19.995	103.952	20.152	1.633	0.532
414.000	289.902	80.008	19.995	103.950	20.152	1.635	0.480
415.501	290.712	80.008	19.995	103.952	20.152	1.679	0.518
417.000	291.478	80.008	19.994	103.951	20.154	1.479	0.481
418.500	292.253	80.007	19.995	103.948	20.152	1.655	0.513
420.000	293.010	80.008	19.995	103.947	20.152	1.676	0.499
421.500	293.781	80.007	19.995	103.947	20.151	1.716	0.515
423.000	294.478	80.007	19.996	103.948	20.154	1.477	0.502
424.500	295.300	80.007	19.996	103.952	20.154	1.529	0.545
426.000	296.050	80.007	19.995	103.954	20.153	1.626	0.474
427.500	296.809	80.007	19.996	103.948	20.155	1.448	0.501
429.000	297.538	80.006	19.995	103.946	20.155	1.440	0.504
430.500	298.298	80.006	19.996	103.946	20.155	1.398	0.516
432.000	299.047	80.007	19.996	103.946	20.155	1.464	0.512
433.500	299.787	80.007	19.994	103.947	20.156	1.368	0.493
435.000	300.501	80.008	19.995	103.947	20.154	1.490	0.469
436.500	301.323	80.009	19.994	103.947	20.155	1.453	0.545
438.000	302.084	80.010	19.995	103.946	20.157	1.255	0.502
439.500	302.842	80.009	19.994	103.948	20.154	1.479	0.489
441.000	303.560	80.010	19.993	103.946	20.159	1.144	0.498
442.500	304.359	80.008	19.995	103.946	20.158	1.166	0.516
444.000	305.122	80.009	19.994	103.946	20.158	1.218	0.509
445.500	305.868	80.008	19.994	103.948	20.159	1.105	0.493
447.000	306.619	80.007	19.994	103.950	20.159	1.136	0.510
448.500	307.420	80.007	19.994	103.948	20.157	1.266	0.539
450.000	308.132	80.006	19.995	103.948	20.160	1.042	0.479
451.500	308.882	80.006	19.995	103.949	20.156	1.340	0.518
453.000	309.703	80.005	19.994	103.950	20.158	1.190	0.543
454.501	310.438	80.006	19.996	103.950	20.157	1.240	0.504
456.000	311.217	80.006	19.995	103.951	20.157	1.290	0.512
457.500	311.968	80.006	19.995	103.950	20.156	1.375	0.501
459.000	312.751	80.006	19.996	103.949	20.155	1.431	0.514
460.500	313.509	80.006	19.995	103.950	20.157	1.247	0.503
462.000	314.235	80.006	19.995	103.948	20.155	1.414	0.463
463.500	315.000	80.006	19.997	103.950	20.155	1.425	0.517
465.000	315.721	80.006	19.996	103.950	20.154	1.520	0.471
466.500	316.489	80.006	19.994	103.948	20.155	1.407	0.510
468.000	317.229	80.007	19.995	103.950	20.158	1.216	0.518
469.500	318.028	80.007	19.995	103.954	20.160	1.005	0.486
471.000	318.744	80.005	19.994	103.951	20.157	1.240	0.468
472.500	319.500	80.007	19.994	103.951	20.160	1.073	0.509
474.000	320.224	80.008	19.995	103.951	20.159	1.138	0.494
475.500	321.014	80.007	19.994	103.951	20.157	1.262	0.539
477.000	321.772	80.007	19.995	103.940	20.157	1.286	0.511
478.500	322.509	80.006	19.994	103.939	20.154	1.511	0.500
480.000	323.306	80.006	19.994	103.947	20.156	1.349	0.509
481.500	324.029	80.007	19.994	103.947	20.158	1.175	0.488
483.000	324.774	80.006	19.996	103.947	20.154	1.533	0.491
484.500	325.580	80.007	19.996	103.946	20.157	1.275	0.522
486.000	326.318	80.006	19.995	103.950	20.158	1.155	0.486
487.500	327.088	80.007	19.996	103.952	20.155	1.403	0.517
489.000	327.835	80.007	19.994	103.948	20.155	1.453	0.468
490.500	328.647	80.006	19.995	103.946	20.156	1.333	0.531
492.001	329.349	80.007	19.995	103.944	20.154	1.533	0.494
493.500	330.088	80.007	19.996	103.944	20.152	1.681	0.494
495.000	330.841	80.008	19.995	103.947	20.153	1.564	0.497
496.500	331.569	80.009	19.994	103.947	20.152	1.633	0.491
498.000	332.350	80.009	19.994	103.945	20.154	1.492	0.510
499.501	333.114	80.008	19.995	103.941	20.154	1.509	0.553
501.000	333.893	80.008	19.994	103.942	20.151	1.766	0.528
502.500	334.703	80.007	19.995	103.944	20.151	1.713	0.530
504.000	335.420	80.008	19.995	103.943	20.154	1.488	0.459
505.500	336.194	80.008	19.994	103.945	20.152	1.698	0.489
507.000	336.892	80.006	19.994	103.945	20.152	1.644	0.463
508.500	337.687	80.008	19.994	103.945	20.155	1.396	0.508
510.000	338.444	80.006	19.995	103.946	20.151	1.783	0.499
511.500	339.184	80.006	19.995	103.947	20.149	1.865	0.502
513.000	339.951	80.007	19.995	103.946	20.152	1.691	0.508
514.500	340.692	80.007	19.995	103.945	20.150	1.813	0.505
516.000	341.482	80.007	19.996	103.943	20.150	1.791	0.535
517.500	342.295	80.007	19.996	103.936	20.151	1.757	0.528
519.000	343.010	80.007	19.996	103.933	20.154	1.483	0.473
520.500	343.800	80.008	19.995	103.941	20.152	1.644	0.530
522.000	344.530	80.009	19.994	103.943	20.155	1.396	0.484
523.500	345.314	80.007	19.995	103.935	20.153	1.583	0.500
525.000	346.053	80.008	19.996	103.932	20.149	1.887	0.517
526.500	346.818	80.007	19.994	103.938	20.150	1.837	0.517
528.000	347.585	80.007	19.994	103.947	20.151	1.757	0.515
529.500	348.295	80.006	19.994	103.943	20.147	2.028	0.486
531.001	349.106	80.005	19.993	103.938	20.152	1.628	0.533
532.500	349.858	80.006	19.994	103.938	20.150	1.787	0.507
534.000	350.645	80.007	19.994	103.942	20.147	2.047	0.524
535.500	351.414	80.005	19.994	103.949	20.146	2.106	0.509
537.000	352.177	80.006	19.995	103.941	20.149	1.884	0.497
538.500	352.949	80.006	19.995	103.935	20.150	1.854	0.519
540.000	353.708	80.006	19.994	103.942	20.149	1.935	0.511
541.500	354.502	80.005	19.995	103.939	20.148	1.991	0.532
543.000	355.258	80.006	19.995	103.928	20.148	1.967	0.511
544.500	355.967	80.006	19.996	103.923	20.148	1.961	0.488
546.000	356.736	80.007	19.995	103.930	20.149	1.898	0.498
547.500	357.499	80.007	19.994	103.923	20.146	2.125	0.506
549.000	358.197	80.007	19.994	103.923	20.147	2.060	0.453
550.500	358.958	80.006	19.995	103.930	20.146	2.108	0.508
552.001	359.713	80.006	19.995	103.929	20.146	2.130	0.497
553.500	360.449	80.007	19.995	103.936	20.148	1.986	0.499
555.000	361.208	80.007	19.995	103.938	20.146	2.147	0.493
556.500	361.995	80.006	19.994	103.928	20.146	2.108	0.533
558.000	362.748	80.006	19.994	103.920	20.141	2.510	0.500
559.500	363.482	80.007	19.994	103.921	20.144	2.267	0.481
561.000	364.247	80.006	19.994	103.924	20.140	2.595	0.503
562.500	364.970	80.006	19.995	103.912	20.142	2.464	0.490
564.000	365.728	80.006	19.994	103.910	20.143	2.376	0.490
565.500	366.482	80.006	19.995	103.911	20.145	2.245	0.477
567.000	367.201	80.006	19.994	103.916	20.142	2.486	0.488
568.500	367.928	80.007	19.993	103.920	20.143	2.347	0.488
570.000	368.698	80.006	19.995	103.922	20.141	2.512	0.493
571.500	369.435	80.006	19.994	103.925	20.138	2.747	0.488
573.000	370.179	80.006	19.994	103.932	20.140	2.636	0.485
574.500	370.928	80.007	19.996	103.940	20.138	2.794	0.475
576.000	371.663	80.008	19.994	103.933	20.135	2.977	0.495
577.500	372.460	80.008	19.994	103.916	20.133	3.161	0.536
579.000	373.188	80.007	19.994	103.916	20.129	3.495	0.490
580.500	373.940	80.007	19.994	103.917	20.133	3.189	0.504
582.000	374.707	80.007	19.994	103.925	20.130	3.404	0.499
583.501	375.408	80.007	19.994	103.926	20.128	3.539	0.467
585.000	376.206	80.008	19.995	103.924	20.125	3.828	0.540
586.500	376.968	80.007	19.994	103.932	20.124	3.887	0.510
588.000	377.715	80.007	19.994	103.930	20.125	3.830	0.484
589.500	378.479	80.006	19.995	103.926	20.121	4.073	0.509
591.000	379.187	80.006	19.994	103.919	20.120	4.181	0.485
592.500	379.957	80.008	19.994	103.917	20.120	4.190	0.523
594.000	380.661	80.007	19.993	103.920	20.117	4.466	0.480
595.500	381.424	80.007	19.993	103.928	20.114	4.633	0.499
597.000	382.221	80.006	19.993	103.930	20.115	4.620	0.542
598.500	382.983	80.008	19.994	103.930	20.114	4.683	0.494
600.000	383.697	80.009	19.994	103.927	20.110	4.997	0.470
601.500	384.498	80.009	19.995	103.921	20.109	5.048	0.523
603.000	385.260	80.009	19.994	103.922	20.101	5.670	0.517
604.500	385.999	80.009	19.994	103.926	20.099	5.828	0.520
606.000	386.786	80.009	19.996	103.920	20.098	5.898	0.531
607.500	387.569	80.006	19.995	103.917	20.095	6.146	0.543
609.000	388.307	80.006	19.996	103.922	20.088	6.723	0.522
610.500	389.085	80.006	19.995	103.912	20.094	6.265	0.525
612.000	389.899	80.007	19.994	103.916	20.092	6.417	0.527
613.500	390.674	80.004	19.997	103.919	20.092	6.389	0.507
615.000	391.443	80.005	19.995	103.908	20.087	6.762	0.498
616.500	392.186	80.006	19.996	103.907	20.085	6.927	0.516
618.000	393.034	80.006	19.997	103.910	20.082	7.203	0.520
619.500	393.767	80.004	19.995	103.909	20.083	7.131	0.499
621.000	394.572	80.006	19.995	103.910	20.082	7.214	0.532
622.500	395.366	80.006	19.995	103.916	20.079	7.444	0.520
624.000	396.165	80.005	19.995	103.915	20.078	7.516	0.549
625.500	396.887	80.007	19.995	103.911	20.077	7.570	0.482
627.000	397.697	80.008	19.995	103.910	20.077	7.596	0.545
628.500	398.486	80.007	19.995	103.910	20.074	7.852	0.515
630.001	399.262	80.006	19.995	103.909	20.073	7.926	0.504
631.500	400.029	80.007	19.994	103.909	20.067	8.331	0.526
633.000	400.768	80.007	19.994	103.912	20.068	8.308	0.496
634.500	401.560	80.007	19.994	103.916	20.068	8.325	0.525
636.000	402.336	80.007	19.994	103.912	20.063	8.711	0.523
637.500	403.104	80.007	19.994	103.909	20.060	8.898	0.528
639.000	403.875	80.006	19.994	103.911	20.060	8.948	0.517
640.500	404.654	80.006	19.995	103.914	20.058	9.083	0.493
642.000	405.377	80.005	19.996	103.909	20.052	9.565	0.470
643.501	406.165	80.005	19.994	103.910	20.051	9.645	0.511
645.000	406.931	80.005	19.994	103.910	20.047	9.927	0.508
646.500	407.699	80.006	19.995	103.911	20.046	10.027	0.502
648.000	408.464	80.004	19.995	103.908	20.041	10.402	0.550
649.500	409.259	80.006	19.995	103.909	20.037	10.734	0.495
651.000	409.980	80.005	19.994	103.911	20.035	10.865	0.474
652.500	410.742	80.005	19.996	103.912	20.034	10.997	0.520
654.000	411.528	80.007	19.994	103.912	20.024	11.762	0.543
655.500	412.283	80.007	19.994	103.912	20.018	12.231	0.505
657.000	413.048	80.008	19.993	103.911	20.013	12.593	0.523
658.500	413.755	80.007	19.995	103.910	20.007	13.112	0.489
660.000	414.510	80.008	19.995	103.908	20.005	13.248	0.493
661.500	415.276	80.008	19.993	103.909	19.997	13.877	0.500
663.000	416.062	80.008	19.994	103.909	19.993	14.176	0.514
664.500	416.782	80.008	19.995	103.911	19.987	14.691	0.501
666.000	417.601	80.007	19.994	103.913	19.977	15.441	0.569
667.500	418.328	80.007	19.994	103.913	19.971	15.955	0.470
669.000	419.104	80.007	19.994	103.911	19.962	16.679	0.533
670.500	419.836	80.008	19.995	103.911	19.954	17.274	0.499
672.000	420.643	80.007	19.996	103.905	19.942	18.246	0.522
673.500	421.379	80.007	19.995	103.902	19.929	19.238	0.489
675.000	422.087	80.009	19.995	103.904	19.914	20.426	0.479
676.500	422.885	80.008	19.995	103.905	19.899	21.639	0.506
678.001	423.622	80.007	19.996	103.891	19.877	23.379	0.495
679.500	424.352	80.009	19.995	103.897	19.852	25.342	0.484
681.000	425.138	80.010	19.994	103.904	19.833	26.775	0.524
682.500	425.911	80.009	19.994	103.895	19.805	29.006	0.510
684.000	426.672	80.010	19.995	103.891	19.779	31.053	0.505
685.500	427.450	80.009	19.995	103.892	19.751	33.279	0.502
687.000	428.213	80.009	19.995	103.889	19.722	35.621	0.499
688.501	428.980	80.010	19.995	103.873	19.699	37.376	0.487
690.000	429.769	80.009	19.995	103.859	19.679	38.974	0.516
691.500	430.474	80.007	19.996	103.849	19.644	41.681	0.483
693.000	431.255	80.007	19.995	103.860	19.595	45.567	0.510
694.501	431.986	80.007	19.996	103.892	19.549	49.192	0.484
696.000	432.786	80.007	19.996	103.924	19.495	53.459	0.514
697.500	433.514	80.005	19.995	103.916	19.450	56.961	0.501
699.000	434.298	80.007	19.995	103.880	19.400	60.961	0.518
700.500	435.024	80.006	19.995	103.841	19.336	65.933	0.468
702.000	435.768	80.005	19.997	103.832	19.274	70.837	0.492
703.500	436.550	80.005	19.996	103.853	19.204	76.354	0.530
705.000	437.273	80.007	19.996	103.867	19.137	81.635	0.490
706.500	438.053	80.004	19.995	103.850	19.064	87.364	0.499
708.000	438.756	80.007	19.997	103.833	18.994	92.899	0.496
709.500	439.535	80.007	19.996	103.817	18.917	98.940	0.507
711.000	440.241	80.006	19.996	103.795	18.822	106.369	0.485
712.500	440.961	80.006	19.996	103.811	18.721	114.290	0.484
714.000	441.737	80.007	19.995	103.835	18.616	122.556	0.485
715.500	442.467	80.006	19.994	103.821	18.507	131.098	0.489
717.000	443.145	80.005	19.994	103.792	18.387	140.573	0.471
718.500	443.946	80.005	19.994	103.777	18.266	150.163	0.544
720.000	444.602	80.005	19.995	103.748	18.152	159.050	0.485
721.500	445.341	80.006	19.994	103.728	18.021	169.187	0.469
723.001	446.063	80.005	19.994	103.695	17.903	178.400	0.468
724.500	446.883	80.006	19.995	103.675	17.755	190.030	0.525
726.000	447.558	80.006	19.993	103.675	17.602	202.126	0.499
727.500	448.339	80.005	19.994	103.699	17.441	214.854	0.530
729.001	448.984	80.006	19.995	103.699	17.273	228.049	0.494
730.500	449.770	80.005	19.994	103.682	17.126	239.443	0.414
732.000	450.531	80.006	19.995	103.606	16.980	250.706	0.484
733.500	451.130	80.007	19.995	103.521	16.810	263.773	0.401
735.000	452.178	80.006	19.994	103.495	16.628	277.907	0.571
736.500	452.979	80.007	19.995	103.533	16.426	293.944	0.809
738.000	453.769	80.008	19.995	103.596	16.223	310.030	0.576
739.500	454.231	80.008	19.994	103.610	16.009	326.415	0.382
741.000	454.918	80.006	19.995	103.543	15.806	341.743	0.479
742.500	455.662	80.009	19.994	103.464	15.625	355.928	0.500
744.000	456.468	80.008	19.995	103.343	15.419	372.669	0.475
745.500	457.166	80.008	19.994	103.262	15.180	391.043	0.429
747.000	458.024	80.007	19.994	103.293	14.936	409.564	0.549
748.500	458.743	80.009	19.995	103.393	14.724	425.599	0.540
750.000	459.589	80.008	19.994	103.313	14.499	442.627	0.474
751.500	460.359	80.008	19.994	103.128	14.235	462.799	0.509
753.000	460.964	80.009	19.994	103.058	13.965	484.537	0.456
754.500	461.761	80.008	19.996	103.225	13.697	505.445	0.520
756.000	462.599	80.008	19.995	103.233	13.432	524.838	0.558
757.500	463.300	80.009	19.994	103.067	13.173	544.418	0.486
759.000	464.156	80.009	19.995	102.926	12.944	563.118	0.574
760.501	464.837	80.008	19.994	102.807	12.722	581.434	0.483
762.000	465.560	80.008	19.994	102.687	12.483	600.880	0.501
763.500	466.418	80.011	19.994	102.749	12.324	613.922	0.584
765.000	467.181	80.009	19.994	102.855	12.238	618.890	0.505
766.500	467.898	80.008	19.995	102.657	12.161	622.902	0.444
768.000	468.743	80.010	19.995	102.452	12.076	628.810	0.550
769.500	469.531	80.009	19.995	102.531	11.984	637.149	0.530
771.000	470.293	80.010	19.995	102.751	11.855	648.601	0.533
772.500	471.106	80.008	19.996	102.879	11.742	658.493	0.495
774.000	471.880	80.008	19.995	103.057	11.715	660.446	0.527
775.500	472.629	80.006	19.995	102.860	11.759	656.817	0.508
777.000	473.453	80.007	19.995	102.518	11.848	649.736	0.532
778.500	474.232	80.007	19.996	102.295	11.952	641.725	0.537
780.000	475.063	80.006	19.997	102.420	12.071	632.264	0.566
781.500	475.840	80.006	19.994	102.632	12.223	620.711	0.514
783.000	476.599	80.006	19.994	102.851	12.400	607.606	0.503
784.500	477.449	80.006	19.995	102.872	12.601	592.324	0.545
786.000	478.199	80.005	19.995	102.840	12.835	574.649	0.515
787.500	479.022	80.007	19.995	102.814	13.113	553.407	0.540
789.000	479.761	80.007	19.994	102.821	13.421	529.677	0.503
790.500	480.576	80.006	19.993	102.806	13.766	503.013	0.549
792.000	481.374	80.008	19.994	102.821	14.140	473.939	0.531
793.500	482.152	80.008	19.995	102.938	14.531	443.601	0.519
795.000	482.942	80.005	19.995	103.027	14.936	412.002	0.519
796.500	483.719	80.005	19.995	103.124	15.353	379.407	0.521
798.000	484.523	80.007	19.996	103.225	15.762	347.344	0.542
799.500	485.343	80.005	19.995	103.311	16.165	315.695	0.532
801.000	486.138	80.006	19.994	103.393	16.557	284.916	0.524
802.500	486.924	80.006	19.995	103.466	16.923	256.091	0.523
804.000	487.692	80.006	19.996	103.539	17.270	228.809	0.512
805.500	488.510	80.005	19.995	103.613	17.586	203.940	0.543
807.000	489.310	80.006	19.996	103.671	17.881	180.719	0.555
808.500	490.104	80.006	19.995	103.714	18.149	159.575	0.538
810.000	490.894	80.006	19.995	103.751	18.394	140.318	0.556
811.500	491.609	80.006	19.995	103.780	18.614	122.948	0.512
813.000	492.417	80.006	19.996	103.792	18.817	106.990	0.522
814.500	493.210	80.007	19.996	103.814	18.997	92.745	0.509
816.000	493.992	80.006	19.995	103.833	19.158	80.051	0.518
817.500	494.766	80.006	19.995	103.841	19.306	68.436	0.515
819.000	495.543	80.007	19.995	103.854	19.433	58.366	0.496
820.500	496.275	80.008	19.995	103.866	19.552	48.984	0.502
822.000	497.040	80.009	19.995	103.883	19.659	40.534	0.494
823.500	497.814	80.008	19.995	103.898	19.751	33.296	0.499
825.001	498.602	80.007	19.995	103.898	19.829	27.175	0.509
826.500	499.365	80.008	19.995	103.908	19.898	21.690	0.493
828.000	500.062	80.008	19.994	103.914	19.951	17.486	0.486
829.500	500.804	80.008	19.994	103.919	19.998	13.808	0.484
831.001	501.572	80.007	19.994	103.934	20.036	10.795	0.523
832.500	502.303	80.007	19.995	103.926	20.065	8.508	0.487
834.000	503.053	80.008	19.994	103.919	20.086	6.870	0.493
835.500	503.793	80.008	19.994	103.908	20.099	5.849	0.509
837.000	504.523	80.007	19.995	103.893	20.113	4.725	0.476
838.500	505.263	80.007	19.994	103.877	20.125	3.818	0.498
840.000	506.003	80.008	19.995	103.871	20.133	3.167	0.492
841.500	506.731	80.008	19.995	103.873	20.140	2.630	0.470
843.000	507.471	80.008	19.994	103.850	20.141	2.523	0.498
844.500	508.206	80.008	19.994	103.814	20.145	2.190	0.497
846.000	508.947	80.009	19.994	103.758	20.148	1.946	0.513
847.500	509.717	80.010	19.994	103.706	20.146	2.107	0.507
849.000	510.459	80.008	19.993	103.671	20.153	1.595	0.514
850.500	511.180	80.010	19.994	103.669	20.152	1.660	0.497
852.001	511.947	80.009	19.994	103.700	20.152	1.647	0.497
853.500	512.661	80.009	19.994	103.751	20.155	1.391	0.492
855.000	513.410	80.008	19.993	103.798	20.154	1.506	0.486
856.500	514.146	80.007	19.993	103.828	20.157	1.254	0.508
858.000	514.907	80.007	19.994	103.845	20.159	1.148	0.532
859.500	515.696	80.007	19.994	103.867	20.160	1.007	0.516
861.000	516.448	80.007	19.995	103.872	20.156	1.376	0.540
862.500	517.183	80.006	19.993	103.873	20.160	1.050	0.499
864.000	517.960	80.006	19.994	103.878	20.161	0.983	0.527
865.500	518.744	80.006	19.994	103.894	20.159	1.146	0.515
867.000	519.487	80.007	19.994	103.893	20.159	1.077	0.505
868.500	520.246	80.006	19.995	103.889	20.159	1.094	0.520
870.000	521.025	80.006	19.996	103.890	20.156	1.313	0.519
871.500	521.764	80.007	19.995	103.889	20.157	1.281	0.510
873.000	522.504	80.006	19.995	103.890	20.156	1.331	0.497
874.500	523.309	80.006	19.996	103.893	20.158	1.218	0.521
876.000	524.079	80.006	19.996	103.903	20.158	1.200	0.523
877.500	524.871	80.007	19.995	103.906	20.159	1.135	0.542
879.000	525.619	80.007	19.994	103.905	20.159	1.079	0.496
880.500	526.407	80.008	19.994	103.904	20.160	1.055	0.513
882.000	527.150	80.006	19.994	103.904	20.158	1.224	0.496
883.500	527.968	80.006	19.994	103.904	20.159	1.124	0.540
885.000	528.711	80.006	19.995	103.906	20.159	1.148	0.501
886.500	529.485	80.007	19.994	103.902	20.160	0.998	0.489
888.000	530.234	80.006	19.995	103.905	20.160	1.072	0.511
889.500	531.048	80.006	19.995	103.894	20.161	0.972	0.550
891.000	531.809	80.006	19.995	103.898	20.164	0.751	0.515
892.500	532.567	80.005	19.996	103.893	20.160	1.013	0.532
894.000	533.322	80.005	19.996	103.879	20.163	0.814	0.509
895.500	534.141	80.006	19.997	103.882	20.161	0.981	0.537
897.000	534.915	80.007	19.996	103.890	20.163	0.835	0.501
898.500	535.684	80.005	19.997	103.889	20.161	0.931	0.506
900.000	536.426	80.007	19.996	103.875	20.165	0.621	0.488
901.500	537.209	80.007	19.995	103.872	20.161	0.974	0.522
903.000	537.955	80.008	19.995	103.873	20.166	0.586	0.494
904.500	538.732	80.008	19.996	103.881	20.163	0.794	0.504
906.000	539.511	80.007	19.994	103.883	20.164	0.731	0.536
907.501	540.253	80.008	19.995	103.876	20.162	0.896	0.501
909.000	541.024	80.007	19.994	103.876	20.163	0.825	0.498
910.500	541.792	80.007	19.993	103.878	20.162	0.912	0.498
912.000	542.519	80.007	19.994	103.890	20.165	0.656	0.499
913.500	543.315	80.007	19.994	103.888	20.164	0.697	0.512
915.000	544.052	80.006	19.994	103.889	20.165	0.662	0.491
916.501	544.790	80.008	19.994	103.884	20.164	0.712	0.484
918.000	545.564	80.006	19.994	103.881	20.164	0.740	0.493
919.500	546.334	80.007	19.994	103.883	20.163	0.786	0.516
921.000	547.119	80.007	19.994	103.897	20.164	0.703	0.545
922.500	547.859	80.007	19.995	103.897	20.162	0.907	0.509
924.000	548.629	80.008	19.994	103.898	20.167	0.499	0.500
925.500	549.395	80.009	19.995	103.890	20.164	0.692	0.541
927.000	550.191	80.008	19.994	103.889	20.164	0.682	0.529
928.500	550.928	80.008	19.994	103.890	20.164	0.692	0.502
930.000	551.682	80.010	19.996	103.894	20.162	0.899	0.508
931.500	552.480	80.008	19.996	103.904	20.165	0.658	0.530
933.000	553.251	80.008	19.994	103.891	20.161	0.970	0.510
934.500	554.014	80.009	19.996	103.892	20.162	0.840	0.517
936.000	554.781	80.009	19.995	103.902	20.162	0.881	0.527
937.500	555.581	80.006	19.995	103.904	20.166	0.567	0.528
939.000	556.330	80.006	19.994	103.906	20.164	0.745	0.500
940.500	557.123	80.008	19.993	103.906	20.165	0.673	0.538
942.000	557.908	80.008	19.994	103.904	20.165	0.647	0.510
943.500	558.705	80.006	19.994	103.897	20.165	0.616	0.516
945.000	559.483	80.007	19.995	103.895	20.164	0.682	0.497
946.500	560.228	80.007	19.994	103.899	20.166	0.599	0.504
948.000	561.014	80.007	19.995	103.909	20.169	0.304	0.519
949.500	561.784	80.006	19.994	103.909	20.166	0.553	0.495
951.000	562.582	80.008	19.994	103.906	20.167	0.469	0.534
952.500	563.340	80.008	19.994	103.899	20.166	0.540	0.520
954.000	564.125	80.007	19.994	103.886	20.165	0.638	0.510
955.500	564.904	80.007	19.994	103.894	20.168	0.410	0.539
957.000	565.707	80.008	19.994	103.906	20.167	0.510	0.531
958.500	566.487	80.007	19.995	103.902	20.168	0.399	0.512
960.000	567.252	80.008	19.996	103.898	20.165	0.673	0.502
961.500	568.022	80.007	19.994	103.903	20.166	0.536	0.514
963.000	568.786	80.006	19.995	103.899	20.168	0.417	0.509
964.500	569.572	80.006	19.996	103.894	20.167	0.488	0.524
966.000	570.365	80.007	19.995	103.897	20.166	0.577	0.522
967.500	571.102	80.006	19.995	103.892	20.162	0.866	0.508
969.000	571.874	80.005	19.995	103.899	20.164	0.740	0.521
970.500	572.681	80.005	19.996	103.900	20.165	0.655	0.524
972.000	573.441	80.006	19.995	103.891	20.164	0.690	0.515
973.500	574.257	80.006	19.994	103.897	20.166	0.523	0.552
975.000	575.057	80.006	19.995	103.895	20.165	0.623	0.516
976.500	575.850	80.007	19.994	103.891	20.169	0.349	0.526
978.000	576.625	80.006	19.994	103.891	20.165	0.610	0.541
979.500	577.389	80.006	19.995	103.899	20.167	0.464	0.508
981.000	578.146	80.006	19.993	103.898	20.165	0.649	0.496
982.500	578.886	80.006	19.994	103.894	20.166	0.530	0.502
984.000	579.680	80.007	19.994	103.909	20.169	0.323	0.536
985.500	580.434	80.007	19.995	103.909	20.166	0.556	0.517
987.000	581.215	80.007	19.995	103.890	20.168	0.421	0.518
988.500	581.972	80.007	19.995	103.886	20.168	0.410	0.499
990.000	582.768	80.006	19.994	103.883	20.168	0.438	0.515
991.500	583.509	80.006	19.994	103.888	20.166	0.564	0.503
993.000	584.300	80.006	19.995	103.888	20.165	0.679	0.531
994.500	585.080	80.007	19.996	103.888	20.165	0.614	0.523
996.000	585.820	80.006	19.996	103.898	20.167	0.488	0.514
997.500	586.570	80.006	19.995	103.890	20.168	0.399	0.501
999.000	587.323	80.007	19.995	103.889	20.166	0.527	0.493
1000.500	588.089	80.007	19.995	103.883	20.164	0.684	0.483
1002.000	588.848	80.007	19.995	103.896	20.166	0.525	0.504
1003.500	589.635	80.007	19.995	103.898	20.167	0.499	0.530
1005.000	590.411	80.007	19.995	103.899	20.168	0.430	0.519
1006.500	591.134	80.007	19.993	103.895	20.166	0.582	0.461
1008.000	591.922	80.008	19.994	103.885	20.166	0.595	0.515
1009.500	592.632	80.009	19.994	103.883	20.165	0.608	0.480
1011.000	593.459	80.008	19.993	103.870	20.165	0.647	0.547
1012.500	594.179	80.008	19.993	103.877	20.166	0.549	0.497
1014.000	594.958	80.008	19.994	103.884	20.166	0.575	0.539
1015.500	595.772	80.008	19.994	103.882	20.169	0.360	0.535
1017.000	596.509	80.008	19.994	103.884	20.167	0.516	0.489
1018.500	597.247	80.006	19.993	103.876	20.166	0.525	0.496
1020.000	598.019	80.006	19.995	103.872	20.167	0.458	0.520
1021.500	598.763	80.006	19.994	103.886	20.168	0.397	0.505
1023.000	599.507	80.005	19.994	103.887	20.165	0.660	0.504
1024.501	600.277	80.006	19.994	103.871	20.165	0.627	0.517
1026.000	601.036	80.005	19.995	103.875	20.167	0.482	0.469
1027.500	601.775	80.005	19.994	103.875	20.165	0.673	0.484
1029.001	602.522	80.006	19.994	103.873	20.166	0.575	0.489
1030.500	603.284	80.005	19.994	103.878	20.165	0.629	0.483
1032.000	604.024	80.006	19.994	103.882	20.165	0.655	0.512
1033.500	604.803	80.006	19.994	103.881	20.163	0.781	0.508
1035.000	605.558	80.006	19.993	103.875	20.166	0.588	0.514
1036.501	606.301	80.006	19.994	103.880	20.163	0.809	0.485
1038.001	607.045	80.006	19.994	103.879	20.164	0.744	0.502
1039.500	607.811	80.006	19.994	103.877	20.164	0.688	0.490
1041.001	608.564	80.006	19.993	103.879	20.166	0.551	0.503
1042.501	609.331	80.007	19.994	103.882	20.164	0.749	0.510
1044.000	610.087	80.006	19.993	103.883	20.168	0.430	0.509
1045.500	610.818	80.005	19.994	103.881	20.166	0.569	0.489
1047.000	611.571	80.005	19.994	103.877	20.164	0.701	0.496
1048.501	612.357	80.006	19.994	103.881	20.167	0.480	0.524
1050.000	613.114	80.005	19.995	103.880	20.167	0.514	0.519
1051.500	613.830	80.005	19.995	103.878	20.164	0.753	0.483
1053.000	614.599	80.005	19.994	103.880	20.164	0.729	0.520
1054.500	615.354	80.004	19.995	103.884	20.167	0.480	0.517
1056.001	616.112	80.004	19.994	103.881	20.169	0.319	0.519
1057.500	616.879	80.005	19.995	103.882	20.169	0.358	0.504
1059.000	617.582	80.006	19.995	103.885	20.166	0.577	0.483
1060.500	618.339	80.005	19.995	103.879	20.168	0.432	0.508
1062.000	619.108	80.007	19.995	103.880	20.166	0.569	0.536
1063.500	619.826	80.008	19.995	103.874	20.168	0.427	0.483
1065.000	620.574	80.007	19.994	103.871	20.166	0.547	0.489
1066.500	621.302	80.009	19.995	103.872	20.166	0.523	0.471
1068.000	622.032	80.008	19.994	103.878	20.168	0.386	0.495
1069.500	622.725	80.007	19.994	103.872	20.168	0.384	0.480
1071.000	623.491	80.008	19.994	103.875	20.166	0.586	0.488
1072.500	624.216	80.007	19.994	103.882	20.165	0.629	0.470
1074.001	624.919	80.007	19.994	103.875	20.164	0.708	0.473
1075.500	625.665	80.007	19.995	103.876	20.167	0.447	0.496
1077.000	626.360	80.007	19.996	103.882	20.165	0.660	0.471
1078.500	627.102	80.006	19.996	103.875	20.165	0.645	0.478
1080.000	627.849	80.008	19.996	103.876	20.165	0.671	0.491
1081.501	628.629	80.006	19.995	103.897	20.162	0.877	0.500
1083.000	629.388	80.006	19.995	103.903	20.163	0.799	0.530
1084.500	630.130	80.007	19.996	103.904	20.162	0.901	0.520
1086.000	630.913	80.007	19.996	103.903	20.163	0.784	0.514
1087.500	631.671	80.007	19.996	103.904	20.161	0.940	0.511
1089.000	632.474	80.008	19.996	103.895	20.161	0.933	0.512
1090.500	633.282	80.007	19.995	103.895	20.162	0.875	0.546
1092.000	634.121	80.009	19.996	103.901	20.163	0.797	0.542
1093.500	634.959	80.008	19.994	103.896	20.161	0.959	0.571
1095.000	635.802	80.008	19.994	103.895	20.161	0.933	0.556
1096.500	636.591	80.010	19.995	103.904	20.161	0.970	0.514
1098.000	637.455	80.008	19.993	103.909	20.163	0.799	0.558
1099.501	638.263	80.008	19.993	103.907	20.164	0.725	0.554
1101.000	639.110	80.006	19.994	103.898	20.160	1.033	0.574
1102.501	639.959	80.007	19.995	103.899	20.161	0.988	0.553
1104.000	640.778	80.006	19.994	103.904	20.159	1.081	0.551
1105.500	641.660	80.006	19.994	103.900	20.164	0.749	0.598
1107.000	642.501	80.005	19.995	103.905	20.162	0.860	0.577
1108.500	643.302	80.005	19.994	103.908	20.164	0.740	0.524
1110.000	644.177	80.006	19.994	103.909	20.163	0.766	0.616
1111.500	645.026	80.005	19.994	103.899	20.160	1.018	0.562
1113.001	645.884	80.006	19.995	103.898	20.166	0.571	0.573
1114.500	646.741	80.006	19.995	103.909	20.165	0.669	0.584
1116.000	647.564	80.006	19.996	103.912	20.164	0.708	0.547
1117.500	648.421	80.006	19.995	103.902	20.163	0.786	0.567
1119.000	649.350	80.006	19.995	103.897	20.163	0.827	0.577
1120.500	650.156	80.006	19.994	103.904	20.164	0.703	0.524
1122.000	650.994	80.006	19.994	103.897	20.162	0.892	0.578
1123.500	651.860	80.007	19.995	103.882	20.162	0.905	0.568
1125.000	652.690	80.006	19.996	103.895	20.164	0.710	0.548
1126.500	653.544	80.007	19.994	103.898	20.162	0.840	0.576
1128.000	654.429	80.008	19.993	103.903	20.162	0.903	0.581
1129.500	655.273	80.007	19.995	103.901	20.164	0.701	0.566
1131.000	656.078	80.008	19.994	103.901	20.163	0.827	0.521
1132.500	656.977	80.007	19.994	103.899	20.164	0.755	0.584
1134.000	657.784	80.008	19.994	103.889	20.163	0.771	0.557
1135.500	658.623	80.007	19.994	103.896	20.164	0.695	0.566
1137.000	659.451	80.007	19.996	103.898	20.161	0.920	0.554
1138.500	660.333	80.007	19.993	103.896	20.164	0.721	0.576
1140.000	661.123	80.006	19.995	103.898	20.163	0.794	0.539
1141.501	661.971	80.007	19.994	103.897	20.161	0.927	0.572
1143.000	662.803	80.007	19.995	103.910	20.164	0.738	0.553
1144.501	663.629	80.007	19.994	103.905	20.161	0.964	0.551
1146.000	664.450	80.008	19.995	103.894	20.160	1.046	0.573
1147.500	665.284	80.008	19.994	103.896	20.164	0.749	0.553
1149.000	666.119	80.008	19.994	103.905	20.160	1.037	0.565
1150.501	666.966	80.009	19.995	103.895	20.161	0.959	0.557
1152.001	667.760	80.009	19.995	103.894	20.164	0.703	0.506
1153.500	668.563	80.008	19.996	103.877	20.165	0.612	0.520
1155.000	669.415	80.008	19.995	103.884	20.160	1.053	0.564
1156.501	670.229	80.008	19.995	103.891	20.164	0.682	0.563
1158.000	670.990	80.007	19.995	103.889	20.161	0.944	0.531
1159.500	671.809	80.008	19.995	103.882	20.162	0.851	0.539
1161.000	672.632	80.006	19.995	103.893	20.162	0.855	0.532
1162.500	673.421	80.007	19.994	103.903	20.167	0.464	0.522
1164.001	674.216	80.007	19.995	103.903	20.166	0.588	0.539
1165.500	674.998	80.007	19.995	103.907	20.164	0.744	0.494
1167.000	675.829	80.007	19.994	103.894	20.166	0.569	0.521
1168.500	676.642	80.008	19.995	103.889	20.162	0.903	0.548
1170.000	677.375	80.008	19.994	103.884	20.161	0.924	0.489
1171.500	678.173	80.008	19.995	103.877	20.162	0.849	0.541
1173.000	678.944	80.009	19.995	103.877	20.160	1.011	0.531
1174.501	679.711	80.008	19.995	103.886	20.162	0.846	0.520
1176.001	680.494	80.008	19.996	103.890	20.166	0.558	0.511
1177.500	681.261	80.008	19.995	103.891	20.163	0.812	0.482
1179.001	682.055	80.008	19.995	103.883	20.162	0.914	0.507
1180.501	682.766	80.007	19.995	103.877	20.161	0.964	0.475
1182.000	683.545	80.007	19.996	103.882	20.162	0.866	0.485
1183.500	684.291	80.005	19.996	103.886	20.164	0.747	0.488
1185.000	685.027	80.004	19.996	103.887	20.165	0.660	0.495
1186.500	685.756	80.006	19.996	103.906	20.166	0.549	0.487
1188.000	686.544	80.005	19.995	103.890	20.161	0.957	0.500
1189.500	687.279	80.005	19.995	103.882	20.165	0.608	0.499
1191.000	688.043	80.006	19.996	103.893	20.165	0.675	0.506
1192.500	688.787	80.006	19.995	103.896	20.163	0.779	0.499
1194.000	689.524	80.006	19.995	103.885	20.163	0.766	0.484
1195.500	690.295	80.006	19.995	103.898	20.162	0.903	0.531
1197.000	691.083	80.005	19.994	103.898	20.164	0.690	0.519
1198.501	691.817	80.006	19.995	103.878	20.165	0.601	0.471
1200.001	692.594	80.006	19.995	103.887	20.168	0.378	0.527
1201.500	693.314	80.006	19.996	103.899	20.166	0.523	0.480
1203.000	694.087	80.006	19.994	103.884	20.167	0.516	0.524
1204.500	694.848	80.006	19.995	103.886	20.164	0.723	0.513
1206.000	695.609	80.006	19.995	103.884	20.161	0.940	0.500
1207.500	696.363	80.007	19.995	103.878	20.163	0.775	0.500
1209.000	697.106	80.007	19.994	103.884	20.161	0.951	0.488
1210.501	697.897	80.005	19.997	103.880	20.164	0.749	0.525
1212.000	698.616	80.005	19.996	103.875	20.164	0.703	0.474
1213.500	699.389	80.007	19.995	103.873	20.165	0.671	0.505
1215.000	700.135	80.005	19.996	103.884	20.165	0.601	0.510
1216.500	700.890	80.005	19.995	103.880	20.163	0.792	0.502
1218.000	701.624	80.005	19.995	103.875	20.160	1.061	0.470
1219.500	702.340	80.005	19.994	103.886	20.162	0.879	0.478
1221.000	703.104	80.005	19.995	103.879	20.162	0.872	0.529
1222.500	703.893	80.007	19.994	103.886	20.164	0.753	0.510
1224.000	704.604	80.005	19.994	103.883	20.164	0.690	0.491
1225.500	705.397	80.006	19.994	103.878	20.163	0.831	0.530
1227.000	706.098	80.006	19.994	103.881	20.165	0.662	0.477
1228.500	706.846	80.006	19.994	103.882	20.166	0.579	0.513
1230.000	707.635	80.007	19.994	103.889	20.162	0.877	0.516
1231.500	708.344	80.006	19.994	103.887	20.161	0.942	0.473
1233.000	709.158	80.008	19.994	103.872	20.158	1.174	0.520
1234.501	709.862	80.007	19.995	103.877	20.161	0.977	0.473
1236.001	710.613	80.007	19.996	103.893	20.160	1.003	0.490
1237.500	711.389	80.007	19.994	103.900	20.161	0.946	0.518
1239.001	712.146	80.007	19.995	103.884	20.165	0.610	0.502
1240.500	712.929	80.006	19.996	103.890	20.161	0.957	0.531
1242.001	713.681	80.006	19.995	103.887	20.159	1.109	0.495
1243.500	714.434	80.005	19.995	103.878	20.163	0.790	0.503
1245.000	715.232	80.006	19.995	103.879	20.161	0.920	0.529
1246.501	715.958	80.005	19.994	103.880	20.163	0.794	0.492
1248.000	716.710	80.005	19.994	103.880	20.163	0.792	0.498
1249.500	717.506	80.007	19.995	103.882	20.164	0.729	0.534
1251.000	718.233	80.006	19.995	103.889	20.162	0.862	0.494
1252.501	718.971	80.007	19.994	103.879	20.159	1.124	0.494
1254.000	719.765	80.008	19.994	103.880	20.158	1.154	0.542
1255.500	720.488	80.008	19.995	103.875	20.162	0.851	0.478
1257.000	721.250	80.008	19.996	103.879	20.160	1.013	0.506
1258.500	721.998	80.009	19.994	103.877	20.160	1.007	0.501
1260.000	722.736	80.008	19.995	103.888	20.164	0.727	0.494
1261.500	723.460	80.008	19.994	103.882	20.162	0.909	0.488
1263.000	724.199	80.008	19.995	103.873	20.163	0.827	0.487
1264.500	724.921	80.008	19.995	103.875	20.161	0.948	0.508
1266.000	725.632	80.006	19.996	103.888	20.162	0.907	0.483
1267.501	726.407	80.006	19.995	103.885	20.159	1.135	0.530
1269.000	727.140	80.006	19.995	103.872	20.162	0.916	0.493
1270.500	727.893	80.006	19.995	103.874	20.161	0.977	0.502
1272.000	728.587	80.006	19.996	103.879	20.164	0.738	0.473
1273.500	729.285	80.005	19.995	103.872	20.164	0.738	0.475
1275.000	729.996	80.005	19.996	103.868	20.162	0.857	0.458
1276.500	730.694	80.005	19.995	103.869	20.159	1.144	0.479
1278.001	731.384	80.006	19.996	103.870	20.159	1.098	0.447
1279.500	732.115	80.006	19.995	103.867	20.159	1.085	0.502
1281.001	732.806	80.006	19.996	103.872	20.163	0.835	0.453
1282.500	733.492	80.006	19.996	103.872	20.161	0.951	0.442
1284.000	734.189	80.006	19.996	103.873	20.157	1.265	0.449
1285.500	734.872	80.006	19.995	103.872	20.159	1.135	0.473
1287.000	735.607	80.006	19.994	103.879	20.160	1.005	0.486
1288.500	736.282	80.008	19.995	103.886	20.160	1.029	0.456
1290.000	736.984	80.007	19.994	103.882	20.161	0.985	0.465
1291.500	737.698	80.007	19.994	103.874	20.159	1.102	0.477
1293.000	738.382	80.006	19.994	103.875	20.159	1.079	0.466
1294.500	739.075	80.006	19.995	103.892	20.160	1.068	0.478
1296.000	739.786	80.005	19.995	103.886	20.159	1.152	0.472
1297.500	740.520	80.005	19.995	103.874	20.158	1.176	0.491
1299.000	741.243	80.005	19.994	103.877	20.156	1.352	0.471
1300.501	741.953	80.006	19.993	103.877	20.159	1.133	0.458
1302.000	742.669	80.004	19.993	103.874	20.159	1.076	0.478
1303.500	743.422	80.005	19.995	103.874	20.159	1.096	0.513
1304.000	743.660	80.007	19.995	103.874	20.161	0.944	0.482