File: 01_Data/Eucalyptus_Flooring/STA/N2/3K_min/EUC_STA_N2_3KData_211312_R1.csv
##Temp./Â°C,Time/min,Mass loss(subtr.2)/mg,DSC(subtr.2)/(mW/mg),Sensit./(uV/mW)
49.875,10.01,-0.04673,0.02337477,1.06382
50.575,11.15972,-0.04827018,0.04444382,1.06365
51.275,11.5512,-0.04958555,0.05801572,1.06348
51.975,11.87167,-0.05096472,0.065477,1.06331
52.675,12.16667,-0.0522199,0.06926182,1.06314
53.375,12.44794,-0.0522096,0.07312861,1.06297
54.075,12.7195,-0.05354406,0.07499541,1.0628
54.775,12.9865,-0.05768584,0.07487155,1.06263
55.475,13.24973,-0.05495,0.07608691,1.06246
56.175,13.50901,-0.05627002,0.07784836,1.06229
56.875,13.76455,-0.05764404,0.08077839,1.06212
57.575,14.0175,-0.05956023,0.08157968,1.06195
58.275,14.268,-0.05987701,0.08237137,1.06178
58.975,14.516,-0.05857607,0.08250839,1.06161
59.675,14.7622,-0.06120999,0.08184501,1.06144
60.375,15.00726,-0.06119038,0.08377248,1.06127
61.075,15.2515,-0.06251986,0.08688098,1.0611
61.775,15.4944,-0.06131025,0.08712202,1.06093
62.475,15.73601,-0.06263007,0.08901521,1.06075
63.175,15.97722,-0.06374292,0.08802757,1.06058
63.875,16.21738,-0.06527265,0.09112615,1.06041
64.575,16.4558,-0.06560281,0.09190116,1.06024
65.275,16.69414,-0.06650623,0.09367899,1.06006
65.975,16.93187,-0.06702067,0.09336086,1.05989
66.675,17.169,-0.06834,0.09139072,1.05972
67.375,17.40571,-0.06818001,0.09222303,1.05954
68.075,17.6411,-0.06810113,0.09288146,1.05937
68.775,17.87722,-0.06824172,0.09367905,1.0592
69.475,18.11366,-0.06976,0.09453564,1.05902
70.175,18.35194,-0.06976296,0.09257775,1.05885
70.875,18.58821,-0.07111377,0.09467345,1.05867
71.575,18.8244,-0.07075223,0.09317489,1.0585
72.275,19.0603,-0.07205999,0.09075735,1.05832
72.975,19.29412,-0.07335188,0.09141207,1.05815
73.675,19.52709,-0.07305989,0.09097456,1.05797
74.375,19.76024,-0.07339,0.09169298,1.0578
75.075,19.998,-0.07469997,0.0905002,1.05762
75.775,20.23562,-0.07536004,0.08953063,1.05744
76.475,20.47298,-0.0773425,0.09251052,1.05727
77.175,20.7073,-0.07665939,0.08978062,1.05709
77.875,20.94,-0.07798996,0.09089774,1.05691
78.575,21.1741,-0.07834246,0.08966823,1.05674
79.275,21.4087,-0.07822592,0.08844693,1.05656
79.975,21.64519,-0.07801343,0.08805699,1.05638
80.675,21.88089,-0.07964001,0.08679717,1.0562
81.375,22.1158,-0.07963227,0.08714532,1.05602
82.075,22.3502,-0.0806418,0.0851195,1.05584
82.775,22.58387,-0.08062143,0.08470294,1.05567
83.475,22.8182,-0.08194,0.08258105,1.05549
84.175,23.0523,-0.08062,0.0823161,1.05531
84.875,23.286,-0.08099306,0.08324793,1.05513
85.575,23.52007,-0.08227,0.08410313,1.05495
86.275,23.75432,-0.08227,0.08497369,1.05477
86.975,23.98807,-0.08226999,0.08563827,1.05459
87.675,24.22096,-0.08359006,0.08383772,1.05441
88.375,24.45445,-0.08358,0.08372273,1.05422
89.075,24.68816,-0.08358675,0.08100869,1.05404
89.775,24.9212,-0.08489208,0.08373608,1.05386
90.475,25.15377,-0.0839006,0.0835656,1.05368
91.175,25.3868,-0.08523,0.08395445,1.0535
91.875,25.61996,-0.08458,0.08280749,1.05331
92.575,25.8531,-0.0852301,0.08140149,1.05313
93.275,26.0868,-0.08522953,0.08109005,1.05295
93.975,26.32068,-0.08555999,0.08007047,1.05276
94.675,26.55449,-0.08653478,0.0799984,1.05258
95.375,26.7877,-0.08522821,0.08279868,1.0524
96.075,27.0211,-0.08545001,0.08398279,1.05221
96.775,27.25443,-0.08675846,0.08174545,1.05203
97.475,27.48726,-0.08675902,0.08051242,1.05184
98.175,27.7207,-0.08575818,0.08051449,1.05166
98.875,27.9534,-0.08709,0.08104514,1.05147
99.575,28.18628,-0.08723418,0.08130864,1.05129
100.275,28.41837,-0.0871,0.07904769,1.0511
100.975,28.65141,-0.08709904,0.07982644,1.05091
101.675,28.884,-0.08643202,0.08057626,1.05073
102.375,29.1159,-0.08678305,0.07935381,1.05054
103.075,29.34739,-0.08775331,0.08042174,1.05035
103.775,29.57896,-0.08644,0.07921241,1.05017
104.475,29.8113,-0.08642316,0.08374111,1.04998
105.175,30.0435,-0.08792167,0.08126353,1.04979
105.875,30.2752,-0.08751423,0.0806913,1.0496
106.575,30.506,-0.08700747,0.08125394,1.04941
107.275,30.7365,-0.08874686,0.08055085,1.04922
107.975,30.9679,-0.08741959,0.08381493,1.04903
108.675,31.1996,-0.08874,0.0838439,1.04884
109.375,31.43188,-0.08807608,0.0853055,1.04865
110.075,31.6646,-0.08939831,0.08421544,1.04846
110.775,31.89725,-0.0894,0.08565239,1.04827
111.475,32.12923,-0.08972485,0.08492731,1.04808
112.175,32.3606,-0.08972,0.08632003,1.04789
112.875,32.59256,-0.08873925,0.08567544,1.0477
113.575,32.82458,-0.09104,0.08895504,1.04751
114.275,33.05696,-0.08973063,0.08806873,1.04731
114.975,33.2879,-0.09006,0.08841684,1.04712
115.675,33.5195,-0.09006,0.0870239,1.04693
116.375,33.75075,-0.09101227,0.08798208,1.04674
117.075,33.982,-0.09268106,0.09000524,1.04654
117.775,34.21332,-0.09036904,0.08869952,1.04635
118.475,34.44482,-0.09137177,0.08632236,1.04615
119.175,34.67787,-0.09136999,0.08823541,1.04596
119.875,34.91048,-0.09235985,0.08674819,1.04576
120.575,35.14288,-0.09165855,0.08774248,1.04557
121.275,35.37487,-0.09201224,0.08941409,1.04537
121.975,35.60653,-0.0910496,0.08844059,1.04518
122.675,35.83824,-0.09236,0.08906308,1.04498
123.375,36.06919,-0.09334,0.08957822,1.04478
124.075,36.29951,-0.09333995,0.08862968,1.04459
124.775,36.52946,-0.09465848,0.08945519,1.04439
125.475,36.75932,-0.09366977,0.0895643,1.04419
126.175,36.98966,-0.09400958,0.09116672,1.04399
126.875,37.2201,-0.09335,0.0902171,1.04379
127.575,37.45078,-0.09467,0.09033261,1.04359
128.275,37.68084,-0.09467,0.09215552,1.0434
128.975,37.9114,-0.09498998,0.08989912,1.0432
129.675,38.14157,-0.09499,0.09020226,1.043
130.375,38.3705,-0.09499005,0.08997802,1.04279
131.075,38.60191,-0.09565,0.09129651,1.04259
131.775,38.8343,-0.09565,0.0921372,1.04239
132.475,39.0687,-0.09631,0.08953961,1.04219
133.175,39.30079,-0.09796277,0.08927642,1.04199
133.875,39.53253,-0.09664,0.09206645,1.04179
134.575,39.76424,-0.09664,0.09411013,1.04158
135.275,39.99474,-0.09596693,0.09415728,1.04138
135.975,40.2245,-0.09833121,0.0941872,1.04118
136.675,40.45412,-0.09632617,0.09718969,1.04097
137.375,40.68497,-0.09894017,0.09665413,1.04077
138.075,40.91675,-0.09709096,0.09609361,1.04057
138.775,41.14782,-0.09829138,0.09601044,1.04036
139.475,41.37712,-0.09842492,0.09787938,1.04016
140.175,41.60617,-0.09992997,0.09635203,1.03995
140.875,41.83491,-0.10191,0.09820836,1.03974
141.575,42.06457,-0.10059,0.09786267,1.03954
142.275,42.2937,-0.10092,0.10018,1.03933
142.975,42.52317,-0.10192,0.10013,1.03912
143.675,42.7527,-0.10223,0.10106,1.03892
144.375,42.98238,-0.10289,0.10198,1.03871
145.075,43.21212,-0.10289,0.10264,1.0385
145.775,43.44166,-0.10289,0.10011,1.03829
146.475,43.67132,-0.10322,0.10114,1.03808
147.175,43.90129,-0.10454,0.10193,1.03787
147.875,44.13203,-0.10555,0.10021,1.03766
148.575,44.3626,-0.10552,0.10159,1.03745
149.275,44.59305,-0.1055,0.10336,1.03724
149.975,44.82253,-0.10618,0.10244,1.03703
150.675,45.05154,-0.10586,0.10298,1.03682
151.375,45.28098,-0.10684,0.10466,1.0366
152.075,45.51024,-0.10684,0.10055,1.03639
152.775,45.7391,-0.10749,0.10367,1.03618
153.475,45.96764,-0.10684,0.10607,1.03597
154.175,46.19673,-0.10844,0.1063,1.03575
154.875,46.42677,-0.10849,0.10535,1.03554
155.575,46.6567,-0.1098,0.10679,1.03532
156.275,46.88649,-0.1085,0.10676,1.03511
156.975,47.11524,-0.1098,0.10984,1.03489
157.675,47.3433,-0.1098,0.11038,1.03468
158.375,47.57175,-0.11178,0.10986,1.03446
159.075,47.80129,-0.11243,0.1088,1.03424
159.775,48.03083,-0.11375,0.10906,1.03403
160.475,48.25995,-0.11375,0.10496,1.03381
161.175,48.48867,-0.11506,0.10951,1.03359
161.875,48.71833,-0.11439,0.1065,1.03337
162.575,48.94851,-0.11474,0.10941,1.03315
163.275,49.17881,-0.11561,0.11096,1.03293
163.975,49.40858,-0.11605,0.10988,1.03271
164.675,49.63653,-0.11671,0.10995,1.03249
165.375,49.86517,-0.11738,0.10985,1.03227
166.075,50.09299,-0.11803,0.11139,1.03205
166.775,50.32135,-0.11803,0.11226,1.03183
167.475,50.54959,-0.11803,0.10992,1.03161
168.175,50.77874,-0.12066,0.11224,1.03138
168.875,51.00837,-0.11968,0.11209,1.03116
169.575,51.23808,-0.12167,0.11215,1.03094
170.275,51.4676,-0.12298,0.11326,1.03071
170.975,51.69778,-0.12197,0.11108,1.03049
171.675,51.92735,-0.12395,0.11292,1.03027
172.375,52.1572,-0.12525,0.11358,1.03004
173.075,52.3861,-0.1279,0.11134,1.02981
173.775,52.615,-0.12651,0.11154,1.02959
174.475,52.84315,-0.12764,0.11267,1.02936
175.175,53.071,-0.12855,0.11383,1.02913
175.875,53.29855,-0.13028,0.11574,1.02891
176.575,53.52604,-0.12955,0.11366,1.02868
177.275,53.75295,-0.13293,0.11573,1.02845
177.975,53.98045,-0.13217,0.11682,1.02822
178.675,54.2088,-0.13481,0.11507,1.02799
179.375,54.43796,-0.13481,0.11657,1.02776
180.075,54.66709,-0.13612,0.11795,1.02753
180.775,54.8958,-0.13694,0.11669,1.0273
181.475,55.1245,-0.13876,0.11849,1.02707
182.175,55.35346,-0.13876,0.11713,1.02684
182.875,55.5819,-0.14008,0.11462,1.0266
183.575,55.8095,-0.14172,0.11641,1.02637
184.275,56.0359,-0.14205,0.11386,1.02614
184.975,56.2638,-0.14402,0.1167,1.0259
185.675,56.49151,-0.14599,0.11512,1.02567
186.375,56.71856,-0.14663,0.11729,1.02543
187.075,56.9461,-0.14962,0.11825,1.0252
187.775,57.17419,-0.14962,0.1198,1.02496
188.475,57.40336,-0.15093,0.11807,1.02473
189.175,57.63105,-0.15153,0.11986,1.02449
189.875,57.8589,-0.15347,0.11753,1.02425
190.575,58.08789,-0.15519,0.11606,1.02402
191.275,58.31624,-0.15447,0.1164,1.02378
191.975,58.54526,-0.15817,0.11705,1.02354
192.675,58.77397,-0.15817,0.11697,1.0233
193.375,59.003,-0.16082,0.11596,1.02306
194.075,59.23131,-0.1608,0.11427,1.02282
194.775,59.45919,-0.16212,0.11614,1.02258
195.475,59.6866,-0.16342,0.11618,1.02234
196.175,59.91365,-0.16612,0.11633,1.02209
196.875,60.1407,-0.16704,0.11716,1.02185
197.575,60.3679,-0.16831,0.11712,1.02161
198.275,60.5957,-0.16959,0.11861,1.02137
198.975,60.823,-0.17199,0.11563,1.02112
199.675,61.05079,-0.17331,0.11506,1.02088
200.375,61.27835,-0.1749,0.11835,1.02063
201.075,61.50682,-0.17745,0.11662,1.02039
201.775,61.7342,-0.18021,0.11569,1.02014
202.475,61.96114,-0.18097,0.11605,1.01989
203.175,62.1884,-0.18186,0.11593,1.01965
203.875,62.4161,-0.18449,0.1183,1.0194
204.575,62.6441,-0.18447,0.1163,1.01915
205.275,62.87086,-0.1875,0.11597,1.0189
205.975,63.09815,-0.18977,0.11953,1.01865
206.675,63.32626,-0.19107,0.11748,1.0184
207.375,63.5546,-0.19362,0.11717,1.01815
208.075,63.78269,-0.19502,0.1167,1.0179
208.775,64.01074,-0.19765,0.11621,1.01765
209.475,64.23995,-0.20029,0.11757,1.0174
210.175,64.4688,-0.20291,0.11519,1.01714
210.875,64.69782,-0.20424,0.11528,1.01689
211.575,64.926,-0.20687,0.11553,1.01664
212.275,65.15415,-0.20957,0.11499,1.01638
212.975,65.38208,-0.21115,0.11289,1.01613
213.675,65.61022,-0.21378,0.11349,1.01587
214.375,65.83843,-0.21503,0.11349,1.01562
215.075,66.06596,-0.21904,0.11281,1.01536
215.775,66.29247,-0.22168,0.11265,1.0151
216.475,66.51862,-0.2236,0.11397,1.01485
217.175,66.74521,-0.22695,0.11415,1.01459
217.875,66.97242,-0.22958,0.11433,1.01433
218.575,67.19986,-0.23122,0.11277,1.01407
219.275,67.42745,-0.23401,0.11563,1.01381
219.975,67.65445,-0.23648,0.11397,1.01355
220.675,67.88246,-0.24173,0.11507,1.01329
221.375,68.10979,-0.24208,0.11434,1.01303
222.075,68.33799,-0.24683,0.11289,1.01277
222.775,68.56599,-0.24998,0.11146,1.0125
223.475,68.79477,-0.25195,0.111,1.01224
224.175,69.0231,-0.25458,0.10897,1.01198
224.875,69.25262,-0.25854,0.10798,1.01171
225.575,69.48215,-0.26247,0.10925,1.01145
226.275,69.71221,-0.26511,0.10649,1.01118
226.975,69.94049,-0.26774,0.10843,1.01092
227.675,70.16889,-0.2717,0.10875,1.01065
228.375,70.39608,-0.27367,0.10984,1.01038
229.075,70.62344,-0.27762,0.10567,1.01011
229.775,70.85021,-0.28225,0.10563,1.00984
230.475,71.0766,-0.28521,0.10712,1.00958
231.175,71.30417,-0.28816,0.10571,1.00931
231.875,71.53163,-0.2934,0.10391,1.00904
232.575,71.76058,-0.29736,0.10269,1.00876
233.275,71.989,-0.30156,0.1038,1.00849
233.975,72.21766,-0.30531,0.10296,1.00822
234.675,72.4457,-0.30975,0.10285,1.00795
235.375,72.67314,-0.31184,0.10031,1.00768
236.075,72.90046,-0.31579,0.09855652,1.0074
236.775,73.12774,-0.32074,0.09708451,1.00713
237.475,73.3566,-0.32599,0.09785128,1.00685
238.175,73.58495,-0.32992,0.09580851,1.00658
238.875,73.81281,-0.33521,0.09429956,1.0063
239.575,74.03966,-0.33926,0.09415587,1.00602
240.275,74.26601,-0.3446,0.09709168,1.00575
240.975,74.49297,-0.34869,0.09671232,1.00547
241.675,74.72055,-0.35308,0.09553848,1.00519
242.375,74.9492,-0.35965,0.09372808,1.00491
243.075,75.17826,-0.3636,0.09251702,1.00463
243.775,75.40688,-0.37137,0.09159212,1.00435
244.475,75.6355,-0.37545,0.08934455,1.00407
245.175,75.86406,-0.38075,0.08829498,1.00379
245.875,76.0921,-0.38608,0.09074182,1.0035
246.575,76.3198,-0.39279,0.08957178,1.00322
247.275,76.54709,-0.39809,0.09003621,1.00294
247.975,76.7744,-0.40557,0.09017705,1.00265
248.675,77.00189,-0.41006,0.08804522,1.00237
249.375,77.22954,-0.41559,0.08673121,1.00208
250.075,77.45623,-0.42377,0.08512901,1.0018
250.775,77.68471,-0.42978,0.08422613,1.00151
251.475,77.91381,-0.43648,0.08547437,1.00122
252.175,78.1447,-0.44396,0.08412849,1.00093
252.875,78.3742,-0.45069,0.08615481,1.00064
253.575,78.6029,-0.45616,0.08607149,1.00035
254.275,78.83064,-0.46403,0.0845902,1.00006
254.975,79.05813,-0.47072,0.08474581,0.99977
255.675,79.28569,-0.48008,0.08293337,0.99948
256.375,79.5132,-0.487,0.08362459,0.99919
257.075,79.74132,-0.49492,0.08572172,0.9989
257.775,79.96901,-0.50317,0.08114942,0.9986
258.475,80.1973,-0.51209,0.08250638,0.99831
259.175,80.42546,-0.51995,0.08222717,0.99802
259.875,80.65389,-0.52879,0.08289957,0.99772
260.575,80.88209,-0.53701,0.07952739,0.99743
261.275,81.10978,-0.54677,0.08237624,0.99713
261.975,81.3373,-0.55619,0.08268179,0.99683
262.675,81.56488,-0.56665,0.08272346,0.99653
263.375,81.79227,-0.57503,0.08181102,0.99624
264.075,82.01956,-0.58501,0.08192184,0.99594
264.775,82.24651,-0.59676,0.08142635,0.99564
265.475,82.47346,-0.60719,0.07828668,0.99534
266.175,82.7009,-0.61757,0.08108236,0.99503
266.875,82.92786,-0.6279,0.08004544,0.99473
267.575,83.15374,-0.64038,0.0773113,0.99443
268.275,83.38139,-0.65026,0.07854549,0.99413
268.975,83.61,-0.66218,0.07809716,0.99382
269.675,83.84,-0.67436,0.08001584,0.99352
270.375,84.06834,-0.6857,0.07904177,0.99321
271.075,84.29607,-0.69868,0.07773782,0.99291
271.775,84.5236,-0.71105,0.07973425,0.9926
272.475,84.7513,-0.72462,0.07968478,0.99229
273.175,84.9791,-0.73932,0.08237682,0.99199
273.875,85.20699,-0.75006,0.08428767,0.99168
274.575,85.43467,-0.76491,0.08315736,0.99137
275.275,85.66272,-0.77925,0.0808317,0.99106
275.975,85.8908,-0.79187,0.08508328,0.99075
276.675,86.11865,-0.80782,0.08482081,0.99044
277.375,86.3463,-0.82205,0.08331241,0.99013
278.075,86.57297,-0.83744,0.08499497,0.98981
278.775,86.80067,-0.85042,0.08463404,0.9895
279.475,87.02882,-0.86756,0.08337771,0.98919
280.175,87.25784,-0.88314,0.0852748,0.98887
280.875,87.48609,-0.90007,0.0878305,0.98856
281.575,87.71383,-0.91575,0.08923493,0.98824
282.275,87.94248,-0.93406,0.09019528,0.98792
282.975,88.17092,-0.94938,0.09127235,0.9876
283.675,88.3994,-0.96576,0.09304998,0.98729
284.375,88.62649,-0.98223,0.09329149,0.98697
285.075,88.85459,-1.00154,0.09265368,0.98665
285.775,89.0831,-1.01819,0.09743391,0.98633
286.475,89.3124,-1.0376,0.09426394,0.98601
287.175,89.5408,-1.05571,0.09638133,0.98569
287.875,89.76799,-1.07487,0.09729194,0.98536
288.575,89.99645,-1.09241,0.09967493,0.98504
289.275,90.22466,-1.11221,0.09991656,0.98472
289.975,90.45411,-1.13099,0.09787721,0.98439
290.675,90.68271,-1.15225,0.09985051,0.98407
291.375,90.91213,-1.17243,0.1015,0.98374
292.075,91.1416,-1.19408,0.10181,0.98341
292.775,91.37109,-1.21435,0.10158,0.98309
293.475,91.5997,-1.23471,0.10292,0.98276
294.175,91.82781,-1.25664,0.10213,0.98243
294.875,92.05635,-1.27846,0.1021,0.9821
295.575,92.28413,-1.30035,0.10216,0.98177
296.275,92.51374,-1.32301,0.1051,0.98144
296.975,92.7424,-1.34489,0.10387,0.98111
297.675,92.97298,-1.36849,0.10798,0.98078
298.375,93.20151,-1.39194,0.1078,0.98044
299.075,93.43043,-1.415,0.10774,0.98011
299.775,93.65823,-1.43727,0.10738,0.97977
300.475,93.8862,-1.46285,0.10881,0.97944
301.175,94.11418,-1.48648,0.10792,0.9791
301.875,94.3425,-1.51127,0.10378,0.97877
302.575,94.57111,-1.53455,0.10457,0.97843
303.275,94.7996,-1.55783,0.10358,0.97809
303.975,95.02745,-1.58407,0.1008,0.97775
304.675,95.25516,-1.60776,0.10093,0.97741
305.375,95.48359,-1.63156,0.10379,0.97707
306.075,95.7127,-1.65733,0.09990531,0.97673
306.775,95.94163,-1.68155,0.09918815,0.97639
307.475,96.16976,-1.70558,0.09530346,0.97605
308.175,96.39792,-1.72962,0.094649,0.9757
308.875,96.62646,-1.75503,0.09238078,0.97536
309.575,96.8553,-1.77931,0.0879617,0.97502
310.275,97.0847,-1.80261,0.08878423,0.97467
310.975,97.31419,-1.82603,0.08556804,0.97432
311.675,97.54325,-1.84705,0.08266091,0.97398
312.375,97.77221,-1.86926,0.0803083,0.97363
313.075,98.0005,-1.89246,0.07883032,0.97328
313.775,98.22957,-1.91269,0.07338316,0.97293
314.475,98.45809,-1.93294,0.07357754,0.97258
315.175,98.68675,-1.95437,0.07196866,0.97223
315.875,98.91467,-1.97163,0.06447251,0.97188
316.575,99.14267,-1.99236,0.06450432,0.97153
317.275,99.37071,-2.00983,0.06279657,0.97117
317.975,99.59911,-2.02867,0.05719161,0.97082
318.675,99.82733,-2.04382,0.05554998,0.97047
319.375,100.057,-2.06044,0.05448411,0.97011
320.075,100.2849,-2.07709,0.04864667,0.96975
320.775,100.514,-2.09099,0.05043473,0.9694
321.475,100.742,-2.10556,0.04793139,0.96904
322.175,100.972,-2.1176,0.04438349,0.96868
322.875,101.201,-2.13029,0.0424437,0.96832
323.575,101.43,-2.14151,0.03970099,0.96796
324.275,101.659,-2.15489,0.04135264,0.9676
324.975,101.887,-2.16541,0.04008562,0.96724
325.675,102.115,-2.17521,0.03446002,0.96688
326.375,102.3425,-2.18633,0.03528021,0.96652
327.075,102.57,-2.19635,0.03255632,0.96615
327.775,102.8,-2.20349,0.03100524,0.96579
328.475,103.031,-2.21327,0.0294394,0.96542
329.175,103.263,-2.22159,0.02765401,0.96506
329.875,103.493,-2.22888,0.02674831,0.96469
330.575,103.7231,-2.23682,0.02309649,0.96432
331.275,103.952,-2.24513,0.02263943,0.96396
331.975,104.181,-2.2519,0.02350298,0.96359
332.675,104.411,-2.25831,0.02158605,0.96322
333.375,104.64,-2.26404,0.01884881,0.96285
334.075,104.869,-2.26964,0.02036404,0.96248
334.775,105.097,-2.27667,0.01951857,0.9621
335.475,105.324,-2.28262,0.01839645,0.96173
336.175,105.553,-2.28924,0.01857313,0.96136
336.875,105.781,-2.29458,0.01538608,0.96098
337.575,106.011,-2.29886,0.01611138,0.96061
338.275,106.241,-2.30405,0.01471182,0.96023
338.975,106.471,-2.30932,0.01464602,0.95985
339.675,106.701,-2.31329,0.01250809,0.95948
340.375,106.932,-2.31863,0.01229703,0.9591
341.075,107.164,-2.32382,0.009486345,0.95872
341.775,107.395,-2.32671,0.01077577,0.95834
342.475,107.625,-2.33253,0.007310488,0.95796
343.175,107.855,-2.33642,0.007724443,0.95758
343.875,108.085,-2.34032,0.008987805,0.9572
344.575,108.314,-2.34569,0.009653436,0.95681
345.275,108.542,-2.34909,0.009052219,0.95643
345.975,108.77,-2.35288,0.008867495,0.95604
346.675,108.999,-2.3564,0.008014429,0.95566
347.375,109.228,-2.36076,0.00711568,0.95527
348.075,109.458,-2.36473,0.005409756,0.95489
348.775,109.687,-2.36872,0.005288028,0.9545
349.475,109.916,-2.3713,0.004969808,0.95411
350.175,110.146,-2.37524,0.004175836,0.95372
350.875,110.377,-2.3792,-0.0001447451,0.95333
351.575,110.6076,-2.38296,0.00337188,0.95294
352.275,110.839,-2.38579,0.001754769,0.95255
352.975,111.069,-2.3887,-0.001123193,0.95215
353.675,111.3,-2.39171,-0.001394562,0.95176
354.375,111.532,-2.3969,-0.005404393,0.95137
355.075,111.763,-2.39851,-0.00344931,0.95097
355.775,111.994,-2.40218,-0.003801725,0.95058
356.475,112.224,-2.40487,-0.00339242,0.95018
357.175,112.454,-2.40754,-0.004004628,0.94978
357.875,112.684,-2.41135,-0.002856134,0.94938
358.575,112.913,-2.41498,-0.00427532,0.94899
359.275,113.142,-2.41803,-0.00567772,0.94859
359.975,113.372,-2.42165,-0.006123147,0.94819
360.675,113.602,-2.42298,-0.006589231,0.94778
361.375,113.831,-2.42828,-0.008581917,0.94738
362.075,114.062,-2.42956,-0.006858513,0.94698
362.775,114.293,-2.43284,-0.00809613,0.94658
363.475,114.526,-2.43551,-0.008807403,0.94617
364.175,114.7562,-2.4382,-0.008460322,0.94577
364.875,114.986,-2.44084,-0.008039469,0.94536
365.575,115.217,-2.44465,-0.008778545,0.94495
366.275,115.447,-2.44795,-0.009183233,0.94454
366.975,115.676,-2.44928,-0.007215116,0.94414
367.675,115.905,-2.45192,-0.008519004,0.94373
368.375,116.133,-2.45588,-0.009128581,0.94332
369.075,116.362,-2.45981,-0.01001292,0.9429
369.775,116.59,-2.46246,-0.007986283,0.94249
370.475,116.819,-2.46275,-0.0071301,0.94208
371.175,117.049,-2.46774,-0.00946155,0.94167
371.875,117.279,-2.46904,-0.00775684,0.94125
372.575,117.509,-2.472,-0.008695501,0.94084
373.275,117.741,-2.47534,-0.008856142,0.94042
373.975,117.972,-2.47726,-0.00769401,0.94
374.675,118.204,-2.48088,-0.008525932,0.93959
375.375,118.436,-2.48258,-0.01020967,0.93917
376.075,118.667,-2.48448,-0.009643828,0.93875
376.775,118.897,-2.48716,-0.008760264,0.93833
377.475,119.1265,-2.49075,-0.008526994,0.93791
378.175,119.356,-2.49216,-0.006973804,0.93749
378.875,119.585,-2.49471,-0.006981375,0.93706
379.575,119.815,-2.49833,-0.007357216,0.93664
380.275,120.045,-2.50008,-0.006213381,0.93622
380.975,120.275,-2.50261,-0.00713039,0.93579
381.675,120.506,-2.50565,-0.008137764,0.93537
382.375,120.737,-2.50786,-0.006545672,0.93494
383.075,120.967,-2.5093,-0.006105465,0.93451
383.775,121.199,-2.51227,-0.00626724,0.93408
384.475,121.43,-2.51588,-0.00524608,0.93365
385.175,121.663,-2.51752,-0.007120135,0.93322
385.875,121.894,-2.52016,-0.006941846,0.93279
386.575,122.124,-2.5228,-0.005724162,0.93236
387.275,122.353,-2.52543,-0.003928125,0.93193
387.975,122.5839,-2.52714,-0.000339791,0.9315
388.675,122.816,-2.53036,-0.002289985,0.93106
389.375,123.049,-2.53301,-0.001712138,0.93063
390.075,123.28,-2.53562,-0.002594695,0.93019
390.775,123.511,-2.5364,-0.00145821,0.92975
391.475,123.742,-2.53863,-0.002972688,0.92932
392.175,123.972,-2.54228,-0.00134243,0.92888
392.875,124.203,-2.54417,-0.00140635,0.92844
393.575,124.433,-2.54822,-0.002265758,0.928
394.275,124.664,-2.54911,0.001599454,0.92756
394.975,124.894,-2.55109,3.039413e-05,0.92712
395.675,125.125,-2.55375,-0.000415036,0.92667
396.375,125.356,-2.55702,-0.002535464,0.92623
397.075,125.5874,-2.55875,-0.001122185,0.92579
397.775,125.817,-2.56139,0.0004935486,0.92534
398.475,126.046,-2.5637,-0.000497597,0.9249
399.175,126.276,-2.56488,-0.003659592,0.92445
399.875,126.507,-2.56765,-0.002446015,0.924
400.575,126.741,-2.57064,0.0003505215,0.92355
401.275,126.972,-2.57188,-0.0003334196,0.9231
401.975,127.204,-2.57324,0.000288063,0.92265
402.675,127.434,-2.57688,0.003754295,0.9222
403.375,127.665,-2.57984,0.004094957,0.92175
404.075,127.8969,-2.58147,0.00396185,0.9213
404.775,128.1279,-2.58411,0.0062773,0.92085
405.475,128.359,-2.58476,0.006061522,0.92039
406.175,128.59,-2.58739,0.00636253,0.91994
406.875,128.821,-2.59002,0.004905834,0.91948
407.575,129.053,-2.59134,0.007645795,0.91902
408.275,129.284,-2.59393,0.007093635,0.91857
408.975,129.518,-2.59662,0.007251242,0.91811
409.675,129.751,-2.59792,0.005127883,0.91765
410.375,129.985,-2.60054,0.00721655,0.91719
411.075,130.218,-2.60252,0.008995214,0.91673
411.775,130.449,-2.60516,0.009843124,0.91627
412.475,130.68,-2.60647,0.007820921,0.9158
413.175,130.91,-2.60911,0.00719224,0.91534
413.875,131.141,-2.6118,0.010537,0.91488
414.575,131.371,-2.61206,0.01047587,0.91441
415.275,131.602,-2.61569,0.00984346,0.91395
415.975,131.834,-2.61633,0.009832723,0.91348
416.675,132.066,-2.61766,0.009264444,0.91301
417.375,132.299,-2.62029,0.00957952,0.91254
418.075,132.53,-2.62227,0.01061497,0.91207
418.775,132.762,-2.62538,0.01101523,0.9116
419.475,132.9928,-2.6272,0.01046534,0.91113
420.175,133.224,-2.62853,0.01082102,0.91066
420.875,133.455,-2.63084,0.00987091,0.91019
421.575,133.686,-2.63247,0.01276991,0.90971
422.275,133.918,-2.63518,0.01389586,0.90924
422.975,134.1504,-2.63543,0.01209787,0.90876
423.675,134.382,-2.63804,0.01359788,0.90829
424.375,134.615,-2.64032,0.01085586,0.90781
425.075,134.846,-2.64169,0.01322098,0.90733
425.775,135.078,-2.64435,0.01176304,0.90685
426.475,135.31,-2.64532,0.01263641,0.90638
427.175,135.542,-2.64813,0.01579968,0.90589
427.875,135.774,-2.65088,0.01338678,0.90541
428.575,136.006,-2.65221,0.01487729,0.90493
429.275,136.237,-2.65396,0.01428616,0.90445
429.975,136.469,-2.65616,0.01607788,0.90396
430.675,136.701,-2.6565,0.01548254,0.90348
431.375,136.932,-2.65998,0.01435167,0.903
432.075,137.164,-2.66175,0.01516544,0.90251
432.775,137.395,-2.66406,0.01475797,0.90202
433.475,137.625,-2.6657,0.01772493,0.90153
434.175,137.856,-2.667,0.01612373,0.90104
434.875,138.086,-2.66899,0.01489765,0.90056
435.575,138.318,-2.66998,0.01364298,0.90006
436.275,138.55,-2.67162,0.01549535,0.89957
436.975,138.782,-2.67393,0.01424739,0.89908
437.675,139.0149,-2.67562,0.01492538,0.89859
438.375,139.247,-2.67689,0.01500117,0.89809
439.075,139.479,-2.67788,0.020143,0.8976
439.775,139.711,-2.68051,0.0197982,0.8971
440.475,139.9431,-2.68215,0.02358812,0.89661
441.175,140.174,-2.68479,0.02351676,0.89611
441.875,140.406,-2.6861,0.02571165,0.89561
442.575,140.637,-2.68709,0.02558714,0.89511
443.275,140.869,-2.68947,0.02747956,0.89461
443.975,141.1009,-2.69007,0.03033817,0.89411
444.675,141.333,-2.69267,0.02806305,0.89361
445.375,141.5661,-2.69401,0.03043598,0.89311
446.075,141.799,-2.69596,0.03039013,0.89261
446.775,142.032,-2.6963,0.02950391,0.8921
447.475,142.263,-2.69896,0.03162721,0.8916
448.175,142.495,-2.70122,0.03086364,0.89109
448.875,142.728,-2.70157,0.03468661,0.89058
449.575,142.96,-2.70289,0.0328056,0.89008
450.275,143.192,-2.7042,0.03545309,0.88957
450.975,143.424,-2.70552,0.03511003,0.88906
451.675,143.656,-2.70748,0.03657382,0.88855
452.375,143.888,-2.70947,0.03686299,0.88804
453.075,144.12,-2.7121,0.03626443,0.88753
453.775,144.352,-2.7121,0.03629436,0.88701
454.475,144.584,-2.71242,0.03383079,0.8865
455.175,144.817,-2.71506,0.03491199,0.88599
455.875,145.05,-2.71671,0.03616584,0.88547
456.575,145.283,-2.7186,0.03468329,0.88496
457.275,145.515,-2.72042,0.03529578,0.88444
457.975,145.746,-2.71901,0.03686109,0.88392
458.675,145.977,-2.72263,0.03794458,0.8834
459.375,146.21,-2.72363,0.03820609,0.88288
460.075,146.445,-2.72527,0.03692392,0.88236
460.775,146.681,-2.72593,0.03440858,0.88184
461.475,146.918,-2.7272,0.0335349,0.88132
462.175,147.153,-2.72856,0.03324309,0.8808
462.875,147.387,-2.73026,0.03257631,0.88027
463.575,147.619,-2.73119,0.03543278,0.87975
464.275,147.85,-2.73251,0.03426499,0.87922
464.975,148.08,-2.73382,0.03450806,0.8787
465.675,148.31,-2.73514,0.0324741,0.87817
466.375,148.541,-2.73612,0.03581135,0.87764
467.075,148.773,-2.73711,0.03185215,0.87712
467.775,149.006,-2.73983,0.03456987,0.87659
468.475,149.238,-2.74106,0.03226622,0.87606
469.175,149.47,-2.74238,0.03140185,0.87552
469.875,149.702,-2.74259,0.0312202,0.87499
470.575,149.934,-2.74402,0.03146569,0.87446
471.275,150.164,-2.74633,0.03005792,0.87393
471.975,150.397,-2.74501,0.03016885,0.87339
472.675,150.631,-2.74797,0.02826668,0.87286
473.375,150.8653,-2.74797,0.02823818,0.87232
474.075,151.099,-2.75028,0.0296834,0.87178
474.775,151.333,-2.75093,0.02425421,0.87125
475.475,151.567,-2.75272,0.02728573,0.87071
476.175,151.8,-2.7555,0.02375523,0.87017
476.875,152.033,-2.75488,0.02451942,0.86963
477.575,152.264,-2.75741,0.0223319,0.86909
478.275,152.496,-2.75619,0.02638318,0.86854
478.975,152.729,-2.75751,0.02532836,0.868
479.675,152.963,-2.75916,0.02364499,0.86746
480.375,153.196,-2.76014,0.02590027,0.86691
481.075,153.43,-2.76146,0.02353027,0.86637
481.775,153.664,-2.76179,0.02326119,0.86582
482.475,153.898,-2.76409,0.02432218,0.86527
483.175,154.13,-2.76673,0.02200066,0.86473
483.875,154.362,-2.76541,0.0179896,0.86418
484.575,154.595,-2.76771,0.0246797,0.86363
485.275,154.828,-2.76903,0.01941999,0.86308
485.975,155.06,-2.77034,0.02053095,0.86253
486.675,155.293,-2.77166,0.02141067,0.86197
487.375,155.527,-2.77199,0.02152637,0.86142
488.075,155.76,-2.77431,0.01765217,0.86087
488.775,155.994,-2.77463,0.01974966,0.86031
489.475,156.227,-2.77594,0.01626898,0.85976
490.175,156.461,-2.77594,0.01842873,0.8592
490.875,156.695,-2.77641,0.02099119,0.85864
491.575,156.929,-2.77793,0.01955693,0.85809
492.275,157.162,-2.77956,0.01514664,0.85753
492.975,157.395,-2.77989,0.01733156,0.85697
493.675,157.628,-2.78128,0.01463052,0.85641
494.375,157.861,-2.7835,0.01582708,0.85585
495.075,158.095,-2.78469,0.01776236,0.85529
495.775,158.33,-2.78516,0.01473554,0.85472
496.475,158.564,-2.78548,0.01170499,0.85416
497.175,158.798,-2.7868,0.0058409,0.85359
497.875,159.03,-2.78811,0.001972114,0.85303
498.575,159.263,-2.78911,0.000695523,0.85246
499.275,159.496,-2.78946,-0.00184428,0.8519
499.975,159.729,-2.79075,-0.00409171,0.85133
500.675,159.962,-2.79206,-0.00799331,0.85076
501.375,160.195,-2.79338,-0.009483697,0.85019
502.075,160.429,-2.79625,-0.01066851,0.84962
502.775,160.664,-2.79495,-0.01495603,0.84905
503.475,160.898,-2.79624,-0.01357123,0.84848
504.175,161.132,-2.79854,-0.01372329,0.8479
504.875,161.366,-2.79754,-0.0152374,0.84733
505.575,161.601,-2.79919,-0.01717686,0.84676
506.275,161.836,-2.80051,-0.01510015,0.84618
506.975,162.07,-2.80083,-0.01914694,0.84561
507.675,162.3044,-2.80245,-0.0202462,0.84503
508.375,162.539,-2.80447,-0.0217561,0.84445
509.075,162.772,-2.80487,-0.02149801,0.84387
509.775,163.005,-2.80619,-0.02075054,0.84329
510.475,163.239,-2.80632,-0.02216479,0.84271
511.175,163.472,-2.80742,-0.02135142,0.84213
511.875,163.7055,-2.80742,-0.02294734,0.84155
512.575,163.939,-2.80845,-0.02170404,0.84097
513.275,164.173,-2.80882,-0.0244091,0.84039
513.975,164.407,-2.81038,-0.02708412,0.8398
514.675,164.64,-2.8117,-0.02467558,0.83922
515.375,164.873,-2.81302,-0.02670678,0.83863
516.075,165.107,-2.81336,-0.02643436,0.83804
516.775,165.341,-2.814,-0.0275278,0.83746
517.475,165.576,-2.81532,-0.027339,0.83687
518.175,165.81,-2.81663,-0.02862144,0.83628
518.875,166.044,-2.81663,-0.03146919,0.83569
519.575,166.278,-2.81921,-0.02633726,0.8351
520.275,166.512,-2.81927,-0.02957922,0.83451
520.975,166.746,-2.81926,-0.02991012,0.83392
521.675,166.978,-2.82058,-0.03320669,0.83332
522.375,167.211,-2.8219,-0.03144504,0.83273
523.075,167.444,-2.8219,-0.03483364,0.83213
523.775,167.678,-2.82453,-0.03244666,0.83154
524.475,167.912,-2.82321,-0.03314807,0.83094
525.175,168.147,-2.82453,-0.03280083,0.83035
525.875,168.382,-2.82584,-0.03311692,0.82975
526.575,168.616,-2.82584,-0.03628043,0.82915
527.275,168.849,-2.82585,-0.03430112,0.82855
527.975,169.083,-2.82848,-0.03390267,0.82795
528.675,169.317,-2.82816,-0.03628053,0.82735
529.375,169.551,-2.82881,-0.03753984,0.82675
530.075,169.7852,-2.83078,-0.03839592,0.82615
530.775,170.02,-2.83209,-0.03992605,0.82554
531.475,170.255,-2.83111,-0.04017658,0.82494
532.175,170.488,-2.8321,-0.04358232,0.82433
532.875,170.722,-2.83342,-0.04274242,0.82373
533.575,170.956,-2.83376,-0.04556512,0.82312
534.275,171.191,-2.83473,-0.04544509,0.82251
534.975,171.427,-2.8354,-0.04602356,0.82191
535.675,171.663,-2.83572,-0.04788161,0.8213
536.375,171.899,-2.83868,-0.04850203,0.82069
537.075,172.135,-2.83779,-0.04728931,0.82008
537.775,172.37,-2.83868,-0.04640307,0.81947
538.475,172.604,-2.83901,-0.04572187,0.81885
539.175,172.837,-2.84027,-0.04529941,0.81824
539.875,173.071,-2.84103,-0.04554813,0.81763
540.575,173.305,-2.83999,-0.0474975,0.81701
541.275,173.54,-2.8423,-0.04986876,0.8164
541.975,173.775,-2.84394,-0.04790308,0.81578
542.675,174.012,-2.84393,-0.04695733,0.81517
543.375,174.247,-2.84526,-0.05093327,0.81455
544.075,174.483,-2.84527,-0.05155885,0.81393
544.775,174.719,-2.84658,-0.05377227,0.81331
545.475,174.954,-2.84658,-0.05199526,0.81269
546.175,175.189,-2.8479,-0.05382758,0.81207
546.875,175.425,-2.84921,-0.05352388,0.81145
547.575,175.659,-2.84789,-0.0513317,0.81083
548.275,175.892,-2.8492,-0.05391909,0.81021
548.975,176.126,-2.85152,-0.05569122,0.80958
549.675,176.36,-2.85053,-0.05612285,0.80896
550.375,176.593,-2.85313,-0.05691042,0.80833
551.075,176.827,-2.85183,-0.05875975,0.80771
551.775,177.062,-2.85223,-0.05923249,0.80708
552.475,177.296,-2.85349,-0.06162049,0.80645
553.175,177.53,-2.85578,-0.06242067,0.80583
553.875,177.764,-2.85586,-0.06261655,0.8052
554.575,177.998,-2.85579,-0.06551673,0.80457
555.275,178.232,-2.85645,-0.06524921,0.80394
555.975,178.466,-2.85777,-0.06528126,0.80331
556.675,178.7,-2.85812,-0.06970276,0.80267
557.375,178.935,-2.85842,-0.06805377,0.80204
558.075,179.17,-2.85842,-0.07150121,0.80141
558.775,179.406,-2.85908,-0.07359576,0.80077
559.475,179.6413,-2.85908,-0.07265094,0.80014
560.175,179.876,-2.86007,-0.07399702,0.7995
560.875,180.11,-2.86105,-0.07239287,0.79887
561.575,180.344,-2.86006,-0.07313143,0.79823
562.275,180.577,-2.86303,-0.07284295,0.79759
562.975,180.811,-2.86303,-0.07763345,0.79695
563.675,181.045,-2.86303,-0.07667263,0.79632
564.375,181.279,-2.86402,-0.07653159,0.79568
565.075,181.513,-2.86434,-0.07349408,0.79503
565.775,181.747,-2.86437,-0.07660832,0.79439
566.475,181.981,-2.86467,-0.07876316,0.79375
567.175,182.217,-2.86602,-0.07775451,0.79311
567.875,182.453,-2.86599,-0.07926134,0.79246
568.575,182.689,-2.86864,-0.07757935,0.79182
569.275,182.924,-2.86863,-0.07763515,0.79117
569.975,183.158,-2.86866,-0.07881713,0.79053
570.675,183.393,-2.86797,-0.0791155,0.78988
571.375,183.628,-2.87064,-0.07644799,0.78923
572.075,183.864,-2.86961,-0.077999,0.78859
572.775,184.099,-2.87093,-0.07749741,0.78794
573.475,184.335,-2.87225,-0.0762557,0.78729
574.175,184.572,-2.87126,-0.0767048,0.78664
574.875,184.809,-2.87257,-0.08002971,0.78599
575.575,185.046,-2.8726,-0.07797808,0.78533
576.275,185.282,-2.87389,-0.07717622,0.78468
576.975,185.517,-2.87521,-0.07951135,0.78403
577.675,185.751,-2.87587,-0.07619949,0.78338
578.375,185.985,-2.87628,-0.07610421,0.78272
579.075,186.22,-2.87682,-0.07865785,0.78207
579.775,186.455,-2.87685,-0.07800818,0.78141
580.475,186.688,-2.87718,-0.07343436,0.78075
581.175,186.9217,-2.87849,-0.07385813,0.7801
581.875,187.154,-2.8798,-0.07492657,0.77944
582.575,187.388,-2.87981,-0.07307339,0.77878
583.275,187.623,-2.87991,-0.07532806,0.77812
583.975,187.86,-2.88245,-0.06982565,0.77746
584.675,188.097,-2.88278,-0.07221597,0.7768
585.375,188.335,-2.88211,-0.07036365,0.77614
586.075,188.573,-2.8831,-0.07242595,0.77547
586.775,188.81,-2.88376,-0.07024375,0.77481
587.475,189.046,-2.88508,-0.06777636,0.77415
588.175,189.282,-2.8851,-0.06969057,0.77348
588.875,189.517,-2.88605,-0.06737698,0.77282
589.575,189.7524,-2.88617,-0.06781611,0.77215
590.275,189.986,-2.88738,-0.06370124,0.77148
590.975,190.2202,-2.88804,-0.06427468,0.77082
591.675,190.454,-2.8888,-0.05955213,0.77015
592.375,190.688,-2.88837,-0.05972523,0.76948
593.075,190.922,-2.88837,-0.05744303,0.76881
593.775,191.156,-2.88968,-0.05667904,0.76814
594.475,191.39,-2.88968,-0.05713789,0.76747
595.175,191.624,-2.89067,-0.05326715,0.7668
595.875,191.859,-2.89105,-0.05004906,0.76613
596.575,192.0941,-2.89271,-0.05029284,0.76545
597.275,192.33,-2.89297,-0.05145052,0.76478
597.975,192.567,-2.89297,-0.05070947,0.76411
598.675,192.803,-2.89333,-0.0475662,0.76343
599.375,193.039,-2.89528,-0.04568773,0.76276
600.075,193.274,-2.89462,-0.04703811,0.76208
600.775,193.511,-2.89593,-0.04508872,0.7614
601.475,193.748,-2.89594,-0.0390421,0.76073
602.175,193.986,-2.89594,-0.03848588,0.76005
602.875,194.223,-2.89677,-0.03505619,0.75937
603.575,194.459,-2.89792,-0.03421196,0.75869
604.275,194.694,-2.89792,-0.02986184,0.75801
604.975,194.9293,-2.89791,-0.03171527,0.75733
605.675,195.164,-2.90055,-0.02661045,0.75665
606.375,195.398,-2.89956,-0.02461933,0.75597
607.075,195.632,-2.90025,-0.01984011,0.75528
607.775,195.867,-2.90284,-0.02017504,0.7546
608.475,196.102,-2.90153,-0.01705659,0.75392
609.175,196.337,-2.90383,-0.01732746,0.75323
609.875,196.571,-2.90342,-0.01300468,0.75255
610.575,196.805,-2.90351,-0.01296519,0.75186
611.275,197.04,-2.90417,-0.00929534,0.75117
611.975,197.275,-2.90646,-0.006070759,0.75049
612.675,197.509,-2.90647,-0.00693846,0.7498
613.375,197.7437,-2.90639,-0.00211912,0.74911
614.075,197.978,-2.90723,-0.002494648,0.74842
614.775,198.214,-2.90811,0.0006159201,0.74773
615.475,198.449,-2.9091,0.0045445,0.74704
616.175,198.687,-2.90976,0.00932535,0.74635
616.875,198.923,-2.90929,0.01178508,0.74566
617.575,199.161,-2.91042,0.01077454,0.74497
618.275,199.397,-2.91042,0.008634896,0.74427
618.975,199.634,-2.91141,0.006847485,0.74358
619.675,199.87,-2.91141,0.00661528,0.74288
620.375,200.106,-2.91243,0.007193414,0.74219
621.075,200.341,-2.91206,0.004823209,0.74149
621.775,200.577,-2.91206,0.004503846,0.7408
622.475,200.812,-2.91112,0.0060968,0.7401
623.175,201.048,-2.91472,0.00536317,0.7394
623.875,201.284,-2.91471,0.003403202,0.73871
624.575,201.519,-2.91536,0.003016278,0.73801
625.275,201.755,-2.91601,0.000347225,0.73731
625.975,201.991,-2.916,-0.0003257854,0.73661
626.675,202.228,-2.91733,-0.00170909,0.73591
627.375,202.465,-2.91799,0.001218124,0.73521
628.075,202.702,-2.91799,0.0001192114,0.7345
628.775,202.939,-2.91867,-0.0007942973,0.7338
629.475,203.175,-2.91863,-0.002422373,0.7331
630.175,203.411,-2.91897,9.85009e-05,0.7324
630.875,203.647,-2.92061,-0.0004461415,0.73169
631.575,203.883,-2.91981,-0.001571267,0.73099
632.275,204.119,-2.92062,0.0006628396,0.73028
632.975,204.355,-2.92193,0.0020664,0.72958
633.675,204.592,-2.92193,-0.0033774,0.72887
634.375,204.829,-2.92193,-0.00511758,0.72816
635.075,205.065,-2.92457,-0.000479165,0.72745
635.775,205.3,-2.92292,0.001295374,0.72675
636.475,205.535,-2.92603,-0.001769331,0.72604
637.175,205.769,-2.92554,-0.001358488,0.72533
637.875,206.004,-2.92653,-0.00347847,0.72462
638.575,206.239,-2.92621,-0.000861995,0.72391
639.275,206.475,-2.92621,-0.003874786,0.7232
639.975,206.711,-2.92655,-0.002319414,0.72248
640.675,206.947,-2.92786,-0.002316061,0.72177
641.375,207.1827,-2.92786,0.0001868059,0.72106
642.075,207.418,-2.92918,-0.0006290245,0.72035
642.775,207.654,-2.92996,-0.0009239173,0.71963
643.475,207.891,-2.93049,0.0003358088,0.71892
644.175,208.126,-2.93024,0.0007685318,0.7182
644.875,208.361,-2.92884,-0.000262746,0.71749
645.575,208.597,-2.93108,0.002313372,0.71677
646.275,208.833,-2.93118,0.0006754806,0.71605
646.975,209.071,-2.93147,-0.00300572,0.71534
647.675,209.307,-2.93147,0.000243929,0.71462
648.375,209.544,-2.93215,-0.00135579,0.7139
649.075,209.781,-2.93246,0.001812605,0.71318
649.775,210.018,-2.93312,0.001311023,0.71246
650.475,210.253,-2.93345,0.00361876,0.71174
651.175,210.489,-2.93477,0.004290083,0.71102
651.875,210.725,-2.93436,0.005176666,0.7103
652.575,210.961,-2.9351,7.64572e-05,0.70958
653.275,211.198,-2.93608,0.00168291,0.70885
653.975,211.435,-2.93476,0.0016968,0.70813
654.675,211.671,-2.9374,0.001601791,0.70741
655.375,211.907,-2.9374,0.0002897914,0.70668
656.075,212.1441,-2.93608,0.0001536525,0.70596
656.775,212.382,-2.93674,-0.0004333687,0.70523
657.475,212.618,-2.93708,-0.002327253,0.70451
658.175,212.856,-2.93839,0.0002071859,0.70378
658.875,213.092,-2.93707,-0.004568797,0.70306
659.575,213.3287,-2.9397,-0.00387772,0.70233
660.275,213.564,-2.93838,-0.00296405,0.7016
660.975,213.8,-2.93905,-0.005426883,0.70087
661.675,214.036,-2.94102,-0.003579469,0.70014
662.375,214.2727,-2.94102,-0.003698271,0.69941
663.075,214.51,-2.94036,-0.004396103,0.69868
663.775,214.746,-2.94157,-0.00543989,0.69795
664.475,214.982,-2.94167,-0.008049871,0.69722
665.175,215.219,-2.94101,-0.003694498,0.69649
665.875,215.454,-2.94233,0.001659081,0.69576
666.575,215.69,-2.94233,0.00153158,0.69503
667.275,215.924,-2.94365,-0.001396562,0.69429
667.975,216.159,-2.94365,0.0002447857,0.69356
668.675,216.394,-2.94368,-0.003717792,0.69283
669.375,216.6304,-2.94496,0.0008211886,0.69209
670.075,216.866,-2.94496,0.00171711,0.69136
670.775,217.103,-2.94593,-0.00211303,0.69062
671.475,217.341,-2.94694,-0.004160567,0.68989
672.175,217.579,-2.94595,-0.00277171,0.68915
672.875,217.816,-2.94778,-0.002591982,0.68841
673.575,218.054,-2.94727,-0.00257202,0.68768
674.275,218.292,-2.94727,-0.00329609,0.68694
674.975,218.53,-2.94792,-0.004594411,0.6862
675.675,218.769,-2.94814,-0.004036722,0.68546
676.375,219.006,-2.94794,-0.004353569,0.68472
677.075,219.243,-2.9485,-0.008965225,0.68398
677.775,219.479,-2.95056,-0.00629981,0.68324
678.475,219.715,-2.95058,-0.00794592,0.6825
679.175,219.951,-2.95126,-0.00630878,0.68176
679.875,220.187,-2.95187,-0.009617288,0.68102
680.575,220.423,-2.95187,-0.00495912,0.68028
681.275,220.658,-2.95318,-0.005179767,0.67953
681.975,220.893,-2.95254,-0.006989826,0.67879
682.675,221.128,-2.95254,-0.01004903,0.67805
683.375,221.365,-2.95353,-0.005911166,0.6773
684.075,221.601,-2.95475,-0.008886209,0.67656
684.775,221.838,-2.95418,-0.005478173,0.67581
685.475,222.075,-2.95467,-0.00850287,0.67507
686.175,222.312,-2.95518,-0.009341346,0.67432
686.875,222.549,-2.95517,-0.00775759,0.67358
687.575,222.786,-2.95528,-0.007456448,0.67283
688.275,223.024,-2.9574,-0.009752459,0.67208
688.975,223.263,-2.95517,-0.00876967,0.67134
689.675,223.502,-2.95649,-0.01346989,0.67059
690.375,223.74,-2.95747,-0.0120128,0.66984
691.075,223.978,-2.95812,-0.008606245,0.66909
691.775,224.215,-2.95615,-0.009758625,0.66834
692.475,224.451,-2.95813,-0.01194726,0.66759
693.175,224.687,-2.95714,-0.01211848,0.66684
693.875,224.922,-2.95714,-0.00830705,0.66609
694.575,225.156,-2.95703,-0.01085293,0.66534
695.275,225.391,-2.95777,-0.01244096,0.66459
695.975,225.627,-2.95846,-0.01078919,0.66384
696.675,225.864,-2.95912,-0.01385069,0.66308
697.375,226.102,-2.96077,-0.01110145,0.66233
698.075,226.341,-2.95911,-0.01204973,0.66158
698.775,226.579,-2.9622,-0.01096584,0.66083
699.475,226.815,-2.95835,-0.0113224,0.66007
700.175,227.051,-2.96032,-0.009472213,0.65932
700.875,227.287,-2.95901,-0.00994856,0.65856
701.575,227.522,-2.96063,-0.01042724,0.65781
702.275,227.757,-2.96196,-0.01105011,0.65705
702.975,227.992,-2.96229,-0.009305792,0.6563
703.675,228.228,-2.96163,-0.008925212,0.65554
704.375,228.464,-2.9623,-0.009477436,0.65478
705.075,228.701,-2.96164,-0.008219407,0.65403
705.775,228.939,-2.96397,-0.01203506,0.65327
706.475,229.1738,-2.96329,-0.008602363,0.65251
707.175,229.4093,-2.9646,-0.01029916,0.65175
707.875,229.644,-2.9623,-0.00844947,0.65099
708.575,229.8828,-2.9636,-0.01167644,0.65023
709.275,230.121,-2.96361,-0.00696414,0.64947
709.975,230.36,-2.96361,-0.00898231,0.64872
710.675,230.597,-2.96461,-0.01048691,0.64795
711.375,230.835,-2.96361,-0.005246279,0.64719
712.075,231.0725,-2.9639,-0.007854323,0.64643
712.775,231.31,-2.96361,-0.005817583,0.64567
713.475,231.549,-2.9669,-0.008953341,0.64491
714.175,231.786,-2.96559,-0.003862061,0.64415
714.875,232.024,-2.96555,-0.004041478,0.64339
715.575,232.261,-2.96756,-0.00564263,0.64262
716.275,232.498,-2.96559,0.0006409393,0.64186
716.975,232.734,-2.9669,-0.005382377,0.6411
717.675,232.971,-2.9656,-0.005094279,0.64033
718.375,233.208,-2.96756,-0.00166458,0.63957
719.075,233.446,-2.96756,-0.000220952,0.6388
719.775,233.683,-2.96853,-0.002729657,0.63804
720.475,233.921,-2.96887,-0.004267517,0.63727
721.175,234.157,-2.96756,-0.006945954,0.63651
721.875,234.3917,-2.96854,-0.005163634,0.63574
722.575,234.627,-2.97087,-0.00551782,0.63498
723.275,234.863,-2.96986,-0.004380917,0.63421
723.975,235.101,-2.97147,-0.0003681165,0.63344
724.675,235.338,-2.96856,-0.003374996,0.63268
725.375,235.575,-2.97184,-0.000432239,0.63191
726.075,235.812,-2.97053,0.001982275,0.63114
726.775,236.05,-2.97184,-4.737063e-08,0.63037
727.475,236.287,-2.97011,0.0009798409,0.6296
728.175,236.525,-2.97184,4.40112e-05,0.62883
728.875,236.763,-2.96969,0.00242547,0.62806
729.575,237.002,-2.97235,-0.000207267,0.6273
730.275,237.2413,-2.97184,0.0005932815,0.62653
730.975,237.481,-2.97217,0.00210925,0.62576
731.675,237.7188,-2.97349,-0.00148999,0.62498
732.375,237.9561,-2.97088,-0.004314555,0.62421
733.075,238.194,-2.97348,-0.004497725,0.62344
733.775,238.431,-2.97414,-0.003981241,0.62267
734.475,238.668,-2.97282,-0.007793689,0.6219
735.175,238.905,-2.97385,-0.002063357,0.62113
735.875,239.142,-2.9748,-0.00108231,0.62036
736.575,239.38,-2.97513,0.0003134589,0.61958
737.275,239.617,-2.97381,-0.00212064,0.61881
737.975,239.854,-2.97519,-0.003846225,0.61804
738.675,240.091,-2.97655,-0.006142545,0.61726
739.375,240.327,-2.9753,-0.004125634,0.61649
740.075,240.562,-2.97655,-0.001333595,0.61572
740.775,240.7965,-2.97524,0.002546418,0.61494
741.475,241.032,-2.97524,-0.004287219,0.61417
742.175,241.268,-2.97524,-0.005897679,0.61339
742.875,241.505,-2.97655,-0.00874766,0.61262
743.575,241.743,-2.97724,-0.00868056,0.61184
744.275,241.981,-2.97722,-0.00648634,0.61107
744.975,242.219,-2.97853,-0.004270547,0.61029
745.675,242.458,-2.97853,-0.00351131,0.60951
746.375,242.696,-2.97919,-0.00281423,0.60874
747.075,242.935,-2.97916,-0.00283662,0.60796
747.775,243.173,-2.97787,-0.000209231,0.60718
748.175,243.311,-2.98033,-0.002375315,0.60674