File: 01_Data/Vinyl_Siding/Cone/Vinyl_Siding_Cone_HF75Scan_220331_R2.csv
Names,Time,Stack TC,Smoke TC,Exh Press,Smoke Comp,Smoke Meas,CO Meter,CO2 Meter,O2 Meter,Sample Mass,Ext Coeff,Start Test,Flame Verif
Chan Gain,,500,500,1,1,1,1,1,1,1,1,1.0,1.0
Offset,,0,0,0.133521,0,0,0,0,0,0,0,0.0,0.0
Gain,,1,1,25.011,13.1585,13.8929,1,1,1,1.00096,1.01488,1.0,1.0
Units,sec,C,C,Pa,%,%,%,%,%,g,/m,,
Baseline,,41.9772,44.1671,139.526,98.2303,95.6881,0.000711137,0.0647215,21.0357,-835.675,0.23351,,
2,0.25,40.9435,43.3695,141.323,97.8713,95.4732,0.000617619,0.0702473,21.0318,197.53,0.220847,0.0,0.0
4,0.75,40.0782,42.7561,138.593,97.8705,95.4635,0.000607565,0.0700105,21.0319,197.42,0.221682,0.0,0.0
6,1.25,40.3851,42.3662,140.862,97.8656,95.1993,0.00060334,0.0697656,21.032,197.57,0.245911,0.0,0.0
8,1.75,40.407,42.5993,138.83,97.8725,95.1111,0.000603444,0.0695082,21.0325,197.44,0.254782,0.0,0.0
10,2.25,40.5784,42.3764,135.369,97.8673,95.0221,0.000611367,0.0692466,21.0329,197.5,0.262646,0.0,0.0
12,2.75,40.5243,42.7522,140.513,97.8861,95.4893,0.00062484,0.0689905,21.0332,197.49,0.220696,0.0,0.0
14,3.25,40.3431,42.9236,137.338,97.8733,95.3778,0.000635754,0.0687432,21.0335,199.772,0.229929,0.0,0.0
16,3.75,40.227,42.5045,140.016,97.8817,94.8288,0.000655768,0.0685135,21.0337,199.762,0.282093,0.0,0.0
18,4.25,40.5173,42.6827,139.032,97.8797,95.2858,0.000671979,0.0683008,21.0339,199.132,0.239106,0.0,0.0
20,4.75,40.589,42.6949,138.856,97.8801,95.4732,0.000689686,0.0680696,21.034,198.832,0.22165,0.0,0.0
22,5.25,40.54,42.457,136.383,97.8785,95.2256,0.000708146,0.0678292,21.0337,198.391,0.244622,0.0,0.0
24,5.75,40.5533,42.4985,136.872,97.8877,95.3816,0.000737487,0.0676345,21.0334,198.051,0.230887,0.0,0.0
26,6.25,40.3626,42.6621,140.487,97.8873,94.6197,0.000774201,0.0674068,21.0332,197.74,0.302248,0.0,0.0
28,6.75,40.7409,42.3334,137.397,97.8865,94.3535,0.000834056,0.0672223,21.0331,197.47,0.327261,0.0,0.0
30,7.25,40.8514,42.2147,141.236,97.8861,94.3374,0.000909644,0.0670877,21.0329,196.86,0.328746,0.0,0.0
32,7.75,40.6566,42.5928,139.825,97.8885,93.8583,0.00097087,0.0669918,21.0328,196.679,0.374292,0.0,0.0
34,8.25,41.059,42.9382,136.193,97.8845,91.2305,0.00112518,0.0669953,21.0323,196.639,0.626731,0.0,0.0
36,8.75,40.5446,42.9554,134.122,97.8998,86.905,0.00130412,0.0670711,21.0318,197,1.06054,0.0,0.0
38,9.25,40.3819,42.3319,135.981,97.8853,83.1855,0.00149763,0.0673832,21.0306,197.01,1.44865,0.0,0.0
40,9.75,40.427,42.5285,140.303,97.9082,78.517,0.00165436,0.0678618,21.0296,197.04,1.96491,0.0,0.0
42,10.25,40.4525,43.1742,137.759,97.8998,75.1761,0.00178132,0.0682494,21.0287,197.05,2.35124,0.0,0.0
44,10.75,40.9305,43.0358,138.424,97.8974,68.7689,0.00212904,0.0692228,21.0278,197.03,3.14407,0.0,0.0
46,11.25,40.8001,42.864,136.656,97.9002,63.6536,0.0024107,0.0700113,21.0269,196.699,3.83245,0.0,0.0
48,11.75,41.1176,42.7126,138.382,97.9066,58.6672,0.00300088,0.0715635,21.0257,196.229,4.55925,0.0,0.0
50,12.25,40.9373,42.8241,137.465,97.9074,56.2094,0.00347892,0.0728208,21.0242,195.759,4.94032,0.0,0.0
52,12.75,41.1152,43.0017,137.329,97.9191,55.913,0.00465748,0.0744249,21.0231,195.238,4.98845,0.0,0.0
54,13.25,40.9541,43.4904,139.357,97.9171,47.3605,0.00561212,0.0762514,21.0214,195.368,6.46615,0.0,0.0
56,13.75,41.0487,43.3664,139.179,97.9183,53.0126,0.00638538,0.0777308,21.0195,194.347,5.46259,0.0,0.0
58,14.25,40.9426,43.412,134.889,97.907,50.6002,0.00815234,0.0842798,21.0179,192.786,5.8762,0.0,0.0
60,14.75,41.6583,43.5216,135.089,97.9235,43.7143,0.0106101,0.0895846,21.0099,191.394,7.17994,0.0,0.0
62,15.25,41.1707,43.3871,140.462,97.9251,42.0913,0.0137145,0.100629,21.0034,190.554,7.5169,0.0,0.0
64,15.75,41.526,43.3346,127.429,97.9355,74.9213,0.0172313,0.115648,20.9664,190.053,2.38472,0.0,0.0
66,16.25,41.6439,44.0229,117.032,97.9263,85.9566,0.0210315,0.127814,20.9364,189.983,1.16064,0.0,0.0
68,16.75,42.1014,44.2775,115.931,97.944,60.8554,0.0249662,0.1504,20.8736,189.212,4.23665,0.0,0.0
70,17.25,42.0869,44.1412,122.443,97.9383,37.5382,0.0281533,0.180156,20.8227,195.368,8.53728,0.0,1.0
72,17.75,42.1196,44.7158,123.782,97.9472,32.6319,0.0316909,0.209967,20.7815,194.828,9.78504,0.0,1.0
74,18.25,42.669,45.267,122.27,97.9448,31.7632,0.0354169,0.239252,20.7217,194.908,10.025,0.0,1.0
76,18.75,43.5719,46.1503,127.726,97.9423,32.9618,0.0387884,0.265948,20.6733,194.567,9.69506,0.0,1.0
78,19.25,43.7295,46.0555,120.534,97.9436,34.1019,0.0418376,0.290248,20.6322,194.577,9.39246,0.0,1.0
80,19.75,44.0246,46.2685,119.943,97.9608,32.6319,0.0443281,0.309932,20.5972,194.417,9.78628,0.0,1.0
82,20.25,44.4837,47.0026,122.537,97.9572,33.7389,0.046364,0.328538,20.5688,194.267,9.48895,0.0,1.0
84,20.75,44.9244,47.149,121.836,97.9741,35.1979,0.0480131,0.343608,20.5459,194.197,9.11362,0.0,1.0
86,21.25,45.5563,47.8495,123.689,97.9709,38.3425,0.0491582,0.355816,20.5273,194.017,8.35151,0.0,1.0
88,21.75,46.0925,48.364,121.97,97.9693,36.488,0.0499141,0.365087,20.5122,193.957,8.7927,0.0,1.0
90,22.25,46.0272,48.2521,124.127,97.966,38.9959,0.0502947,0.372597,20.5,193.817,8.20065,0.0,1.0
92,22.75,46.0023,48.7335,122.01,97.9861,40.5841,0.0503945,0.376447,20.4968,193.727,7.84708,0.0,0.0
94,23.25,46.2956,48.9167,125.253,97.9749,40.0974,0.0502095,0.379566,20.4943,193.657,7.95348,0.0,0.0
96,23.75,46.3328,48.8932,125.804,97.9917,43.0258,0.0498204,0.378751,20.4984,193.526,7.32748,0.0,0.0
98,24.25,47.1073,49.3114,125.733,97.9913,42.5217,0.0495052,0.37809,20.5018,193.446,7.43237,0.0,0.0
100,24.75,47.5341,50.2637,132.446,97.997,46.5885,0.0486336,0.375442,20.5086,193.326,6.61973,0.0,0.0
102,25.25,47.5621,50.3938,126.704,97.9962,49.8005,0.0479277,0.371395,20.5177,193.246,6.02611,0.0,0.0
104,25.75,47.9726,50.873,128.266,97.9978,49.2761,0.0469045,0.366714,20.525,193.176,6.12051,0.0,0.0
106,26.25,48.2381,50.668,125.204,97.997,53.5265,0.0460758,0.361658,20.5355,193.076,5.38386,0.0,0.0
108,26.75,48.378,51.0278,127.817,98.0162,56.6906,0.0451443,0.357563,20.5458,193.026,4.87432,0.0,0.0
110,27.25,48.2932,51.6979,124.125,98.0022,58.4175,0.0441557,0.352058,20.5559,192.886,4.60591,0.0,0.0
112,27.75,48.6552,51.9086,128.432,98.0138,61.1543,0.042942,0.3476,20.5666,192.856,4.19938,0.0,0.0
114,28.25,49.0703,51.9965,128.387,98.0191,61.5083,0.0419589,0.342965,20.5777,192.736,4.14846,0.0,0.0
116,28.75,49.0562,52.2659,130.013,98.0227,62.7315,0.040893,0.338289,20.5866,192.726,3.97349,0.0,0.0
118,29.25,49.4632,52.4226,126.997,98.0166,68.693,0.0397869,0.333578,20.5979,192.666,3.16474,0.0,0.0
120,29.75,49.4026,52.2898,128.565,98.0343,65.8036,0.0386621,0.32893,20.607,192.535,3.54891,0.0,0.0
122,30.25,49.812,53.0881,126.059,98.017,67.1489,0.0375451,0.324348,20.618,192.465,3.36717,0.0,0.0
124,30.75,49.9381,52.9543,123.798,98.0395,67.1116,0.0366403,0.319901,20.6269,192.425,3.37416,0.0,0.0
126,31.25,50.1958,53.3531,129.188,98.0343,69.3167,0.0356344,0.315136,20.6341,192.385,3.08588,0.0,0.0
128,31.75,50.514,53.5541,132.039,98.0423,70.1761,0.0345738,0.311276,20.6417,192.295,2.97691,0.0,0.0
130,32.25,50.6339,54.0204,131.434,98.0375,72.073,0.0337147,0.307447,20.6479,192.215,2.73903,0.0,0.0
132,32.75,50.8041,54.0118,128.464,98.0476,72.851,0.0327285,0.303715,20.6543,192.165,2.64436,0.0,0.0
134,33.25,50.6291,54.054,127.432,98.0411,70.1825,0.0319297,0.300692,20.6608,192.085,2.976,0.0,0.0
136,33.75,51.228,54.2948,128.775,98.06,67.9371,0.031084,0.296649,20.6674,192.035,3.26719,0.0,0.0
138,34.25,51.1831,54.5494,126.647,98.0592,67.7692,0.030399,0.293374,20.6741,191.965,3.28914,0.0,0.0
140,34.75,51.4161,54.748,130.508,98.068,67.7442,0.0297066,0.290721,20.6795,191.875,3.29323,0.0,0.0
142,35.25,51.4463,54.899,126.652,98.0733,65.266,0.0291458,0.286689,20.6865,191.795,3.62547,0.0,0.0
144,35.75,51.5188,54.6825,125.716,98.0745,64.4545,0.0285866,0.283423,20.6923,191.785,3.73697,0.0,0.0
146,36.25,51.6472,54.8839,131.476,98.0781,67.0705,0.0281336,0.279933,20.6969,191.695,3.38312,0.0,0.0
148,36.75,52.1179,55.4511,131.509,98.0978,66.3739,0.0277667,0.277107,20.7011,191.625,3.47785,0.0,0.0
150,37.25,52.18,55.4825,126.781,98.0897,64.4482,0.0274247,0.274335,20.7045,191.565,3.73923,0.0,0.0
152,37.75,52.0838,55.9391,128.98,98.1026,64.7695,0.0271073,0.272089,20.7072,191.494,3.69611,0.0,0.0
154,38.25,52.3597,55.3922,129.805,98.1066,64.5948,0.0268502,0.270057,20.7095,191.434,3.72052,0.0,0.0
156,38.75,51.7012,55.3699,130.475,98.1054,66.1606,0.0266229,0.268219,20.7113,191.384,3.50719,0.0,0.0
158,39.25,52.0953,56.0771,126.752,98.1114,62.9481,0.0264216,0.266731,20.7128,191.334,3.95085,0.0,0.0
160,39.75,52.6126,56.1913,129.882,98.1062,63.5743,0.0262351,0.264904,20.7139,191.294,3.86226,0.0,0.0
162,40.25,52.5306,55.9764,126.011,98.1178,62.1167,0.0260629,0.262866,20.7158,191.234,4.06981,0.0,0.0
164,40.75,52.2404,55.8077,132.978,98.1287,62.4253,0.025897,0.261215,20.7173,191.184,4.02666,0.0,0.0
166,41.25,52.9578,56.2103,125.439,98.1351,60.1058,0.025739,0.258532,20.7208,191.134,4.36434,0.0,0.0
168,41.75,53.3911,57.1907,130.861,98.1371,62.6649,0.0255773,0.25636,20.7236,191.074,3.99333,0.0,0.0
170,42.25,53.3394,56.7149,129.236,98.1484,60.7943,0.025416,0.2546,20.7272,191.014,4.26414,0.0,0.0
172,42.75,53.4144,56.4877,129.699,98.1528,64.262,0.0252854,0.25159,20.7315,190.974,3.7707,0.0,0.0
174,43.25,53.1993,56.8106,128.412,98.1612,61.2831,0.0250603,0.249152,20.7349,190.934,4.19401,0.0,0.0
176,43.75,53.8527,56.9961,130.092,98.1612,64.0025,0.024878,0.246166,20.7391,190.864,3.80748,0.0,0.0
178,44.25,52.7486,57.0585,129.048,98.1745,61.9166,0.0246197,0.243266,20.7431,190.814,4.10367,0.0,0.0
180,44.75,53.0996,56.7785,130.083,98.1845,64.4206,0.0244104,0.240482,20.7471,190.774,3.75164,0.0,0.0
182,45.25,53.4294,57.3746,129.528,98.1833,63.2551,0.0242409,0.238228,20.7502,190.724,3.91407,0.0,0.0
184,45.75,53.6925,57.7064,130.884,98.2034,63.3021,0.0239602,0.235769,20.7535,190.694,3.90927,0.0,0.0
186,46.25,53.5261,57.1457,132.018,98.1957,64.7165,0.0237328,0.233208,20.7568,190.634,3.71185,0.0,0.0
188,46.75,53.8649,57.4956,131.855,98.1985,64.6809,0.0234427,0.230686,20.7604,190.584,3.71701,0.0,0.0
190,47.25,53.8401,56.9791,132.263,98.2078,64.0899,0.0232077,0.228241,20.7642,190.524,3.79957,0.0,0.0
192,47.75,54.0578,57.7368,135.614,98.2094,65.0222,0.02292,0.226261,20.768,190.514,3.67114,0.0,0.0
194,48.25,53.7444,57.3548,131.359,98.2238,67.737,0.0226869,0.223765,20.7716,190.484,3.30831,0.0,0.0
196,48.75,53.9366,57.6732,131.908,98.2222,63.643,0.0224036,0.221743,20.7753,190.423,3.86317,0.0,0.0
198,49.25,53.798,57.6027,130.266,98.2303,64.7216,0.0221742,0.219245,20.779,190.393,3.71428,0.0,0.0
200,49.75,54.1749,57.9435,133.526,98.2347,67.2061,0.0219337,0.217222,20.7819,190.343,3.37933,0.0,0.0
202,50.25,54.3439,58.3579,134.5,98.2443,66.8894,0.0216898,0.215102,20.7847,190.313,3.42226,0.0,0.0
204,50.75,54.1854,57.9201,129.209,98.2451,66.2819,0.0214463,0.213385,20.787,190.273,3.50356,0.0,0.0
206,51.25,54.1904,57.9663,132.714,98.2399,64.8111,0.0212077,0.211804,20.7898,190.203,3.70286,0.0,0.0
208,51.75,54.4286,58.0834,131.964,98.258,67.5525,0.0210145,0.210353,20.792,190.163,3.33568,0.0,0.0
210,52.25,54.6476,58.405,134.648,98.2757,66.713,0.0208128,0.208772,20.7943,190.163,3.4486,0.0,0.0
212,52.75,53.9477,57.7034,134.901,98.2752,68.4594,0.0206089,0.207491,20.7965,190.103,3.21852,0.0,0.0
214,53.25,54.4642,58.2586,129.667,98.2953,69.2887,0.0204088,0.206225,20.7984,190.063,3.11315,0.0,0.0
216,53.75,54.0836,57.817,133.308,98.2736,68.7939,0.0202151,0.204993,20.8007,190.003,3.17498,0.0,0.0
218,54.25,54.167,58.2123,132.101,98.309,68.8414,0.0200583,0.203996,20.8027,189.973,3.17204,0.0,0.0
220,54.75,54.5598,58.3394,131.264,98.3005,68.6383,0.0198756,0.202709,20.8045,189.953,3.19758,0.0,0.0
222,55.25,54.0469,57.8113,130.952,98.2997,70.8714,0.0197277,0.201667,20.8061,189.893,2.91248,0.0,0.0
224,55.75,54.9004,57.6138,130.833,98.2973,70.7637,0.0195496,0.200822,20.8082,189.853,2.9258,0.0,0.0
226,56.25,54.7114,58.9438,134.094,98.3174,71.1228,0.0194054,0.199361,20.8105,189.813,2.88255,0.0,0.0
228,56.75,54.6383,58.4811,134.134,98.3258,71.0749,0.019221,0.198178,20.8128,189.773,2.88932,0.0,0.0
230,57.25,54.0644,57.9347,134.642,98.3367,72.4868,0.0190716,0.196683,20.8152,189.723,2.71519,0.0,0.0
232,57.75,54.3377,58.6621,129.529,98.3311,70.8434,0.0188791,0.195471,20.8173,189.683,2.91883,0.0,0.0
234,58.25,54.1113,58.036,131.736,98.3463,72.9103,0.0187231,0.194148,20.8192,189.623,2.6642,0.0,0.0
236,58.75,54.522,58.6445,134.016,98.354,72.8107,0.0185968,0.193076,20.8208,189.603,2.67706,0.0,0.0
238,59.25,54.3076,58.0258,131.795,98.3696,73.0549,0.0183733,0.192014,20.822,189.593,2.64867,0.0,0.0
240,59.75,54.5634,58.5357,125.385,98.3604,72.8103,0.0181922,0.191154,20.8233,189.563,2.67769,0.0,0.0
242,60.25,54.663,58.6586,130.354,98.3708,73.1427,0.0180456,0.190363,20.8245,189.533,2.63809,0.0,0.0
244,60.75,54.2654,58.0896,129.288,98.3889,72.7632,0.0178611,0.189638,20.8255,189.493,2.68603,0.0,0.0
246,61.25,54.6032,58.6048,133.352,98.4029,73.9839,0.0176525,0.188848,20.8268,189.463,2.5392,0.0,0.0
248,61.75,54.7613,58.5257,133.211,98.3877,72.0471,0.0174525,0.188025,20.8278,189.432,2.77397,0.0,0.0
250,62.25,54.0513,58.2984,132.296,98.4122,73.3695,0.0172626,0.187358,20.8291,189.412,2.61427,0.0,0.0
252,62.75,54.7085,58.4098,133.318,98.417,72.7899,0.0170764,0.186818,20.8301,189.352,2.68531,0.0,0.0
254,63.25,54.8262,58.617,132.266,98.4391,74.2264,0.0168964,0.185698,20.8314,189.352,2.51333,0.0,0.0
256,63.75,54.7818,58.6963,129.363,98.4347,74.3527,0.0167506,0.184791,20.8329,189.302,2.49779,0.0,0.0
258,64.25,54.9004,58.6086,132.053,98.4491,74.0899,0.0165617,0.183815,20.8345,189.272,2.53063,0.0,0.0
260,64.75,54.5815,58.6288,134.54,98.4495,73.5819,0.0164087,0.182806,20.8363,189.242,2.59191,0.0,0.0
262,65.25,54.8788,58.5577,133.081,98.4728,76.3352,0.0162287,0.181818,20.8382,189.182,2.26698,0.0,0.0
264,65.75,55.0252,58.6936,130.608,98.4652,72.7954,0.016083,0.180864,20.8402,189.152,2.68899,0.0,0.0
266,66.25,54.6386,59.0036,132.576,98.4756,75.5517,0.0159649,0.180091,20.8418,189.122,2.35908,0.0,0.0
268,66.75,54.5521,58.4641,130.915,98.4812,73.3347,0.0158133,0.179022,20.8435,189.092,2.62473,0.0,0.0
270,67.25,55.058,58.6645,135,98.5126,75.0824,0.0156906,0.178156,20.845,189.072,2.4179,0.0,0.0
272,67.75,54.7268,58.7223,134.939,98.5045,76.3179,0.0155539,0.177174,20.8463,189.042,2.27187,0.0,0.0
274,68.25,54.8995,58.7535,133.4,98.5571,77.533,0.0154431,0.176378,20.8477,189.042,2.136,0.0,0.0
276,68.75,54.6078,58.7258,130.292,98.5471,73.0159,0.0153189,0.17554,20.849,188.992,2.66947,0.0,0.0
278,69.25,54.7257,58.562,129.041,98.5375,74.9442,0.0152183,0.174686,20.8503,188.972,2.43655,0.0,0.0
280,69.75,54.4985,58.4883,135.862,98.5387,76.7673,0.0151062,0.173995,20.8513,188.912,2.22269,0.0,0.0
282,70.25,54.9407,58.952,133.259,98.5531,74.9264,0.0150154,0.172979,20.8526,188.892,2.44008,0.0,0.0
284,70.75,54.7987,58.7897,135.788,98.5499,75.6933,0.0149237,0.172155,20.8536,188.862,2.34912,0.0,0.0
286,71.25,54.9145,58.7273,133.699,98.5636,76.3073,0.0148331,0.171194,20.8553,188.832,2.27844,0.0,0.0
288,71.75,54.8537,58.8256,134.565,98.5688,75.0582,0.0147367,0.170416,20.8568,188.802,2.42584,0.0,0.0
290,72.25,54.7682,58.8163,134.875,98.5832,76.0295,0.0146378,0.169623,20.8583,188.792,2.31268,0.0,0.0
292,72.75,54.4135,58.2283,128.917,98.5784,75.8621,0.0145578,0.168834,20.8596,188.762,2.33187,0.0,0.0
294,73.25,54.9327,58.6543,126.992,98.5893,75.0536,0.0144581,0.167964,20.8607,188.742,2.42824,0.0,0.0
296,73.75,54.9106,58.7234,134.189,98.5905,76.2064,0.014346,0.16705,20.862,188.712,2.29265,0.0,0.0
298,74.25,54.5608,58.3831,134.848,98.6029,78.1164,0.0142552,0.166055,20.863,188.702,2.0734,0.0,0.0
300,74.75,54.2699,58.7019,133.843,98.6085,75.8731,0.0141168,0.165021,20.8643,188.652,2.3333,0.0,0.0
302,75.25,54.8593,58.5913,133.223,98.6182,77.4753,0.0140048,0.164182,20.8658,188.642,2.14813,0.0,0.0
304,75.75,54.8789,58.8478,133.242,98.6322,77.3803,0.0138493,0.163272,20.8675,188.592,2.16032,0.0,0.0
306,76.25,54.2801,58.7,134.679,98.6318,76.6244,0.0137234,0.162327,20.8693,188.572,2.24768,0.0,0.0
308,76.75,54.4707,58.5003,136.333,98.6399,78.155,0.0135555,0.161561,20.8707,188.552,2.07234,0.0,0.0
310,77.25,54.4181,58.566,135.757,98.6531,77.1722,0.0134195,0.160561,20.8719,188.532,2.18619,0.0,0.0
312,77.75,54.1244,58.1151,134.626,98.6587,77.7916,0.0132436,0.159751,20.8731,188.512,2.11552,0.0,0.0
314,78.25,54.5179,58.6522,133.039,98.6648,76.802,0.0131011,0.159036,20.8743,188.482,2.23004,0.0,0.0
316,78.75,54.1822,58.6365,133.681,98.67,79.9132,0.0129318,0.158457,20.8752,188.452,1.877,0.0,0.0
318,79.25,54.5871,58.0945,133.552,98.6748,78.1444,0.0127946,0.157988,20.876,188.432,2.0767,0.0,0.0
320,79.75,54.4776,58.4472,129.809,98.6973,77.6487,0.0126532,0.157608,20.8766,188.402,2.13537,0.0,0.0
322,80.25,54.1867,58.1316,133.331,98.6989,79.0589,0.0125112,0.157242,20.8771,188.411,1.97529,0.0,0.0
324,80.75,54.1742,58.2044,130.702,98.6929,78.827,0.0123721,0.156945,20.8775,188.381,2.0009,0.0,0.0
326,81.25,54.3536,58.3721,132.074,98.6993,78.9643,0.0122377,0.156705,20.8778,188.381,1.98598,0.0,0.0
328,81.75,54.3372,58.0393,130.033,98.7017,78.4534,0.0121804,0.156511,20.8781,188.341,2.04398,0.0,0.0
330,82.25,54.1901,58.2192,135.048,98.7093,80.218,0.0120446,0.156345,20.8782,188.331,1.84665,0.0,0.0
332,82.75,54.2656,58.3078,136.796,98.7294,78.3559,0.0119004,0.156205,20.8784,188.281,2.05755,0.0,0.0
334,83.25,54.3206,57.7607,131.848,98.721,79.1496,0.0117837,0.156091,20.879,188.271,1.96707,0.0,0.0
336,83.75,54.34,58.2275,133.139,98.7383,79.1827,0.0116259,0.155881,20.8795,188.251,1.96491,0.0,0.0
338,84.25,54.2547,57.9923,132.9,98.7455,80.4305,0.0114412,0.155712,20.8794,188.231,1.82637,0.0,0.0
340,84.75,54.1609,58.2534,130.468,98.7507,79.2581,0.0112498,0.155516,20.8793,188.211,1.95755,0.0,0.0
342,85.25,54.4783,57.9417,132.398,98.7555,79.6122,0.0110571,0.155433,20.8797,188.191,1.91831,0.0,0.0
344,85.75,53.9599,58.2589,132.402,98.7716,80.5038,0.010975,0.15529,20.8799,188.171,1.82061,0.0,0.0
346,86.25,54.5014,58.0649,138.686,98.7619,81.5158,0.0107929,0.155036,20.8804,188.151,1.70852,0.0,0.0
348,86.75,53.7233,58.1346,135.513,98.7808,81.3882,0.0106455,0.154706,20.881,188.171,1.72417,0.0,0.0
350,87.25,53.8197,58.0012,132.504,98.776,80.734,0.010526,0.154385,20.8815,188.141,1.79558,0.0,0.0
352,87.75,54.0376,58.2981,133.172,98.7949,80.2286,0.010376,0.154077,20.8819,188.121,1.85318,0.0,0.0
354,88.25,53.827,57.7376,133.136,98.7965,81.6108,0.0102545,0.153827,20.8823,188.101,1.70127,0.0,0.0
356,88.75,53.5377,58.0907,136.741,98.8077,81.3526,0.0101068,0.153651,20.883,188.081,1.73049,0.0,0.0
358,89.25,53.9237,58.1358,134.281,98.8021,82.1395,0.00998717,0.153351,20.884,188.061,1.64428,0.0,0.0
360,89.75,54.1095,57.4999,133.188,98.8186,80.8358,0.00981385,0.152977,20.8851,188.031,1.7882,0.0,0.0
362,90.25,53.8987,57.9549,132.646,98.8061,82.6551,0.00967346,0.152557,20.8862,188.021,1.58894,0.0,0.0
364,90.75,53.8845,57.7361,134.192,98.821,84.2611,0.00948865,0.152217,20.887,188.011,1.41896,0.0,0.0
366,91.25,53.7101,57.8181,130.57,98.8334,80.2257,0.00933895,0.151796,20.8877,187.991,1.85699,0.0,0.0
368,91.75,54.0126,57.7565,134.032,98.8435,82.7318,0.00915833,0.151455,20.8883,187.981,1.58405,0.0,0.0
370,92.25,53.9251,57.6117,133.61,98.8366,83.2346,0.00901203,0.151056,20.8901,187.981,1.52949,0.0,0.0
372,92.75,53.5743,57.5944,135.767,98.8575,83.7294,0.0088664,0.150622,20.8916,187.971,1.4786,0.0,0.0
374,93.25,53.8382,57.5235,133.384,98.8563,83.8804,0.00872401,0.150148,20.8928,187.951,1.46246,0.0,0.0
376,93.75,53.6582,57.5176,133.858,98.8692,85.4139,0.00860868,0.149654,20.8937,187.951,1.30233,0.0,0.0
378,94.25,53.6147,57.589,131.871,98.8671,84.5888,0.00849968,0.14917,20.8945,187.921,1.38856,0.0,0.0
380,94.75,53.4739,57.4794,134.116,98.8712,83.6438,0.00839736,0.148702,20.8956,187.871,1.48894,0.0,0.0
382,95.25,54.6263,57.2341,134.065,98.8651,85.1349,0.00831448,0.148231,20.8965,187.891,1.33109,0.0,0.0
384,95.75,53.5777,57.4078,134.382,98.8908,85.3935,0.00822291,0.147767,20.8972,187.871,1.3064,0.0,0.0
386,96.25,53.1142,57.244,135.403,98.88,83.8011,0.00814873,0.147391,20.8977,187.871,1.47301,0.0,0.0
388,96.75,53.5768,57.5672,134.34,98.8973,85.9295,0.00804366,0.14684,20.8987,187.851,1.25129,0.0,0.0
390,97.25,53.4697,57.3721,131.074,98.8916,86.0838,0.00795855,0.146393,20.8999,187.851,1.23481,0.0,0.0
392,97.75,53.4034,57.2838,133.133,98.9153,86.1631,0.00782286,0.146031,20.9008,187.821,1.22874,0.0,0.0
394,98.25,53.3271,57.1208,133.277,98.9021,86.1919,0.00771296,0.145506,20.902,187.791,1.22457,0.0,0.0
396,98.75,53.5436,57.2588,138.463,98.9182,87.3939,0.00757202,0.14508,20.903,187.781,1.10273,0.0,0.0
398,99.25,53.1721,57.1988,131.964,98.9161,86.2936,0.00741115,0.144533,20.9043,187.781,1.21533,0.0,0.0
400,99.75,53.1896,57.3605,137.826,98.9278,87.7869,0.00724048,0.144089,20.9053,187.761,1.06365,0.0,0.0
402,100.25,53.1113,57.253,133.188,98.9278,87.1022,0.00706591,0.143638,20.9066,187.751,1.13336,0.0,0.0
404,100.75,53.3289,57.0711,135.704,98.9358,87.6911,0.00692451,0.14319,20.9076,187.751,1.07409,0.0,0.0
406,101.25,52.9577,56.9672,134.468,98.9362,88.2024,0.00677574,0.142713,20.9084,187.741,1.02237,0.0,0.0
408,101.75,53.4107,56.9362,136.4,98.9463,87.3383,0.00662441,0.142224,20.9095,187.731,1.11092,0.0,0.0
410,102.25,52.9456,56.9094,132.947,98.9515,88.6794,0.00650183,0.141744,20.9104,187.701,0.975732,0.0,0.0
412,102.75,52.9896,56.9401,135.364,98.9595,88.6849,0.00638216,0.141279,20.9112,187.691,0.9759,0.0,0.0
414,103.25,52.8587,56.8875,134.313,98.9459,88.4945,0.00628522,0.140903,20.9118,187.691,0.993802,0.0,0.0
416,103.75,52.9823,56.7443,135.046,98.9663,89.6575,0.00619269,0.140446,20.9127,187.701,0.879413,0.0,0.0
418,104.25,52.7781,56.8542,136.648,98.9675,90.321,0.00611774,0.139938,20.9139,187.681,0.81388,0.0,0.0
420,104.75,53.0349,56.9456,138.369,98.9704,89.7771,0.0060443,0.139345,20.9149,187.661,0.86791,0.0,0.0
422,105.25,52.5849,56.7483,138.919,98.9696,90.1803,0.00598481,0.138699,20.9157,187.651,0.827945,0.0,0.0
424,105.75,52.7998,56.6359,135.823,98.9808,91.1622,0.00594265,0.138176,20.9163,187.641,0.732545,0.0,0.0
426,106.25,52.8892,56.787,135.318,98.9667,88.9626,0.00591394,0.137392,20.9168,187.621,0.948717,0.0,0.0
428,106.75,52.6985,56.791,133.308,98.9864,88.9906,0.00589068,0.136756,20.9181,187.611,0.947687,0.0,0.0
430,107.25,51.8063,57.4548,132.317,98.9784,90.0976,0.00589195,0.135837,20.9192,187.601,0.836905,0.0,0.0
432,107.75,52.7875,56.7975,133.789,98.988,90.8998,0.00591109,0.135093,20.921,187.591,0.758861,0.0,0.0
434,108.25,52.9782,56.5264,133.065,98.9844,91.0528,0.00591925,0.134224,20.9217,187.571,0.743558,0.0,0.0
436,108.75,52.3264,56.2309,132.796,98.9936,90.8455,0.00594663,0.133282,20.923,187.611,0.764684,0.0,0.0
438,109.25,53.6544,56.6849,136.345,98.9957,92.5198,0.00598088,0.132518,20.9254,187.601,0.602283,0.0,0.0
440,109.75,52.6019,56.5857,133.844,98.9961,93.3156,0.00601803,0.1319,20.9273,187.601,0.526073,0.0,0.0
442,110.25,52.6408,56.0987,136.215,99.0077,92.9891,0.00605658,0.130234,20.9307,187.591,0.55832,0.0,0.0
444,110.75,52.5532,56.4518,136.062,99.0125,93.9592,0.00610259,0.128884,20.9334,187.561,0.466363,0.0,0.0
446,111.25,52.1845,55.9734,135.059,99.0081,93.4865,0.00615316,0.127901,20.9369,187.541,0.51087,0.0,0.0
448,111.75,52.7938,56.5976,135.37,99.0181,94.1008,0.00621363,0.12622,20.9398,187.511,0.453462,0.0,0.0
450,112.25,52.4829,56.2358,139.509,99.0109,93.9053,0.00628016,0.124858,20.943,187.531,0.471322,0.0,0.0
452,112.75,52.1379,55.9283,134.917,99.0246,93.6128,0.00633404,0.123125,20.9456,187.511,0.500327,0.0,0.0
454,113.25,52.1507,56.115,135.356,99.0238,95.3469,0.00642886,0.121443,20.9484,187.511,0.336855,0.0,0.0
456,113.75,52.3073,55.8558,133.185,99.025,95.226,0.00650566,0.11983,20.9514,187.501,0.348253,0.0,0.0
458,114.25,51.2427,55.6261,135.214,99.0218,95.5067,0.00661525,0.118267,20.954,187.501,0.321763,0.0,0.0
460,114.75,51.959,55.9752,141.432,99.0338,95.2379,0.00670402,0.116772,20.9563,187.491,0.347937,0.0,0.0
462,115.25,51.9869,55.536,137.114,99.0342,95.7496,0.00677593,0.11556,20.9582,187.501,0.300265,0.0,0.0
464,115.75,52.0102,55.5578,138.147,99.0378,95.4253,0.00688547,0.114208,20.9597,187.491,0.330799,0.0,0.0
466,116.25,51.1202,55.6749,137.401,99.0467,95.7581,0.00697419,0.113113,20.9609,187.481,0.300597,0.0,0.0
468,116.75,51.6136,55.7338,136.693,99.0374,95.8005,0.00705619,0.111983,20.9619,187.481,0.295825,0.0,0.0
470,117.25,51.8452,55.5581,136.235,99.0274,95.7602,0.00713173,0.111068,20.9636,187.451,0.298667,0.0,0.0
472,117.75,51.51,55.4505,139.058,99.0422,96.088,0.00719089,0.110237,20.965,187.441,0.269586,0.0,0.0
474,118.25,51.2501,55.1383,137.088,99.0471,95.8361,0.00723699,0.109483,20.9661,187.431,0.293383,0.0,0.0
476,118.75,51.4031,55.3631,137.611,99.0519,95.8976,0.00727568,0.108872,20.967,187.441,0.288107,0.0,0.0
478,119.25,52.2685,54.928,141.213,99.0515,96.3631,0.00730823,0.108355,20.9677,187.441,0.244959,0.0,0.0
480,119.75,50.8701,54.937,134.358,99.0599,96.0134,0.00734541,0.107916,20.9683,187.431,0.27809,0.0,0.0
482,120.25,51.4385,55.1051,135.09,99.0639,96.4746,0.00738527,0.107597,20.9688,187.421,0.235783,0.0,0.0
484,120.75,51.0267,55.1646,138.178,99.0679,96.191,0.00743716,0.107373,20.9692,187.421,0.262355,0.0,0.0
486,121.25,50.9894,54.918,138.674,99.0631,96.1821,0.00749684,0.107162,20.97,187.431,0.262746,0.0,0.0
488,121.75,51.2751,54.5367,136.838,99.0623,95.636,0.00754519,0.106963,20.9706,187.421,0.313363,0.0,0.0
490,122.25,51.0436,54.9824,135.19,99.074,95.8561,0.00760737,0.106735,20.9711,187.441,0.29395,0.0,0.0
492,122.75,51.211,54.4226,136.252,99.0764,95.9069,0.00767845,0.10649,20.9715,187.411,0.289442,0.0,0.0
494,123.25,50.5928,53.5467,135.008,99.0736,96.3084,0.00773602,0.106291,20.9718,187.411,0.251998,0.0,0.0
496,123.75,49.9692,53.7266,137.181,99.0703,96.0854,0.00778524,0.105931,20.9721,187.391,0.272348,0.0,0.0
498,124.25,50.5142,53.5892,138.409,99.0856,96.1842,0.0078251,0.105639,20.9723,187.36,0.26457,0.0,0.0
500,124.75,50.2342,53.8244,138.239,99.0732,96.9834,0.00783937,0.105312,20.9729,187.35,0.189787,0.0,0.0
502,125.25,50.0845,54.0467,136.864,99.0892,96.6107,0.00785093,0.104967,20.9734,187.33,0.225505,0.0,0.0
504,125.75,50.1248,53.643,134.138,99.086,95.5669,0.00783328,0.104688,20.9741,187.32,0.321928,0.0,0.0
506,126.25,50.3501,53.8516,139.161,99.0884,96.0579,0.00781899,0.104305,20.9748,187.32,0.276524,0.0,0.0
508,126.75,50.1735,54.159,135.071,99.0796,95.8891,0.00778299,0.103994,20.9754,187.34,0.291383,0.0,0.0
510,127.25,49.6224,53.5577,136.238,99.1113,95.7628,0.00775383,0.103601,20.9759,187.31,0.305972,0.0,0.0
512,127.75,50.1124,53.3592,134.186,99.0896,96.4021,0.00772481,0.103282,20.9763,187.31,0.244784,0.0,0.0
514,128.25,49.6956,53.3046,139.93,99.1029,96.9495,0.00769642,0.10291,20.9775,187.3,0.19557,0.0,0.0
516,128.75,49.8428,53.3202,137.245,99.0944,95.9939,0.00767344,0.102609,20.9785,187.29,0.283002,0.0,0.0
518,129.25,49.4703,53.4884,135.239,99.1085,96.1575,0.00764941,0.102283,20.9793,187.31,0.2691,0.0,0.0
520,129.75,49.7804,52.7961,135.628,99.1157,96.6913,0.00762508,0.101945,20.9799,187.29,0.220467,0.0,0.0
522,130.25,49.381,53.0084,140.322,99.1318,96.2474,0.00760537,0.101566,20.9804,187.31,0.262873,0.0,0.0
524,130.75,49.2985,52.7003,133.559,99.1157,96.573,0.0075813,0.101165,20.9809,187.29,0.231364,0.0,0.0
526,131.25,49.5299,53.07,139.304,99.1217,95.9192,0.0075545,0.10084,20.982,187.26,0.292378,0.0,0.0
528,131.75,49.2927,52.5322,135.757,99.1197,96.5734,0.00752401,0.100421,20.983,187.26,0.231686,0.0,0.0
530,132.25,49.2211,53.436,137.282,99.1358,96.1291,0.00749141,0.100081,20.9837,187.25,0.274183,0.0,0.0
532,132.75,49.5629,52.7503,137.533,99.1346,95.8781,0.00745488,0.0998063,20.9844,187.23,0.297349,0.0,0.0
534,133.25,49.4315,52.9275,136.276,99.1342,96.11,0.00741617,0.0995835,20.9851,187.22,0.275805,0.0,0.0
536,133.75,49.4836,52.5251,138.738,99.1302,96.1478,0.00736863,0.0992469,20.9859,187.22,0.27195,0.0,0.0
538,134.25,49.2676,52.3604,134.445,99.1442,96.4043,0.00731554,0.0989743,20.9866,187.18,0.249494,0.0,0.0
540,134.75,48.3812,52.1916,138.144,99.1338,96.5302,0.00725703,0.0986825,20.9871,187.19,0.236935,0.0,0.0
542,135.25,48.9034,52.7267,138.584,99.1454,96.5344,0.00719568,0.0984461,20.9875,187.18,0.23759,0.0,0.0
544,135.75,48.8105,52.966,133.803,99.1523,95.9608,0.00716953,0.0981554,20.9879,187.18,0.291262,0.0,0.0
546,136.25,49.3121,53.1535,135.822,99.1487,96.5285,0.0071248,0.09789,20.9887,187.17,0.238426,0.0,0.0
548,136.75,49.148,52.2255,136.975,99.1487,96.0634,0.00704122,0.0976482,20.9892,187.17,0.281424,0.0,0.0
550,137.25,48.5594,52.4115,134.677,99.1587,96.071,0.00697353,0.0974001,20.9897,187.15,0.281619,0.0,0.0
552,137.75,49.0238,52.4706,138.298,99.1623,96.3258,0.00687906,0.0971521,20.9901,187.15,0.258362,0.0,0.0
554,138.25,48.8633,51.8712,138.738,99.1691,96.7579,0.00680254,0.0969512,20.9904,187.12,0.219136,0.0,0.0
556,138.75,48.7086,51.6918,134.084,99.1611,96.0201,0.00672267,0.0968432,20.9907,187.13,0.286551,0.0,0.0
558,139.25,48.5643,52.3367,139.013,99.1639,96.0223,0.00665798,0.0966585,20.9909,187.12,0.286607,0.0,0.0
560,139.75,47.9435,52.5721,138.93,99.1643,96.0918,0.00660048,0.0964566,20.991,187.11,0.280199,0.0,0.0
562,140.25,48.7064,52.2866,136.815,99.1687,96.0638,0.0065539,0.0962461,20.9911,187.09,0.283188,0.0,0.0
564,140.75,48.5601,52.1849,142.074,99.1627,96.361,0.00652383,0.0960756,20.9913,187.08,0.255146,0.0,0.0
566,141.25,48.2691,51.8444,138.124,99.1856,96.6315,0.00649947,0.095895,20.9916,187.08,0.232245,0.0,0.0
568,141.75,48.4579,52.2278,136.189,99.1751,96.802,0.00649124,0.0957487,20.9921,187.09,0.21562,0.0,0.0
570,142.25,47.7937,51.7783,138.464,99.1872,96.6599,0.00648457,0.0955735,20.9924,187.07,0.229773,0.0,0.0
572,142.75,48.2728,51.6909,134.768,99.1764,96.2864,0.00648173,0.0954316,20.9926,187.07,0.263269,0.0,0.0
574,143.25,48.6371,51.813,142.967,99.1852,96.5768,0.00648582,0.0952741,20.9929,187.06,0.23725,0.0,0.0
576,143.75,48.1466,51.8431,135.548,99.1715,96.6201,0.00648913,0.0951466,20.9931,187.05,0.232039,0.0,0.0
578,144.25,48.1089,51.8678,134.434,99.1848,96.6074,0.00648848,0.0950149,20.9933,187.06,0.234401,0.0,0.0
580,144.75,48.4044,51.8925,139.693,99.1719,96.4395,0.00648498,0.0949083,20.9934,187.06,0.248731,0.0,0.0
582,145.25,47.8533,51.7257,134.172,99.1832,97.2077,0.0064781,0.0947652,20.9936,187.03,0.179104,0.0,0.0
584,145.75,47.4954,51.2698,140.691,99.1743,95.8896,0.0064689,0.0947043,20.9935,187.03,0.299856,0.0,0.0
586,146.25,48.5245,51.3685,132.679,99.1844,96.4412,0.00646279,0.0946,20.9934,187.01,0.249693,0.0,0.0
588,146.75,48.3265,51.2639,136.934,99.1884,96.2432,0.00645905,0.0945379,20.9934,187.01,0.268349,0.0,0.0
590,147.25,48.5854,52.1512,137.979,99.184,96.2504,0.00646073,0.0945077,20.9934,186.99,0.267286,0.0,0.0
592,147.75,48.0333,51.7216,139.681,99.1703,96.855,0.00646633,0.0944828,20.9933,187.01,0.210315,0.0,0.0
594,148.25,48.1279,51.7376,137.247,99.1739,96.1355,0.00647086,0.0944622,20.9933,187,0.277018,0.0,0.0
596,148.75,48.3158,51.8071,136.427,99.1792,96.7201,0.00648604,0.0944455,20.9933,186.99,0.223509,0.0,0.0
598,149.25,47.9558,51.3208,136.184,99.1852,96.8626,0.00649833,0.094432,20.9933,186.98,0.210948,0.0,0.0
600,149.75,47.9453,51.3399,134.744,99.178,96.6218,0.00650828,0.094436,20.9933,186.97,0.232459,0.0,0.0
602,150.25,48.0636,50.9927,138.582,99.1904,97.301,0.00651251,0.0944526,20.9932,186.97,0.171213,0.0,0.0
604,150.75,48.1449,51.1241,137.79,99.1804,96.8902,0.00651594,0.0944661,20.9932,186.97,0.207982,0.0,0.0
606,151.25,48.0239,51.4405,134.253,99.1868,96.6519,0.00650849,0.0944912,20.9932,186.96,0.230479,0.0,0.0
608,151.75,47.4942,50.7583,138.824,99.188,96.2432,0.00650246,0.0945115,20.9932,186.94,0.268314,0.0,0.0
610,152.25,47.6974,50.9301,135.561,99.1748,96.5577,0.00648224,0.0944832,20.9932,186.95,0.238071,0.0,0.0
612,152.75,47.8313,51.4432,135.07,99.1812,96.0575,0.00646587,0.09442,20.9932,186.94,0.284894,0.0,0.0
614,153.25,47.9408,51.1331,138.865,99.1832,96.5582,0.0064526,0.0943688,20.9932,186.93,0.23879,0.0,0.0
616,153.75,47.6311,51.0972,135.527,99.1739,96.6896,0.00641887,0.0943415,20.9932,186.94,0.22585,0.0,0.0
618,154.25,47.4043,50.9035,136.903,99.1796,96.7634,0.00639156,0.0943194,20.9933,186.93,0.219565,0.0,0.0
620,154.75,47.3714,50.8914,138.422,99.1739,97.1492,0.00636334,0.094259,20.9933,186.91,0.183635,0.0,0.0
622,155.25,48.0658,50.7334,133.382,99.1792,96.7549,0.00633501,0.0942101,20.9933,186.91,0.22031,0.0,0.0
624,155.75,47.5559,51.1079,133.259,99.1748,96.7532,0.00630937,0.0941705,20.9933,186.91,0.220069,0.0,0.0
626,156.25,47.8673,50.8854,136.304,99.1912,96.8291,0.00628619,0.0941309,20.9935,186.91,0.214567,0.0,0.0
628,156.75,46.6657,50.7208,135.983,99.1824,96.3135,0.00626741,0.0940922,20.9937,186.91,0.261301,0.0,0.0
630,157.25,47.1378,50.5992,139.413,99.1756,96.8507,0.00624951,0.0940608,20.9938,186.9,0.211174,0.0,0.0
632,157.75,47.4665,50.7499,136.912,99.1723,96.141,0.0062326,0.0940354,20.9939,186.89,0.276364,0.0,0.0
634,158.25,47.6278,50.5193,138.069,99.1751,96.5154,0.00621554,0.0940451,20.9939,186.87,0.242018,0.0,0.0
636,158.75,47.1528,50.8344,133.541,99.1687,96.6748,0.0061987,0.0940802,20.994,186.87,0.226748,0.0,0.0
638,159.25,47.577,50.804,144.464,99.1691,96.0112,0.00618506,0.0941087,20.9941,186.87,0.288097,0.0,0.0
640,159.75,47.2484,50.7968,136.467,99.1603,96.4751,0.00615871,0.0941601,20.9941,186.85,0.2444,0.0,0.0
642,160.25,47.4557,50.5707,136.289,99.1507,96.8829,0.00613737,0.0942017,20.9941,186.85,0.205977,0.0,0.0
644,160.75,46.9924,50.7467,139.459,99.1619,96.626,0.00609713,0.0942279,20.9942,186.83,0.230627,0.0,0.0
646,161.25,47.5177,50.5099,133.877,99.1603,96.3648,0.00606454,0.0942425,20.9942,186.82,0.254578,0.0,0.0
648,161.75,47.107,50.1842,139.878,99.1555,96.8414,0.00602031,0.0942543,20.9942,186.84,0.210227,0.0,0.0
650,162.25,46.9395,50.1191,139.246,99.1462,96.2457,0.00598448,0.0943063,20.9942,186.82,0.264329,0.0,0.0
652,162.75,47.0833,50.6276,140.834,99.149,97.033,0.00594272,0.0943485,20.9938,186.81,0.192051,0.0,0.0
654,163.25,47.291,50.3028,136.86,99.139,96.3445,0.0059089,0.0943543,20.9934,186.82,0.254547,0.0,0.0
656,163.75,47.4908,50.6086,136.242,99.141,96.6731,0.00587547,0.0943591,20.9931,186.82,0.224417,0.0,0.0
658,164.25,47.0347,50.2111,140.681,99.1286,96.5972,0.00584297,0.0943345,20.9934,186.81,0.230291,0.0,0.0
660,164.75,46.9042,50.2774,138.532,99.1406,96.5179,0.00581664,0.0943147,20.9935,186.8,0.238682,0.0,0.0
662,165.25,47.0804,49.902,140.469,99.1242,96.3127,0.00578386,0.0943127,20.9934,186.8,0.256152,0.0,0.0
664,165.75,47.0755,50.144,140.52,99.1185,95.9841,0.0057573,0.0943112,20.9931,186.78,0.28607,0.0,0.0
666,166.25,46.971,50.3293,135.125,99.1193,96.6417,0.00573795,0.0943398,20.993,186.78,0.22536,0.0,0.0
668,166.75,46.8992,50.4556,138.334,99.1065,96.7265,0.00570485,0.0943897,20.9933,186.78,0.216397,0.0,0.0
670,167.25,46.9766,50.2758,134.435,99.0964,96.6943,0.00566733,0.0944302,20.9935,186.78,0.218461,0.0,0.0
672,167.75,46.421,50.3584,137.436,99.1053,96.4123,0.0056273,0.094463,20.9932,186.78,0.245252,0.0,0.0
674,168.25,46.9207,49.9185,138.502,99.0848,96.6985,0.00558217,0.0944896,20.9929,186.77,0.217025,0.0,0.0
676,168.75,46.6839,49.694,133.526,99.0836,96.7066,0.00553417,0.094526,20.9927,186.77,0.216175,0.0,0.0
678,169.25,46.7237,50.2613,136.305,99.084,96.5684,0.00549529,0.0945486,20.9926,186.76,0.228943,0.0,0.0
680,169.75,46.8768,50.0241,135.479,99.078,96.7659,0.00544348,0.0946022,20.9925,186.77,0.210208,0.0,0.0
682,170.25,46.668,49.6775,137.85,99.0559,95.8612,0.0054015,0.094659,20.9924,186.75,0.291853,0.0,0.0
684,170.75,46.1109,49.6551,134.301,99.0563,96.6341,0.00536751,0.094705,20.9923,186.75,0.220399,0.0,0.0
686,171.25,46.4258,49.8666,135.887,99.0495,96.2779,0.00534251,0.0946998,20.9922,186.73,0.252655,0.0,0.0
688,171.75,46.7,49.6627,133.91,99.0422,96.0418,0.00532226,0.0946955,20.9922,186.73,0.273869,0.0,0.0
690,172.25,46.9609,49.9231,138.021,99.033,96.7044,0.00531094,0.0946846,20.9921,186.72,0.211823,0.0,0.0
692,172.75,46.2948,49.7997,136.556,99.0426,96.1766,0.00530177,0.0946691,20.9921,186.72,0.261416,0.0,0.0
694,173.25,46.4025,49.6447,137.26,99.0434,96.1363,0.00529308,0.0946565,20.9923,186.71,0.265217,0.0,0.0
696,173.75,46.5919,49.5632,137.57,99.0366,96.3882,0.00528603,0.0946463,20.9927,186.72,0.241312,0.0,0.0
698,174.25,46.4424,49.2461,137.478,99.0214,96.5929,0.0052816,0.0946381,20.993,186.72,0.221047,0.0,0.0
700,174.75,46.3878,49.5331,137.241,99.0193,96.4412,0.005278,0.0946314,20.9932,186.71,0.234867,0.0,0.0
702,175.25,46.0398,49.2923,135.777,99.0137,95.9934,0.00527255,0.0946259,20.9934,186.69,0.275787,0.0,0.0
704,175.75,46.6964,49.2496,138.733,99.0109,96.4657,0.00526814,0.0946357,20.9936,186.7,0.231839,0.0,0.0
706,176.25,46.503,49.4632,131.219,98.9997,96.3432,0.00526304,0.0946437,20.9938,186.69,0.242143,0.0,0.0
708,176.75,46.6945,49.6455,135.279,99.0117,96.5476,0.00525164,0.0946926,20.9938,186.69,0.224362,0.0,0.0
710,177.25,46.0026,48.9618,137.034,98.9944,96.1198,0.00523215,0.0947322,20.9939,186.68,0.262344,0.0,0.0
712,177.75,45.9492,49.4393,139.004,98.9924,96.4526,0.00521636,0.0947643,20.994,186.66,0.231391,0.0,0.0
714,178.25,46.047,49.3349,136.538,98.9868,96.411,0.00519155,0.0947903,20.9941,186.65,0.234721,0.0,0.0
716,178.75,46.3328,49.6053,136.346,98.9892,96.6095,0.00516064,0.0948114,20.9942,186.65,0.216635,0.0,0.0
718,179.25,46.2604,49.1516,136.67,98.9808,96.0791,0.00512625,0.0947984,20.9942,186.65,0.264886,0.0,0.0
720,179.75,46.1225,49.1367,135.995,98.9752,95.9447,0.00508998,0.0947714,20.9943,186.65,0.276842,0.0,0.0
722,180.25,46.4516,49.227,135.206,98.9527,95.6504,0.00505393,0.0947252,20.9943,186.65,0.302163,0.0,0.0
724,180.75,46.5762,49.1977,134.96,98.9583,95.8408,0.00501872,0.0946311,20.9943,186.64,0.28497,0.0,0.0
726,181.25,45.665,48.8467,138.727,98.9447,96.381,0.00498287,0.0945549,20.9943,186.63,0.233709,0.0,0.0
728,181.75,45.6387,48.6874,133.964,98.9507,95.8768,0.00494722,0.0945006,20.9944,186.6,0.280936,0.0,0.0
730,182.25,46.6537,49.599,136.196,98.9362,96.1287,0.00491834,0.0944634,20.9944,186.63,0.256281,0.0,0.0
732,182.75,46.1366,49.769,137.045,98.9467,96.6286,0.00488482,0.0944332,20.9944,186.62,0.211048,0.0,0.0
734,183.25,46.3029,49.4042,135.377,98.929,96.3271,0.00485766,0.0943804,20.9944,186.6,0.237275,0.0,0.0
736,183.75,46.2766,49.4252,137.915,98.931,96.2682,0.00483693,0.0943377,20.9944,186.59,0.242903,0.0,0.0
738,184.25,46.5555,49.2969,133.655,98.9113,96.283,0.00482014,0.0943314,20.9944,186.6,0.23976,0.0,0.0
740,184.75,46.2371,49.4701,137.149,98.9149,96.0685,0.00480387,0.0943263,20.9944,186.6,0.259943,0.0,0.0
742,185.25,45.8754,49.5025,138.737,98.9057,96.0435,0.0047883,0.0943222,20.9944,186.59,0.261431,0.0,0.0
744,185.75,45.5652,49.3721,137.232,98.9057,96.0502,0.00477568,0.0943188,20.9944,186.59,0.260802,0.0,0.0
746,186.25,46.0495,49.1424,140.51,98.8916,96.3046,0.00475026,0.0942878,20.9947,186.58,0.23599,0.0,0.0
748,186.75,46.3701,49.0349,137.128,98.8896,96.5319,0.00472967,0.0942626,20.9951,186.57,0.214827,0.0,0.0
750,187.25,46.2919,48.9288,140.683,98.8912,96.2249,0.00469527,0.0942199,20.9956,186.59,0.243325,0.0,0.0
752,187.75,46.2021,48.8139,135.151,98.8728,96.4819,0.0046674,0.0941651,20.9963,186.57,0.217923,0.0,0.0
754,188.25,46.2985,49.623,137.241,98.8764,95.8934,0.00463883,0.0941208,20.9968,186.56,0.272715,0.0,0.0
756,188.75,46.171,49.2163,138.943,98.8607,95.7539,0.0046103,0.0940991,20.9973,186.56,0.284264,0.0,0.0
758,189.25,46.1824,48.8342,136.665,98.8539,96.2092,0.00458919,0.0940814,20.9976,186.57,0.241413,0.0,0.0
760,189.75,46.6093,49.2397,137.989,98.8599,95.681,0.00457388,0.094053,20.9979,186.57,0.290974,0.0,0.0
762,190.25,45.8867,49.0539,135.369,98.8491,96.2754,0.00456149,0.09403,20.9982,186.56,0.234862,0.0,0.0
764,190.75,46.3937,48.9889,141.423,98.8419,95.8014,0.0045679,0.0939666,20.9983,186.57,0.27815,0.0,0.0
766,191.25,46.2729,48.8698,138.627,98.8439,95.9968,0.00457309,0.093875,20.9985,186.57,0.260187,0.0,0.0
768,191.75,45.8548,49.2483,134.339,98.8334,96.4246,0.0045773,0.0938231,20.9986,186.54,0.219662,0.0,0.0
770,192.25,46.1555,49.2689,139.21,98.8266,96.121,0.00458704,0.0938013,20.9987,186.53,0.247118,0.0,0.0
772,192.75,45.8856,49.4876,138.418,98.8382,96.0672,0.00459493,0.0937836,20.9988,186.52,0.253156,0.0,0.0
774,193.25,46.0619,49.0823,136.138,98.8258,96.4929,0.0045798,0.0937976,20.9989,186.52,0.212674,0.0,0.0
776,193.75,45.5756,48.955,138.934,98.821,96.5276,0.00456754,0.0938089,20.9989,186.51,0.209033,0.0,0.0
778,194.25,46.0634,48.8796,135.809,98.8145,96.3716,0.00453105,0.0938479,20.999,186.52,0.222856,0.0,0.0
780,194.75,46.0242,49.1732,137.578,98.8037,96.5103,0.00450149,0.0939063,20.999,186.51,0.209081,0.0,0.0
782,195.25,45.4884,48.5899,137.74,98.8242,96.3767,0.00445984,0.0939537,20.999,186.49,0.223254,0.0,0.0
784,195.75,45.9176,48.8821,137.616,98.8029,96.0774,0.00442611,0.0939353,20.9991,186.51,0.24903,0.0,0.0
786,196.25,45.974,48.811,137.631,98.8053,95.7802,0.00439546,0.0939205,20.9991,186.47,0.276828,0.0,0.0
788,196.75,45.9642,48.6801,137.687,98.8017,95.9523,0.00436764,0.093901,20.9991,186.48,0.260517,0.0,0.0
790,197.25,46.1368,48.5283,139.999,98.8045,96.0685,0.00434644,0.0938785,20.9991,186.46,0.249999,0.0,0.0
792,197.75,46.1037,49.1018,137.748,98.7941,96.1181,0.00433046,0.0938081,20.9996,186.47,0.244463,0.0,0.0
794,198.25,45.5291,49.0343,137.666,98.8013,96.5446,0.00431752,0.0937042,20.9999,186.46,0.205697,0.0,0.0
796,198.75,45.9088,48.993,139.866,98.7804,95.438,0.0043077,0.0936199,21.0002,186.47,0.306443,0.0,0.0
798,199.25,45.2449,48.946,135.529,98.7876,97,0.00430035,0.0935517,21.0005,186.47,0.162577,0.0,0.0
800,199.75,45.9051,48.4316,135.094,98.7804,96.2237,0.00429439,0.0935188,21.0007,186.49,0.233459,0.0,0.0
802,200.25,45.626,49.0422,136.956,98.7756,95.9727,0.00428956,0.0935123,21.0008,186.47,0.256277,0.0,0.0
804,200.75,45.8733,48.9694,130.002,98.7804,96.3369,0.00427175,0.093507,21.001,186.48,0.222993,0.0,0.0
806,201.25,45.7406,48.2763,138.052,98.7812,96.4636,0.00425733,0.0935027,21.0011,186.47,0.211358,0.0,0.0
808,201.75,45.5769,48.4473,134.945,98.77,96.3352,0.00422669,0.0934993,21.0011,186.46,0.222208,0.0,0.0
810,202.25,45.5869,48.8641,134.721,98.776,95.9803,0.00420188,0.0934964,21.0012,186.45,0.255605,0.0,0.0
812,202.75,45.5585,48.2337,136.376,98.7623,95.8836,0.00415653,0.0934345,21.0013,186.44,0.263346,0.0,0.0
814,203.25,45.8099,48.8485,135.991,98.7652,95.6572,0.0041198,0.0933307,21.0013,186.44,0.284645,0.0,0.0
816,203.75,45.968,48.4811,139.127,98.7635,95.9218,0.00406103,0.0932467,21.0014,186.42,0.259912,0.0,0.0
818,204.25,46.18,48.3273,135.881,98.7644,96.0553,0.0039845,0.0932494,21.0014,186.42,0.247598,0.0,0.0
820,204.75,45.8496,48.0803,135.561,98.7619,96.3373,0.00395847,0.0932516,21.0014,186.42,0.221288,0.0,0.0
822,205.25,45.6802,48.9351,137.992,98.7627,95.9133,0.00391396,0.0932675,21.0014,186.43,0.260627,0.0,0.0
824,205.75,45.4265,48.0176,144.331,98.7615,96.4187,0.00387791,0.0932804,21.0014,186.42,0.213732,0.0,0.0
826,206.25,45.7078,48.7393,135.932,98.7712,96.5026,0.0038651,0.0932767,21.0015,186.43,0.206854,0.0,0.0
828,206.75,45.8037,48.7595,137.495,98.7583,95.893,0.00385472,0.0932737,21.0015,186.41,0.262118,0.0,0.0
830,207.25,45.5584,48.0974,136.59,98.7684,96.3843,0.00386562,0.093256,21.0015,186.4,0.21752,0.0,0.0
832,207.75,45.8234,48.572,135.445,98.7599,96.0155,0.00389182,0.0932491,21.0015,186.4,0.250894,0.0,0.0
834,208.25,45.3322,48.4844,135.07,98.7567,96.1715,0.00392434,0.0932372,21.0015,186.4,0.23615,0.0,0.0
836,208.75,45.7406,47.9034,133.647,98.7459,96.5421,0.00396085,0.0932417,21.0013,186.38,0.200936,0.0,0.0
838,209.25,44.8078,48.0729,139.557,98.7531,96.2135,0.00398976,0.0932453,21.0012,186.38,0.23194,0.0,0.0
840,209.75,44.942,47.7407,135.24,98.7419,95.575,0.00401257,0.0932781,21.0011,186.37,0.290203,0.0,0.0
842,210.25,45.5682,48.6784,139.786,98.7487,96.2559,0.00402241,0.0933315,21.001,186.37,0.227619,0.0,0.0
844,210.75,45.8926,48.607,137.894,98.7411,95.8658,0.00402261,0.0933071,21.0009,186.36,0.26308,0.0,0.0
846,211.25,45.6979,48.3343,140.621,98.7543,95.5936,0.00402277,0.0932266,21.0009,186.36,0.289588,0.0,0.0
848,211.75,45.5968,48.1964,136.444,98.7386,95.6318,0.00400775,0.0931093,21.0008,186.34,0.284623,0.0,0.0
850,212.25,45.4637,47.929,139.664,98.7471,95.6848,0.00399559,0.0929673,21.0008,186.329,0.280452,0.0,0.0
852,212.75,45.3345,49.1671,135.811,98.7463,95.7509,0.00398574,0.0928523,21.0008,186.329,0.274228,0.0,0.0
854,213.25,44.9453,48.3225,136.67,98.7463,96.1317,0.00398028,0.0927591,21.0007,186.319,0.238898,0.0,0.0
856,213.75,44.9609,48.5393,139.074,98.729,95.9141,0.00398848,0.0926837,21.0007,186.34,0.257507,0.0,0.0
858,214.25,44.9517,48.346,139.974,98.7391,96.3029,0.00400649,0.092665,21.0007,186.319,0.222399,0.0,0.0
860,214.75,45.0613,48.0335,137.157,98.7306,96.9495,0.00403637,0.0926499,21.0007,186.319,0.162068,0.0,0.0
862,215.25,45.2218,47.4282,134.371,98.7354,95.5695,0.00407433,0.0926376,21.0007,186.34,0.290137,0.0,0.0
864,215.75,45.2556,48.1991,140.04,98.7326,96.3263,0.00411107,0.0926277,21.0007,186.319,0.219665,0.0,0.0
866,216.25,45.3171,47.9041,142.266,98.7423,96.9733,0.00412957,0.0926346,21.0007,186.319,0.160938,0.0,0.0
868,216.75,45.4795,47.8263,137.12,98.7282,96.6595,0.0041707,0.0926536,21.0007,186.319,0.188521,0.0,0.0
870,217.25,45.1717,47.7835,135.424,98.7358,95.8866,0.00417924,0.0926689,21.0007,186.299,0.260681,0.0,0.0
872,217.75,45.286,47.5971,136.558,98.7266,96.2025,0.00419385,0.0926531,21.0007,186.279,0.23057,0.0,0.0
874,218.25,45.4674,47.9,140.636,98.7519,96.2563,0.00417905,0.0926402,21.0007,186.289,0.227869,0.0,0.0
876,218.75,45.7678,47.7944,137.307,98.725,96.2737,0.00414309,0.092559,21.0002,186.289,0.223836,0.0,0.0
878,219.25,45.1057,48.2511,133.466,98.729,96.1664,0.00411396,0.0925244,20.9998,186.289,0.234123,0.0,0.0
880,219.75,45.5915,48.2238,135.031,98.7178,96.0859,0.00402604,0.0923795,20.9999,186.289,0.24057,0.0,0.0
882,220.25,45.5623,48.0984,137.592,98.7607,95.5309,0.00395483,0.0923405,21.0002,186.279,0.296012,0.0,0.0
884,220.75,44.9424,48.396,133.617,98.723,96.0905,0.00387196,0.0922966,21.0004,186.279,0.240609,0.0,0.0
886,221.25,45.1878,48.3951,139.981,98.731,96.13,0.00378217,0.0922816,21.0006,186.269,0.23768,0.0,0.0
888,221.75,45.4579,48.2725,137.772,98.7294,96.0719,0.00370944,0.0922695,21.0008,186.259,0.242916,0.0,0.0
890,222.25,45.0911,48.4141,136.809,98.7314,96.0664,0.00359519,0.0922313,21.0009,186.279,0.243608,0.0,0.0
892,222.75,45.2178,47.3977,137.934,98.7242,96.1779,0.00350264,0.0922004,21.001,186.259,0.23263,0.0,0.0
894,223.25,45.2451,48.257,136.415,98.7383,96.1024,0.00342768,0.0921754,21.0011,186.249,0.240885,0.0,0.0
896,223.75,45.4002,48.1838,136.484,98.7234,95.4702,0.00331673,0.0921551,21.0017,186.249,0.298297,0.0,0.0
898,224.25,45.3447,48.4184,137.62,98.7186,95.9226,0.00322686,0.0921387,21.0025,186.239,0.255778,0.0,0.0
900,224.75,45.6618,48.1874,136.473,98.7226,96.4488,0.00315406,0.0920971,21.0032,186.239,0.207442,0.0,0.0
902,225.25,45.3146,48.313,138.703,98.7242,95.9167,0.00309509,0.0920634,21.0038,186.249,0.256836,0.0,0.0
904,225.75,45.2175,48.2072,137.616,98.7234,95.9862,0.00307495,0.0920361,21.0042,186.249,0.250312,0.0,0.0
906,226.25,45.2469,48.2217,138.455,98.723,96.2186,0.00305864,0.0919291,21.0046,186.239,0.228754,0.0,0.0
908,226.75,45.4642,48.2269,138.266,98.7154,96.5298,0.00304543,0.0918424,21.0049,186.259,0.199319,0.0,0.0
910,227.25,45.3647,47.7932,136.87,98.7198,96.7121,0.00308248,0.0917863,21.0051,186.239,0.182919,0.0,0.0
912,227.75,45.0593,47.506,140.839,98.7125,95.773,0.0031125,0.0917409,21.0053,186.239,0.269137,0.0,0.0
914,228.25,45.0269,48.0955,131.655,98.7206,95.7564,0.00314939,0.0916892,21.0055,186.249,0.271398,0.0,0.0
916,228.75,44.8582,48.0144,134.89,98.723,95.834,0.00317927,0.091634,21.0056,186.249,0.264405,0.0,0.0
918,229.25,45.2155,47.7878,138.147,98.7146,95.89,0.00319486,0.0915892,21.0057,186.229,0.258447,0.0,0.0
920,229.75,45.1581,47.8459,137.237,98.7318,96.3216,0.00319975,0.0914398,21.0058,186.229,0.220023,0.0,0.0
922,230.25,45.274,47.9054,135.527,98.7093,96.0562,0.00317103,0.0913187,21.0059,186.219,0.242559,0.0,0.0
924,230.75,45.0371,47.7785,137.269,98.7238,95.5033,0.00314777,0.0912281,21.0059,186.189,0.295252,0.0,0.0
926,231.25,45.1552,47.8993,139.098,98.7146,96.3657,,0.0911614,,186.279,0.214391,0.0,0.0
928,231.75,45.5728,47.9609,135.864,98.7206,96.3229,,0.0911372,,186.229,0.218891,0.0,0.0
930,232.25,45.6752,48.3679,134.531,98.7182,95.8722,,0.0911444,,186.249,0.260426,0.0,0.0
932,232.75,44.9641,47.8935,142.748,98.7246,96.0036,,0.0911502,,186.269,0.248809,0.0,0.0
934,233.25,45.6331,48.3023,138.304,98.7222,96.0193,,0.0911549,,186.259,0.247138,0.0,0.0
936,233.75,45.0991,48.1171,135.535,98.7101,95.8039,,0.0911885,,186.259,0.266042,0.0,0.0
938,234.25,44.8425,47.6567,138.043,98.717,96.6167,,,,186.249,0.191451,0.0,0.0
940,234.75,45.2749,47.8929,137.175,98.7178,95.9951,,,,186.259,0.248979,0.0,0.0
942,235.25,44.9779,48.1456,134.4,98.7234,95.9337,,,,186.259,0.255189,0.0,0.0
944,235.75,44.7414,47.6965,136.432,98.7374,95.5241,,,,186.239,0.294545,0.0,0.0
946,236.25,44.8701,47.8338,139.091,98.7435,95.3562,,,,186.219,0.31075,0.0,0.0
948,236.75,44.9605,47.8767,134.264,98.7491,95.6576,,,,186.209,0.283157,0.0,0.0
950,237.25,44.971,48.0558,136.889,98.7551,95.9502,,,,186.189,0.256516,0.0,0.0
952,237.75,45.0585,47.3837,135.216,98.7515,95.7814,,,,186.159,0.271861,0.0,0.0
954,238.25,45.1162,47.77,137.01,98.7603,95.9595,,,,186.159,0.256122,0.0,0.0
956,238.75,45.2473,47.9749,136.157,98.7559,95.4647,,,,186.149,0.301745,0.0,0.0
958,239.25,45.2866,47.4752,137.297,98.7591,95.859,,,,186.119,0.26534,0.0,0.0
960,239.75,45.2006,47.7285,135.671,98.7716,95.9417,,,,186.109,0.258787,0.0,0.0
962,240.25,45.358,47.4932,135.835,98.782,96.1626,,,,186.119,0.239255,0.0,0.0
964,240.75,44.9526,47.5771,135.054,98.7941,95.8832,,,,186.119,0.266244,0.0,0.0
966,241.25,45.6634,47.4932,135.358,98.782,96.3059,,,,186.119,0.225998,0.0,0.0
968,241.75,45.1829,47.5035,136.959,98.7888,95.8997,,,,186.129,0.264239,0.0,0.0
969,242,44.734,47.8105,134.52,98.8117,96.4836,,,,186.129,0.212269,0.0,0.0