File: 01_Data/Vinyl_Siding/Cone/Vinyl_Siding_Cone_HF75Scan_220331_R1.csv
Names,Time,Stack TC,Smoke TC,Exh Press,Smoke Comp,Smoke Meas,CO Meter,CO2 Meter,O2 Meter,Sample Mass,Ext Coeff,Start Test,Flame Verif
Chan Gain,,500,500,1,1,1,1,1,1,1,1,1.0,1.0
Offset,,0,0,0.133521,0,0,0,0,0,0,0,0.0,0.0
Gain,,1,1,25.011,13.1585,13.8929,1,1,1,1.00096,1.01488,1.0,1.0
Units,sec,C,C,Pa,%,%,%,%,%,g,/m,,
Baseline,,39.7497,41.9413,140.921,99.3856,96.9075,0.000689102,0.0637954,21.0383,-835.32,0.224858,,
2,0.25,36.824,38.782,143.572,99.7072,97.5117,0.000559918,0.068984,21.0314,191.394,0.19822,0.0,0.0
4,0.75,36.7685,38.5259,143.086,99.702,97.2111,0.000553482,0.0689318,21.0315,191.344,0.225241,0.0,0.0
6,1.25,36.7235,38.4363,142.235,99.7056,96.9652,0.000550227,0.068863,21.0316,191.364,0.248111,0.0,0.0
8,1.75,36.6112,38.6672,139.049,99.7052,97.393,0.000549353,0.0687933,21.0317,191.374,0.208886,0.0,0.0
10,2.25,36.784,38.9771,145.167,99.7088,97.0182,0.000548645,0.0686685,21.0317,191.384,0.243535,0.0,0.0
12,2.75,36.8185,38.6579,139.55,99.7056,97.4752,0.000567926,0.068607,21.0318,191.404,0.201406,0.0,0.0
14,3.25,36.9617,38.368,142.902,99.7112,96.8817,0.000583543,0.0685018,21.0318,191.394,0.256286,0.0,0.0
16,3.75,36.9242,38.6887,142.312,99.7016,96.8991,0.000604687,0.0683466,21.0318,191.384,0.253827,0.0,0.0
18,4.25,36.6265,39.1688,138.751,99.7084,97.3281,0.000629458,0.0682208,21.0319,191.344,0.215104,0.0,0.0
20,4.75,37.036,38.7468,142.603,99.696,97.884,0.000668485,0.068119,21.0319,191.324,0.163295,0.0,0.0
22,5.25,36.774,39.0074,140.898,99.7008,97.0436,0.000717163,0.0679945,21.0319,191.314,0.240483,0.0,0.0
24,5.75,36.9235,39.4354,141.428,99.7048,97.4718,0.000786706,0.0678936,21.0317,191.304,0.201644,0.0,0.0
26,6.25,37.0782,38.8889,145.324,99.6968,96.7252,0.00087014,0.0678193,21.0313,191.304,0.269382,0.0,0.0
28,6.75,37.1996,39.2532,141.501,99.7088,96.3585,0.000954909,0.0677657,21.0311,191.304,0.304276,0.0,0.0
30,7.25,37.215,39.0061,142.616,99.7128,96.0252,0.00116166,0.0678403,21.0301,191.314,0.335477,0.0,0.0
32,7.75,37.3223,38.9,135.782,99.7008,93.235,0.00121728,0.068007,21.0298,191.314,0.596913,0.0,0.0
34,8.25,37.4668,39.3781,138.602,99.7177,88.4301,0.00145367,0.0684076,21.0291,191.254,1.06946,0.0,0.0
36,8.75,37.4824,39.4223,139.562,99.7052,83.3665,0.00164514,0.0689712,21.0283,191.144,1.59329,0.0,0.0
38,9.25,37.4561,38.9396,139.129,99.7076,79.828,0.00189408,0.069812,21.0277,190.994,1.97963,0.0,0.0
40,9.75,37.2305,39.1544,142.869,99.7092,73.7541,0.00218017,0.0703524,21.0258,190.844,2.68429,0.0,0.0
42,10.25,37.4768,39.1825,137.793,99.7141,68.038,0.00251417,0.0722778,21.0243,190.724,3.40289,0.0,0.0
44,10.75,37.4931,38.805,138.888,99.7161,61.8793,0.00287676,0.0731788,21.0226,190.584,4.24774,0.0,0.0
46,11.25,37.4765,39.2583,139.848,99.7157,55.8223,0.00317045,0.0747196,21.0208,190.423,5.16476,0.0,0.0
48,11.75,37.4444,39.4633,138.801,99.708,50.3106,0.00423808,0.0766062,21.0191,190.293,6.08957,0.0,0.0
50,12.25,38.0013,39.6063,137.72,99.7145,50.7778,0.00510285,0.0787089,21.0175,190.133,6.00785,0.0,0.0
52,12.75,37.5641,39.4844,135.66,99.71,46.3053,0.00651057,0.0804122,21.0163,189.983,6.8283,0.0,0.0
54,13.25,38.0553,39.8466,138.994,99.7145,42.8452,0.00828736,0.0840011,21.0121,189.813,7.52008,0.0,0.0
56,13.75,37.8409,40.2137,138.55,99.7241,47.4212,0.0108284,0.0869081,21.0087,189.663,6.61755,0.0,0.0
58,14.25,38.6198,40.373,136.515,99.7149,42.1978,0.0138783,0.0973685,20.9828,189.543,7.65566,0.0,0.0
60,14.75,38.433,40.4278,144.343,99.7124,48.755,0.0175412,0.105841,20.9617,189.412,6.36957,0.0,0.0
62,15.25,38.3324,41.014,124.291,99.7169,50.6324,0.0215813,0.121385,20.9018,189.192,6.03359,0.0,0.0
64,15.75,38.4024,40.1395,124.719,99.7068,40.3123,0.0248539,0.141788,20.8532,189.182,8.06188,0.0,1.0
66,16.25,38.8772,40.8802,119.79,99.7189,32.7604,0.0287917,0.166559,20.8139,188.752,9.90965,0.0,1.0
68,16.75,38.5727,40.9664,121.187,99.7173,25.9988,0.0331398,0.194045,20.7512,188.752,11.9675,0.0,1.0
70,17.25,38.9653,41.2346,124.133,99.7233,28.0695,0.0372341,0.222105,20.7005,188.462,11.2858,0.0,1.0
72,17.75,39.7432,41.6405,126.422,99.7096,28.9501,0.0410655,0.250049,20.645,188.442,11.0096,0.0,1.0
74,18.25,40.2333,41.877,120.245,99.7277,28.1399,0.0441689,0.272685,20.6002,188.221,11.2639,0.0,1.0
76,18.75,40.8639,42.9482,122.335,99.7225,28.3833,0.0470256,0.298108,20.5638,188.011,11.1868,0.0,1.0
78,19.25,40.801,43.0163,125.505,99.7149,33.7809,0.0493395,0.318701,20.5343,188.011,9.6362,0.0,1.0
80,19.75,41.1649,43.5785,124.839,99.7197,31.3888,0.0512138,0.336795,20.5105,187.761,10.2905,0.0,1.0
82,20.25,41.8094,43.9589,125.275,99.7237,33.7351,0.0523605,0.352723,20.4922,187.731,9.64907,0.0,1.0
84,20.75,41.6175,44.1096,118.931,99.7197,31.318,0.0532893,0.365624,20.4783,187.571,10.3106,0.0,0.0
86,21.25,42.4434,44.416,127.667,99.7233,34.2698,0.0535548,0.375504,20.4675,187.401,9.50905,0.0,0.0
88,21.75,42.4355,44.8578,128.332,99.7209,34.2685,0.0537699,0.383507,20.4592,187.33,9.50916,0.0,0.0
90,22.25,43.2162,45.422,126.249,99.7237,33.8852,0.0533706,0.389989,20.456,187.15,9.60955,0.0,0.0
92,22.75,43.5947,45.7271,132.657,99.7116,36.5186,0.0530472,0.391502,20.4566,187.1,8.9422,0.0,0.0
94,23.25,43.6634,46.1855,131.329,99.7381,37.0222,0.0527852,0.392727,20.4571,187,8.82261,0.0,0.0
96,23.75,44.2411,46.3635,131.618,99.7124,38.6779,0.0518424,0.390401,20.4622,186.85,8.43084,0.0,0.0
98,24.25,44.6974,46.5125,131.885,99.7185,40.6299,0.0510787,0.388516,20.4707,186.79,7.99306,0.0,0.0
100,24.75,44.9752,47.3601,132.252,99.7141,41.9696,0.0500035,0.383592,20.4812,186.65,7.70384,0.0,0.0
102,25.25,45.79,47.6479,128.731,99.7185,45.5209,0.0491326,0.379604,20.4928,186.59,6.98114,0.0,0.0
104,25.75,44.8147,48.1725,129.05,99.7189,45.2491,0.047996,0.376373,20.5055,186.5,7.03448,0.0,0.0
106,26.25,45.0322,47.8464,126.21,99.7361,46.4486,0.0470753,0.369384,20.5187,186.42,6.80312,0.0,0.0
108,26.75,45.4501,48.694,128.957,99.7217,52.3168,0.0460005,0.363723,20.5328,186.299,5.74267,0.0,0.0
110,27.25,46.1478,48.6327,129.319,99.7277,52.1757,0.04513,0.356139,20.5471,186.219,5.76727,0.0,0.0
112,27.75,45.475,49.4836,124.482,99.7161,53.0372,0.0441366,0.349995,20.5603,186.149,5.62043,0.0,0.0
114,28.25,45.8098,48.9059,131.943,99.7333,55.5836,0.043332,0.343113,20.5726,186.049,5.20449,0.0,0.0
116,28.75,46.6556,48.509,129.441,99.7221,56.6296,0.0425001,0.337538,20.5825,185.979,5.03752,0.0,0.0
118,29.25,46.6454,49.8821,131.875,99.7297,60.8024,0.0416642,0.332051,20.5936,185.859,4.40526,0.0,0.0
120,29.75,46.6427,50.0391,128.978,99.7177,57.5208,0.040987,0.326732,20.6026,185.789,4.89811,0.0,0.0
122,30.25,46.6553,49.9482,132.5,99.7289,58.7359,0.0400945,0.320652,20.6118,185.719,4.71301,0.0,0.0
124,30.75,46.6426,50.6064,130.027,99.7237,58.4832,0.0393714,0.315728,20.621,185.649,4.75093,0.0,0.0
126,31.25,47.5416,50.565,130.107,99.7381,61.7063,0.0385661,0.310855,20.6293,185.609,4.27463,0.0,0.0
128,31.75,47.143,50.9269,129.256,99.7257,63.7172,0.0379137,0.306112,20.6369,185.499,3.98803,0.0,0.0
130,32.25,47.3188,50.6821,127.371,99.7385,60.8185,0.0373853,0.302269,20.6431,185.459,4.40369,0.0,0.0
132,32.75,47.0693,50.9116,134.212,99.7313,61.0491,0.0367227,0.297753,20.649,185.399,4.36934,0.0,0.0
134,33.25,48.0235,50.8613,130.027,99.7377,60.7672,0.0361859,0.294095,20.6547,185.329,4.41113,0.0,0.0
136,33.75,48.1958,51.24,134.339,99.7369,60.9109,0.0355897,0.290619,20.6592,185.238,4.39002,0.0,0.0
138,34.25,48.4098,51.5246,134.132,99.7438,58.8236,0.0351068,0.287343,20.6646,185.148,4.70105,0.0,0.0
140,34.75,48.4459,51.8027,127.996,99.7422,56.337,0.03464,0.284383,20.6689,185.058,5.08542,0.0,0.0
142,35.25,48.5598,51.6285,128.269,99.7418,53.6859,0.0341938,0.281712,20.6728,185.028,5.5145,0.0,0.0
144,35.75,49.1239,51.5123,128.229,99.7446,54.3456,0.0337728,0.279548,20.676,184.918,5.40602,0.0,0.0
146,36.25,48.5373,51.7695,129.686,99.7482,56.4282,0.0333782,0.277324,20.6786,184.878,5.07156,0.0,0.0
148,36.75,48.8311,51.779,133.204,99.7462,54.2192,0.0330586,0.275523,20.6807,184.808,5.42689,0.0,0.0
150,37.25,49.1022,52.1446,132.633,99.7478,57.0111,0.032717,0.273743,20.6824,184.708,4.98003,0.0,0.0
152,37.75,49.0241,52.4032,130.861,99.7626,57.3635,0.0323659,0.272014,20.6851,184.668,4.92651,0.0,0.0
154,38.25,49.3051,52.5568,131.444,99.7522,56.8216,0.0320193,0.270284,20.6873,184.638,5.01006,0.0,0.0
156,38.75,49.4861,52.8629,131.497,99.7478,58.7189,0.0316825,0.268589,20.6898,184.578,4.71727,0.0,0.0
158,39.25,49.5282,52.8326,131.132,99.7486,56.6656,0.0314097,0.267215,20.6925,184.488,5.03422,0.0,0.0
160,39.75,50.1006,52.5938,134.592,99.7514,54.165,0.0310185,0.265702,20.6949,184.438,5.43627,0.0,0.0
162,40.25,49.5883,53.0279,130.241,99.7546,57.2185,0.0307015,0.264115,20.697,184.378,4.94832,0.0,0.0
164,40.75,49.708,52.7932,131.027,99.7546,54.923,0.0302949,0.262454,20.6997,184.318,5.31282,0.0,0.0
166,41.25,49.8778,53.2701,132.278,99.7478,56.856,0.0299655,0.260771,20.7027,184.268,5.00429,0.0,0.0
168,41.75,50.2505,53.1463,131.068,99.7719,56.044,0.0295212,0.259408,20.7051,184.207,5.13449,0.0,0.0
170,42.25,50.2659,53.5762,136.427,99.7654,55.6052,0.0291612,0.257593,20.7076,184.177,5.2039,0.0,0.0
172,42.75,49.9852,53.811,133.491,99.7646,56.8259,0.0288697,0.256122,20.71,184.087,5.01051,0.0,0.0
174,43.25,50.4402,53.9228,133.92,99.7763,56.3468,0.0284874,0.254359,20.7119,184.027,5.08693,0.0,0.0
176,43.75,50.8613,53.4345,133.394,99.7691,58.6617,0.0280463,0.252932,20.7145,183.957,4.72785,0.0,0.0
178,44.25,50.6895,54.2365,134.477,99.7614,55.3818,0.027689,0.251221,20.7166,183.907,5.23938,0.0,0.0
180,44.75,51.0295,53.9505,134.167,99.7803,58.6812,0.0272969,0.249835,20.7191,183.847,4.72589,0.0,0.0
182,45.25,51.2441,54.4317,131.404,99.7727,58.6108,0.0268868,0.248712,20.7216,183.837,4.7359,0.0,0.0
184,45.75,50.8056,54.2535,136.311,99.7695,58.5476,0.0264822,0.247294,20.7237,183.787,4.74521,0.0,0.0
186,46.25,50.7267,54.536,131.412,99.7723,57.5089,0.0260893,0.245686,20.7263,183.717,4.90483,0.0,0.0
188,46.75,51.1286,54.4667,129.4,99.7747,57.3406,0.0256924,0.244383,20.7284,183.667,4.93113,0.0,0.0
190,47.25,51.2433,54.7139,132.211,99.7823,59.1404,0.0254859,0.242731,20.73,183.627,4.65668,0.0,0.0
192,47.75,51.2138,55.33,133.536,99.7799,60.0795,0.0251329,0.241392,20.7328,183.577,4.51621,0.0,0.0
194,48.25,51.0503,54.7159,134.211,99.7739,59.1845,0.0247199,0.24009,20.7354,183.517,4.6493,0.0,0.0
196,48.75,51.0631,54.5473,131.951,99.7815,58.5141,0.024318,0.23884,20.7376,183.447,4.75138,0.0,0.0
198,49.25,51.2361,55.0207,131.155,99.7863,60.6434,0.0239318,0.237683,20.7402,183.417,4.43362,0.0,0.0
200,49.75,51.5064,54.9853,133.187,99.7903,59.2663,0.0236191,0.236615,20.7424,183.367,4.63846,0.0,0.0
202,50.25,51.445,54.8076,130.944,99.7831,60.3966,0.0231984,0.23616,20.7441,183.337,4.46963,0.0,0.0
204,50.75,51.9116,55.3381,129.983,99.7831,61.2505,0.0228577,0.235167,20.7455,183.307,4.34465,0.0,0.0
206,51.25,51.8345,55.2332,130.019,99.7887,61.8945,0.0224717,0.234227,20.7466,183.206,4.25203,0.0,0.0
208,51.75,51.6855,55.2983,129.223,99.7932,60.0112,0.0220601,0.233342,20.7485,183.206,4.52752,0.0,0.0
210,52.25,51.6767,56.0011,136.536,99.7912,64.4155,0.0216509,0.232626,20.7499,183.146,3.89684,0.0,0.0
212,52.75,51.6759,55.3107,135.319,99.7956,62.4915,0.0212511,0.231466,20.7525,183.106,4.16719,0.0,0.0
214,53.25,51.8742,55.7665,132.944,99.7827,62.6806,0.0208531,0.230527,20.7545,183.076,4.13915,0.0,0.0
216,53.75,52.1945,55.7708,132.072,99.8028,64.4464,0.020464,0.229318,20.7569,183.046,3.8936,0.0,0.0
218,54.25,51.7502,55.7577,131.582,99.7976,63.5582,0.0201488,0.227936,20.7594,183.016,4.01669,0.0,0.0
220,54.75,52.3138,55.8708,132.572,99.8012,65.9414,0.0197475,0.226816,20.7627,182.986,3.68931,0.0,0.0
222,55.25,52.0404,55.8041,130.951,99.798,64.6762,0.0194225,0.224954,20.7664,182.926,3.86148,0.0,0.0
224,55.75,52.0694,55.5589,130.711,99.804,66.9861,0.0190462,0.222984,20.7704,182.896,3.54962,0.0,0.0
226,56.25,51.9051,55.7943,130.215,99.7871,66.694,0.0187413,0.220973,20.7746,182.876,3.58703,0.0,0.0
228,56.75,52.077,55.9097,134.581,99.8024,68.0359,0.0183829,0.219344,20.7786,182.816,3.41105,0.0,0.0
230,57.25,52.1145,56.1284,134.632,99.7964,68.4255,0.0180926,0.216986,20.7826,182.796,3.35967,0.0,0.0
232,57.75,52.344,56.1025,136.822,99.8052,69.6716,0.0178574,0.215076,20.7858,182.796,3.1998,0.0,0.0
234,58.25,52.5774,55.9569,132.307,99.7972,70.4627,0.0174716,0.212793,20.7888,182.746,3.09856,0.0,0.0
236,58.75,52.3691,56.2174,133.41,99.8217,71.0592,0.0171591,0.210943,20.7918,182.716,3.02569,0.0,0.0
238,59.25,52.4577,56.3059,134.548,99.806,72.8857,0.0167287,0.208636,20.7953,182.676,2.79836,0.0,0.0
240,59.75,52.4589,56.2364,134.503,99.8092,71.3471,0.0163801,0.206766,20.7992,182.646,2.98859,0.0,0.0
242,60.25,52.4731,56.1902,136.023,99.8008,73.3517,0.016007,0.204647,20.8024,182.596,2.74116,0.0,0.0
244,60.75,52.3955,56.2733,132.534,99.8136,75.8829,0.0156231,0.202384,20.8072,182.606,2.44029,0.0,0.0
246,61.25,52.5755,56.0494,133.158,99.8088,76.5146,0.0152426,0.200552,20.8111,182.526,2.36606,0.0,0.0
248,61.75,52.2485,56.4772,133.233,99.8148,76.1016,0.0148717,0.197832,20.8173,182.506,2.41477,0.0,0.0
250,62.25,52.7548,55.8099,136.242,99.8132,77.4079,0.0145103,0.195629,20.8224,182.506,2.26312,0.0,0.0
252,62.75,52.8272,55.3415,132.78,99.8168,78.1325,0.0141626,0.193266,20.8273,182.506,2.18049,0.0,0.0
254,63.25,52.2953,56.3339,137.445,99.7912,77.87,0.013881,0.190832,20.8318,182.496,2.20815,0.0,0.0
256,63.75,52.5305,56.3845,134.26,99.8112,79.4354,0.0135189,0.188861,20.8364,182.466,2.03276,0.0,0.0
258,64.25,52.3432,56.1137,136.387,99.8012,81.4696,0.0132256,0.18642,20.841,182.426,1.80676,0.0,0.0
260,64.75,53.2221,56.1144,132.554,99.8249,81.2678,0.012988,0.184444,20.8447,182.396,1.83095,0.0,0.0
262,65.25,52.0529,55.8749,136.346,99.8084,80.3533,0.0126006,0.182002,20.8478,182.376,1.93023,0.0,0.0
264,65.75,52.5031,55.9722,136.781,99.8176,81.4743,0.0122868,0.180024,20.8509,182.366,1.80772,0.0,0.0
266,66.25,52.022,56.232,136.928,99.8128,83.2215,0.0120327,0.1777,20.8541,182.356,1.61839,0.0,0.0
268,66.75,52.7966,56.2862,133.015,99.8176,82.1675,0.0117479,0.175818,20.8567,182.326,1.73229,0.0,0.0
270,67.25,51.8371,56.547,137.284,99.804,82.8124,0.0114463,0.17386,20.8597,182.316,1.66148,0.0,0.0
272,67.75,52.0167,56.9574,134.902,99.8096,83.9643,0.0111637,0.171885,20.8621,182.306,1.539,0.0,0.0
274,68.25,51.9975,56.0083,131.721,99.8144,83.188,0.0109003,0.170285,20.8654,182.276,1.62212,0.0,0.0
276,68.75,52.0587,55.9278,133.161,99.8209,83.3148,0.0106583,0.168989,20.8681,182.246,1.60913,0.0,0.0
278,69.25,52.0299,55.9409,136.009,99.8112,84.9047,0.0104365,0.167299,20.8721,182.226,1.43999,0.0,0.0
280,69.75,52.2501,55.8984,137.113,99.8269,84.0326,0.0102089,0.165355,20.8753,182.216,1.5333,0.0,0.0
282,70.25,52.0966,55.9323,135.915,99.8144,85.6149,0.0100245,0.163495,20.8792,182.186,1.36612,0.0,0.0
284,70.75,52.1694,55.8577,131.984,99.8257,86.0706,0.00985266,0.161733,20.8824,182.176,1.31986,0.0,0.0
286,71.25,51.6935,56.0842,136.884,99.8197,86.1834,0.00969325,0.160022,20.8864,182.165,1.30766,0.0,0.0
288,71.75,52.2737,55.9589,132.989,99.8229,86.074,0.0096253,0.15838,20.888,182.165,1.31925,0.0,0.0
290,72.25,51.5862,55.6569,133.558,99.8132,86.1474,0.00950909,0.156759,20.8909,182.125,1.31081,0.0,0.0
292,72.75,51.7016,55.6363,142.051,99.8249,86.6057,0.00936326,0.155183,20.8935,182.105,1.26461,0.0,0.0
294,73.25,51.4693,55.7352,142.225,99.8189,88.7061,0.00924514,0.153655,20.8957,182.085,1.05075,0.0,0.0
296,73.75,51.9737,55.8539,137.911,99.8197,87.9404,0.00909782,0.152189,20.8978,182.055,1.128,0.0,0.0
298,74.25,51.7167,55.7109,135.396,99.8181,88.2643,0.00897849,0.151002,20.8997,182.045,1.09512,0.0,0.0
300,74.75,52.3114,55.7062,134.284,99.8285,88.1553,0.00889099,0.150236,20.9005,182.045,1.10705,0.0,0.0
302,75.25,51.6289,55.7885,134.872,99.8349,89.1373,0.00867757,0.148927,20.9038,182.055,1.00901,0.0,0.0
304,75.75,51.8599,55.8849,136.348,99.8261,88.8214,0.00849386,0.147866,20.9062,182.045,1.03983,0.0,0.0
306,76.25,51.406,55.2766,134.797,99.8217,88.4555,0.00841555,0.14647,20.9075,181.995,1.07618,0.0,0.0
308,76.75,50.9422,55.6151,135.197,99.8293,89.9026,0.00825796,0.145339,20.9098,182.005,0.932403,0.0,0.0
310,77.25,51.2805,55.3953,136.903,99.8261,90.0713,0.00810901,0.143974,20.9125,181.985,0.915424,0.0,0.0
312,77.75,51.8251,55.2239,138.271,99.8289,89.6634,0.00797013,0.143392,20.9148,181.955,0.956079,0.0,0.0
314,78.25,51.1707,55.1761,136.798,99.8088,90.8251,0.00784122,0.141597,20.9175,181.925,0.839686,0.0,0.0
316,78.75,49.8407,55.2288,135.677,99.8321,90.695,0.00773681,0.140567,20.9197,181.945,0.85453,0.0,0.0
318,79.25,51.3194,55.2808,137.911,99.8289,89.8216,0.00761889,0.140128,20.9214,181.945,0.94039,0.0,0.0
320,79.75,52.3602,56.0881,139.023,99.8301,91.4221,0.00752338,0.139016,20.9229,181.945,0.783262,0.0,0.0
322,80.25,51.5492,55.0709,136.641,99.8337,90.5173,0.0074386,0.137971,20.924,181.925,0.872128,0.0,0.0
324,80.75,50.7224,55.462,138.936,99.8393,91.4051,0.00736325,0.136994,20.9259,181.925,0.785738,0.0,0.0
326,81.25,51.4642,54.7665,132.586,99.8353,92.1971,0.00730221,0.136203,20.9274,181.895,0.708575,0.0,0.0
328,81.75,51.3223,54.8474,136.719,99.8369,91.9724,0.00725149,0.135346,20.929,181.885,0.730443,0.0,0.0
330,82.25,51.2901,54.7667,138.855,99.8333,91.7842,0.00721041,0.134652,20.9304,181.865,0.748361,0.0,0.0
332,82.75,51.0995,54.8285,138.046,99.8333,91.2517,0.00719379,0.133937,20.9319,181.875,0.800161,0.0,0.0
334,83.25,51.4295,54.7952,137.205,99.8333,93.4737,0.00718033,0.133222,20.9336,181.865,0.585974,0.0,0.0
336,83.75,50.9365,54.7779,135.827,99.8385,93.2851,0.00718738,0.132643,20.9354,181.845,0.604427,0.0,0.0
338,84.25,50.6578,54.5942,136.092,99.8405,93.305,0.00719308,0.131785,20.9373,181.825,0.602705,0.0,0.0
340,84.75,51.0257,54.7504,139.896,99.8309,93.818,0.00720797,0.13109,20.9391,181.825,0.553031,0.0,0.0
342,85.25,50.8752,54.4367,138.814,99.8349,94.6859,0.00722002,0.130225,20.9408,181.795,0.471413,0.0,0.0
344,85.75,50.8741,54.6936,137.473,99.8293,94.5345,0.00723114,0.129524,20.9421,181.795,0.485155,0.0,0.0
346,86.25,50.6144,54.6349,133.277,99.8301,95.0115,0.00724136,0.128654,20.9437,181.785,0.440422,0.0,0.0
348,86.75,50.6147,54.2268,135.544,99.8369,95.48,0.00724963,0.12795,20.9453,181.775,0.397241,0.0,0.0
350,87.25,50.6991,54.4748,137.457,99.8389,95.7679,0.00725121,0.127048,20.9469,181.765,0.370618,0.0,0.0
352,87.75,50.6982,54.4001,141.873,99.8426,96.0146,0.00725248,0.126319,20.9485,181.765,0.348032,0.0,0.0
354,88.25,50.8605,54.2244,136.873,99.8506,95.0895,0.00725554,0.125561,20.9497,181.765,0.434941,0.0,0.0
356,88.75,50.4992,54.2428,137.383,99.8369,94.5634,0.00725984,0.124798,20.9507,181.745,0.483121,0.0,0.0
358,89.25,50.2682,54.2763,135.927,99.8486,95.7323,0.00726332,0.12418,20.9515,181.725,0.374789,0.0,0.0
360,89.75,50.2655,54.1926,140.211,99.8426,95.9803,0.00728505,0.123335,20.9521,181.715,0.351217,0.0,0.0
362,90.25,50.1949,53.9952,139.804,99.8474,95.7878,0.00731968,0.12265,20.9526,181.705,0.369518,0.0,0.0
364,90.75,50.5455,54.171,140.887,99.8434,96.1584,0.00737071,0.121945,20.9529,181.705,0.334787,0.0,0.0
366,91.25,50.2278,53.8629,135.835,99.8446,95.7797,0.00743274,0.121238,20.9546,181.695,0.370016,0.0,0.0
368,91.75,50.2732,53.7268,140.411,99.8514,95.8391,0.00748298,0.120665,20.9559,181.685,0.36511,0.0,0.0
370,92.25,50.2115,53.8436,136.874,99.845,96.4026,0.00759829,0.119907,20.9573,181.675,0.31235,0.0,0.0
372,92.75,50.0858,53.8038,134.471,99.8321,96.1096,0.00764745,0.119029,20.9585,181.645,0.338299,0.0,0.0
374,93.25,49.9149,53.4385,138.579,99.8482,96.5357,0.00773152,0.118159,20.9591,181.645,0.30035,0.0,0.0
376,93.75,49.5659,53.5565,138.529,99.8498,96.4183,0.00786886,0.117313,20.9603,181.635,0.311331,0.0,0.0
378,94.25,49.617,53.3227,135.336,99.8462,96.696,0.00804242,0.116627,20.9614,181.635,0.285404,0.0,0.0
380,94.75,49.8874,53.2192,135.951,99.8413,96.319,0.0082399,0.115729,20.9623,181.615,0.319744,0.0,0.0
382,95.25,49.7456,53.1191,136.473,99.853,97.3485,0.00839986,0.115001,20.9631,181.605,0.226141,0.0,0.0
384,95.75,49.4378,53.1734,133.595,99.8478,97.0979,0.00854236,0.114691,20.9637,181.585,0.248619,0.0,0.0
386,96.25,49.1775,53.079,137.247,99.8723,96.378,0.00865779,0.113832,20.9651,181.575,0.317055,0.0,0.0
388,96.75,49.3687,53.2196,137.917,99.8421,97.0534,0.00875129,0.113136,20.9662,181.575,0.2522,0.0,0.0
390,97.25,49.2145,52.5611,138.232,99.857,97.2586,0.0088102,0.112359,20.9674,181.585,0.234723,0.0,0.0
392,97.75,49.176,53.1513,140.77,99.8426,97.0318,0.00885792,0.111729,20.9685,181.565,0.254221,0.0,0.0
394,98.25,49.1357,52.7142,133.678,99.8634,97.5342,0.00889139,0.111136,20.9695,181.555,0.210105,0.0,0.0
396,98.75,49.3833,52.5022,139.293,99.8506,97.1997,0.00891851,0.110582,20.9702,181.525,0.239545,0.0,0.0
398,99.25,49.1637,52.7613,138.127,99.8578,96.6069,0.00893918,0.110013,20.9711,181.515,0.294643,0.0,0.0
400,99.75,48.2696,52.6032,132.997,99.8562,96.9953,0.00895592,0.109444,20.9719,181.515,0.258784,0.0,0.0
402,100.25,48.4496,52.2517,140.542,99.8602,97.2993,0.00896949,0.108983,20.9727,181.525,0.231285,0.0,0.0
404,100.75,48.469,51.7661,138.13,99.855,97.3862,0.0089753,0.108438,20.9737,181.515,0.22287,0.0,0.0
406,101.25,48.2297,51.8225,138.89,99.8674,96.8338,0.00898,0.107997,20.9745,181.505,0.274625,0.0,0.0
408,101.75,48.3053,52.1194,142.605,99.8578,96.8952,0.00897225,0.107526,20.9752,181.495,0.268115,0.0,0.0
410,102.25,48.5574,52.2308,138.13,99.8723,96.9792,0.00895555,0.107145,20.9758,181.475,0.261694,0.0,0.0
412,102.75,48.1765,51.2351,140.765,99.855,96.7994,0.00892911,0.106783,20.9762,181.465,0.276673,0.0,0.0
414,103.25,47.7045,51.2713,138.45,99.867,97.064,0.00889606,0.106443,20.977,181.475,0.253447,0.0,0.0
416,103.75,47.9464,51.4335,134.305,99.8542,96.4445,0.00885909,0.106168,20.9777,181.475,0.309297,0.0,0.0
418,104.25,48.1662,51.7062,138.496,99.865,97.2959,0.00881997,0.105845,20.9782,181.475,0.232024,0.0,0.0
420,104.75,47.5336,51.4795,139.378,99.8462,96.5717,0.00878557,0.105584,20.9786,181.445,0.296848,0.0,0.0
422,105.25,47.7567,51.649,140.807,99.859,97.1038,0.00875525,0.105364,20.979,181.425,0.249078,0.0,0.0
424,105.75,47.7976,51.0784,138.657,99.859,97.0021,0.00873681,0.10518,20.9793,181.425,0.258412,0.0,0.0
426,106.25,47.6865,51.2129,139.39,99.8554,96.5221,0.00872738,0.105046,20.9795,181.455,0.302246,0.0,0.0
428,106.75,47.733,51.3434,140.067,99.8562,97.2599,0.00871974,0.10495,20.9797,181.455,0.234534,0.0,0.0
430,107.25,47.5137,50.7841,137.307,99.8578,97.1454,0.0087549,0.104896,20.9798,181.445,0.245162,0.0,0.0
432,107.75,47.6159,50.8448,139.981,99.8674,97.1954,0.00878338,0.104872,20.9799,181.415,0.241437,0.0,0.0
434,108.25,47.676,50.5154,142.035,99.855,97.0725,0.00882347,0.104875,20.98,181.415,0.251597,0.0,0.0
436,108.75,47.382,50.8395,136.854,99.8546,97.2412,0.00887125,0.104897,20.9801,181.385,0.236099,0.0,0.0
438,109.25,47.7286,50.8885,141.855,99.8598,97.6236,0.00892358,0.104915,20.9802,181.385,0.201621,0.0,0.0
440,109.75,47.0027,50.6397,139.313,99.8602,96.9372,0.00897823,0.104987,20.9802,181.375,0.264474,0.0,0.0
442,110.25,47.727,51.0228,135.773,99.8638,96.8584,0.00900153,0.105045,20.9803,181.375,0.272041,0.0,0.0
444,110.75,47.322,50.7857,138.622,99.8574,97.4888,0.00905302,0.105138,20.9803,181.355,0.21371,0.0,0.0
446,111.25,47.0463,49.9114,142.612,99.8739,96.8537,0.00909609,0.105253,20.9803,181.355,0.273366,0.0,0.0
448,111.75,46.7618,50.3765,135.143,99.8614,97.7491,0.0091322,0.105368,20.9804,181.345,0.190328,0.0,0.0
450,112.25,47.2102,50.2411,139.82,99.8602,96.704,0.00916146,0.105482,20.9799,181.335,0.285916,0.0,0.0
452,112.75,47.4511,50.5866,136.647,99.8642,97.1115,0.00918515,0.105582,20.9796,181.315,0.248844,0.0,0.0
454,113.25,47.2168,50.5877,140.636,99.8538,97.5995,0.00917198,0.105628,20.9797,181.305,0.203288,0.0,0.0
456,113.75,47.1448,50.3194,138.582,99.8602,96.7214,0.00916131,0.105744,20.9803,181.285,0.284315,0.0,0.0
458,114.25,47.4842,50.5945,139.024,99.8598,96.4352,0.00915267,0.105872,20.9807,181.285,0.310659,0.0,0.0
460,114.75,47.0039,50.2068,135.815,99.8562,96.7952,0.00909653,0.105976,20.981,181.285,0.27717,0.0,0.0
462,115.25,46.8792,50.508,134.494,99.8554,96.6001,0.00905105,0.10606,20.9813,181.285,0.295053,0.0,0.0
464,115.75,46.5956,50.3492,140.292,99.8562,96.8405,0.00897675,0.106128,20.9815,181.265,0.272998,0.0,0.0
466,116.25,46.8392,50.4104,135.183,99.8562,97.2794,0.00891656,0.106183,20.9817,181.265,0.23275,0.0,0.0
468,116.75,46.5858,50.1783,138.264,99.8582,96.9016,0.00884071,0.106228,20.9818,181.245,0.267567,0.0,0.0
470,117.25,47.1702,50.1762,140.569,99.8486,96.9838,0.00877926,0.106193,20.9819,181.225,0.259154,0.0,0.0
472,117.75,46.3605,50.1946,138.279,99.8634,97.2501,0.00871917,0.106164,20.982,181.195,0.236072,0.0,0.0
474,118.25,46.5227,50.3637,138.034,99.861,97.2459,0.0086705,0.106056,20.9821,181.175,0.236244,0.0,0.0
476,118.75,45.8794,50.1582,138.427,99.8594,96.8783,0.00863858,0.105968,20.9822,181.175,0.269816,0.0,0.0
478,119.25,46.8729,50.3362,139.311,99.8707,97.1382,0.00861949,0.105874,20.9822,181.185,0.246967,0.0,0.0
480,119.75,47.0892,49.9683,134.559,99.8739,97.3116,0.00861693,0.105778,20.9823,181.185,0.231376,0.0,0.0
482,120.25,46.7386,49.9495,141.071,99.855,97.3832,0.00862647,0.105693,20.9826,181.165,0.223141,0.0,0.0
484,120.75,46.9378,50.064,140.226,99.8687,97.3226,0.0086342,0.105617,20.9828,181.135,0.229902,0.0,0.0
486,121.25,46.5999,50.1318,139.71,99.8562,97.7911,0.00865338,0.105577,20.9831,181.114,0.18604,0.0,0.0
488,121.75,46.8666,50.0521,141.112,99.8578,96.9029,0.00868054,0.105565,20.9832,181.114,0.267414,0.0,0.0
490,122.25,46.4814,49.9649,139.398,99.8554,96.9037,0.0087039,0.105555,20.9834,181.104,0.267121,0.0,0.0
492,122.75,46.6714,49.4123,139.46,99.8562,97.203,0.00872405,0.105576,20.9835,181.104,0.239736,0.0,0.0
494,123.25,45.806,49.8529,136.456,99.8707,96.4861,0.00873493,0.105592,20.9836,181.074,0.30693,0.0,0.0
496,123.75,46.1864,49.5434,140.953,99.863,97.0657,0.00873884,0.10562,20.9836,181.084,0.252935,0.0,0.0
498,124.25,46.4307,49.5802,139.438,99.8514,97.0139,0.00872978,0.105642,20.9837,181.064,0.256642,0.0,0.0
500,124.75,46.4109,49.5634,135.696,99.859,97.7703,0.00871142,0.105661,20.9837,181.074,0.188183,0.0,0.0
502,125.25,45.6825,49.4355,136.655,99.855,96.8617,0.0086789,0.105675,20.9838,181.084,0.270943,0.0,0.0
504,125.75,46.5292,49.3872,137.763,99.865,96.7295,0.00863666,0.10568,20.9838,181.044,0.284003,0.0,0.0
506,126.25,46.0257,49.5101,138.839,99.857,97.0767,0.00858344,0.105677,20.9838,181.054,0.251387,0.0,0.0
508,126.75,46.4174,49.215,138.06,99.8634,97.5062,0.00852324,0.105674,20.9843,181.044,0.212661,0.0,0.0
510,127.25,46.1355,49.5103,137.606,99.853,96.8795,0.00847447,0.105615,20.9847,181.034,0.269126,0.0,0.0
512,127.75,45.8459,49.001,137.802,99.8658,97.117,0.00841327,0.105567,20.985,181.064,0.248482,0.0,0.0
514,128.25,45.8666,49.4963,136.111,99.8446,97.2722,0.00834418,0.1054,20.9852,181.044,0.23237,0.0,0.0
516,128.75,45.6482,48.851,135.599,99.8642,96.7774,0.00828821,0.105265,20.9854,181.034,0.279524,0.0,0.0
518,129.25,45.5396,48.8641,141.341,99.8506,97.5066,0.00822872,0.105141,20.9856,181.004,0.211475,0.0,0.0
520,129.75,45.7128,49.1847,139.691,99.8606,96.7176,0.00818053,0.105041,20.9857,180.994,0.284702,0.0,0.0
522,130.25,45.632,49.2697,137.694,99.8562,96.866,0.00813249,0.10502,20.9856,180.984,0.270659,0.0,0.0
524,130.75,45.8925,48.5771,138.653,99.865,96.9253,0.00809358,0.105057,20.9853,180.984,0.265994,0.0,0.0
526,131.25,45.4376,48.7889,136.688,99.849,96.9533,0.00804791,0.105086,20.985,180.974,0.261992,0.0,0.0
528,131.75,46.2058,48.9564,138.578,99.8606,96.7952,0.00801091,0.105196,20.9848,180.974,0.277564,0.0,0.0
530,132.25,45.4879,48.7503,138.343,99.8614,97.4952,0.0079488,0.105285,20.9847,180.984,0.213487,0.0,0.0
532,132.75,45.5632,48.6479,139.143,99.867,96.8388,0.0078985,0.1053,20.9845,180.944,0.274121,0.0,0.0
534,133.25,45.2692,48.578,140.451,99.8542,97.0279,0.00781664,0.105312,20.9846,180.944,0.255609,0.0,0.0
536,133.75,45.8822,48.7266,138.021,99.8634,96.4089,0.00775034,0.105307,20.985,180.944,0.313409,0.0,0.0
538,134.25,45.7818,48.4519,139.15,99.8586,97.1844,0.00769663,0.105304,20.9852,180.944,0.24166,0.0,0.0
540,134.75,45.6166,48.3906,139.874,99.8646,96.9385,0.00759155,0.10523,20.9854,180.974,0.264751,0.0,0.0
542,135.25,45.6595,48.6376,137.466,99.849,97.0377,0.00750644,0.10517,20.9856,180.954,0.254249,0.0,0.0
544,135.75,45.531,48.851,142.324,99.8703,96.7032,0.0074375,0.105078,20.9857,180.954,0.286889,0.0,0.0
546,136.25,45.1755,48.9209,139.927,99.8518,97.3578,0.00735603,0.105004,20.9858,180.954,0.225181,0.0,0.0
548,136.75,45.3795,48.3345,138.579,99.8566,97.1704,0.00726699,0.104944,20.9855,180.954,0.242762,0.0,0.0
550,137.25,44.9592,48.1888,143.815,99.8542,97.3667,0.00719486,0.104896,20.9852,180.934,0.224581,0.0,0.0
552,137.75,45.659,48.1709,137.412,99.8598,97.5694,0.0071134,0.104857,20.9855,180.924,0.206572,0.0,0.0
554,138.25,45.3073,48.7034,138.047,99.8542,97.5575,0.00704068,0.104825,20.9857,180.904,0.207154,0.0,0.0
556,138.75,45.7849,48.4757,137.457,99.8594,96.8558,0.00697572,0.104731,20.9858,180.874,0.271881,0.0,0.0
558,139.25,44.7402,48.1813,142.294,99.8486,96.6218,0.0069231,0.104595,20.986,180.884,0.292453,0.0,0.0
560,139.75,45.1078,48.505,138.762,99.8598,97.2476,0.00687529,0.104485,20.9861,180.894,0.235982,0.0,0.0
562,140.25,45.4296,48.2218,137.965,99.8494,96.9398,0.00683656,0.104381,20.9861,180.884,0.263275,0.0,0.0
564,140.75,45.192,48.4462,137.786,99.8502,97.0203,0.00679879,0.10429,20.9863,180.874,0.255951,0.0,0.0
566,141.25,45.3226,48.1889,136.752,99.845,97.6126,0.0067682,0.104209,20.9865,180.884,0.201302,0.0,0.0
568,141.75,45.2713,48.3258,140.442,99.8658,97.2276,0.00672862,0.104144,20.9867,180.864,0.238343,0.0,0.0
570,142.25,45.4589,48.2016,142.451,99.853,98.065,0.00668324,0.104034,20.9872,180.854,0.160854,0.0,0.0
572,142.75,44.9661,47.7348,138.416,99.859,98.0468,0.00664649,0.103945,20.9877,180.814,0.163048,0.0,0.0
574,143.25,45.2806,48.3276,140.903,99.8566,96.9236,0.00658478,0.103788,20.9881,180.824,0.265398,0.0,0.0
576,143.75,45.3452,48.8877,140.991,99.8574,97.0436,0.00653479,0.103662,20.9884,180.804,0.254456,0.0,0.0
578,144.25,45.2925,47.826,138.133,99.8755,97.0708,0.00647617,0.103506,20.9887,180.774,0.253578,0.0,0.0
580,144.75,45.2909,48.1083,138.124,99.8574,97.1717,0.00641237,0.103334,20.9884,180.764,0.242718,0.0,0.0
582,145.25,44.9472,48.2138,136.906,99.8482,97.0313,0.00635598,0.103194,20.9882,180.774,0.25476,0.0,0.0
584,145.75,45.575,48.5238,141.176,99.8658,97.627,0.00630608,0.103151,20.988,180.774,0.201849,0.0,0.0
586,146.25,45.0194,47.9183,140.098,99.8486,97.4562,0.00626902,0.103117,20.9879,180.764,0.215903,0.0,0.0
588,146.75,44.7612,47.7109,137.673,99.8506,97.6982,0.00624202,0.10309,20.9878,180.734,0.193996,0.0,0.0
590,147.25,45.3351,48.1216,139.633,99.8554,97.3642,0.00622485,0.103067,20.9877,180.734,0.224921,0.0,0.0
592,147.75,44.8621,48.1602,136.146,99.847,97.9052,0.00621518,0.103094,20.9877,180.734,0.174841,0.0,0.0
594,148.25,45.0331,48.1369,142.399,99.847,97.2128,0.00620734,0.103156,20.9876,180.724,0.23802,0.0,0.0
596,148.75,44.9243,47.8283,140.905,99.8622,96.4233,0.00620233,0.103214,20.9878,180.714,0.311971,0.0,0.0
598,149.25,44.3874,47.8195,140.269,99.8466,97.3095,0.00619949,0.103267,20.9882,180.714,0.229136,0.0,0.0
600,149.75,44.9757,48.2809,137.722,99.849,97.1123,0.00619181,0.103326,20.9885,180.694,0.247405,0.0,0.0
602,150.25,44.9923,47.579,137.069,99.845,96.7905,0.00618076,0.103386,20.9887,180.674,0.276597,0.0,0.0
604,150.75,44.714,47.6165,138.241,99.8514,96.7536,0.0061718,0.103435,20.9889,180.704,0.280563,0.0,0.0
606,151.25,44.9652,47.6844,138.185,99.8626,97.1068,0.00613913,0.103461,20.989,180.684,0.249128,0.0,0.0
608,151.75,44.6393,48.003,135.237,99.8554,96.6001,0.00611266,0.103482,20.9889,180.674,0.295053,0.0,0.0
610,152.25,45.4058,47.9909,136.439,99.8506,96.8223,0.00605427,0.103506,20.9887,180.674,0.274173,0.0,0.0
612,152.75,44.783,48.1213,141.524,99.8494,97.039,0.00600697,0.103533,20.9883,180.704,0.254168,0.0,0.0
614,153.25,44.9344,47.5189,137.241,99.8413,97.4231,0.00593302,0.103554,20.9879,180.684,0.218281,0.0,0.0
616,153.75,44.6927,47.9824,141.504,99.851,96.7396,0.00587312,0.10357,20.9877,180.684,0.281814,0.0,0.0
618,154.25,44.8307,48.2325,140.219,99.845,96.484,0.0058017,0.103584,20.9874,180.654,0.304835,0.0,0.0
620,154.75,44.4176,48.2259,135.001,99.8482,97.6436,0.00574385,0.103566,20.9873,180.644,0.198767,0.0,0.0
622,155.25,44.2341,47.8683,140.658,99.8438,97.4121,0.00569699,0.103552,20.9871,180.624,0.219504,0.0,0.0
624,155.75,45.2384,48.1154,144.881,99.8413,97.2548,0.00566038,0.10354,20.9872,180.624,0.233676,0.0,0.0
626,156.25,44.6867,47.7159,138.151,99.8586,96.8151,0.00563192,0.103531,20.9875,180.584,0.275552,0.0,0.0
628,156.75,45.1908,47.6519,140.659,99.8458,97.3167,0.00561222,0.103509,20.9878,180.604,0.228404,0.0,0.0
630,157.25,44.3742,47.3715,138.103,99.8498,98.1244,0.00559928,0.103491,20.988,180.594,0.155181,0.0,0.0
632,157.75,44.5818,47.3314,141.603,99.8413,97.5499,0.00558879,0.103477,20.9882,180.614,0.206705,0.0,0.0
634,158.25,45.0838,47.8057,136.231,99.8554,97.0233,0.0055803,0.103465,20.9883,180.614,0.256144,0.0,0.0
636,158.75,44.7632,48.1518,139.789,99.8426,97.131,0.00557342,0.103456,20.9884,180.594,0.245123,0.0,0.0
638,159.25,44.4344,47.7306,143.412,99.8446,97.7135,0.00556517,0.103418,20.9885,180.604,0.192068,0.0,0.0
640,159.75,44.4292,47.6469,133.885,99.849,97.4333,0.00555608,0.103361,20.9887,180.594,0.218032,0.0,0.0
642,160.25,44.6406,47.615,143.207,99.8446,97.3654,0.00554871,0.103314,20.9888,180.574,0.223838,0.0,0.0
644,160.75,44.763,47.2575,137.357,99.8337,96.9321,0.00552749,0.103206,20.9892,180.574,0.262578,0.0,0.0
646,161.25,44.464,47.6268,139.02,99.8333,97.6741,0.0055103,0.103117,20.9897,180.594,0.194658,0.0,0.0
648,161.75,44.3037,47.501,139.273,99.8361,97.0004,0.00547985,0.103016,20.9901,180.584,0.256527,0.0,0.0
650,162.25,44.4743,47.1944,139.174,99.8353,96.9733,0.00545519,0.102907,20.9904,180.584,0.258945,0.0,0.0
652,162.75,44.5229,47.684,141.593,99.8377,96.5039,0.00543521,0.102819,20.9907,180.564,0.302352,0.0,0.0
654,163.25,44.7926,47.3433,139.049,99.8325,97.4269,0.00540632,0.102747,20.9909,180.534,0.217145,0.0,0.0
656,163.75,44.5385,47.3414,140.42,99.8285,96.6493,0.00538292,0.102689,20.9911,180.534,0.288124,0.0,0.0
658,164.25,44.4019,47.331,138.248,99.8285,96.9342,0.00534873,0.102614,20.9913,180.524,0.261919,0.0,0.0
660,164.75,44.5029,47.8714,136.803,99.8365,97.0436,0.00532103,0.102553,20.9914,180.504,0.252594,0.0,0.0
662,165.25,44.3376,47.1194,139.965,99.8353,97.5308,0.0052859,0.102504,20.9915,180.524,0.207908,0.0,0.0
664,165.75,44.1311,46.8125,139.016,99.8325,97.2039,0.00524603,0.102435,20.9915,180.504,0.237546,0.0,0.0
666,166.25,44.6493,47.5452,140.07,99.8462,97.2124,0.00520237,0.10238,20.9916,180.494,0.237987,0.0,0.0
668,166.75,44.2769,47.3453,140.712,99.8189,97.3001,0.0051568,0.10232,20.9917,180.504,0.227518,0.0,0.0
670,167.25,44.1145,47.4764,137.332,99.8285,97.2001,0.00511187,0.102258,20.9917,180.504,0.237538,0.0,0.0
672,167.75,44.3663,47.2006,136.222,99.8213,96.7456,0.00506828,0.102207,20.9917,180.494,0.278618,0.0,0.0
674,168.25,44.5801,47.0111,138.906,99.8144,96.9775,0.00502629,0.102167,20.9918,180.474,0.256694,0.0,0.0
676,168.75,44.0691,47.2728,137.258,99.8072,96.9864,0.00498628,0.102171,20.9918,180.454,0.255232,0.0,0.0
678,169.25,44.3171,47.5261,141.09,99.8112,96.8227,0.00495387,0.102209,20.9918,180.444,0.270624,0.0,0.0
680,169.75,44.3179,47.3759,137.992,99.8028,97.1628,0.00491494,0.102254,20.9918,180.434,0.238663,0.0,0.0
682,170.25,44.4423,47.1002,142.05,99.8084,97.5677,0.00488341,0.102304,20.9918,180.414,0.202143,0.0,0.0
684,170.75,44.6187,46.9623,144.94,99.798,96.6099,0.00485187,0.102352,20.9918,180.384,0.289033,0.0,0.0
686,171.25,44.4601,47.1195,137.145,99.8076,98.1981,0.00482093,0.102398,20.9918,180.404,0.144732,0.0,0.0
688,171.75,44.625,47.0856,134.803,99.7903,97.8293,0.00479315,0.102434,20.9918,180.384,0.176694,0.0,0.0
690,172.25,43.8374,47.4962,139.669,99.7972,96.7884,0.00476821,0.102493,20.992,180.394,0.27253,0.0,0.0
692,172.75,44.2033,46.5476,138.639,99.7803,96.8376,0.00474934,0.10254,20.9921,180.384,0.266502,0.0,0.0
694,173.25,44.2436,47.6675,137.958,99.808,97.1085,0.00473526,0.102571,20.9923,180.384,0.244103,0.0,0.0
696,173.75,43.8304,46.737,144.453,99.7827,98.0222,0.00472852,0.102589,20.9923,180.364,0.158475,0.0,0.0
698,174.25,44.2283,47.014,138.033,99.7912,97.2709,0.00472726,0.102604,20.9924,180.364,0.227724,0.0,0.0
700,174.75,44.1902,47.1819,136.043,99.7787,97.1365,0.00472891,0.102617,20.9925,180.354,0.238922,0.0,0.0
702,175.25,44.1721,47.3992,139.616,99.7859,96.827,0.00473264,0.102627,20.9925,180.374,0.267978,0.0,0.0
704,175.75,44.3088,46.2426,140.463,99.7727,97.1365,0.00473566,0.102636,20.9926,180.354,0.238385,0.0,0.0
706,176.25,44.1132,46.0098,138.978,99.7855,97.0491,0.00472412,0.102643,20.9926,180.344,0.247539,0.0,0.0
708,176.75,43.5354,47.1884,141.201,99.7598,97.4405,0.00471256,0.102634,20.9926,180.344,0.209421,0.0,0.0
710,177.25,44.5869,47.4342,139.862,99.7626,96.3687,0.0046928,0.102627,20.9926,180.334,0.30814,0.0,0.0
712,177.75,44.2756,46.6348,139.742,99.763,97.3574,0.00464516,0.102621,20.9927,180.334,0.217303,0.0,0.0
714,178.25,43.9906,47.2835,139.604,99.7634,96.8325,0.00460657,0.102617,20.9927,180.344,0.265465,0.0,0.0
716,178.75,44.536,46.7939,140.404,99.7506,96.8291,0.00455886,0.10257,20.9927,180.334,0.264631,0.0,0.0
718,179.25,44.1992,47.0947,139.091,99.7542,97.3459,0.00452022,0.102533,20.9927,180.314,0.217562,0.0,0.0
720,179.75,44.4676,47.1256,138.045,99.7365,97.2921,0.00447881,0.102517,20.9927,180.314,0.22091,0.0,0.0
722,180.25,44.6569,46.9295,134.117,99.7341,97.0097,0.00444527,0.102518,20.9927,180.304,0.24657,0.0,0.0
724,180.75,43.9826,47.3599,136.894,99.7389,97.0038,0.00441683,0.102519,20.9927,180.304,0.247545,0.0,0.0
726,181.25,44.586,46.9757,138.634,99.7253,96.9906,0.0043938,0.102534,20.9927,180.294,0.247533,0.0,0.0
728,181.75,44.1619,47.1152,141.081,99.7205,97.2001,0.00437514,0.10256,20.9927,180.294,0.227899,0.0,0.0
730,182.25,44.0846,47.2351,137.684,99.7301,96.8804,0.00436274,0.102589,20.9927,180.284,0.258087,0.0,0.0
732,182.75,44.1994,46.7483,139.257,99.7157,96.5832,0.00435513,0.102619,20.9927,180.254,0.284149,0.0,0.0
734,183.25,44.5615,47.0238,137.718,99.7112,97.4341,0.00434896,0.102658,20.9927,180.254,0.205666,0.0,0.0
736,183.75,44.4075,47.4832,136.697,99.6992,97.1221,0.00433931,0.102704,20.9926,180.264,0.233148,0.0,0.0
738,184.25,44.4052,47.1892,141.368,99.7165,96.8906,0.0043273,0.10274,20.9924,180.254,0.255933,0.0,0.0
740,184.75,44.4456,47.1021,142.026,99.6988,97.3065,0.00431757,0.102762,20.9923,180.234,0.216221,0.0,0.0
742,185.25,43.7867,47.2045,144.005,99.6883,97.0708,0.00428568,0.102772,20.9922,180.244,0.236882,0.0,0.0
744,185.75,43.8774,46.8432,140.659,99.6932,96.1164,0.00425985,0.102781,20.9921,180.264,0.325273,0.0,0.0
746,186.25,44.1336,47.207,137.992,99.6867,96.7719,0.00421367,0.10272,20.992,180.264,0.264194,0.0,0.0
748,186.75,44.0082,47.1011,134.814,99.6719,97.1233,0.00417627,0.102611,20.9919,180.234,0.230592,0.0,0.0
750,187.25,44.0009,47.0568,141.501,99.6739,96.7617,0.0041384,0.102522,20.9919,180.244,0.263983,0.0,0.0
752,187.75,44.1315,47.3145,138.617,99.659,96.1554,0.00410772,0.102464,20.9918,180.244,0.318612,0.0,0.0
754,188.25,43.7395,47.0227,137.766,99.659,96.8588,0.0040854,0.102417,20.9918,180.214,0.253727,0.0,0.0
756,188.75,43.8575,47.1093,133.238,99.651,97.3218,0.00406731,0.102379,20.9918,180.204,0.210557,0.0,0.0
758,189.25,44.428,46.9942,136.983,99.6586,96.7892,0.00405393,0.102349,20.9918,180.214,0.260085,0.0,0.0
760,189.75,44.2237,46.8407,136.806,99.6442,97.1857,0.00404309,0.102316,20.9917,180.194,0.222406,0.0,0.0
762,190.25,43.915,46.8438,135.502,99.6289,96.5912,0.00403847,0.102283,20.9917,180.214,0.27566,0.0,0.0
764,190.75,44.1616,46.841,136.761,99.6313,96.9906,0.00403309,0.102299,20.9917,180.194,0.239141,0.0,0.0
766,191.25,44.0797,46.5622,140.792,99.6265,97.0131,0.00402873,0.102312,20.9917,180.194,0.236649,0.0,0.0
768,191.75,44.4311,46.4536,137.958,99.6169,96.7011,0.00403025,0.102351,20.9917,180.194,0.264468,0.0,0.0
770,192.25,43.6508,46.9105,136.983,99.6157,96.4725,0.00403149,0.102383,20.9917,180.194,0.285424,0.0,0.0
772,192.75,44.4728,46.6005,139.364,99.6133,96.5391,0.0040285,0.102386,20.9919,180.174,0.279068,0.0,0.0
774,193.25,44.1178,46.8757,136.56,99.5996,96.8126,0.00402249,0.102377,20.9923,180.164,0.252665,0.0,0.0
776,193.75,44.2873,46.9575,139.172,99.5855,96.743,0.00401131,0.102361,20.9926,180.144,0.257805,0.0,0.0
778,194.25,44.4129,46.5333,139.331,99.5876,96.6748,0.00400226,0.102262,20.9929,180.144,0.264268,0.0,0.0
780,194.75,44.1558,46.6485,138.995,99.5731,97.2471,0.00399625,0.102183,20.9931,180.144,0.210423,0.0,0.0
782,195.25,43.873,46.7737,140.602,99.559,97.0775,0.00399258,0.102066,20.9933,180.114,0.224706,0.0,0.0
784,195.75,44.3812,46.3031,139.475,99.5639,97.2726,0.00400097,0.101924,20.9934,180.104,0.20727,0.0,0.0
786,196.25,43.9485,46.9156,141.133,99.5599,97.4485,0.00400777,0.101817,20.9935,180.093,0.190822,0.0,0.0
788,196.75,43.805,47.1738,136.875,99.5346,96.4518,0.00401327,0.101737,20.9936,180.083,0.28009,0.0,0.0
790,197.25,44.4215,46.7566,139.051,99.5358,96.5522,0.00402305,0.101679,20.9937,180.093,0.270927,0.0,0.0
792,197.75,44.0428,46.9223,139.466,99.5317,96.7324,0.00403575,0.10164,20.9933,180.083,0.253968,0.0,0.0
794,198.25,43.9702,46.8898,137.409,99.5245,96.9016,0.00404471,0.101592,20.993,180.083,0.237768,0.0,0.0
796,198.75,43.9921,46.3961,140.824,99.508,96.785,0.00405077,0.101541,20.9927,180.073,0.247012,0.0,0.0
798,199.25,44.1006,46.9592,137.006,99.5084,97.956,0.00405502,0.101499,20.9925,180.043,0.13998,0.0,0.0
800,199.75,43.9275,46.2827,138.976,99.5068,97.106,0.00405786,0.101451,20.9924,180.043,0.217431,0.0,0.0
802,200.25,43.9569,46.6662,140.971,99.4952,96.7239,0.0040575,0.101412,20.9922,180.043,0.251481,0.0,0.0
804,200.75,43.967,46.46,137.666,99.4944,96.8482,0.00405482,0.10132,20.9926,180.033,0.239982,0.0,0.0
806,201.25,43.907,46.7571,138.046,99.4791,96.9105,0.00404932,0.101192,20.9928,180.013,0.232889,0.0,0.0
808,201.75,43.9082,46.2309,139.964,99.4767,96.7803,0.00404188,0.101089,20.9931,180.023,0.244638,0.0,0.0
810,202.25,43.9306,46.3777,142.435,99.4727,96.9385,0.00403315,0.100976,20.9932,179.983,0.229744,0.0,0.0
812,202.75,43.7629,46.274,138.148,99.4639,96.9817,0.00402365,0.100885,20.9934,179.983,0.224983,0.0,0.0
814,203.25,43.7642,46.8591,136.392,99.4474,96.551,0.00401595,0.100797,20.9935,180.003,0.263139,0.0,0.0
816,203.75,44.2299,46.3861,136.445,99.4534,96.6141,0.00401503,0.100711,20.9936,179.983,0.257856,0.0,0.0
818,204.25,43.5301,46.9249,136.16,99.4322,96.9236,0.00401907,0.100628,20.9937,179.983,0.227476,0.0,0.0
820,204.75,44.0988,46.3635,139.646,99.4406,96.1401,0.00402234,0.100561,20.9939,179.973,0.30049,0.0,0.0
822,205.25,43.6846,46.1004,133.255,99.4253,96.623,0.00402432,0.100478,20.9941,179.953,0.254518,0.0,0.0
824,205.75,43.5839,46.1199,139.827,99.4314,96.478,0.00402533,0.10041,20.9946,179.963,0.268427,0.0,0.0
826,206.25,43.6653,46.3841,136.539,99.404,97.3357,0.00402615,0.100326,20.995,179.953,0.187187,0.0,0.0
828,206.75,43.9287,46.6914,139.182,99.4097,96.7346,0.00400157,0.100232,20.9954,179.953,0.242848,0.0,0.0
830,207.25,44.0495,46.369,137.895,99.3924,96.4212,0.00398166,0.100155,20.9957,179.963,0.270183,0.0,0.0
832,207.75,43.5373,46.8401,138.06,99.3976,96.7719,0.00394762,0.100093,20.9959,179.943,0.238336,0.0,0.0
834,208.25,44.3088,46.8545,139.347,99.3767,96.222,,0.100001,,179.943,0.287198,0.0,0.0
836,208.75,43.9142,46.4889,136.614,99.38,96.729,,0.0999256,,179.933,0.240694,0.0,0.0
838,209.25,43.5182,46.2751,138.097,99.3787,96.729,,0.0998363,,179.933,0.240586,0.0,0.0
840,209.75,43.6975,46.0377,138.532,99.3619,97.0678,,0.099764,,179.943,0.207952,0.0,0.0
842,210.25,43.6931,46.56,137.898,99.355,96.8567,,0.0996912,,179.913,0.226725,0.0,0.0
844,210.75,43.7514,46.4033,135.791,99.3579,96.537,,0.0996322,,179.913,0.256409,0.0,0.0
846,211.25,43.911,46.5462,138.502,99.3422,96.913,,,,179.933,0.220394,0.0,0.0
848,211.75,43.8926,46.4228,137.167,99.3406,97.0975,,,,179.923,0.203323,0.0,0.0
850,212.25,43.8017,46.8092,142.167,99.3354,96.969,,,,179.923,0.214642,0.0,0.0
852,212.75,43.934,46.5085,143.909,99.3237,96.3538,,,,179.903,0.270257,0.0,0.0
854,213.25,43.5745,46.0328,137.643,99.3141,96.8567,,,,179.903,0.223055,0.0,0.0
856,213.75,43.7211,46.7049,137.089,99.3213,96.8299,,,,179.873,0.226158,0.0,0.0
858,214.25,43.5644,46.5087,137.408,99.3041,96.5319,,,,179.883,0.252056,0.0,0.0
860,214.75,44.0602,46.6643,134.203,99.2972,96.2232,,,,179.883,0.279955,0.0,0.0
862,215.25,43.3675,46.519,139.462,99.2948,96.6269,,,,179.873,0.242474,0.0,0.0
864,215.75,43.0127,46.4198,136.57,99.2936,96.7596,,,,179.873,0.230147,0.0,0.0
866,216.25,43.7665,46.5193,141.976,99.2715,97.1475,,,,179.853,0.192545,0.0,0.0
868,216.75,43.8216,46.2927,139.24,99.278,96.6163,,,,179.863,0.241938,0.0,0.0
870,217.25,43.8545,46.3627,137.876,99.2731,96.626,,,,179.853,0.240608,0.0,0.0
872,217.75,43.9009,46.5793,139.21,99.2619,95.9353,,,,179.823,0.30346,0.0,0.0
874,218.25,43.6118,46.6197,138.759,99.2486,96.9224,,,,179.833,0.211148,0.0,0.0
876,218.75,44.2403,46.1802,137.62,99.2559,96.6909,,,,179.833,0.233085,0.0,0.0