File: 01_Data/Vinyl_Siding/Cone/Vinyl_Siding_Cone_HF75Scan_220331_R3.csv
Names,Time,Stack TC,Smoke TC,Exh Press,Smoke Comp,Smoke Meas,CO Meter,CO2 Meter,O2 Meter,Sample Mass,Ext Coeff,Start Test,Flame Verif
Chan Gain,,500,500,1,1,1,1,1,1,1,1,1.0,1.0
Offset,,0,0,0.133521,0,0,0,0,0,0,0,0.0,0.0
Gain,,1,1,25.011,13.1585,13.8929,1,1,1,1.00096,1.01488,1.0,1.0
Units,sec,C,C,Pa,%,%,%,%,%,g,/m,,
Baseline,,42.9029,44.8516,138.486,99.4429,96.8056,0.000335099,0.065052,21.0335,-835.83,0.239375,,
2,0.25,41.3154,43.7668,135.397,99.2302,96.0642,0.000554649,0.0697093,21.0277,205.838,0.288662,0.0,0.0
4,0.75,40.8789,42.4475,137.784,99.2466,96.3275,0.000588831,0.069633,21.0279,205.438,0.265772,0.0,0.0
6,1.25,41.0585,42.3921,138.817,99.2555,96.7646,0.000628939,0.0695579,21.028,205.648,0.226259,0.0,0.0
8,1.75,40.8965,43.1269,137.629,99.2486,96.7256,0.000661426,0.0694971,21.0282,205.618,0.229235,0.0,0.0
10,2.25,40.6052,43.1126,137.545,99.247,96.8325,0.000686498,0.0694478,21.0283,205.478,0.219263,0.0,0.0
12,2.75,40.6483,42.7364,139.994,99.2631,96.467,0.000706806,0.0694268,21.0284,205.638,0.254367,0.0,0.0
14,3.25,40.6719,42.6202,137.284,99.2454,97.0568,0.000717046,0.0693909,21.0285,205.508,0.198523,0.0,0.0
16,3.75,40.2216,42.4488,134.019,99.2715,96.5654,0.000725341,0.0694319,21.0285,205.558,0.246051,0.0,0.0
18,4.25,40.5923,43.0298,138.248,99.2607,96.3207,0.000732059,0.0694651,21.0286,205.588,0.26766,0.0,0.0
20,4.75,40.4608,42.8614,137.236,99.2739,96.269,0.000737501,0.06945,21.0286,205.498,0.273631,0.0,0.0
22,5.25,41.0062,42.4365,142.706,99.2663,96.3152,0.000763028,0.0694377,21.0286,205.588,0.268674,0.0,0.0
24,5.75,41.1241,42.9453,138.443,99.2968,96.1762,0.000783704,0.0693857,21.0287,205.518,0.284273,0.0,0.0
26,6.25,41.1411,42.4075,143.958,99.2699,95.9633,0.000800452,0.0693436,21.0287,205.518,0.301584,0.0,0.0
28,6.75,40.9856,42.8233,139.24,99.2892,95.9794,0.000858779,0.0693169,21.0282,205.538,0.301819,0.0,0.0
30,7.25,41.2925,42.8889,136.686,99.2844,95.9845,0.000906023,0.0693019,21.0274,205.498,0.300915,0.0,0.0
32,7.75,40.499,42.8521,138.404,99.298,94.6333,0.000972468,0.0693856,21.0268,205.538,0.428353,0.0,0.0
34,8.25,40.7947,42.1939,138.858,99.2936,91.9856,0.00105165,0.0695398,21.0263,205.468,0.68059,0.0,0.0
36,8.75,41.3908,42.4235,136.512,99.3061,86.2788,0.00111578,0.0696647,21.0258,205.388,1.25189,0.0,0.0
38,9.25,40.6493,43.3884,138.088,99.2992,83.2842,0.00125629,0.0703271,21.025,205.288,1.56575,0.0,0.0
40,9.75,40.8237,42.8966,137.976,99.3101,76.5722,0.00137011,0.0708636,21.0239,205.148,2.31475,0.0,0.0
42,10.25,41.0317,43.1369,136.077,99.3173,73.8198,0.00156359,0.0717198,21.0228,205.048,2.6413,0.0,0.0
44,10.75,40.9718,43.4636,130.398,99.3201,65.2647,0.00172032,0.0727927,21.0217,204.917,3.73812,0.0,0.0
46,11.25,41.2312,43.2454,139.582,99.3081,59.9112,0.00197018,0.0736617,21.0208,204.777,4.49899,0.0,0.0
48,11.75,41.3106,43.4897,134.439,99.3245,56.2704,0.00217257,0.075323,21.0198,204.637,5.05859,0.0,0.0
50,12.25,41.4962,43.1934,142.823,99.3157,53.6613,0.0023365,0.0766686,21.0189,204.487,5.48047,0.0,0.0
52,12.75,41.5558,43.4641,136.696,99.3225,51.7309,0.00299805,0.0786615,21.0191,204.297,5.80724,0.0,0.0
54,13.25,41.7663,43.5954,135.551,99.3205,46.6173,0.0035339,0.0802758,21.0202,204.167,6.73366,0.0,0.0
56,13.75,41.5364,43.2573,131.804,99.341,42.4598,0.00396794,0.0832247,21.0211,204.007,7.56712,0.0,0.0
58,14.25,41.68,43.2715,140.042,99.3237,46.3069,0.0058794,0.0856133,21.0187,203.876,6.79341,0.0,0.0
60,14.75,41.8562,43.605,134.174,99.351,45.5302,0.00742768,0.0875481,21.0167,203.736,6.94645,0.0,0.0
62,15.25,41.6081,43.653,134.94,99.3265,53.6876,0.0105291,0.0942063,21.0085,203.586,5.47708,0.0,0.0
64,15.75,41.7335,43.6667,140.277,99.3326,45.1749,0.0130413,0.104181,20.996,203.446,7.01454,0.0,0.0
66,16.25,41.7444,43.8201,126.743,99.3289,66.5303,0.0175943,0.120798,20.966,203.306,3.56793,0.0,0.0
68,16.75,42.4077,44.2939,122.746,99.3402,64.0119,0.0212822,0.141939,20.9239,203.146,3.91247,0.0,0.0
70,17.25,42.2977,43.9538,120.378,99.3547,45.085,0.0265089,0.159064,20.8647,202.925,7.03425,0.0,1.0
72,17.75,42.4781,44.5602,120.932,99.3522,39.349,0.0307425,0.19284,20.7944,202.805,8.24547,0.0,1.0
74,18.25,42.3774,44.7937,118.837,99.3474,32.1965,0.0350745,0.220198,20.7374,202.505,10.031,0.0,1.0
76,18.75,42.8878,45.318,118.024,99.3534,28.6461,0.0393958,0.255305,20.6701,202.545,11.0717,0.0,1.0
78,19.25,42.8909,44.9604,119.198,99.3542,27.8978,0.043415,0.283742,20.6157,202.345,11.3074,0.0,1.0
80,19.75,44.081,45.8355,120.203,99.3438,29.8277,0.0471376,0.314232,20.5675,202.155,10.711,0.0,1.0
82,20.25,44.6504,46.3507,121.619,99.3619,30.1898,0.0501529,0.338929,20.5285,202.065,10.6052,0.0,1.0
84,20.75,45.1403,47.5395,123.305,99.3631,32.9308,0.0526732,0.360122,20.4969,201.834,9.83163,0.0,1.0
86,21.25,45.8504,47.8944,122.433,99.3643,30.4141,0.0547848,0.378358,20.4714,201.754,10.5395,0.0,1.0
88,21.75,45.6627,48.252,119.484,99.3655,32.2881,0.0562953,0.393129,20.4506,201.564,10.0073,0.0,1.0
90,22.25,45.3554,48.0926,124.294,99.3695,34.6624,0.0573388,0.404174,20.4338,201.474,9.376,0.0,1.0
92,22.75,46.5818,48.374,121.725,99.3675,32.3525,0.0579048,0.413121,20.4202,201.374,9.98976,0.0,0.0
94,23.25,46.9141,49.3952,121.377,99.3683,36.078,0.0581118,0.419201,20.4137,201.224,9.01953,0.0,0.0
96,23.75,47.5853,49.7503,123.243,99.3631,37.7773,0.057984,0.423077,20.4084,201.094,8.60932,0.0,0.0
98,24.25,47.1724,49.9829,121.154,99.3771,38.8971,0.0576147,0.425069,20.4086,200.994,8.35055,0.0,0.0
100,24.75,47.4621,50.1035,122.167,99.3663,40.4628,0.0570079,0.425649,20.4088,200.863,7.99824,0.0,0.0
102,25.25,47.944,50.6185,123.909,99.3775,41.5817,0.0562395,0.426118,20.4129,200.773,7.75642,0.0,0.0
104,25.75,48.7035,50.7916,127.113,99.3659,44.1964,0.055336,0.425094,20.4163,200.683,7.21248,0.0,0.0
106,26.25,48.9672,51.6221,123.458,99.3892,47.327,0.0543512,0.423584,20.4217,200.543,6.60529,0.0,0.0
108,26.75,49.3438,52.072,123.995,99.3828,48.2556,0.0535534,0.421747,20.4261,200.453,6.43175,0.0,0.0
110,27.25,49.7014,52.2591,126.717,99.3775,50.7931,0.0525282,0.419663,20.4297,200.363,5.97504,0.0,0.0
112,27.75,49.4675,52.7623,126.908,99.3791,55.5989,0.0513566,0.417437,20.4357,200.263,5.17037,0.0,0.0
114,28.25,50.0195,52.9073,125.875,99.384,56.2408,0.0501854,0.415048,20.4406,200.173,5.06861,0.0,0.0
116,28.75,50.3685,53.4505,123.096,99.3844,62.5097,0.0490366,0.412587,20.4475,200.093,4.12784,0.0,0.0
118,29.25,50.8627,53.8228,125.001,99.3936,60.7778,0.0481061,0.410593,20.4531,200.043,4.3788,0.0,0.0
120,29.75,50.4973,53.9641,121.063,99.3936,63.5154,0.0469309,0.407547,20.4595,199.933,3.98658,0.0,0.0
122,30.25,50.8448,53.9997,121.407,99.3972,63.5629,0.045979,0.405079,20.4664,199.812,3.98025,0.0,0.0
124,30.75,51.3004,54.4647,122.338,99.3936,65.1681,0.04494,0.401983,20.4746,199.762,3.7579,0.0,0.0
126,31.25,51.5682,54.6686,126.317,99.4064,67.5504,0.0440983,0.398488,20.4836,199.642,3.43941,0.0,0.0
128,31.75,51.3985,54.6069,128.295,99.396,66.5549,0.0432048,0.395656,20.4925,199.542,3.57065,0.0,0.0
130,32.25,52.4781,55.7316,125.506,99.4085,68.3852,0.0424811,0.391916,20.5012,199.462,3.33024,0.0,0.0
132,32.75,51.7089,55.154,125.961,99.4044,66.03,0.0417281,0.388886,20.5099,199.372,3.64189,0.0,0.0
134,33.25,52.4572,55.7461,125.52,99.4145,65.2228,0.0411183,0.384558,20.5184,199.302,3.7523,0.0,0.0
136,33.75,52.6869,56.2965,127.66,99.4053,63.099,0.0406243,0.381052,20.5253,199.242,4.04617,0.0,0.0
138,34.25,52.8985,56.1614,123.565,99.4354,62.9468,0.0400478,0.37607,20.5309,199.122,4.07036,0.0,0.0
140,34.75,53.0337,56.1757,121.658,99.4209,62.3545,0.0395808,0.372034,20.5371,199.052,4.15324,0.0,0.0
142,35.25,53.3198,56.2653,128.126,99.4378,61.5736,0.0392026,0.366951,20.5436,198.952,4.26695,0.0,0.0
144,35.75,53.6269,56.9887,122.751,99.4269,62.5822,0.038813,0.362833,20.5489,198.902,4.12133,0.0,0.0
146,36.25,53.6691,57.4019,122.571,99.4442,62.0408,0.0384225,0.358368,20.5554,198.792,4.20023,0.0,0.0
148,36.75,54.0302,57.5091,126.637,99.4378,62.9926,0.0380455,0.353735,20.5608,198.751,4.06411,0.0,0.0
150,37.25,54.159,57.5743,128.224,99.4542,60.1956,0.0376855,0.349982,20.5669,198.651,4.46991,0.0,0.0
152,37.75,53.9484,57.5982,126.493,99.4422,59.2222,0.037394,0.346942,20.5718,198.581,4.61398,0.0,0.0
154,38.25,54.3427,57.9624,125.939,99.453,60.8795,0.0370093,0.342585,20.5807,198.501,4.36923,0.0,0.0
156,38.75,54.223,57.9194,123.476,99.451,58.465,0.0366183,0.33735,20.588,198.411,4.72933,0.0,0.0
158,39.25,55.0507,58.4263,125.641,99.4595,55.8774,0.0362302,0.331885,20.5985,198.341,5.13308,0.0,0.0
160,39.75,55.0415,58.8424,127.5,99.4522,59.2468,0.0359158,0.326356,20.607,198.281,4.61118,0.0,0.0
162,40.25,55.0135,59.0012,128.527,99.4731,57.8243,0.0354559,0.321877,20.6158,198.221,4.82939,0.0,0.0
164,40.75,54.975,58.6009,128.758,99.4607,57.0167,0.0350834,0.315877,20.6246,198.131,4.95351,0.0,0.0
166,41.25,55.3732,58.6894,130.951,99.4735,56.0894,0.0347817,0.311016,20.6317,198.111,5.10062,0.0,0.0
168,41.75,55.4654,59.2199,128.968,99.4731,56.4286,0.0342856,0.305169,20.6391,198.031,5.04691,0.0,0.0
170,42.25,55.4745,58.948,128.591,99.4815,56.2361,0.0338838,0.300433,20.6466,197.961,5.07809,0.0,0.0
172,42.75,55.3495,59.2145,130.586,99.4687,56.3222,0.0333867,0.295072,20.6534,197.891,5.06332,0.0,0.0
174,43.25,55.6543,59.2819,129.765,99.4807,56.5346,0.032984,0.29073,20.6595,197.851,5.03089,0.0,0.0
176,43.75,55.7189,59.1376,128.528,99.4735,57.09,0.0324909,0.286341,20.6655,197.771,4.94321,0.0,0.0
178,44.25,55.7499,59.4715,125.842,99.494,55.8117,0.0320916,0.282001,20.6711,197.71,5.14664,0.0,0.0
180,44.75,55.9691,59.7713,130.522,99.4771,58.5688,0.0316076,0.278485,20.6771,197.61,4.71586,0.0,0.0
182,45.25,56.1406,59.7174,128.369,99.5097,58.5773,0.0312156,0.274363,20.6832,197.58,4.71748,0.0,0.0
184,45.75,56.0226,59.8688,130.295,99.4948,56.2823,0.0307141,0.271023,20.6891,197.54,5.07196,0.0,0.0
186,46.25,55.7015,59.9586,134.271,99.4972,55.7719,0.0303079,0.26787,20.6947,197.48,5.15329,0.0,0.0
188,46.75,55.8763,59.8815,128.132,99.4924,55.191,0.0297943,0.264912,20.6997,197.44,5.24606,0.0,0.0
190,47.25,56.0073,59.9565,129.612,99.4984,57.3219,0.0293782,0.261697,20.7042,197.34,4.90935,0.0,0.0
192,47.75,56.2632,60.3075,130.781,99.4992,57.5606,0.0290412,0.259093,20.7079,197.3,4.87242,0.0,0.0
194,48.25,56.268,60.1345,132.333,99.5068,60.5806,0.0285159,0.256554,20.7113,197.23,4.41787,0.0,0.0
196,48.75,56.2396,60.2561,126.115,99.502,56.599,0.0280903,0.25411,20.7145,197.2,5.02265,0.0,0.0
198,49.25,56.4426,60.4113,131.275,99.5165,56.4858,0.0276604,0.251758,20.7171,197.14,5.04177,0.0,0.0
200,49.75,56.3821,60.2068,132.01,99.5076,57.246,0.0272355,0.249519,20.7205,197.09,4.92197,0.0,0.0
202,50.25,57.1492,60.8804,130.902,99.5241,57.7056,0.0267889,0.247357,20.7233,197.04,4.85225,0.0,0.0
204,50.75,56.5358,60.4929,132.101,99.5201,56.9637,0.026335,0.245294,20.7265,197.02,4.9671,0.0,0.0
206,51.25,56.5539,60.0081,129.225,99.5181,57.7582,0.0259673,0.243623,20.729,196.98,4.84361,0.0,0.0
208,51.75,56.5965,60.1549,128.587,99.5337,58.122,0.0255103,0.241923,20.7316,196.93,4.78911,0.0,0.0
210,52.25,56.6066,60.821,127.883,99.5526,60.3491,0.0251401,0.240235,20.734,196.88,4.45604,0.0,0.0
212,52.75,56.8886,60.4805,131.9,99.537,59.3651,0.0246706,0.238569,20.7369,196.86,4.601,0.0,0.0
214,53.25,56.6575,60.2436,128.361,99.5398,57.6403,0.024213,0.236953,20.7393,196.77,4.86373,0.0,0.0
216,53.75,56.4828,60.6588,128.953,99.5394,59.2328,0.0237726,0.235643,20.743,196.72,4.62108,0.0,0.0
218,54.25,56.9347,60.7118,130.872,99.545,61.5248,0.0234159,0.233942,20.746,196.679,4.2836,0.0,0.0
220,54.75,56.9532,61.1228,129.196,99.5538,63.4128,0.0229967,0.232565,20.7484,196.669,4.01531,0.0,0.0
222,55.25,56.8091,60.8349,128.633,99.555,63.3581,0.0225399,0.230703,20.7522,196.599,4.0231,0.0,0.0
224,55.75,56.7633,60.9728,128.596,99.559,63.0244,0.0220581,0.229196,20.7552,196.569,4.07046,0.0,0.0
226,56.25,56.717,60.7695,127.577,99.5699,64.4329,0.0215674,0.227307,20.759,196.539,3.87467,0.0,0.0
228,56.75,56.8508,61.1265,127.237,99.5783,65.6128,0.0210651,0.225777,20.7621,196.509,3.71388,0.0,0.0
230,57.25,57.0831,60.6304,129.875,99.5819,65.4152,0.020564,0.2241,20.7646,196.479,3.74105,0.0,0.0
232,57.75,56.7842,61.0244,129.112,99.596,67.3647,0.0201581,0.222346,20.7675,196.419,3.48087,0.0,0.0
234,58.25,57.1221,61.1459,127.158,99.588,67.6929,0.0198293,0.220926,20.7699,196.419,3.4369,0.0,0.0
236,58.75,56.8622,61.032,132.842,99.5835,67.9417,0.0194071,0.218689,20.7718,196.399,3.40383,0.0,0.0
238,59.25,57.1785,60.9376,128.018,99.5908,68.6214,0.0189249,0.216877,20.7754,196.359,3.31586,0.0,0.0
240,59.75,56.8224,61.4538,130.622,99.5992,69.5681,0.0184603,0.214657,20.7784,196.329,3.19463,0.0,0.0
242,60.25,57.18,61.3124,131.884,99.5924,68.6871,0.0180174,0.212859,20.7821,196.289,3.30749,0.0,0.0
244,60.75,57.0755,60.92,129.224,99.6024,69.3697,0.0176586,0.211403,20.7851,196.259,3.22035,0.0,0.0
246,61.25,57.2088,61.156,130.61,99.5992,69.1963,0.0172345,0.209128,20.7883,196.209,3.24234,0.0,0.0
248,61.75,57.1362,61.1261,133.765,99.6052,72.6814,0.016891,0.207285,20.7915,196.169,2.80543,0.0,0.0
250,62.25,57.181,61.3208,129.971,99.6036,69.3828,0.0165364,0.205414,20.794,196.139,3.21877,0.0,0.0
252,62.75,57.3155,61.22,131.835,99.61,71.4497,0.0161805,0.203558,20.7979,196.119,2.95802,0.0,0.0
254,63.25,57.1119,60.9975,131.636,99.6108,72.1039,0.015826,0.202056,20.8011,196.079,2.87695,0.0,0.0
256,63.75,56.7823,60.9464,132.085,99.6225,71.9687,0.0154791,0.200405,20.8039,196.079,2.8947,0.0,0.0
258,64.25,56.921,61.0627,129.859,99.6241,72.8446,0.0151981,0.199068,20.8063,196.059,2.78715,0.0,0.0
260,64.75,56.8701,60.937,129.616,99.6297,72.0547,0.0148371,0.197773,20.8086,196.029,2.88471,0.0,0.0
262,65.25,56.6385,61.0233,132.085,99.6189,71.4175,0.0145446,0.196534,20.8106,196.009,2.96282,0.0,0.0
264,65.75,56.9649,60.9581,129.413,99.6414,74.6554,0.0141944,0.19553,20.8129,195.989,2.57009,0.0,0.0
266,66.25,56.9652,61.0613,133.055,99.6514,73.9325,0.0139107,0.194389,20.8155,195.949,2.65761,0.0,0.0
268,66.75,56.941,60.9842,130.165,99.6466,74.0326,0.0135744,0.193464,20.8177,195.929,2.64514,0.0,0.0
270,67.25,56.6098,60.9197,135.703,99.6422,73.6578,0.013302,0.192477,20.8198,195.889,2.68993,0.0,0.0
272,67.75,56.7578,60.7778,133.73,99.649,74.2917,0.0129936,0.191678,20.8215,195.849,2.61426,0.0,0.0
274,68.25,56.5169,60.5917,135.412,99.643,74.3811,0.0127437,0.190941,20.8228,195.829,2.60301,0.0,0.0
276,68.75,56.8489,60.6349,134.593,99.6562,74.7301,0.0125413,0.190345,20.8239,195.809,2.56253,0.0,0.0
278,69.25,57.0374,60.9819,132.961,99.6586,74.5333,0.0122453,0.189802,20.8248,195.799,2.58621,0.0,0.0
280,69.75,56.4355,60.8809,133.374,99.6562,76.9873,0.0120056,0.189362,20.8256,195.799,2.2976,0.0,0.0
282,70.25,56.3703,60.4497,129.292,99.6594,75.5873,0.0116745,0.188887,20.8261,195.769,2.46127,0.0,0.0
284,70.75,56.3719,60.5792,133.16,99.6679,76.264,0.0114064,0.188502,20.8266,195.729,2.38268,0.0,0.0
286,71.25,56.5509,60.4271,131.789,99.6791,77.5389,0.0111153,0.188104,20.827,195.709,2.23609,0.0,0.0
288,71.75,56.2949,60.3025,132.323,99.6723,78.1541,0.0108131,0.187704,20.8282,195.699,2.16513,0.0,0.0
290,72.25,55.8067,60.6999,134.013,99.6651,77.7017,0.0105104,0.187381,20.8292,195.709,2.21616,0.0,0.0
292,72.75,56.5412,60.7419,135.159,99.6787,79.7279,0.0102131,0.186986,20.8304,195.658,1.98821,0.0,0.0
294,73.25,56.4988,60.2324,131.524,99.6896,78.771,0.00993083,0.186546,20.8319,195.628,2.09668,0.0,0.0
296,73.75,56.885,60.5371,131.672,99.6823,79.878,0.00966484,0.186057,20.8335,195.598,1.97179,0.0,0.0
298,74.25,56.2306,60.7042,134.442,99.6783,79.4748,0.00941343,0.185541,20.8348,195.608,2.01648,0.0,0.0
300,74.75,56.498,60.1404,129.353,99.6912,80.1472,0.00917741,0.185124,20.8368,195.588,1.94262,0.0,0.0
302,75.25,56.1369,60.7241,138.276,99.6811,79.6944,0.00898624,0.184355,20.8384,195.568,1.99217,0.0,0.0
304,75.75,56.1209,60.0478,131.759,99.6916,82.059,0.00877519,0.183733,20.8396,195.568,1.7328,0.0,0.0
306,76.25,56.4296,60.2148,132.491,99.688,83.8609,0.00855366,0.182844,20.8425,195.558,1.53911,0.0,0.0
308,76.75,56.7653,60.5337,134.936,99.6964,84.3149,0.00833639,0.182124,20.8448,195.558,1.49179,0.0,0.0
310,77.25,56.0741,60.0894,139.519,99.696,85.9964,0.00812635,0.180978,20.8475,195.538,1.31596,0.0,0.0
312,77.75,55.9315,60.0014,132.585,99.7028,84.7478,0.00791508,0.180051,20.8498,195.528,1.44677,0.0,0.0
314,78.25,55.894,60.3639,132.426,99.6936,85.0997,0.00770694,0.178818,20.8534,195.508,1.40906,0.0,0.0
316,78.75,56.2974,60.0548,134.542,99.7112,87.9442,0.00751142,0.177385,20.8563,195.478,1.11794,0.0,0.0
318,79.25,56.2576,60.2771,125.321,99.6956,88.9113,0.00732881,0.175738,20.8609,195.478,1.01918,0.0,0.0
320,79.75,55.6019,60.0225,137.225,99.7141,90.2451,0.00718089,0.173964,20.8646,195.468,0.888262,0.0,0.0
322,80.25,56.0417,59.7202,135.658,99.7189,88.6505,0.00702156,0.172527,20.8676,195.428,1.0474,0.0,0.0
324,80.75,55.841,60.0302,128.846,99.7213,88.8129,0.0068925,0.170599,20.8714,195.428,1.03132,0.0,0.0
326,81.25,56.0211,60.1732,138.35,99.7088,89.68,0.00678796,0.169038,20.8745,195.428,0.943722,0.0,0.0
328,81.75,55.6227,59.6961,135.422,99.7221,91.2839,0.00668668,0.167056,20.877,195.398,0.787094,0.0,0.0
330,82.25,55.6499,59.7615,132.604,99.7169,91.4844,0.00660465,0.165058,20.8801,195.388,0.767091,0.0,0.0
332,82.75,56.0193,59.9684,134.607,99.7345,90.5941,0.00653821,0.163087,20.8826,195.378,0.855734,0.0,0.0
334,83.25,55.9283,59.9483,136.345,99.7458,91.8872,0.006477,0.16149,20.8853,195.388,0.730564,0.0,0.0
336,83.75,55.8967,59.5446,136.099,99.7321,92.9421,0.00642077,0.160196,20.8882,195.378,0.627726,0.0,0.0
338,84.25,55.7117,59.2143,137.732,99.7309,92.5189,0.00636717,0.157879,20.8905,195.368,0.668242,0.0,0.0
340,84.75,55.4209,59.7994,133.839,99.7321,92.8751,0.0063165,0.156003,20.8942,195.368,0.634145,0.0,0.0
342,85.25,54.6249,59.3797,131.056,99.7389,94.7266,0.00627076,0.154483,20.8971,195.348,0.459026,0.0,0.0
344,85.75,55.0373,59.0558,137.24,99.7474,93.9876,0.00622948,0.152263,20.9013,195.358,0.529502,0.0,0.0
346,86.25,55.0246,59.1684,131.705,99.7385,94.6956,0.0061994,0.150466,20.9047,195.338,0.461899,0.0,0.0
348,86.75,55.0105,59.35,137.05,99.751,94.6049,0.00617805,0.148575,20.9093,195.328,0.471543,0.0,0.0
350,87.25,54.9305,58.7626,134.403,99.7389,94.8856,0.00617621,0.146652,20.913,195.328,0.444096,0.0,0.0
352,87.75,55.2279,59.2537,138.764,99.7478,95.8111,0.00618861,0.144722,20.9173,195.318,0.358468,0.0,0.0
354,88.25,55.4462,59.1287,135.348,99.7474,95.0412,0.00619866,0.142822,20.9208,195.308,0.430261,0.0,0.0
356,88.75,54.9807,59.1938,138.352,99.7458,95.4054,0.00625661,0.141284,20.9245,195.288,0.396069,0.0,0.0
358,89.25,55.2583,59.2958,137.855,99.7478,96.0926,0.00630354,0.139345,20.9276,195.288,0.332348,0.0,0.0
360,89.75,54.9977,58.9622,137.544,99.7586,95.7484,0.00638128,0.137774,20.93,195.288,0.365267,0.0,0.0
362,90.25,54.4951,58.2073,136.715,99.7514,96.6027,0.00648,0.135796,20.9329,195.278,0.285541,0.0,0.0
364,90.75,54.5348,58.5295,133.611,99.7614,96.4475,0.00655996,0.134194,20.9352,195.278,0.30075,0.0,0.0
366,91.25,54.626,58.0849,139.942,99.7582,96.3195,0.0066759,0.132263,20.9376,195.268,0.31229,0.0,0.0
368,91.75,54.5269,58.7748,136.467,99.7634,96.9338,0.00676981,0.1307,20.9399,195.258,0.256155,0.0,0.0
370,92.25,54.1285,58.0534,136.668,99.7626,97.1149,0.00686141,0.129131,20.9418,195.258,0.239471,0.0,0.0
372,92.75,53.822,57.8447,134.916,99.7695,96.6782,0.00694957,0.127588,20.9449,195.248,0.280202,0.0,0.0
374,93.25,54.3697,57.6965,136.889,99.7663,96.3665,0.00702639,0.126338,20.9473,195.248,0.308658,0.0,0.0
376,93.75,54.1661,58.0865,135.909,99.7767,96.5429,0.00709347,0.124739,20.9498,195.238,0.293311,0.0,0.0
378,94.25,53.8291,58.3374,135.641,99.7819,96.2584,0.00715186,0.123444,20.9517,195.228,0.320048,0.0,0.0
380,94.75,53.865,58.0392,138.252,99.7755,96.3886,0.00720281,0.122108,20.9542,195.218,0.307446,0.0,0.0
382,95.25,53.9723,57.4014,137.378,99.7819,96.4967,0.00725421,0.121026,20.9563,195.238,0.298038,0.0,0.0
384,95.75,53.6948,57.8547,132.326,99.7815,96.9813,0.00730497,0.120022,20.9584,195.228,0.253406,0.0,0.0
386,96.25,53.6375,57.3588,139.337,99.7859,96.2177,0.00734608,0.119093,20.96,195.228,0.324171,0.0,0.0
388,96.75,53.5671,57.3915,138.63,99.7887,96.3339,0.00739493,0.118228,20.9614,195.228,0.313681,0.0,0.0
390,97.25,52.8797,57.0168,135.036,99.7883,96.5446,0.0074485,0.117426,20.9625,195.218,0.294192,0.0,0.0
392,97.75,52.7073,56.8757,136.176,99.7855,97.5477,0.00750217,0.116723,20.9634,195.188,0.20192,0.0,0.0
394,98.25,52.8707,56.575,138.862,99.8056,97.0538,0.00754565,0.116107,20.9642,195.168,0.248903,0.0,0.0
396,98.75,52.7306,56.5795,137.534,99.7928,96.8982,0.00758154,0.115607,20.9647,195.158,0.262041,0.0,0.0
398,99.25,52.8266,56.5575,134.99,99.798,97.1267,0.00761122,0.11506,20.9652,195.178,0.241535,0.0,0.0
400,99.75,52.5103,56.4214,137.553,99.796,96.9779,0.00763662,0.114616,20.9656,195.178,0.255007,0.0,0.0
402,100.25,52.2087,56.4533,136.155,99.8008,97.6698,0.00765841,0.114257,20.9659,195.168,0.192144,0.0,0.0
404,100.75,52.4402,55.9906,135.851,99.7883,97.3832,0.00767863,0.113966,20.9662,195.138,0.217196,0.0,0.0
406,101.25,52.7143,55.9977,134.457,99.8048,97.1187,0.007695,0.113753,20.9664,195.148,0.242883,0.0,0.0
408,101.75,52.0829,56.1217,136.946,99.8008,97.145,0.00771165,0.113601,20.9665,195.138,0.240116,0.0,0.0
410,102.25,52.0084,55.682,132.029,99.8012,97.0224,0.00772818,0.113477,20.9667,195.128,0.251387,0.0,0.0
412,102.75,52.1319,55.9392,137.896,99.8108,96.6328,0.00774157,0.113377,20.9668,195.128,0.288071,0.0,0.0
414,103.25,52.2125,55.7074,135.551,99.81,97.5533,0.00776054,0.113312,20.9669,195.118,0.203602,0.0,0.0
416,103.75,52.047,55.5966,135.354,99.7984,96.6035,0.00778322,0.113272,20.9669,195.128,0.289656,0.0,0.0
418,104.25,51.7686,55.3262,136.124,99.8128,96.6464,0.00780159,0.113224,20.967,195.098,0.287,0.0,0.0
420,104.75,51.99,55.6665,137.845,99.8156,97.2628,0.00781647,0.113173,20.9671,195.108,0.230645,0.0,0.0
422,105.25,51.6683,55.4795,135.069,99.8201,96.7829,0.00785812,0.113131,20.9667,195.118,0.275078,0.0,0.0
424,105.75,52.1509,55.4691,137.337,99.8229,97.3875,0.00789186,0.113039,20.9662,195.098,0.219889,0.0,0.0
426,106.25,51.8449,55.3596,138.631,99.8213,96.4789,0.0079385,0.112966,20.9657,195.088,0.303192,0.0,0.0
428,106.75,51.2483,54.826,137.283,99.8116,97.6588,0.00797628,0.112906,20.9653,195.078,0.194116,0.0,0.0
430,107.25,51.0576,55.0116,133.809,99.8293,97.3646,0.0080275,0.112857,20.9653,195.068,0.222555,0.0,0.0
432,107.75,51.5072,54.5995,134.445,99.8253,96.8376,0.00806898,0.112647,20.9654,195.038,0.270514,0.0,0.0
434,108.25,51.109,55.4843,136.4,99.8317,96.8872,0.0081245,0.112476,20.9655,195.058,0.266528,0.0,0.0
436,108.75,51.0598,54.6749,134.303,99.8353,96.7443,0.00816947,0.112223,20.9656,195.038,0.279988,0.0,0.0
438,109.25,50.7852,54.8194,135.437,99.8329,96.9792,0.00823169,0.112019,20.966,195.048,0.258186,0.0,0.0
440,109.75,50.937,54.682,136.129,99.8265,96.8762,0.00828209,0.111782,20.9664,195.038,0.267075,0.0,0.0
442,110.25,50.6779,54.9408,136.828,99.8337,97.0691,0.00832291,0.11159,20.9668,195.018,0.25001,0.0,0.0
444,110.75,51.2637,54.8681,134.644,99.8245,96.9109,0.00838179,0.111363,20.9671,195.028,0.263702,0.0,0.0
446,111.25,50.8258,54.249,136.409,99.8397,96.8702,0.00842949,0.111179,20.9674,195.028,0.268802,0.0,0.0
448,111.75,50.4108,54.2493,138.692,99.8538,96.5895,0.00846425,0.11093,20.9678,195.018,0.295888,0.0,0.0
450,112.25,50.8744,54.8774,138.876,99.8337,96.8439,0.0084924,0.110729,20.9684,195.018,0.270682,0.0,0.0
452,112.75,51.0654,53.7235,137.08,99.8301,96.9287,0.00849455,0.110498,20.9688,195.008,0.262567,0.0,0.0
454,113.25,50.8074,54.3344,135.108,99.8357,96.5505,0.0084963,0.11025,20.9692,194.998,0.297871,0.0,0.0
456,113.75,50.8141,54.232,137.121,99.8462,96.6468,0.00847871,0.11005,20.9695,194.968,0.289933,0.0,0.0
458,114.25,50.8411,54.2427,137.741,99.8462,97.2938,0.00844735,0.109802,20.9702,194.968,0.230535,0.0,0.0
460,114.75,50.5828,54.134,136.676,99.8297,96.6035,0.00840093,0.1096,20.9708,194.958,0.292449,0.0,0.0
462,115.25,49.7699,53.8929,136.81,99.8418,96.8465,0.00834441,0.109415,20.9712,194.968,0.271164,0.0,0.0
464,115.75,49.6264,54.3764,134.708,99.8369,96.6485,0.00828033,0.109245,20.9716,194.948,0.288953,0.0,0.0
466,116.25,50.4402,53.8295,136.809,99.8518,96.5717,0.00821197,0.109092,20.9719,194.958,0.29735,0.0,0.0
468,116.75,50.2389,53.894,135.806,99.8361,96.8198,0.0081566,0.108954,20.9721,194.938,0.273119,0.0,0.0
470,117.25,50.4256,54.2203,135.932,99.8446,97.2429,0.00809279,0.108843,20.9723,194.928,0.235049,0.0,0.0
472,117.75,50.1186,53.7548,141.313,99.8369,96.6743,0.00802405,0.108681,20.9729,194.918,0.286571,0.0,0.0
474,118.25,49.9758,53.1683,132.865,99.8389,96.7532,0.00795552,0.108551,20.9734,194.908,0.279491,0.0,0.0
476,118.75,49.7565,53.5603,137.327,99.8357,96.8689,0.00788844,0.108416,20.9738,194.908,0.268561,0.0,0.0
478,119.25,50.3328,53.4136,138.12,99.8566,96.8431,0.00783073,0.108307,20.9741,194.908,0.272801,0.0,0.0
480,119.75,49.7764,53.3684,135.462,99.8373,97.5672,0.00778094,0.108137,20.9744,194.918,0.20476,0.0,0.0
482,120.25,49.948,53.5477,135.232,99.8546,96.7375,0.00774399,0.107924,20.9746,194.898,0.282331,0.0,0.0
484,120.75,49.9027,53.4242,133.827,99.8377,97.1933,0.0077171,0.107752,20.9748,194.898,0.238983,0.0,0.0
486,121.25,50.2269,53.2731,133.287,99.8438,97.4646,0.00769465,0.10747,20.9749,194.878,0.214701,0.0,0.0
488,121.75,49.3534,53.4399,137.161,99.8594,96.7566,0.00767585,0.107241,20.975,194.898,0.281006,0.0,0.0
490,122.25,49.524,53.1019,137.798,99.849,97.0457,0.00766062,0.107028,20.9751,194.908,0.253509,0.0,0.0
492,122.75,49.3056,53.2572,138.95,99.8401,97.2086,0.00763545,0.10687,20.9752,194.898,0.237799,0.0,0.0
494,123.25,50.2897,53.1395,136.826,99.8478,96.7426,0.00761505,0.106756,20.9753,194.888,0.281255,0.0,0.0
496,123.75,49.488,52.9634,137.599,99.8562,97.708,0.00759718,0.106633,20.9753,194.888,0.193608,0.0,0.0
498,124.25,49.3199,53.2841,134.964,99.8486,96.5645,0.00758149,0.106507,20.9758,194.888,0.297727,0.0,0.0
500,124.75,49.7754,53.2059,134.835,99.8426,98.0811,0.00756878,0.106404,20.9762,194.878,0.158461,0.0,0.0
502,125.25,49.632,53.2503,139.143,99.8502,97.0313,0.00756876,0.106193,20.9765,194.848,0.25494,0.0,0.0
504,125.75,49.7607,52.759,139.547,99.8421,97.178,0.00756874,0.106022,20.9768,194.838,0.240774,0.0,0.0
506,126.25,49.5891,52.5641,135.719,99.845,97.3438,0.00756873,0.105884,20.977,194.848,0.225852,0.0,0.0
508,126.75,49.3479,53.0007,139.649,99.851,97.5117,0.00756872,0.105772,20.9771,194.828,0.211046,0.0,0.0
510,127.25,49.3355,52.8821,135.073,99.8715,96.8206,0.00756871,0.105681,20.9773,194.848,0.27619,0.0,0.0
512,127.75,49.8089,52.6226,132.998,99.853,96.411,0.00755856,0.105622,20.9776,194.828,0.312283,0.0,0.0
514,128.25,49.1203,53.2989,136.46,99.853,96.8999,0.00754122,0.105588,20.9779,194.828,0.267256,0.0,0.0
516,128.75,49.1673,52.2907,135.632,99.8538,96.367,0.00751501,0.105538,20.9783,194.818,0.316426,0.0,0.0
518,129.25,49.3366,52.8979,133.328,99.8514,96.6116,0.00748284,0.105477,20.9785,194.808,0.293641,0.0,0.0
520,129.75,49.0765,52.6458,137.762,99.851,96.9415,0.00743991,0.105428,20.9787,194.808,0.263262,0.0,0.0
522,130.25,49.524,52.7573,139.277,99.845,96.5747,0.00738994,0.105358,20.9793,194.788,0.296468,0.0,0.0
524,130.75,49.5782,52.3378,134.542,99.8522,97.5431,0.00734947,0.105275,20.9798,194.798,0.20829,0.0,0.0
526,131.25,49.3029,52.5811,138.282,99.8409,96.665,0.00730184,0.105192,20.9802,194.788,0.287788,0.0,0.0
528,131.75,49.1739,52.622,133.468,99.845,96.8015,0.00724991,0.105112,20.9805,194.798,0.275583,0.0,0.0
530,132.25,49.3476,52.6713,138.42,99.8474,96.9007,0.00720785,0.105009,20.9808,194.788,0.266678,0.0,0.0
532,132.75,48.4963,52.771,136.697,99.8554,96.8948,0.00715841,0.104892,20.981,194.778,0.267939,0.0,0.0
534,133.25,49.004,52.7327,138.934,99.8586,97.8458,0.00711836,0.104798,20.9812,194.768,0.181278,0.0,0.0
536,133.75,48.8515,52.3918,133.014,99.8498,97.4494,0.00706927,0.104693,20.9813,194.788,0.21663,0.0,0.0
538,134.25,49.1155,52.4751,136.318,99.8478,96.9177,0.00702951,0.104607,20.9814,194.768,0.265155,0.0,0.0
540,134.75,48.9129,52.208,133.838,99.8546,96.8791,0.0069872,0.104516,20.9815,194.798,0.269309,0.0,0.0
542,135.25,49.0211,52.2569,135.059,99.8522,97.0402,0.00694384,0.104422,20.9816,194.788,0.254301,0.0,0.0
544,135.75,49.1748,52.0945,139.851,99.8554,96.8024,0.00690872,0.104345,20.9817,194.768,0.276435,0.0,0.0
546,136.25,48.1994,52.1575,137.038,99.8466,97.4138,0.00689576,0.104268,20.9817,194.778,0.219598,0.0,0.0
548,136.75,48.492,51.76,134.593,99.8594,97.44,0.00687361,0.104193,20.9817,194.748,0.218342,0.0,0.0
550,137.25,48.6107,51.5684,138.871,99.8574,96.9058,0.00686719,0.104094,20.9818,194.748,0.267105,0.0,0.0
552,137.75,48.5706,52.4229,136.228,99.8538,96.9817,0.00686199,0.10398,20.9818,194.748,0.259814,0.0,0.0
554,138.25,49.0241,51.9248,133.175,99.8534,97.5359,0.00685777,0.103888,20.9818,194.738,0.209056,0.0,0.0
556,138.75,48.9656,51.8147,139.399,99.8474,97.139,0.00684284,0.103742,20.9818,194.728,0.244814,0.0,0.0
558,139.25,48.6198,52.004,137.911,99.8434,97.599,0.00683074,0.10368,20.9819,194.748,0.202396,0.0,0.0
560,139.75,48.6801,52.1972,136.944,99.8526,97.619,0.00677746,0.103567,20.9819,194.748,0.201402,0.0,0.0
562,140.25,48.73,51.8985,132.656,99.8642,96.9851,0.0067343,0.103468,20.9819,194.738,0.260433,0.0,0.0
564,140.75,48.4894,51.4812,136.967,99.8558,97.2103,0.00663804,0.103365,20.9819,194.728,0.239041,0.0,0.0
566,141.25,48.68,51.7541,136.461,99.853,97.2607,0.00656007,0.103262,20.9819,194.698,0.23417,0.0,0.0
568,141.75,48.8244,51.8273,136.61,99.863,97.4121,0.00643952,0.103178,20.9821,194.698,0.221222,0.0,0.0
570,142.25,48.4338,51.7343,137.56,99.8502,97.4222,0.00634188,0.103139,20.9825,194.668,0.219146,0.0,0.0
572,142.75,48.0405,51.7967,135,99.8546,96.6697,0.00621694,0.103107,20.9829,194.688,0.288577,0.0,0.0
574,143.25,48.2225,51.6814,139.311,99.847,96.7778,0.00611574,0.103081,20.9827,194.678,0.277945,0.0,0.0
576,143.75,48.3162,51.6893,138.471,99.8562,96.679,0.00601903,0.10306,20.9825,194.708,0.28786,0.0,0.0
578,144.25,48.2154,51.5533,137.231,99.8486,97.2094,0.00592744,0.103029,20.9824,194.688,0.238473,0.0,0.0
580,144.75,48.2382,51.7016,135.458,99.855,96.8698,0.00585325,0.103004,20.9823,194.668,0.270201,0.0,0.0
582,145.25,48.134,51.4307,134.581,99.8598,97.4833,0.00579583,0.102955,20.9823,194.658,0.214428,0.0,0.0
584,145.75,47.9521,51.5874,136.051,99.8606,97.086,0.00575174,0.102916,20.9822,194.658,0.250853,0.0,0.0
586,146.25,48.4127,51.2806,138.84,99.8486,96.7172,0.00571602,0.102861,20.9821,194.658,0.283668,0.0,0.0
588,146.75,47.8356,51.4994,138.366,99.8546,96.8261,0.00570236,0.102797,20.9821,194.648,0.274181,0.0,0.0
590,147.25,47.361,50.8552,134.194,99.8454,96.9342,0.00569129,0.102745,20.9821,194.658,0.263422,0.0,0.0
592,147.75,47.5624,51.0341,138.233,99.853,97.287,0.00568232,0.102731,20.982,194.628,0.231764,0.0,0.0
594,148.25,48.0424,51.3645,133.869,99.8442,97.8738,0.00567506,0.10272,20.982,194.628,0.177443,0.0,0.0
596,148.75,48.169,51.2663,131.837,99.8654,96.9542,0.00565137,0.102711,20.982,194.597,0.263382,0.0,0.0
598,149.25,48.1318,50.8909,135.792,99.857,96.9177,0.00563218,0.102675,20.982,194.617,0.265979,0.0,0.0
600,149.75,47.7831,51.4175,135.694,99.8654,97.7339,0.00558484,0.102646,20.982,194.628,0.192076,0.0,0.0
602,150.25,47.8157,50.5956,135.962,99.8466,97.223,0.0055465,0.102577,20.982,194.617,0.237053,0.0,0.0
604,150.75,47.2004,51.0495,137.144,99.8707,97.0678,0.00551545,0.102482,20.982,194.597,0.253421,0.0,0.0
606,151.25,47.4944,51.0452,136.552,99.8454,96.7621,0.00544837,0.102389,20.9818,194.577,0.279245,0.0,0.0
608,151.75,47.8213,50.9268,138.571,99.8554,97.2302,0.00539404,0.102301,20.9817,194.557,0.23718,0.0,0.0
610,152.25,47.4375,50.9381,138.401,99.8438,96.8363,0.00535004,0.102201,20.9815,194.567,0.272279,0.0,0.0
612,152.75,47.9302,51.1166,135.281,99.8711,97.0937,0.00530424,0.102119,20.9816,194.567,0.251085,0.0,0.0
614,153.25,47.635,51.3951,136.864,99.8478,96.8397,0.00526714,0.102054,20.9819,194.577,0.272325,0.0,0.0
616,153.75,48,51.3576,140.381,99.8538,97.1242,0.00523375,0.101956,20.9822,194.567,0.246748,0.0,0.0
618,154.25,47.4136,50.3996,136.838,99.8486,96.9139,0.0052037,0.101836,20.9824,194.567,0.265578,0.0,0.0
620,154.75,47.3812,50.2343,140.37,99.8594,96.9822,0.00517067,0.101739,20.9826,194.567,0.260276,0.0,0.0
622,155.25,47.7306,51.2676,135.474,99.847,96.4967,0.00513611,0.101632,20.9831,194.547,0.30384,0.0,0.0
624,155.75,48.0248,50.471,135.184,99.8602,97.1199,0.0050961,0.101545,20.9836,194.577,0.247709,0.0,0.0
626,156.25,47.2467,50.8304,134.581,99.8482,97.2124,0.00505288,0.101445,20.984,194.567,0.238167,0.0,0.0
628,156.75,47.7073,51.135,135.809,99.8618,96.5433,0.00501787,0.101337,20.9843,194.547,0.300863,0.0,0.0
630,157.25,47.4935,50.604,141.694,99.8618,97.7203,0.00497018,0.101242,20.9845,194.547,0.192989,0.0,0.0
632,157.75,48.1502,50.8281,136.16,99.8522,96.8465,0.00491413,0.101158,20.9847,194.537,0.272094,0.0,0.0
634,158.25,47.0557,50.2893,140.396,99.8381,97.2421,0.00483582,0.101075,20.9849,194.507,0.234554,0.0,0.0
636,158.75,47.6672,50.6218,136.169,99.851,97.5024,0.00477239,0.100995,20.985,194.527,0.211898,0.0,0.0
638,159.25,47.6525,50.9268,137.17,99.8482,97.2802,0.00472101,0.10093,20.9852,194.507,0.231956,0.0,0.0
640,159.75,47.4446,50.5081,134.809,99.8574,97.0979,0.00463513,0.100825,20.9852,194.507,0.249479,0.0,0.0
642,160.25,47.4811,50.3006,136.379,99.8438,96.4704,0.00456556,0.100692,20.9853,194.507,0.30598,0.0,0.0
644,160.75,47.6893,50.6843,139.339,99.8598,97.1908,0.00447889,0.10057,20.9854,194.517,0.241184,0.0,0.0
646,161.25,47.5214,50.6334,136.409,99.8446,96.8333,0.00440869,0.100458,20.9854,194.497,0.272622,0.0,0.0
648,161.75,47.3588,50.381,137.013,99.8478,96.8414,0.00432783,0.100352,20.9854,194.487,0.272169,0.0,0.0
650,162.25,47.0782,50.3892,136.789,99.8578,96.5857,0.00426234,0.100253,20.9855,194.487,0.296597,0.0,0.0
652,162.75,47.5477,50.3169,131.399,99.8518,96.9402,0.00420265,0.100172,20.9855,194.447,0.263449,0.0,0.0
654,163.25,46.896,50.7513,137.982,99.8389,97.237,0.00414832,0.10005,20.9855,194.457,0.235091,0.0,0.0
656,163.75,47.2026,50.8281,133.836,99.8446,96.7646,0.00410099,0.0999515,20.9855,194.477,0.27894,0.0,0.0
658,164.25,47.641,50.3391,135.352,99.8357,96.8113,0.00405967,0.099879,20.9856,194.457,0.273863,0.0,0.0
660,164.75,47.3301,50.2105,137.823,99.8421,96.961,0.0040262,0.0998269,20.9856,194.427,0.260683,0.0,0.0
662,165.25,47.6092,50.4713,135.333,99.8434,96.8706,0.00399413,0.0997848,20.9858,194.457,0.269086,0.0,0.0
664,165.75,47.1762,50.7796,137.144,99.8494,97.142,0.00396815,0.0997507,20.9862,194.457,0.244721,0.0,0.0
666,166.25,47.299,50.6583,133.743,99.847,97.4163,0.00394711,0.099723,20.9866,194.457,0.219403,0.0,0.0
668,166.75,47.3791,50.3481,139.357,99.8365,97.0207,0.0039225,0.0996438,20.9867,194.447,0.254694,0.0,0.0
670,167.25,47.1721,50.2834,137.86,99.8401,97.1318,0.00390256,0.0995797,20.9867,194.457,0.244831,0.0,0.0
672,167.75,47.7022,50.3765,136.872,99.8526,96.9012,0.00387759,0.0994842,20.9868,194.447,0.267105,0.0,0.0
674,168.25,47.5188,49.7618,138.846,99.8413,97.1089,0.00385736,0.0994068,20.9869,194.437,0.247036,0.0,0.0
676,168.75,46.9762,50.2225,134.705,99.8405,96.7579,0.00383566,0.0993442,20.9869,194.427,0.279206,0.0,0.0
678,169.25,47.1612,50.1572,137.689,99.8353,96.5255,0.00381331,0.0992934,20.9869,194.397,0.300142,0.0,0.0
680,169.75,47.2931,50.4101,133.179,99.8357,97.0949,0.00378659,0.0992523,20.987,194.397,0.247817,0.0,0.0
682,170.25,46.926,50.4782,138.201,99.8401,96.6158,0.00375718,0.0991892,20.987,194.417,0.292247,0.0,0.0
684,170.75,46.9055,50.038,139.662,99.8257,96.8537,0.0037254,0.0991111,20.987,194.397,0.269069,0.0,0.0
686,171.25,46.869,49.9721,141.335,99.8458,97.1369,0.0036925,0.0990404,20.987,194.397,0.244866,0.0,0.0
688,171.75,47.0108,50.2658,136.988,99.8405,97.1556,0.00365988,0.0989764,20.987,194.397,0.24269,0.0,0.0
690,172.25,46.4057,49.8365,137.107,99.8429,97.0296,0.0036281,0.0989245,20.9871,194.397,0.25445,0.0,0.0
692,172.75,47.3978,49.5374,138.874,99.8305,96.9398,0.00360235,0.0989393,20.9871,194.397,0.261591,0.0,0.0
694,173.25,46.8143,49.8213,134.797,99.8301,97.0318,0.00357089,0.0989737,20.9871,194.377,0.25311,0.0,0.0
696,173.75,47.0063,50.2849,137.784,99.8317,96.8668,0.00353588,0.0990218,20.9871,194.357,0.268398,0.0,0.0
698,174.25,46.9287,49.5556,138.319,99.8554,97.0644,0.00350751,0.099098,20.9871,194.367,0.252371,0.0,0.0
700,174.75,47.0435,49.5755,137.241,99.8305,97.4053,0.00348453,0.0991935,20.9871,194.377,0.218942,0.0,0.0
702,175.25,46.5082,49.881,137.354,99.8281,97.2857,0.00345208,0.0992708,20.9871,194.377,0.229661,0.0,0.0
704,175.75,46.6653,49.7598,140.054,99.8305,96.9338,0.0034258,0.0995038,20.9872,194.357,0.262136,0.0,0.0
706,176.25,46.9127,49.7008,134.441,99.8353,96.9851,0.00339561,0.0996926,20.9874,194.337,0.257855,0.0,0.0
708,176.75,47.0274,49.9009,133.201,99.8313,96.9843,0.00337116,0.0998455,20.9876,194.337,0.257575,0.0,0.0
710,177.25,46.7902,49.7559,134.416,99.845,96.5726,0.00331867,0.0999694,20.9878,194.337,0.296663,0.0,0.0
712,177.75,46.7495,49.6458,133.478,99.8253,97.005,0.00327615,0.100183,20.9879,194.337,0.255132,0.0,0.0
714,178.25,46.8669,49.6476,134.695,99.8357,96.7142,0.0032166,0.100357,20.988,194.337,0.282795,0.0,0.0
716,178.75,46.8594,49.6091,137.486,99.8249,97.4748,0.00314575,0.100455,20.9881,194.347,0.212088,0.0,0.0
718,179.25,46.9696,49.4825,134.159,99.8353,97.1356,0.00307714,0.100535,20.9882,194.347,0.24405,0.0,0.0
720,179.75,46.6765,49.7488,135.06,99.8197,97.4184,0.00301146,0.100563,20.9882,194.317,0.216773,0.0,0.0
722,180.25,46.7594,49.4131,134.085,99.8421,96.6396,0.00295826,0.100551,20.9883,194.307,0.290239,0.0,0.0
724,180.75,46.1957,49.343,137.37,99.8217,96.7515,0.00291516,0.100497,20.9883,194.287,0.278108,0.0,0.0
726,181.25,46.3434,49.8156,136.231,99.8265,97.1522,0.00288026,0.100413,20.9883,194.297,0.241747,0.0,0.0
728,181.75,46.4621,49.6576,136.312,99.8213,96.9181,0.00285331,0.100315,20.9884,194.297,0.262754,0.0,0.0
730,182.25,46.9902,49.7529,138.766,99.8273,97.1869,0.00283266,0.100208,20.9884,194.277,0.238634,0.0,0.0
732,182.75,46.9455,49.7083,137.379,99.814,97.075,0.00281462,0.100122,20.9884,194.267,0.247711,0.0,0.0
734,183.25,46.3564,49.3762,139.208,99.8213,96.6074,0.00279882,0.100052,20.9884,194.287,0.291345,0.0,0.0
736,183.75,47.026,50.2189,136.252,99.8104,96.9626,0.00277942,0.0999957,20.9884,194.297,0.257698,0.0,0.0
738,184.25,46.4217,48.9114,135.319,99.8185,97.0852,0.00275776,0.0999649,20.9889,194.297,0.247172,0.0,0.0
740,184.75,46.2336,49.25,138.946,99.8152,96.6493,0.00274022,0.0999533,20.9893,194.277,0.286941,0.0,0.0
742,185.25,46.3392,49.4538,140.278,99.8205,97.1089,0.00271473,0.0999141,20.9896,194.287,0.245173,0.0,0.0
744,185.75,46.6564,49.4716,138.042,99.8076,97.1322,0.00269408,0.0998554,20.9898,194.287,0.241891,0.0,0.0
746,186.25,46.3275,49.1782,136.156,99.816,96.5251,0.00267142,0.0998078,20.99,194.277,0.298463,0.0,0.0
748,186.75,46.3138,49.3597,136.227,99.8092,96.8651,0.00264772,0.0996841,20.9902,194.257,0.266548,0.0,0.0
750,187.25,46.9719,49.1699,133.338,99.8088,97.301,0.00262852,0.0995839,20.9903,194.247,0.226545,0.0,0.0
752,187.75,46.2908,49.5356,138.65,99.8044,97.2247,0.00261297,0.0994176,20.9904,194.237,0.233136,0.0,0.0
754,188.25,46.4194,49.4451,136.432,99.808,97.8076,0.00260038,0.0992828,20.9905,194.257,0.180238,0.0,0.0
756,188.75,46.5986,49.2335,137.56,99.8112,96.9512,0.00258952,0.0991886,20.9905,194.247,0.258821,0.0,0.0
758,189.25,46.5811,49.6937,139.191,99.798,97.1602,0.00258012,0.0991258,20.9906,194.237,0.238466,0.0,0.0
760,189.75,46.1856,49.716,135.179,99.8068,96.6938,0.00257252,0.0990748,20.9906,194.247,0.28209,0.0,0.0
762,190.25,45.8563,48.8427,136.586,99.7996,96.6582,0.0025651,0.0989626,20.9907,194.237,0.284724,0.0,0.0
764,190.75,46.4135,49.0023,137.615,99.7915,97.0546,0.0025591,0.0988717,20.9907,194.237,0.247571,0.0,0.0
766,191.25,46.3871,49.3093,138.701,99.7915,96.9482,0.00255423,0.0987608,20.991,194.237,0.257338,0.0,0.0
768,191.75,46.3519,49.3821,139.706,99.7851,96.8007,0.00255029,0.0986373,20.9914,194.217,0.270324,0.0,0.0
770,192.25,46.588,49.4906,131.249,99.798,96.7774,0.00254459,0.0985372,20.9917,194.237,0.273616,0.0,0.0
772,192.75,46.4599,49.0344,141.515,99.7763,97.0809,0.00253998,0.0984704,20.992,194.227,0.243799,0.0,0.0
774,193.25,46.6204,49.3204,136.092,99.7968,97.0911,0.00252622,0.0984162,20.9922,194.207,0.244693,0.0,0.0
776,193.75,46.8842,49.4418,134.1,99.7851,96.8978,0.00251507,0.098344,20.9924,194.207,0.261399,0.0,0.0
778,194.25,46.2536,48.9832,135.107,99.7803,96.6824,0.00250604,0.0982855,20.9926,194.227,0.28078,0.0,0.0
780,194.75,46.2681,48.5569,138.199,99.7727,97.9586,0.00246993,0.0982665,20.9927,194.207,0.163357,0.0,0.0
782,195.25,46.7177,49.277,137.17,99.7891,97.1471,0.00244067,0.0982511,20.9928,194.187,0.238883,0.0,0.0
784,195.75,46.2025,49.4254,138.128,99.7663,97.1361,0.0023907,0.0982685,20.9929,194.187,0.23785,0.0,0.0
786,196.25,46.7149,49.3481,137.925,99.7823,96.7994,0.00235022,0.0983095,20.9929,194.187,0.27019,0.0,0.0
788,196.75,46.1685,49.3501,137.897,99.7739,96.6722,0.00229906,0.0983875,20.993,194.197,0.281143,0.0,0.0
790,197.25,46.0784,49.059,135.983,99.7622,97.1568,0.00224108,0.0984911,20.993,194.187,0.235588,0.0,0.0
792,197.75,46.5902,49.2178,137.26,99.7642,96.5925,0.00219411,0.098575,20.993,194.187,0.287627,0.0,0.0
794,198.25,46.4916,49.5556,137.992,99.7719,96.9283,0.00215607,0.0986429,20.9931,194.207,0.257413,0.0,0.0
796,198.75,46.2123,49.6688,137.772,99.7606,96.7956,0.00208529,0.0986979,20.993,194.187,0.268605,0.0,0.0
798,199.25,46.5286,49.2081,134.684,99.765,96.4174,0.00202795,0.0987271,20.9929,194.197,0.303851,0.0,0.0
800,199.75,45.9054,49.3745,136.399,99.757,96.9465,0.00197527,0.0987368,20.9928,194.207,0.254413,0.0,0.0
802,200.25,46.3264,49.6629,136.395,99.7554,97.1356,0.0019326,0.0987447,20.9927,194.177,0.236921,0.0,0.0
804,200.75,46.7857,49.0032,137.088,99.7546,96.997,0.00191301,0.098751,20.9926,194.167,0.249565,0.0,0.0
806,201.25,46.4161,48.9183,133.614,99.7534,97.1517,0.00189715,0.0986426,20.9926,194.157,0.235267,0.0,0.0
808,201.75,46.6302,49.0492,133.413,99.7598,97.1157,0.0018843,0.0985548,20.9925,194.147,0.239142,0.0,0.0
810,202.25,46.7889,48.8422,138.207,99.7574,96.6553,0.00190387,0.0984128,20.9925,194.147,0.281235,0.0,0.0
812,202.75,46.3419,49.4743,136.095,99.7426,97.4146,0.00191973,0.0982977,20.9924,194.127,0.210243,0.0,0.0
814,203.25,46.4505,48.8299,136.678,99.7522,96.8885,0.00194882,0.0981903,20.9924,194.137,0.259318,0.0,0.0
816,203.75,46.6659,48.6395,135.892,99.7402,97.2989,0.00197238,0.0981033,20.9924,194.127,0.220612,0.0,0.0
818,204.25,46.6308,49.1814,137.309,99.741,97.3506,0.00200272,0.0980552,20.9924,194.127,0.215953,0.0,0.0
820,204.75,46.209,49.0355,135.034,99.7249,96.9605,0.0020273,0.0980365,20.9924,194.127,0.250261,0.0,0.0
822,205.25,46.2249,48.8739,132.669,99.7341,96.7931,,0.0980213,,194.117,0.266475,0.0,0.0
824,205.75,46.1359,49.7729,136.951,99.7373,97.1187,,0.0981083,,194.107,0.236863,0.0,0.0
826,206.25,46.5757,48.7387,137.731,99.7321,96.8372,,0.0981788,,194.117,0.26224,0.0,0.0
828,206.75,45.9822,49.2307,136.385,99.7265,97.7436,,0.0982643,,194.117,0.178793,0.0,0.0
830,207.25,46.2981,48.8906,136.099,99.7438,97.6787,,0.0983336,,194.117,0.186245,0.0,0.0
832,207.75,46.2999,49.345,140.492,99.7438,96.8202,,0.0983187,,194.097,0.26484,0.0,0.0
834,208.25,46.2473,49.1165,137.214,99.7237,96.8846,,,,194.107,0.257124,0.0,0.0
836,208.75,46.4811,49.1221,141.655,99.7185,96.8732,,,,194.097,0.25771,0.0,0.0
838,209.25,46.6252,49.2112,136.799,99.7092,97.0585,,,,194.097,0.239874,0.0,0.0
840,209.75,46.1878,48.4314,139.054,99.7209,96.997,,,,194.077,0.246555,0.0,0.0
842,210.25,46.3342,48.9799,134.629,99.7032,97.1785,,,,194.077,0.228338,0.0,0.0
844,210.75,46.1301,48.797,138.801,99.7201,97.262,,,,194.057,0.222195,0.0,0.0
846,211.25,45.9623,48.764,135.416,99.6948,96.9771,,,,194.057,0.246054,0.0,0.0
848,211.75,46.1838,49.2365,133.361,99.6996,96.6006,,,,194.057,0.281113,0.0,0.0
850,212.25,46.4245,48.9163,134.69,99.6936,96.746,,,,194.067,0.267183,0.0,0.0
852,212.75,45.9088,48.7328,136.304,99.6948,96.3623,,,,194.057,0.302669,0.0,0.0
854,213.25,46.0915,48.9418,133.749,99.704,97.4091,,,,194.047,0.207306,0.0,0.0
856,213.75,45.8052,48.6486,133.675,99.694,96.5319,,,,194.037,0.286943,0.0,0.0
858,214.25,46.6203,49.4769,138.907,99.6779,96.9915,,,,194.007,0.243224,0.0,0.0
860,214.75,46.1774,49.0393,137.225,99.6755,96.6883,,,,194.017,0.270877,0.0,0.0
862,215.25,46.2274,48.8895,136.146,99.6659,96.4641,,,,194.027,0.290691,0.0,0.0
864,215.75,46.189,48.8852,134.628,99.6691,97.3616,,,,194.007,0.208527,0.0,0.0
865,216,46.0582,49.2133,138.694,99.6643,97.0008,,,,193.997,0.241148,0.0,0.0