File: 01_Data/Vinyl_Siding/Cone/Vinyl_Siding_Cone_HF25Scan_220331_R3.csv
Names,Time,Stack TC,Smoke TC,Exh Press,Smoke Comp,Smoke Meas,CO Meter,CO2 Meter,O2 Meter,Sample Mass,Ext Coeff,Start Test,Flame Verif
Chan Gain,,500,500,1,1,1,1,1,1,1,1,1.0,1.0
Offset,,0,0,0.133521,0,0,0,0,0,0,0,0.0,0.0
Gain,,1,1,25.011,13.1585,13.8929,1,1,1,1.00096,1.01488,1.0,1.0
Units,sec,C,C,Pa,%,%,%,%,%,g,/m,,
Baseline,,17.8999,18.4172,154.039,98.0604,97.5282,0.000852606,0.0726236,21.0008,-833.708,0.048481,,
4,0.75,16.6278,16.1881,153.357,98.4214,97.7534,0.000936016,0.0738911,21.0009,199.772,0.0606328,0.0,0.0
8,1.75,16.6986,17.4289,154.911,98.4298,97.6635,0.00091578,0.0741848,21.0002,199.762,0.0695846,0.0,0.0
12,2.75,16.4094,17.3403,154.415,98.4323,97.7945,0.000906347,0.0745005,20.999,199.742,0.0578687,0.0,0.0
16,3.75,16.3849,16.5172,151.352,98.4371,97.8746,0.000901098,0.0747437,20.9981,199.712,0.0510126,0.0,0.0
20,4.75,16.7894,17.1164,149.971,98.4463,97.9484,0.000896061,0.075005,20.9969,199.702,0.0451406,0.0,0.0
24,5.75,16.3033,17.3209,155.872,98.4527,98.1909,0.000899503,0.0752186,20.9968,199.692,0.0237066,0.0,0.0
28,6.75,16.9257,17.1994,151.487,98.46,97.7449,0.000924259,0.0753929,20.9967,199.632,0.0648912,0.0,0.0
32,7.75,16.043,17.0439,154.705,98.4696,97.8221,0.00096976,0.0754651,20.9962,199.632,0.0587374,0.0,0.0
36,8.75,16.7451,17.0919,154.413,98.4624,98.0968,0.00101271,0.0754783,20.9955,199.672,0.0331154,0.0,0.0
40,9.75,16.8603,17.1325,152.611,98.474,97.8034,0.00107283,0.0756275,20.9951,199.662,0.0608342,0.0,0.0
44,10.75,16.5537,17.0268,154.254,98.4628,98.0714,0.00114607,0.0758393,20.9948,199.672,0.0354612,0.0,0.0
48,11.75,16.1183,16.7329,152.191,98.4748,97.945,0.00120765,0.0763994,20.9933,199.672,0.0480269,0.0,0.0
52,12.75,16.3906,17.3976,152.435,98.4696,97.8093,0.00123678,0.0771756,20.9913,199.662,0.059895,0.0,0.0
56,13.75,17.1086,17.3018,157.607,98.4788,97.9594,0.00123787,0.0779909,20.9899,199.682,0.047079,0.0,0.0
60,14.75,16.5601,17.0574,151.161,98.4941,98.2197,0.00123633,0.0787167,20.9889,199.692,0.0248327,0.0,0.0
64,15.75,16.5987,17.9126,156.345,98.4857,97.6792,0.00124578,0.0792438,20.9883,199.682,0.073202,0.0,0.0
68,16.75,17.0655,17.7056,154.434,98.4961,97.942,0.00125307,0.079542,20.9879,199.682,0.0502201,0.0,0.0
72,17.75,17.2484,17.4461,152.581,98.5001,98.0251,0.00125982,0.0796066,20.9876,199.672,0.0430328,0.0,0.0
76,18.75,17.3367,17.8825,150.815,98.5114,97.4693,0.00126914,0.0794683,20.9875,199.662,0.0946727,0.0,0.0
80,19.75,16.8282,17.3909,155.768,98.509,97.8297,0.00127547,0.0791737,20.9874,199.662,0.0616004,0.0,0.0
84,20.75,17.1089,17.4024,154.694,98.4993,98.1184,0.00127305,0.0789065,20.9875,199.662,0.0344929,0.0,0.0
88,21.75,16.8809,17.4026,154.345,98.4953,98.0688,0.00127761,0.0785505,20.9881,199.672,0.0386318,0.0,0.0
92,22.75,16.899,17.8448,155.352,98.5226,97.6758,0.00128251,0.078013,20.9888,199.672,0.0768494,0.0,0.0
96,23.75,17.5111,17.6403,155.999,98.4905,98.3838,0.00128245,0.0775077,20.9893,199.672,0.00964585,0.0,0.0
100,24.75,17.1887,17.6525,153.886,98.4917,98.001,0.00126328,0.0770998,20.9896,199.662,0.0444658,0.0,0.0
104,25.75,16.9332,17.6267,152.718,98.5021,97.4422,0.00121045,0.0768322,20.9898,199.662,0.0963168,0.0,0.0
108,26.75,17.1792,17.8786,151.63,98.5009,97.6054,0.0011288,0.0765163,20.9899,199.672,0.0813073,0.0,0.0
112,27.75,16.7502,17.2613,154.252,98.5001,98.2867,0.00102611,0.076151,20.9908,199.662,0.0193067,0.0,0.0
116,28.75,17.0284,17.7111,152.107,98.507,97.4091,0.000928445,0.0758189,20.9914,199.662,0.0997743,0.0,0.0
120,29.75,16.9737,17.8617,153.297,98.4845,97.7945,0.000860639,0.0754846,20.9918,199.652,0.0625889,0.0,0.0
124,30.75,16.9217,17.7824,151.411,98.4817,97.8615,0.000809384,0.0751782,20.9921,199.652,0.0562395,0.0,0.0
128,31.75,17.3809,18.0619,153.392,98.4817,97.9085,0.000793636,0.0749048,20.9922,199.652,0.051958,0.0,0.0
132,32.75,17.1772,17.5999,153.443,98.4792,97.2183,0.000774203,0.0746799,20.9923,199.642,0.114724,0.0,0.0
136,33.75,17.3286,17.8303,149.274,98.4796,96.7218,0.000747277,0.074474,20.9924,199.652,0.16034,0.0,0.0
140,34.75,16.9532,17.6481,154.742,98.482,97.0954,0.000696854,0.0743935,20.9925,199.642,0.126244,0.0,0.0
144,35.75,17.3209,17.8788,156.48,98.4732,96.7176,0.000638289,0.0743992,20.9925,199.642,0.160149,0.0,0.0
148,36.75,17.3809,18.0513,152.839,98.4837,96.7104,0.000575101,0.0745046,20.9925,199.642,0.161757,0.0,0.0
152,37.75,16.9751,18.2217,154.381,98.474,96.6226,0.00053052,0.0747356,20.993,199.642,0.168969,0.0,0.0
156,38.75,17.4276,17.6647,151.295,98.4616,96.3733,0.000521678,0.0750373,20.9932,199.632,0.190841,0.0,0.0
160,39.75,17.5241,17.8099,152.973,98.4612,95.9548,0.000534757,0.0753264,20.993,199.632,0.229545,0.0,0.0
164,40.75,17.2214,17.6137,153.977,98.4447,96.6154,0.00055439,0.0755234,20.9935,199.612,0.166982,0.0,0.0
168,41.75,16.6793,17.5766,152.57,98.4447,96.1049,0.000602817,0.0756633,20.9945,199.602,0.214142,0.0,0.0
172,42.75,16.7736,17.2921,157.212,98.4435,96.0371,0.000663636,0.075737,20.9956,199.592,0.22032,0.0,0.0
176,43.75,16.9575,17.9214,155.061,98.4306,95.8065,0.000710023,0.0757628,20.9963,199.582,0.240564,0.0,0.0
180,44.75,17.2015,18.3308,153.005,98.4186,95.5309,0.00074081,0.0757245,20.9968,199.572,0.265118,0.0,0.0
184,45.75,17.2878,17.8169,151.924,98.4218,95.1752,0.000759414,0.0756994,20.9971,199.552,0.29862,0.0,0.0
188,46.75,17.0327,17.5983,151.035,98.411,95.1934,0.000770967,0.0756829,20.9965,199.542,0.295935,0.0,0.0
192,47.75,17.2042,17.8047,153.51,98.4078,95.971,0.000778913,0.0757924,20.9961,199.522,0.223221,0.0,0.0
196,48.75,17.5161,18.1165,156.68,98.4001,95.1828,0.000801333,0.0759767,20.9959,199.502,0.295946,0.0,0.0
200,49.75,17.5612,18.0309,154.251,98.3977,95.321,0.000826106,0.0761594,20.9957,199.472,0.282808,0.0,0.0
204,50.75,16.9201,17.6939,155.035,98.3917,94.3743,0.000845768,0.0763301,20.9956,199.452,0.371128,0.0,0.0
208,51.75,18.0681,18.3948,151.865,98.3801,95.1887,0.000831233,0.0765331,20.9957,199.442,0.293573,0.0,0.0
212,52.75,17.5077,18.6505,155.405,98.3797,94.5057,0.000782193,0.0767481,20.9959,199.402,0.357647,0.0,0.0
216,53.75,17.9521,18.4672,153.521,98.376,93.9804,0.000751322,0.0769053,20.996,199.382,0.406942,0.0,0.0
220,54.75,17.6782,18.008,157.89,98.3604,94.4726,0.000740817,0.0772326,20.9961,199.342,0.359018,0.0,0.0
224,55.75,17.3818,17.9245,153.952,98.3568,94.6706,0.000767879,0.0775556,20.9959,199.312,0.340053,0.0,0.0
228,56.75,18.011,18.0551,153.072,98.3576,94.2441,0.000814817,0.077823,20.9952,199.272,0.380326,0.0,0.0
232,57.75,17.6692,18.1145,158.135,98.3487,94.3119,0.000882106,0.0781707,20.9947,199.242,0.373119,0.0,0.0
236,58.75,17.3795,18.5863,150.018,98.3435,94.3442,0.000937428,0.0785277,20.9944,199.202,0.369607,0.0,0.0
240,59.75,17.833,18.3634,153.984,98.3355,94.6922,0.000975976,0.0788623,20.9942,199.152,0.336093,0.0,0.0
244,60.75,17.7597,18.3357,156.145,98.3355,93.7014,0.000992264,0.0792695,20.9941,199.122,0.429738,0.0,0.0
248,61.75,17.8031,18.4915,152.681,98.3323,94.4171,0.00102615,0.079608,20.994,199.082,0.36171,0.0,0.0
252,62.75,17.457,18.6606,149.754,98.319,93.7824,0.00110611,0.0799374,20.994,199.042,0.420556,0.0,0.0
256,63.75,17.7832,18.6478,154.335,98.3258,94.6066,0.00117241,0.0802438,20.9936,198.992,0.343276,0.0,0.0
260,64.75,17.8536,18.5298,156.84,98.3283,93.3872,0.00126389,0.0804979,20.993,198.942,0.458982,0.0,0.0
264,65.75,17.9022,18.4978,148.691,98.3339,93.355,0.00132082,0.0806392,20.9922,198.902,0.462564,0.0,0.0
268,66.75,18.0917,18.3971,157.136,98.3274,93.9198,0.00130946,0.0807319,20.9921,198.852,0.40829,0.0,0.0
272,67.75,17.9879,18.2842,151.851,98.3459,94.2009,0.00124214,0.0807927,20.9924,198.812,0.383357,0.0,0.0
276,68.75,17.8556,17.886,154.612,98.3311,93.7328,0.00114606,0.0809345,20.9926,198.761,0.426357,0.0,0.0
280,69.75,17.9541,18.8642,149.328,98.3283,93.598,0.00105303,0.0810021,20.9928,198.731,0.438918,0.0,0.0
284,70.75,17.9609,18.3666,153.598,98.319,94.4819,0.00098936,0.0810465,20.9928,198.671,0.354395,0.0,0.0
288,71.75,17.8526,18.4483,150.572,98.321,93.3838,0.000961471,0.0810246,20.9929,198.631,0.458652,0.0,0.0
292,72.75,18.0936,18.2182,152.913,98.3291,93.6658,0.000958717,0.0810102,20.9936,198.581,0.43254,0.0,0.0
296,73.75,17.9693,18.8838,151.863,98.3299,94.2411,0.000987865,0.0807714,20.9942,198.511,0.378098,0.0,0.0
300,74.75,17.8941,19.0411,155.486,98.3142,94.8076,0.00101825,0.0805353,20.9946,198.461,0.323331,0.0,0.0
304,75.75,18.1541,18.4108,152.856,98.3234,93.7451,0.00103142,0.0802263,20.9949,198.421,0.424499,0.0,0.0
308,76.75,17.7585,18.7127,151.289,98.305,93.8388,0.00102882,0.079929,20.995,198.361,0.413933,0.0,0.0
312,77.75,17.828,18.5223,152.285,98.3242,93.7129,0.00101716,0.0796946,20.9951,198.301,0.427632,0.0,0.0
316,78.75,18.0887,18.7693,153.572,98.3102,93.8138,0.000997724,0.0796363,20.995,198.261,0.416779,0.0,0.0
320,79.75,18.0252,18.8699,156.819,98.3234,93.9897,0.000979466,0.0797425,20.9943,198.211,0.401297,0.0,0.0
324,80.75,18.2025,18.4411,156.834,98.3074,93.687,0.000961745,0.0800671,20.9936,198.161,0.428562,0.0,0.0
328,81.75,17.7069,19.0118,155.365,98.3038,93.631,0.000947752,0.0805095,20.9926,198.121,0.433554,0.0,0.0
332,82.75,18.0162,18.8549,153.996,98.3154,93.5891,0.000940165,0.0809605,20.9911,198.071,0.438601,0.0,0.0
336,83.75,17.9027,18.9965,153.169,98.3058,93.6166,0.00096219,0.0814202,20.9902,198.021,0.435107,0.0,0.0
340,84.75,18.6299,18.9792,152.982,98.2989,94.0181,0.000977949,0.0819074,20.9887,197.971,0.396389,0.0,0.0
344,85.75,17.8761,18.4686,154.117,98.2965,93.1702,0.000991481,0.0824526,20.9878,197.911,0.476827,0.0,0.0
348,86.75,18.7685,19.0449,157.129,98.2865,94.1216,0.000984399,0.082993,20.9871,197.871,0.385472,0.0,0.0
352,87.75,18.1364,18.7987,155.354,98.2993,94.0126,0.000966594,0.0835263,20.9874,197.841,0.396947,0.0,0.0
356,88.75,18.1525,18.7997,153.827,98.2821,94.0957,0.000964939,0.0838762,20.9876,197.781,0.387518,0.0,0.0
360,89.75,17.5207,18.8121,155.677,98.2869,93.2787,0.000997344,0.0840835,20.9877,197.73,0.465589,0.0,0.0
364,90.75,18.0778,18.9923,150.379,98.2869,93.6382,0.00104911,0.0841651,20.9878,197.68,0.431341,0.0,0.0
368,91.75,18.3681,18.7555,154.555,98.2941,94.4828,0.00110581,0.0842113,20.9878,197.62,0.352062,0.0,0.0
372,92.75,18.4161,18.5073,153.472,98.2829,94.1008,0.00115419,0.0842012,20.9879,197.58,0.387109,0.0,0.0
376,93.75,18.03,19.3545,150.148,98.2917,93.9664,0.00116285,0.0841403,20.9879,197.55,0.400634,0.0,0.0
380,94.75,18.5758,19.0861,150.947,98.2789,93.7209,0.00113216,0.0839727,20.9879,197.49,0.422757,0.0,0.0
384,95.75,18.5147,19.4973,156.229,98.2857,94.7957,0.00108618,0.0837359,20.9879,197.45,0.321863,0.0,0.0
388,96.75,18.1608,18.9553,151.753,98.2785,93.6357,0.00105124,0.0834495,20.9879,197.4,0.43082,0.0,0.0
392,97.75,18.017,19.0211,151.132,98.2793,94.2229,0.00103895,0.0832239,20.9879,197.35,0.375237,0.0,0.0
396,98.75,17.8916,19.2831,153.52,98.2873,93.6251,0.00104744,0.0830257,20.9879,197.31,0.432627,0.0,0.0
400,99.75,18.403,19.1503,153.346,98.2965,94.1949,0.00106906,0.0828278,20.9879,197.27,0.379445,0.0,0.0
404,100.75,18.5275,19.4082,152.33,98.2829,93.7353,0.00108728,0.0826004,20.9886,197.23,0.421752,0.0,0.0
408,101.75,18.6328,19.5393,152.123,98.2805,93.6692,0.00109675,0.0823246,20.9892,197.18,0.427818,0.0,0.0
412,102.75,18.097,19.5687,153.344,98.2773,93.8964,0.00110094,0.0820926,20.9895,197.13,0.405954,0.0,0.0
416,103.75,18.2886,19.4731,159.022,98.2841,93.5937,0.00110369,0.0819659,20.9898,197.08,0.435321,0.0,0.0
420,104.75,18.6222,19.0277,148.925,98.2757,94.1008,0.00111451,0.0818318,20.99,197.06,0.386454,0.0,0.0
424,105.75,18.2717,19.2255,152.839,98.2793,93.7854,0.00110294,0.0816673,20.9901,197.01,0.416674,0.0,0.0
428,106.75,18.5451,19.2892,151.034,98.2736,94.6414,0.00105413,0.0814064,20.9901,196.97,0.335277,0.0,0.0
432,107.75,18.4592,19.2429,154.104,98.276,94.794,0.00097736,0.0812212,20.9902,196.92,0.32115,0.0,0.0
436,108.75,18.3242,19.2476,153.121,98.2704,94.0796,0.000907871,0.0810882,20.9902,196.89,0.387987,0.0,0.0
440,109.75,18.7738,19.1154,151.754,98.2708,94.5133,0.00084988,0.081001,20.9902,196.86,0.347076,0.0,0.0
444,110.75,18.6534,19.9347,151.49,98.2789,94.1975,0.000831525,0.0809182,20.9905,196.81,0.377605,0.0,0.0
448,111.75,18.3821,18.7786,150.921,98.2813,94.1754,0.000861123,0.0807875,20.9906,196.76,0.379907,0.0,0.0
452,112.75,18.2571,19.2459,150.551,98.276,94.3492,0.000932365,0.0806572,20.9908,196.72,0.363017,0.0,0.0
456,113.75,17.9683,19.2276,155.003,98.2801,95.1366,0.00099619,0.0804115,20.9913,196.689,0.2894,0.0,0.0
460,114.75,17.9596,18.9166,152.569,98.2885,94.4188,0.00114748,0.0801015,20.992,196.649,0.357586,0.0,0.0
464,115.75,18.4406,19.2987,158.583,98.2905,94.7741,0.0013072,0.0798439,20.9925,196.609,0.324331,0.0,0.0
468,116.75,18.4397,19.0776,155.226,98.311,94.1487,0.00144606,0.0796104,20.9931,196.579,0.385123,0.0,0.0
472,117.75,18.4219,19.4121,153.853,98.2853,94.2611,0.00151526,0.079353,20.9935,196.539,0.372179,0.0,0.0
476,118.75,18.5649,18.9871,154.575,98.2909,94.0045,0.00150013,0.0791646,20.9937,196.509,0.396947,0.0,0.0
480,119.75,18.2096,19.5522,157.51,98.2849,94.4175,0.00145095,0.0790599,20.9939,196.469,0.357379,0.0,0.0
484,120.75,18.7849,19.6229,150.767,98.2913,95.3079,0.00135597,0.0790655,20.994,196.449,0.274404,0.0,0.0
488,121.75,18.9684,19.1795,153.53,98.3062,94.328,0.0013,0.0791,20.994,196.409,0.367745,0.0,0.0
492,122.75,18.5226,19.4352,151.272,98.2881,93.9655,0.00130486,0.0790865,20.9941,196.369,0.400386,0.0,0.0
496,123.75,18.2982,19.4312,149.72,98.2905,94.8309,0.001357,0.0789502,20.9948,196.339,0.318996,0.0,0.0
500,124.75,18.7264,19.308,151.66,98.2748,94.3442,0.00141044,0.0788354,20.9952,196.299,0.363388,0.0,0.0
504,125.75,18.7088,19.4574,153.642,98.2901,95.09375,0.00147767,0.0787346,20.9957,196.279,0.294316,0.0,0.0
508,126.75,18.4471,19.3204,151.363,98.3026,94.3115,0.00151015,0.0786082,20.996,196.249,0.368978,0.0,0.0
512,127.75,18.4908,19.4475,154.527,98.2929,94.4412,0.00147178,0.0785442,20.9962,196.209,0.355868,0.0,0.0
516,128.75,18.3609,19.7322,152.739,98.305,94.189,0.00137768,0.0785,20.9963,196.189,0.38077,0.0,0.0
520,129.75,18.0567,19.3691,153.914,98.2897,94.3819,0.00124455,0.0784891,20.9964,196.139,0.361174,0.0,0.0
524,130.75,18.7644,19.7467,155.642,98.2921,94.9445,0.00107668,0.0784618,20.9964,196.119,0.308481,0.0,0.0
528,131.75,18.797,19.2875,150.087,98.2897,93.8829,0.000941396,0.0784385,20.9962,196.099,0.408369,0.0,0.0
532,132.75,18.6787,19.4045,155.306,98.2917,94.6579,0.000819005,0.0783723,20.9955,196.079,0.335359,0.0,0.0
536,133.75,18.7723,19.3463,160.631,98.2704,95.0289,0.000764928,0.0784053,20.9945,196.039,0.298609,0.0,0.0
540,134.75,18.9147,18.977,154.706,98.2568,94.7834,0.000750338,0.0784779,20.9935,195.999,0.320399,0.0,0.0
544,135.75,18.6375,19.6746,154.307,98.2447,94.9301,0.000806144,0.0785033,20.992,195.969,0.305541,0.0,0.0
548,136.75,19.0463,19.9024,149.713,98.2387,94.8127,0.000890013,0.0784737,20.9908,195.949,0.316015,0.0,0.0
552,137.75,18.8001,19.6002,154.71,98.2194,95.254,0.000956296,0.0785065,20.99,195.909,0.272922,0.0,0.0
556,138.75,18.7854,19.1149,149.551,98.215,95.1679,0.000977275,0.0785575,20.9894,195.879,0.28057,0.0,0.0
560,139.75,18.4703,19.9097,157.638,98.1953,93.4508,0.000966285,0.0785876,20.9884,195.859,0.44088,0.0,0.0
564,140.75,17.8701,19.0654,151.686,98.1825,93.6925,0.00096902,0.0786033,20.9876,195.829,0.416721,0.0,0.0
568,141.75,18.8762,19.4016,152.163,98.1692,94.2343,0.00100375,0.0786688,20.9871,195.799,0.364184,0.0,0.0
572,142.75,18.769,19.5813,152.994,98.1379,94.6121,0.00106286,0.0788539,20.9867,195.759,0.325725,0.0,0.0
576,143.75,18.5092,19.4553,153.582,98.1214,94.4989,0.00112064,0.0791018,20.9865,195.739,0.33489,0.0,0.0
580,144.75,18.4275,19.2155,152.037,98.1142,93.8757,0.00117752,0.0793154,20.9863,195.699,0.393143,0.0,0.0
584,145.75,19.3188,19.6042,151.212,98.1042,94.5472,0.00122603,0.0793953,20.9862,195.668,0.328772,0.0,0.0
588,146.75,18.4091,19.3537,149.116,98.0745,93.9698,0.00127385,0.0793713,20.9862,195.658,0.380615,0.0,0.0
592,147.75,18.7452,19.3632,150.212,98.0455,93.8956,0.00131018,0.0792831,20.9861,195.618,0.385021,0.0,0.0
596,148.75,18.5643,19.1503,150.908,98.0182,93.8337,0.00133299,0.0791722,20.9869,195.598,0.388412,0.0,0.0
600,149.75,18.3259,19.5877,153.297,97.9857,93.7998,0.00133828,0.0790814,20.9874,195.568,0.388677,0.0,0.0
604,150.75,18.93,19.5585,153.66,97.9785,93.3533,0.00133573,0.0792001,20.9877,195.538,0.430493,0.0,0.0
608,151.75,18.9349,19.7305,154.389,97.9395,93.408,0.00133885,0.0793343,20.988,195.508,0.421738,0.0,0.0
612,152.75,18.7694,19.2097,153.009,97.911,93.751,0.00137246,0.0795242,20.9881,195.498,0.386516,0.0,0.0
616,153.75,19.3309,19.5738,148.99,97.8761,93.3525,0.00143739,0.0797227,20.9876,195.458,0.421264,0.0,0.0
620,154.75,19.1915,19.5787,152.345,97.8504,93.7781,0.00148996,0.0798897,20.987,195.418,0.378425,0.0,0.0
624,155.75,18.9658,19.3484,147.458,97.8239,93.2181,0.00153253,0.0800107,20.9867,195.408,0.429341,0.0,0.0
628,156.75,18.859,19.9474,155.832,97.7954,93.9151,0.00150405,0.080105,20.9872,195.358,0.360427,0.0,0.0
632,157.75,18.5048,19.6892,153.388,97.7721,93.0065,0.00145516,0.0802029,20.9877,194.648,0.444854,0.0,0.0
636,158.75,18.9012,19.6862,153.573,97.7428,93.7332,0.00141317,0.0804362,20.988,195.278,0.372895,0.0,0.0
640,159.75,18.5937,19.3135,154.558,97.7271,93.5331,0.00139759,0.080741,20.9882,195.298,0.390496,0.0,0.0
644,160.75,18.6815,19.7747,152.702,97.7018,92.7318,0.00140137,0.0809845,20.9879,195.298,0.464789,0.0,0.0
648,161.75,18.8231,19.9541,147.476,97.6673,92.8836,0.00141,0.0812143,20.9873,195.238,0.447082,0.0,0.0
652,162.75,18.8277,19.7477,149.732,97.6552,93.2855,0.00142759,0.0816029,20.9867,195.208,0.407544,0.0,0.0
656,163.75,18.9126,19.8356,154.475,97.6356,93.7497,0.00144939,0.0821293,20.9857,195.188,0.361554,0.0,0.0
660,164.75,18.7704,20.349,154.05,97.6191,92.061,0.00146903,0.0834704,20.9844,195.158,0.521874,0.0,0.0
664,165.75,18.7016,19.265,146.698,97.6107,92.6465,0.00149283,0.0853174,20.9818,195.138,0.464665,0.0,0.0
668,166.75,19.3426,20.1818,153.732,97.6006,93.1867,0.00153744,0.0873745,20.9801,195.108,0.411997,0.0,0.0
672,167.75,19.0907,19.9893,154.397,97.5914,93.0205,0.00159061,0.0892853,20.9783,195.088,0.427045,0.0,0.0
676,168.75,19.2506,20.2386,155.487,97.5918,92.9115,0.00163673,0.090789,20.9771,195.058,0.437517,0.0,0.0
680,169.75,18.9173,19.3683,151.136,97.5854,92.2094,0.00167359,0.0916722,20.9765,195.028,0.50446,0.0,0.0
684,170.75,19.2242,19.8693,156.204,97.5962,92.7687,0.00169247,0.0920353,20.9761,194.998,0.45162,0.0,0.0
688,171.75,18.8996,19.8256,150.957,97.6099,92.0059,0.00170059,0.0918386,20.9765,194.998,0.526365,0.0,0.0
692,172.75,19.0558,20.0242,149.325,97.6319,91.9656,0.00171394,0.091044,20.9785,194.968,0.532276,0.0,0.0
696,173.75,19.1686,19.6423,151.767,97.6492,92.5032,0.00172674,0.0900792,20.9803,194.958,0.481961,0.0,0.0
700,174.75,19.1865,19.9772,151.699,97.6741,91.7943,0.00173514,0.0889643,20.9827,194.938,0.552716,0.0,0.0
704,175.75,18.6737,19.433,150.425,97.7046,91.654,0.00170903,0.0878132,20.9842,194.928,0.569118,0.0,0.0
708,176.75,18.5382,19.5373,150.505,97.7375,92.5567,0.00165353,0.0866091,20.9852,194.908,0.484872,0.0,0.0
712,177.75,19.2206,19.9233,152.89,97.7685,91.197,0.00157991,0.0854603,20.9858,194.878,0.619439,0.0,0.0
716,178.75,19.1727,20.1289,150.057,97.8122,92.4909,0.0015216,0.0845916,20.9871,194.858,0.497995,0.0,0.0
720,179.75,19.0806,19.8364,152.876,97.8616,92.9137,0.00143375,0.0838835,20.9878,194.828,0.461896,0.0,0.0
724,180.75,19.8006,19.9933,150.997,97.9034,92.6559,0.00139865,0.0833465,20.9882,194.778,0.490428,0.0,0.0
728,181.75,19.2014,19.7387,153.105,97.9468,92.4473,0.00142749,0.0828665,20.9891,194.768,0.514435,0.0,0.0
732,182.75,19.2055,20.553,155.724,98.0186,91.8592,0.00147759,0.0823918,20.9899,194.738,0.577776,0.0,0.0
736,183.75,19.4809,19.7829,157.318,98.0624,91.5196,0.00154319,0.0819925,20.9904,194.718,0.614724,0.0,0.0
740,184.75,19.4806,20.036,152.773,98.1251,92.2934,0.0015923,0.0816369,20.9907,194.718,0.545459,0.0,0.0
744,185.75,19.3973,20.2335,152.893,98.1841,92.468,0.00161562,0.081259,20.9909,194.708,0.53398,0.0,0.0
748,186.75,19.7952,19.8878,156.661,98.2504,91.827,0.00162104,0.0807308,20.9913,194.668,0.601918,0.0,0.0
752,187.75,19.0114,20.007,153.204,98.2993,91.2661,0.00162602,0.0802568,20.9921,194.628,0.660904,0.0,0.0
756,188.75,19.3976,19.8574,152.842,98.362,93.4614,0.00163535,0.079742,20.9926,194.597,0.454966,0.0,0.0
760,189.75,19.0592,20.0823,147.716,98.4182,91.3674,0.00166105,0.0791751,20.993,194.577,0.661783,0.0,0.0
764,190.75,19.2306,20.0409,153.324,98.4804,92.4485,0.00172235,0.0786249,20.9928,194.557,0.562688,0.0,0.0
768,191.75,19.0905,20.1044,149.874,98.5254,92.1306,0.0019033,0.0781235,20.9923,194.527,0.597426,0.0,0.0
772,192.75,19.4599,19.8332,153.021,98.5901,92.0131,0.00235068,0.0784238,20.9884,194.547,0.614621,0.0,0.0
776,193.75,18.7722,20.0822,147.865,98.6371,92.1836,0.00327534,0.0821182,20.9735,194.467,0.602387,0.0,0.0
780,194.75,19.2967,19.7384,152.191,98.713,78.509,0.00478458,0.092264,20.9423,194.427,2.03869,0.0,1.0
784,195.75,19.3066,20.1945,145.86,98.7467,61.8661,0.00675971,0.110451,20.9033,194.377,4.16266,0.0,1.0
788,196.75,20.2055,20.4603,143.873,98.7888,48.7482,0.00929929,0.135802,20.8599,194.287,6.28796,0.0,1.0
792,197.75,19.8563,20.6633,143.039,98.8258,48.1072,0.0120764,0.162412,20.8055,194.177,6.40914,0.0,1.0
796,198.75,20.3342,21.056,136.562,98.8607,42.1363,0.0146701,0.195224,20.7471,194.007,7.59206,0.0,1.0
800,199.75,20.5887,20.6099,135.763,98.88,39.2511,0.0170359,0.227741,20.6941,193.927,8.22524,0.0,0.0
804,200.75,20.9954,21.4439,140.731,98.9226,42.9461,0.0191104,0.254744,20.6529,193.817,7.42815,0.0,0.0
808,201.75,21.4599,21.7795,134.386,98.9406,40.5201,0.0205158,0.276391,20.6198,193.707,7.94744,0.0,0.0
812,202.75,22.016,22.4293,139.585,98.9724,41.2455,0.0215459,0.292787,20.6005,193.607,7.79233,0.0,0.0
816,203.75,22.5136,23.1762,133.195,98.98,42.7019,0.0220565,0.303741,20.5879,193.506,7.48409,0.0,0.0
820,204.75,23.1829,23.6033,136.352,99.0153,44.0785,0.0221371,0.308989,20.5805,193.386,7.20479,0.0,0.0
824,205.75,23.7598,24.115,136.774,99.0185,46.2374,0.0218093,0.309948,20.5813,193.296,6.77939,0.0,0.0
828,206.75,24.2973,24.746,138.357,99.0133,48.1402,0.0211767,0.307669,20.5916,193.226,6.4199,0.0,0.0
832,207.75,24.6616,25.4225,145.518,99.023,53.501,0.0203597,0.301839,20.6071,193.086,5.48082,0.0,0.0
836,208.75,24.4435,25.6392,141.426,99.0238,51.0157,0.0195009,0.294131,20.6229,193.046,5.90436,0.0,0.0
840,209.75,24.9871,26.0571,142.37,99.0226,55.1092,0.0187442,0.28523,20.639,193.026,5.21713,0.0,0.0
844,210.75,25.2684,26.2868,143.451,99.0338,58.5239,0.017717,0.276137,20.6545,192.926,4.68293,0.0,0.0
848,211.75,25.8298,26.6803,145.068,99.0374,59.296,0.0167032,0.268299,20.6677,192.926,4.56658,0.0,0.0
852,212.75,26.5508,26.804,145.156,99.0418,59.2599,0.0156522,0.260511,20.6805,192.826,4.57239,0.0,0.0
856,213.75,26.4357,27.2692,142.242,99.039,61.65625,0.0145923,0.253392,20.6969,192.766,4.21923,0.0,0.0
860,214.75,26.6688,27.585,143.611,99.0563,68.2292,0.0135661,0.244529,20.7164,192.726,3.31898,0.0,0.0
864,215.75,26.3618,27.3171,143.73,99.0286,69.0106,0.0126126,0.236213,20.7352,192.676,3.21512,0.0,0.0
868,216.75,27.0592,27.9177,145.33,99.023,70.1129,0.0118457,0.227226,20.7497,192.626,3.07353,0.0,0.0
872,217.75,26.8865,28.3189,144.435,99.0081,70.4449,0.0110942,0.219995,20.7624,192.566,3.03014,0.0,0.0
876,218.75,26.436,27.7827,145.314,98.9989,74.7462,0.0104962,0.213702,20.7732,192.525,2.50169,0.0,0.0
880,219.75,26.9225,28.1712,146.359,98.9788,72.7768,0.0100707,0.208163,20.7813,192.515,2.73759,0.0,0.0
884,220.75,27.7227,28.6514,145.391,98.9555,76.2284,0.00956095,0.203104,20.7912,192.475,2.32298,0.0,0.0
888,221.75,27.353,28.7622,143.013,98.9298,76.2479,0.00907397,0.197772,20.8015,192.415,2.31839,0.0,0.0
892,222.75,26.8951,28.1614,149.454,98.9165,80.2524,0.00857145,0.194291,20.811,192.395,1.86151,0.0,0.0
896,223.75,27.7291,28.9287,147.571,98.886,80.72,0.00811632,0.190038,20.8183,192.375,1.80704,0.0,0.0
900,224.75,27.1327,28.5631,150.821,98.8619,81.9021,0.00761045,0.185292,20.8254,192.325,1.67544,0.0,0.0
904,225.75,27.362,28.7246,151.048,98.8398,84.4192,0.0070295,0.180069,20.8327,192.315,1.40397,0.0,0.0
908,226.75,27.2819,28.8711,145.253,98.8246,85.9443,0.00667599,0.174442,20.841,192.315,1.24321,0.0,0.0
912,227.75,27.8591,29.1444,143.199,98.8105,87.6249,0.00627254,0.170158,20.8509,192.275,1.06953,0.0,0.0
916,228.75,27.5926,28.8526,149.516,98.778,88.3046,0.00593827,0.163934,20.8624,192.265,0.997815,0.0,0.0
920,229.75,27.8687,29.2517,146.562,98.7611,89.6355,0.0056701,0.158084,20.8722,192.245,0.863124,0.0,0.0
924,230.75,27.4204,29.0642,148.671,98.7483,90.9706,0.00544528,0.152611,20.8827,192.215,0.730343,0.0,0.0
928,231.75,27.6301,29.0029,148.101,98.7463,90.7908,0.00525809,0.147196,20.8912,192.205,0.74777,0.0,0.0
932,232.75,27.5014,29.2939,150.691,98.7888,93.2126,0.00513004,0.14183,20.899,192.205,0.517254,0.0,0.0
936,233.75,27.3832,28.6509,150.959,98.8932,94.1377,0.00506375,0.136798,20.9066,192.165,0.438737,0.0,0.0
940,234.75,27.0734,28.8893,149.58,98.9932,93.7531,0.00504092,0.132587,20.914,192.125,0.484175,0.0,0.0
944,235.75,27.2794,28.946,149.505,99.0804,95.1807,0.00505023,0.127823,20.9212,192.125,0.357476,0.0,0.0
948,236.75,27.1807,28.5615,146.483,99.1663,95.293,0.00507799,0.123376,20.9283,192.145,0.35469,0.0,0.0
952,237.75,26.7194,28.6667,148.09,99.2454,95.9498,0.00509524,0.118973,20.9336,192.135,0.300646,0.0,0.0
956,238.75,26.9213,28.4183,146.935,99.3004,96.2622,0.00508217,0.115086,20.9386,192.125,0.276635,0.0,0.0
960,239.75,26.8831,28.3094,149.819,99.3595,97.435,0.00503189,0.111713,20.9443,192.125,0.174125,0.0,0.0
964,240.75,26.5988,28.3733,152.946,99.4032,96.6154,0.00496473,0.107904,20.9496,192.125,0.253243,0.0,0.0
968,241.75,26.4468,28.3028,149.899,99.4542,97.0835,0.00485859,0.104474,20.9548,192.105,0.214785,0.0,0.0
972,242.75,26.0796,28.1154,153.484,99.49,97.256,0.00474743,0.101305,20.9598,192.105,0.202173,0.0,0.0
976,243.75,26.5029,28.1209,147.177,99.5101,97.7233,0.00463446,0.09858,20.9637,192.095,0.161304,0.0,0.0
980,244.75,26.172,28.0013,150.782,99.5269,98.0798,0.00454658,0.0960182,20.9678,192.085,0.130389,0.0,0.0
984,245.75,25.7749,27.6231,150.057,99.5333,97.6732,0.00447165,0.0938454,20.9712,192.065,0.167946,0.0,0.0
988,246.75,25.8904,27.1945,154.657,99.5341,97.5401,0.00441333,0.0918613,20.9742,192.065,0.180161,0.0,0.0
992,247.75,26.0862,27.3403,154.507,99.5269,97.9823,0.00436858,0.0902149,20.9763,192.055,0.139245,0.0,0.0
996,248.75,25.3629,27.2486,149.76,99.5189,97.686,0.00430497,0.0887259,20.9786,192.055,0.165494,0.0,0.0
1000,249.75,25.44,26.5392,151.206,99.4884,98.1273,0.00423601,0.0874679,20.9785,192.045,0.122631,0.0,0.0
1004,250.75,25.4487,26.5782,151.276,99.4595,97.2963,0.00417151,0.0864894,20.9785,192.035,0.195756,0.0,0.0
1008,251.75,24.7812,26.7238,149.738,99.4161,98.1595,0.00413201,0.0858103,20.9785,192.025,0.113239,0.0,0.0
1012,252.75,23.7692,25.6403,155.59,99.3627,97.8674,0.00412242,0.0852445,20.9784,192.025,0.134988,0.0,0.0
1016,253.75,25.181,26.3694,149.206,99.3097,97.2738,0.00420532,0.0848008,20.9781,192.035,0.184396,0.0,0.0
1020,254.75,24.8763,26.2777,151.594,99.2346,97.7839,0.00433988,0.0844587,20.9779,192.025,0.131103,0.0,0.0
1024,255.75,24.7587,26.3442,149.734,99.1655,97.6949,0.00448088,0.0843603,20.9776,192.025,0.133015,0.0,0.0
1028,256.75,24.7376,25.913,152.313,99.0772,97.5244,0.00459174,0.0845107,20.9768,192.015,0.140625,0.0,0.0
1032,257.75,24.6043,26.2699,151.607,98.9872,97.6092,0.00464612,0.0847713,20.9762,192.005,0.124803,0.0,0.0
1036,258.75,24.2005,25.8772,148.982,98.9499,96.9393,0.00465015,0.0850559,20.9759,192.005,0.182751,0.0,0.0
1040,259.75,24.1859,25.5762,149.02,98.9696,97.2989,0.00461069,0.0853166,20.9757,191.995,0.151564,0.0,0.0
1044,260.75,24.1753,25.5444,153.585,99.0073,97.421,0.00456135,0.0855402,20.9749,191.985,0.143794,0.0,0.0
1048,261.75,23.9145,25.5359,148.358,99.0619,97.3616,0.00451208,0.0857594,20.9742,191.995,0.154129,0.0,0.0
1052,262.75,23.8477,25.2037,152.891,99.0993,97.7962,0.00445854,0.0859288,20.9738,191.985,0.117837,0.0,0.0
1056,263.75,23.9944,25.2144,150.172,99.1422,97.6228,0.00438452,0.0860144,20.9738,191.975,0.137495,0.0,0.0
1060,264.75,23.7262,24.9585,152.269,99.1948,97.326,0.00433903,0.086112,20.9738,191.975,0.169323,0.0,0.0
1064,265.75,24.2456,25.5437,153.214,99.2707,97.6923,0.00430095,0.0862014,20.9738,191.965,0.142687,0.0,0.0
1068,266.75,23.6813,25.5068,151.308,99.302,97.9793,0.00428569,0.0862856,20.9742,191.955,0.119377,0.0,0.0
1072,267.75,23.6321,24.6835,149.283,99.3506,98.2308,0.00432532,0.0863381,20.9748,191.955,0.100917,0.0,0.0
1076,268.75,23.4845,24.5661,150.104,99.4064,97.3387,0.00438867,0.08654,20.9748,191.955,0.187131,0.0,0.0
1080,269.75,23.3788,25.4748,153.464,99.4659,97.789,0.00447147,0.0868135,20.9745,191.935,0.151367,0.0,0.0
1084,270.75,23.1192,24.9516,154.047,99.506,97.9522,0.00454643,0.0871518,20.9742,191.935,0.140112,0.0,0.0
1088,271.75,22.7512,25.3917,152.459,99.5498,98.0769,0.00460361,0.0874264,20.974,191.925,0.132705,0.0,0.0
1092,272.75,22.9632,24.6162,155.911,99.5944,98.1981,0.00466064,0.0876544,20.9741,191.925,0.125691,0.0,0.0
1096,273.75,23.244,24.3561,155.353,99.6309,98.0014,0.00472476,0.087923,20.9747,191.915,0.14681,0.0,0.0
1100,274.75,23.218,24.5958,154.362,99.6687,98.5479,0.00481763,0.088168,20.9742,191.915,0.100675,0.0,0.0
1104,275.75,23.1106,24.4402,151.85,99.6916,98.6111,0.00491743,0.0884276,20.9736,191.915,0.0970139,0.0,0.0
1108,276.75,22.9184,24.5458,152.685,99.7197,98.5267,0.00499905,0.0886781,20.9732,191.915,0.107145,0.0,0.0
1112,277.75,21.7313,23.6406,150.958,99.7385,98.6166,0.00505695,0.0887641,20.973,191.905,0.100711,0.0,0.0
1116,278.75,22.4377,24.3618,152.204,99.7349,98.483,0.00510486,0.0888717,20.9728,191.895,0.112453,0.0,0.0
1120,279.75,22.5817,24.1205,154.65,99.7381,98.4067,0.00514349,0.0889679,20.9727,191.875,0.119641,0.0,0.0
1124,280.75,22.6333,24.0678,153.51,99.7249,99.1063,0.00519412,0.0890565,20.9726,191.875,0.0553947,0.0,0.0
1128,281.75,22.5952,24.0342,155.508,99.7221,98.7362,0.00523194,0.0891403,20.9726,191.865,0.0884553,0.0,0.0
1132,282.75,22.6788,23.6796,145.446,99.6988,98.1498,0.00524986,0.0892154,20.9726,191.865,0.139402,0.0,0.0
1136,283.75,22.4293,23.7265,152.117,99.6606,98.1248,0.00526161,0.089355,20.9725,191.855,0.138265,0.0,0.0
1140,284.75,21.9245,23.7015,151.651,99.6293,97.8649,0.00528076,0.0895576,20.9725,191.855,0.159076,0.0,0.0
1144,285.75,22.4777,23.6192,150.201,99.5695,97.3574,0.00532546,0.0897324,20.9725,191.845,0.200014,0.0,0.0
1148,286.75,22.6712,23.4635,150.963,99.5325,98.3482,0.00537332,0.0899025,20.9725,191.845,0.106565,0.0,0.0
1152,287.75,21.8955,23.4065,154.633,99.4526,98.6191,0.00546688,0.0901048,20.9725,191.835,0.0749249,0.0,0.0
1156,288.75,21.8762,23.4884,153.498,99.3812,97.5126,0.00555822,0.0903399,20.9725,191.835,0.168982,0.0,0.0
1160,289.75,22.1815,23.5804,148.311,99.2988,97.6987,0.00564119,0.0904942,20.9725,191.825,0.144628,0.0,0.0
1164,290.75,21.6553,23.1191,150.963,99.2069,97.9213,0.00571016,0.090652,20.9725,191.815,0.11612,0.0,0.0
1168,291.75,22.0639,23.4055,153.717,99.1306,97.5253,0.00576296,0.0908297,20.9725,191.815,0.145345,0.0,0.0
1172,292.75,22.032,23.227,149.673,99.0282,97.8572,0.00580221,0.0910258,20.9725,191.805,0.105891,0.0,0.0
1176,293.75,21.8332,23.0012,151.162,98.9169,97.2018,0.0058289,0.0912568,20.9717,191.795,0.155719,0.0,0.0
1180,294.75,22.0633,23.5621,152.165,98.7997,97.1958,0.0058463,0.0914968,20.9712,191.785,0.145703,0.0,0.0
1184,295.75,21.7649,23.4954,150.673,98.6997,97.0614,0.00586409,0.0916811,20.9708,191.775,0.149007,0.0,0.0
1188,296.75,21.8307,23.6744,147.312,98.5824,97.2866,0.00589367,0.0917839,20.9712,191.775,0.1178,0.0,0.0
1192,297.75,21.6655,23.4944,154.233,98.4945,96.5471,0.00592742,0.0918513,20.9709,191.765,0.177776,0.0,0.0
1196,298.75,21.3838,23.1405,152.459,98.3584,96.406,0.0059614,0.0921278,20.9707,191.755,0.17849,0.0,0.0
1200,299.75,21.945,23.4817,152.653,98.2636,97.4082,0.00599196,0.0923293,20.9706,191.775,0.0778321,0.0,0.0
1204,300.75,21.3605,23.0235,150.786,98.1532,96.6451,0.00602019,0.0926488,20.9705,191.785,0.137844,0.0,0.0
1208,301.75,21.783,23.0296,152.385,98.0552,96.2864,0.00605026,0.0930891,20.9705,191.755,0.162056,0.0,0.0
1212,302.75,21.729,23.0453,150.905,97.9588,96.715,0.00605815,0.0934269,20.9704,191.745,0.113756,0.0,0.0
1216,303.75,22.0132,22.871,150.644,97.8821,96.0943,0.00604662,0.0936343,20.9704,191.745,0.164103,0.0,0.0
1220,304.75,21.5669,23.0679,149.992,97.8151,96.0982,0.00601763,0.0937664,20.9704,191.745,0.157648,0.0,0.0
1224,305.75,21.7204,23.803,150.964,97.7552,96.0134,0.00596774,0.0938491,20.9704,191.735,0.16006,0.0,0.0
1228,306.75,21.4767,22.8008,148.871,97.7066,95.8726,0.00592156,0.0940103,20.9696,191.725,0.168695,0.0,0.0
1232,307.75,21.1633,22.7207,150.825,97.6745,96.2809,0.00588635,0.0943212,20.969,191.705,0.127935,0.0,0.0
1236,308.75,21.4379,22.7197,149.441,97.6673,95.8874,0.00585598,0.0946293,20.9687,191.695,0.16373,0.0,0.0
1240,309.75,21.4288,22.7741,157.844,97.6508,95.9163,0.00580686,0.0948903,20.9682,191.695,0.159553,0.0,0.0
1244,310.75,21.9093,23.3463,154.336,97.6625,95.6784,0.00575331,0.0951668,20.9673,191.685,0.182719,0.0,0.0
1248,311.75,21.2114,22.991,150.192,97.6914,95.7327,0.00570556,0.0954057,20.9667,191.665,0.180305,0.0,0.0
1252,312.75,21.0287,22.8631,151.275,97.7355,96.3648,0.00567448,0.0955881,20.9664,191.665,0.125738,0.0,0.0
1256,313.75,21.5719,22.4255,149.616,97.7817,96.0333,0.00565384,0.0957077,20.9661,191.655,0.160626,0.0,0.0
1260,314.75,21.27,22.5852,146.264,97.8375,95.717,0.00563927,0.0957092,20.966,191.645,0.195074,0.0,0.0
1264,315.75,21.5619,22.7271,152.473,97.9074,96.0706,0.00559288,0.0957102,20.9658,191.645,0.168603,0.0,0.0
1268,316.75,20.8338,21.9887,149.887,97.9941,95.2477,0.00551641,0.09563,20.9658,191.635,0.253074,0.0,0.0
1272,317.75,21.3439,22.7891,147.902,98.0656,96.1223,0.00541371,0.0955152,20.9657,191.635,0.178187,0.0,0.0
1276,318.75,21.3805,22.3508,147.996,98.162,96.4806,0.00533219,0.0954148,20.9665,191.615,0.153812,0.0,0.0
1280,319.75,21.8991,22.565,149.698,98.256,96.5531,0.00520542,0.0953375,20.9667,191.615,0.155642,0.0,0.0
1284,320.75,20.8209,21.991,151.931,98.3467,96.5192,0.00510596,0.0952867,20.9668,191.605,0.16699,0.0,0.0
1288,321.75,20.8546,22.904,147.342,98.4475,96.771,0.00502464,0.0952109,20.9668,191.595,0.15291,0.0,0.0
1292,322.75,21.4612,22.4737,152.624,98.5471,96.7948,0.00497129,0.0950984,20.9669,191.585,0.159726,0.0,0.0
1296,323.75,21.0198,22.3717,149.389,98.6375,96.8041,0.00493502,0.0950016,20.9669,191.595,0.167028,0.0,0.0
1300,324.75,20.7841,21.488,148.419,98.7194,96.8384,0.00491273,0.0949158,20.9669,191.585,0.17126,0.0,0.0
1304,325.75,21.5182,21.7089,154.181,98.817,97.4443,0.00490221,0.0948048,20.9669,191.585,0.124532,0.0,0.0
1308,326.75,21.3436,22.1928,154.197,98.886,96.7842,0.00489963,0.0948347,20.967,191.565,0.191266,0.0,0.0
1312,327.75,21.2172,22.118,152.537,98.9499,96.9097,0.00489701,0.0949055,20.9667,191.565,0.185477,0.0,0.0
1316,328.75,20.1462,21.9888,151.076,98.9936,96.9699,0.00486705,0.0950127,20.9665,191.565,0.183885,0.0,0.0
1320,329.75,20.819,22.3225,149.322,99.0318,97.1543,0.00480584,0.0951384,20.9664,191.565,0.170398,0.0,0.0
1324,330.75,21.1517,22.9285,147.715,99.0551,97.337,0.00472922,0.0952881,20.9663,191.545,0.155764,0.0,0.0
1328,331.75,20.5323,22.5461,149.731,99.0523,97.2247,0.0046559,0.0954167,20.9662,191.535,0.165792,0.0,0.0
1332,332.75,21.0339,22.3192,150.413,99.0475,97.5333,0.00457997,0.0955679,20.9662,191.525,0.137143,0.0,0.0
1336,333.75,21.2659,21.9169,155.135,99.033,97.9069,0.00447695,0.0955902,20.9662,191.514,0.101813,0.0,0.0
1340,334.75,21.2386,22.0894,151.127,99.0226,97.6703,0.0043445,0.0955535,20.9661,191.514,0.122412,0.0,0.0
1344,335.75,20.7791,22.2327,151.99,99.0278,97.1903,0.00422494,0.0954525,20.9661,191.505,0.166737,0.0,0.0
1348,336.75,20.8093,22.7122,151.399,98.9965,96.7087,0.00410114,0.0953391,20.9661,191.484,0.208147,0.0,0.0
1352,337.75,20.9887,21.7414,152.864,98.9623,96.8198,0.0040015,0.0953374,20.9661,191.494,0.194856,0.0,0.0
1356,338.75,20.8186,22.2661,154.82,98.931,96.8656,0.00394982,0.0953364,20.9663,191.484,0.187831,0.0,0.0
1360,339.75,20.7377,22.3184,148.335,98.8892,96.4428,0.00393931,0.0953773,20.9666,191.474,0.223005,0.0,0.0
1364,340.75,20.6247,22.1798,151.505,98.8523,96.3441,0.0039639,0.0954215,20.9667,191.474,0.228802,0.0,0.0
1368,341.75,21.1996,22.1065,149.818,98.8049,97.2111,0.00400829,0.0954478,20.9668,191.464,0.144775,0.0,0.0
1372,342.75,21.2282,22.1002,148.764,98.7684,96.9766,0.0040548,0.0954179,20.9681,191.454,0.16298,0.0,0.0
1376,343.75,20.9145,21.8246,157.115,98.7511,96.9656,0.00409675,0.0954165,20.969,191.454,0.162435,0.0,0.0
1380,344.75,20.5419,22.0048,153.571,98.7736,96.5259,0.00412199,0.0952538,20.9696,191.434,0.20492,0.0,0.0
1384,345.75,21.0328,21.8929,152.734,98.9724,97.0767,0.00412711,0.0950752,20.9699,191.444,0.172167,0.0,0.0
1388,346.75,20.7238,22.241,149.087,99.1129,96.6353,0.00410533,0.094921,20.9706,191.464,0.225368,0.0,0.0
1392,347.75,20.782,22.1085,149.538,99.2551,96.8834,0.00407123,0.0947933,20.9714,191.454,0.215307,0.0,0.0
1396,348.75,20.5447,22.0242,154.883,99.3667,97.6694,0.00401956,0.0946658,20.9717,191.464,0.153377,0.0,0.0
1400,349.75,20.3631,22.3196,150.551,99.4615,97.4553,0.00396623,0.094549,20.9714,191.454,0.181399,0.0,0.0
1404,350.75,20.6888,22.3786,154.667,99.5149,97.4778,0.00387875,0.0944286,20.9711,191.444,0.184126,0.0,0.0
1408,351.75,20.6944,21.185,152.41,99.5458,97.2683,0.00380995,0.0943313,20.9716,191.424,0.206041,0.0,0.0
1412,352.75,20.1894,21.9147,150.402,99.5502,97.4697,0.00376481,0.0943686,20.9721,191.424,0.188023,0.0,0.0
1416,353.75,20.32,20.9318,153.581,99.5189,97.5219,0.00374866,0.0944344,20.9723,191.404,0.18046,0.0,0.0
1420,354.75,21.523,21.8485,149.59,99.4538,97.5448,0.00373372,0.0944323,20.9726,191.404,0.172549,0.0,0.0
1424,355.75,20.3813,21.4292,150.95,99.3619,97.4532,0.00370056,0.0943851,20.9727,191.394,0.172675,0.0,0.0
1428,356.75,21.1357,21.6218,150.737,99.2498,97.2755,0.00365236,0.0943831,20.9728,191.384,0.178875,0.0,0.0
1432,357.75,20.6348,21.8206,153.571,99.0989,97.1594,,0.0944297,,191.374,0.175959,0.0,0.0
1436,358.75,20.9318,21.9781,153.501,98.978,96.8448,,0.0944603,,191.364,0.193966,0.0,0.0
1440,359.75,19.6077,21.7645,151.912,99.0314,96.4301,,0.0944547,,191.364,0.236967,0.0,0.0
1444,360.75,20.8046,21.9994,148.971,99.0772,97.588,,,,191.364,0.134822,0.0,0.0
1448,361.75,20.7344,21.5387,157.092,99.1438,96.8935,,,,191.364,0.20439,0.0,0.0
1452,362.75,20.6544,22.3276,149.326,99.237,97.0441,,,,191.344,0.198933,0.0,0.0
1456,363.75,20.3169,21.8037,152.704,99.3173,97.5465,,,,191.344,0.160164,0.0,0.0
1460,364.75,20.8452,21.6812,152.58,99.4201,97.3366,,,,191.354,0.188548,0.0,0.0
1464,365.75,21.1621,21.6815,155.418,99.494,97.937,,,,191.344,0.140422,0.0,0.0
1468,366.75,20.65,22.0554,156.072,99.5771,97.8865,,,,191.314,0.152444,0.0,0.0
1472,367.75,20.2874,21.8628,150.009,99.6394,97.7199,,,,191.314,0.173173,0.0,0.0