File: 01_Data/Vinyl_Siding/Cone/Vinyl_Siding_Cone_HF50Scan_220331_R2.csv
Names,Time,Stack TC,Smoke TC,Exh Press,Smoke Comp,Smoke Meas,CO Meter,CO2 Meter,O2 Meter,Sample Mass,Ext Coeff,Start Test,Flame Verif
Chan Gain,,500,500,1,1,1,1,1,1,1,1,1.0,1.0
Offset,,0,0,0.133521,0,0,0,0,0,0,0,0.0,0.0
Gain,,1,1,25.011,13.1585,13.8929,1,1,1,1.00096,1.01488,1.0,1.0
Units,sec,C,C,Pa,%,%,%,%,%,g,/m,,
Baseline,,28.7941,30.1806,147.204,99.2974,96.4496,0.000502731,0.0636043,21.0418,-834.427,0.259081,,
3,0.5,28.7625,29.8688,150.03,99.1804,95.5296,0.000551555,0.0692883,21.036,198.631,0.333878,0.0,0.0
6,1.25,28.398,29.9076,146.375,99.1703,96.657,0.000620772,0.0692335,21.0361,198.491,0.228533,0.0,0.0
9,2,28.3776,29.5816,145.943,99.1784,95.8048,0.000678319,0.0691788,21.0361,198.581,0.308092,0.0,0.0
12,2.75,28.5191,30.2177,145.907,99.1735,96.0859,0.00070909,0.0691137,21.0361,198.601,0.281578,0.0,0.0
15,3.5,28.2209,29.8116,147.055,99.1639,96.392,0.000710421,0.0690862,21.0361,198.561,0.252395,0.0,0.0
18,4.25,28.5288,29.5206,148.026,99.1523,96.0676,0.000683459,0.0689821,21.0361,198.601,0.281357,0.0,0.0
21,5,28.3193,30.1805,148.316,99.1487,96.6078,0.000663803,0.0688187,21.0361,198.591,0.231117,0.0,0.0
24,5.75,28.1221,29.8363,149.915,99.1495,95.9125,0.000582524,0.0686113,21.0366,198.571,0.295496,0.0,0.0
27,6.5,28.6867,29.973,150.083,99.1338,96.1028,0.00049473,0.0683203,21.0377,198.601,0.276437,0.0,0.0
30,7.25,28.5514,29.7432,147.699,99.1394,96.004,0.000409531,0.0681081,21.0384,198.561,0.286097,0.0,0.0
33,8,28.6118,29.9644,147.7,99.1338,95.982,0.000365999,0.0677014,21.0392,198.551,0.287637,0.0,0.0
36,8.75,28.6395,29.6943,145.752,99.139,96.0566,0.000342183,0.0672974,21.0402,198.541,0.281187,0.0,0.0
39,9.5,28.9339,30.2199,148,99.1274,96.138,0.000370783,0.0669049,21.0409,198.531,0.272601,0.0,0.0
42,10.25,28.7304,29.9264,146.269,99.1189,95.6894,0.000425125,0.066577,21.0415,198.531,0.313479,0.0,0.0
45,11,28.9198,29.6826,151.519,99.1181,96.0536,0.000485551,0.0661184,21.0418,198.521,0.279587,0.0,0.0
48,11.75,28.4997,29.7923,140.966,99.1189,95.8679,0.000540772,0.0657001,21.0421,198.491,0.296888,0.0,0.0
51,12.5,28.7879,29.9072,146.962,99.1205,94.8377,0.00058691,0.0653741,21.0423,198.491,0.393222,0.0,0.0
54,13.25,28.4179,29.894,149.536,99.0952,95.2031,0.000630601,0.0651617,21.0425,198.481,0.356708,0.0,0.0
57,14,28.6421,30.0082,144.464,99.0989,93.7731,0.000686055,0.0651887,21.0423,198.481,0.491775,0.0,0.0
60,14.75,28.746,29.7345,149.111,99.0956,93.1574,0.000754208,0.065286,21.0418,198.451,0.550124,0.0,0.0
63,15.5,28.7864,29.9974,146.929,99.0764,90.5131,0.000834101,0.0658961,21.0415,198.401,0.804752,0.0,0.0
66,16.25,28.3493,29.6988,146.969,99.08,88.5382,0.000920959,0.0666064,21.0408,198.341,1.00147,0.0,0.0
69,17,29.1465,30.0114,147.403,99.0683,86.6167,0.00100565,0.0675784,21.0394,198.281,1.19575,0.0,0.0
72,17.75,28.713,29.9271,145.005,99.0643,84.4023,0.00108308,0.0689472,21.0378,198.191,1.42595,0.0,0.0
75,18.5,29.1931,30.0534,150.515,99.0695,82.7924,0.00115196,0.0702186,21.0362,198.101,1.59786,0.0,0.0
78,19.25,28.8501,30.1754,144.268,99.0543,81.0092,0.00120217,0.0716131,21.0348,198.001,1.79034,0.0,0.0
81,20,28.1965,30.3763,144.228,99.0563,81.6536,0.00128499,0.0732513,21.0338,197.871,1.71998,0.0,0.0
84,20.75,28.4951,29.8415,142.422,99.0619,78.4221,0.00137228,0.0746381,21.0331,197.73,2.07997,0.0,0.0
87,21.5,28.1634,30.5556,143.049,99.0414,77.1175,0.00148195,0.0759784,21.0325,197.61,2.22747,0.0,0.0
90,22.25,28.3999,30.4518,148.823,99.0306,76.0211,0.00161436,0.0773075,21.0322,197.46,2.35398,0.0,0.0
93,23,29.0286,30.6167,146.666,99.041,74.1433,0.00175301,0.0784265,21.0319,197.33,2.57758,0.0,0.0
96,23.75,29.0137,31.015,146.692,99.0358,72.7611,0.001903,0.0798051,21.0317,197.19,2.74463,0.0,0.0
99,24.5,28.9376,30.1679,142.957,99.0302,71.8122,0.00203826,0.0809066,21.0309,197.06,2.86099,0.0,0.0
102,25.25,29.176,30.2378,143.207,99.0234,70.0269,0.00220299,0.0818746,21.0303,196.94,3.0845,0.0,0.0
105,26,29.3904,31.2604,142.872,99.0161,68.8796,0.00232308,0.0829225,21.0299,196.79,3.23091,0.0,0.0
108,26.75,29.5454,30.9465,145.977,99.0117,69.7424,0.00263463,0.0839263,21.0291,196.649,3.11969,0.0,0.0
111,27.5,29.1498,30.8411,144.831,99.0157,68.9606,0.00304948,0.085651,21.0284,196.529,3.22042,0.0,0.0
114,28.25,29.4325,31.0185,144.375,99.0065,68.59,0.00367293,0.087288,21.0269,196.389,3.26755,0.0,0.0
117,29,29.6668,31.4071,152.202,98.9961,67.9854,0.00463796,0.0940784,21.0242,196.279,3.34543,0.0,0.0
120,29.75,29.5614,31.1051,139.956,98.9993,82.1789,0.00621447,0.10264,21.016,196.129,1.65776,0.0,0.0
123,30.5,29.9817,31.0952,147.462,99.0029,76.2114,0.00851556,0.115058,20.9974,196.039,2.32922,0.0,0.0
126,31.25,29.8036,31.024,136.409,98.9876,80.8277,0.0108284,0.12411,20.9703,195.909,1.80431,0.0,0.0
129,32,29.956,31.6719,133.653,98.9812,74.7818,0.0141632,0.14422,20.9365,195.819,2.49586,0.0,1.0
132,32.75,30.4405,31.7818,134.107,98.9896,61.3497,0.0175556,0.163753,20.8915,195.689,4.25916,0.0,1.0
135,33.5,30.5076,31.8158,136.599,98.9993,54.1137,0.0192895,0.180069,20.8684,195.508,5.37732,0.0,1.0
138,34.25,30.6803,32.4129,134.556,98.9796,50.2737,0.023053,0.200194,20.8316,195.358,6.03082,0.0,1.0
141,35,30.9153,32.7466,131.93,98.9824,48.7007,0.0264828,0.218215,20.7965,195.178,6.31406,0.0,1.0
144,35.75,31.7896,33.1023,135.106,98.974,46.4507,0.0295107,0.233599,20.7646,195.048,6.73442,0.0,1.0
147,36.5,31.7936,33.391,132.733,98.9816,42.1176,0.03212,0.242444,20.7368,194.908,7.60688,0.0,1.0
150,37.25,31.8594,33.2239,136.778,98.9659,42.0044,0.0343239,0.253135,20.7148,194.708,7.62943,0.0,1.0
153,38,32.6157,34.2382,134.1,98.9579,44.8332,0.0359978,0.261738,20.6979,194.557,7.0485,0.0,1.0
156,38.75,32.4612,34.3445,130.967,98.9567,42.3419,0.037333,0.269928,20.6812,194.387,7.55736,0.0,0.0
159,39.5,33.1134,34.9073,136.884,98.9615,49.0344,0.0384147,0.279594,20.6646,194.277,6.2514,0.0,0.0
162,40.25,33.7067,34.795,129.622,98.9615,48.6465,0.0392032,0.287867,20.6505,194.107,6.32211,0.0,0.0
165,41,33.7893,35.4968,132.479,98.9563,49.7764,0.0399503,0.298924,20.6345,193.957,6.11723,0.0,0.0
168,41.75,34.034,35.8652,132.833,98.9523,48.9729,0.0405863,0.310651,20.6203,193.807,6.26173,0.0,0.0
171,42.5,34.7687,35.8605,128.082,98.9571,43.2153,0.0412062,0.320762,20.6017,193.657,7.37563,0.0,0.0
174,43.25,34.89,36.7855,132.63,98.9575,47.2299,0.041898,0.33184,20.585,193.506,6.58482,0.0,0.0
177,44,35.6426,37.4054,131.718,98.943,45.7829,0.0424689,0.339915,20.5714,193.366,6.86054,0.0,0.0
180,44.75,35.5967,37.5566,129.316,98.935,41.3244,0.042999,0.347894,20.5571,193.196,7.77196,0.0,0.0
183,45.5,36.0381,37.9033,135.626,98.9559,42.7629,0.0434091,0.353845,20.5467,193.076,7.4692,0.0,0.0
186,46.25,36.6273,38.2573,134.755,98.9394,45.8007,0.0435935,0.35824,20.5391,192.896,6.85676,0.0,0.0
189,47,36.5431,38.5028,133.933,98.9362,43.7287,0.0436791,0.360729,20.5336,192.776,7.2686,0.0,0.0
192,47.75,36.9775,39.2808,132.089,98.9266,42.3037,0.0434025,0.361311,20.5309,192.636,7.56267,0.0,0.0
195,48.5,37.4467,39.6462,133.847,98.9282,44.2214,0.0428208,0.360312,20.5314,192.525,7.16814,0.0,0.0
198,49.25,37.6785,39.9119,135.612,98.937,47.7095,0.0419938,0.358048,20.5369,192.375,6.49305,0.0,0.0
201,50,37.8451,40.2717,134.21,98.9286,48.1546,0.0407858,0.354094,20.5449,192.295,6.40961,0.0,0.0
204,50.75,38.4371,40.6125,135.209,98.9254,50.7032,0.0394876,0.35023,20.5524,192.165,5.95021,0.0,0.0
207,51.5,37.987,39.9988,135.416,98.9274,55.0935,0.0380609,0.343483,20.5657,192.045,5.21111,0.0,0.0
210,52.25,39.0258,41.2416,133.076,98.9294,55.9368,0.0375437,0.337111,20.5733,191.925,5.07605,0.0,0.0
213,53,39.8719,41.5717,135.058,98.9169,60.5136,0.0359243,0.32998,20.5877,191.865,4.37478,0.0,0.0
216,53.75,39.2165,42.1502,135.462,98.9117,58.5625,0.0344217,0.321926,20.6022,191.725,4.66609,0.0,0.0
219,54.5,39.7014,42.1092,136.234,98.9053,59.9684,0.033189,0.314475,20.6156,191.665,4.45431,0.0,0.0
222,55.25,39.518,42.0669,135.121,98.9214,59.8874,0.031788,0.308868,20.6289,191.585,4.46779,0.0,0.0
225,56,40.1086,42.1604,137.147,98.9149,60.3055,0.0306432,0.301156,20.6402,191.514,4.40528,0.0,0.0
228,56.75,39.9057,42.4083,141.737,98.9097,59.591,0.0295975,0.293423,20.6554,191.394,4.5109,0.0,0.0
231,57.5,40.0965,42.5869,133.728,98.8985,61.0491,0.0285302,0.285537,20.6701,191.324,4.29469,0.0,0.0
234,58.25,40.3386,42.9353,140.71,98.9069,63.5056,0.0275461,0.27883,20.6839,191.264,3.94424,0.0,0.0
237,59,40.4845,42.8917,136.835,98.9077,65.6828,0.026741,0.270801,20.6969,191.194,3.64423,0.0,0.0
240,59.75,40.7225,42.9347,138.046,98.9045,64.9222,0.0258204,0.26333,20.7094,191.094,3.74764,0.0,0.0
243,60.5,40.811,43.398,138.029,98.8912,64.6843,0.024973,0.256388,20.7215,191.044,3.77912,0.0,0.0
246,61.25,41.0985,43.061,138.002,98.9021,66.4905,0.02428,0.249948,20.7332,190.964,3.53492,0.0,0.0
249,62,41.205,43.7644,139.027,98.9005,65.3423,0.0235732,0.243836,20.7429,190.924,3.68985,0.0,0.0
252,62.75,41.0851,43.7012,136.76,98.8941,68.3619,0.022972,0.238072,20.7519,190.844,3.28709,0.0,0.0
255,63.5,40.9747,43.5102,135.8,98.8784,68.9457,0.022296,0.232668,20.7608,190.794,3.20998,0.0,0.0
258,64.25,41.4647,43.7088,139.704,98.8848,70.7777,0.0216481,0.227473,20.7691,190.724,2.97709,0.0,0.0
261,65,41.3109,43.9666,139.13,98.9113,68.7863,0.0211096,0.223152,20.7768,190.664,3.23355,0.0,0.0
264,65.75,40.9154,44.0575,136.481,98.8896,68.4997,0.0204812,0.21854,20.7842,190.594,3.26877,0.0,0.0
267,66.5,41.7112,44.2532,139.923,98.8868,72.0454,0.0198718,0.214791,20.791,190.544,2.81923,0.0,0.0
270,67.25,41.8353,43.7685,140.21,98.878,71.4904,0.019305,0.211396,20.7972,190.484,2.88728,0.0,0.0
273,68,41.0491,44.7682,140.808,98.8804,71.1898,0.0187924,0.208081,20.8037,190.423,2.92501,0.0,0.0
276,68.75,41.3123,44.1654,140.423,98.8796,73.4861,0.0182858,0.204859,20.8093,190.363,2.64231,0.0,0.0
279,69.5,41.4579,44.3537,141.352,98.87,74.0398,0.0178599,0.201743,20.815,190.293,2.57462,0.0,0.0
282,70.25,41.4223,44.3167,142.273,98.8688,72.9332,0.0174061,0.198515,20.8201,190.243,2.70857,0.0,0.0
285,71,41.7391,44.0332,140.378,98.874,75.0748,0.0169859,0.195832,20.8246,190.203,2.4514,0.0,0.0
288,71.75,41.4708,44.1529,139.636,98.8724,73.5433,0.0165992,0.193315,20.8287,190.153,2.63473,0.0,0.0
291,72.5,41.7964,44.6425,138.659,98.8631,75.0218,0.0162454,0.1909,20.8336,190.103,2.45671,0.0,0.0
294,73.25,42.1757,44.8504,135.461,98.8575,71.9148,0.015847,0.188893,20.8379,190.073,2.83274,0.0,0.0
297,74,41.4045,44.7264,140.399,98.8704,74.6983,0.0154896,0.186583,20.8423,190.013,2.49583,0.0,0.0
300,74.75,41.4879,44.3332,146.768,98.8611,74.8394,0.0151144,0.184288,20.8454,189.963,2.47819,0.0,0.0
303,75.5,41.7829,44.6335,137.899,98.8427,75.168,0.0147674,0.182348,20.8483,189.933,2.43753,0.0,0.0
306,76.25,41.7545,44.5932,139.246,98.8463,73.5832,0.0144354,0.18082,20.8502,189.903,2.62756,0.0,0.0
309,77,41.5725,44.5526,142.012,98.8563,75.8371,0.0139401,0.17899,20.8523,189.863,2.35987,0.0,0.0
312,77.75,41.3886,43.9892,143.572,98.8611,76.211,0.0135313,0.177656,20.8544,189.803,2.31651,0.0,0.0
315,78.5,41.6492,44.6573,145.415,98.8487,75.327,0.0130891,0.176044,20.8567,189.783,2.41926,0.0,0.0
318,79.25,41.7744,44.3638,139.426,98.8415,74.3387,0.0126528,0.175403,20.8587,189.753,2.53618,0.0,0.0
321,80,41.9097,44.4617,140.558,98.8483,74.0419,0.0122563,0.174557,20.8604,189.713,2.57241,0.0,0.0
324,80.75,42.0943,44.4426,140.508,98.8479,73.8664,0.0119338,0.173734,20.8617,189.693,2.5935,0.0,0.0
327,81.5,41.5481,44.4407,140.621,98.8463,76.7139,0.0115498,0.172891,20.8635,189.653,2.25663,0.0,0.0
330,82.25,41.5834,44.7311,139.649,98.8479,75.3257,0.0112699,0.172012,20.8652,189.623,2.41934,0.0,0.0
333,83,41.5356,44.6684,138.248,98.8459,76.1296,0.0109045,0.170762,20.8668,189.593,2.32465,0.0,0.0
336,83.75,41.7312,44.3874,144.939,98.8423,78.392,0.0105421,0.169395,20.8683,189.553,2.06363,0.0,0.0
339,84.5,41.7297,44.466,148.227,98.8362,77.8251,0.0102369,0.168205,20.8712,189.513,2.12769,0.0,0.0
342,85.25,41.6502,44.5128,142.535,98.833,78.9147,0.00988523,0.166646,20.8742,189.473,2.00362,0.0,0.0
345,86,41.6343,44.7731,139.834,98.8254,79.1806,0.00952015,0.165279,20.8773,189.473,1.973,0.0,0.0
348,86.75,41.6777,44.4898,138.884,98.8471,79.9514,0.00918696,0.163886,20.8804,189.422,1.88871,0.0,0.0
351,87.5,41.4231,44.2283,138.824,98.833,79.9501,0.00887957,0.162403,20.8839,189.392,1.88758,0.0,0.0
354,88.25,41.5154,44.2211,141.153,98.8286,79.7559,0.00859409,0.160899,20.8877,189.382,1.90884,0.0,0.0
357,89,40.9136,43.9329,144.444,98.8306,81.7282,0.00833999,0.15942,20.8905,189.342,1.69154,0.0,0.0
360,89.75,41.0707,44.0809,141.642,98.8354,81.317,0.00807614,0.157864,20.8931,189.312,1.73688,0.0,0.0
363,90.5,41.2068,44.274,138.131,98.835,82.7818,0.00781976,0.156334,20.8951,189.302,1.5779,0.0,0.0
366,91.25,41.7404,44.373,139.676,98.841,81.6562,0.00759435,0.155065,20.8969,189.282,1.70033,0.0,0.0
369,92,41.2782,44.0037,139.099,98.829,81.1487,0.00739542,0.153878,20.8991,189.272,1.75475,0.0,0.0
372,92.75,41.4419,44.2323,142.872,98.831,82.8039,0.00721929,0.152692,20.9022,189.262,1.57517,0.0,0.0
375,93.5,41.6189,44.0942,141.458,98.8278,82.6114,0.00703618,0.151553,20.9049,189.232,1.5956,0.0,0.0
378,94.25,40.8967,43.7649,141.4,98.8354,84.9454,0.00687176,0.150487,20.9071,189.212,1.34826,0.0,0.0
381,95,41.5956,44.6751,141.8,98.8141,84.5312,0.00675066,0.1494,20.9086,189.202,1.38986,0.0,0.0
384,95.75,41.2421,43.9841,141.891,98.8278,85.0484,0.0065544,0.148448,20.9104,189.202,1.33678,0.0,0.0
387,96.5,40.9256,44.1211,142.988,98.8318,85.519,0.00631497,0.147548,20.9117,189.182,1.28801,0.0,0.0
390,97.25,41.0208,44.0198,137.664,98.8214,86.4213,0.00602255,0.146657,20.9127,189.132,1.19365,0.0,0.0
393,98,40.7224,43.7632,137.542,98.8274,86.6023,0.00580938,0.146202,20.9138,189.132,1.17556,0.0,0.0
396,98.75,41.1845,43.8977,136.886,98.8238,86.2195,0.00556391,0.145158,20.9149,189.102,1.21468,0.0,0.0
399,99.5,41.148,43.4091,142.286,98.8314,87.1827,0.00531237,0.144252,20.9159,189.082,1.11645,0.0,0.0
402,100.25,41.0306,43.592,141.074,98.8194,87.1293,0.00511442,0.143344,20.9172,189.072,1.12082,0.0,0.0
405,101,41.1462,43.783,141.213,98.8182,87.9705,0.00492318,0.142575,20.9186,189.072,1.03518,0.0,0.0
408,101.75,40.7534,44.0578,141.084,98.8206,88.0998,0.0047592,0.141832,20.9198,189.062,1.02232,0.0,0.0
411,102.5,41.1563,43.658,140.454,98.8202,87.7996,0.00459764,0.141001,20.922,189.042,1.05267,0.0,0.0
414,103.25,40.7122,43.396,144.367,98.8166,89.4404,0.00445586,0.140019,20.9237,189.032,0.887509,0.0,0.0
417,104,40.5215,43.8681,144.134,98.8109,89.1343,0.00434228,0.138929,20.9252,189.022,0.917524,0.0,0.0
420,104.75,41.1314,43.3925,144.498,98.821,89.8199,0.00426488,0.137771,20.9272,188.992,0.850218,0.0,0.0
423,105.5,40.8552,42.9178,142.959,98.8234,89.1742,0.00423119,0.136706,20.9293,189.002,0.914666,0.0,0.0
426,106.25,40.6736,43.4674,142.419,98.8214,89.7033,0.00423162,0.135551,20.9312,189.002,0.861818,0.0,0.0
429,107,40.4861,43.0204,145.391,98.8129,89.6533,0.0042581,0.134176,20.9339,188.982,0.866024,0.0,0.0
432,107.75,41.0884,42.2797,143.135,98.8125,90.5165,0.00431529,0.132946,20.9367,188.972,0.780681,0.0,0.0
435,108.5,40.6926,42.8684,143.198,98.8117,91.1643,0.00436963,0.131392,20.9397,188.972,0.71712,0.0,0.0
438,109.25,40.2975,42.8351,144.702,98.8137,91.8685,0.00441464,0.129813,20.9426,188.932,0.648795,0.0,0.0
441,110,40.3252,43.0842,141.393,98.8125,92.2662,0.00445632,0.128215,20.9454,188.932,0.610231,0.0,0.0
444,110.75,39.6976,42.871,144.082,98.8129,91.9512,0.00449114,0.126611,20.9487,188.922,0.640715,0.0,0.0
447,111.5,40.2179,43.1271,144.216,98.8222,92.5105,0.00451767,0.124725,20.9517,188.912,0.587567,0.0,0.0
450,112.25,39.5717,42.6622,142.076,98.821,92.8725,0.00453067,0.122906,20.9544,188.922,0.552682,0.0,0.0
453,113,39.7681,42.5505,142.326,98.8125,92.8827,0.00454079,0.12139,20.9572,188.912,0.550948,0.0,0.0
456,113.75,39.6767,42.4415,146.73,98.8246,93.5365,0.00455386,0.119799,20.9605,188.892,0.489591,0.0,0.0
459,114.5,38.852,42.9953,144.629,98.8402,93.1926,0.00460855,0.118205,20.9633,188.882,0.523789,0.0,0.0
462,115.25,39.7825,42.5634,146.198,98.8603,94.0584,0.00467578,0.116658,20.9656,188.872,0.443273,0.0,0.0
465,116,39.3502,42.5528,140.222,98.8427,94.4747,0.00477158,0.114817,20.9685,188.872,0.402364,0.0,0.0
468,116.75,39.607,42.0226,145.088,98.8459,94.4972,0.00484141,0.113287,20.9706,188.862,0.400535,0.0,0.0
471,117.5,39.1411,41.7762,144.492,98.8595,95.0212,0.00499194,0.111851,20.9728,188.862,0.352532,0.0,0.0
474,118.25,39.2168,41.6793,148.484,98.8567,94.9123,0.00512965,0.110296,20.9746,188.832,0.362493,0.0,0.0
477,119,39.2163,41.9583,142.021,98.8406,95.1217,0.005252,0.109162,20.9764,188.832,0.341423,0.0,0.0
480,119.75,38.8122,41.8838,141.065,98.8342,94.621,0.00535838,0.107585,20.9789,188.832,0.38783,0.0,0.0
483,120.5,39.3178,42.3093,144.534,98.8427,94.384,0.00547951,0.10624,20.9808,188.832,0.410917,0.0,0.0
486,121.25,39.0218,41.6527,143.39,98.841,94.4773,0.00556781,0.104927,20.9828,188.822,0.401978,0.0,0.0
489,122,38.8876,41.8343,137.972,98.8491,95.3732,0.00572672,0.103666,20.9846,188.812,0.318684,0.0,0.0
492,122.75,38.9222,41.3243,141.831,98.8712,95.1866,0.00586406,0.102642,20.9862,188.802,0.338103,0.0,0.0
495,123.5,38.0545,41.3514,146.778,98.8499,95.0781,0.00600095,0.101716,20.9873,188.802,0.346343,0.0,0.0
498,124.25,38.9675,41.1955,143.067,98.8864,95.5928,0.00614034,0.100829,20.9881,188.792,0.301569,0.0,0.0
501,125,38.1056,40.8906,145.256,98.868,95.583,0.00627433,0.100024,20.9888,188.782,0.300814,0.0,0.0
504,125.75,38.2541,40.8763,147.593,98.888,94.8733,0.00639848,0.0993217,20.9898,188.772,0.368972,0.0,0.0
507,126.5,38.2157,41.8217,143.198,98.8688,94.9729,0.00651074,0.0987653,20.9906,188.782,0.357894,0.0,0.0
510,127.25,37.9293,40.876,145.083,98.8784,95.3659,0.00660522,0.098283,20.9912,188.762,0.321995,0.0,0.0
513,128,38.3568,41.0324,146.362,98.8792,95.2862,0.00667986,0.0977896,20.9922,188.742,0.329511,0.0,0.0
516,128.75,38.4775,41.0012,140.281,98.8692,95.134,0.00673427,0.0972874,20.993,188.732,0.34284,0.0,0.0
519,129.5,37.5679,40.8827,146.363,98.8844,95.7259,0.00677393,0.0967809,20.9936,188.732,0.288998,0.0,0.0
522,130.25,37.2607,40.8412,145.893,98.9093,95.1234,0.00680285,0.0962904,20.994,188.702,0.347448,0.0,0.0
525,131,37.3188,40.4674,147.742,98.9001,95.0721,0.00684036,0.0958904,20.9943,188.702,0.351418,0.0,0.0
528,131.75,37.5931,40.3451,143.204,98.9013,95.3893,0.00688949,0.0955656,20.9945,188.702,0.32188,0.0,0.0
531,132.5,37.5612,40.3278,140.956,98.9033,95.8717,0.00693459,0.0953034,20.9946,188.692,0.277144,0.0,0.0
534,133.25,37.7967,40.0791,143.186,98.9153,95.6966,0.00702598,0.0950981,20.9948,188.702,0.294503,0.0,0.0
537,134,37.4277,39.9298,144.819,98.9117,95.5788,0.00712029,0.0949424,20.9948,188.692,0.30515,0.0,0.0
540,134.75,37.5768,39.8865,143.788,98.9005,95.0526,0.00725603,0.0948289,20.9955,188.672,0.353281,0.0,0.0
543,135.5,37.0464,39.971,143.76,98.9093,94.9695,0.00738852,0.0946611,20.9961,188.672,0.361862,0.0,0.0
546,136.25,37.0162,38.9685,142.876,98.9198,95.5589,0.00749525,0.0945026,20.9964,188.662,0.307729,0.0,0.0
549,137,36.6611,39.1177,143.383,98.9173,95.8586,0.00759042,0.0942052,20.9967,188.642,0.279629,0.0,0.0
552,137.75,36.5134,39.5128,149.006,98.9185,95.5728,0.00767267,0.0939601,20.9969,188.642,0.306317,0.0,0.0
555,138.5,35.5516,38.1782,142.416,98.9222,96.3475,0.00774217,0.0937469,20.997,188.642,0.234779,0.0,0.0
558,139.25,36.5676,39.1646,144.765,98.923,95.5877,0.00779978,0.0935533,20.9967,188.642,0.305332,0.0,0.0
561,140,36.2344,39.2792,139.55,98.9226,94.6876,0.00784941,0.0934271,20.9963,188.642,0.389525,0.0,0.0
564,140.75,36.2084,39.0312,146.004,98.9202,95.7153,0.00786754,0.0933606,20.9959,188.622,0.293202,0.0,0.0
567,141.5,36.6077,38.6994,144.96,98.9101,96.1978,0.00788934,0.0933546,20.9957,188.632,0.247534,0.0,0.0
570,142.25,36.1281,38.5084,141.965,98.9161,95.8518,0.00790781,0.0933757,20.9955,188.622,0.280152,0.0,0.0
573,143,36.0165,38.8935,141.581,98.9065,95.1747,0.0079198,0.0934339,20.9954,188.622,0.342394,0.0,0.0
576,143.75,36.086,38.4411,143.135,98.9061,95.831,0.00792744,0.0934851,20.9953,188.622,0.281178,0.0,0.0
579,144.5,36.0727,38.4741,139.752,98.9081,95.9409,0.00793301,0.0935666,20.9953,188.602,0.271164,0.0,0.0
582,145.25,35.6876,37.8944,144.384,98.8953,95.3163,0.00794173,0.0936643,20.9956,188.582,0.328146,0.0,0.0
585,146,35.8802,38.1805,145.881,98.9025,95.7789,0.00795085,0.0936748,20.996,188.562,0.285698,0.0,0.0
588,146.75,36.0138,38.0335,144.739,98.8892,95.2549,0.00796833,0.0936826,20.9965,188.562,0.333348,0.0,0.0
591,147.5,35.7667,37.8808,144.796,98.8916,95.352,0.00800039,0.0936457,20.997,188.542,0.324495,0.0,0.0
594,148.25,35.9328,38.3747,142.78,98.8888,96.2262,0.00804013,0.0935886,20.9974,188.542,0.24299,0.0,0.0
597,149,35.7214,37.8788,142.971,98.8912,95.5762,0.00808301,0.0935547,20.9976,188.552,0.303543,0.0,0.0
600,149.75,35.2203,37.9739,143.036,98.8904,95.4308,0.00810692,0.0935453,20.9978,188.552,0.317027,0.0,0.0
603,150.5,35.3509,37.9133,146.824,98.8684,95.2103,0.00809474,0.0935894,20.9979,188.532,0.335629,0.0,0.0
606,151.25,35.3925,37.8861,139.292,98.8551,95.1247,0.00807322,0.0936014,20.998,188.512,0.342447,0.0,0.0
609,152,34.9367,38.0415,144.358,98.8587,95.8383,0.00801766,0.0935534,20.9983,188.512,0.276242,0.0,0.0
612,152.75,35.5583,38.0995,144.121,98.8443,95.5792,0.00794593,0.0934869,20.999,188.502,0.299036,0.0,0.0
615,153.5,34.5477,37.3212,144.179,98.8527,95.5063,0.00786935,0.0934257,20.9994,188.512,0.306591,0.0,0.0
618,154.25,35.4583,37.6192,142.9,98.8326,95.1981,0.00777321,0.0933385,20.9997,188.502,0.33356,0.0,0.0
621,155,35.4724,37.6214,145.001,98.837,95.7891,0.00768387,0.0932569,21,188.492,0.278859,0.0,0.0
624,155.75,35.0876,37.4686,147.034,98.8294,94.9076,0.00761053,0.093157,21.0002,188.482,0.360472,0.0,0.0
627,156.5,35.2253,37.7298,146.923,98.8105,95.8717,0.00754069,0.0931125,21.0003,188.462,0.268791,0.0,0.0
630,157.25,34.7045,36.7883,143.306,98.8089,95.3151,0.00747952,0.0930847,21.0003,188.462,0.320489,0.0,0.0
633,158,35.2701,37.2896,145.104,98.8093,95.4372,0.00743055,0.0930516,21.0002,188.442,0.309128,0.0,0.0
636,158.75,34.5512,37.4184,144.351,98.8274,95.9125,0.00738459,0.0930125,21.0001,188.422,0.266531,0.0,0.0
639,159.5,35.1003,37.0529,135.21,98.8137,95.3257,0.00735076,0.092985,21,188.432,0.319934,0.0,0.0
642,160.25,34.923,37.8521,148.644,98.8081,95.8196,0.00733438,0.0929777,21.0006,188.422,0.273417,0.0,0.0
645,161,35.2647,37.3276,143.583,98.8133,95.5466,0.00732474,0.093029,21.001,188.422,0.299292,0.0,0.0
648,161.75,34.9579,36.981,144.254,98.8174,95.3566,0.00732321,0.0930905,21.0013,188.422,0.317369,0.0,0.0
651,162.5,35.0268,36.926,146.169,98.8166,95.2281,0.00733492,0.0931758,21.0015,188.391,0.329298,0.0,0.0
654,163.25,34.6932,37.0078,141.997,98.7985,95.8531,0.00734474,0.0932096,21.0016,188.391,0.269437,0.0,0.0
657,164,33.9482,36.4769,141.821,98.8109,95.6356,0.00737806,0.0932148,21.0018,188.381,0.290783,0.0,0.0
660,164.75,34.0584,36.4273,145.546,98.8153,95.6589,0.00740572,0.0932058,21.0019,188.402,0.289011,0.0,0.0
663,165.5,34.3952,37.1436,145.199,98.8101,95.4868,0.00743167,0.093179,21.0019,188.381,0.304574,0.0,0.0
666,166.25,34.537,36.7849,144.037,98.8149,95.3117,0.00743261,0.093137,21.002,188.381,0.321348,0.0,0.0
669,167,34.3526,36.4216,146.657,98.8194,95.1934,0.00742564,0.0930885,21.002,188.381,0.332803,0.0,0.0
672,167.75,34.6825,37.0585,145.027,98.8186,95.7017,0.00742055,0.0930128,21.0021,188.371,0.285315,0.0,0.0
675,168.5,34.415,36.9827,138.995,98.819,95.7577,0.00737293,0.0929575,21.0019,188.361,0.280147,0.0,0.0
678,169.25,34.2381,36.5479,148.501,98.8125,96.0108,0.00732906,0.0929173,21.0018,188.341,0.256067,0.0,0.0
681,170,34.6158,36.5038,146.354,98.8133,95.5427,0.00729776,0.0928879,21.0017,188.321,0.299647,0.0,0.0
684,170.75,34.5963,36.4573,145.54,98.8226,95.2125,0.00727609,0.0929069,21.0016,188.321,0.331308,0.0,0.0
687,171.5,34.3509,36.308,143.162,98.8202,95.561,0.00725847,0.0929059,21.0016,188.311,0.298564,0.0,0.0
690,172.25,33.7299,36.4276,145.395,98.8238,95.3592,0.00723213,0.0928796,21.0016,188.321,0.317711,0.0,0.0
693,173,34.2847,36.4256,146.298,98.8149,95.5313,0.00718986,0.0928201,21.0015,188.321,0.300859,0.0,0.0
696,173.75,34.2093,35.7019,148.622,98.8302,95.7675,0.00713213,0.0927484,21.0015,188.311,0.280253,0.0,0.0
699,174.5,34.562,36.1676,143.869,98.829,95.0255,0.00706713,0.092684,21.0015,188.291,0.349386,0.0,0.0
702,175.25,34.6739,36.0464,145.149,98.8242,96.0676,0.00700016,0.0925564,21.0015,188.291,0.251851,0.0,0.0
705,176,34.4594,36.119,143.411,98.8238,95.2019,0.00694403,0.0924782,21.0015,188.261,0.332407,0.0,0.0
708,176.75,34.0222,35.8409,141.912,98.8246,95.5262,0.00689706,0.0924467,21.0015,188.261,0.302201,0.0,0.0
711,177.5,33.6875,36.2106,143.235,98.8278,95.5919,0.00685245,0.0923834,21.0015,188.261,0.296368,0.0,0.0
714,178.25,34.483,35.8632,145.411,98.8306,95.4431,0.00679439,0.0922806,21.0015,188.251,0.310492,0.0,0.0
717,179,34.3878,35.6829,141.855,98.8266,95.1514,0.00675206,0.092174,21.0015,188.251,0.337379,0.0,0.0
720,179.75,34.0287,35.5455,141.64,98.8334,95.4859,0.0066483,0.0920836,21.001,188.241,0.306752,0.0,0.0
723,180.5,34.0812,36.3211,143.209,98.833,95.5991,0.00654584,0.0919895,21.0007,188.251,0.296167,0.0,0.0
726,181.25,33.868,35.5435,145.551,98.8326,95.53,0.00645435,0.0919087,21.0009,188.221,0.30257,0.0,0.0
729,182,33.4991,35.8313,138.931,98.831,95.2349,0.00637847,0.091864,21.0017,188.221,0.329966,0.0,0.0
732,182.75,34.1331,35.8754,142.625,98.8262,95.7954,0.00631951,0.0918374,21.0023,188.221,0.277292,0.0,0.0
735,183.5,34.4425,35.8376,146.3,98.8419,95.2595,0.0062727,0.0917575,21.0027,188.211,0.328644,0.0,0.0
738,184.25,33.8132,35.9744,148.333,98.833,95.8616,0.00623225,0.091671,21.003,188.211,0.271761,0.0,0.0
741,185,33.626,35.6306,140.233,98.8338,95.8429,0.00619472,0.0916107,21.0032,188.191,0.273567,0.0,0.0
744,185.75,33.7918,35.7618,142.578,98.8346,95.3537,0.00614187,0.0915923,21.0034,188.181,0.319202,0.0,0.0
747,186.5,33.6351,35.8429,145.132,98.8394,95.4982,0.00609246,0.091599,21.0035,188.191,0.306147,0.0,0.0
750,187.25,33.3487,35.8889,144.206,98.8447,95.343,0.00603827,0.0915635,21.0036,188.171,0.321096,0.0,0.0
753,188,33.7299,35.9047,142.733,98.8374,95.516,0.00598476,0.0915153,21.0036,188.161,0.304307,0.0,0.0
756,188.75,33.7585,35.5388,149.151,98.8435,95.8535,0.00593977,0.091442,21.0037,188.161,0.27345,0.0,0.0
759,189.5,32.9878,35.4381,144.009,98.8491,95.929,0.00589062,0.0913744,21.0037,188.171,0.26695,0.0,0.0
762,190.25,33.4152,35.8058,145.098,98.8431,95.5143,0.0058548,0.091319,21.0037,188.161,0.304972,0.0,0.0
765,191,33.5308,35.3203,147.121,98.8447,95.449,0.00579559,0.0912989,21.0038,188.161,0.311205,0.0,0.0
768,191.75,33.3425,35.3956,147.055,98.8499,95.0764,0.00571557,0.0912842,21.0038,188.141,0.346501,0.0,0.0
771,192.5,33.2493,35.3942,143.824,98.8515,95.5987,0.00561832,0.0912735,21.0038,188.141,0.29787,0.0,0.0
774,193.25,33.3843,35.2638,141.74,98.8635,96.0443,0.00552337,0.0912508,21.0038,188.131,0.257556,0.0,0.0
777,194,33.1505,35.7121,143.244,98.8523,96.0193,0.00541032,0.0912088,21.0038,188.131,0.258863,0.0,0.0
780,194.75,33.6594,35.5115,147.072,98.8663,95.3558,0.00532335,0.0911782,21.0038,188.131,0.321861,0.0,0.0
783,195.5,32.9884,35.6267,146.31,98.8591,95.8874,0.00527644,0.0911484,21.0038,188.121,0.271711,0.0,0.0
786,196.25,32.9642,35.0575,146.229,98.8659,95.9252,0.00526265,0.091114,21.004,188.111,0.268823,0.0,0.0
789,197,33.3809,35.0975,141.759,98.8603,95.6492,0.00527546,0.0910464,21.0046,188.111,0.293969,0.0,0.0
792,197.75,33.2654,35.5098,144.315,98.8615,95.8022,0.0052909,0.0909716,21.0049,188.111,0.279844,0.0,0.0
795,198.5,33.4026,35.0071,146.338,98.8676,95.7569,0.00529804,0.0909044,21.0052,188.111,0.284603,0.0,0.0
798,199.25,33.5738,35.3812,144.282,98.8744,95.4198,0.00528496,0.090815,21.0055,188.091,0.316609,0.0,0.0
801,200,32.9805,34.6088,146.634,98.8764,95.7976,0.00527541,0.0907782,21.0057,188.091,0.281615,0.0,0.0
804,200.75,33.0552,34.5922,143.537,98.8676,95.898,0.00521414,0.0907678,21.0058,188.071,0.271486,0.0,0.0
807,201.5,33.4913,35.5262,144.238,98.874,95.9714,0.00515298,0.0907558,21.0059,188.061,0.265258,0.0,0.0
810,202.25,33.0127,35.3951,142.078,98.8808,96.0379,0.00510202,0.0907098,21.006,188.051,0.259701,0.0,0.0
813,203,33.2774,34.8656,149.251,98.8808,95.7022,0.00506602,0.0906127,21.006,188.051,0.290881,0.0,0.0
816,203.75,33.0833,35.6482,143.818,98.8916,95.2739,0.00505606,0.0904972,21.0061,188.041,0.331781,0.0,0.0
819,204.5,33.0334,35.2696,141.871,98.8796,95.9532,0.0050662,0.0903367,21.0063,188.031,0.267456,0.0,0.0
822,205.25,33.0479,35.1524,145.584,98.8896,95.441,0.00507925,0.0902196,21.0069,188.031,0.316006,0.0,0.0
825,206,33.3126,35.285,145.159,98.8993,95.5444,0.00509104,0.0901484,21.0073,188.021,0.307229,0.0,0.0
828,206.75,33.0119,34.8294,146.304,98.8872,95.8094,0.00508495,0.09011,21.0074,188.011,0.281488,0.0,0.0
831,207.5,32.8521,35.2502,139.434,98.8892,95.6403,0.00505538,0.0900993,21.0071,188.011,0.297401,0.0,0.0
834,208.25,32.7183,35.0075,143.234,98.9077,96.021,0.00499404,0.0900728,21.0068,187.991,0.263694,0.0,0.0
837,209,33.0811,35.4757,144.496,98.8941,96.0778,0.00493866,0.0900251,21.0067,187.991,0.2572,0.0,0.0
840,209.75,32.7815,35.2589,146.378,98.9005,95.4613,0.00488003,0.0899522,21.0065,188.001,0.315083,0.0,0.0
843,210.5,33.2548,35.0374,145.289,98.8937,95.4986,0.00482826,0.089899,21.0064,188.001,0.310989,0.0,0.0
846,211.25,32.9235,35.3004,141.349,98.9065,95.3112,0.00479252,0.0898602,21.0064,187.991,0.329633,0.0,0.0
849,212,33.162,34.719,146.662,98.9085,95.1743,0.00476988,0.0898118,21.0063,187.981,0.342614,0.0,0.0
852,212.75,32.9237,35.1092,147.789,98.9089,95.9163,0.00476732,0.0897624,21.0063,187.971,0.273518,0.0,0.0
855,213.5,33.3396,35.4659,146.367,98.8993,95.7827,0.00477139,0.0897203,21.0062,187.981,0.285054,0.0,0.0
858,214.25,33.1899,35.0669,143.634,98.9198,95.8586,0.00478437,0.0896472,21.0062,187.971,0.279846,0.0,0.0
861,215,33.138,34.8101,148.797,98.9141,95.9086,0.00481094,0.0895982,21.0069,187.961,0.274695,0.0,0.0
864,215.75,33.1525,34.9009,141.476,98.9133,95.3723,0.00483031,0.0896006,21.0074,187.951,0.324547,0.0,0.0
867,216.5,32.8434,35.4432,143.515,98.9073,96.0791,0.00483682,0.0896024,21.0078,187.941,0.258274,0.0,0.0
870,217.25,33.1436,35.1238,145.588,98.9338,95.7679,0.00483566,0.089644,21.0081,187.941,0.289542,0.0,0.0
873,218,33.3456,34.8125,142.783,98.9302,95.3651,0.00483025,0.0896892,21.0083,187.941,0.326737,0.0,0.0
876,218.75,32.985,34.7979,141.842,98.9258,95.2256,0.00481237,0.0897476,21.0084,187.931,0.339371,0.0,0.0
879,219.5,33.155,34.878,141.049,98.9298,95.7475,0.00477339,0.0897297,21.0085,187.921,0.291072,0.0,0.0
882,220.25,32.5925,34.7232,146.741,98.937,95.7068,0.00471079,0.0897308,21.0086,187.921,0.295507,0.0,0.0
885,221,32.9532,34.6838,145.212,98.943,95.5733,0.00466515,0.0897302,21.0087,187.911,0.308481,0.0,0.0
888,221.75,33.2073,34.4828,144.169,98.9406,95.7836,0.00459038,0.089717,21.0087,187.901,0.288698,0.0,0.0
891,222.5,33.2184,34.6286,141.131,98.9322,95.6937,0.00453839,0.0896791,21.009,187.901,0.296298,0.0,0.0
894,223.25,33.4278,34.8092,144.195,98.9362,95.9748,0.00450957,0.0896394,21.0096,187.901,0.270546,0.0,0.0
897,224,32.9634,35.0141,142.296,98.9443,95.5389,0.00450222,0.0896105,21.01,187.891,0.31179,0.0,0.0
900,224.75,32.3462,34.9606,145.737,98.9467,95.6441,0.00450769,0.0895522,21.0103,187.871,0.302215,0.0,0.0
903,225.5,33.0609,34.7779,144.827,98.9414,95.8366,0.00450035,0.0894461,21.0105,187.861,0.283846,0.0,0.0
906,226.25,32.9187,34.1811,146.103,98.9579,95.8705,0.00445768,0.0894091,21.0107,187.841,0.282176,0.0,0.0
909,227,32.6661,34.1063,141.587,98.9563,95.4168,0.00439586,0.0894119,21.0108,187.841,0.324258,0.0,0.0
912,227.75,32.077,34.6028,141.867,98.9583,95.756,0.00432685,0.0894648,21.0109,187.841,0.292849,0.0,0.0
915,228.5,32.4857,34.4461,144.825,98.9479,95.8688,0.00423563,0.0895639,21.011,187.841,0.281432,0.0,0.0
918,229.25,32.6801,34.6312,144.143,98.9483,95.893,0.00412953,0.0896502,21.011,187.831,0.279223,0.0,0.0
921,230,33.0684,35.0606,145.154,98.9663,95.5173,0.00403626,0.0897192,21.0111,187.841,0.315791,0.0,0.0
924,230.75,32.8565,34.7954,143.457,98.9635,95.6971,0.00394103,0.089709,21.0111,187.831,0.298799,0.0,0.0
927,231.5,32.4965,34.0925,145.34,98.9635,95.7208,0.00385364,0.0896718,21.0109,187.821,0.29659,0.0,0.0
930,232.25,32.711,34.8791,150.052,98.9832,96.2571,0.00378462,0.0895938,21.0103,187.831,0.248619,0.0,0.0
933,233,32.6886,34.6993,143.06,98.9848,95.7399,0.00372524,0.0896176,21.0099,187.801,0.296732,0.0,0.0
936,233.75,33.0677,34.514,144.915,98.9864,95.8794,0.0036586,0.0896349,21.0096,187.821,0.283914,0.0,0.0
939,234.5,33.2145,34.2566,147.298,99.0001,95.7903,0.00359942,0.0896475,21.0094,187.801,0.293414,0.0,0.0
942,235.25,32.5232,34.426,143.788,98.9812,95.0314,0.00353815,0.0895761,21.0099,187.791,0.362529,0.0,0.0
945,236,32.5501,34.7484,145.729,98.9916,95.5377,0.0034809,0.0894816,21.0102,187.771,0.31617,0.0,0.0
948,236.75,32.7916,34.4179,144.711,98.9949,95.7102,0.00343381,0.0893946,21.0105,187.771,0.300395,0.0,0.0
951,237.5,32.943,34.0003,148.352,99.0021,95.6284,0.00336929,0.0892707,21.0105,187.791,0.308659,0.0,0.0
954,238.25,33.3179,34.8028,144.819,98.9969,95.8094,0.00329935,0.089173,21.0103,187.771,0.291352,0.0,0.0
957,239,32.3714,34.0934,145.588,99.0005,95.6657,0.00324671,0.089089,21.0102,187.751,0.305042,0.0,0.0
960,239.75,32.4712,34.0555,145.55,99.0065,96.4619,0.00321286,0.0890278,21.0101,187.751,0.231794,0.0,0.0
963,240.5,33.0412,34.5384,145.214,99.0129,95.6543,0.00321208,0.0890437,21.01,187.751,0.307225,0.0,0.0
966,241.25,32.6322,34.1225,142.818,99.0157,96.2817,0.00322169,0.0890754,21.01,187.751,0.24927,0.0,0.0
969,242,32.8062,34.2544,149.573,99.0021,96.046,0.00326266,0.0890702,21.0099,187.741,0.269866,0.0,0.0
972,242.75,32.7599,34.5613,143.128,99.0169,95.8985,0.00330702,0.0890544,21.0099,187.731,0.284888,0.0,0.0
975,243.5,32.5496,35.1307,148.1,99.0193,94.9873,0.00336449,0.0889421,21.0099,187.721,0.37009,0.0,0.0
978,244.25,33.0072,34.2426,145.046,99.0157,95.639,,0.0888379,,187.721,0.3089,0.0,0.0
981,245,32.5098,34.4089,145.603,99.0278,95.5211,,0.0887238,,187.701,0.320961,0.0,0.0
984,245.75,32.7162,34.4174,140.716,99.035,95.5419,,0.0886109,,187.701,0.319675,0.0,0.0
987,246.5,33.0411,34.5653,141.289,99.0254,95.4185,,0.0884777,,187.691,0.330312,0.0,0.0
990,247.25,33.0422,34.6367,143.77,99.033,95.5003,,,,187.691,0.323367,0.0,0.0
993,248,32.9432,34.1008,145.273,99.0366,96.3284,,,,187.681,0.246836,0.0,0.0
996,248.75,32.3911,34.4819,144.927,99.0446,95.9595,,,,187.681,0.281712,0.0,0.0
999,249.5,32.8534,34.6397,143.325,99.043,96.1325,,,,187.681,0.265534,0.0,0.0
1002,250.25,32.8417,34.1027,143.942,99.0483,96.1965,,,,187.671,0.260077,0.0,0.0
1005,251,32.7951,34.0158,145.166,99.0386,96.0303,,,,187.661,0.274605,0.0,0.0
1008,251.75,33.101,34.7043,146.963,99.0567,96.1215,,,,187.651,0.267783,0.0,0.0
1011,252.5,32.8496,34.5955,141.73,99.0567,96.1007,,,,187.651,0.269706,0.0,0.0
1014,253.25,32.8696,34.373,147.064,99.0583,95.7496,,,,187.651,0.302431,0.0,0.0
1017,254,32.9585,34.6009,143.447,99.0527,95.5279,,,,187.651,0.322566,0.0,0.0
1020,254.75,32.6818,33.7558,148.041,99.0736,96.4267,,,,187.641,0.241069,0.0,0.0
1021,255,33.0127,34.1972,144.373,99.0627,95.7208,,,,187.641,0.305509,0.0,0.0