File: 01_Data/Vinyl_Siding/Cone/Vinyl_Siding_Cone_HF25Scan_220331_R1.csv
Names,Time,Stack TC,Smoke TC,Exh Press,Smoke Comp,Smoke Meas,CO Meter,CO2 Meter,O2 Meter,Sample Mass,Ext Coeff,Start Test,Flame Verif
Chan Gain,,500,500,1,1,1,1,1,1,1,1,1.0,1.0
Offset,,0,0,0.133521,0,0,0,0,0,0,0,0.0,0.0
Gain,,1,1,25.011,13.1585,13.8929,1,1,1,1.00096,1.01488,1.0,1.0
Units,sec,C,C,Pa,%,%,%,%,%,g,/m,,
Baseline,,15.924,15.5942,155.344,97.8854,97.3001,0.000760707,0.0759277,20.9939,-833.572,0.0534127,,
3,0.5,15.1327,15.0672,152.717,97.8343,97.1348,0.000606753,0.0799509,20.989,193.787,0.063884,0.0,0.0
6,1.25,14.5753,14.6043,154.626,97.8436,97.1123,0.000627654,0.0799092,20.9889,193.817,0.0667843,0.0,0.0
9,2,14.8916,14.3369,156.098,97.8492,96.9648,0.000652758,0.0799591,20.9888,193.857,0.0808309,0.0,0.0
12,2.75,14.2469,14.7452,153.569,97.8628,97.3688,0.000678881,0.0800237,20.9888,193.837,0.045054,0.0,0.0
15,3.5,14.5911,14.6657,152.921,97.8596,97.1869,0.000719182,0.0801124,20.9888,193.817,0.0614075,0.0,0.0
18,4.25,14.963,14.0732,154.968,97.8757,97.3256,0.000748562,0.0802277,20.9887,193.827,0.0501779,0.0,0.0
21,5,14.5043,14.3337,159.123,97.8725,97.3904,0.000821389,0.0803319,20.9887,193.827,0.0439537,0.0,0.0
24,5.75,14.7719,14.5388,157.833,97.8761,97.3557,0.000885673,0.080436,20.9887,193.807,0.0474611,0.0,0.0
27,6.5,14.8721,14.5171,154.231,97.8793,97.033,0.000932071,0.0805239,20.9887,193.797,0.077306,0.0,0.0
30,7.25,14.6255,14.6514,152.817,97.8841,97.3141,0.000956941,0.0805679,20.9887,193.817,0.0519928,0.0,0.0
33,8,14.5997,14.5266,156.025,97.9014,97.3171,0.000951451,0.0805926,20.9887,193.807,0.0532915,0.0,0.0
36,8.75,14.7498,14.471,157.402,97.8974,97.7245,0.000929482,0.0805979,20.9887,193.797,0.0157299,0.0,0.0
39,9.5,15.064,14.5399,155.362,97.8982,97.7495,0.000899962,0.0805214,20.9889,193.797,0.0135261,0.0,0.0
42,10.25,14.7891,14.4387,154.269,97.9102,97.2361,0.00086604,0.0803671,20.9891,193.797,0.0615055,0.0,0.0
45,11,15.4787,14.7065,154.049,97.9146,97.4672,0.000841311,0.0802126,20.9892,193.777,0.0407766,0.0,0.0
48,11.75,14.6848,14.7168,155.719,97.9183,97.4133,0.000812656,0.0799005,20.9893,193.767,0.0460243,0.0,0.0
51,12.5,14.5263,14.7548,156.023,97.9295,97.1674,0.0007868,0.0796284,20.9894,193.797,0.0695488,0.0,0.0
54,13.25,14.7702,14.3619,163.854,97.9307,97.7385,0.000759301,0.0793542,20.9894,193.797,0.0174861,0.0,0.0
57,14,14.9483,15.1052,155.958,97.9363,97.2128,0.000728081,0.0791542,20.9894,193.787,0.0660132,0.0,0.0
60,14.75,14.8961,14.9266,158.569,97.9387,97.0542,0.000705322,0.0790084,20.9895,193.797,0.0807657,0.0,0.0
63,15.5,14.2066,14.3941,153.956,97.9456,97.1411,0.000649801,0.0790627,20.9891,193.797,0.0734178,0.0,0.0
66,16.25,14.6416,14.8046,155.193,97.9468,97.3595,0.000605605,0.0793135,20.9886,193.787,0.0535383,0.0,0.0
69,17,14.7415,14.8298,160.822,97.9568,97.4282,0.000568537,0.0795863,20.9883,193.787,0.0481726,0.0,0.0
72,17.75,14.8815,14.7687,154.552,97.9664,97.3235,0.000535935,0.0803065,20.9867,193.787,0.0586225,0.0,0.0
75,18.5,15.0603,14.8989,158.384,97.9761,97.2204,0.000501077,0.0811502,20.9856,193.787,0.0689275,0.0,0.0
78,19.25,14.7912,14.3463,156.158,97.9729,97.8348,0.0004567,0.0819303,20.9848,193.797,0.0125575,0.0,0.0
81,20,15.2387,15.1168,155.116,97.9737,97.27,0.000420633,0.0825392,20.9842,193.787,0.0641674,0.0,0.0
84,20.75,14.9081,14.7756,153.498,97.9813,97.1314,0.000398625,0.0829682,20.9838,193.787,0.0775585,0.0,0.0
87,21.5,14.8403,15.0215,154.084,97.9873,97.1657,0.000392619,0.0832556,20.9835,193.787,0.0749585,0.0,0.0
90,22.25,14.9002,14.7981,154.736,97.9885,97.3061,0.000412996,0.0834354,20.9832,193.777,0.0622201,0.0,0.0
93,23,14.6947,14.9841,154.791,97.9941,97.3124,0.000451418,0.0835157,20.9831,193.787,0.0621484,0.0,0.0
96,23.75,14.8004,14.4516,152.893,97.9933,97.4604,0.000489474,0.0834614,20.983,193.777,0.0485494,0.0,0.0
99,24.5,15.2517,15.2395,154.753,98.0138,97.3209,0.000569613,0.0833174,20.9828,193.777,0.0631601,0.0,0.0
102,25.25,15.6768,14.8681,155.896,98.0086,97.4765,0.000611082,0.0831884,20.9828,193.787,0.0484639,0.0,0.0
105,26,14.8803,15.057,154.413,98.0094,97.0987,0.000692112,0.0831546,20.9827,193.787,0.0831043,0.0,0.0
108,26.75,15.2058,15.0946,151.46,98.0243,97.2128,0.000725212,0.083398,20.9822,193.777,0.074004,0.0,0.0
111,27.5,15.1638,14.7296,156.309,98.0299,97.3417,0.000758483,0.083976,20.9811,193.777,0.0627196,0.0,0.0
114,28.25,15.3035,15.0187,154.864,98.0427,97.1479,0.000775389,0.0844658,20.9802,193.767,0.0816238,0.0,0.0
117,29,15.2749,15.1318,157.148,98.0295,97.245,0.00077877,0.0852121,20.9796,193.767,0.0715272,0.0,0.0
120,29.75,15.1676,15.4493,153.665,98.0387,97.2738,0.000772541,0.0854952,20.9791,193.777,0.0697278,0.0,0.0
123,30.5,15.6175,15.4134,153.953,98.0672,96.8876,0.000764294,0.0855807,20.9788,193.777,0.107736,0.0,0.0
126,31.25,15.1411,15.2477,157.492,98.0548,96.6222,0.000772453,0.0853009,20.979,193.767,0.131026,0.0,0.0
129,32,15.0076,14.8553,155.755,98.0572,97.1479,0.000778401,0.084993,20.9794,193.767,0.0829361,0.0,0.0
132,32.75,15.3364,15.0272,155.18,98.064,97.0775,0.000809318,0.0845909,20.9796,193.757,0.0900082,0.0,0.0
135,33.5,15.0407,14.9661,155.366,98.0725,96.8982,0.000845528,0.0841849,20.9798,193.757,0.107236,0.0,0.0
138,34.25,15.3743,15.3469,155.984,98.0893,96.3597,0.00088757,0.0838409,20.9799,193.757,0.158374,0.0,0.0
141,35,15.4272,15.2018,156.308,98.0913,96.8855,0.000935006,0.0835298,20.98,193.767,0.110118,0.0,0.0
144,35.75,15.1858,15.2924,153.823,98.1114,96.3788,0.000983782,0.0832511,20.981,193.767,0.158616,0.0,0.0
147,36.5,15.2607,15.148,156.64,98.1042,96.2253,0.00101685,0.0829591,20.9821,193.717,0.172148,0.0,0.0
150,37.25,15.1069,15.3033,155.222,98.1227,96.562,0.0010399,0.0826659,20.9829,193.707,0.142734,0.0,0.0
153,38,15.1512,14.6485,153.749,98.121,95.6335,0.0010281,0.0823957,20.9835,193.737,0.228606,0.0,0.0
156,38.75,15.4151,15.2887,152.119,98.1303,96.3453,0.0010073,0.0821896,20.9841,193.767,0.163423,0.0,0.0
159,39.5,15.4447,15.2254,155.716,98.1243,95.9833,0.000970611,0.0820647,20.9845,193.747,0.196396,0.0,0.0
162,40.25,15.4956,15.1133,157.071,98.1403,95.9078,0.000907054,0.0819737,20.9848,193.717,0.204856,0.0,0.0
165,41,15.225,14.829,155.539,98.154,95.9222,0.000851865,0.082048,20.9844,193.727,0.204756,0.0,0.0
168,41.75,15.2955,15.7035,153.111,98.1584,95.9701,0.000823658,0.0822208,20.984,193.717,0.200711,0.0,0.0
171,42.5,14.9631,15.2418,156.983,98.166,95.3511,0.000817639,0.0825498,20.983,193.707,0.25901,0.0,0.0
174,43.25,15.4319,15.8719,153.147,98.174,95.8777,0.00084515,0.0831697,20.9822,193.697,0.210709,0.0,0.0
177,44,15.4941,15.2063,155.294,98.1825,95.9222,0.00087142,0.0837835,20.9816,193.687,0.207341,0.0,0.0
180,44.75,15.5148,15.7295,151.648,98.1921,95.5258,0.000890603,0.0841819,20.9812,193.687,0.245083,0.0,0.0
183,45.5,15.5441,15.3035,154.787,98.1937,95.9315,0.000900112,0.0846281,20.9809,193.657,0.207495,0.0,0.0
186,46.25,15.6664,15.808,152.607,98.1993,94.4684,0.000899196,0.0849474,20.9807,193.637,0.344831,0.0,0.0
189,47,15.3917,15.4115,159.929,98.2086,95.1548,0.000885108,0.0850996,20.9811,193.627,0.281217,0.0,0.0
192,47.75,15.7749,15.4247,155.393,98.2218,94.4938,0.00085712,0.0851541,20.9815,193.627,0.344474,0.0,0.0
195,48.5,15.1653,15.7135,158.009,98.2138,94.1724,0.000832142,0.0851252,20.9817,193.617,0.374075,0.0,0.0
198,49.25,16.0108,15.65,160.004,98.2182,94.9072,0.000806109,0.085028,20.9819,193.576,0.305285,0.0,0.0
201,50,15.5135,15.4024,153.84,98.2242,95.1798,0.000774736,0.0848161,20.9825,193.566,0.280295,0.0,0.0
204,50.75,15.2305,15.5625,154.558,98.2351,94.5439,0.000741934,0.0846014,20.9831,193.556,0.340962,0.0,0.0
207,51.5,15.7204,15.7859,151.508,98.2303,93.9062,0.000713788,0.084264,20.9836,193.526,0.400773,0.0,0.0
210,52.25,15.6262,15.923,154.213,98.2303,93.6052,0.000684421,0.0839615,20.9839,193.506,0.429356,0.0,0.0
213,53,15.3826,15.4724,152.046,98.2379,93.7998,0.000661706,0.0837171,20.9841,193.486,0.411559,0.0,0.0
216,53.75,15.7157,15.7476,157.944,98.2371,94.1385,0.000642913,0.0833579,20.9849,193.446,0.379392,0.0,0.0
219,54.5,15.7301,16.03,158.292,98.2303,93.0536,0.000627443,0.0830115,20.9855,193.436,0.481972,0.0,0.0
222,55.25,15.5951,15.6606,153.385,98.2387,93.5708,0.000617407,0.0827229,20.986,193.406,0.433387,0.0,0.0
225,56,15.6974,15.8998,149.89,98.2516,93.545,0.000612578,0.0824924,20.9863,193.376,0.437013,0.0,0.0
228,56.75,15.8926,15.7374,154.62,98.2548,92.9179,0.000612408,0.0822681,20.9872,193.346,0.497181,0.0,0.0
231,57.5,16.0315,15.6707,153.619,98.26,93.246,0.000617595,0.0820805,20.9878,193.316,0.466269,0.0,0.0
234,58.25,15.4918,15.9485,154.526,98.2748,93.7315,0.000620135,0.0819438,20.988,193.286,0.421387,0.0,0.0
237,59,16.2164,16.1769,153.966,98.26,93.4708,0.000621457,0.0818018,20.9878,193.256,0.444841,0.0,0.0
240,59.75,15.3274,16.1571,157.27,98.2728,93.656,0.000624903,0.0816581,20.9876,193.216,0.428376,0.0,0.0
243,60.5,15.974,16.1384,153.703,98.2636,93.6539,0.000629433,0.0815152,20.9874,193.166,0.42774,0.0,0.0
246,61.25,15.4019,15.8388,153.206,98.2656,93.0476,0.000631075,0.0814111,20.9874,193.146,0.485742,0.0,0.0
249,62,16.124,15.8105,157.503,98.2744,92.8534,0.000723396,0.0813634,20.9888,193.136,0.50514,0.0,0.0
252,62.75,16.2203,16.1823,153.784,98.274,92.9917,0.000814649,0.0813406,20.9894,193.086,0.491863,0.0,0.0
255,63.5,16.203,15.9655,155.641,98.2768,92.7148,0.000921347,0.0813195,20.9896,193.046,0.518661,0.0,0.0
258,64.25,16.07,16.4261,152.324,98.2869,92.7131,0.0010361,0.0812837,20.9898,193.016,0.519733,0.0,0.0
261,65,16.1122,16.1868,155.331,98.2861,93.45,0.0011553,0.0812164,20.9904,192.976,0.449185,0.0,0.0
264,65.75,16.1656,16.2614,160.223,98.2897,92.9756,0.00124594,0.0811531,20.9905,192.926,0.494824,0.0,0.0
267,66.5,15.9315,16.3394,151.505,98.2917,92.8946,0.00131361,0.0811672,20.9905,192.896,0.502762,0.0,0.0
270,67.25,16.0039,16.5974,154.737,98.2925,93.2151,0.00132561,0.0812198,20.9904,192.856,0.47217,0.0,0.0
273,68,16.2425,16.2151,155.329,98.2989,93.1481,0.0012995,0.081239,20.9906,192.826,0.479152,0.0,0.0
276,68.75,16.2082,16.511,152.835,98.3018,93.2219,0.00126561,0.0811897,20.9912,192.786,0.47236,0.0,0.0
279,69.5,16.1489,16.0591,158.583,98.3066,93.202,0.00118236,0.0810833,20.9916,192.746,0.474698,0.0,0.0
282,70.25,15.9128,16.1366,155.534,98.3198,93.1256,0.00109681,0.0809757,20.9919,192.706,0.483191,0.0,0.0
285,71,16.1916,16.4001,155.735,98.3066,93.9838,0.00101405,0.0808973,20.9921,192.666,0.400333,0.0,0.0
288,71.75,16.2238,16.0929,160.451,98.3034,92.7852,0.000936949,0.0808542,20.9922,192.636,0.514306,0.0,0.0
291,72.5,16.4781,16.0703,153.02,98.3082,93.7519,0.000867087,0.0808584,20.9923,192.596,0.422473,0.0,0.0
294,73.25,16.1454,16.3265,155.232,98.3082,92.463,0.000810337,0.0809122,20.9924,192.555,0.545712,0.0,0.0
297,74,16.24,16.3344,155.553,98.3082,92.9985,0.000779371,0.0810921,20.9922,192.525,0.494304,0.0,0.0
300,74.75,16.1868,16.4288,152.033,98.3194,93.7637,0.00074108,0.0812232,20.9917,192.475,0.422364,0.0,0.0
303,75.5,16.2185,16.1272,150.489,98.3134,94.3857,0.000723788,0.08156,20.9909,192.455,0.36296,0.0,0.0
306,76.25,16.2162,16.6681,155.397,98.319,93.5831,0.000722356,0.0819605,20.9901,192.415,0.439493,0.0,0.0
309,77,15.9963,16.5014,151.669,98.3122,92.9238,0.000732285,0.0822116,20.9895,192.385,0.501814,0.0,0.0
312,77.75,15.8245,15.9174,156.461,98.3383,93.1888,0.000746745,0.0825439,20.9891,192.335,0.478826,0.0,0.0
315,78.5,16.1479,16.8265,151.775,98.3339,93.0413,0.000765112,0.0827968,20.9888,192.295,0.492532,0.0,0.0
318,79.25,16.2652,16.3687,154.68,98.3295,93.2562,0.000799766,0.0829685,20.9885,192.275,0.471589,0.0,0.0
321,80,16.5973,16.4193,154.913,98.3266,93.3266,0.000825028,0.0831339,20.9884,192.225,0.464619,0.0,0.0
324,80.75,16.3497,16.6662,160.604,98.3319,93.4152,0.000866493,0.0832404,20.9883,192.185,0.456642,0.0,0.0
327,81.5,16.5304,16.1744,157.286,98.3287,93.3792,0.000894103,0.0832897,20.9882,192.155,0.459787,0.0,0.0
330,82.25,16.5385,16.6146,154.179,98.325,93.5996,0.000909756,0.0832876,20.9881,192.105,0.438465,0.0,0.0
333,83,16.6809,16.5333,152.363,98.3222,93.1803,0.000907496,0.0832015,20.9881,192.075,0.478182,0.0,0.0
336,83.75,16.3919,16.5227,157.276,98.3339,93.3728,0.00090002,0.0830878,20.988,192.035,0.460866,0.0,0.0
339,84.5,16.2955,16.8112,151.182,98.3331,93.7018,0.000905755,0.0829796,20.9884,192.005,0.429479,0.0,0.0
342,85.25,16.4461,16.8142,152.005,98.3347,94.0898,0.000927138,0.0829007,20.9892,191.955,0.392844,0.0,0.0
345,86,16.9822,16.9503,153.608,98.327,93.7688,0.000963988,0.0828431,20.9899,191.925,0.422572,0.0,0.0
348,86.75,16.3987,16.5508,152.045,98.3327,93.8672,0.000996506,0.0827789,20.9904,191.875,0.413748,0.0,0.0
351,87.5,16.3799,16.7891,153.866,98.3307,93.5373,0.00103407,0.0826941,20.9906,191.845,0.444905,0.0,0.0
354,88.25,16.2714,16.9559,154.94,98.3303,93.1197,0.00104727,0.0826724,20.9904,191.815,0.484704,0.0,0.0
357,89,17.0483,17.1867,153.794,98.3355,94.0787,0.00103699,0.0826144,20.9901,191.785,0.393959,0.0,0.0
360,89.75,16.6633,16.7728,148.713,98.3343,93.8896,0.00101251,0.0825721,20.9899,191.735,0.411762,0.0,0.0
363,90.5,16.4173,16.8874,155.686,98.3407,93.7637,0.000980115,0.0824668,20.9897,191.715,0.42429,0.0,0.0
366,91.25,16.4105,17.0038,157.534,98.3375,94.3692,0.000979551,0.0823957,20.9896,191.675,0.3667,0.0,0.0
369,92,16.564,16.7009,153.466,98.3254,94.1992,0.000999434,0.0823946,20.9895,191.645,0.381663,0.0,0.0
372,92.75,16.6037,17.1711,153.544,98.3242,93.7591,0.00104863,0.0823656,20.9894,191.605,0.423243,0.0,0.0
375,93.5,16.7942,17.0634,158.546,98.3367,93.871,0.00112889,0.0823325,20.9894,191.565,0.413749,0.0,0.0
378,94.25,16.6045,16.854,155.663,98.3262,93.5144,0.0011874,0.0823083,20.9894,191.514,0.446683,0.0,0.0
381,95,16.3476,16.874,151.869,98.3218,93.9978,0.0012425,0.0823912,20.9893,191.484,0.400388,0.0,0.0
384,95.75,16.5166,16.6368,154.476,98.3138,94.5176,0.00127643,0.0824798,20.9891,191.464,0.350568,0.0,0.0
387,96.5,16.6074,16.9877,155.655,98.325,94.3166,0.00129523,0.0825564,20.9885,191.434,0.370534,0.0,0.0
390,97.25,17.0347,17.0119,153.537,98.3246,93.7061,0.00130334,0.0826264,20.9881,191.384,0.428313,0.0,0.0
393,98,16.7819,17.3781,156.474,98.315,94.4942,0.00130391,0.0826982,20.9877,191.374,0.352874,0.0,0.0
396,98.75,16.5847,17.3073,151.627,98.3058,94.2068,0.00130309,0.082776,20.9875,191.334,0.37916,0.0,0.0
399,99.5,17.06,16.7817,154.56,98.3086,93.8824,0.00129449,0.0828609,20.9874,191.294,0.410118,0.0,0.0
402,100.25,16.8996,16.6775,154.032,98.3046,94.6532,0.00128786,0.082957,20.9873,191.284,0.336962,0.0,0.0
405,101,16.5692,17.2887,153.336,98.3138,94.3293,0.00127168,0.0830874,20.9872,191.244,0.368317,0.0,0.0
408,101.75,16.81,17.2481,152.705,98.2929,94.4268,0.00124533,0.0832206,20.9871,191.194,0.357227,0.0,0.0
411,102.5,16.7296,17.3334,154.587,98.3005,94.027,0.00122434,0.0834182,20.9868,191.174,0.395692,0.0,0.0
414,103.25,16.9104,17.0959,155.038,98.3009,94.2691,0.00121952,0.0836454,20.9862,191.144,0.372835,0.0,0.0
417,104,16.6728,17.1079,152.503,98.2985,94.0012,0.00123393,0.08407,20.9851,191.104,0.397959,0.0,0.0
420,104.75,16.6995,16.9992,150.622,98.2965,94.5337,0.0012681,0.0844983,20.9841,191.074,0.347486,0.0,0.0
423,105.5,16.6556,16.8868,154.618,98.2805,94.4756,0.00131491,0.0850138,20.9829,191.054,0.351503,0.0,0.0
426,106.25,16.5577,17.1783,152.367,98.2921,95.0603,0.00136922,0.0856514,20.9821,191.004,0.297635,0.0,0.0
429,107,16.5286,17.0473,151.213,98.2945,93.8947,0.0014226,0.086146,20.9815,190.964,0.407679,0.0,0.0
432,107.75,16.9178,17.0608,149.454,98.2869,93.9672,0.00148508,0.0865574,20.981,190.924,0.400117,0.0,0.0
435,108.5,16.4153,17.3538,154.082,98.2825,94.607,0.00152734,0.0868573,20.9807,190.894,0.339308,0.0,0.0
438,109.25,16.6484,17.0028,153.846,98.2865,94.2479,0.00155254,0.0870759,20.9805,190.874,0.373529,0.0,0.0
441,110,16.9766,17.0952,151.409,98.2881,94.108,0.00152645,0.0872918,20.9803,190.854,0.386899,0.0,0.0
444,110.75,16.5996,16.7518,152.605,98.2748,93.8693,0.0014917,0.0874732,20.9802,190.804,0.408309,0.0,0.0
447,111.5,16.6273,16.9589,157.452,98.2668,94.0338,0.00143945,0.0876055,20.9801,190.784,0.391994,0.0,0.0
450,112.25,16.6734,16.9366,151.795,98.2789,94.4612,0.00138183,0.0876031,20.98,190.744,0.352717,0.0,0.0
453,113,16.7876,17.399,153.108,98.2748,94.2458,0.00133734,0.0875592,20.9802,190.714,0.372674,0.0,0.0
456,113.75,16.937,16.5765,149.964,98.2644,94.7219,0.00130384,0.0873459,20.9807,190.684,0.326866,0.0,0.0
459,114.5,16.482,16.9779,157.498,98.2684,94.4052,0.00126877,0.0871056,20.9811,190.654,0.357047,0.0,0.0
462,115.25,16.7452,17.5846,155.545,98.2692,94.4056,0.00124321,0.0868721,20.9814,190.594,0.357079,0.0,0.0
465,116,16.6709,17.4253,149.19,98.2765,94.8004,0.00117312,0.0866638,20.9816,190.594,0.32059,0.0,0.0
468,116.75,17.2668,17.4037,155.193,98.2789,94.1398,0.00110338,0.086399,20.9818,190.544,0.383056,0.0,0.0
471,117.5,16.154,17.0453,151.583,98.2495,94.8097,0.0010459,0.0861578,20.9819,190.554,0.317275,0.0,0.0
474,118.25,16.6219,17.355,154.6,98.2793,95.0738,0.00100623,0.0857405,20.9826,190.534,0.2952,0.0,0.0
477,119,16.6871,17.3396,153.305,98.2732,94.5498,0.00100214,0.0853769,20.9831,190.484,0.343859,0.0,0.0
480,119.75,16.811,17.1076,154.555,98.2708,95.2354,0.0010091,0.0850103,20.9835,190.473,0.279323,0.0,0.0
483,120.5,16.7161,17.3276,156.378,98.2632,94.3649,0.00101711,0.0847028,20.9838,190.453,0.360373,0.0,0.0
486,121.25,16.7016,17.2749,156.731,98.2805,94.5718,0.00102071,0.0845774,20.9834,190.393,0.342439,0.0,0.0
489,122,17.0814,17.3521,152.156,98.2748,94.4709,0.00100965,0.0846394,20.9831,190.373,0.351433,0.0,0.0
492,122.75,16.4565,17.626,154.941,98.2781,94.4251,0.000995764,0.0848751,20.9828,190.343,0.356041,0.0,0.0
495,123.5,16.6497,17.3798,150.605,98.2957,94.6766,0.000985639,0.0852683,20.9822,190.343,0.333968,0.0,0.0
498,124.25,16.9836,17.3212,149.088,98.2716,94.6816,0.000996909,0.0856888,20.9816,190.273,0.331308,0.0,0.0
501,125,16.8524,17.4682,155.052,98.2768,94.7101,0.00101308,0.0862241,20.9805,190.243,0.329109,0.0,0.0
504,125.75,16.4089,17.2469,153.428,98.27,93.9291,0.00105858,0.0868827,20.9792,190.253,0.402204,0.0,0.0
507,126.5,16.9827,17.3751,156.825,98.2684,94.7071,0.00110295,0.0875146,20.9781,190.233,0.328625,0.0,0.0
510,127.25,16.733,17.2973,152.295,98.2668,95.1124,0.00113942,0.0880388,20.9773,190.193,0.290461,0.0,0.0
513,128,17.2101,17.1843,156.142,98.274,94.4705,0.00116488,0.0884492,20.9767,190.183,0.351401,0.0,0.0
516,128.75,16.7191,17.7563,156.978,98.2676,94.4714,0.00117493,0.0887381,20.9763,190.163,0.350738,0.0,0.0
519,129.5,17.297,17.5114,158.878,98.2821,94.9097,0.00116986,0.0889106,20.9761,190.123,0.310833,0.0,0.0
522,130.25,16.8587,17.2435,152.432,98.2652,94.7872,0.001164,0.0889515,20.9758,190.093,0.320805,0.0,0.0
525,131,17.0418,17.5832,150.726,98.2716,94.5994,0.00111183,0.0888931,20.9757,190.073,0.339045,0.0,0.0
528,131.75,16.762,17.6516,155.11,98.2564,94.6397,0.00106385,0.0887615,20.9756,190.063,0.333873,0.0,0.0
531,132.5,17.1253,17.5328,155.922,98.2576,94.6392,0.00103053,0.0886943,20.9756,190.033,0.334022,0.0,0.0
534,133.25,16.7944,17.8467,152.227,98.2532,94.3866,0.0010163,0.0885601,20.9756,189.983,0.357424,0.0,0.0
537,134,17.0055,17.1728,155.399,98.2757,94.6473,0.00104496,0.0884381,20.9755,189.963,0.334901,0.0,0.0
540,134.75,16.8913,17.4099,158.348,98.2632,94.7643,0.00110692,0.0883492,20.9755,189.973,0.322773,0.0,0.0
543,135.5,16.7746,17.9379,154.667,98.2576,94.6253,0.00116961,0.0883127,20.9755,189.933,0.335339,0.0,0.0
546,136.25,17.2123,17.4662,155.452,98.2556,94.0804,0.00124024,0.0883122,20.9755,189.903,0.386561,0.0,0.0
549,137,17.046,17.6102,156.384,98.2604,94.4747,0.00133435,0.0883179,20.9755,189.883,0.349764,0.0,0.0
552,137.75,17.2696,17.3836,153.08,98.2612,94.144,0.00143676,0.0883623,20.9755,189.863,0.381055,0.0,0.0
555,138.5,16.5916,18.2322,148.523,98.2656,93.9753,0.0015147,0.0884171,20.9755,189.843,0.397425,0.0,0.0
558,139.25,16.7827,17.4777,152.066,98.2552,94.4925,0.00157188,0.0884951,20.9755,189.813,0.347614,0.0,0.0
561,140,17.201,17.5613,153.224,98.258,94.4887,0.00160458,0.0885096,20.9755,189.783,0.348228,0.0,0.0
564,140.75,17.1536,17.4014,153.727,98.2628,93.9744,0.00161595,0.0885021,20.9755,189.773,0.397251,0.0,0.0
567,141.5,17.3068,17.433,155.489,98.2499,94.8385,0.00162088,0.0885168,20.9755,189.753,0.314605,0.0,0.0
570,142.25,16.8903,17.7403,155.897,98.256,94.4345,0.00162576,0.088584,20.9755,189.693,0.35316,0.0,0.0
573,143,17.0337,17.8912,155.747,98.2504,94.1339,0.00163141,0.0887092,20.9755,189.693,0.381035,0.0,0.0
576,143.75,17.1937,17.5617,152.376,98.2548,93.9863,0.00164798,0.0888895,20.9755,189.683,0.395399,0.0,0.0
579,144.5,16.9741,17.4379,154.665,98.2596,94.9805,0.00166539,0.0891621,20.9753,189.673,0.302156,0.0,0.0
582,145.25,17.1069,17.6756,148.729,98.2491,94.7088,0.00167809,0.0893014,20.9747,189.613,0.32672,0.0,0.0
585,146,17.5386,17.3926,152.667,98.2467,94.1016,0.00170871,0.0895632,20.9743,189.613,0.383755,0.0,0.0
588,146.75,17.1992,17.7663,155.187,98.2495,94.1076,0.00176226,0.0898211,20.9737,189.533,0.383448,0.0,0.0
591,147.5,17.158,17.8619,155.674,98.2487,93.8778,0.00184882,0.0901236,20.9729,189.553,0.405141,0.0,0.0
594,148.25,17.6221,17.61,155.616,98.2463,94.8542,0.00197046,0.0906696,20.9711,189.553,0.312805,0.0,1.0
597,149,17.1129,17.642,152.123,98.2487,94.6753,0.00217947,0.0912064,20.9679,189.473,0.329831,0.0,1.0
600,149.75,17.2845,17.3195,153.46,98.2419,93.6306,0.00238314,0.0926688,20.9649,189.573,0.427992,0.0,1.0
603,150.5,17.1706,17.2892,151.198,98.2439,91.0876,0.0029126,0.0949421,20.9595,189.483,0.673311,0.0,1.0
606,151.25,17.315,17.7043,154.6,98.2351,87.8653,0.00354847,0.0989958,20.9522,189.432,0.993143,0.0,1.0
609,152,16.8423,17.5356,153.931,98.2295,81.6909,0.00427385,0.102753,20.9432,189.332,1.64129,0.0,1.0
612,152.75,16.7774,17.7869,150.978,98.2459,73.7931,0.00506822,0.108894,20.9335,189.402,2.54797,0.0,1.0
615,153.5,17.2109,17.5878,148.469,98.2379,71.9772,0.00564732,0.116812,20.9213,189.382,2.76905,0.0,0.0
618,154.25,17.3521,17.7275,150.731,98.2524,67.6343,0.00670213,0.125988,20.9053,189.252,3.32439,0.0,0.0
621,155,17.474,17.8524,150.52,98.2279,64.8187,0.00777564,0.137228,20.8905,189.202,3.70072,0.0,0.0
624,155.75,17.3813,17.7582,147.977,98.2355,63.2097,0.00868806,0.145422,20.8708,189.182,3.92519,0.0,0.0
627,156.5,17.2913,17.6955,148.751,98.2447,57.7629,0.0097909,0.156105,20.8502,189.122,4.72824,0.0,0.0
630,157.25,17.7361,18.0127,148.072,98.2403,57.6268,0.0105949,0.167113,20.8325,189.032,4.74884,0.0,0.0
633,158,17.7691,18.1276,141.832,98.2395,54.4919,0.0112845,0.177212,20.8211,188.962,5.24674,0.0,0.0
636,158.75,18.0792,18.3754,150.663,98.2331,57.6751,0.0121573,0.186594,20.8049,188.912,4.74072,0.0,0.0
639,159.5,18.2537,18.7974,147.042,98.2363,56.6855,0.0129239,0.194295,20.788,188.852,4.89509,0.0,0.0
642,160.25,18.2362,18.6582,146.911,98.2479,53.1262,0.0136346,0.201606,20.7744,188.782,5.47345,0.0,0.0
645,161,19.1383,19.3235,148.795,98.2295,55.2465,0.0142168,0.205851,20.7626,188.722,5.12338,0.0,0.0
648,161.75,19.4414,19.7297,146.506,98.2343,54.7132,0.0146966,0.212275,20.7521,188.652,5.21018,0.0,0.0
651,162.5,19.29,19.7058,144.037,98.2331,50.3818,0.0150945,0.217324,20.7444,188.592,5.9443,0.0,0.0
654,163.25,19.7217,20.2267,144.963,98.2234,53.116,0.0154361,0.221161,20.7388,188.512,5.47294,0.0,0.0
657,164,20.2481,20.5346,144.828,98.2166,55.1164,0.0156929,0.223893,20.7347,188.442,5.14321,0.0,0.0
660,164.75,20.0159,20.1296,146.061,98.2242,57.7493,0.0158933,0.225641,20.7336,188.371,4.72848,0.0,0.0
663,165.5,20.3171,20.7355,147.723,98.2355,53.518,0.0160261,0.226551,20.7331,188.321,5.40692,0.0,0.0
666,166.25,20.5909,21.0896,142.173,98.2246,54.918,0.0161171,0.227104,20.7331,188.241,5.17605,0.0,0.0
669,167,21.3339,21.599,144.285,98.217,52.9248,0.0161208,0.227182,20.7333,188.171,5.50446,0.0,0.0
672,167.75,20.4726,20.55,146.401,98.219,56.7033,0.0160875,0.227046,20.7349,188.111,4.89073,0.0,0.0
675,168.5,21.1955,21.5742,147.023,98.2295,57.6751,0.016058,0.226618,20.7365,188.061,4.7404,0.0,0.0
678,169.25,21.3935,21.495,143.627,98.2206,56.1619,0.0159498,0.225836,20.7393,187.991,4.97628,0.0,0.0
681,170,20.9703,21.4248,145.637,98.2206,57.6285,0.0158162,0.225296,20.7419,187.931,4.7468,0.0,0.0
684,170.75,21.4163,21.7556,143.699,98.2299,56.1963,0.0156955,0.223899,20.7442,187.871,4.97168,0.0,0.0
687,171.5,21.992,22.3871,147.654,98.215,59.9951,0.0155344,0.223181,20.7461,187.811,4.388,0.0,0.0
690,172.25,21.8308,22.3046,146.111,98.2158,58.8415,0.0153584,0.22235,20.748,187.761,4.56092,0.0,0.0
693,173,22.1984,22.8703,147.471,98.2146,58.7948,0.0151834,0.221291,20.7506,187.701,4.56787,0.0,0.0
696,173.75,21.9533,22.7464,146.384,98.2142,63.0923,0.0149726,0.219974,20.7533,187.641,3.93981,0.0,0.0
699,174.5,22.1171,22.9827,146.037,98.2078,64.5478,0.0147632,0.218781,20.7565,187.601,3.73619,0.0,0.0
702,175.25,22.2774,23.412,142.383,98.2174,63.8499,0.0145493,0.217115,20.7599,187.551,3.83384,0.0,0.0
705,176,22.7195,22.7755,143.952,98.2086,63.8559,0.0143289,0.215653,20.7627,187.481,3.83221,0.0,0.0
708,176.75,22.7771,23.5045,149.188,98.2062,65.3512,0.0141683,0.214167,20.7651,187.441,3.62591,0.0,0.0
711,177.5,22.775,23.4933,150.171,98.1937,63.2267,0.0138929,0.212547,20.7671,187.401,3.91901,0.0,0.0
714,178.25,23.0681,23.7107,144.6,98.1925,65.2033,0.0136246,0.21114,20.7689,187.35,3.64486,0.0,0.0
717,179,23.2293,23.7871,147.036,98.1893,63.7532,0.013232,0.210017,20.7707,187.31,3.84478,0.0,0.0
720,179.75,22.8628,23.5811,148.421,98.1873,66.1784,0.0128927,0.208808,20.7722,187.26,3.51223,0.0,0.0
723,180.5,23.0927,23.7957,146.958,98.1857,66.529,0.0125545,0.20776,20.7739,187.22,3.46504,0.0,0.0
726,181.25,23.5656,24.5931,149.809,98.1881,66.9996,0.0121681,0.206336,20.7769,187.18,3.40251,0.0,0.0
729,182,23.3249,24.1805,143.404,98.1757,68.1164,0.0118224,0.205016,20.7804,187.13,3.25421,0.0,0.0
732,182.75,23.241,24.3354,145.518,98.1724,65.6073,0.0115259,0.203476,20.7837,187.09,3.58804,0.0,0.0
735,183.5,23.8865,24.5166,147.842,98.1632,65.0964,0.0112805,0.2021,20.7861,187.06,3.6568,0.0,0.0
738,184.25,23.6906,24.3978,148.476,98.164,68.1876,0.0110885,0.20094,20.7879,187,3.24385,0.0,0.0
741,185,23.6124,24.229,149.883,98.1696,66.4879,0.0109486,0.200014,20.7892,186.98,3.46909,0.0,0.0
744,185.75,23.7371,24.4292,152.313,98.174,66.8665,0.010841,0.199414,20.7897,186.93,3.41894,0.0,0.0
747,186.5,24.0703,25.0928,149.221,98.1544,67.5525,0.01076,0.199087,20.7899,186.89,3.32629,0.0,0.0
750,187.25,23.153,23.9781,145.883,98.1564,66.4277,0.0106998,0.198983,20.79,186.85,3.47595,0.0,0.0
753,188,24.2939,25.206,148.306,98.1459,68.1444,0.0106523,0.199079,20.7896,186.81,3.24786,0.0,0.0
756,188.75,24.0154,25.0909,147.433,98.1492,69.7441,0.0106122,0.199195,20.7892,186.78,3.04158,0.0,0.0
759,189.5,23.923,24.6663,149.251,98.1407,67.7552,0.0105736,0.199361,20.7886,186.73,3.29838,0.0,0.0
762,190.25,24.4852,25.3896,144.97,98.1484,67.8781,0.0105195,0.199547,20.7877,186.69,3.28293,0.0,0.0
765,191,24.0047,24.799,148.612,98.1475,70.0099,0.010454,0.199682,20.7865,186.67,3.00757,0.0,0.0
768,191.75,24.0042,24.7109,143.83,98.1548,67.8273,0.0103951,0.200227,20.7847,186.63,3.29019,0.0,0.0
771,192.5,24.2035,25.247,144.589,98.1451,65.3305,0.0102725,0.20094,20.783,186.59,3.62321,0.0,0.0
774,193.25,24.443,25.5195,150.622,98.1391,70.3241,0.0101612,0.201704,20.7815,186.55,2.96694,0.0,0.0
777,194,24.6577,25.7492,147.481,98.1423,68.4683,0.0100427,0.202451,20.7805,186.52,3.20532,0.0,0.0
780,194.75,24.5687,25.6617,146.823,98.1415,67.7777,0.00987864,0.203131,20.7797,186.49,3.2955,0.0,0.0
783,195.5,24.0979,25.0129,147.124,98.1419,66.4154,0.00972904,0.203684,20.7792,186.46,3.47629,0.0,0.0
786,196.25,24.8532,25.4299,147.929,98.1375,71.0029,0.00953399,0.203872,20.7788,186.43,2.88128,0.0,0.0
789,197,25.1505,26.0362,148.029,98.1435,70.6794,0.00933244,0.2035,20.7797,186.4,2.92248,0.0,0.0
792,197.75,24.8124,26.2159,146.941,98.1451,72.19,0.00909161,0.203011,20.7816,186.37,2.73436,0.0,0.0
795,198.5,24.9183,25.8616,144.972,98.1403,71.5858,0.00891604,0.201714,20.785,186.34,2.80874,0.0,0.0
798,199.25,25.0349,25.957,149.639,98.1355,74.019,0.00865414,0.20014,20.7875,186.309,2.51074,0.0,0.0
801,200,25.1868,26.2611,148.526,98.1435,76.4565,0.00840612,0.198364,20.7902,186.289,2.22303,0.0,0.0
804,200.75,25.091,26.1096,148.266,98.1355,74.1212,0.00806879,0.196452,20.7933,186.249,2.49846,0.0,0.0
807,201.5,25.2083,26.4168,146.159,98.1347,77.4117,0.00770029,0.193926,20.7968,186.239,2.11169,0.0,0.0
810,202.25,25.2004,26.1781,149.893,98.1206,79.8352,0.00733614,0.191603,20.8019,186.199,1.83599,0.0,0.0
813,203,25.3475,26.5739,148.707,98.1387,79.7826,0.00694878,0.18991,20.8087,186.179,1.84349,0.0,0.0
816,203.75,25.2274,26.1871,150.288,98.1307,82.8552,0.00660273,0.18595,20.8167,186.169,1.50635,0.0,0.0
819,204.5,25.2196,26.6723,148.767,98.1279,82.1382,0.00622609,0.181869,20.8288,186.149,1.58346,0.0,0.0
822,205.25,25.4335,26.5046,145.148,98.1122,84.1886,0.0060598,0.177798,20.8348,186.129,1.36254,0.0,0.0
825,206,25.0718,26.4312,149.61,98.1275,86.4976,0.00584029,0.173824,20.8417,186.119,1.12306,0.0,0.0
828,206.75,25.427,26.4679,155.457,98.1243,86.4535,0.00563341,0.169486,20.8487,186.109,1.1273,0.0,0.0
831,207.5,25.1767,26.4757,149.79,98.1182,87.4371,0.00541566,0.164182,20.8551,186.089,1.02604,0.0,0.0
834,208.25,25.3153,26.3955,149.805,98.1126,87.0869,0.0052256,0.162067,20.8603,186.079,1.06126,0.0,0.0
837,209,25.044,26.6039,150.515,98.1239,89.0567,0.00503347,0.158086,20.8661,186.069,0.863158,0.0,0.0
840,209.75,25.3086,26.4204,148.564,98.1186,90.296,0.00483397,0.154211,20.8714,186.059,0.739654,0.0,0.0
843,210.5,25.3078,26.4438,152.381,98.1174,91.1474,0.00461396,0.150971,20.8778,186.049,0.656001,0.0,0.0
846,211.25,25.0348,26.0519,154.723,98.1182,91.2504,0.00440934,0.14739,20.8833,186.039,0.646018,0.0,0.0
849,212,25.2137,26.0481,147.842,98.117,91.9593,0.00422045,0.144293,20.8898,186.029,0.577015,0.0,0.0
852,212.75,24.7568,26.2614,150.58,98.1162,92.3977,0.00406153,0.141203,20.8946,186.019,0.534603,0.0,0.0
855,213.5,24.7735,25.9402,150.967,98.1206,93.2706,0.00390939,0.137716,20.9,186.019,0.451287,0.0,0.0
858,214.25,24.346,25.7088,147.655,98.1182,94.0219,0.00378412,0.134484,20.9053,186.009,0.379647,0.0,0.0
861,215,24.8715,26.023,151.946,98.1194,93.3783,0.0036928,0.131833,20.9101,185.999,0.440905,0.0,0.0
864,215.75,24.7358,25.8588,150.944,98.1122,94.6855,0.00362688,0.128591,20.9145,185.999,0.316495,0.0,0.0
867,216.5,24.5648,25.9565,152.19,98.1134,94.5659,0.00357997,0.125774,20.9202,185.989,0.327853,0.0,0.0
870,217.25,24.818,25.8565,151.6,98.1058,94.8288,0.00353499,0.122948,20.9253,185.989,0.302448,0.0,0.0
873,218,24.3721,25.6716,150.478,98.1062,95.1959,0.00349359,0.119949,20.9299,185.989,0.268082,0.0,0.0
876,218.75,23.7497,25.2279,150.973,98.1118,95.2799,0.00344869,0.117292,20.934,185.969,0.260745,0.0,0.0
879,219.5,24.2336,25.8551,149.563,98.1134,95.5622,0.00341596,0.114944,20.9377,185.969,0.234546,0.0,0.0
882,220.25,23.7354,25.4888,154.661,98.1178,95.9854,0.00334009,0.112873,20.9403,185.969,0.195616,0.0,0.0
885,221,24.3022,25.9703,149.769,98.1202,96.0583,0.00327882,0.110815,20.9429,185.959,0.189073,0.0,0.0
888,221.75,24.5441,25.7669,152.345,98.1178,96.2058,0.00322398,0.109075,20.9448,185.949,0.175191,0.0,0.0
891,222.5,24.4874,25.6469,152.789,98.1247,96.8668,0.00319194,0.107397,20.9474,185.939,0.114856,0.0,0.0
894,223.25,23.9058,24.8786,152.576,98.1222,97.1526,0.00318216,0.106001,20.9493,185.929,0.0884133,0.0,0.0
897,224,23.7379,25.3208,154.441,98.1311,96.6845,0.00319654,0.104689,20.9509,185.919,0.13221,0.0,0.0
900,224.75,23.903,25.0722,158.853,98.1488,96.8253,0.00321709,0.103368,20.9524,185.919,0.120861,0.0,0.0
903,225.5,23.4634,24.6582,150.467,98.1504,96.7557,0.00323834,0.102405,20.9535,185.929,0.127402,0.0,0.0
906,226.25,23.6786,24.6925,155.272,98.1492,96.9961,0.00325723,0.101263,20.9548,185.929,0.105201,0.0,0.0
909,227,23.5027,24.5802,149.564,98.1423,97.3459,0.00326968,0.0999451,20.9568,185.929,0.0725357,0.0,0.0
912,227.75,23.3763,24.7031,148.287,98.154,97.1123,0.00327649,0.0987305,20.9587,185.919,0.0949824,0.0,0.0
915,228.5,23.0879,24.6491,155.881,98.1459,96.9448,0.00328684,0.0976283,20.9605,185.909,0.10962,0.0,0.0
918,229.25,22.9905,24.561,150.301,98.1508,96.9389,0.00329968,0.096598,20.962,185.909,0.110602,0.0,0.0
921,230,23.3489,24.644,154.368,98.1447,96.8779,0.0033181,0.0957504,20.9631,185.909,0.115664,0.0,0.0
924,230.75,23.6087,24.8597,151.918,98.1636,96.6786,0.0033314,0.0947927,20.9649,185.899,0.135707,0.0,0.0
927,231.5,23.0782,24.345,153.319,98.158,96.5993,0.00333103,0.0938604,20.9667,185.909,0.142501,0.0,0.0
930,232.25,22.9118,24.0171,152.967,98.1696,97.1929,0.00332316,0.0930279,20.968,185.899,0.0890206,0.0,0.0
933,233,22.5908,23.7972,153.28,98.1572,97.1327,0.00331176,0.0922946,20.969,185.899,0.0934083,0.0,0.0
936,233.75,22.4252,23.8328,153.562,98.1636,97.0033,0.00330213,0.0917062,20.9697,185.899,0.105852,0.0,0.0
939,234.5,21.8904,23.5919,150.968,98.1628,96.6154,0.00329284,0.0912167,20.9702,185.899,0.141452,0.0,0.0
942,235.25,22.4483,23.5734,152.973,98.1781,96.8058,0.00327172,0.0908599,20.9706,185.859,0.125313,0.0,0.0
945,236,21.6957,23.3218,158.839,98.156,97.1522,0.00324207,0.0906221,20.9708,185.889,0.0915115,0.0,0.0
948,236.75,22.1188,23.3454,151.921,98.1608,97.0686,0.00320187,0.090487,20.971,185.919,0.0996054,0.0,0.0
951,237.5,22.7577,22.785,155.424,98.168,96.9622,0.00316238,0.0905015,20.9718,185.909,0.110027,0.0,0.0
954,238.25,22.1258,22.4511,154.126,98.1604,97.5003,0.00310766,0.0905381,20.9724,185.869,0.0600731,0.0,0.0
957,239,22.146,22.7905,153.681,98.1708,96.9313,0.00307526,0.09053,20.9728,185.879,0.113124,0.0,0.0
960,239.75,21.611,22.9379,156.779,98.1608,97.2145,0.00303784,0.0904216,20.9731,185.879,0.086239,0.0,0.0
963,240.5,21.8063,22.8019,151.281,98.1724,96.9398,0.00300135,0.0902261,20.9733,185.879,0.112491,0.0,0.0
966,241.25,21.5386,23.0758,154.799,98.1732,96.6625,0.00295902,0.0899562,20.9735,185.879,0.138064,0.0,0.0
969,242,21.4852,23.0194,156.657,98.1656,96.9648,0.00292816,0.0895177,20.9734,185.869,0.109575,0.0,0.0
972,242.75,21.3171,22.6671,151.369,98.1652,97.1933,0.00290566,0.0891236,20.9733,185.859,0.0885814,0.0,0.0
975,243.5,21.668,22.8648,153.449,98.1813,96.8062,0.0029,0.0887091,20.9732,185.859,0.125566,0.0,0.0
978,244.25,20.7991,22.6898,154.574,98.1845,97.3273,0.00289587,0.0883397,20.9732,185.849,0.0780667,0.0,0.0
981,245,21.2278,22.903,149.658,98.1676,97.1416,0.00292049,0.0879551,20.9732,185.859,0.0935385,0.0,0.0
984,245.75,21.1246,22.4627,157.779,98.1789,97.8191,0.00295947,0.0875942,20.9728,185.859,0.032684,0.0,0.0
987,246.5,20.8835,22.3883,157.892,98.1692,97.1725,0.00300372,0.0872866,20.9729,185.849,0.0908497,0.0,0.0
990,247.25,20.9422,22.5588,153.828,98.1732,97.1823,0.0030557,0.086986,20.9731,185.839,0.0903203,0.0,0.0
993,248,20.4865,21.9464,152.264,98.1817,97.4519,0.00309293,0.086767,20.9733,185.839,0.0664167,0.0,0.0
996,248.75,20.6742,22.146,152.396,98.1745,97.1064,0.00311894,0.0866475,20.9736,185.849,0.0973845,0.0,0.0
999,249.5,20.7433,21.596,154.318,98.1672,97.368,0.00313432,0.0864396,20.9743,185.839,0.0727778,0.0,0.0
1002,250.25,20.3318,20.9528,153.199,98.1616,97.3184,0.0031442,0.0862361,20.9748,185.839,0.0768052,0.0,0.0
1005,251,20.6161,21.4991,155.102,98.1692,97.3489,0.00314915,0.0859988,20.9751,185.829,0.0747049,0.0,0.0
1008,251.75,21.1675,21.8125,154.201,98.1576,97.3408,0.0031671,0.0857976,20.9754,185.839,0.074386,0.0,0.0
1011,252.5,20.9209,21.7129,152.847,98.1688,96.7375,0.00318879,0.0856389,20.9756,185.829,0.130754,0.0,0.0
1014,253.25,20.3771,21.9341,154.092,98.1704,97.0339,0.00321931,0.0855232,20.9757,185.829,0.103669,0.0,0.0
1017,254,19.8598,20.8778,155.037,98.166,96.9351,0.00325211,0.0854106,20.9758,185.829,0.112336,0.0,0.0
1020,254.75,20.7726,21.0421,154.95,98.1592,97.3875,0.00326399,0.0853091,20.9759,185.829,0.0702669,0.0,0.0
1023,255.5,20.1177,21.289,150.614,98.1572,97.2357,0.00326696,0.0852224,20.9759,185.829,0.0839716,0.0,0.0
1026,256.25,20.3193,21.7552,153.58,98.1684,97.0771,0.00326913,0.0851592,20.9766,185.819,0.0995193,0.0,0.0
1029,257,20.5892,21.4072,150.212,98.17,97.3705,0.00327196,0.0851082,20.9771,185.819,0.0728009,0.0,0.0
1032,257.75,20.4698,21.733,152.292,98.1516,97.1496,0.00327721,0.0850997,20.9775,185.819,0.0913445,0.0,0.0
1035,258.5,19.6694,20.895,156.612,98.1604,97.5248,0.00328557,0.0850476,20.9777,185.829,0.0578286,0.0,0.0
1038,259.25,20.2882,21.0837,147.87,98.1684,97.1204,0.00330063,0.0849692,20.9779,185.819,0.0955546,0.0,0.0
1041,260,20.4874,21.6098,153.633,98.1708,97.6834,0.00331413,0.084874,20.9781,185.809,0.0443117,0.0,0.0
1044,260.75,20.049,21.2293,152.633,98.1672,97.6173,0.00332504,0.0847845,20.9782,185.799,0.0500132,0.0,0.0
1047,261.5,20.0209,21.2075,148.477,98.1813,97.1513,0.00332572,0.0847267,20.9782,185.799,0.093884,0.0,0.0
1050,262.25,19.6672,20.9292,154.961,98.1797,97.1963,0.00331375,0.0846972,20.9783,185.799,0.0896206,0.0,0.0
1053,263,19.9543,20.7864,153.513,98.1668,97.2917,0.00329785,0.0847361,20.9783,185.799,0.0797224,0.0,0.0
1056,263.75,20.0555,21.1208,153.647,98.17,97.0682,0.0032856,0.0847644,20.9784,185.789,0.100482,0.0,0.0
1059,264.5,19.6677,20.8136,156.875,98.1588,97.493,0.00327554,0.0847851,20.9784,185.789,0.0605843,0.0,0.0
1062,265.25,20.0741,20.7698,151.831,98.1833,97.5914,0.00326462,0.084772,20.9784,185.789,0.0538295,0.0,0.0
1065,266,20.0201,20.9157,157.04,98.1785,97.0496,0.0032459,0.0847503,20.9784,185.779,0.102959,0.0,0.0
1068,266.75,19.5639,20.6857,159.561,98.1793,97.2904,0.00320837,0.0848151,20.9784,185.779,0.0809676,0.0,0.0
1071,267.5,19.8825,21.1282,154.978,98.164,97.8814,0.00317083,0.0848905,20.9784,185.769,0.0256656,0.0,0.0
1074,268.25,20.0336,21.0217,155.998,98.1684,97.1594,0.00314346,0.0849723,20.9784,185.769,0.09198,0.0,0.0
1077,269,19.4397,20.9071,153.96,98.1797,97.3218,0.00304293,0.0850574,20.9789,185.769,0.0781329,0.0,0.0
1080,269.75,19.9249,20.3342,153.803,98.1789,97.5588,0.00296086,0.0851395,20.9794,185.769,0.0564072,0.0,0.0
1083,270.5,19.6121,20.855,155.978,98.1777,97.6419,0.00291629,0.0851994,20.9797,185.769,0.0487183,0.0,0.0
1086,271.25,19.6648,20.8774,151.519,98.1773,97.4146,0.00289343,0.0851161,20.98,185.769,0.0694256,0.0,0.0
1089,272,19.8414,20.4311,152.994,98.1897,97.5685,0.00290061,0.0850383,20.9802,185.769,0.056501,0.0,0.0
1092,272.75,19.5044,20.6611,155.896,98.1893,97.5193,0.00291602,0.0850452,20.9804,185.759,0.0609522,0.0,0.0
1095,273.5,19.6699,20.5643,154.987,98.1841,97.0826,0.00295591,0.0850486,20.9805,185.759,0.100434,0.0,0.0
1098,274.25,19.4,20.7114,153.455,98.1961,97.3938,0.00300259,0.0850526,20.9806,185.749,0.0730357,0.0,0.0
1101,275,19.1261,20.6954,154.417,98.1869,97.1475,0.00304412,0.0849952,20.9806,185.749,0.094743,0.0,0.0
1104,275.75,19.7054,20.3786,154.874,98.1953,97.2213,0.00310331,0.0849957,20.9807,185.739,0.0887496,0.0,0.0
1107,276.5,19.3302,20.2098,151.753,98.1821,97.3553,0.00316807,0.085014,20.9807,185.739,0.075289,0.0,0.0
1110,277.25,19.6073,20.4261,148.923,98.1805,97.7059,0.00323113,0.0850274,20.9807,185.739,0.0431373,0.0,0.0
1113,278,19.4566,20.9209,149.919,98.1877,97.2726,0.0032771,0.0850795,20.9808,185.739,0.0833619,0.0,0.0
1116,278.75,19.3606,20.4493,153.075,98.1769,97.1967,0.0033018,0.0851355,20.9808,185.739,0.0893274,0.0,0.0
1119,279.5,19.4656,19.6537,151.5,98.1684,97.4689,0.00331606,0.0851764,20.9808,185.729,0.0636659,0.0,0.0
1122,280.25,18.9432,20.2248,156.294,98.1624,97.4892,0.0033103,0.0852485,20.9808,185.729,0.0612621,0.0,0.0
1125,281,19.0925,20.2451,151.133,98.1724,97.9187,0.00330233,0.0853191,20.9808,185.729,0.0230377,0.0,0.0
1128,281.75,19.7201,20.5039,155.655,98.1777,97.5795,0.00329491,0.0854108,20.9808,185.719,0.0544022,0.0,0.0
1131,282.5,19.1468,19.6611,153.17,98.166,97.348,0.00328572,0.0854777,20.9808,185.719,0.0744913,0.0,0.0
1134,283.25,19.3463,20.4471,156.335,98.1492,97.0449,0.00327742,0.0855339,20.9808,185.709,0.100727,0.0,0.0
1137,284,19.3552,20.5681,154.987,98.1753,96.8982,0.00323909,0.0855876,20.9808,185.709,0.116562,0.0,0.0
1140,284.75,19.3484,19.7836,151.735,98.166,97.6821,0.00317974,0.085649,20.9806,185.709,0.0439896,0.0,0.0
1143,285.5,18.9939,20.3845,156.33,98.1604,97.2149,0.00310987,0.0857318,20.98,185.709,0.0861654,0.0,0.0
1146,286.25,18.8864,19.6128,152.822,98.164,97.2446,0.00303634,0.0857499,20.9796,185.709,0.0837751,0.0,0.0
1149,287,19.2202,19.7859,154.384,98.1777,97.6096,0.00297897,0.0857599,20.9793,185.709,0.0516562,0.0,0.0
1152,287.75,18.9306,20.1591,152.243,98.1688,97.8102,0.00294016,0.0857925,20.979,185.699,0.0325835,0.0,0.0
1155,288.5,19.0888,19.9791,151.975,98.1644,97.2192,0.00291978,0.0858969,20.9789,185.689,0.0861402,0.0,0.0
1158,289.25,18.112,19.3757,153.44,98.1616,97.0712,0.00290241,0.0859878,20.9788,185.689,0.0994459,0.0,0.0
1161,290,18.7121,20.2259,154.154,98.16,96.8702,0.00289,0.0860795,20.9787,185.689,0.11775,0.0,0.0
1164,290.75,19.229,20.4117,153.333,98.16,96.8516,0.00288322,0.0861665,20.9786,185.679,0.119464,0.0,0.0
1167,291.5,19.0774,20.0829,155.001,98.166,97.3341,0.00287827,0.0862374,20.9786,185.679,0.0757709,0.0,0.0
1170,292.25,19.1648,19.8534,148.058,98.1588,97.507,0.00289977,0.0863017,20.978,185.679,0.0593078,0.0,0.0
1173,293,18.4413,19.5333,152.352,98.1544,97.4485,0.00294467,0.0863769,20.977,185.679,0.0642507,0.0,0.0
1176,293.75,17.994,19.1336,152.458,98.1459,96.9957,0.00300907,0.0864437,20.976,185.669,0.104949,0.0,0.0
1179,294.5,19.2393,20.0916,152.744,98.1588,97.7491,0.00311342,0.0865912,20.9752,185.669,0.0372316,0.0,0.0
1182,295.25,19.1552,19.3706,150.884,98.15,97.1187,0.00321845,0.0867409,20.9746,185.669,0.0940353,0.0,0.0
1185,296,19.3367,19.9979,154.913,98.1339,97.0326,0.00330736,0.0869709,20.9742,185.669,0.100471,0.0,0.0
1188,296.75,18.9693,19.7188,150.364,98.15,97.1255,0.00338981,0.0872234,20.9739,185.669,0.0934136,0.0,0.0
1191,297.5,18.3459,19.3122,153.232,98.1572,97.5698,0.00345412,0.0874435,20.9737,185.659,0.0534349,0.0,0.0
1194,298.25,18.631,19.5383,150.961,98.1459,96.88,0.00349534,0.0876242,20.9735,185.659,0.115578,0.0,0.0
1197,299,18.6694,19.9953,148.075,98.1475,97.4498,0.00350382,0.0876852,20.9734,185.659,0.0635152,0.0,0.0
1200,299.75,18.5065,19.8871,152.946,98.1391,97.4969,0.00349993,0.0876996,20.9733,185.659,0.0584517,0.0,0.0
1203,300.5,18.9313,19.887,153.34,98.1435,97.6308,0.00349281,0.08769,20.9732,185.649,0.0466282,0.0,0.0
1206,301.25,18.5473,19.5382,154.95,98.1616,97.8237,0.00348761,0.0877112,20.9727,185.649,0.0306938,0.0,0.0
1209,302,18.7618,19.6388,153.928,98.1295,97.3981,0.00349101,0.0877387,20.9722,185.649,0.0666031,0.0,0.0
1212,302.75,18.7171,19.4804,148.128,98.1548,96.9427,0.00349348,0.087799,20.9718,185.639,0.110616,0.0,0.0
1215,303.5,18.7368,19.8276,152.59,98.1467,97.3171,0.00346476,0.0878572,20.9715,185.639,0.0755742,0.0,0.0
1218,304.25,19.0377,19.2107,150.801,98.1331,97.1539,0.00342794,0.0878907,20.9713,185.639,0.0892802,0.0,0.0
1221,305,18.4415,19.7753,155.367,98.1243,97.2823,0.00337392,0.0878897,20.9711,185.629,0.0767158,0.0,0.0
1224,305.75,18.5227,19.7987,155.674,98.1291,97.4074,0.00330406,0.0879455,20.971,185.629,0.065714,0.0,0.0
1227,306.5,18.7868,19.4104,156.003,98.1255,97.4595,0.00324811,0.0880102,20.9709,185.619,0.0606212,0.0,0.0
1230,307.25,18.7104,19.3902,154.043,98.1271,97.1585,0.00320915,0.0880373,20.9709,185.619,0.0883072,0.0,0.0
1233,308,18.579,19.4621,154.227,98.1267,97.2531,0.00318753,0.088057,20.9708,185.619,0.0796109,0.0,0.0
1236,308.75,19.0429,19.4479,153.126,98.1231,97.3341,0.00318811,0.088064,20.9708,185.619,0.0718735,0.0,0.0
1239,309.5,18.7507,19.165,154.765,98.1259,97.164,0.0031955,0.0880563,20.9708,185.619,0.0876914,0.0,0.0
1242,310.25,18.6421,19.3083,154.471,98.1427,97.0508,0.00320986,0.0880366,20.9708,185.609,0.0996001,0.0,0.0
1245,311,18.9824,19.5908,157.106,98.1206,96.9749,0.00322787,0.0880311,20.9708,185.599,0.104561,0.0,0.0
1248,311.75,18.1372,19.6472,152.011,98.1174,96.8851,0.00324885,0.0880525,20.9707,185.599,0.112524,0.0,0.0
1251,312.5,18.0657,18.9159,153.889,98.121,96.6065,0.00327207,0.0880399,20.9707,185.609,0.138485,0.0,0.0
1254,313.25,18.4492,19.2656,156.647,98.1142,97.2645,0.00330156,0.0880112,20.9707,185.599,0.0774344,0.0,0.0
1257,314,18.3737,19.3511,153.264,98.1114,96.9771,0.00332306,0.0879775,20.9707,185.599,0.103527,0.0,0.0
1260,314.75,18.9814,19.215,154.913,98.1182,97.0763,0.003348,0.087953,20.9707,185.599,0.0950444,0.0,0.0
1263,315.5,18.1624,19.2795,153.575,98.1202,97.5159,0.00338205,0.087921,20.9714,185.599,0.0549982,0.0,0.0
1266,316.25,18.5469,19.515,156.349,98.119,97.0237,0.00340866,0.0878916,20.9718,185.589,0.0999391,0.0,0.0
1269,317,18.682,19.6408,152.365,98.1231,97.4723,0.00342807,0.0878702,20.9722,185.579,0.0592403,0.0,0.0
1272,317.75,18.5766,19.2579,154.226,98.101,97.4629,0.0034099,0.0879151,20.9724,185.579,0.058088,0.0,0.0
1275,318.5,18.3724,19.4559,155.671,98.1142,97.2077,0.00337024,0.0879337,20.9726,185.579,0.0826354,0.0,0.0
1278,319.25,18.3738,19.0872,151.457,98.1154,97.619,0.00331022,0.0879412,20.9727,185.579,0.0451606,0.0,0.0
1281,320,18.5727,19.5621,155.447,98.0982,97.3124,0.00323254,0.0879064,20.9728,185.569,0.0715914,0.0,0.0
1284,320.75,18.1269,19.1864,153.932,98.0929,97.3887,0.00313698,0.087881,20.9729,185.559,0.064139,0.0,0.0
1287,321.5,18.6491,19.4017,152.604,98.101,97.5685,0.00303819,0.0878625,20.9729,185.559,0.0484512,0.0,0.0
1290,322.25,18.6185,19.0282,152.841,98.0953,96.7083,0.00294472,0.0878772,20.973,185.549,0.126781,0.0,0.0
1293,323,18.1277,19.1872,156.956,98.0913,96.9699,0.00287479,0.0878852,20.973,185.559,0.102368,0.0,0.0
1296,323.75,18.2508,19.2662,151.668,98.0901,97.552,0.00282381,0.0878655,20.973,185.549,0.0489758,0.0,0.0
1299,324.5,18.1464,19.2589,154.854,98.0917,97.3396,0.0027879,0.0878109,20.973,185.549,0.0685263,0.0,0.0
1302,325.25,17.656,18.7003,156.941,98.0905,97.3998,0.00276556,0.087757,20.973,185.549,0.0629125,0.0,0.0
1305,326,17.669,19.0976,155.4,98.0909,96.9635,0.00275491,0.0877116,20.9731,185.539,0.102916,0.0,0.0
1308,326.75,18.2927,18.994,150.417,98.0833,97.2857,0.00276504,0.0875577,20.9731,185.539,0.0726873,0.0,0.0
1311,327.5,18.0454,19.1505,150.991,98.0953,97.1687,0.00278372,0.0874455,20.9731,185.539,0.0844952,0.0,0.0
1314,328.25,17.915,18.601,152.959,98.099,97.7076,0.00280612,0.0873637,20.9731,185.529,0.0355891,0.0,0.0
1317,329,18.6912,19.5985,153.599,98.0925,97.5579,0.00282923,0.0873323,20.9731,185.529,0.0486528,0.0,0.0
1320,329.75,18.4481,18.9339,151.762,98.0913,96.9805,0.00284607,0.0872992,20.9731,185.529,0.101396,0.0,0.0
1323,330.5,18.1698,18.5341,155.692,98.0789,97.9264,0.00285835,0.0872369,20.9731,185.529,0.0138556,0.0,0.0
1326,331.25,18.3761,19.2215,155.113,98.0901,97.3739,0.00283866,0.0870908,20.9735,185.529,0.065241,0.0,0.0
1329,332,17.3872,19.1993,151.393,98.0957,97.496,0.00280926,0.0870125,20.974,185.529,0.0545942,0.0,0.0
1332,332.75,17.7938,18.5436,155.26,98.0881,97.0411,0.00278866,0.0869675,20.9744,185.519,0.0955399,0.0,0.0
1335,333.5,18.1499,19.1138,157.427,98.1102,97.5736,0.00278607,0.0869749,20.9747,185.529,0.0488238,0.0,0.0
1338,334.25,18.4272,19.0358,154.028,98.0933,97.457,0.00283314,0.0869432,20.9749,185.519,0.0579383,0.0,0.0
1341,335,18.0695,18.8058,156.969,98.0957,97.6135,0.00290879,0.0868566,20.975,185.509,0.0438776,0.0,0.0
1344,335.75,18.0691,18.8085,149.587,98.0986,97.4239,0.00299892,0.086733,20.9753,185.519,0.0614339,0.0,0.0
1347,336.5,17.4743,18.452,152.742,98.0829,97.7835,0.00307972,0.086628,20.9756,185.509,0.0272189,0.0,0.0
1350,337.25,18.7575,19.1748,151.689,98.0998,96.9262,0.00314506,0.0865261,20.9758,185.499,0.107144,0.0,0.0
1353,338,18.1778,19.3025,154.797,98.0978,97.2611,0.00319269,0.0863725,20.9759,185.509,0.0762497,0.0,0.0
1356,338.75,17.9827,19.314,153.006,98.0961,97.5448,0.00318616,0.0862605,20.976,185.499,0.05018,0.0,0.0
1359,339.5,18.5148,18.8593,153.241,98.0925,97.6317,0.00315141,0.086199,20.976,185.499,0.0419237,0.0,0.0
1362,340.25,18.108,19.0613,158.423,98.1038,97.4553,0.00309408,0.0861542,20.976,185.499,0.05904,0.0,0.0
1365,341,18.1715,18.847,153.926,98.1042,97.1636,0.00302291,0.0860813,20.976,185.499,0.0857639,0.0,0.0
1368,341.75,18.0029,18.9396,156.49,98.0982,97.2378,,0.0860133,,185.489,0.0784212,0.0,0.0
1371,342.5,18.2189,18.99,152.261,98.0957,97.7534,,0.0859607,,185.489,0.0311263,0.0,0.0
1374,343.25,18.2495,18.9462,153.284,98.1126,96.8193,,0.0858717,,185.479,0.118128,0.0,0.0
1377,344,18.1942,18.7256,154.967,98.1126,97.6436,,0.0858022,,185.479,0.0426631,0.0,0.0
1380,344.75,18.3498,18.8614,154.354,98.107,97.619,,,,185.469,0.0443951,0.0,0.0
1383,345.5,18.503,19.1222,155.347,98.0982,97.5337,,,,185.469,0.0513681,0.0,0.0
1386,346.25,17.9732,19.0025,152.405,98.1098,97.2225,,,,185.469,0.080875,0.0,0.0
1389,347,17.9445,18.8296,153.802,98.1178,97.7101,,,,185.459,0.0370689,0.0,0.0
1392,347.75,18.0178,18.8695,154.711,98.1118,97.2984,,,,185.459,0.0741113,0.0,0.0
1395,348.5,18.2532,18.7071,153.063,98.1178,97.1628,,,,185.469,0.0870798,0.0,0.0
1398,349.25,18.2939,18.8176,153.653,98.1126,97.3052,,,,185.459,0.073563,0.0,0.0
1401,350,18.0801,19.3702,150.838,98.1218,97.4197,,,,185.459,0.0639346,0.0,0.0
1404,350.75,18.2911,18.8589,154.946,98.1114,97.2866,,,,185.459,0.0751606,0.0,0.0
1407,351.5,17.4535,18.1852,150.377,98.1198,97.4511,,,,185.449,0.0608858,0.0,0.0
1409,352,18.1534,18.618,151.095,98.1239,97.6219,,,,185.449,0.0456548,0.0,0.0