File: 01_Data/Vinyl_Siding/Cone/Vinyl_Siding_Cone_HF50Scan_220331_R3.csv
Names,Time,Stack TC,Smoke TC,Exh Press,Smoke Comp,Smoke Meas,CO Meter,CO2 Meter,O2 Meter,Sample Mass,Ext Coeff,Start Test,Flame Verif
Chan Gain,,500,500,1,1,1,1,1,1,1,1,1.0,1.0
Offset,,0,0,0.133521,0,0,0,0,0,0,0,0.0,0.0
Gain,,1,1,25.011,13.1585,13.8929,1,1,1,1.00096,1.01488,1.0,1.0
Units,sec,C,C,Pa,%,%,%,%,%,g,/m,,
Baseline,,31.4995,32.8901,145.935,97.8836,95.2935,0.000421397,0.0677196,21.0334,-834.74,0.238811,,
3,0.5,28.6398,29.3611,144.864,98.4656,96.428,0.000658853,0.0714453,21.0298,207.34,0.186154,0.0,0.0
6,1.25,27.844,28.8455,144.963,98.4736,95.2286,0.000695587,0.0713687,21.0298,207.41,0.298309,0.0,0.0
9,2,28.2019,28.9638,147.477,98.4997,96.0435,0.000726092,0.0712889,21.0298,207.31,0.224813,0.0,0.0
12,2.75,27.9762,29.354,147.304,98.4837,96.3279,0.000749919,0.0712307,21.0299,207.45,0.19703,0.0,0.0
15,3.5,28.3803,29.094,148.53,98.4833,96.1961,0.000757159,0.0711603,21.0299,207.38,0.209188,0.0,0.0
18,4.25,28.3469,29.1313,145.672,98.4929,95.6856,0.000755504,0.0710748,21.0299,207.4,0.257427,0.0,0.0
21,5,27.9836,29.152,145.754,98.5106,95.5792,0.000749828,0.0709747,21.0304,207.41,0.26893,0.0,0.0
24,5.75,28.6886,29.3944,142.235,98.5122,96.1223,0.000740723,0.0708175,21.0307,207.33,0.218631,0.0,0.0
27,6.5,28.032,29.7768,147.136,98.5138,96.0672,0.000730007,0.0706671,21.031,207.36,0.223882,0.0,0.0
30,7.25,28.4532,29.7928,150.241,98.5258,95.7751,0.000718843,0.0703797,21.0318,207.34,0.252083,0.0,0.0
33,8,27.984,30.0071,148.903,98.5567,96.018,0.000693,0.0701422,21.0328,207.34,0.232324,0.0,0.0
36,8.75,28.2567,29.6432,145.362,98.5411,96.3224,0.000659271,0.0699571,21.0338,207.37,0.202729,0.0,0.0
39,9.5,28.5507,29.5049,143.08,98.5435,96.4089,0.000628336,0.0697222,21.0345,207.35,0.194956,0.0,0.0
42,10.25,28.6554,29.414,149.203,98.5479,95.6933,0.00058842,0.0694669,21.035,207.34,0.261687,0.0,0.0
45,11,28.6388,30.2653,148.633,98.5728,96.2109,0.000546046,0.0692006,21.0354,207.35,0.215906,0.0,0.0
48,11.75,28.2808,29.6371,146.635,98.5575,95.8344,0.000505114,0.0689309,21.0356,207.36,0.249433,0.0,0.0
51,12.5,28.3641,29.7986,145.436,98.5684,95.5949,0.000461131,0.0686361,21.0358,207.34,0.272693,0.0,0.0
54,13.25,28.6948,29.9423,145.48,98.568,94.8538,0.000430307,0.0683795,21.036,207.34,0.341944,0.0,0.0
57,14,28.8593,30.511,150.517,98.5973,94.6397,0.000408365,0.0682923,21.0361,207.35,0.364708,0.0,0.0
60,14.75,28.7565,29.9859,147.886,98.5909,93.977,0.000438348,0.0684249,21.0362,207.34,0.426684,0.0,0.0
63,15.5,28.8583,29.1307,147.228,98.5973,91.7011,0.000503644,0.0686052,21.0362,207.31,0.645516,0.0,0.0
66,16.25,28.8351,30.4193,148.435,98.5941,90.9112,0.000569763,0.0692767,21.036,207.26,0.72224,0.0,0.0
69,17,28.8733,30.0154,145.991,98.6122,88.4441,0.000617963,0.0702855,21.0355,207.2,0.968805,0.0,0.0
72,17.75,28.9603,29.7277,147.165,98.6254,84.9462,0.000776247,0.0712423,21.0351,207.1,1.32923,0.0,0.0
75,18.5,28.8539,30.6214,145.005,98.6037,83.1549,0.000970381,0.0728217,21.0349,206.999,1.51701,0.0,0.0
78,19.25,29.2797,30.4558,145.034,98.6122,82.1535,0.00115679,0.0739731,21.0341,206.879,1.62564,0.0,0.0
81,20,29.1121,29.914,144.543,98.627,82.3261,0.00132888,0.0761786,21.0326,206.769,1.6083,0.0,0.0
84,20.75,29.1104,30.1198,136.602,98.6419,78.0201,0.00147568,0.0783688,21.0307,206.659,2.08789,0.0,0.0
87,21.5,29.415,30.588,141.543,98.6447,77.6491,0.00158887,0.0806995,21.0285,206.539,2.13057,0.0,0.0
90,22.25,29.0642,30.5623,145.034,98.6342,77.2998,0.00166464,0.082905,21.0262,206.389,2.16978,0.0,0.0
93,23,29.0831,30.5541,146.23,98.6491,78.6667,0.00168961,0.0848435,21.0246,206.259,2.01507,0.0,0.0
96,23.75,29.5319,30.4733,147.613,98.6543,77.1221,0.0017078,0.0867208,21.0234,206.119,2.19207,0.0,0.0
99,24.5,29.3611,30.2995,146.685,98.6603,74.8403,0.00170984,0.0883725,21.0225,205.968,2.45999,0.0,0.0
102,25.25,29.4566,30.9571,144.132,98.6579,73.9614,0.00171376,0.0897867,21.0219,205.848,2.56494,0.0,0.0
105,26,29.5407,30.6038,144.19,98.6688,72.0573,0.00172897,0.0909706,21.0208,205.718,2.79811,0.0,0.0
108,26.75,29.8795,31.07,148.213,98.68,68.0668,0.00177378,0.0919549,21.02,205.578,3.30631,0.0,0.0
111,27.5,29.6822,30.8669,150.489,98.67,71.9398,0.00188585,0.0926725,21.0189,205.458,2.81274,0.0,0.0
114,28.25,29.5943,30.9111,141.1,98.6656,71.4641,0.00209035,0.093034,21.0173,205.328,2.87141,0.0,0.0
117,29,29.9934,31.4497,144.302,98.6732,67.6106,0.00240203,0.0931983,21.0162,205.198,3.36557,0.0,0.0
120,29.75,30.1472,31.4816,147.345,98.6885,72.1256,0.00315915,0.0932759,21.014,205.088,2.79146,0.0,0.0
123,30.5,30.4865,30.9584,144.313,98.723,67.9502,0.0037111,0.094323,21.0118,204.987,3.32545,0.0,0.0
126,31.25,30.1202,31.2954,144.464,98.688,66.1403,0.00555913,0.0988774,21.0031,204.877,3.56265,0.0,0.0
129,32,30.0669,31.3564,143.516,98.7005,76.6337,0.00787927,0.10715,20.9869,204.757,2.2528,0.0,0.0
132,32.75,29.8656,31.5487,142.256,98.7009,75.0459,0.0105738,0.118887,20.9634,204.697,2.43922,0.0,1.0
135,33.5,30.4848,31.6987,136.376,98.7033,64.3027,0.0135442,0.141034,20.9246,204.977,3.81486,0.0,1.0
138,34.25,30.6365,32.0092,138.53,98.6929,58.4578,0.0171063,0.161885,20.8766,204.357,4.6623,0.0,1.0
141,35,30.8374,32.264,133.071,98.7041,44.2282,0.020188,0.185132,20.827,204.227,7.14659,0.0,1.0
144,35.75,31.1472,32.7129,131.88,98.7158,42.5925,0.0232638,0.208378,20.7799,204.117,7.48313,0.0,1.0
147,36.5,31.9476,32.7624,135.637,98.729,40.5099,0.026383,0.233001,20.7369,203.987,7.93062,0.0,1.0
150,37.25,32.062,33.7448,129.644,98.7266,38.7203,0.0286568,0.253079,20.7019,203.736,8.33264,0.0,1.0
153,38,32.2399,33.7028,128.046,98.7158,42.3152,0.0311175,0.272891,20.6696,203.626,7.54127,0.0,1.0
156,38.75,32.799,34.0307,131.424,98.7198,42.4487,0.033104,0.289077,20.6433,203.466,7.51358,0.0,1.0
159,39.5,33.0914,34.4589,135.422,98.7282,46.3222,0.0346343,0.301619,20.6218,203.356,6.73694,0.0,1.0
162,40.25,33.0405,34.4442,130.628,98.7085,45.1262,0.0358399,0.312056,20.6062,203.196,6.96805,0.0,1.0
165,41,33.9325,35.4158,130.434,98.7222,44.31,0.0367377,0.320017,20.5966,203.056,7.13176,0.0,1.0
168,41.75,34.2665,35.7763,134.715,98.7294,44.3083,0.037359,0.325482,20.5895,202.936,7.13276,0.0,0.0
171,42.5,34.6323,36.1071,138.576,98.7306,44.4809,0.0376774,0.329465,20.5848,202.785,7.09826,0.0,0.0
174,43.25,34.8624,36.6045,135.809,98.7342,43.3425,0.0377859,0.330573,20.5825,202.635,7.32939,0.0,0.0
177,44,35.2162,37.1921,129.546,98.7133,43.3599,0.0378124,0.330428,20.5825,202.525,7.32394,0.0,0.0
180,44.75,35.7659,37.4348,132.587,98.7214,46.9272,0.0376178,0.329826,20.5834,202.425,6.6208,0.0,0.0
183,45.5,36.0893,37.9473,137.325,98.7174,48.5116,0.0372796,0.328539,20.5856,202.295,6.32483,0.0,0.0
186,46.25,36.0299,38.3506,133.949,98.723,46.7988,0.0368533,0.326099,20.5891,202.185,6.64535,0.0,0.0
189,47,36.6127,38.5563,132.231,98.7138,47.1672,0.036316,0.323046,20.5924,202.075,6.5747,0.0,0.0
192,47.75,36.3671,39.2372,131.621,98.7182,51.1687,0.0358278,0.320277,20.5975,201.945,5.85018,0.0,0.0
195,48.5,37.2014,39.1514,136.032,98.7499,52.2499,0.0350519,0.316528,20.6064,201.864,5.6669,0.0,0.0
198,49.25,37.2538,39.8684,130.299,98.7282,50.7324,0.0342237,0.312385,20.6145,201.764,5.92731,0.0,0.0
201,50,37.8925,39.9129,136.388,98.7282,55.7328,0.0332272,0.308215,20.6244,201.664,5.09044,0.0,0.0
204,50.75,38.1964,39.9943,133.958,98.727,57.8387,0.032381,0.303903,20.6336,201.554,4.76015,0.0,0.0
207,51.5,38.0244,40.7831,137.777,98.7378,57.9685,0.0313159,0.299627,20.6418,201.454,4.74118,0.0,0.0
210,52.25,38.4292,40.8178,134.531,98.7374,62.2761,0.0301984,0.295498,20.6501,201.384,4.10303,0.0,0.0
213,53,38.7256,40.8904,136.892,98.7314,59.9112,0.0291275,0.290757,20.6589,201.294,4.44715,0.0,0.0
216,53.75,39.0705,40.6049,129.807,98.7326,64.1433,0.0280583,0.285779,20.6679,201.214,3.8396,0.0,0.0
219,54.5,38.4295,41.7615,129.183,98.735,66.6185,0.0270211,0.281501,20.6792,201.114,3.50275,0.0,0.0
222,55.25,39.8655,41.2576,131.463,98.7334,67.9824,0.0260345,0.276603,20.6914,201.034,3.32217,0.0,0.0
225,56,39.5434,41.5816,137.295,98.7318,70.7968,0.0249264,0.27136,20.7039,200.994,2.96091,0.0,0.0
228,56.75,39.4093,41.6605,135.117,98.7282,71.7542,0.0238957,0.265975,20.7157,200.914,2.841,0.0,0.0
231,57.5,39.9869,41.7032,137.089,98.7358,71.3887,0.0230491,0.259739,20.7261,200.813,2.88715,0.0,0.0
234,58.25,39.6533,42.6712,135.922,98.7435,73.7939,0.0221098,0.253658,20.7353,200.733,2.59284,0.0,0.0
237,59,39.7915,42.3884,137.664,98.7298,75.9706,0.0211823,0.247759,20.7449,200.693,2.33281,0.0,0.0
240,59.75,40.3617,42.3659,137.484,98.7326,75.9689,0.0203261,0.242069,20.755,200.593,2.33326,0.0,0.0
243,60.5,40.0309,42.3621,135.409,98.729,76.9729,0.0194716,0.236524,20.7647,200.573,2.21605,0.0,0.0
246,61.25,40.734,42.1459,133.784,98.7399,74.6194,0.0187119,0.231885,20.7727,200.483,2.49348,0.0,0.0
249,62,40.5971,42.6409,139.633,98.7399,76.6905,0.0180998,0.226961,20.7812,200.433,2.24975,0.0,0.0
252,62.75,40.801,43.0406,133.684,98.7362,75.8981,0.0174826,0.222246,20.7894,200.373,2.34189,0.0,0.0
255,63.5,40.6154,43.1615,135.183,98.7403,76.9241,0.0169204,0.217724,20.7969,200.303,2.22271,0.0,0.0
258,64.25,40.6002,42.651,138.427,98.7386,76.1491,0.0164434,0.21394,20.803,200.253,2.31271,0.0,0.0
261,65,40.9239,43.1293,137.367,98.7463,77.5279,0.01606,0.211182,20.8074,200.203,2.15365,0.0,0.0
264,65.75,40.8527,43.1665,139.992,98.7354,78.2376,0.0157195,0.208059,20.8119,200.153,2.07154,0.0,0.0
267,66.5,40.6393,43.4185,136.77,98.7346,75.6556,0.0154447,0.204928,20.8159,200.083,2.37023,0.0,0.0
270,67.25,40.8938,43.7305,139.426,98.7499,76.585,0.0152316,0.202182,20.82,200.023,2.26292,0.0,0.0
273,68,40.8422,43.3665,139.587,98.7439,76.1233,0.0150739,0.199388,20.825,199.993,2.31621,0.0,0.0
276,68.75,40.7206,43.2419,138.933,98.7403,76.5133,0.0149629,0.19668,20.8288,199.933,2.27038,0.0,0.0
279,69.5,41.4598,43.6583,139.836,98.7399,74.0093,0.0148858,0.19442,20.832,199.903,2.56657,0.0,0.0
282,70.25,40.969,44.282,137.12,98.7511,75.7408,0.0148332,0.192222,20.8349,199.823,2.3617,0.0,0.0
285,71,40.9531,44.106,139.719,98.7487,73.0965,0.0147797,0.190232,20.8383,199.772,2.67785,0.0,0.0
288,71.75,41.1914,43.9888,138.002,98.7523,76.0647,0.0147603,0.188618,20.8396,199.702,2.32381,0.0,0.0
291,72.5,40.8293,43.8288,136.523,98.7571,73.2589,0.0147038,0.186531,20.8416,199.652,2.65885,0.0,0.0
294,73.25,41.9072,43.8688,136.359,98.7607,75.8078,0.0146294,0.184791,20.8437,199.612,2.35469,0.0,0.0
297,74,41.2296,43.9704,138.202,98.7611,73.0125,0.0145416,0.182709,20.846,199.602,2.6892,0.0,0.0
300,74.75,41.6553,43.8593,136.802,98.7788,76.7262,0.0144441,0.181717,20.8477,199.532,2.24913,0.0,0.0
303,75.5,41.1333,44.3079,136.072,98.7676,73.3988,0.0143239,0.180517,20.8494,199.492,2.64281,0.0,0.0
306,76.25,42.4285,43.5697,138.901,98.768,72.5835,0.0142006,0.179549,20.8508,199.462,2.74229,0.0,0.0
309,77,41.9617,44.2988,141.845,98.77,73.8355,0.0140954,0.178725,20.8519,199.412,2.59022,0.0,0.0
312,77.75,41.5008,44.4816,141.019,98.7792,73.3894,0.013949,0.177882,20.8531,199.382,2.64499,0.0,0.0
315,78.5,41.5888,44.1566,137.073,98.776,73.233,0.0138423,0.177131,20.8541,199.352,2.6637,0.0,0.0
318,79.25,41.5834,44.4289,135.67,98.7888,72.4681,0.013676,0.17649,20.8549,199.292,2.75832,0.0,0.0
321,80,41.7446,44.4874,136.066,98.8013,70.857,0.0135086,0.175876,20.8555,199.222,2.9596,0.0,0.0
324,80.75,41.8954,44.298,140.555,98.7872,71.674,0.0133669,0.175365,20.8559,199.172,2.85627,0.0,0.0
327,81.5,41.6912,44.5038,140.123,98.78,73.6769,0.0131772,0.174824,20.8562,199.142,2.61026,0.0,0.0
330,82.25,41.5442,44.5309,141.335,98.7929,71.8415,0.012985,0.17443,20.8564,199.122,2.836,0.0,0.0
333,83,41.5706,44.7679,137.141,98.8073,72.5907,0.0127915,0.173953,20.8566,199.062,2.74495,0.0,0.0
336,83.75,41.9173,44.2382,139.075,98.8113,71.6287,0.0125984,0.173458,20.8573,199.052,2.86408,0.0,0.0
339,84.5,41.6448,44.56,138.203,98.8045,72.2773,0.0123586,0.172879,20.8579,198.992,2.7832,0.0,0.0
342,85.25,41.8636,44.2855,140.621,98.8021,73.9953,0.0121837,0.172192,20.8583,198.972,2.57386,0.0,0.0
345,86,41.7578,44.5361,139.782,98.8109,74.3523,0.0119709,0.171418,20.8586,198.942,2.53181,0.0,0.0
348,86.75,41.9535,44.5622,142.375,98.8097,72.8802,0.0116699,0.170868,20.8596,198.892,2.70972,0.0,0.0
351,87.5,41.7266,44.4114,137.465,98.8194,71.5574,0.0113357,0.170474,20.8604,198.872,2.87366,0.0,0.0
354,88.25,41.4121,44.4569,138.219,98.8105,73.4318,0.0109639,0.170148,20.8612,198.822,2.64267,0.0,0.0
357,89,42.1162,44.0804,139.704,98.8149,75.1986,0.0106591,0.169844,20.8624,198.771,2.43142,0.0,0.0
360,89.75,41.6099,44.5354,139.226,98.825,75.1727,0.0103351,0.169401,20.8633,198.751,2.43538,0.0,0.0
363,90.5,41.9519,44.5754,139.301,98.8214,76.6842,0.0100535,0.168985,20.8639,198.721,2.25783,0.0,0.0
366,91.25,41.4524,44.7894,142.169,98.821,77.1874,0.00982894,0.16841,20.8656,198.711,2.19956,0.0,0.0
369,92,41.6788,44.7762,135.269,98.817,76.7177,0.00960063,0.167889,20.8669,198.661,2.25355,0.0,0.0
372,92.75,41.9006,44.2303,141.016,98.833,76.6197,0.00939475,0.167464,20.8678,198.641,2.26637,0.0,0.0
375,93.5,41.9239,44.4391,141.996,98.8206,77.7505,0.00917721,0.166736,20.8698,198.601,2.13482,0.0,0.0
378,94.25,41.8653,44.3703,137.857,98.8214,76.8084,0.00892849,0.165736,20.8716,198.601,2.24342,0.0,0.0
381,95,42.0827,44.3394,139.602,98.8278,80.1074,0.00866091,0.164806,20.8741,198.571,1.86962,0.0,0.0
384,95.75,41.49,44.7245,141.089,98.8258,80.3694,0.00837905,0.163355,20.8775,198.541,1.84037,0.0,0.0
387,96.5,41.1985,44.6133,142.745,98.8133,81.5277,0.00808803,0.162067,20.8807,198.541,1.71185,0.0,0.0
390,97.25,41.6917,44.8218,139.155,98.8129,82.0598,0.00774246,0.160732,20.8839,198.511,1.6539,0.0,0.0
393,98,41.7974,44.6201,140.155,98.8278,82.9018,0.00744608,0.159176,20.8866,198.501,1.56436,0.0,0.0
396,98.75,42.04,44.6486,144.252,98.8314,83.1643,0.00715402,0.157516,20.8904,198.481,1.53655,0.0,0.0
399,99.5,41.5011,43.2044,139.393,98.817,84.8411,0.00689678,0.155829,20.8933,198.461,1.35753,0.0,0.0
402,100.25,41.0659,44.91,138.211,98.8186,84.8704,0.00663348,0.154166,20.8964,198.441,1.35461,0.0,0.0
405,101,41.7468,43.961,141.597,98.8162,86.6676,0.00634989,0.152417,20.8994,198.411,1.16783,0.0,0.0
408,101.75,41.3754,44.2317,140.853,98.817,87.0933,0.00605996,0.150614,20.9019,198.421,1.12429,0.0,0.0
411,102.5,41.354,44.4079,146.723,98.8258,88.5496,0.00577317,0.14879,20.9063,198.391,0.97745,0.0,0.0
414,103.25,40.8393,44.0645,139.64,98.8053,88.2032,0.00551085,0.147178,20.9109,198.371,1.0105,0.0,0.0
417,104,41.629,44.3038,144.159,98.8129,90.4809,0.00526653,0.14552,20.915,198.341,0.784221,0.0,0.0
420,104.75,41.0572,44.0641,145.383,98.8286,89.1568,0.00506747,0.143977,20.9184,198.351,0.916872,0.0,0.0
423,105.5,41.2645,44.2058,139.772,98.8214,89.008,0.00495614,0.14246,20.9211,198.331,0.931093,0.0,0.0
426,106.25,41.2963,44.0653,139.528,98.8021,89.5914,0.0048262,0.140923,20.9241,198.331,0.871197,0.0,0.0
429,107,40.9113,43.4683,142.258,98.8121,90.823,0.00472919,0.139247,20.9277,198.331,0.750547,0.0,0.0
432,107.75,40.837,43.5247,143.197,98.8402,90.3863,0.00465594,0.137692,20.9309,198.311,0.795988,0.0,0.0
435,108.5,41.2711,44.0134,141.572,98.8306,90.4817,0.00460146,0.136799,20.9332,198.291,0.785729,0.0,0.0
438,109.25,41.0423,43.65,137.51,98.8246,90.7675,0.00456904,0.135354,20.9344,198.291,0.757115,0.0,0.0
441,110,41.0299,43.7089,141.08,98.8218,90.9833,0.00452573,0.134188,20.935,198.261,0.73572,0.0,0.0
444,110.75,40.9798,43.5758,142.152,98.8041,90.2451,0.00451039,0.133143,20.9355,198.271,0.806649,0.0,0.0
447,111.5,40.7621,43.516,139.749,98.817,89.7321,0.0045092,0.132381,20.936,198.261,0.858558,0.0,0.0
450,112.25,40.8923,43.6044,145.668,98.8141,92.1416,0.00452541,0.131327,20.9377,198.241,0.622412,0.0,0.0
453,113,40.5191,43.4652,143.238,98.8145,91.3004,0.00453723,0.129563,20.9397,198.231,0.704092,0.0,0.0
456,113.75,40.4736,43.2624,140.513,98.8246,91.7668,0.00453253,0.128044,20.9416,198.221,0.659637,0.0,0.0
459,114.5,40.9119,43.1307,143.57,98.8085,93.2049,0.00450633,0.126015,20.9449,198.191,0.519756,0.0,0.0
462,115.25,40.6136,43.4079,145.924,98.8053,93.0659,0.00447963,0.123962,20.9478,198.191,0.532759,0.0,0.0
465,116,40.5431,43.1816,142.424,98.7937,93.4847,0.00445893,0.122222,20.9507,198.191,0.491729,0.0,0.0
468,116.75,40.4592,43.4263,143.442,98.7965,94.2806,0.00444726,0.120034,20.9541,198.171,0.416519,0.0,0.0
471,117.5,40.5877,43.3361,146.015,98.7997,93.4801,0.0044604,0.118101,20.9579,198.161,0.492716,0.0,0.0
474,118.25,40.4051,43.0558,145.567,98.8162,94.284,0.00449277,0.116114,20.9613,198.151,0.417972,0.0,0.0
477,119,40.5176,42.8115,144.726,98.7864,94.8529,0.00452608,0.11383,20.965,198.131,0.361732,0.0,0.0
480,119.75,40.6956,42.9222,147.434,98.7788,95.5173,0.00460806,0.111738,20.9681,198.131,0.298907,0.0,0.0
483,120.5,40.2512,42.7685,143.336,98.7965,95.3291,0.00466783,0.109829,20.9706,198.111,0.318061,0.0,0.0
486,121.25,39.9268,42.6766,147.339,98.7937,94.582,0.00482541,0.108091,20.9731,198.101,0.387846,0.0,0.0
489,122,39.7175,42.5302,145.027,98.7965,95.1841,0.00499494,0.106498,20.9753,198.111,0.331613,0.0,0.0
492,122.75,39.8009,42.3756,143.238,98.7884,95.6157,0.00516528,0.105197,20.9774,198.091,0.290612,0.0,0.0
495,123.5,39.6679,42.2459,144.364,98.8013,95.3668,0.00532954,0.103905,20.9793,198.101,0.314972,0.0,0.0
498,124.25,39.1575,42.1841,144.251,98.7933,95.5313,0.00549005,0.102962,20.9814,198.091,0.298906,0.0,0.0
501,125,40.2779,41.7514,148.909,98.7884,96.4471,0.00564526,0.101789,20.9837,198.101,0.213535,0.0,0.0
504,125.75,39.4656,41.7688,147.92,98.7945,96.1753,0.00579398,0.100778,20.9861,198.081,0.239199,0.0,0.0
507,126.5,39.8632,42.0006,145.211,98.8005,95.8684,0.00594428,0.0999368,20.9878,198.081,0.268201,0.0,0.0
510,127.25,39.7273,41.6805,141.791,98.7989,96.2351,0.00605385,0.0992598,20.989,198.081,0.234065,0.0,0.0
513,128,39.0801,42.2601,140.736,98.7953,96.1495,0.00617928,0.0986044,20.9899,198.081,0.241665,0.0,0.0
516,128.75,39.4372,41.5843,139.271,98.8017,95.5953,0.00627583,0.0979706,20.9906,198.081,0.293701,0.0,0.0
519,129.5,38.9325,42.0239,146.053,98.8089,95.4134,0.00634839,0.0974421,20.9917,198.061,0.311307,0.0,0.0
522,130.25,39.0251,41.4809,144.737,98.825,96.1613,0.00638864,0.0969354,20.9925,198.041,0.243244,0.0,0.0
525,131,38.8042,41.2084,143.398,98.8057,95.7306,0.00641193,0.0965139,20.9931,198.041,0.281476,0.0,0.0
528,131.75,38.6338,41.0018,144.113,98.8057,95.9782,0.00641856,0.0961172,20.9935,198.021,0.25848,0.0,0.0
531,132.5,38.3217,40.9239,145.73,98.8077,95.9358,0.00642339,0.0957705,20.9942,198.011,0.262594,0.0,0.0
534,133.25,38.0606,40.9327,149.383,98.8222,96.0443,0.00641963,0.0954932,20.9949,198.001,0.25383,0.0,0.0
537,134,38.2782,40.342,142.419,98.8109,96.531,0.0064105,0.0953112,20.9953,197.991,0.207816,0.0,0.0
540,134.75,38.373,40.9127,142.876,98.8109,95.7395,0.00640112,0.0951786,20.9957,197.981,0.281118,0.0,0.0
543,135.5,37.5033,39.8429,144.79,98.8077,96.3207,0.00637002,0.0950961,20.9959,197.981,0.226942,0.0,0.0
546,136.25,38.0944,40.1584,146.62,98.8174,96.2224,0.00632828,0.0950345,20.9961,197.981,0.236907,0.0,0.0
549,137,37.4306,40.3728,143.691,98.823,96.0396,0.00628293,0.0949768,20.9962,197.971,0.254334,0.0,0.0
552,137.75,38.0191,39.9373,142.773,98.8137,95.6203,0.00624986,0.0949065,20.9963,197.961,0.292458,0.0,0.0
555,138.5,37.1449,39.6013,144.149,98.8274,95.9803,0.00622374,0.0948431,20.9964,197.961,0.260236,0.0,0.0
558,139.25,37.5375,40.2563,141.898,98.8174,96.6947,0.00620125,0.0947402,20.9971,197.951,0.193315,0.0,0.0
561,140,37.6837,40.155,148.68,98.8178,96.0655,0.00616318,0.0946262,20.9976,197.931,0.251468,0.0,0.0
564,140.75,37.3696,40.2359,142.758,98.8025,96.13,0.00608437,0.0945175,20.998,197.921,0.244123,0.0,0.0
567,141.5,37.6412,39.9771,142.596,98.7969,95.9523,0.00604154,0.0943575,20.9982,197.911,0.260083,0.0,0.0
570,142.25,37.0283,39.1442,141.039,98.8017,96.2881,0.00599207,0.0942125,20.9984,197.911,0.229417,0.0,0.0
573,143,36.9733,39.8647,142.809,98.8121,95.4503,0.00591059,0.0940947,20.9985,197.901,0.308155,0.0,0.0
576,143.75,36.9787,39.5261,146.043,98.8033,95.9489,0.00583974,0.0939601,20.9993,197.901,0.260977,0.0,0.0
579,144.5,37.1299,39.6843,143.461,98.7945,95.9099,0.00577919,0.0939113,20.9998,197.891,0.2638,0.0,0.0
582,145.25,37.0148,39.538,143.167,98.7981,96.3805,0.00572818,0.0936732,21.0002,197.891,0.22055,0.0,0.0
585,146,36.4043,39.4153,144.208,98.8033,96.3585,0.00568918,0.0934698,21.0005,197.871,0.223057,0.0,0.0
588,146.75,36.1676,38.7486,144.051,98.8001,96.4725,0.00567856,0.0932705,21.0007,197.871,0.212237,0.0,0.0
591,147.5,36.7974,39.2304,144.413,98.7896,95.8832,0.00568847,0.0932262,21.0009,197.861,0.265846,0.0,0.0
594,148.25,36.5826,39.1949,141.755,98.8057,95.9587,0.00571287,0.0932222,21.001,197.861,0.26029,0.0,0.0
597,149,36.8225,38.9409,140.433,98.8101,95.675,0.00573268,0.0932463,21.0011,197.861,0.287041,0.0,0.0
600,149.75,36.355,38.6906,142.901,98.8005,97.0084,0.00575055,0.0932894,21.0011,197.841,0.162956,0.0,0.0
603,150.5,36.4904,38.766,141.672,98.8085,95.4681,0.00573453,0.0932602,21.0012,197.831,0.306169,0.0,0.0
606,151.25,36.4165,39.0545,143.302,98.7933,95.742,0.00570376,0.0932314,21.0012,197.821,0.27929,0.0,0.0
609,152,36.1979,38.9795,146.658,98.8033,95.3897,0.00567319,0.0931977,21.0012,197.801,0.313015,0.0,0.0
612,152.75,36.411,38.7614,144.573,98.7921,96.3135,0.00563458,0.0931126,21.0012,197.811,0.226198,0.0,0.0
615,153.5,36.4414,38.9408,143.339,98.7957,96.1558,0.00559244,0.0930579,21.0012,197.821,0.241113,0.0,0.0
618,154.25,36.1791,38.612,138.337,98.8033,96.1181,0.00555576,0.0930309,21.0013,197.831,0.245295,0.0,0.0
621,155,36.2543,38.8241,143.116,98.8037,96.2881,0.00552299,0.0930313,21.0013,197.841,0.229598,0.0,0.0
624,155.75,36.3518,38.3952,147.591,98.7933,95.8768,0.00548881,0.0930093,21.0014,197.851,0.266763,0.0,0.0
627,156.5,36.41,38.5114,143.974,98.784,95.9968,0.00547059,0.092955,21.0017,197.811,0.254795,0.0,0.0
630,157.25,36.2973,38.5405,143.325,98.7804,96.5722,0.00546874,0.0929558,21.002,197.791,0.201274,0.0,0.0
633,158,36.4319,38.7211,147.938,98.7816,96.2453,0.00548009,0.0929564,21.0021,197.771,0.231568,0.0,0.0
636,158.75,35.8317,38.0192,140.525,98.7752,96.0697,0.00548292,0.0929941,21.0023,197.751,0.24724,0.0,0.0
639,159.5,36.2986,38.5925,147.097,98.786,96.1054,0.00546592,0.0930853,21.0024,197.73,0.244917,0.0,0.0
642,160.25,36.0315,38.5316,145.922,98.7744,96.6726,0.00544539,0.0931518,21.0024,197.74,0.191473,0.0,0.0
645,161,35.7667,38.5239,147.242,98.7768,95.8115,0.00537607,0.0932077,21.0025,197.751,0.271344,0.0,0.0
648,161.75,35.6737,38.2522,148.107,98.7716,96.0956,0.00529761,0.0932538,21.0025,197.73,0.244518,0.0,0.0
651,162.5,35.7719,38.222,142.767,98.7575,96.0138,0.00522851,0.0932746,21.0025,197.73,0.250834,0.0,0.0
654,163.25,35.9087,37.6962,144.02,98.7583,95.2086,0.00516418,0.0932292,21.0026,197.73,0.325874,0.0,0.0
657,164,35.567,37.9205,144.102,98.7631,96.021,0.00511534,0.0931812,21.0026,197.74,0.250673,0.0,0.0
660,164.75,35.6958,37.8507,144.434,98.7587,95.5788,0.00508658,0.0931207,21.0026,197.73,0.291369,0.0,0.0
663,165.5,35.7104,38.3262,142.799,98.7519,96.1571,0.00508085,0.0930625,21.0026,197.71,0.237051,0.0,0.0
666,166.25,35.8758,37.9482,148.618,98.7491,96.1079,0.0050885,0.093014,21.0026,197.69,0.241351,0.0,0.0
669,167,35.2989,38.0275,145.433,98.7555,96.2228,0.00510322,0.0929786,21.0026,197.71,0.231294,0.0,0.0
672,167.75,35.596,37.4033,145.516,98.7531,96.4755,0.00511757,0.0929976,21.0026,197.68,0.207729,0.0,0.0
675,168.5,35.3085,37.3328,141.128,98.7519,95.6513,0.00512931,0.0930878,21.0026,197.67,0.284003,0.0,0.0
678,169.25,34.8819,37.3115,146.627,98.7447,95.7742,0.0051384,0.0932344,21.0026,197.67,0.271915,0.0,0.0
681,170,35.2025,37.5391,140.539,98.7511,96.1151,0.00515392,0.0933271,21.0026,197.66,0.240865,0.0,0.0
684,170.75,34.9567,37.5011,136.718,98.7539,95.8175,0.00517169,0.0933812,21.0026,197.65,0.268728,0.0,0.0
687,171.5,35.0588,37.2149,145.863,98.7483,95.8204,0.00518922,0.0934079,21.0026,197.65,0.267946,0.0,0.0
690,172.25,35.0229,37.1202,140.521,98.733,96.1168,0.00518751,0.0934274,21.0026,197.64,0.239078,0.0,0.0
693,173,35.6605,37.3917,139.177,98.7451,95.8722,0.00518626,0.0934416,21.0026,197.64,0.262852,0.0,0.0
696,173.75,35.1043,37.2589,142.818,98.7403,96.0057,0.00513467,0.0933913,21.0026,197.62,0.250024,0.0,0.0
699,174.5,34.9259,36.5754,145.405,98.7451,95.8255,0.00506029,0.0933472,21.0026,197.61,0.267183,0.0,0.0
702,175.25,35.1191,37.3006,143.213,98.7459,95.9091,0.00497639,0.0933023,21.0026,197.6,0.2595,0.0,0.0
705,176,35.1683,37.2002,146.664,98.7334,96.3674,0.00489128,0.09331,21.0026,197.57,0.215936,0.0,0.0
708,176.75,35.1456,37.2688,144.649,98.7399,95.7344,0.00482323,0.0933082,21.0026,197.59,0.275186,0.0,0.0
711,177.5,34.8671,37.0729,145.751,98.727,95.753,0.00476337,0.0932941,21.0026,197.58,0.272293,0.0,0.0
714,178.25,35.0344,37.0235,144.429,98.7113,95.5614,0.00472573,0.0932636,21.0026,197.57,0.288715,0.0,0.0
717,179,35.2247,37.1044,144.679,98.7322,96.205,0.00470855,0.0932637,21.0024,197.57,0.230841,0.0,0.0
720,179.75,34.9401,37.2816,142.118,98.7013,96.1579,0.00470145,0.0933021,21.0023,197.56,0.232409,0.0,0.0
723,180.5,35.41,36.9386,142.69,98.6981,95.8272,0.0046912,0.09333,21.0022,197.56,0.26279,0.0,0.0
726,181.25,34.7649,37.1621,145.147,98.6929,96.4462,0.00468157,0.0932696,21.0021,197.55,0.204997,0.0,0.0
729,182,35.0997,36.3733,147.041,98.6893,95.7174,0.00464205,0.0931808,21.0027,197.54,0.272199,0.0,0.0
732,182.75,34.9029,36.9101,142.488,98.6925,95.8709,0.0045816,0.0930397,21.0031,197.54,0.258226,0.0,0.0
735,183.5,34.7652,36.9817,144.653,98.6977,95.7437,0.00452406,0.0929166,21.0035,197.53,0.270516,0.0,0.0
738,184.25,34.8001,36.5595,147.835,98.6901,95.9205,0.00443661,0.0928552,21.0037,197.51,0.253404,0.0,0.0
741,185,34.4514,37.5135,142.551,98.6925,96.2584,0.00435545,0.092815,21.0038,197.52,0.222314,0.0,0.0
744,185.75,34.5584,37.0844,143.334,98.6856,96.2037,0.0042997,0.092773,21.004,197.51,0.226758,0.0,0.0
747,186.5,35.4055,36.3754,143.23,98.6877,96.1779,0.00430232,0.0926716,21.0041,197.49,0.229333,0.0,0.0
750,187.25,34.9493,36.2888,146.118,98.6808,96.2504,0.00434597,0.0925675,21.0041,197.5,0.222008,0.0,0.0
753,188,34.5374,36.2301,144.567,98.6824,95.8887,0.00441158,0.0924512,21.0042,197.48,0.255668,0.0,0.0
756,188.75,34.5728,36.3476,144.533,98.67,96.2381,0.00448676,0.0922957,21.0042,197.47,0.222168,0.0,0.0
759,189.5,34.7594,36.5084,144.043,98.6712,96.3797,0.00456687,0.0921521,21.0042,197.46,0.209188,0.0,0.0
762,190.25,34.8209,36.6401,142.753,98.6692,96.2249,0.00462526,0.0920475,21.0042,197.46,0.223312,0.0,0.0
765,191,34.7552,36.8672,144.175,98.6555,96.2228,0.00466964,0.0919995,21.0043,197.45,0.222276,0.0,0.0
768,191.75,34.5624,36.3625,143.402,98.6475,95.5834,0.00467665,0.0919617,21.0043,197.44,0.280901,0.0,0.0
771,192.5,34.4945,36.6054,143.736,98.6567,96.3131,0.00467097,0.0919087,21.0043,197.43,0.214033,0.0,0.0
774,193.25,34.5912,36.4017,148.311,98.6519,95.7963,0.00460003,0.0918275,21.0043,197.43,0.261499,0.0,0.0
777,194,34.8196,36.1727,145,98.6363,95.7475,0.00452176,0.0917503,21.0043,197.42,0.264617,0.0,0.0
780,194.75,34.1761,36.5087,141.732,98.6479,95.388,0.00445338,0.0916335,21.0043,197.41,0.29916,0.0,0.0
783,195.5,34.7066,36.3078,147.797,98.6387,95.7781,0.00438551,0.0915632,21.0043,197.42,0.261997,0.0,0.0
786,196.25,34.3029,36.9818,142.264,98.6298,95.971,0.00433856,0.0915374,21.0043,197.39,0.243288,0.0,0.0
789,197,34.2576,36.3585,140.993,98.6198,95.5839,0.00430541,0.091559,21.0043,197.4,0.278362,0.0,0.0
792,197.75,34.9002,36.5459,146.187,98.6134,96.2287,0.00428377,0.0915747,21.0043,197.39,0.217921,0.0,0.0
795,198.5,34.2591,36.7528,142.874,98.6214,96.5883,0.00427346,0.0915862,21.0043,197.39,0.185447,0.0,0.0
798,199.25,34.0994,36.5188,143.431,98.6142,96.2164,0.00424354,0.0915542,21.0047,197.38,0.219131,0.0,0.0
801,200,34.1255,36.1804,144.8,98.6013,96.5802,0.00420151,0.091545,21.0053,197.4,0.184376,0.0,0.0
804,200.75,34.6423,36.142,144.477,98.6005,95.6899,0.00416226,0.0915444,21.0052,197.38,0.266754,0.0,0.0
807,201.5,34.7196,35.8785,143.538,98.619,95.781,0.00410209,0.091544,21.0048,197.37,0.259945,0.0,0.0
810,202.25,34.2454,36.5241,144.566,98.5937,95.6933,0.00404478,0.0915436,21.0043,197.36,0.265823,0.0,0.0
813,203,34.3906,36.185,146.778,98.6017,95.6407,0.00398501,0.0915434,21.0039,197.36,0.27144,0.0,0.0
816,203.75,34.263,36.0516,142.169,98.5796,96.1957,0.00393008,0.0914836,21.0037,197.35,0.217935,0.0,0.0
819,204.5,34.5194,36.209,138.898,98.5792,95.9934,0.00389862,0.0913381,21.0035,197.36,0.236635,0.0,0.0
822,205.25,34.1434,36.3207,144.383,98.582,96.0634,0.00385298,0.0912523,21.0034,197.34,0.230402,0.0,0.0
825,206,34.0224,37.0111,143.116,98.574,95.0263,0.00380382,0.0911822,21.0039,197.34,0.326307,0.0,0.0
828,206.75,33.8477,35.921,143.68,98.5616,95.9413,0.00377698,0.0911185,21.0043,197.33,0.239876,0.0,0.0
831,207.5,34.0334,36.332,142.612,98.5583,95.3057,0.00376371,0.091004,21.0046,197.31,0.298756,0.0,0.0
834,208.25,33.4251,35.9483,145.296,98.5495,96.6184,0.00375673,0.0907666,21.0048,197.32,0.176181,0.0,0.0
837,209,34.2766,36.1534,141.788,98.5575,95.5589,0.00375163,0.0905936,21.0049,197.31,0.275071,0.0,0.0
840,209.75,34.1439,36.2466,146.351,98.5302,96.8885,0.00375152,0.0904674,21.005,197.3,0.14959,0.0,0.0
843,210.5,34.3184,36.4401,146.875,98.5371,96.1893,0.00375873,0.0904561,21.0051,197.28,0.214679,0.0,0.0
846,211.25,34.27,36.3709,144.342,98.5407,95.6297,0.00377648,0.0904479,21.0045,197.28,0.266954,0.0,0.0
849,212,34.6746,36.4119,144.264,98.5294,95.5911,0.00381465,0.0904493,21.0043,197.28,0.26953,0.0,0.0
852,212.75,34.2551,36.0991,140.769,98.5218,96.0854,0.00385323,0.0904631,21.0046,197.28,0.222919,0.0,0.0
855,213.5,34.2402,36.3099,140.423,98.5202,95.8917,0.00388431,0.0904328,21.0047,197.28,0.240744,0.0,0.0
858,214.25,34.1113,36.1857,148.287,98.5086,95.3617,0.00392653,0.0904033,21.0049,197.29,0.289031,0.0,0.0
861,215,33.9281,36.4332,144.541,98.507,96.1011,0.00396,0.0903691,21.005,197.26,0.220123,0.0,0.0
864,215.75,34.4576,35.9232,142.206,98.4913,95.4359,0.00397719,0.0903642,21.0051,197.26,0.280546,0.0,0.0
867,216.5,34.3867,36.0228,142.786,98.5017,95.798,0.00396827,0.0903618,21.0052,197.25,0.247778,0.0,0.0
870,217.25,34.3144,36.1104,144.059,98.5021,96.5069,0.00393802,0.0903186,21.0052,197.26,0.182179,0.0,0.0
873,218,34.0674,36.3271,144.143,98.4748,96.4988,0.00389099,0.0902589,21.0052,197.22,0.180454,0.0,0.0
876,218.75,33.7216,36.2047,145.488,98.4644,95.9676,0.00383283,0.0901809,21.0053,197.23,0.228656,0.0,0.0
879,219.5,34.1877,36.0991,146.092,98.4772,95.8989,0.0037496,0.0900859,21.0059,197.24,0.236192,0.0,0.0
882,220.25,34.1178,35.8814,144.823,98.4648,96.5908,0.003662,0.0899742,21.0064,197.22,0.171063,0.0,0.0
885,221,33.6284,36.545,145.002,98.4704,95.5716,0.00359184,0.0898748,21.0067,197.21,0.266012,0.0,0.0
888,221.75,33.8828,36.1206,141.024,98.4435,95.9345,0.00353536,0.0896812,21.007,197.22,0.229836,0.0,0.0
891,222.5,34.0477,36.1791,144.042,98.423,96.1673,0.00348966,0.089526,21.0072,197.2,0.20641,0.0,0.0
894,223.25,33.7912,36.1621,142.931,98.4363,95.2557,0.00343998,0.0894069,21.0073,197.2,0.292396,0.0,0.0
897,224,34.0339,35.8634,146.609,98.4351,95.9566,0.0033968,0.0892595,21.0074,197.19,0.227027,0.0,0.0
900,224.75,33.8571,36.1711,144.826,98.4214,95.8158,0.00335076,0.0891238,21.0075,197.18,0.238862,0.0,0.0
903,225.5,34.4902,35.7047,142.822,98.4094,96.4551,0.0032923,0.0890129,21.009,197.16,0.178565,0.0,0.0
906,226.25,33.7595,35.7986,142.87,98.3921,96.0638,0.00324506,0.088932,21.0101,197.16,0.213195,0.0,0.0
909,227,33.4488,36.1641,144.449,98.4045,95.5033,0.0032027,0.088873,21.0109,197.16,0.266416,0.0,0.0
912,227.75,34.0726,36.1903,141.738,98.3869,95.6492,0.00319153,0.08883,21.0115,197.15,0.251233,0.0,0.0
915,228.5,33.9151,36.1632,149.109,98.3817,96.3169,0.00319642,0.0887912,21.0118,197.15,0.188824,0.0,0.0
918,229.25,34.135,36.4648,142.432,98.374,95.8043,0.00321565,0.0887503,21.0121,197.14,0.235639,0.0,0.0
921,230,33.9218,35.4673,142.656,98.3684,95.636,0.00324762,0.0886757,21.0124,197.15,0.250785,0.0,0.0
924,230.75,34.1217,36.0092,144.402,98.3568,95.3138,0.00327218,0.0885451,21.0125,197.15,0.279776,0.0,0.0
927,231.5,33.923,35.9797,145.826,98.3383,95.7501,0.00328466,0.0884925,21.0127,197.13,0.237447,0.0,0.0
930,232.25,33.3961,35.3305,145.782,98.3383,95.9209,0.00328357,0.0884317,21.0128,197.13,0.221575,0.0,0.0
933,233,33.5112,35.8258,144.257,98.3395,96.205,0.00326391,0.0883725,21.0128,197.12,0.195359,0.0,0.0
936,233.75,33.7797,35.7037,148.998,98.3226,95.7047,0.00324823,0.0883039,21.0129,197.12,0.240249,0.0,0.0
939,234.5,33.7958,35.7601,143.074,98.3094,96.3068,0.00319963,0.0882338,21.0129,197.12,0.183222,0.0,0.0
942,235.25,33.7281,35.5865,141.719,98.2957,95.9642,0.00315164,0.0881603,21.013,197.11,0.213708,0.0,0.0
945,236,33.3006,35.5953,143.91,98.3058,95.7348,0.00309518,0.0880686,21.013,197.09,0.235922,0.0,0.0
948,236.75,33.618,35.2695,145.195,98.2977,95.4088,0.00302179,0.0879511,21.0134,197.08,0.265565,0.0,0.0
951,237.5,34.0918,35.5818,149.813,98.2801,95.5987,0.002957,0.0878154,21.014,197.07,0.246259,0.0,0.0
954,238.25,34.0304,35.7267,148.113,98.2736,95.9387,0.00290495,0.087797,21.0144,197.07,0.214068,0.0,0.0
957,239,33.9753,36.0424,145.964,98.2744,95.9599,0.00286343,0.087826,21.0146,197.06,0.212175,0.0,0.0
960,239.75,33.8376,35.9963,142.009,98.2849,95.3469,0.00283316,0.0878652,21.0148,197.06,0.27018,0.0,0.0
963,240.5,33.6222,34.9912,144.401,98.2608,95.7348,,0.087914,,197.04,0.231848,0.0,0.0
966,241.25,34.1358,36.0457,144.511,98.264,95.7683,,0.0879636,,197.05,0.229025,0.0,0.0
969,242,33.8289,36.267,143.399,98.2439,94.78,,0.0880058,,197.06,0.319553,0.0,0.0
972,242.75,33.9534,35.6035,141.716,98.2455,95.6572,,0.0879359,,197.04,0.237683,0.0,0.0
975,243.5,33.5786,35.6869,145.949,98.2407,94.9148,,,,197.04,0.306607,0.0,0.0
978,244.25,33.0429,35.0527,144.885,98.2251,95.7611,,,,197.01,0.226166,0.0,0.0
981,245,33.8117,34.8983,145.189,98.2242,95.2599,,,,197.02,0.272804,0.0,0.0
984,245.75,34.3763,35.404,138.931,98.223,95.3062,,,,197.01,0.268377,0.0,0.0
987,246.5,33.7745,35.851,142.935,98.2206,95.731,,,,196.99,0.228565,0.0,0.0
990,247.25,33.9822,35.5382,143.604,98.2082,96.3415,,,,196.99,0.17084,0.0,0.0
993,248,33.8832,35.4198,144.402,98.2026,95.7022,,,,197,0.229607,0.0,0.0
996,248.75,33.6672,35.4464,147,98.2098,95.7009,,,,197,0.230382,0.0,0.0
999,249.5,33.6924,35.9289,143.905,98.1877,96.0833,,,,196.99,0.192875,0.0,0.0
1002,250.25,33.9725,35.8245,143.746,98.1865,96.0982,,,,197,0.191391,0.0,0.0
1004,250.75,33.76,35.6423,145.291,98.1897,96.3254,,,,196.99,0.170654,0.0,0.0