File: 01_Data/Vinyl_Siding/Cone/Vinyl_Siding_Cone_HF50Scan_220331_R1.csv
Names,Time,Stack TC,Smoke TC,Exh Press,Smoke Comp,Smoke Meas,CO Meter,CO2 Meter,O2 Meter,Sample Mass,Ext Coeff,Start Test,Flame Verif
Chan Gain,,500,500,1,1,1,1,1,1,1,1,1.0,1.0
Offset,,0,0,0.133521,0,0,0,0,0,0,0,0.0,0.0
Gain,,1,1,25.011,13.1585,13.8929,1,1,1,1.00096,1.01488,1.0,1.0
Units,sec,C,C,Pa,%,%,%,%,%,g,/m,,
Baseline,,23.8757,25.3902,149.713,99.0403,97.571,0.000587428,0.0626607,21.0429,-834.376,0.133093,,
3,0.5,23.8729,25.3254,148.241,99.537,98.3652,0.000730563,0.0682078,21.0342,194.467,0.105425,0.0,0.0
6,1.25,23.7386,24.8998,148.225,99.551,97.9866,0.000717086,0.0677622,21.0346,194.337,0.141015,0.0,0.0
9,2,23.0236,24.543,147.175,99.5936,97.758,0.000707791,0.0673617,21.0354,194.297,0.165607,0.0,0.0
12,2.75,23.1246,24.2556,148.905,99.6068,98.2151,0.000722267,0.0669577,21.0361,194.377,0.125267,0.0,0.0
15,3.5,23.1341,24.4362,151.484,99.6241,98.3741,0.000740665,0.0666155,21.0365,194.207,0.11241,0.0,0.0
18,4.25,23.1725,24.4062,151.199,99.6418,98.2295,0.000767493,0.0661864,21.0369,194.277,0.127082,0.0,0.0
21,5,23.1582,24.8016,146.187,99.6811,98.1841,0.000808318,0.0658456,21.0371,194.277,0.134709,0.0,0.0
24,5.75,23.7407,25.0631,151.448,99.6896,97.9141,0.000849268,0.0655852,21.0375,194.247,0.159985,0.0,0.0
27,6.5,23.7883,24.7179,153.814,99.698,98.3262,0.00088389,0.0652974,21.0382,194.307,0.123347,0.0,0.0
30,7.25,23.6361,24.5432,153.369,99.7084,98.0052,0.000907356,0.0650017,21.0387,194.277,0.153385,0.0,0.0
33,8,23.5412,24.7352,149.425,99.7494,98.0048,0.000912034,0.0647106,21.0393,194.297,0.15708,0.0,0.0
36,8.75,23.0557,24.8531,147.243,99.7578,98.2986,0.000899525,0.0643787,21.0399,194.297,0.131183,0.0,0.0
39,9.5,23.9465,24.9138,147.306,99.7659,98.1104,0.000851543,0.0640808,21.0406,194.247,0.148966,0.0,0.0
42,10.25,23.473,24.7896,147.119,99.7903,97.2298,0.000770009,0.0638397,21.0411,194.257,0.231417,0.0,0.0
45,11,24.0493,25.3306,147.811,99.804,98.517,0.000696818,0.063684,21.0415,194.247,0.115551,0.0,0.0
48,11.75,23.618,25.1718,151.929,99.8301,97.4244,0.000606327,0.063597,21.0417,194.227,0.217162,0.0,0.0
51,12.5,23.7336,24.3019,147.674,99.8361,97.1403,0.000540358,0.0634871,21.0419,194.237,0.243695,0.0,0.0
54,13.25,23.5836,24.9123,149.699,99.8313,97.3811,0.000481663,0.0633471,21.0424,194.237,0.221222,0.0,0.0
57,14,23.9521,24.9904,154.575,99.8502,97.3078,0.000438873,0.0632591,21.0426,194.237,0.229613,0.0,0.0
60,14.75,23.458,24.8035,150.734,99.8771,96.2317,0.000449833,0.0632009,21.0424,194.227,0.331005,0.0,0.0
63,15.5,24.1822,25.2882,150.251,99.8851,94.5939,0.000475794,0.0633262,21.0422,194.187,0.484543,0.0,0.0
66,16.25,23.7192,25.1082,146.211,99.8819,92.3549,0.000567314,0.0634892,21.0419,194.157,0.697512,0.0,0.0
69,17,24.1696,24.9222,150.252,99.8948,91.3517,0.000698683,0.0640278,21.0412,194.087,0.795883,0.0,0.0
72,17.75,24.2427,25.3441,148.39,99.8956,88.2045,0.000860037,0.0645994,21.0407,194.017,1.10806,0.0,0.0
75,18.5,24.3069,25.6121,147.567,99.8819,86.8991,0.00104268,0.0655954,21.0399,193.917,1.23959,0.0,0.0
78,19.25,23.9171,25.626,147.862,99.8887,85.8981,0.00126304,0.0666719,21.0391,193.847,1.34334,0.0,0.0
81,20,23.8891,25.6176,146.651,99.8747,84.089,0.00147367,0.067798,21.0386,193.717,1.53159,0.0,0.0
84,20.75,24.213,25.2949,154.348,99.8791,80.2163,0.00164853,0.0689472,21.0379,193.536,1.95172,0.0,0.0
87,21.5,24.3024,25.4552,147.537,99.8835,80.6814,0.00180978,0.0703857,21.0371,193.406,1.90064,0.0,0.0
90,22.25,24.2199,25.6414,146.569,99.8542,78.5811,0.00194305,0.0718138,21.0364,193.326,2.13286,0.0,0.0
93,23,24.1522,25.284,148.597,99.8466,78.3118,0.00204245,0.0730165,21.036,193.236,2.16273,0.0,0.0
96,23.75,24.6455,25.7178,148.808,99.8293,77.8022,0.00210991,0.0743294,21.0356,193.116,2.21932,0.0,0.0
99,24.5,24.404,26.2751,142.488,99.8217,75.6721,0.00215696,0.0754723,21.0354,192.976,2.46577,0.0,0.0
102,25.25,24.8754,25.7483,145.812,99.7964,74.3052,0.00218233,0.0768074,21.0352,192.856,2.62579,0.0,0.0
105,26,24.2796,26.2458,148.023,99.7638,74.9442,0.00221209,0.0779778,21.0344,192.716,2.54666,0.0,0.0
108,26.75,24.2824,25.6661,149.604,99.7566,70.8231,0.00226363,0.0789152,21.0339,192.596,3.04953,0.0,0.0
111,27.5,24.8445,25.9483,150.005,99.7273,73.9902,0.00234404,0.0798239,21.0335,192.465,2.65745,0.0,0.0
114,28.25,24.4395,26.1278,151.92,99.6948,70.4937,0.00249655,0.0808424,21.0325,192.335,3.08551,0.0,0.0
117,29,24.8296,26.0843,151.21,99.6667,71.7075,0.00276827,0.082029,21.0309,192.205,2.93101,0.0,0.0
120,29.75,24.6675,26.0793,148.092,99.6418,70.7582,0.00333578,0.084244,21.0281,192.085,3.04743,0.0,0.0
123,30.5,25.0975,26.2825,147.98,99.6116,72.0208,0.00396817,0.0871052,21.0216,191.955,2.88728,0.0,0.0
126,31.25,24.8689,26.4495,147.187,99.5647,68.8554,0.00480311,0.0913224,21.0102,191.845,3.28322,0.0,0.0
129,32,24.517,26.1313,143.493,99.5273,78.0295,0.00632187,0.0990891,20.9939,191.745,2.16638,0.0,0.0
132,32.75,25.0466,26.8742,133.451,99.4815,81.872,0.00845572,0.109467,20.9731,191.615,1.73434,0.0,0.0
135,33.5,25.2932,26.3785,143.304,99.4446,77.2167,0.0107978,0.121677,20.944,191.454,2.25219,0.0,0.0
138,34.25,25.3187,27.3087,140.915,99.392,75.4254,0.0128405,0.136971,20.9228,192.646,2.45644,0.0,0.0
141,35,25.66,27.0721,137.655,99.3498,62.6755,0.0143297,0.152364,20.9021,195.709,4.10116,0.0,0.0
144,35.75,25.7573,27.6409,136.228,99.2896,58.4823,0.0163488,0.167498,20.8782,197.4,4.71222,0.0,1.0
147,36.5,26.0808,27.7454,138.775,99.2434,53.4548,0.0194172,0.182128,20.8522,191.014,5.50831,0.0,1.0
150,37.25,26.5761,27.5214,139.859,99.1836,50.1745,0.0225491,0.195556,20.8252,190.894,6.06673,0.0,1.0
153,38,26.8053,27.7203,139.81,99.1262,45.1614,0.025356,0.210072,20.7957,190.744,6.99869,0.0,1.0
156,38.75,27.148,28.5822,131.66,99.0792,41.6826,0.0278116,0.220654,20.7634,190.604,7.70808,0.0,1.0
159,39.5,27.2112,28.7835,134.214,99.0956,45.6282,0.0299199,0.235669,20.7297,190.423,6.90441,0.0,1.0
162,40.25,28.0631,28.4891,134.439,99.1009,44.1404,0.0317647,0.251134,20.7015,190.273,7.19998,0.0,1.0
165,41,27.7357,29.2858,134.375,99.0884,41.3333,0.0331724,0.264812,20.6794,190.133,7.78383,0.0,1.0
168,41.75,28.3017,29.6346,137.425,99.1025,43.4828,0.0342254,0.277847,20.6595,189.993,7.33375,0.0,1.0
171,42.5,28.9513,30.3195,132.545,99.1089,46.4863,0.0349594,0.288294,20.6439,189.843,6.73972,0.0,1.0
174,43.25,29.4225,31.0873,136.707,99.1346,47.4602,0.0354563,0.297522,20.6304,189.703,6.55745,0.0,0.0
177,44,30.1551,31.8531,129.283,99.1274,50.8105,0.0357778,0.306217,20.62,189.543,5.94955,0.0,0.0
180,44.75,29.9764,31.5383,131.503,99.1454,49.9358,0.0359362,0.313028,20.6124,189.402,6.10576,0.0,0.0
183,45.5,30.3627,31.8985,134.278,99.1523,48.9276,0.035971,0.3188,20.6068,189.282,6.28796,0.0,0.0
186,46.25,30.5095,32.402,137.652,99.1599,47.9999,0.0359138,0.322403,20.6028,189.142,6.45905,0.0,0.0
189,47,31.0221,32.7864,137.355,99.1711,47.1108,0.0357543,0.324311,20.6016,189.002,6.62651,0.0,0.0
192,47.75,30.8815,32.8738,134.087,99.1655,44.6827,0.0354733,0.324472,20.6034,188.892,7.09709,0.0,0.0
195,48.5,31.507,33.3768,139.216,99.1952,43.3357,0.0352196,0.321776,20.6079,188.782,7.37225,0.0,0.0
198,49.25,31.9884,34.07,138.872,99.2045,46.9531,0.0348036,0.319235,20.6119,188.652,6.65935,0.0,0.0
201,50,32.4644,34.355,131.319,99.2121,47.1371,0.0342875,0.316399,20.6161,188.542,6.62522,0.0,0.0
204,50.75,32.7442,34.8214,135.95,99.2221,47.7383,0.0337159,0.313759,20.6203,188.432,6.51329,0.0,0.0
207,51.5,32.9204,35.072,139.192,99.233,52.6518,0.0329363,0.311067,20.6248,188.281,5.64212,0.0,0.0
210,52.25,32.9935,35.133,134.304,99.2555,53.4213,0.0321248,0.308776,20.6312,188.201,5.51497,0.0,0.0
213,53,33.2998,35.5807,139.495,99.2659,57.9774,0.031283,0.304629,20.6403,188.101,4.7873,0.0,0.0
216,53.75,33.6545,35.7702,137.846,99.2671,57.631,0.0304186,0.300555,20.6526,188.011,4.84075,0.0,0.0
219,54.5,33.7418,35.8797,135.454,99.2747,61.9691,0.0293699,0.295789,20.6652,187.911,4.19533,0.0,0.0
222,55.25,33.902,36.0396,137.113,99.2928,57.8404,0.0286053,0.289623,20.6759,187.811,4.81076,0.0,0.0
225,56,34.0624,36.2505,143.97,99.3089,60.2452,0.0275981,0.283376,20.6873,187.721,4.44956,0.0,0.0
228,56.75,34.1437,36.6707,135.184,99.3036,59.3464,0.0264992,0.27738,20.6971,187.631,4.58291,0.0,0.0
231,57.5,34.5233,36.891,140.799,99.3101,63.1949,0.0254024,0.27182,20.7052,187.551,4.02413,0.0,0.0
234,58.25,34.958,37.3592,136.998,99.347,66.6651,0.0246029,0.266712,20.7127,187.461,3.55153,0.0,0.0
237,59,35.4088,37.7927,139.988,99.337,70.4004,0.0235355,0.26254,20.7202,187.381,3.06529,0.0,0.0
240,59.75,35.0995,37.4482,137.086,99.3342,72.0179,0.0225886,0.258325,20.727,187.3,2.86282,0.0,0.0
243,60.5,35.1836,37.5545,131.758,99.3591,72.1709,0.0217605,0.254753,20.7344,187.23,2.84615,0.0,0.0
246,61.25,35.5417,37.4314,136.492,99.3603,74.5287,0.0210446,0.250796,20.743,187.19,2.56007,0.0,0.0
249,62,35.7307,38.063,142.138,99.3667,74.3218,0.0203682,0.246747,20.7515,187.09,2.5854,0.0,0.0
252,62.75,35.5952,37.7232,142.603,99.3607,74.8971,0.0198751,0.242789,20.7587,187.01,2.51621,0.0,0.0
255,63.5,35.4919,37.9978,139.452,99.3627,76.3658,0.0193002,0.238489,20.7657,186.94,2.34351,0.0,0.0
258,64.25,35.6671,38.5306,143.286,99.3695,71.5994,0.0187949,0.234488,20.7722,186.92,2.91786,0.0,0.0
261,65,36.2321,38.7678,140.866,99.3808,74.3565,0.0183899,0.231202,20.7782,186.84,2.58249,0.0,0.0
264,65.75,36.0468,38.4652,139.857,99.3691,73.5217,0.0179931,0.227573,20.7835,186.77,2.68196,0.0,0.0
267,66.5,35.466,38.1248,139.336,99.3727,73.8287,0.0176556,0.224482,20.7877,186.71,2.6452,0.0,0.0
270,67.25,35.8917,38.3997,140.577,99.3679,70.249,0.017389,0.221466,20.792,186.67,3.08722,0.0,0.0
273,68,35.9631,38.6544,139.343,99.3828,70.9715,0.0171871,0.218321,20.7956,186.6,2.99747,0.0,0.0
276,68.75,36.0947,38.7082,143.729,99.3868,73.9978,0.0168896,0.215481,20.8004,186.54,2.62608,0.0,0.0
279,69.5,36.6425,39.2458,139.43,99.3567,73.0367,0.0166455,0.212477,20.8051,186.5,2.73977,0.0,0.0
282,70.25,36.1052,38.5538,142.1,99.353,73.6201,0.016346,0.209252,20.8095,186.43,2.66862,0.0,0.0
285,71,36.9509,39.4314,141.549,99.353,73.9711,0.0160375,0.207294,20.8143,186.39,2.62627,0.0,0.0
288,71.75,36.428,38.8693,145.929,99.3406,74.1674,0.0157467,0.204072,20.8197,186.329,2.60156,0.0,0.0
291,72.5,36.4378,38.9119,142.46,99.3241,74.2781,0.0154153,0.201315,20.8246,186.279,2.58681,0.0,0.0
294,73.25,36.6123,39.1098,139.531,99.341,72.2816,0.0151353,0.198607,20.8285,186.229,2.83089,0.0,0.0
297,74,36.0512,38.7669,141.999,99.353,74.2552,0.0148656,0.195549,20.8332,186.169,2.59215,0.0,0.0
300,74.75,36.4,38.988,142.829,99.339,72.5317,0.0145746,0.192945,20.838,186.149,2.79995,0.0,0.0
303,75.5,36.9344,39.3062,140.726,99.3257,73.8914,0.0143318,0.190404,20.8421,186.109,2.63342,0.0,0.0
306,76.25,36.8051,39.7151,137.757,99.331,74.5503,0.0141025,0.187411,20.847,186.079,2.55486,0.0,0.0
309,77,36.8248,39.3953,144.918,99.3193,76.3162,0.0139075,0.184593,20.8505,186.019,2.3454,0.0,0.0
312,77.75,36.634,39.4228,146.743,99.3362,75.9503,0.0137179,0.182267,20.8538,185.989,2.3897,0.0,0.0
315,78.5,36.9581,39.7053,139.133,99.3249,74.3205,0.0135533,0.17975,20.8568,185.939,2.58181,0.0,0.0
318,79.25,36.3924,39.448,140.062,99.298,75.7077,0.0134206,0.177691,20.8603,185.889,2.41475,0.0,0.0
321,80,36.7376,39.606,145.342,99.3,74.6334,0.0133216,0.175805,20.8634,185.819,2.54217,0.0,0.0
324,80.75,36.4036,39.2833,144.604,99.2936,76.6681,0.0132437,0.174135,20.8657,185.789,2.30214,0.0,0.0
327,81.5,36.6238,39.5268,142.493,99.2759,77.3006,0.0131869,0.172415,20.8686,185.739,2.22741,0.0,0.0
330,82.25,36.5651,39.1359,145.576,99.2695,75.8519,0.0130863,0.170574,20.8708,185.699,2.39526,0.0,0.0
333,83,37.3314,39.7202,137.982,99.2555,77.6687,0.0129634,0.168777,20.8725,185.669,2.18329,0.0,0.0
336,83.75,36.9034,39.9889,141.826,99.2414,77.2612,0.0128324,0.167272,20.8743,185.609,2.22885,0.0,0.0
339,84.5,37.0435,39.7653,145.187,99.2257,77.9277,0.0126988,0.165844,20.8761,185.569,2.15098,0.0,0.0
342,85.25,36.1761,39.0429,142.424,99.2169,77.5508,0.0126191,0.164236,20.8776,185.539,2.19335,0.0,0.0
345,86,37.4108,40.0215,139.192,99.2009,77.3672,0.0125158,0.162646,20.8802,185.509,2.21301,0.0,0.0
348,86.75,36.691,39.9469,146.029,99.1812,78.1872,0.012434,0.161348,20.8825,185.469,2.11739,0.0,0.0
351,87.5,36.4133,39.2006,141.626,99.1627,77.9671,0.0123542,0.160165,20.8842,185.429,2.14082,0.0,0.0
354,88.25,36.3218,39.4669,143.515,99.1466,77.6809,0.0122666,0.159297,20.8854,185.399,2.17211,0.0,0.0
357,89,36.9887,40.0531,142.349,99.1278,78.0748,0.0121292,0.158295,20.8868,185.379,2.12539,0.0,0.0
360,89.75,36.4471,39.4132,138.897,99.1173,79.0517,0.0119607,0.157106,20.8885,185.339,2.01376,0.0,0.0
363,90.5,36.566,39.3649,144.837,99.0968,78.3453,0.0117742,0.155918,20.8899,185.299,2.09183,0.0,0.0
366,91.25,37.2093,39.9902,139.209,99.0559,79.9946,0.0115874,0.154915,20.8913,185.278,1.90268,0.0,0.0
369,92,36.8406,39.6745,141.739,99.0438,79.5694,0.0113642,0.153665,20.8931,185.228,1.94905,0.0,0.0
372,92.75,36.6825,39.0474,144.686,99.0258,79.5074,0.0111105,0.152433,20.8953,185.208,1.95436,0.0,0.0
375,93.5,36.3357,39.0948,144.72,98.9924,81.2492,0.0108618,0.151398,20.8976,185.178,1.75844,0.0,0.0
378,94.25,36.1738,39.1987,143.4,98.9623,82.0759,0.0106259,0.150084,20.8996,185.148,1.6656,0.0,0.0
381,95,36.9812,39.6732,147.452,98.9358,82.0806,0.0104072,0.148806,20.9018,185.088,1.66272,0.0,0.0
384,95.75,36.5312,39.5743,148.764,98.9177,82.5872,0.0101996,0.147738,20.9037,185.088,1.60631,0.0,0.0
387,96.5,36.5586,39.5048,140.905,98.8929,81.1059,0.0100279,0.146649,20.9056,185.048,1.7652,0.0,0.0
390,97.25,36.6121,39.7549,144.664,98.8567,84.2089,0.00986761,0.145648,20.9074,185.058,1.42769,0.0,0.0
393,98,36.1075,39.1369,139.063,98.8342,83.0667,0.00970545,0.144817,20.9087,185.008,1.54724,0.0,0.0
396,98.75,36.5686,39.187,142.971,98.8117,83.2435,0.00956792,0.144144,20.9096,184.978,1.52629,0.0,0.0
399,99.5,36.3043,39.2079,142.256,98.7744,83.0023,0.0094252,0.143615,20.9108,184.938,1.54876,0.0,0.0
402,100.25,36.5881,39.1752,143.633,98.7386,83.8901,0.00928366,0.143168,20.9118,184.928,1.45082,0.0,0.0
405,101,35.1056,38.3334,143.046,98.7093,83.6692,0.0091645,0.142738,20.9125,184.908,1.47165,0.0,0.0
408,101.75,35.7039,38.5128,143.544,98.6885,83.5335,0.0090113,0.14228,20.9131,184.888,1.48422,0.0,0.0
411,102.5,36.3632,39.1088,142.403,98.664,83.3326,0.00884158,0.141884,20.9137,184.848,1.50345,0.0,0.0
414,103.25,35.6173,38.8865,141.606,98.6346,83.7663,0.00866125,0.141367,20.9145,184.828,1.45459,0.0,0.0
417,104,35.8294,38.4346,144.1,98.6154,85.9765,0.0084753,0.140904,20.9152,184.818,1.221,0.0,0.0
420,104.75,35.866,38.8082,142.979,98.5708,84.2874,0.00833974,0.140507,20.9163,184.778,1.39362,0.0,0.0
423,105.5,35.4831,38.4371,149.786,98.5431,83.7858,0.0081227,0.140178,20.9173,184.758,1.44425,0.0,0.0
426,106.25,36.3638,39.4389,143.265,98.5182,86.0393,0.00788639,0.139938,20.9185,184.768,1.20573,0.0,0.0
429,107,36.2657,38.8281,144.237,98.4873,83.7833,0.00773244,0.139763,20.9192,184.728,1.43948,0.0,0.0
432,107.75,35.9084,38.743,148.245,98.4567,84.6834,0.00750336,0.139506,20.9199,184.688,1.34158,0.0,0.0
435,108.5,36.0869,39.1314,145.105,98.4314,85.2931,0.00731452,0.139262,20.9204,184.688,1.27543,0.0,0.0
438,109.25,36.0979,38.6169,146.761,98.4074,84.7678,0.00710206,0.139229,20.9204,184.668,1.32825,0.0,0.0
441,110,36.0703,38.5618,145.764,98.3644,85.4593,0.0069082,0.139212,20.9201,184.658,1.25204,0.0,0.0
444,110.75,35.5758,38.1995,139.36,98.3523,83.9156,0.00670023,0.139379,20.92,184.628,1.41323,0.0,0.0
447,111.5,35.8014,38.6052,142.87,98.3242,85.4682,0.00647406,0.139631,20.9198,184.608,1.24747,0.0,0.0
450,112.25,35.7542,38.883,148.239,98.3005,84.7542,0.00627502,0.13987,20.9197,184.588,1.32001,0.0,0.0
453,113,35.8665,38.8003,143.16,98.2672,83.6366,0.0060715,0.140271,20.9197,184.578,1.43516,0.0,0.0
456,113.75,35.5263,38.394,145.182,98.2351,84.3417,0.00587961,0.140564,20.9196,184.548,1.35752,0.0,0.0
459,114.5,35.8203,38.7597,146.224,98.2178,86.3827,0.00571812,0.140778,20.9196,184.528,1.14308,0.0,0.0
462,115.25,35.4254,38.6001,144.176,98.2062,85.0963,0.00558117,0.140685,20.9196,184.518,1.27559,0.0,0.0
465,116,35.9448,39.03,146.598,98.1737,85.9553,0.00546419,0.140285,20.9202,184.498,1.18323,0.0,0.0
468,116.75,36.1019,38.7156,147.035,98.1496,85.2825,0.0053427,0.139721,20.9215,184.478,1.25101,0.0,0.0
471,117.5,35.5504,38.2788,144.947,98.1403,86.133,0.00524346,0.139089,20.9229,184.468,1.16183,0.0,0.0
474,118.25,35.6478,38.4609,143.402,98.1042,87.2964,0.00515285,0.138397,20.9239,184.438,1.03911,0.0,0.0
477,119,35.7185,38.4718,148.236,98.0789,87.9056,0.00508079,0.137418,20.9251,184.438,0.974896,0.0,0.0
480,119.75,35.4151,38.3675,142.741,98.0516,88.5768,0.00501799,0.136316,20.9267,184.428,0.904704,0.0,0.0
483,120.5,35.7738,38.5002,148.483,98.0379,88.4708,0.00494842,0.135123,20.9302,184.418,0.914124,0.0,0.0
486,121.25,35.433,38.2109,146.4,98.0247,88.7841,0.00491307,0.133927,20.932,184.398,0.881447,0.0,0.0
489,122,35.7607,38.1112,141.944,97.9986,88.2545,0.00486622,0.132497,20.9343,184.388,0.932335,0.0,0.0
492,122.75,35.4387,38.2359,145.542,97.9721,89.3548,0.0048218,0.130995,20.9369,184.368,0.81963,0.0,0.0
495,123.5,35.4798,38.4007,145.169,97.9817,89.462,0.00478563,0.129121,20.9397,184.358,0.809825,0.0,0.0
498,124.25,35.4166,38.1109,146.597,97.9576,90.5203,0.0047583,0.128125,20.9425,184.338,0.702947,0.0,0.0
501,125,35.0926,37.9549,146.256,97.9387,91.4747,0.00473952,0.126402,20.9452,184.308,0.607862,0.0,0.0
504,125.75,35.0816,37.4917,147.839,97.915,91.9406,0.00473216,0.124904,20.9476,184.318,0.560475,0.0,0.0
507,126.5,35.1187,38.0585,147.633,97.9279,91.7295,0.0047355,0.123399,20.9502,184.308,0.582112,0.0,0.0
510,127.25,35.1343,37.8264,147.316,97.9126,92.2955,0.00474819,0.121954,20.952,184.308,0.525961,0.0,0.0
513,128,34.3337,37.2845,145.637,97.9239,91.2237,0.00475745,0.120742,20.9534,184.288,0.630971,0.0,0.0
516,128.75,34.6824,37.3023,146.171,97.895,92.3799,0.00481483,0.119588,20.9549,184.288,0.51622,0.0,0.0
519,129.5,34.9305,37.8335,148.265,97.8926,92.4553,0.00488965,0.118433,20.9567,184.268,0.50873,0.0,0.0
522,130.25,34.9168,37.569,147.31,97.8913,93.0587,0.00495826,0.117456,20.9588,184.278,0.450716,0.0,0.0
525,131,34.7261,37.7653,150.429,97.9034,91.8605,0.00507349,0.1163,20.9608,184.268,0.567179,0.0,0.0
528,131.75,34.5445,37.1513,144.053,97.8857,92.8687,0.00517423,0.115269,20.9627,184.247,0.468394,0.0,0.0
531,132.5,34.2975,36.9856,148.02,97.8869,92.4452,0.00527628,0.114069,20.9644,184.247,0.5092,0.0,0.0
534,133.25,34.6107,37.5278,148.623,97.8986,92.8645,0.00536473,0.112895,20.9662,184.247,0.469969,0.0,0.0
537,134,34.9542,37.5123,146.43,97.8958,94.4616,0.00546399,0.111911,20.9683,184.227,0.317906,0.0,0.0
540,134.75,33.9732,36.8831,146.994,97.9014,92.9476,0.00555468,0.110685,20.9702,184.227,0.462262,0.0,0.0
543,135.5,34.1846,37.3641,148.285,97.8998,93.8803,0.0056644,0.109582,20.9723,184.207,0.373222,0.0,0.0
546,136.25,34.4831,37.1887,144.805,97.9162,93.818,0.00576862,0.108418,20.9742,184.207,0.380632,0.0,0.0
549,137,34.1894,37.0225,147.294,97.9174,94.0499,0.0058623,0.107214,20.9761,184.197,0.358762,0.0,0.0
552,137.75,33.8167,36.5223,147.146,97.9203,94.7541,0.00594322,0.106057,20.9787,184.177,0.292607,0.0,0.0
555,138.5,33.4771,36.5197,148.503,97.9371,94.1796,0.00601313,0.104997,20.9805,184.167,0.348279,0.0,0.0
558,139.25,34.0411,36.6879,147.915,97.9564,94.9594,0.0060641,0.103798,20.9819,184.157,0.276633,0.0,0.0
561,140,33.9516,36.6661,143.302,97.9652,95.059,0.00609761,0.102739,20.9834,184.157,0.2681,0.0,0.0
564,140.75,33.9999,36.4229,149.234,97.9793,95.2019,0.00612077,0.10169,20.9846,184.137,0.256005,0.0,0.0
567,141.5,33.824,36.4152,145.887,97.9929,96.0083,0.00613711,0.10084,20.9862,184.127,0.182154,0.0,0.0
570,142.25,33.7454,36.5022,146.454,98.0259,95.5338,0.0061563,0.099965,20.9873,184.127,0.229246,0.0,0.0
573,143,33.4686,36.3052,147.053,98.0355,95.4325,0.00617411,0.0992183,20.9881,184.117,0.23957,0.0,0.0
576,143.75,33.5858,36.5055,149.524,98.05,96.2555,0.00618605,0.0985728,20.9887,184.117,0.164443,0.0,0.0
579,144.5,33.5067,36.2372,146.322,98.056,95.6475,0.00619016,0.0980455,20.9898,184.117,0.2214,0.0,0.0
582,145.25,33.114,35.7923,146.231,98.0941,95.8124,0.00618041,0.0975847,20.9906,184.127,0.209524,0.0,0.0
585,146,33.4411,36.091,146.709,98.1062,96.0617,0.00617331,0.0971594,20.9911,184.107,0.187485,0.0,0.0
588,146.75,33.1034,35.7703,145.196,98.1259,95.3206,0.0061372,0.0966674,20.9916,184.097,0.258219,0.0,0.0
591,147.5,33.0986,35.5834,149.387,98.1327,95.7772,0.00609431,0.0962662,20.9921,184.077,0.216293,0.0,0.0
594,148.25,32.9498,35.6354,147.984,98.1632,96.2966,0.0060486,0.0959556,20.9929,184.067,0.170916,0.0,0.0
597,149,32.6466,35.1601,141.848,98.1793,95.8077,0.00600266,0.0956484,20.9935,184.067,0.217681,0.0,0.0
600,149.75,32.3841,35.2825,147.114,98.2114,96.3178,0.0059628,0.0954244,20.9939,184.047,0.173325,0.0,0.0
603,150.5,32.5118,35.2063,147.492,98.2319,95.4647,0.00593103,0.0952611,20.9942,184.047,0.254378,0.0,0.0
606,151.25,32.3566,35.0843,149.442,98.264,97.0788,0.00590385,0.0951845,20.9944,184.037,0.108027,0.0,0.0
609,152,31.4685,33.9759,150.295,98.2813,96.0778,0.00587715,0.0951991,20.9941,184.027,0.201864,0.0,0.0
612,152.75,31.2935,34.2022,146.482,98.2993,96.2292,0.00585642,0.095299,20.9939,184.017,0.189488,0.0,0.0
615,153.5,32.3444,35.1883,147.662,98.327,96.2699,0.00584076,0.0953718,20.9938,184.017,0.188232,0.0,0.0
618,154.25,32.3071,34.2766,144.356,98.3572,96.1283,0.00581663,0.0956878,20.9936,183.997,0.204063,0.0,0.0
621,155,31.9379,34.595,147.081,98.3853,96.7485,0.0057774,0.095948,20.9936,183.987,0.149347,0.0,0.0
624,155.75,32.4147,34.4649,142.347,98.4094,96.1304,0.00573958,0.0961888,20.9929,183.987,0.20859,0.0,0.0
627,156.5,31.8904,34.4459,139.685,98.4306,96.9737,0.00568479,0.096425,20.9924,183.997,0.13276,0.0,0.0
630,157.25,32.1751,34.1899,146.376,98.462,96.3873,0.00564612,0.0965972,20.992,183.987,0.189586,0.0,0.0
633,158,31.9216,34.4231,148.642,98.511,96.0121,0.00562449,0.0967227,20.9917,183.977,0.228738,0.0,0.0
636,158.75,31.8112,34.4821,146.728,98.517,96.7693,0.00562506,0.0967291,20.9915,183.977,0.159345,0.0,0.0
639,159.5,31.6741,34.1464,147.484,98.5447,95.9548,0.00563578,0.0966527,20.9918,183.967,0.237094,0.0,0.0
642,160.25,31.456,33.8792,143.924,98.5628,97.2166,0.0056436,0.0965205,20.9922,183.967,0.122427,0.0,0.0
645,161,31.8682,33.9164,144.237,98.617,96.0982,0.00566927,0.0963836,20.9925,183.957,0.230336,0.0,0.0
648,161.75,31.4358,33.4908,148.363,98.6463,96.676,0.00568999,0.096298,20.9928,183.947,0.179608,0.0,0.0
651,162.5,31.612,33.8717,147.174,98.6716,96.9118,0.00570586,0.0962417,20.9929,183.947,0.16021,0.0,0.0
654,163.25,31.5639,34.1366,147.82,98.7021,96.5849,0.00571284,0.096059,20.9937,183.937,0.193042,0.0,0.0
657,164,31.5296,34.2071,147.247,98.7358,96.5934,0.00571156,0.0958364,20.9942,183.927,0.195303,0.0,0.0
660,164.75,31.4112,33.5619,144.665,98.7676,96.4284,0.00570028,0.095521,20.9948,183.927,0.213376,0.0,0.0
663,165.5,31.1347,33.9133,145.057,98.8101,97.3934,0.00568613,0.0952203,20.9957,183.907,0.128566,0.0,0.0
666,166.25,31.3185,34.0069,145.824,98.8451,97.3362,0.00567123,0.094941,20.9963,183.897,0.136946,0.0,0.0
669,167,31.141,33.4407,144.453,98.876,97.7847,0.00565366,0.0946864,20.9968,183.897,0.0987983,0.0,0.0
672,167.75,30.7679,33.5774,148.685,98.9085,97.2526,0.00562941,0.0943998,20.9971,183.877,0.150301,0.0,0.0
675,168.5,31.2702,33.3644,147.228,98.9507,97.401,0.0055809,0.09412,20.9974,183.877,0.140523,0.0,0.0
678,169.25,30.6075,33.2753,144.276,98.9732,97.3879,0.0055163,0.0938785,20.9976,183.847,0.143747,0.0,0.0
681,170,30.8877,33.2208,147.696,99.0057,96.8427,0.00544538,0.0936896,20.9977,183.867,0.196653,0.0,0.0
684,170.75,30.8344,33.223,145.462,99.0471,97.0703,0.00537425,0.0934998,20.9978,183.857,0.179466,0.0,0.0
687,171.5,30.7342,33.4616,147.648,99.0868,96.6481,0.00532613,0.0932722,20.9981,183.847,0.221851,0.0,0.0
690,172.25,30.6604,33.4748,148.235,99.1065,97.223,0.00529263,0.0929649,20.9987,183.837,0.17082,0.0,0.0
693,173,30.6535,32.9198,147.423,99.1326,96.7998,0.00530626,0.0927551,20.9992,183.827,0.211993,0.0,0.0
696,173.75,30.8426,33.2792,144.779,99.1691,96.807,0.0053162,0.0926082,20.9997,183.807,0.214612,0.0,0.0
699,174.5,30.481,33.6657,147.949,99.1964,96.9715,0.00535649,0.0925831,21,183.797,0.201948,0.0,0.0
702,175.25,30.6111,32.8953,148.376,99.2193,96.5166,0.00538697,0.0925507,21,183.797,0.245864,0.0,0.0
705,176,30.6418,32.8152,149.725,99.243,97.0657,0.00543487,0.092521,21,183.797,0.19749,0.0,0.0
708,176.75,30.7752,33.0547,149.724,99.2856,97.0144,0.00547234,0.0924696,21.0001,183.787,0.206014,0.0,0.0
711,177.5,30.0638,32.4649,149.271,99.3133,97.4892,0.0054994,0.0923811,21.0001,183.777,0.16503,0.0,0.0
714,178.25,30.8613,32.865,148.37,99.3402,97.2268,0.00551684,0.0922651,21.0001,183.767,0.19144,0.0,0.0
717,179,30.5213,33.2656,147.749,99.3579,98.0111,0.00552701,0.0921088,21.0001,183.747,0.121491,0.0,0.0
720,179.75,30.5258,32.4927,144.573,99.396,97.8691,0.00553668,0.0919566,21.0001,183.747,0.137819,0.0,0.0
723,180.5,30.7757,32.8335,145.466,99.4217,97.5316,0.00554946,0.0919165,21.0001,183.747,0.170872,0.0,0.0
726,181.25,30.4601,32.8677,145.851,99.451,97.0979,0.00556614,0.0919397,21.0001,183.737,0.213175,0.0,0.0
729,182,29.8517,32.4387,148.61,99.4611,97.217,0.0055909,0.0919948,21.0001,183.747,0.203158,0.0,0.0
732,182.75,30.3771,32.8418,143.893,99.4767,97.4205,0.00560132,0.0920209,21.0001,183.737,0.185941,0.0,0.0
735,183.5,30.1808,32.661,149.841,99.5076,97.5626,0.00560565,0.0920487,21.0001,183.727,0.17574,0.0,0.0
738,184.25,30.7507,32.9419,146.009,99.5309,97.3943,0.00558341,0.0920945,21.0001,183.727,0.193195,0.0,0.0
741,185,30.1143,32.9303,149.394,99.545,96.9665,0.00554558,0.0921055,21.0001,183.707,0.233642,0.0,0.0
744,185.75,30.1635,32.6077,145.262,99.5623,97.5278,0.00550143,0.0920754,21.0001,183.707,0.183797,0.0,0.0
747,186.5,30.391,32.6744,147.097,99.5771,97.3692,0.00545666,0.0919826,21.0001,183.697,0.199611,0.0,0.0
750,187.25,29.6867,32.3779,147.978,99.6088,97.8767,0.00541894,0.0918699,21.0001,183.707,0.156167,0.0,0.0
753,188,30.4667,32.9476,146.429,99.6273,97.5282,0.00538928,0.0917623,21.0001,183.697,0.189573,0.0,0.0
756,188.75,30.2526,32.7206,146.517,99.6349,97.2607,0.00536947,0.0916839,21.0001,183.687,0.214709,0.0,0.0
759,189.5,30.0984,32.6447,148.877,99.6711,97.1242,0.00537155,0.0916118,21.0001,183.677,0.230442,0.0,0.0
762,190.25,30.1937,32.2182,144.992,99.69,97.2526,0.00539349,0.0915338,21.0001,183.677,0.22036,0.0,0.0
765,191,29.8801,32.3999,145.995,99.7112,97.666,0.00543237,0.0914486,21.0001,183.657,0.184501,0.0,0.0
768,191.75,30.0982,32.8753,147.286,99.7056,97.7224,0.00548107,0.0913595,21.0003,183.647,0.17886,0.0,0.0
771,192.5,30.032,32.0582,142.952,99.7289,97.3993,0.0055253,0.0912692,21.0009,183.647,0.210419,0.0,0.0
774,193.25,30.2882,32.3604,146.349,99.7426,97.6126,0.00555761,0.0912316,21.0011,183.637,0.192167,0.0,0.0
777,194,30.0827,31.9484,146.176,99.7562,97.4235,0.00556462,0.0912304,21.0013,183.637,0.210648,0.0,0.0
780,194.75,29.8514,32.0385,145.883,99.753,97.9887,0.00556269,0.0912355,21.0013,183.617,0.158866,0.0,0.0
783,195.5,29.9585,32.2698,145.134,99.7887,98.0082,0.00550687,0.0911573,21.0014,183.627,0.160284,0.0,0.0
786,196.25,29.6643,31.8022,147.212,99.7972,97.669,0.00544546,0.0910631,21.0014,183.617,0.191899,0.0,0.0
789,197,30.086,32.2441,148.033,99.8036,97.6088,0.00536526,0.0909307,21.0015,183.617,0.197961,0.0,0.0
792,197.75,29.8144,32.12,147.736,99.814,97.9785,0.00528475,0.0907918,21.0015,183.597,0.165237,0.0,0.0
795,198.5,29.6748,32.1441,147.81,99.8381,97.4473,0.00518838,0.0906724,21.0023,183.587,0.215786,0.0,0.0
798,199.25,29.2565,31.5122,146.914,99.8538,97.6563,0.00509461,0.0905652,21.0029,183.597,0.198108,0.0,0.0
801,200,29.6117,31.9117,146.201,99.863,97.5236,0.00501612,0.0904871,21.0033,183.567,0.211037,0.0,0.0
804,200.75,29.7049,31.6401,150.654,99.8646,97.7279,0.00495457,0.0904503,21.0036,183.557,0.192545,0.0,0.0
807,201.5,29.6177,32.0811,147.558,99.8807,97.7941,0.00489706,0.0904518,21.0038,183.577,0.187954,0.0,0.0
810,202.25,29.2114,31.9741,147.966,99.898,97.6499,0.00485513,0.0904649,21.004,183.547,0.202624,0.0,0.0
813,203,29.1118,31.1567,147.971,99.9076,98.5627,0.0048083,0.0904745,21.0041,183.537,0.12065,0.0,0.0
816,203.75,29.2973,31.0208,144.107,99.9032,97.6902,0.00477883,0.0904956,21.0042,183.557,0.199418,0.0,0.0
819,204.5,29.8354,31.3114,147.926,99.9148,97.7555,0.00476532,0.090517,21.0043,183.537,0.194508,0.0,0.0
822,205.25,29.4416,31.3263,147.061,99.9229,97.8742,0.00477897,0.0905528,21.0043,183.527,0.18442,0.0,0.0
825,206,29.6575,31.5614,147.783,99.9269,98.0476,0.00480033,0.0905789,21.0043,183.517,0.169019,0.0,0.0
828,206.75,29.8025,31.8381,146.513,99.9309,98.1494,0.00482077,0.0905778,21.0044,183.517,0.160141,0.0,0.0
831,207.5,29.1122,31.6116,151.484,99.9273,97.2929,0.00484109,0.0905546,21.0044,183.497,0.237842,0.0,0.0
834,208.25,29.4835,31.752,149.167,99.9462,98.4661,0.00485717,0.0904995,21.0046,183.477,0.13282,0.0,0.0
837,209,29.5141,31.9522,146.575,99.9546,97.9666,0.00486944,0.0904795,21.0052,183.487,0.178843,0.0,0.0
840,209.75,29.9424,31.0777,147.194,99.9385,98.4924,0.00488092,0.0904367,21.0052,183.497,0.129765,0.0,0.0
843,210.5,29.454,31.9538,144.777,99.9437,98.4177,0.00489237,0.0903636,21.005,183.497,0.136977,0.0,0.0
846,211.25,29.5294,31.2346,149.649,99.9518,97.9577,0.00490414,0.0902594,21.0048,183.487,0.179401,0.0,0.0
849,212,29.9331,31.724,147.549,99.9586,98.0756,0.00491091,0.0901269,21.0047,183.487,0.169304,0.0,0.0
852,212.75,29.5571,31.035,144.927,99.9482,99.0457,0.00490444,0.0900062,21.0049,183.477,0.080752,0.0,0.0
855,213.5,29.3973,31.6586,150.802,99.9494,98.3266,0.00488685,0.0899182,21.0054,183.467,0.145727,0.0,0.0
858,214.25,29.4008,31.7837,148.68,99.9462,98.1176,0.00486033,0.0898965,21.0053,183.457,0.164386,0.0,0.0
861,215,29.1509,31.5304,146.421,99.9594,97.8246,0.0048182,0.0898764,21.0053,183.467,0.192188,0.0,0.0
864,215.75,29.0405,31.0497,147.926,99.9522,97.2976,0.00477777,0.0898236,21.0057,183.447,0.239634,0.0,0.0
867,216.5,30.245,31.4955,145.367,99.9413,98.1439,0.00473711,0.0897144,21.0059,183.437,0.161572,0.0,0.0
870,217.25,28.8996,31.7293,143.441,99.949,98.6531,0.00466449,0.0896047,21.0061,183.437,0.116182,0.0,0.0
873,218,29.4446,31.3067,146.045,99.9397,98.1061,0.0045917,0.0895247,21.0063,183.427,0.164852,0.0,0.0
876,218.75,29.5723,31.2618,147.955,99.9385,98.1146,0.00452781,0.0894664,21.0064,183.427,0.163975,0.0,0.0
879,219.5,29.6619,31.3303,150.625,99.9357,97.5554,0.00447997,0.0894365,21.0065,183.427,0.214612,0.0,0.0
882,220.25,29.417,31.0227,145.592,99.9221,97.3561,0.00444456,0.0894445,21.0066,183.407,0.231598,0.0,0.0
885,221,29.4077,31.5867,146.258,99.9309,97.7941,0.00442473,0.0894684,21.0066,183.397,0.192426,0.0,0.0
888,221.75,29.3562,31.4798,143.814,99.9289,97.8827,0.00442052,0.0894858,21.0072,183.387,0.184185,0.0,0.0
891,222.5,29.7434,31.1026,146.356,99.9084,97.7525,0.00443189,0.0894985,21.0076,183.377,0.194206,0.0,0.0
894,223.25,29.16,31.275,144.973,99.9028,98.5984,0.00444017,0.0895078,21.0079,183.377,0.117005,0.0,0.0
897,224,29.4984,31.7072,144.824,99.9128,98.2566,0.00446065,0.0894137,21.0082,183.377,0.148808,0.0,0.0
900,224.75,28.9855,31.821,149.266,99.9024,98.5797,0.00448158,0.0894017,21.0083,183.367,0.118653,0.0,0.0
903,225.5,29.3003,31.5695,153.233,99.8944,97.652,0.00450708,0.089417,21.0084,183.357,0.20211,0.0,0.0
906,226.25,28.8916,31.6794,144.531,99.8847,97.3497,0.00454013,0.0895291,21.0085,183.357,0.228852,0.0,0.0
909,227,29.2712,31.6785,148.631,99.8847,98.2452,0.00456754,0.0896107,21.0086,183.357,0.147339,0.0,0.0
912,227.75,29.0962,31.2923,144.009,99.8755,98.0718,0.00459323,0.0896702,21.0086,183.337,0.162243,0.0,0.0
915,228.5,29.2804,31.3006,146.149,99.8618,98.0654,0.00461918,0.0896147,21.0087,183.337,0.161605,0.0,0.0
918,229.25,29.3204,31.3646,147.201,99.8562,97.4167,0.0046305,0.089532,21.0087,183.337,0.220186,0.0,0.0
921,230,29.2886,31.6103,145.643,99.857,97.9654,0.00463552,0.0893709,21.0087,183.327,0.170263,0.0,0.0
924,230.75,28.8079,30.9026,143.889,99.8385,97.3324,0.00461512,0.0892676,21.0087,183.317,0.226325,0.0,0.0
927,231.5,29.4999,31.2436,145.515,99.8309,97.6631,0.00458067,0.0891983,21.0087,183.307,0.195448,0.0,0.0
930,232.25,29.3336,31.0085,147.399,99.8144,97.9124,0.00453961,0.0891478,21.0094,183.327,0.171284,0.0,0.0
933,233,28.9654,31.1032,151.363,99.8092,97.3909,0.00449525,0.0890827,21.0098,183.307,0.218361,0.0,0.0
936,233.75,29.5161,31.5913,143.983,99.8036,97.6347,0.00446424,0.0890232,21.0102,183.287,0.195603,0.0,0.0
939,234.5,29.1931,31.0723,148.644,99.7871,97.6775,0.00444391,0.0889597,21.0104,183.287,0.190231,0.0,0.0
942,235.25,29.5256,31.1927,142.3,99.7707,97.9925,0.00444353,0.0889133,21.0106,183.287,0.160096,0.0,0.0
945,236,29.7276,31.0041,148.121,99.7646,97.7364,0.00445843,0.0888796,21.0108,183.287,0.182854,0.0,0.0
948,236.75,29.1682,31.4016,149.053,99.7518,97.3438,0.00447577,0.0888751,21.0109,183.267,0.217541,0.0,0.0
951,237.5,29.4607,31.1008,144.758,99.7414,97.3667,0.0044922,0.088886,21.0109,183.267,0.214515,0.0,0.0
954,238.25,29.6025,31.3564,149.745,99.7225,98.79,0.00449781,0.0889,21.011,183.267,0.0836373,0.0,0.0
957,239,28.8249,30.3857,146.546,99.7104,98.8273,0.00448823,0.0888698,21.011,183.257,0.0791996,0.0,0.0
960,239.75,28.4915,30.6532,147.315,99.7108,97.9624,0.00443615,0.0887958,21.011,183.257,0.157491,0.0,0.0
963,240.5,29.5203,31.0282,148.659,99.6952,97.9047,0.00438892,0.0886528,21.011,183.247,0.161335,0.0,0.0
966,241.25,29.1047,31.0246,142.849,99.6751,97.5096,0.00430789,0.0885082,21.0111,183.247,0.195545,0.0,0.0
969,242,28.8824,31.2833,148.711,99.6675,98.369,0.0041984,0.0884252,21.0111,183.247,0.116744,0.0,0.0
972,242.75,29.1075,31.0642,143.641,99.6582,97.2522,0.00409967,0.0883953,21.0111,183.237,0.217566,0.0,0.0
975,243.5,29.3941,30.9398,146.449,99.6679,97.6622,0.00401962,0.0883712,21.0111,183.227,0.180975,0.0,0.0
978,244.25,29.0552,30.9932,147.91,99.6366,97.449,0.00396127,0.0883008,21.0111,183.216,0.197638,0.0,0.0
981,245,29.1824,31.4128,143.163,99.6289,97.7055,0.00393513,0.0882167,21.0111,183.216,0.173554,0.0,0.0
984,245.75,29.1786,31.157,148.493,99.6249,97.7669,0.00392705,0.0881298,21.0111,183.206,0.167595,0.0,0.0
987,246.5,28.891,30.4593,146.014,99.6153,97.7059,0.00392797,0.0880666,21.0111,183.206,0.172295,0.0,0.0
990,247.25,28.9824,31.4503,148.721,99.5916,97.2412,0.00391224,0.0878794,21.0111,183.196,0.212618,0.0,0.0
993,248,29.2172,31.365,148.629,99.6,97.9645,0.0038825,0.087743,21.0111,183.186,0.147398,0.0,0.0
996,248.75,28.9991,31.0271,149.124,99.5639,98.7807,0.00382188,0.0876032,21.0111,183.176,0.0703059,0.0,0.0
999,249.5,28.9169,31.1132,146.362,99.5566,97.7296,0.00378828,0.0875534,21.0111,183.176,0.164891,0.0,0.0
1002,250.25,28.3736,30.8644,144.456,99.5602,97.3251,0.00374317,0.087606,21.0113,183.176,0.202136,0.0,0.0
1005,251,29.2225,30.8165,144.426,99.5321,97.2103,0.0037076,0.0876444,21.0119,183.176,0.210138,0.0,0.0
1008,251.75,29.2771,30.9521,150.341,99.5329,97.8755,0.00368346,0.0876396,21.0123,183.166,0.149497,0.0,0.0
1011,252.5,29.3563,31.0941,145.407,99.5261,97.8916,0.0036672,0.0876096,21.0126,183.146,0.14742,0.0,0.0
1014,253.25,29.1113,31.1423,148.416,99.5121,97.9556,0.0036576,0.0875463,21.0129,183.156,0.140343,0.0,0.0
1017,254,29.3141,31.0566,150.001,99.4884,97.4159,0.00366319,0.0875001,21.0126,183.156,0.187411,0.0,0.0
1020,254.75,28.6791,30.6178,146.262,99.4856,96.9372,0.00367357,0.0874664,21.0122,183.146,0.231011,0.0,0.0
1023,255.5,29.6834,31.1747,146.853,99.4683,97.7568,0.00368382,0.0874822,21.0119,183.136,0.154516,0.0,0.0
1026,256.25,28.8902,30.9322,148.807,99.4562,97.2255,0.0036877,0.0875078,21.0117,183.136,0.201949,0.0,0.0
1029,257,29.0107,30.9323,146.91,99.4434,97.1772,0.00368456,0.0875399,21.0115,183.126,0.205226,0.0,0.0
1032,257.75,29.6052,31.2782,147.792,99.4342,97.6601,0.00367206,0.0875761,21.0114,183.116,0.160268,0.0,0.0
1035,258.5,29.2652,30.7887,147.722,99.4317,97.2989,,0.087595,,183.106,0.193042,0.0,0.0
1038,259.25,28.9637,30.8299,150.698,99.4205,97.1403,,0.0875961,,183.096,0.206556,0.0,0.0
1041,260,29.4347,31.099,149.499,99.4073,97.8759,,0.0875364,,183.086,0.138208,0.0,0.0
1044,260.75,29.2964,30.9279,147.771,99.3928,97.3023,,0.0874855,,183.086,0.189245,0.0,0.0
1047,261.5,28.6665,30.8621,146.115,99.392,97.4566,,,,183.086,0.175064,0.0,0.0
1050,262.25,29.308,30.9679,149.498,99.3812,97.5053,,,,183.086,0.16964,0.0,0.0
1053,263,29.2429,31.3427,147.622,99.3547,97.3391,,,,183.076,0.182453,0.0,0.0
1056,263.75,29.3378,30.747,149.012,99.3426,97.1182,,,,183.066,0.201598,0.0,0.0
1059,264.5,29.0371,30.8761,146.782,99.347,96.6188,,,,183.066,0.247895,0.0,0.0
1062,265.25,29.615,30.8453,149.445,99.3314,97.1874,,,,183.056,0.194258,0.0,0.0
1065,266,29.14,31.1169,150.629,99.3253,96.8363,,,,183.056,0.225933,0.0,0.0
1068,266.75,29.1562,31.1015,145.156,99.3113,98.0926,,,,183.056,0.109925,0.0,0.0
1071,267.5,28.7804,31.0522,147.399,99.3073,97.1335,,,,183.056,0.197032,0.0,0.0
1074,268.25,29.407,31.0202,146.677,99.3045,97.5138,,,,183.046,0.161991,0.0,0.0
1077,269,29.2471,30.2959,147.576,99.3085,97.5533,,,,183.036,0.158753,0.0,0.0
1078,269.25,28.9781,31.2029,146.351,99.2928,97.3832,,,,183.046,0.172878,0.0,0.0