File: 01_Data/Vinyl_Siding/Cone/Vinyl_Siding_Cone_HF25Scan_220331_R2.csv
Names,Time,Stack TC,Smoke TC,Exh Press,Smoke Comp,Smoke Meas,CO Meter,CO2 Meter,O2 Meter,Sample Mass,Ext Coeff,Start Test,Flame Verif
Chan Gain,,500,500,1,1,1,1,1,1,1,1,1.0,1.0
Offset,,0,0,0.133521,0,0,0,0,0,0,0,0.0,0.0
Gain,,1,1,25.011,13.1585,13.8929,1,1,1,1.00096,1.01488,1.0,1.0
Units,sec,C,C,Pa,%,%,%,%,%,g,/m,,
Baseline,,19.0067,19.5888,153.015,99.355,96.9037,0.000921384,0.0723502,20.9968,-833.81,0.222418,,
4,0.75,17.3522,17.6928,155.619,98.7254,96.7986,0.00108951,0.0751328,20.9956,208.351,0.175468,0.0,0.0
8,1.75,17.6526,18.3838,155.036,98.7246,96.4814,0.00107612,0.0748041,20.9959,208.481,0.204611,0.0,0.0
12,2.75,17.6247,18.4348,152.851,98.7222,96.3835,0.00107962,0.0746085,20.9961,208.321,0.213435,0.0,0.0
16,3.75,17.6984,18.2168,154.657,98.7258,95.8166,0.00109629,0.0744454,20.9962,208.381,0.266273,0.0,0.0
20,4.75,17.754,17.903,154.303,98.7294,96.5912,0.00111432,0.0742876,20.9962,208.361,0.194919,0.0,0.0
24,5.75,17.2023,18.1706,152.3,98.7358,96.4043,0.00112806,0.0741934,20.9955,208.341,0.212748,0.0,0.0
28,6.75,17.3601,18.2889,153.487,98.7338,96.2143,0.00113933,0.0742493,20.9954,208.411,0.230124,0.0,0.0
32,7.75,17.3314,17.751,153.78,98.7403,96.5501,0.00115382,0.074377,20.9955,208.371,0.199687,0.0,0.0
36,8.75,17.9181,18.7128,146.351,98.7455,96.8232,0.00116879,0.074545,20.995,208.381,0.175018,0.0,0.0
40,9.75,17.2842,17.6856,152.118,98.7491,96.314,0.00118312,0.0747162,20.9944,208.361,0.222285,0.0,0.0
44,10.75,17.826,17.9294,152.438,98.7599,96.6158,0.00117927,0.0748178,20.9941,208.361,0.195403,0.0,0.0
48,11.75,17.5035,17.7315,148.478,98.7591,96.3848,0.00116442,0.0749395,20.9938,208.351,0.216648,0.0,0.0
52,12.75,17.667,18.3738,151.512,98.7648,96.5221,0.00113195,0.0751466,20.9937,208.361,0.204476,0.0,0.0
56,13.75,17.6195,17.7335,151.517,98.772,96.2805,0.00110585,0.0753726,20.9936,208.351,0.227445,0.0,0.0
60,14.75,17.9945,17.9033,149.854,98.7764,96.5035,0.00108611,0.0755718,20.9935,208.351,0.207246,0.0,0.0
64,15.75,17.8501,18.3972,156.705,98.7852,96.5081,0.00106677,0.0758227,20.9935,208.351,0.207613,0.0,0.0
68,16.75,17.7763,18.6015,151.658,98.784,96.3725,0.00103833,0.0761,20.9934,208.341,0.220028,0.0,0.0
72,17.75,17.8376,18.5626,152.395,98.7965,96.2398,0.000989535,0.0764438,20.9928,208.351,0.233417,0.0,0.0
76,18.75,18.0053,18.3016,153.572,98.8029,96.6222,0.000944441,0.0767494,20.9922,208.351,0.19869,0.0,0.0
80,19.75,17.684,18.4728,152.663,98.8041,96.4967,0.000913314,0.0770121,20.9918,208.351,0.210369,0.0,0.0
84,20.75,18.4476,18.2303,153.96,98.8113,96.4221,0.000893662,0.0772073,20.9915,208.351,0.217907,0.0,0.0
88,21.75,17.9745,18.3894,151.512,98.8113,96.2152,0.00087355,0.077259,20.9913,208.351,0.237031,0.0,0.0
92,22.75,17.6175,18.2118,152.147,98.8194,96.0647,0.000831729,0.077293,20.9912,208.351,0.251692,0.0,0.0
96,23.75,17.7583,18.345,149.488,98.8266,96.2355,0.000757875,0.0772951,20.9912,208.351,0.236522,0.0,0.0
100,24.75,17.8455,19.2692,151.971,98.8459,96.5187,0.000687305,0.0773514,20.9911,208.351,0.212097,0.0,0.0
104,25.75,17.8585,18.6001,153.935,98.841,95.9027,0.00061631,0.0775063,20.9911,208.341,0.268666,0.0,0.0
108,26.75,18.2225,18.5173,153.117,98.8455,96.1054,0.000583882,0.0776681,20.9911,208.331,0.250272,0.0,0.0
112,27.75,17.8288,18.4945,153.052,98.8543,96.2665,0.000576337,0.0778467,20.991,208.341,0.236155,0.0,0.0
116,28.75,18.2938,18.663,154.788,98.8668,95.6322,0.000579426,0.0780688,20.9904,208.331,0.296126,0.0,0.0
120,29.75,18.1118,18.8093,153.204,98.874,95.9209,0.000583698,0.0783886,20.9897,208.331,0.269939,0.0,0.0
124,30.75,18.355,18.361,151.447,98.8716,96.0914,0.000597731,0.0786706,20.9892,208.331,0.253918,0.0,0.0
128,31.75,17.7219,18.5517,150.705,98.882,96.2402,0.000615924,0.0788557,20.9893,208.321,0.241082,0.0,0.0
132,32.75,18.1415,18.5487,152.111,98.89,96.0608,0.00062786,0.0789697,20.9898,208.321,0.25841,0.0,0.0
136,33.75,18.294,18.3639,149.038,98.8961,96.169,0.000645622,0.0789983,20.9901,208.321,0.248938,0.0,0.0
140,34.75,18.5117,18.5406,153.636,98.9037,95.7289,0.000677085,0.0789943,20.9903,208.321,0.290458,0.0,0.0
144,35.75,17.91,18.7534,153.875,98.9073,95.5076,0.000740158,0.0788134,20.9904,208.301,0.311389,0.0,0.0
148,36.75,18.1375,18.8759,152.579,98.9133,95.5321,0.000827474,0.0787348,20.9905,208.301,0.30964,0.0,0.0
152,37.75,18.2701,18.7898,154.171,98.9294,95.6695,0.000915092,0.078674,20.9905,208.291,0.298292,0.0,0.0
156,38.75,18.2261,18.7336,148.042,98.9334,95.7407,0.00100636,0.0786086,20.9906,208.281,0.292028,0.0,0.0
160,39.75,18.5136,18.351,152.651,98.9559,95.2816,0.00106748,0.0785603,20.9906,208.281,0.33685,0.0,0.0
164,40.75,17.8859,18.5955,150.589,98.9543,95.3549,0.00109615,0.0785286,20.9906,208.271,0.329856,0.0,0.0
168,41.75,18.5187,18.6812,148.69,98.9583,94.9089,0.00108374,0.078493,20.9906,208.271,0.371956,0.0,0.0
172,42.75,18.1558,18.9884,157.931,98.9639,95.0637,0.00103733,0.0784336,20.9909,208.251,0.357957,0.0,0.0
176,43.75,18.5072,19.256,151.203,98.9699,94.8763,0.000972045,0.0784455,20.9916,208.261,0.376066,0.0,0.0
180,44.75,18.4814,18.7882,154.273,98.9824,94.5693,0.000919128,0.0785806,20.9921,208.231,0.406035,0.0,0.0
184,45.75,18.3942,18.9487,155.765,98.9844,93.9185,0.000890172,0.0787202,20.9924,208.221,0.467693,0.0,0.0
188,46.75,18.0191,19.2435,155.414,99.0133,93.6035,0.000888718,0.0787864,20.9926,208.211,0.500204,0.0,0.0
192,47.75,18.5429,19.0336,152.695,98.9977,93.5403,0.000948694,0.0788043,20.9927,208.191,0.504806,0.0,0.0
196,48.75,18.455,18.5325,152.615,99.0065,93.8562,0.00101644,0.078816,20.9927,208.171,0.475589,0.0,0.0
200,49.75,17.9189,19.0478,149.025,99.0085,92.7801,0.00107562,0.0788941,20.9925,208.151,0.578425,0.0,0.0
204,50.75,19.1461,19.2585,152.023,99.0141,93.4029,0.00111458,0.0790015,20.9924,208.11,0.519369,0.0,0.0
208,51.75,18.6776,19.0254,150.773,99.0254,92.853,0.00113181,0.0790564,20.9923,208.09,0.572947,0.0,0.0
212,52.75,18.4525,19.2135,152.434,99.031,92.8505,0.00112395,0.0790564,20.9924,208.07,0.573696,0.0,0.0
216,53.75,18.1974,19.1059,163.115,99.033,92.6071,0.00111346,0.0791327,20.9925,208.03,0.597241,0.0,0.0
220,54.75,18.7744,19.4593,151.656,99.0382,92.2501,0.00110338,0.0792251,20.9925,208.01,0.632095,0.0,0.0
224,55.75,18.6121,19.1665,153.93,99.0362,92.2018,0.00109629,0.0793421,20.9926,207.97,0.63658,0.0,0.0
228,56.75,18.8085,18.8647,159.351,99.0563,92.1768,0.00109288,0.079473,20.9926,207.93,0.6408,0.0,0.0
232,57.75,18.6001,19.2502,154.41,99.0627,92.4011,0.00108791,0.079559,20.9926,207.89,0.619742,0.0,0.0
236,58.75,18.749,19.5948,152.294,99.0744,91.983,0.0010764,0.0795135,20.9926,207.85,0.661157,0.0,0.0
240,59.75,19.1905,19.6551,154.784,99.0968,91.8113,0.00105607,0.0794326,20.9926,207.81,0.679812,0.0,0.0
244,60.75,18.7757,19.5897,148.041,99.0864,91.76,0.00102699,0.0793796,20.9926,207.77,0.68385,0.0,0.0
248,61.75,18.2132,19.5195,149.101,99.0912,92.3065,0.00102816,0.079385,20.9926,207.71,0.631418,0.0,0.0
252,62.75,18.6491,19.574,151.44,99.0964,92.2569,0.00107621,0.0795541,20.9926,207.68,0.636672,0.0,0.0
256,63.75,18.8609,19.8736,153.566,99.1197,91.7409,0.0011528,0.0798276,20.992,207.63,0.688695,0.0,0.0
260,64.75,18.979,19.5469,153.482,99.1069,92.2442,0.0012301,0.0801538,20.9914,207.59,0.638838,0.0,0.0
264,65.75,18.7998,19.4999,152.077,99.1097,92.134,0.00128984,0.0805542,20.991,207.54,0.649736,0.0,0.0
268,66.75,18.8804,19.5805,152.918,99.1085,92.7852,0.00129914,0.0811143,20.9905,207.5,0.586923,0.0,0.0
272,67.75,18.6074,19.1268,151.47,99.1133,92.2302,0.0012555,0.0818134,20.9896,207.46,0.640765,0.0,0.0
276,68.75,18.6619,19.4698,154.363,99.125,92.7436,0.00116458,0.0824947,20.9882,207.41,0.592389,0.0,0.0
280,69.75,18.8214,19.6202,149.907,99.133,92.1289,0.00104644,0.0831228,20.9873,207.36,0.652319,0.0,0.0
284,70.75,18.9419,19.5554,151.204,99.1225,91.8978,0.000959939,0.0836556,20.9867,207.31,0.673738,0.0,0.0
288,71.75,18.6378,19.8086,150.655,99.1306,92.7911,0.000932417,0.0838766,20.9863,207.26,0.588338,0.0,0.0
292,72.75,18.8365,19.4136,150.522,99.1302,92.0585,0.000953646,0.0839361,20.9866,207.21,0.65887,0.0,0.0
296,73.75,19.1466,19.6051,152.318,99.133,92.9124,0.00100563,0.0839126,20.987,207.16,0.576928,0.0,0.0
300,74.75,19.1218,19.7458,152.672,99.1298,92.7296,0.00109316,0.0838321,20.9874,207.11,0.594165,0.0,0.0
304,75.75,19.0224,19.9303,156.692,99.1342,93.3991,0.00115958,0.0837634,20.9877,207.079,0.530522,0.0,0.0
308,76.75,19.1629,20.0874,149.994,99.1326,92.3345,0.00124582,0.0835468,20.988,207.039,0.632435,0.0,0.0
312,77.75,18.8342,19.5341,150.292,99.1262,92.4464,0.00130692,0.0833353,20.9882,206.999,0.621072,0.0,0.0
316,78.75,19.3185,20.041,153.289,99.1274,93.1354,0.00133781,0.0832203,20.9884,206.959,0.555081,0.0,0.0
320,79.75,18.7064,19.3228,149.599,99.1274,92.9467,0.00135098,0.0830998,20.989,206.899,0.573133,0.0,0.0
324,80.75,19.5412,19.8646,148.281,99.1181,92.6245,0.0013518,0.0829671,20.99,206.869,0.603219,0.0,0.0
328,81.75,19.5049,20.2835,152.619,99.1245,93.157,0.00133336,0.0828239,20.9906,206.809,0.552761,0.0,0.0
332,82.75,19.3136,19.7615,155.584,99.1177,92.9259,0.00130221,0.0826768,20.991,206.759,0.574257,0.0,0.0
336,83.75,18.6449,19.7122,153.024,99.1242,93.2147,0.00125278,0.0823793,20.9913,206.719,0.547217,0.0,0.0
340,84.75,19.2105,20.3079,150.006,99.127,92.7589,0.00118722,0.0820315,20.9915,206.689,0.591104,0.0,0.0
344,85.75,18.7315,20.1388,152.772,99.1133,92.474,0.0011199,0.081667,20.9916,206.629,0.617265,0.0,0.0
348,86.75,19.327,20.1208,151.264,99.0989,92.8272,0.00107094,0.0813119,20.9917,206.569,0.582031,0.0,0.0
352,87.75,18.9442,19.9718,150.869,99.0928,93.4797,0.00105832,0.0809936,20.9917,206.539,0.51913,0.0,0.0
356,88.75,19.2948,19.7062,153.394,99.088,92.8814,0.00107147,0.0807621,20.992,206.499,0.575854,0.0,0.0
360,89.75,19.339,20.3847,152.7,99.082,92.8386,0.00109908,0.0806101,20.9927,206.449,0.579418,0.0,0.0
364,90.75,18.9704,20.0422,155.941,99.074,93.2745,0.00113486,0.0804956,20.9932,206.409,0.537,0.0,0.0
368,91.75,19.0874,20.2547,153.552,99.0647,92.9599,0.00116632,0.0803843,20.9936,206.379,0.566246,0.0,0.0
372,92.75,19.0955,19.9275,152.097,99.0559,93.0921,0.00118732,0.0802094,20.9938,206.339,0.552793,0.0,0.0
376,93.75,19.1211,20.2626,152.393,99.0667,92.8598,0.0012075,0.0800946,20.9939,206.289,0.576014,0.0,0.0
380,94.75,19.2364,19.8983,151.15,99.045,92.2586,0.00123672,0.0800052,20.994,206.239,0.63189,0.0,0.0
384,95.75,18.9247,19.9738,152.793,99.0326,93.1596,0.00126197,0.0799633,20.9941,206.199,0.544256,0.0,0.0
388,96.75,19.3365,20.4975,151.78,99.025,93.6018,0.00127901,0.0799586,20.9941,206.149,0.501412,0.0,0.0
392,97.75,18.9641,19.8038,150.94,99.0033,92.5312,0.00129019,0.0799555,20.9941,206.119,0.601868,0.0,0.0
396,98.75,19.6674,20.2426,153.776,99.0057,92.7097,0.00130429,0.0798261,20.9941,206.089,0.584929,0.0,0.0
400,99.75,19.5373,20.2127,150.591,98.9888,93.0849,0.00129933,0.0797157,20.994,206.038,0.547454,0.0,0.0
404,100.75,19.4692,20.3039,151.627,98.9728,93.2253,0.00127234,0.0796714,20.994,206.008,0.532598,0.0,0.0
408,101.75,19.2734,20.3783,154.082,98.9704,92.9115,0.00123064,0.0796874,20.994,205.948,0.562393,0.0,0.0
412,102.75,19.3884,20.2793,154.365,98.9539,93.1583,0.00118411,0.0797521,20.9932,205.918,0.537299,0.0,0.0
416,103.75,19.6062,20.1435,149.854,98.9471,93.5869,0.00115358,0.0801769,20.9926,205.878,0.495816,0.0,0.0
420,104.75,19.533,20.5542,157.426,98.9326,93.2015,0.00114932,0.0806967,20.9923,205.838,0.531253,0.0,0.0
424,105.75,19.0699,20.2129,152.739,98.9173,93.2418,0.00116454,0.081159,20.9921,205.798,0.526033,0.0,0.0
428,106.75,19.2194,20.2242,153.824,98.9069,92.8975,0.00118579,0.0814939,20.9919,205.778,0.558024,0.0,0.0
432,107.75,19.5045,20.3619,148.936,98.8945,93.3525,0.00118847,0.0816881,20.9918,205.738,0.513413,0.0,0.0
436,108.75,19.402,19.8908,152.759,98.8788,92.9713,0.00116161,0.0817195,20.9917,205.698,0.548427,0.0,0.0
440,109.75,19.3824,20.3006,153.491,98.8619,92.6605,0.00107483,0.081559,20.9917,205.668,0.576716,0.0,0.0
444,110.75,19.6964,20.1107,152.966,98.8451,93.6399,0.000957819,0.0813624,20.9925,205.618,0.481595,0.0,0.0
448,111.75,19.2001,20.2717,152.955,98.8354,92.8009,0.000817566,0.0810549,20.9927,205.578,0.560856,0.0,0.0
452,112.75,19.2572,20.5578,152.576,98.8234,92.7118,0.000711662,0.0806494,20.9928,205.548,0.568317,0.0,0.0
456,113.75,19.0499,20.5813,153.536,98.8158,93.497,0.000673205,0.0803218,20.9929,205.498,0.492548,0.0,0.0
460,114.75,19.4828,20.3493,159.16,98.8065,93.0188,0.000692581,0.0800302,20.993,205.478,0.537371,0.0,0.0
464,115.75,19.5848,20.1267,153.021,98.7913,93.3241,0.000779727,0.0797241,20.993,205.438,0.506827,0.0,0.0
468,116.75,19.809,20.0154,152.885,98.772,93.595,0.000890632,0.079345,20.9935,205.408,0.479284,0.0,0.0
472,117.75,19.7307,20.5653,150.009,98.7627,93.3169,0.000967562,0.0789883,20.994,205.388,0.504945,0.0,0.0
476,118.75,19.6583,20.3913,155.361,98.7535,93.3092,0.00105611,0.0787537,20.9945,205.338,0.504841,0.0,0.0
480,119.75,19.8422,20.4537,150.418,98.735,93.5547,0.00112773,0.0786466,20.9948,205.318,0.479786,0.0,0.0
484,120.75,20.0777,20.8149,156.169,98.7089,93.5611,0.00117759,0.078577,20.9951,205.278,0.476826,0.0,0.0
488,121.75,19.9178,20.4412,150.364,98.7069,93.3024,0.00120306,0.0783598,20.9952,205.258,0.501287,0.0,0.0
492,122.75,19.6894,20.5468,155.839,98.6852,93.3711,0.00120603,0.0781664,20.9954,205.218,0.492781,0.0,0.0
496,123.75,19.2369,20.4297,153.034,98.6788,92.934,0.00117137,0.0780177,20.9958,205.188,0.533977,0.0,0.0
500,124.75,19.6989,20.7139,148.346,98.6595,93.174,0.00112161,0.0778671,20.996,205.168,0.50928,0.0,0.0
504,125.75,19.5259,20.6852,151.057,98.6459,93.0536,0.00106916,0.0776664,20.9962,205.128,0.51956,0.0,0.0
508,126.75,19.5213,20.7003,149.25,98.6475,93.2528,0.001041,0.0774345,20.9963,205.108,0.50066,0.0,0.0
512,127.75,19.4734,20.5021,151.937,98.6379,93.2066,0.00105674,0.0772694,20.9964,205.068,0.504204,0.0,0.0
516,128.75,19.6814,20.8118,153.49,98.6226,93.319,0.0011038,0.0771444,20.9964,205.048,0.492102,0.0,0.0
520,129.75,19.7726,20.9635,153.778,98.6174,93.7502,0.00119151,0.0770396,20.9965,204.997,0.450591,0.0,0.0
524,130.75,20.0229,20.5752,149.599,98.5997,93.1617,0.0012793,0.0769567,20.9965,204.977,0.505053,0.0,0.0
528,131.75,20.0628,20.7667,154.736,98.5869,93.7218,0.00134777,0.0768769,20.9965,204.957,0.450533,0.0,0.0
532,132.75,19.7069,20.458,154.687,98.5897,93.7777,0.00139168,0.0768132,20.9965,204.917,0.445473,0.0,0.0
536,133.75,19.9108,20.3857,150.847,98.576,93.2605,0.00142443,0.0768223,20.9965,204.897,0.493479,0.0,0.0
540,134.75,19.822,20.7748,153.407,98.564,93.0786,0.00145551,0.0768028,20.9965,204.857,0.509771,0.0,0.0
544,135.75,19.9585,20.7943,153.405,98.5587,93.168,0.00147159,0.0767298,20.9965,204.827,0.500747,0.0,0.0
548,136.75,19.589,20.0716,152.684,98.5515,93.319,0.0014438,0.0767861,20.9959,204.797,0.485684,0.0,0.0
552,137.75,19.8253,20.6128,150.351,98.5274,93.4881,0.00138389,0.0769356,20.9953,204.777,0.467382,0.0,0.0
556,138.75,19.9239,21.2525,149.309,98.5298,93.3152,0.00131872,0.0770373,20.9949,204.747,0.484089,0.0,0.0
560,139.75,19.9669,20.6708,152.401,98.5258,92.9645,0.00126892,0.0771401,20.9947,204.707,0.517239,0.0,0.0
564,140.75,19.8406,20.6993,152.565,98.4981,93.1574,0.00124977,0.0772043,20.9945,204.677,0.496281,0.0,0.0
568,141.75,19.4963,20.5191,150.237,98.4829,93.079,0.00125496,0.0772899,20.9944,204.657,0.502401,0.0,0.0
572,142.75,19.3851,20.3396,155.372,98.48,92.9086,0.00126141,0.0773567,20.9943,204.627,0.518464,0.0,0.0
576,143.75,19.71,20.6477,153.012,98.4704,92.8908,0.00130344,0.0773825,20.9943,204.597,0.519299,0.0,0.0
580,144.75,19.9475,20.9395,151.668,98.4584,92.9145,0.00136467,0.0775012,20.9942,204.577,0.515934,0.0,0.0
584,145.75,19.9811,20.6047,150.482,98.4447,93.313,0.0014583,0.0775626,20.9941,204.557,0.476595,0.0,0.0
588,146.75,19.5673,20.3517,150.582,98.4254,93.1451,0.00154949,0.0776194,20.9941,204.527,0.490885,0.0,0.0
592,147.75,19.9135,20.5795,155.547,98.4045,92.778,0.00163343,0.0776058,20.994,204.487,0.524158,0.0,0.0
596,148.75,19.9938,20.8888,147.842,98.3921,92.6067,0.00169389,0.0775968,20.994,204.467,0.539482,0.0,0.0
600,149.75,19.7915,20.6806,148.455,98.372,92.3684,0.00172714,0.0775508,20.994,204.427,0.560601,0.0,0.0
604,150.75,19.6961,20.4289,150.415,98.3612,92.8458,0.00171692,0.0774958,20.994,204.417,0.513727,0.0,0.0
608,151.75,20.228,20.815,152.804,98.3431,92.6135,0.00166792,0.0775285,20.994,204.387,0.534397,0.0,0.0
612,152.75,19.4006,20.6599,150.026,98.3274,91.5395,0.00157237,0.0775716,20.994,204.367,0.636814,0.0,0.0
616,153.75,19.4516,21.1235,149.83,98.2985,92.5312,0.00144929,0.0775998,20.9937,204.337,0.53827,0.0,0.0
620,154.75,19.8337,20.741,151.853,98.2905,92.6415,0.00133089,0.0776693,20.993,204.317,0.526944,0.0,0.0
624,155.75,20.2278,21.1363,152.782,98.2648,92.1267,0.00122222,0.0776894,20.9925,204.287,0.574215,0.0,0.0
628,156.75,19.8799,20.8538,153.685,98.252,92.7996,0.00114932,0.0777026,20.9922,204.247,0.508267,0.0,0.0
632,157.75,20.0758,20.628,152.105,98.2259,92.6351,0.00112811,0.0776912,20.992,204.237,0.521697,0.0,0.0
636,158.75,19.9514,20.4188,153.984,98.2086,92.563,0.00113022,0.0776984,20.9919,204.207,0.527062,0.0,0.0
640,159.75,20.0303,20.1669,150.177,98.1881,92.541,0.00112901,0.077807,20.9918,204.167,0.527325,0.0,0.0
644,160.75,19.9202,20.8471,148.61,98.1789,92.6058,0.00111175,0.077958,20.9917,204.167,0.52025,0.0,0.0
648,161.75,19.5786,20.4724,149.374,98.1484,92.1098,0.00108053,0.0779552,20.9917,204.127,0.565297,0.0,0.0
652,162.75,20.138,20.5885,148.893,98.1479,91.7706,0.00103611,0.0779279,20.9917,204.117,0.598104,0.0,0.0
656,163.75,19.511,20.6506,150.707,98.1275,91.7261,0.000993463,0.07791,20.9916,204.087,0.600565,0.0,0.0
660,164.75,19.7867,20.4164,150.55,98.0957,91.6366,0.000980401,0.0778219,20.9916,204.057,0.606374,0.0,0.0
664,165.75,20.1657,20.9241,151.504,98.0825,91.7405,0.00101252,0.0778042,20.9919,204.037,0.595086,0.0,0.0
668,166.75,20.2737,20.8274,151.384,98.062,92.3773,0.00107793,0.0777812,20.9926,204.007,0.531643,0.0,0.0
672,167.75,19.8241,20.6753,152.6,98.0544,92.1492,0.00113798,0.0777119,20.9931,203.977,0.55296,0.0,0.0
676,168.75,19.7104,20.636,150.812,98.0335,92.0996,0.00117738,0.0776155,20.9934,203.946,0.555857,0.0,0.0
680,169.75,19.6772,20.483,150.535,98.0078,91.9063,0.00118971,0.0775268,20.9936,203.926,0.572231,0.0,0.0
684,170.75,19.6835,20.5257,149.587,97.9889,92.2289,0.00118428,0.0775057,20.9937,203.906,0.539318,0.0,0.0
688,171.75,19.953,20.7571,149.568,97.9737,92.0581,0.0011683,0.0776265,20.9938,203.886,0.55444,0.0,0.0
692,172.75,20.1272,20.9872,152.357,97.9685,91.1249,0.00114576,0.0778281,20.9936,203.856,0.644669,0.0,0.0
696,173.75,19.8789,21.0045,150.298,97.9423,91.6727,0.00112457,0.0780089,20.9929,203.836,0.588941,0.0,0.0
700,174.75,20.3456,20.6809,153.424,97.9291,92.4176,0.00112078,0.0782178,20.9925,203.816,0.515688,0.0,0.0
704,175.75,20.1244,20.3475,151.208,97.9038,91.9368,0.00115217,0.0784567,20.9922,203.796,0.559823,0.0,0.0
708,176.75,20.3322,21.0768,155.61,97.895,91.5764,0.00121193,0.0785533,20.992,203.786,0.593985,0.0,0.0
712,177.75,20.057,20.8503,152.837,97.8817,92.1988,0.00126872,0.0785803,20.9919,203.766,0.532479,0.0,0.0
716,178.75,19.5,20.5666,151.105,97.8713,91.7795,0.00127934,0.0785646,20.9918,203.726,0.572108,0.0,0.0
720,179.75,20.0677,20.5836,148.693,97.8524,92.3472,0.00124008,0.0785113,20.9917,203.716,0.515495,0.0,0.0
724,180.75,19.8694,20.9193,156.613,97.8436,92.0063,0.00117366,0.078471,20.9917,203.696,0.547613,0.0,0.0
728,181.75,20.3471,20.517,151.484,97.8283,92.2866,0.00110777,0.0784002,20.9917,203.686,0.519148,0.0,0.0
732,182.75,19.9005,20.6196,149.208,97.8295,91.824,0.00106198,0.0782453,20.9916,203.636,0.563991,0.0,0.0
736,183.75,20.1107,20.5734,149.167,97.805,92.1963,0.0010491,0.0779909,20.9916,203.616,0.525746,0.0,0.0
740,184.75,19.8127,20.5668,150.051,97.8114,91.7456,0.00105375,0.0777732,20.9916,203.596,0.569955,0.0,0.0
744,185.75,19.797,20.6162,152.812,97.8002,91.9351,0.00111537,0.0777321,20.9916,203.576,0.550561,0.0,0.0
748,186.75,19.6996,20.8268,150.908,97.7958,91.9673,0.00121242,0.0776851,20.9916,203.546,0.547039,0.0,0.0
752,187.75,19.9545,20.5143,153.343,97.7861,91.7821,0.00130454,0.0776207,20.9916,203.546,0.564115,0.0,0.0
756,188.75,20.2801,20.7018,152.611,97.7845,91.682,0.00138784,0.0775483,20.9916,203.526,0.573679,0.0,0.0
760,189.75,19.8222,20.3426,155.982,97.7886,91.8338,0.00144333,0.0774827,20.9916,203.496,0.559319,0.0,0.0
764,190.75,20.1337,20.8755,149.952,97.7813,91.3212,0.00147468,0.0773888,20.9916,203.486,0.60849,0.0,0.0
768,191.75,19.9746,20.5664,150.38,97.7773,91.9389,0.00144112,0.0772254,20.9916,203.456,0.548107,0.0,0.0
772,192.75,20.2148,20.9535,153.694,97.7701,91.6629,0.00139294,0.0770673,20.9921,203.446,0.574216,0.0,0.0
776,193.75,20.2715,20.4748,152.352,97.7789,91.5353,0.00134006,0.0769073,20.9927,203.436,0.587422,0.0,0.0
780,194.75,19.8123,20.5345,148.676,97.7857,91.1677,0.00131184,0.0767346,20.9932,203.426,0.623867,0.0,0.0
784,195.75,19.9513,21.1663,151.649,97.7833,91.6188,0.0013093,0.0765671,20.9937,203.406,0.579705,0.0,0.0
788,196.75,19.6996,20.9831,152.886,97.7881,91.4132,0.00132568,0.0764827,20.9941,203.376,0.600148,0.0,0.0
792,197.75,20.1393,20.9797,147.434,97.7902,91.8902,0.0013274,0.0765488,20.9944,203.356,0.554,0.0,0.0
796,198.75,20.1306,21.2697,154.441,97.8038,91.9139,0.0013105,0.0767092,20.9932,203.336,0.552943,0.0,0.0
800,199.75,20.1458,21.0468,149.223,97.8199,91.342,0.00130315,0.0770798,20.9922,203.306,0.609975,0.0,0.0
804,200.75,20.0704,21.1549,152.343,97.8223,91.6311,0.00136242,0.0776824,20.991,203.296,0.582057,0.0,0.0
808,201.75,19.6492,20.64,152.615,97.8331,91.5917,0.00157571,0.0791072,20.9879,203.276,0.586875,0.0,0.0
812,202.75,19.8003,20.8168,154.109,97.8464,91.947,0.00201763,0.0813631,20.9799,204.267,0.553614,0.0,1.0
816,203.75,19.983,20.8992,144.429,97.8709,84.089,0.00275939,0.0872751,20.964,203.286,1.35116,0.0,1.0
820,204.75,20.1043,20.5867,150.217,97.8873,75.3067,0.00371387,0.0965433,20.9454,203.196,2.33466,0.0,1.0
824,205.75,19.9794,21.2413,149.216,97.8962,66.5027,0.00490973,0.109465,20.9187,203.116,3.44227,0.0,1.0
828,206.75,20.0236,21.3052,149.153,97.911,60.2592,0.00665893,0.126389,20.8916,203.056,4.32129,0.0,1.0
832,207.75,19.7178,21.1326,145.525,97.9263,49.1875,0.00865869,0.146763,20.8531,202.976,6.13003,0.0,0.0
836,208.75,19.884,21.5441,140.321,97.9476,41.9968,0.0106359,0.168953,20.8075,202.865,7.53897,0.0,0.0
840,209.75,20.6383,21.4567,140.426,97.9821,43.323,0.0124342,0.190451,20.7638,202.755,7.26532,0.0,0.0
844,210.75,20.6937,21.6999,138.193,97.9929,43.7957,0.0140067,0.208978,20.7281,202.675,7.16969,0.0,0.0
848,211.75,21.756,22.1512,145.9,98.0162,44.0387,0.0153268,0.224432,20.7011,202.565,7.12256,0.0,0.0
852,212.75,21.8992,22.6728,139.749,98.0287,44.8938,0.0163721,0.236951,20.682,202.475,6.95247,0.0,0.0
856,213.75,22.2495,22.8458,141.922,98.048,42.7358,0.0171574,0.246441,20.6694,202.385,7.3928,0.0,0.0
860,214.75,22.6503,23.0483,140.512,98.0769,45.6133,0.0176997,0.253148,20.6625,202.265,6.81531,0.0,0.0
864,215.75,23.0835,24.0498,141.391,98.1034,51.0581,0.0180293,0.257549,20.6591,202.195,5.81384,0.0,0.0
868,216.75,22.9569,23.7824,143.563,98.1263,46.7216,0.0181129,0.2601,20.6569,202.095,6.60607,0.0,0.0
872,217.75,23.8408,24.4106,147.112,98.152,48.1318,0.0179807,0.260953,20.6579,202.025,6.34368,0.0,0.0
876,218.75,24.2073,25.2012,141.82,98.1873,47.8697,0.0176678,0.259739,20.665,201.955,6.39548,0.0,0.0
880,219.75,24.636,25.3519,142.597,98.2126,54.9548,0.0172817,0.257021,20.6745,201.854,5.16898,0.0,0.0
884,220.75,24.1485,25.1257,147.004,98.2359,53.1975,0.0166559,0.25307,20.6839,201.784,5.46043,0.0,0.0
888,221.75,24.6616,25.5903,146.893,98.2748,59.6301,0.0160385,0.248391,20.6932,201.734,4.44775,0.0,0.0
892,222.75,25.1942,26.2551,142.412,98.303,58.6269,0.0153594,0.244021,20.7024,201.674,4.60133,0.0,0.0
896,223.75,25.8651,26.7505,142.819,98.3515,59.0984,0.0147414,0.240081,20.712,201.624,4.53443,0.0,0.0
900,224.75,25.6189,26.1047,141.74,98.3712,60.9368,0.014223,0.236286,20.72,201.544,4.2635,0.0,0.0
904,225.75,25.507,27.0652,149.533,98.3969,60.6641,0.0137547,0.232819,20.7265,201.484,4.30574,0.0,0.0
908,226.75,25.7368,27.6517,143.323,98.4411,65.4653,0.0134212,0.229688,20.7319,201.444,3.63166,0.0,0.0
912,227.75,26.5139,27.3114,143.373,98.4636,63.7554,0.0130002,0.227166,20.737,201.374,3.86931,0.0,0.0
916,228.75,26.0385,27.8701,144.984,98.4933,66.1636,0.0125625,0.224605,20.741,201.314,3.54193,0.0,0.0
920,229.75,27.0461,27.5313,141.342,98.5395,65.2618,0.0120811,0.221628,20.7477,201.274,3.66827,0.0,0.0
924,230.75,26.444,28.3968,141.939,98.5748,69.63,0.0115457,0.218316,20.7556,201.234,3.09468,0.0,0.0
928,231.75,26.9525,28.1924,146.035,98.5985,68.989,0.0109614,0.214375,20.7641,201.214,3.17916,0.0,0.0
932,232.75,26.9999,28.0952,148.385,98.6166,72.6263,0.0103621,0.209972,20.7735,201.164,2.72338,0.0,0.0
936,233.75,27.2603,28.0933,145.585,98.6443,73.7812,0.00974589,0.205141,20.7828,201.114,2.58543,0.0,0.0
940,234.75,27.1232,28.6956,144.686,98.6736,76.0228,0.00912549,0.200015,20.7925,201.084,2.32163,0.0,0.0
944,235.75,27.0336,28.4496,146.474,98.715,78.2529,0.00855831,0.195064,20.8003,201.044,2.06796,0.0,0.0
948,236.75,27.3663,28.5697,150.893,98.729,79.5045,0.00809049,0.190063,20.8086,201.004,1.92797,0.0,0.0
952,237.75,27.2689,29.1104,147.073,98.7579,83.2732,0.00757363,0.184239,20.818,200.984,1.51827,0.0,0.0
956,238.75,26.8831,28.4828,151.514,98.7937,82.8849,0.00707794,0.178153,20.8289,200.974,1.56311,0.0,0.0
960,239.75,27.3959,28.56,148.321,98.8105,86.7583,0.00663492,0.173035,20.8405,200.944,1.15801,0.0,0.0
964,240.75,27.2413,28.9037,147.104,98.8479,87.2998,0.00627831,0.16624,20.8503,200.904,1.10599,0.0,0.0
968,241.75,27.3977,28.6385,149.069,98.874,89.0385,0.00591507,0.160098,20.8625,200.874,0.932778,0.0,0.0
972,242.75,27.3708,28.8239,147.907,98.9001,89.5909,0.00558294,0.154332,20.8736,200.823,0.880062,0.0,0.0
976,243.75,27.104,28.5438,153.046,98.9338,90.9617,0.00528385,0.148346,20.8834,200.823,0.747923,0.0,0.0
980,244.75,27.0548,28.6919,150.572,98.9587,91.4564,0.00504047,0.14273,20.8947,200.843,0.701871,0.0,0.0
984,245.75,27.0986,28.3639,151.537,98.9965,92.3387,0.00482811,0.137379,20.904,200.793,0.619793,0.0,0.0
988,246.75,26.9729,28.4371,149.494,99.025,93.8239,0.00462928,0.132723,20.9125,200.773,0.480306,0.0,0.0
992,247.75,27.0198,28.2671,154.336,99.0539,94.9954,0.00447755,0.128173,20.9193,200.783,0.372441,0.0,0.0
996,248.75,26.6034,28.3165,149.686,99.0804,94.1572,0.00431548,0.123599,20.9255,200.773,0.453723,0.0,0.0
1000,249.75,26.6861,28.1235,152.88,99.1065,95.5652,0.00416928,0.119856,20.9329,200.773,0.323925,0.0,0.0
1004,250.75,26.6409,28.2982,151.589,99.149,94.6884,0.00402277,0.115592,20.9393,200.763,0.409803,0.0,0.0
1008,251.75,26.6085,27.9979,153.494,99.1611,95.6593,0.00387161,0.111657,20.9459,200.733,0.320066,0.0,0.0
1012,252.75,26.2843,27.9286,148.786,99.1832,95.3112,0.00372163,0.107959,20.9519,200.753,0.354503,0.0,0.0
1016,253.75,26.4864,28.1486,151.786,99.2209,95.5427,0.00358607,0.104464,20.9574,200.753,0.336293,0.0,0.0
1020,254.75,25.8476,27.5569,147.028,99.2362,95.6585,0.00344153,0.101092,20.963,200.733,0.326884,0.0,0.0
1024,255.75,26.2484,27.7121,149,99.2631,95.2125,0.00330307,0.0978447,20.9676,200.723,0.370904,0.0,0.0
1028,256.75,26.0555,27.7319,155.374,99.2804,95.5139,0.00319376,0.0949875,20.9714,200.713,0.344311,0.0,0.0
1032,257.75,25.8326,27.3044,155.076,99.3053,96.0061,0.00312292,0.0924851,20.9743,200.723,0.300781,0.0,0.0
1036,258.75,25.5702,26.7876,154.615,99.345,95.6975,0.00309074,0.0902136,20.977,200.723,0.333011,0.0,0.0
1040,259.75,25.8775,27.2106,147.11,99.3502,95.7573,0.00309704,0.0884696,20.9792,200.723,0.32792,0.0,0.0
1044,260.75,25.2157,26.914,150.434,99.382,95.8624,0.00316394,0.0868658,20.9806,200.733,0.320992,0.0,0.0
1048,261.75,25.7288,27.0697,149.219,99.4012,96.0324,0.00322738,0.0854717,20.9807,200.723,0.306943,0.0,0.0
1052,262.75,25.6974,27.0353,151.746,99.4498,96.3826,0.00326685,0.084465,20.9807,200.693,0.278888,0.0,0.0
1056,263.75,24.5294,26.277,149.087,99.4522,96.64,0.00326315,0.0833965,20.9824,200.673,0.255365,0.0,0.0
1060,264.75,24.5952,26.0516,149.493,99.4747,96.6082,0.00323642,0.0824544,20.9835,200.613,0.260307,0.0,0.0
1064,265.75,25.0769,26.032,149.492,99.4852,96.4789,0.0032095,0.0816308,20.9842,200.613,0.273166,0.0,0.0
1068,266.75,24.4995,26.2531,150.391,99.5064,96.629,0.00318861,0.0810125,20.9846,200.633,0.261232,0.0,0.0
1072,267.75,24.191,25.8954,150.709,99.5301,96.4475,0.0031749,0.0805961,20.9849,200.673,0.280084,0.0,0.0
1076,268.75,24.0086,25.668,150.496,99.5434,96.6527,0.0031712,0.0802827,20.9851,200.643,0.26235,0.0,0.0
1080,269.75,24.2041,25.762,151.087,99.5611,97.0945,0.00318565,0.0800099,20.9853,200.663,0.223329,0.0,0.0
1084,270.75,24.4461,25.2675,153.66,99.5908,96.5497,0.00321111,0.079778,20.9856,200.663,0.27608,0.0,0.0
1088,271.75,24.2919,25.7834,150.548,99.5908,97.393,0.00323919,0.0796077,20.9864,200.663,0.198661,0.0,0.0
1092,272.75,23.9901,25.4593,152.59,99.6032,97.0296,0.00326397,0.0795362,20.9869,200.663,0.233048,0.0,0.0
1096,273.75,23.7759,25.0764,151.535,99.6233,97.1988,0.00327999,0.0795402,20.9872,200.653,0.219335,0.0,0.0
1100,274.75,23.7138,24.8257,154.689,99.6261,97.262,0.00328948,0.0795536,20.9874,200.633,0.213802,0.0,0.0
1104,275.75,23.5077,24.6952,150.787,99.6438,97.6313,0.0032866,0.0794821,20.9876,200.623,0.181645,0.0,0.0
1108,276.75,23.0828,25.2643,152.307,99.6562,97.3459,0.00325967,0.0794337,20.9877,200.613,0.208813,0.0,0.0
1112,277.75,23.3544,24.8773,151.072,99.6731,96.9605,0.00321242,0.0794495,20.9878,200.603,0.245635,0.0,0.0
1116,278.75,23.3268,25.0973,152.156,99.6799,96.9669,0.00317067,0.0795082,20.9876,200.593,0.245661,0.0,0.0
1120,279.75,23.2736,24.6351,150.9375,99.692,97.1674,0.00315044,0.0795018,20.9869,200.593,0.228344,0.0,0.0
1124,280.75,23.5381,24.5625,155.771,99.702,97.0585,0.00315913,0.0794446,20.9864,200.563,0.239229,0.0,0.0
1128,281.75,22.8626,24.5373,151.649,99.7177,97.1615,0.00318862,0.079389,20.9861,200.583,0.231183,0.0,0.0
1132,282.75,22.9554,24.2674,153.049,99.7265,97.3866,0.00323864,0.0794289,20.9863,200.603,0.211367,0.0,0.0
1136,283.75,23.3463,24.6443,151.833,99.7422,97.2255,0.00331634,0.0795316,20.987,200.593,0.227504,0.0,0.0
1140,284.75,22.7432,24.1764,149.942,99.7474,97.2476,0.00339576,0.0796792,20.9875,200.563,0.225953,0.0,0.0
1144,285.75,23.0715,24.4211,151.459,99.7598,97.3544,0.00346743,0.0797977,20.9876,200.573,0.217287,0.0,0.0
1148,286.75,23.1353,24.2221,148.82,99.7522,97.3896,0.00352221,0.0801558,20.9871,200.563,0.21339,0.0,0.0
1152,287.75,22.2957,24.1003,150.731,99.7671,97.3921,0.00357722,0.0805693,20.9868,200.563,0.214484,0.0,0.0
1156,288.75,22.6211,24.3823,152.463,99.7907,97.3103,0.00364406,0.080917,20.9866,200.553,0.22408,0.0,0.0
1160,289.75,22.1069,23.6522,150.794,99.7851,97.1886,0.0037779,0.0811652,20.9864,200.553,0.234717,0.0,0.0
1164,290.75,22.6011,23.7927,148.497,99.7956,97.6919,0.00390003,0.0813938,20.9864,200.543,0.189669,0.0,0.0
1168,291.75,22.4137,24.065,154.052,99.7831,97.1886,0.00398358,0.0815822,20.9863,200.533,0.234538,0.0,0.0
1172,292.75,22.1259,23.909,155.164,99.8112,97.2705,0.00398745,0.0817601,20.9863,200.523,0.229553,0.0,0.0
1176,293.75,22.171,23.6155,147.978,99.816,97.3904,0.00397059,0.0819789,20.986,200.503,0.219009,0.0,0.0
1180,294.75,22.2031,23.9589,151.08,99.8,97.4337,0.00395902,0.0823995,20.9852,200.523,0.213624,0.0,0.0
1184,295.75,22.0816,24.1625,153.623,99.7915,97.9565,0.00396762,0.0826399,20.9848,200.523,0.165235,0.0,0.0
1188,296.75,22.3354,24.2345,152.793,99.8112,97.705,0.0040237,0.0829427,20.9844,200.513,0.189868,0.0,0.0
1192,297.75,22.0567,23.9533,147.863,99.8072,97.2196,0.0041065,0.0832032,20.9838,200.503,0.233853,0.0,0.0
1196,298.75,22.0793,23.6404,148.073,99.8152,97.1899,0.00416595,0.0834696,20.983,200.513,0.237287,0.0,0.0
1200,299.75,21.9617,23.1828,151.551,99.8136,97.591,0.00418756,0.0837797,20.9822,200.493,0.200481,0.0,0.0
1204,300.75,21.749,23.1004,153.143,99.8197,97.5299,0.0041859,0.084161,20.9812,200.483,0.206589,0.0,0.0
1208,301.75,22.3696,23.7006,148.847,99.8176,97.2365,0.00418782,0.0844474,20.9805,200.483,0.233231,0.0,0.0
1212,302.75,21.9887,23.5998,153.292,99.808,97.1093,0.00419317,0.0846608,20.98,200.473,0.244024,0.0,0.0
1216,303.75,22.0607,23.2453,151.009,99.8112,97.4829,0.00423328,0.0848814,20.9797,200.453,0.210134,0.0,0.0
1220,304.75,21.7787,22.8411,150.554,99.8068,97.4651,0.00430767,0.0851081,20.9795,200.453,0.211366,0.0,0.0
1224,305.75,22.0091,23.274,151.291,99.8116,97.4757,0.00441604,0.0853578,20.9794,200.433,0.210828,0.0,0.0
1228,306.75,21.3925,23.2979,150.806,99.8165,97.2035,0.00451582,0.0856348,20.9793,200.423,0.236152,0.0,0.0
1232,307.75,22.0093,23.0957,153.094,99.7968,97.8823,0.00465589,0.0859327,20.9792,200.443,0.172446,0.0,0.0
1236,308.75,21.4546,22.835,154.687,99.8104,97.5613,0.00475719,0.0861463,20.9792,200.433,0.202902,0.0,0.0
1240,309.75,21.6165,22.8787,147.262,99.8056,97.8492,0.00481876,0.0863871,20.9792,200.433,0.176241,0.0,0.0
1244,310.75,21.5333,23.2599,149.89,99.7984,98.0722,0.00487819,0.0866527,20.9791,200.423,0.15533,0.0,0.0
1248,311.75,21.6924,22.5976,150.772,99.7992,97.5494,0.00496052,0.086877,20.9791,200.443,0.202982,0.0,0.0
1252,312.75,21.4121,22.7668,151.073,99.7996,97.6779,0.00504584,0.0870693,20.9783,200.423,0.191303,0.0,0.0
1256,313.75,21.696,23.0232,151.982,99.7855,97.502,0.00512368,0.0872498,20.9778,200.403,0.206099,0.0,0.0
1260,314.75,21.0531,22.6512,153.136,99.7807,97.6296,0.00517638,0.0874489,20.9774,200.403,0.194025,0.0,0.0
1264,315.75,21.5266,22.8675,154.617,99.7719,97.1026,0.00521162,0.087581,20.9772,200.403,0.241423,0.0,0.0
1268,316.75,21.474,22.9194,152.775,99.7807,97.6355,0.00523638,0.0877227,20.977,200.373,0.193484,0.0,0.0
1272,317.75,21.1161,23.0068,151.347,99.7683,97.6482,0.00525262,0.0879327,20.9769,200.333,0.191213,0.0,0.0
1276,318.75,20.7917,22.3281,151.119,99.7606,97.0682,0.00525868,0.0881379,20.9769,200.343,0.243568,0.0,0.0
1280,319.75,21.4797,22.5545,154.253,99.7602,97.3739,0.00525805,0.0882551,20.9768,200.353,0.215541,0.0,0.0
1284,320.75,21.4296,22.6209,151.056,99.749,97.1322,0.00527604,0.0883233,20.9768,200.323,0.236659,0.0,0.0
1288,321.75,21.3297,22.3608,151.658,99.7325,97.34,0.00531321,0.0884092,20.9763,200.323,0.21617,0.0,0.0
1292,322.75,20.5,21.5768,150.009,99.7249,97.5795,0.00535842,0.0886125,20.9757,200.333,0.193606,0.0,0.0
1296,323.75,21.4015,22.1011,149.489,99.7241,97.7114,0.0053994,0.0889274,20.9752,200.323,0.181514,0.0,0.0
1300,324.75,20.9262,22.1696,153.778,99.6956,97.4061,0.00548007,0.0891339,20.9749,200.333,0.206824,0.0,0.0
1304,325.75,20.712,22.1367,147.262,99.7012,97.937,0.00556555,0.0893206,20.9748,200.303,0.158944,0.0,0.0
1308,326.75,21.7001,22.5886,153.287,99.6948,97.2539,0.00563656,0.089544,20.9746,200.303,0.220674,0.0,0.0
1312,327.75,21.3589,22.6411,154.148,99.6679,97.1365,0.00565696,0.0897983,20.9737,200.283,0.229028,0.0,0.0
1316,328.75,21.5587,22.4231,152.861,99.6755,97.5287,0.00563441,0.0899868,20.9732,200.293,0.193839,0.0,0.0
1320,329.75,21.309,22.328,146.201,99.6558,96.9364,0.00556241,0.0901389,20.9727,200.273,0.246312,0.0,0.0
1324,330.75,21.1601,21.5691,151.881,99.6466,97.5927,0.00546883,0.0903039,20.9722,200.273,0.185414,0.0,0.0
1328,331.75,21.3864,22.5673,149.226,99.6482,97.8204,0.00534767,0.0904466,20.972,200.273,0.164813,0.0,0.0
1332,332.75,20.9672,22.3226,151.135,99.6357,97.1865,0.00526359,0.0905146,20.9718,200.263,0.221574,0.0,0.0
1336,333.75,20.9367,22.0832,154.209,99.6,97.5287,0.0052229,0.0906198,20.9712,200.263,0.187094,0.0,0.0
1340,334.75,20.9222,22.5122,150.209,99.6004,97.6313,0.00521822,0.090772,20.9704,200.243,0.17777,0.0,0.0
1344,335.75,21.2205,22.2093,148.329,99.5868,97.9454,0.0052327,0.0910652,20.97,200.253,0.147947,0.0,0.0
1348,336.75,21.0972,22.1013,150.612,99.5703,97.401,0.00524561,0.0913376,20.9701,200.233,0.196094,0.0,0.0
1352,337.75,20.7366,22.3813,153.23,99.5522,96.9724,0.00525006,0.0914899,20.9705,200.233,0.233743,0.0,0.0
1356,338.75,20.7714,22.0422,152.479,99.5438,97.2005,0.00523987,0.0914808,20.97,200.223,0.212072,0.0,0.0
1360,339.75,20.9692,22.1262,153.301,99.5297,97.2535,0.00522235,0.0913979,20.9697,200.203,0.205962,0.0,0.0
1364,340.75,20.9973,22.0363,151.278,99.5237,97.3154,0.00520635,0.0913436,20.9703,200.203,0.19976,0.0,0.0
1368,341.75,20.9402,21.9141,154.503,99.5024,97.3218,0.00520073,0.0913483,20.9698,200.173,0.197273,0.0,0.0
1372,342.75,21.2083,21.8717,150.247,99.4884,97.5274,0.00521314,0.0914228,20.9696,200.153,0.177226,0.0,0.0
1376,343.75,20.8198,22.0633,150.46,99.4747,97.5168,0.00522358,0.091488,20.9694,200.173,0.176972,0.0,0.0
1380,344.75,20.6173,22.4725,147.963,99.4562,97.1373,0.00522408,0.0915449,20.9693,200.183,0.210028,0.0,0.0
1384,345.75,20.9217,22.3861,154.136,99.4426,97.1293,0.00521165,0.0916235,20.9692,200.173,0.209543,0.0,0.0
1388,346.75,21.0707,22.1081,153.063,99.4322,96.8783,0.00517955,0.0917477,20.9691,200.163,0.231644,0.0,0.0
1392,347.75,20.8208,22.1808,151.207,99.4113,97.1115,0.00512506,0.0918292,20.9693,200.153,0.208372,0.0,0.0
1396,348.75,20.7176,22.2563,148.888,99.4137,96.9436,0.00506629,0.0917034,20.97,200.143,0.223993,0.0,0.0
1400,349.75,20.2389,22.1038,147.296,99.3735,96.42,0.00503806,0.0916209,20.9705,200.143,0.268611,0.0,0.0
1404,350.75,20.8003,22.1528,148.565,99.3498,97.0237,0.00504558,0.0916179,20.9708,200.143,0.210916,0.0,0.0
1408,351.75,20.6801,21.9949,147.567,99.3462,97.0067,0.00508147,0.0916928,20.9705,200.123,0.212149,0.0,0.0
1412,352.75,20.4944,21.8579,149.983,99.3326,96.9576,0.00508965,0.0918188,20.97,200.133,0.215441,0.0,0.0
1416,353.75,20.6293,21.3231,151.094,99.3125,96.5306,0.00504354,0.0919217,20.9699,200.113,0.252929,0.0,0.0
1420,354.75,20.9664,21.4254,148.678,99.3045,96.9779,0.00496376,0.0919946,20.9698,200.113,0.211052,0.0,0.0
1424,355.75,20.5245,21.7486,155.147,99.2856,97.9001,0.00485535,0.0921962,20.969,200.093,0.125108,0.0,0.0
1428,356.75,20.8437,21.8374,147.02,99.2703,96.4657,0.00472074,0.0923688,20.9684,200.103,0.255134,0.0,0.0
1432,357.75,20.7741,21.2967,151.186,99.2539,96.9911,0.00458857,0.0924929,20.968,200.103,0.205309,0.0,0.0
1436,358.75,20.6764,21.6142,148.849,99.2382,96.891,0.00448924,0.0925541,20.9678,200.083,0.213093,0.0,0.0
1440,359.75,20.8589,21.48,152.194,99.2245,97.1238,0.00444592,0.0925687,20.9676,200.073,0.190507,0.0,0.0
1444,360.75,20.201,21.4876,160.153,99.2017,97.3883,0.00446218,0.0925304,20.9675,200.053,0.164237,0.0,0.0
1448,361.75,20.0194,21.1256,152.011,99.186,96.3852,0.00451916,0.0924708,20.9675,200.023,0.255004,0.0,0.0
1452,362.75,20.3602,21.898,154.244,99.1623,97.237,0.00457147,0.0924797,20.9674,200.023,0.17455,0.0,0.0
1456,363.75,20.7779,21.231,155.713,99.1539,96.8414,0.00464489,0.0925475,20.9674,200.033,0.210084,0.0,0.0
1460,364.75,20.7643,22.0003,150.854,99.1434,96.6252,0.00468588,0.0926102,20.9674,200.023,0.229047,0.0,0.0
1464,365.75,20.434,21.9399,154.345,99.131,96.9084,0.00471656,0.0926224,20.9674,200.053,0.201873,0.0,0.0
1468,366.75,20.8663,21.6571,155.717,99.1193,97.3247,0.00471849,0.092656,20.9674,200.013,0.16266,0.0,0.0
1472,367.75,20.7053,21.4841,147.227,99.1069,96.7837,0.00470271,0.0926983,20.9673,200.023,0.211167,0.0,0.0
1476,368.75,20.5732,21.826,150.87,99.0932,97.0572,0.00467324,0.092786,20.9673,200.013,0.184821,0.0,0.0
1480,369.75,20.6115,22.1021,150.003,99.0808,96.6943,0.00463912,0.0928691,20.9673,200.013,0.217054,0.0,0.0
1484,370.75,20.4116,21.3527,151.084,99.0732,96.6358,0.00461059,0.0928724,20.9673,200.003,0.221757,0.0,0.0
1488,371.75,20.2596,21.9762,152.618,99.0551,96.8749,,0.0927209,,200.013,0.198131,0.0,0.0
1492,372.75,21.044,21.4894,152.814,99.0458,96.618,,0.0926214,,199.983,0.220944,0.0,0.0
1496,373.75,20.5783,21.6131,152.047,99.0462,95.9421,,0.092633,,199.963,0.28347,0.0,0.0
1500,374.75,20.4986,21.4592,155.561,99.029,96.0617,,,,199.963,0.27083,0.0,0.0
1504,375.75,20.2056,21.468,150.064,99.0226,96.509,,,,199.953,0.228896,0.0,0.0
1508,376.75,20.559,21.7619,151.798,99.0113,96.7604,,,,199.933,0.204723,0.0,0.0
1512,377.75,20.5236,21.4251,152.137,99.0073,96.908,,,,199.943,0.190797,0.0,0.0
1516,378.75,20.7691,21.5917,151.391,99.0467,96.4869,,,,199.913,0.233096,0.0,0.0
1520,379.75,20.3862,21.565,148.9,99.0711,97.1178,,,,199.903,0.177277,0.0,0.0
1524,380.75,20.3648,21.6966,151.734,99.0984,96.76,,,,199.923,0.212593,0.0,0.0
1528,381.75,20.4952,21.2165,153.02,99.135,97.0572,,,,199.923,0.188572,0.0,0.0
1529,382,20.5321,21.0913,148.843,99.1366,96.9495,,,,199.913,0.1986,0.0,0.0