File: 01_Data/Wool_Rug/STA/N2/10K_min/Wool_Rug_STA_N2_10KData_220114_R1.csv
##Temp./Â°C,Time/min,Mass loss(subtr.2)/mg,DSC(subtr.2)/(mW/mg),Sensit./(uV/mW)
49.142,10.01,-0.0409,0.0313994,1.07448
49.842,10.76486,-0.04125414,0.06735526,1.07443
50.542,10.96963,-0.03915873,0.09293064,1.07438
51.242,11.1222,-0.04155935,0.1132,1.07433
51.942,11.25178,-0.0424615,0.13024,1.07428
52.642,11.36802,-0.04065015,0.146,1.07423
53.342,11.47475,-0.04187769,0.15883,1.07418
54.042,11.57516,-0.04366197,0.16752,1.07412
54.742,11.671,-0.04304323,0.17822,1.07406
55.442,11.76277,-0.04450993,0.18728,1.07401
56.142,11.85184,-0.04422194,0.19497,1.07395
56.842,11.93852,-0.04440176,0.20295,1.07389
57.542,12.0231,-0.04350627,0.20869,1.07383
58.242,12.10636,-0.04318475,0.21585,1.07377
58.942,12.1886,-0.04426059,0.21813,1.0737
59.642,12.26976,-0.04715009,0.22549,1.07364
60.342,12.34952,-0.0457246,0.22819,1.07357
61.042,12.4291,-0.04440642,0.23383,1.07351
61.742,12.5077,-0.0444,0.23583,1.07344
62.442,12.58624,-0.04588865,0.24081,1.07337
63.142,12.66423,-0.04497265,0.24187,1.0733
63.842,12.74201,-0.04614885,0.24778,1.07323
64.542,12.81909,-0.04707441,0.25367,1.07316
65.242,12.89574,-0.04711171,0.25661,1.07309
65.942,12.97219,-0.0473158,0.25887,1.07301
66.642,13.04884,-0.04712766,0.2647,1.07294
67.342,13.12488,-0.04715634,0.26631,1.07286
68.042,13.2005,-0.0484622,0.26913,1.07278
68.742,13.2755,-0.052201,0.27327,1.0727
69.442,13.3507,-0.05240932,0.27777,1.07262
70.142,13.42535,-0.05106635,0.28196,1.07254
70.842,13.49966,-0.05110998,0.28382,1.07246
71.542,13.57346,-0.05200756,0.28725,1.07238
72.242,13.6477,-0.04999455,0.29113,1.07229
72.942,13.7218,-0.05460655,0.29557,1.0722
73.642,13.7957,-0.05317505,0.29548,1.07212
74.342,13.8693,-0.05169548,0.30156,1.07203
75.042,13.9429,-0.0523261,0.3004,1.07194
75.742,14.0162,-0.05475224,0.30629,1.07185
76.442,14.08949,-0.05636937,0.31079,1.07176
77.142,14.1627,-0.05539248,0.31203,1.07167
77.842,14.23586,-0.05668394,0.31637,1.07157
78.542,14.309,-0.05670653,0.31834,1.07148
79.242,14.38154,-0.05657443,0.31913,1.07138
79.942,14.45391,-0.05538981,0.32316,1.07128
80.642,14.52585,-0.05674158,0.32427,1.07119
81.342,14.5977,-0.05805988,0.32617,1.07109
82.042,14.66961,-0.05610013,0.32876,1.07099
82.742,14.7415,-0.06004186,0.33168,1.07088
83.442,14.81318,-0.05876298,0.33262,1.07078
84.142,14.8845,-0.05895335,0.33514,1.07068
84.842,14.95584,-0.06021002,0.33853,1.07057
85.542,15.02699,-0.06150598,0.3411,1.07047
86.242,15.0981,-0.06283183,0.34348,1.07036
86.942,15.1684,-0.06412732,0.34501,1.07025
87.642,15.23896,-0.06690205,0.34346,1.07014
88.342,15.3095,-0.06821077,0.3458,1.07003
89.042,15.38035,-0.06689865,0.34381,1.06992
89.742,15.4507,-0.06864136,0.34549,1.0698
90.442,15.52072,-0.06815258,0.34709,1.06969
91.142,15.59061,-0.06367129,0.34489,1.06958
91.842,15.66063,-0.0640437,0.34525,1.06946
92.542,15.73064,-0.06705811,0.34604,1.06934
93.242,15.80047,-0.06602215,0.34583,1.06922
93.942,15.87009,-0.06733999,0.34356,1.0691
94.642,15.9394,-0.06733984,0.34455,1.06898
95.342,16.0087,-0.06866171,0.34484,1.06886
96.042,16.07791,-0.06866011,0.3435,1.06874
96.742,16.14695,-0.06995417,0.34317,1.06861
97.442,16.21594,-0.07136612,0.34208,1.06849
98.142,16.28494,-0.07128987,0.34152,1.06836
98.842,16.3542,-0.06999337,0.33823,1.06823
99.542,16.4233,-0.07286256,0.33893,1.0681
100.242,16.4919,-0.07020179,0.33666,1.06797
100.942,16.5606,-0.07200721,0.3349,1.06784
101.642,16.6295,-0.07303999,0.33286,1.06771
102.342,16.6985,-0.07304005,0.33377,1.06758
103.042,16.7675,-0.0742464,0.33115,1.06744
103.742,16.8362,-0.07532258,0.32831,1.06731
104.442,16.90491,-0.07534992,0.32824,1.06717
105.142,16.97342,-0.07461951,0.32807,1.06703
105.842,17.0422,-0.07605498,0.3275,1.0669
106.542,17.111,-0.07600583,0.32336,1.06676
107.242,17.1797,-0.07469194,0.32366,1.06662
107.942,17.24832,-0.07333547,0.32287,1.06647
108.642,17.317,-0.07437365,0.31814,1.06633
109.342,17.38551,-0.07707536,0.31735,1.06619
110.042,17.45372,-0.07896262,0.31729,1.06604
110.742,17.5221,-0.07963004,0.31622,1.06589
111.442,17.59055,-0.07963,0.31241,1.06575
112.142,17.65844,-0.07963259,0.31055,1.0656
112.842,17.72697,-0.07816988,0.30844,1.06545
113.542,17.79562,-0.07792331,0.31174,1.0653
114.242,17.86511,-0.07831001,0.30857,1.06514
114.942,17.93344,-0.07965049,0.30482,1.06499
115.642,18.00205,-0.08093997,0.30571,1.06484
116.342,18.07048,-0.07925529,0.30263,1.06468
117.042,18.13879,-0.07954887,0.30174,1.06452
117.742,18.20699,-0.0811736,0.30068,1.06437
118.442,18.2751,-0.08248012,0.30078,1.06421
119.142,18.34367,-0.08110745,0.29871,1.06405
119.842,18.4119,-0.08034942,0.2957,1.06389
120.542,18.4804,-0.07850779,0.29725,1.06373
121.242,18.54866,-0.07766406,0.2939,1.06356
121.942,18.6168,-0.07721002,0.29398,1.0634
122.642,18.6849,-0.07805774,0.29111,1.06323
123.342,18.75299,-0.07962262,0.29099,1.06307
124.042,18.82125,-0.08083127,0.29183,1.0629
124.742,18.88941,-0.0798367,0.29044,1.06273
125.442,18.9575,-0.08228659,0.29105,1.06256
126.142,19.02574,-0.08414937,0.29025,1.06239
126.842,19.09379,-0.08579592,0.29114,1.06222
127.542,19.1619,-0.08491832,0.2876,1.06205
128.242,19.2295,-0.08471554,0.28961,1.06187
128.942,19.2977,-0.08434603,0.28814,1.0617
129.642,19.36587,-0.0830246,0.28717,1.06152
130.342,19.43414,-0.08237135,0.28934,1.06134
131.042,19.5019,-0.08286925,0.28704,1.06117
131.742,19.56963,-0.08499872,0.28777,1.06099
132.442,19.63765,-0.08347179,0.2856,1.06081
133.142,19.70565,-0.08260923,0.28601,1.06062
133.842,19.7734,-0.08149075,0.2881,1.06044
134.542,19.84104,-0.08280158,0.2842,1.06026
135.242,19.90854,-0.0841295,0.28476,1.06007
135.942,19.9762,-0.08412951,0.28826,1.05989
136.642,20.04389,-0.08416008,0.28663,1.0597
137.342,20.11153,-0.08202271,0.28485,1.05951
138.042,20.17935,-0.08148844,0.28445,1.05932
138.742,20.24704,-0.08557294,0.28563,1.05913
139.442,20.3148,-0.08719122,0.28522,1.05894
140.142,20.38243,-0.08629801,0.28656,1.05875
140.842,20.45008,-0.08467692,0.28487,1.05855
141.542,20.5177,-0.08640707,0.28784,1.05836
142.242,20.58512,-0.08663982,0.2846,1.05816
142.942,20.6528,-0.0866541,0.28686,1.05797
143.642,20.72046,-0.08940208,0.28618,1.05777
144.342,20.78796,-0.08694443,0.28642,1.05757
145.042,20.85545,-0.08565741,0.28828,1.05737
145.742,20.92277,-0.08826959,0.28781,1.05717
146.442,20.9902,-0.08828426,0.28831,1.05697
147.142,21.0576,-0.08686984,0.29057,1.05676
147.842,21.12481,-0.08680877,0.29074,1.05656
148.542,21.1922,-0.0855561,0.29176,1.05635
149.242,21.2595,-0.08686031,0.29131,1.05615
149.942,21.32702,-0.08804932,0.29056,1.05594
150.642,21.39411,-0.08685629,0.29047,1.05573
151.342,21.4612,-0.08686,0.29135,1.05552
152.042,21.52851,-0.08685754,0.29375,1.05531
152.742,21.596,-0.08818197,0.29477,1.0551
153.442,21.66354,-0.08688909,0.29413,1.05489
154.142,21.73084,-0.08420769,0.29285,1.05467
154.842,21.79811,-0.08422978,0.29275,1.05446
155.542,21.86534,-0.08559236,0.29502,1.05424
156.242,21.93262,-0.0868734,0.29584,1.05403
156.942,21.99989,-0.08817393,0.29687,1.05381
157.642,22.0671,-0.08937598,0.29703,1.05359
158.342,22.13443,-0.08945949,0.29761,1.05337
159.042,22.20146,-0.08803353,0.29898,1.05315
159.742,22.26867,-0.08544019,0.29847,1.05292
160.442,22.33576,-0.08534487,0.29934,1.0527
161.142,22.40292,-0.08816353,0.29886,1.05248
161.842,22.47,-0.0884,0.30059,1.05225
162.542,22.53722,-0.08915531,0.3016,1.05202
163.242,22.60441,-0.08801614,0.30026,1.0518
163.942,22.6715,-0.0890608,0.30474,1.05157
164.642,22.73855,-0.08906,0.30222,1.05134
165.342,22.80591,-0.08906005,0.30537,1.05111
166.042,22.87321,-0.08941619,0.30688,1.05088
166.742,22.94041,-0.08938442,0.30556,1.05064
167.442,23.00734,-0.08881782,0.30377,1.05041
168.142,23.0744,-0.0895911,0.30489,1.05018
168.842,23.1416,-0.09224484,0.30863,1.04994
169.542,23.20885,-0.09083897,0.30864,1.0497
170.242,23.276,-0.08760976,0.30857,1.04946
170.942,23.34305,-0.08679581,0.3099,1.04923
171.642,23.40991,-0.08718242,0.31012,1.04898
172.342,23.47683,-0.08831098,0.30882,1.04874
173.042,23.5439,-0.08953111,0.31122,1.0485
173.742,23.61083,-0.08820886,0.3132,1.04826
174.442,23.678,-0.08950011,0.31034,1.04801
175.142,23.745,-0.0895,0.31158,1.04777
175.842,23.81205,-0.08951049,0.31328,1.04752
176.542,23.87913,-0.0908185,0.31217,1.04728
177.242,23.9459,-0.09213307,0.31367,1.04703
177.942,24.013,-0.09212543,0.31339,1.04678
178.642,24.0797,-0.09343996,0.31566,1.04653
179.342,24.14669,-0.09209587,0.31654,1.04628
180.042,24.2137,-0.09213,0.31459,1.04602
180.742,24.28075,-0.09213,0.31632,1.04577
181.442,24.34771,-0.09213,0.31727,1.04552
182.142,24.41459,-0.0921308,0.31759,1.04526
182.842,24.48098,-0.09213568,0.31953,1.045
183.542,24.5477,-0.09213,0.32145,1.04475
184.242,24.61449,-0.09212836,0.32081,1.04449
184.942,24.68167,-0.09081131,0.32063,1.04423
185.642,24.74868,-0.09081008,0.32151,1.04397
186.342,24.81569,-0.09208213,0.32165,1.0437
187.042,24.8826,-0.09214342,0.32197,1.04344
187.742,24.94932,-0.09419842,0.32384,1.04318
188.442,25.01628,-0.09489652,0.32609,1.04291
189.142,25.08308,-0.09355341,0.32467,1.04265
189.842,25.15007,-0.09223999,0.32752,1.04238
190.542,25.21677,-0.09381482,0.32705,1.04211
191.242,25.28363,-0.09640916,0.32674,1.04184
191.942,25.35046,-0.09652002,0.32789,1.04157
192.642,25.4172,-0.09532357,0.32901,1.0413
193.342,25.48394,-0.09519998,0.32877,1.04103
194.042,25.5509,-0.09389522,0.33298,1.04076
194.742,25.6177,-0.095376,0.33276,1.04049
195.442,25.6846,-0.09650975,0.33496,1.04021
196.142,25.7512,-0.0952143,0.33419,1.03993
196.842,25.8181,-0.09520144,0.33475,1.03966
197.542,25.88511,-0.09646871,0.33867,1.03938
198.242,25.95206,-0.09783068,0.3358,1.0391
198.942,26.01909,-0.0968427,0.3388,1.03882
199.642,26.08588,-0.09792945,0.34171,1.03854
200.342,26.1529,-0.09840642,0.34367,1.03826
201.042,26.2197,-0.09653272,0.34687,1.03798
201.742,26.2868,-0.09696361,0.34699,1.03769
202.442,26.3537,-0.09815986,0.34824,1.03741
203.142,26.4207,-0.09816,0.35083,1.03712
203.842,26.4874,-0.09817258,0.35426,1.03683
204.542,26.55438,-0.09947902,0.35606,1.03655
205.242,26.62138,-0.09947819,0.3586,1.03626
205.942,26.6882,-0.10099,0.36083,1.03597
206.642,26.75491,-0.10081,0.36298,1.03568
207.342,26.82149,-0.1008,0.36586,1.03538
208.042,26.88836,-0.10335,0.36672,1.03509
208.742,26.9552,-0.10341,0.37182,1.0348
209.442,27.0222,-0.10474,0.37286,1.0345
210.142,27.08923,-0.10475,0.37619,1.03421
210.842,27.15617,-0.10606,0.38062,1.03391
211.542,27.223,-0.10603,0.38221,1.03361
212.242,27.28988,-0.10673,0.38492,1.03331
212.942,27.35693,-0.10606,0.39046,1.03301
213.642,27.424,-0.10473,0.39358,1.03271
214.342,27.4911,-0.10606,0.3972,1.03241
215.042,27.55808,-0.10737,0.40009,1.03211
215.742,27.62483,-0.10871,0.40567,1.03181
216.442,27.69152,-0.11001,0.40991,1.0315
217.142,27.7583,-0.11133,0.41508,1.0312
217.842,27.825,-0.11132,0.41689,1.03089
218.542,27.8919,-0.11265,0.42256,1.03058
219.242,27.9588,-0.11402,0.42854,1.03027
219.942,28.0256,-0.11295,0.43517,1.02996
220.642,28.09225,-0.11636,0.44088,1.02965
221.342,28.1593,-0.11731,0.44924,1.02934
222.042,28.22615,-0.11682,0.45538,1.02903
222.742,28.2934,-0.11954,0.4616,1.02872
223.442,28.36021,-0.12087,0.47013,1.0284
224.142,28.42718,-0.12287,0.48144,1.02809
224.842,28.49427,-0.12349,0.48954,1.02777
225.542,28.56095,-0.12482,0.49849,1.02745
226.242,28.62795,-0.12618,0.51061,1.02714
226.942,28.6947,-0.12754,0.51903,1.02682
227.642,28.7619,-0.12902,0.53007,1.0265
228.342,28.8288,-0.13147,0.54211,1.02618
229.042,28.8958,-0.13146,0.55371,1.02585
229.742,28.9628,-0.13342,0.56128,1.02553
230.442,29.02982,-0.13511,0.57027,1.02521
231.142,29.09664,-0.13683,0.58303,1.02488
231.842,29.16355,-0.13823,0.59081,1.02456
232.542,29.23033,-0.14215,0.59919,1.02423
233.242,29.2975,-0.14339,0.60898,1.0239
233.942,29.3645,-0.14779,0.6179,1.02357
234.642,29.4315,-0.15058,0.62631,1.02324
235.342,29.4984,-0.15362,0.6323,1.02291
236.042,29.5655,-0.15789,0.63939,1.02258
236.742,29.63236,-0.16039,0.64425,1.02225
237.442,29.69923,-0.16127,0.64788,1.02192
238.142,29.766,-0.16379,0.65118,1.02158
238.842,29.8331,-0.16655,0.65286,1.02125
239.542,29.90015,-0.17068,0.65268,1.02091
240.242,29.967,-0.17344,0.65597,1.02058
240.942,30.0336,-0.17673,0.65478,1.02024
241.642,30.1004,-0.18047,0.65517,1.0199
242.342,30.1672,-0.18582,0.65382,1.01956
243.042,30.23426,-0.19167,0.65341,1.01922
243.742,30.30098,-0.19711,0.65455,1.01888
244.442,30.3678,-0.20005,0.65405,1.01853
245.142,30.4346,-0.20138,0.65476,1.01819
245.842,30.5015,-0.20269,0.65239,1.01785
246.542,30.5684,-0.20572,0.65489,1.0175
247.242,30.63518,-0.20961,0.65468,1.01715
247.942,30.7021,-0.21234,0.65379,1.01681
248.642,30.76912,-0.2171,0.65427,1.01646
249.342,30.83602,-0.22389,0.65401,1.01611
250.042,30.90285,-0.22761,0.65211,1.01576
250.742,30.96978,-0.23075,0.65244,1.01541
251.442,31.0367,-0.23505,0.65161,1.01506
252.142,31.10347,-0.23595,0.65215,1.0147
252.842,31.17,-0.23933,0.6499,1.01435
253.542,31.2367,-0.24215,0.65531,1.014
254.242,31.3033,-0.24501,0.65516,1.01364
254.942,31.37005,-0.24931,0.65664,1.01328
255.642,31.4369,-0.25311,0.6547,1.01293
256.342,31.5038,-0.25927,0.65302,1.01257
257.042,31.57035,-0.26357,0.6481,1.01221
257.742,31.63692,-0.26773,0.64497,1.01185
258.442,31.7036,-0.27232,0.64373,1.01149
259.142,31.77062,-0.2763,0.64111,1.01113
259.842,31.8373,-0.28113,0.63807,1.01076
260.542,31.9039,-0.28687,0.63765,1.0104
261.242,31.97015,-0.29209,0.63597,1.01004
261.942,32.03696,-0.29516,0.63413,1.00967
262.642,32.1039,-0.29667,0.63218,1.0093
263.342,32.17098,-0.29983,0.63526,1.00894
264.042,32.23769,-0.30628,0.6346,1.00857
264.742,32.30454,-0.31187,0.6354,1.0082
265.442,32.3713,-0.31592,0.63421,1.00783
266.142,32.43817,-0.3213,0.63652,1.00746
266.842,32.5051,-0.32572,0.63631,1.00709
267.542,32.57209,-0.33054,0.63556,1.00672
268.242,32.63878,-0.3339,0.63555,1.00634
268.942,32.7046,-0.33667,0.63601,1.00597
269.642,32.77109,-0.34258,0.63764,1.00559
270.342,32.8379,-0.34923,0.63863,1.00522
271.042,32.90563,-0.35588,0.63993,1.00484
271.742,32.97286,-0.35829,0.63792,1.00446
272.442,33.03966,-0.36127,0.63824,1.00408
273.142,33.10647,-0.36839,0.6381,1.0037
273.842,33.17345,-0.37207,0.63781,1.00332
274.542,33.24038,-0.37655,0.64036,1.00294
275.242,33.30749,-0.38113,0.64145,1.00256
275.942,33.37448,-0.38722,0.6412,1.00218
276.642,33.44165,-0.39397,0.64271,1.00179
277.342,33.5085,-0.39842,0.64125,1.00141
278.042,33.5755,-0.40289,0.64346,1.00102
278.742,33.64241,-0.41004,0.6423,1.00063
279.442,33.70933,-0.41366,0.64389,1.00025
280.142,33.77625,-0.42005,0.64225,0.99986
280.842,33.84308,-0.42504,0.64363,0.99947
281.542,33.91033,-0.42997,0.64621,0.99908
282.242,33.97733,-0.43457,0.64468,0.99869
282.942,34.0443,-0.4429,0.64467,0.9983
283.642,34.1111,-0.44844,0.64311,0.9979
284.342,34.1783,-0.45436,0.64431,0.99751
285.042,34.2453,-0.46075,0.64435,0.99712
285.742,34.31237,-0.46562,0.64284,0.99672
286.442,34.37944,-0.47063,0.6428,0.99633
287.142,34.44676,-0.47603,0.64258,0.99593
287.842,34.51398,-0.48054,0.64256,0.99553
288.542,34.58112,-0.48704,0.64281,0.99513
289.242,34.64837,-0.49318,0.64331,0.99473
289.942,34.71565,-0.49935,0.64342,0.99433
290.642,34.78285,-0.50544,0.64357,0.99393
291.342,34.85,-0.51167,0.64115,0.99353
292.042,34.91701,-0.52022,0.64226,0.99313
292.742,34.98423,-0.52737,0.64313,0.99272
293.442,35.05102,-0.5356,0.6453,0.99232
294.142,35.11835,-0.54348,0.64392,0.99191
294.842,35.1856,-0.54952,0.64304,0.99151
295.542,35.25335,-0.55516,0.64461,0.9911
296.242,35.32047,-0.56165,0.64757,0.99069
296.942,35.38771,-0.57244,0.64628,0.99028
297.642,35.45495,-0.57937,0.64784,0.98987
298.342,35.52213,-0.58876,0.6492,0.98946
299.042,35.58935,-0.59103,0.65095,0.98905
299.742,35.65656,-0.5981,0.65238,0.98864
300.442,35.72395,-0.60733,0.65479,0.98823
301.142,35.79115,-0.61702,0.65733,0.98781
301.842,35.85848,-0.62463,0.65815,0.9874
302.542,35.92576,-0.63379,0.65909,0.98699
303.242,35.9929,-0.6405,0.66235,0.98657
303.942,36.0602,-0.65012,0.66328,0.98615
304.642,36.12737,-0.65747,0.66454,0.98573
305.342,36.1946,-0.66565,0.66567,0.98532
306.042,36.262,-0.67518,0.66781,0.9849
306.742,36.32908,-0.68592,0.66827,0.98448
307.442,36.39625,-0.6934,0.67092,0.98406
308.142,36.46356,-0.7004,0.67165,0.98363
308.842,36.531,-0.7103,0.67006,0.98321
309.542,36.59847,-0.72292,0.67048,0.98279
310.242,36.6655,-0.73195,0.67018,0.98236
310.942,36.73275,-0.73979,0.67168,0.98194
311.642,36.8003,-0.75247,0.67184,0.98151
312.342,36.86807,-0.7638,0.66847,0.98109
313.042,36.93555,-0.77217,0.66875,0.98066
313.742,37.00302,-0.78022,0.66472,0.98023
314.442,37.07042,-0.78935,0.66481,0.9798
315.142,37.13765,-0.79877,0.66424,0.97937
315.842,37.20496,-0.81246,0.65941,0.97894
316.542,37.27217,-0.82476,0.65921,0.97851
317.242,37.33974,-0.83478,0.6546,0.97808
317.942,37.40713,-0.84687,0.65477,0.97764
318.642,37.47463,-0.85527,0.64878,0.97721
319.342,37.54204,-0.86223,0.64619,0.97678
320.042,37.60937,-0.87245,0.643,0.97634
320.742,37.6768,-0.88443,0.64114,0.9759
321.442,37.74418,-0.89966,0.63478,0.97547
322.142,37.81103,-0.91065,0.63199,0.97503
322.842,37.87805,-0.92386,0.63021,0.97459
323.542,37.94511,-0.93992,0.62181,0.97415
324.242,38.01296,-0.95174,0.61804,0.97371
324.942,38.08037,-0.95784,0.61312,0.97327
325.642,38.14825,-0.96783,0.60761,0.97283
326.342,38.2155,-0.98111,0.60148,0.97239
327.042,38.28284,-0.99326,0.59572,0.97194
327.742,38.34998,-1.00296,0.59096,0.9715
328.442,38.41695,-1.01514,0.58351,0.97106
329.142,38.48388,-1.02843,0.57918,0.97061
329.842,38.55103,-1.04074,0.57447,0.97016
330.542,38.61837,-1.05394,0.56885,0.96972
331.242,38.68577,-1.06609,0.56152,0.96927
331.942,38.75318,-1.08031,0.55484,0.96882
332.642,38.82036,-1.09187,0.5503,0.96837
333.342,38.8877,-1.10514,0.54416,0.96792
334.042,38.95495,-1.11947,0.53844,0.96747
334.742,39.02238,-1.13285,0.5337,0.96702
335.442,39.08967,-1.14506,0.52693,0.96657
336.142,39.157,-1.15708,0.52307,0.96611
336.842,39.22426,-1.16544,0.51665,0.96566
337.542,39.2918,-1.18048,0.51454,0.9652
338.242,39.35876,-1.19472,0.50457,0.96475
338.942,39.42613,-1.20644,0.50214,0.96429
339.642,39.4932,-1.2194,0.49804,0.96384
340.342,39.561,-1.22966,0.49105,0.96338
341.042,39.62845,-1.23964,0.48505,0.96292
341.742,39.6963,-1.25298,0.48026,0.96246
342.442,39.76341,-1.26659,0.47536,0.962
343.142,39.83093,-1.28236,0.4714,0.96154
343.842,39.8984,-1.2908,0.46795,0.96108
344.542,39.96621,-1.3004,0.4601,0.96062
345.242,40.034,-1.31402,0.45501,0.96015
345.942,40.10177,-1.32758,0.45141,0.95969
346.642,40.16941,-1.33937,0.44662,0.95923
347.342,40.237,-1.35113,0.44034,0.95876
348.042,40.30453,-1.36209,0.43715,0.9583
348.742,40.37242,-1.37303,0.43243,0.95783
349.442,40.44023,-1.38385,0.42869,0.95736
350.142,40.50806,-1.39531,0.42536,0.9569
350.842,40.57585,-1.40526,0.42227,0.95643
351.542,40.64333,-1.41415,0.41678,0.95596
352.242,40.7108,-1.42383,0.41426,0.95549
352.942,40.77837,-1.4385,0.41067,0.95502
353.642,40.84618,-1.44783,0.40623,0.95454
354.342,40.91428,-1.45837,0.40172,0.95407
355.042,40.98218,-1.4663,0.40128,0.9536
355.742,41.04997,-1.47341,0.396,0.95313
356.442,41.11776,-1.48101,0.39495,0.95265
357.142,41.1854,-1.48978,0.38618,0.95218
357.842,41.25305,-1.49785,0.38602,0.9517
358.542,41.32069,-1.5066,0.3845,0.95122
359.242,41.38842,-1.51568,0.38116,0.95075
359.942,41.45608,-1.52532,0.37742,0.95027
360.642,41.52383,-1.53546,0.37586,0.94979
361.342,41.59132,-1.54257,0.37291,0.94931
362.042,41.65903,-1.54777,0.36828,0.94883
362.742,41.7266,-1.55416,0.36787,0.94835
363.442,41.79485,-1.56429,0.36723,0.94787
364.142,41.8628,-1.57088,0.36371,0.94739
364.842,41.93087,-1.57658,0.35983,0.9469
365.542,41.99845,-1.58236,0.35842,0.94642
366.242,42.06621,-1.58988,0.35882,0.94594
366.942,42.13392,-1.59743,0.35522,0.94545
367.642,42.20173,-1.60256,0.35219,0.94497
368.342,42.26963,-1.61025,0.35208,0.94448
369.042,42.33749,-1.61662,0.34936,0.94399
369.742,42.40537,-1.62296,0.34822,0.94351
370.442,42.47313,-1.62864,0.34746,0.94302
371.142,42.54098,-1.6353,0.34389,0.94253
371.842,42.60873,-1.64241,0.34216,0.94204
372.542,42.67671,-1.64778,0.34073,0.94155
373.242,42.74463,-1.65305,0.33813,0.94106
373.942,42.8125,-1.65843,0.33834,0.94057
374.642,42.88027,-1.66573,0.33789,0.94007
375.342,42.948,-1.674,0.33593,0.93958
376.042,43.01597,-1.67661,0.33626,0.93909
376.742,43.0837,-1.68091,0.33243,0.93859
377.442,43.1515,-1.68597,0.33207,0.9381
378.142,43.21927,-1.69099,0.32937,0.9376
378.842,43.28738,-1.69797,0.32835,0.93711
379.542,43.35542,-1.70235,0.32845,0.93661
380.242,43.42324,-1.70751,0.32748,0.93611
380.942,43.4911,-1.71479,0.32424,0.93561
381.642,43.55905,-1.72145,0.32439,0.93511
382.342,43.6271,-1.72517,0.32431,0.93461
383.042,43.6952,-1.73036,0.32274,0.93411
383.742,43.76317,-1.73424,0.32248,0.93361
384.442,43.83128,-1.73752,0.32207,0.93311
385.142,43.89933,-1.74106,0.3186,0.93261
385.842,43.9673,-1.74697,0.31941,0.93211
386.542,44.03543,-1.75419,0.3173,0.9316
387.242,44.1035,-1.75985,0.31589,0.9311
387.942,44.17174,-1.76448,0.31641,0.93059
388.642,44.23944,-1.76796,0.31307,0.93009
389.342,44.30768,-1.77249,0.31439,0.92958
390.042,44.3759,-1.77807,0.31376,0.92907
390.742,44.44448,-1.78473,0.31302,0.92857
391.442,44.51265,-1.78874,0.31235,0.92806
392.142,44.5809,-1.7951,0.31077,0.92755
392.842,44.64906,-1.79809,0.30966,0.92704
393.542,44.71717,-1.80323,0.31025,0.92653
394.242,44.78512,-1.80657,0.30961,0.92602
394.942,44.8534,-1.80914,0.30874,0.92551
395.642,44.92168,-1.81459,0.30805,0.925
396.342,44.98995,-1.82002,0.30771,0.92448
397.042,45.05806,-1.82577,0.30689,0.92397
397.742,45.12617,-1.8348,0.30723,0.92346
398.442,45.19433,-1.83762,0.30801,0.92294
399.142,45.26252,-1.83885,0.30398,0.92243
399.842,45.33075,-1.84304,0.30598,0.92191
400.542,45.39894,-1.84525,0.30408,0.9214
401.242,45.46718,-1.84947,0.30392,0.92088
401.942,45.53536,-1.85618,0.30175,0.92036
402.642,45.6036,-1.85941,0.29925,0.91984
403.342,45.67176,-1.86419,0.30273,0.91932
404.042,45.74,-1.87003,0.29877,0.91881
404.742,45.80826,-1.87447,0.296,0.91829
405.442,45.87666,-1.87707,0.29387,0.91776
406.142,45.94487,-1.88097,0.29351,0.91724
406.842,46.01317,-1.88494,0.29248,0.91672
407.542,46.08132,-1.88773,0.29307,0.9162
408.242,46.14953,-1.89217,0.29053,0.91568
408.942,46.2176,-1.89835,0.29293,0.91515
409.642,46.2857,-1.90281,0.28909,0.91463
410.342,46.3538,-1.90615,0.29083,0.9141
411.042,46.42216,-1.9117,0.28751,0.91358
411.742,46.49054,-1.91345,0.28448,0.91305
412.442,46.55885,-1.91671,0.28652,0.91253
413.142,46.62724,-1.92201,0.28608,0.912
413.842,46.69554,-1.92685,0.28372,0.91147
414.542,46.76401,-1.93355,0.28041,0.91094
415.242,46.83245,-1.93236,0.2794,0.91041
415.942,46.9009,-1.93541,0.27686,0.90988
416.642,46.96932,-1.93978,0.27878,0.90935
417.342,47.03764,-1.94458,0.27711,0.90882
418.042,47.10607,-1.94871,0.27409,0.90829
418.742,47.1745,-1.95195,0.2715,0.90776
419.442,47.24313,-1.95502,0.26839,0.90723
420.142,47.3117,-1.9563,0.26896,0.9067
420.842,47.3804,-1.96133,0.26816,0.90616
421.542,47.44894,-1.96569,0.26906,0.90563
422.242,47.51765,-1.97122,0.26654,0.90509
422.942,47.58583,-1.97332,0.264,0.90456
423.642,47.65452,-1.975,0.26569,0.90402
424.342,47.72291,-1.9786,0.2622,0.90349
425.042,47.79166,-1.98248,0.26138,0.90295
425.742,47.8604,-1.98158,0.26034,0.90241
426.442,47.92906,-1.98724,0.25953,0.90187
427.142,47.9978,-1.994,0.25747,0.90133
427.842,48.0663,-1.99304,0.25817,0.9008
428.542,48.1351,-1.99682,0.25559,0.90026
429.242,48.2038,-2.00027,0.25734,0.89972
429.942,48.27244,-2.00334,0.25661,0.89917
430.642,48.34114,-2.00624,0.25353,0.89863
431.342,48.40999,-2.00999,0.25123,0.89809
432.042,48.4787,-2.01207,0.25276,0.89755
432.742,48.5473,-2.01342,0.2494,0.89701
433.442,48.61586,-2.01503,0.25043,0.89646
434.142,48.68434,-2.02087,0.25115,0.89592
434.842,48.75284,-2.02358,0.25109,0.89537
435.542,48.82138,-2.02778,0.24906,0.89483
436.242,48.88989,-2.03345,0.24821,0.89428
436.942,48.95838,-2.03661,0.24818,0.89374
437.642,49.02677,-2.03807,0.24772,0.89319
438.342,49.09511,-2.03996,0.24506,0.89264
439.042,49.16383,-2.04272,0.24544,0.89209
439.742,49.23247,-2.0442,0.24197,0.89154
440.442,49.3013,-2.04695,0.24166,0.891
441.142,49.3697,-2.04858,0.23876,0.89045
441.842,49.4381,-2.05216,0.2363,0.8899
442.542,49.50666,-2.05428,0.23918,0.88935
443.242,49.5753,-2.05684,0.23807,0.88879
443.942,49.64393,-2.06295,0.23494,0.88824
444.642,49.7126,-2.06417,0.23431,0.88769
445.342,49.7813,-2.06549,0.23255,0.88714
446.042,49.85025,-2.06847,0.23203,0.88658
446.742,49.91902,-2.07125,0.2352,0.88603
447.442,49.9878,-2.07451,0.23137,0.88548
448.142,50.0566,-2.07583,0.22957,0.88492
448.842,50.12531,-2.07712,0.22694,0.88437
449.542,50.1941,-2.07777,0.22631,0.88381
450.242,50.2628,-2.07972,0.22691,0.88325
450.942,50.3316,-2.08349,0.22474,0.8827
451.642,50.4003,-2.09251,0.22488,0.88214
452.342,50.46911,-2.09865,0.22414,0.88158
453.042,50.53785,-2.10138,0.22575,0.88102
453.742,50.60645,-2.09926,0.22289,0.88047
454.442,50.67508,-2.09896,0.22025,0.87991
455.142,50.74369,-2.10026,0.21888,0.87935
455.842,50.8125,-2.10156,0.21583,0.87879
456.542,50.88114,-2.10299,0.21595,0.87823
457.242,50.94992,-2.10574,0.21404,0.87766
457.942,51.0187,-2.11387,0.21429,0.8771
458.642,51.0876,-2.11606,0.21298,0.87654
459.342,51.15653,-2.11605,0.21039,0.87598
460.042,51.22555,-2.11801,0.20789,0.87541
460.742,51.29442,-2.12153,0.21055,0.87485
461.442,51.3633,-2.12143,0.20907,0.87429
462.142,51.43209,-2.12226,0.20604,0.87372
462.842,51.50094,-2.12473,0.20613,0.87316
463.542,51.56981,-2.12944,0.20564,0.87259
464.242,51.6387,-2.1316,0.2064,0.87202
464.942,51.70759,-2.13163,0.203,0.87146
465.642,51.77652,-2.13354,0.20333,0.87089
466.342,51.84527,-2.13908,0.20024,0.87032
467.042,51.91403,-2.1392,0.20267,0.86975
467.742,51.98301,-2.13929,0.20059,0.86919
468.442,52.05206,-2.14083,0.19815,0.86862
469.142,52.12124,-2.14198,0.19956,0.86805
469.842,52.19004,-2.14425,0.19579,0.86748
470.542,52.259,-2.14707,0.19807,0.86691
471.242,52.3281,-2.15065,0.19669,0.86634
471.942,52.39723,-2.15269,0.19344,0.86577
472.642,52.46643,-2.15554,0.19351,0.86519
473.342,52.53545,-2.15445,0.19275,0.86462
474.042,52.6043,-2.15589,0.19105,0.86405
474.742,52.6732,-2.1587,0.18735,0.86348
475.442,52.7423,-2.16023,0.18961,0.8629
476.142,52.8116,-2.16338,0.18913,0.86233
476.842,52.88078,-2.1652,0.18702,0.86175
477.542,52.95,-2.1652,0.18609,0.86118
478.242,53.01922,-2.16651,0.18952,0.8606
478.942,53.08849,-2.16679,0.18623,0.86003
479.642,53.15755,-2.17041,0.18662,0.85945
480.342,53.22662,-2.1733,0.18478,0.85887
481.042,53.2957,-2.17527,0.18347,0.8583
481.742,53.3645,-2.17788,0.1842,0.85772
482.442,53.43345,-2.17846,0.18351,0.85714
483.142,53.50238,-2.17932,0.1822,0.85656
483.842,53.57159,-2.1813,0.18175,0.85598
484.542,53.64065,-2.18407,0.18203,0.8554
485.242,53.70994,-2.18582,0.18053,0.85482
485.942,53.77906,-2.18714,0.18129,0.85424
486.642,53.84828,-2.18812,0.18,0.85366
487.342,53.91732,-2.18812,0.17898,0.85308
488.042,53.98647,-2.18949,0.17898,0.8525
488.742,54.0557,-2.19084,0.17567,0.85192
489.442,54.1249,-2.18969,0.17691,0.85134
490.142,54.19404,-2.1924,0.177,0.85075
490.842,54.2631,-2.19372,0.17688,0.85017
491.542,54.3322,-2.19507,0.17717,0.84959
492.242,54.40129,-2.19612,0.17838,0.849
492.942,54.47025,-2.19907,0.17538,0.84842
493.642,54.53917,-2.20195,0.17437,0.84783
494.342,54.608,-2.20194,0.1773,0.84725
495.042,54.67702,-2.20301,0.17546,0.84666
495.742,54.746,-2.20325,0.17348,0.84608
496.442,54.8152,-2.20302,0.17466,0.84549
497.142,54.88437,-2.20558,0.17414,0.8449
497.842,54.9535,-2.20753,0.17546,0.84432
498.542,55.02265,-2.20908,0.17657,0.84373
499.242,55.0918,-2.21301,0.17264,0.84314
499.942,55.1607,-2.21431,0.1755,0.84255
500.642,55.2298,-2.21301,0.17144,0.84196
501.342,55.2989,-2.21431,0.17049,0.84137
502.042,55.36804,-2.2163,0.17294,0.84078
502.742,55.4371,-2.21506,0.16895,0.84019
503.442,55.5062,-2.21313,0.17015,0.8396
504.142,55.57549,-2.21471,0.16609,0.83901
504.842,55.64459,-2.21621,0.16809,0.83842
505.542,55.71362,-2.22076,0.16761,0.83783
506.242,55.78264,-2.22344,0.16716,0.83724
506.942,55.8518,-2.22337,0.16754,0.83665
507.642,55.92094,-2.22213,0.16885,0.83605
508.342,55.9902,-2.22213,0.16754,0.83546
509.042,56.05939,-2.22379,0.16795,0.83487
509.742,56.1287,-2.22785,0.17147,0.83427
510.442,56.1981,-2.22794,0.17151,0.83368
511.142,56.26719,-2.22794,0.17026,0.83308
511.842,56.3365,-2.22925,0.17476,0.83249
512.542,56.4058,-2.22924,0.17591,0.83189
513.242,56.4756,-2.23017,0.17505,0.8313
513.942,56.5452,-2.23057,0.17701,0.8307
514.642,56.6147,-2.23228,0.17684,0.8301
515.342,56.6842,-2.23473,0.18067,0.82951
516.042,56.7537,-2.23613,0.18158,0.82891
516.742,56.823,-2.23474,0.18325,0.82831
517.442,56.8925,-2.23342,0.18407,0.82771
518.142,56.9619,-2.23634,0.18693,0.82712
518.842,57.0316,-2.24024,0.18867,0.82652
519.542,57.10103,-2.24154,0.19058,0.82592
520.242,57.17063,-2.24154,0.19217,0.82532
520.942,57.24,-2.24121,0.19453,0.82472
521.642,57.3095,-2.24025,0.19651,0.82412
522.342,57.37888,-2.24022,0.19445,0.82352
523.042,57.4486,-2.23936,0.19725,0.82292
523.742,57.5183,-2.24022,0.19761,0.82232
524.442,57.58794,-2.24262,0.20054,0.82171
525.142,57.65744,-2.24557,0.20125,0.82111
525.842,57.72673,-2.24691,0.20399,0.82051
526.542,57.7962,-2.24822,0.20574,0.81991
527.242,57.86571,-2.25086,0.20568,0.8193
527.942,57.9354,-2.24846,0.20754,0.8187
528.642,58.00496,-2.24724,0.20913,0.8181
529.342,58.07456,-2.24725,0.20861,0.81749
530.042,58.14399,-2.24762,0.20983,0.81689
530.742,58.21365,-2.24893,0.21148,0.81628
531.442,58.28305,-2.25174,0.21484,0.81568
532.142,58.35259,-2.25458,0.21442,0.81507
532.842,58.422,-2.25731,0.21573,0.81447
533.542,58.4916,-2.25766,0.21822,0.81386
534.242,58.56125,-2.25635,0.21784,0.81326
534.942,58.6309,-2.25766,0.21821,0.81265
535.642,58.70035,-2.25832,0.21948,0.81204
536.342,58.7698,-2.25832,0.21611,0.81144
537.042,58.8393,-2.25701,0.2151,0.81083
537.742,58.9088,-2.25826,0.21194,0.81022
538.442,58.97844,-2.2599,0.21523,0.80961
539.142,59.04785,-2.26029,0.21063,0.809
539.842,59.1175,-2.26138,0.21054,0.8084
540.542,59.18702,-2.26275,0.21019,0.80779
541.242,59.2567,-2.26558,0.20807,0.80718
541.942,59.3263,-2.26452,0.20445,0.80657
542.642,59.39611,-2.26314,0.20704,0.80596
543.342,59.46585,-2.26477,0.20502,0.80535
544.042,59.5357,-2.26599,0.2031,0.80474
544.742,59.60533,-2.26857,0.201,0.80412
545.442,59.67496,-2.26859,0.20167,0.80351
546.142,59.74459,-2.27003,0.20386,0.8029
546.842,59.81446,-2.27135,0.20341,0.80229
547.542,59.8844,-2.27235,0.20143,0.80168
548.242,59.9543,-2.27212,0.2002,0.80107
548.942,60.02403,-2.27258,0.19984,0.80045
549.642,60.0938,-2.27258,0.20073,0.79984
550.342,60.1636,-2.27251,0.1981,0.79923
551.042,60.23359,-2.27423,0.19891,0.79861
551.742,60.3034,-2.27531,0.19721,0.798
552.442,60.3731,-2.2769,0.19386,0.79739
553.142,60.44299,-2.27929,0.1975,0.79677
553.842,60.5129,-2.28148,0.19663,0.79616
554.542,60.58266,-2.28326,0.19769,0.79554
555.242,60.6523,-2.28192,0.19644,0.79493
555.942,60.7224,-2.28053,0.19614,0.79431
556.642,60.7925,-2.28058,0.19766,0.79369
557.342,60.8623,-2.2833,0.19566,0.79308
558.042,60.93184,-2.28454,0.19392,0.79246
558.742,61.00155,-2.28585,0.19174,0.79185
559.442,61.0715,-2.28717,0.19229,0.79123
560.142,61.14156,-2.29098,0.19302,0.79061
560.842,61.2114,-2.29034,0.19347,0.78999
561.542,61.2812,-2.28904,0.19263,0.78938
562.242,61.35095,-2.28904,0.18812,0.78876
562.942,61.42071,-2.28904,0.18878,0.78814
563.642,61.49065,-2.28904,0.18895,0.78752
564.342,61.5605,-2.291,0.18909,0.7869
565.042,61.63041,-2.29269,0.186,0.78628
565.742,61.7,-2.29517,0.18519,0.78566
566.442,61.7698,-2.29726,0.18653,0.78504
567.142,61.83947,-2.29723,0.18473,0.78442
567.842,61.90942,-2.29857,0.18152,0.7838
568.542,61.9792,-2.29765,0.18217,0.78318
569.242,62.04903,-2.29855,0.18077,0.78256
569.942,62.1189,-2.29858,0.17765,0.78194
570.642,62.1887,-2.29922,0.17776,0.78132
571.342,62.2587,-2.29924,0.17887,0.7807
572.042,62.3285,-2.30021,0.17746,0.78008
572.742,62.39818,-2.30167,0.17656,0.77946
573.442,62.468,-2.30296,0.17347,0.77883
574.142,62.53784,-2.30292,0.17609,0.77821
574.842,62.60795,-2.30447,0.17639,0.77759
575.542,62.6778,-2.3056,0.17117,0.77697
576.242,62.7477,-2.30691,0.17325,0.77634
576.942,62.81749,-2.30961,0.17271,0.77572
577.642,62.8873,-2.31245,0.17098,0.7751
578.342,62.9572,-2.31263,0.16718,0.77447
579.042,63.027,-2.31053,0.1692,0.77385
579.742,63.0967,-2.31281,0.17134,0.77323
580.442,63.1665,-2.31284,0.17053,0.7726
581.142,63.23627,-2.31305,0.17169,0.77198
581.842,63.30614,-2.31458,0.17326,0.77135
582.542,63.37615,-2.31375,0.17433,0.77073
583.242,63.4463,-2.31712,0.16804,0.7701
583.942,63.5164,-2.31773,0.17217,0.76948
584.642,63.5864,-2.31854,0.16998,0.76885
585.342,63.6563,-2.31842,0.16947,0.76822
586.042,63.72634,-2.31842,0.16975,0.7676
586.742,63.79655,-2.31842,0.17271,0.76697
587.442,63.8667,-2.31842,0.17276,0.76635
588.142,63.93694,-2.31842,0.16662,0.76572
588.842,64.00707,-2.31976,0.16984,0.76509
589.542,64.07727,-2.32256,0.1717,0.76446
590.242,64.14737,-2.32391,0.17111,0.76384
590.942,64.2173,-2.32523,0.17155,0.76321
591.642,64.2873,-2.32653,0.17312,0.76258
592.342,64.35745,-2.32784,0.1693,0.76195
593.042,64.42734,-2.32786,0.17341,0.76133
593.742,64.49755,-2.32786,0.17118,0.7607
594.442,64.5676,-2.32654,0.17235,0.76007
595.142,64.63792,-2.32935,0.17426,0.75944
595.842,64.7079,-2.33067,0.17236,0.75881
596.542,64.7779,-2.33082,0.17175,0.75818
597.242,64.84798,-2.33147,0.17442,0.75755
597.942,64.918,-2.33148,0.16952,0.75692
598.642,64.9881,-2.32886,0.17244,0.75629
599.342,65.05809,-2.33009,0.17353,0.75566
600.042,65.12836,-2.33148,0.17398,0.75503
600.742,65.19827,-2.3333,0.17703,0.7544
601.442,65.26858,-2.33411,0.17476,0.75377
602.142,65.3386,-2.33411,0.17656,0.75314
602.842,65.4091,-2.33517,0.17604,0.75251
603.542,65.47926,-2.33503,0.17901,0.75188
604.242,65.54953,-2.33673,0.17918,0.75125
604.942,65.61964,-2.33806,0.18072,0.75062
605.642,65.68989,-2.33806,0.18249,0.74999
606.342,65.76009,-2.33937,0.18624,0.74935
607.042,65.8305,-2.33937,0.18299,0.74872
607.742,65.90066,-2.33941,0.18125,0.74809
608.442,65.97117,-2.34204,0.18449,0.74746
609.142,66.04156,-2.34335,0.18397,0.74683
609.842,66.1121,-2.34312,0.18555,0.74619
610.542,66.1823,-2.34179,0.18405,0.74556
611.242,66.25227,-2.3418,0.18735,0.74493
611.942,66.32244,-2.34179,0.18712,0.74429
612.642,66.39273,-2.34179,0.18775,0.74366
613.342,66.46305,-2.34242,0.19035,0.74303
614.042,66.5334,-2.34443,0.18993,0.74239
614.742,66.6037,-2.34583,0.19377,0.74176
615.442,66.67398,-2.34705,0.19241,0.74113
616.142,66.74432,-2.34696,0.19578,0.74049
616.842,66.8145,-2.34813,0.19922,0.73986
617.542,66.88479,-2.34766,0.19749,0.73922
618.242,66.9551,-2.34903,0.19856,0.73859
618.942,67.02557,-2.34871,0.20095,0.73796
619.642,67.09575,-2.34861,0.2014,0.73732
620.342,67.16592,-2.35136,0.20479,0.73669
621.042,67.23601,-2.35386,0.2071,0.73605
621.742,67.30645,-2.35386,0.20774,0.73542
622.442,67.37676,-2.35426,0.21077,0.73478
623.142,67.44714,-2.35408,0.21145,0.73415
623.842,67.51741,-2.35515,0.21528,0.73351
624.542,67.5877,-2.35517,0.216,0.73287
625.242,67.65804,-2.35384,0.22124,0.73224
625.942,67.72834,-2.35564,0.22149,0.7316
626.642,67.7986,-2.35825,0.22392,0.73097
627.342,67.86891,-2.35835,0.22715,0.73033
628.042,67.93929,-2.35969,0.23056,0.72969
628.742,68.0097,-2.35835,0.23117,0.72906
629.442,68.0801,-2.35902,0.23475,0.72842
630.142,68.15038,-2.35835,0.23912,0.72778
630.842,68.22078,-2.3583,0.24045,0.72715
631.542,68.2911,-2.36233,0.24443,0.72651
632.242,68.36151,-2.37029,0.25189,0.72587
632.942,68.43169,-2.37026,0.25631,0.72524
633.642,68.50198,-2.3684,0.25946,0.7246
634.342,68.57231,-2.36843,0.26098,0.72396
635.042,68.64268,-2.36778,0.26427,0.72332
635.742,68.7129,-2.36904,0.27048,0.72269
636.442,68.7832,-2.37068,0.27552,0.72205
637.142,68.85376,-2.37173,0.28046,0.72141
637.842,68.92446,-2.37316,0.28442,0.72077
638.542,68.9949,-2.37396,0.2931,0.72013
639.242,69.06523,-2.3711,0.29536,0.7195
639.942,69.13565,-2.37474,0.29992,0.71886
640.642,69.20604,-2.38158,0.30451,0.71822
641.342,69.27636,-2.38131,0.30867,0.71758
642.042,69.34663,-2.38124,0.31534,0.71694
642.742,69.41715,-2.3816,0.3211,0.7163
643.442,69.48767,-2.3827,0.32439,0.71566
644.142,69.55829,-2.38357,0.33446,0.71502
644.842,69.62866,-2.38618,0.33957,0.71439
645.542,69.69898,-2.38902,0.3464,0.71375
646.242,69.76926,-2.3905,0.35063,0.71311
646.942,69.83975,-2.39148,0.35864,0.71247
647.642,69.91041,-2.39181,0.36585,0.71183
648.342,69.98093,-2.3909,0.36864,0.71119
649.042,70.05141,-2.39181,0.37802,0.71055
649.742,70.12172,-2.39361,0.38324,0.70991
650.442,70.19225,-2.39584,0.39127,0.70927
651.142,70.26275,-2.39721,0.39577,0.70863
651.842,70.33325,-2.40215,0.40577,0.70799
652.542,70.40378,-2.40168,0.41423,0.70735
653.242,70.47435,-2.40415,0.42052,0.70671
653.942,70.54502,-2.4048,0.43162,0.70607
654.642,70.6155,-2.40779,0.43815,0.70543
655.342,70.6858,-2.41068,0.44629,0.70479
656.042,70.75621,-2.41486,0.45798,0.70415
656.742,70.82643,-2.417,0.46184,0.70351
657.442,70.8968,-2.41904,0.47205,0.70287
658.142,70.96719,-2.41759,0.47749,0.70223
658.842,71.0378,-2.41816,0.48819,0.70159
659.542,71.10836,-2.42163,0.49599,0.70095
660.242,71.17879,-2.42441,0.50507,0.70031
660.942,71.24933,-2.42962,0.51408,0.69966
661.642,71.31989,-2.43051,0.52183,0.69902
662.342,71.39028,-2.43216,0.53096,0.69838
663.042,71.4606,-2.4364,0.53998,0.69774
663.742,71.53108,-2.43906,0.5546,0.6971
664.442,71.6018,-2.43882,0.56459,0.69646
665.142,71.6724,-2.43963,0.57531,0.69582
665.842,71.74294,-2.44103,0.58802,0.69518
666.542,71.81336,-2.44405,0.59615,0.69454
667.242,71.88385,-2.44923,0.60594,0.69389
667.942,71.9543,-2.4517,0.61643,0.69325
668.642,72.02493,-2.45469,0.6309,0.69261
669.342,72.09549,-2.45628,0.64421,0.69197
670.042,72.166,-2.45948,0.65569,0.69133
670.742,72.23649,-2.46098,0.66793,0.69069
671.442,72.30705,-2.47013,0.67873,0.69004
672.142,72.3777,-2.46985,0.68743,0.6894
672.842,72.4481,-2.46998,0.70402,0.68876
673.542,72.5188,-2.47532,0.71532,0.68812
674.242,72.5894,-2.48048,0.72579,0.68748
674.942,72.66,-2.48274,0.73655,0.68684
675.642,72.73056,-2.48571,0.74767,0.68619
676.342,72.8013,-2.49106,0.7645,0.68555
677.042,72.8719,-2.49622,0.77467,0.68491
677.742,72.94243,-2.49972,0.78894,0.68427
678.442,73.01315,-2.5012,0.80103,0.68363
679.142,73.0839,-2.50394,0.81337,0.68298
679.842,73.15475,-2.50664,0.82372,0.68234
680.542,73.22535,-2.50774,0.83316,0.6817
681.242,73.29607,-2.50924,0.84701,0.68106
681.942,73.3669,-2.51124,0.85841,0.68042
682.642,73.43781,-2.51544,0.86824,0.67977
683.342,73.50861,-2.52228,0.88242,0.67913
684.042,73.5795,-2.53069,0.89863,0.67849
684.742,73.65021,-2.53848,0.9126,0.67785
685.442,73.72109,-2.54321,0.9244,0.6772
686.142,73.79175,-2.54454,0.93485,0.67656
686.842,73.86244,-2.54697,0.94657,0.67592
687.542,73.93302,-2.55153,0.96313,0.67528
688.242,74.00358,-2.55556,0.97635,0.67463
688.942,74.07406,-2.55937,0.98648,0.67399
689.642,74.1443,-2.56425,1.00067,0.67335
690.342,74.21499,-2.56675,1.01113,0.67271
691.042,74.28574,-2.57061,1.02119,0.67207
691.742,74.35673,-2.57525,1.03174,0.67142
692.442,74.42735,-2.57819,1.04442,0.67078
693.142,74.49791,-2.58507,1.05362,0.67014
693.842,74.5685,-2.59316,1.06173,0.6695
694.542,74.63905,-2.60067,1.07722,0.66885
695.242,74.70984,-2.60382,1.08648,0.66821
695.942,74.78056,-2.60482,1.0917,0.66757
696.642,74.85121,-2.6084,1.09615,0.66693
697.342,74.92177,-2.61157,1.10824,0.66628
698.042,74.99235,-2.61932,1.1133,0.66564
698.742,75.06296,-2.62392,1.12038,0.665
699.442,75.1335,-2.63024,1.12551,0.66436
700.142,75.20407,-2.63747,1.132,0.66371
700.842,75.27464,-2.64341,1.13065,0.66307
701.542,75.34514,-2.64583,1.13199,0.66243
702.242,75.41565,-2.64848,1.13003,0.66179
702.942,75.4864,-2.65287,1.12248,0.66114
703.642,75.55714,-2.65762,1.11856,0.6605
704.342,75.6279,-2.66586,1.11291,0.65986
705.042,75.69851,-2.67555,1.1022,0.65922
705.742,75.7691,-2.67567,1.09194,0.65857
706.442,75.8399,-2.67961,1.07281,0.65793
707.142,75.9106,-2.68594,1.05493,0.65729
707.842,75.98139,-2.69218,1.02718,0.65665
708.542,76.05195,-2.69531,0.99742,0.65601
709.242,76.12267,-2.69618,0.96081,0.65536
709.942,76.19332,-2.69997,0.9236,0.65472
710.642,76.26423,-2.70566,0.88591,0.65408
711.342,76.33498,-2.71194,0.84412,0.65344
712.042,76.40566,-2.71749,0.80631,0.6528
712.742,76.47629,-2.72156,0.76772,0.65215
713.442,76.54694,-2.72166,0.72909,0.65151
714.142,76.6177,-2.72474,0.68821,0.65087
714.842,76.68817,-2.72443,0.64189,0.65023
715.542,76.7587,-2.72629,0.60494,0.64959
716.242,76.82902,-2.72943,0.57123,0.64894
716.942,76.8993,-2.73071,0.53321,0.6483
717.642,76.96992,-2.73491,0.50766,0.64766
718.342,77.04048,-2.73494,0.47346,0.64702
719.042,77.11125,-2.73911,0.45154,0.64638
719.742,77.1814,-2.7413,0.42697,0.64573
720.442,77.25208,-2.74269,0.40064,0.64509
721.142,77.32273,-2.74402,0.3842,0.64445
721.842,77.3937,-2.74487,0.36474,0.64381
722.542,77.4644,-2.74871,0.34541,0.64317
723.242,77.5351,-2.74862,0.32474,0.64253
723.942,77.606,-2.74995,0.31248,0.64189
724.642,77.67666,-2.75282,0.29794,0.64124
725.342,77.74735,-2.75147,0.28385,0.6406
726.042,77.8177,-2.75299,0.26964,0.63996
726.742,77.88835,-2.75683,0.25759,0.63932
727.442,77.959,-2.76032,0.24588,0.63868
728.142,78.02978,-2.76167,0.2379,0.63804
728.842,78.1005,-2.76024,0.22765,0.6374
729.542,78.17134,-2.76033,0.21686,0.63676
730.242,78.2421,-2.76057,0.20476,0.63612
730.942,78.31262,-2.76051,0.19482,0.63547
731.642,78.38314,-2.76302,0.18579,0.63483
732.342,78.45366,-2.762,0.17608,0.63419
733.042,78.5244,-2.76291,0.17102,0.63355
733.742,78.595,-2.76384,0.16566,0.63291
734.442,78.6657,-2.7644,0.15359,0.63227
735.142,78.73639,-2.76305,0.14905,0.63163
735.842,78.80744,-2.76306,0.14415,0.63099
736.542,78.8783,-2.76628,0.1411,0.63035
737.242,78.94926,-2.76925,0.13751,0.62971
737.942,79.02009,-2.77077,0.12829,0.62907
738.642,79.09088,-2.77185,0.12861,0.62843
739.342,79.16167,-2.77266,0.12126,0.62779
740.042,79.23257,-2.76913,0.11881,0.62715
740.742,79.30355,-2.76912,0.10945,0.62651
741.442,79.3746,-2.76785,0.11092,0.62587
742.142,79.44538,-2.77102,0.10126,0.62523
742.842,79.51635,-2.77144,0.10163,0.62459
743.542,79.5872,-2.77156,0.09579791,0.62395
744.242,79.65812,-2.76888,0.09350882,0.62331
744.942,79.729,-2.77023,0.0959793,0.62267
745.642,79.80006,-2.77056,0.08783445,0.62203
746.342,79.87102,-2.77448,0.08580586,0.62139
747.042,79.94203,-2.77615,0.08591909,0.62075
747.742,80.01299,-2.77746,0.08739957,0.62012
748.442,80.0841,-2.77813,0.08375679,0.61948
749.142,80.155,-2.779,0.07680302,0.61884
749.842,80.2257,-2.7779,0.07827563,0.6182
750.542,80.29652,-2.77629,0.07597018,0.61756
751.242,80.36758,-2.77506,0.07403178,0.61692
751.942,80.4389,-2.77505,0.07410672,0.61628
752.642,80.50997,-2.77658,0.06788365,0.61564
753.342,80.58097,-2.77832,0.06471848,0.61501
754.042,80.65188,-2.77835,0.06079118,0.61437
754.742,80.72274,-2.7793,0.06295335,0.61373
755.442,80.79348,-2.77934,0.06146019,0.61309
756.142,80.86421,-2.77929,0.06106197,0.61245
756.842,80.93503,-2.78065,0.06181504,0.61182
757.542,81.00596,-2.78065,0.06021991,0.61118
758.242,81.07693,-2.78065,0.0622972,0.61054
758.942,81.14796,-2.7804,0.05846801,0.6099
759.642,81.21906,-2.77999,0.05477616,0.60927
760.342,81.29008,-2.78131,0.05699079,0.60863
761.042,81.36109,-2.78131,0.0539786,0.60799
761.742,81.432,-2.78262,0.04927745,0.60736
762.442,81.50294,-2.78262,0.05457645,0.60672
763.142,81.57393,-2.78262,0.05599851,0.60608
763.842,81.64502,-2.78395,0.05150595,0.60544
764.542,81.71614,-2.78394,0.04943549,0.60481
765.242,81.78721,-2.78385,0.04824766,0.60417
765.942,81.8583,-2.78505,0.05183051,0.60354
766.642,81.92939,-2.78394,0.04965808,0.6029
767.342,82.00021,-2.78393,0.04676479,0.60226
768.042,82.07119,-2.78525,0.05073432,0.60163
768.742,82.14215,-2.78395,0.0526921,0.60099
769.442,82.2133,-2.78394,0.04760555,0.60036
770.142,82.28413,-2.7854,0.04623252,0.59972
770.842,82.35509,-2.78679,0.04681435,0.59908
771.542,82.42582,-2.78679,0.04567601,0.59845
772.242,82.49686,-2.7881,0.04612217,0.59781
772.942,82.56774,-2.78817,0.04127156,0.59718
773.642,82.639,-2.7881,0.0443782,0.59654
774.342,82.71011,-2.7881,0.03604402,0.59591
775.042,82.78112,-2.7868,0.03946279,0.59527
775.742,82.852,-2.7868,0.0403704,0.59464
776.442,82.92283,-2.78876,0.04030515,0.59401
777.142,82.99381,-2.78858,0.03663823,0.59337
777.842,83.06487,-2.78644,0.03551369,0.59274
778.542,83.13588,-2.78536,0.03624866,0.5921
779.242,83.20676,-2.78686,0.0367054,0.59147
779.942,83.2778,-2.78898,0.03635671,0.59084
780.642,83.349,-2.79158,0.03736096,0.5902
781.342,83.42011,-2.7947,0.03608058,0.58957
782.042,83.491,-2.79458,0.03432846,0.58893
782.742,83.56188,-2.79325,0.04003797,0.5883
783.442,83.6328,-2.79254,0.03724961,0.58767
784.142,83.70384,-2.79197,0.03930526,0.58704
784.842,83.7749,-2.79129,0.03998555,0.5864
785.542,83.84613,-2.79263,0.03678138,0.58577
786.242,83.91719,-2.79401,0.03932498,0.58514
786.942,83.98823,-2.79403,0.03608392,0.58451
787.642,84.05912,-2.79302,0.03697686,0.58387
788.342,84.13015,-2.78887,0.0370842,0.58324
789.042,84.20113,-2.78899,0.03838159,0.58261
789.742,84.27216,-2.79031,0.0404701,0.58198
790.442,84.34305,-2.79354,0.03813711,0.58135
791.142,84.414,-2.79791,0.0416539,0.58072
791.842,84.48482,-2.79739,0.03657468,0.58008
792.542,84.5557,-2.79688,0.04132919,0.57945
793.242,84.62657,-2.79688,0.03689373,0.57882
793.942,84.69773,-2.79703,0.03816328,0.57819
794.642,84.76902,-2.79827,0.03671235,0.57756
795.342,84.84026,-2.79962,0.04190934,0.57693
796.042,84.9114,-2.79829,0.03705841,0.5763
796.742,84.9825,-2.79962,0.03667058,0.57567
796.842,84.9927,-2.79947,0.03634123,0.57558