File: 01_Data/Wool_Rug/STA/N2/10K_min/Wool_Rug_STA_N2_10KData_220118_R2.csv
##Temp./Â°C,Time/min,Mass loss(subtr.2)/mg,DSC(subtr.2)/(mW/mg),Sensit./(uV/mW)
49.328,10.01,0.73446,0.02247939,1.07447
50.028,10.76409,0.73556,0.06012416,1.07442
50.728,10.96827,0.73533,0.0856445,1.07437
51.428,11.12093,0.73604,0.1047,1.07432
52.128,11.25034,0.73773,0.12193,1.07427
52.828,11.36559,0.7368,0.13607,1.07422
53.528,11.47193,0.73497,0.14759,1.07416
54.228,11.57187,0.73541,0.1619,1.07411
54.928,11.666,0.73658,0.17072,1.07405
55.628,11.7571,0.73612,0.18087,1.07399
56.328,11.8462,0.73511,0.18601,1.07393
57.028,11.93238,0.73512,0.19208,1.07387
57.728,12.01697,0.73657,0.20073,1.07381
58.428,12.10035,0.73688,0.20573,1.07375
59.128,12.18218,0.73539,0.21324,1.07369
59.828,12.2626,0.73601,0.21607,1.07362
60.528,12.34206,0.73677,0.22073,1.07356
61.228,12.42109,0.73808,0.22617,1.07349
61.928,12.49945,0.73808,0.22867,1.07342
62.628,12.57746,0.73808,0.23451,1.07335
63.328,12.65509,0.7367,0.2349,1.07328
64.028,12.7316,0.73464,0.23948,1.07321
64.728,12.80832,0.73535,0.24541,1.07314
65.428,12.8848,0.73531,0.24851,1.07307
66.128,12.96157,0.73557,0.25243,1.07299
66.828,13.03726,0.73424,0.25557,1.07292
67.528,13.1129,0.73556,0.25872,1.07284
68.228,13.1885,0.73688,0.26318,1.07276
68.928,13.2634,0.73557,0.26882,1.07268
69.628,13.33818,0.73499,0.27026,1.0726
70.328,13.41286,0.73403,0.27223,1.07252
71.028,13.4874,0.73413,0.27624,1.07244
71.728,13.5617,0.73402,0.2796,1.07235
72.428,13.63585,0.73402,0.28305,1.07227
73.128,13.70972,0.7327,0.28553,1.07218
73.828,13.7835,0.73241,0.28741,1.07209
74.528,13.85701,0.73271,0.292,1.07201
75.228,13.9305,0.73332,0.29645,1.07192
75.928,14.004,0.7327,0.29728,1.07183
76.628,14.0773,0.73271,0.29792,1.07173
77.328,14.15045,0.73139,0.30319,1.07164
78.028,14.22304,0.73138,0.30523,1.07155
78.728,14.2957,0.73139,0.30827,1.07145
79.428,14.36785,0.73007,0.31203,1.07136
80.128,14.44045,0.72876,0.31489,1.07126
80.828,14.51251,0.72876,0.31786,1.07116
81.528,14.5852,0.72734,0.32018,1.07106
82.228,14.65705,0.72885,0.32119,1.07096
82.928,14.7285,0.72875,0.32409,1.07086
83.628,14.79979,0.72974,0.32599,1.07075
84.328,14.8711,0.72931,0.32907,1.07065
85.028,14.9426,0.72841,0.32916,1.07054
85.728,15.01341,0.72711,0.33115,1.07044
86.428,15.08419,0.72578,0.33301,1.07033
87.128,15.1549,0.72448,0.33374,1.07022
87.828,15.22591,0.72317,0.33491,1.07011
88.528,15.29669,0.72321,0.33747,1.07
89.228,15.3672,0.72451,0.33814,1.06989
89.928,15.43719,0.72448,0.33722,1.06977
90.628,15.5075,0.72448,0.34172,1.06966
91.328,15.5777,0.72352,0.33905,1.06954
92.028,15.64778,0.72481,0.33878,1.06943
92.728,15.7177,0.72325,0.33707,1.06931
93.428,15.7873,0.72185,0.33799,1.06919
94.128,15.85724,0.72136,0.33804,1.06907
94.828,15.92668,0.72073,0.3385,1.06895
95.528,15.9962,0.72184,0.33667,1.06883
96.228,16.06556,0.72321,0.33703,1.0687
96.928,16.1347,0.72184,0.33605,1.06858
97.628,16.20391,0.72185,0.33602,1.06845
98.328,16.27334,0.72053,0.3346,1.06833
99.028,16.34265,0.71937,0.33459,1.0682
99.728,16.4117,0.71915,0.33444,1.06807
100.428,16.4806,0.71786,0.33202,1.06794
101.128,16.54944,0.71659,0.33041,1.06781
101.828,16.6183,0.71527,0.33142,1.06768
102.528,16.6872,0.71527,0.33003,1.06754
103.228,16.75613,0.71523,0.32796,1.06741
103.928,16.825,0.71526,0.32552,1.06727
104.628,16.89378,0.71667,0.32486,1.06714
105.328,16.96238,0.71791,0.32452,1.067
106.028,17.03102,0.71658,0.32162,1.06686
106.728,17.0999,0.71658,0.32079,1.06672
107.428,17.1689,0.71526,0.32084,1.06658
108.128,17.23785,0.71395,0.32144,1.06644
108.828,17.30646,0.71266,0.32054,1.06629
109.528,17.37491,0.71264,0.31787,1.06615
110.228,17.44351,0.71121,0.3188,1.066
110.928,17.51227,0.71176,0.31623,1.06585
111.628,17.58091,0.71253,0.31311,1.06571
112.328,17.64932,0.71386,0.31246,1.06556
113.028,17.7178,0.71387,0.31235,1.06541
113.728,17.786,0.71262,0.31001,1.06526
114.428,17.85432,0.71247,0.31111,1.0651
115.128,17.92236,0.71252,0.30941,1.06495
115.828,17.99089,0.71254,0.3089,1.0648
116.528,18.0595,0.71121,0.30683,1.06464
117.228,18.1277,0.71149,0.30575,1.06448
117.928,18.19585,0.71286,0.30507,1.06433
118.628,18.26414,0.71416,0.30206,1.06417
119.328,18.33286,0.71224,0.30203,1.06401
120.028,18.40116,0.71153,0.30138,1.06385
120.728,18.4693,0.71022,0.30161,1.06368
121.428,18.53728,0.71153,0.30168,1.06352
122.128,18.6055,0.71153,0.29994,1.06336
122.828,18.6735,0.71023,0.29831,1.06319
123.528,18.74155,0.71153,0.29744,1.06302
124.228,18.80967,0.71022,0.2976,1.06286
124.928,18.87781,0.71013,0.29845,1.06269
125.628,18.9461,0.71023,0.29843,1.06252
126.328,19.0141,0.71154,0.29528,1.06235
127.028,19.08209,0.71154,0.29676,1.06217
127.728,19.14997,0.71088,0.29494,1.062
128.428,19.21804,0.71055,0.29734,1.06183
129.128,19.2861,0.71055,0.29539,1.06165
129.828,19.35405,0.71054,0.29411,1.06147
130.528,19.4219,0.7096,0.29644,1.0613
131.228,19.48974,0.71155,0.29626,1.06112
131.928,19.5576,0.7089,0.29613,1.06094
132.628,19.62544,0.7089,0.29593,1.06076
133.328,19.69353,0.71019,0.29436,1.06058
134.028,19.76128,0.709,0.29526,1.06039
134.728,19.8293,0.71021,0.2948,1.06021
135.428,19.89698,0.70923,0.29543,1.06002
136.128,19.96483,0.70923,0.29595,1.05984
136.828,20.0325,0.70923,0.29489,1.05965
137.528,20.1001,0.71055,0.29509,1.05946
138.228,20.1678,0.71058,0.29464,1.05927
138.928,20.23541,0.71022,0.29382,1.05908
139.628,20.3032,0.71022,0.29612,1.05889
140.328,20.37078,0.71055,0.29693,1.0587
141.028,20.43824,0.70994,0.29816,1.0585
141.728,20.50582,0.70985,0.29797,1.05831
142.428,20.57319,0.71022,0.29891,1.05811
143.128,20.64078,0.70891,0.29848,1.05791
143.828,20.70832,0.70891,0.29675,1.05772
144.528,20.77599,0.70891,0.29856,1.05752
145.228,20.84345,0.70891,0.29833,1.05732
145.928,20.91094,0.70891,0.30068,1.05712
146.628,20.9784,0.71016,0.29864,1.05691
147.328,21.04593,0.70886,0.29999,1.05671
148.028,21.1133,0.7089,0.29991,1.05651
148.728,21.1805,0.70985,0.29947,1.0563
149.428,21.24775,0.7103,0.30321,1.05609
150.128,21.31521,0.70891,0.30123,1.05589
150.828,21.38263,0.70891,0.29927,1.05568
151.528,21.45005,0.7099,0.30058,1.05547
152.228,21.5173,0.71121,0.30081,1.05526
152.928,21.58462,0.71121,0.3057,1.05504
153.628,21.652,0.71148,0.30374,1.05483
154.328,21.71956,0.71154,0.30445,1.05462
155.028,21.787,0.70957,0.30402,1.0544
155.728,21.85455,0.70824,0.30615,1.05419
156.428,21.92166,0.70823,0.30562,1.05397
157.128,21.98848,0.70726,0.30827,1.05375
157.828,22.05574,0.70729,0.30677,1.05353
158.528,22.1232,0.70694,0.30821,1.05331
159.228,22.1909,0.70722,0.30949,1.05309
159.928,22.258,0.70726,0.31002,1.05287
160.628,22.3252,0.70859,0.31,1.05264
161.328,22.39232,0.70811,0.31148,1.05242
162.028,22.45975,0.70824,0.3107,1.05219
162.728,22.52681,0.70959,0.31121,1.05196
163.428,22.5941,0.70956,0.31352,1.05174
164.128,22.66114,0.70956,0.31314,1.05151
164.828,22.7284,0.70964,0.31514,1.05128
165.528,22.79551,0.70858,0.31415,1.05105
166.228,22.86261,0.70858,0.31542,1.05081
166.928,22.92975,0.70858,0.31624,1.05058
167.628,22.99704,0.70858,0.31509,1.05035
168.328,23.06429,0.70857,0.31944,1.05011
169.028,23.13148,0.7099,0.31983,1.04988
169.728,23.19878,0.71065,0.32023,1.04964
170.428,23.26598,0.70991,0.32318,1.0494
171.128,23.33299,0.7075,0.32189,1.04916
171.828,23.39989,0.70857,0.32257,1.04892
172.528,23.46678,0.70726,0.32749,1.04868
173.228,23.5337,0.70737,0.32744,1.04844
173.928,23.6006,0.70759,0.32849,1.04819
174.628,23.66762,0.70759,0.32985,1.04795
175.328,23.73464,0.70759,0.3304,1.0477
176.028,23.8017,0.70759,0.33029,1.04746
176.728,23.86836,0.70759,0.33264,1.04721
177.428,23.93525,0.70781,0.32957,1.04696
178.128,24.00207,0.70759,0.33305,1.04671
178.828,24.06932,0.70759,0.33213,1.04646
179.528,24.13637,0.70759,0.33375,1.04621
180.228,24.20352,0.70742,0.33555,1.04596
180.928,24.27046,0.70627,0.33454,1.0457
181.628,24.33766,0.70758,0.33394,1.04545
182.328,24.40476,0.70889,0.33556,1.04519
183.028,24.4721,0.70627,0.33799,1.04493
183.728,24.53904,0.70628,0.33823,1.04468
184.428,24.60604,0.70662,0.33981,1.04442
185.128,24.67241,0.70661,0.33998,1.04416
185.828,24.7394,0.70662,0.34079,1.0439
186.528,24.80621,0.70618,0.34282,1.04363
187.228,24.87342,0.70496,0.34396,1.04337
187.928,24.94022,0.70496,0.34548,1.04311
188.628,25.00712,0.70496,0.34668,1.04284
189.328,25.0742,0.70398,0.34668,1.04258
190.028,25.14118,0.70366,0.34916,1.04231
190.728,25.20806,0.70298,0.35027,1.04204
191.428,25.27495,0.70298,0.35001,1.04177
192.128,25.34166,0.70437,0.34954,1.0415
192.828,25.40855,0.70496,0.35312,1.04123
193.528,25.47542,0.70546,0.35423,1.04096
194.228,25.5424,0.70495,0.35609,1.04069
194.928,25.6094,0.70429,0.35574,1.04041
195.628,25.67628,0.70429,0.35746,1.04014
196.328,25.7429,0.70332,0.35946,1.03986
197.028,25.8095,0.70204,0.36067,1.03958
197.728,25.87632,0.70101,0.36255,1.03931
198.428,25.94313,0.70165,0.36608,1.03903
199.128,26.0105,0.70232,0.36654,1.03875
199.828,26.0774,0.70439,0.36932,1.03847
200.528,26.1443,0.70463,0.37041,1.03818
201.228,26.21108,0.70331,0.37025,1.0379
201.928,26.27787,0.70064,0.37392,1.03762
202.628,26.34484,0.70068,0.3772,1.03733
203.328,26.4116,0.69933,0.37782,1.03704
204.028,26.4785,0.69805,0.37837,1.03676
204.728,26.5451,0.69773,0.38196,1.03647
205.428,26.6119,0.69772,0.38433,1.03618
206.128,26.67825,0.69715,0.38593,1.03589
206.828,26.7451,0.69706,0.39046,1.0356
207.528,26.8122,0.69715,0.39032,1.03531
208.228,26.87952,0.69838,0.39204,1.03501
208.928,26.9466,0.69838,0.39498,1.03472
209.628,27.0134,0.69748,0.39829,1.03442
210.328,27.0803,0.69607,0.40245,1.03413
211.028,27.1472,0.69443,0.40471,1.03383
211.728,27.21404,0.69284,0.40814,1.03353
212.428,27.2808,0.69179,0.41234,1.03323
213.128,27.3474,0.69184,0.41583,1.03294
213.828,27.4143,0.68915,0.41745,1.03263
214.528,27.48122,0.68794,0.4233,1.03233
215.228,27.5484,0.68915,0.42736,1.03203
215.928,27.61532,0.68947,0.43364,1.03173
216.628,27.68208,0.68949,0.43658,1.03142
217.328,27.74891,0.68949,0.44251,1.03111
218.028,27.8157,0.68822,0.44818,1.03081
218.728,27.88226,0.68817,0.45212,1.0305
219.428,27.94918,0.68684,0.45895,1.03019
220.128,28.01615,0.68539,0.46515,1.02988
220.828,28.08332,0.683,0.47192,1.02957
221.528,28.15028,0.68269,0.47793,1.02926
222.228,28.217,0.68269,0.48497,1.02895
222.928,28.2839,0.68143,0.49323,1.02863
223.628,28.3506,0.6794,0.50156,1.02832
224.328,28.4174,0.6794,0.51175,1.028
225.028,28.4843,0.67787,0.5199,1.02769
225.728,28.5511,0.67546,0.52828,1.02737
226.428,28.6178,0.67254,0.53995,1.02705
227.128,28.68461,0.67128,0.54986,1.02673
227.828,28.7515,0.6699,0.56046,1.02641
228.528,28.81843,0.66801,0.5705,1.02609
229.228,28.8853,0.66532,0.5821,1.02577
229.928,28.95213,0.66404,0.59255,1.02545
230.628,29.01908,0.66147,0.60428,1.02512
231.328,29.08604,0.66001,0.61457,1.0248
232.028,29.1529,0.657,0.62585,1.02447
232.728,29.22,0.65428,0.63452,1.02414
233.428,29.2869,0.65247,0.64328,1.02382
234.128,29.354,0.64965,0.65464,1.02349
234.828,29.4208,0.64578,0.66114,1.02316
235.528,29.4877,0.64412,0.66956,1.02283
236.228,29.5545,0.64273,0.67783,1.0225
236.928,29.62128,0.63961,0.68318,1.02216
237.628,29.6883,0.63644,0.68447,1.02183
238.328,29.7552,0.63132,0.6898,1.02149
239.028,29.82211,0.62798,0.69364,1.02116
239.728,29.88938,0.62439,0.69535,1.02082
240.428,29.95615,0.62178,0.69683,1.02049
241.128,30.02313,0.62211,0.69501,1.02015
241.828,30.0898,0.61951,0.69532,1.01981
242.528,30.15666,0.61647,0.69388,1.01947
243.228,30.2233,0.61032,0.69303,1.01913
243.928,30.29017,0.60491,0.69186,1.01879
244.628,30.3571,0.60219,0.69038,1.01844
245.328,30.4242,0.59884,0.69075,1.0181
246.028,30.4912,0.59359,0.69115,1.01775
246.728,30.5581,0.58984,0.69031,1.01741
247.428,30.62493,0.58671,0.69106,1.01706
248.128,30.69179,0.58416,0.69253,1.01671
248.828,30.7588,0.57958,0.69239,1.01637
249.528,30.8257,0.57651,0.69042,1.01602
250.228,30.89238,0.57242,0.69065,1.01567
250.928,30.95934,0.5704,0.69085,1.01532
251.628,31.0262,0.56775,0.68979,1.01496
252.328,31.0931,0.56365,0.69073,1.01461
253.028,31.1601,0.55776,0.69173,1.01426
253.728,31.22703,0.55139,0.69201,1.0139
254.428,31.29397,0.54759,0.69299,1.01355
255.128,31.36089,0.54429,0.69229,1.01319
255.828,31.42772,0.54022,0.69349,1.01283
256.528,31.49455,0.53702,0.6889,1.01247
257.228,31.56155,0.53404,0.68806,1.01211
257.928,31.62858,0.52929,0.68441,1.01175
258.628,31.69567,0.52561,0.68257,1.01139
259.328,31.76257,0.52072,0.68282,1.01103
260.028,31.8295,0.51579,0.68061,1.01067
260.728,31.8964,0.51219,0.68035,1.0103
261.428,31.96322,0.50713,0.67832,1.00994
262.128,32.03008,0.5016,0.67862,1.00957
262.828,32.0969,0.49597,0.67912,1.00921
263.528,32.16388,0.49471,0.67888,1.00884
264.228,32.23056,0.49326,0.68027,1.00847
264.928,32.2973,0.49031,0.6802,1.0081
265.628,32.3642,0.48523,0.67914,1.00773
266.328,32.43132,0.47779,0.68055,1.00736
267.028,32.49824,0.4716,0.68156,1.00699
267.728,32.56534,0.46724,0.67917,1.00662
268.428,32.6322,0.46323,0.68094,1.00624
269.128,32.69917,0.45833,0.68152,1.00587
269.828,32.76607,0.45275,0.68075,1.00549
270.528,32.83297,0.44875,0.68508,1.00512
271.228,32.89996,0.4427,0.68398,1.00474
271.928,32.967,0.4397,0.683,1.00436
272.628,33.034,0.43537,0.68214,1.00398
273.328,33.10116,0.43093,0.68471,1.0036
274.028,33.16817,0.42379,0.68506,1.00322
274.728,33.23529,0.4208,0.68571,1.00284
275.428,33.3025,0.41227,0.6867,1.00246
276.128,33.36939,0.40776,0.68763,1.00207
276.828,33.43636,0.40363,0.68997,1.00169
277.528,33.50323,0.39926,0.68802,1.0013
278.228,33.5702,0.39474,0.69121,1.00092
278.928,33.63725,0.39032,0.69275,1.00053
279.628,33.70415,0.3845,0.6907,1.00014
280.328,33.77105,0.37886,0.69449,0.99976
281.028,33.83786,0.37341,0.6926,0.99937
281.728,33.9047,0.36868,0.69279,0.99898
282.428,33.9716,0.36155,0.69509,0.99859
283.128,34.0386,0.35775,0.69418,0.99819
283.828,34.1055,0.35104,0.69574,0.9978
284.528,34.17257,0.34513,0.69674,0.99741
285.228,34.23956,0.33954,0.69684,0.99701
285.928,34.30655,0.33081,0.69806,0.99662
286.628,34.37345,0.32525,0.6966,0.99622
287.328,34.4403,0.3196,0.69704,0.99582
288.028,34.50704,0.31264,0.69938,0.99543
288.728,34.57398,0.30627,0.69938,0.99503
289.428,34.64089,0.30121,0.69997,0.99463
290.128,34.70769,0.29468,0.69954,0.99423
290.828,34.77466,0.28867,0.69877,0.99383
291.528,34.84149,0.28162,0.69933,0.99342
292.228,34.90842,0.27333,0.70105,0.99302
292.928,34.9754,0.2672,0.70155,0.99262
293.628,35.04245,0.25867,0.70319,0.99221
294.328,35.1094,0.25125,0.70378,0.99181
295.028,35.17638,0.24592,0.70353,0.9914
295.728,35.2433,0.23805,0.70554,0.99099
296.428,35.3104,0.23139,0.70693,0.99058
297.128,35.3774,0.22325,0.70982,0.99018
297.828,35.44443,0.21699,0.71254,0.98977
298.528,35.5116,0.2089,0.71189,0.98936
299.228,35.57866,0.20129,0.71515,0.98894
299.928,35.646,0.19312,0.71575,0.98853
300.628,35.71295,0.18706,0.71604,0.98812
301.328,35.78,0.17814,0.71868,0.9877
302.028,35.84705,0.17056,0.7189,0.98729
302.728,35.91427,0.16224,0.72117,0.98687
303.428,35.98128,0.15309,0.72157,0.98646
304.128,36.04804,0.14489,0.72397,0.98604
304.828,36.11513,0.13622,0.7268,0.98562
305.528,36.1826,0.12584,0.7262,0.9852
306.228,36.24995,0.1187,0.72587,0.98478
306.928,36.31716,0.11004,0.72697,0.98436
307.628,36.38428,0.0997093,0.7302,0.98394
308.328,36.45171,0.08966003,0.72915,0.98352
309.028,36.51913,0.07894648,0.73249,0.9831
309.728,36.58654,0.06857082,0.72962,0.98267
310.428,36.6539,0.05895333,0.73119,0.98225
311.128,36.72119,0.050783,0.73368,0.98183
311.828,36.78845,0.04142101,0.73071,0.9814
312.528,36.85579,0.03289977,0.7316,0.98097
313.228,36.92311,0.01971797,0.72985,0.98054
313.928,36.99074,0.009434125,0.72829,0.98012
314.628,37.05825,0.001290313,0.72945,0.97969
315.328,37.12567,-0.009892284,0.7252,0.97926
316.028,37.19299,-0.01982872,0.72286,0.97883
316.728,37.26035,-0.03123715,0.72195,0.97839
317.428,37.3277,-0.04349158,0.7217,0.97796
318.128,37.3951,-0.05494799,0.71904,0.97753
318.828,37.4623,-0.06614622,0.7162,0.9771
319.528,37.52966,-0.07781321,0.71582,0.97666
320.228,37.59717,-0.08849808,0.71122,0.97622
320.928,37.66455,-0.09903564,0.70533,0.97579
321.628,37.73196,-0.10921,0.70461,0.97535
322.328,37.79898,-0.12144,0.69822,0.97491
323.028,37.86613,-0.13407,0.69487,0.97447
323.728,37.93353,-0.14578,0.69274,0.97404
324.428,38.00097,-0.15772,0.68292,0.97359
325.128,38.06858,-0.1704,0.67827,0.97315
325.828,38.1357,-0.18323,0.67502,0.97271
326.528,38.20286,-0.19471,0.66976,0.97227
327.228,38.2701,-0.20678,0.66178,0.97183
327.928,38.33768,-0.21902,0.65726,0.97138
328.628,38.40529,-0.22999,0.65327,0.97094
329.328,38.47262,-0.24349,0.64772,0.97049
330.028,38.54017,-0.25713,0.64183,0.97004
330.728,38.60757,-0.26864,0.63601,0.9696
331.428,38.67488,-0.28122,0.63167,0.96915
332.128,38.74236,-0.29232,0.62376,0.9687
332.828,38.80956,-0.30506,0.61673,0.96825
333.528,38.87712,-0.31718,0.60768,0.9678
334.228,38.9445,-0.32987,0.60399,0.96735
334.928,39.0122,-0.34107,0.59994,0.9669
335.628,39.07953,-0.35318,0.59471,0.96645
336.328,39.14714,-0.36784,0.58626,0.96599
337.028,39.21464,-0.37998,0.58191,0.96554
337.728,39.2822,-0.39406,0.57516,0.96508
338.428,39.34957,-0.40696,0.57233,0.96463
339.128,39.4168,-0.42026,0.56811,0.96417
339.828,39.48415,-0.43253,0.56235,0.96371
340.528,39.55149,-0.44575,0.55626,0.96326
341.228,39.61889,-0.45886,0.55324,0.9628
341.928,39.68639,-0.4711,0.54776,0.96234
342.628,39.75387,-0.48213,0.54527,0.96188
343.328,39.82144,-0.49587,0.53932,0.96142
344.028,39.88893,-0.50805,0.53465,0.96096
344.728,39.95637,-0.52087,0.53331,0.96049
345.428,40.02386,-0.53155,0.52629,0.96003
346.128,40.09117,-0.54468,0.52673,0.95957
346.828,40.15852,-0.55549,0.52376,0.9591
347.528,40.22615,-0.56782,0.51844,0.95864
348.228,40.29377,-0.58065,0.51148,0.95817
348.928,40.36183,-0.59184,0.50742,0.95771
349.628,40.42927,-0.60152,0.50261,0.95724
350.328,40.49669,-0.6153,0.49917,0.95677
351.028,40.5642,-0.6246,0.49667,0.9563
351.728,40.63193,-0.63302,0.49199,0.95583
352.428,40.69952,-0.64369,0.48773,0.95536
353.128,40.76716,-0.65561,0.48422,0.95489
353.828,40.83489,-0.66552,0.48464,0.95442
354.528,40.90276,-0.67694,0.47842,0.95395
355.228,40.9705,-0.6852,0.47488,0.95347
355.928,41.0382,-0.69559,0.47022,0.953
356.628,41.10606,-0.70196,0.46685,0.95253
357.328,41.17396,-0.71209,0.46389,0.95205
358.028,41.24184,-0.7218,0.46031,0.95157
358.728,41.30969,-0.73134,0.46115,0.9511
359.428,41.37743,-0.74126,0.45492,0.95062
360.128,41.44525,-0.74848,0.45377,0.95014
360.828,41.5129,-0.75698,0.44995,0.94966
361.528,41.58015,-0.76541,0.44814,0.94918
362.228,41.64799,-0.77086,0.44806,0.9487
362.928,41.71583,-0.77893,0.44323,0.94822
363.628,41.78418,-0.78588,0.44184,0.94774
364.328,41.85187,-0.79429,0.43961,0.94726
365.028,41.91946,-0.8024,0.43592,0.94678
365.728,41.98707,-0.80979,0.43531,0.94629
366.428,42.05477,-0.81799,0.43172,0.94581
367.128,42.1226,-0.82512,0.43195,0.94532
367.828,42.19052,-0.8288,0.42604,0.94484
368.528,42.25844,-0.83845,0.42501,0.94435
369.228,42.32617,-0.84738,0.42225,0.94386
369.928,42.39389,-0.85139,0.4229,0.94338
370.628,42.46164,-0.85736,0.42138,0.94289
371.328,42.52959,-0.86386,0.41996,0.9424
372.028,42.59774,-0.87121,0.41924,0.94191
372.728,42.66563,-0.87719,0.41704,0.94142
373.428,42.73342,-0.88284,0.41617,0.94093
374.128,42.80123,-0.88773,0.41204,0.94044
374.828,42.8692,-0.89313,0.4117,0.93994
375.528,42.9371,-0.89948,0.4128,0.93945
376.228,43.00495,-0.90483,0.41159,0.93896
376.928,43.073,-0.91132,0.41126,0.93846
377.628,43.141,-0.91924,0.40606,0.93797
378.328,43.20899,-0.9267,0.40681,0.93747
379.028,43.27697,-0.9335,0.40938,0.93697
379.728,43.34486,-0.93828,0.4074,0.93648
380.428,43.41284,-0.94142,0.40657,0.93598
381.128,43.48066,-0.94502,0.40236,0.93548
381.828,43.54841,-0.9507,0.40462,0.93498
382.528,43.61645,-0.95695,0.40434,0.93448
383.228,43.68443,-0.96415,0.40188,0.93398
383.928,43.75261,-0.97034,0.40354,0.93348
384.628,43.82065,-0.97357,0.40268,0.93298
385.328,43.88864,-0.97783,0.40078,0.93247
386.028,43.95664,-0.98475,0.40172,0.93197
386.728,44.02466,-0.99329,0.39884,0.93147
387.428,44.09278,-0.99953,0.40058,0.93096
388.128,44.16085,-1.00478,0.40103,0.93046
388.828,44.22898,-1.00789,0.40044,0.92995
389.528,44.2973,-1.01366,0.39688,0.92945
390.228,44.3655,-1.0188,0.39897,0.92894
390.928,44.43376,-1.02241,0.39716,0.92843
391.628,44.50189,-1.02671,0.39611,0.92792
392.328,44.57012,-1.03171,0.39728,0.92741
393.028,44.6383,-1.03698,0.3936,0.9269
393.728,44.70671,-1.04265,0.39332,0.92639
394.428,44.77496,-1.04822,0.39239,0.92588
395.128,44.84323,-1.05439,0.38981,0.92537
395.828,44.91151,-1.05985,0.39082,0.92486
396.528,44.97964,-1.06286,0.38694,0.92435
397.228,45.04809,-1.06671,0.38852,0.92383
397.928,45.11632,-1.07345,0.38726,0.92332
398.628,45.18479,-1.07549,0.3869,0.92281
399.328,45.25293,-1.08066,0.38719,0.92229
400.028,45.32066,-1.08668,0.38621,0.92177
400.728,45.38889,-1.09309,0.38522,0.92126
401.428,45.45706,-1.09715,0.38413,0.92074
402.128,45.52578,-1.10223,0.38182,0.92022
402.828,45.5938,-1.10597,0.3816,0.91971
403.528,45.66196,-1.10908,0.37993,0.91919
404.228,45.7301,-1.11441,0.38127,0.91867
404.928,45.79857,-1.11971,0.38046,0.91815
405.628,45.86692,-1.12473,0.37815,0.91763
406.328,45.93542,-1.12613,0.37641,0.9171
407.028,46.00359,-1.13273,0.3755,0.91658
407.728,46.07188,-1.13751,0.37698,0.91606
408.428,46.14018,-1.14371,0.37455,0.91554
409.128,46.20856,-1.14758,0.3759,0.91501
409.828,46.27685,-1.15171,0.37188,0.91449
410.528,46.34554,-1.15635,0.37179,0.91396
411.228,46.41393,-1.1593,0.36709,0.91344
411.928,46.4824,-1.16188,0.3674,0.91291
412.628,46.55046,-1.16788,0.36622,0.91239
413.328,46.61895,-1.17093,0.36559,0.91186
414.028,46.68734,-1.17382,0.36436,0.91133
414.728,46.75605,-1.1779,0.36361,0.9108
415.428,46.8245,-1.18154,0.36284,0.91027
416.128,46.89315,-1.18517,0.36107,0.90974
416.828,46.96172,-1.18731,0.35972,0.90921
417.528,47.03028,-1.19262,0.35802,0.90868
418.228,47.09856,-1.19594,0.3596,0.90815
418.928,47.16698,-1.19878,0.35238,0.90762
419.628,47.2356,-1.20432,0.3559,0.90709
420.328,47.30417,-1.20762,0.35277,0.90655
421.028,47.37274,-1.2094,0.35361,0.90602
421.728,47.44133,-1.21368,0.35511,0.90549
422.428,47.51,-1.21763,0.35205,0.90495
423.128,47.57863,-1.22267,0.35162,0.90442
423.828,47.6473,-1.22754,0.3524,0.90388
424.528,47.7157,-1.22913,0.34845,0.90334
425.228,47.7844,-1.2305,0.34659,0.90281
425.928,47.853,-1.23366,0.34786,0.90227
426.628,47.92152,-1.2372,0.34596,0.90173
427.328,47.99029,-1.24463,0.34841,0.90119
428.028,48.05887,-1.24789,0.34342,0.90065
428.728,48.1278,-1.24903,0.3438,0.90011
429.428,48.19625,-1.25013,0.34157,0.89957
430.128,48.26495,-1.25358,0.3391,0.89903
430.828,48.33367,-1.25694,0.34097,0.89849
431.528,48.40242,-1.25884,0.33929,0.89795
432.228,48.4711,-1.262,0.33902,0.8974
432.928,48.5396,-1.26651,0.3339,0.89686
433.628,48.6081,-1.26933,0.33562,0.89632
434.328,48.67672,-1.27424,0.33715,0.89577
435.028,48.7454,-1.27732,0.33515,0.89523
435.728,48.81416,-1.27976,0.33439,0.89468
436.428,48.8827,-1.28168,0.33391,0.89414
437.128,48.95118,-1.28423,0.33325,0.89359
437.828,49.01972,-1.28625,0.33253,0.89304
438.528,49.08846,-1.28879,0.32948,0.8925
439.228,49.15744,-1.29185,0.32776,0.89195
439.928,49.2265,-1.29481,0.32842,0.8914
440.628,49.2954,-1.29796,0.32944,0.89085
441.328,49.36405,-1.30207,0.32696,0.8903
442.028,49.4328,-1.30504,0.32742,0.88975
442.728,49.50142,-1.30774,0.32526,0.8892
443.428,49.57033,-1.30777,0.32407,0.88865
444.128,49.63924,-1.31205,0.32485,0.8881
444.828,49.70818,-1.31482,0.32148,0.88754
445.528,49.77691,-1.31808,0.31982,0.88699
446.228,49.84543,-1.32262,0.32192,0.88644
446.928,49.91405,-1.32793,0.32224,0.88588
447.628,49.98277,-1.32942,0.31828,0.88533
448.328,50.0515,-1.33378,0.32033,0.88477
449.028,50.1201,-1.3363,0.32045,0.88422
449.728,50.1889,-1.33498,0.31813,0.88366
450.428,50.25768,-1.33515,0.31805,0.88311
451.128,50.32659,-1.33776,0.3165,0.88255
451.828,50.3952,-1.34138,0.31503,0.88199
452.528,50.46352,-1.3446,0.31362,0.88143
453.228,50.53218,-1.34544,0.31485,0.88088
453.928,50.60098,-1.34998,0.31311,0.88032
454.628,50.67015,-1.35287,0.31114,0.87976
455.328,50.73907,-1.35506,0.31299,0.8792
456.028,50.808,-1.3564,0.31199,0.87864
456.728,50.87676,-1.35886,0.31173,0.87808
457.428,50.9455,-1.3606,0.31306,0.87751
458.128,51.01412,-1.36327,0.3111,0.87695
458.828,51.08283,-1.36575,0.31265,0.87639
459.528,51.1516,-1.3687,0.31166,0.87583
460.228,51.22006,-1.36997,0.31099,0.87526
460.928,51.28885,-1.37395,0.31219,0.8747
461.628,51.3575,-1.37401,0.30747,0.87414
462.328,51.4263,-1.37403,0.30743,0.87357
463.028,51.49494,-1.37561,0.30813,0.87301
463.728,51.56386,-1.38056,0.31031,0.87244
464.428,51.63275,-1.38545,0.30663,0.87187
465.128,51.70158,-1.38676,0.30951,0.87131
465.828,51.77029,-1.38713,0.30912,0.87074
466.528,51.8391,-1.39068,0.30698,0.87017
467.228,51.90807,-1.39152,0.30929,0.8696
467.928,51.97725,-1.39339,0.30587,0.86904
468.628,52.04622,-1.39628,0.30585,0.86847
469.328,52.1152,-1.39625,0.30546,0.8679
470.028,52.18407,-1.39885,0.30558,0.86733
470.728,52.25305,-1.40029,0.30455,0.86676
471.428,52.3221,-1.40037,0.30082,0.86619
472.128,52.39113,-1.40211,0.30518,0.86561
472.828,52.46026,-1.40545,0.30296,0.86504
473.528,52.5293,-1.40874,0.30071,0.86447
474.228,52.59831,-1.40891,0.30105,0.8639
474.928,52.6673,-1.41267,0.29871,0.86332
475.628,52.7364,-1.41524,0.29946,0.86275
476.328,52.8054,-1.41649,0.29842,0.86218
477.028,52.87452,-1.41689,0.29887,0.8616
477.728,52.94356,-1.41662,0.29752,0.86103
478.428,53.0128,-1.41815,0.29621,0.86045
479.128,53.0818,-1.41977,0.29443,0.85987
479.828,53.1508,-1.41978,0.29487,0.8593
480.528,53.21986,-1.4214,0.29312,0.85872
481.228,53.2888,-1.42374,0.29443,0.85814
481.928,53.35793,-1.42646,0.2909,0.85757
482.628,53.4271,-1.43062,0.28868,0.85699
483.328,53.49644,-1.43174,0.29141,0.85641
484.028,53.5655,-1.43331,0.2896,0.85583
484.728,53.6345,-1.43484,0.29203,0.85525
485.428,53.7037,-1.43568,0.28923,0.85467
486.128,53.77305,-1.43653,0.2895,0.85409
486.828,53.8425,-1.43731,0.28897,0.85351
487.528,53.91183,-1.44237,0.28986,0.85293
488.228,53.9805,-1.44346,0.28876,0.85235
488.928,54.0496,-1.44346,0.28694,0.85176
489.628,54.11874,-1.44501,0.28941,0.85118
490.328,54.1884,-1.4461,0.28779,0.8506
491.028,54.25756,-1.44601,0.28835,0.85002
491.728,54.3268,-1.45005,0.28374,0.84943
492.428,54.39578,-1.4507,0.2877,0.84885
493.128,54.46504,-1.45339,0.28884,0.84826
493.828,54.53416,-1.45445,0.28758,0.84768
494.528,54.6035,-1.45498,0.28959,0.84709
495.228,54.67256,-1.4563,0.28812,0.84651
495.928,54.74151,-1.45631,0.28715,0.84592
496.628,54.81077,-1.45764,0.28402,0.84533
497.328,54.88,-1.4586,0.28502,0.84475
498.028,54.94939,-1.46031,0.28707,0.84416
498.728,55.01863,-1.46292,0.28737,0.84357
499.428,55.08791,-1.46575,0.2847,0.84298
500.128,55.15715,-1.46573,0.28555,0.8424
500.828,55.2262,-1.46573,0.28355,0.84181
501.528,55.29524,-1.46485,0.28593,0.84122
502.228,55.3643,-1.46574,0.28362,0.84063
502.928,55.43365,-1.46574,0.28334,0.84004
503.628,55.50294,-1.46568,0.28491,0.83945
504.328,55.5722,-1.46908,0.28438,0.83886
505.028,55.64151,-1.47303,0.28576,0.83826
505.728,55.7107,-1.47538,0.28413,0.83767
506.428,55.7799,-1.4767,0.28397,0.83708
507.128,55.8491,-1.4767,0.28316,0.83649
507.828,55.9185,-1.4754,0.28476,0.83589
508.528,55.9878,-1.47539,0.28581,0.8353
509.228,56.0572,-1.47671,0.28556,0.83471
509.928,56.1266,-1.47802,0.28294,0.83411
510.628,56.19599,-1.47933,0.28663,0.83352
511.328,56.26542,-1.48065,0.28625,0.83292
512.028,56.3348,-1.48196,0.28582,0.83233
512.728,56.4043,-1.48035,0.28422,0.83173
513.428,56.47364,-1.48216,0.28427,0.83114
514.128,56.54299,-1.4846,0.28611,0.83054
514.828,56.6122,-1.48643,0.2867,0.82994
515.528,56.68166,-1.48723,0.28647,0.82935
516.228,56.75113,-1.48852,0.28728,0.82875
516.928,56.8208,-1.49085,0.28653,0.82815
517.628,56.89026,-1.49006,0.28723,0.82755
518.328,56.9597,-1.48942,0.29086,0.82696
519.028,57.02921,-1.49201,0.29063,0.82636
519.728,57.0988,-1.49338,0.29297,0.82576
520.428,57.16836,-1.49468,0.2925,0.82516
521.128,57.2379,-1.49337,0.29295,0.82456
521.828,57.3074,-1.49439,0.29479,0.82396
522.528,57.37687,-1.4947,0.29938,0.82336
523.228,57.44645,-1.49472,0.30152,0.82276
523.928,57.51605,-1.496,0.30472,0.82216
524.628,57.5856,-1.49653,0.30136,0.82155
525.328,57.65515,-1.5,0.30626,0.82095
526.028,57.7246,-1.50243,0.30775,0.82035
526.728,57.7941,-1.50117,0.30716,0.81975
527.428,57.86351,-1.50127,0.30912,0.81914
528.128,57.933,-1.50103,0.31076,0.81854
528.828,58.0027,-1.49995,0.30905,0.81794
529.528,58.0723,-1.50125,0.3129,0.81733
530.228,58.14193,-1.50395,0.31514,0.81673
530.928,58.2117,-1.50401,0.31513,0.81612
531.628,58.28102,-1.504,0.31808,0.81552
532.328,58.35077,-1.50664,0.32009,0.81491
533.028,58.4202,-1.50761,0.32272,0.81431
533.728,58.4902,-1.50664,0.32556,0.8137
534.428,58.55985,-1.50796,0.32536,0.8131
535.128,58.62955,-1.5102,0.3285,0.81249
535.828,58.6993,-1.51192,0.33001,0.81188
536.528,58.76883,-1.51199,0.32805,0.81127
537.228,58.83859,-1.51409,0.33074,0.81067
537.928,58.9082,-1.51586,0.32989,0.81006
538.628,58.9777,-1.51576,0.33345,0.80945
539.328,59.04725,-1.51585,0.33417,0.80884
540.028,59.11684,-1.51455,0.33477,0.80823
540.728,59.1866,-1.51439,0.33739,0.80762
541.428,59.2559,-1.51359,0.33689,0.80701
542.128,59.3254,-1.51617,0.33844,0.8064
542.828,59.39501,-1.51644,0.34037,0.80579
543.528,59.46464,-1.51903,0.33814,0.80518
544.228,59.5342,-1.52057,0.34256,0.80457
544.928,59.60365,-1.52167,0.34273,0.80396
545.628,59.67326,-1.52406,0.34195,0.80335
546.328,59.74285,-1.52397,0.34402,0.80274
547.028,59.8125,-1.52537,0.34283,0.80213
547.728,59.88222,-1.52671,0.34314,0.80152
548.428,59.952,-1.52668,0.3422,0.8009
549.128,60.0216,-1.52852,0.34173,0.80029
549.828,60.09143,-1.52935,0.3423,0.79968
550.528,60.16124,-1.52935,0.33875,0.79906
551.228,60.231,-1.52803,0.34122,0.79845
551.928,60.3007,-1.52801,0.33754,0.79784
552.628,60.3705,-1.52806,0.33758,0.79722
553.328,60.4405,-1.52957,0.33993,0.79661
554.028,60.5105,-1.53355,0.34069,0.79599
554.728,60.58002,-1.53352,0.33717,0.79538
555.428,60.6499,-1.53352,0.33889,0.79476
556.128,60.7197,-1.53352,0.33797,0.79415
556.828,60.78944,-1.53484,0.33836,0.79353
557.528,60.85931,-1.53923,0.33966,0.79291
558.228,60.92905,-1.54078,0.33954,0.7923
558.928,60.99924,-1.53845,0.33948,0.79168
559.628,61.0689,-1.53842,0.33806,0.79106
560.328,61.13884,-1.5424,0.34106,0.79045
561.028,61.20879,-1.54372,0.33625,0.78983
561.728,61.279,-1.54242,0.33717,0.78921
562.428,61.3489,-1.54104,0.3341,0.78859
563.128,61.4187,-1.5424,0.33411,0.78798
563.828,61.4883,-1.54372,0.33678,0.78736
564.528,61.558,-1.54259,0.33446,0.78674
565.228,61.62783,-1.54368,0.33361,0.78612
565.928,61.69765,-1.54501,0.33468,0.7855
566.628,61.76719,-1.54639,0.33585,0.78488
567.328,61.8369,-1.54779,0.33469,0.78426
568.028,61.90665,-1.54908,0.33344,0.78364
568.728,61.9765,-1.55041,0.33337,0.78302
569.428,62.04625,-1.55101,0.33289,0.7824
570.128,62.116,-1.55248,0.33555,0.78178
570.828,62.18574,-1.55481,0.33194,0.78116
571.528,62.25538,-1.55502,0.33576,0.78054
572.228,62.3249,-1.55528,0.33449,0.77991
572.928,62.39447,-1.5554,0.33736,0.77929
573.628,62.464,-1.55775,0.33641,0.77867
574.328,62.5336,-1.55776,0.33314,0.77805
575.028,62.60332,-1.55905,0.33628,0.77742
575.728,62.6731,-1.5605,0.33521,0.7768
576.428,62.7429,-1.56044,0.33377,0.77618
577.128,62.8126,-1.5605,0.33216,0.77556
577.828,62.88227,-1.56313,0.33182,0.77493
578.528,62.95185,-1.56446,0.33355,0.77431
579.228,63.02171,-1.56445,0.32988,0.77368
579.928,63.0915,-1.56456,0.32823,0.77306
580.628,63.1613,-1.56576,0.32965,0.77244
581.328,63.2311,-1.56716,0.3293,0.77181
582.028,63.301,-1.56783,0.3305,0.77119
582.728,63.37096,-1.56969,0.32993,0.77056
583.428,63.44106,-1.572,0.33278,0.76994
584.128,63.5112,-1.57333,0.33168,0.76931
584.828,63.5814,-1.57463,0.33354,0.76868
585.528,63.65124,-1.57441,0.33167,0.76806
586.228,63.7211,-1.57472,0.33692,0.76743
586.928,63.79113,-1.57596,0.33584,0.76681
587.628,63.86146,-1.57595,0.33201,0.76618
588.328,63.9316,-1.57397,0.33412,0.76555
589.028,64.0016,-1.57329,0.33411,0.76493
589.728,64.07138,-1.57465,0.33378,0.7643
590.428,64.14134,-1.57695,0.33487,0.76367
591.128,64.21132,-1.57728,0.33364,0.76304
591.828,64.28147,-1.57728,0.33546,0.76242
592.528,64.35152,-1.5786,0.33906,0.76179
593.228,64.4216,-1.57871,0.33972,0.76116
593.928,64.49166,-1.57993,0.33849,0.76053
594.628,64.56181,-1.57988,0.34185,0.7599
595.328,64.6321,-1.58285,0.34002,0.75927
596.028,64.70231,-1.58483,0.34093,0.75864
596.728,64.7727,-1.58487,0.34236,0.75801
597.428,64.84304,-1.58488,0.3403,0.75739
598.128,64.9134,-1.58631,0.33986,0.75676
598.828,64.98379,-1.58826,0.34107,0.75613
599.528,65.05414,-1.58825,0.34144,0.7555
600.228,65.12454,-1.58861,0.34089,0.75487
600.928,65.19525,-1.59028,0.34077,0.75424
601.628,65.26589,-1.59198,0.34046,0.75361
602.328,65.33628,-1.59264,0.33978,0.75297
603.028,65.4063,-1.59136,0.3433,0.75234
603.728,65.47672,-1.59132,0.34604,0.75171
604.428,65.5473,-1.59128,0.34447,0.75108
605.128,65.61791,-1.59418,0.34548,0.75045
605.828,65.6884,-1.59418,0.34691,0.74982
606.528,65.75875,-1.59418,0.34562,0.74919
607.228,65.8292,-1.59419,0.34673,0.74855
607.928,65.8995,-1.59654,0.34877,0.74792
608.628,65.96991,-1.59824,0.35117,0.74729
609.328,66.04015,-1.5979,0.35015,0.74666
610.028,66.11065,-1.5979,0.35099,0.74603
610.728,66.18094,-1.59786,0.35357,0.74539
611.428,66.25139,-1.59725,0.35821,0.74476
612.128,66.3214,-1.59856,0.35854,0.74413
612.828,66.39163,-1.59855,0.3562,0.74349
613.528,66.4618,-1.5979,0.35544,0.74286
614.228,66.53226,-1.59726,0.35679,0.74223
614.928,66.6024,-1.59551,0.35799,0.74159
615.628,66.67217,-1.59568,0.35893,0.74096
616.328,66.74235,-1.60051,0.36024,0.74032
617.028,66.8126,-1.60239,0.36243,0.73969
617.728,66.8833,-1.6035,0.36435,0.73906
618.428,66.95339,-1.6035,0.36753,0.73842
619.128,67.02348,-1.6035,0.36863,0.73779
619.828,67.09339,-1.60217,0.37224,0.73715
620.528,67.16341,-1.60361,0.3728,0.73652
621.228,67.23355,-1.60587,0.37542,0.73588
621.928,67.30373,-1.60655,0.37927,0.73525
622.628,67.37391,-1.61039,0.38084,0.73461
623.328,67.44414,-1.61238,0.38581,0.73398
624.028,67.51423,-1.61381,0.38605,0.73334
624.728,67.58425,-1.61304,0.38858,0.7327
625.428,67.6542,-1.61303,0.39192,0.73207
626.128,67.72436,-1.61436,0.39452,0.73143
626.828,67.79459,-1.61436,0.39874,0.7308
627.528,67.86471,-1.61569,0.40276,0.73016
628.228,67.93475,-1.61591,0.40641,0.72952
628.928,68.0049,-1.61731,0.41225,0.72889
629.628,68.07513,-1.61826,0.41097,0.72825
630.328,68.14529,-1.61993,0.41463,0.72761
631.028,68.21537,-1.61731,0.42238,0.72698
631.728,68.28564,-1.61738,0.42408,0.72634
632.428,68.35608,-1.61862,0.4305,0.7257
633.128,68.42651,-1.61985,0.43219,0.72507
633.828,68.49688,-1.62126,0.43758,0.72443
634.528,68.56737,-1.62198,0.44159,0.72379
635.228,68.63775,-1.62602,0.44682,0.72315
635.928,68.70829,-1.62665,0.45422,0.72252
636.628,68.77809,-1.62665,0.4593,0.72188
637.328,68.84899,-1.63058,0.4623,0.72124
638.028,68.91975,-1.63354,0.46734,0.7206
638.728,68.9913,-1.6365,0.47249,0.71996
639.428,69.06194,-1.63775,0.47705,0.71933
640.128,69.13266,-1.63631,0.47851,0.71869
640.828,69.20317,-1.63805,0.48803,0.71805
641.528,69.27365,-1.63773,0.49239,0.71741
642.228,69.34403,-1.63914,0.5001,0.71677
642.928,69.4144,-1.63825,0.50609,0.71613
643.628,69.48476,-1.63766,0.51257,0.71549
644.328,69.55521,-1.63824,0.51986,0.71486
645.028,69.62556,-1.64107,0.5215,0.71422
645.728,69.69586,-1.64115,0.53069,0.71358
646.428,69.76603,-1.64427,0.53807,0.71294
647.128,69.83621,-1.64806,0.54571,0.7123
647.828,69.90626,-1.64976,0.55406,0.71166
648.528,69.9764,-1.65467,0.56182,0.71102
649.228,70.0466,-1.65761,0.57186,0.71038
649.928,70.11691,-1.65669,0.57451,0.70974
650.628,70.187,-1.65759,0.58415,0.7091
651.328,70.25709,-1.66061,0.5898,0.70846
652.028,70.32734,-1.6624,0.60165,0.70782
652.728,70.3976,-1.66387,0.60697,0.70718
653.428,70.46795,-1.66635,0.61578,0.70654
654.128,70.5382,-1.66766,0.62528,0.7059
654.828,70.60834,-1.66897,0.63194,0.70526
655.528,70.67856,-1.66892,0.64011,0.70462
656.228,70.74879,-1.67031,0.64967,0.70398
656.928,70.8192,-1.67171,0.6585,0.70334
657.628,70.8895,-1.67404,0.66595,0.7027
658.328,70.9597,-1.67532,0.67627,0.70206
659.028,71.03021,-1.67886,0.68004,0.70142
659.728,71.10083,-1.68141,0.69159,0.70078
660.428,71.1716,-1.68354,0.70203,0.70014
661.128,71.24224,-1.68787,0.71169,0.69949
661.828,71.31275,-1.6895,0.72115,0.69885
662.528,71.3835,-1.69243,0.73067,0.69821
663.228,71.45415,-1.69597,0.7393,0.69757
663.928,71.52507,-1.69961,0.75018,0.69693
664.628,71.59567,-1.70096,0.76217,0.69629
665.328,71.66626,-1.7035,0.77164,0.69565
666.028,71.73635,-1.70397,0.78093,0.69501
666.728,71.80668,-1.7079,0.78976,0.69437
667.428,71.8773,-1.71087,0.79934,0.69372
668.128,71.94813,-1.71321,0.8102,0.69308
668.828,72.01878,-1.7191,0.82111,0.69244
669.528,72.08891,-1.72202,0.83374,0.6918
670.228,72.15932,-1.72428,0.84176,0.69116
670.928,72.22906,-1.72616,0.85556,0.69052
671.628,72.29942,-1.72666,0.8653,0.68987
672.328,72.3697,-1.72942,0.87644,0.68923
673.028,72.4405,-1.73133,0.89036,0.68859
673.728,72.5111,-1.74004,0.90337,0.68795
674.428,72.5815,-1.74269,0.91714,0.68731
675.128,72.65186,-1.74651,0.92845,0.68667
675.828,72.72207,-1.7508,0.93881,0.68602
676.528,72.7924,-1.75357,0.95251,0.68538
677.228,72.8629,-1.75597,0.96506,0.68474
677.928,72.93355,-1.75577,0.97112,0.6841
678.628,73.0043,-1.76051,0.98576,0.68346
679.328,73.07496,-1.76479,0.99515,0.68281
680.028,73.14573,-1.77132,1.00713,0.68217
680.728,73.2165,-1.77529,1.0227,0.68153
681.428,73.28702,-1.77751,1.03405,0.68089
682.128,73.35778,-1.78046,1.04709,0.68024
682.828,73.42871,-1.78338,1.05847,0.6796
683.528,73.49961,-1.78685,1.07285,0.67896
684.228,73.5701,-1.79305,1.08408,0.67832
684.928,73.64073,-1.79946,1.09975,0.67768
685.628,73.71165,-1.80418,1.10705,0.67703
686.328,73.78248,-1.8112,1.12595,0.67639
687.028,73.85315,-1.8138,1.1399,0.67575
687.728,73.92348,-1.819,1.15203,0.67511
688.428,73.994,-1.82126,1.15905,0.67446
689.128,74.06456,-1.82591,1.17021,0.67382
689.828,74.13515,-1.82904,1.18224,0.67318
690.528,74.2058,-1.83487,1.1961,0.67254
691.228,74.27638,-1.83881,1.20275,0.67189
691.928,74.34702,-1.84359,1.21452,0.67125
692.628,74.41753,-1.84804,1.21979,0.67061
693.328,74.4881,-1.85389,1.23198,0.66997
694.028,74.55883,-1.85929,1.23994,0.66932
694.728,74.62944,-1.86463,1.25006,0.66868
695.428,74.70013,-1.86983,1.25459,0.66804
696.128,74.77077,-1.87601,1.2674,0.6674
696.828,74.84166,-1.88087,1.27516,0.66675
697.528,74.9122,-1.88004,1.27949,0.66611
698.228,74.9829,-1.89057,1.28738,0.66547
698.928,75.0534,-1.89644,1.28994,0.66483
699.628,75.1242,-1.90101,1.28884,0.66419
700.328,75.19465,-1.90687,1.29095,0.66354
701.028,75.2653,-1.91085,1.29406,0.6629
701.728,75.33577,-1.91408,1.29373,0.66226
702.428,75.40648,-1.91767,1.28523,0.66162
703.128,75.4769,-1.92105,1.28219,0.66097
703.828,75.5475,-1.92754,1.27149,0.66033
704.528,75.61798,-1.93161,1.2634,0.65969
705.228,75.68848,-1.93712,1.25137,0.65905
705.928,75.75901,-1.94417,1.23563,0.6584
706.628,75.82958,-1.95052,1.21306,0.65776
707.328,75.90024,-1.95573,1.19181,0.65712
708.028,75.97081,-1.96,1.16742,0.65648
708.728,76.0414,-1.96265,1.13251,0.65584
709.428,76.11191,-1.96674,1.09472,0.65519
710.128,76.18262,-1.96986,1.05609,0.65455
710.828,76.2535,-1.97314,1.01865,0.65391
711.528,76.3243,-1.97651,0.97409,0.65327
712.228,76.3952,-1.98085,0.93078,0.65262
712.928,76.46589,-1.98486,0.89375,0.65198
713.628,76.53664,-1.98918,0.85395,0.65134
714.328,76.60727,-1.9906,0.81351,0.6507
715.028,76.678,-1.99268,0.776,0.65006
715.728,76.7488,-1.99476,0.73656,0.64941
716.428,76.8197,-1.99649,0.70157,0.64877
717.128,76.89061,-1.99972,0.67095,0.64813
717.828,76.9614,-2.0023,0.63922,0.64749
718.528,77.03203,-2.00346,0.61255,0.64685
719.228,77.10258,-2.00599,0.58692,0.64621
719.928,77.17347,-2.0061,0.56243,0.64556
720.628,77.2444,-2.00694,0.54112,0.64492
721.328,77.31532,-2.00833,0.52483,0.64428
722.028,77.38608,-2.0099,0.50552,0.64364
722.728,77.45684,-2.01123,0.48659,0.643
723.428,77.5275,-2.01279,0.4704,0.64236
724.128,77.5981,-2.01544,0.45888,0.64171
724.828,77.66881,-2.01877,0.441,0.64107
725.528,77.73984,-2.02053,0.42744,0.64043
726.228,77.81053,-2.02184,0.41841,0.63979
726.928,77.88114,-2.02316,0.40517,0.63915
727.628,77.95176,-2.02455,0.38913,0.63851
728.328,78.02253,-2.02446,0.38208,0.63787
729.028,78.0933,-2.02315,0.36904,0.63723
729.728,78.16412,-2.02543,0.35914,0.63659
730.428,78.23484,-2.02734,0.3542,0.63594
731.128,78.30547,-2.02863,0.34366,0.6353
731.828,78.3763,-2.02963,0.32896,0.63466
732.528,78.4469,-2.02998,0.32736,0.63402
733.228,78.51799,-2.03127,0.31795,0.63338
733.928,78.58877,-2.03127,0.30543,0.63274
734.628,78.65992,-2.03127,0.29963,0.6321
735.328,78.73056,-2.03013,0.29664,0.63146
736.028,78.80135,-2.02842,0.29096,0.63082
736.728,78.87216,-2.02966,0.28698,0.63018
737.428,78.94325,-2.03373,0.27691,0.62954
738.128,79.0143,-2.035,0.26811,0.6289
738.828,79.0852,-2.035,0.26331,0.62826
739.528,79.15594,-2.03619,0.25937,0.62762
740.228,79.22659,-2.03358,0.25657,0.62698
740.928,79.29733,-2.0362,0.24932,0.62634
741.628,79.36796,-2.03653,0.24436,0.6257
742.328,79.43874,-2.03653,0.24402,0.62506
743.028,79.5095,-2.03847,0.23708,0.62442
743.728,79.58025,-2.03882,0.23608,0.62378
744.428,79.6509,-2.03785,0.23306,0.62314
745.128,79.72169,-2.03801,0.23034,0.6225
745.828,79.79262,-2.03941,0.23107,0.62186
746.528,79.8635,-2.04198,0.22746,0.62122
747.228,79.93422,-2.04456,0.21972,0.62058
747.928,80.00506,-2.04713,0.2224,0.61995
748.628,80.07595,-2.04489,0.21539,0.61931
749.328,80.14684,-2.04133,0.21538,0.61867
750.028,80.21772,-2.04033,0.21948,0.61803
750.728,80.28873,-2.04168,0.21212,0.61739
751.428,80.36,-2.04169,0.21135,0.61675
752.128,80.43131,-2.04169,0.20892,0.61611
752.828,80.5026,-2.04302,0.20249,0.61548
753.528,80.57375,-2.04319,0.20198,0.61484
754.228,80.6447,-2.04573,0.20447,0.6142
754.928,80.7157,-2.04561,0.20264,0.61356
755.628,80.78665,-2.04468,0.20157,0.61292
756.328,80.8578,-2.04667,0.20131,0.61228
757.028,80.92875,-2.04751,0.19837,0.61165
757.728,80.99969,-2.04751,0.19616,0.61101
758.428,81.0707,-2.04751,0.19431,0.61037
759.128,81.14175,-2.04752,0.19155,0.60973
759.828,81.2129,-2.04884,0.19065,0.6091
760.528,81.28397,-2.04978,0.19178,0.60846
761.228,81.35499,-2.04981,0.18915,0.60782
761.928,81.426,-2.04981,0.19177,0.60719
762.628,81.49695,-2.04981,0.1876,0.60655
763.328,81.568,-2.04982,0.18861,0.60591
764.028,81.63915,-2.04849,0.18231,0.60528
764.728,81.71066,-2.04849,0.18742,0.60464
765.428,81.78188,-2.04982,0.18489,0.604
766.128,81.85321,-2.05112,0.1851,0.60337
766.828,81.9243,-2.05244,0.18416,0.60273
767.528,81.99554,-2.05244,0.18373,0.60209
768.228,82.06652,-2.05244,0.18262,0.60146
768.928,82.1374,-2.0538,0.18083,0.60082
769.628,82.2085,-2.05244,0.18277,0.60019
770.328,82.27972,-2.05244,0.18033,0.59955
771.028,82.35104,-2.05244,0.17627,0.59892
771.728,82.42228,-2.05255,0.18007,0.59828
772.428,82.4933,-2.05502,0.17957,0.59765
773.128,82.56427,-2.05776,0.17985,0.59701
773.828,82.6352,-2.05771,0.17733,0.59638
774.528,82.7063,-2.05509,0.17823,0.59574
775.228,82.77736,-2.05375,0.17516,0.59511
775.928,82.84816,-2.05501,0.17655,0.59447
776.628,82.91879,-2.05462,0.17281,0.59384
777.328,82.9896,-2.0545,0.17592,0.5932
778.028,83.0605,-2.05585,0.17288,0.59257
778.728,83.1313,-2.05716,0.17511,0.59193
779.428,83.20218,-2.05848,0.17591,0.5913
780.128,83.27294,-2.05909,0.17542,0.59067
780.828,83.3437,-2.06148,0.1746,0.59003
781.528,83.41428,-2.06177,0.1732,0.5894
782.228,83.485,-2.06305,0.1712,0.58877
782.928,83.55577,-2.06176,0.17097,0.58813
783.628,83.62676,-2.0616,0.17039,0.5875
784.328,83.69771,-2.05759,0.17144,0.58687
785.028,83.769,-2.06098,0.16921,0.58623
785.728,83.84004,-2.061,0.16923,0.5856
786.428,83.91119,-2.061,0.16965,0.58497
787.128,83.9823,-2.06082,0.16798,0.58434
787.828,84.05341,-2.06105,0.16611,0.58371
788.528,84.12436,-2.06231,0.16427,0.58307
789.228,84.19543,-2.06363,0.16056,0.58244
789.928,84.26664,-2.06495,0.16107,0.58181
790.628,84.33803,-2.06495,0.16216,0.58118
791.328,84.4093,-2.06627,0.16504,0.58055
792.028,84.48058,-2.06771,0.15985,0.57992
792.728,84.55166,-2.06903,0.15888,0.57929
793.428,84.6228,-2.06629,0.16067,0.57865
794.128,84.69395,-2.06619,0.15579,0.57802
794.828,84.76513,-2.06506,0.1611,0.57739
795.528,84.8362,-2.06628,0.15755,0.57676
796.228,84.90739,-2.06696,0.15713,0.57613
796.928,84.9787,-2.06551,0.15363,0.5755
797.128,84.99891,-2.06506,0.15294,0.57532