File: 01_Data/Wool_Rug/STA/N2/10K_min/Wool_Rug_STA_N2_10KData_220118_R3.csv
##Temp./Â°C,Time/min,Mass loss(subtr.2)/mg,DSC(subtr.2)/(mW/mg),Sensit./(uV/mW)
49.214,10.00917,-0.00011,0.01044203,1.07448
49.914,10.77037,0.00293977,0.03653652,1.07443
50.614,10.97396,0.00387961,0.05471639,1.07438
51.314,11.12543,0.00092942,0.06816746,1.07433
52.014,11.25354,0.001657605,0.08131063,1.07428
52.714,11.36866,0.00184448,0.09240606,1.07422
53.414,11.47425,1.015565e-05,0.1031,1.07417
54.114,11.57415,0.001356478,0.10927,1.07411
54.814,11.66916,0.00263014,0.11926,1.07406
55.514,11.7602,0.00186126,0.12581,1.074
56.214,11.84845,0.00110684,0.12952,1.07394
56.914,11.93505,0.0005308139,0.13323,1.07388
57.614,12.01948,-0.0004436302,0.13814,1.07382
58.314,12.10246,0.0008869489,0.14316,1.07376
59.014,12.1839,0.0003235354,0.14895,1.0737
59.714,12.26474,0.0008480789,0.14966,1.07363
60.414,12.34477,0.001910726,0.15468,1.07357
61.114,12.42409,-0.000480351,0.15594,1.0735
61.814,12.50268,-0.0008372627,0.15983,1.07343
62.514,12.58015,0.00200066,0.162,1.07336
63.214,12.65795,0.0005241872,0.16455,1.07329
63.914,12.73521,0.0001457563,0.16947,1.07322
64.614,12.81289,-0.0017727,0.1698,1.07315
65.314,12.8896,0.0003438879,0.17222,1.07308
66.014,12.96619,0.000345144,0.1743,1.073
66.714,13.04252,0.001674648,0.17814,1.07293
67.414,13.1184,-0.0002660997,0.18001,1.07285
68.114,13.1937,-0.00227627,0.18329,1.07277
68.814,13.26895,-0.000990093,0.18495,1.07269
69.514,13.34423,-0.000985483,0.18781,1.07261
70.214,13.41911,-0.0003253363,0.19108,1.07253
70.914,13.49415,-0.002297074,0.19496,1.07245
71.614,13.5687,-0.002309031,0.19318,1.07237
72.314,13.6431,-0.00361897,0.19699,1.07228
73.014,13.71693,-0.00362,0.20023,1.0722
73.714,13.7908,-0.00361884,0.20273,1.07211
74.414,13.8644,-0.004938624,0.2024,1.07202
75.114,13.93774,-0.00372053,0.20691,1.07193
75.814,14.01104,-0.0036189,0.20756,1.07184
76.514,14.0844,-0.00363,0.21133,1.07175
77.214,14.1577,-0.003623703,0.2114,1.07166
77.914,14.2304,-0.003343159,0.21459,1.07156
78.614,14.30265,-0.00658019,0.21807,1.07147
79.314,14.37481,-0.007253733,0.22038,1.07137
80.014,14.44709,-0.008559584,0.22114,1.07127
80.714,14.51917,-0.00856,0.2245,1.07118
81.414,14.59095,-0.008548734,0.22498,1.07108
82.114,14.66244,-0.008432761,0.22585,1.07098
82.814,14.73383,-0.008317936,0.22719,1.07087
83.514,14.80531,-0.008371296,0.22713,1.07077
84.214,14.87685,-0.007524328,0.22855,1.07067
84.914,14.948,-0.008560125,0.22899,1.07056
85.614,15.01905,-0.00889005,0.23392,1.07045
86.314,15.09,-0.009616994,0.23204,1.07035
87.014,15.1609,-0.01015568,0.23362,1.07024
87.714,15.2313,-0.008544256,0.2322,1.07013
88.414,15.30153,-0.008559052,0.23481,1.07002
89.114,15.37185,-0.009210412,0.23309,1.06991
89.814,15.4421,-0.01051983,0.23358,1.06979
90.514,15.512,-0.01195974,0.23101,1.06968
91.214,15.5816,-0.01127685,0.23067,1.06956
91.914,15.65125,-0.01130056,0.23234,1.06945
92.614,15.7211,-0.01196468,0.22982,1.06933
93.314,15.791,-0.01326886,0.23073,1.06921
94.014,15.8605,-0.01458146,0.23073,1.06909
94.714,15.93,-0.01459002,0.22912,1.06897
95.414,15.99957,-0.01560239,0.22694,1.06885
96.114,16.06926,-0.01458997,0.22554,1.06872
96.814,16.1388,-0.01459918,0.22367,1.0686
97.514,16.20777,-0.01455671,0.22213,1.06847
98.214,16.2769,-0.01459655,0.21984,1.06835
98.914,16.3457,-0.01449342,0.22041,1.06822
99.614,16.41522,-0.01590305,0.21937,1.06809
100.314,16.48445,-0.01686849,0.21844,1.06796
101.014,16.55375,-0.01656009,0.21829,1.06783
101.714,16.62274,-0.01777086,0.2157,1.0677
102.414,16.6917,-0.01667954,0.21371,1.06756
103.114,16.76086,-0.01899265,0.21235,1.06743
103.814,16.82987,-0.01957558,0.21169,1.06729
104.514,16.89865,-0.02020976,0.20947,1.06716
105.214,16.96751,-0.01953029,0.20787,1.06702
105.914,17.03639,-0.01888049,0.20512,1.06688
106.614,17.10541,-0.01757657,0.20294,1.06674
107.314,17.1741,-0.01614987,0.20222,1.0666
108.014,17.24279,-0.01756074,0.19854,1.06646
108.714,17.31104,-0.01885891,0.19662,1.06632
109.414,17.3794,-0.02019456,0.19468,1.06617
110.114,17.44792,-0.01886925,0.19522,1.06603
110.814,17.5165,-0.01985605,0.19424,1.06588
111.514,17.5851,-0.02118044,0.19223,1.06573
112.214,17.65348,-0.01976482,0.19106,1.06558
112.914,17.722,-0.01985932,0.18983,1.06543
113.614,17.7907,-0.01890123,0.18907,1.06528
114.314,17.85934,-0.01755,0.18592,1.06513
115.014,17.92791,-0.01767505,0.18432,1.06498
115.714,17.99624,-0.01896993,0.18152,1.06482
116.414,18.06405,-0.01897,0.18166,1.06467
117.114,18.1325,-0.01896982,0.17963,1.06451
117.814,18.2008,-0.0203308,0.18017,1.06435
118.514,18.26944,-0.02228086,0.17908,1.06419
119.214,18.33739,-0.02094767,0.17414,1.06403
119.914,18.40575,-0.02095754,0.17526,1.06387
120.614,18.47428,-0.01963955,0.17363,1.06371
121.314,18.54266,-0.01964,0.17379,1.06355
122.014,18.61082,-0.01964603,0.17211,1.06338
122.714,18.67876,-0.02030032,0.17129,1.06322
123.414,18.7468,-0.02160916,0.16873,1.06305
124.114,18.81478,-0.02290797,0.17196,1.06288
124.814,18.88291,-0.02293532,0.17081,1.06271
125.514,18.95119,-0.0216092,0.16813,1.06254
126.214,19.01919,-0.02029021,0.16792,1.06237
126.914,19.0871,-0.02129527,0.16721,1.0622
127.614,19.15495,-0.02260544,0.1669,1.06203
128.314,19.2229,-0.02127951,0.16699,1.06185
129.014,19.29106,-0.02128,0.16619,1.06168
129.714,19.35896,-0.02128,0.16502,1.0615
130.414,19.42679,-0.02154316,0.16634,1.06133
131.114,19.4943,-0.02279236,0.16588,1.06115
131.814,19.56211,-0.02336156,0.16553,1.06097
132.514,19.62987,-0.02205013,0.16326,1.06079
133.214,19.6979,-0.02072825,0.16514,1.0606
133.914,19.76591,-0.02339977,0.16329,1.06042
134.614,19.83367,-0.02213666,0.16536,1.06024
135.314,19.9014,-0.02073076,0.16553,1.06005
136.014,19.96919,-0.02205069,0.16532,1.05987
136.714,20.0371,-0.02206014,0.16387,1.05968
137.414,20.10463,-0.02336565,0.16261,1.05949
138.114,20.17233,-0.02263357,0.16436,1.0593
138.814,20.23978,-0.02205007,0.16121,1.05911
139.514,20.30753,-0.0239649,0.16201,1.05892
140.214,20.37518,-0.02311017,0.16051,1.05873
140.914,20.44313,-0.02335468,0.16236,1.05853
141.614,20.51089,-0.02238001,0.161,1.05834
142.314,20.5785,-0.02237995,0.162,1.05814
143.014,20.6461,-0.02108549,0.16188,1.05795
143.714,20.7135,-0.02105882,0.16418,1.05775
144.414,20.7811,-0.02042218,0.16112,1.05755
145.114,20.8489,-0.01952487,0.16251,1.05735
145.814,20.91666,-0.02228227,0.16592,1.05715
146.514,20.98409,-0.02490334,0.16353,1.05695
147.214,21.05132,-0.02490023,0.16311,1.05674
147.914,21.1185,-0.02362188,0.16507,1.05654
148.614,21.1859,-0.02259009,0.16374,1.05633
149.314,21.25327,-0.02259014,0.16382,1.05613
150.014,21.3205,-0.02227897,0.16455,1.05592
150.714,21.38775,-0.02095006,0.16567,1.05571
151.414,21.45498,-0.01845255,0.16494,1.0555
152.114,21.52221,-0.0205083,0.16397,1.05529
152.814,21.58933,-0.02151004,0.16308,1.05508
153.514,21.65642,-0.02149999,0.16516,1.05487
154.214,21.72341,-0.02190528,0.16476,1.05465
154.914,21.7908,-0.02283706,0.16607,1.05444
155.614,21.85801,-0.02149758,0.16384,1.05422
156.314,21.92529,-0.02416436,0.16584,1.054
157.014,21.99226,-0.02590943,0.16899,1.05379
157.714,22.05929,-0.02545251,0.1663,1.05357
158.414,22.1265,-0.0252253,0.16694,1.05335
159.114,22.19374,-0.0241409,0.16812,1.05312
159.814,22.26096,-0.02302243,0.16927,1.0529
160.514,22.32816,-0.02282,0.168,1.05268
161.214,22.39529,-0.02281997,0.17065,1.05245
161.914,22.46242,-0.02303423,0.17058,1.05223
162.614,22.52974,-0.02281997,0.16974,1.052
163.314,22.59674,-0.02281999,0.17104,1.05177
164.014,22.66384,-0.0229098,0.17146,1.05155
164.714,22.73106,-0.02380993,0.17217,1.05132
165.414,22.7983,-0.02381,0.17129,1.05108
166.114,22.86543,-0.02381121,0.17209,1.05085
166.814,22.93235,-0.02327497,0.17114,1.05062
167.514,22.99945,-0.02381126,0.1727,1.05039
168.214,23.0665,-0.02380001,0.17214,1.05015
168.914,23.13341,-0.02380022,0.17283,1.04991
169.614,23.20037,-0.02246078,0.1753,1.04968
170.314,23.26735,-0.02248999,0.17289,1.04944
171.014,23.33434,-0.02249242,0.17589,1.0492
171.714,23.4011,-0.02414047,0.17584,1.04896
172.414,23.46804,-0.02414,0.17533,1.04872
173.114,23.53503,-0.02413998,0.17682,1.04848
173.814,23.60217,-0.02427705,0.17831,1.04823
174.514,23.6693,-0.02753512,0.17753,1.04799
175.214,23.73641,-0.02618143,0.1783,1.04774
175.914,23.80361,-0.02621001,0.17773,1.0475
176.614,23.87079,-0.02621017,0.17879,1.04725
177.314,23.9378,-0.02521972,0.17763,1.047
178.014,24.00488,-0.02622779,0.17792,1.04675
178.714,24.072,-0.02619778,0.17922,1.0465
179.414,24.1391,-0.02359181,0.17962,1.04625
180.114,24.20619,-0.02358332,0.17897,1.046
180.814,24.2731,-0.02366494,0.17947,1.04574
181.514,24.3402,-0.02354261,0.18019,1.04549
182.214,24.40735,-0.02490344,0.18159,1.04523
182.914,24.4745,-0.02425065,0.18136,1.04498
183.614,24.5415,-0.0255534,0.18233,1.04472
184.314,24.6084,-0.0242395,0.18227,1.04446
185.014,24.67534,-0.02424001,0.18254,1.0442
185.714,24.7423,-0.02488511,0.18348,1.04394
186.414,24.8091,-0.02556,0.18511,1.04368
187.114,24.87606,-0.02556,0.18556,1.04341
187.814,24.94277,-0.02556,0.1865,1.04315
188.514,25.00978,-0.02555962,0.1873,1.04289
189.214,25.0766,-0.02686273,0.18828,1.04262
189.914,25.14353,-0.02578005,0.18958,1.04235
190.614,25.21043,-0.02720804,0.19119,1.04209
191.314,25.27729,-0.02552485,0.19131,1.04182
192.014,25.34382,-0.02423333,0.19273,1.04155
192.714,25.41052,-0.02533031,0.19232,1.04128
193.414,25.4772,-0.02554875,0.19456,1.041
194.114,25.5443,-0.02528826,0.19465,1.04073
194.814,25.61122,-0.02523452,0.19606,1.04046
195.514,25.6781,-0.02693431,0.19896,1.04018
196.214,25.7449,-0.02969832,0.20019,1.03991
196.914,25.81154,-0.03101683,0.20416,1.03963
197.614,25.87833,-0.03235615,0.20216,1.03935
198.314,25.94487,-0.03235967,0.20429,1.03907
199.014,26.01171,-0.03081397,0.20502,1.03879
199.714,26.07848,-0.02978449,0.20698,1.03851
200.414,26.145,-0.02874012,0.20737,1.03823
201.114,26.2116,-0.02929796,0.21028,1.03795
201.814,26.27833,-0.03004982,0.21109,1.03766
202.514,26.3451,-0.03069453,0.21342,1.03738
203.214,26.41201,-0.03070998,0.21464,1.03709
203.914,26.4789,-0.03069688,0.21548,1.0368
204.614,26.5455,-0.03203003,0.2204,1.03652
205.314,26.6125,-0.03201288,0.22341,1.03623
206.014,26.6792,-0.03269,0.22329,1.03594
206.714,26.7463,-0.03401405,0.22479,1.03565
207.414,26.81281,-0.03401151,0.22946,1.03535
208.114,26.87943,-0.03500105,0.23036,1.03506
208.814,26.94605,-0.03344915,0.23136,1.03477
209.514,27.01267,-0.03349157,0.23452,1.03447
210.214,27.0792,-0.03499151,0.23669,1.03418
210.914,27.1458,-0.03531948,0.2416,1.03388
211.614,27.21227,-0.03664668,0.24309,1.03358
212.314,27.279,-0.03664,0.24648,1.03328
213.014,27.3458,-0.03664,0.24992,1.03298
213.714,27.41262,-0.03664069,0.25273,1.03268
214.414,27.4792,-0.03795948,0.25684,1.03238
215.114,27.5459,-0.03861999,0.26105,1.03208
215.814,27.61262,-0.04058025,0.26624,1.03178
216.514,27.6794,-0.04191155,0.26939,1.03147
217.214,27.74602,-0.04322194,0.27314,1.03116
217.914,27.81265,-0.04582241,0.27913,1.03086
218.614,27.8794,-0.04585614,0.28456,1.03055
219.314,27.94622,-0.04584389,0.29105,1.03024
220.014,28.01312,-0.04749295,0.2981,1.02993
220.714,28.07984,-0.04850169,0.30201,1.02962
221.414,28.14657,-0.04975162,0.31064,1.02931
222.114,28.21323,-0.0511071,0.31459,1.029
222.814,28.27988,-0.05243092,0.32358,1.02868
223.514,28.3467,-0.05374205,0.33257,1.02837
224.214,28.41341,-0.05407708,0.34004,1.02806
224.914,28.4802,-0.05540229,0.35056,1.02774
225.614,28.5468,-0.0567372,0.35731,1.02742
226.314,28.6139,-0.05980144,0.36701,1.0271
227.014,28.6809,-0.06012477,0.37711,1.02678
227.714,28.74798,-0.06131972,0.38705,1.02646
228.414,28.815,-0.06264217,0.39761,1.02614
229.114,28.8818,-0.06417775,0.40671,1.02582
229.814,28.94854,-0.06719219,0.41837,1.0255
230.514,29.0153,-0.06956765,0.43031,1.02517
231.214,29.0823,-0.0711265,0.44041,1.02485
231.914,29.1494,-0.07350265,0.45117,1.02452
232.614,29.2164,-0.07634619,0.45783,1.0242
233.314,29.28333,-0.08077903,0.46837,1.02387
234.014,29.35026,-0.08382703,0.47646,1.02354
234.714,29.41733,-0.08647924,0.48244,1.02321
235.414,29.4844,-0.08951559,0.49122,1.02288
236.114,29.5516,-0.09349354,0.49672,1.02255
236.814,29.61862,-0.09674497,0.50177,1.02222
237.514,29.6855,-0.09816677,0.50531,1.02188
238.214,29.75232,-0.10038,0.50714,1.02155
238.914,29.81918,-0.10443,0.50868,1.02121
239.614,29.886,-0.10757,0.51001,1.02088
240.314,29.9528,-0.11069,0.50997,1.02054
241.014,30.0197,-0.11512,0.50875,1.0202
241.714,30.08653,-0.11835,0.51016,1.01986
242.414,30.1533,-0.12128,0.50926,1.01952
243.114,30.22,-0.12452,0.51024,1.01918
243.814,30.2868,-0.13029,0.50632,1.01884
244.514,30.3536,-0.13369,0.50643,1.0185
245.214,30.4203,-0.13664,0.50464,1.01815
245.914,30.48667,-0.14116,0.5061,1.01781
246.614,30.5533,-0.14497,0.50468,1.01746
247.314,30.6199,-0.14775,0.50687,1.01712
248.014,30.68685,-0.15229,0.50376,1.01677
248.714,30.75364,-0.15617,0.50562,1.01642
249.414,30.82034,-0.15885,0.50695,1.01607
250.114,30.8871,-0.16079,0.50238,1.01572
250.814,30.95397,-0.16482,0.5005,1.01537
251.514,31.02105,-0.16992,0.49964,1.01502
252.214,31.0878,-0.1733,0.49873,1.01467
252.914,31.1548,-0.17774,0.50071,1.01431
253.614,31.2217,-0.18186,0.50507,1.01396
254.314,31.28875,-0.18467,0.50377,1.0136
255.014,31.35558,-0.19001,0.50467,1.01325
255.714,31.42245,-0.19792,0.5018,1.01289
256.414,31.48927,-0.20019,0.49844,1.01253
257.114,31.55623,-0.20343,0.49526,1.01217
257.814,31.62327,-0.20894,0.49282,1.01181
258.514,31.6902,-0.21232,0.49043,1.01145
259.214,31.7573,-0.21733,0.48647,1.01109
259.914,31.8243,-0.22263,0.4834,1.01073
260.614,31.8912,-0.22583,0.48331,1.01036
261.314,31.9581,-0.23066,0.47956,1.01
262.014,32.02503,-0.23672,0.47998,1.00963
262.714,32.09182,-0.23997,0.4799,1.00927
263.414,32.15879,-0.24463,0.4814,1.0089
264.114,32.2252,-0.24811,0.48183,1.00853
264.814,32.29213,-0.25334,0.48179,1.00816
265.514,32.35915,-0.25898,0.4802,1.00779
266.214,32.4266,-0.26268,0.48114,1.00742
266.914,32.49367,-0.26607,0.48204,1.00705
267.614,32.5606,-0.27147,0.48146,1.00668
268.314,32.62744,-0.2765,0.4846,1.0063
269.014,32.69441,-0.28007,0.48484,1.00593
269.714,32.7613,-0.28465,0.48621,1.00555
270.414,32.82813,-0.28981,0.48573,1.00518
271.114,32.8947,-0.29539,0.4869,1.0048
271.814,32.9612,-0.30257,0.4885,1.00442
272.514,33.0276,-0.30625,0.4875,1.00404
273.214,33.09466,-0.31065,0.48833,1.00366
273.914,33.16176,-0.31499,0.48939,1.00328
274.614,33.22923,-0.32117,0.49018,1.0029
275.314,33.29599,-0.32674,0.49052,1.00252
276.014,33.36302,-0.33231,0.49303,1.00214
276.714,33.43015,-0.33778,0.49063,1.00175
277.414,33.4972,-0.34276,0.49086,1.00137
278.114,33.564,-0.34762,0.49132,1.00098
278.814,33.6308,-0.3532,0.49009,1.0006
279.514,33.69767,-0.35818,0.48945,1.00021
280.214,33.76467,-0.36288,0.49122,0.99982
280.914,33.83204,-0.36873,0.4918,0.99943
281.614,33.8994,-0.37449,0.49131,0.99904
282.314,33.9666,-0.38085,0.49363,0.99865
283.014,34.03363,-0.38735,0.49162,0.99826
283.714,34.10051,-0.39437,0.49221,0.99786
284.414,34.16751,-0.39764,0.49237,0.99747
285.114,34.2346,-0.4065,0.49428,0.99708
285.814,34.30182,-0.41732,0.49461,0.99668
286.514,34.36913,-0.42361,0.49307,0.99628
287.214,34.43658,-0.42912,0.49338,0.99589
287.914,34.50395,-0.43264,0.49422,0.99549
288.614,34.57124,-0.43948,0.49214,0.99509
289.314,34.6385,-0.44362,0.49262,0.99469
290.014,34.7059,-0.45184,0.49401,0.99429
290.714,34.77328,-0.45896,0.49573,0.99389
291.414,34.84082,-0.46798,0.49426,0.99349
292.114,34.908,-0.47458,0.49516,0.99309
292.814,34.9754,-0.47981,0.4946,0.99268
293.514,35.0426,-0.48494,0.49653,0.99228
294.214,35.10993,-0.49454,0.49701,0.99187
294.914,35.1769,-0.50125,0.49769,0.99147
295.614,35.24398,-0.50868,0.49909,0.99106
296.314,35.31111,-0.51695,0.49928,0.99065
297.014,35.37852,-0.52433,0.49855,0.99024
297.714,35.44578,-0.53256,0.50258,0.98983
298.414,35.5128,-0.53983,0.50283,0.98942
299.114,35.58,-0.54672,0.5046,0.98901
299.814,35.6471,-0.55561,0.50546,0.9886
300.514,35.71434,-0.56468,0.50747,0.98819
301.214,35.78156,-0.57242,0.50867,0.98777
301.914,35.84875,-0.58039,0.51212,0.98736
302.614,35.91596,-0.59008,0.51517,0.98694
303.314,35.98319,-0.59854,0.51446,0.98653
304.014,36.05039,-0.60772,0.51741,0.98611
304.714,36.11735,-0.61792,0.51881,0.98569
305.414,36.18459,-0.6283,0.52018,0.98527
306.114,36.25168,-0.63698,0.5237,0.98485
306.814,36.31919,-0.64529,0.52256,0.98443
307.514,36.38619,-0.65371,0.52396,0.98401
308.214,36.45337,-0.66453,0.52339,0.98359
308.914,36.5205,-0.67817,0.5235,0.98317
309.614,36.58789,-0.68706,0.5256,0.98274
310.314,36.6552,-0.69702,0.52559,0.98232
311.014,36.72244,-0.7072,0.52372,0.98189
311.714,36.78979,-0.71675,0.52218,0.98147
312.414,36.85732,-0.72758,0.52264,0.98104
313.114,36.9247,-0.73646,0.52159,0.98061
313.814,36.99171,-0.74681,0.51992,0.98019
314.514,37.05895,-0.75867,0.51975,0.97976
315.214,37.12622,-0.77155,0.52068,0.97933
315.914,37.19377,-0.78108,0.51851,0.9789
316.614,37.26096,-0.79241,0.51263,0.97846
317.314,37.32837,-0.80406,0.51247,0.97803
318.014,37.39586,-0.81504,0.50617,0.9776
318.714,37.46324,-0.82548,0.50401,0.97717
319.414,37.53042,-0.83701,0.50067,0.97673
320.114,37.59772,-0.84716,0.49723,0.9763
320.814,37.66513,-0.85895,0.48981,0.97586
321.514,37.73259,-0.87228,0.49017,0.97542
322.214,37.7998,-0.88384,0.48398,0.97498
322.914,37.86735,-0.89729,0.47781,0.97455
323.614,37.9348,-0.90907,0.47644,0.97411
324.314,38.0024,-0.92095,0.46876,0.97367
325.014,38.06968,-0.93398,0.46395,0.97323
325.714,38.13714,-0.94583,0.46079,0.97278
326.414,38.20459,-0.95786,0.45143,0.97234
327.114,38.27202,-0.9711,0.44703,0.9719
327.814,38.33965,-0.98374,0.44245,0.97145
328.514,38.40718,-0.99706,0.4376,0.97101
329.214,38.47468,-1.00968,0.43324,0.97056
329.914,38.5421,-1.0202,0.4271,0.97012
330.614,38.60955,-1.03473,0.42298,0.96967
331.314,38.67709,-1.04776,0.41642,0.96922
332.014,38.74445,-1.05902,0.41028,0.96877
332.714,38.8118,-1.0712,0.40302,0.96832
333.414,38.8791,-1.08445,0.3984,0.96787
334.114,38.94655,-1.09621,0.39673,0.96742
334.814,39.01412,-1.108,0.38877,0.96697
335.514,39.08135,-1.12313,0.38391,0.96652
336.214,39.14904,-1.13545,0.37763,0.96607
336.914,39.2164,-1.14801,0.3727,0.96561
337.614,39.28427,-1.16402,0.36799,0.96516
338.314,39.3517,-1.17843,0.36051,0.9647
339.014,39.4193,-1.19387,0.3576,0.96425
339.714,39.4869,-1.20818,0.35201,0.96379
340.414,39.55438,-1.2185,0.34745,0.96333
341.114,39.62184,-1.23123,0.34209,0.96287
341.814,39.68935,-1.24279,0.33862,0.96241
342.514,39.75691,-1.25555,0.33406,0.96195
343.214,39.82461,-1.26951,0.32838,0.96149
343.914,39.89239,-1.28233,0.32297,0.96103
344.614,39.95993,-1.29451,0.3181,0.96057
345.314,40.0274,-1.30695,0.31374,0.96011
346.014,40.09492,-1.31699,0.30794,0.95964
346.714,40.16274,-1.32749,0.30425,0.95918
347.414,40.23048,-1.34145,0.29865,0.95871
348.114,40.2983,-1.35126,0.29659,0.95825
348.814,40.36588,-1.36457,0.29192,0.95778
349.514,40.43352,-1.37527,0.28858,0.95731
350.214,40.50128,-1.38461,0.28625,0.95685
350.914,40.56899,-1.39594,0.27769,0.95638
351.614,40.63685,-1.40509,0.27565,0.95591
352.314,40.70443,-1.41675,0.27047,0.95544
353.014,40.77212,-1.42796,0.26906,0.95497
353.714,40.83964,-1.43841,0.26311,0.9545
354.414,40.90744,-1.44989,0.25916,0.95402
355.114,40.975,-1.45903,0.25801,0.95355
355.814,41.0426,-1.46828,0.25393,0.95308
356.514,41.11018,-1.47519,0.24771,0.9526
357.214,41.17792,-1.4835,0.24524,0.95213
357.914,41.24563,-1.49536,0.24179,0.95165
358.614,41.31351,-1.50635,0.2375,0.95118
359.314,41.3812,-1.51497,0.23429,0.9507
360.014,41.44896,-1.52242,0.2302,0.95022
360.714,41.51676,-1.53141,0.22835,0.94974
361.414,41.5846,-1.53955,0.22532,0.94926
362.114,41.65279,-1.54849,0.22111,0.94878
362.814,41.72074,-1.55667,0.22038,0.9483
363.514,41.7889,-1.56267,0.21684,0.94782
364.214,41.85666,-1.56831,0.21262,0.94734
364.914,41.92463,-1.57792,0.21136,0.94686
365.614,41.9925,-1.58326,0.20665,0.94637
366.314,42.06035,-1.58948,0.20685,0.94589
367.014,42.12823,-1.59681,0.20261,0.9454
367.714,42.1961,-1.60281,0.20275,0.94492
368.414,42.26412,-1.61188,0.19898,0.94443
369.114,42.3319,-1.61873,0.19775,0.94394
369.814,42.39968,-1.62535,0.1952,0.94346
370.514,42.4674,-1.63089,0.19253,0.94297
371.214,42.53526,-1.63697,0.19054,0.94248
371.914,42.60308,-1.64459,0.18949,0.94199
372.614,42.67114,-1.65085,0.18735,0.9415
373.314,42.73888,-1.65823,0.18518,0.94101
374.014,42.80705,-1.66249,0.18454,0.94052
374.714,42.87505,-1.66636,0.181,0.94002
375.414,42.9433,-1.67178,0.18276,0.93953
376.114,43.01123,-1.67632,0.18121,0.93904
376.814,43.07901,-1.68071,0.1783,0.93854
377.514,43.14689,-1.68673,0.17792,0.93805
378.214,43.2146,-1.69178,0.17613,0.93755
378.914,43.28268,-1.69939,0.17688,0.93705
379.614,43.35071,-1.70559,0.17533,0.93656
380.314,43.41903,-1.71296,0.17301,0.93606
381.014,43.4871,-1.71685,0.17535,0.93556
381.714,43.5552,-1.71911,0.17284,0.93506
382.414,43.62308,-1.72372,0.17281,0.93456
383.114,43.69119,-1.73091,0.17124,0.93406
383.814,43.7592,-1.73876,0.17106,0.93356
384.514,43.82718,-1.74471,0.17122,0.93306
385.214,43.89492,-1.74826,0.16758,0.93256
385.914,43.96302,-1.75227,0.16902,0.93205
386.614,44.03113,-1.75788,0.16664,0.93155
387.314,44.09949,-1.76135,0.16796,0.93105
388.014,44.16749,-1.76535,0.16354,0.93054
388.714,44.23556,-1.76786,0.16684,0.93003
389.414,44.30372,-1.77379,0.16535,0.92953
390.114,44.37195,-1.78137,0.16229,0.92902
390.814,44.4402,-1.78643,0.16233,0.92851
391.514,44.50842,-1.78891,0.16314,0.92801
392.214,44.5766,-1.79361,0.16227,0.9275
392.914,44.64483,-1.80006,0.16363,0.92699
393.614,44.713,-1.80538,0.15877,0.92648
394.314,44.78138,-1.80999,0.16159,0.92597
395.014,44.84955,-1.81322,0.15784,0.92546
395.714,44.91765,-1.81774,0.1628,0.92494
396.414,44.98557,-1.82287,0.16208,0.92443
397.114,45.05388,-1.82962,0.16188,0.92392
397.814,45.1221,-1.83472,0.15934,0.9234
398.514,45.19032,-1.83933,0.16018,0.92289
399.214,45.2585,-1.8445,0.16257,0.92237
399.914,45.32665,-1.8472,0.16085,0.92186
400.614,45.39493,-1.85235,0.15995,0.92134
401.314,45.46306,-1.85546,0.16022,0.92083
402.014,45.53123,-1.85946,0.16004,0.92031
402.714,45.59937,-1.86479,0.16225,0.91979
403.414,45.66752,-1.87372,0.16129,0.91927
404.114,45.73558,-1.87827,0.15881,0.91875
404.814,45.80377,-1.88196,0.15859,0.91823
405.514,45.87191,-1.88528,0.15741,0.91771
406.214,45.94021,-1.89008,0.15302,0.91719
406.914,46.0085,-1.89355,0.15107,0.91667
407.614,46.07674,-1.89903,0.14874,0.91615
408.314,46.14512,-1.90339,0.14909,0.91562
409.014,46.2132,-1.9077,0.14711,0.9151
409.714,46.28143,-1.91006,0.14659,0.91457
410.414,46.34967,-1.9131,0.1426,0.91405
411.114,46.41816,-1.91774,0.14344,0.91352
411.814,46.48663,-1.92091,0.14144,0.913
412.514,46.55489,-1.92304,0.1388,0.91247
413.214,46.62327,-1.92868,0.1398,0.91194
413.914,46.69149,-1.93296,0.13706,0.91142
414.614,46.76,-1.93734,0.13342,0.91089
415.314,46.82835,-1.9406,0.13256,0.91036
416.014,46.89685,-1.94474,0.13048,0.90983
416.714,46.96502,-1.94811,0.13048,0.9093
417.414,47.0336,-1.95211,0.12819,0.90877
418.114,47.10207,-1.95773,0.12898,0.90824
418.814,47.17087,-1.96289,0.12781,0.90771
419.514,47.23941,-1.96612,0.1253,0.90717
420.214,47.30809,-1.96932,0.12352,0.90664
420.914,47.37678,-1.97185,0.12378,0.90611
421.614,47.44569,-1.97496,0.12315,0.90557
422.314,47.51419,-1.97796,0.11984,0.90504
423.014,47.58282,-1.9836,0.12139,0.9045
423.714,47.6513,-1.98578,0.11729,0.90397
424.414,47.7201,-1.98865,0.11531,0.90343
425.114,47.78873,-1.99131,0.11577,0.90289
425.814,47.85732,-1.99594,0.11712,0.90236
426.514,47.92589,-1.9992,0.11296,0.90182
427.214,47.9946,-2.00268,0.11179,0.90128
427.914,48.06348,-2.00418,0.11162,0.90074
428.614,48.1321,-2.00691,0.11145,0.9002
429.314,48.20068,-2.01146,0.11103,0.89966
430.014,48.2692,-2.01658,0.10795,0.89912
430.714,48.3377,-2.01975,0.10841,0.89858
431.414,48.40639,-2.02111,0.10733,0.89804
432.114,48.475,-2.02574,0.1026,0.89749
432.814,48.54367,-2.02845,0.10554,0.89695
433.514,48.61229,-2.02963,0.10252,0.89641
434.214,48.681,-2.03101,0.10149,0.89586
434.914,48.7496,-2.0344,0.09955609,0.89532
435.614,48.81819,-2.0398,0.09914973,0.89477
436.314,48.8867,-2.04192,0.09851469,0.89423
437.014,48.9555,-2.04647,0.09814032,0.89368
437.714,49.024,-2.04968,0.09547865,0.89313
438.414,49.09288,-2.05208,0.09394074,0.89258
439.114,49.16151,-2.05582,0.09339454,0.89204
439.814,49.23032,-2.05797,0.09254242,0.89149
440.514,49.29895,-2.06055,0.09191608,0.89094
441.214,49.3675,-2.06269,0.09161196,0.89039
441.914,49.43629,-2.06644,0.08951229,0.88984
442.614,49.50506,-2.07217,0.08748503,0.88929
443.314,49.57394,-2.07383,0.08703597,0.88874
444.014,49.6426,-2.07418,0.08722671,0.88819
444.714,49.7111,-2.07578,0.08363925,0.88763
445.414,49.77973,-2.07813,0.08388332,0.88708
446.114,49.8485,-2.08069,0.08193699,0.88653
446.814,49.9173,-2.08474,0.08054747,0.88597
447.514,49.98624,-2.08868,0.07781242,0.88542
448.214,50.05512,-2.09141,0.07796592,0.88486
448.914,50.12399,-2.0914,0.07891775,0.88431
449.614,50.19273,-2.09346,0.0772944,0.88375
450.314,50.26119,-2.09546,0.07377419,0.8832
451.014,50.3299,-2.09892,0.07394517,0.88264
451.714,50.39849,-2.10184,0.07117303,0.88208
452.414,50.4676,-2.10601,0.07332297,0.88153
453.114,50.53627,-2.10984,0.07468245,0.88097
453.814,50.60525,-2.11287,0.07028439,0.88041
454.514,50.674,-2.11568,0.06995866,0.87985
455.214,50.7427,-2.1174,0.0708005,0.87929
455.914,50.81128,-2.12116,0.06853415,0.87873
456.614,50.87995,-2.1223,0.06821766,0.87817
457.314,50.94878,-2.12627,0.06815633,0.87761
458.014,51.01768,-2.12752,0.06554274,0.87704
458.714,51.08648,-2.12836,0.06404102,0.87648
459.414,51.15529,-2.12936,0.06296687,0.87592
460.114,51.2241,-2.13162,0.06416054,0.87536
460.814,51.2928,-2.13443,0.06257351,0.87479
461.514,51.36137,-2.13645,0.05935154,0.87423
462.214,51.43002,-2.13889,0.05889303,0.87366
462.914,51.49885,-2.13865,0.05828064,0.8731
463.614,51.56801,-2.13756,0.05459142,0.87253
464.314,51.6373,-2.14202,0.05651391,0.87197
465.014,51.70635,-2.14517,0.05580279,0.8714
465.714,51.7752,-2.14634,0.05313782,0.87083
466.414,51.844,-2.14756,0.05353695,0.87026
467.114,51.91291,-2.15197,0.05362025,0.8697
467.814,51.98226,-2.15667,0.05071827,0.86913
468.514,52.05149,-2.15669,0.0507267,0.86856
469.214,52.12061,-2.15665,0.04871352,0.86799
469.914,52.1894,-2.1594,0.04717242,0.86742
470.614,52.25835,-2.16174,0.04839405,0.86685
471.314,52.32757,-2.1656,0.04641318,0.86628
472.014,52.3969,-2.16643,0.04453765,0.86571
472.714,52.4659,-2.16786,0.04254247,0.86513
473.414,52.5348,-2.17025,0.04400661,0.86456
474.114,52.6039,-2.17172,0.04101433,0.86399
474.814,52.673,-2.17311,0.04223176,0.86342
475.514,52.7421,-2.17323,0.04035358,0.86284
476.214,52.8109,-2.17452,0.03973732,0.86227
476.914,52.87998,-2.17624,0.0379513,0.86169
477.614,52.9492,-2.18035,0.03843603,0.86112
478.314,53.01851,-2.18284,0.03682013,0.86054
479.014,53.08752,-2.18554,0.03539695,0.85997
479.714,53.15654,-2.18429,0.03385148,0.85939
480.414,53.2257,-2.18429,0.03289281,0.85881
481.114,53.2951,-2.1855,0.03169686,0.85824
481.814,53.3643,-2.19004,0.03001728,0.85766
482.514,53.4337,-2.1934,0.02938868,0.85708
483.214,53.503,-2.19474,0.03036911,0.8565
483.914,53.5725,-2.19751,0.02759415,0.85592
484.614,53.6419,-2.1966,0.02784372,0.85535
485.314,53.71116,-2.19745,0.02594775,0.85477
486.014,53.78049,-2.2006,0.02613571,0.85418
486.714,53.8496,-2.20141,0.02466608,0.8536
487.414,53.91891,-2.20141,0.02456564,0.85302
488.114,53.98791,-2.19992,0.02113695,0.85244
488.814,54.05706,-2.20036,0.02299303,0.85186
489.514,54.1262,-2.2038,0.0232379,0.85128
490.214,54.19534,-2.20635,0.02269315,0.85069
490.914,54.26458,-2.20903,0.0228453,0.85011
491.614,54.33384,-2.20913,0.01994731,0.84953
492.314,54.4032,-2.20909,0.01953473,0.84894
493.014,54.4724,-2.20923,0.01903139,0.84836
493.714,54.54161,-2.214,0.02109449,0.84777
494.414,54.6108,-2.21811,0.01933398,0.84719
495.114,54.67985,-2.21982,0.02024194,0.8466
495.814,54.74889,-2.21991,0.01874032,0.84602
496.514,54.818,-2.22036,0.01821575,0.84543
497.214,54.88731,-2.22171,0.01940121,0.84484
497.914,54.9566,-2.22301,0.01991711,0.84426
498.614,55.02579,-2.22432,0.02033572,0.84367
499.314,55.09508,-2.22431,0.02042818,0.84308
500.014,55.16406,-2.22564,0.01630867,0.84249
500.714,55.233,-2.22433,0.01287252,0.8419
501.414,55.3019,-2.2255,0.01535835,0.84131
502.114,55.3711,-2.22748,0.0137434,0.84072
502.814,55.4405,-2.22837,0.01116675,0.84013
503.514,55.50995,-2.2309,0.01126312,0.83954
504.214,55.5792,-2.23222,0.01160135,0.83895
504.914,55.64858,-2.23283,0.01271264,0.83836
505.614,55.7179,-2.23484,0.01107088,0.83777
506.314,55.78731,-2.23617,0.01156726,0.83718
507.014,55.8566,-2.23617,0.01084369,0.83658
507.714,55.9261,-2.23869,0.009622506,0.83599
508.414,55.9956,-2.24141,0.009222649,0.8354
509.114,56.06515,-2.24088,0.009387088,0.8348
509.814,56.13445,-2.24019,0.009400881,0.83421
510.514,56.20389,-2.24128,0.007364723,0.83362
511.214,56.27341,-2.24256,0.006237134,0.83302
511.914,56.34304,-2.24385,0.00898517,0.83243
512.614,56.41256,-2.24505,0.009285839,0.83183
513.314,56.482,-2.24517,0.007941545,0.83123
514.014,56.5514,-2.24648,0.01049416,0.83064
514.714,56.6204,-2.24645,0.01297026,0.83004
515.414,56.68968,-2.24747,0.01579771,0.82945
516.114,56.759,-2.24977,0.01802596,0.82885
516.814,56.8283,-2.25009,0.01808852,0.82825
517.514,56.89688,-2.25011,0.02093899,0.82765
518.214,56.96629,-2.25142,0.0239978,0.82705
518.914,57.03606,-2.25404,0.02554372,0.82645
519.614,57.1063,-2.25537,0.02720281,0.82586
520.314,57.17553,-2.2567,0.02820387,0.82526
521.014,57.245,-2.25795,0.03026153,0.82466
521.714,57.3143,-2.25817,0.03252748,0.82406
522.414,57.3835,-2.25933,0.03286249,0.82346
523.114,57.45307,-2.25899,0.03380054,0.82285
523.814,57.5228,-2.26002,0.03612237,0.82225
524.514,57.593,-2.26096,0.03748542,0.82165
525.214,57.66264,-2.26062,0.03784891,0.82105
525.914,57.7322,-2.26042,0.03938196,0.82045
526.614,57.8016,-2.26134,0.0411397,0.81984
527.314,57.8711,-2.26151,0.04189968,0.81924
528.014,57.9407,-2.26151,0.04588381,0.81864
528.714,58.0103,-2.26391,0.04283249,0.81804
529.414,58.0796,-2.26549,0.0459485,0.81743
530.114,58.1491,-2.26677,0.04784017,0.81683
530.814,58.2187,-2.26807,0.04725662,0.81622
531.514,58.28826,-2.26941,0.04941612,0.81562
532.214,58.35787,-2.27072,0.04835217,0.81501
532.914,58.4276,-2.26993,0.04786615,0.81441
533.614,58.4975,-2.27065,0.04761836,0.8138
534.314,58.56731,-2.27336,0.04987799,0.81319
535.014,58.63672,-2.27597,0.05424145,0.81259
535.714,58.70615,-2.27598,0.05076971,0.81198
536.414,58.77554,-2.27597,0.05342594,0.81137
537.114,58.8452,-2.27461,0.05199742,0.81077
537.814,58.91471,-2.27301,0.05116904,0.81016
538.514,58.98431,-2.27305,0.04733981,0.80955
539.214,59.05386,-2.27748,0.05334004,0.80894
539.914,59.1232,-2.28051,0.04894018,0.80833
540.614,59.1922,-2.27926,0.05324228,0.80772
541.314,59.2616,-2.28189,0.04468449,0.80711
542.014,59.33118,-2.27936,0.04781091,0.8065
542.714,59.4009,-2.28048,0.04805137,0.80589
543.414,59.4704,-2.28156,0.0448766,0.80528
544.114,59.54,-2.2818,0.04396858,0.80467
544.814,59.6098,-2.28215,0.0417292,0.80406
545.514,59.67954,-2.28246,0.04142115,0.80345
546.214,59.7493,-2.28455,0.0419439,0.80284
546.914,59.8189,-2.28739,0.04153749,0.80223
547.614,59.88873,-2.2874,0.04011398,0.80162
548.314,59.95836,-2.28813,0.03972661,0.801
549.014,60.02816,-2.2887,0.04155731,0.80039
549.714,60.09775,-2.28783,0.03803648,0.79978
550.414,60.16745,-2.28903,0.03659048,0.79916
551.114,60.23692,-2.29158,0.036912,0.79855
551.814,60.3067,-2.29294,0.03520366,0.79794
552.514,60.37644,-2.29563,0.03880655,0.79732
553.214,60.4463,-2.2948,0.0365138,0.79671
553.914,60.516,-2.2943,0.03602087,0.79609
554.614,60.5858,-2.29559,0.03307708,0.79548
555.314,60.6556,-2.29757,0.03273012,0.79486
556.014,60.72549,-2.29826,0.03148715,0.79425
556.714,60.79534,-2.29826,0.03171722,0.79363
557.414,60.8653,-2.29957,0.02915965,0.79301
558.114,60.93518,-2.29967,0.02830935,0.7924
558.814,61.00512,-2.30024,0.02733533,0.79178
559.514,61.0751,-2.30087,0.02429568,0.79116
560.214,61.1451,-2.30087,0.02430702,0.79055
560.914,61.21506,-2.30262,0.02537548,0.78993
561.614,61.28476,-2.30519,0.02051737,0.78931
562.314,61.35462,-2.30607,0.0215519,0.78869
563.014,61.4246,-2.30639,0.01979126,0.78808
563.714,61.49474,-2.30641,0.01920888,0.78746
564.414,61.5647,-2.30756,0.01667721,0.78684
565.114,61.63468,-2.30988,0.01596269,0.78622
565.814,61.70469,-2.31014,0.01482745,0.7856
566.514,61.77455,-2.31141,0.01589987,0.78498
567.214,61.8446,-2.31413,0.0131378,0.78436
567.914,61.9146,-2.31542,0.01475419,0.78374
568.614,61.9847,-2.31629,0.01315362,0.78312
569.314,62.05451,-2.31662,0.0116573,0.7825
570.014,62.1244,-2.31501,0.01092977,0.78188
570.714,62.19426,-2.31506,0.00587835,0.78126
571.414,62.2642,-2.31767,0.00818253,0.78064
572.114,62.334,-2.31899,0.006262846,0.78001
572.814,62.40374,-2.3203,0.006128553,0.77939
573.514,62.4737,-2.3217,0.009289617,0.77877
574.214,62.5435,-2.32303,0.005794901,0.77815
574.914,62.6135,-2.32095,0.004404479,0.77753
575.614,62.68349,-2.32256,0.003855516,0.7769
576.314,62.7538,-2.32436,0.00374202,0.77628
577.014,62.8239,-2.32438,0.004806259,0.77566
577.714,62.89389,-2.32731,0.004371634,0.77503
578.414,62.96369,-2.32903,0.00191752,0.77441
579.114,63.03355,-2.32959,0.00420321,0.77379
579.814,63.1036,-2.32831,0.004445986,0.77316
580.514,63.17364,-2.33036,0.0011782,0.77254
581.214,63.2437,-2.33018,-0.000117888,0.77191
581.914,63.3136,-2.33119,0.00144637,0.77129
582.614,63.38374,-2.33017,-0.000829299,0.77066
583.314,63.45365,-2.33159,-0.000463435,0.77004
584.014,63.5234,-2.33149,-0.002082576,0.76941
584.714,63.5934,-2.3315,-0.001359159,0.76879
585.414,63.66353,-2.33412,-0.003616351,0.76816
586.114,63.73372,-2.33412,-0.0009475025,0.76753
586.814,63.80346,-2.33544,-0.001974439,0.76691
587.514,63.8734,-2.33676,-0.000937358,0.76628
588.214,63.94334,-2.33675,-0.004349787,0.76565
588.914,64.0134,-2.33674,-0.006899135,0.76503
589.614,64.08351,-2.33798,-0.00506329,0.7644
590.314,64.15344,-2.33871,-0.00298141,0.76377
591.014,64.2235,-2.34016,-0.004441015,0.76315
591.714,64.29345,-2.3402,-0.002546,0.76252
592.414,64.36335,-2.34017,-0.00309558,0.76189
593.114,64.43321,-2.3415,-0.003963855,0.76126
593.814,64.5031,-2.34013,-0.00588293,0.76063
594.514,64.57311,-2.34177,-0.00634572,0.76
595.214,64.6432,-2.34301,-0.00774223,0.75938
595.914,64.7133,-2.34432,-0.004808753,0.75875
596.614,64.78341,-2.34453,-0.00752023,0.75812
597.314,64.85338,-2.34833,-0.003271847,0.75749
598.014,64.92336,-2.34904,-0.00447711,0.75686
598.714,64.99339,-2.35088,-0.006604795,0.75623
599.414,65.06353,-2.34997,-0.005554949,0.7556
600.114,65.13394,-2.351,-0.00728881,0.75497
600.814,65.20433,-2.35216,-0.004892334,0.75434
601.514,65.27456,-2.35301,-0.0045428,0.75371
602.214,65.34473,-2.35354,-0.003860471,0.75308
602.914,65.4148,-2.35448,-0.006439922,0.75245
603.614,65.48488,-2.35544,-0.005816757,0.75182
604.314,65.5549,-2.3561,-0.006029918,0.75118
605.014,65.62488,-2.35706,-0.002565169,0.75055
605.714,65.695,-2.35837,-0.00425446,0.74992
606.414,65.76522,-2.35572,-0.004556664,0.74929
607.114,65.83538,-2.35609,-0.003910576,0.74866
607.814,65.90554,-2.35433,-0.004468688,0.74803
608.514,65.9756,-2.35262,-0.005840441,0.74739
609.214,66.04598,-2.35326,-0.00195292,0.74676
609.914,66.1162,-2.35553,-0.00119291,0.74613
610.614,66.18636,-2.35663,-0.0004648514,0.7455
611.314,66.25645,-2.35845,0.0001835177,0.74486
612.014,66.3266,-2.36132,0.001245819,0.74423
612.714,66.3969,-2.36049,0.0031583,0.7436
613.414,66.46718,-2.36183,0.004217845,0.74296
614.114,66.53747,-2.36263,0.00291618,0.74233
614.814,66.6078,-2.36166,0.00512675,0.7417
615.514,66.6781,-2.36354,0.006750356,0.74106
616.214,66.74792,-2.36395,0.006414232,0.74043
616.914,66.81819,-2.36681,0.01100942,0.73979
617.614,66.88854,-2.36818,0.01155264,0.73916
618.314,66.9593,-2.36912,0.00938128,0.73852
619.014,67.02948,-2.37108,0.01221007,0.73789
619.714,67.0998,-2.3724,0.01551608,0.73726
620.414,67.17,-2.37305,0.01782621,0.73662
621.114,67.2403,-2.37305,0.02350169,0.73599
621.814,67.31036,-2.37415,0.02451711,0.73535
622.514,67.38056,-2.37633,0.03100338,0.73472
623.214,67.4507,-2.37345,0.02736867,0.73408
623.914,67.52073,-2.37448,0.03582843,0.73344
624.614,67.59084,-2.37447,0.03612394,0.73281
625.314,67.66113,-2.37533,0.04025068,0.73217
626.014,67.73138,-2.37797,0.04567023,0.73154
626.714,67.80166,-2.37974,0.04811184,0.7309
627.414,67.87178,-2.3814,0.05280769,0.73026
628.114,67.9422,-2.38141,0.0549693,0.72963
628.814,68.0125,-2.38402,0.06035449,0.72899
629.514,68.08269,-2.38402,0.06188424,0.72835
630.214,68.15297,-2.3833,0.065327,0.72772
630.914,68.22327,-2.38437,0.06978492,0.72708
631.614,68.2936,-2.38425,0.0720197,0.72644
632.314,68.36367,-2.38597,0.07767058,0.72581
633.014,68.43382,-2.38944,0.08144412,0.72517
633.714,68.5039,-2.38946,0.08593222,0.72453
634.414,68.57427,-2.39223,0.09111812,0.7239
635.114,68.64453,-2.39346,0.09864119,0.72326
635.814,68.7149,-2.39319,0.09670738,0.72262
636.514,68.7851,-2.39191,0.10512,0.72198
637.214,68.8552,-2.39454,0.11271,0.72134
637.914,68.92545,-2.39656,0.11808,0.72071
638.614,68.99585,-2.39762,0.12496,0.72007
639.314,69.0664,-2.40342,0.13207,0.71943
640.014,69.13684,-2.40307,0.13673,0.71879
640.714,69.20725,-2.40322,0.14293,0.71815
641.414,69.2773,-2.4032,0.14824,0.71751
642.114,69.34778,-2.40375,0.15191,0.71688
642.814,69.4182,-2.40596,0.15764,0.71624
643.514,69.4889,-2.40759,0.16699,0.7156
644.214,69.5595,-2.40993,0.17171,0.71496
644.914,69.63034,-2.41138,0.17766,0.71432
645.614,69.70102,-2.41328,0.1861,0.71368
646.314,69.7715,-2.41592,0.19502,0.71304
647.014,69.8418,-2.41855,0.20312,0.7124
647.714,69.91216,-2.41853,0.21034,0.71176
648.414,69.9825,-2.4199,0.21595,0.71112
649.114,70.0522,-2.42189,0.22484,0.71048
649.814,70.12275,-2.42532,0.22935,0.70984
650.514,70.19346,-2.42806,0.23997,0.7092
651.214,70.26465,-2.43196,0.24723,0.70856
651.914,70.33519,-2.43487,0.25402,0.70792
652.614,70.40564,-2.43322,0.26259,0.70728
653.314,70.47616,-2.43189,0.27207,0.70664
654.014,70.54644,-2.43437,0.27917,0.706
654.714,70.61695,-2.43615,0.28886,0.70536
655.414,70.68733,-2.43975,0.29888,0.70472
656.114,70.7576,-2.44443,0.30759,0.70408
656.814,70.8277,-2.44782,0.31893,0.70344
657.514,70.89795,-2.44909,0.32729,0.7028
658.214,70.96848,-2.45185,0.33839,0.70216
658.914,71.03885,-2.4531,0.34815,0.70152
659.614,71.10922,-2.45587,0.35619,0.70088
660.314,71.17944,-2.45906,0.36775,0.70024
661.014,71.24971,-2.4625,0.37564,0.6996
661.714,71.31993,-2.46344,0.386,0.69896
662.414,71.3903,-2.46469,0.39447,0.69832
663.114,71.46087,-2.47189,0.40823,0.69768
663.814,71.53137,-2.47503,0.41569,0.69703
664.514,71.60165,-2.47877,0.42676,0.69639
665.214,71.67184,-2.47948,0.43676,0.69575
665.914,71.74213,-2.48121,0.4469,0.69511
666.614,71.8124,-2.48266,0.45897,0.69447
667.314,71.88288,-2.48991,0.47395,0.69383
668.014,71.9533,-2.49521,0.48437,0.69319
668.714,72.02364,-2.50106,0.49535,0.69255
669.414,72.09392,-2.50401,0.50579,0.6919
670.114,72.16413,-2.5036,0.51953,0.69126
670.814,72.23445,-2.5066,0.52829,0.69062
671.514,72.30485,-2.51103,0.53897,0.68998
672.214,72.3754,-2.51642,0.54882,0.68934
672.914,72.4459,-2.51638,0.56363,0.6887
673.614,72.5162,-2.51843,0.57566,0.68805
674.314,72.58638,-2.52404,0.58434,0.68741
675.014,72.6569,-2.52937,0.59602,0.68677
675.714,72.72762,-2.53461,0.60847,0.68613
676.414,72.79825,-2.53782,0.61841,0.68549
677.114,72.86874,-2.54281,0.63288,0.68484
677.814,72.9393,-2.54725,0.64504,0.6842
678.514,73.01002,-2.55052,0.65553,0.68356
679.214,73.08057,-2.55475,0.6662,0.68292
679.914,73.15117,-2.5585,0.68264,0.68228
680.614,73.2218,-2.56133,0.69174,0.68163
681.314,73.2927,-2.56639,0.70559,0.68099
682.014,73.36373,-2.57267,0.71676,0.68035
682.714,73.43463,-2.57483,0.72571,0.67971
683.414,73.50543,-2.58074,0.73608,0.67906
684.114,73.5762,-2.58499,0.74595,0.67842
684.814,73.64684,-2.59139,0.75811,0.67778
685.514,73.71759,-2.59685,0.76952,0.67714
686.214,73.78833,-2.60099,0.77869,0.6765
686.914,73.8591,-2.60614,0.78549,0.67585
687.614,73.92993,-2.61133,0.79939,0.67521
688.314,74.0008,-2.61485,0.80763,0.67457
689.014,74.07169,-2.61877,0.81933,0.67393
689.714,74.14256,-2.62458,0.82672,0.67328
690.414,74.2132,-2.62984,0.83108,0.67264
691.114,74.28398,-2.63569,0.84029,0.672
691.814,74.35477,-2.63901,0.84534,0.67136
692.514,74.42568,-2.64296,0.85345,0.67071
693.214,74.49651,-2.6475,0.85603,0.67007
693.914,74.5671,-2.65445,0.86089,0.66943
694.614,74.6378,-2.66006,0.86193,0.66879
695.314,74.70832,-2.66706,0.86644,0.66814
696.014,74.779,-2.67283,0.86839,0.6675
696.714,74.84956,-2.67867,0.8679,0.66686
697.414,74.9201,-2.68169,0.86334,0.66622
698.114,74.99043,-2.68598,0.86179,0.66557
698.814,75.0608,-2.69228,0.85123,0.66493
699.514,75.1314,-2.69704,0.84223,0.66429
700.214,75.20196,-2.70242,0.8291,0.66365
700.914,75.27248,-2.70812,0.81506,0.66301
701.614,75.34268,-2.71404,0.79582,0.66236
702.314,75.41305,-2.71929,0.77572,0.66172
703.014,75.48354,-2.72104,0.74453,0.66108
703.714,75.554,-2.72357,0.71533,0.66044
704.414,75.62446,-2.72815,0.68008,0.65979
705.114,75.69498,-2.73475,0.64081,0.65915
705.814,75.76568,-2.73892,0.60443,0.65851
706.514,75.83627,-2.74134,0.56385,0.65787
707.214,75.90675,-2.74501,0.52536,0.65722
707.914,75.9772,-2.75075,0.48361,0.65658
708.614,76.04773,-2.75203,0.44208,0.65594
709.314,76.1183,-2.75275,0.40534,0.6553
710.014,76.1888,-2.75364,0.36078,0.65466
710.714,76.25939,-2.75667,0.32691,0.65401
711.414,76.32993,-2.76182,0.28535,0.65337
712.114,76.40053,-2.76485,0.25395,0.65273
712.814,76.4709,-2.76742,0.22506,0.65209
713.514,76.5415,-2.76811,0.19766,0.65145
714.214,76.61199,-2.77328,0.1748,0.6508
714.914,76.68285,-2.77878,0.1535,0.65016
715.614,76.75354,-2.78259,0.13602,0.64952
716.314,76.8245,-2.78126,0.11529,0.64888
717.014,76.89516,-2.7797,0.09416705,0.64824
717.714,76.96597,-2.78095,0.08196495,0.64759
718.414,77.03673,-2.78244,0.06367671,0.64695
719.114,77.10765,-2.78252,0.04837758,0.64631
719.814,77.1785,-2.78252,0.0351679,0.64567
720.514,77.2493,-2.78384,0.01967151,0.64503
721.214,77.3197,-2.78657,0.009571052,0.64439
721.914,77.39062,-2.78921,-0.003141684,0.64374
722.614,77.46163,-2.79008,-0.01361847,0.6431
723.314,77.533,-2.79248,-0.02419113,0.64246
724.014,77.60373,-2.79344,-0.03722327,0.64182
724.714,77.6746,-2.7924,-0.04878382,0.64118
725.414,77.7455,-2.79371,-0.05460282,0.64054
726.114,77.81634,-2.79274,-0.06743636,0.6399
726.814,77.88718,-2.79271,-0.07535319,0.63925
727.514,77.958,-2.79404,-0.08003097,0.63861
728.214,78.0287,-2.79405,-0.09227037,0.63797
728.914,78.0993,-2.797,-0.09680512,0.63733
729.614,78.17011,-2.7993,-0.10406,0.63669
730.314,78.24083,-2.7993,-0.11282,0.63605
731.014,78.3118,-2.79889,-0.11914,0.63541
731.714,78.38265,-2.8021,-0.12448,0.63477
732.414,78.4537,-2.80084,-0.13028,0.63413
733.114,78.52449,-2.80091,-0.13093,0.63349
733.814,78.5954,-2.80322,-0.13799,0.63285
734.514,78.66645,-2.80423,-0.14657,0.63221
735.214,78.73739,-2.804,-0.14786,0.63156
735.914,78.80805,-2.80428,-0.15359,0.63092
736.614,78.8789,-2.80422,-0.15903,0.63028
737.314,78.94975,-2.80421,-0.1657,0.62964
738.014,79.02081,-2.80423,-0.1663,0.629
738.714,79.09172,-2.80575,-0.17119,0.62836
739.414,79.16261,-2.80701,-0.17739,0.62772
740.114,79.2333,-2.8084,-0.17698,0.62708
740.814,79.304,-2.8084,-0.18292,0.62644
741.514,79.37478,-2.8084,-0.18304,0.6258
742.214,79.446,-2.8084,-0.18622,0.62516
742.914,79.5172,-2.8084,-0.19072,0.62452
743.614,79.58847,-2.80933,-0.19109,0.62389
744.314,79.6593,-2.80972,-0.19805,0.62325
745.014,79.73021,-2.81111,-0.19979,0.62261
745.714,79.80109,-2.80955,-0.19963,0.62197
746.414,79.87199,-2.80665,-0.20194,0.62133
747.114,79.94289,-2.80917,-0.20313,0.62069
747.814,80.0136,-2.80927,-0.20558,0.62005
748.514,80.08408,-2.80994,-0.20801,0.61941
749.214,80.15496,-2.80987,-0.20976,0.61877
749.914,80.22598,-2.80991,-0.21517,0.61813
750.614,80.29717,-2.81129,-0.21567,0.61749
751.314,80.36796,-2.814,-0.22143,0.61686
752.014,80.43871,-2.81532,-0.2218,0.61622
752.714,80.50965,-2.81663,-0.22374,0.61558
753.414,80.58054,-2.81663,-0.22002,0.61494
754.114,80.65149,-2.81663,-0.22454,0.6143
754.814,80.72242,-2.81924,-0.22017,0.61366
755.514,80.79338,-2.81491,-0.22499,0.61303
756.214,80.8642,-2.81248,-0.23029,0.61239
756.914,80.935,-2.81461,-0.22795,0.61175
757.614,81.00578,-2.81585,-0.23134,0.61111
758.314,81.07667,-2.81332,-0.22953,0.61048
759.014,81.14737,-2.81507,-0.2291,0.60984
759.714,81.21804,-2.81791,-0.23393,0.6092
760.414,81.28879,-2.81825,-0.22956,0.60856
761.114,81.3596,-2.82058,-0.23006,0.60793
761.814,81.43042,-2.82059,-0.23346,0.60729
762.514,81.50117,-2.81926,-0.23387,0.60665
763.214,81.57213,-2.81926,-0.23785,0.60602
763.914,81.64305,-2.81933,-0.2409,0.60538
764.614,81.71404,-2.81654,-0.23618,0.60474
765.314,81.78497,-2.81799,-0.23526,0.60411
766.014,81.8561,-2.82217,-0.23937,0.60347
766.714,81.92715,-2.82397,-0.24183,0.60283
767.414,81.99804,-2.82353,-0.2438,0.6022
768.114,82.06883,-2.82267,-0.24395,0.60156
768.814,82.13967,-2.82399,-0.24458,0.60093
769.514,82.21067,-2.8219,-0.25043,0.60029
770.214,82.28185,-2.82233,-0.24924,0.59965
770.914,82.35297,-2.82101,-0.25379,0.59902
771.614,82.42396,-2.82226,-0.25552,0.59838
772.314,82.49475,-2.82372,-0.25314,0.59775
773.014,82.5655,-2.82564,-0.25177,0.59711
773.714,82.63632,-2.82508,-0.25283,0.59648
774.414,82.7073,-2.8242,-0.25887,0.59584
775.114,82.77832,-2.82386,-0.25386,0.59521
775.814,82.84959,-2.82387,-0.25704,0.59457
776.514,82.92061,-2.82528,-0.25835,0.59394
777.214,82.9914,-2.82617,-0.26112,0.59331
777.914,83.06217,-2.82481,-0.26758,0.59267
778.614,83.1335,-2.82486,-0.27035,0.59204
779.314,83.20496,-2.82799,-0.26834,0.5914
780.014,83.27626,-2.82892,-0.27149,0.59077
780.714,83.3475,-2.82766,-0.26584,0.59014
781.414,83.4187,-2.8276,-0.26969,0.5895
782.114,83.49003,-2.82761,-0.26858,0.58887
782.814,83.5613,-2.82899,-0.27078,0.58824
783.514,83.63271,-2.82891,-0.27185,0.5876
784.214,83.70411,-2.82788,-0.2736,0.58697
784.914,83.7752,-2.82904,-0.27539,0.58634
785.614,83.84635,-2.82935,-0.27846,0.58571
786.314,83.9174,-2.83023,-0.27683,0.58507
787.014,83.98865,-2.83023,-0.27768,0.58444
787.714,84.05995,-2.83023,-0.27963,0.58381
788.414,84.13115,-2.83023,-0.28199,0.58318
789.114,84.20215,-2.83155,-0.28063,0.58254
789.814,84.273,-2.83292,-0.28917,0.58191
790.514,84.3439,-2.83287,-0.28864,0.58128
791.214,84.4149,-2.83287,-0.28756,0.58065
791.914,84.48589,-2.83287,-0.28648,0.58002
792.614,84.55689,-2.83272,-0.28911,0.57939
793.314,84.628,-2.83286,-0.29042,0.57876
794.014,84.69904,-2.83418,-0.29044,0.57813
794.714,84.7701,-2.8328,-0.28983,0.5775
795.414,84.84104,-2.83156,-0.28771,0.57687
796.114,84.91218,-2.83255,-0.29683,0.57624
796.814,84.9835,-2.83287,-0.29769,0.57561
796.914,84.9937,-2.83287,-0.2986,0.57552