File: 01_Data/Pine_Lap_Siding/STA/N2/3K_min/Pine_Lap_Siding_STA_N2_3KData_220323_R1.csv
##Temp./Â°C,Time/min,Mass loss(subtr.2)/mg,DSC(subtr.2)/(mW/mg),Sensit./(uV/mW)
50.196,10.0158,-0.05001,0.01802027,1.04798
50.996,11.2033,-0.05236365,0.04353671,1.04762
51.796,11.6282,-0.05465283,0.05576878,1.04727
52.596,11.9801,-0.05386262,0.0636402,1.04692
53.396,12.3027,-0.05494509,0.07169076,1.04656
54.196,12.61149,-0.05494071,0.07327673,1.04621
54.996,12.91318,-0.05723723,0.07624795,1.04586
55.796,13.21075,-0.05833663,0.07793696,1.04551
56.596,13.5039,-0.05692782,0.07860207,1.04515
57.396,13.79374,-0.05796956,0.08155473,1.0448
58.196,14.08115,-0.06181718,0.08159291,1.04445
58.996,14.36705,-0.05958419,0.0833525,1.0441
59.796,14.6496,-0.05955116,0.08433605,1.04375
60.596,14.92891,-0.06082215,0.08835733,1.0434
61.396,15.2075,-0.06087177,0.08967974,1.04305
62.196,15.4854,-0.06175751,0.09174539,1.0427
62.996,15.7622,-0.06230889,0.09094425,1.04235
63.796,16.03753,-0.06460845,0.09108813,1.042
64.596,16.31147,-0.07475935,0.09181918,1.04165
65.396,16.58285,-0.06722887,0.09234113,1.04131
66.196,16.8527,-0.06339977,0.09371224,1.04096
66.996,17.1213,-0.06495566,0.09695673,1.04061
67.796,17.38809,-0.06625415,0.09532175,1.04026
68.596,17.65462,-0.07184103,0.09469105,1.03992
69.396,17.91966,-0.06808708,0.09661777,1.03957
70.196,18.1841,-0.06356957,0.09661725,1.03922
70.996,18.4491,-0.06228508,0.09616304,1.03888
71.796,18.7162,-0.06723008,0.09510611,1.03853
72.596,18.9852,-0.06983037,0.09325988,1.03819
73.396,19.2541,-0.07321288,0.09486528,1.03784
74.196,19.521,-0.07169257,0.0921581,1.0375
74.996,19.7877,-0.07511703,0.09202171,1.03715
75.796,20.0542,-0.07578,0.09073827,1.03681
76.596,20.32185,-0.07578084,0.08912696,1.03647
77.396,20.59068,-0.07739726,0.0887413,1.03612
78.196,20.8601,-0.07875282,0.08627156,1.03578
78.996,21.13008,-0.07846486,0.08351377,1.03544
79.796,21.40006,-0.07907565,0.0826577,1.03509
80.596,21.66875,-0.08006906,0.08220677,1.03475
81.396,21.93664,-0.08105419,0.08437404,1.03441
82.196,22.20371,-0.07844076,0.08226942,1.03407
82.996,22.47079,-0.07972998,0.07999832,1.03373
83.796,22.73716,-0.07973995,0.07791009,1.03339
84.596,23.00329,-0.07974688,0.08118441,1.03305
85.396,23.26918,-0.08104543,0.0797463,1.03271
86.196,23.53388,-0.08104998,0.0802941,1.03236
86.996,23.7988,-0.07973971,0.08070014,1.03202
87.796,24.06531,-0.08138009,0.07969749,1.03169
88.596,24.33323,-0.08137993,0.07787787,1.03135
89.396,24.60152,-0.08204008,0.07622404,1.03101
90.196,24.86942,-0.08204,0.07551489,1.03067
90.996,25.13607,-0.08347996,0.07491954,1.03033
91.796,25.40292,-0.08173468,0.07385026,1.02999
92.596,25.66998,-0.08299819,0.07240744,1.02965
93.396,25.93662,-0.083358,0.07214328,1.02932
94.196,26.2037,-0.08264807,0.07327122,1.02898
94.996,26.47038,-0.08433991,0.07327377,1.02864
95.796,26.7374,-0.08434397,0.07233867,1.0283
96.596,27.004,-0.0857425,0.07263421,1.02797
97.396,27.2694,-0.08437735,0.07388991,1.02763
98.196,27.53385,-0.08431774,0.07570591,1.02729
98.996,27.7985,-0.08435036,0.07378699,1.02696
99.796,28.0624,-0.08664926,0.07349069,1.02662
100.596,28.32736,-0.08500034,0.07534321,1.02629
101.396,28.5933,-0.08631038,0.07477803,1.02595
102.196,28.8599,-0.08630798,0.07296122,1.02562
102.996,29.1262,-0.08760881,0.07446821,1.02528
103.796,29.3921,-0.08554207,0.07100646,1.02495
104.596,29.65757,-0.08489296,0.07244728,1.02461
105.396,29.92265,-0.08599386,0.07415628,1.02428
106.196,30.18706,-0.08614073,0.07357396,1.02395
106.996,30.45011,-0.08561068,0.07746138,1.02361
107.796,30.7135,-0.08598904,0.07539124,1.02328
108.596,30.97578,-0.08598984,0.07719643,1.02294
109.396,31.23923,-0.08535597,0.07574234,1.02261
110.196,31.5029,-0.08599198,0.07649193,1.02228
110.996,31.7678,-0.08729912,0.07314247,1.02195
111.796,32.03141,-0.08731043,0.07349292,1.02161
112.596,32.29615,-0.08697536,0.07415577,1.02128
113.396,32.5606,-0.08693384,0.07469723,1.02095
114.196,32.82495,-0.0872306,0.07362965,1.02062
114.996,33.0895,-0.08598888,0.07725414,1.02029
115.796,33.35375,-0.08794532,0.07375831,1.01996
116.596,33.61782,-0.08532982,0.07460252,1.01962
117.396,33.88256,-0.08532682,0.0754019,1.01929
118.196,34.147,-0.08658612,0.07430125,1.01896
118.996,34.40977,-0.08792245,0.07617096,1.01863
119.796,34.67283,-0.08664579,0.07606393,1.0183
120.596,34.93645,-0.08594992,0.07496735,1.01797
121.396,35.1993,-0.08763004,0.07404093,1.01764
122.196,35.46284,-0.08795789,0.07570533,1.01731
122.996,35.72619,-0.08665933,0.07485456,1.01698
123.796,35.9918,-0.08725728,0.07273148,1.01665
124.596,36.25678,-0.0873404,0.07606696,1.01633
125.396,36.52341,-0.08862003,0.07614681,1.016
126.196,36.7883,-0.08697044,0.07691964,1.01567
126.996,37.05057,-0.08828367,0.07606045,1.01534
127.796,37.31288,-0.08838976,0.07712484,1.01501
128.596,37.5751,-0.08903347,0.07496142,1.01468
129.396,37.83789,-0.08823217,0.07640795,1.01435
130.196,38.0998,-0.0889514,0.07600321,1.01403
130.996,38.36221,-0.08891855,0.07541489,1.0137
131.796,38.62472,-0.08831477,0.07628407,1.01337
132.596,38.88752,-0.08867009,0.07466756,1.01304
133.396,39.15102,-0.08764995,0.07361148,1.01272
134.196,39.41465,-0.08894942,0.07747601,1.01239
134.996,39.67845,-0.08763045,0.07497246,1.01206
135.796,39.94101,-0.08862162,0.07647068,1.01173
136.596,40.20454,-0.08729967,0.07874135,1.01141
137.396,40.46873,-0.08862166,0.07682613,1.01108
138.196,40.73323,-0.08662316,0.07579364,1.01076
138.996,40.9965,-0.08597166,0.07683578,1.01043
139.796,41.2589,-0.08664627,0.0745553,1.0101
140.596,41.5214,-0.08796131,0.07661197,1.00978
141.396,41.78327,-0.08695379,0.07824335,1.00945
142.196,42.04526,-0.08811084,0.07725833,1.00913
142.996,42.30695,-0.08732221,0.08043127,1.0088
143.796,42.56885,-0.08726841,0.07885574,1.00847
144.596,42.8305,-0.08762082,0.07792719,1.00815
145.396,43.09322,-0.08634888,0.07843705,1.00782
146.196,43.35567,-0.08678675,0.07970117,1.0075
146.996,43.61785,-0.08764438,0.07999458,1.00717
147.796,43.8797,-0.08698366,0.08172445,1.00685
148.596,44.1403,-0.08500001,0.08039071,1.00652
149.396,44.4018,-0.08499781,0.07919686,1.0062
150.196,44.66363,-0.08763085,0.08048904,1.00587
150.996,44.9251,-0.0877504,0.07853424,1.00555
151.796,45.18577,-0.08679551,0.08147992,1.00523
152.596,45.44697,-0.08825865,0.08172269,1.0049
153.396,45.70807,-0.08566001,0.07984264,1.00458
154.196,45.9692,-0.08734566,0.08139524,1.00425
154.996,46.2292,-0.08828907,0.07835437,1.00393
155.796,46.49053,-0.08886542,0.08242521,1.0036
156.596,46.75229,-0.0876402,0.08164734,1.00328
157.396,47.01543,-0.08665028,0.0792627,1.00296
158.196,47.27864,-0.08822433,0.08051322,1.00263
158.996,47.54139,-0.08830661,0.07961593,1.00231
159.796,47.80278,-0.08926335,0.08033649,1.00199
160.596,48.06355,-0.08894904,0.0841188,1.00166
161.396,48.32475,-0.08866202,0.08202636,1.00134
162.196,48.58578,-0.08993058,0.0815348,1.00102
162.996,48.84685,-0.08992995,0.08217081,1.00069
163.796,49.107,-0.08862005,0.08174563,1.00037
164.596,49.36756,-0.09028902,0.08386371,1.00005
165.396,49.62849,-0.08829051,0.08404525,0.99972
166.196,49.8891,-0.08994119,0.08213871,0.9994
166.996,50.15034,-0.09085958,0.08346852,0.99908
167.796,50.41168,-0.08795954,0.08326208,0.99875
168.596,50.6735,-0.08933177,0.08162173,0.99843
169.396,50.93585,-0.08993779,0.08227462,0.99811
170.196,51.1977,-0.09125318,0.08421368,0.99779
170.996,51.45851,-0.08863996,0.08211794,0.99746
171.796,51.71958,-0.09158732,0.08326538,0.99714
172.596,51.98038,-0.08964715,0.08279108,0.99682
173.396,52.2421,-0.09097169,0.08348631,0.99649
174.196,52.503,-0.08958446,0.0847762,0.99617
174.996,52.7628,-0.09091487,0.08555425,0.99585
175.796,53.02239,-0.08934631,0.08470693,0.99553
176.596,53.28236,-0.09224001,0.08348354,0.9952
177.396,53.5433,-0.09355522,0.08684041,0.99488
178.196,53.80445,-0.09361138,0.08490453,0.99456
178.996,54.0647,-0.09355665,0.08341401,0.99424
179.796,54.32428,-0.09082126,0.08405314,0.99391
180.596,54.5838,-0.0915744,0.08349254,0.99359
181.396,54.8438,-0.09356129,0.08419461,0.99327
182.196,55.1045,-0.09486798,0.08487546,0.99295
182.996,55.36555,-0.09356051,0.08729348,0.99262
183.796,55.62585,-0.09227581,0.08619775,0.9923
184.596,55.88661,-0.09488669,0.08533529,0.99198
185.396,56.1479,-0.09355322,0.08718892,0.99166
186.196,56.4092,-0.09349939,0.08701258,0.99133
186.996,56.6704,-0.09390706,0.08759071,0.99101
187.796,56.9309,-0.09551185,0.08682594,0.99069
188.596,57.1902,-0.09587013,0.08569018,0.99037
189.396,57.4491,-0.09553108,0.0858256,0.99004
190.196,57.70916,-0.09627976,0.0864502,0.98972
190.996,57.97047,-0.09793618,0.08998404,0.9894
191.796,58.2321,-0.09596923,0.08839698,0.98908
192.596,58.49436,-0.0960809,0.087016,0.98875
193.396,58.7558,-0.10093,0.08639776,0.98843
194.196,59.01721,-0.09828006,0.08608963,0.98811
194.996,59.27895,-0.09828,0.08851107,0.98779
195.796,59.53924,-0.09762011,0.08735489,0.98746
196.596,59.79846,-0.10024,0.08710345,0.98714
197.396,60.0572,-0.10162,0.0903593,0.98682
198.196,60.31564,-0.10221,0.09033601,0.98649
198.996,60.5735,-0.10126,0.08865728,0.98617
199.796,60.8319,-0.1032,0.08775055,0.98585
200.596,61.0909,-0.10182,0.08847708,0.98552
201.396,61.3522,-0.10362,0.08983055,0.9852
202.196,61.61315,-0.10254,0.09056086,0.98488
202.996,61.8749,-0.10022,0.0895302,0.98455
203.796,62.1363,-0.10386,0.08895907,0.98423
204.596,62.3978,-0.10519,0.08947208,0.98391
205.396,62.65865,-0.10488,0.09064358,0.98358
206.196,62.9185,-0.10494,0.09242822,0.98326
206.996,63.1788,-0.10753,0.09279859,0.98294
207.796,63.43869,-0.10614,0.09165537,0.98261
208.596,63.6979,-0.10781,0.09093879,0.98229
209.396,63.9572,-0.10929,0.09082695,0.98196
210.196,64.21647,-0.10947,0.09119188,0.98164
210.996,64.47631,-0.10946,0.09051121,0.98132
211.796,64.73544,-0.11078,0.09131362,0.98099
212.596,64.9944,-0.11078,0.09154342,0.98067
213.396,65.25381,-0.11174,0.09402196,0.98034
214.196,65.51417,-0.1121,0.09335927,0.98002
214.996,65.77425,-0.11477,0.09247651,0.97969
215.796,66.03363,-0.11473,0.09091933,0.97937
216.596,66.29231,-0.11473,0.09317786,0.97904
217.396,66.5519,-0.11567,0.09548983,0.97872
218.196,66.812,-0.11968,0.09236137,0.97839
218.996,67.0719,-0.11835,0.09408336,0.97807
219.796,67.33113,-0.12065,0.09120371,0.97774
220.596,67.59115,-0.12064,0.09375199,0.97742
221.396,67.85114,-0.12196,0.09106489,0.97709
222.196,68.11155,-0.12495,0.09433503,0.97677
222.996,68.37182,-0.12492,0.09597919,0.97644
223.796,68.63215,-0.12624,0.0970969,0.97612
224.596,68.8913,-0.12685,0.10102,0.97579
225.396,69.14993,-0.12878,0.09643681,0.97546
226.196,69.40918,-0.13106,0.10031,0.97514
226.996,69.66936,-0.13043,0.09745164,0.97481
227.796,69.92961,-0.13447,0.0972891,0.97448
228.596,70.1897,-0.13843,0.09759947,0.97416
229.396,70.44935,-0.1381,0.096975,0.97383
230.196,70.70903,-0.1383,0.09697013,0.9735
230.996,70.96876,-0.14379,0.09777258,0.97317
231.796,71.22999,-0.1438,0.10049,0.97285
232.596,71.49123,-0.14613,0.0966122,0.97252
233.396,71.75244,-0.14991,0.09778027,0.97219
234.196,72.0132,-0.15172,0.0992823,0.97186
234.996,72.27369,-0.15494,0.10003,0.97154
235.796,72.53404,-0.15637,0.10133,0.97121
236.596,72.79414,-0.15758,0.1022,0.97088
237.396,73.05378,-0.16289,0.10314,0.97055
238.196,73.31257,-0.16244,0.10268,0.97022
238.996,73.57212,-0.16552,0.10497,0.96989
239.796,73.832,-0.1688,0.10403,0.96956
240.596,74.09182,-0.17144,0.10099,0.96923
241.396,74.3516,-0.17669,0.10488,0.9689
242.196,74.6113,-0.17663,0.10669,0.96857
242.996,74.8699,-0.17939,0.10746,0.96824
243.796,75.12862,-0.18458,0.10819,0.96791
244.596,75.38824,-0.1892,0.10759,0.96758
245.396,75.64803,-0.19249,0.10948,0.96725
246.196,75.90821,-0.19509,0.10761,0.96692
246.996,76.16877,-0.1977,0.10733,0.96659
247.796,76.42921,-0.20038,0.10704,0.96626
248.596,76.6884,-0.20745,0.10533,0.96593
249.396,76.94773,-0.20993,0.10532,0.96559
250.196,77.2072,-0.21548,0.10238,0.96526
250.996,77.4683,-0.21673,0.09997752,0.96493
251.796,77.72974,-0.22331,0.1,0.9646
252.596,77.9906,-0.22529,0.1001,0.96426
253.396,78.2513,-0.23116,0.09970367,0.96393
254.196,78.5117,-0.23515,0.10193,0.9636
254.996,78.77171,-0.24074,0.09866312,0.96326
255.796,79.03065,-0.24327,0.09800676,0.96293
256.596,79.28901,-0.25021,0.1008,0.9626
257.396,79.54764,-0.25557,0.10071,0.96226
258.196,79.8074,-0.26088,0.10251,0.96193
258.996,80.0678,-0.26615,0.10094,0.96159
259.796,80.3286,-0.26997,0.09850865,0.96126
260.596,80.5891,-0.27692,0.1059,0.96092
261.396,80.84751,-0.28547,0.10478,0.96059
262.196,81.10598,-0.28778,0.10338,0.96025
262.996,81.36522,-0.29438,0.10504,0.95992
263.796,81.62473,-0.30396,0.10762,0.95958
264.596,81.88428,-0.3095,0.10924,0.95924
265.396,82.14335,-0.31758,0.10876,0.95891
266.196,82.40216,-0.32398,0.1084,0.95857
266.996,82.66109,-0.33406,0.10845,0.95823
267.796,82.92004,-0.33892,0.10451,0.95789
268.596,83.1802,-0.34551,0.10587,0.95756
269.396,83.44044,-0.35455,0.10786,0.95722
270.196,83.70101,-0.36525,0.10519,0.95688
270.996,83.96234,-0.37056,0.10547,0.95654
271.796,84.2246,-0.37997,0.11065,0.9562
272.596,84.48592,-0.38803,0.11181,0.95586
273.396,84.74695,-0.39708,0.11324,0.95552
274.196,85.0081,-0.40515,0.11278,0.95518
274.996,85.26941,-0.41687,0.11252,0.95484
275.796,85.53017,-0.42386,0.11448,0.9545
276.596,85.79055,-0.43543,0.11669,0.95416
277.396,86.05057,-0.4443,0.11534,0.95382
278.196,86.30972,-0.45269,0.11674,0.95348
278.996,86.56779,-0.46375,0.11994,0.95313
279.796,86.82505,-0.47258,0.12,0.95279
280.596,87.08233,-0.48743,0.12194,0.95245
281.396,87.34051,-0.49497,0.12451,0.9521
282.196,87.5988,-0.50739,0.12363,0.95176
282.996,87.85763,-0.51812,0.12489,0.95142
283.796,88.11695,-0.5306,0.12536,0.95107
284.596,88.37783,-0.5444,0.12479,0.95073
285.396,88.6395,-0.55836,0.12787,0.95038
286.196,88.90129,-0.57034,0.12911,0.95004
286.996,89.16245,-0.5828,0.12951,0.94969
287.796,89.42285,-0.59504,0.13163,0.94935
288.596,89.6832,-0.61144,0.13277,0.949
289.396,89.94221,-0.62272,0.13936,0.94866
290.196,90.20124,-0.63724,0.13911,0.94831
290.996,90.46038,-0.65267,0.14131,0.94796
291.796,90.7204,-0.66597,0.14149,0.94761
292.596,90.9804,-0.68077,0.14068,0.94727
293.396,91.24244,-0.69546,0.14267,0.94692
294.196,91.5046,-0.71156,0.14371,0.94657
294.996,91.76616,-0.72702,0.14348,0.94622
295.796,92.0268,-0.74124,0.14914,0.94587
296.596,92.2867,-0.75986,0.14881,0.94552
297.396,92.54635,-0.77612,0.15278,0.94517
298.196,92.80566,-0.79387,0.15261,0.94482
298.996,93.066,-0.8074,0.15274,0.94447
299.796,93.32719,-0.8266,0.15321,0.94412
300.596,93.58855,-0.8442,0.1569,0.94376
301.396,93.8506,-0.86098,0.15926,0.94341
302.196,94.11225,-0.87871,0.158,0.94306
302.996,94.3732,-0.89705,0.16205,0.94271
303.796,94.63506,-0.91771,0.16191,0.94235
304.596,94.89624,-0.93514,0.1634,0.942
305.396,95.15746,-0.9535,0.16637,0.94165
306.196,95.41728,-0.97334,0.16709,0.94129
306.996,95.67563,-0.99389,0.16866,0.94094
307.796,95.9338,-1.01024,0.16914,0.94058
308.596,96.19198,-1.03243,0.17146,0.94022
309.396,96.45129,-1.05066,0.1726,0.93987
310.196,96.71092,-1.07,0.17209,0.93951
310.996,96.97194,-1.0918,0.17225,0.93915
311.796,97.2343,-1.11295,0.1709,0.9388
312.596,97.4974,-1.13532,0.17331,0.93844
313.396,97.75997,-1.15572,0.17525,0.93808
314.196,98.02264,-1.17737,0.17744,0.93772
314.996,98.2841,-1.19798,0.17964,0.93736
315.796,98.5451,-1.21998,0.18286,0.937
316.596,98.805,-1.24106,0.18318,0.93664
317.396,99.06358,-1.26331,0.18614,0.93628
318.196,99.32223,-1.28688,0.18842,0.93592
318.996,99.58176,-1.30782,0.18842,0.93556
319.796,99.84317,-1.33108,0.18951,0.93519
320.596,100.106,-1.35438,0.19022,0.93483
321.396,100.368,-1.37969,0.19179,0.93447
322.196,100.632,-1.40491,0.19115,0.93411
322.996,100.894,-1.42601,0.19499,0.93374
323.796,101.157,-1.45303,0.1964,0.93338
324.596,101.42,-1.47495,0.19788,0.93301
325.396,101.683,-1.49728,0.19918,0.93265
326.196,101.946,-1.52508,0.20292,0.93228
326.996,102.209,-1.55011,0.20391,0.93191
327.796,102.469,-1.57233,0.20719,0.93155
328.596,102.73,-1.60036,0.20999,0.93118
329.396,102.991,-1.62517,0.21274,0.93081
330.196,103.252,-1.6463,0.21397,0.93044
330.996,103.513,-1.67756,0.2184,0.93008
331.796,103.773,-1.70442,0.22333,0.92971
332.596,104.034,-1.73083,0.22809,0.92934
333.396,104.2957,-1.76236,0.22975,0.92897
334.196,104.558,-1.78775,0.23304,0.9286
334.996,104.819,-1.81096,0.23333,0.92822
335.796,105.081,-1.8416,0.24031,0.92785
336.596,105.343,-1.86701,0.24316,0.92748
337.396,105.605,-1.89411,0.24595,0.92711
338.196,105.867,-1.92949,0.24619,0.92673
338.996,106.129,-1.95714,0.25006,0.92636
339.796,106.39,-1.98899,0.25009,0.92599
340.596,106.65,-2.01797,0.25133,0.92561
341.396,106.911,-2.0505,0.25519,0.92524
342.196,107.173,-2.08491,0.25705,0.92486
342.996,107.436,-2.11258,0.25453,0.92448
343.796,107.698,-2.14402,0.25117,0.92411
344.596,107.961,-2.17642,0.25554,0.92373
345.396,108.224,-2.20899,0.25589,0.92335
346.196,108.487,-2.23819,0.25119,0.92297
346.996,108.75,-2.27123,0.24853,0.92259
347.796,109.012,-2.30168,0.24561,0.92221
348.596,109.276,-2.33199,0.24071,0.92183
349.396,109.539,-2.36116,0.23274,0.92145
350.196,109.801,-2.38963,0.22558,0.92107
350.996,110.063,-2.42117,0.21903,0.92069
351.796,110.324,-2.44646,0.21003,0.92031
352.596,110.584,-2.47808,0.19986,0.91992
353.396,110.845,-2.49996,0.19148,0.91954
354.196,111.106,-2.5236,0.17792,0.91916
354.996,111.367,-2.54139,0.16514,0.91877
355.796,111.629,-2.55858,0.1506,0.91839
356.596,111.89,-2.57854,0.13685,0.918
357.396,112.152,-2.59556,0.12225,0.91761
358.196,112.415,-2.61307,0.10473,0.91723
358.996,112.678,-2.62847,0.09118323,0.91684
359.796,112.94,-2.6409,0.07816558,0.91645
360.596,113.2023,-2.65691,0.06888221,0.91606
361.396,113.464,-2.66728,0.05722678,0.91567
362.196,113.727,-2.67842,0.04761343,0.91528
362.996,113.989,-2.68538,0.03863942,0.91489
363.796,114.249,-2.69048,0.03139454,0.9145
364.596,114.51,-2.6982,0.02950259,0.91411
365.396,114.772,-2.70504,0.02290457,0.91372
366.196,115.034,-2.70716,0.01552682,0.91333
366.996,115.298,-2.71148,0.01035822,0.91293
367.796,115.56,-2.71506,0.007752898,0.91254
368.596,115.822,-2.71682,0.00459041,0.91214
369.396,116.0819,-2.71943,0.004325788,0.91175
370.196,116.343,-2.72153,0.000472706,0.91135
370.996,116.604,-2.72466,-0.0002106159,0.91096
371.796,116.866,-2.72471,0.0006222477,0.91056
372.596,117.128,-2.72731,-0.00128064,0.91016
373.396,117.391,-2.73408,-0.001738844,0.90976
374.196,117.654,-2.73396,-0.003621969,0.90936
374.996,117.918,-2.73678,-0.004148086,0.90896
375.796,118.182,-2.74081,-0.00412489,0.90856
376.596,118.445,-2.74047,-0.00684965,0.90816
377.396,118.709,-2.74352,-0.00545652,0.90776
378.196,118.971,-2.74589,-0.009400759,0.90736
378.996,119.233,-2.74752,-0.009771842,0.90696
379.796,119.494,-2.75344,-0.0105838,0.90655
380.596,119.755,-2.75278,-0.01374569,0.90615
381.396,120.016,-2.75805,-0.01063212,0.90575
382.196,120.278,-2.75775,-0.01502553,0.90534
382.996,120.539,-2.76122,-0.01277948,0.90494
383.796,120.8005,-2.76201,-0.01500642,0.90453
384.596,121.064,-2.76366,-0.0155406,0.90412
385.396,121.328,-2.76726,-0.01595121,0.90371
386.196,121.591,-2.76957,-0.01645234,0.90331
386.996,121.8533,-2.77089,-0.01916645,0.9029
387.796,122.115,-2.7722,-0.02007478,0.90249
388.596,122.3773,-2.77483,-0.02100051,0.90208
389.396,122.64,-2.77761,-0.0222232,0.90167
390.196,122.9037,-2.7801,-0.02522408,0.90125
390.996,123.167,-2.78144,-0.02467365,0.90084
391.796,123.429,-2.78307,-0.02304864,0.90043
392.596,123.69,-2.78729,-0.02547095,0.90002
393.396,123.952,-2.78803,-0.02721292,0.8996
394.196,124.2144,-2.79187,-0.026967,0.89919
394.996,124.477,-2.79317,-0.02361672,0.89877
395.796,124.74,-2.79458,-0.02798126,0.89835
396.596,125.0026,-2.79737,-0.02919533,0.89794
397.396,125.265,-2.79852,-0.03201979,0.89752
398.196,125.526,-2.80214,-0.03054135,0.8971
398.996,125.788,-2.8051,-0.03236033,0.89668
399.796,126.051,-2.80551,-0.03275806,0.89626
400.596,126.3132,-2.8102,-0.03229689,0.89584
401.396,126.5761,-2.81263,-0.03583552,0.89542
402.196,126.839,-2.81342,-0.0380748,0.895
402.996,127.104,-2.81428,-0.03806235,0.89458
403.796,127.369,-2.81891,-0.03941888,0.89415
404.596,127.636,-2.82057,-0.03835046,0.89373
405.396,127.9016,-2.8232,-0.0364781,0.89331
406.196,128.167,-2.8258,-0.037755,0.89288
406.996,128.4299,-2.82587,-0.03954138,0.89246
407.796,128.692,-2.82873,-0.03869417,0.89203
408.596,128.953,-2.8298,-0.03740327,0.8916
409.396,129.215,-2.83204,-0.04019712,0.89117
410.196,129.478,-2.8336,-0.038576,0.89075
410.996,129.74,-2.8377,-0.03938006,0.89032
411.796,130.004,-2.83835,-0.03969582,0.88989
412.596,130.267,-2.83966,-0.04129819,0.88945
413.396,130.53,-2.8423,-0.04341892,0.88902
414.196,130.793,-2.84361,-0.04130021,0.88859
414.996,131.056,-2.84601,-0.04121668,0.88816
415.796,131.32,-2.84769,-0.04119827,0.88772
416.596,131.585,-2.84831,-0.04517398,0.88729
417.396,131.851,-2.85224,-0.04463222,0.88686
418.196,132.115,-2.85282,-0.04312266,0.88642
418.996,132.38,-2.85282,-0.04407976,0.88598
419.796,132.644,-2.85683,-0.04503297,0.88555
420.596,132.907,-2.8578,-0.04415843,0.88511
421.396,133.17,-2.86061,-0.04149255,0.88467
422.196,133.434,-2.8636,-0.04072866,0.88423
422.996,133.698,-2.8662,-0.0384134,0.88379
423.796,133.962,-2.8662,-0.03609134,0.88335
424.596,134.227,-2.866,-0.04123778,0.88291
425.396,134.491,-2.8697,-0.04223423,0.88246
426.196,134.755,-2.87223,-0.03961752,0.88202
426.996,135.017,-2.86966,-0.03920032,0.88158
427.796,135.279,-2.87332,-0.04010201,0.88113
428.596,135.542,-2.87524,-0.03487994,0.88069
429.396,135.8056,-2.87891,-0.03773611,0.88024
430.196,136.071,-2.87959,-0.0349593,0.8798
430.996,136.335,-2.88189,-0.03591021,0.87935
431.796,136.6002,-2.88451,-0.03520713,0.8789
432.596,136.866,-2.88387,-0.03566716,0.87845
433.396,137.13,-2.88712,-0.03037076,0.878
434.196,137.394,-2.88979,-0.03227327,0.87755
434.996,137.657,-2.8879,-0.03469903,0.8771
435.796,137.922,-2.89167,-0.03196289,0.87665
436.596,138.187,-2.89186,-0.03192813,0.87619
437.396,138.4517,-2.89461,-0.02755903,0.87574
438.196,138.716,-2.89461,-0.02806448,0.87529
438.996,138.981,-2.89856,-0.02778961,0.87483
439.796,139.244,-2.89858,-0.02585096,0.87438
440.596,139.507,-2.90248,-0.02693335,0.87392
441.396,139.771,-2.90251,-0.02581845,0.87346
442.196,140.035,-2.9035,-0.02566288,0.873
442.996,140.299,-2.90316,-0.02487861,0.87254
443.796,140.564,-2.90448,-0.02442477,0.87208
444.596,140.8291,-2.90473,-0.0235507,0.87162
445.396,141.094,-2.9047,-0.02210246,0.87116
446.196,141.359,-2.90763,-0.02383253,0.8707
446.996,141.625,-2.90744,-0.02459393,0.87024
447.796,141.889,-2.91008,-0.02516282,0.86977
448.596,142.154,-2.91139,-0.02145369,0.86931
449.396,142.418,-2.91398,-0.02105835,0.86885
450.196,142.683,-2.91471,-0.02090446,0.86838
450.996,142.949,-2.91501,-0.02502292,0.86791
451.796,143.215,-2.91535,-0.02427902,0.86745
452.596,143.48,-2.91939,-0.02316903,0.86698
453.396,143.744,-2.91807,-0.0243903,0.86651
454.196,144.01,-2.9194,-0.02359578,0.86604
454.996,144.275,-2.92101,-0.02099455,0.86557
455.796,144.54,-2.92203,-0.01939949,0.8651
456.596,144.8052,-2.92073,-0.01470634,0.86462
457.396,145.069,-2.92137,-0.01718818,0.86415
458.196,145.333,-2.92533,-0.01726905,0.86368
458.996,145.596,-2.92499,-0.0139442,0.8632
459.796,145.86,-2.92555,-0.01422589,0.86273
460.596,146.124,-2.92748,-0.01035309,0.86225
461.396,146.39,-2.92662,-0.01198036,0.86177
462.196,146.656,-2.92973,-0.01198851,0.8613
462.996,146.922,-2.93096,-0.01379599,0.86082
463.796,147.189,-2.93158,-0.01131326,0.86034
464.596,147.4542,-2.93312,-0.01055576,0.85986
465.396,147.719,-2.93422,-0.009571082,0.85938
466.196,147.985,-2.93345,-0.009023761,0.8589
466.996,148.251,-2.93496,-0.01188428,0.85841
467.796,148.517,-2.93754,-0.01158513,0.85793
468.596,148.783,-2.9365,-0.01364768,0.85745
469.396,149.049,-2.93753,-0.01384199,0.85696
470.196,149.314,-2.93717,-0.01441519,0.85647
470.996,149.5805,-2.93789,-0.01457295,0.85599
471.796,149.847,-2.94193,-0.01275228,0.8555
472.596,150.113,-2.94051,-0.01278476,0.85501
473.396,150.377,-2.9407,-0.01238183,0.85452
474.196,150.642,-2.94194,-0.01226824,0.85403
474.996,150.904,-2.9422,-0.01104712,0.85354
475.796,151.167,-2.94321,-0.01383713,0.85305
476.596,151.431,-2.94444,-0.01587583,0.85256
477.396,151.697,-2.94587,-0.01929661,0.85207
478.196,151.965,-2.94583,-0.02190701,0.85157
478.996,152.233,-2.94717,-0.02660455,0.85108
479.796,152.5,-2.94424,-0.02960734,0.85058
480.596,152.767,-2.94912,-0.02592888,0.85008
481.396,153.032,-2.94912,-0.02689143,0.84959
482.196,153.296,-2.95077,-0.02714024,0.84909
482.996,153.56,-2.95243,-0.02796467,0.84859
483.796,153.825,-2.95133,-0.02975037,0.84809
484.596,154.091,-2.9544,-0.02909192,0.84759
485.396,154.358,-2.95843,-0.02892133,0.84709
486.196,154.6263,-2.95551,-0.0309855,0.84659
486.996,154.893,-2.95552,-0.03060098,0.84608
487.796,155.159,-2.95821,-0.02859745,0.84558
488.596,155.425,-2.95943,-0.02905573,0.84507
489.396,155.691,-2.95877,-0.02773553,0.84457
490.196,155.959,-2.95811,-0.02994658,0.84406
490.996,156.226,-2.95947,-0.03117324,0.84356
491.796,156.493,-2.96098,-0.03072026,0.84305
492.596,156.758,-2.96041,-0.02961463,0.84254
493.396,157.024,-2.96175,-0.02889926,0.84203
494.196,157.289,-2.96301,-0.0314333,0.84152
494.996,157.554,-2.96311,-0.03017278,0.84101
495.796,157.82,-2.9624,-0.02966767,0.84049
496.596,158.086,-2.96515,-0.03265993,0.83998
497.396,158.3534,-2.96673,-0.03388291,0.83947
498.196,158.62,-2.96712,-0.0343992,0.83895
498.996,158.887,-2.96804,-0.03388077,0.83844
499.796,159.154,-2.96864,-0.03466327,0.83792
500.596,159.4222,-2.97,-0.03607749,0.8374
501.396,159.69,-2.96864,-0.04387847,0.83688
502.196,159.956,-2.97144,-0.04482683,0.83637
502.996,160.222,-2.97202,-0.04845199,0.83585
503.796,160.4874,-2.97259,-0.05126462,0.83533
504.596,160.754,-2.97393,-0.05242256,0.8348
505.396,161.021,-2.97651,-0.05120432,0.83428
506.196,161.287,-2.97427,-0.05094027,0.83376
506.996,161.552,-2.97506,-0.05319161,0.83323
507.796,161.817,-2.97693,-0.05328107,0.83271
508.596,162.0838,-2.97754,-0.04965945,0.83218
509.396,162.3507,-2.97885,-0.0514707,0.83166
510.196,162.618,-2.97762,-0.05068282,0.83113
510.996,162.885,-2.98356,-0.05047347,0.8306
511.796,163.152,-2.98237,-0.0487561,0.83007
512.596,163.416,-2.97962,-0.05144847,0.82954
513.396,163.679,-2.97893,-0.0495946,0.82901
514.196,163.942,-2.98167,-0.05147621,0.82848
514.996,164.206,-2.98192,-0.04857023,0.82795
515.796,164.472,-2.98257,-0.04944642,0.82741
516.596,164.74,-2.98258,-0.04941052,0.82688
517.396,165.008,-2.98159,-0.04972115,0.82634
518.196,165.277,-2.98285,-0.04793958,0.82581
518.996,165.546,-2.9829,-0.04948698,0.82527
519.796,165.8153,-2.98521,-0.04968414,0.82473
520.596,166.084,-2.98785,-0.04846429,0.82419
521.396,166.352,-2.98666,-0.05073152,0.82365
522.196,166.618,-2.98784,-0.0494874,0.82311
522.996,166.883,-2.99048,-0.04893167,0.82257
523.796,167.147,-2.99114,-0.04704178,0.82203
524.596,167.413,-2.99242,-0.04624853,0.82149
525.396,167.679,-2.99149,-0.04714245,0.82094
526.196,167.947,-2.99295,-0.04796693,0.8204
526.996,168.215,-2.99212,-0.04701963,0.81985
527.796,168.484,-2.99475,-0.04543428,0.81931
528.596,168.751,-2.99377,-0.04942789,0.81876
529.396,169.017,-2.99344,-0.04880748,0.81821
530.196,169.283,-2.99344,-0.04781909,0.81766
530.996,169.549,-2.99486,-0.04692199,0.81711
531.796,169.815,-2.9965,-0.04454954,0.81656
532.596,170.081,-2.99782,-0.04630173,0.81601
533.396,170.347,-2.99815,-0.04549898,0.81546
534.196,170.615,-2.99782,-0.04889682,0.81491
534.996,170.884,-2.99583,-0.04841361,0.81435
535.796,171.153,-3.00105,-0.04742631,0.8138
536.596,171.421,-3.00088,-0.04779488,0.81324
537.396,171.688,-2.99946,-0.04629116,0.81268
538.196,171.9543,-2.99961,-0.04584712,0.81213
538.996,172.221,-3.00079,-0.05118008,0.81157
539.796,172.489,-3.00477,-0.04837583,0.81101
540.596,172.757,-3.00606,-0.04585205,0.81045
541.396,173.025,-3.00399,-0.04728259,0.80989
542.196,173.292,-3.0021,-0.0486783,0.80933
542.996,173.559,-3.00601,-0.04641591,0.80876
543.796,173.827,-3.00605,-0.04718198,0.8082
544.596,174.0947,-3.00664,-0.04679099,0.80763
545.396,174.361,-3.00639,-0.04741774,0.80707
546.196,174.628,-3.00665,-0.04616199,0.8065
546.996,174.8953,-3.00813,-0.04427406,0.80594
547.796,175.164,-3.01003,-0.04916263,0.80537
548.596,175.432,-3.00902,-0.04668511,0.8048
549.396,175.702,-3.01006,-0.04787157,0.80423
550.196,175.971,-3.01165,-0.04564267,0.80366
550.996,176.2392,-3.00915,-0.04400007,0.80309
551.796,176.506,-3.01318,-0.04554873,0.80251
552.596,176.772,-3.01155,-0.04443546,0.80194
553.396,177.037,-3.01525,-0.04468022,0.80137
554.196,177.303,-3.01252,-0.04364614,0.80079
554.996,177.57,-3.01647,-0.04192085,0.80022
555.796,177.8374,-3.01647,-0.0457401,0.79964
556.596,178.104,-3.01631,-0.03831151,0.79906
557.396,178.37,-3.01396,-0.04215163,0.79848
558.196,178.637,-3.01582,-0.04377518,0.79791
558.996,178.9057,-3.01788,-0.04040291,0.79733
559.796,179.174,-3.01646,-0.04370946,0.79674
560.596,179.443,-3.01674,-0.04438886,0.79616
561.396,179.713,-3.01779,-0.04339936,0.79558
562.196,179.982,-3.02302,-0.03687496,0.795
562.996,180.251,-3.02042,-0.04263393,0.79441
563.796,180.519,-3.0191,-0.04383204,0.79383
564.596,180.7867,-3.02308,-0.04208576,0.79324
565.396,181.054,-3.02042,-0.04060507,0.79265
566.196,181.323,-3.02127,-0.03768459,0.79207
566.996,181.592,-3.02014,-0.04305925,0.79148
567.796,181.862,-3.02382,-0.04426703,0.79089
568.596,182.1315,-3.02247,-0.04262754,0.7903
569.396,182.4008,-3.02224,-0.04340183,0.7897
570.196,182.668,-3.02217,-0.04081635,0.78911
570.996,182.936,-3.02303,-0.036874,0.78852
571.796,183.203,-3.02122,-0.03917468,0.78793
572.596,183.471,-3.02397,-0.03827828,0.78733
573.396,183.74,-3.02316,-0.03691686,0.78674
574.196,184.008,-3.02444,-0.03882038,0.78614
574.996,184.278,-3.02831,-0.03256602,0.78554
575.796,184.547,-3.02579,-0.03718247,0.78494
576.596,184.815,-3.02777,-0.03591437,0.78434
577.396,185.082,-3.02787,-0.02986,0.78374
578.196,185.349,-3.02788,-0.0270148,0.78314
578.996,185.617,-3.03183,-0.02900417,0.78254
579.796,185.8851,-3.03089,-0.02736956,0.78194
580.596,186.154,-3.03348,-0.02948174,0.78134
581.396,186.423,-3.03476,-0.02705202,0.78073
582.196,186.693,-3.03471,-0.03023793,0.78013
582.996,186.962,-3.03459,-0.02456279,0.77952
583.796,187.2303,-3.03766,-0.02497785,0.77891
584.596,187.497,-3.03632,-0.0228029,0.77831
585.396,187.7636,-3.03764,-0.0246199,0.7777
586.196,188.03,-3.03896,-0.0233657,0.77709
586.996,188.298,-3.03896,-0.01997695,0.77648
587.796,188.568,-3.03764,-0.02466789,0.77587
588.596,188.839,-3.0415,-0.01891637,0.77525
589.396,189.109,-3.03933,-0.01630516,0.77464
590.196,189.379,-3.04045,-0.01659406,0.77403
590.996,189.647,-3.04246,-0.01551566,0.77341
591.796,189.916,-3.04785,-0.01297923,0.7728
592.596,190.186,-3.04499,-0.01165283,0.77218
593.396,190.4556,-3.04565,-0.008770774,0.77156
594.196,190.724,-3.04565,-0.0083181,0.77095
594.996,190.992,-3.04762,-0.002550666,0.77033
595.796,191.261,-3.04795,-0.00189455,0.76971
596.596,191.529,-3.0483,-0.0005582524,0.76909
597.396,191.796,-3.04752,0.000128355,0.76847
598.196,192.063,-3.04894,0.002876965,0.76784
598.996,192.33,-3.04793,0.005789741,0.76722
599.796,192.599,-3.05256,0.003959291,0.7666
600.596,192.868,-3.05486,0.008399459,0.76597
601.396,193.138,-3.05485,0.009003351,0.76535
602.196,193.407,-3.05606,0.01092633,0.76472
602.996,193.677,-3.0574,0.01392235,0.76409
603.796,193.9455,-3.05866,0.01394188,0.76346
604.596,194.214,-3.05974,0.02113262,0.76284
605.396,194.482,-3.06341,0.01812977,0.76221
606.196,194.75,-3.06374,0.0230715,0.76158
606.996,195.018,-3.06573,0.02444312,0.76094
607.796,195.2871,-3.06712,0.0255478,0.76031
608.596,195.557,-3.06737,0.02970342,0.75968
609.396,195.827,-3.06999,0.03258431,0.75904
610.196,196.097,-3.07263,0.03723491,0.75841
610.996,196.367,-3.07264,0.03493039,0.75777
611.796,196.637,-3.07526,0.04131028,0.75714
612.596,196.908,-3.07788,0.04516886,0.7565
613.396,197.178,-3.08089,0.04336302,0.75586
614.196,197.447,-3.07988,0.04257009,0.75522
614.996,197.717,-3.08131,0.04980707,0.75458
615.796,197.986,-3.08492,0.04956212,0.75394
616.596,198.256,-3.08395,0.05090759,0.7533
617.396,198.523,-3.08523,0.05191699,0.75266
618.196,198.791,-3.09062,0.05580515,0.75202
618.996,199.06,-3.09154,0.05540717,0.75137
619.796,199.332,-3.09325,0.0596134,0.75073
620.596,199.604,-3.09456,0.06035507,0.75008
621.396,199.876,-3.09735,0.06173727,0.74943
622.196,200.1477,-3.0965,0.06140487,0.74879
622.996,200.419,-3.09786,0.06219421,0.74814
623.796,200.687,-3.10336,0.06880956,0.74749
624.596,200.955,-3.10535,0.06766293,0.74684
625.396,201.2212,-3.10524,0.06785335,0.74619
626.196,201.49,-3.10751,0.06872862,0.74554
626.996,201.76,-3.10955,0.07108817,0.74489
627.796,202.03,-3.11178,0.06903512,0.74423
628.596,202.299,-3.11442,0.07286083,0.74358
629.396,202.566,-3.11474,0.07394824,0.74292
630.196,202.833,-3.11609,0.07313722,0.74227
630.996,203.102,-3.11675,0.0689065,0.74161
631.796,203.374,-3.12076,0.06713106,0.74096
632.596,203.646,-3.1233,0.06790742,0.7403
633.396,203.915,-3.12594,0.05963254,0.73964
634.196,204.183,-3.12462,0.0587442,0.73898
634.996,204.451,-3.12734,0.06117716,0.73832
635.796,204.72,-3.1292,0.05753928,0.73766
636.596,204.988,-3.12788,0.05181771,0.737
637.396,205.2559,-3.13252,0.05433045,0.73633
638.196,205.523,-3.13548,0.04921849,0.73567
638.996,205.792,-3.13534,0.0480988,0.73501
639.796,206.062,-3.14076,0.04731619,0.73434
640.596,206.3317,-3.13943,0.04793922,0.73367
641.396,206.602,-3.14015,0.04425162,0.73301
642.196,206.873,-3.14206,0.04459254,0.73234
642.996,207.1429,-3.14283,0.04193174,0.73167
643.796,207.414,-3.14371,0.03851079,0.731
644.596,207.686,-3.14533,0.03813401,0.73033
645.396,207.956,-3.14572,0.03428016,0.72966
646.196,208.2254,-3.14991,0.02695919,0.72899
646.996,208.495,-3.15128,0.02407324,0.72832
647.796,208.766,-3.15259,0.01427557,0.72764
648.596,209.036,-3.15261,0.01071426,0.72697
649.396,209.306,-3.15668,0.00238805,0.7263
650.196,209.577,-3.15409,-0.006821418,0.72562
650.996,209.847,-3.15615,-0.01611391,0.72494
651.796,210.116,-3.15917,-0.02998518,0.72427
652.596,210.383,-3.15786,-0.03757945,0.72359
653.396,210.65,-3.15676,-0.0334808,0.72291
654.196,210.917,-3.15818,-0.03442158,0.72223
654.996,211.184,-3.15918,-0.0379128,0.72155
655.796,211.453,-3.15687,-0.0363257,0.72087
656.596,211.723,-3.1588,-0.03628166,0.72019
657.396,211.995,-3.15753,-0.03406003,0.71951
658.196,212.266,-3.15881,-0.03385839,0.71882
658.996,212.538,-3.15949,-0.03238256,0.71814
659.796,212.809,-3.15864,-0.03418227,0.71745
660.596,213.079,-3.15984,-0.03295864,0.71677
661.396,213.349,-3.15852,-0.03194413,0.71608
662.196,213.618,-3.15962,-0.03344231,0.71539
662.996,213.887,-3.16082,-0.0328956,0.71471
663.796,214.156,-3.16227,-0.02929704,0.71402
664.596,214.428,-3.16279,-0.02925463,0.71333
665.396,214.701,-3.16277,-0.02961198,0.71264
666.196,214.972,-3.16213,-0.02974288,0.71195
666.996,215.242,-3.16073,-0.03188505,0.71125
667.796,215.51,-3.16241,-0.03044786,0.71056
668.596,215.779,-3.16248,-0.02916533,0.70987
669.396,216.048,-3.16309,-0.02799323,0.70918
670.196,216.318,-3.1618,-0.02799073,0.70848
670.996,216.587,-3.16304,-0.02707253,0.70779
671.796,216.8562,-3.1651,-0.02761277,0.70709
672.596,217.126,-3.1651,-0.02839398,0.70639
673.396,217.397,-3.16437,-0.02909524,0.70569
674.196,217.668,-3.16452,-0.03024753,0.705
674.996,217.939,-3.16605,-0.03004609,0.7043
675.796,218.21,-3.16741,-0.03158973,0.7036
676.596,218.4796,-3.1674,-0.03239607,0.7029
677.396,218.75,-3.16608,-0.0307501,0.70219
678.196,219.0202,-3.16806,-0.0316074,0.70149
678.996,219.2907,-3.16787,-0.03475121,0.70079
679.796,219.561,-3.16906,-0.03707296,0.70009
680.596,219.831,-3.16641,-0.03699273,0.69938
681.396,220.101,-3.16915,-0.03485677,0.69868
682.196,220.3717,-3.16796,-0.03551351,0.69797
682.996,220.643,-3.16809,-0.0340823,0.69726
683.796,220.915,-3.16938,-0.03233298,0.69656
684.596,221.186,-3.17069,-0.03934911,0.69585
685.396,221.4558,-3.16897,-0.03647279,0.69514
686.196,221.725,-3.17034,-0.03307387,0.69443
686.996,221.995,-3.16902,-0.03514186,0.69372
687.796,222.265,-3.17069,-0.03846366,0.69301
688.596,222.5365,-3.17069,-0.03407069,0.6923
689.396,222.808,-3.17134,-0.03448658,0.69159
690.196,223.078,-3.17003,-0.03298097,0.69087
690.996,223.347,-3.17109,-0.03758198,0.69016
691.796,223.616,-3.1697,-0.03641498,0.68945
692.596,223.886,-3.17037,-0.03386999,0.68873
693.396,224.155,-3.17082,-0.03467145,0.68801
694.196,224.427,-3.16915,-0.03843451,0.6873
694.996,224.697,-3.17075,-0.03674427,0.68658
695.796,224.967,-3.17244,-0.04008209,0.68586
696.596,225.236,-3.17387,-0.03570388,0.68514
697.396,225.507,-3.17257,-0.03864718,0.68442
698.196,225.777,-3.17387,-0.04282527,0.6837
698.996,226.047,-3.17256,-0.04786861,0.68298
699.796,226.317,-3.17485,-0.04522429,0.68226
700.596,226.587,-3.17354,-0.04774147,0.68154
701.396,226.856,-3.17608,-0.05143903,0.68082
702.196,227.126,-3.17552,-0.05016055,0.68009
702.996,227.396,-3.17552,-0.04978008,0.67937
703.796,227.668,-3.17685,-0.04833204,0.67865
704.596,227.939,-3.178,-0.05103474,0.67792
705.396,228.2109,-3.17388,-0.05299557,0.67719
706.196,228.483,-3.1765,-0.04939403,0.67647
706.996,228.7549,-3.17519,-0.05163574,0.67574
707.796,229.027,-3.17686,-0.05671235,0.67501
708.596,229.298,-3.18044,-0.05655286,0.67428
709.396,229.568,-3.18042,-0.05900636,0.67355
710.196,229.8373,-3.17832,-0.06389665,0.67282
710.996,230.1074,-3.17965,-0.05960373,0.67209
711.796,230.378,-3.1796,-0.06425925,0.67136
712.596,230.649,-3.17837,-0.06213397,0.67063
713.396,230.919,-3.18099,-0.06391613,0.6699
714.196,231.19,-3.17836,-0.06429913,0.66916
714.996,231.4617,-3.17847,-0.06669518,0.66843
715.796,231.7331,-3.17707,-0.0656559,0.66769
716.596,232.004,-3.18142,-0.06583809,0.66696
717.396,232.274,-3.18012,-0.06963129,0.66622
718.196,232.544,-3.1788,-0.06990889,0.66549
718.996,232.814,-3.17888,-0.06926674,0.66475
719.796,233.084,-3.182,-0.07368327,0.66401
720.596,233.355,-3.17445,-0.07516936,0.66327
721.396,233.626,-3.17719,-0.07529826,0.66253
722.196,233.8964,-3.17629,-0.07945055,0.66179
722.996,234.168,-3.17749,-0.07874553,0.66105
723.796,234.439,-3.18013,-0.07676048,0.66031
724.596,234.71,-3.17913,-0.07673259,0.65957
725.396,234.98,-3.18178,-0.08291217,0.65883
726.196,235.249,-3.17913,-0.07776478,0.65808
726.996,235.518,-3.1799,-0.08061757,0.65734
727.796,235.788,-3.18045,-0.08175204,0.6566
728.596,236.058,-3.17809,-0.08325023,0.65585
729.396,236.329,-3.18152,-0.08065948,0.65511
730.196,236.601,-3.18044,-0.08261675,0.65436
730.996,236.871,-3.17773,-0.08083385,0.65361
731.796,237.1409,-3.18144,-0.08037806,0.65287
732.596,237.41,-3.18011,-0.08261313,0.65212
733.396,237.68,-3.18092,-0.08392277,0.65137
734.196,237.951,-3.18451,-0.08038352,0.65062
734.996,238.2221,-3.18429,-0.08458025,0.64987
735.796,238.494,-3.18296,-0.0870659,0.64912
736.596,238.767,-3.1856,-0.08973506,0.64837
737.396,239.041,-3.1842,-0.08954665,0.64762
738.196,239.315,-3.18429,-0.0895666,0.64686
738.996,239.588,-3.18556,-0.09057418,0.64611
739.796,239.859,-3.18502,-0.09012732,0.64536
740.596,240.13,-3.1868,-0.09166747,0.6446
741.396,240.402,-3.18564,-0.08855423,0.64385
742.196,240.672,-3.18353,-0.09297374,0.6431
742.996,240.942,-3.18231,-0.09272733,0.64234
743.796,241.211,-3.18683,-0.09824423,0.64158
744.596,241.4809,-3.18638,-0.1005,0.64083
745.396,241.752,-3.18415,-0.09585747,0.64007
746.196,242.022,-3.1865,-0.09882754,0.63931
746.996,242.293,-3.18634,-0.10266,0.63855
747.796,242.564,-3.18563,-0.10323,0.63779
748.596,242.836,-3.1877,-0.09996942,0.63703
749.396,243.108,-3.18638,-0.1034,0.63627
750.196,243.381,-3.18768,-0.10291,0.63551
750.996,243.6541,-3.18637,-0.10461,0.63475
751.796,243.9275,-3.18745,-0.10741,0.63399
752.596,244.201,-3.18539,-0.10722,0.63323
753.396,244.473,-3.18716,-0.10747,0.63247
754.196,244.7443,-3.18888,-0.11108,0.6317
754.996,245.015,-3.18901,-0.11449,0.63094
755.796,245.285,-3.18799,-0.11321,0.63017
756.596,245.556,-3.18802,-0.11082,0.62941
757.396,245.828,-3.18901,-0.11066,0.62864
758.196,246.1,-3.18867,-0.11099,0.62788
758.996,246.371,-3.18934,-0.1096,0.62711
759.796,246.643,-3.18666,-0.10992,0.62634
760.596,246.914,-3.18806,-0.11336,0.62557
761.396,247.185,-3.18868,-0.11436,0.62481
762.196,247.455,-3.19075,-0.11547,0.62404
762.996,247.724,-3.18948,-0.11113,0.62327
763.796,247.993,-3.18929,-0.10957,0.6225
764.596,248.262,-3.19065,-0.10886,0.62173
765.396,248.532,-3.19197,-0.10864,0.62096
766.196,248.8028,-3.18963,-0.10695,0.62019
766.996,249.074,-3.19032,-0.1065,0.61941
767.796,249.345,-3.19099,-0.11146,0.61864
768.596,249.617,-3.19165,-0.11247,0.61787
769.396,249.889,-3.19003,-0.11389,0.61709
770.196,250.163,-3.19152,-0.11273,0.61632
770.996,250.437,-3.19121,-0.11044,0.61555
771.796,250.7116,-3.1924,-0.11885,0.61477
772.596,250.986,-3.18991,-0.11488,0.614
773.396,251.258,-3.19432,-0.12407,0.61322
774.196,251.528,-3.19261,-0.12136,0.61244
774.996,251.796,-3.19131,-0.12421,0.61167
775.796,252.065,-3.19349,-0.11572,0.61089
776.596,252.333,-3.19252,-0.117,0.61011
777.396,252.602,-3.19049,-0.11589,0.60933
778.196,252.871,-3.1938,-0.11486,0.60856
778.996,253.14,-3.19449,-0.11848,0.60778
779.796,253.41,-3.19351,-0.11454,0.607
780.596,253.682,-3.19614,-0.11579,0.60622
781.396,253.9546,-3.19677,-0.11875,0.60544
782.196,254.229,-3.19548,-0.11428,0.60465
782.996,254.504,-3.19747,-0.12142,0.60387
783.796,254.781,-3.19912,-0.11797,0.60309
784.596,255.058,-3.19514,-0.12096,0.60231
785.396,255.333,-3.19746,-0.11992,0.60153
786.196,255.604,-3.1988,-0.12183,0.60074
786.996,255.874,-3.20069,-0.12008,0.59996
787.796,256.142,-3.20131,-0.11682,0.59917
788.596,256.412,-3.19691,-0.12232,0.59839
789.396,256.683,-3.19954,-0.11784,0.5976
790.196,256.954,-3.19953,-0.11779,0.59682
790.996,257.225,-3.20119,-0.12085,0.59603
791.796,257.4984,-3.20123,-0.12294,0.59525
792.596,257.771,-3.19817,-0.12082,0.59446
793.396,258.042,-3.20019,-0.1251,0.59367
794.196,258.312,-3.2002,-0.12589,0.59289
794.996,258.582,-3.19888,-0.12422,0.5921
795.796,258.851,-3.20284,-0.12799,0.59131
796.596,259.122,-3.20151,-0.12978,0.59052
797.396,259.395,-3.2015,-0.12798,0.58973
798.196,259.667,-3.20189,-0.12953,0.58894
798.996,259.94,-3.20151,-0.12787,0.58815
799.796,260.212,-3.20151,-0.12884,0.58736
800.596,260.484,-3.2002,-0.13249,0.58657
801.396,260.756,-3.20349,-0.12983,0.58578
802.196,261.028,-3.20079,-0.13045,0.58499
802.996,261.3,-3.20217,-0.12794,0.58419
803.796,261.571,-3.20184,-0.12677,0.5834
804.596,261.8427,-3.20389,-0.12755,0.58261
805.396,262.114,-3.20119,-0.12807,0.58181
806.196,262.387,-3.20409,-0.12685,0.58102
806.996,262.659,-3.20535,-0.12709,0.58023
807.796,262.931,-3.20382,-0.13295,0.57943
808.596,263.202,-3.2025,-0.13532,0.57864
809.396,263.472,-3.20518,-0.13863,0.57784
810.196,263.741,-3.20352,-0.14137,0.57705
810.996,264.011,-3.20382,-0.13572,0.57625
811.796,264.283,-3.20514,-0.13238,0.57546
812.596,264.556,-3.205,-0.13903,0.57466
813.396,264.829,-3.20513,-0.13803,0.57386
814.196,265.102,-3.20776,-0.1426,0.57306
814.996,265.374,-3.20744,-0.14253,0.57227
815.796,265.647,-3.20689,-0.14892,0.57147
816.596,265.921,-3.20557,-0.14714,0.57067
817.396,266.195,-3.20429,-0.14884,0.56987
818.196,266.469,-3.20763,-0.14738,0.56907
818.996,266.742,-3.20671,-0.14924,0.56827
819.796,267.015,-3.2071,-0.14975,0.56747
820.596,267.2864,-3.20711,-0.15373,0.56667
821.396,267.557,-3.2058,-0.15259,0.56587
822.196,267.827,-3.20583,-0.14436,0.56507
822.996,268.099,-3.20842,-0.14388,0.56427
823.796,268.371,-3.21169,-0.14398,0.56347
824.596,268.643,-3.20904,-0.14703,0.56267
825.396,268.915,-3.21069,-0.1506,0.56187
826.196,269.188,-3.20998,-0.15116,0.56106
826.996,269.46,-3.21005,-0.14773,0.56026
827.796,269.731,-3.20755,-0.14921,0.55946
828.596,270,-3.21149,-0.14866,0.55865
829.396,270.271,-3.21084,-0.14537,0.55785
830.196,270.542,-3.21215,-0.14593,0.55705
830.996,270.814,-3.20958,-0.14194,0.55624
831.796,271.087,-3.2099,-0.14072,0.55544
832.596,271.36,-3.20914,-0.1422,0.55463
833.396,271.634,-3.21247,-0.13916,0.55383
834.196,271.908,-3.21312,-0.13862,0.55302
834.996,272.182,-3.21083,-0.14261,0.55222
835.796,272.455,-3.21083,-0.13939,0.55141
836.596,272.727,-3.21083,-0.13797,0.55061
837.396,272.999,-3.21017,-0.13808,0.5498
838.196,273.27,-3.21236,-0.13781,0.54899
838.996,273.541,-3.21387,-0.14349,0.54819
839.796,273.809,-3.21181,-0.13719,0.54738
840.596,274.079,-3.21549,-0.13454,0.54657
841.396,274.351,-3.2128,-0.13088,0.54576
842.196,274.624,-3.21313,-0.13555,0.54496
842.996,274.897,-3.21254,-0.13251,0.54415
843.796,275.169,-3.21394,-0.13233,0.54334
844.596,275.441,-3.21424,-0.12959,0.54253
845.396,275.713,-3.21525,-0.12904,0.54172
846.196,275.986,-3.21665,-0.1281,0.54091
846.996,276.259,-3.21581,-0.13052,0.5401
847.796,276.53,-3.21702,-0.12949,0.53929
848.096,276.631,-3.21651,-0.13154,0.53899