File: 01_Data/Memory_Foam_Carpet_Pad/Cone/Memory_Foam_Carpet_Pad_Cone_HF50Scan_220922_R2.csv
Names,Time,Stack TC,Smoke TC,Exh Press,Smoke Comp,Smoke Meas,CO Meter,CO2 Meter,O2 Meter,Sample Mass,Ext Coeff,Start Test,Flame Verif
Chan Gain,,500,500,1,1,1,1,1,1,1,1,1.0,1.0
Offset,,0,0,0.141977,0,0,0,0,0,0,0,0.0,0.0
Gain,,1,1,25.011,13.065,14.7021,1,1,1,1.00081,1.02518,1.0,1.0
Units,sec,C,C,Pa,%,%,%,%,%,g,/m,,
Baseline,,50.0726,51.7586,160.77,98.5158,101.321,0.000147521,0.043656,20.9458,-445.565,-0.252419,,
2,0.25,49.3793,50.8984,161.859,98.1025,100.455,0.000622525,0.0466395,20.9434,66.2737,-0.213074,0.0,0.0
4,0.75,48.7384,50.2389,160.509,98.1053,100.102,0.00077794,0.0475933,20.942,66.1736,-0.181233,0.0,0.0
6,1.25,47.9137,49.7744,167.721,98.0929,98.7501,0.00119144,0.058308,20.9333,66.1136,-0.0600519,0.0,0.0
8,1.75,47.8623,49.5396,147.236,98.1065,97.9264,0.00152637,0.0669869,20.9195,66.0835,0.0165219,0.0,0.0
10,2.25,47.2602,49.0477,153.843,98.1017,94.3464,0.00217236,0.0826027,20.8946,66.0735,0.351,0.0,1.0
12,2.75,47.3466,49.2617,150.737,98.0981,90.0208,0.00269561,0.102979,20.8623,66.0135,0.77273,0.0,1.0
14,3.25,47.9148,49.4174,148.635,98.0945,87.4037,0.0035273,0.119484,20.8243,66.0535,1.03772,0.0,1.0
16,3.75,47.8488,49.5106,142.276,98.1029,86.4134,0.00420097,0.148014,20.783,65.9935,1.14095,0.0,1.0
18,4.25,48.6274,49.7496,150.267,98.1009,84.66,0.00520158,0.171124,20.7415,65.9434,1.32512,0.0,1.0
20,4.75,48.8462,49.5237,146.762,98.0993,79.949,0.00601208,0.201064,20.7008,65.8834,1.83986,0.0,1.0
22,5.25,49.1893,50.0842,144.374,98.0965,83.1498,0.00666858,0.225316,20.6677,65.7833,1.48658,0.0,1.0
24,5.75,49.5484,50.467,145.062,98.0985,80.3694,0.00767368,0.254165,20.6346,65.6932,1.79262,0.0,1.0
26,6.25,50.2763,50.7999,142.027,98.0881,81.2227,0.00848782,0.277533,20.6021,65.6132,1.69668,0.0,1.0
28,6.75,50.4744,50.9724,140.48,98.1029,79.796,0.00930317,0.300207,20.5758,65.5531,1.85741,0.0,1.0
30,7.25,49.9238,50.2507,143.143,98.0933,78.8578,0.0101039,0.321943,20.5433,65.463,1.96289,0.0,1.0
32,7.75,49.9166,50.4457,139.215,98.1077,76.3322,0.0107525,0.339549,20.517,65.5031,2.25693,0.0,1.0
34,8.25,50.7588,50.7064,143.76,98.0945,78.7739,0.0115443,0.360199,20.4917,65.5031,1.97257,0.0,1.0
36,8.75,50.6933,50.7412,138.918,98.112,75.8472,0.0121857,0.376925,20.4676,65.443,2.31466,0.0,1.0
38,9.25,51.66,51.8246,144.02,98.0945,75.7655,0.0129078,0.39353,20.4426,65.383,2.32274,0.0,0.0
40,9.75,51.9669,52.0043,149.106,98.1085,78.5922,0.0134927,0.40973,20.4174,65.2429,1.99462,0.0,0.0
42,10.25,52.4947,52.2689,135.997,98.1077,76.5601,0.0140913,0.425073,20.3969,65.1628,2.23012,0.0,0.0
44,10.75,53.0125,52.7973,137.422,98.1041,76.186,0.0146885,0.439501,20.3737,65.1027,2.27385,0.0,0.0
46,11.25,53.1012,53.2552,144.818,98.0929,78.1372,0.0152836,0.451188,20.3549,65.0827,2.0454,0.0,0.0
48,11.75,53.6877,53.631,140.047,98.1089,73.3351,0.0158659,0.465122,20.3397,65.0027,2.61726,0.0,0.0
50,12.25,54.0057,54.4969,138.661,98.0913,75.1091,0.0163375,0.476409,20.3211,64.9326,2.40069,0.0,0.0
52,12.75,54.4194,54.7418,141.277,98.1089,76.4893,0.0167195,0.487911,20.306,64.8225,2.23856,0.0,0.0
54,13.25,55.976,54.8528,132.515,98.1029,73.6213,0.0172713,0.499352,20.2938,64.7625,2.58168,0.0,0.0
56,13.75,56.0223,54.8022,139.186,98.116,76.5148,0.0179364,0.511558,20.2775,64.6924,2.23621,0.0,0.0
58,14.25,56.4539,56.0022,133.952,98.114,74.52,0.0185825,0.524088,20.2642,64.5423,2.47359,0.0,0.0
60,14.75,56.4116,56.717,136.893,98.112,71.5453,0.0192024,0.534238,20.2455,64.4522,2.83974,0.0,0.0
62,15.25,57.0643,56.6637,144.102,98.0957,74.1189,0.0197046,0.542459,20.2303,64.4422,2.52044,0.0,0.0
64,15.75,58.1908,57.4733,137.079,98.1132,76.2609,0.0203039,0.553547,20.2095,64.3421,2.26585,0.0,0.0
66,16.25,58.192,57.6995,144.411,98.0989,71.8056,0.0207893,0.566514,20.1927,64.2621,2.80589,0.0,0.0
68,16.75,59.2226,58.5697,132.639,98.114,70.8198,0.0213096,0.58114,20.1612,64.182,2.93158,0.0,0.0
70,17.25,59.7198,58.9437,135.918,98.0981,72.3426,0.0217827,0.596698,20.1357,64.1119,2.7388,0.0,0.0
72,17.75,60.0423,59.3482,132.047,98.1069,74.743,0.0222124,0.6093,20.1065,64.0519,2.44606,0.0,0.0
74,18.25,61.0416,59.461,123.541,98.0989,75.2882,0.0225605,0.625802,20.0829,63.9418,2.37998,0.0,0.0
76,18.75,61.2359,60.6079,128.357,98.1093,75.6772,0.0229521,0.639169,20.0598,63.8717,2.33458,0.0,0.0
78,19.25,61.9035,60.6404,137.19,98.1005,77.2749,0.0232693,0.655333,20.0375,63.7617,2.1459,0.0,0.0
80,19.75,62.4442,61.5289,132.167,98.1096,73.9112,0.0235262,0.668425,20.0194,63.6816,2.54696,0.0,0.0
82,20.25,63.2286,61.8852,136.054,98.1021,74.0974,0.0238639,0.685084,19.9999,63.5615,2.52364,0.0,0.0
84,20.75,63.6652,62.7982,131.421,98.1164,74.7107,0.0241374,0.698577,19.9797,63.4614,2.45083,0.0,0.0
86,21.25,64.3974,63.3367,127.327,98.1085,74.9184,0.0243853,0.718156,19.9634,63.3113,2.42513,0.0,0.0
88,21.75,65.3783,64.0488,119.878,98.1144,73.5998,0.0246099,0.734015,19.9363,63.2713,2.58537,0.0,0.0
90,22.25,65.9885,64.7425,127.734,98.0961,75.276,0.0247941,0.755395,19.9144,63.1712,2.38117,0.0,0.0
92,22.75,66.6015,65.6119,124.871,98.1105,70.7373,0.0249452,0.780394,19.8766,63.0311,2.94174,0.0,0.0
94,23.25,67.7074,66.0339,124.81,98.1053,74.5097,0.0250698,0.800643,19.8459,62.941,2.47403,0.0,0.0
96,23.75,68.5977,66.5822,131.208,98.1108,74.8529,0.0251727,0.826381,19.7956,62.8209,2.43321,0.0,0.0
98,24.25,69.4484,67.4841,121.894,98.1009,74.0355,0.0252752,0.855632,19.7549,62.7408,2.53105,0.0,0.0
100,24.75,69.8202,68.0693,109.27,98.1069,75.2047,0.0253754,0.885375,19.7013,62.6207,2.39068,0.0,0.0
102,25.25,70.7449,69.1838,119.791,98.1017,72.4651,0.0254566,0.914912,19.658,62.4906,2.72392,0.0,0.0
104,25.75,72.0348,69.8951,111.704,98.1021,74.3993,0.0255824,0.943964,19.6156,62.3805,2.48707,0.0,0.0
106,26.25,72.6555,70.5815,112.987,98.1168,73.7869,0.0256843,0.972113,19.5747,62.2404,2.56275,0.0,0.0
108,26.75,73.8412,72.2062,118.218,98.1069,73.7856,0.025803,0.999348,19.5415,62.0903,2.562,0.0,0.0
110,27.25,74.9119,73.0082,119.995,98.0981,74.4227,0.0259316,1.0254,19.5017,61.9802,2.48388,0.0,0.0
112,27.75,75.9974,73.8899,121.717,98.1085,74.5891,0.0260505,1.0465,19.4695,61.8601,2.46474,0.0,0.0
114,28.25,76.9906,75.1357,121.119,98.1025,74.7628,0.0261601,1.072,19.4364,61.76,2.44328,0.0,0.0
116,28.75,78.2529,76.4063,110.198,98.1108,74.3684,0.0262488,1.09266,19.4032,61.6299,2.49162,0.0,0.0
118,29.25,79.1915,77.0132,104.418,98.1017,72.4404,0.0263544,1.1154,19.3688,61.4798,2.72698,0.0,0.0
120,29.75,80.4603,77.967,113.176,98.1077,72.8398,0.0264399,1.13923,19.3341,61.3797,2.67809,0.0,0.0
122,30.25,81.0433,79.3791,108.171,98.1057,73.1143,0.0265611,1.15853,19.2957,61.2796,2.64408,0.0,0.0
124,30.75,82.3638,80.6269,116.733,98.1069,75.6206,0.0266592,1.18639,19.2381,61.1595,2.34109,0.0,0.0
126,31.25,83.3749,81.311,108.082,98.1017,75.4932,0.0267913,1.20895,19.2226,61.0394,2.35578,0.0,0.0
128,31.75,84.6054,82.6521,104.527,98.1093,72.755,0.0269455,1.23872,19.1773,60.9294,2.68872,0.0,0.0
130,32.25,85.5566,83.7915,112.487,98.1057,75.0369,0.0271313,1.26282,19.1406,60.7792,2.41066,0.0,0.0
132,32.75,86.8142,84.9218,104.483,98.1041,74.2872,0.0273365,1.28814,19.0962,60.6491,2.50082,0.0,0.0
134,33.25,87.6198,85.7863,111.556,98.1013,74.8521,0.0275027,1.31385,19.0602,60.519,2.43244,0.0,0.0
136,33.75,89.0762,87.0788,105.917,98.0957,71.9245,0.0277446,1.35322,19.0311,60.3289,2.79072,0.0,0.0
138,34.25,90.1169,88.3351,112.668,98.0965,72.1282,0.028037,1.36534,18.9918,60.1988,2.76536,0.0,0.0
140,34.75,91.6583,89.3356,117.504,98.1033,74.0305,0.0283598,1.38605,18.96,60.0887,2.53187,0.0,0.0
142,35.25,92.883,90.8477,106.522,98.0945,75.3994,0.0286986,1.41547,18.9343,59.9285,2.3663,0.0,0.0
144,35.75,93.8889,92.4166,109.333,98.0965,74.8821,0.0289731,1.4393,18.8965,59.7984,2.42839,0.0,0.0
146,36.25,95.1351,93.2124,108.151,98.0965,73.6236,0.0292982,1.46516,18.8658,59.6483,2.58082,0.0,0.0
148,36.75,96.6379,94.605,111.307,98.0969,74.73,0.0296542,1.49201,18.8256,59.4782,2.44671,0.0,0.0
150,37.25,97.8153,96.3204,107.628,98.0977,73.192,0.0299914,1.52384,18.793,59.3281,2.6338,0.0,0.0
152,37.75,99.0244,97.3473,95.5008,98.1009,74.8538,0.0303087,1.5587,18.7362,59.248,2.43219,0.0,0.0
154,38.25,100.214,98.7614,100.029,98.1033,74.0821,0.0305965,1.58693,18.6902,58.9778,2.5256,0.0,0.0
156,38.75,101.69,99.9764,96.7533,98.1037,73.4414,0.0308576,1.60981,18.6212,58.9177,2.60375,0.0,0.0
158,39.25,102.937,101.293,98.2852,98.1212,75.3276,0.0310788,1.65707,18.5653,58.7276,2.37731,0.0,0.0
160,39.75,104.402,103.082,105.297,98.1148,75.8607,0.0312669,1.70684,18.4772,58.5875,2.31332,0.0,0.0
162,40.25,106.091,104.354,86.7086,98.1431,73.5464,0.0314192,1.7575,18.4058,58.3973,2.59452,0.0,0.0
164,40.75,107.857,106.313,94.6413,98.1396,71.7728,0.0315319,1.80827,18.3479,58.2872,2.81372,0.0,0.0
166,41.25,109.167,107.831,92.4904,98.1475,74.6394,0.0315749,1.85816,18.3098,58.0871,2.46227,0.0,0.0
168,41.75,110.98,109.592,90.2227,98.1503,73.7048,0.0316485,1.90782,18.2446,57.8669,2.57583,0.0,0.0
170,42.25,112.508,110.749,91.5844,98.1595,75.3371,0.0316865,1.95637,18.1793,57.6867,2.37969,0.0,0.0
172,42.75,114.387,112.911,91.6073,98.1663,75.7036,0.0317173,1.99568,18.1152,57.5466,2.33666,0.0,0.0
174,43.25,115.918,114.477,101.63,98.1699,75.7947,0.0317523,2.05019,18.0487,57.3765,2.32618,0.0,0.0
176,43.75,117.433,116.504,89.8884,98.1675,76.6786,0.0317807,2.09433,17.9817,57.1863,2.2217,0.0,0.0
178,44.25,119.047,118.481,85.7041,98.1818,76.1451,0.0318539,2.11315,17.9131,56.9361,2.2858,0.0,0.0
180,44.75,120.821,120.282,88.4351,98.1627,76.4538,0.0319132,2.16227,17.8446,56.8461,2.24766,0.0,0.0
182,45.25,122.651,122.087,84.6531,98.1754,76.2551,0.0320258,2.20206,17.7791,56.7159,2.27224,0.0,0.0
184,45.75,124.227,123.498,85.079,98.1647,76.5965,0.0321171,2.24109,17.7168,56.4257,2.23108,0.0,0.0
186,46.25,126.403,125.663,87.5894,98.179,76.2313,0.032273,2.27882,17.6575,56.2956,2.27537,0.0,0.0
188,46.75,127.944,127.408,87.7375,98.1762,76.4857,0.0323993,2.31505,17.6014,56.1055,2.24516,0.0,0.0
190,47.25,129.296,129.236,102.486,98.1966,75.9742,0.0325016,2.34948,17.556,56.0254,2.30736,0.0,0.0
192,47.75,131.228,130.67,96.9891,98.1858,79.3536,0.0327547,2.38753,17.5114,55.7151,1.915,0.0,0.0
194,48.25,132.327,132.844,85.8171,98.2053,76.627,0.0329598,2.41834,17.4683,55.545,2.23122,0.0,0.0
196,48.75,134.294,134.967,95.5137,98.201,77.1183,0.0333214,2.45287,17.4261,55.4449,2.17334,0.0,0.0
198,49.25,135.991,136.608,85.6125,98.2205,76.6755,0.0336144,2.48083,17.3854,55.1947,2.22692,0.0,0.0
200,49.75,137.687,139.083,99.1462,98.2101,76.382,0.0339789,2.50946,17.3524,55.1146,2.26045,0.0,0.0
202,50.25,139.158,140.422,90.6639,98.2309,76.8459,0.0343886,2.53803,17.3123,54.9145,2.2079,0.0,0.0
204,50.75,141.059,143.004,94.7589,98.2177,76.0428,0.0348075,2.56117,17.2798,54.7644,2.30117,0.0,0.0
206,51.25,142.443,144.685,102.737,98.2213,76.2506,0.035225,2.59301,17.2412,54.5742,2.27697,0.0,0.0
208,51.75,144.319,146.298,73.5909,98.2189,78.6196,0.0356011,2.61879,17.199,54.3741,2.00161,0.0,0.0
210,52.25,145.664,148.344,86.1445,98.2261,76.0406,0.0359397,2.64352,17.1648,54.1439,2.3022,0.0,0.0
212,52.75,147.37,149.592,88.2725,98.2137,74.7583,0.036214,2.66699,17.1371,53.9537,2.45401,0.0,0.0
214,53.25,148.882,151.778,91.2234,98.2269,77.2906,0.0363863,2.68601,17.1146,53.8036,2.15565,0.0,0.0
216,53.75,150.845,153.823,86.9742,98.2217,76.9285,0.0365259,2.7,17.0964,53.6935,2.1974,0.0,0.0
218,54.25,152.321,155.643,87.2589,98.2253,77.0546,0.0366389,2.71134,17.0817,53.4633,2.183,0.0,0.0
220,54.75,153.973,157.518,85.9911,98.2253,76.081,0.0364514,2.71307,17.0734,53.3232,2.29736,0.0,0.0
222,55.25,155.63,159.148,89.2533,98.2492,78.1516,0.0362994,2.71448,17.0666,53.093,2.05807,0.0,0.0
224,55.75,156.652,161.211,78.6911,98.2488,76.3995,0.0359323,2.70691,17.0736,52.9429,2.26193,0.0,0.0
226,56.25,158.451,162.926,88.1504,98.244,77.9219,0.0356349,2.69295,17.0904,52.7928,2.08407,0.0,0.0
228,56.75,159.571,164.593,98.0478,98.26,75.7498,0.0351268,2.68164,17.1203,52.6326,2.33976,0.0,0.0
230,57.25,161,166.23,82.2991,98.2691,76.4377,0.0347152,2.64514,17.1591,52.4525,2.25931,0.0,0.0
232,57.75,162.047,168.329,94.046,98.2775,73.4042,0.0342193,2.61558,17.1906,52.3724,2.62423,0.0,0.0
234,58.25,162.931,169.308,88.2603,98.2863,74.6443,0.0338177,2.56461,17.2386,52.2023,2.47438,0.0,0.0
236,58.75,163.556,170.678,96.8044,98.2735,72.2592,0.0334923,2.52332,17.2979,52.0522,2.76525,0.0,0.0
238,59.25,164.516,172.187,95.1893,98.2911,71.7925,0.0330843,2.47633,17.3458,51.9621,2.82512,0.0,0.0
240,59.75,165.478,173.217,90.7715,98.2971,69.8274,0.0326236,2.42606,17.4166,51.7519,3.07526,0.0,0.0
242,60.25,165.608,174.289,106.335,98.317,71.7585,0.0320949,2.37028,17.4739,51.6819,2.83176,0.0,0.0
244,60.75,166.224,175.093,92.8583,98.3142,72.151,0.0315267,2.31154,17.5632,51.5117,2.78244,0.0,0.0
246,61.25,166.69,176.007,101.181,98.3198,70.5076,0.0310665,2.26395,17.6355,51.3816,2.99016,0.0,0.0
248,61.75,167.164,176.777,99.6316,98.3198,71.7589,0.0304239,2.19823,17.6941,51.3116,2.83196,0.0,0.0
250,62.25,167.225,177.208,111.926,98.3222,72.514,0.029335,2.12054,17.8398,51.2015,2.73804,0.0,0.0
252,62.75,167.75,177.963,103.546,98.3222,73.0304,0.0290421,2.03783,17.879,51.1314,2.67422,0.0,0.0
254,63.25,167.753,178.604,107.967,98.3281,74.4711,0.0281011,1.95303,17.9852,51.0113,2.4991,0.0,0.0
256,63.75,167.602,179.129,109.244,98.3373,73.1332,0.0271289,1.88434,18.1066,50.9513,2.66297,0.0,0.0
258,64.25,167.429,179.07,115.745,98.3497,72.1183,0.0261526,1.80104,18.2693,50.8712,2.78977,0.0,0.0
260,64.75,167.848,179.974,116.495,98.3505,75.1522,0.0251747,1.70867,18.4011,50.8012,2.41927,0.0,0.0
262,65.25,166.743,179.648,125.97,98.3596,74.3783,0.0242141,1.57862,18.5815,50.7011,2.5132,0.0,0.0
264,65.75,166.181,179.586,118.065,98.3549,71.4215,0.0232427,1.52891,18.7277,50.671,2.87755,0.0,0.0
266,66.25,165.827,179.56,124.135,98.3612,70.4721,0.0222818,1.44391,18.9063,50.621,2.99848,0.0,0.0
268,66.75,164.321,178.336,128.852,98.3688,72.2148,0.0215034,1.3366,19.0511,50.591,2.7795,0.0,0.0
270,67.25,163.934,178.465,133.532,98.3624,73.6326,0.0204633,1.24968,19.1921,50.561,2.60407,0.0,0.0
272,67.75,163.069,178.096,135.602,98.3624,73.0466,0.0196207,1.14886,19.3277,50.5209,2.67592,0.0,0.0
274,68.25,161.687,177.181,141.504,98.3696,78.4002,0.0186732,1.06719,19.4375,50.4309,2.04053,0.0,0.0
276,68.75,160.925,177.092,142.699,98.3744,83.1435,0.0176672,0.975866,19.5653,50.3808,1.5127,0.0,0.0
278,69.25,159.595,176.183,142.242,98.3736,86.9523,0.0167014,0.901896,19.6688,50.3808,1.10983,0.0,0.0
280,69.75,157.678,174.892,146.771,98.3844,89.5088,0.0157832,0.81812,19.7712,50.3908,0.850223,0.0,0.0
282,70.25,157.077,174.15,148.06,98.3927,93.3867,0.0150395,0.750262,19.8709,50.4008,0.469586,0.0,0.0
284,70.75,155.735,173.455,154.087,98.3876,95.6014,0.0146089,0.683945,19.9134,50.3808,0.25834,0.0,0.0
286,71.25,153.828,172.299,150.107,98.3991,96.186,0.0138725,0.620012,20.0169,50.3808,0.204571,0.0,0.0
288,71.75,152.539,171.11,149.187,98.4111,97.9838,0.0132356,0.568227,20.1008,50.3808,0.0391285,0.0,0.0
290,72.25,151.154,169.374,149.206,98.4099,99.9535,0.0126833,0.511591,20.1959,50.4008,-0.139962,0.0,0.0
292,72.75,149.411,168.684,151.365,98.4135,100.557,0.0122339,0.465716,20.273,50.4709,-0.193724,0.0,0.0
294,73.25,148.268,167.781,147.791,98.3967,102.182,0.011868,0.419201,20.3439,50.4309,-0.339504,0.0,0.0
296,73.75,146.389,166.27,153.307,98.4266,102.604,0.0115716,0.399371,20.4089,50.4309,-0.373774,0.0,0.0
298,74.25,145.607,165.186,155.281,98.4055,102.79,0.0113706,0.36136,20.468,50.3808,-0.39197,0.0,0.0
300,74.75,143.828,163.591,154.066,98.4119,102.619,0.0112078,0.32688,20.5215,50.4309,-0.376458,0.0,0.0
302,75.25,143.052,162.988,152.709,98.4163,102.529,0.011076,0.296757,20.5648,50.3908,-0.368191,0.0,0.0
304,75.75,141.3,161.67,152.005,98.4278,102.376,0.0110174,0.270383,20.6071,50.4309,-0.353705,0.0,0.0
306,76.25,140.202,160.704,157.707,98.4346,102.475,0.0109699,0.24902,20.6414,50.4409,-0.361791,0.0,0.0
308,76.75,137.348,157.892,151.455,98.4378,102.782,0.0109545,0.228491,20.6559,50.4409,-0.388352,0.0,0.0
310,77.25,136.14,156.754,157.025,98.4601,102.001,0.0109281,0.211863,20.6858,50.4309,-0.317746,0.0,0.0
312,77.75,134.313,154.648,155.516,98.4876,102.481,0.0109027,0.197416,20.7119,50.3608,-0.35746,0.0,0.0
314,78.25,133.739,154.557,153.205,98.4681,102.625,0.0108783,0.184835,20.7347,50.3708,-0.371873,0.0,0.0
316,78.75,132.1,153.624,154.832,98.4801,102.597,0.0108494,0.174645,20.7532,50.3808,-0.368304,0.0,0.0
318,79.25,131.4,152.245,161.614,98.4848,102.501,0.0108261,0.165109,20.7704,50.3708,-0.359486,0.0,0.0
320,79.75,130.52,151.349,154.129,98.5012,102.576,0.0108037,0.161044,20.785,50.3608,-0.364564,0.0,0.0
322,80.25,128.682,150.353,155.435,98.4872,103.071,0.0107825,0.153764,20.7975,50.3608,-0.409121,0.0,0.0
324,80.75,128.127,149.278,153.059,98.5036,101.835,0.0107564,0.147572,20.8077,50.3208,-0.29913,0.0,0.0
326,81.25,126.833,148.772,159.806,98.4924,102.271,0.0107273,0.142327,20.8158,50.3308,-0.338539,0.0,0.0
328,81.75,125.712,147.55,155.779,98.5068,103.298,0.0107036,0.137872,20.823,50.3007,-0.427124,0.0,0.0
330,82.25,124.796,146.733,155.741,98.4964,102.515,0.0106845,0.134066,20.8291,50.3208,-0.35965,0.0,0.0
332,82.75,123.663,145.462,153.863,98.5143,101.888,0.010669,0.130804,20.8342,50.2907,-0.302781,0.0,0.0
334,83.25,122.679,144.795,155.272,98.5124,102.69,0.010577,0.127995,20.8382,50.2707,-0.373492,0.0,0.0
336,83.75,121.856,143.29,153.377,98.5183,102.863,0.0105025,0.125568,20.8414,50.2807,-0.3881,0.0,0.0
338,84.25,120.691,142.794,150.231,98.5179,102.348,0.0104128,0.123603,20.8441,50.2707,-0.342953,0.0,0.0
340,84.75,119.609,141.629,158.224,98.5323,102.491,0.0103136,0.122011,20.8467,50.2907,-0.354249,0.0,0.0
342,85.25,118.823,140.664,151.758,98.5195,102.792,0.0102099,0.120478,20.849,50.2807,-0.381751,0.0,0.0
344,85.75,118.004,139.563,153.962,98.5291,102.181,0.0101259,0.119017,20.8511,50.2607,-0.327257,0.0,0.0
346,86.25,117.071,138.866,152.62,98.5255,102.9,0.01005,0.117834,20.853,50.2507,-0.39066,0.0,0.0
348,86.75,115.995,137.763,158.115,98.5506,102.615,0.00998862,0.116529,20.8548,50.2507,-0.363434,0.0,0.0
350,87.25,115.023,137.193,154.971,98.5367,103.619,0.00993237,0.115472,20.8567,50.2307,-0.452278,0.0,0.0
352,87.75,114.312,136.256,153.174,98.5526,101.569,0.00988682,0.114479,20.8587,50.2007,-0.271088,0.0,0.0
354,88.25,113.599,135.165,162.141,98.5423,102.539,0.00984036,0.113551,20.8603,50.2607,-0.35755,0.0,0.0
356,88.75,112.483,134.639,156.675,98.551,102.407,0.00979412,0.112754,20.8616,50.2707,-0.345175,0.0,0.0
358,89.25,112.085,133.574,154.459,98.557,102.18,0.00975667,0.112068,20.8626,50.2207,-0.324631,0.0,0.0
360,89.75,111.284,132.478,154.64,98.5642,101.68,0.00970429,0.111459,20.8635,50.2007,-0.279878,0.0,0.0
362,90.25,110.417,132.187,152.698,98.5466,102.986,0.00966186,0.110918,20.8642,50.1806,-0.396257,0.0,0.0
364,90.75,109.207,131.328,157.868,98.563,101.897,0.00962477,0.110411,20.8647,50.2007,-0.299173,0.0,0.0
366,91.25,108.465,130.559,153.575,98.5682,103.265,0.00959226,0.109939,20.8652,50.2207,-0.418628,0.0,0.0
368,91.75,107.652,129.664,153.752,98.573,102.944,0.00956389,0.109557,20.8656,50.2307,-0.390211,0.0,0.0
370,92.25,107.214,128.705,153.73,98.5658,102.502,0.00953907,0.109161,20.8659,50.2407,-0.352177,0.0,0.0
372,92.75,106.3,128.003,153.994,98.5809,102.955,0.00951214,0.10884,20.8663,50.1806,-0.390386,0.0,0.0
374,93.25,105.753,127.015,154.264,98.569,102.264,0.00948419,0.108489,20.8669,50.1606,-0.330921,0.0,0.0
376,93.75,104.746,126.563,154.687,98.5873,102.839,0.00943694,0.108123,20.8676,50.1606,-0.379727,0.0,0.0
378,94.25,104.232,125.67,155.755,98.5961,103.182,0.0094168,0.107728,20.8681,50.1907,-0.408812,0.0,0.0
380,94.75,103.487,124.908,151.928,98.5833,102.311,0.00938235,0.10732,20.8688,50.1907,-0.333793,0.0,0.0
382,95.25,102.71,124.238,154.149,98.5638,103.268,0.00931692,0.106905,20.8696,50.1706,-0.419302,0.0,0.0
384,95.75,101.836,123.191,153.159,98.5781,103.557,0.00926392,0.106494,20.8705,50.1706,-0.443081,0.0,0.0
386,96.25,101.27,122.7,157.215,98.559,102.176,0.00922099,0.106086,20.8712,50.1706,-0.324093,0.0,0.0
388,96.75,100.965,122.506,156.707,98.5845,102.851,0.00913968,0.105687,20.8717,50.1506,-0.380962,0.0,0.0
390,97.25,100.097,121.387,156.348,98.5686,103.528,0.00907381,0.105517,20.8722,50.1506,-0.44146,0.0,0.0
392,97.75,99.6218,121.035,155.044,98.5881,103.318,0.00897527,0.104996,20.8726,50.1406,-0.421419,0.0,0.0
394,98.25,99.4121,120.069,154.812,98.5702,103.146,0.00889544,0.104574,20.8729,50.1506,-0.408048,0.0,0.0
396,98.75,98.603,119.633,157.041,98.5941,103.21,0.00878049,0.104036,20.8736,50.1406,-0.411458,0.0,0.0
398,99.25,97.7454,118.839,155.206,98.5813,103.117,0.00868737,0.103422,20.8746,50.1606,-0.404525,0.0,0.0
400,99.75,97.2982,117.97,154.89,98.5949,103.045,0.00857201,0.102926,20.8756,50.1506,-0.396987,0.0,0.0
402,100.25,96.6189,116.973,157.328,98.5765,103.306,0.00847857,0.102193,20.8767,50.1306,-0.42142,0.0,0.0
404,100.75,95.9,116.45,155.625,98.6017,102.225,0.00837199,0.1016,20.8778,50.1006,-0.324505,0.0,0.0
406,101.25,95.6085,116.267,152.92,98.5873,103.089,0.00828567,0.100904,20.8789,50.0906,-0.401553,0.0,0.0
408,101.75,94.9012,115.837,156.903,98.6029,102.521,0.00818873,0.10034,20.8798,50.0906,-0.350448,0.0,0.0
410,102.25,94.2245,115.049,155.503,98.5825,102.602,0.00811021,0.0997112,20.8805,50.0806,-0.359423,0.0,0.0
412,102.75,94.1544,114.118,156.614,98.5925,102.334,0.00804662,0.099202,20.8811,50.0606,-0.334928,0.0,0.0
414,103.25,93.4841,113.733,156.665,98.5726,102.291,0.0079604,0.09856,20.8816,50.0806,-0.333,0.0,0.0
416,103.75,92.5303,112.792,158.963,98.5861,102.789,0.00789057,0.0980401,20.8819,50.0806,-0.375401,0.0,0.0
418,104.25,92.613,112.658,155.692,98.5789,102.182,0.0078096,0.097536,20.8822,50.0405,-0.322867,0.0,0.0
420,104.75,91.8877,111.486,153.357,98.5885,102.646,0.00774402,0.0970529,20.8827,50.0606,-0.36273,0.0,0.0
422,105.25,91.2451,110.988,152.927,98.5917,102.836,0.0076909,0.0966617,20.8833,50.0906,-0.379013,0.0,0.0
424,105.75,90.9062,110.611,155.151,98.6045,103.285,0.00761817,0.0961299,20.8838,50.0806,-0.417038,0.0,0.0
426,106.25,89.9075,109.867,156.686,98.5877,103.12,0.00753251,0.0956992,20.8835,50.0706,-0.404178,0.0,0.0
428,106.75,90.1029,109.281,156.76,98.5753,102.748,0.0074483,0.0952357,20.8833,50.0606,-0.37281,0.0,0.0
430,107.25,89.5196,108.902,153.691,98.5718,102.897,0.00736673,0.0948603,20.8835,50.0606,-0.386166,0.0,0.0
432,107.75,89.1064,108.19,153.254,98.5801,102.486,0.00729122,0.0945562,20.8837,50.0706,-0.349451,0.0,0.0
434,108.25,87.6854,107.185,158.003,98.5686,102.81,0.00722157,0.0940765,20.8843,50.0305,-0.378886,0.0,0.0
436,108.75,87.8311,107.067,161.19,98.5845,102.777,0.00716178,0.0934777,20.8848,50.0005,-0.374566,0.0,0.0
438,109.25,87.3628,106.173,157.465,98.5765,102.598,0.00708838,0.0929928,20.8867,49.9805,-0.359615,0.0,0.0
440,109.75,87.0821,106.297,151.361,98.5841,102.724,0.00706863,0.0921426,20.8872,49.9605,-0.369928,0.0,0.0
442,110.25,86.6543,105.762,153.169,98.5662,102.447,0.00702072,0.0914539,20.8883,49.9805,-0.347298,0.0,0.0
444,110.75,86.5021,105.456,155.05,98.5562,102.989,0.00696919,0.0906532,20.8894,49.9304,-0.395658,0.0,0.0
446,111.25,86.067,104.831,157.25,98.5542,102.889,0.00690995,0.0900047,20.8902,49.9605,-0.3871,0.0,0.0
448,111.75,85.4296,104.217,156.396,98.5295,103.172,0.00684621,0.0892225,20.8914,49.9905,-0.414028,0.0,0.0
450,112.25,85.0416,103.471,157.071,98.5287,102.928,0.00676971,0.0881611,20.8923,50.0005,-0.3928,0.0,0.0
452,112.75,84.4845,103.404,156.022,98.5363,102.001,0.00668536,0.0877761,20.8935,49.9605,-0.310753,0.0,0.0
454,113.25,84.3267,102.398,156.918,98.5383,102.326,0.00661703,0.0871177,20.8945,49.9905,-0.339204,0.0,0.0
456,113.75,83.2463,102.209,154.256,98.5171,102.758,0.006503,0.0864794,20.8953,49.9905,-0.378986,0.0,0.0
458,114.25,83.4354,101.394,152.099,98.5175,102.223,0.00641064,0.0858678,20.896,49.9705,-0.332062,0.0,0.0
460,114.75,83.5139,101.151,155.149,98.5044,102.672,0.00629252,0.0852524,20.8969,49.9304,-0.372648,0.0,0.0
462,115.25,82.8057,100.263,154.284,98.5052,102.021,0.00619683,0.084646,20.8977,49.9304,-0.315333,0.0,0.0
464,115.75,82.0876,99.8001,153.997,98.4924,103.387,0.00607607,0.0841547,20.8986,49.9705,-0.436164,0.0,0.0
466,116.25,81.7951,99.6645,159.508,98.486,102.133,0.00593654,0.0834293,20.8999,50.0105,-0.326961,0.0,0.0
468,116.75,81.9243,99.6483,155.861,98.4773,102.448,0.00589901,0.0828417,20.9002,50.0005,-0.355453,0.0,0.0
470,117.25,81.205,98.9084,155.593,98.4769,102.59,0.00576367,0.0821523,20.9008,50.0205,-0.367966,0.0,0.0
472,117.75,80.9535,98.4646,152.312,98.4828,102.51,0.00565404,0.0815938,20.9013,50.0205,-0.360416,0.0,0.0
474,118.25,80.6723,98.3067,153.888,98.4785,102.6,0.00554455,0.0808996,20.9017,50.0105,-0.368685,0.0,0.0
476,118.75,80.5667,97.8196,154.724,98.4641,102.795,0.00543722,0.0803374,20.9025,49.9705,-0.387126,0.0,0.0
478,119.25,80.2922,97.1403,158.395,98.4593,103.06,0.00533228,0.0795007,20.9031,49.9605,-0.410691,0.0,0.0
480,119.75,79.7232,96.9693,154.412,98.4466,101.829,0.00523106,0.0791576,20.9041,49.9905,-0.303821,0.0,0.0
482,120.25,79.2181,96.6745,157.053,98.4585,102.384,0.00513441,0.078571,20.9048,50.0105,-0.351609,0.0,0.0
484,120.75,79.1606,95.7735,157.112,98.4262,102.449,0.00504292,0.0779313,20.9059,50.0105,-0.360272,0.0,0.0
486,121.25,78.7412,95.4926,158.187,98.4386,102.276,0.00495283,0.0772651,20.9068,50.0005,-0.343889,0.0,0.0
488,121.75,78.5068,94.7889,154.027,98.4155,102.239,0.00486547,0.076591,20.9084,50.0405,-0.342766,0.0,0.0
490,122.25,77.993,94.474,155.928,98.4354,102.458,0.00476056,0.075924,20.9096,50.0105,-0.360222,0.0,0.0
492,122.75,78.3911,94.5651,153.852,98.4167,102.418,0.00467559,0.0752716,20.9107,50.0005,-0.35835,0.0,0.0
494,123.25,77.3032,93.5583,157.546,98.4382,102.534,0.00460676,0.0746424,20.9115,49.9805,-0.36658,0.0,0.0
496,123.75,77.3832,93.5912,158.972,98.4079,101.468,0.00451512,0.0739835,20.9122,50.0005,-0.275401,0.0,0.0
498,124.25,76.664,93.0186,158.728,98.4211,102.587,0.00440859,0.0733154,20.9132,50.0005,-0.372789,0.0,0.0
500,124.75,76.6131,92.6949,160.349,98.4059,101.981,0.00429642,0.0726624,20.914,50.0105,-0.320958,0.0,0.0
502,125.25,76.1327,91.9971,157.596,98.4218,102.296,0.00418227,0.0720327,20.9147,50.0105,-0.347233,0.0,0.0
504,125.75,75.6696,91.9091,156.606,98.3995,103.211,0.00408981,0.0715226,20.9152,49.9905,-0.4293,0.0,0.0
506,126.25,75.7813,91.2301,155.841,98.4143,101.543,0.00396329,0.0710103,20.9157,50.0005,-0.281457,0.0,0.0
508,126.75,75.6245,91.1782,155.652,98.4051,101.622,0.0038608,0.0705954,20.916,50.0105,-0.289285,0.0,0.0
510,127.25,75.3673,90.6958,155.331,98.4147,101.793,0.00375397,0.0702592,20.9163,50.0005,-0.303565,0.0,0.0
512,127.75,75.0672,90.2453,158.263,98.4003,101.657,0.00364598,0.0697745,20.9165,49.9905,-0.292779,0.0,0.0
514,128.25,74.9818,90.2543,155.843,98.4111,102.322,0.00355852,0.0693819,20.9172,49.9805,-0.350425,0.0,0.0
516,128.75,74.4422,89.712,157.696,98.3824,101.545,0.00346321,0.0687665,20.9177,49.9605,-0.28457,0.0,0.0
518,129.25,74.1611,89.0519,157.71,98.3904,101.734,0.003364,0.0682681,20.9181,49.9505,-0.300554,0.0,0.0
520,129.75,73.5323,89.142,155.808,98.374,101.966,0.00326845,0.0677304,20.9185,50.0005,-0.32249,0.0,0.0
522,130.25,73.3375,88.419,156.241,98.3979,101.147,0.00317738,0.0671742,20.9189,50.0105,-0.247836,0.0,0.0
524,130.75,73.4618,87.9984,154.81,98.3704,101.999,0.00310362,0.0667237,20.9191,50.0105,-0.325705,0.0,0.0
526,131.25,73.2671,87.7901,156.497,98.388,102.277,0.00302144,0.0662322,20.9196,49.9905,-0.348594,0.0,0.0
528,131.75,72.9273,87.2707,153.6,98.3744,103.161,0.00293468,0.0657202,20.9201,49.9905,-0.427217,0.0,0.0
530,132.25,72.7922,86.8787,157.123,98.3712,101.485,0.00284793,0.0652014,20.9206,49.9705,-0.280264,0.0,0.0
532,132.75,72.726,86.4181,161.242,98.3664,102.127,0.00276283,0.0646874,20.9219,49.9605,-0.337377,0.0,0.0
534,133.25,72.2559,86.6788,158.176,98.362,102.095,0.00267942,0.0642711,20.9229,49.9405,-0.334933,0.0,0.0
536,133.75,71.7882,86.3332,161.074,98.3716,102.554,0.00259881,0.0637219,20.9237,49.9505,-0.374476,0.0,0.0
538,134.25,71.5679,85.7173,156.782,98.3573,102.784,0.00252098,0.0632771,20.9244,49.9605,-0.395909,0.0,0.0
540,134.75,71.203,85.8884,159.372,98.3385,101.393,0.00244667,0.0628053,20.9249,49.9605,-0.27506,0.0,0.0
542,135.25,71.4103,85.207,152.393,98.3393,101.136,0.00237793,0.0623228,20.9254,49.9705,-0.252196,0.0,0.0
544,135.75,70.765,84.7029,157.3,98.3353,101.94,0.00231455,0.0618428,20.926,49.9705,-0.32377,0.0,0.0
546,136.25,71.3725,84.6622,157.737,98.3405,101.525,0.00226322,0.0613738,20.9265,49.9805,-0.286569,0.0,0.0
548,136.75,70.3752,83.6057,155.217,98.3222,102.161,0.0022029,0.060875,20.9272,49.9705,-0.344465,0.0,0.0
550,137.25,70.2963,83.7519,157.022,98.3369,101.628,0.00215404,0.0603641,20.9279,49.9705,-0.296073,0.0,0.0
552,137.75,70.2508,83.5404,154.728,98.311,101.265,0.00211446,0.0599502,20.9285,49.9605,-0.266267,0.0,0.0
554,138.25,70.5262,83.6319,156.744,98.3337,101.611,0.00205494,0.0593741,20.929,49.9505,-0.294817,0.0,0.0
556,138.75,69.6549,82.8828,157.531,98.3174,101.945,0.00200673,0.0589075,20.9294,49.9605,-0.325806,0.0,0.0
558,139.25,69.7381,82.5878,161.021,98.3206,102.231,0.00195271,0.0584308,20.93,49.9905,-0.35077,0.0,0.0
560,139.75,69.1836,82.2381,155.128,98.3066,102.264,0.00190895,0.0580447,20.9306,49.9605,-0.354927,0.0,0.0
562,140.25,69.4538,82.43,153.732,98.3305,101.141,0.0018735,0.0577319,20.9312,49.9405,-0.253437,0.0,0.0
564,140.75,68.8658,81.5958,160.101,98.2971,102.327,0.00184479,0.0573235,20.9316,49.9605,-0.361325,0.0,0.0
566,141.25,68.8739,81.4618,156.687,98.3154,101.526,0.001844,0.0569928,20.9319,49.9705,-0.288946,0.0,0.0
568,141.75,68.7994,81.2812,163.186,98.311,102.41,0.00184335,0.0566803,20.9322,49.9905,-0.367301,0.0,0.0
570,142.25,68.5246,81.2588,154.807,98.3054,101.472,0.00186031,0.0563872,20.9327,49.9705,-0.285088,0.0,0.0
572,142.75,68.0701,80.6202,155.854,98.2895,101.48,0.00187404,0.0561052,20.9333,49.9705,-0.287262,0.0,0.0
574,143.25,67.9126,81.0376,159.562,98.3014,102.4,0.0018832,0.0558368,20.9338,49.9805,-0.367348,0.0,0.0
576,143.75,67.895,80.3975,161.597,98.2915,101.905,0.00188884,0.0555823,20.9341,49.9705,-0.324694,0.0,0.0
578,144.25,67.5357,79.7632,155.862,98.309,102.343,0.00189341,0.0553428,20.9345,49.9805,-0.36161,0.0,0.0
580,144.75,67.9344,79.5134,159.024,98.2907,101.243,0.00186965,0.0550895,20.9347,49.9805,-0.266095,0.0,0.0
582,145.25,66.7867,79.3912,159.18,98.2855,102.143,0.0018504,0.0548309,20.9349,49.9505,-0.346201,0.0,0.0
584,145.75,67.3564,78.6593,158.616,98.2795,102.431,0.00182433,0.0545845,20.9351,49.9505,-0.372034,0.0,0.0
586,146.25,67.1819,78.7531,156.003,98.2903,102.009,0.00179378,0.0543514,20.9352,49.9705,-0.333945,0.0,0.0
588,146.75,66.8061,78.588,152.176,98.2795,101.57,0.00176641,0.0541627,20.9353,49.9605,-0.296123,0.0,0.0
590,147.25,67.4049,78.7412,154.102,98.2811,100.919,0.00174187,0.0539394,20.936,49.9805,-0.238151,0.0,0.0
592,147.75,66.4819,77.9719,156.847,98.2899,102.159,0.001722,0.0537585,20.9366,49.9605,-0.347222,0.0,0.0
594,148.25,66.2588,77.9027,157.837,98.2843,101.955,0.00171463,0.0535459,20.9371,49.9505,-0.329705,0.0,0.0
596,148.75,66.0032,77.6751,159.231,98.299,101.697,0.00170867,0.0533142,20.9374,49.9605,-0.30565,0.0,0.0
598,149.25,66.1135,77.4718,159.855,98.3074,102.418,0.00170383,0.0531265,20.9377,49.9405,-0.368378,0.0,0.0
600,149.75,65.9779,77.1632,157.184,98.3026,102.494,0.00169992,0.0529181,20.938,49.9505,-0.375471,0.0,0.0
602,150.25,66.1236,76.982,158.321,98.2847,102.287,0.00167306,0.0527494,20.9382,49.9605,-0.358945,0.0,0.0
604,150.75,65.4893,76.5746,156.583,98.2875,102.364,0.0016513,0.0525141,20.9386,49.9505,-0.365473,0.0,0.0
606,151.25,65.6207,76.3201,156.291,98.2691,102.028,0.00163368,0.0523236,20.9391,49.9505,-0.33754,0.0,0.0
608,151.75,65.7746,76.0423,157.805,98.2851,101.572,0.0016194,0.0521411,20.9395,49.9705,-0.295811,0.0,0.0
610,152.25,65.2309,75.4257,159.163,98.2667,101.444,0.00155055,0.0519933,20.9399,49.9505,-0.286161,0.0,0.0
612,152.75,65.1214,75.4089,152.354,98.264,102.075,0.00149477,0.0517751,20.9403,49.9705,-0.342204,0.0,0.0
614,153.25,64.8691,75.3877,155.762,98.258,101.881,0.00142969,0.0515984,20.9405,49.9605,-0.32558,0.0,0.0
616,153.75,65.3784,75.1642,161.165,98.25,101.861,0.00137698,0.0514552,20.9408,49.9605,-0.324568,0.0,0.0
618,154.25,64.6571,75.3483,153.839,98.2333,101.664,0.00131562,0.0513392,20.9409,49.9505,-0.308734,0.0,0.0
620,154.75,64.5972,75.1343,157.344,98.2281,102.008,0.00126593,0.0512594,20.9411,49.9605,-0.339518,0.0,0.0
622,155.25,64.6822,75.0016,160.017,98.2197,101.979,0.00121076,0.0511947,20.9412,49.9505,-0.337754,0.0,0.0
624,155.75,64.0705,74.6287,165.285,98.2253,101.373,0.00116607,0.0511275,20.9413,49.9304,-0.28363,0.0,0.0
626,156.25,64.0667,74.3939,153.588,98.2209,101.972,0.00112268,0.0510597,20.9414,49.9605,-0.33705,0.0,0.0
628,156.75,64.0674,73.7206,159.279,98.2368,101.3,0.00108107,0.05099,20.9414,49.9705,-0.276161,0.0,0.0
630,157.25,63.2797,73.8883,155.053,98.2285,100.548,0.00104016,0.0509202,20.9415,49.9805,-0.209923,0.0,0.0
632,157.75,63.5983,73.9033,162.676,98.2428,101.791,0.00100056,0.0508118,20.9415,49.9705,-0.319043,0.0,0.0
634,158.25,63.9469,73.473,157.169,98.2484,102.087,0.000968483,0.0506774,20.9416,49.9705,-0.344695,0.0,0.0
636,158.75,63.5497,73.0346,156.003,98.2293,101.918,0.0009425,0.0505389,20.9416,49.9805,-0.331535,0.0,0.0
638,159.25,63.4557,72.4333,153.401,98.2169,101.977,0.000904074,0.0504001,20.9416,49.9705,-0.337851,0.0,0.0
640,159.75,63.0534,72.6074,157.016,98.2109,101.452,0.000872949,0.0502877,20.9416,49.9405,-0.292026,0.0,0.0
642,160.25,63.4018,72.4244,157.145,98.2038,101.115,0.000847737,0.0502247,20.9417,49.9505,-0.262725,0.0,0.0
644,160.75,62.5974,72.1408,158.176,98.2097,101.634,0.000827316,0.0501737,20.9419,49.9304,-0.308228,0.0,0.0
646,161.25,62.6789,72.2961,157.389,98.2002,101.497,0.000810775,0.0501102,20.9423,49.9104,-0.296948,0.0,0.0
648,161.75,62.8644,71.9121,159.541,98.2237,102.544,0.000797376,0.0500388,20.9426,49.9505,-0.387103,0.0,0.0
650,162.25,62.5827,71.8719,157.769,98.2089,102.064,0.000784041,0.0499809,20.9429,49.9505,-0.346253,0.0,0.0
652,162.75,62.4352,71.8844,156.574,98.2241,101.842,0.00077324,0.0498637,20.9431,49.9605,-0.325276,0.0,0.0
654,163.25,62.1892,71.5951,156.701,98.2045,101.741,0.000762008,0.0497688,20.9433,49.9705,-0.318186,0.0,0.0
656,163.75,62.4644,71.3227,156.222,98.2205,102.512,0.000752911,0.0496498,20.9435,49.9705,-0.384601,0.0,0.0
658,164.25,61.9344,71.3694,154.058,98.2053,102.529,0.000748155,0.0495533,20.9436,49.9505,-0.387483,0.0,0.0
660,164.75,61.863,71.1415,156.728,98.2281,101.944,0.000746654,0.0494611,20.9437,49.9304,-0.3339,0.0,0.0
662,165.25,61.9959,70.5052,157.427,98.2069,101.997,0.000745439,0.0493865,20.9437,49.9605,-0.340544,0.0,0.0
664,165.75,61.8849,70.6152,156.646,98.2293,100.995,0.000764318,0.0492838,20.9438,49.9505,-0.249729,0.0,0.0
666,166.25,62.0415,70.3517,157.483,98.2301,100.934,0.000779611,0.0492007,20.9439,49.9805,-0.244181,0.0,0.0
668,166.75,61.9718,70.3223,155.363,98.2305,102.351,0.000805728,0.0491407,20.9439,49.9405,-0.369508,0.0,0.0
670,167.25,61.6158,70.302,157.74,98.2153,101.519,0.00083924,0.0490988,20.9439,49.9204,-0.297549,0.0,0.0
672,167.75,61.738,69.9643,154.536,98.2384,101.259,0.000870964,0.0490575,20.944,49.9204,-0.27235,0.0,0.0
674,168.25,61.4746,69.8547,161.863,98.2285,101.5,0.000900782,0.0490173,20.944,49.9104,-0.294635,0.0,0.0
676,168.75,61.0049,69.393,156.654,98.2301,101.714,0.000924934,0.0489848,20.944,49.8904,-0.313391,0.0,0.0
678,169.25,61.0338,69.8147,156.746,98.2345,101.571,0.000928342,0.0489215,20.944,49.9004,-0.300405,0.0,0.0
680,169.75,61.1586,69.3752,160.271,98.2492,101.658,0.000931102,0.0488369,20.944,49.8904,-0.306719,0.0,0.0
682,170.25,60.8472,69.3397,159.365,98.2269,102.395,0.000909738,0.0487387,20.944,49.8904,-0.373699,0.0,0.0
684,170.75,60.7511,69.0089,152.317,98.2568,102.492,0.000892433,0.0486326,20.944,49.9004,-0.379469,0.0,0.0
686,171.25,60.8889,68.6149,154.841,98.2213,101.292,0.000843666,0.0485467,20.944,49.9104,-0.276828,0.0,0.0
688,171.75,60.4282,68.6542,157.234,98.2305,101.355,0.000804165,0.0484489,20.944,49.9104,-0.281563,0.0,0.0
690,172.25,60.6866,68.461,158.044,98.2181,102.348,0.000772169,0.0483698,20.944,49.9004,-0.370403,0.0,0.0
692,172.75,60.4184,68.7999,158.987,98.2297,102.339,0.000699144,0.0482775,20.9441,49.8904,-0.368556,0.0,0.0
694,173.25,59.9734,68.2872,158.511,98.2177,102.344,0.000639993,0.0482028,20.9441,49.9204,-0.370085,0.0,0.0
696,173.75,60.2635,67.9804,158.037,98.2133,101.913,0.000592081,0.0481423,20.9441,49.9204,-0.33252,0.0,0.0
698,174.25,60.2077,67.5986,157.659,98.1998,102.474,0.000546101,0.0480933,20.944,49.9204,-0.383114,0.0,0.0
700,174.75,60.4875,67.9063,155.758,98.2129,101.937,0.000502403,0.0480536,20.944,49.9204,-0.334693,0.0,0.0
702,175.25,59.9271,67.1024,163.598,98.1854,101.539,0.000478744,0.0480215,20.9439,49.9104,-0.301995,0.0,0.0
704,175.75,59.667,66.8221,154.141,98.1898,101.248,0.000470142,0.0479954,20.9439,49.9104,-0.275808,0.0,0.0
706,176.25,59.7522,67.1779,158.521,98.1699,102.117,0.000474266,0.0479743,20.9438,49.9405,-0.354535,0.0,0.0
708,176.75,59.906,66.5561,157.012,98.1703,102.052,0.000487588,0.0479646,20.9438,49.9204,-0.348728,0.0,0.0
710,177.25,59.1841,66.7183,155.309,98.142,101.693,0.000505558,0.0479634,20.9438,49.9204,-0.319597,0.0,0.0
712,177.75,59.7158,66.547,159.017,98.138,101.609,0.000526575,0.0479255,20.9442,49.9204,-0.31254,0.0,0.0
714,178.25,59.77,66.2943,160.913,98.1308,102.195,0.0005436,0.0478614,20.9446,49.9104,-0.364948,0.0,0.0
716,178.75,59.4943,66.672,155.367,98.1336,101.021,0.00055863,0.0477874,20.9449,49.8904,-0.260811,0.0,0.0
718,179.25,59.9128,66.3764,156.921,98.1292,101.94,0.000570805,0.0477074,20.9451,49.8704,-0.342601,0.0,0.0
720,179.75,59.3777,66.4082,158.663,98.1443,101.849,0.000580667,0.0476427,20.9453,49.8904,-0.333214,0.0,0.0
722,180.25,59.175,66.5102,159.369,98.1284,102.043,0.000567573,0.047534,20.9454,49.9004,-0.351813,0.0,0.0
724,180.75,58.9386,65.7545,159.885,98.1376,101.66,0.000556968,0.047446,20.9455,49.8604,-0.317101,0.0,0.0
726,181.25,59.2064,65.892,161.287,98.1292,102.198,0.00052607,0.0473466,20.9456,49.8504,-0.365371,0.0,0.0
728,181.75,59.1187,66.2925,156.01,98.1268,102.166,0.000501042,0.0472661,20.9457,49.8804,-0.362747,0.0,0.0
730,182.25,59.2726,65.6284,154.537,98.12,101.767,0.000472098,0.0472009,20.946,49.8704,-0.328191,0.0,0.0
732,182.75,59.1888,65.854,160.015,98.1172,101.55,0.000448653,0.0471481,20.9465,49.9004,-0.309276,0.0,0.0
734,183.25,58.8772,65.452,155.634,98.1184,101.352,0.000440812,0.0471053,20.9468,49.9204,-0.291627,0.0,0.0
736,183.75,58.5823,65.6614,158.472,98.1124,102.592,0.000434462,0.0470847,20.9471,49.8904,-0.401503,0.0,0.0
738,184.25,58.5319,65.2451,159.855,98.1136,101.821,0.000442949,0.047068,20.9474,49.9104,-0.333571,0.0,0.0
740,184.75,58.6711,64.9505,155.961,98.1096,101.89,,0.0470323,,49.9104,-0.339958,0.0,0.0
742,185.25,58.5097,64.8114,161.186,98.1116,101.099,,0.0469834,,49.8904,-0.269767,0.0,0.0
744,185.75,59.0207,64.505,159.221,98.1132,101.653,,0.0469297,,49.8904,-0.318696,0.0,0.0
746,186.25,58.7749,64.719,158.624,98.1244,101.678,,0.0468863,,49.8804,-0.319895,0.0,0.0
748,186.75,58.6258,64.7005,156.028,98.1105,101.876,,0.0468651,,49.8704,-0.338736,0.0,0.0
750,187.25,58.2824,64.5967,157.276,98.1224,101.737,,0.046848,,49.8404,-0.325274,0.0,0.0
752,187.75,58.6179,64.1558,155.717,98.1184,102.302,,,,49.8804,-0.375512,0.0,0.0
754,188.25,58.2321,63.9039,159.014,98.1272,101.812,,,,49.8804,-0.331496,0.0,0.0
756,188.75,58.0039,64.3676,155.335,98.1164,101.689,,,,49.9104,-0.321617,0.0,0.0
758,189.25,58.0571,63.5543,155.598,98.1176,103.015,,,,49.9004,-0.437999,0.0,0.0
760,189.75,58.3481,63.8471,158.164,98.12,102.527,,,,49.8904,-0.395103,0.0,0.0
762,190.25,57.863,63.6511,156.259,98.1308,102.67,,,,49.8904,-0.406623,0.0,0.0
764,190.75,58.3294,63.6303,155.678,98.1268,101.268,,,,49.8904,-0.283372,0.0,0.0
766,191.25,58.2291,63.6795,159.889,98.1312,101.608,,,,49.9004,-0.313081,0.0,0.0
768,191.75,57.7282,63.6891,156.889,98.132,101.451,,,,49.8604,-0.299099,0.0,0.0
770,192.25,57.6498,63.1685,160.836,98.1372,101.653,,,,49.8404,-0.316543,0.0,0.0
772,192.75,57.4433,63.6163,154.901,98.122,101.251,,,,49.8704,-0.282336,0.0,0.0
774,193.25,57.4015,63.2325,159.127,98.114,101.514,,,,49.8604,-0.306349,0.0,0.0
776,193.75,57.5459,63.272,155.309,98.1184,101.109,,,,49.8604,-0.269984,0.0,0.0
778,194.25,57.5335,63.03,158.522,98.118,101.652,,,,49.8404,-0.318217,0.0,0.0
780,194.75,57.2727,62.9535,160.007,98.118,100.77,,,,49.8604,-0.239801,0.0,0.0
782,195.25,57.8675,62.5836,156.944,98.1304,100.648,,,,49.8504,-0.227852,0.0,0.0
783,195.5,57.2953,62.7305,159.636,98.1328,101.206,,,,49.8604,-0.277324,0.0,0.0