File: 01_Data/Memory_Foam_Carpet_Pad/Cone/Memory_Foam_Carpet_Pad_Cone_HF75Scan_220922_R3.csv
Names,Time,Stack TC,Smoke TC,Exh Press,Smoke Comp,Smoke Meas,CO Meter,CO2 Meter,O2 Meter,Sample Mass,Ext Coeff,Start Test,Flame Verif
Chan Gain,,500,500,1,1,1,1,1,1,1,1,1.0,1.0
Offset,,0,0,0.141977,0,0,0,0,0,0,0,0.0,0.0
Gain,,1,1,25.011,13.065,14.7021,1,1,1,1.00081,1.02518,1.0,1.0
Units,sec,C,C,Pa,%,%,%,%,%,g,/m,,
Baseline,,65.78,67.1178,151.17,98.7583,104.142,-0.000192023,0.0457233,20.9498,-446.339,-0.477244,,
2,0.25,64.7484,65.3955,158.045,99.2137,103.883,0.00126339,0.0653814,20.922,61.8201,-0.413531,0.0,0.0
4,0.75,63.6115,64.9161,151.714,99.2276,99.499,0.0019594,0.0759538,20.9013,61.8101,-0.0245567,0.0,0.0
6,1.25,63.0754,64.3651,143.457,99.2149,90.189,0.00308124,0.0845176,20.8846,61.8201,0.857738,0.0,1.0
8,1.75,63.1483,64.2509,139.262,99.2217,85.3546,0.00398993,0.108657,20.8459,61.75,1.3538,0.0,1.0
10,2.25,63.1408,64.3057,133.869,99.2065,81.7885,0.00472597,0.128209,20.8146,61.7,1.73621,0.0,1.0
12,2.75,63.5273,64.2232,131.855,99.2097,81.3502,0.00613954,0.154493,20.7544,61.5599,1.78483,0.0,1.0
14,3.25,63.9913,65.0294,135.937,99.1973,78.3687,0.00760409,0.185185,20.7056,61.4998,2.11948,0.0,1.0
16,3.75,64.6412,64.914,125.858,99.2053,76.6921,0.00907799,0.217193,20.644,61.4198,2.31469,0.0,1.0
18,4.25,64.2094,65.3274,133.172,99.1814,74.2836,0.0105642,0.249552,20.5941,61.3697,2.59947,0.0,1.0
20,4.75,65.2388,65.8182,134.509,99.1838,73.7003,0.0120311,0.275763,20.5326,61.2796,2.67058,0.0,1.0
22,5.25,66.0373,65.9944,131.872,99.1591,71.3623,0.0132193,0.31312,20.4828,61.2296,2.95824,0.0,1.0
24,5.75,66.3519,66.5089,127.27,99.1603,69.2907,0.0145639,0.34338,20.4425,61.1295,3.22326,0.0,1.0
26,6.25,66.0234,65.5497,126.858,99.1439,70.163,0.0159969,0.377332,20.3942,61.0595,3.10928,0.0,1.0
28,6.75,66.7731,65.9283,126.665,99.1415,74.9045,0.0173932,0.404834,20.355,60.9794,2.52099,0.0,1.0
30,7.25,67.1562,66.143,125.638,99.1052,71.2887,0.0187362,0.435824,20.3108,60.8893,2.96264,0.0,0.0
32,7.75,67.7621,66.7818,126.157,99.1124,67.8694,0.0200405,0.460927,20.275,60.7993,3.40531,0.0,0.0
34,8.25,68.3666,67.641,128.839,99.1044,66.4017,0.021292,0.491996,20.2321,60.6992,3.60118,0.0,0.0
36,8.75,69.2402,68.4899,128.289,99.0857,70.412,0.0224782,0.517162,20.1973,60.5991,3.07214,0.0,0.0
38,9.25,69.6917,69.0125,121.09,99.071,65.8351,0.0235944,0.537546,20.1491,60.529,3.67522,0.0,0.0
40,9.75,70.6745,69.3638,130.368,99.067,69.0727,0.024658,0.56583,20.11,60.4189,3.24314,0.0,0.0
42,10.25,71.3458,70.2924,122.078,99.0391,70.0068,0.0256632,0.58874,20.0644,60.3489,3.1198,0.0,0.0
44,10.75,72.271,70.7638,126.112,99.0371,66.1949,0.0266223,0.616217,20.0275,60.1788,3.62312,0.0,0.0
46,11.25,72.9553,71.6065,121.753,99.0123,65.6565,0.0275296,0.638473,19.9833,60.0987,3.69432,0.0,0.0
48,11.75,73.5067,72.1259,128.535,99.0036,68.7519,0.0282644,0.665476,19.9475,59.9986,3.27925,0.0,0.0
50,12.25,74.3067,72.8897,119.971,98.9701,68.1511,0.0288597,0.687348,19.9185,59.9285,3.35513,0.0,0.0
52,12.75,75.4188,73.4781,112.897,98.9685,67.6517,0.029934,0.715644,19.895,59.7784,3.42112,0.0,0.0
54,13.25,76.2899,74.3779,120.132,98.9378,66.1918,0.0308042,0.738565,19.876,59.6583,3.61453,0.0,0.0
56,13.75,77.1219,75.4299,116.964,98.939,68.9646,0.031509,0.770109,19.8445,59.5482,3.2456,0.0,0.0
58,14.25,77.8634,76.141,117.403,98.9127,64.5631,0.0325524,0.79566,19.819,59.4281,3.83629,0.0,0.0
60,14.75,78.7111,77.2923,109.211,98.8999,64.8668,0.0338228,0.829557,19.7826,59.288,3.79292,0.0,0.0
62,15.25,79.906,77.7822,114.669,98.8692,66.3259,0.0351337,0.868893,19.7532,59.1479,3.59009,0.0,0.0
64,15.75,80.64,78.6167,114.438,98.862,63.5608,0.0364492,0.900756,19.6971,59.0278,3.97239,0.0,0.0
66,16.25,81.5857,79.6233,108.562,98.8265,64.4787,0.0375148,0.926564,19.6517,58.8577,3.84021,0.0,0.0
68,16.75,82.8294,80.7546,101.628,98.819,64.503,0.0387143,0.980237,19.5678,58.7176,3.83614,0.0,0.0
70,17.25,84.3732,81.9526,96.2404,98.7978,60.4003,0.039686,1.0532,19.4574,58.5474,4.4252,0.0,0.0
72,17.75,85.7954,83.4666,96.5403,98.8006,64.1108,0.0406709,1.11231,19.3399,58.3473,3.88931,0.0,0.0
74,18.25,87.4933,84.295,101.15,98.7918,64.1445,0.0414687,1.18555,19.2195,58.2272,3.88379,0.0,0.0
76,18.75,89.2994,86.0169,94.262,98.8158,64.8525,0.0421938,1.24488,19.1099,58.037,3.78726,0.0,0.0
78,19.25,90.9873,87.3679,93.1277,98.809,62.4759,0.042781,1.31162,19.0104,57.8669,4.12239,0.0,0.0
80,19.75,92.7479,88.9763,102.375,98.8429,65.1809,0.0432567,1.36568,18.9297,57.7568,3.7443,0.0,0.0
82,20.25,94.6012,90.8076,102.429,98.8261,63.524,0.0436982,1.42314,18.8461,57.5867,3.97433,0.0,0.0
84,20.75,96.5698,92.1131,104.607,98.8529,65.0961,0.0440557,1.46968,18.7783,57.4666,3.75691,0.0,0.0
86,21.25,97.7847,94.099,96.1663,98.8417,65.6296,0.0444457,1.52134,18.7135,57.2364,3.6825,0.0,0.0
88,21.75,99.4517,95.1728,97.1296,98.8652,66.784,0.0447616,1.56318,18.6521,57.0762,3.52783,0.0,0.0
90,22.25,100.356,97.2612,98.1058,98.8636,65.2446,0.0451851,1.60759,18.6023,56.9762,3.7374,0.0,0.0
92,22.75,102.192,98.8952,92.395,98.8776,67.0833,0.0455282,1.65304,18.5356,56.746,3.48874,0.0,0.0
94,23.25,103.957,100.423,83.3242,98.8796,65.8997,0.0458061,1.68985,18.4816,56.5958,3.64901,0.0,0.0
96,23.75,105.631,102.424,84.8744,98.9043,65.8041,0.0463253,1.74573,18.3917,56.3456,3.66431,0.0,0.0
98,24.25,107.379,103.799,96.29,98.9099,66.0222,0.0467459,1.79098,18.3189,56.2155,3.63506,0.0,0.0
100,24.75,108.865,105.902,99.0378,98.9258,66.1985,0.0473517,1.84303,18.2124,56.0554,3.61253,0.0,0.0
102,25.25,111.114,107.262,79.4697,98.9163,65.2639,0.0478424,1.89903,18.1262,55.8352,3.73952,0.0,0.0
104,25.75,112.739,109.482,91.4791,98.9462,68.0116,0.048491,1.96643,18.0248,55.6851,3.37139,0.0,0.0
106,26.25,114.489,111.467,87.9298,98.9525,66.6988,0.0490163,2.04086,17.9142,55.4349,3.54725,0.0,0.0
108,26.75,116.943,113.58,81.6832,98.9633,66.4264,0.0494418,2.10115,17.8246,55.2147,3.58502,0.0,0.0
110,27.25,118.973,115.212,94.0666,98.996,66.3129,0.0500748,2.20207,17.6759,55.0746,3.60338,0.0,0.0
112,27.75,121.233,117.378,77.1974,98.9904,66.7167,0.0505876,2.28381,17.5555,54.7944,3.54827,0.0,0.0
114,28.25,123.453,120.157,75.6022,99.0099,68.6675,0.0510937,2.40488,17.4141,54.6142,3.29087,0.0,0.0
116,28.75,125.688,122.171,60.7351,99.0183,73.1525,0.0515037,2.50295,17.2601,54.3741,2.72266,0.0,0.0
118,29.25,128.211,124.798,62.3571,99.0391,73.4298,0.0518248,2.62489,17.0859,54.0938,2.69052,0.0,0.0
120,29.75,130.624,127.651,73.3849,99.0402,73.1538,0.0520849,2.76191,16.9002,53.8436,2.72448,0.0,0.0
122,30.25,133.281,130.466,67.3786,99.0598,72.8622,0.0522361,2.87289,16.6186,53.5934,2.76218,0.0,0.0
124,30.75,136.642,133.482,68.5404,99.0634,76.5759,0.0523388,3.04818,16.3904,53.3933,2.31545,0.0,0.0
126,31.25,139.829,135.844,65.3957,99.0933,77.5338,0.0524042,3.19016,16.1004,53.073,2.20637,0.0,0.0
128,31.75,143.291,140.29,70.8248,99.112,74.586,0.0524572,3.37621,15.8655,52.8328,2.55664,0.0,0.0
130,32.25,146.505,143.708,63.6096,99.1272,77.0057,0.0525596,3.52691,15.626,52.6026,2.27091,0.0,0.0
132,32.75,149.926,147.519,68.5175,99.1399,79.149,0.0526425,3.72126,15.3876,52.2623,2.02519,0.0,0.0
134,33.25,153.253,151.385,54.3969,99.1595,74.7134,0.0527096,3.87868,15.1945,51.9121,2.5456,0.0,0.0
136,33.75,156.963,155.227,73.8474,99.1666,80.4439,0.0531677,4.07201,14.9886,51.792,1.88168,0.0,0.0
138,34.25,160.654,159.382,75.2274,99.187,81.911,0.0535387,4.2286,14.7773,51.3116,1.72099,0.0,0.0
140,34.75,164.037,163.577,61.3885,99.2041,83.4253,0.0541007,4.41804,14.6061,51.1514,1.55781,0.0,0.0
142,35.25,167.801,167.722,67.8542,99.2213,84.6555,0.0547911,4.57148,14.3827,50.8812,1.42772,0.0,0.0
144,35.75,171.59,172.175,47.5175,99.2292,84.6708,0.0555739,4.73589,14.2017,50.5409,1.42682,0.0,0.0
146,36.25,175.348,176.703,63.0265,99.256,85.473,0.056409,4.90517,14.0551,50.2507,1.34444,0.0,0.0
148,36.75,178.986,181.044,64.1744,99.2671,81.2676,0.0570855,5.04229,13.85,49.9605,1.79916,0.0,0.0
150,37.25,182.493,186.002,59.0544,99.2926,89.569,0.0577633,5.18939,13.6838,49.6202,0.926823,0.0,0.0
152,37.75,186.266,190.393,59.4131,99.299,90.7552,0.0584294,5.34098,13.5454,49.4501,0.809078,0.0,0.0
154,38.25,189.765,195.137,61.419,99.3245,84.9485,0.0589689,5.46356,13.4333,49.0898,1.406,0.0,0.0
156,38.75,193.796,199.562,56.8119,99.3373,83.834,0.0591992,5.56267,13.3425,48.8696,1.52592,0.0,0.0
158,39.25,197.477,205.019,52.8283,99.3532,79.8175,0.0593858,5.64295,13.269,48.6094,1.96888,0.0,0.0
160,39.75,201.767,209.962,67.4779,99.3784,80.5628,0.059088,5.70798,13.2094,48.4993,1.88758,0.0,0.0
162,40.25,204.269,214.672,68.2793,99.4019,73.0793,0.0588468,5.67511,13.1612,48.2091,2.76642,0.0,0.0
164,40.75,207.637,218.656,78.163,99.4091,71.0778,0.0581295,5.64849,13.1221,48.099,3.0168,0.0,0.0
166,41.25,210.208,222.914,71.7812,99.4406,70.6686,0.0570788,5.51954,13.3255,47.8187,3.07157,0.0,0.0
168,41.75,212.86,226.644,64.882,99.4441,67.4081,0.0562278,5.41509,13.4903,47.6986,3.49668,0.0,0.0
170,42.25,214.823,229.683,82.5648,99.4721,65.4806,0.0543581,5.19365,13.8347,47.5485,3.7601,0.0,0.0
172,42.75,216.371,233.688,89.0343,99.4772,61.985,0.0528437,5.01429,14.1137,47.4785,4.25393,0.0,0.0
174,43.25,216.881,236.741,90.9493,99.5055,64.2575,0.0501935,4.781,14.4527,47.3684,3.93269,0.0,0.0
176,43.75,217.421,239.358,97.2273,99.5051,64.5931,0.0480468,4.51284,14.8292,47.2983,3.88581,0.0,0.0
178,44.25,217.482,242.387,116.017,99.5354,66.9743,0.0454096,4.29563,15.1341,47.2383,3.56301,0.0,0.0
180,44.75,216.977,243.388,116.564,99.5386,67.1708,0.0424649,3.94759,15.6458,47.1882,3.53695,0.0,0.0
182,45.25,215.981,244.839,119.578,99.5701,75.5089,0.0400797,3.66569,16.0602,47.1782,2.48752,0.0,0.0
184,45.75,214.34,244.377,130.92,99.5634,86.8155,0.0366688,3.32237,16.4834,47.2082,1.2321,0.0,0.0
186,46.25,212.409,244.14,133.748,99.5953,96.3915,0.0339061,3.04427,16.9048,47.2183,0.294037,0.0,0.0
188,46.75,210.522,243.216,138.817,99.5833,102.417,0.0307964,2.77024,17.3084,47.1982,-0.252336,0.0,0.0
190,47.25,208.403,241.674,139.573,99.6196,104.459,0.0282776,2.50438,17.6913,47.1882,-0.42655,0.0,0.0
192,47.75,206.409,240.32,140.476,99.6108,104.868,0.0262374,2.28903,18.0014,47.2082,-0.462538,0.0,0.0
194,48.25,203.241,238.614,143.199,99.6339,104.382,0.0238326,2.0253,18.3064,47.2082,-0.418646,0.0,0.0
196,48.75,201.596,236.329,145.234,99.6323,105.161,0.0218846,1.81169,18.6018,47.1982,-0.485684,0.0,0.0
198,49.25,199.139,234.928,142.064,99.6674,105.969,0.020042,1.6171,18.8742,47.1782,-0.551316,0.0,0.0
200,49.75,195.665,231.377,144.194,99.6411,106.092,0.0185494,1.44008,19.1249,47.1682,-0.564117,0.0,0.0
202,50.25,192.78,229.519,148.277,99.6694,106.496,0.0172133,1.28141,19.3453,47.1482,-0.595726,0.0,0.0
204,50.75,190.652,227.289,149.959,99.6706,106.047,0.0161311,1.13913,19.5396,47.1382,-0.55765,0.0,0.0
206,51.25,189.304,225.622,146.204,99.6949,105.561,0.0152073,1.02388,19.6969,47.1582,-0.514194,0.0,0.0
208,51.75,186.696,223.622,144.926,99.6519,106.199,0.0144591,0.909767,19.8566,47.1482,-0.572193,0.0,0.0
210,52.25,184.528,221.369,144.628,99.683,106.074,0.0138379,0.817332,19.986,47.1582,-0.558818,0.0,0.0
212,52.75,182.413,219.909,144.069,99.6682,105.245,0.0133212,0.72998,20.1069,47.1382,-0.489579,0.0,0.0
214,53.25,180.478,218.097,145.688,99.6953,105.882,0.0128868,0.659225,20.2048,47.1282,-0.541408,0.0,0.0
216,53.75,178.894,216.026,145.354,99.6742,105.522,0.0125207,0.596942,20.2953,47.1182,-0.512739,0.0,0.0
218,54.25,177.199,214.114,147.028,99.6798,106.062,0.0122241,0.54202,20.3686,47.1182,-0.558079,0.0,0.0
220,54.75,175.357,211.889,146.006,99.6774,106.019,0.0119839,0.494043,20.428,47.1282,-0.554641,0.0,0.0
222,55.25,173.358,210.865,145.44,99.6746,106.812,0.0117425,0.452041,20.4846,47.1382,-0.621968,0.0,0.0
224,55.75,171.568,209.058,148.981,99.6786,106.187,0.0115469,0.415493,20.5305,47.1082,-0.568832,0.0,0.0
226,56.25,170.188,207.915,148.667,99.669,106.447,0.0113585,0.383614,20.5708,47.1082,-0.591631,0.0,0.0
228,56.75,168.436,205.885,149.606,99.6606,105.458,0.0112059,0.357793,20.6062,47.1082,-0.508454,0.0,0.0
230,57.25,166.542,204.143,144.627,99.6614,106.343,0.0110706,0.332629,20.6368,47.0681,-0.583593,0.0,0.0
232,57.75,165.526,202.507,145.226,99.6559,105.799,0.0109609,0.312247,20.6633,47.0581,-0.537955,0.0,0.0
234,58.25,163.857,200.582,147.243,99.6423,106.181,0.0108708,0.295737,20.6872,47.0481,-0.571536,0.0,0.0
236,58.75,162.13,199.405,144.902,99.624,105.135,0.0107965,0.280248,20.7086,47.0681,-0.484176,0.0,0.0
238,59.25,160.575,197.715,148.433,99.6268,105.797,0.0107272,0.265797,20.7259,47.0481,-0.540353,0.0,0.0
240,59.75,159.697,196.337,144.231,99.598,105.669,0.0106711,0.253071,20.7411,47.0481,-0.532069,0.0,0.0
242,60.25,157.922,195.115,145.823,99.5949,105.672,0.0106257,0.241844,20.7545,47.0381,-0.532662,0.0,0.0
244,60.75,156.361,193.637,146.141,99.5713,105.202,0.0105745,0.231886,20.7662,47.0381,-0.494682,0.0,0.0
246,61.25,155.257,191.854,144.16,99.5789,105.985,0.0105201,0.223043,20.7764,47.0081,-0.560676,0.0,0.0
248,61.75,153.81,190.321,144.08,99.5498,105.984,0.010476,0.215145,20.7847,46.9881,-0.563229,0.0,0.0
250,62.25,152.447,188.537,147.601,99.5271,105.692,0.0104103,0.208088,20.7921,47.0081,-0.540427,0.0,0.0
252,62.75,151.492,187.923,145.633,99.5095,105.538,0.0103572,0.202371,20.7987,47.0081,-0.528946,0.0,0.0
254,63.25,149.964,186.215,145.989,99.5024,104.881,0.0102894,0.196751,20.8045,46.9881,-0.473411,0.0,0.0
256,63.75,149.055,184.839,148.919,99.4816,105.297,0.0102345,0.191309,20.8097,47.0081,-0.510877,0.0,0.0
258,64.25,147.816,183.485,146.426,99.4721,105.828,0.0101589,0.186236,20.8145,46.9981,-0.557036,0.0,0.0
260,64.75,146.753,182.495,146.174,99.4509,105.731,0.0100976,0.181529,20.8191,46.9781,-0.550669,0.0,0.0
262,65.25,145.308,180.806,144.381,99.4258,105.817,0.0100227,0.177716,20.8229,46.9781,-0.560265,0.0,0.0
264,65.75,144.138,179.421,148.026,99.4122,105.422,0.00993934,0.173459,20.8268,46.9881,-0.527873,0.0,0.0
266,66.25,143.336,178.5,151.134,99.3987,105.022,0.00987177,0.17001,20.8299,46.9781,-0.494896,0.0,0.0
268,66.75,142.39,177.306,145.246,99.3732,106.021,0.00976909,0.166361,20.8332,46.968,-0.582358,0.0,0.0
270,67.25,140.737,176.297,148.3,99.3624,105.23,0.00968591,0.163406,20.8365,46.9781,-0.515948,0.0,0.0
272,67.75,140.454,175.417,146.751,99.3365,105.141,0.00957193,0.160578,20.8394,46.968,-0.51066,0.0,0.0
274,68.25,139.242,173.613,149.771,99.3002,106.155,0.00947961,0.157897,20.8419,46.968,-0.600259,0.0,0.0
276,68.75,138.05,172.694,145.77,99.2803,105.794,0.00940483,0.155725,20.844,46.968,-0.571492,0.0,0.0
278,69.25,137.258,171.276,148.7,99.2575,105.437,0.00926024,0.153011,20.8466,46.968,-0.543142,0.0,0.0
280,69.75,136.108,170.468,146.671,99.2316,105.851,0.00914312,0.150814,20.8487,46.9881,-0.580704,0.0,0.0
282,70.25,135.04,168.991,150.654,99.2105,105.511,0.00896958,0.148257,20.8508,46.9781,-0.553717,0.0,0.0
284,70.75,134.165,167.95,144.901,99.1742,105.029,0.008829,0.146186,20.853,46.9881,-0.515803,0.0,0.0
286,71.25,133.236,166.706,145.607,99.1515,104.722,0.00864562,0.14404,20.855,46.968,-0.49151,0.0,0.0
288,71.75,132.264,165.733,144.422,99.1284,105.283,0.00846326,0.141879,20.8568,46.958,-0.541679,0.0,0.0
290,72.25,131.416,164.624,147.028,99.0989,105.726,0.0082851,0.140129,20.8588,46.948,-0.582103,0.0,0.0
292,72.75,130.184,163.699,148.287,99.0634,105.112,0.00810636,0.137909,20.8603,46.9881,-0.532964,0.0,0.0
294,73.25,129.634,162.848,146.361,99.0331,104.935,0.00793057,0.136111,20.862,46.958,-0.520578,0.0,0.0
296,73.75,128.718,161.521,146.721,98.99,104.736,0.00778819,0.134117,20.8634,46.938,-0.507401,0.0,0.0
298,74.25,127.889,160.446,151.231,98.9796,104.945,0.00759986,0.132501,20.865,46.928,-0.526277,0.0,0.0
300,74.75,126.846,159.513,148.778,98.9294,105.01,0.0074473,0.13064,20.8667,46.918,-0.536454,0.0,0.0
302,75.25,125.965,158.501,148.623,98.9075,105.374,0.00732374,0.129133,20.8681,46.918,-0.569517,0.0,0.0
304,75.75,125.799,157.856,147.349,98.8816,105.389,0.00717454,0.127433,20.8693,46.888,-0.573175,0.0,0.0
306,76.25,124.526,156.813,149.975,98.8325,105.575,0.0070095,0.126056,20.8702,46.908,-0.593511,0.0,0.0
308,76.75,123.904,155.547,144.266,98.8046,104.525,0.00684359,0.124332,20.8709,46.908,-0.506096,0.0,0.0
310,77.25,123.299,154.774,144.722,98.7755,104.519,0.00668021,0.122936,20.8724,46.918,-0.508283,0.0,0.0
312,77.75,122.42,153.398,151.914,98.7552,105.55,0.00661055,0.121417,20.873,46.888,-0.598411,0.0,0.0
314,78.25,121.663,152.805,146.932,98.7157,105.164,0.00644432,0.119836,20.8746,46.888,-0.56907,0.0,0.0
316,78.75,120.992,152.291,148.845,98.6746,104.789,0.00630966,0.118557,20.8763,46.878,-0.540643,0.0,0.0
318,79.25,120.344,151.16,145.026,98.6435,104.485,0.00616116,0.117034,20.8781,46.878,-0.517372,0.0,0.0
320,79.75,119.797,150.159,144.475,98.6264,104.655,0.00604086,0.115363,20.88,46.868,-0.53352,0.0,0.0
322,80.25,118.944,149.279,149.418,98.5817,104.761,0.00591868,0.114009,20.8818,46.848,-0.546726,0.0,0.0
324,80.75,118.175,148.335,148.045,98.5622,105.276,0.00579744,0.113083,20.8835,46.858,-0.592614,0.0,0.0
326,81.25,117.029,147.502,149.798,98.5307,104.52,0.00567518,0.1115,20.8848,46.858,-0.530676,0.0,0.0
328,81.75,116.691,146.745,145.469,98.4944,104.494,0.0055545,0.109937,20.8868,46.868,-0.53171,0.0,0.0
330,82.25,116.456,146.037,142.406,98.4641,105.238,0.00545676,0.10842,20.8884,46.848,-0.59831,0.0,0.0
332,82.75,115.469,144.726,146.378,98.4402,104.569,0.0053429,0.106888,20.8897,46.848,-0.543185,0.0,0.0
334,83.25,114.558,144.211,150.851,98.3987,104.305,0.00521945,0.105375,20.8908,46.8379,-0.524219,0.0,0.0
336,83.75,114.074,143.476,146.576,98.3828,104.914,0.00511945,0.103885,20.8921,46.8379,-0.578017,0.0,0.0
338,84.25,113.864,142.402,146.281,98.3473,104.085,0.00503846,0.102441,20.8931,46.848,-0.509908,0.0,0.0
340,84.75,113.177,141.924,146.706,98.3246,104.72,0.00489948,0.101271,20.8939,46.8179,-0.56671,0.0,0.0
342,85.25,112.157,141.195,146.916,98.2891,104.648,0.00475632,0.0996497,20.8945,46.8179,-0.563751,0.0,0.0
344,85.75,111.654,140.227,150.407,98.2739,104.246,0.00461285,0.0983367,20.8955,46.8179,-0.530562,0.0,0.0
346,86.25,110.905,139.573,149.377,98.24,103.586,0.00449663,0.0972732,20.8967,46.848,-0.476549,0.0,0.0
348,86.75,111.026,138.619,148.774,98.2125,103.765,0.00435205,0.0958399,20.8981,46.8379,-0.494557,0.0,0.0
350,87.25,109.954,138.006,146.604,98.1842,104.325,0.00423494,0.0941643,20.8997,46.8379,-0.545547,0.0,0.0
352,87.75,109.649,137.02,147.492,98.1635,104.192,0.00411556,0.092807,20.901,46.8279,-0.53599,0.0,0.0
354,88.25,108.889,136.44,147.157,98.1356,103.96,0.00399678,0.0911655,20.9029,46.8079,-0.518466,0.0,0.0
356,88.75,108.47,135.837,148.026,98.1168,104.099,0.00387673,0.0898358,20.9045,46.8179,-0.532206,0.0,0.0
358,89.25,108.052,135.208,149.709,98.0925,104.272,0.00375804,0.088203,20.9062,46.8079,-0.549385,0.0,0.0
360,89.75,106.991,134.477,149.677,98.0917,104.337,0.0036619,0.0868805,20.9076,46.8079,-0.555067,0.0,0.0
362,90.25,106.686,133.435,147.535,98.0566,103.546,0.00350491,0.085547,20.9089,46.8179,-0.489886,0.0,0.0
364,90.75,106.209,132.89,146.958,98.0395,103.948,0.00337774,0.0842309,20.9103,46.8079,-0.526305,0.0,0.0
366,91.25,105.473,132.602,149.057,98.0223,104.374,0.00321957,0.0829628,20.9113,46.8079,-0.564639,0.0,0.0
368,91.75,105.134,131.721,148.078,98.0195,104.504,0.00309146,0.0817538,20.9131,46.8079,-0.576098,0.0,0.0
370,92.25,104.791,130.962,150.08,98.0012,104.048,0.00296923,0.0807745,20.9145,46.7879,-0.538429,0.0,0.0
372,92.75,104.289,130.282,148.114,97.9928,103.931,0.00285362,0.0794841,20.9161,46.7679,-0.529071,0.0,0.0
374,93.25,103.68,129.371,146.89,97.9693,103.879,0.00275669,0.0784388,20.9174,46.7579,-0.526764,0.0,0.0
376,93.75,103.429,128.841,148.345,97.9793,104.414,0.0026752,0.0773905,20.9189,46.7679,-0.572031,0.0,0.0
378,94.25,102.616,128.513,149.252,97.9677,104.198,0.00261052,0.0763599,20.9204,46.7979,-0.554485,0.0,0.0
380,94.75,102.261,127.867,150.483,97.951,104.113,0.00255931,0.0753534,20.9217,46.7879,-0.548662,0.0,0.0
382,95.25,101.946,127.026,150.054,97.9358,103.616,0.00251032,0.0743836,20.9229,46.7879,-0.50701,0.0,0.0
384,95.75,101.21,126.436,149.111,97.9649,103.886,0.00247064,0.0734266,20.9238,46.7779,-0.527749,0.0,0.0
386,96.25,101.427,125.589,148.313,97.9438,104.682,0.0024385,0.072497,20.9245,46.7679,-0.598327,0.0,0.0
388,96.75,100.93,124.739,150.05,97.947,104.279,0.0023822,0.0716173,20.9251,46.7779,-0.563356,0.0,0.0
390,97.25,100.186,124.379,149.427,97.9482,103.588,0.00230935,0.0707907,20.926,46.7679,-0.503461,0.0,0.0
392,97.75,99.4212,123.553,146.513,97.9569,104.213,0.00221947,0.0699871,20.9268,46.7779,-0.55675,0.0,0.0
394,98.25,99.1707,123.438,145.578,97.9402,103.712,0.00211887,0.0692154,20.9274,46.7979,-0.514898,0.0,0.0
396,98.75,98.9251,122.438,145.651,97.9641,103.973,0.00203739,0.0684713,20.9279,46.7979,-0.535354,0.0,0.0
398,99.25,98.6997,121.837,150.041,97.9569,103.835,0.00192776,0.0677613,20.9285,46.7879,-0.524053,0.0,0.0
400,99.75,97.8435,121.72,147.754,97.9789,103.997,0.00183896,0.0671862,20.9293,46.7979,-0.536057,0.0,0.0
402,100.25,97.9296,121.153,146.134,97.9769,104.378,0.00172594,0.066564,20.9301,46.8079,-0.569157,0.0,0.0
404,100.75,97.3324,120.177,147.778,97.9972,104.294,0.00161737,0.0659195,20.931,46.8079,-0.56006,0.0,0.0
406,101.25,97.2179,119.66,147.725,98,103.387,0.00151411,0.0653974,20.9317,46.7979,-0.481197,0.0,0.0
408,101.75,96.6473,119.327,144.872,98.014,103.739,0.00141412,0.0647625,20.9323,46.7879,-0.510501,0.0,0.0
410,102.25,96.1727,118.398,150.004,98.0191,104.3,0.00136375,0.0642482,20.9327,46.7879,-0.558512,0.0,0.0
412,102.75,95.6753,118.105,146.855,98.0423,104.319,0.00127761,0.063648,20.9336,46.7879,-0.558054,0.0,0.0
414,103.25,95.3206,118.257,146.793,98.0606,103.609,0.00119738,0.0631618,20.9342,46.7879,-0.494974,0.0,0.0
416,103.75,95.1316,116.994,147.964,98.0981,104.109,0.00112298,0.0625421,20.9348,46.8079,-0.534777,0.0,0.0
418,104.25,94.8085,116.192,146.416,98.0981,104.016,0.00106467,0.0620401,20.9352,46.7979,-0.526751,0.0,0.0
420,104.75,94.1219,116.429,150.862,98.1184,104.733,0.00101921,0.0614641,20.9356,46.7879,-0.5867,0.0,0.0
422,105.25,94.0025,115.645,149.651,98.1415,103.31,0.000986309,0.0612185,20.9359,46.8079,-0.461504,0.0,0.0
424,105.75,93.6178,115.452,150.418,98.1555,104.863,0.000963188,0.0607392,20.9361,46.7879,-0.59443,0.0,0.0
426,106.25,93.2277,114.431,148.357,98.1818,104.801,0.00094446,0.0602975,20.9367,46.8079,-0.586745,0.0,0.0
428,106.75,93.0429,114.202,149.57,98.2165,104.1,0.00092929,0.0599397,20.9372,46.7879,-0.523192,0.0,0.0
430,107.25,92.6908,113.866,148.844,98.2364,104.115,0.000913277,0.0596076,20.9374,46.7879,-0.522645,0.0,0.0
432,107.75,92.656,112.995,148.362,98.2536,104.165,0.000900306,0.0593385,20.9372,46.7779,-0.525416,0.0,0.0
434,108.25,92.0547,112.993,152.275,98.2747,104.802,0.000883265,0.0590078,20.937,46.7579,-0.578279,0.0,0.0
436,108.75,92.1718,112.304,148.049,98.3086,103.935,0.000872904,0.0587398,20.9369,46.7879,-0.500449,0.0,0.0
438,109.25,91.498,111.708,147.973,98.3313,104.773,0.000851268,0.0585228,20.9369,46.7879,-0.570635,0.0,0.0
440,109.75,90.7459,111.032,148.387,98.37,104.443,0.000830214,0.0581073,20.9372,46.7679,-0.53875,0.0,0.0
442,110.25,90.737,110.497,147.373,98.388,104.273,0.00081316,0.0577707,20.9375,46.7779,-0.522418,0.0,0.0
444,110.75,90.56,110.02,150.044,98.4119,104.413,0.000796734,0.0573853,20.9378,46.7779,-0.532334,0.0,0.0
446,111.25,90.613,110.063,150.897,98.4378,104.299,0.000781077,0.0570731,20.9384,46.7579,-0.520107,0.0,0.0
448,111.75,89.7354,109.746,151.218,98.4601,104.636,0.000769049,0.0569401,20.9389,46.7579,-0.547112,0.0,0.0
450,112.25,89.6685,109.05,147.846,98.5004,104.889,0.000759893,0.0566138,20.9393,46.7679,-0.565157,0.0,0.0
452,112.75,89.233,108.219,150.705,98.5143,105.093,0.000751171,0.0563496,20.9397,46.7779,-0.581369,0.0,0.0
454,113.25,88.9511,107.979,151.15,98.5482,104.398,0.000742931,0.0560614,20.94,46.7679,-0.518607,0.0,0.0
456,113.75,88.9741,108.013,145.478,98.5586,103.934,0.000733643,0.0557612,20.9402,46.7479,-0.477533,0.0,0.0
458,114.25,88.5,106.824,146.162,98.6029,104.679,0.000723769,0.0554735,20.9408,46.7679,-0.537747,0.0,0.0
460,114.75,88.1213,106.556,148.399,98.6192,105.007,0.000712506,0.0552005,20.9413,46.7579,-0.564389,0.0,0.0
462,115.25,87.6521,105.789,147.464,98.6587,104.719,0.000700444,0.0549794,20.9417,46.7579,-0.536125,0.0,0.0
464,115.75,87.9822,105.577,150.529,98.6651,104.085,0.000683493,0.0547298,20.9421,46.7679,-0.480897,0.0,0.0
466,116.25,87.2004,105.477,150.049,98.7065,105.236,0.0006633,0.0545128,20.9423,46.7379,-0.576005,0.0,0.0
468,116.75,86.9305,105.354,151.074,98.7253,105.115,0.000646943,0.0543237,20.9426,46.7379,-0.564016,0.0,0.0
470,117.25,86.8728,104.886,148.637,98.7544,105.195,0.000622602,0.0541335,20.9427,46.7579,-0.568157,0.0,0.0
472,117.75,86.6227,104.4,150.086,98.7671,105.299,0.000592902,0.0539461,20.9429,46.7679,-0.575851,0.0,0.0
474,118.25,86.6316,103.852,148.533,98.811,104.813,0.000568845,0.0537572,20.943,46.7579,-0.530303,0.0,0.0
476,118.75,86.2113,103.531,151.408,98.8433,104.599,0.000540684,0.0535708,20.9431,46.7679,-0.508983,0.0,0.0
478,119.25,86.1331,103.219,146.997,98.8604,104.914,0.000517873,0.0534199,20.9432,46.7779,-0.534461,0.0,0.0
480,119.75,85.8125,103.294,147.67,98.8704,105.24,0.000491962,0.053185,20.9432,46.7779,-0.561432,0.0,0.0
482,120.25,85.9047,102.545,147.913,98.9063,105.371,0.000470974,0.0529948,20.9433,46.7679,-0.569396,0.0,0.0
484,120.75,85.5311,101.964,149.13,98.9083,104.553,0.00043911,0.0528407,20.9433,46.7479,-0.499137,0.0,0.0
486,121.25,85.3365,101.625,150.099,98.945,104.691,0.0004133,0.0527018,20.9433,46.7479,-0.507642,0.0,0.0
488,121.75,85.0197,101.296,148.756,98.9545,104.839,0.00038262,0.0525892,20.9434,46.7579,-0.519481,0.0,0.0
490,122.25,84.3453,100.93,149.279,98.9717,104.82,0.000348973,0.0524759,20.9434,46.7579,-0.516268,0.0,0.0
492,122.75,84.3526,100.128,145.893,98.994,105.138,0.000316508,0.0523641,20.9434,46.7479,-0.541529,0.0,0.0
494,123.25,83.9227,100.154,153.294,99.0159,104.845,0.000285521,0.0522661,20.9434,46.7379,-0.514403,0.0,0.0
496,123.75,83.699,100.206,152.894,99.0347,105.037,0.000260421,0.05218,20.9434,46.7379,-0.529196,0.0,0.0
498,124.25,83.5634,99.4896,151.073,99.051,105.219,0.000247256,0.0520659,20.9437,46.7479,-0.543255,0.0,0.0
500,124.75,83.3543,99.5564,146.711,99.0438,104.656,0.000243041,0.0519335,20.9441,46.7579,-0.495614,0.0,0.0
502,125.25,83.0357,98.451,147.786,99.0733,104.989,0.000245492,0.051804,20.9444,46.7379,-0.521535,0.0,0.0
504,125.75,83.1333,98.7056,150.769,99.0678,105.14,0.000252755,0.0516791,20.9447,46.7579,-0.534984,0.0,0.0
506,126.25,82.5544,98.3747,149.49,99.0933,105.193,0.000256031,0.0515779,20.9449,46.7579,-0.537195,0.0,0.0
508,126.75,82.9848,97.643,150.864,99.0973,105.647,0.000256338,0.0514678,20.9451,46.7579,-0.575566,0.0,0.0
510,127.25,82.457,97.5569,148.805,99.1017,104.665,0.000248769,0.0513787,20.9452,46.7579,-0.491137,0.0,0.0
512,127.75,82.0705,97.4391,149.876,99.1036,105.132,0.000235603,0.0512694,20.9453,46.7879,-0.530997,0.0,0.0
514,128.25,81.9951,96.8619,147.037,99.1276,105.234,0.000224937,0.0511476,20.9454,46.7979,-0.537574,0.0,0.0
516,128.75,82.0722,96.914,146.534,99.1192,105.496,0.000189082,0.0510341,20.9455,46.7879,-0.560735,0.0,0.0
518,129.25,81.7788,96.3098,145.103,99.1407,105.216,0.000160039,0.0509288,20.9456,46.7879,-0.534846,0.0,0.0
520,129.75,81.5029,96.241,148.733,99.1316,104.823,0.000136514,0.0508214,20.9456,46.7879,-0.50206,0.0,0.0
522,130.25,81.9882,95.4659,148.457,99.1371,105.757,8.36017e-05,0.0507144,20.9457,46.7979,-0.581262,0.0,0.0
524,130.75,82.0762,95.234,149.82,99.1308,105.436,1.02711e-05,0.0506128,20.9457,46.7979,-0.55452,0.0,0.0
526,131.25,81.5674,94.9661,149.551,99.1503,105.262,-4.91268e-05,0.0505173,20.9457,46.7779,-0.537889,0.0,0.0
528,131.75,81.1965,95.0136,150.217,99.1435,105.771,-0.000138041,0.0504399,20.946,46.7779,-0.581866,0.0,0.0
530,132.25,80.8663,94.8861,148.988,99.1579,105.038,-0.000210062,0.0503772,20.9464,46.7879,-0.518092,0.0,0.0
532,132.75,80.7227,94.1663,149.388,99.1499,104.762,-0.000264689,0.0503037,20.9467,46.7979,-0.495122,0.0,0.0
534,133.25,80.1839,94.1004,147.484,99.1483,104.972,-0.000308938,0.0502236,20.9466,46.7979,-0.513273,0.0,0.0
536,133.75,80.2963,93.6553,150.366,99.1411,105.791,-0.000329812,0.0501588,20.9464,46.8179,-0.583839,0.0,0.0
538,134.25,79.9848,93.5701,150.11,99.1491,105.243,-0.000333249,0.050064,20.9468,46.8079,-0.536388,0.0,0.0
540,134.75,80.0429,92.7995,151.175,99.1284,104.563,-0.000323018,0.0499873,20.947,46.8179,-0.479997,0.0,0.0
542,135.25,79.6934,93.2513,148.681,99.1331,105.084,-0.000303019,0.0499252,20.9473,46.8379,-0.524252,0.0,0.0
544,135.75,80.0477,92.5785,149.176,99.1236,104.905,-0.000277708,0.0498748,20.9474,46.7979,-0.509825,0.0,0.0
546,136.25,79.7508,92.0107,152.446,99.1216,105.174,-0.000249007,0.0498045,20.9476,46.8179,-0.533015,0.0,0.0
548,136.75,79.4125,92.2185,148.75,99.1244,105.286,-0.000218602,0.0497208,20.9477,46.8279,-0.542271,0.0,0.0
550,137.25,79.5226,91.909,152.167,99.1248,105.845,-0.000187531,0.0496308,20.9478,46.8379,-0.589858,0.0,0.0
552,137.75,79.5333,91.3215,148.561,99.0941,105.138,-0.000162364,0.049538,20.9479,46.8379,-0.532441,0.0,0.0
554,138.25,78.9383,91.5002,150.121,99.0905,105.19,-0.000123432,0.0494628,20.9479,46.8279,-0.53718,0.0,0.0
556,138.75,78.9084,91.6082,147.934,99.0705,104.654,-9.18967e-05,0.0494019,20.948,46.8379,-0.493034,0.0,0.0
558,139.25,79.0355,90.7732,149.749,99.0737,105.308,-5.78897e-05,0.0493525,20.948,46.8379,-0.548821,0.0,0.0
560,139.75,79.0354,90.9023,148.148,99.0542,105.18,-2.27269e-05,0.0493126,20.9481,46.848,-0.539629,0.0,0.0
562,140.25,78.8517,90.408,148.254,99.0482,105.41,5.75494e-06,0.0492802,20.9481,46.8379,-0.55983,0.0,0.0
564,140.75,78.8198,90.0505,151.864,99.0267,105.271,4.49129e-05,0.0492258,20.9481,46.848,-0.549872,0.0,0.0
566,141.25,78.3488,90.2315,148.177,99.0167,105.023,7.66308e-05,0.0491818,20.9481,46.848,-0.529634,0.0,0.0
568,141.75,78.5297,89.8138,149.862,99.004,104.846,0.000108512,0.0491018,20.9481,46.8279,-0.515605,0.0,0.0
570,142.25,78.2325,89.3632,145.533,98.986,105.202,0.000134335,0.048997,20.9481,46.8379,-0.547701,0.0,0.0
572,142.75,78.194,89.7485,149.855,98.9729,104.493,0.000149063,0.0489121,20.9482,46.868,-0.488092,0.0,0.0
574,143.25,77.9082,89.1188,152.994,98.9641,105.397,0.000160992,0.0488433,20.9482,46.868,-0.566323,0.0,0.0
576,143.75,77.6568,89.1627,147.742,98.9525,105.518,0.000155805,0.0487876,20.9482,46.878,-0.577742,0.0,0.0
578,144.25,77.4152,88.6385,149.357,98.9366,104.578,0.000151603,0.0487706,20.9482,46.858,-0.498685,0.0,0.0
580,144.75,77.3222,88.8669,149.567,98.9071,105.338,0.000148199,0.0487568,20.9482,46.8379,-0.566489,0.0,0.0
582,145.25,77.2042,88.3312,148.377,98.8923,105.129,0.000110814,0.0487309,20.9482,46.8379,-0.550001,0.0,0.0
584,145.75,77.1003,88.0957,146.31,98.8808,105.057,8.05329e-05,0.0486966,20.9482,46.8379,-0.544872,0.0,0.0
586,146.25,77.1168,87.505,149.217,98.8596,105.235,3.25126e-05,0.0486392,20.9482,46.8379,-0.562028,0.0,0.0
588,146.75,76.5055,87.2912,146.894,98.8385,105.664,1.20408e-05,0.048566,20.9482,46.8379,-0.600492,0.0,0.0
590,147.25,76.4157,87.7193,153.069,98.8242,104.922,-2.79115e-05,0.0485068,20.9482,46.8279,-0.538454,0.0,0.0
592,147.75,76.7806,87.001,150.798,98.8042,105.108,-6.02728e-05,0.0484588,20.9482,46.8079,-0.556175,0.0,0.0
594,148.25,76.3119,86.8692,147.584,98.7926,105.268,-6.29939e-05,0.0484199,20.9482,46.8079,-0.570922,0.0,0.0
596,148.75,76.4089,86.6872,147.716,98.7739,104.709,-6.5198e-05,0.0483744,20.9482,46.8379,-0.524781,0.0,0.0
598,149.25,76.0223,86.8252,151.525,98.7488,104.08,-4.80894e-05,0.0483375,20.9482,46.8279,-0.472843,0.0,0.0
600,149.75,76.2275,86.1148,148.97,98.7269,104.987,-1.72269e-05,0.0482936,20.9482,46.8279,-0.552887,0.0,0.0
602,150.25,76.103,86.0434,151.918,98.7253,104.353,1.76706e-05,0.0482748,20.9482,46.8179,-0.498524,0.0,0.0
604,150.75,76.0252,85.7063,148.619,98.7101,104.318,3.25479e-05,0.0482428,20.9483,46.8279,-0.496888,0.0,0.0
606,151.25,76.0496,85.5164,147.921,98.6997,104.101,5.79882e-05,0.0482169,20.9484,46.8379,-0.479093,0.0,0.0
608,151.75,76.287,85.2325,150.594,98.6798,104.691,7.85948e-05,0.0481678,20.9485,46.8279,-0.531772,0.0,0.0
610,152.25,75.8322,85.2467,150.116,98.6603,104.46,6.68348e-05,0.048128,20.9486,46.8079,-0.513682,0.0,0.0
612,152.75,75.5909,85.0719,146.949,98.6451,103.261,5.73092e-05,0.0480815,20.9487,46.8279,-0.41122,0.0,0.0
614,153.25,75.5138,84.6666,152.03,98.6188,104.346,3.39754e-05,0.048031,20.9488,46.8079,-0.507685,0.0,0.0
616,153.75,75.4887,85.0568,150.663,98.608,104.889,1.01888e-06,0.0480095,20.9487,46.7879,-0.555295,0.0,0.0
618,154.25,75.2467,84.4118,148.27,98.5821,104.721,-2.56759e-05,0.0479579,20.9486,46.7779,-0.543261,0.0,0.0
620,154.75,75.1134,84.549,153.655,98.5765,104.734,-5.10078e-05,0.0479028,20.9485,46.7779,-0.544887,0.0,0.0
622,155.25,74.8801,84.2457,153.277,98.5606,104.807,-7.34791e-05,0.0478582,20.9485,46.7979,-0.552619,0.0,0.0
624,155.75,74.928,84.4285,154.311,98.5602,104.808,-9.34382e-05,0.0478221,20.9484,46.7879,-0.552733,0.0,0.0
626,156.25,74.8397,83.5906,148.504,98.5371,104.611,-0.000111557,0.0477928,20.9484,46.7979,-0.537927,0.0,0.0
628,156.75,74.6859,83.0734,149.188,98.5359,105.104,-0.00012799,0.0477691,20.9483,46.7779,-0.580286,0.0,0.0
630,157.25,74.7041,83.4774,147.613,98.5124,104.543,-0.000141952,0.0477498,20.9483,46.7679,-0.534357,0.0,0.0
632,157.75,74.6708,83.0994,147.001,98.5124,104.771,,0.0477343,,46.7779,-0.553904,0.0,0.0
634,158.25,74.4544,82.9262,147.327,98.492,104.158,,0.0477217,,46.7779,-0.503038,0.0,0.0
636,158.75,73.8256,83.1019,145.254,98.4964,104.538,,0.0477115,,46.7679,-0.53535,0.0,0.0
638,159.25,74.2045,82.7635,150.699,98.4717,104.719,,0.0477032,,46.7779,-0.553148,0.0,0.0
640,159.75,74.2754,82.6728,145.729,98.4793,104.87,,0.0477039,,46.7679,-0.565432,0.0,0.0
642,160.25,74.2797,82.3644,145.246,98.4557,105.452,,0.0477111,,46.7879,-0.617306,0.0,0.0
644,160.75,74.5565,82.0534,145.667,98.4657,104.362,,,,46.7779,-0.523011,0.0,0.0
646,161.25,74.3848,82.0332,150.232,98.4573,104.203,,,,46.7879,-0.510079,0.0,0.0
648,161.75,73.686,82.0601,148.18,98.4577,104.714,,,,46.7979,-0.554037,0.0,0.0
650,162.25,73.6411,81.848,145.83,98.4494,103.87,,,,46.7879,-0.482031,0.0,0.0
652,162.75,73.5518,81.4242,145.884,98.4825,104.551,,,,46.8179,-0.537782,0.0,0.0
654,163.25,73.3909,81.3695,145.827,98.508,104.674,,,,46.8379,-0.545982,0.0,0.0
656,163.75,73.3137,81.322,149.27,98.5542,104.694,,,,46.8179,-0.543456,0.0,0.0
658,164.25,73.5039,81.011,148.857,98.5602,105.286,,,,46.848,-0.593602,0.0,0.0
660,164.75,73.1216,80.7135,152.623,98.5881,105.146,,,,46.868,-0.579128,0.0,0.0
662,165.25,73.517,80.6217,149.838,98.6065,104.666,,,,46.858,-0.536301,0.0,0.0
664,165.75,73.2901,80.6641,150.997,98.6427,104.776,,,,46.878,-0.542472,0.0,0.0
666,166.25,72.9602,80.5437,152.878,98.6463,104.186,,,,46.868,-0.491362,0.0,0.0
668,166.75,72.8169,80.1689,154.898,98.6846,104.302,,,,46.8379,-0.497898,0.0,0.0
670,167.25,73.1409,80.1043,149.367,98.6946,104.548,,,,46.8379,-0.518164,0.0,0.0
672,167.75,73.0689,80.1881,147.564,98.7281,104.738,,,,46.848,-0.531422,0.0,0.0
674,168.25,73.0075,79.6966,147.776,98.7404,105.061,,,,46.848,-0.557953,0.0,0.0
675,168.5,73.2633,79.5654,150.982,98.754,105.075,,,,46.8379,-0.557946,0.0,0.0