File: 01_Data/Memory_Foam_Carpet_Pad/Cone/Memory_Foam_Carpet_Pad_Cone_HF25Scan_220921_R1.csv
Names,Time,Stack TC,Smoke TC,Exh Press,Smoke Comp,Smoke Meas,CO Meter,CO2 Meter,O2 Meter,Sample Mass,Ext Coeff,Start Test,Flame Verif
Chan Gain,,500,500,1,1,1,1,1,1,1,1,1.0,1.0
Offset,,0,0,0.141977,0,0,0,0,0,0,0,0.0,0.0
Gain,,1,1,25.011,13.065,14.7021,1,1,1,1.00081,1.02518,1.0,1.0
Units,sec,C,C,Pa,%,%,%,%,%,g,/m,,
Baseline,,33.8404,34.6329,168.589,97.3868,98.0601,0.000319916,0.0448741,20.9477,-441.824,-0.0619253,,
3,0.5,33.4425,34.2926,166.056,97.3174,98.0184,0.000359619,0.0456397,20.9514,69.8466,-0.0645409,0.0,0.0
6,1.25,32.4484,33.7155,164.923,97.3194,98.3185,0.000361802,0.0456224,20.9514,69.9166,-0.0918525,0.0,0.0
9,2,32.1422,33.132,164.938,97.323,97.4674,0.00035456,0.0456238,20.9515,69.8366,-0.013333,0.0,0.0
12,2.75,32.1264,32.6829,166.869,97.319,97.8788,0.000344327,0.0456308,20.9515,69.8166,-0.0515819,0.0,0.0
15,3.5,32.4895,32.6568,168.203,97.3294,97.1156,0.000334756,0.0456158,20.9515,69.8466,0.01977,0.0,0.0
18,4.25,31.8392,33.1028,166.246,97.3158,96.3161,0.000327778,0.045619,20.9515,69.8166,0.0928604,0.0,0.0
21,5,31.9822,32.7289,168.1,97.3206,95.9845,0.000322692,0.0456273,20.9515,69.8366,0.124314,0.0,0.0
24,5.75,31.9578,33.0541,166.15,97.3254,95.3519,0.000332023,0.0456333,20.9515,69.8366,0.184223,0.0,0.0
27,6.5,32.1747,32.982,166.482,97.3282,95.6094,0.000361123,0.0456799,20.9515,69.8065,0.160226,0.0,0.0
30,7.25,32.3597,33.0635,167.01,97.319,94.9526,0.000471666,0.0457318,20.9516,69.7965,0.221373,0.0,0.0
33,8,32.3363,32.6815,172.652,97.3242,94.0225,0.000590334,0.0466515,20.9516,69.7865,0.310374,0.0,0.0
36,8.75,32.0146,32.848,167.331,97.3322,93.2467,0.000879212,0.0473219,20.9488,69.8065,0.385616,0.0,0.0
39,9.5,32.2956,32.7275,158.899,97.3334,96.7953,0.00126604,0.0568659,20.9419,69.7265,0.0498524,0.0,0.0
42,10.25,32.1591,32.6245,157.175,97.3146,94.053,0.00180277,0.0676839,20.9057,69.6764,0.306573,0.0,0.0
45,11,31.4244,32.8907,161.241,97.3298,93.6317,0.00227061,0.092941,20.865,69.5563,0.348346,0.0,1.0
48,11.75,32.0705,33.5391,158.433,97.3234,90.889,0.00265603,0.116001,20.8399,69.6064,0.615118,0.0,1.0
51,12.5,32.5692,33.346,158.521,97.329,89.9319,0.00328912,0.144306,20.8006,69.5063,0.710824,0.0,1.0
54,13.25,33.2263,33.2704,160.124,97.3062,89.7731,0.00399902,0.171009,20.7634,69.4563,0.724621,0.0,1.0
57,14,33.5731,33.6446,155.061,97.325,88.5424,0.00467482,0.19995,20.729,69.3962,0.85049,0.0,1.0
60,14.75,33.9483,33.9179,154.835,97.3214,88.655,0.00529767,0.214741,20.6925,69.3462,0.838727,0.0,1.0
63,15.5,33.992,33.7748,150.718,97.3122,88.2014,0.00585896,0.238538,20.6618,69.2761,0.884009,0.0,1.0
66,16.25,33.6798,33.4506,154.472,97.3094,88.8825,0.00642025,0.258258,20.6377,69.2161,0.814576,0.0,1.0
69,17,34.0956,33.0775,151.066,97.315,86.1891,0.00692862,0.274714,20.6157,69.146,1.09181,0.0,1.0
72,17.75,34.364,33.6101,150.446,97.3254,86.697,0.00734151,0.288538,20.5985,69.106,1.03993,0.0,0.0
75,18.5,34.7386,34.1336,152.354,97.3182,86.6252,0.00774842,0.30073,20.584,69.0559,1.04672,0.0,0.0
78,19.25,35.3024,34.3566,153.01,97.3166,87.9484,0.00812086,0.310927,20.5716,68.9859,0.910253,0.0,0.0
81,20,35.8366,35.0671,152.97,97.3126,86.5355,0.00846934,0.318918,20.5618,68.9158,1.05553,0.0,0.0
84,20.75,35.8769,34.6012,150.331,97.3134,86.2582,0.00876538,0.326107,20.5514,68.8458,1.08446,0.0,0.0
87,21.5,36.8715,34.9957,159.791,97.3142,86.8971,0.00903959,0.33193,20.5432,68.7757,1.01817,0.0,0.0
90,22.25,37.0861,35.8406,148.505,97.3154,84.3347,0.00929858,0.33708,20.536,68.7057,1.28744,0.0,0.0
93,23,37.4846,36.0019,155.812,97.3086,84.0404,0.00954588,0.34152,20.5288,68.6556,1.31826,0.0,0.0
96,23.75,38.1095,36.3612,151.846,97.3286,84.8207,0.00981343,0.345518,20.5222,68.5956,1.23699,0.0,0.0
99,24.5,38.4041,36.8136,150.032,97.3166,84.8687,0.0100085,0.349232,20.5169,68.5255,1.2308,0.0,0.0
102,25.25,39.1175,37.5916,149.096,97.311,83.5814,0.0102213,0.353454,20.5107,68.4755,1.36773,0.0,0.0
105,26,39.0259,38.0259,147.645,97.3055,85.4012,0.0104026,0.357969,20.5044,68.3654,1.17351,0.0,0.0
108,26.75,39.8434,38.4409,148.891,97.3202,84.4465,0.0105664,0.361873,20.4981,68.3053,1.27598,0.0,0.0
111,27.5,39.7459,38.4823,152.038,97.3142,85.5354,0.010721,0.367389,20.4897,68.2353,1.16021,0.0,0.0
114,28.25,40.389,39.2574,148.384,97.3198,84.5483,0.0108821,0.37251,20.4836,68.1752,1.26511,0.0,0.0
117,29,40.9441,39.6668,147.352,97.3039,82.7406,0.0110202,0.378125,20.4754,68.0952,1.45799,0.0,0.0
120,29.75,41.2308,39.7728,153.739,97.3186,84.8094,0.0111663,0.384827,20.4666,67.9851,1.23726,0.0,0.0
123,30.5,41.9777,40.6895,150.77,97.3174,82.6056,0.0113506,0.390983,20.4581,67.915,1.47393,0.0,0.0
126,31.25,42.0275,40.082,150.612,97.3242,81.6602,0.0115561,0.397643,20.4483,67.835,1.57807,0.0,0.0
129,32,42.6451,41.4708,148.44,97.3003,79.9804,0.0117059,0.402498,20.4396,67.7649,1.76278,0.0,0.0
132,32.75,43.0911,41.2559,149.812,97.3258,80.8728,0.0119031,0.410571,20.4293,67.6648,1.66535,0.0,0.0
135,33.5,43.5912,42.2448,144.463,97.3202,80.3245,0.0120969,0.418262,20.4184,67.5547,1.72601,0.0,0.0
138,34.25,43.7735,42.6215,147.105,97.3178,81.5337,0.0122803,0.42464,20.4077,67.5247,1.59142,0.0,0.0
141,35,44.3615,42.992,148.051,97.311,82.5356,0.0124495,0.431959,20.3966,67.4246,1.48097,0.0,0.0
144,35.75,44.6664,43.1755,148.263,97.3194,83.2772,0.0125992,0.438676,20.3841,67.3446,1.40129,0.0,0.0
147,36.5,45.5475,44.0833,152.592,97.3222,81.8545,0.0127017,0.445934,20.3712,67.2445,1.55651,0.0,0.0
150,37.25,45.8778,44.2624,146.098,97.3102,82.4108,0.0127736,0.454328,20.3586,67.1144,1.49449,0.0,0.0
153,38,46.3626,44.7298,145.813,97.309,83.0264,0.0128073,0.46218,20.3462,67.0143,1.42746,0.0,0.0
156,38.75,46.5854,45.2337,149.989,97.3138,84.6156,0.0128318,0.469668,20.3371,66.9442,1.2574,0.0,0.0
159,39.5,46.9027,45.4209,142.931,97.3174,86.6109,0.0129231,0.476879,20.328,66.8241,1.04814,0.0,0.0
162,40.25,47.8505,46.3431,140.781,97.325,85.9186,0.0130531,0.485939,20.318,66.7441,1.12101,0.0,0.0
165,41,48.5776,47.0546,139.269,97.311,85.6283,0.0132006,0.492543,20.3066,66.664,1.15015,0.0,0.0
168,41.75,48.7758,47.2696,143.134,97.3051,84.2217,0.0133521,0.503053,20.2907,66.5439,1.29855,0.0,0.0
171,42.5,49.3488,47.9528,135.638,97.3114,81.0724,0.0134965,0.510714,20.2768,66.4738,1.64185,0.0,0.0
174,43.25,50.1676,48.4404,139.339,97.3154,83.415,0.013619,0.518944,20.2656,66.3437,1.38606,0.0,0.0
177,44,50.5906,49.1931,139.726,97.307,83.4522,0.0137157,0.5247,20.2569,66.2236,1.38127,0.0,0.0
180,44.75,51.1971,49.4535,145.759,97.3082,84.8247,0.0138334,0.529067,20.2507,66.1336,1.23469,0.0,0.0
183,45.5,51.832,50.4182,145.272,97.3122,83.6694,0.0139192,0.533064,20.2461,66.0835,1.35838,0.0,0.0
186,46.25,52.2787,50.7326,147.152,97.3178,83.7645,0.0140706,0.537245,20.2396,65.9835,1.34868,0.0,0.0
189,47,52.7665,51.7777,136.658,97.3102,80.2105,0.0142169,0.542168,20.2319,65.9234,1.73785,0.0,0.0
192,47.75,53.5912,52.3538,142.455,97.3043,85.4636,0.0143388,0.546556,20.2235,65.8133,1.16684,0.0,0.0
195,48.5,53.8807,52.6632,145.156,97.3082,85.3254,0.0144485,0.553356,20.2133,65.6732,1.18176,0.0,0.0
198,49.25,54.4693,53.3448,139.381,97.311,85.5677,0.0145299,0.56053,20.2042,65.5931,1.15652,0.0,0.0
201,50,54.8413,53.7902,141.496,97.3062,82.8164,0.0145916,0.56955,20.1861,65.463,1.44997,0.0,0.0
204,50.75,55.4554,54.4361,141.577,97.2971,82.1883,0.0146517,0.581075,20.1614,65.373,1.51759,0.0,0.0
207,51.5,56.1213,54.9597,133.141,97.3074,83.0852,0.0147129,0.594052,20.1434,65.2629,1.42095,0.0,0.0
210,52.25,56.6951,55.2098,132.544,97.3035,79.9508,0.0147648,0.607731,20.1235,65.2028,1.7664,0.0,0.0
213,53,56.9544,56.0494,140.122,97.3051,83.9879,0.0148027,0.621413,20.1062,65.0327,1.32354,0.0,0.0
216,53.75,57.9484,56.6562,141.572,97.3114,83.6631,0.0149195,0.634859,20.088,64.9426,1.35898,0.0,0.0
219,54.5,58.6712,57.6709,132.196,97.307,82.2664,0.0150486,0.647892,20.0713,64.7625,1.50998,0.0,0.0
222,55.25,59.4339,58.495,131.13,97.3186,84.5537,0.0151783,0.657393,20.053,64.6924,1.26442,0.0,0.0
225,56,59.8083,58.2689,129.367,97.3122,83.6025,0.0153017,0.672954,20.0307,64.6224,1.36557,0.0,0.0
228,56.75,60.7932,59.4164,134.902,97.3058,81.7787,0.0154107,0.686641,20.0047,64.4622,1.56334,0.0,0.0
231,57.5,61.3122,60.1864,130.413,97.3166,85.1706,0.0154861,0.700624,19.9777,64.3221,1.19886,0.0,0.0
234,58.25,62.5344,61.5294,132.999,97.3098,83.7021,0.0155281,0.716759,19.9517,64.172,1.35464,0.0,0.0
237,59,62.958,61.4162,124.194,97.3146,82.1757,0.0155395,0.732277,19.925,64.0919,1.52059,0.0,0.0
240,59.75,64.0625,63.1445,134.691,97.3166,84.8579,0.0155477,0.747134,19.9056,63.9318,1.23194,0.0,0.0
243,60.5,64.6214,63.3517,132.378,97.319,83.6016,0.0154986,0.761283,19.8859,63.8317,1.36629,0.0,0.0
246,61.25,65.3396,64.1357,127.886,97.3162,84.8516,0.0154414,0.778875,19.8647,63.6916,1.23257,0.0,0.0
249,62,66.2884,65.2697,129.702,97.321,83.2656,0.0153802,0.7917,19.8416,63.5615,1.4027,0.0,0.0
252,62.75,67.6986,66.3723,122.736,97.3222,83.3342,0.0153176,0.812393,19.8095,63.4014,1.3954,0.0,0.0
255,63.5,68.0885,66.7655,124.044,97.3154,84.8346,0.0152188,0.830822,19.7762,63.2512,1.2343,0.0,0.0
258,64.25,69.045,67.9778,125.596,97.3369,85.1047,0.0151209,0.849975,19.744,63.1311,1.20771,0.0,0.0
261,65,69.9569,68.6411,118.563,97.3409,84.2665,0.0149829,0.869933,19.7141,63.011,1.29708,0.0,0.0
264,65.75,71.078,69.9353,120.245,97.3246,85.3263,0.014844,0.888568,19.684,62.8509,1.18318,0.0,0.0
267,66.5,72.2963,71.0468,130.224,97.3342,85.0172,0.0147295,0.903894,19.6621,62.7208,1.2167,0.0,0.0
270,67.25,73.3858,72.0015,125.393,97.3314,84.3868,0.0146234,0.920439,19.6384,62.5907,1.28337,0.0,0.0
273,68,73.8637,73.2887,124.607,97.3354,85.836,0.014546,0.937927,19.6154,62.4606,1.13061,0.0,0.0
276,68.75,75.008,74.3171,130.807,97.3461,86.3865,0.0144904,0.952594,19.5961,62.2905,1.07411,0.0,0.0
279,69.5,76.6684,75.4152,117.812,97.3421,85.4111,0.0144511,0.966566,19.5757,62.1303,1.17586,0.0,0.0
282,70.25,77.4903,76.321,131.398,97.3437,84.7264,0.0144277,0.978584,19.5578,62.0202,1.24839,0.0,0.0
285,71,78.7419,77.6935,118.412,97.3505,84.6546,0.0144199,0.990477,19.5397,61.8601,1.25664,0.0,0.0
288,71.75,79.5784,78.8106,118.096,97.3577,84.0211,0.0144262,1.00405,19.5169,61.72,1.32485,0.0,0.0
291,72.5,80.3555,79.7185,121.757,97.3605,85.4304,0.0144743,1.01609,19.4945,61.5499,1.17553,0.0,0.0
294,73.25,81.7491,81.1313,116.529,97.3716,84.0476,0.0145094,1.02855,19.4757,61.4298,1.32331,0.0,0.0
297,74,81.9177,81.8766,114.686,97.3732,86.7473,0.014607,1.04038,19.4584,61.2596,1.03914,0.0,0.0
300,74.75,83.4066,82.77,116.946,97.38,84.1472,0.0146928,1.05176,19.4443,61.1495,1.31343,0.0,0.0
303,75.5,84.2878,83.9137,123.7,97.3836,86.3206,0.0147615,1.06071,19.4328,60.9394,1.08444,0.0,0.0
306,76.25,85.6017,85.3378,116.823,97.384,85.5215,0.0148019,1.07037,19.4224,60.8493,1.16812,0.0,0.0
309,77,86.5249,86.3665,122.655,97.4019,84.9167,0.0148145,1.07741,19.4108,60.6291,1.2336,0.0,0.0
312,77.75,87.6534,87.737,117.878,97.4095,85.46,0.0148048,1.08599,19.3982,60.499,1.17694,0.0,0.0
315,78.5,89.1188,88.6158,124.41,97.4115,86.1882,0.014787,1.09224,19.386,60.3589,1.10082,0.0,0.0
318,79.25,89.4547,89.767,113.996,97.4091,87.7725,0.0147696,1.10007,19.3746,60.1788,0.936799,0.0,0.0
321,80,90.9368,91.0131,115.803,97.4366,85.1747,0.0147152,1.1072,19.3628,60.0186,1.20952,0.0,0.0
324,80.75,91.7264,91.9376,117.778,97.4434,84.9306,0.0146755,1.11412,19.3526,59.9185,1.23595,0.0,0.0
327,81.5,92.8396,93.1138,115.683,97.4506,86.0464,0.0145728,1.12108,19.3416,59.7184,1.11923,0.0,0.0
330,82.25,93.3627,93.7881,117.19,97.453,85.4255,0.0144648,1.12883,19.3321,59.5983,1.18459,0.0,0.0
333,83,94.5824,95.6813,120.569,97.4649,83.7797,0.0143587,1.13562,19.3188,59.4281,1.36063,0.0,0.0
336,83.75,95.3464,96.5688,113.355,97.4749,85.2285,0.0142586,1.14182,19.3091,59.288,1.20737,0.0,0.0
339,84.5,96.4369,97.2955,118.359,97.4889,85.32,0.0141725,1.14688,19.3011,59.1179,1.199,0.0,0.0
342,85.25,96.8937,97.98,118.141,97.4984,86.2106,0.0141097,1.15151,19.2949,58.9878,1.1065,0.0,0.0
345,86,97.9792,99.145,113.393,97.5056,87.0268,0.0140619,1.15492,19.2904,58.8477,1.02243,0.0,0.0
348,86.75,98.7108,100.106,111.568,97.5196,86.3444,0.0140234,1.15706,19.2871,58.6976,1.09451,0.0,0.0
351,87.5,99.8446,101.653,118.263,97.5331,85.788,0.0139898,1.15802,19.2847,58.5174,1.15389,0.0,0.0
354,88.25,100.426,101.979,115.221,97.5654,86.8899,0.0139558,1.15713,19.2861,58.3973,1.0421,0.0,0.0
357,89,101.446,103.039,114.355,97.5666,86.3161,0.0139083,1.1552,19.2889,58.2072,1.10179,0.0,0.0
360,89.75,102.405,104.203,119.929,97.5989,88.6739,0.013848,1.15326,19.2918,58.027,0.862421,0.0,0.0
363,90.5,102.625,104.981,116.052,97.5989,85.902,0.0137599,1.14961,19.2951,57.8969,1.14802,0.0,0.0
366,91.25,103.612,106.375,109.027,97.6144,87.5445,0.0136476,1.14502,19.2968,57.7568,0.979118,0.0,0.0
369,92,104.283,107.151,119.013,97.6268,86.2497,0.0135179,1.13836,19.309,57.6267,1.11426,0.0,0.0
372,92.75,104.877,108.166,117.179,97.6471,87.4176,0.0132955,1.12772,19.3324,57.4165,0.995183,0.0,0.0
375,93.5,105.298,108.708,120.894,97.6527,88.1135,0.0130729,1.11796,19.343,57.3465,0.924392,0.0,0.0
378,94.25,105.956,109.717,125.436,97.6739,87.8133,0.0128848,1.11058,19.358,57.2264,0.957025,0.0,0.0
381,95,106.151,109.845,115.591,97.695,86.1963,0.0126877,1.09869,19.3738,57.1163,1.12611,0.0,0.0
384,95.75,107.094,110.542,120.867,97.7054,87.0263,0.0125322,1.08675,19.39,56.9461,1.04088,0.0,0.0
387,96.5,107.256,111.055,125.114,97.7396,88.1399,0.0124083,1.07492,19.4063,56.776,0.929691,0.0,0.0
390,97.25,107.889,112.103,122.011,97.7564,85.4035,0.0123086,1.06234,19.4251,56.6659,1.21486,0.0,0.0
393,98,108.261,112.447,120.566,97.7719,85.3115,0.012219,1.05147,19.4389,56.5458,1.22598,0.0,0.0
396,98.75,108.69,113.255,122.992,97.801,87.5831,0.0121537,1.03521,19.4629,56.4657,0.992329,0.0,0.0
399,99.5,109.025,113.763,120.48,97.8178,87.3319,0.0120556,1.0159,19.4894,56.3156,1.0197,0.0,0.0
402,100.25,108.762,114.196,127.72,97.829,86.7728,0.0119606,0.99643,19.5125,56.1955,1.07848,0.0,0.0
405,101,108.985,114.171,125.658,97.8369,86.5193,0.0118512,0.979937,19.5396,56.0454,1.10553,0.0,0.0
408,101.75,109.144,114.585,129.756,97.876,85.9607,0.0116956,0.959829,19.5593,56.0154,1.16737,0.0,0.0
411,102.5,109.456,114.787,132.307,97.8924,87.7805,0.0115498,0.938406,19.5843,55.8552,0.980475,0.0,0.0
414,103.25,109.271,115.507,126.262,97.8967,86.2259,0.0113727,0.917117,19.6168,55.7552,1.14157,0.0,0.0
417,104,109.336,115.351,134.181,97.9023,86.9698,0.011228,0.895779,19.6534,55.6251,1.06483,0.0,0.0
420,104.75,109.325,115.455,126.349,97.9398,85.1482,0.0111199,0.870272,19.6918,55.545,1.25864,0.0,0.0
423,105.5,108.928,115.59,135.477,97.949,86.7737,0.0110696,0.844962,19.7333,55.4849,1.08942,0.0,0.0
426,106.25,108.964,115.93,135.909,97.9761,86.1806,0.011039,0.815025,19.7879,55.3749,1.15359,0.0,0.0
429,107,108.567,116.041,138.909,97.9833,87.2412,0.0110393,0.781333,19.8439,55.3048,1.04424,0.0,0.0
432,107.75,107.874,115.485,133.642,97.994,84.5959,0.0110526,0.749864,19.8784,55.2147,1.32213,0.0,0.0
435,108.5,107.832,115.688,133.81,98.0124,85.9118,0.0110666,0.731716,19.9183,55.1547,1.185,0.0,0.0
438,109.25,107.591,115.443,139.417,98.0355,82.9587,0.0110745,0.699041,19.9665,55.1046,1.50169,0.0,0.0
441,110,107.148,114.72,143.723,98.0566,82.5042,0.0110542,0.661706,20.0146,54.9946,1.55303,0.0,0.0
444,110.75,106.659,114.797,142.976,98.0782,84.3545,0.0110202,0.638136,20.0552,54.8845,1.35555,0.0,0.0
447,111.5,105.314,114.056,140.217,98.0945,80.5928,0.0109626,0.605143,20.102,54.8344,1.76729,0.0,0.0
450,112.25,104.766,113.951,150.445,98.1124,80.7081,0.0108704,0.573589,20.1462,54.7744,1.75607,0.0,0.0
453,113,104.25,113.805,143.94,98.1356,79.3078,0.010773,0.547388,20.1826,54.7744,1.91559,0.0,0.0
456,113.75,103.034,112.93,143.596,98.1547,81.3627,0.0106504,0.52106,20.2206,54.6843,1.6873,0.0,0.0
459,114.5,102.43,112.126,145.367,98.1671,83.6806,0.0104405,0.495351,20.2586,54.6943,1.43583,0.0,0.0
462,115.25,102.003,111.998,147.753,98.1842,82.9699,0.0102875,0.473831,20.2907,54.5742,1.5141,0.0,0.0
465,116,100.832,110.933,149.169,98.1898,83.7349,0.00993567,0.450079,20.3262,54.5742,1.43208,0.0,0.0
468,116.75,100.134,110.469,146.133,98.2045,85.4255,0.00954105,0.426016,20.3578,54.5742,1.25367,0.0,0.0
471,117.5,99.6633,110.039,147.487,98.2372,86.0213,0.00911663,0.405597,20.3904,54.5242,1.19416,0.0,0.0
474,118.25,98.7342,109.586,154.342,98.2488,86.9671,0.0086741,0.38215,20.4263,54.4741,1.09688,0.0,0.0
477,119,97.2656,108.135,154.342,98.2663,85.9046,0.00816504,0.361787,20.4633,54.4541,1.20903,0.0,0.0
480,119.75,96.2935,107.683,146.903,98.2879,90.028,0.0076815,0.341349,20.499,54.3941,0.789395,0.0,0.0
483,120.5,95.3344,107.09,156.736,98.3058,89.7215,0.00724015,0.32175,20.5323,54.3841,0.821698,0.0,0.0
486,121.25,94.7951,106.35,154.829,98.3142,90.0567,0.00684843,0.302867,20.5603,54.3941,0.788934,0.0,0.0
489,122,93.946,105.647,156.754,98.3349,91.7531,0.00656287,0.284673,20.5871,54.354,0.623004,0.0,0.0
492,122.75,92.8326,104.754,160.53,98.3417,94.6336,0.00642295,0.265243,20.6009,54.364,0.345647,0.0,0.0
495,123.5,91.702,103.598,161.71,98.3736,95.6027,0.00629479,0.244803,20.6343,54.364,0.256938,0.0,0.0
498,124.25,90.7367,102.998,159.948,98.3856,97.0358,0.0063388,0.229903,20.6536,54.344,0.124231,0.0,0.0
501,125,89.6253,102.19,162.936,98.4011,100.228,0.00654073,0.214802,20.6808,54.334,-0.165393,0.0,0.0
504,125.75,88.9736,101.802,163.683,98.4071,100.194,0.00683352,0.202004,20.7091,54.324,-0.161867,0.0,0.0
507,126.5,87.8514,100.185,163.634,98.4358,100.279,0.00718578,0.17781,20.7431,54.354,-0.166853,0.0,0.0
510,127.25,86.7629,99.1092,158.758,98.4462,100.529,0.00759097,0.166609,20.7724,54.334,-0.188289,0.0,0.0
513,128,86.0333,98.4078,163.78,98.4673,100.76,0.00801366,0.149961,20.7956,54.324,-0.206965,0.0,0.0
516,128.75,85.0655,98.1099,161.634,98.4621,101.135,0.00843134,0.135915,20.8157,54.344,-0.240894,0.0,0.0
519,129.5,82.2491,95.5124,163.664,98.4832,100.46,0.0088579,0.124251,20.8316,54.334,-0.17872,0.0,0.0
522,130.25,81.1224,94.5527,163.549,98.5008,100.492,0.00925243,0.114705,20.8451,54.334,-0.180008,0.0,0.0
525,131,79.7067,93.5021,160.823,98.5167,100.689,0.00959393,0.106768,20.8563,54.314,-0.196122,0.0,0.0
528,131.75,79.2747,92.7254,165.29,98.5199,100.858,0.00987415,0.100569,20.8649,54.334,-0.210965,0.0,0.0
531,132.5,78.0572,91.259,163.361,98.5415,100.255,0.0100897,0.0958731,20.872,54.334,-0.154992,0.0,0.0
534,133.25,77.5058,90.6962,160.287,98.555,100.247,0.0102433,0.0920841,20.8778,54.324,-0.153111,0.0,0.0
537,134,76.142,89.8766,165.209,98.5502,100.412,0.010333,0.0892021,20.8823,54.304,-0.168346,0.0,0.0
540,134.75,75.3684,88.8387,165.032,98.5801,100.355,0.0103861,0.086896,20.8859,54.314,-0.160514,0.0,0.0
543,135.5,75.0087,88.1366,164.6,98.5873,99.8934,0.0104036,0.0849916,20.8892,54.294,-0.118352,0.0,0.0
546,136.25,74.308,87.8609,162.248,98.6001,100.766,0.0103709,0.0834752,20.8919,54.284,-0.195369,0.0,0.0
549,137,73.3989,86.3672,163.544,98.5973,100.411,0.0103043,0.0823151,20.8942,54.284,-0.163934,0.0,0.0
552,137.75,72.7256,86.2748,160.912,98.6076,100.686,0.010216,0.0812462,20.8965,54.274,-0.187547,0.0,0.0
555,138.5,72.1785,85.1251,162.764,98.5993,100.111,0.0100893,0.0803996,20.8985,54.264,-0.136789,0.0,0.0
558,139.25,71.2356,84.7069,162.084,98.6208,100.083,0.00993287,0.0796673,20.9003,54.274,-0.132326,0.0,0.0
561,140,70.724,83.8319,163.657,98.6272,100.456,0.00975466,0.0790197,20.9016,54.2539,-0.165224,0.0,0.0
564,140.75,69.8817,83.2303,164.185,98.6328,100.631,0.00952325,0.0784093,20.903,54.2339,-0.180366,0.0,0.0
567,141.5,69.2379,82.1825,163.673,98.6324,100.041,0.00928739,0.0778109,20.9042,54.1839,-0.127482,0.0,0.0
570,142.25,68.2779,81.514,165.61,98.6411,100.587,0.00908682,0.0771112,20.9051,54.2139,-0.175713,0.0,0.0
573,143,67.9479,80.7158,165.34,98.6599,99.9194,0.00890057,0.0764965,20.9062,54.2539,-0.114078,0.0,0.0
576,143.75,66.9794,80.1461,162.289,98.6583,100.458,0.00867668,0.0758694,20.9079,54.2339,-0.16255,0.0,0.0
579,144.5,66.4004,79.63,161.323,98.6643,100.655,0.00847987,0.0751693,20.909,54.2539,-0.17962,0.0,0.0
582,145.25,66.2419,79.1775,162.754,98.6742,100.533,0.0083364,0.0745469,20.9099,54.2339,-0.167841,0.0,0.0
585,146,65.7084,78.2694,165.001,98.6631,100.544,0.0081163,0.0739017,20.9115,54.2439,-0.169862,0.0,0.0
588,146.75,65.2545,77.8852,166.405,98.6762,100.715,0.00790196,0.0732894,20.9131,54.264,-0.183939,0.0,0.0
591,147.5,64.7838,77.2236,160.82,98.6659,99.9145,0.00769844,0.0727826,20.9142,54.264,-0.113088,0.0,0.0
594,148.25,64.099,76.6247,164.705,98.6838,100.432,0.00750856,0.0722416,20.9157,54.2239,-0.157894,0.0,0.0
597,149,63.5958,76.1835,164.717,98.679,100.463,0.00731171,0.0715537,20.9177,54.2239,-0.161102,0.0,0.0
600,149.75,63.0103,74.9689,165.43,98.683,99.8104,0.0071386,0.0708905,20.9195,54.2439,-0.102152,0.0,0.0
603,150.5,62.0743,74.7059,164.782,98.6798,99.7911,0.00696177,0.0702252,20.9208,54.2539,-0.100705,0.0,0.0
606,151.25,61.746,73.7241,162.281,98.6902,100.616,0.00675638,0.0696127,20.9218,54.2539,-0.17377,0.0,0.0
609,152,61.1994,73.7837,166.296,98.6846,99.8566,0.0065711,0.0691119,20.9225,54.2439,-0.10617,0.0,0.0
612,152.75,60.7696,73.2999,162.412,98.685,100.287,0.00637523,0.0685247,20.9236,54.2339,-0.14484,0.0,0.0
615,153.5,60.4714,72.3079,168.072,98.6826,100.102,0.00614847,0.0679625,20.9244,54.274,-0.128467,0.0,0.0
618,154.25,60.462,71.9408,166.42,98.6814,100.793,0.00590528,0.0673234,20.9251,54.2339,-0.190436,0.0,0.0
621,155,59.5311,71.1955,165.134,98.6902,100.111,0.00565602,0.0665146,20.9261,54.2139,-0.128582,0.0,0.0
624,155.75,59.2148,70.4869,165.871,98.693,100.421,0.00539576,0.065791,20.9274,54.2239,-0.156135,0.0,0.0
627,156.5,58.5151,70.2522,166.324,98.6814,100.019,0.00517255,0.0650344,20.9285,54.1839,-0.121075,0.0,0.0
630,157.25,58.2892,69.8561,165.545,98.6882,100.303,0.00488903,0.0641806,20.9297,54.2239,-0.145997,0.0,0.0
633,158,57.9779,69.0775,166.343,98.6942,100.485,0.00463187,0.0634764,20.9308,54.2139,-0.161729,0.0,0.0
636,158.75,57.7492,68.9649,163.311,98.6778,100.271,0.00442288,0.0628231,20.9316,54.1939,-0.144046,0.0,0.0
639,159.5,56.8375,68.3011,163.938,98.6858,100.354,0.00420941,0.0622057,20.9326,54.2239,-0.15076,0.0,0.0
642,160.25,56.7973,67.8031,165.329,98.6898,100.141,0.00402357,0.0615988,20.9338,54.2239,-0.131318,0.0,0.0
645,161,56.2539,67.3873,159.465,98.6802,100.538,0.003858,0.0609913,20.9351,54.2139,-0.167697,0.0,0.0
648,161.75,55.8064,67.1436,164.347,98.685,100.253,0.00370786,0.0603226,20.9366,54.2239,-0.141781,0.0,0.0
651,162.5,55.648,66.4156,165.908,98.6774,100.551,0.00354821,0.0596349,20.9382,54.2139,-0.169115,0.0,0.0
654,163.25,54.8889,66.1779,164.289,98.669,99.9409,0.00343182,0.0589559,20.9396,54.2139,-0.11518,0.0,0.0
657,164,54.5953,65.8699,161.865,98.6806,100.292,0.00330669,0.0582799,20.9405,54.2139,-0.145642,0.0,0.0
660,164.75,54.8903,64.7852,163.825,98.6902,100.798,0.00314656,0.0577351,20.9419,54.2339,-0.190036,0.0,0.0
663,165.5,53.8357,64.6321,164.637,98.6814,99.901,0.00296344,0.0572492,20.9429,54.2439,-0.11046,0.0,0.0
666,166.25,54.0381,64.6826,164.244,98.6846,100.767,0.00277597,0.0567763,20.9436,54.2239,-0.187823,0.0,0.0
669,167,53.2419,63.7625,163.279,98.6806,100.18,0.0025954,0.0562286,20.9441,54.2139,-0.135619,0.0,0.0
672,167.75,53.2113,63.6391,162.432,98.6874,100.198,0.00242631,0.0557404,20.9445,54.2139,-0.136572,0.0,0.0
675,168.5,52.7791,62.9975,162.23,98.6886,100.666,0.00223899,0.0552323,20.9445,54.1939,-0.178365,0.0,0.0
678,169.25,52.2765,62.6154,165.018,98.6754,100.203,0.00206627,0.0546812,20.9447,54.1939,-0.138185,0.0,0.0
681,170,52.415,62.2846,163.359,98.6854,100.963,0.00191576,0.0542794,20.9452,54.2039,-0.205191,0.0,0.0
684,170.75,51.6719,61.6476,173.562,98.6878,100.288,0.00179034,0.0538598,20.9462,54.2239,-0.144665,0.0,0.0
687,171.5,51.7281,61.4419,164.765,98.6978,100.43,0.00167027,0.0534628,20.9469,54.2039,-0.156503,0.0,0.0
690,172.25,51.2538,61.0657,164.031,98.6587,100.446,0.00156267,0.0531101,20.9475,54.2039,-0.161469,0.0,0.0
693,173,50.6715,60.6167,161.127,98.6714,100.308,0.00147079,0.0527525,20.9478,54.2139,-0.147966,0.0,0.0
696,173.75,50.8795,60.3365,165.014,98.6778,100.211,0.00138764,0.0524104,20.9484,54.2239,-0.138691,0.0,0.0
699,174.5,50.4533,60.2255,166.824,98.6798,100.122,0.00131489,0.0520217,20.9491,54.2239,-0.130494,0.0,0.0
702,175.25,50.3461,59.7906,163.126,98.6826,100.33,0.0012529,0.0516821,20.9497,54.2339,-0.148879,0.0,0.0
705,176,49.9165,59.2946,168.164,98.6651,100.293,0.00118907,0.0513883,20.9501,54.2439,-0.147179,0.0,0.0
708,176.75,49.8454,59.0138,161.974,98.6878,100.705,0.0011287,0.0511361,20.9504,54.2439,-0.181924,0.0,0.0
711,177.5,49.5347,58.4535,165.017,98.6726,100.718,0.00107463,0.050882,20.9507,54.2239,-0.184547,0.0,0.0
714,178.25,49.0495,58.4998,164.069,98.6651,100.281,0.00103848,0.0506445,20.9508,54.2239,-0.146133,0.0,0.0
717,179,48.8728,57.6811,165.198,98.6667,100.439,0.00101771,0.0504334,20.9509,54.1939,-0.160099,0.0,0.0
720,179.75,48.8336,57.6272,165.769,98.6659,100.673,0.00102208,0.0501993,20.951,54.1939,-0.181117,0.0,0.0
723,180.5,48.4447,57.514,165.384,98.6663,100.919,0.00102899,0.0499842,20.9511,54.1839,-0.203057,0.0,0.0
726,181.25,48.5093,56.9449,167.027,98.6643,101.317,0.00103103,0.0497515,20.9511,54.1939,-0.238593,0.0,0.0
729,182,47.985,56.6217,166.878,98.6451,100.369,0.0010247,0.0495256,20.9512,54.2039,-0.155753,0.0,0.0
732,182.75,48.0288,56.5185,164.579,98.6627,100.565,0.000991721,0.0493148,20.9512,54.2039,-0.171744,0.0,0.0
735,183.5,47.9544,56.0838,164.587,98.6647,100.535,0.000955263,0.0491231,20.9514,54.2039,-0.168834,0.0,0.0
738,184.25,47.5812,56.0277,166.749,98.6607,99.9656,0.00092339,0.0489633,20.952,54.2039,-0.118163,0.0,0.0
741,185,47.6166,56.1145,160.792,98.6475,99.8377,0.000890354,0.0488187,20.9524,54.2039,-0.107852,0.0,0.0
744,185.75,46.7193,54.9713,164.796,98.6547,100.43,0.000849512,0.0487013,20.9528,54.2039,-0.160386,0.0,0.0
747,186.5,47.1335,54.6057,165.294,98.6491,99.8485,0.000814774,0.0485757,20.953,54.2239,-0.108676,0.0,0.0
750,187.25,46.5868,55.1434,161.353,98.6515,100.336,0.000786027,0.0484471,20.9532,54.2139,-0.152236,0.0,0.0
753,188,46.2139,54.1572,166.517,98.6451,100.923,0.000762837,0.0482901,20.9533,54.1739,-0.205264,0.0,0.0
756,188.75,46.1093,54.3392,161.69,98.6427,100.463,0.000735315,0.0481475,20.9534,54.1839,-0.164409,0.0,0.0
759,189.5,45.9606,53.9879,166.328,98.6348,100.089,0.000715251,0.0480316,20.9534,54.2039,-0.131618,0.0,0.0
762,190.25,45.8726,53.7161,165.719,98.6459,100.28,0.000696902,0.0479271,20.9535,54.1939,-0.147758,0.0,0.0
765,191,45.8931,53.3672,164.663,98.6256,100.772,0.000686509,0.0478087,20.953,54.1639,-0.193602,0.0,0.0
768,191.75,45.6188,52.8026,163.479,98.624,99.7996,0.000686749,0.047734,20.9527,54.1939,-0.106561,0.0,0.0
771,192.5,45.3522,52.6945,163.533,98.6268,99.9207,0.000694108,0.0477302,20.9525,54.1939,-0.117215,0.0,0.0
774,193.25,45.3719,52.5785,167.466,98.6204,100.219,0.000711759,0.0477052,20.9524,54.1939,-0.14457,0.0,0.0
777,194,45.3481,52.0562,166.045,98.63,100.64,0.000721086,0.047649,20.9522,54.2039,-0.181463,0.0,0.0
780,194.75,44.9085,51.6517,166.845,98.6108,100.714,0.000706754,0.047594,20.9521,54.1939,-0.18982,0.0,0.0
783,195.5,44.9587,51.9203,166.365,98.6204,100.541,0.000672287,0.0475479,20.9521,54.2239,-0.17347,0.0,0.0
786,196.25,44.8365,51.9019,164.181,98.6144,99.7058,0.000621495,0.0475745,20.9519,54.2239,-0.0989795,0.0,0.0
789,197,44.4381,51.2541,163.735,98.6045,100.358,0.000543823,0.0475938,20.9517,54.2139,-0.158537,0.0,0.0
792,197.75,44.0619,51.1351,162.815,98.5957,100.088,0.000480684,0.0476079,20.9515,54.2139,-0.135101,0.0,0.0
795,198.5,43.9365,50.4511,164.937,98.6057,100.543,0.000423511,0.0475566,20.9514,54.2039,-0.175016,0.0,0.0
798,199.25,44.3254,50.3203,166.902,98.5977,100.124,0.000390304,0.0474629,20.9513,54.2239,-0.138184,0.0,0.0
801,200,43.9298,50.1821,161.899,98.6088,100.924,0.000380585,0.0473707,20.9512,54.1939,-0.208732,0.0,0.0
804,200.75,43.8282,50.2138,164.665,98.5722,100.785,0.000395801,0.0472233,20.9512,54.2039,-0.199636,0.0,0.0
807,201.5,43.6294,50.4744,165.254,98.5789,99.7422,0.000427493,0.0471233,20.9518,54.2039,-0.105493,0.0,0.0
810,202.25,43.1382,49.3352,163.651,98.5833,100.109,0.000469564,0.047063,20.9522,54.2139,-0.138123,0.0,0.0
813,203,43.2204,49.2332,163.902,98.5949,100.164,0.000521463,0.047019,20.9525,54.2139,-0.142024,0.0,0.0
816,203.75,43.3478,49.4406,167.22,98.567,100.17,0.000569223,0.0469944,20.9528,54.2439,-0.145094,0.0,0.0
819,204.5,42.854,48.8808,161.842,98.5833,100.302,0.000608271,0.0469891,20.9529,54.1939,-0.155437,0.0,0.0
822,205.25,42.8871,49.3122,160.901,98.5797,100.321,0.000636738,0.0469652,20.9531,54.2039,-0.157414,0.0,0.0
825,206,42.9837,48.5901,165.472,98.5706,99.9921,0.00065749,0.0469758,20.9532,54.2039,-0.128762,0.0,0.0
828,206.75,42.8324,49.167,169.344,98.5562,100.141,0.000623138,0.0469956,20.9532,54.1939,-0.143498,0.0,0.0
831,207.5,42.654,48.4445,163.644,98.559,100.317,0.000574548,0.0469298,20.9535,54.1939,-0.158983,0.0,0.0
834,208.25,42.1454,48.2601,171.199,98.5578,100.281,0.000529087,0.0468824,20.9537,54.2039,-0.155914,0.0,0.0
837,209,42.4087,48.2124,166.521,98.5546,100.064,0.000478278,0.0468488,20.9539,54.2039,-0.13671,0.0,0.0
840,209.75,42.0401,47.4164,166.64,98.547,99.7583,0.000431331,0.0468317,20.954,54.1839,-0.10986,0.0,0.0
843,210.5,42.4812,47.6987,163.063,98.5482,100.506,0.000388322,0.0468319,20.954,54.1839,-0.176882,0.0,0.0
846,211.25,42.0303,47.3922,164.74,98.549,100.631,0.000349168,0.046792,20.9541,54.2139,-0.187963,0.0,0.0
849,212,41.3857,47.1367,163.968,98.551,100.398,0.000324157,0.0467909,20.9541,54.2039,-0.166948,0.0,0.0
852,212.75,41.8971,46.7253,163.461,98.5431,99.8943,0.000305923,0.0468022,20.9542,54.1939,-0.122471,0.0,0.0
855,213.5,41.995,46.8526,162.847,98.5315,100.328,0.000319364,0.0467503,20.9542,54.1539,-0.162499,0.0,0.0
858,214.25,41.3151,46.9559,164.412,98.5375,100.366,0.000374876,0.0467124,20.9542,54.0838,-0.165371,0.0,0.0
861,215,41.7112,47.0221,166.164,98.5259,100.664,0.000426811,0.0466848,20.9542,54.1038,-0.193081,0.0,0.0
864,215.75,41.4808,46.4186,164.35,98.5187,99.9477,0.000493996,0.0466647,20.9542,54.1138,-0.129496,0.0,0.0
867,216.5,41.537,46.0404,165.798,98.5032,99.7193,0.000555256,0.04665,20.9542,54.1839,-0.110343,0.0,0.0
870,217.25,41.8186,46.0782,163.768,98.5159,100.082,0.000605226,0.0467236,20.9542,54.1839,-0.141853,0.0,0.0
873,218,40.8732,45.9009,166.991,98.5072,99.9351,0.000642894,0.0467717,20.9543,54.2039,-0.12942,0.0,0.0
876,218.75,41.5552,46.4772,168.706,98.5016,99.9073,0.000670884,0.0468082,20.9543,54.2039,-0.127427,0.0,0.0
879,219.5,40.9663,45.686,166.36,98.4876,100.189,0.000678898,0.0468207,20.9543,54.2039,-0.154027,0.0,0.0
882,220.25,41.3359,45.6994,166.886,98.5016,99.7318,0.00068474,0.0468387,20.9543,54.2139,-0.111622,0.0,0.0
885,221,40.734,45.2243,168.676,98.4948,100.494,0.000666671,0.046877,20.9543,54.2039,-0.180715,0.0,0.0
888,221.75,41.0543,45.4969,163.05,98.4872,100.429,0.000634844,0.0468629,20.9543,54.2039,-0.175583,0.0,0.0
891,222.5,40.5424,45.2371,167.381,98.4737,100.33,0.00059602,0.0468346,20.9543,54.1939,-0.167978,0.0,0.0
894,223.25,40.4968,45.2503,167.314,98.4864,100.153,0.000548275,0.0467739,20.9543,54.1939,-0.150914,0.0,0.0
897,224,40.6015,44.7756,165.231,98.4717,100.113,0.000523872,0.0467296,20.9543,54.1839,-0.148675,0.0,0.0
900,224.75,40.7772,44.8085,165.942,98.4697,100.254,0.000485076,0.0467174,20.9543,54.1739,-0.161463,0.0,0.0
903,225.5,40.2518,44.5282,167.379,98.4541,100.629,0.000455555,0.0466664,20.9543,54.1939,-0.196507,0.0,0.0
906,226.25,40.2612,44.635,161.061,98.4521,100.232,0.000432202,0.0466112,20.9543,54.2039,-0.161133,0.0,0.0
909,227,40.3289,44.0299,162.47,98.4605,100.11,0.000412948,0.0465549,20.9543,54.2139,-0.149373,0.0,0.0
912,227.75,40.3062,44.1185,167.14,98.4521,100.442,0.000389135,0.0464972,20.9543,54.2039,-0.179913,0.0,0.0
915,228.5,40.1595,44.3985,166.041,98.4438,100.222,0.000355058,0.0464678,20.9543,54.1739,-0.161013,0.0,0.0
918,229.25,39.5875,44.291,158.17,98.4402,101.148,0.000296677,0.0464865,20.9543,54.1939,-0.244013,0.0,0.0
921,230,40.2806,44.3349,163.074,98.443,99.901,0.000241748,0.0465149,20.9543,54.2039,-0.132214,0.0,0.0
924,230.75,39.7579,43.8199,164.5,98.4402,100.301,0.000171445,0.0465608,20.9543,54.2139,-0.168383,0.0,0.0
927,231.5,39.723,43.3093,167.046,98.4326,100.036,0.000104616,0.0465803,20.9543,54.2239,-0.145269,0.0,0.0
930,232.25,40.2788,43.6624,167.224,98.4238,100.059,4.70808e-05,0.0465885,20.9543,54.2239,-0.148168,0.0,0.0
933,233,39.1812,43.1794,167.842,98.4262,99.8494,1.50283e-05,0.0465745,20.9543,54.2139,-0.129098,0.0,0.0
936,233.75,39.7828,43.1211,167.713,98.4202,99.7529,-4.12131e-06,0.0465361,20.9543,54.1939,-0.120952,0.0,0.0
939,234.5,39.5279,43.1133,167.57,98.4119,99.503,1.90185e-05,0.0465383,20.9543,54.1939,-0.0991589,0.0,0.0
942,235.25,39.2455,43.2001,164.464,98.4087,100.134,6.73382e-05,0.0465431,20.9543,54.1939,-0.156283,0.0,0.0
945,236,39.4822,42.7444,168.829,98.4151,100.152,0.000129299,0.0465213,20.9545,54.1739,-0.157352,0.0,0.0
948,236.75,39.5365,42.6934,167.952,98.4179,100.185,0.000174468,0.0464633,20.9551,54.1839,-0.160079,0.0,0.0
951,237.5,39.2727,42.7128,166.056,98.4083,99.8252,,0.046403,,54.2039,-0.128555,0.0,0.0
954,238.25,39.1651,42.3998,165.944,98.3943,100.109,,0.0463992,,54.1939,-0.155339,0.0,0.0
957,239,39.0931,42.119,162.114,98.4083,100.062,,0.0463964,,54.2139,-0.149831,0.0,0.0
960,239.75,39.1591,41.9729,166.368,98.3979,100.331,,0.0463943,,54.1739,-0.17498,0.0,0.0
963,240.5,38.7305,42.1275,166.066,98.3876,99.9674,,,,54.1739,-0.143253,0.0,0.0
966,241.25,38.6551,41.9547,166.865,98.3788,100.273,,,,54.1939,-0.1715,0.0,0.0
969,242,38.7293,42.0843,168.59,98.374,99.7857,,,,54.2039,-0.128131,0.0,0.0
972,242.75,38.829,42.1614,163.475,98.378,100.134,,,,54.1839,-0.15913,0.0,0.0
975,243.5,38.7971,41.6256,164.505,98.3776,99.6699,,,,54.1839,-0.117365,0.0,0.0
978,244.25,38.9063,41.8263,161.831,98.37,100.351,,,,54.1839,-0.17934,0.0,0.0
981,245,38.713,41.5579,164.776,98.358,99.6874,,,,54.1439,-0.12073,0.0,0.0
984,245.75,38.4377,41.8175,165.762,98.3644,99.6816,,,,54.1439,-0.11962,0.0,0.0
987,246.5,38.8781,41.3273,165.642,98.3848,100.294,,,,54.1539,-0.172884,0.0,0.0
990,247.25,38.7322,41.6496,167.357,98.3493,100.262,,,,54.1539,-0.173191,0.0,0.0
992,247.75,38.776,40.9485,164.776,98.3688,100.057,,,,54.1639,-0.152994,0.0,0.0