File: 01_Data/Memory_Foam_Carpet_Pad/Cone/Memory_Foam_Carpet_Pad_Cone_HF75Scan_220921_R1.csv
Names,Time,Stack TC,Smoke TC,Exh Press,Smoke Comp,Smoke Meas,CO Meter,CO2 Meter,O2 Meter,Sample Mass,Ext Coeff,Start Test,Flame Verif
Chan Gain,,500,500,1,1,1,1,1,1,1,1,1.0,1.0
Offset,,0,0,0.141977,0,0,0,0,0,0,0,0.0,0.0
Gain,,1,1,25.011,13.065,14.7021,1,1,1,1.00081,1.02518,1.0,1.0
Units,sec,C,C,Pa,%,%,%,%,%,g,/m,,
Baseline,,57.5334,59.5865,154.607,98.5996,102.947,5.00238e-05,0.0456307,20.9463,-446.1,-0.387971,,
2,0.25,57.2363,59.2102,153.897,98.9035,102.085,0.00146465,0.0610404,20.9356,68.4855,-0.284696,0.0,0.0
4,0.75,57.2459,59.4544,155.703,98.9083,100.171,0.00211715,0.0635977,20.9146,68.2853,-0.11409,0.0,0.0
6,1.25,56.4386,58.3074,145.552,98.9274,91.7535,0.00286958,0.0813169,20.8977,68.2453,0.676982,0.0,1.0
8,1.75,56.1675,58.2422,141.67,98.919,86.0419,0.00392145,0.0956695,20.8655,68.1752,1.2542,0.0,1.0
10,2.25,55.9961,58.1707,138.605,98.9533,83.7923,0.00477347,0.12255,20.823,68.1352,1.49557,0.0,1.0
12,2.75,55.9028,58.535,139.597,98.9458,78.7752,0.00546361,0.144323,20.7886,68.1452,2.05012,0.0,1.0
14,3.25,56.8025,58.3292,130.664,98.9657,78.716,0.00689753,0.175967,20.7361,68.0351,2.0587,0.0,1.0
16,3.75,56.7334,59.1182,135.117,98.9677,76.1761,0.00805901,0.201599,20.6936,67.905,2.35383,0.0,1.0
18,4.25,57.8821,58.7776,136.828,98.982,74.7996,0.0096723,0.235159,20.6483,67.845,2.51913,0.0,1.0
20,4.75,57.8567,59.778,133.135,98.9852,71.0415,0.0109791,0.262342,20.602,67.7549,2.98298,0.0,1.0
22,5.25,59.043,59.7947,133.7,99.0016,72.7339,0.0127211,0.291587,20.5644,67.6848,2.77274,0.0,1.0
24,5.75,59.768,60.018,137.785,99.0088,71.2034,0.0141322,0.321778,20.5102,67.6148,2.96464,0.0,1.0
26,6.25,59.771,60.4344,126.677,99.0275,68.1709,0.0156693,0.346233,20.4664,67.5347,3.35774,0.0,1.0
28,6.75,59.4897,59.9639,125.136,99.0275,67.4301,0.0172691,0.379718,20.4077,67.4146,3.45599,0.0,1.0
30,7.25,59.9301,60.2822,127.364,99.0462,67.8487,0.0185649,0.406841,20.3601,67.3145,3.40204,0.0,1.0
32,7.75,60.3909,60.7414,128.364,99.0454,66.8486,0.0202399,0.434163,20.305,67.2945,3.53551,0.0,0.0
34,8.25,61.0994,61.2315,127.42,99.0606,68.1,0.0215967,0.461111,20.2604,67.1644,3.3701,0.0,0.0
36,8.75,61.7255,61.9644,126.045,99.0538,64.931,0.0230969,0.489991,20.2141,67.0944,3.79801,0.0,0.0
38,9.25,62.6754,62.6339,127.531,99.0686,67.5849,0.0243121,0.51973,20.1675,67.0043,3.4391,0.0,0.0
40,9.75,63.49,63.3536,122.162,99.065,64.302,0.02552,0.543819,20.1298,66.9042,3.88657,0.0,0.0
42,10.25,64.0038,63.9401,126.166,99.0845,68.9336,0.0266997,0.575203,20.0827,66.7541,3.26286,0.0,0.0
44,10.75,64.8997,64.8035,122.982,99.0897,68.7066,0.0277755,0.600624,20.0446,66.664,3.293,0.0,0.0
46,11.25,66.0748,65.6014,123.659,99.0985,63.1278,0.028755,0.630364,19.998,66.5939,4.05534,0.0,0.0
48,11.75,67.1282,65.8784,127.109,99.0981,65.2316,0.0295485,0.654454,19.9603,66.4438,3.76049,0.0,0.0
50,12.25,67.3353,66.5312,122.473,99.1096,66.0608,0.0303802,0.679497,19.9177,66.3738,3.64795,0.0,0.0
52,12.75,68.5325,67.7555,118.452,99.1032,69.2131,0.0311386,0.704758,19.8832,66.2737,3.22817,0.0,0.0
54,13.25,69.2307,68.259,116.951,99.1256,69.2028,0.031829,0.72522,19.8325,66.1036,3.23153,0.0,0.0
56,13.75,70.3067,69.3195,122.306,99.1192,65.0634,0.0323883,0.75465,19.7914,66.0335,3.78563,0.0,0.0
58,14.25,71.4568,69.8032,114.135,99.1359,66.7199,0.0330756,0.778487,19.7456,65.9034,3.56106,0.0,0.0
60,14.75,72.0124,70.703,119.301,99.1292,65.7826,0.0336323,0.811135,19.6973,65.7333,3.68767,0.0,0.0
62,15.25,73.233,71.9658,114.627,99.1467,66.4892,0.0343951,0.837579,19.6439,65.6432,3.59318,0.0,0.0
64,15.75,74.0534,72.775,115.323,99.1511,61.4892,0.035013,0.87524,19.5876,65.453,4.29662,0.0,0.0
66,16.25,75.2781,73.351,114.651,99.1511,65.6902,0.0355135,0.905746,19.5421,65.3329,3.70231,0.0,0.0
68,16.75,76.1094,74.6173,109.827,99.1423,64.4967,0.0364555,0.952173,19.4859,65.2028,3.8664,0.0,0.0
70,17.25,77.1293,75.526,104.444,99.1571,65.8463,0.0372186,0.989778,19.4231,65.0127,3.6815,0.0,0.0
72,17.75,78.2985,76.9357,100.822,99.1455,64.1584,0.0380402,1.04623,19.3722,64.8726,3.91398,0.0,0.0
74,18.25,80.0254,78.2181,98.5829,99.1611,62.9981,0.0388889,1.09195,19.2882,64.7024,4.07951,0.0,0.0
76,18.75,81.4578,79.1649,98.4333,99.1531,62.9407,0.0397561,1.14399,19.2201,64.5623,4.08699,0.0,0.0
78,19.25,83.3264,80.4751,110.782,99.1611,64.3078,0.0406203,1.19965,19.1293,64.3922,3.89447,0.0,0.0
80,19.75,84.2641,82.02,92.7866,99.1627,62.8676,0.0414735,1.24474,19.0557,64.182,4.09831,0.0,0.0
82,20.25,86.1494,83.6331,109.205,99.171,63.3517,0.0423024,1.31135,18.996,63.9918,4.03008,0.0,0.0
84,20.75,87.6254,85.0467,101.505,99.1571,63.0089,0.0429738,1.3653,18.9242,63.8117,4.07761,0.0,0.0
86,21.25,89.1109,86.559,110.678,99.1758,67.4781,0.0435176,1.42101,18.8449,63.7516,3.46305,0.0,0.0
88,21.75,90.8161,88.1662,101.011,99.167,64.8013,0.0444117,1.47693,18.7641,63.5315,3.82626,0.0,0.0
90,22.25,92.7274,89.8709,94.839,99.1758,65.2994,0.045136,1.52223,18.6837,63.3113,3.75821,0.0,0.0
92,22.75,94.6512,91.3693,95.2206,99.175,65.0813,0.0459952,1.57985,18.604,63.1812,3.78821,0.0,0.0
94,23.25,95.8001,93.1721,97.2998,99.1822,67.8483,0.0466911,1.62651,18.5263,63.001,3.41444,0.0,0.0
96,23.75,97.7039,94.8877,88.9809,99.1702,64.2293,0.0472548,1.66431,18.4634,62.8609,3.90629,0.0,0.0
98,24.25,99.963,96.9185,91.4417,99.1754,65.3931,0.047942,1.7176,18.3994,62.6608,3.74527,0.0,0.0
100,24.75,101.769,99.0844,92.6209,99.167,65.9795,0.0484986,1.76077,18.336,62.5307,3.66422,0.0,0.0
102,25.25,103.388,100.326,94.8436,99.1746,63.6456,0.0489994,1.81007,18.2846,62.3405,3.98879,0.0,0.0
104,25.75,105.306,102.794,91.808,99.173,64.1979,0.0494498,1.85001,18.218,62.1103,3.91094,0.0,0.0
106,26.25,106.872,104.323,86.8269,99.1826,62.763,0.049868,1.89492,18.164,61.9102,4.11508,0.0,0.0
108,26.75,108.327,105.985,95.3702,99.1718,63.3207,0.0502546,1.94261,18.0862,61.71,4.03455,0.0,0.0
110,27.25,110.552,108.352,100.277,99.1802,67.6244,0.0505678,1.98123,18.0233,61.5799,3.44398,0.0,0.0
112,27.75,112.111,109.969,83.1594,99.1686,66.8397,0.050996,2.03213,17.9723,61.3897,3.5479,0.0,0.0
114,28.25,113.812,111.774,82.435,99.1746,67.8676,0.0513429,2.09102,17.8657,61.1495,3.41119,0.0,0.0
116,28.75,115.473,113.914,73.6367,99.165,70.8194,0.0517791,2.15697,17.7793,60.9594,3.02746,0.0,0.0
118,29.25,118.21,116.094,89.4136,99.1627,66.7019,0.0522721,2.22683,17.6551,60.6691,3.5659,0.0,0.0
120,29.75,120.152,118.24,90.183,99.1507,67.5216,0.052851,2.28341,17.5545,60.509,3.45498,0.0,0.0
122,30.25,122.128,120.479,81.2535,99.1579,68.9874,0.0534815,2.37612,17.4014,60.3489,3.26249,0.0,0.0
124,30.75,124.305,122.539,70.9622,99.1495,71.9644,0.0539922,2.45122,17.2774,60.0787,2.88182,0.0,0.0
126,31.25,126.666,124.72,80.1765,99.1559,68.9551,0.0550523,2.53982,17.1363,59.9085,3.26653,0.0,0.0
128,31.75,129.346,127.491,73.4413,99.1495,70.7328,0.055911,2.63658,16.9853,59.6783,3.03705,0.0,0.0
130,32.25,131.465,130.472,77.5668,99.1535,68.9534,0.0572324,2.74024,16.826,59.4482,3.26654,0.0,0.0
132,32.75,133.655,132.796,67.239,99.1503,70.5834,0.0583028,2.84697,16.6638,59.1779,3.05614,0.0,0.0
134,33.25,137.407,136.219,72.03,99.1491,73.2175,0.0595549,2.93342,16.5323,58.9678,2.72653,0.0,0.0
136,33.75,139.884,137.965,69.1571,99.1324,74.695,0.0609157,3.06478,16.3579,58.6675,2.54535,0.0,0.0
138,34.25,142.786,141.786,86.0071,99.1359,73.1843,0.0623975,3.17119,16.2166,58.4574,2.72942,0.0,0.0
140,34.75,145.332,144.633,66.0124,99.1228,74.647,0.0639393,3.2919,15.9948,58.1371,2.55026,0.0,0.0
142,35.25,148.127,148.124,76.5807,99.1136,72.8398,0.0655456,3.42076,15.8151,57.9469,2.76983,0.0,0.0
144,35.75,151.523,151.213,62.4685,99.1184,81.4027,0.0671685,3.55508,15.5837,57.8268,1.77075,0.0,0.0
146,36.25,154.543,154.878,65.4239,99.1092,74.9041,0.0687974,3.69082,15.3963,57.4165,2.51811,0.0,0.0
148,36.75,157.57,158.547,79.0209,99.1048,75.6727,0.0703998,3.82963,15.1702,57.1163,2.42591,0.0,0.0
150,37.25,160.616,162.121,69.2952,99.0893,82.2219,0.0716977,3.96804,14.9871,56.9061,1.67805,0.0,0.0
152,37.75,164.218,164.983,55.0105,99.0917,77.6132,0.072749,4.10426,14.8388,56.6259,2.19702,0.0,0.0
154,38.25,167.573,169.923,56.3196,99.0654,77.0954,0.0740434,4.2363,14.6627,56.3557,2.25483,0.0,0.0
156,38.75,170.832,173.857,72.8139,99.071,78.0228,0.0750919,4.36528,14.5201,56.0854,2.1478,0.0,0.0
158,39.25,174.133,177.833,76.6944,99.057,74.4711,0.0758422,4.48958,14.3757,55.7852,2.56551,0.0,0.0
160,39.75,177.327,182.034,71.0889,99.053,76.6512,0.07645,4.59027,14.2326,55.605,2.30567,0.0,0.0
162,40.25,180.635,186.124,49.2203,99.0406,80.3959,0.076557,4.71398,14.1167,55.2948,1.87561,0.0,0.0
164,40.75,183.691,189.944,60.5107,99.0446,81.4099,0.0766438,4.81418,14.0228,54.9946,1.76326,0.0,0.0
166,41.25,186.882,194.208,69.1151,99.0183,78.3023,0.076056,4.89535,13.9468,54.7844,2.11086,0.0,0.0
168,41.75,190.294,198.228,64.7744,99.0091,77.7608,0.0755799,4.96821,13.8852,54.4541,2.17244,0.0,0.0
170,42.25,193.277,202.614,72.9025,98.99,79.1589,0.074311,5.03364,13.8518,54.2139,2.01046,0.0,0.0
172,42.75,196.237,206.532,63.9279,98.9844,78.6124,0.0732831,5.06724,13.8396,54.0037,2.07225,0.0,0.0
174,43.25,199.057,210.611,71.5965,98.9569,75.0831,0.0718291,5.077,13.8296,53.8236,2.48282,0.0,0.0
176,43.75,201.921,215.001,67.5534,98.9557,73.1839,0.0700919,5.01247,13.8216,53.7035,2.71311,0.0,0.0
178,44.25,204.233,218.245,77.0425,98.9278,71.4614,0.0686848,4.9602,13.9507,53.4833,2.92476,0.0,0.0
180,44.75,206.974,222.108,71.6789,98.9206,67.6203,0.068085,4.86319,14.0057,53.3332,3.42095,0.0,0.0
182,45.25,208.575,225.48,84.4821,98.9059,64.5384,0.0657221,4.73541,14.0997,53.1631,3.83911,0.0,0.0
184,45.75,210.079,227.685,89.303,98.8808,63.773,0.0626049,4.56685,14.3465,53.043,3.94412,0.0,0.0
186,46.25,211.35,230.084,94.8856,98.856,63.1525,0.0593131,4.37176,14.5464,52.9429,4.0298,0.0,0.0
188,46.75,211.572,231.761,98.1944,98.8433,61.8432,0.0559565,4.21373,14.9181,52.8828,4.21703,0.0,0.0
190,47.25,210.877,232.54,103.723,98.8106,62.1138,0.0523988,4.08573,15.2191,52.8328,4.1748,0.0,0.0
192,47.75,211.004,233.694,112.484,98.8022,62.4804,0.0487619,3.91702,15.6758,52.7327,4.12112,0.0,0.0
194,48.25,210.432,234.207,120.873,98.7667,65.7902,0.045816,3.62853,16.0457,52.7327,3.65369,0.0,0.0
196,48.75,209.325,234.056,126.961,98.752,77.9699,0.0419395,3.33094,16.3453,52.7027,2.1249,0.0,0.0
198,49.25,207.589,233.155,134.026,98.7185,88.2521,0.0387995,3.03239,16.8554,52.7027,1.00787,0.0,0.0
200,49.75,205.537,232.898,135.27,98.7025,95.3003,0.0356523,2.79056,17.2686,52.7027,0.315448,0.0,0.0
202,50.25,204.216,231.532,142.076,98.7029,101.033,0.0325596,2.51435,17.7008,52.6927,-0.209865,0.0,0.0
204,50.75,201.626,229.841,143.032,98.7249,103.086,0.0296616,2.29063,18.0508,52.6927,-0.388701,0.0,0.0
206,51.25,199.755,228.826,143.57,98.7249,103.636,0.0269606,2.04383,18.4037,52.7027,-0.436599,0.0,0.0
208,51.75,197.281,226.884,143.29,98.7432,103.125,0.0247727,1.84393,18.6895,52.6827,-0.390435,0.0,0.0
210,52.25,195.128,225.762,142.52,98.7312,102.379,0.0226816,1.65725,18.921,52.7027,-0.326222,0.0,0.0
212,52.75,192.899,223.418,144.46,98.7532,103.672,0.0207007,1.48377,19.1702,52.6727,-0.437097,0.0,0.0
214,53.25,189.988,221.706,144.14,98.7532,103.909,0.0189665,1.34325,19.3721,52.6727,-0.4577,0.0,0.0
216,53.75,187.374,218.802,148.224,98.7783,103.852,0.0174453,1.20274,19.5687,52.6827,-0.450402,0.0,0.0
218,54.25,184.809,216.518,144.719,98.7719,103.889,0.0161458,1.08893,19.7279,52.6627,-0.454246,0.0,0.0
220,54.75,182.598,214.258,146.058,98.8066,103.904,0.0150328,0.973166,19.8784,52.6527,-0.452331,0.0,0.0
222,55.25,179.975,212.694,147.187,98.8026,104.026,0.0141052,0.879399,20.0108,52.6326,-0.463289,0.0,0.0
224,55.75,178.138,210.974,147.651,98.8273,104.354,0.0133304,0.795199,20.1277,52.6126,-0.489308,0.0,0.0
226,56.25,176.355,208.818,147.178,98.8437,103.485,0.0127001,0.719573,20.2223,52.6226,-0.412692,0.0,0.0
228,56.75,174.848,207.602,145.178,98.8549,104.45,0.0121872,0.653547,20.3101,52.6226,-0.495115,0.0,0.0
230,57.25,172.52,205.669,146.913,98.8612,104.888,0.0117757,0.595774,20.3813,52.6126,-0.532197,0.0,0.0
232,57.75,170.81,204.148,143.774,98.8915,104.393,0.0114462,0.545468,20.4451,52.6026,-0.486872,0.0,0.0
234,58.25,168.78,202.315,148.472,98.8915,103.952,0.0111792,0.501563,20.4969,52.6026,-0.448798,0.0,0.0
236,58.75,166.828,200.344,145.136,98.9254,104.476,0.0109486,0.463134,20.5388,52.5826,-0.490937,0.0,0.0
238,59.25,165.131,198.845,147.928,98.9306,104.414,0.0107489,0.429427,20.5781,52.6026,-0.485136,0.0,0.0
240,59.75,163.593,197.484,147.162,98.9597,103.955,0.0105872,0.399718,20.61,52.5926,-0.442833,0.0,0.0
242,60.25,161.797,195.974,151.102,98.9661,104.437,0.0104068,0.373487,20.6376,52.5926,-0.483842,0.0,0.0
244,60.75,160.828,194.302,145.43,98.9908,104.594,0.0102608,0.352241,20.6618,52.5926,-0.495109,0.0,0.0
246,61.25,158.922,192.532,149.571,99.0024,104.448,0.0100919,0.330792,20.6832,52.5926,-0.48155,0.0,0.0
248,61.75,157.775,191.082,146.149,99.0299,104.127,0.00995506,0.313418,20.7022,52.5726,-0.451388,0.0,0.0
250,62.25,156.157,189.529,148.774,99.0462,104.442,0.00981972,0.299345,20.7176,52.5626,-0.477027,0.0,0.0
252,62.75,154.821,187.886,147.789,99.0666,104.599,0.00968801,0.285876,20.7333,52.5626,-0.48873,0.0,0.0
254,63.25,153.572,187.03,145.763,99.0789,103.564,0.00955817,0.273101,20.7459,52.5526,-0.398097,0.0,0.0
256,63.75,152.129,185.636,147.756,99.106,104.839,0.00943218,0.260554,20.758,52.5426,-0.505685,0.0,0.0
258,64.25,150.472,184.194,146.248,99.1172,104.653,0.00931516,0.250391,20.7677,52.5225,-0.488724,0.0,0.0
260,64.75,149.518,182.666,144.054,99.1491,104.864,0.00920691,0.241096,20.7774,52.5225,-0.503971,0.0,0.0
262,65.25,148.355,181.456,149.112,99.1726,105.028,0.00911923,0.232612,20.7852,52.4825,-0.515871,0.0,0.0
264,65.75,146.817,180.416,144.124,99.1874,104.958,0.00901205,0.224826,20.7921,52.4825,-0.5085,0.0,0.0
266,66.25,145.132,178.744,148.248,99.1977,104.153,0.00892524,0.217698,20.798,52.4625,-0.438328,0.0,0.0
268,66.75,144.341,177.243,150.807,99.2384,104.472,0.00882525,0.211221,20.8028,52.4825,-0.462182,0.0,0.0
270,67.25,143.293,176.421,146.84,99.2548,104.551,0.00874426,0.205342,20.807,52.4725,-0.467458,0.0,0.0
272,67.75,141.901,174.696,148.704,99.2751,104.242,0.00867866,0.20058,20.8105,52.4625,-0.439025,0.0,0.0
274,68.25,140.74,173.738,144.879,99.3026,104.843,0.00859839,0.195347,20.8134,52.4525,-0.488212,0.0,0.0
276,68.75,139.235,172.387,149.511,99.3285,104.899,0.00850895,0.191108,20.8178,52.4425,-0.490675,0.0,0.0
278,69.25,138.044,171.091,147.279,99.3265,105.049,0.00843651,0.186453,20.8214,52.4525,-0.503693,0.0,0.0
280,69.75,137.125,170.113,149.134,99.352,105.039,0.00833413,0.182683,20.8249,52.4625,-0.500577,0.0,0.0
282,70.25,136.76,168.842,146.18,99.3652,105.01,0.0082512,0.179629,20.8285,52.4425,-0.496927,0.0,0.0
284,70.75,134.999,167.776,146.005,99.3839,105.841,0.00813132,0.176398,20.8319,52.4525,-0.56611,0.0,0.0
286,71.25,134.178,166.642,148.761,99.4103,104.982,0.00803422,0.1731,20.8352,52.4325,-0.49039,0.0,0.0
288,71.75,133.011,165.703,144.341,99.415,105.362,0.00790934,0.170428,20.8383,52.4225,-0.522491,0.0,0.0
290,72.25,132.101,164.352,148.912,99.431,105.336,0.00780819,0.167273,20.8412,52.4025,-0.518789,0.0,0.0
292,72.75,131.402,163.665,149.46,99.4533,105.268,0.00769049,0.164718,20.8436,52.4125,-0.510983,0.0,0.0
294,73.25,130.558,162.348,148.371,99.4553,104.93,0.00756297,0.16216,20.846,52.4225,-0.481895,0.0,0.0
296,73.75,129.226,161.18,148.52,99.482,105.405,0.0074334,0.159649,20.8479,52.4225,-0.520109,0.0,0.0
298,74.25,128.674,160.686,149.252,99.4768,105.16,0.0073048,0.156998,20.85,52.3924,-0.499653,0.0,0.0
300,74.75,127.771,159.362,150.515,99.4948,104.882,0.00717775,0.15485,20.8516,52.3824,-0.474173,0.0,0.0
302,75.25,126.727,158.801,150.904,99.504,105.6,0.00705424,0.152724,20.8538,52.3824,-0.534686,0.0,0.0
304,75.75,125.888,156.988,147.189,99.5187,105.364,0.00693606,0.150654,20.8556,52.3824,-0.513233,0.0,0.0
306,76.25,125.078,156.164,152.988,99.5279,104.955,0.00682399,0.148977,20.8575,52.3624,-0.477489,0.0,0.0
308,76.75,123.982,155.151,147.687,99.5446,104.432,0.00677621,0.146931,20.8583,52.3424,-0.431039,0.0,0.0
310,77.25,122.627,154.251,149.871,99.5323,104.728,0.00666388,0.145273,20.8599,52.3624,-0.457581,0.0,0.0
312,77.75,122.344,152.963,147.863,99.5442,105.236,0.00657289,0.143506,20.8614,52.3724,-0.500008,0.0,0.0
314,78.25,121.294,151.952,154.726,99.5506,104.98,0.00646986,0.141836,20.8627,52.3724,-0.477589,0.0,0.0
316,78.75,120.535,151.274,144.002,99.5689,104.616,0.00638641,0.140269,20.8637,52.3624,-0.444669,0.0,0.0
318,79.25,119.98,150.396,148.486,99.5514,104.636,0.00631881,0.138724,20.8645,52.3424,-0.447951,0.0,0.0
320,79.75,118.972,149.341,147.313,99.5685,104.61,0.00624494,0.137934,20.8654,52.3324,-0.444165,0.0,0.0
322,80.25,118.127,148.745,145.62,99.5669,104.464,0.0061851,0.136583,20.8663,52.3224,-0.431727,0.0,0.0
324,80.75,117.708,147.667,146.959,99.5709,105.547,0.0061306,0.13495,20.8671,52.3324,-0.524163,0.0,0.0
326,81.25,116.75,146.997,151.747,99.5701,105.351,0.00608102,0.133627,20.8681,52.3224,-0.507515,0.0,0.0
328,81.75,116.086,145.945,153.715,99.5765,105.04,0.0060288,0.132226,20.869,52.3324,-0.48032,0.0,0.0
330,82.25,115.443,144.731,149.415,99.5666,105.356,0.00597564,0.130795,20.8706,52.3124,-0.508222,0.0,0.0
332,82.75,114.569,144.501,147.473,99.5582,105.003,0.00591785,0.129636,20.8719,52.2924,-0.478825,0.0,0.0
334,83.25,113.764,143.596,150.903,99.5586,105.597,0.00585778,0.127942,20.8734,52.3024,-0.529522,0.0,0.0
336,83.75,113.282,143.028,148.89,99.5319,104.951,0.00579372,0.12657,20.8746,52.2723,-0.476744,0.0,0.0
338,84.25,112.492,141.742,148.493,99.5386,104.79,0.00572799,0.125153,20.876,52.2623,-0.462358,0.0,0.0
340,84.75,111.64,141.391,148.244,99.5366,105.314,0.00565802,0.123731,20.8771,52.2824,-0.507399,0.0,0.0
342,85.25,111.406,140.198,147.009,99.5291,104.687,0.0055863,0.122298,20.8785,52.2723,-0.454401,0.0,0.0
344,85.75,110.4,139.797,149.755,99.5043,105.228,0.00552821,0.120883,20.8796,52.2623,-0.50292,0.0,0.0
346,86.25,109.728,138.522,150.116,99.498,104.321,0.0054551,0.119478,20.881,52.2723,-0.425667,0.0,0.0
348,86.75,109.723,137.686,151.73,99.4876,105.079,0.00537244,0.118107,20.8826,52.2924,-0.491694,0.0,0.0
350,87.25,108.952,137.1,146.824,99.4844,105.285,0.00526745,0.116739,20.8838,52.2824,-0.509629,0.0,0.0
352,87.75,108.009,136.412,151.002,99.4513,104.339,0.0051824,0.115398,20.8853,52.2723,-0.431431,0.0,0.0
354,88.25,107.755,135.433,148.279,99.4473,104.141,0.00509485,0.114311,20.8864,52.2924,-0.414761,0.0,0.0
356,88.75,107.398,134.68,146.252,99.4138,104.945,0.00500714,0.11284,20.8879,52.2924,-0.486953,0.0,0.0
358,89.25,106.347,134.228,149.026,99.4051,105.676,0.00491611,0.111649,20.889,52.2924,-0.550121,0.0,0.0
360,89.75,105.074,133.146,149.791,99.3788,105.386,0.00478529,0.110396,20.8903,52.2623,-0.527841,0.0,0.0
362,90.25,105.161,132.782,149.357,99.3648,105.042,0.0047501,0.109122,20.8909,52.2924,-0.49969,0.0,0.0
364,90.75,104.613,131.683,148.513,99.3381,105.401,0.00468993,0.107863,20.8919,52.2924,-0.532785,0.0,0.0
366,91.25,104.247,131.381,148.834,99.3194,105.064,0.00458532,0.106639,20.8927,52.2924,-0.505687,0.0,0.0
368,91.75,103.78,130.999,148.811,99.2882,105.071,0.00445032,0.105405,20.8926,52.2723,-0.509118,0.0,0.0
370,92.25,103.437,129.858,154.193,99.2727,105.399,0.00426914,0.104188,20.8926,52.2523,-0.538515,0.0,0.0
372,92.75,102.5,129.225,153.143,99.2332,104.562,0.00412239,0.102783,20.8928,52.2523,-0.470374,0.0,0.0
374,93.25,101.929,128.746,149.35,99.2081,104.63,0.00400353,0.102404,20.8929,52.2523,-0.478513,0.0,0.0
376,93.75,101.465,127.967,149.219,99.189,104.455,0.00382551,0.100996,20.8933,52.2523,-0.465197,0.0,0.0
378,94.25,101.165,126.968,148.766,99.1603,103.86,0.00368132,0.0998558,20.8938,52.2523,-0.416433,0.0,0.0
380,94.75,100.428,126.387,145.981,99.126,103.711,0.00353439,0.0986532,20.8946,52.2523,-0.406636,0.0,0.0
382,95.25,100.051,125.641,149.198,99.1132,104.613,0.00341538,0.0974281,20.8958,52.2423,-0.485693,0.0,0.0
384,95.75,100.05,125.269,152.427,99.0642,104.639,0.00330392,0.0961497,20.8971,52.2523,-0.492342,0.0,0.0
386,96.25,99.1112,124.76,149.917,99.049,104.079,0.00321364,0.0948569,20.8987,52.2223,-0.445505,0.0,0.0
388,96.75,98.8763,123.933,147.687,99.002,104.276,0.00313675,0.0938096,20.8999,52.2023,-0.466702,0.0,0.0
390,97.25,98.1603,122.952,147.59,98.9872,104.289,0.00307447,0.0926757,20.9009,52.1923,-0.469164,0.0,0.0
392,97.75,97.5262,122.845,148.957,98.9398,104.69,0.00302026,0.0915002,20.902,52.2023,-0.507997,0.0,0.0
394,98.25,97.5132,122.279,148.79,98.9198,104.655,0.00297635,0.0903377,20.9031,52.2023,-0.506841,0.0,0.0
396,98.75,96.7266,121.276,146.48,98.868,104.303,0.00293451,0.0892069,20.9042,52.1923,-0.481278,0.0,0.0
398,99.25,96.4737,120.703,145.912,98.8549,103.869,0.00290062,0.0880959,20.9053,52.2123,-0.444989,0.0,0.0
400,99.75,95.8807,120.562,144.617,98.8022,105.164,0.00286591,0.0870204,20.9062,52.2323,-0.561154,0.0,0.0
402,100.25,95.5754,119.788,150.415,98.7895,104.076,0.00283126,0.0859843,20.9074,52.2323,-0.46883,0.0,0.0
404,100.75,94.6987,118.758,152.54,98.7452,104.354,0.0028032,0.0849967,20.9087,52.2023,-0.496786,0.0,0.0
406,101.25,94.9467,118.667,149.636,98.7129,105.04,0.0027742,0.083912,20.9099,52.1923,-0.558691,0.0,0.0
408,101.75,93.9879,117.909,150.356,98.6734,104.682,0.00275071,0.0830335,20.9108,52.1923,-0.531621,0.0,0.0
410,102.25,93.8671,117.323,148.776,98.6491,104.303,0.00274069,0.0821347,20.9112,52.1923,-0.50121,0.0,0.0
412,102.75,93.1795,116.704,149.28,98.6009,103.452,0.00271104,0.0812382,20.9121,52.2123,-0.431925,0.0,0.0
414,103.25,93.0186,115.865,147.321,98.5821,103.816,0.00268702,0.0805121,20.913,52.2023,-0.465209,0.0,0.0
416,103.75,92.8011,115.344,150.678,98.5367,103.907,0.00264752,0.0797145,20.914,52.2123,-0.477204,0.0,0.0
418,104.25,92.2143,115.297,149.909,98.5032,104.238,0.00260432,0.0788799,20.915,52.2023,-0.508912,0.0,0.0
420,104.75,91.7247,114.665,149.196,98.4669,103.747,0.00255925,0.0782039,20.9159,52.2123,-0.469701,0.0,0.0
422,105.25,91.3047,114.242,147.01,98.4486,103.836,0.00251352,0.0777439,20.9165,52.1923,-0.479111,0.0,0.0
424,105.75,91.2446,113.508,149.797,98.3975,103.715,0.00246819,0.0769571,20.918,52.1923,-0.473316,0.0,0.0
426,106.25,90.4897,112.919,149.489,98.368,103.1,0.00243146,0.0760502,20.9191,52.1923,-0.422557,0.0,0.0
428,106.75,90.1381,111.995,153.469,98.327,103.423,0.00238921,0.0753157,20.9201,52.1823,-0.454406,0.0,0.0
430,107.25,89.8157,112.236,155.389,98.2962,103.776,0.00234373,0.074437,20.9208,52.1823,-0.487866,0.0,0.0
432,107.75,89.3457,111.191,147.023,98.2759,102.975,0.00229242,0.0737253,20.9215,52.1823,-0.420056,0.0,0.0
434,108.25,89.4998,110.965,149.108,98.2404,103.54,0.00223784,0.072922,20.9224,52.1823,-0.472499,0.0,0.0
436,108.75,88.9054,110.429,150.361,98.2121,103.637,0.00217391,0.0722713,20.9232,52.1823,-0.483466,0.0,0.0
438,109.25,88.8089,109.874,149.614,98.1786,103.894,0.00210439,0.0716101,20.9238,52.1723,-0.508814,0.0,0.0
440,109.75,88.2824,109.246,148.883,98.1527,102.818,0.00202575,0.0709536,20.9243,52.1823,-0.417573,0.0,0.0
442,110.25,87.7406,108.966,150.36,98.124,103.106,0.00194197,0.0702729,20.9247,52.1823,-0.445401,0.0,0.0
444,110.75,87.3878,108.379,146.227,98.0798,103.306,0.0018741,0.0695874,20.925,52.1723,-0.466895,0.0,0.0
446,111.25,87.129,107.872,147.094,98.057,102.965,0.001783,0.0690321,20.9258,52.1723,-0.439246,0.0,0.0
448,111.75,87.2698,107.687,148.923,98.0235,103.672,0.0017092,0.0684266,20.9268,52.1823,-0.503826,0.0,0.0
450,112.25,86.4459,107.244,150.913,98,103.363,0.00164157,0.0679362,20.9276,52.1923,-0.479128,0.0,0.0
452,112.75,86.1105,106.752,150.47,97.9829,104.206,0.0015797,0.0673267,20.9283,52.1823,-0.553791,0.0,0.0
454,113.25,86.03125,106.127,149.085,97.9629,103.627,0.00152959,0.0668331,20.9288,52.1723,-0.505456,0.0,0.0
456,113.75,85.8595,105.883,148.675,97.9262,103.424,0.00148901,0.0662352,20.9293,52.1723,-0.491168,0.0,0.0
458,114.25,86.1283,105.403,152.011,97.9139,103.074,0.0014463,0.065751,20.9297,52.1623,-0.4619,0.0,0.0
460,114.75,85.4009,105.033,148.716,97.8928,103.556,0.00140287,0.0651467,20.9302,52.1623,-0.505785,0.0,0.0
462,115.25,85.1088,104.846,148.38,97.8736,103.601,0.00135656,0.0646572,20.9306,52.1623,-0.5114,0.0,0.0
464,115.75,84.8018,104.125,147.684,97.8461,102.802,0.00130904,0.0642608,20.931,52.1522,-0.444335,0.0,0.0
466,116.25,84.686,103.501,150.162,97.8417,103.241,0.00128877,0.0639396,20.9311,52.1522,-0.48308,0.0,0.0
468,116.75,84.5791,103.535,150.494,97.8274,103.945,0.00122554,0.0634393,20.9314,52.1322,-0.545512,0.0,0.0
470,117.25,84.1403,102.877,148.432,97.8134,103.419,0.00117431,0.0630341,20.9315,52.1322,-0.501107,0.0,0.0
472,117.75,83.2912,102.355,150.843,97.7999,102.569,0.00112289,0.0625795,20.9319,52.1522,-0.428194,0.0,0.0
474,118.25,83.3694,101.95,149.112,97.7847,103.738,0.00108123,0.0620975,20.9325,52.1623,-0.531482,0.0,0.0
476,118.75,83.2747,101.845,150.105,97.7723,103.602,0.00104749,0.0616254,20.9331,52.1522,-0.520827,0.0,0.0
478,119.25,82.7801,101.134,150.928,97.7584,103.176,0.00102015,0.0613854,20.9339,52.1422,-0.485035,0.0,0.0
480,119.75,82.7988,100.748,149.835,97.7588,102.807,0.000998016,0.0609751,20.9345,52.1422,-0.452795,0.0,0.0
482,120.25,81.9144,100.199,152.111,97.746,102.408,0.000980084,0.0605758,20.935,52.1322,-0.418972,0.0,0.0
484,120.75,81.972,100.029,151.14,97.7384,102.683,0.000959022,0.0601923,20.9354,52.1522,-0.443789,0.0,0.0
486,121.25,81.774,99.7813,148.846,97.7436,103.129,0.000936078,0.0597829,20.9357,52.1623,-0.482285,0.0,0.0
488,121.75,81.2174,99.2393,146.801,97.7353,103.072,0.000917494,0.0594512,20.936,52.1623,-0.478086,0.0,0.0
490,122.25,81.1659,98.8648,148.568,97.7169,104.113,0.000891305,0.0591158,20.9364,52.1422,-0.570175,0.0,0.0
492,122.75,80.9983,98.7457,150.369,97.7301,103.377,0.000870093,0.0587839,20.937,52.1522,-0.505143,0.0,0.0
494,123.25,81.0074,98.3292,147.252,97.7189,103.348,0.000847684,0.0584409,20.9374,52.1322,-0.503671,0.0,0.0
496,123.75,80.8508,97.3817,151.119,97.7297,103.701,0.000824829,0.0580962,20.938,52.1422,-0.533315,0.0,0.0
498,124.25,80.6203,97.4786,148.126,97.7225,103.18,0.000807623,0.0578171,20.9384,52.1422,-0.488689,0.0,0.0
500,124.75,80.4752,97.0811,151.511,97.7221,103.389,0.000794861,0.0575173,20.9388,52.1322,-0.506969,0.0,0.0
502,125.25,80.1957,97.2216,150.829,97.7317,103.603,0.000793019,0.0572083,20.9391,52.1322,-0.524645,0.0,0.0
504,125.75,79.6623,96.6136,147.986,97.7452,103.303,0.000799171,0.0568912,20.9393,52.1222,-0.497345,0.0,0.0
506,126.25,79.5579,95.6672,148.159,97.7396,103.674,0.000814615,0.0565742,20.9395,52.1322,-0.530102,0.0,0.0
508,126.75,79.2996,95.5075,148.512,97.7552,103.546,0.000836537,0.0562433,20.9396,52.1222,-0.517495,0.0,0.0
510,127.25,79.5349,95.6385,155.967,97.7524,103.157,0.000854295,0.0559086,20.9398,52.1322,-0.483905,0.0,0.0
512,127.75,79.4476,95.1155,149.44,97.7576,102.792,0.000887319,0.0555929,20.9401,52.1122,-0.451571,0.0,0.0
514,128.25,79.0744,94.7487,148.238,97.7564,102.941,0.000914069,0.0552972,20.9406,52.1222,-0.464704,0.0,0.0
516,128.75,78.9808,94.6053,150.826,97.7723,103.435,0.000936979,0.0550354,20.941,52.1422,-0.506289,0.0,0.0
518,129.25,78.2444,94.4962,147.754,97.7628,103.462,0.000955536,0.0548034,20.9413,52.1422,-0.509547,0.0,0.0
520,129.75,78.0491,93.4418,151.211,97.7883,103.154,0.000962718,0.0546154,20.9415,52.1422,-0.480408,0.0,0.0
522,130.25,78.1152,93.8202,149.834,97.7735,102.846,0.000961471,0.0543928,20.9418,52.1723,-0.454852,0.0,0.0
524,130.75,77.6064,93.2171,150.936,97.7911,102.828,0.000942812,0.0542124,20.9419,52.1723,-0.45163,0.0,0.0
526,131.25,77.7505,92.9267,149.832,97.7879,103.61,0.000911813,0.0540367,20.9425,52.1823,-0.520097,0.0,0.0
528,131.75,77.3562,92.5993,150.115,97.8118,103.655,0.000886704,0.0538676,20.943,52.1823,-0.521752,0.0,0.0
530,132.25,77.4873,92.5409,146.2,97.8182,103.16,0.00082294,0.0537085,20.9434,52.1823,-0.478128,0.0,0.0
532,132.75,77.2454,92.0488,150.212,97.8397,103.449,0.000771292,0.0535595,20.9437,52.1723,-0.501341,0.0,0.0
534,133.25,76.8808,91.7628,153.264,97.8385,103.466,0.00071052,0.0534315,20.9439,52.1623,-0.502932,0.0,0.0
536,133.75,77.0234,91.534,155.157,97.8704,103.433,0.000644253,0.0533211,20.944,52.1422,-0.497154,0.0,0.0
538,134.25,76.6472,90.8888,150.91,97.8824,102.811,0.000590576,0.0532095,20.944,52.1522,-0.441786,0.0,0.0
540,134.75,76.7687,90.6069,156.229,97.8999,103.697,0.000526897,0.0530991,20.944,52.1522,-0.517351,0.0,0.0
542,135.25,76.2546,90.5998,151.801,97.9067,103.248,0.000457137,0.0530096,20.944,52.1623,-0.477657,0.0,0.0
544,135.75,76.2747,90.2386,150.888,97.9398,102.938,0.000386308,0.0528375,20.9441,52.1623,-0.447612,0.0,0.0
546,136.25,76.1616,89.9619,153.225,97.9454,102.802,0.000316046,0.0526982,20.9441,52.1723,-0.435216,0.0,0.0
548,136.75,75.9645,89.6462,148.208,97.9761,103.652,0.000259135,0.0525853,20.9441,52.1823,-0.506467,0.0,0.0
550,137.25,75.488,89.6094,149.151,97.9952,103.316,0.000205878,0.0523812,20.9441,52.1623,-0.475507,0.0,0.0
552,137.75,75.6147,89.9016,151.333,98.0187,103.865,0.000156297,0.052216,20.9437,52.1522,-0.521024,0.0,0.0
554,138.25,75.4126,89.2396,150.328,98.0435,102.974,0.000121343,0.0520821,20.9433,52.1623,-0.441235,0.0,0.0
556,138.75,75.2202,88.7956,150.695,98.0618,102.909,9.77155e-05,0.0519596,20.943,52.1723,-0.433908,0.0,0.0
558,139.25,74.8578,88.3667,148.704,98.0794,103.074,8.50859e-05,0.0518603,20.9428,52.1623,-0.446677,0.0,0.0
560,139.75,74.9389,88.3494,151.321,98.1164,103.251,8.07135e-05,0.05178,20.9426,52.1322,-0.458726,0.0,0.0
562,140.25,74.6289,87.9802,152.588,98.1276,102.87,7.91248e-05,0.0516726,20.9424,52.1122,-0.424465,0.0,0.0
564,140.75,74.8354,87.8839,146.464,98.1611,103.42,7.95956e-05,0.0515857,20.9423,52.1322,-0.469316,0.0,0.0
566,141.25,74.1987,87.4899,147.91,98.1754,103.706,7.99769e-05,0.051459,20.9422,52.1522,-0.492819,0.0,0.0
568,141.75,74.1628,87.1462,152.67,98.2081,103.989,8.7448e-05,0.0513342,20.9421,52.1422,-0.51434,0.0,0.0
570,142.25,74.4076,87.0733,147.948,98.2341,102.59,9.99457e-05,0.051213,20.9425,52.1422,-0.390205,0.0,0.0
572,142.75,74.2365,86.3251,149.641,98.2596,104.008,0.000110069,0.0510927,20.9428,52.1322,-0.511262,0.0,0.0
574,143.25,73.8993,86.8161,147.841,98.2807,103.793,0.000130682,0.0509753,20.9431,52.1222,-0.490766,0.0,0.0
576,143.75,73.8788,86.7296,152.664,98.3094,103.708,0.000147378,0.0508801,20.9433,52.1322,-0.480711,0.0,0.0
578,144.25,73.7088,85.9529,151.157,98.3281,104.238,0.000158427,0.0508031,20.9435,52.1222,-0.524867,0.0,0.0
580,144.75,73.4569,85.8468,152.266,98.3612,104.265,0.000167376,0.0507407,20.9438,52.1322,-0.524201,0.0,0.0
582,145.25,73.3008,85.5959,151.593,98.3832,104.201,0.000167199,0.0506901,20.944,52.1322,-0.516623,0.0,0.0
584,145.75,73.5554,85.1455,148.577,98.4083,103.677,0.000167055,0.0506221,20.9442,52.1522,-0.469025,0.0,0.0
586,146.25,73.5871,85.2645,146.829,98.4426,103.687,0.00015704,0.050567,20.9444,52.1322,-0.466747,0.0,0.0
588,146.75,72.9733,85.0427,154.16,98.4653,103.228,0.000148928,0.0505083,20.9445,52.1222,-0.424776,0.0,0.0
590,147.25,72.9289,84.6596,150.693,98.4741,104.28,0.000144832,0.0504607,20.9446,52.1322,-0.515168,0.0,0.0
592,147.75,72.8533,84.4476,151.229,98.506,103.423,0.000141515,0.0503941,20.9447,52.1022,-0.438048,0.0,0.0
594,148.25,72.7381,84.3022,150.989,98.5279,103.507,0.000138827,0.0503401,20.9447,52.1122,-0.443339,0.0,0.0
596,148.75,72.3301,84.0747,150.054,98.5558,104.549,0.000158928,0.0502668,20.9448,52.1222,-0.530854,0.0,0.0
598,149.25,72.2101,83.4706,148.198,98.5662,104.203,0.000175209,0.0501807,20.9448,52.1122,-0.500104,0.0,0.0
600,149.75,72.986,83.844,151.903,98.5897,103.752,0.00018997,0.0500962,20.9448,52.1022,-0.458958,0.0,0.0
602,150.25,72.2251,83.2889,151.234,98.6196,103.378,0.000215212,0.0500144,20.9453,52.0822,-0.423778,0.0,0.0
604,150.75,72.0912,82.9354,150.203,98.634,104.208,0.00023957,0.0499408,20.9457,52.0822,-0.494348,0.0,0.0
606,151.25,71.7101,83.2032,152.682,98.6623,104.167,0.00026282,0.0498745,20.946,52.1022,-0.488282,0.0,0.0
608,151.75,72.0612,82.4598,151.252,98.687,103.543,0.000281001,0.0498208,20.9463,52.1022,-0.431949,0.0,0.0
610,152.25,71.7447,82.3425,152.962,98.6926,103.227,0.00029514,0.0497773,20.9465,52.1222,-0.404003,0.0,0.0
612,152.75,71.1188,82.2426,149.611,98.7065,103.528,0.000301378,0.0497587,20.9466,52.1022,-0.428843,0.0,0.0
614,153.25,71.6962,82.156,148.567,98.7356,104.102,0.000301738,0.0497048,20.9468,52.1022,-0.475979,0.0,0.0
616,153.75,71.7047,81.972,150.815,98.756,104.872,0.000290933,0.0496411,20.9469,52.0822,-0.540392,0.0,0.0
618,154.25,71.5581,82.0745,152.037,98.7783,104.57,0.000272194,0.0495674,20.9468,52.1022,-0.512428,0.0,0.0
620,154.75,71.2769,81.4862,151.195,98.795,103.227,0.000257015,0.0494876,20.9468,52.1122,-0.394593,0.0,0.0
622,155.25,71.3207,81.4022,149.602,98.8134,104.04,0.000229744,0.0494156,20.9467,52.1322,-0.463511,0.0,0.0
624,155.75,70.7894,81.1253,149.415,98.8198,104.816,0.000194176,0.0493507,20.9467,52.1422,-0.529735,0.0,0.0
626,156.25,71.0666,81.2606,152.39,98.8461,103.978,0.000156906,0.0492827,20.9466,52.1322,-0.455144,0.0,0.0
628,156.75,70.7797,80.6946,150.166,98.8529,104.453,0.000119103,0.0492138,20.9466,52.1322,-0.495528,0.0,0.0
630,157.25,70.7726,80.7337,151.282,98.8776,103.865,8.06744e-05,0.049158,20.9466,52.1122,-0.442573,0.0,0.0
632,157.75,71.1795,80.8174,149.384,98.8859,103.643,4.25188e-05,0.0491128,20.9466,52.1122,-0.422561,0.0,0.0
634,158.25,70.6132,80.0539,149.743,98.9063,103.845,1.85165e-06,0.0490762,20.9465,52.0922,-0.438175,0.0,0.0
636,158.75,70.7741,79.9842,154.169,98.9166,104.649,-3.98738e-05,0.0490466,20.9465,52.1022,-0.506591,0.0,0.0
638,159.25,70.5474,79.495,148.404,98.921,104.521,-7.36714e-05,0.0490226,20.9465,52.1222,-0.495236,0.0,0.0
640,159.75,70.499,79.7795,151.225,98.9294,104.176,-0.000101047,0.0490031,20.9465,52.1322,-0.464702,0.0,0.0
642,160.25,70.1545,79.5734,153.336,98.9402,105.204,-0.000149186,0.0489733,20.9464,52.1322,-0.552059,0.0,0.0
644,160.75,70.1403,79.4052,149.292,98.9462,104.029,-0.000188179,0.0489491,20.9463,52.1322,-0.450466,0.0,0.0
646,161.25,70.2301,79.504,150.302,98.9653,104.309,-0.000225945,0.0489155,20.9462,52.1322,-0.472935,0.0,0.0
648,161.75,70.2101,79.1884,147.571,98.9585,105.047,-0.000256535,0.0488883,20.9462,52.1322,-0.53692,0.0,0.0
650,162.25,70.2537,79.1812,149.318,98.9725,104.264,,0.0488662,,52.1222,-0.468415,0.0,0.0
652,162.75,69.8541,78.3769,150.494,98.9629,104.416,,0.0488483,,52.1122,-0.482394,0.0,0.0
654,163.25,69.5392,78.3438,150.102,98.9737,103.817,,0.0488339,,52.1222,-0.429642,0.0,0.0
656,163.75,69.5509,78.2349,150.531,98.9729,104,,0.0488081,,52.1022,-0.445518,0.0,0.0
658,164.25,69.691,78.1939,151.968,98.9804,104.728,,0.0487872,,52.0922,-0.507578,0.0,0.0
660,164.75,69.4194,78.3103,150.824,98.9721,105.048,,0.0487843,,52.0622,-0.535804,0.0,0.0
662,165.25,69.3653,77.9341,151.914,98.9788,104.046,,,,52.0822,-0.44897,0.0,0.0
664,165.75,68.9042,77.8333,148.523,98.9741,104.352,,,,52.0822,-0.475813,0.0,0.0
666,166.25,69.2893,78.2213,149.12,98.9784,104.554,,,,52.0822,-0.492797,0.0,0.0
668,166.75,69.4061,77.4795,153.443,98.9665,104.287,,,,52.0922,-0.470893,0.0,0.0
670,167.25,68.7469,77.7737,149.433,98.9621,104.205,,,,52.0922,-0.464247,0.0,0.0
672,167.75,68.9617,77.2176,148.987,98.9509,104.361,,,,52.0922,-0.478727,0.0,0.0
674,168.25,68.9415,76.9286,148.314,98.9549,105.371,,,,52.0922,-0.564935,0.0,0.0
676,168.75,68.998,77.1025,146.991,98.939,104.084,,,,52.0822,-0.455889,0.0,0.0
678,169.25,68.5059,76.8533,150.283,98.945,104.468,,,,52.0822,-0.488467,0.0,0.0
680,169.75,68.4934,76.81,152.426,98.9278,104.891,,,,52.0922,-0.526334,0.0,0.0
682,170.25,69.0336,76.597,149.464,98.9266,105.067,,,,52.1122,-0.54151,0.0,0.0
684,170.75,68.4822,76.7326,152.357,98.921,104.868,,,,52.1122,-0.524988,0.0,0.0
686,171.25,68.329,76.0596,146.301,98.9151,104.106,,,,52.1222,-0.460001,0.0,0.0
688,171.75,68.6372,75.9594,148.912,98.8859,104.043,,,,52.0922,-0.457142,0.0,0.0
690,172.25,68.1656,76.1234,151.626,98.8875,104.5,,,,52.1022,-0.496467,0.0,0.0
692,172.75,68.6047,76.4989,149.54,98.8608,104.635,,,,52.0922,-0.510472,0.0,0.0