File: 01_Data/Memory_Foam_Carpet_Pad/Cone/Memory_Foam_Carpet_Pad_Cone_HF75Scan_220922_R2.csv
Names,Time,Stack TC,Smoke TC,Exh Press,Smoke Comp,Smoke Meas,CO Meter,CO2 Meter,O2 Meter,Sample Mass,Ext Coeff,Start Test,Flame Verif
Chan Gain,,500,500,1,1,1,1,1,1,1,1,1.0,1.0
Offset,,0,0,0.141977,0,0,0,0,0,0,0,0.0,0.0
Gain,,1,1,25.011,13.065,14.7021,1,1,1,1.00081,1.02518,1.0,1.0
Units,sec,C,C,Pa,%,%,%,%,%,g,/m,,
Baseline,,63.9308,65.476,152.681,98.4153,103.79,-7.91255e-05,0.0454952,20.9485,-446.179,-0.478077,,
2,0.25,61.7541,63.2723,149.18,98.2751,103.28,0.00151487,0.0544075,20.9332,64.8325,-0.446734,0.0,0.0
4,0.75,61.1722,63.2118,146.169,98.2959,100.732,0.00213769,0.0661653,20.9131,64.8926,-0.220154,0.0,0.0
6,1.25,61.3041,62.2999,144.741,98.2919,92.4001,0.00264218,0.075689,20.8968,64.9126,0.555876,0.0,1.0
8,1.75,60.7865,62.114,142.58,98.3058,86.3058,0.00367154,0.0923124,20.8519,64.7625,1.17075,0.0,1.0
10,2.25,60.81,62.2325,142.806,98.315,86.2905,0.00450533,0.113795,20.8155,64.6424,1.17317,0.0,1.0
12,2.75,61.272,62.6287,136.358,98.3186,80.7095,0.00589654,0.139097,20.7719,64.6524,1.7748,0.0,1.0
14,3.25,61.4235,62.333,132.827,98.3126,79.6614,0.00702342,0.166701,20.7239,64.6224,1.8918,0.0,1.0
16,3.75,61.8679,62.7012,131.951,98.3222,74.5501,0.00861697,0.189061,20.6723,64.5023,2.48902,0.0,1.0
18,4.25,62.4038,63.1967,133.342,98.317,71.7338,0.00990775,0.223272,20.619,64.4222,2.83485,0.0,1.0
20,4.75,62.7202,63.4342,136.566,98.3289,73.5971,0.0109533,0.250982,20.5759,64.3121,2.60533,0.0,1.0
22,5.25,63.6077,63.7338,130.485,98.3301,68.7147,0.0127616,0.285954,20.541,64.252,3.22274,0.0,1.0
24,5.75,63.6339,64.1679,132.726,98.3481,69.7816,0.0142263,0.314282,20.5042,64.192,3.08582,0.0,1.0
26,6.25,64.015,63.9305,134.172,98.3573,70.058,0.0154127,0.343386,20.4668,64.172,3.05111,0.0,1.0
28,6.75,63.3748,63.8299,128.501,98.364,70.7391,0.0172251,0.372503,20.4365,64.0419,2.96473,0.0,1.0
30,7.25,64.753,64.0908,132.147,98.3748,69.4545,0.0186931,0.396089,20.3943,63.9518,3.13051,0.0,0.0
32,7.75,65.3086,64.7104,124.917,98.382,67.4431,0.0201296,0.426624,20.3602,63.8517,3.39545,0.0,0.0
34,8.25,65.6029,64.7412,128.34,98.4003,64.5267,0.0215158,0.451358,20.3195,63.7717,3.79465,0.0,0.0
36,8.75,66.1856,65.5686,133.362,98.3971,67.4799,0.0228184,0.471392,20.2866,63.7116,3.39193,0.0,0.0
38,9.25,66.8107,66.3566,126.577,98.4079,66.7315,0.0240355,0.495952,20.2376,63.6015,3.4932,0.0,0.0
40,9.75,67.9594,66.9468,124.898,98.4131,68.9332,0.0251567,0.523343,20.1978,63.5215,3.20177,0.0,0.0
42,10.25,68.5502,67.5956,128.466,98.4318,68.8398,0.0261867,0.550576,20.146,63.4514,3.21567,0.0,0.0
44,10.75,69.2819,68.0661,128.273,98.429,68.4473,0.0271173,0.577175,20.104,63.3813,3.26684,0.0,0.0
46,11.25,70.3923,69.0016,121.801,98.4426,68.3835,0.0279577,0.603981,20.0552,63.2312,3.27646,0.0,0.0
48,11.75,71.2795,69.7788,124.474,98.4482,71.2443,0.0286384,0.630428,20.0157,63.1111,2.90842,0.0,0.0
50,12.25,71.5682,70.183,113.213,98.4561,64.5362,0.0293146,0.657066,19.9837,63.0311,3.79844,0.0,0.0
52,12.75,72.5277,71.2332,117.408,98.4545,66.5915,0.0299745,0.683339,19.943,62.8709,3.51635,0.0,0.0
54,13.25,73.4694,71.776,120.081,98.4717,67.1448,0.0305091,0.71015,19.91,62.7608,3.44352,0.0,0.0
56,13.75,74.4957,72.8562,122.473,98.4809,68.6267,0.0311469,0.736846,19.8754,62.6808,3.24803,0.0,0.0
58,14.25,75.2489,73.6263,114.843,98.4856,67.8142,0.0316636,0.758469,19.8402,62.5307,3.35558,0.0,0.0
60,14.75,76.1965,74.4022,118.504,98.4852,69.4962,0.0323126,0.785966,19.799,62.3905,3.1352,0.0,0.0
62,15.25,76.992,75.3603,107.572,98.5012,69.109,0.0328382,0.817223,19.7542,62.3205,3.1869,0.0,0.0
64,15.75,78.1011,76.4114,112.897,98.4972,66.7692,0.0335264,0.842541,19.6942,62.1503,3.49628,0.0,0.0
66,16.25,79.1515,77.0007,110.686,98.5104,66.3739,0.0340838,0.889218,19.6241,62.0102,3.55088,0.0,0.0
68,16.75,80.15,78.0014,109.121,98.5116,67.5656,0.0348066,0.927027,19.5433,61.9302,3.39097,0.0,0.0
70,17.25,80.962,79.1109,109.913,98.5275,67.3081,0.0353921,0.983162,19.4563,61.76,3.42677,0.0,0.0
72,17.75,82.5191,79.9108,101.499,98.5195,66.1886,0.0360045,1.02863,19.3858,61.5599,3.57686,0.0,0.0
74,18.25,83.7615,81.3612,106.006,98.549,68.2449,0.0366249,1.09078,19.2898,61.4298,3.30443,0.0,0.0
76,18.75,85.1083,82.8438,100.197,98.5478,66.2514,0.0371274,1.14112,19.212,61.2796,3.57091,0.0,0.0
78,19.25,86.6095,83.9113,95.5855,98.5674,65.5766,0.0377673,1.2073,19.1304,61.0795,3.66476,0.0,0.0
80,19.75,88.3527,85.6229,102.527,98.559,63.7712,0.0382856,1.26091,19.0476,60.9294,3.91506,0.0,0.0
82,20.25,90.1989,86.8359,91.5287,98.5757,64.6551,0.0388096,1.31587,18.9805,60.7392,3.7928,0.0,0.0
84,20.75,91.4705,88.3675,98.7004,98.5805,66.1729,0.039234,1.37077,18.8943,60.5991,3.58456,0.0,0.0
86,21.25,93.2127,89.9984,98.5745,98.6025,66.4524,0.0396132,1.41524,18.8246,60.469,3.54865,0.0,0.0
88,21.75,95.1015,91.629,98.6851,98.6025,67.2924,0.0399521,1.47405,18.7547,60.3089,3.4357,0.0,0.0
90,22.25,97.1381,93.0508,91.2867,98.6168,65.9513,0.0402266,1.52168,18.686,60.1587,3.61804,0.0,0.0
92,22.75,98.5634,95.4274,91.4356,98.6037,66.8598,0.0404862,1.57177,18.611,59.9786,3.4938,0.0,0.0
94,23.25,100.707,96.7335,97.3616,98.6244,65.3891,0.0406966,1.62268,18.5329,59.7784,3.69572,0.0,0.0
96,23.75,102.278,98.7816,94.768,98.616,64.9081,0.0409641,1.6737,18.4558,59.6683,3.76135,0.0,0.0
98,24.25,104.376,100.149,94.2085,98.6423,67.317,0.0411808,1.72382,18.3808,59.4181,3.43604,0.0,0.0
100,24.75,105.638,101.718,92.6461,98.6348,68.2548,0.041444,1.76442,18.32,59.238,3.31095,0.0,0.0
102,25.25,107.229,104.078,88.1229,98.6519,68.4046,0.041736,1.81891,18.24,59.0178,3.29279,0.0,0.0
104,25.75,109.697,105.506,98.3867,98.6451,69.5828,0.0419725,1.86304,18.1751,58.8777,3.13859,0.0,0.0
106,26.25,111.21,107.64,94.2116,98.6619,69.5528,0.0424731,1.92068,18.1044,58.6575,3.14401,0.0,0.0
108,26.75,112.812,109.804,89.29,98.6635,66.7477,0.0428785,1.96736,18.0309,58.5474,3.51435,0.0,0.0
110,27.25,114.736,111.232,81.587,98.6818,69.4931,0.0434404,2.02026,17.949,58.3072,3.15354,0.0,0.0
112,27.75,116.705,113.259,80.5879,98.6758,68.9062,0.0438956,2.07669,17.8624,58.0971,3.22926,0.0,0.0
114,28.25,118.912,115.323,81.9328,98.691,69.5416,0.0443781,2.12239,17.7924,57.8969,3.14811,0.0,0.0
116,28.75,120.646,117.332,90.8723,98.6842,65.7332,0.0448715,2.19338,17.7356,57.7368,3.65397,0.0,0.0
118,29.25,122.549,119.461,96.3198,98.7029,66.3443,0.0452711,2.25089,17.6467,57.5066,3.57246,0.0,0.0
120,29.75,124.392,121.483,82.6747,98.6834,67.6464,0.0458628,2.32007,17.5414,57.2664,3.3959,0.0,0.0
122,30.25,126.583,123.966,78.2294,98.7133,69.3522,0.0463421,2.39644,17.4261,57.0963,3.17466,0.0,0.0
124,30.75,128.703,126.262,73.0673,98.7017,67.3327,0.0468153,2.47934,17.2976,56.8861,3.43936,0.0,0.0
126,31.25,131.445,127.949,70.6798,98.7141,71.417,0.0472752,2.56541,17.1619,56.6759,2.9109,0.0,0.0
128,31.75,133.382,131.004,83.1388,98.7033,69.3868,0.0477712,2.63512,17.052,56.3857,3.16927,0.0,0.0
130,32.25,135.476,133.507,77.0722,98.7269,69.3432,0.0481729,2.72538,16.8954,56.1555,3.17706,0.0,0.0
132,32.75,137.963,135.975,65.6353,98.7169,72.291,0.0484983,2.82889,16.7685,55.9253,2.80177,0.0,0.0
134,33.25,140.937,138.672,85.3996,98.7336,70.3555,0.0488187,2.93434,16.6657,55.6851,3.04736,0.0,0.0
136,33.75,143.62,141.31,74.8244,98.7253,74.0314,0.0491295,3.03918,16.5045,55.4249,2.5886,0.0,0.0
138,34.25,146.086,143.873,85.1523,98.7312,72.8923,0.0493812,3.14688,16.3739,55.1847,2.72859,0.0,0.0
140,34.75,148.733,146.988,82.2518,98.7297,71.4309,0.049675,3.25461,16.2346,55.0046,2.91057,0.0,0.0
142,35.25,151.245,149.974,65.5704,98.7416,75.4071,0.049913,3.34187,16.0916,54.7143,2.42452,0.0,0.0
144,35.75,153.99,152.991,78.0966,98.7376,77.0339,0.0502285,3.47594,15.9364,54.4541,2.2322,0.0,0.0
146,36.25,157.243,155.947,62.6738,98.7476,77.5629,0.0504841,3.58453,15.7752,54.1639,2.17156,0.0,0.0
148,36.75,159.753,158.901,84.647,98.734,77.2928,0.050861,3.67249,15.5971,53.9637,2.2017,0.0,0.0
150,37.25,162.214,162.615,74.4618,98.742,76.5229,0.0511663,3.8128,15.4099,53.6535,2.29245,0.0,0.0
152,37.75,165.651,165.678,81.4115,98.7468,80.4416,0.0516061,3.92645,15.2135,53.4533,1.84377,0.0,0.0
154,38.25,168.532,169.139,56.66,98.7388,80.2276,0.0519623,4.06883,15.0141,53.2231,1.86701,0.0,0.0
156,38.75,171.613,172.733,76.3624,98.7416,76.5615,0.0524221,4.18416,14.8194,53.0029,2.28788,0.0,0.0
158,39.25,174.045,176.163,62.2258,98.7392,79.2477,0.0527945,4.32242,14.6318,52.6226,1.97756,0.0,0.0
160,39.75,176.964,179.772,67.6206,98.744,83.3477,0.0530962,4.43441,14.4798,52.3524,1.52437,0.0,0.0
162,40.25,180.391,182.928,73.9443,98.7372,80.5071,0.0532829,4.55389,14.415,52.0822,1.83558,0.0,0.0
164,40.75,183.563,186.663,65.127,98.7452,83.3521,0.053602,4.65066,14.3042,51.832,1.524,0.0,0.0
166,41.25,186.312,190.145,72.875,98.75,77.8164,0.0537967,4.73862,14.2144,51.5818,2.14244,0.0,0.0
168,41.75,189.683,194.397,76.4639,98.7372,80.5744,0.0538969,4.80988,14.1417,51.3816,1.82807,0.0,0.0
170,42.25,192.741,198.863,61.8823,98.7627,79.2957,0.0537925,4.85067,14.0828,51.0714,1.97425,0.0,0.0
172,42.75,196.031,202.354,61.3587,98.7627,76.0765,0.0535408,4.86848,14.0375,50.8312,2.34696,0.0,0.0
174,43.25,198.053,206.484,63.5524,98.7619,74.5523,0.053337,4.87608,14.0029,50.641,2.52888,0.0,0.0
176,43.75,201.018,209.024,67.6626,98.7651,73.2229,0.0524653,4.84206,14.0661,50.3908,2.69098,0.0,0.0
178,44.25,203.298,212.622,83.093,98.7596,71.22,0.0517593,4.77221,14.1994,50.2407,2.93988,0.0,0.0
180,44.75,205.515,215.752,70.1402,98.7803,66.9321,0.0506517,4.66425,14.3073,50.1106,3.50018,0.0,0.0
182,45.25,207.526,218.45,82.4075,98.7783,65.5645,0.0492724,4.53057,14.5651,49.9505,3.68565,0.0,0.0
184,45.75,208.606,221.541,85.6515,98.7799,61.2577,0.0476187,4.42229,14.7739,49.8904,4.29681,0.0,0.0
186,46.25,209.806,223.242,93.1606,98.7795,62.2358,0.0457963,4.18987,15.1666,49.7803,4.15432,0.0,0.0
188,46.75,209.51,225.244,95.4466,98.7911,62.6998,0.0443202,4.00161,15.4846,49.6702,4.08858,0.0,0.0
190,47.25,210.354,226.031,109.202,98.7994,63.7362,0.0415116,3.7907,15.8296,49.7003,3.94191,0.0,0.0
192,47.75,209.586,226.967,119.601,98.8102,68.3782,0.0392366,3.56727,16.1878,49.6903,3.31068,0.0,0.0
194,48.25,208.816,227.169,121.283,98.8102,73.4351,0.0368061,3.32291,16.478,49.6702,2.66905,0.0,0.0
196,48.75,207.767,226.981,125.975,98.8146,76.0473,0.0343083,3.06793,16.872,49.6602,2.35513,0.0,0.0
198,49.25,206.11,227,129.566,98.8062,83.0331,0.0318195,2.86139,17.1912,49.6402,1.56404,0.0,0.0
200,49.75,204.853,226.702,133.623,98.8245,88.0269,0.0293847,2.59581,17.5626,49.6302,1.0405,0.0,0.0
202,50.25,202.775,224.966,138.584,98.8134,91.6723,0.0270636,2.38068,17.8634,49.5902,0.674573,0.0,0.0
204,50.75,200.775,223.89,139.517,98.8261,95.9163,0.0248696,2.16541,18.2239,49.5501,0.268759,0.0,0.0
206,51.25,198.772,222.904,139.41,98.8273,99.4281,0.0226165,1.95412,18.516,49.6102,-0.0545,0.0,0.0
208,51.75,196.717,221.054,142.034,98.8233,102.835,0.0207914,1.75954,18.7526,49.6202,-0.357869,0.0,0.0
210,52.25,194.453,219.575,143.451,98.817,104.128,0.0193132,1.58083,19.0069,49.5401,-0.470783,0.0,0.0
212,52.75,192.532,217.288,147.407,98.8337,104.616,0.0178949,1.4191,19.2129,49.5802,-0.511281,0.0,0.0
214,53.25,189.979,216.365,145.318,98.815,104.596,0.0165473,1.27282,19.3992,49.5501,-0.511327,0.0,0.0
216,53.75,188.311,214.872,146.2,98.8301,104.011,0.0154558,1.14215,19.5676,49.5001,-0.459467,0.0,0.0
218,54.25,185.884,212.827,141.503,98.8225,104.162,0.0145031,1.02533,19.704,49.4801,-0.47322,0.0,0.0
220,54.75,184.17,211.139,147.163,98.8305,104.317,0.0136697,0.930712,19.8427,49.4901,-0.485886,0.0,0.0
222,55.25,182.646,209.592,147.676,98.8242,104.427,0.0129947,0.8416,19.9551,49.4801,-0.495899,0.0,0.0
224,55.75,180.201,207.846,146.191,98.8397,104.897,0.0124505,0.758198,20.0588,49.4701,-0.534848,0.0,0.0
226,56.25,177.068,204.948,146.059,98.8154,104.011,0.0120097,0.690642,20.1543,49.4401,-0.460809,0.0,0.0
228,56.75,174.986,203.404,143.167,98.8381,104.61,0.0116917,0.628598,20.2427,49.42,-0.510419,0.0,0.0
230,57.25,172.935,200.861,145.674,98.8289,104.484,0.0114341,0.571753,20.3242,49.37,-0.50037,0.0,0.0
232,57.75,171.046,199.96,146.619,98.8501,103.979,0.0112684,0.525708,20.3962,49.39,-0.454937,0.0,0.0
234,58.25,169.541,198.134,148.4,98.8249,105.038,0.0111343,0.48338,20.4598,49.4,-0.548298,0.0,0.0
236,58.75,168.06,196.526,147.419,98.8289,104.715,0.0110542,0.444568,20.5148,49.37,-0.520235,0.0,0.0
238,59.25,166.489,195.19,146.893,98.8178,104.496,0.0109894,0.408278,20.5626,49.39,-0.502467,0.0,0.0
240,59.75,164.621,193.743,144.67,98.8309,104.579,0.0109369,0.378883,20.6029,49.43,-0.508371,0.0,0.0
242,60.25,162.66,192.356,142.343,98.8182,105.249,0.0108944,0.351366,20.6371,49.4401,-0.566989,0.0,0.0
244,60.75,161.374,190.508,147.216,98.8269,104.72,0.0108387,0.329077,20.6647,49.42,-0.520841,0.0,0.0
246,61.25,160.022,189.049,144.507,98.8242,105.359,0.0107744,0.307943,20.6898,49.4601,-0.575832,0.0,0.0
248,61.75,158.962,187.892,146.224,98.8365,105.252,0.0107224,0.290824,20.7101,49.4901,-0.565589,0.0,0.0
250,62.25,156.612,185.962,143.852,98.8293,105.22,0.010649,0.274561,20.728,49.4901,-0.563482,0.0,0.0
252,62.75,155.425,185.223,148.043,98.8473,104.029,0.0105895,0.261388,20.7438,49.4901,-0.459458,0.0,0.0
254,63.25,154.549,183.765,145.128,98.8269,104.046,0.010514,0.249498,20.7575,49.43,-0.462782,0.0,0.0
256,63.75,152.965,182.78,146.245,98.8385,104.713,0.0104529,0.238769,20.7694,49.4,-0.519211,0.0,0.0
258,64.25,151.746,180.948,149.512,98.8198,105.004,0.0103869,0.230079,20.7791,49.4501,-0.545889,0.0,0.0
260,64.75,150.443,179.961,148.673,98.8345,105.225,0.0103187,0.221008,20.7883,49.42,-0.56347,0.0,0.0
262,65.25,149.137,178.335,149.242,98.8369,104.305,0.0102635,0.213661,20.7957,49.39,-0.484262,0.0,0.0
264,65.75,148.117,177.308,144.589,98.8421,105.305,0.0101784,0.206242,20.8025,49.37,-0.569603,0.0,0.0
266,66.25,147.195,175.75,148.546,98.8285,105.147,0.0101096,0.200234,20.8085,49.35,-0.55734,0.0,0.0
268,66.75,145.493,174.819,145.467,98.8437,104.744,0.0100058,0.194621,20.814,49.36,-0.521398,0.0,0.0
270,67.25,144.453,173.38,143.594,98.8257,104.224,0.00992169,0.189405,20.8188,49.38,-0.478273,0.0,0.0
272,67.75,143.502,172.482,148.089,98.8409,105.09,0.00985359,0.184594,20.8226,49.39,-0.551302,0.0,0.0
274,68.25,142.364,171.261,147.406,98.8353,104.539,0.00971293,0.180169,20.8276,49.39,-0.504576,0.0,0.0
276,68.75,141.108,170.104,148.432,98.8465,104.407,0.00957448,0.176585,20.8316,49.39,-0.492168,0.0,0.0
278,69.25,139.945,168.969,149.53,98.8305,105.364,0.00944029,0.172395,20.8357,49.37,-0.575674,0.0,0.0
280,69.75,138.651,167.774,149.027,98.8413,104.288,0.0093316,0.169001,20.8391,49.38,-0.482392,0.0,0.0
282,70.25,137.66,167.036,146.478,98.8162,104.7,0.00920609,0.165732,20.8418,49.37,-0.520163,0.0,0.0
284,70.75,136.713,165.64,147.637,98.8349,104.765,0.00910442,0.162616,20.844,49.36,-0.524005,0.0,0.0
286,71.25,135.45,164.928,146.194,98.8233,104.723,0.00898465,0.160092,20.8462,49.33,-0.521437,0.0,0.0
288,71.75,134.816,163.32,145.146,98.8289,104.986,0.00888763,0.157238,20.848,49.35,-0.543517,0.0,0.0
290,72.25,133.755,162.284,148.932,98.8158,104.55,0.00876649,0.154927,20.8497,49.33,-0.507281,0.0,0.0
292,72.75,132.854,161.66,147.231,98.8138,104.245,0.00866837,0.152483,20.8513,49.34,-0.481142,0.0,0.0
294,73.25,131.85,161.09,147.059,98.8186,105.542,0.00855025,0.150503,20.8528,49.34,-0.591952,0.0,0.0
296,73.75,130.746,159.283,146.091,98.8214,105.193,0.00845457,0.148357,20.8543,49.33,-0.561906,0.0,0.0
298,74.25,130.103,158.528,148.787,98.8122,105.074,0.00837707,0.146618,20.8554,49.33,-0.552532,0.0,0.0
300,74.75,129.025,157.823,149.16,98.8222,104.503,0.00829936,0.144479,20.8564,49.32,-0.502609,0.0,0.0
302,75.25,128.318,156.771,142.775,98.817,105.192,0.00822298,0.142746,20.8571,49.32,-0.56219,0.0,0.0
304,75.75,127.368,155.564,145.827,98.8385,103.875,0.0081611,0.140699,20.8587,49.2999,-0.446982,0.0,0.0
306,76.25,126.904,154.476,148.218,98.8242,103.093,0.00811098,0.139042,20.8599,49.2599,-0.380328,0.0,0.0
308,76.75,125.709,153.94,150.732,98.8293,105.153,0.00802924,0.137699,20.8605,49.2999,-0.557766,0.0,0.0
310,77.25,124.732,152.942,149.623,98.8341,105.126,0.00796303,0.135883,20.8607,49.2999,-0.555028,0.0,0.0
312,77.75,124.064,151.72,147.1,98.8381,104.774,0.00786573,0.134412,20.8611,49.2899,-0.524486,0.0,0.0
314,78.25,123.132,150.576,146.285,98.8405,105.563,0.00778692,0.13322,20.8616,49.2699,-0.591754,0.0,0.0
316,78.75,122.587,149.988,150.403,98.8473,104.583,0.00767818,0.132255,20.8623,49.2599,-0.507231,0.0,0.0
318,79.25,121.393,149.247,146.681,98.8313,104.205,0.0075901,0.130527,20.863,49.2499,-0.4761,0.0,0.0
320,79.75,120.066,148.386,149.66,98.8413,104.473,0.0074611,0.129127,20.8643,49.2699,-0.498357,0.0,0.0
322,80.25,120.331,147.117,147.135,98.8425,104.289,0.00735661,0.127383,20.866,49.2599,-0.4824,0.0,0.0
324,80.75,119.32,146.385,149.241,98.8373,104.819,0.0072144,0.125971,20.8677,49.2499,-0.528447,0.0,0.0
326,81.25,118.651,145.976,148.559,98.8273,104.862,0.00709921,0.124349,20.8692,49.1999,-0.533009,0.0,0.0
328,81.75,117.768,144.442,147.971,98.8341,104.729,0.00697834,0.123035,20.8704,49.2099,-0.520958,0.0,0.0
330,82.25,117.379,143.742,150.512,98.8214,103.775,0.00685562,0.121536,20.8714,49.1898,-0.439875,0.0,0.0
332,82.75,116.577,143.094,147.294,98.8285,105.353,0.00675622,0.120323,20.8722,49.1698,-0.574898,0.0,0.0
334,83.25,115.965,142.548,147.158,98.8202,104.579,0.00664253,0.118935,20.8731,49.1798,-0.50939,0.0,0.0
336,83.75,115.053,141.525,150.09,98.819,104.717,0.00652628,0.11781,20.874,49.1698,-0.521296,0.0,0.0
338,84.25,114.444,140.361,151.134,98.8114,104.94,0.00641038,0.116611,20.8752,49.1598,-0.541115,0.0,0.0
340,84.75,113.919,140.119,145.47,98.8257,105.562,0.0063165,0.115379,20.8762,49.1498,-0.592981,0.0,0.0
342,85.25,113.339,139.57,148.206,98.8421,105.428,0.00618444,0.114382,20.8772,49.1598,-0.580096,0.0,0.0
344,85.75,112.41,138.174,149.446,98.8158,104.716,0.00607748,0.113098,20.8783,49.1198,-0.52151,0.0,0.0
346,86.25,112.021,137.624,146.896,98.8174,105.045,0.00593871,0.112058,20.8796,49.1198,-0.549602,0.0,0.0
348,86.75,111.121,136.895,146.657,98.8146,103.888,0.00582631,0.110783,20.8811,49.0998,-0.450285,0.0,0.0
350,87.25,110.497,136.415,144.461,98.8126,104.428,0.0057112,0.109751,20.8823,49.0297,-0.497029,0.0,0.0
352,87.75,110.006,135.46,150.844,98.8154,105.064,0.00559632,0.108512,20.8833,49.0898,-0.551397,0.0,0.0
354,88.25,109.642,134.244,150.762,98.8122,104.425,0.00550326,0.107508,20.884,49.1198,-0.496794,0.0,0.0
356,88.75,108.699,134.09,146.89,98.8102,104.742,0.00541186,0.10625,20.8847,49.0998,-0.524291,0.0,0.0
358,89.25,108.383,133.649,149.802,98.8138,104.889,0.00532341,0.10523,20.8857,49.1398,-0.536591,0.0,0.0
360,89.75,107.621,132.963,147.183,98.7974,104.832,0.00523908,0.104404,20.8864,49.1298,-0.533192,0.0,0.0
362,90.25,107.028,131.903,149.763,98.807,104.972,0.00515937,0.103319,20.888,49.1198,-0.544283,0.0,0.0
364,90.75,106.481,130.88,145.223,98.8034,104.611,0.00509481,0.10244,20.8892,49.1298,-0.513652,0.0,0.0
366,91.25,105.953,130.374,144.606,98.803,104.984,0.00501338,0.101326,20.8902,49.0898,-0.545683,0.0,0.0
368,91.75,105.347,129.989,149.187,98.7974,104.908,0.00494742,0.100424,20.891,49.0798,-0.539694,0.0,0.0
370,92.25,104.985,128.825,149.371,98.7915,104.518,0.00486615,0.0996932,20.8922,49.0998,-0.506754,0.0,0.0
372,92.75,103.971,128.509,144.914,98.7831,104.455,0.00480032,0.0986141,20.8935,49.1098,-0.502071,0.0,0.0
374,93.25,103.799,127.826,147.563,98.7751,104.839,0.00472296,0.09774,20.8948,49.1198,-0.535762,0.0,0.0
376,93.75,103.629,127.21,143.923,98.7699,105.006,0.0046603,0.0966598,20.8961,49.1198,-0.550579,0.0,0.0
378,94.25,103.074,126.871,144.469,98.7791,105.034,0.00458427,0.0957848,20.8971,49.0898,-0.552165,0.0,0.0
380,94.75,102.463,125.78,149.035,98.7787,104.505,0.00452268,0.0946756,20.898,49.1098,-0.506757,0.0,0.0
382,95.25,101.482,125.546,147.705,98.7747,104.813,0.00444488,0.0937772,20.8986,49.1198,-0.533605,0.0,0.0
384,95.75,101.367,124.551,151.732,98.7564,104.486,0.00435675,0.0926636,20.8997,49.0998,-0.50713,0.0,0.0
386,96.25,100.723,124.088,153.382,98.7588,104.731,0.00428535,0.0917617,20.9009,49.0697,-0.528048,0.0,0.0
388,96.75,100.436,123.125,148.747,98.7536,104.433,0.00416827,0.0906599,20.9019,49.1198,-0.502865,0.0,0.0
390,97.25,100.077,122.966,153.111,98.7611,105.066,0.00407343,0.0897674,20.9028,49.0998,-0.556525,0.0,0.0
392,97.75,99.227,122.394,147.209,98.7508,104.674,0.00397076,0.0887968,20.9034,49.1298,-0.523842,0.0,0.0
394,98.25,99.0683,121.755,148.326,98.7576,104.838,0.00386434,0.0877877,20.904,49.0898,-0.537323,0.0,0.0
396,98.75,98.6416,121.385,151.156,98.7492,104.735,0.00377814,0.0869703,20.9053,49.0697,-0.529189,0.0,0.0
398,99.25,98.1801,120.599,147.899,98.7484,104.956,0.00368251,0.0857242,20.9064,49.0497,-0.548234,0.0,0.0
400,99.75,98.065,120.045,148.867,98.7408,105.226,0.00358182,0.0847148,20.9076,49.0898,-0.572038,0.0,0.0
402,100.25,97.1979,119.588,144.173,98.7484,104.272,0.00348506,0.0836949,20.9087,49.0798,-0.489417,0.0,0.0
404,100.75,96.6575,118.898,145.77,98.7368,104.733,0.00339299,0.0826869,20.9099,49.0998,-0.530161,0.0,0.0
406,101.25,96.0969,118.246,147.612,98.736,104.879,0.00330257,0.0818704,20.911,49.1398,-0.542746,0.0,0.0
408,101.75,95.7711,117.852,149.041,98.7189,105.316,0.00321505,0.081209,20.9123,49.1098,-0.581701,0.0,0.0
410,102.25,95.2353,117.108,147.831,98.7253,105.036,0.00314417,0.0801757,20.9133,49.0497,-0.557258,0.0,0.0
412,102.75,95.3683,116.495,151.896,98.7245,104.762,0.00306761,0.0793388,20.9141,49.0697,-0.533791,0.0,0.0
414,103.25,94.6555,115.902,151.337,98.7352,104.734,0.00298837,0.0783484,20.9157,49.0898,-0.530422,0.0,0.0
416,103.75,95.007,115.225,148.831,98.7149,104.457,0.00291166,0.0775462,20.917,49.0798,-0.508435,0.0,0.0
418,104.25,94.1021,115.354,145.348,98.7221,104.716,0.00283824,0.0765699,20.918,49.0798,-0.53008,0.0,0.0
420,104.75,93.8163,114.6,148.477,98.6978,103.709,0.00277878,0.0757792,20.9189,49.0898,-0.445413,0.0,0.0
422,105.25,93.6542,113.785,147.866,98.7077,104.258,0.00270682,0.0748408,20.92,49.0898,-0.49196,0.0,0.0
424,105.75,92.7142,113.54,147.684,98.6882,103.766,0.00264853,0.0740807,20.9209,49.0998,-0.451224,0.0,0.0
426,106.25,92.7508,112.99,146.314,98.7137,104.239,0.00258005,0.0732934,20.9216,49.0998,-0.489752,0.0,0.0
428,106.75,92.4183,112.856,150.193,98.6966,104.287,0.00252457,0.0725014,20.9227,49.0697,-0.495493,0.0,0.0
430,107.25,91.9887,111.802,145.518,98.6922,104.3,0.00244717,0.0718598,20.9235,49.0898,-0.497015,0.0,0.0
432,107.75,91.4597,111.253,154.616,98.6762,104.097,0.00238447,0.0710851,20.9244,49.1098,-0.480965,0.0,0.0
434,108.25,91.0334,111.129,150.586,98.6993,104.324,0.0023133,0.0704576,20.9251,49.0898,-0.49841,0.0,0.0
436,108.75,91.0029,110.732,143.587,98.6694,104.308,0.00223731,0.0697087,20.9261,49.0898,-0.499743,0.0,0.0
438,109.25,90.4554,110.422,149.357,98.677,104.392,0.00217575,0.069102,20.9269,49.0898,-0.506283,0.0,0.0
440,109.75,90.369,109.671,146.556,98.6607,104.927,0.00211144,0.0684772,20.9276,49.0898,-0.553804,0.0,0.0
442,110.25,90.1071,109.146,146.652,98.6702,104.644,0.00204634,0.0678509,20.9281,49.0697,-0.528635,0.0,0.0
444,110.75,89.6386,108.935,145.09,98.6499,105.287,0.00199098,0.0672394,20.9285,49.0597,-0.585572,0.0,0.0
446,111.25,89.0758,108.661,149.072,98.6435,104.355,0.00194378,0.0666504,20.9289,49.0697,-0.506205,0.0,0.0
448,111.75,89.0265,108.379,147.754,98.6356,104.184,0.00190554,0.0661732,20.9292,49.0697,-0.492188,0.0,0.0
450,112.25,88.9447,107.55,147.132,98.6459,104.295,0.00186584,0.0656899,20.9298,49.0697,-0.500766,0.0,0.0
452,112.75,88.5142,107.325,153.619,98.6244,104.199,0.00183368,0.0652114,20.9304,49.0898,-0.494446,0.0,0.0
454,113.25,87.9077,106.61,148.538,98.6164,104.229,0.00178269,0.0648239,20.9308,49.1098,-0.497767,0.0,0.0
456,113.75,88.0276,106.142,150.537,98.6068,104.738,0.00174139,0.0643544,20.9312,49.1098,-0.542431,0.0,0.0
458,114.25,87.8444,106.001,150.789,98.6092,104.252,0.00166932,0.0639742,20.9317,49.1398,-0.500396,0.0,0.0
460,114.75,86.9381,105.067,150.901,98.5841,103.703,0.00161094,0.0634967,20.9324,49.1198,-0.455189,0.0,0.0
462,115.25,87.4678,105.032,148.963,98.6188,104.347,0.00153004,0.0631099,20.9329,49.0898,-0.507762,0.0,0.0
464,115.75,86.9897,104.536,147.213,98.5769,104.7,0.00146452,0.0625706,20.9333,49.0998,-0.541884,0.0,0.0
466,116.25,86.7292,104.379,153.61,98.5845,104.784,0.00141145,0.0621338,20.9336,49.0798,-0.548474,0.0,0.0
468,116.75,86.2757,103.537,150.051,98.5698,104.076,0.00133986,0.0616106,20.9341,49.0798,-0.488811,0.0,0.0
470,117.25,85.4217,103.314,153.033,98.5781,103.428,0.00128187,0.0611868,20.9348,49.1098,-0.431853,0.0,0.0
472,117.75,86.1603,103.425,155.694,98.5574,105.166,0.0012277,0.0607165,20.9353,49.1198,-0.583655,0.0,0.0
474,118.25,85.5225,102.45,151.778,98.5546,104.634,0.00117735,0.0603355,20.9359,49.1098,-0.538293,0.0,0.0
476,118.75,84.6612,102.021,150.802,98.5431,104.678,0.00113656,0.0600269,20.9367,49.0898,-0.543087,0.0,0.0
478,119.25,84.9225,101.858,150.788,98.5387,104.571,0.00107744,0.0595795,20.9373,49.0898,-0.53431,0.0,0.0
480,119.75,84.5081,101.493,150.651,98.5331,104.018,0.00102956,0.059217,20.9377,49.0798,-0.487117,0.0,0.0
482,120.25,84.8258,101.09,146.51,98.5478,103.6,0.000964698,0.0587898,20.9384,49.0697,-0.449624,0.0,0.0
484,120.75,83.8236,100.572,151.539,98.5215,104.136,0.000912164,0.0583236,20.9391,49.0497,-0.498369,0.0,0.0
486,121.25,83.7533,100.199,150.699,98.5363,104.049,0.000855965,0.0579459,20.9397,49.0397,-0.489541,0.0,0.0
488,121.75,83.6542,99.9268,147.94,98.5211,104.308,0.000810443,0.0575272,20.9401,49.0397,-0.513271,0.0,0.0
490,122.25,83.1602,99.3255,152.079,98.5355,104.481,0.000773571,0.0571881,20.9405,49.0397,-0.526842,0.0,0.0
492,122.75,83.5371,98.7265,148.697,98.5155,104.294,0.000739983,0.056857,20.9409,49.0397,-0.512582,0.0,0.0
494,123.25,82.951,98.8345,149.606,98.5112,104.245,0.000712777,0.0565888,20.9413,49.0297,-0.508725,0.0,0.0
496,123.75,82.9165,98.5446,149.693,98.5044,104.37,0.00069074,0.0562589,20.9416,49.0497,-0.520175,0.0,0.0
498,124.25,82.4539,98.1011,143.326,98.4924,103.957,0.000677852,0.0559916,20.9419,49.0597,-0.485553,0.0,0.0
500,124.75,82.3493,97.4801,148.653,98.4864,104.715,0.000667413,0.0557751,20.9421,48.9997,-0.551454,0.0,0.0
502,125.25,82.0458,97.6711,146.657,98.486,103.511,0.000662679,0.0555404,20.9422,48.9797,-0.447472,0.0,0.0
504,125.75,81.7347,97.0976,149.58,98.4836,104.269,0.000658844,0.055297,20.9424,48.9396,-0.513327,0.0,0.0
506,126.25,81.6695,96.6641,150.485,98.4733,104.165,0.000647054,0.0550182,20.9425,48.9296,-0.50533,0.0,0.0
508,126.75,80.9639,96.5385,150.731,98.4705,104.076,0.000637505,0.054719,20.9426,48.9396,-0.497912,0.0,0.0
510,127.25,81.2361,96.0726,149.031,98.4769,104.526,0.000619328,0.0544766,20.9427,49.0097,-0.536131,0.0,0.0
512,127.75,80.706,95.7528,148.2,98.4697,104.903,0.000595208,0.0542381,20.9427,49.0597,-0.569153,0.0,0.0
514,128.25,80.7733,95.3139,149.676,98.4502,103.697,0.000558715,0.0540449,20.9428,49.0497,-0.466951,0.0,0.0
516,128.75,80.7077,95.2807,150.838,98.4521,104.057,0.000513896,0.0538587,20.9428,49.0297,-0.497959,0.0,0.0
518,129.25,80.3632,94.5816,151.675,98.4494,103.841,0.000477592,0.0536812,20.9428,49.0397,-0.479466,0.0,0.0
520,129.75,80.7084,94.5084,149.968,98.439,104.439,0.000427138,0.0535004,20.9429,49.0297,-0.532099,0.0,0.0
522,130.25,80.0746,94.2362,146.79,98.4278,103.902,0.00038627,0.0533207,20.9429,49.0397,-0.486716,0.0,0.0
524,130.75,79.622,94.2344,147.226,98.4382,104.154,0.000349909,0.053175,20.9429,48.9997,-0.507606,0.0,0.0
526,131.25,79.8999,93.8197,145.511,98.425,105.102,0.000317526,0.0529867,20.9429,48.9597,-0.590254,0.0,0.0
528,131.75,79.3927,93.3207,147.648,98.4135,103.876,0.000294552,0.0528341,20.9429,48.9196,-0.485774,0.0,0.0
530,132.25,79.5199,93.0692,153.548,98.3939,103.978,0.000278876,0.0526542,20.9429,48.9997,-0.496412,0.0,0.0
532,132.75,79.6915,92.7494,147.434,98.3911,104.003,0.00027139,0.0525085,20.9429,49.0597,-0.498801,0.0,0.0
534,133.25,79.5229,92.3552,146.497,98.374,104.341,0.000270017,0.0523609,20.9434,49.0397,-0.529534,0.0,0.0
536,133.75,79.0056,92.044,150.885,98.3752,103.759,0.000275423,0.0522146,20.9438,49.0097,-0.479168,0.0,0.0
538,134.25,78.897,91.8639,149.484,98.3816,104.189,0.000285667,0.0520961,20.9441,48.9997,-0.515762,0.0,0.0
540,134.75,78.7078,92.0064,146.159,98.3549,103.449,0.000302442,0.0519438,20.9443,48.9797,-0.454078,0.0,0.0
542,135.25,78.4295,91.6319,149.921,98.3421,104.021,0.000323658,0.0518205,20.9445,48.9797,-0.504875,0.0,0.0
544,135.75,78.5022,91.0533,148.539,98.3429,104.416,0.000344756,0.0516784,20.9446,48.9697,-0.53891,0.0,0.0
546,136.25,78.1356,91.0085,149.58,98.3238,104.407,0.000365367,0.0515633,20.9448,48.9497,-0.539849,0.0,0.0
548,136.75,77.8582,90.9606,145.943,98.3273,104.062,0.000382063,0.0513997,20.9449,48.9997,-0.509715,0.0,0.0
550,137.25,77.7786,90.4149,150.4,98.3062,104.579,0.000386456,0.0512672,20.945,49.0197,-0.556281,0.0,0.0
552,137.75,78.0939,90.1957,148.335,98.3062,103.941,0.000381798,0.0511458,20.9455,49.0397,-0.501251,0.0,0.0
554,138.25,77.4809,90.0474,148.835,98.2959,104.015,0.000378025,0.0510475,20.9459,49.0197,-0.508601,0.0,0.0
556,138.75,77.5726,89.8925,146.193,98.2895,104.073,0.000350202,0.0509678,20.9462,49.0297,-0.514187,0.0,0.0
558,139.25,77.3566,89.485,147.384,98.2763,103.963,0.000327665,0.0509033,20.9465,49.0297,-0.505849,0.0,0.0
560,139.75,77.091,88.852,145.975,98.2723,104.302,0.000283423,0.0507526,20.9467,49.0097,-0.535468,0.0,0.0
562,140.25,76.9274,89.1756,148.203,98.2504,103.986,0.000247587,0.0506305,20.9469,48.9997,-0.5102,0.0,0.0
564,140.75,76.7293,88.9971,145.12,98.2544,104.647,0.000200009,0.050539,20.9471,48.9797,-0.566809,0.0,0.0
566,141.25,76.6156,88.3865,146.704,98.2468,104.247,0.000161471,0.0504715,20.9472,48.9697,-0.533083,0.0,0.0
568,141.75,76.5659,87.9937,148.909,98.2404,103.337,0.000117891,0.0504169,20.9473,48.9597,-0.454868,0.0,0.0
570,142.25,76.4066,88.125,149.224,98.2257,104.036,8.25913e-05,0.0503867,20.9473,48.9396,-0.516808,0.0,0.0
572,142.75,76.4177,87.9795,149.413,98.2173,103.633,5.02894e-05,0.0503623,20.9474,48.9597,-0.482719,0.0,0.0
574,143.25,76.597,87.667,143.279,98.1974,103.389,3.65185e-05,0.0503425,20.9474,48.9697,-0.4633,0.0,0.0
576,143.75,76.1236,87.5131,152.113,98.1978,103.93,1.29704e-05,0.0503264,20.9475,48.9697,-0.510205,0.0,0.0
578,144.25,75.9676,87.428,146.644,98.1738,103.725,-2.39452e-06,0.0502572,20.9475,48.9697,-0.494638,0.0,0.0
580,144.75,75.7166,87.0046,145.504,98.1846,103.824,-1.48401e-05,0.0502011,20.9475,48.9897,-0.502205,0.0,0.0
582,145.25,75.7539,86.6749,146.862,98.1595,103.347,-2.4921e-05,0.0501556,20.9476,49.0097,-0.4631,0.0,0.0
584,145.75,75.5643,86.6603,146.049,98.1523,104.265,-3.18502e-05,0.0501188,20.9476,49.0197,-0.543284,0.0,0.0
586,146.25,75.5313,86.6861,151.404,98.1515,104.137,-3.74628e-05,0.0501031,20.9475,49.0397,-0.532322,0.0,0.0
588,146.75,75.2365,86.2194,150.273,98.1491,103.66,-5.37227e-05,0.0500763,20.9474,49.0497,-0.491221,0.0,0.0
590,147.25,75.3447,85.7846,148.244,98.1292,103.99,-7.74354e-05,0.0500546,20.9473,49.0597,-0.521651,0.0,0.0
592,147.75,75.1574,85.4672,148.73,98.1519,104.031,-0.000109007,0.050037,20.9473,49.0197,-0.523175,0.0,0.0
594,148.25,74.9076,85.6113,148.582,98.118,104.527,-0.000145708,0.0499709,20.9472,49.0097,-0.568998,0.0,0.0
596,148.75,75.037,85.6363,150.107,98.1168,103.928,-0.000175436,0.0498707,20.9472,48.9997,-0.517427,0.0,0.0
598,149.25,74.9356,85.3544,146.829,98.0989,103.782,-0.000213116,0.04976,20.9471,48.9396,-0.506407,0.0,0.0
600,149.75,74.8378,85.1132,148.547,98.0993,104.518,-0.000243637,0.0496437,20.9471,48.9296,-0.569982,0.0,0.0
602,150.25,74.8217,84.4676,148.352,98.0845,104.1,-0.000258502,0.0495568,20.947,48.9096,-0.535245,0.0,0.0
604,150.75,74.6395,84.5533,149.302,98.0853,104.671,-0.000270543,0.0494932,20.9468,48.8996,-0.584377,0.0,0.0
606,151.25,74.0309,84.3015,148.026,98.073,104.021,-0.000280296,0.0494416,20.9467,48.8996,-0.52948,0.0,0.0
608,151.75,74.2379,84.304,145.055,98.0678,103.495,-0.000260995,0.0493998,20.9466,48.9096,-0.484419,0.0,0.0
610,152.25,74.5723,83.7234,152.348,98.0638,104.104,-0.000245361,0.049366,20.9465,48.9697,-0.537494,0.0,0.0
612,152.75,74.0624,83.3661,146.927,98.0706,104.155,-0.000203024,0.0493234,20.9464,48.9296,-0.54129,0.0,0.0
614,153.25,73.9394,83.6717,149.061,98.053,104.809,-0.000168731,0.049289,20.9464,48.9697,-0.599242,0.0,0.0
616,153.75,73.3963,83.1817,145.49,98.0538,103.955,-0.000119931,0.0492389,20.9463,48.9797,-0.525532,0.0,0.0
618,154.25,73.1889,83.0439,146.989,98.0379,104.228,-8.04024e-05,0.0491783,20.9463,48.9697,-0.550562,0.0,0.0
620,154.75,73.3986,83.1164,151.179,98.0343,103.366,-3.9725e-05,0.0491293,20.9465,48.9597,-0.476217,0.0,0.0
622,155.25,73.632,82.8839,152.602,98.0239,103.579,-6.77634e-06,0.0490614,20.9469,48.9497,-0.49569,0.0,0.0
624,155.75,72.9867,82.2142,147.653,98.0311,104.141,1.37265e-05,0.0490065,20.9472,48.9396,-0.54371,0.0,0.0
626,156.25,72.837,82.4393,152.527,98.0255,103.663,3.03338e-05,0.0489471,20.9474,48.9597,-0.502826,0.0,0.0
628,156.75,73.0124,82.0138,149.833,98.0267,104.62,2.39981e-05,0.0488858,20.9476,48.9697,-0.585357,0.0,0.0
630,157.25,73.1404,81.9902,149.738,98.0195,104.193,1.88662e-05,0.048822,20.9478,48.9597,-0.549302,0.0,0.0
632,157.75,73.1831,81.7158,148.455,98.0168,103.083,1.47094e-05,0.0487704,20.9479,48.9296,-0.453162,0.0,0.0
634,158.25,72.9967,82.0275,151.798,98.012,104.032,-2.82226e-05,0.0487145,20.948,48.9396,-0.536085,0.0,0.0
636,158.75,72.8462,81.1626,154.884,98.0152,104.18,-6.29976e-05,0.0486692,20.9481,48.9196,-0.548543,0.0,0.0
638,159.25,72.6678,81.3606,149.467,98.0223,103.641,-0.000122075,0.0486606,20.9482,48.8996,-0.501249,0.0,0.0
640,159.75,72.8781,81.3442,146.791,98.0219,104.179,-0.000169928,0.0486537,20.9483,48.9096,-0.547844,0.0,0.0
642,160.25,72.4026,81.2152,148.449,98.0136,103.767,-0.0002191,0.0486259,20.9483,48.9296,-0.512987,0.0,0.0
644,160.75,72.2664,81.3247,152.813,98.0128,103.338,-0.000268301,0.0485834,20.9483,48.9196,-0.475811,0.0,0.0
646,161.25,72.1468,80.6445,150.226,98.0152,103.754,-0.000312058,0.048549,20.9484,48.9396,-0.511674,0.0,0.0
648,161.75,72.1656,80.7044,149.387,98.0207,103.801,-0.000351015,0.048507,20.9484,48.9396,-0.515284,0.0,0.0
650,162.25,71.7496,80.2458,149.112,98.0255,103.13,-0.000379968,0.0484731,20.9484,48.9396,-0.456466,0.0,0.0
652,162.75,72.0649,80.4189,147.163,98.0243,103.297,-0.000401076,0.0484455,20.948,48.9497,-0.471157,0.0,0.0
654,163.25,71.7999,80.1416,148.314,98.0259,103.724,-0.000410075,0.0484232,20.9478,48.9597,-0.508081,0.0,0.0
656,163.75,71.7199,80.15,152.407,98.0331,103.727,-0.00040568,0.0483978,20.9477,48.9497,-0.507694,0.0,0.0
658,164.25,71.7306,79.8964,151.566,98.0275,103.684,,0.0483705,,48.9497,-0.504471,0.0,0.0
660,164.75,71.8967,79.5568,150.442,98.0255,103.561,,0.0483484,,48.9497,-0.493986,0.0,0.0
662,165.25,71.7665,79.6943,150.383,98.0144,103.425,,0.0483165,,48.9597,-0.483197,0.0,0.0
664,165.75,71.316,79.185,150.874,98.0291,102.557,,0.0482906,,48.9597,-0.406076,0.0,0.0
666,166.25,71.3564,78.72,150.222,98.0255,103.318,,0.0482648,,48.9497,-0.472844,0.0,0.0
668,166.75,71.2902,79.1094,149.669,98.0104,103.35,,0.0482206,,48.9296,-0.477045,0.0,0.0
670,167.25,71.2403,78.898,154.366,98.0168,103.6,,,,48.9597,-0.498218,0.0,0.0
672,167.75,70.968,79.079,148.89,98.0156,103.4,,,,48.9296,-0.480903,0.0,0.0
674,168.25,71.3158,78.1093,146.602,98.008,104.137,,,,48.9396,-0.545521,0.0,0.0
676,168.75,71.3348,78.268,149.43,98.0008,103.632,,,,48.9396,-0.502447,0.0,0.0
678,169.25,70.9167,78.6152,149.167,97.9988,103.97,,,,48.9296,-0.531899,0.0,0.0
680,169.75,70.8804,78.2573,147.697,97.9932,103.656,,,,48.9396,-0.505204,0.0,0.0
682,170.25,71.3967,78.3649,149.847,97.9972,103.533,,,,48.9296,-0.494128,0.0,0.0
684,170.75,70.7645,78.0741,149.493,97.9912,103.789,,,,48.9497,-0.516941,0.0,0.0
686,171.25,70.5554,77.6923,148.592,97.9924,103.691,,,,48.9497,-0.508314,0.0,0.0
688,171.75,70.3909,77.4459,148.342,97.9733,102.997,,,,48.9697,-0.44971,0.0,0.0
690,172.25,70.7305,77.955,151.116,97.9701,103.799,,,,48.9597,-0.519736,0.0,0.0
692,172.75,70.5752,77.7385,149.802,97.9689,103.979,,,,48.9196,-0.535381,0.0,0.0
694,173.25,70.6068,77.4128,147.861,97.9697,103.273,,,,48.9296,-0.474099,0.0,0.0
696,173.75,69.9865,77.1399,152.524,97.9653,103.721,,,,48.9296,-0.51337,0.0,0.0
698,174.25,70.4048,77.1131,149.258,97.9625,103.94,,,,48.9296,-0.532668,0.0,0.0
700,174.75,69.9247,77.1446,154.02,97.947,103,,,,48.9597,-0.452322,0.0,0.0
701,175,70.3383,76.857,149.282,97.945,103.114,,,,48.9797,-0.462528,0.0,0.0