File: 01_Data/Memory_Foam_Carpet_Pad/Cone/Memory_Foam_Carpet_Pad_Cone_HF25Scan_220921_R2.csv
Names,Time,Stack TC,Smoke TC,Exh Press,Smoke Comp,Smoke Meas,CO Meter,CO2 Meter,O2 Meter,Sample Mass,Ext Coeff,Start Test,Flame Verif
Chan Gain,,500,500,1,1,1,1,1,1,1,1,1.0,1.0
Offset,,0,0,0.141977,0,0,0,0,0,0,0,0.0,0.0
Gain,,1,1,25.011,13.065,14.7021,1,1,1,1.00081,1.02518,1.0,1.0
Units,sec,C,C,Pa,%,%,%,%,%,g,/m,,
Baseline,,36.46,36.8307,167.375,99.1404,100.33,0.000215561,0.0456815,20.9531,-441.959,-0.107236,,
2,0.25,35.7192,36.4648,167.936,99.3453,100.709,0.000229262,0.0496793,20.9537,67.865,-0.122612,0.0,0.0
4,0.75,36.2436,36.2603,169.077,99.3532,100.692,0.000233307,0.0493399,20.9539,67.885,-0.120367,0.0,0.0
6,1.25,34.959,35.2126,171.031,99.3449,100.582,0.000236584,0.049005,20.9541,67.915,-0.111262,0.0,0.0
8,1.75,34.692,35.07,167.592,99.352,100.5,0.000232769,0.0486746,20.9542,67.915,-0.103349,0.0,0.0
10,2.25,34.4299,35.0539,166.343,99.3481,100.04,0.000226245,0.0483537,20.9543,67.905,-0.0623839,0.0,0.0
12,2.75,34.8465,35.1182,168.856,99.3652,99.569,0.000211061,0.048079,20.9544,67.895,-0.018424,0.0,0.0
14,3.25,34.567,35.3306,170.062,99.3429,99.7359,0.000198762,0.0478432,20.9545,67.895,-0.0355059,0.0,0.0
16,3.75,34.1372,34.8981,170.815,99.3552,100.005,0.000192512,0.0476374,20.9545,67.875,-0.058587,0.0,0.0
18,4.25,34.3497,34.8766,163.192,99.3504,98.612,0.00018745,0.0474574,20.9546,67.875,0.0670949,0.0,0.0
20,4.75,34.0976,34.4986,168.187,99.3572,98.8776,0.00021005,0.0473807,20.9546,67.875,0.0435186,0.0,0.0
22,5.25,34.404,34.9051,166.464,99.3536,98.6828,0.000252388,0.0476342,20.9538,67.885,0.0609213,0.0,0.0
24,5.75,34.1542,35.3021,164.945,99.3568,98.6896,0.000383461,0.0481858,20.9531,67.885,0.0605965,0.0,0.0
26,6.25,34.938,34.985,165.566,99.3449,97.904,0.00048963,0.0521619,20.9452,67.8249,0.131388,0.0,0.0
28,6.75,33.9482,35.2815,170.641,99.3668,97.965,0.000670016,0.0553825,20.9388,67.8049,0.12777,0.0,0.0
30,7.25,34.1405,34.9014,163.295,99.36,99.9508,0.000901081,0.0648881,20.9225,67.8249,-0.053311,0.0,0.0
32,7.75,34.5762,34.6536,158.344,99.364,97.8959,0.00108824,0.0725877,20.9092,67.7349,0.133863,0.0,1.0
34,8.25,34.4369,34.9744,164.13,99.362,97.7011,0.00138096,0.0847227,20.8985,67.7149,0.151587,0.0,1.0
36,8.75,34.5315,34.5786,160.38,99.3688,96.684,0.00174508,0.0998608,20.876,67.6948,0.246314,0.0,1.0
38,9.25,34.3357,35.3954,154.745,99.3664,94.2046,0.00204001,0.112123,20.8577,67.6148,0.479718,0.0,1.0
40,9.75,35.0476,35.8944,158.331,99.3931,94.3262,0.00247558,0.131254,20.8429,67.5847,0.470536,0.0,1.0
42,10.25,35.2362,35.0632,154.116,99.3668,93.4356,0.00282839,0.14675,20.8237,67.5747,0.553466,0.0,1.0
44,10.75,35.3279,35.6647,154.256,99.3732,93.3077,0.00311416,0.163597,20.8015,67.5547,0.56636,0.0,1.0
46,11.25,35.834,35.3758,157.559,99.3668,93.2683,0.00362219,0.181107,20.7788,67.5247,0.569587,0.0,1.0
48,11.75,35.8978,35.4488,149.373,99.364,93.1449,0.0040337,0.19529,20.7561,67.4747,0.58124,0.0,1.0
50,12.25,36.2879,36.0741,153.192,99.3684,91.9442,0.00449965,0.21298,20.7326,67.4446,0.69831,0.0,1.0
52,12.75,36.71,35.8456,153.623,99.3879,91.6279,0.00487708,0.227309,20.7089,67.4046,0.731068,0.0,1.0
54,13.25,35.7144,34.2705,151.422,99.364,92.563,0.00529538,0.238915,20.6866,67.3746,0.6376,0.0,1.0
56,13.75,35.3107,34.7073,153.439,99.374,92.641,0.00563421,0.253525,20.6658,67.3446,0.63092,0.0,1.0
58,14.25,36.0288,35.2833,148.481,99.3696,90.067,0.00601129,0.265359,20.6466,67.2945,0.883926,0.0,0.0
60,14.75,35.9897,35.4943,151.629,99.3788,90.154,0.00631673,0.277174,20.629,67.2545,0.876069,0.0,0.0
62,15.25,36.6302,35.4215,150.137,99.3736,90.1845,0.00656414,0.286744,20.6147,67.2145,0.872557,0.0,0.0
64,15.75,37.1484,35.669,157.572,99.3748,93.9184,0.00684448,0.296013,20.6019,67.1644,0.507844,0.0,0.0
66,16.25,37.4408,36.1148,149.979,99.3724,92.8501,0.0071435,0.303521,20.5905,67.1344,0.610502,0.0,0.0
68,16.75,37.802,36.4356,152.9,99.3688,91.9267,0.00743055,0.310896,20.5813,67.1044,0.700057,0.0,0.0
70,17.25,37.4714,37.0448,154.874,99.3839,91.4287,0.00770342,0.31687,20.572,67.0343,0.750281,0.0,0.0
72,17.75,38.2957,36.8239,151.118,99.3851,91.151,0.00795713,0.322428,20.5645,66.9843,0.777747,0.0,0.0
74,18.25,38.4984,37.1404,147.542,99.3776,89.8462,0.00819204,0.327576,20.5571,66.9642,0.906716,0.0,0.0
76,18.75,39.0336,37.3162,149.942,99.3772,88.3037,0.00841027,0.331747,20.5511,66.9242,1.06241,0.0,0.0
78,19.25,39.657,37.6548,150.5,99.3859,89.188,0.00861219,0.335927,20.5431,66.8742,0.973597,0.0,0.0
80,19.75,39.6284,37.8636,159.291,99.3684,87.8698,0.0088051,0.340034,20.5366,66.8542,1.10592,0.0,0.0
82,20.25,39.971,38.5196,150.789,99.3692,86.3883,0.00898778,0.343361,20.5291,66.8742,1.2589,0.0,0.0
84,20.75,40.2865,38.6966,153.891,99.3855,87.3377,0.00913575,0.347571,20.5231,66.8141,1.16209,0.0,0.0
86,21.25,40.5207,38.5065,146.747,99.3784,86.7665,0.00931927,0.350981,20.5174,66.7341,1.22044,0.0,0.0
88,21.75,40.3684,39.3253,151.218,99.3776,87.3099,0.00946791,0.354911,20.5123,66.634,1.16423,0.0,0.0
90,22.25,41.2451,38.7957,147.158,99.366,86.8316,0.00962735,0.358094,20.5081,66.5739,1.21259,0.0,0.0
92,22.75,41.3952,39.8341,156.59,99.3768,88.1018,0.00979164,0.361878,20.5024,66.5639,1.08296,0.0,0.0
94,23.25,41.5208,39.7606,146.542,99.3744,86.1321,0.00995558,0.364943,20.4979,66.5439,1.28608,0.0,0.0
96,23.75,42.1775,40.358,149.424,99.38,86.8783,0.0101162,0.368756,20.4919,66.4538,1.20902,0.0,0.0
98,24.25,42.2576,40.4578,152.324,99.3744,85.9405,0.0102462,0.371845,20.4871,66.4038,1.3061,0.0,0.0
100,24.75,42.631,40.2949,152.276,99.3748,86.4202,0.0104077,0.374798,20.4828,66.3538,1.25609,0.0,0.0
102,25.25,42.82,41.1916,150.93,99.3728,87.257,0.0105688,0.377596,20.4793,66.3137,1.16926,0.0,0.0
104,25.75,43.2405,41.3294,148.208,99.3772,89.2674,0.0107265,0.379862,20.4759,66.2437,0.964799,0.0,0.0
106,26.25,43.344,41.7586,147.493,99.3784,85.6924,0.0108543,0.382144,20.4728,66.2236,1.33247,0.0,0.0
108,26.75,43.7566,42.0528,144.921,99.3712,83.7201,0.0110153,0.383992,20.4703,66.1936,1.54122,0.0,0.0
110,27.25,43.8592,42.3469,144.586,99.3748,83.834,0.0111458,0.386195,20.4665,66.1136,1.52931,0.0,0.0
112,27.75,44.459,42.5184,153.968,99.3776,87.274,0.0112825,0.387979,20.4634,66.0435,1.16793,0.0,0.0
114,28.25,44.4378,42.7742,148.879,99.3871,83.681,0.0114212,0.390996,20.4582,66.0235,1.54686,0.0,0.0
116,28.75,44.4701,43.3062,150.847,99.3744,83.008,0.0115336,0.39344,20.454,65.9634,1.61832,0.0,0.0
118,29.25,45.1321,43.5193,149.033,99.3772,84.1768,0.0117349,0.396535,20.4489,65.8934,1.49283,0.0,0.0
120,29.75,45.8718,43.7624,143.677,99.3871,80.6965,0.011898,0.400048,20.4434,65.8433,1.87346,0.0,0.0
122,30.25,45.6421,43.9248,153.824,99.3676,79.1261,0.0120919,0.404259,20.4365,65.8133,2.04841,0.0,0.0
124,30.75,45.802,44.348,149.502,99.3704,80.932,0.0123044,0.408899,20.4288,65.7433,1.84573,0.0,0.0
126,31.25,46.4904,44.5761,144.546,99.3808,82.025,0.0125454,0.412658,20.4226,65.6932,1.72603,0.0,0.0
128,31.75,46.313,44.8973,147.526,99.3811,81.7042,0.0128026,0.418659,20.4135,65.6532,1.76131,0.0,0.0
130,32.25,46.5233,45.0283,145.797,99.3803,81.2905,0.0130737,0.423521,20.4062,65.5631,1.80688,0.0,0.0
132,32.75,46.8949,45.0114,151.881,99.3708,82.2134,0.0133498,0.428918,20.4002,65.5031,1.7045,0.0,0.0
134,33.25,47.3517,45.7258,149.503,99.3788,82.7016,0.0135735,0.434602,20.3931,65.423,1.65198,0.0,0.0
136,33.75,47.5295,45.6352,144.843,99.3788,80.0356,0.0137546,0.440547,20.3851,65.373,1.94665,0.0,0.0
138,34.25,47.4188,46.1411,149.568,99.3688,81.9119,0.0140223,0.446568,20.3765,65.2629,1.73736,0.0,0.0
140,34.75,48.0508,46.5714,145.438,99.3716,82.1416,0.0142392,0.453048,20.3675,65.2228,1.71242,0.0,0.0
142,35.25,48.2902,46.4766,143.005,99.3843,81.0213,0.0144308,0.459739,20.3583,65.1928,1.83708,0.0,0.0
144,35.75,48.9216,47.1106,153.792,99.37,82.58,0.014586,0.465159,20.3492,65.0727,1.66442,0.0,0.0
146,36.25,48.8289,47.3116,146.214,99.3867,81.9411,0.0147117,0.469549,20.3418,65.0227,1.73578,0.0,0.0
148,36.75,49.1856,47.501,145.178,99.366,83.7367,0.0147856,0.475739,20.3339,64.9726,1.53897,0.0,0.0
150,37.25,49.6692,48.0588,146.559,99.3796,85.2635,0.0148455,0.480752,20.3259,64.8926,1.3777,0.0,0.0
152,37.75,49.7993,47.8011,138.575,99.3736,85.8706,0.0148758,0.485628,20.3193,64.8826,1.31336,0.0,0.0
154,38.25,50.285,48.5078,140.531,99.3847,85.8391,0.014884,0.489578,20.3133,64.7825,1.31766,0.0,0.0
156,38.75,50.595,48.5983,142.496,99.3811,83.4042,0.0148766,0.493845,20.3084,64.7124,1.57612,0.0,0.0
158,39.25,50.8593,49.1414,142.444,99.3819,83.4728,0.0148581,0.498263,20.3018,64.6424,1.56879,0.0,0.0
160,39.75,51.307,49.6257,136.176,99.3756,81.6292,0.0148347,0.501841,20.2964,64.5723,1.76906,0.0,0.0
162,40.25,51.4502,50.2864,139.26,99.3867,81.0065,0.0148082,0.50824,20.2854,64.5523,1.83894,0.0,0.0
164,40.75,51.8823,50.305,137.162,99.3847,86.3556,0.0147832,0.513422,20.2764,64.4822,1.26372,0.0,0.0
166,41.25,52.0781,49.9181,139.326,99.3879,83.7479,0.0147598,0.518599,20.2665,64.4522,1.53975,0.0,0.0
168,41.75,52.7166,50.8447,142.498,99.3808,83.3966,0.0147462,0.523672,20.2577,64.3621,1.5769,0.0,0.0
170,42.25,52.8287,51.308,142.973,99.3776,82.8649,0.0147352,0.528324,20.25,64.2621,1.63413,0.0,0.0
172,42.75,53.5866,51.6953,138.308,99.3867,81.9523,0.0147262,0.532579,20.2437,64.182,1.73455,0.0,0.0
174,43.25,53.8649,52.1426,140.573,99.3899,82.7262,0.0147429,0.536792,20.236,64.0919,1.65031,0.0,0.0
176,43.75,54.0474,52.33,143.403,99.378,85.2832,0.0147564,0.540894,20.2297,64.0519,1.37547,0.0,0.0
178,44.25,54.5155,52.7286,136.971,99.3895,84.5389,0.0148099,0.545087,20.2232,63.9918,1.45535,0.0,0.0
180,44.75,54.8871,53.144,138.777,99.3811,86.6714,0.0148533,0.549268,20.2167,63.9118,1.23056,0.0,0.0
182,45.25,55.2777,53.3951,143.646,99.3847,85.998,0.0149241,0.553592,20.21,63.8317,1.30104,0.0,0.0
184,45.75,55.481,53.8461,136.926,99.3871,85.0715,0.0150137,0.557938,20.2033,63.7717,1.39866,0.0,0.0
186,46.25,56.1703,54.3637,148.854,99.3863,83.1646,0.0151756,0.561458,20.1978,63.7116,1.60246,0.0,0.0
188,46.75,56.3144,54.8043,141.128,99.3915,82.9623,0.0153068,0.566512,20.1899,63.6816,1.62483,0.0,0.0
190,47.25,56.2217,55.0955,141.041,99.3911,84.2239,0.0154742,0.570606,20.1834,63.6416,1.48906,0.0,0.0
192,47.75,57.0633,55.5347,139.542,99.3843,84.053,0.0156649,0.575765,20.1744,63.5415,1.50672,0.0,0.0
194,48.25,57.3872,55.5496,144.271,99.3875,83.8053,0.0158194,0.581603,20.1637,63.4414,1.53355,0.0,0.0
196,48.75,57.4031,56.2066,136.605,99.3943,82.9883,0.0160317,0.589138,20.1505,63.4314,1.62226,0.0,0.0
198,49.25,57.8871,56.5409,134.306,99.3887,80.6166,0.0162036,0.597766,20.1358,63.3513,1.88251,0.0,0.0
200,49.75,58.0741,56.7994,131.15,99.3855,82.4768,0.0163429,0.604755,20.1238,63.2312,1.67707,0.0,0.0
202,50.25,58.6786,57.467,135.516,99.3859,81.4951,0.016492,0.6159,20.1098,63.1812,1.78479,0.0,0.0
204,50.75,58.6679,57.7474,137.513,99.3756,81.7141,0.0165555,0.624927,20.1019,63.0811,1.75972,0.0,0.0
206,51.25,59.2581,58.0827,134.869,99.3879,83.8156,0.016655,0.634466,20.0883,63.0211,1.53248,0.0,0.0
208,51.75,59.8203,58.2268,138.769,99.3608,82.4624,0.0167273,0.644197,20.071,62.8909,1.6764,0.0,0.0
210,52.25,60.0638,58.9558,134.922,99.378,84.9279,0.0167548,0.652079,20.057,62.8209,1.41302,0.0,0.0
212,52.75,60.808,59.1149,128.947,99.3831,84.9934,0.0167491,0.662606,20.0399,62.7608,1.40656,0.0,0.0
214,53.25,61.2856,59.7562,131.734,99.376,84.481,0.0167092,0.671133,20.026,62.6808,1.46029,0.0,0.0
216,53.75,61.9112,59.7702,133.22,99.38,85.8028,0.0166452,0.676338,20.0107,62.6207,1.32103,0.0,0.0
218,54.25,62.4484,60.4876,141.314,99.3931,86.7325,0.0165553,0.685239,19.9984,62.5507,1.22531,0.0,0.0
220,54.75,62.8591,61.167,132.015,99.3879,86.7203,0.0164483,0.694383,19.9817,62.4406,1.2261,0.0,0.0
222,55.25,63.0836,61.7427,128.369,99.3792,85.9464,0.0163335,0.703532,19.9681,62.3905,1.30593,0.0,0.0
224,55.75,63.7229,62.2434,133.977,99.3644,85.8526,0.0162152,0.713748,19.9571,62.3105,1.31441,0.0,0.0
226,56.25,64.3225,62.6632,126.801,99.3716,83.0466,0.0161194,0.724549,19.9431,62.2104,1.61389,0.0,0.0
228,56.75,64.0602,63.4495,130.78,99.372,83.9435,0.0160418,0.736266,19.927,62.1303,1.51732,0.0,0.0
230,57.25,65.2445,63.07,128.893,99.3927,85.8795,0.0159789,0.748429,19.914,62.0403,1.31415,0.0,0.0
232,57.75,65.8863,64.3661,128.31,99.3668,84.8579,0.0158453,0.760956,19.8997,61.9402,1.41943,0.0,0.0
234,58.25,66.2665,64.6048,131.881,99.3692,84.7605,0.0157371,0.77351,19.8847,61.8901,1.42997,0.0,0.0
236,58.75,66.3074,65.5706,131.553,99.3636,84.022,0.0156228,0.783678,19.8725,61.77,1.50816,0.0,0.0
238,59.25,67.6798,65.9043,135.876,99.3684,86.5889,0.0155063,0.791915,19.856,61.71,1.23798,0.0,0.0
240,59.75,68.7078,66.8065,121.52,99.3636,86.6997,0.0153916,0.802316,19.8425,61.5999,1.22604,0.0,0.0
242,60.25,68.6805,67.1746,125.143,99.3644,87.7666,0.0152804,0.814099,19.8241,61.5198,1.11612,0.0,0.0
244,60.75,68.991,67.9825,124.601,99.3748,86.3372,0.0151855,0.823642,19.8091,61.4198,1.26473,0.0,0.0
246,61.25,70.0905,68.6094,122.694,99.3632,85.6915,0.0151042,0.835797,19.7876,61.3197,1.33119,0.0,0.0
248,61.75,70.4792,69.3286,128.461,99.3548,85.4093,0.0150516,0.845642,19.7702,61.2997,1.3601,0.0,0.0
250,62.25,71.3725,69.8908,115.337,99.3632,85.6754,0.015021,0.855949,19.7489,61.1896,1.33288,0.0,0.0
252,62.75,71.7088,70.4484,124.28,99.3469,85.2123,0.0150221,0.866398,19.7317,61.0995,1.38014,0.0,0.0
254,63.25,72.68,71.0211,126.265,99.3544,85.8782,0.0150464,0.876847,19.7124,60.9894,1.31083,0.0,0.0
256,63.75,73.2906,71.8824,122.202,99.3485,84.5008,0.015066,0.887097,19.6968,60.8993,1.4557,0.0,0.0
258,64.25,73.3115,72.6539,127.883,99.3496,85.7413,0.015119,0.8954,19.6801,60.7792,1.32474,0.0,0.0
260,64.75,74.7099,73.2481,129.248,99.3485,85.2599,0.0151955,0.906635,19.663,60.6892,1.37526,0.0,0.0
262,65.25,74.993,74.2344,121.147,99.3429,84.7677,0.0152679,0.915736,19.6491,60.5791,1.42682,0.0,0.0
264,65.75,75.6693,74.5521,120.168,99.3405,83.7676,0.0153361,0.927893,19.6303,60.509,1.53333,0.0,0.0
266,66.25,76.6775,75.2918,125.231,99.3385,85.3568,0.0153793,0.93774,19.615,60.4089,1.36415,0.0,0.0
268,66.75,76.8527,75.9637,124.889,99.3369,84.4931,0.0154036,0.950365,19.5964,60.3389,1.45546,0.0,0.0
270,67.25,77.8661,76.3266,124.111,99.3309,86.1456,0.0154233,0.960591,19.5814,60.2388,1.28074,0.0,0.0
272,67.75,78.759,76.4986,126.288,99.3281,87.4288,0.0153793,0.970234,19.5675,60.1387,1.14752,0.0,0.0
274,68.25,78.6704,78.0757,116.318,99.3365,86.6481,0.0153605,0.979267,19.5608,60.0386,1.22894,0.0,0.0
276,68.75,79.8374,78.5631,122.518,99.3241,87.112,0.0152962,0.987676,19.5494,59.9486,1.1798,0.0,0.0
278,69.25,81.4921,79.5328,118.556,99.317,86.7576,0.0152152,0.995469,19.5361,59.8385,1.21582,0.0,0.0
280,69.75,81.2334,80.1239,116.125,99.3162,85.4066,0.015139,1.00178,19.5253,59.7184,1.35688,0.0,0.0
282,70.25,82.1703,81.0302,125.815,99.3058,86.4022,0.0150679,1.00984,19.5126,59.6583,1.25172,0.0,0.0
284,70.75,81.6303,81.6596,120.195,99.3349,85.0526,0.0150102,1.01636,19.5023,59.5482,1.39593,0.0,0.0
286,71.25,83.5084,82.0898,127.026,99.301,87.1775,0.0149839,1.02126,19.4939,59.4081,1.17095,0.0,0.0
288,71.75,84.313,83.2466,114.405,99.3022,86.0953,0.0149822,1.02965,19.4868,59.308,1.28339,0.0,0.0
290,72.25,84.4618,84.1377,115.236,99.2918,86.7217,0.0149794,1.03644,19.4695,59.218,1.21726,0.0,0.0
292,72.75,84.8231,84.9478,104.975,99.2855,87.287,0.0150237,1.04553,19.462,59.1179,1.15825,0.0,0.0
294,73.25,86.0934,85.5068,125.253,99.2743,85.1222,0.0150596,1.05289,19.4493,59.0378,1.38309,0.0,0.0
296,73.75,86.6028,85.8886,115.611,99.2787,86.7253,0.0151167,1.06111,19.4331,58.9277,1.2157,0.0,0.0
298,74.25,87.5207,86.6526,111.834,99.2643,86.4206,0.0151601,1.0698,19.42,58.8377,1.24604,0.0,0.0
300,74.75,88.5799,87.659,124.059,99.2635,87.882,0.0151927,1.07351,19.4045,58.7576,1.09518,0.0,0.0
302,75.25,88.9088,88.4103,112.616,99.2563,86.8338,0.015208,1.0866,19.3919,58.6375,1.20242,0.0,0.0
304,75.75,89.1747,89.1645,124.669,99.2659,87.2013,0.0152102,1.09013,19.3786,58.5374,1.16532,0.0,0.0
306,76.25,90.1809,89.826,114.827,99.2528,87.8326,0.0152078,1.0982,19.3678,58.4373,1.09926,0.0,0.0
308,76.75,90.9745,90.5801,114.722,99.2476,85.9388,0.0152021,1.10473,19.355,58.3172,1.29481,0.0,0.0
310,77.25,91.7715,91.201,118.709,99.2412,86.4691,0.0151974,1.11222,19.3447,58.2472,1.23891,0.0,0.0
312,77.75,92.1345,91.9981,119.004,99.2428,85.1451,0.0152216,1.11828,19.3363,58.1271,1.37782,0.0,0.0
314,78.25,93.1891,92.0055,119.768,99.2332,86.0545,0.015232,1.12579,19.3306,57.997,1.28141,0.0,0.0
316,78.75,93.6197,93.6461,115.545,99.2344,85.4542,0.0152496,1.13187,19.3167,57.9169,1.34447,0.0,0.0
318,79.25,94.2196,94.3971,121.711,99.2245,86.6804,0.0153066,1.13923,19.313,57.7468,1.21544,0.0,0.0
320,79.75,94.9942,94.8798,115.512,99.2225,85.2523,0.0153527,1.14519,19.3066,57.7067,1.36466,0.0,0.0
322,80.25,95.6522,95.7109,116.061,99.2089,85.3344,0.0153901,1.15246,19.2979,57.5967,1.35477,0.0,0.0
324,80.75,96.3762,96.498,114.315,99.2233,85.9939,0.0154217,1.15834,19.2908,57.5066,1.28683,0.0,0.0
326,81.25,96.9895,97.3843,117.908,99.1973,86.3941,0.0154486,1.16085,19.2821,57.3865,1.24273,0.0,0.0
328,81.75,97.7586,97.7542,115.596,99.1969,86.47,0.0154473,1.16679,19.275,57.2564,1.2348,0.0,0.0
330,82.25,98.3276,99,118.814,99.181,86.3758,0.0154254,1.1716,19.267,57.1363,1.24316,0.0,0.0
332,82.75,98.7785,99.5538,113.406,99.1854,86.9581,0.0153747,1.17549,19.2606,56.9962,1.18313,0.0,0.0
334,83.25,98.7672,100.814,108.653,99.1678,84.6605,0.015304,1.17988,19.2522,56.9561,1.42235,0.0,0.0
336,83.75,100.131,100.338,113.097,99.1965,84.6286,0.0152145,1.18453,19.2455,56.8561,1.42834,0.0,0.0
338,84.25,101,101.665,113.197,99.1491,86.6409,0.0151131,1.1883,19.24,56.736,1.2127,0.0,0.0
340,84.75,100.946,102.813,115.712,99.1479,87.8532,0.0150309,1.19105,19.2355,56.6259,1.08764,0.0,0.0
342,85.25,102.234,102.864,108.431,99.1331,86.6153,0.0149287,1.19328,19.2319,56.5358,1.21391,0.0,0.0
344,85.75,102.502,103.908,122.995,99.1367,87.8595,0.0148139,1.19479,19.229,56.4657,1.08598,0.0,0.0
346,86.25,103.044,104.131,123.188,99.1176,87.2305,0.014709,1.19587,19.2267,56.3557,1.14886,0.0,0.0
348,86.75,103.418,105.321,112.836,99.1204,85.3936,0.0146134,1.19661,19.2248,56.2356,1.34051,0.0,0.0
350,87.25,104.201,105.961,113.906,99.0933,87.0452,0.0145304,1.19722,19.2232,56.1755,1.16578,0.0,0.0
352,87.75,104.915,106.545,105.545,99.0913,85.9885,0.0144581,1.19603,19.2242,56.0454,1.27543,0.0,0.0
354,88.25,105.24,107.225,116,99.0853,86.0828,0.0143968,1.19507,19.225,55.9153,1.26504,0.0,0.0
356,88.75,105.915,108.098,116.454,99.0725,87.4512,0.0143446,1.19349,19.2274,55.8052,1.12204,0.0,0.0
358,89.25,106.376,108.517,116.858,99.065,86.8724,0.0143023,1.1915,19.2294,55.7251,1.18107,0.0,0.0
360,89.75,107.032,109.095,119.656,99.0662,84.7211,0.0142618,1.18938,19.2319,55.6351,1.40669,0.0,0.0
362,90.25,107.381,109.422,117.031,99.0538,84.8772,0.0142233,1.1872,19.2348,55.4749,1.38901,0.0,0.0
364,90.75,107.988,110.254,116.69,99.053,84.8933,0.0141617,1.18465,19.2384,55.4349,1.38723,0.0,0.0
366,91.25,108.306,111.302,113.956,99.0227,86.8119,0.0141118,1.18187,19.2423,55.2948,1.18351,0.0,0.0
368,91.75,108.794,112.025,116.966,99.0359,86.0751,0.0140714,1.17962,19.2454,55.2548,1.26135,0.0,0.0
370,92.25,109.241,112.055,117.901,99.0068,85.3968,0.0139355,1.1763,19.249,55.1247,1.32986,0.0,0.0
372,92.75,109.577,112.792,116.934,98.9924,85.8553,0.0138255,1.17361,19.2526,55.0246,1.2804,0.0,0.0
374,93.25,109.949,113.48,120.747,99.0079,87.737,0.0136374,1.17075,19.2563,54.9645,1.08684,0.0,0.0
376,93.75,110.387,113.862,121.743,98.9996,88.2651,0.0134851,1.16781,19.26,54.8344,1.03211,0.0,0.0
378,94.25,110.344,113.951,116.174,98.9924,86.9038,0.0133168,1.16543,19.265,54.7443,1.17123,0.0,0.0
380,94.75,111.296,114.713,119.104,98.984,88.1835,0.0131399,1.1607,19.271,54.6343,1.03902,0.0,0.0
382,95.25,111.374,115.309,112.807,98.9824,87.7545,0.0129349,1.15686,19.2811,54.5242,1.08273,0.0,0.0
384,95.75,111.904,115.483,122.946,98.9689,90.1388,0.0127688,1.15069,19.2939,54.4441,0.840425,0.0,0.0
386,96.25,112.156,116.103,118.317,98.9653,89.573,0.0125923,1.14294,19.3096,54.334,0.896722,0.0,0.0
388,96.75,112.898,115.751,113.12,98.9601,87.6038,0.0124494,1.13353,19.3273,54.2439,1.09616,0.0,0.0
390,97.25,112.814,117.056,117.615,98.9406,89.3186,0.0123179,1.12309,19.3416,54.1539,0.920053,0.0,0.0
392,97.75,113.094,117.501,121.157,98.9394,88.6191,0.0122113,1.11135,19.3621,54.1038,0.990647,0.0,0.0
394,98.25,113.383,118.104,117.587,98.9218,88.8681,0.0121251,1.09889,19.3787,54.0037,0.963817,0.0,0.0
396,98.75,113.736,118.064,126.464,98.9234,88.0421,0.012067,1.0857,19.4002,53.8837,1.04794,0.0,0.0
398,99.25,113.897,118.402,117.59,98.9155,88.8731,0.0120199,1.07222,19.4177,53.8336,0.962738,0.0,0.0
400,99.75,114.11,118.762,126.711,98.9091,88.0224,0.0119921,1.05727,19.4318,53.7836,1.04865,0.0,0.0
402,100.25,113.182,119.698,124.299,98.8943,87.995,0.011979,1.04154,19.4544,53.7235,1.05011,0.0,0.0
404,100.75,114.337,119.494,123.019,98.8919,89.4671,0.0119683,1.02278,19.4727,53.6134,0.90069,0.0,0.0
406,101.25,114.557,119.144,124.935,98.8764,88.7901,0.011957,1.00216,19.4956,53.5534,0.967589,0.0,0.0
408,101.75,114.491,120.035,125.808,98.87,86.8078,0.0119479,0.985471,19.5213,53.4933,1.17005,0.0,0.0
410,102.25,114.523,120.058,126.986,98.8664,87.5288,0.0119104,0.964723,19.5421,53.4133,1.09534,0.0,0.0
412,102.75,114.915,120.475,128.831,98.8576,84.1068,0.0118799,0.941415,19.5691,53.3732,1.45318,0.0,0.0
414,103.25,114.295,120.145,130.034,98.8505,83.9825,0.0118553,0.922535,19.6,53.3032,1.46582,0.0,0.0
416,103.75,114.457,120.659,135.02,98.8341,88.2557,0.0117895,0.895705,19.6351,53.2331,1.01803,0.0,0.0
418,104.25,114.203,120.778,130.54,98.8293,86.8626,0.0117362,0.873972,19.6725,53.1931,1.16068,0.0,0.0
420,104.75,113.945,120.603,130.466,98.8146,86.6822,0.0117206,0.847048,19.7101,53.123,1.17803,0.0,0.0
422,105.25,113.319,121.068,132.087,98.8054,85.0665,0.0117079,0.82524,19.7471,53.093,1.34639,0.0,0.0
424,105.75,113.341,120.991,132.717,98.7779,86.286,0.0116976,0.807576,19.7771,53.0029,1.21589,0.0,0.0
426,106.25,113.206,120.415,130.25,98.7755,85.2263,0.0118047,0.787117,19.8077,52.9229,1.3268,0.0,0.0
428,106.75,111.801,121.512,134.332,98.7564,83.3252,0.0118914,0.76501,19.8383,52.9029,1.52792,0.0,0.0
430,107.25,112.977,120.462,134.361,98.7412,80.5394,0.0120419,0.743226,19.8708,52.8328,1.83234,0.0,0.0
432,107.75,111.169,120.698,141.161,98.7273,84.1477,0.0121638,0.72209,19.9041,52.7928,1.43695,0.0,0.0
434,108.25,112.015,119.935,141.336,98.7185,80.3932,0.0122967,0.700144,19.937,52.7427,1.84661,0.0,0.0
436,108.75,111.371,118.982,140.866,98.695,77.6576,0.0124044,0.678023,19.9689,52.6927,2.1558,0.0,0.0
438,109.25,111.02,119.617,139.248,98.6862,78.0915,0.012464,0.660105,19.9947,52.6126,2.1049,0.0,0.0
440,109.75,110.68,119.51,143.068,98.6686,79.1292,0.0125123,0.635505,20.0322,52.5726,1.98458,0.0,0.0
442,110.25,110.089,118.98,144.45,98.6627,80.2702,0.0125514,0.615579,20.0626,52.5726,1.85529,0.0,0.0
444,110.75,109.231,119.153,142.92,98.6276,81.103,0.0124634,0.595038,20.0997,52.5225,1.75928,0.0,0.0
446,111.25,108.842,118.33,144.545,98.6244,78.8084,0.0123922,0.574439,20.1298,52.5025,2.01708,0.0,0.0
448,111.75,108.49,117.913,141.899,98.6065,77.8429,0.0121812,0.553292,20.1612,52.4625,2.1263,0.0,0.0
450,112.25,107.822,117.72,154.672,98.5917,82.9699,0.0120103,0.532146,20.193,52.3824,1.55135,0.0,0.0
452,112.75,107.031,117.341,155.452,98.5534,81.6862,0.0117074,0.51054,20.2187,52.3424,1.68807,0.0,0.0
454,113.25,106.817,116.689,149.194,98.5514,81.0778,0.011314,0.489009,20.2521,52.3624,1.75512,0.0,0.0
456,113.75,106.017,116.355,155.269,98.5243,85.4241,0.0109953,0.471568,20.2791,52.3124,1.28305,0.0,0.0
458,114.25,105.561,115.763,148.049,98.5163,80.9953,0.0104967,0.449434,20.3072,52.3324,1.76108,0.0,0.0
460,114.75,104.405,115.463,153.503,98.5028,83.5796,0.0100927,0.431506,20.3354,52.2723,1.47739,0.0,0.0
462,115.25,104.15,113.866,154.026,98.49,85.7499,0.0095393,0.412757,20.3646,52.2523,1.24569,0.0,0.0
464,115.75,103.035,114.337,158.425,98.4793,87.9277,0.009091,0.393766,20.3939,52.2523,1.01917,0.0,0.0
466,116.25,101.948,114.614,154.845,98.4609,87.4189,0.00856032,0.378384,20.4257,52.2423,1.06968,0.0,0.0
468,116.75,101.717,113.121,154.536,98.4406,91.077,0.00813046,0.357638,20.4587,52.2223,0.699178,0.0,0.0
470,117.25,101.322,112.193,161.59,98.4234,94.5658,0.00769685,0.340833,20.492,52.1923,0.359558,0.0,0.0
472,117.75,100.243,112.012,158.259,98.4035,95.8899,0.00734563,0.320631,20.5249,52.2023,0.2327,0.0,0.0
474,118.25,99.1508,111.314,159.327,98.3864,96.7993,0.00707006,0.304268,20.5571,52.1823,0.146244,0.0,0.0
476,118.75,99.1181,110.858,158.608,98.3688,98.4581,0.00684685,0.284033,20.5884,52.1823,-0.00815486,0.0,0.0
478,119.25,98.458,110.73,156.038,98.3425,99.5241,0.00666604,0.267642,20.6137,52.2123,-0.107407,0.0,0.0
480,119.75,97.4249,109.269,160.296,98.3214,99.8036,0.00667787,0.248159,20.6393,52.2123,-0.13456,0.0,0.0
482,120.25,97.147,108.913,162.707,98.3086,100.648,0.00668746,0.232378,20.6648,52.2023,-0.211533,0.0,0.0
484,120.75,96.254,108.267,161.596,98.2919,100.684,0.00682014,0.216957,20.6854,52.1923,-0.216271,0.0,0.0
486,121.25,95.5137,107.594,160.152,98.2903,100.235,0.00704005,0.202091,20.7088,52.1923,-0.176173,0.0,0.0
488,121.75,94.9775,107.131,163.035,98.26,100.756,0.00731049,0.187835,20.7278,52.1923,-0.22556,0.0,0.0
490,122.25,93.6611,106.922,162.683,98.252,100.306,0.00761264,0.174296,20.7485,52.2223,-0.186074,0.0,0.0
492,122.75,92.7696,105.813,162.906,98.2209,101.036,0.00792075,0.163328,20.7653,52.2323,-0.25413,0.0,0.0
494,123.25,92.1685,105.29,165.337,98.2077,100.454,0.00808211,0.152859,20.775,52.2423,-0.20335,0.0,0.0
496,123.75,91.2629,104.239,160.436,98.1938,100.597,0.00835805,0.142951,20.7917,52.2223,-0.217472,0.0,0.0
498,124.25,91.0906,103.838,167.072,98.1707,100.18,0.00863606,0.134926,20.8064,52.2023,-0.182212,0.0,0.0
500,124.75,90.1298,103.379,170.8,98.1368,100.042,0.00886124,0.127049,20.8193,52.2023,-0.172943,0.0,0.0
502,125.25,89.6499,102.45,163.366,98.124,100.174,0.00906183,0.120668,20.8298,52.2023,-0.185921,0.0,0.0
504,125.75,87.7881,100.702,162.293,98.0989,99.7695,0.0092243,0.11467,20.8392,52.2223,-0.15186,0.0,0.0
506,126.25,86.6696,99.6106,164.981,98.0873,99.8988,0.0093559,0.112113,20.8477,52.1923,-0.16456,0.0,0.0
508,126.75,85.923,98.6278,160.237,98.0502,100.15,0.00946249,0.107212,20.8546,52.1723,-0.190509,0.0,0.0
510,127.25,85.0994,98.2627,162.274,98.0415,100.351,0.00952546,0.103243,20.8606,52.1723,-0.209425,0.0,0.0
512,127.75,84.7999,97.7924,165.29,98.0199,100.295,0.00957647,0.0998695,20.8659,52.1823,-0.206372,0.0,0.0
514,128.25,84.0452,96.8783,163.509,97.9924,100.394,0.00958404,0.0969953,20.8706,52.1823,-0.217703,0.0,0.0
516,128.75,82.8265,96.4336,163.982,97.9693,100.584,0.00959018,0.0946673,20.8749,52.1923,-0.23689,0.0,0.0
518,129.25,82.5632,95.9807,165.89,97.9661,99.7929,0.00955237,0.0927816,20.8786,52.1923,-0.166142,0.0,0.0
520,129.75,81.6223,94.9307,163.593,97.9258,100.292,0.00952174,0.0910402,20.8818,52.2023,-0.214688,0.0,0.0
522,130.25,81.4725,94.7882,163.832,97.9151,99.9643,0.00946455,0.0896298,20.8844,52.2023,-0.18626,0.0,0.0
524,130.75,80.7479,94.0062,158.503,97.8876,99.7637,0.00941823,0.088302,20.8869,52.1923,-0.170727,0.0,0.0
526,131.25,80.0794,93.2483,162.835,97.8848,99.9849,0.00938071,0.0872266,20.889,52.1823,-0.1909,0.0,0.0
528,131.75,79.3008,92.8646,166.835,97.8525,99.4806,0.00930503,0.0862205,20.8913,52.1522,-0.148394,0.0,0.0
530,132.25,78.8273,92.1991,163.496,97.831,100.007,0.00924373,0.0852841,20.8939,52.1623,-0.197863,0.0,0.0
532,132.75,78.152,91.489,164.828,97.8042,99.639,0.00915143,0.0843758,20.896,52.1623,-0.167135,0.0,0.0
534,133.25,77.3949,90.9615,162.856,97.7967,99.4398,0.00907666,0.0835052,20.8976,52.1723,-0.149835,0.0,0.0
536,133.75,77.3796,90.694,161.585,97.7652,99.9248,0.0090161,0.0828,20.899,52.1422,-0.196487,0.0,0.0
538,134.25,76.6688,90.0032,161.245,97.7492,100.076,0.0088793,0.0819442,20.9006,52.1623,-0.211511,0.0,0.0
540,134.75,76.1565,90.0401,161.422,97.7145,99.9867,0.0087685,0.081251,20.9023,52.1823,-0.206716,0.0,0.0
542,135.25,76.1121,89.0029,160.217,97.7089,99.9669,0.00853946,0.0805474,20.9042,52.1823,-0.205454,0.0,0.0
544,135.75,74.9459,88.591,165.872,97.6842,100.029,0.00847785,0.0798495,20.9048,52.1723,-0.213298,0.0,0.0
546,136.25,74.6871,87.9867,162.026,97.6822,99.8288,0.00830822,0.0792842,20.9059,52.1623,-0.195473,0.0,0.0
548,136.75,74.0113,87.5117,163.951,97.6575,99.3756,0.00817082,0.0785847,20.907,52.1522,-0.156834,0.0,0.0
550,137.25,73.3407,87.4997,165.218,97.6352,99.9472,0.00800819,0.0780182,20.9082,52.1623,-0.210469,0.0,0.0
552,137.75,73.5126,86.529,163.694,97.6133,100.302,0.00787645,0.0774546,20.9093,52.1623,-0.244325,0.0,0.0
554,138.25,72.9008,85.9422,161.365,97.6001,100.346,0.00771334,0.0766692,20.9103,52.1823,-0.249479,0.0,0.0
556,138.75,71.9642,85.7576,160.408,97.583,99.8682,0.00758123,0.0763682,20.911,52.1723,-0.208174,0.0,0.0
558,139.25,71.7441,84.8461,162.665,97.5666,99.6663,0.00742813,0.0758536,20.9121,52.1723,-0.191482,0.0,0.0
560,139.75,71.4118,84.4723,163.225,97.5527,100.148,0.00730412,0.0753545,20.9134,52.1923,-0.236102,0.0,0.0
562,140.25,71.1859,83.9553,163.054,97.5443,99.1984,0.00720367,0.0748764,20.9144,52.1723,-0.151216,0.0,0.0
564,140.75,70.6118,83.122,158.171,97.5216,99.6345,0.00705583,0.0744443,20.9153,52.1623,-0.19276,0.0,0.0
566,141.25,70.0581,83.5162,161.401,97.5144,99.6731,0.00693609,0.0740539,20.916,52.1522,-0.196904,0.0,0.0
568,141.75,69.4829,82.6117,162.441,97.4885,99.3922,0.00679612,0.0736855,20.9165,52.1522,-0.173918,0.0,0.0
570,142.25,68.6745,82.3407,161.832,97.4785,99.4074,0.00664407,0.07334,20.917,52.1322,-0.176217,0.0,0.0
572,142.75,68.6616,81.9993,163.457,97.4661,99.363,0.00649007,0.0729333,20.9174,52.1222,-0.173338,0.0,0.0
574,143.25,68.4764,81.0388,164.204,97.449,99.0036,0.00633758,0.0724897,20.9181,52.1222,-0.142335,0.0,0.0
576,143.75,67.779,81.1366,161.682,97.4346,100.548,0.00618262,0.0721303,20.9187,52.0922,-0.282854,0.0,0.0
578,144.25,67.6495,80.0951,160.678,97.4195,99.2908,0.00602878,0.0716752,20.9196,52.0922,-0.171104,0.0,0.0
580,144.75,67.3388,79.6331,170.009,97.4219,99.6542,0.00587678,0.0711588,20.9204,52.1422,-0.203738,0.0,0.0
582,145.25,66.8807,79.4314,164.152,97.3936,100.166,0.005729,0.0706138,20.9215,52.1222,-0.252391,0.0,0.0
584,145.75,66.4289,79.0051,159.998,97.3876,99.4389,0.00558327,0.0700583,20.9223,52.1322,-0.187449,0.0,0.0
586,146.25,66.0489,78.4463,161.524,97.3732,99.7283,0.0054418,0.0696084,20.9235,52.1222,-0.214908,0.0,0.0
588,146.75,65.6597,78.1339,162.493,97.3828,99.6488,0.00532721,0.069074,20.9244,52.1222,-0.20686,0.0,0.0
590,147.25,65.1986,77.7883,164.165,97.3613,100.008,0.00517489,0.0686412,20.9251,52.1122,-0.241183,0.0,0.0
592,147.75,64.9058,77.6658,159.543,97.3676,99.8081,0.0050515,0.0681208,20.9257,52.1122,-0.222622,0.0,0.0
594,148.25,64.2843,77.1638,170.845,97.3505,99.3801,0.00493159,0.0676322,20.9262,52.1122,-0.185556,0.0,0.0
596,148.75,63.9304,76.7709,168.44,97.3469,98.9256,0.00481649,0.0671762,20.9266,52.1122,-0.144665,0.0,0.0
598,149.25,64.2726,76.3342,165.871,97.3377,99.3446,0.00472326,0.0668068,20.927,52.1322,-0.183526,0.0,0.0
600,149.75,63.8427,76.1447,162.736,97.3409,99.8198,0.00462381,0.066352,20.9272,52.1222,-0.22614,0.0,0.0
602,150.25,63.6656,75.7395,161.976,97.3358,98.6483,0.00452172,0.0659836,20.9279,52.1322,-0.120455,0.0,0.0
604,150.75,63.1022,75.2673,165.243,97.3354,99.2827,0.00442707,0.0655661,20.9284,52.1122,-0.178142,0.0,0.0
606,151.25,62.6893,74.203,162.46,97.3246,98.6851,0.00433964,0.0651208,20.9293,52.1022,-0.12484,0.0,0.0
608,151.75,62.1674,74.3031,159.256,97.3294,99.9387,0.00426882,0.0647602,20.93,52.0922,-0.237915,0.0,0.0
610,152.25,62.0393,74.0834,161.419,97.3166,99.1468,0.00418749,0.0643118,20.9308,52.0722,-0.167551,0.0,0.0
612,152.75,61.3376,73.5489,161.287,97.3282,98.9193,0.00412162,0.0638081,20.9317,52.0822,-0.145826,0.0,0.0
614,153.25,61.3314,73.2005,162.473,97.3186,99.3792,0.00403801,0.0633035,20.9326,52.0722,-0.188422,0.0,0.0
616,153.75,61.1631,72.5524,161.742,97.323,99.1571,0.00397028,0.0628077,20.9336,52.0622,-0.167897,0.0,0.0
618,154.25,60.6249,72.6941,164.337,97.3122,98.9337,0.00391543,0.0623244,20.9344,52.0922,-0.148605,0.0,0.0
620,154.75,60.5606,72.114,166.472,97.323,99.2791,0.00383951,0.0618594,20.935,52.1022,-0.178959,0.0,0.0
622,155.25,60.3096,72.0527,161.839,97.3055,99.3231,0.00377802,0.0614827,20.9355,52.1022,-0.184562,0.0,0.0
624,155.75,59.7122,71.3152,161.81,97.3274,99.3038,0.00369424,0.0610662,20.936,52.1022,-0.180788,0.0,0.0
626,156.25,59.8006,71.5016,165.827,97.3182,99.3917,0.00362638,0.0606285,20.9367,52.1322,-0.189595,0.0,0.0
628,156.75,59.2826,70.7078,166.816,97.3306,99.0934,0.0035423,0.060274,20.9374,52.1022,-0.161418,0.0,0.0
630,157.25,59.1214,70.8922,157.628,97.313,99.4371,0.00344801,0.0597752,20.9383,52.1122,-0.194174,0.0,0.0
632,157.75,59.1537,70.5829,161.419,97.3314,99.8139,0.00333021,0.0593712,20.9394,52.1022,-0.226499,0.0,0.0
634,158.25,57.9619,70.1738,167.881,97.3246,99.8687,0.0032348,0.0589178,20.9404,52.1222,-0.232056,0.0,0.0
636,158.75,58.4206,69.7914,165.693,97.3362,99.4083,0.00311363,0.058437,20.9412,52.1222,-0.189439,0.0,0.0
638,159.25,57.6593,69.582,166.253,97.3218,99.1288,0.00301548,0.0579437,20.9419,52.0922,-0.165443,0.0,0.0
640,159.75,57.7076,68.9348,165.265,97.3409,99.0777,0.00289091,0.0574506,20.9425,52.0922,-0.159034,0.0,0.0
642,160.25,57.668,68.6421,161.453,97.3417,99.3478,0.00279,0.0569697,20.9429,52.0722,-0.183443,0.0,0.0
644,160.75,57.567,68.2588,165.599,97.3585,99.6264,0.00270826,0.0565067,20.9433,52.0822,-0.207082,0.0,0.0
646,161.25,57.1417,67.9043,162.306,97.3481,99.4721,0.00257079,0.0560575,20.9436,52.0922,-0.194096,0.0,0.0
648,161.75,56.7682,67.6586,166.152,97.3577,99.5317,0.00245944,0.055627,20.9438,52.1222,-0.198605,0.0,0.0
650,162.25,56.6486,67.2717,162.725,97.3461,99.2441,0.00234559,0.0552263,20.944,52.1122,-0.173651,0.0,0.0
652,162.75,55.7614,66.9395,163.947,97.3728,99.0696,0.00223209,0.0548551,20.9446,52.0722,-0.155355,0.0,0.0
654,163.25,56.6456,66.3634,165.206,97.3712,98.8551,0.00214015,0.0545545,20.9451,52.0622,-0.136013,0.0,0.0
656,163.75,55.5432,66.4149,162.098,97.3948,98.8417,0.002037,0.0542546,20.9455,52.0622,-0.132616,0.0,0.0
658,164.25,55.8435,66.1832,163.28,97.3728,99.3909,0.00194558,0.0540117,20.9458,52.0822,-0.184469,0.0,0.0
660,164.75,54.9557,65.7389,165.439,97.4043,99.7812,0.00186444,0.0537409,20.9465,52.0822,-0.216809,0.0,0.0
662,165.25,55.4338,65.4253,163.013,97.3944,98.9547,0.00179085,0.0534548,20.9471,52.0622,-0.142934,0.0,0.0
664,165.75,55.3225,65.6809,159.656,97.4043,99.5829,0.00172415,0.0532231,20.948,52.0922,-0.198918,0.0,0.0
666,166.25,54.8548,64.9333,162.103,97.4063,99.1468,0.00165768,0.0528806,20.9487,52.0722,-0.159265,0.0,0.0
668,166.75,54.6361,64.7233,163.859,97.4466,99.0243,0.00159264,0.0526032,20.9493,52.0822,-0.144431,0.0,0.0
670,167.25,54.3036,64.2588,159.935,97.4255,99.8615,0.00153995,0.0523503,20.9498,52.1022,-0.222093,0.0,0.0
672,167.75,53.9156,64.4395,161.386,97.431,99.1086,0.00147959,0.0521455,20.9502,52.1122,-0.153522,0.0,0.0
674,168.25,53.8119,64.1594,165.918,97.4271,99.0817,0.00141478,0.0519233,20.9505,52.1222,-0.151448,0.0,0.0
676,168.75,53.5299,63.3523,161.797,97.4538,99.7754,0.00135575,0.0517063,20.9508,52.1522,-0.211719,0.0,0.0
678,169.25,53.7444,63.6227,167.515,97.4478,99.8086,0.00130204,0.0514972,20.951,52.1322,-0.215263,0.0,0.0
680,169.75,53.2018,63.0826,164.713,97.4669,98.4742,0.00125395,0.0513279,20.9511,52.0822,-0.0924607,0.0,0.0
682,170.25,53.2044,63.2655,161.689,97.4845,99.2805,0.00121088,0.0511766,20.9513,52.0722,-0.164171,0.0,0.0
684,170.75,52.8651,62.472,168.238,97.4889,98.8157,0.00117469,0.0510541,20.9514,52.0722,-0.121564,0.0,0.0
686,171.25,53.1396,62.2476,162.99,97.4932,99.2773,0.00114419,0.0509401,20.9515,52.1022,-0.163078,0.0,0.0
688,171.75,52.6536,62.139,164.183,97.5144,99.0377,0.00111949,0.0508344,20.9516,52.1422,-0.1394,0.0,0.0
690,172.25,52.7339,61.8774,161.909,97.5243,99.2047,0.00109948,0.0507118,20.9516,52.1122,-0.153623,0.0,0.0
692,172.75,52.087,61.3003,163.448,97.5383,99.1872,0.00107334,0.0505791,20.9512,52.0622,-0.15075,0.0,0.0
694,173.25,52.1728,61.6488,164.528,97.5487,99.4227,0.00105216,0.0504717,20.9503,52.0822,-0.171125,0.0,0.0
696,173.75,51.6191,60.9927,159.004,97.563,100.165,0.00103238,0.0502862,20.9497,52.0922,-0.236677,0.0,0.0
698,174.25,51.8838,60.9299,164.06,97.5798,99.3119,0.00101402,0.050136,20.9496,52.1022,-0.158229,0.0,0.0
700,174.75,51.8656,60.5123,160.642,97.5913,99.1338,0.000999137,0.0500143,20.9495,52.0922,-0.141021,0.0,0.0
702,175.25,51.6171,60.0404,164.692,97.5929,99.5784,0.0009897,0.0499016,20.9495,52.1122,-0.181119,0.0,0.0
704,175.75,51.3033,60.149,165.335,97.6117,98.8062,0.000984411,0.0498104,20.9494,52.1122,-0.109386,0.0,0.0
706,176.25,51.0305,59.8411,166.353,97.6149,99.1777,0.000977511,0.0497143,20.9494,52.1022,-0.142841,0.0,0.0
708,176.75,51.029,60.1179,162.03,97.6352,100.44,0.000969568,0.0496165,20.9493,52.1122,-0.254687,0.0,0.0
710,177.25,50.7329,59.4924,162.161,97.6535,99.4887,0.000963134,0.0495373,20.9493,52.0722,-0.167428,0.0,0.0
712,177.75,50.3717,59.2286,163.925,97.6515,98.9054,0.000943018,0.0494309,20.9493,52.0522,-0.114734,0.0,0.0
714,178.25,50.2067,58.9463,163.523,97.6603,99.5039,0.000926723,0.0493448,20.9493,52.0422,-0.168182,0.0,0.0
716,178.75,49.7983,58.6965,163.77,97.6802,99.8871,0.000893661,0.049275,20.9493,52.0422,-0.20091,0.0,0.0
718,179.25,50.062,58.5507,166.535,97.689,99.1916,0.00086688,0.0492184,20.9492,52.0622,-0.137272,0.0,0.0
720,179.75,50.2753,58.4334,162.281,97.7018,99.21,0.000829056,0.0491727,20.9492,52.0922,-0.137766,0.0,0.0
722,180.25,49.9853,58.3556,167.365,97.7149,99.2868,0.000798418,0.0490793,20.9492,52.1022,-0.143506,0.0,0.0
724,180.75,49.7729,58.0796,166.917,97.7317,99.7179,0.000757477,0.0490038,20.9492,52.0822,-0.180934,0.0,0.0
726,181.25,49.4943,58.0284,160.933,97.7384,99.2818,0.000724314,0.0489144,20.9492,52.0822,-0.140895,0.0,0.0
728,181.75,48.9769,57.6852,162.01,97.752,99.8512,0.000697453,0.048842,20.9492,52.0822,-0.191073,0.0,0.0
730,182.25,48.8532,57.678,161.74,97.76,100.421,0.000657099,0.048776,20.9492,52.0722,-0.241553,0.0,0.0
732,182.75,48.9721,57.3452,165.351,97.7739,99.6511,0.000624412,0.0487159,20.9492,52.0922,-0.171015,0.0,0.0
734,183.25,48.8848,57.1011,162.812,97.7747,100.306,0.000594022,0.0486672,20.9492,52.0922,-0.229863,0.0,0.0
736,183.75,48.6784,56.5369,162.99,97.7799,99.7269,0.000565883,0.0486277,20.9492,52.0822,-0.177305,0.0,0.0
738,184.25,48.7559,57.0254,166.454,97.807,99.1248,0.000551572,0.0485958,20.9492,52.0822,-0.120352,0.0,0.0
740,184.75,48.2398,56.5812,163.913,97.8078,99.4303,0.000547612,0.048584,20.9492,52.0922,-0.147956,0.0,0.0
742,185.25,48.2691,56.2642,160.746,97.8302,99.5667,0.000544404,0.0485744,20.9492,52.0622,-0.15823,0.0,0.0
744,185.75,48.3742,55.923,161.819,97.8409,99.4546,0.000556687,0.0485385,20.9492,52.0822,-0.147104,0.0,0.0
746,186.25,47.969,55.6986,168.237,97.8497,99.5183,0.000566635,0.0485094,20.9492,52.0822,-0.152057,0.0,0.0
748,186.75,47.9396,55.8062,166.391,97.8636,100.104,0.000575934,0.0484859,20.9494,52.0722,-0.20357,0.0,0.0
750,187.25,47.738,55.4766,162.696,97.8628,99.0745,0.000583466,0.0484106,20.9498,52.0922,-0.110661,0.0,0.0
752,187.75,47.8987,54.9094,162.229,97.8593,99.9198,0.000575926,0.0483496,20.9502,52.0922,-0.187392,0.0,0.0
754,188.25,47.7655,54.9082,159.12,97.8916,99.7072,0.000569818,0.0483143,20.9504,52.1022,-0.165264,0.0,0.0
756,188.75,47.434,55.2979,168.327,97.888,100.027,0.000564871,0.0482857,20.9506,52.1122,-0.194399,0.0,0.0
758,189.25,47.3181,54.8232,165.057,97.8967,100.193,0.000541032,0.0482625,20.9508,52.1022,-0.208506,0.0,0.0
760,189.75,47.4289,54.3354,163.304,97.9071,99.6013,0.000521722,0.0482437,20.951,52.0922,-0.15428,0.0,0.0
762,190.25,47.2981,54.4049,169.29,97.9318,99.8319,0.000497408,0.0481863,20.9511,52.0822,-0.172808,0.0,0.0
764,190.75,47.2409,54.1931,159.876,97.9338,99.3025,0.000477714,0.0481398,20.9512,52.0822,-0.124806,0.0,0.0
766,191.25,46.3342,54.3355,163.467,97.9426,99.5232,0.000463,0.048117,20.9512,52.0822,-0.143969,0.0,0.0
768,191.75,46.8637,53.805,160.865,97.9486,99.8243,0.000451082,0.0481118,20.9513,52.0722,-0.170583,0.0,0.0
770,192.25,46.6248,53.6824,162.582,97.9697,99.5138,0.000446385,0.0481076,20.9513,52.0722,-0.140629,0.0,0.0
772,192.75,46.7116,53.353,161.042,97.9741,99.3069,0.00044258,0.048048,20.9514,52.0622,-0.121515,0.0,0.0
774,193.25,46.1575,53.0567,162.764,98.0048,99.1593,0.000443411,0.0479997,20.9514,52.0622,-0.10532,0.0,0.0
776,193.75,46.2781,53.4624,163.711,98.0008,99.2477,0.000447607,0.0479746,20.9519,52.0622,-0.113699,0.0,0.0
778,194.25,45.7956,53.1395,161.797,98.0247,99.7803,0.000451005,0.0479543,20.9523,52.0722,-0.159631,0.0,0.0
780,194.75,45.5907,52.9404,158.984,98.0271,100.076,0.000462434,0.0479305,20.9526,52.0822,-0.18602,0.0,0.0
782,195.25,45.8325,52.8621,167.022,98.0363,99.8952,0.000471691,0.0479045,20.9528,52.0622,-0.168916,0.0,0.0
784,195.75,46.0601,52.2094,166.646,98.0487,100.054,0.000479189,0.0478539,20.953,52.0622,-0.18207,0.0,0.0
786,196.25,45.7979,52.4421,164.038,98.0518,100.085,0.000485263,0.0477862,20.9532,52.0622,-0.1846,0.0,0.0
788,196.75,45.925,52.1258,165.851,98.0658,100.174,0.000496381,0.0477315,20.9536,52.0622,-0.191258,0.0,0.0
790,197.25,45.1854,52.1239,163.837,98.0853,100.098,0.000505387,0.047673,20.9543,52.0722,-0.182657,0.0,0.0
792,197.75,44.9237,51.9458,166.123,98.0813,99.7179,0.000507723,0.0476257,20.9548,52.0822,-0.148817,0.0,0.0
794,198.25,45.5719,51.5405,167.265,98.1256,100.513,0.000509615,0.0475874,20.9552,52.0722,-0.216174,0.0,0.0
796,198.75,45.153,51.2402,164.811,98.0973,100.221,0.000496274,0.0475637,20.9555,52.0722,-0.192599,0.0,0.0
798,199.25,44.9116,51.6102,167.984,98.1364,99.6367,0.000485469,0.0475512,20.9558,52.0722,-0.136446,0.0,0.0
800,199.75,44.6955,51.4908,163.903,98.1188,99.9158,0.000459372,0.0475411,20.956,52.0822,-0.163207,0.0,0.0
802,200.25,44.8946,51.4293,168.931,98.1332,99.4469,0.000438233,0.0475188,20.9562,52.0822,-0.119593,0.0,0.0
804,200.75,44.8072,50.6949,164.541,98.1483,100.346,0.000417852,0.0475008,20.9563,52.0722,-0.199106,0.0,0.0
806,201.25,45.0488,50.8457,165.02,98.1543,100.412,0.00039841,0.0475003,20.9564,52.0622,-0.204507,0.0,0.0
808,201.75,44.8685,50.8365,166.299,98.1675,100.485,0.000383314,0.0474998,20.9565,52.0722,-0.20981,0.0,0.0
810,202.25,44.6664,50.6296,166.854,98.1655,99.8875,0.000371672,0.0474995,20.9562,52.0622,-0.156388,0.0,0.0
812,202.75,44.3325,50.2199,165.586,98.1838,99.6331,0.000362242,0.0474992,20.9559,52.0722,-0.131776,0.0,0.0
814,203.25,44.4557,50.1647,165.878,98.1858,100.531,0.000362035,0.0475063,20.9556,52.0722,-0.212305,0.0,0.0
816,203.75,44.4,50.2257,165.389,98.1914,99.958,0.000361868,0.0475188,20.9554,52.0822,-0.160353,0.0,0.0
818,204.25,44.1288,50.0844,164.681,98.2129,99.953,0.000364992,0.0475437,20.9553,52.0922,-0.157938,0.0,0.0
820,204.75,44.3623,50.1794,164.46,98.2221,100.206,0.000370457,0.0475771,20.9551,52.1022,-0.179797,0.0,0.0
822,205.25,44.3486,50.1089,165.922,98.2368,100.545,0.000374883,0.0476043,20.955,52.0822,-0.208876,0.0,0.0
824,205.75,44.2223,49.6144,164.422,98.2341,100.159,0.00038962,0.0476684,20.9549,52.0722,-0.174473,0.0,0.0
826,206.25,44.6521,49.6852,162.003,98.2488,100.852,0.000396992,0.0477203,20.9549,52.0722,-0.235148,0.0,0.0
828,206.75,44.1103,49.5434,162.938,98.2659,99.761,0.000398855,0.0477343,20.955,52.0922,-0.135791,0.0,0.0
830,207.25,44.123,49.5411,168.103,98.2667,100.134,0.000400363,0.0477456,20.9554,52.0922,-0.169264,0.0,0.0
832,207.75,43.8486,49.5863,164.148,98.2795,99.9844,0.000380529,0.0477547,20.9557,52.0922,-0.154669,0.0,0.0
834,208.25,43.5775,48.8681,162.068,98.2903,99.7206,0.000364464,0.0477059,20.9559,52.0922,-0.129924,0.0,0.0
836,208.75,43.4538,48.8796,162.76,98.2986,100.241,0.000335357,0.0476664,20.9561,52.0922,-0.175971,0.0,0.0
838,209.25,43.6051,49.0138,166.9,98.3122,100.245,0.00031178,0.0476204,20.9563,52.0922,-0.175093,0.0,0.0
840,209.75,43.648,48.768,158.671,98.309,100.546,0.000283565,0.047583,20.9564,52.0922,-0.202311,0.0,0.0
842,210.25,43.4222,48.4177,164.183,98.3174,99.9625,0.000252506,0.0475107,20.9565,52.1222,-0.149226,0.0,0.0
844,210.75,43.4605,48.9176,168.514,98.3122,100.095,0.000227347,0.047452,20.9566,52.1022,-0.161639,0.0,0.0
846,211.25,43.0371,48.7684,162.083,98.3405,99.8503,0.000209443,0.0474186,20.9566,52.0922,-0.137014,0.0,0.0
848,211.75,43.2694,48.2057,164.499,98.3246,99.6497,0.000194941,0.0473915,20.9567,52.0822,-0.120392,0.0,0.0
850,212.25,42.9691,48.212,165.433,98.327,100.387,0.000201757,0.0473622,20.9572,52.0722,-0.186494,0.0,0.0
852,212.75,42.8347,48.2742,163.659,98.3385,99.7772,0.000217052,0.0473318,20.9576,52.0722,-0.130608,0.0,0.0
854,213.25,43.0882,48.1675,160.988,98.3425,100.094,0.000228203,0.0473071,20.9578,52.0422,-0.158788,0.0,0.0
856,213.75,43.0688,48.0554,165.614,98.3744,99.6574,0.000247272,0.0472591,20.958,52.0522,-0.116523,0.0,0.0
858,214.25,42.4184,47.5652,162.331,98.3672,99.7951,0.000277581,0.0472202,20.9583,52.0722,-0.129601,0.0,0.0
860,214.75,42.774,47.7798,167.906,98.3788,100.033,0.000302132,0.0471886,20.958,52.0922,-0.149986,0.0,0.0
862,215.25,42.5557,47.2767,160.969,98.3824,100.14,0.000322018,0.0471631,20.9578,52.0922,-0.159254,0.0,0.0
864,215.75,42.4874,47.2972,163.209,98.3788,99.9979,0.000348076,0.0471846,20.9576,52.0922,-0.146799,0.0,0.0
866,216.25,42.2656,47.0418,163.621,98.3864,100.291,0.000369184,0.0471937,20.9575,52.0622,-0.172457,0.0,0.0
868,216.75,42.6903,46.9856,165.459,98.3888,100.156,0.0004039,0.0472168,20.9574,52.0722,-0.16008,0.0,0.0
870,217.25,42.3583,46.8301,164.183,98.4043,100.543,0.000447878,0.0472421,20.9575,52.0722,-0.193318,0.0,0.0
872,217.75,42.0767,47.1652,164.508,98.4342,99.8301,0.000499175,0.0472557,20.9575,52.0622,-0.126631,0.0,0.0
874,218.25,42.1875,46.771,164.67,98.4159,100.499,0.000554833,0.0472606,20.9576,52.0822,-0.188328,0.0,0.0
876,218.75,42.2134,46.5271,164.281,98.4302,100.395,0.000599916,0.0472646,20.9576,52.1022,-0.177737,0.0,0.0
878,219.25,42.1929,46.5187,161.172,98.4234,100.761,0.000640354,0.0472383,20.9577,52.0722,-0.211092,0.0,0.0
880,219.75,42.3257,46.5611,162.68,98.4502,100.216,0.000676637,0.0471903,20.9571,52.0622,-0.159866,0.0,0.0
882,220.25,42.0238,46.539,163.633,98.4525,100.256,0.000706027,0.0471514,20.9566,52.0622,-0.163271,0.0,0.0
884,220.75,42.1981,46.383,167.827,98.4713,100.107,0.00070873,0.0470778,20.9562,52.0922,-0.148148,0.0,0.0
886,221.25,42.1425,46.3546,164.321,98.4689,100.065,0.000710919,0.0470182,20.9559,52.0922,-0.144576,0.0,0.0
888,221.75,42.01,46.0263,163.533,98.4868,100.367,0.000684161,0.0469699,20.9556,52.0922,-0.170074,0.0,0.0
890,222.25,41.6898,46.3219,164.362,98.4876,100.483,0.000662486,0.0469589,20.9554,52.1322,-0.180407,0.0,0.0
892,222.75,41.7954,45.9416,161.486,98.5076,100.329,0.000633772,0.0469499,20.9553,52.1122,-0.164764,0.0,0.0
894,223.25,42.1778,46.0841,164.065,98.4968,99.7134,0.000610513,0.0469146,20.9551,52.0922,-0.1104,0.0,0.0
896,223.75,41.5811,45.4432,163.862,98.5004,100.506,0.000591673,0.046886,20.955,52.0622,-0.18129,0.0,0.0
898,224.25,41.6143,45.4958,166.256,98.5016,100.256,0.000575173,0.0469049,20.9549,52.0722,-0.158752,0.0,0.0
900,224.75,41.6565,45.4479,164.205,98.5267,100.376,0.000561809,0.0469203,20.9549,52.0522,-0.167238,0.0,0.0
902,225.25,41.6693,45.4456,161.806,98.5108,100.516,0.000545744,0.0469468,20.9548,52.1022,-0.181227,0.0,0.0
904,225.75,41.3651,45.7948,163.507,98.5231,100.53,0.000528018,0.0469683,20.9548,52.0822,-0.181302,0.0,0.0
906,226.25,41.4027,45.4289,165.668,98.5207,100.36,0.000511051,0.0469782,20.9547,52.0422,-0.166337,0.0,0.0
908,226.75,41.5803,45.6793,167.958,98.5379,100.164,0.000494959,0.0469797,20.9545,52.0722,-0.147185,0.0,0.0
910,227.25,41.35,45.2744,159.948,98.5267,100.187,0.000486491,0.0469808,20.9544,52.1022,-0.150259,0.0,0.0
912,227.75,41.1844,45.2595,162.56,98.5367,100.279,0.000483741,0.0469818,20.9543,52.1122,-0.157642,0.0,0.0
914,228.25,41.6332,44.9057,163.317,98.5359,100.579,0.000490647,0.0469825,20.9541,52.1222,-0.184592,0.0,0.0
916,228.75,41.2587,44.8984,165.043,98.5614,100.693,0.000504462,0.0469832,20.9541,52.1222,-0.192407,0.0,0.0
918,229.25,41.6715,44.8059,166.125,98.5518,100.506,0.000520874,0.0469545,20.954,52.1222,-0.176595,0.0,0.0
920,229.75,41.0067,44.955,167.419,98.5618,100.33,0.000538868,0.0469313,20.9539,52.1222,-0.159935,0.0,0.0
922,230.25,41.2521,45.0719,165.184,98.5578,100.309,0.000553442,0.0468985,20.9539,52.1122,-0.158369,0.0,0.0
924,230.75,40.8048,44.7732,163.932,98.5626,100.741,0.000565248,0.0468719,20.9539,52.0822,-0.196625,0.0,0.0
926,231.25,41.1557,44.6143,160.035,98.5817,101.049,0.00057357,0.0468363,20.9538,52.0622,-0.222312,0.0,0.0
928,231.75,40.9177,44.3726,161.115,98.5797,99.9665,0.000578352,0.0468222,20.9538,52.0422,-0.125624,0.0,0.0
930,232.25,40.9031,44.4872,162.08,98.5773,100.215,0.000580464,0.0468242,20.9538,52.0322,-0.148175,0.0,0.0
932,232.75,40.8618,44.4145,165.309,98.5937,100.364,0.000576301,0.0468257,20.9538,52.0422,-0.160001,0.0,0.0
934,233.25,40.7241,44.019,163.946,98.5849,99.9966,0.000567642,0.0468129,20.9538,52.0322,-0.127856,0.0,0.0
936,233.75,40.7007,44.1953,165.16,98.6076,100.653,,0.0468026,,52.0422,-0.184622,0.0,0.0
938,234.25,40.82,44.4778,168.465,98.6013,100.181,,0.0467868,,52.0322,-0.142973,0.0,0.0
940,234.75,40.9952,44.1196,171.092,98.6076,101.45,,0.0467674,,52.0622,-0.255574,0.0,0.0
942,235.25,40.8235,43.7306,164.109,98.6009,100.159,,0.0467442,,52.0522,-0.141035,0.0,0.0
944,235.75,40.7856,44.1088,163.434,98.6264,99.8216,,0.0467188,,52.0422,-0.108323,0.0,0.0
946,236.25,40.5067,43.9959,169.377,98.6096,100.373,,0.0466835,,52.0422,-0.15939,0.0,0.0
948,236.75,40.4734,43.8367,163.059,98.6304,99.8359,,,,52.0422,-0.109254,0.0,0.0
950,237.25,40.1758,43.9725,163.959,98.6228,100.01,,,,52.0622,-0.125651,0.0,0.0
952,237.75,40.4661,43.5936,165.537,98.6332,100.414,,,,52.0822,-0.160903,0.0,0.0
954,238.25,40.2672,43.6026,168.927,98.6284,99.5089,,,,52.0922,-0.0799238,0.0,0.0
956,238.75,40.7478,43.1939,166,98.6431,99.9454,,,,52.1022,-0.117946,0.0,0.0
958,239.25,40.7962,43.5622,172.413,98.6391,100.396,,,,52.0622,-0.15879,0.0,0.0
960,239.75,40.4864,43.5057,165.394,98.6559,100.163,,,,52.0722,-0.136341,0.0,0.0
962,240.25,40.4954,43.4155,165.911,98.6459,100.084,,,,52.0522,-0.130197,0.0,0.0
964,240.75,40.4893,43.4469,162.017,98.6655,100.327,,,,52.0422,-0.15016,0.0,0.0
966,241.25,39.8452,43.155,165.652,98.6563,100.141,,,,52.0522,-0.13433,0.0,0.0
968,241.75,39.9044,42.76,165.848,98.6643,100.673,,,,52.0722,-0.181223,0.0,0.0
970,242.25,40.3128,43.0742,163.803,98.6559,100.611,,,,52.0522,-0.176493,0.0,0.0
972,242.75,39.6819,43.1589,166.823,98.6619,101.004,,,,52.0522,-0.21097,0.0,0.0
974,243.25,40.2155,43.0357,165.185,98.6579,100.668,,,,52.0622,-0.181363,0.0,0.0
976,243.75,40.214,42.9441,163.526,98.6786,100.528,,,,52.0322,-0.16696,0.0,0.0
978,244.25,40.0591,42.6963,163.426,98.6575,100.461,,,,52.0221,-0.162943,0.0,0.0