File: 01_Data/Memory_Foam_Carpet_Pad/Cone/Memory_Foam_Carpet_Pad_Cone_HF50Scan_220922_R3.csv
Names,Time,Stack TC,Smoke TC,Exh Press,Smoke Comp,Smoke Meas,CO Meter,CO2 Meter,O2 Meter,Sample Mass,Ext Coeff,Start Test,Flame Verif
Chan Gain,,500,500,1,1,1,1,1,1,1,1,1.0,1.0
Offset,,0,0,0.141977,0,0,0,0,0,0,0,0.0,0.0
Gain,,1,1,25.011,13.065,14.7021,1,1,1,1.00081,1.02518,1.0,1.0
Units,sec,C,C,Pa,%,%,%,%,%,g,/m,,
Baseline,,52.7619,53.8031,159.573,98.8844,102.325,-2.68562e-05,0.0440639,20.9501,-445.703,-0.307471,,
2,0.25,51.6662,52.8451,162.55,97.4905,100.275,0.000384599,0.0478232,20.9479,63.6616,-0.253272,0.0,0.0
4,0.75,51.6994,52.2663,159.486,97.4773,99.7911,0.000712496,0.0492563,20.946,63.6816,-0.210965,0.0,0.0
6,1.25,50.4878,51.7355,164.479,97.4948,98.2243,0.000978092,0.060303,20.9444,63.5815,-0.067035,0.0,0.0
8,1.75,50.2367,51.492,150.268,97.4773,97.1802,0.00150577,0.0692508,20.9349,63.4814,0.0274459,0.0,0.0
10,2.25,50.0489,51.3613,150.925,97.4889,94.1791,0.00193318,0.0764985,20.9197,63.5014,0.310614,0.0,1.0
12,2.75,50.1408,51.3797,146.149,97.4825,90.9518,0.00268105,0.0945624,20.8838,63.4114,0.623592,0.0,1.0
14,3.25,50.069,51.4668,151.615,97.496,86.295,0.00328683,0.120168,20.8547,63.4214,1.09748,0.0,1.0
16,3.75,50.7785,50.996,147.087,97.4877,86.9456,0.00418985,0.140908,20.8147,63.3313,1.02917,0.0,1.0
18,4.25,51.0504,51.9032,143.262,97.5052,83.8309,0.00492129,0.17338,20.7675,63.3013,1.35885,0.0,1.0
20,4.75,50.9479,51.7978,140.547,97.4897,86.3735,0.00595392,0.199683,20.7212,63.2112,1.08872,0.0,1.0
22,5.25,51.6442,51.9888,145.711,97.5084,83.8255,0.00679034,0.231605,20.6765,63.1712,1.35973,0.0,1.0
24,5.75,52.2686,52.1907,137.679,97.4909,83.9063,0.00781825,0.257461,20.6404,63.1311,1.34945,0.0,1.0
26,6.25,52.3871,52.5563,141.735,97.514,81.8805,0.00865085,0.286535,20.6003,63.0811,1.57136,0.0,1.0
28,6.75,53.067,52.8395,140.552,97.4988,81.2703,0.00932526,0.310085,20.5679,63.0311,1.63723,0.0,1.0
30,7.25,52.5142,52.1206,141.727,97.5239,81.054,0.0100987,0.33482,20.5417,62.941,1.66351,0.0,1.0
32,7.75,52.8197,51.867,138.598,97.508,78.2647,0.0109298,0.354855,20.5124,62.911,1.97697,0.0,1.0
34,8.25,52.8783,52.8036,139.684,97.5315,80.2047,0.0116029,0.375575,20.4886,62.8209,1.75894,0.0,1.0
36,8.75,53.071,53.0829,144.56,97.5104,79.3747,0.0124211,0.392359,20.4656,62.7809,1.85054,0.0,1.0
38,9.25,54.0135,53.2293,140.79,97.5319,79.5986,0.0130838,0.405953,20.4436,62.7308,1.8272,0.0,1.0
40,9.75,54.6324,53.4723,137.085,97.5275,79.7426,0.0138712,0.421657,20.4223,62.6608,1.81053,0.0,1.0
42,10.25,55.2777,53.951,139.923,97.5423,78.8973,0.0145091,0.434377,20.4018,62.6007,1.90773,0.0,1.0
44,10.75,55.2036,54.7441,139.632,97.5295,76.5925,0.0152251,0.44468,20.3789,62.5006,2.17318,0.0,1.0
46,11.25,56.3853,55.0299,140.416,97.5535,73.3068,0.0158051,0.459798,20.3546,62.4906,2.56967,0.0,1.0
48,11.75,56.6358,55.2747,136.614,97.5459,77.23,0.0163582,0.472044,20.3349,62.4206,2.10014,0.0,0.0
50,12.25,56.7444,56.0634,133.136,97.5594,77.4884,0.0168812,0.487038,20.3118,62.3005,2.07134,0.0,0.0
52,12.75,57.3183,56.5557,139.729,97.5646,77.3489,0.0173727,0.499183,20.2931,62.2204,2.08803,0.0,0.0
54,13.25,58.1474,57.1918,139.117,97.5726,77.283,0.0178319,0.510973,20.2722,62.1303,2.09643,0.0,0.0
56,13.75,58.4956,57.6981,137.354,97.5622,77.4342,0.0182039,0.522281,20.2552,62.0503,2.0779,0.0,0.0
58,14.25,58.7396,57.8634,134.764,97.5881,75.2469,0.0185697,0.53318,20.2414,61.9802,2.33797,0.0,0.0
60,14.75,59.5318,58.387,139.111,97.5786,77.6239,0.0189241,0.543575,20.225,61.9102,2.05739,0.0,0.0
62,15.25,60.2296,58.8298,134.562,97.5909,75.3761,0.0192513,0.553891,20.2116,61.8001,2.32279,0.0,0.0
64,15.75,60.7814,59.4934,135.544,97.5973,76.465,0.0195526,0.563952,20.1954,61.8101,2.1944,0.0,0.0
66,16.25,61.5117,59.7966,135.954,97.6156,76.2945,0.0198327,0.572102,20.1823,61.69,2.21616,0.0,0.0
68,16.75,61.7916,60.64,129.139,97.6021,76.9868,0.0200919,0.581748,20.1681,61.5899,2.13368,0.0,0.0
70,17.25,62.4117,61.1298,140.993,97.6228,78.7856,0.0203018,0.589561,20.1566,61.5098,1.9279,0.0,0.0
72,17.75,62.8855,61.582,128.839,97.622,76.0374,0.0205678,0.597933,20.144,61.4398,2.2471,0.0,0.0
74,18.25,63.7632,62.2289,139.175,97.6392,78.3436,0.0207832,0.606555,20.1308,61.3797,1.97999,0.0,0.0
76,18.75,64.0333,62.7383,136.728,97.6348,75.5318,0.021038,0.616042,20.1202,61.3397,2.30828,0.0,0.0
78,19.25,64.3621,63.0244,133.226,97.6487,76.3161,0.0213166,0.625979,20.1039,61.2296,2.21667,0.0,0.0
80,19.75,65.3014,63.9097,132.355,97.6515,77.0214,0.0216395,0.638493,20.0908,61.1195,2.1342,0.0,0.0
82,20.25,65.7191,64.1222,135.09,97.6583,77.6989,0.0219887,0.652649,20.0663,60.9994,2.05607,0.0,0.0
84,20.75,66.3097,64.9678,132.91,97.6639,76.3973,0.0222715,0.664114,20.0464,60.9394,2.2085,0.0,0.0
86,21.25,66.5557,65.4775,127.316,97.6822,73.393,0.0226414,0.691427,20.0304,60.8293,2.57097,0.0,0.0
88,21.75,67.4896,66.1562,123.232,97.6782,72.9263,0.0230678,0.71355,19.9901,60.7492,2.62796,0.0,0.0
90,22.25,67.818,66.3266,123.379,97.703,71.5732,0.0234733,0.741911,19.9575,60.6491,2.79867,0.0,0.0
92,22.75,68.805,67.1653,125.305,97.6874,72.1623,0.0238558,0.774281,19.931,60.5791,2.72353,0.0,0.0
94,23.25,69.0528,67.9084,127.449,97.7105,73.8816,0.0241657,0.800501,19.8948,60.439,2.51391,0.0,0.0
96,23.75,70.3935,68.4586,115.727,97.7257,71.3161,0.0244167,0.84056,19.8522,60.2688,2.83312,0.0,0.0
98,24.25,71.2332,69.1531,121.338,97.7233,70.5856,0.024694,0.873007,19.8056,60.1687,2.92549,0.0,0.0
100,24.75,71.956,69.9726,115.838,97.7269,72.1627,0.0249186,0.89929,19.7571,60.0086,2.7271,0.0,0.0
102,25.25,72.7747,70.9942,125.504,97.7293,76.4525,0.0251201,0.937323,19.7044,59.8685,2.20803,0.0,0.0
104,25.75,74.0799,71.8733,121.38,97.7432,74.4204,0.0252833,0.96813,19.6496,59.7184,2.45156,0.0,0.0
106,26.25,75.0293,72.918,116.077,97.7588,74.4967,0.0254406,0.993083,19.5945,59.6383,2.44378,0.0,0.0
108,26.75,76.0617,73.9322,122.1,97.7616,74.4536,0.0255681,1.03057,19.54,59.5182,2.44924,0.0,0.0
110,27.25,77.3385,75.0851,107.17,97.7719,74.005,0.0257049,1.06093,19.4858,59.3981,2.50455,0.0,0.0
112,27.75,77.9666,75.3503,120.326,97.7707,75.5269,0.0258157,1.09464,19.4328,59.288,2.32138,0.0,0.0
114,28.25,79.2165,76.8309,109.111,97.7731,74.223,0.0259055,1.12194,19.3899,59.1479,2.4782,0.0,0.0
116,28.75,80.6375,77.9989,117.253,97.7951,74.7448,0.0260011,1.15154,19.349,59.0078,2.41722,0.0,0.0
118,29.25,81.7033,78.9141,109.956,97.7971,73.4051,0.026099,1.17551,19.3104,58.9177,2.58005,0.0,0.0
120,29.75,82.8096,80.2329,111.018,97.807,72.6966,0.0261813,1.19821,19.2791,58.7576,2.66818,0.0,0.0
122,30.25,83.8632,81.3208,115.511,97.8106,73.4423,0.0262506,1.21955,19.2485,58.6175,2.57674,0.0,0.0
124,30.75,85.3388,82.5462,117.814,97.8142,73.7833,0.0263068,1.23932,19.2192,58.4774,2.53541,0.0,0.0
126,31.25,86.3344,83.2709,110.633,97.8234,73.5101,0.0263537,1.25756,19.1921,58.3673,2.56962,0.0,0.0
128,31.75,86.6895,84.4553,101.963,97.8329,74.4137,0.0263916,1.27234,19.1672,58.2672,2.46063,0.0,0.0
130,32.25,88.344,85.8301,112.342,97.8481,73.6065,0.0264771,1.28431,19.1381,58.1471,2.5601,0.0,0.0
132,32.75,89.4124,87.1539,108.314,97.8573,72.763,0.0265463,1.3051,19.1064,57.997,2.66459,0.0,0.0
134,33.25,90.6016,88.2949,104.72,97.8668,74.0036,0.026733,1.32195,19.0712,57.8669,2.51344,0.0,0.0
136,33.75,91.2345,89.2945,111.659,97.8732,73.2736,0.0268842,1.34635,19.0339,57.7568,2.60317,0.0,0.0
138,34.25,92.7902,90.3458,111.027,97.8688,73.9179,0.0271107,1.36611,19.0038,57.5867,2.52404,0.0,0.0
140,34.75,93.5355,91.6937,109.128,97.8828,74.3697,0.0273876,1.39601,18.9601,57.4565,2.47052,0.0,0.0
142,35.25,94.9275,92.8055,107.835,97.8852,72.8043,0.0276119,1.42022,18.9247,57.3665,2.66206,0.0,0.0
144,35.75,96.003,93.6961,105.658,97.8975,73.9197,0.0281313,1.44978,18.8806,57.1863,2.52646,0.0,0.0
146,36.25,97.2106,94.9811,107.107,97.8967,73.8044,0.028552,1.48267,18.8308,57.0062,2.54043,0.0,0.0
148,36.75,98.1885,96.1494,88.4313,97.9135,74.7215,0.0290897,1.52007,18.7755,56.8761,2.43091,0.0,0.0
150,37.25,99.6423,97.2726,94.4467,97.9115,74.6847,0.0295253,1.56005,18.7171,56.7159,2.43515,0.0,0.0
152,37.75,100.994,98.964,101.75,97.9282,72.5284,0.0299445,1.59243,18.6545,56.5658,2.70016,0.0,0.0
154,38.25,102.518,100.416,98.8523,97.9219,72.3045,0.0303438,1.64188,18.5901,56.4557,2.72738,0.0,0.0
156,38.75,103.753,101.775,106.151,97.9422,74.6582,0.0306929,1.68194,18.5379,56.2856,2.44116,0.0,0.0
158,39.25,105.558,103.21,93.5239,97.9282,73.7905,0.0309987,1.72537,18.4629,56.1255,2.54501,0.0,0.0
160,39.75,106.997,104.773,93.0606,97.953,73.1538,0.0312382,1.77043,18.4023,55.9153,2.62521,0.0,0.0
162,40.25,108.862,106.423,89.1488,97.9426,71.9671,0.0314247,1.81589,18.3276,55.7752,2.77134,0.0,0.0
164,40.75,110.082,107.756,96.4449,97.9554,73.7775,0.0315757,1.86077,18.2672,55.555,2.54909,0.0,0.0
166,41.25,111.531,109.414,97.4983,97.9577,74.2472,0.0316722,1.90623,18.2053,55.4549,2.49223,0.0,0.0
168,41.75,113.122,111.327,84.044,97.9841,72.5077,0.0317504,1.95126,18.1435,55.2047,2.70784,0.0,0.0
170,42.25,114.581,112.796,93.9521,97.9916,73.9426,0.0318258,1.99756,18.0935,55.0546,2.53232,0.0,0.0
172,42.75,116.3,114.688,91.0539,98.0032,74.7035,0.0318977,2.0439,18.0261,54.9245,2.44131,0.0,0.0
174,43.25,117.577,116.105,98.6012,97.9952,73.6478,0.0319802,2.08144,17.9716,54.7243,2.56857,0.0,0.0
176,43.75,119.966,118.097,86.4559,98.012,75.1217,0.0320688,2.13616,17.8938,54.5542,2.39191,0.0,0.0
178,44.25,121.293,120.01,89.6335,98.008,76.4632,0.0321761,2.18049,17.8309,54.344,2.23237,0.0,0.0
180,44.75,123.044,121.541,96.9243,98.0271,76.0173,0.0322951,2.23207,17.7419,54.2039,2.28673,0.0,0.0
182,45.25,124.645,123.233,79.4636,98.0231,77.055,0.0324309,2.28797,17.6698,53.9737,2.16443,0.0,0.0
184,45.75,126.216,125.09,86.4895,98.049,75.1594,0.0325763,2.33325,17.6115,53.8536,2.3908,0.0,0.0
186,46.25,127.937,126.885,88.9351,98.0423,76.57,0.0326942,2.39193,17.5642,53.5334,2.22296,0.0,0.0
188,46.75,129.98,128.908,89.7434,98.0678,76.5992,0.0328534,2.44712,17.4919,53.4533,2.22188,0.0,0.0
190,47.25,131.774,130.906,92.2645,98.0447,75.9096,0.0330399,2.49873,17.4334,53.1931,2.30109,0.0,0.0
192,47.75,133.794,133.021,91.3172,98.0714,77.0757,0.0331909,2.54906,17.3648,53.0029,2.16644,0.0,0.0
194,48.25,135.956,135.27,83.3235,98.073,76.9074,0.0333798,2.5975,17.3093,52.8228,2.18624,0.0,0.0
196,48.75,137.343,137.036,85.7217,98.1085,77.7433,0.0335328,2.64712,17.2518,52.6527,2.09228,0.0,0.0
198,49.25,139.644,139.527,77.2699,98.0945,77.846,0.0336567,2.68731,17.1941,52.4825,2.07913,0.0,0.0
200,49.75,141.312,141.288,81.6771,98.1105,76.339,0.0338644,2.71986,17.1473,52.2723,2.25639,0.0,0.0
202,50.25,143.079,143.544,80.0727,98.1089,78.6927,0.0340326,2.7576,17.0821,52.0622,1.98316,0.0,0.0
204,50.75,145.529,145.233,89.2724,98.1316,78.3486,0.0342124,2.79841,17.0293,51.862,2.02466,0.0,0.0
206,51.25,146.965,147.625,87.7505,98.132,77.1219,0.0343973,2.83147,16.9602,51.6618,2.16661,0.0,0.0
208,51.75,148.257,150.162,74.8755,98.1595,77.9443,0.0345631,2.86633,16.9041,51.5117,2.07374,0.0,0.0
210,52.25,150.445,151.794,78.7858,98.1579,78.939,0.0347119,2.90185,16.8588,51.3516,1.95955,0.0,0.0
212,52.75,152.02,153.443,69.8982,98.1754,79.42,0.0348324,2.93062,16.822,51.1815,1.90653,0.0,0.0
214,53.25,154.194,155.624,74.7984,98.1727,79.3801,0.034885,2.94861,16.7923,50.9313,1.9108,0.0,0.0
216,53.75,156.048,157.681,78.3698,98.183,77.5647,0.0349275,2.95841,16.7682,50.7511,2.11979,0.0,0.0
218,54.25,156.957,160.473,86.3468,98.1922,77.7343,0.0348647,2.96634,16.7637,50.561,2.10099,0.0,0.0
220,54.75,159.074,162.122,87.3108,98.2038,78.9991,0.0348138,2.95121,16.7736,50.3708,1.95691,0.0,0.0
222,55.25,160.184,164.634,84.9141,98.1962,80.2294,0.0346119,2.93895,16.7996,50.1907,1.81725,0.0,0.0
224,55.75,162.474,166.136,87.4772,98.2177,78.589,0.0344484,2.9028,16.8367,50.0505,2.00499,0.0,0.0
226,56.25,163.811,168.18,98.176,98.2225,77.5199,0.0343159,2.87351,16.8667,49.9104,2.12861,0.0,0.0
228,56.75,164.837,169.797,91.489,98.2333,75.7234,0.0338745,2.81891,16.9123,49.7503,2.34045,0.0,0.0
230,57.25,166.202,171.723,101.45,98.2392,77.5095,0.0335171,2.77468,16.9682,49.6002,2.13134,0.0,0.0
232,57.75,167.459,173.466,102.913,98.244,75.8382,0.0329059,2.70246,17.0135,49.4701,2.32781,0.0,0.0
234,58.25,168.304,173.504,91.2676,98.2596,76.2039,0.0324109,2.64396,17.0985,49.36,2.28597,0.0,0.0
236,58.75,168.947,176.013,93.1003,98.2703,76.094,0.0318285,2.56997,17.1674,49.2399,2.29994,0.0,0.0
238,59.25,169.769,176.099,95.1229,98.2795,78.3557,0.0311935,2.48607,17.2835,49.0497,2.03738,0.0,0.0
240,59.75,170.037,177.498,105.3,98.2879,75.5977,0.0306791,2.41811,17.3776,48.9296,2.36039,0.0,0.0
242,60.25,169.98,178.702,107.985,98.2931,74.2553,0.029926,2.33376,17.498,48.9396,2.52198,0.0,0.0
244,60.75,170.933,179.624,106.421,98.3086,73.9731,0.0293159,2.23906,17.6354,48.7995,2.55765,0.0,0.0
246,61.25,171.22,180.931,104.06,98.3281,73.2036,0.028649,2.13653,17.7835,48.7295,2.65347,0.0,0.0
248,61.75,171.154,180.998,119.676,98.325,74.149,0.0279533,2.03024,17.9367,48.5693,2.53779,0.0,0.0
250,62.25,170.739,181.829,115.296,98.3425,73.1686,0.0272045,1.92161,18.0608,48.5693,2.65908,0.0,0.0
252,62.75,170.022,181.488,118.232,98.3565,73.126,0.0264312,1.81333,18.2248,48.4793,2.6656,0.0,0.0
254,63.25,170.029,181.801,120.825,98.3569,74.5788,0.0258049,1.72562,18.3576,48.4292,2.48873,0.0,0.0
256,63.75,169.595,181.532,123.773,98.3708,74.7946,0.0246442,1.62291,18.5048,48.3692,2.46402,0.0,0.0
258,64.25,168.923,181.518,130.393,98.3832,77.6549,0.0237041,1.5112,18.6595,48.2891,2.12766,0.0,0.0
260,64.75,168.423,181.56,132.665,98.3844,76.2802,0.0224534,1.39989,18.8221,48.2991,2.28839,0.0,0.0
262,65.25,167.535,180.687,133.719,98.3979,75.6,0.0214403,1.29099,18.9872,48.2391,2.37018,0.0,0.0
264,65.75,165.634,180.04,135.992,98.3999,79.8099,0.0207617,1.20278,19.0576,48.2091,1.88303,0.0,0.0
266,66.25,164.912,180.11,135.929,98.4059,80.5363,0.0196011,1.09355,19.2289,48.2291,1.8021,0.0,0.0
268,66.75,164.028,178.905,138.542,98.4099,85.0827,0.0184739,1.00508,19.3677,48.2291,1.30862,0.0,0.0
270,67.25,162.486,178.408,139.787,98.425,88.157,0.0173923,0.903666,19.5383,48.2191,0.990793,0.0,0.0
272,67.75,161.346,177.722,145.152,98.431,88.9233,0.016407,0.821519,19.6765,48.199,0.913505,0.0,0.0
274,68.25,159.784,176.1,144.927,98.4422,93.0408,0.0155106,0.744608,19.8206,48.199,0.507477,0.0,0.0
276,68.75,158.71,175.37,148.313,98.4573,97.4566,0.0147452,0.706907,19.9373,48.2091,0.0918693,0.0,0.0
278,69.25,156.309,174.197,147.461,98.4613,99.4254,0.01409,0.642437,20.0318,48.2091,-0.0876248,0.0,0.0
280,69.75,155.794,173.333,147.2,98.4589,100.786,0.0135592,0.573925,20.1339,48.189,-0.210052,0.0,0.0
282,70.25,153.927,171.803,148.49,98.4701,102.571,0.0131293,0.512942,20.2166,48.179,-0.366971,0.0,0.0
284,70.75,152.26,170.957,150.253,98.4789,102.981,0.0127811,0.458607,20.2835,48.189,-0.401975,0.0,0.0
286,71.25,150.78,169.335,149.379,98.4844,102.975,0.0125854,0.414595,20.3465,48.199,-0.400995,0.0,0.0
288,71.75,149.299,168.4,150.867,98.486,103.679,0.0124269,0.371379,20.4053,48.159,-0.462117,0.0,0.0
290,72.25,148.225,167.325,153.332,98.4876,103.178,0.0123295,0.336374,20.453,48.149,-0.418358,0.0,0.0
292,72.75,145.955,165.817,149.211,98.4856,103.128,0.0122787,0.30802,20.5036,48.149,-0.414237,0.0,0.0
294,73.25,143.447,163.226,152.449,98.494,102.87,0.0122464,0.281473,20.5496,48.119,-0.390947,0.0,0.0
296,73.75,142.014,161.819,151.444,98.5088,103.29,0.0122284,0.256746,20.5913,48.109,-0.426238,0.0,0.0
298,74.25,140.827,160.949,149.036,98.5275,102.408,0.012202,0.236717,20.6298,48.0689,-0.34736,0.0,0.0
300,74.75,139.327,159.388,149.7,98.5247,103.357,0.0121806,0.219034,20.6652,48.0789,-0.430562,0.0,0.0
302,75.25,138.832,158.078,157.873,98.5295,102.35,0.0121278,0.203395,20.6955,48.099,-0.342095,0.0,0.0
304,75.75,136.855,157.576,153.899,98.5395,104.145,0.0120851,0.19016,20.7216,48.089,-0.497583,0.0,0.0
306,76.25,136.049,156.619,155.274,98.563,102.79,0.0119981,0.178927,20.7434,48.0789,-0.377628,0.0,0.0
308,76.75,134.279,154.846,155.62,98.5506,103.955,0.0119276,0.16943,20.7617,48.109,-0.480123,0.0,0.0
310,77.25,133.179,153.845,154.113,98.5753,102.965,0.0118705,0.161378,20.7765,48.119,-0.391835,0.0,0.0
312,77.75,132.076,152.925,148.755,98.5702,103.317,0.0117392,0.154535,20.7898,48.089,-0.422978,0.0,0.0
314,78.25,131.032,151.798,154.798,98.5869,103.495,0.0116329,0.148703,20.8006,48.089,-0.436941,0.0,0.0
316,78.75,130.029,150.828,153.071,98.5837,103.096,0.0114906,0.143398,20.8099,48.0689,-0.402467,0.0,0.0
318,79.25,128.932,149.197,151.628,98.6116,103.338,0.0113753,0.139101,20.8178,48.0689,-0.420992,0.0,0.0
320,79.75,127.458,148.533,151.371,98.6192,103.146,0.0112259,0.135293,20.8246,48.0789,-0.403574,0.0,0.0
322,80.25,126.743,147.681,152.321,98.6276,103.41,0.0111048,0.131912,20.8306,48.0589,-0.425783,0.0,0.0
324,80.75,125.637,146.485,152.875,98.6336,102.797,0.0109638,0.129175,20.8354,48.0289,-0.37178,0.0,0.0
326,81.25,124.635,145.429,152.443,98.6415,102.806,0.0108496,0.126436,20.8403,48.0689,-0.371877,0.0,0.0
328,81.75,123.335,144.814,150.981,98.6447,102.518,0.0107352,0.124217,20.8442,48.109,-0.346355,0.0,0.0
330,82.25,122.621,143.685,154.104,98.6567,102.209,0.0106228,0.122045,20.8476,48.0589,-0.318067,0.0,0.0
332,82.75,121.536,143.195,153.246,98.6611,103.319,0.0105318,0.120285,20.8505,48.0489,-0.414883,0.0,0.0
334,83.25,121.252,142.368,151.111,98.6786,102.229,0.0104048,0.118654,20.8535,48.0389,-0.317844,0.0,0.0
336,83.75,120.074,140.414,157.027,98.6635,103.036,0.010302,0.117149,20.8564,48.0089,-0.38999,0.0,0.0
338,84.25,118.954,140.362,152.633,98.681,103.242,0.0102186,0.115763,20.8587,48.0189,-0.406347,0.0,0.0
340,84.75,118.084,139.644,157.553,98.6774,103.783,0.0100901,0.11449,20.8611,48.0189,-0.453644,0.0,0.0
342,85.25,116.88,138.638,152.723,98.6942,103.864,0.00998608,0.11346,20.863,47.9889,-0.459152,0.0,0.0
344,85.75,116.263,137.09,155.309,98.6854,102.768,0.00987197,0.11238,20.8648,47.9989,-0.364504,0.0,0.0
346,86.25,115.48,136.887,152.698,98.7081,102.931,0.00977954,0.111505,20.8664,47.9989,-0.376752,0.0,0.0
348,86.75,114.706,136.078,154.189,98.6958,103.696,0.00969042,0.110706,20.8678,48.0089,-0.444427,0.0,0.0
350,87.25,113.701,135.507,152.085,98.7129,103.775,0.00961823,0.109976,20.8688,48.0389,-0.449711,0.0,0.0
352,87.75,113.108,133.685,149.893,98.7025,103.377,0.00955976,0.109385,20.8699,48.0389,-0.416102,0.0,0.0
354,88.25,112.29,133.328,159.544,98.7193,103.779,0.0095124,0.108719,20.8711,47.9989,-0.44948,0.0,0.0
356,88.75,111.118,132.017,152.385,98.7245,103.793,0.00947403,0.10818,20.8722,47.9889,-0.450213,0.0,0.0
358,89.25,110.507,131.662,152.23,98.7332,102.633,0.00944296,0.107585,20.8733,47.9689,-0.34832,0.0,0.0
360,89.75,109.614,130.865,153.275,98.7209,103.162,0.00941261,0.107102,20.8742,47.9789,-0.395716,0.0,0.0
362,90.25,109.202,130.314,149.975,98.7368,103.441,0.00938802,0.106582,20.875,47.9588,-0.418558,0.0,0.0
364,90.75,108.112,129.564,155.416,98.7237,103.316,0.00936811,0.106161,20.8756,47.9789,-0.408906,0.0,0.0
366,91.25,107.606,128.719,153.407,98.75,103.076,0.00931315,0.105575,20.8763,47.9789,-0.385592,0.0,0.0
368,91.75,107.133,128.219,151.397,98.7209,103.249,0.00926863,0.105101,20.8771,47.9588,-0.403301,0.0,0.0
370,92.25,106.331,127.415,154.033,98.744,102.458,0.00918085,0.104542,20.8778,47.9388,-0.332033,0.0,0.0
372,92.75,105.378,126.293,152.906,98.7392,102.891,0.00910974,0.103933,20.8783,47.9388,-0.370391,0.0,0.0
374,93.25,104.345,125.129,152.014,98.7452,104.166,0.00905215,0.10344,20.8787,47.9288,-0.480571,0.0,0.0
376,93.75,103.719,124.703,153.62,98.7312,103.016,0.0090055,0.102667,20.879,47.9188,-0.382013,0.0,0.0
378,94.25,103.609,124.337,155.266,98.7496,104.05,0.00890961,0.102041,20.8792,47.8988,-0.470172,0.0,0.0
380,94.75,102.632,123.034,152.963,98.7484,103.315,0.00883194,0.101353,20.8792,47.9288,-0.406577,0.0,0.0
382,95.25,101.88,122.541,155.964,98.7516,102.923,0.0087471,0.100632,20.8797,47.8988,-0.372088,0.0,0.0
384,95.75,101.43,121.974,148.89,98.736,102.873,0.00867838,0.100048,20.8805,47.8888,-0.369152,0.0,0.0
386,96.25,101.171,121.284,150.947,98.7464,103.458,0.0086008,0.0995752,20.8814,47.8788,-0.419129,0.0,0.0
388,96.75,100.163,121.198,153.209,98.7384,102.493,0.00853796,0.0990201,20.8824,47.8888,-0.335573,0.0,0.0
390,97.25,99.9431,120.18,155.174,98.7488,102.834,0.00845485,0.0985704,20.8832,47.8788,-0.364538,0.0,0.0
392,97.75,99.2818,119.551,154.003,98.7368,103.944,0.00838753,0.0980772,20.8838,47.8788,-0.462139,0.0,0.0
394,98.25,98.6672,118.575,153.536,98.7432,103.28,0.00833301,0.0976776,20.8843,47.8988,-0.403963,0.0,0.0
396,98.75,97.9439,117.975,153.017,98.7376,103.33,0.0082438,0.0972031,20.8851,47.8788,-0.408846,0.0,0.0
398,99.25,97.2309,117.411,152.115,98.75,104.843,0.00817153,0.0966831,20.8858,47.8388,-0.538397,0.0,0.0
400,99.75,96.7267,117.041,154.455,98.7297,103.446,0.00808471,0.0959468,20.8864,47.7987,-0.419641,0.0,0.0
402,100.25,96.2493,116.375,151.567,98.7297,103.462,0.00801439,0.0953504,20.8868,47.8488,-0.421044,0.0,0.0
404,100.75,95.4531,115.663,151.834,98.7372,103.241,0.00792788,0.0947468,20.8874,47.8688,-0.401109,0.0,0.0
406,101.25,95.6754,114.902,153.586,98.7293,103.067,0.0078578,0.0941494,20.8881,47.8488,-0.386658,0.0,0.0
408,101.75,94.733,114.154,151.263,98.7229,104.122,0.00778415,0.0936656,20.8887,47.9088,-0.478846,0.0,0.0
410,102.25,94.3962,113.872,154.503,98.7312,103.298,0.00770928,0.0931592,20.8891,47.9288,-0.406615,0.0,0.0
412,102.75,93.6387,113.103,152.575,98.7213,102.777,0.00762772,0.0927491,20.8895,47.9388,-0.362099,0.0,0.0
414,103.25,93.0655,112.762,153.727,98.7221,103.115,0.00754281,0.0922596,20.8898,47.9188,-0.391539,0.0,0.0
416,103.75,92.8662,112.252,150.496,98.7312,102.925,0.00747404,0.0918631,20.8901,47.8888,-0.374058,0.0,0.0
418,104.25,92.1257,111.631,154.49,98.7169,103.786,0.00737862,0.091414,20.8907,47.9088,-0.45028,0.0,0.0
420,104.75,91.4134,110.966,154.385,98.7157,103.733,0.00730132,0.0909352,20.8917,47.8788,-0.445801,0.0,0.0
422,105.25,90.8484,110.034,157.409,98.7157,102.673,0.00723871,0.0905473,20.8925,47.8688,-0.353455,0.0,0.0
424,105.75,90.9613,109.714,151.104,98.7189,103.243,0.00713169,0.0900332,20.8931,47.8488,-0.402975,0.0,0.0
426,106.25,90.1204,109.5,150.722,98.7145,103.349,0.007045,0.0896167,20.8936,47.8688,-0.412553,0.0,0.0
428,106.75,89.7888,108.03,149.234,98.7057,103.591,0.0069326,0.0890224,20.8945,47.8588,-0.434449,0.0,0.0
430,107.25,89.2741,108.72,154.418,98.7145,102.738,0.00684156,0.0885409,20.8957,47.8287,-0.359221,0.0,0.0
432,107.75,89.4702,107.538,155.279,98.7153,103.591,0.00672314,0.088151,20.8968,47.8187,-0.433576,0.0,0.0
434,108.25,88.5219,106.908,154.655,98.7081,102.958,0.00662721,0.0874784,20.898,47.8488,-0.379065,0.0,0.0
436,108.75,88.06,106.77,151.646,98.7153,103.004,0.00651253,0.0869337,20.8989,47.8388,-0.382486,0.0,0.0
438,109.25,87.7859,106.459,154.551,98.7029,102.668,0.00641963,0.0861788,20.8996,47.8187,-0.354146,0.0,0.0
440,109.75,86.9779,105.147,155.838,98.7029,102.596,0.00632017,0.0855673,20.9003,47.8187,-0.347896,0.0,0.0
442,110.25,86.8405,104.67,151.931,98.7045,103.025,0.00623961,0.0849595,20.9008,47.8087,-0.385229,0.0,0.0
444,110.75,86.3946,104.229,152.008,98.7033,102.196,0.00616162,0.084366,20.9014,47.7787,-0.31267,0.0,0.0
446,111.25,86.5079,103.509,153.988,98.6958,102.976,0.00609845,0.0837728,20.9021,47.7887,-0.381759,0.0,0.0
448,111.75,85.6684,103.51,153.678,98.7005,103.435,0.00604728,0.0831911,20.9027,47.8187,-0.421317,0.0,0.0
450,112.25,85.4707,102.958,152.526,98.697,102.039,0.00598292,0.0825491,20.9036,47.7987,-0.299462,0.0,0.0
452,112.75,84.769,102.208,156.994,98.6938,102.49,0.00593078,0.0820291,20.9044,47.8087,-0.339445,0.0,0.0
454,113.25,84.2702,102.245,154.536,98.6862,102.502,0.00584149,0.0814941,20.9052,47.7787,-0.341198,0.0,0.0
456,113.75,84.1158,101.546,155.08,98.6874,102.927,0.00576916,0.0810607,20.9061,47.8287,-0.37829,0.0,0.0
458,114.25,83.9719,101.053,153.242,98.6918,103.515,0.00567916,0.0805749,20.9068,47.7987,-0.429097,0.0,0.0
460,114.75,83.0161,100.645,151.001,98.6842,102.618,0.00557797,0.0800601,20.9074,47.7987,-0.351491,0.0,0.0
462,115.25,82.7684,99.9027,151.173,98.6722,103.114,0.00547265,0.0796431,20.9079,47.7887,-0.396002,0.0,0.0
464,115.75,83.1218,99.8804,156.237,98.6786,103.027,0.00536631,0.0790734,20.9083,47.7787,-0.387826,0.0,0.0
466,116.25,81.8869,99.194,152.961,98.6686,102.623,0.00528017,0.0784033,20.9088,47.7887,-0.35334,0.0,0.0
468,116.75,81.6782,98.7123,151.824,98.6862,102.982,0.0052104,0.0777783,20.9095,47.7487,-0.38314,0.0,0.0
470,117.25,81.6634,98.0825,153.282,98.6535,102.734,0.00510447,0.077198,20.9107,47.7086,-0.364506,0.0,0.0
472,117.75,81.1934,97.9399,154.487,98.6635,102.952,0.00505931,0.0767279,20.9112,47.6886,-0.382624,0.0,0.0
474,118.25,81.2359,97.6566,151.35,98.6411,103.076,0.00496691,0.0760632,20.912,47.7187,-0.39551,0.0,0.0
476,118.75,80.3542,96.982,155.399,98.6679,102.401,0.00489205,0.0755249,20.9127,47.7187,-0.333969,0.0,0.0
478,119.25,80.2184,96.4355,155.154,98.6399,102.783,0.00483142,0.0750888,20.9133,47.7387,-0.369982,0.0,0.0
480,119.75,80.0639,96.3633,155.863,98.6543,103.733,0.00475195,0.0743241,20.9139,47.7387,-0.451397,0.0,0.0
482,120.25,80.0619,95.3623,147.786,98.6284,103.494,0.00468758,0.0737047,20.9147,47.7487,-0.433081,0.0,0.0
484,120.75,79.3469,95.3198,157.176,98.6364,103.166,0.00459373,0.0733064,20.9158,47.7387,-0.403732,0.0,0.0
486,121.25,79.09,95.0543,157.21,98.632,103.532,0.00451771,0.0726252,20.9171,47.7387,-0.436029,0.0,0.0
488,121.75,78.8539,94.2335,155.761,98.6336,103.32,0.00443288,0.0719392,20.9182,47.7387,-0.417431,0.0,0.0
490,122.25,78.3726,94.4393,152.147,98.6228,103.072,0.00434324,0.0712628,20.919,47.7287,-0.39683,0.0,0.0
492,122.75,78.0422,93.9086,155.527,98.63,102.809,0.00425204,0.0707148,20.9197,47.7487,-0.373167,0.0,0.0
494,123.25,78.2649,93.3359,155.622,98.5965,102.943,0.00416145,0.0700303,20.9203,47.7287,-0.387948,0.0,0.0
496,123.75,78.0338,93.1801,157.954,98.6088,103.712,0.00404617,0.0694758,20.9208,47.7387,-0.45379,0.0,0.0
498,124.25,77.5446,92.7094,155.774,98.6013,102.792,0.00400846,0.0689149,20.922,47.7587,-0.374293,0.0,0.0
500,124.75,77.3077,92.2456,155.617,98.6096,103.174,0.00394398,0.06836,20.923,47.7587,-0.406911,0.0,0.0
502,125.25,76.6345,91.9622,154.042,98.5921,103.03,0.00387412,0.0677616,20.9239,47.7086,-0.395949,0.0,0.0
504,125.75,77.0491,92.0037,155.59,98.6041,103.048,0.00381753,0.0671429,20.9245,47.6886,-0.396463,0.0,0.0
506,126.25,76.6219,90.9689,153.318,98.5781,103.445,0.0037717,0.0666417,20.9251,47.7487,-0.433335,0.0,0.0
508,126.75,75.8337,90.8205,151.203,98.6136,103.997,0.00370436,0.0659672,20.926,47.7187,-0.477985,0.0,0.0
510,127.25,76.0161,90.5948,151.882,98.5753,102.28,0.00364982,0.0654207,20.9272,47.6286,-0.331798,0.0,0.0
512,127.75,75.2199,89.8887,157.771,98.5734,102.48,0.00357545,0.0647803,20.9281,47.6086,-0.349557,0.0,0.0
514,128.25,75.0609,89.9869,156.457,98.5606,103.557,0.00351521,0.0642615,20.9289,47.7187,-0.44472,0.0,0.0
516,128.75,75.0728,89.4868,154.383,98.5769,102.778,0.00343249,0.0637447,20.9295,47.7487,-0.375295,0.0,0.0
518,129.25,74.1084,88.8945,156.478,98.5594,103.302,0.00336548,0.063239,20.93,47.6586,-0.422671,0.0,0.0
520,129.75,74.3621,89.063,153.768,98.5901,103.226,0.00327856,0.0628295,20.9304,47.6386,-0.413228,0.0,0.0
522,130.25,74.2254,88.428,156.328,98.5662,102.411,0.00320816,0.0623706,20.9307,47.6086,-0.344107,0.0,0.0
524,130.75,74.0424,87.8822,158.492,98.5694,102.968,0.00311851,0.0619989,20.931,47.7086,-0.392616,0.0,0.0
526,131.25,73.8534,87.8152,151.511,98.547,102.355,0.0030459,0.0615849,20.9312,47.6986,-0.340927,0.0,0.0
528,131.75,73.5878,87.2383,154.481,98.5582,102.824,0.00296076,0.0612496,20.9318,47.6986,-0.381048,0.0,0.0
530,132.25,73.1833,87.0521,155.366,98.5299,102.754,0.0028918,0.060874,20.9328,47.6986,-0.377507,0.0,0.0
532,132.75,72.8858,87.0604,156.09,98.545,102.824,0.00283594,0.0604761,20.9335,47.7287,-0.382209,0.0,0.0
534,133.25,72.8231,86.3997,155.744,98.5259,103.188,0.00276439,0.0600573,20.9342,47.7287,-0.415801,0.0,0.0
536,133.75,72.7788,85.79,152.707,98.5502,103.037,0.00270643,0.0596312,20.9347,47.7287,-0.400395,0.0,0.0
538,134.25,72.1954,86.2335,155.829,98.5387,103.09,0.0026529,0.0591168,20.9351,47.7187,-0.406031,0.0,0.0
540,134.75,71.8628,85.4934,155.045,98.5359,103.436,0.0026036,0.0587001,20.9354,47.6986,-0.43645,0.0,0.0
542,135.25,71.7415,85.201,153.175,98.5215,102.734,0.00256368,0.0582958,20.9357,47.6786,-0.376504,0.0,0.0
544,135.75,71.6657,84.8172,152.878,98.5415,102.943,0.00252007,0.0579083,20.9359,47.6686,-0.392929,0.0,0.0
546,136.25,71.768,84.7286,155.08,98.5247,103.112,0.00248475,0.0575943,20.9361,47.6886,-0.409222,0.0,0.0
548,136.75,71.8256,83.9746,156.095,98.5223,103.006,0.00243738,0.0572881,20.9364,47.6886,-0.40024,0.0,0.0
550,137.25,71.5398,84.0278,150.238,98.5167,102.83,0.002399,0.0569933,20.937,47.7086,-0.385342,0.0,0.0
552,137.75,70.8963,83.0298,154.746,98.5251,103.028,0.00233541,0.0567545,20.9376,47.7086,-0.401904,0.0,0.0
554,138.25,71.1833,83.6429,153.185,98.5108,103.098,0.00228391,0.0564061,20.9384,47.6886,-0.409322,0.0,0.0
556,138.75,71.1499,83.369,156.03,98.5175,101.863,0.00220097,0.0561239,20.939,47.6786,-0.300351,0.0,0.0
558,139.25,70.8478,82.6309,149.258,98.5139,102.763,0.00213379,0.0557966,20.9394,47.7187,-0.379709,0.0,0.0
560,139.75,70.5622,82.4969,157.613,98.5151,102.377,0.00207938,0.0555316,20.9398,47.7287,-0.34577,0.0,0.0
562,140.25,70.1853,82.4687,155.349,98.5072,103.622,0.0020353,0.0552324,20.9402,47.7287,-0.455205,0.0,0.0
564,140.75,70.1057,82.1495,155.93,98.5151,102.919,0.00193849,0.05499,20.9404,47.7487,-0.393253,0.0,0.0
566,141.25,69.6398,81.9286,153.723,98.5084,102.713,0.00186007,0.054681,20.9406,47.7487,-0.375859,0.0,0.0
568,141.75,70.0496,81.5565,159.194,98.5227,101.897,0.00178035,0.0544307,20.9408,47.7587,-0.302809,0.0,0.0
570,142.25,69.865,81.1185,158.847,98.512,102.811,0.00171578,0.054228,20.9409,47.7387,-0.38413,0.0,0.0
572,142.75,69.209,81.1432,152.488,98.5175,102.544,0.00164977,0.0539823,20.941,47.7187,-0.36024,0.0,0.0
574,143.25,69.3264,81.0287,156.038,98.5076,103.021,0.00159631,0.0537098,20.9411,47.6886,-0.40284,0.0,0.0
576,143.75,68.9454,80.5049,156.951,98.5016,102.364,0.00153807,0.0534892,20.9414,47.6986,-0.345904,0.0,0.0
578,144.25,69.0652,80.3282,152.72,98.506,102.721,0.00149089,0.0532119,20.9419,47.6886,-0.376824,0.0,0.0
580,144.75,68.673,79.9459,153.675,98.4968,102.222,0.00144154,0.0529873,20.9423,47.6786,-0.333876,0.0,0.0
582,145.25,68.0626,79.8095,154.113,98.4805,102.808,0.00139155,0.0527632,20.9426,47.6986,-0.386732,0.0,0.0
584,145.75,68.4308,79.7021,155.555,98.49,102.659,0.00134778,0.0525816,20.9428,47.6786,-0.372818,0.0,0.0
586,146.25,67.8385,79.1333,161.627,98.494,102.271,0.00130939,0.0524205,20.943,47.6886,-0.338393,0.0,0.0
588,146.75,67.7531,79.2589,151.056,98.4848,102.592,0.00127828,0.05229,20.9432,47.7187,-0.367395,0.0,0.0
590,147.25,67.7951,78.365,156.086,98.484,102.938,0.00124916,0.0521398,20.9433,47.6886,-0.397778,0.0,0.0
592,147.75,67.8891,78.4761,150.543,98.4912,102.788,0.00122204,0.0519782,20.9434,47.7287,-0.384022,0.0,0.0
594,148.25,67.3438,78.3405,152.641,98.4936,102.813,0.00119811,0.0518325,20.9435,47.7387,-0.385962,0.0,0.0
596,148.75,67.4871,77.9751,153.219,98.4745,103.244,0.00117696,0.0517011,20.9436,47.7487,-0.425305,0.0,0.0
598,149.25,66.9283,77.5661,154.69,98.4817,103.403,0.00115786,0.0515947,20.9436,47.7687,-0.438552,0.0,0.0
600,149.75,66.5422,77.5574,151.086,98.484,102.582,0.00114063,0.0515159,20.9437,47.7487,-0.366602,0.0,0.0
602,150.25,67.1796,77.4784,153.414,98.4817,103.805,0.00112013,0.0514587,20.9437,47.7287,-0.473447,0.0,0.0
604,150.75,66.5538,77.359,149.563,98.4793,102.662,0.00109763,0.0513976,20.9437,47.7086,-0.374037,0.0,0.0
606,151.25,66.2498,76.5314,150.429,98.4832,102.941,0.00106764,0.0513348,20.9438,47.7086,-0.398086,0.0,0.0
608,151.75,66.4963,76.4004,157.84,98.4697,103.312,0.00103275,0.0512543,20.9442,47.7086,-0.431681,0.0,0.0
610,152.25,66.4303,76.4749,156.243,98.4908,102.711,0.000994691,0.0511624,20.9446,47.7387,-0.377304,0.0,0.0
612,152.75,65.9711,76.5756,156.928,98.4761,102.792,0.000955038,0.051051,20.9449,47.7287,-0.385719,0.0,0.0
614,153.25,65.8759,76.3776,155.841,98.4848,102.394,0.000922918,0.0509274,20.9452,47.7187,-0.350034,0.0,0.0
616,153.75,65.8512,75.989,154.155,98.4721,102.745,0.000890368,0.0507903,20.9454,47.7086,-0.382,0.0,0.0
618,154.25,65.9231,75.6217,155.41,98.4777,102.273,0.000858123,0.0506459,20.9455,47.7287,-0.340043,0.0,0.0
620,154.75,65.5369,75.4403,153.166,98.4765,102.514,0.000831352,0.0505215,20.9457,47.7487,-0.361353,0.0,0.0
622,155.25,65.3746,74.6388,153.824,98.4896,103.016,0.000809079,0.0504141,20.9458,47.7187,-0.404048,0.0,0.0
624,155.75,65.4412,74.9954,155.948,98.4737,101.622,0.000791038,0.0503272,20.9459,47.7387,-0.28298,0.0,0.0
626,156.25,64.778,74.4202,156.635,98.4836,102.442,0.000764017,0.0502004,20.9459,47.7387,-0.354398,0.0,0.0
628,156.75,64.8811,74.1937,152.218,98.4828,102.916,0.00074213,0.0500978,20.946,47.7487,-0.395967,0.0,0.0
630,157.25,64.7987,74.3055,152.359,98.4848,103.516,0.000710758,0.0500221,20.9463,47.7086,-0.448089,0.0,0.0
632,157.75,65.0214,74.5399,152.445,98.4848,101.951,0.000685346,0.0499674,20.9467,47.7287,-0.311096,0.0,0.0
634,158.25,64.7275,74.2637,150.18,98.4884,101.866,0.000643686,0.0499231,20.9471,47.7287,-0.303246,0.0,0.0
636,158.75,64.519,73.9226,153.778,98.4892,102.607,0.000609942,0.0498591,20.9473,47.7086,-0.36837,0.0,0.0
638,159.25,64.367,73.6624,157.898,98.4924,102.299,0.000564023,0.0498072,20.9476,47.6686,-0.341024,0.0,0.0
640,159.75,64.0657,73.5965,159.346,98.4785,102.498,0.000526828,0.0497282,20.9478,47.6886,-0.359793,0.0,0.0
642,160.25,64.1665,73.2156,152.076,98.5056,102.031,0.0004967,0.049631,20.9479,47.7187,-0.316245,0.0,0.0
644,160.75,64.49,72.8797,155.563,98.4928,102.566,0.000469689,0.0495373,20.948,47.7187,-0.364425,0.0,0.0
646,161.25,63.7961,72.5057,155.793,98.5004,101.79,0.000445463,0.0494482,20.9481,47.7086,-0.295418,0.0,0.0
648,161.75,63.8203,72.8447,157.382,98.4876,102.52,0.000430795,0.0493612,20.9482,47.7187,-0.360844,0.0,0.0
650,162.25,63.7641,71.9228,155.956,98.5004,101.745,0.000418914,0.0492774,20.9483,47.7287,-0.291493,0.0,0.0
652,162.75,63.5141,72.057,153.225,98.4892,102.657,0.00040929,0.0492095,20.9483,47.7187,-0.372735,0.0,0.0
654,163.25,63.7322,72.2815,155.334,98.4956,101.88,0.000414539,0.0491124,20.9484,47.7387,-0.303819,0.0,0.0
656,163.75,63.9656,72.2059,154.775,98.4936,101.78,0.00043053,0.0490337,20.9484,47.7287,-0.295204,0.0,0.0
658,164.25,63.4886,71.606,158.765,98.506,103.46,0.000450008,0.0489329,20.9485,47.6886,-0.441246,0.0,0.0
660,164.75,63.2816,71.4871,156.94,98.486,102.06,0.000471659,0.048818,20.9485,47.6486,-0.32052,0.0,0.0
662,165.25,62.8198,71.6553,152.63,98.498,103.403,0.000489196,0.048725,20.9485,47.6486,-0.43702,0.0,0.0
664,165.75,63.1574,70.7947,153.125,98.4836,102.39,0.000510841,0.0486644,20.9485,47.7387,-0.349828,0.0,0.0
666,166.25,63.0831,70.9222,159.105,98.5036,102.065,0.000528374,0.0486286,20.9485,47.7187,-0.319393,0.0,0.0
668,166.75,63.025,70.6186,153.164,98.492,102.402,0.000549758,0.0485849,20.9485,47.7287,-0.350088,0.0,0.0
670,167.25,63.091,70.9686,158.385,98.5052,102.72,0.000573543,0.0485361,20.9485,47.6686,-0.376779,0.0,0.0
672,167.75,62.4242,70.4732,161.123,98.4944,102.181,0.000592809,0.0484818,20.9486,47.6786,-0.330463,0.0,0.0
674,168.25,62.9291,70.3924,154.829,98.5044,103.141,0.000612986,0.0484245,20.9486,47.7187,-0.413621,0.0,0.0
676,168.75,62.5784,70.6575,155.252,98.4924,102.749,0.000633443,0.0483781,20.9486,47.7387,-0.380458,0.0,0.0
678,169.25,62.972,70.0916,156.909,98.5068,102.763,0.000648708,0.0483265,20.9486,47.7387,-0.380404,0.0,0.0
680,169.75,62.6667,70.0306,154.539,98.4992,102.335,0.000659897,0.0482846,20.9486,47.7086,-0.343599,0.0,0.0
682,170.25,62.014,69.6689,156.014,98.5092,101.902,0.000665695,0.0482507,20.9486,47.6886,-0.304521,0.0,0.0
684,170.75,62.2803,69.7007,157.099,98.4964,102.705,0.000667452,0.0481811,20.9486,47.6686,-0.376244,0.0,0.0
686,171.25,61.8791,69.3172,156.122,98.5124,102.377,0.000666916,0.0481247,20.9486,47.6886,-0.346064,0.0,0.0
688,171.75,62.0829,69.0097,157.48,98.5068,103.006,0.000664719,0.0480791,20.9486,47.6886,-0.401659,0.0,0.0
690,172.25,61.4133,69.15,153.058,98.5052,102.353,0.00066098,0.0480421,20.9486,47.6786,-0.344591,0.0,0.0
692,172.75,61.6305,69.6084,158.777,98.5056,103.551,0.000656189,0.0479973,20.9486,47.6686,-0.449196,0.0,0.0
694,173.25,61.7879,68.8227,156.427,98.5183,102.673,0.000649697,0.0479477,20.9486,47.6486,-0.371492,0.0,0.0
696,173.75,61.6012,68.8842,155.061,98.5112,102.549,0.000642088,0.0479076,20.9486,47.6186,-0.361255,0.0,0.0
698,174.25,61.1734,68.5234,157.66,98.5203,102.334,0.000635924,0.0478751,20.9486,47.6586,-0.341552,0.0,0.0
700,174.75,61.1243,68.6827,156.909,98.5127,102.856,0.000621011,0.0478487,20.9486,47.6486,-0.387982,0.0,0.0
702,175.25,60.8514,68.3727,153.965,98.5147,103.19,0.000608931,0.0478274,20.9486,47.6786,-0.416976,0.0,0.0
704,175.75,61.5125,68.4703,155.611,98.5052,103.086,0.000595231,0.0477953,20.9486,47.6986,-0.408775,0.0,0.0
706,176.25,60.7028,68.0256,155.094,98.5231,103.227,0.00058061,0.047756,20.9486,47.7287,-0.419457,0.0,0.0
708,176.75,60.7392,67.8816,154.217,98.5084,102.385,0.000568767,0.0477242,20.9486,47.6886,-0.347137,0.0,0.0
710,177.25,60.4043,67.3799,152.501,98.5167,102.496,0.000564134,0.0477124,20.9486,47.6686,-0.356062,0.0,0.0
712,177.75,60.1403,67.5941,155.929,98.5239,103.396,0.000560381,0.0477029,20.9486,47.6786,-0.43403,0.0,0.0
714,178.25,60.5452,67.1665,155.977,98.5116,101.821,0.000575944,0.0476953,20.9486,47.6586,-0.297173,0.0,0.0
716,178.75,60.6329,66.9289,156.438,98.5135,102.374,0.000588551,0.047689,20.9486,47.6586,-0.345679,0.0,0.0
718,179.25,60.4092,67.4224,156.461,98.5187,102.049,0.000617052,0.047684,20.9486,47.6886,-0.316586,0.0,0.0
720,179.75,60.7778,66.9962,155.042,98.5151,102.348,0.000656599,0.0476518,20.9486,47.7187,-0.343207,0.0,0.0
722,180.25,60.1803,66.884,153.748,98.5116,102.765,0.000701053,0.0476257,20.9486,47.6986,-0.380163,0.0,0.0
724,180.75,60.4814,66.5648,153.527,98.5151,103.296,0.000768357,0.0476046,20.9486,47.6986,-0.426124,0.0,0.0
726,181.25,60.636,66.4153,156.75,98.5028,102.64,,0.0475875,,47.7086,-0.370003,0.0,0.0
728,181.75,60.2506,66.0365,155.208,98.5132,102.171,,0.0475588,,47.6686,-0.327883,0.0,0.0
730,182.25,59.7678,66.4289,153.633,98.5127,102.764,,0.0475223,,47.6686,-0.379976,0.0,0.0
732,182.75,59.9433,66.0806,154.148,98.5235,101.97,,0.0474927,,47.6586,-0.309188,0.0,0.0
734,183.25,59.8895,65.588,157.09,98.5275,103.212,,0.0474688,,47.6686,-0.417728,0.0,0.0
736,183.75,60.2312,66.2261,158.115,98.5215,102.933,,0.0474263,,47.6986,-0.393926,0.0,0.0
738,184.25,59.9906,66.2143,156.644,98.5223,102.655,,,,47.6886,-0.369516,0.0,0.0
740,184.75,60.0587,66.183,157.005,98.5247,102.536,,,,47.6886,-0.358916,0.0,0.0
742,185.25,59.7768,65.7635,156.67,98.5263,101.721,,,,47.7086,-0.286946,0.0,0.0
744,185.75,59.7831,65.7428,156.338,98.5311,102.21,,,,47.6986,-0.329641,0.0,0.0
746,186.25,59.2666,65.5404,153.19,98.5191,102.333,,,,47.6486,-0.341581,0.0,0.0
748,186.75,59.2929,65.3483,154.416,98.5434,102.555,,,,47.6586,-0.358858,0.0,0.0
750,187.25,59.3322,65.489,152.382,98.5243,103.035,,,,47.6886,-0.402526,0.0,0.0
752,187.75,59.4538,64.8836,155.319,98.5299,102.064,,,,47.6886,-0.316911,0.0,0.0
754,188.25,59.3077,64.9563,156.294,98.5383,101.553,,,,47.6986,-0.270967,0.0,0.0
756,188.75,58.9101,64.9405,154.178,98.5482,102.414,,,,47.6886,-0.34602,0.0,0.0
758,189.25,59.1355,64.6245,154.016,98.5335,101.791,,,,47.6986,-0.292516,0.0,0.0
760,189.75,59.201,64.7622,153.181,98.5466,102.079,,,,47.7086,-0.316687,0.0,0.0
762,190.25,58.6223,64.7806,152.97,98.5359,102.289,,,,47.7287,-0.336189,0.0,0.0
764,190.75,59.3482,64.6483,152.939,98.5602,101.702,,,,47.6886,-0.282187,0.0,0.0
766,191.25,58.5728,64.3287,154.245,98.5391,102.278,,,,47.6586,-0.334872,0.0,0.0
768,191.75,59.3397,64.4801,153.749,98.5678,101.793,,,,47.6586,-0.289585,0.0,0.0