File: 01_Data/Memory_Foam_Carpet_Pad/Cone/Memory_Foam_Carpet_Pad_Cone_HF25Scan_220921_R3.csv
Names,Time,Stack TC,Smoke TC,Exh Press,Smoke Comp,Smoke Meas,CO Meter,CO2 Meter,O2 Meter,Sample Mass,Ext Coeff,Start Test,Flame Verif
Chan Gain,,500,500,1,1,1,1,1,1,1,1,1.0,1.0
Offset,,0,0,0.141977,0,0,0,0,0,0,0,0.0,0.0
Gain,,1,1,25.011,13.065,14.7021,1,1,1,1.00081,1.02518,1.0,1.0
Units,sec,C,C,Pa,%,%,%,%,%,g,/m,,
Baseline,,37.4259,37.7254,166.687,99.222,100.564,0.000175079,0.044862,20.9573,-442.033,-0.12082,,
2,0.25,36.4928,37.2867,167.553,99.3544,100.775,-4.70197e-05,0.0448733,20.9585,72.4587,-0.127709,0.0,0.0
4,0.75,36.7795,36.617,168.535,99.3648,100.82,-7.73171e-05,0.0448467,20.9586,72.4287,-0.130733,0.0,0.0
6,1.25,34.9813,35.6493,165.678,99.3493,100.657,-0.000106543,0.0448318,20.9586,72.3486,-0.117562,0.0,0.0
8,1.75,35.1698,35.1956,170.685,99.3584,99.94,-0.000126963,0.0448493,20.9586,72.3886,-0.0524871,0.0,0.0
10,2.25,35.0056,35.5217,165.985,99.3512,100.141,-0.000140574,0.0448901,20.9587,72.3886,-0.071246,0.0,0.0
12,2.75,34.5384,35.5237,162.935,99.3564,99.7368,-0.000143791,0.0449231,20.9587,72.3986,-0.0343597,0.0,0.0
14,3.25,35.1996,35.4819,168.923,99.3477,99.7879,-0.00013937,0.0449498,20.9587,72.3786,-0.0397646,0.0,0.0
16,3.75,35.0921,35.5657,171.059,99.3612,99.4478,-0.000136439,0.0449715,20.9587,72.3586,-0.00783619,0.0,0.0
18,4.25,35.1638,35.431,164.135,99.3457,98.9812,-0.00013465,0.0449964,20.9588,72.3586,0.0330509,0.0,0.0
20,4.75,35.1757,35.2576,166.762,99.3548,98.8152,-0.000139057,0.0450233,20.9588,72.3586,0.0489771,0.0,0.0
22,5.25,34.9627,35.1403,166.785,99.3556,98.856,-0.000147898,0.0450229,20.9583,72.3786,0.0453331,0.0,0.0
24,5.75,35.0018,35.5103,163.849,99.3588,98.5487,-0.000155059,0.0450026,20.958,72.3886,0.0736238,0.0,0.0
26,6.25,34.4462,35.5333,166.927,99.3473,98.5177,-0.000146024,0.0449861,20.9577,72.3886,0.0754035,0.0,0.0
28,6.75,34.6484,35.5791,168.956,99.3684,97.9093,-0.000138705,0.0451273,20.9575,72.3686,0.133023,0.0,0.0
30,7.25,35.0684,35.6998,166.141,99.356,97.6231,-0.000132776,0.0452416,20.9573,72.3686,0.158235,0.0,0.0
32,7.75,35.3626,35.109,169.387,99.3532,97.0425,-5.43193e-06,0.0470503,20.954,72.3586,0.211625,0.0,0.0
34,8.25,35.0556,35.5004,166.736,99.354,95.7759,9.77169e-05,0.0485153,20.9513,72.2185,0.329843,0.0,0.0
36,8.75,34.8818,35.3418,170.154,99.3616,95.4941,0.000376436,0.0560419,20.944,72.2385,0.357025,0.0,0.0
38,9.25,35.1929,35.6057,159.7,99.3504,99.8009,0.000602199,0.0621385,20.9334,72.2385,-0.0406842,0.0,0.0
40,9.75,34.9507,35.3364,161.616,99.3588,97.5733,0.000902847,0.074431,20.9156,72.2185,0.163076,0.0,1.0
42,10.25,35.2104,35.3425,164.553,99.3652,96.5072,0.00125237,0.0910067,20.893,72.1985,0.262446,0.0,1.0
44,10.75,35.5056,35.8713,152.227,99.3596,92.9165,0.00174926,0.104433,20.866,72.1985,0.60292,0.0,1.0
46,11.25,35.5461,35.6979,157.953,99.3588,93.7528,0.00215175,0.121667,20.8362,72.1184,0.522266,0.0,1.0
48,11.75,35.5909,35.946,154.603,99.3624,92.5481,0.00265852,0.141348,20.8067,72.0884,0.638895,0.0,1.0
50,12.25,36.231,36.225,155.901,99.364,93.8847,0.00306901,0.160697,20.7779,72.0183,0.510092,0.0,1.0
52,12.75,36.0289,35.6223,148.029,99.37,92.2314,0.00356531,0.179435,20.7516,71.9983,0.670412,0.0,1.0
54,13.25,36.9731,36.8503,151.866,99.356,90.4439,0.00396732,0.196916,20.7275,71.9683,0.845147,0.0,1.0
56,13.75,36.6765,36.1412,152.061,99.366,90.1949,0.00429294,0.213147,20.708,71.9283,0.870844,0.0,1.0
58,14.25,37.4052,36.5579,158.793,99.3724,89.7462,0.00469948,0.227823,20.6898,71.8782,0.916266,0.0,1.0
60,14.75,36.5113,35.7231,154.302,99.3608,92.1932,0.00502878,0.241087,20.673,71.8282,0.673301,0.0,1.0
62,15.25,36.7824,35.6888,148.816,99.3528,91.3901,0.00536199,0.25387,20.6593,71.8082,0.751262,0.0,1.0
64,15.75,36.9857,35.9817,155.778,99.3788,90.8127,0.00563188,0.264224,20.6466,71.7381,0.810608,0.0,1.0
66,16.25,36.8928,36.1129,143.776,99.3648,89.6448,0.0058505,0.273614,20.6349,71.6981,0.925747,0.0,0.0
68,16.75,37.2655,36.1708,155.757,99.362,91.4054,0.00608287,0.282124,20.6253,71.6681,0.750591,0.0,0.0
70,17.25,37.7963,36.1645,151.707,99.37,91.0186,0.00632086,0.289017,20.6155,71.638,0.789444,0.0,0.0
72,17.75,37.4664,36.5809,151.279,99.3604,85.845,0.00656159,0.295351,20.6076,71.608,1.31485,0.0,0.0
74,18.25,38.4087,36.9988,152.169,99.3501,87.2139,0.00679974,0.301157,20.5983,71.568,1.17164,0.0,0.0
76,18.75,38.6853,36.867,151.425,99.3636,86.6378,0.00699265,0.30586,20.5908,71.5179,1.23247,0.0,0.0
78,19.25,39.2816,37.1662,155.791,99.366,86.5135,0.00724933,0.310824,20.5833,71.4679,1.24559,0.0,0.0
80,19.75,39.0482,37.5938,152.363,99.3664,86.2901,0.00745725,0.315885,20.5759,71.4279,1.26888,0.0,0.0
82,20.25,39.3458,37.7072,148.497,99.3636,85.7871,0.00768113,0.319984,20.5678,71.3978,1.3212,0.0,0.0
84,20.75,39.8068,37.7546,150.563,99.3684,86.8478,0.00786247,0.325196,20.5594,71.3478,1.21113,0.0,0.0
86,21.25,39.7161,38.4848,150.761,99.3704,85.1015,0.00800936,0.329419,20.5526,71.3478,1.39397,0.0,0.0
88,21.75,40.5175,38.9124,154.882,99.3552,84.5124,0.0081826,0.33436,20.5461,71.2978,1.45507,0.0,0.0
90,22.25,40.3858,39.1824,153.268,99.3584,86.636,0.00832293,0.338363,20.54,71.2277,1.23218,0.0,0.0
92,22.75,41.0316,39.3895,152.316,99.368,84.4738,0.00847669,0.341905,20.5346,71.1376,1.46033,0.0,0.0
94,23.25,40.8841,39.7341,152.495,99.3612,85.6372,0.00860123,0.345045,20.5298,71.0676,1.33671,0.0,0.0
96,23.75,41.0728,39.8355,156.048,99.3608,85.1742,0.00875262,0.347588,20.5252,71.0476,1.38543,0.0,0.0
98,24.25,41.9729,40.0138,154.115,99.3616,85.5156,0.00887524,0.350438,20.5208,71.0075,1.34952,0.0,0.0
100,24.75,41.8293,40.3892,153.104,99.3768,85.7032,0.00902642,0.352747,20.5161,70.9675,1.33119,0.0,0.0
102,25.25,42.2345,40.7573,151.91,99.3624,84.9508,0.00914888,0.355293,20.5112,70.9174,1.40919,0.0,0.0
104,25.75,42.4979,40.8989,148.853,99.3584,84.2939,0.00930001,0.357963,20.5063,70.8674,1.47864,0.0,0.0
106,26.25,42.8278,41.1207,152.692,99.3652,83.5635,0.00942242,0.361533,20.5015,70.8474,1.55751,0.0,0.0
108,26.75,43.0578,41.3284,147.101,99.3489,84.3522,0.00957748,0.364426,20.4976,70.7973,1.47155,0.0,0.0
110,27.25,43.4646,41.5895,154.727,99.3604,83.7201,0.00970307,0.368338,20.4918,70.7673,1.54025,0.0,0.0
112,27.75,43.7669,41.7553,150.034,99.3564,81.4121,0.0098048,0.371506,20.4871,70.6873,1.79128,0.0,0.0
114,28.25,43.8454,41.9215,149.019,99.3548,82.0846,0.00997715,0.375754,20.4821,70.6672,1.71715,0.0,0.0
116,28.75,44.0478,42.3832,150.001,99.3469,85.0311,0.0101168,0.379195,20.477,70.5872,1.39929,0.0,0.0
118,29.25,44.8512,42.9682,152.759,99.354,84.3626,0.0102655,0.384019,20.4728,70.5371,1.47092,0.0,0.0
120,29.75,44.3946,42.7278,154.168,99.3504,84.49,0.0104182,0.387927,20.4677,70.4971,1.45702,0.0,0.0
122,30.25,44.5269,43.1869,146.295,99.3528,82.2098,0.0105666,0.391093,20.4619,70.4371,1.70326,0.0,0.0
124,30.75,45.1038,43.0498,151.829,99.3389,84.3312,0.0107092,0.396236,20.4555,70.377,1.4729,0.0,0.0
126,31.25,45.162,43.8288,150.997,99.3433,84.1521,0.0108494,0.400402,20.4489,70.317,1.4924,0.0,0.0
128,31.75,45.4763,44.2923,149.281,99.3397,84.7036,0.0109853,0.405239,20.4412,70.2769,1.43334,0.0,0.0
130,32.25,45.7379,44.47,148.783,99.3544,82.6307,0.0110953,0.410472,20.4328,70.2269,1.65749,0.0,0.0
132,32.75,46.0003,44.3464,150.895,99.3313,81.7118,0.01125,0.414711,20.4216,70.1568,1.75596,0.0,0.0
134,33.25,46.3954,44.8098,144.856,99.3357,80.3272,0.0114112,0.421002,20.4125,70.1268,1.91005,0.0,0.0
136,33.75,46.4537,45.1385,149.013,99.3309,84.9696,0.0115741,0.426099,20.4015,70.0768,1.40435,0.0,0.0
138,34.25,46.7064,45.1032,145.082,99.3381,82.7882,0.0117061,0.433006,20.3927,70.0267,1.63889,0.0,0.0
140,34.75,47.6021,45.5528,147.832,99.3333,79.3285,0.0118711,0.438601,20.3855,69.9467,2.02234,0.0,0.0
142,35.25,47.9064,45.9837,145.788,99.3349,82.2542,0.0120571,0.44645,20.3738,69.8766,1.69678,0.0,0.0
144,35.75,47.8781,46.6653,143.623,99.3221,82.0532,0.0122494,0.452807,20.3644,69.7965,1.71763,0.0,0.0
146,36.25,48.87,46.1812,145.757,99.3182,83.1682,0.0124427,0.461571,20.3514,69.7165,1.5959,0.0,0.0
148,36.75,48.7702,46.7081,148.561,99.3174,83.4015,0.0126333,0.46867,20.3409,69.6764,1.57063,0.0,0.0
150,37.25,48.9046,47.1652,142.815,99.3245,84.3653,0.0128183,0.476435,20.3279,69.5864,1.46796,0.0,0.0
152,37.75,48.999,47.5895,149.147,99.309,83.0861,0.0129682,0.484538,20.3174,69.5163,1.60395,0.0,0.0
154,38.25,49.7088,48.0351,144.751,99.3162,85.6188,0.0131411,0.491101,20.3088,69.4563,1.33456,0.0,0.0
156,38.75,50.0694,48.263,143.379,99.3066,81.2569,0.0132811,0.500525,20.2984,69.3962,1.80393,0.0,0.0
158,39.25,50.395,48.6236,136.74,99.3034,81.0244,0.0133945,0.508159,20.2868,69.2861,1.8294,0.0,0.0
160,39.75,50.9926,49.0561,148.671,99.2982,82.9883,0.0135434,0.516723,20.2757,69.2261,1.61357,0.0,0.0
162,40.25,51.2453,49.2853,134.889,99.309,82.4772,0.0136639,0.523661,20.2653,69.1961,1.67009,0.0,0.0
164,40.75,51.7462,50.0175,143.977,99.293,84.1414,0.0137783,0.53043,20.2569,69.136,1.489,0.0,0.0
166,41.25,51.9437,50.4814,143.37,99.3118,82.8389,0.013886,0.535913,20.2487,69.0659,1.631,0.0,0.0
168,41.75,51.963,50.6963,142.768,99.2962,80.351,0.0139733,0.540354,20.2421,69.0259,1.90381,0.0,0.0
170,42.25,53.2111,51.2529,144.897,99.2974,81.1797,0.0141024,0.545122,20.2355,68.8758,1.81165,0.0,0.0
172,42.75,53.5693,51.2862,143.119,99.2906,81.1887,0.014207,0.548984,20.2292,68.8358,1.81004,0.0,0.0
174,43.25,54.0598,51.5673,143.021,99.3038,81.6324,0.0143217,0.552895,20.224,68.7457,1.76221,0.0,0.0
176,43.75,54.0617,52.1619,140.156,99.287,80.7359,0.0144418,0.556769,20.2163,68.7257,1.86,0.0,0.0
178,44.25,54.3049,52.3129,142.134,99.289,81.1397,0.0145824,0.559906,20.21,68.6556,1.81531,0.0,0.0
180,44.75,54.5024,52.6166,144.049,99.2839,79.4106,0.0147355,0.56445,20.2022,68.5555,2.00856,0.0,0.0
182,45.25,54.7641,53.1905,139.555,99.2847,80.7943,0.0149107,0.568131,20.196,68.4655,1.85329,0.0,0.0
184,45.75,55.3159,53.4702,136.292,99.2795,83.5698,0.0150988,0.572256,20.1868,68.3754,1.54908,0.0,0.0
186,46.25,55.7115,54.3373,131.932,99.2811,83.1583,0.0152997,0.576627,20.1795,68.3554,1.59361,0.0,0.0
188,46.75,56.0377,54.6877,136.296,99.2747,79.853,0.0155062,0.580966,20.1708,68.3053,1.95777,0.0,0.0
190,47.25,56.8927,55.0972,145.242,99.2843,80.7862,0.0157009,0.585199,20.1638,68.2053,1.85415,0.0,0.0
192,47.75,57.1337,55.5543,133.136,99.2631,81.2806,0.0158834,0.589409,20.1569,68.1352,1.79736,0.0,0.0
194,48.25,56.8651,56.0577,137.341,99.2723,80.7772,0.0160312,0.593523,20.1503,68.0952,1.85406,0.0,0.0
196,48.75,57.9032,56.3204,141.03,99.25,84.0839,0.0161509,0.596855,20.1449,68.0051,1.49124,0.0,0.0
198,49.25,57.8419,56.6604,136.702,99.2524,81.6167,0.0162532,0.602246,20.1357,67.945,1.75928,0.0,0.0
200,49.75,58.7099,56.8679,142.825,99.2488,82.3534,0.0163361,0.606613,20.1282,67.875,1.67815,0.0,0.0
202,50.25,58.9746,57.5327,135.686,99.2568,81.8513,0.0163793,0.613148,20.1221,67.7849,1.73386,0.0,0.0
204,50.75,59.1923,57.6898,137.188,99.2532,81.0137,0.0163927,0.618442,20.1118,67.7249,1.82604,0.0,0.0
206,51.25,59.7941,57.9479,136.451,99.246,82.7047,0.0163739,0.62399,20.1035,67.6748,1.63961,0.0,0.0
208,51.75,60.1016,58.5051,140.383,99.2516,78.2907,0.0163321,0.62962,20.094,67.5747,2.13336,0.0,0.0
210,52.25,61.0128,59.0687,138.34,99.2432,81.0491,0.0162856,0.63418,20.0864,67.4246,1.82121,0.0,0.0
212,52.75,60.9709,59.3488,138.965,99.2444,84.2697,0.0162156,0.640061,20.0771,67.3846,1.4709,0.0,0.0
214,53.25,61.3338,59.9064,137.621,99.2432,82.8281,0.016196,0.644826,20.0695,67.3245,1.62596,0.0,0.0
216,53.75,62.0479,60.5871,140.963,99.2336,84.9292,0.0161626,0.648685,20.0596,67.2345,1.39981,0.0,0.0
218,54.25,62.466,60.7982,132.415,99.23,84.4622,0.0161412,0.656027,20.0483,67.1744,1.44908,0.0,0.0
220,54.75,62.3874,61.2368,129.372,99.2472,83.0372,0.0161289,0.661973,20.0332,67.0944,1.60364,0.0,0.0
222,55.25,62.7268,61.4312,134.789,99.2288,83.1332,0.0161189,0.670431,20.021,67.0243,1.59159,0.0,0.0
224,55.75,62.9207,61.8578,141.775,99.2237,85.8643,0.0161165,0.677281,20.0112,66.9242,1.30044,0.0,0.0
226,56.25,64.3184,62.6025,135.256,99.2372,84.7296,0.0161196,0.686854,19.9969,66.8441,1.4213,0.0,0.0
228,56.75,64.4671,63.1479,135.495,99.2157,86.6261,0.0161242,0.694608,19.9854,66.7541,1.22028,0.0,0.0
230,57.25,64.6889,63.0962,131.851,99.2217,85.526,0.0161299,0.705957,19.968,66.684,1.33576,0.0,0.0
232,57.75,65.6172,63.7519,126.632,99.2185,84.4164,0.0161344,0.71515,19.9539,66.644,1.4529,0.0,0.0
234,58.25,65.9414,64.3707,134.616,99.2145,84.9153,0.0161502,0.725804,19.9382,66.5139,1.39955,0.0,0.0
236,58.75,66.53,64.8372,127.441,99.2065,84.2499,0.0161629,0.737321,19.9217,66.4338,1.46957,0.0,0.0
238,59.25,66.7018,65.1113,125.928,99.2149,83.7421,0.0161853,0.74665,19.9015,66.3638,1.5247,0.0,0.0
240,59.75,67.3225,66.1253,124.226,99.2141,85.6314,0.0162142,0.761742,19.8791,66.2537,1.32399,0.0,0.0
242,60.25,67.953,66.2012,128.618,99.2101,82.895,0.016251,0.773966,19.8608,66.2236,1.6157,0.0,0.0
244,60.75,68.0955,67.1719,123.821,99.2029,81.2376,0.0162808,0.789848,19.8377,66.1236,1.79667,0.0,0.0
246,61.25,68.9359,67.818,126.45,99.2085,85.3299,0.0163008,0.802712,19.819,66.0135,1.35521,0.0,0.0
248,61.75,69.4702,68.1698,133.061,99.2113,86.8469,0.0163131,0.816473,19.8039,65.9534,1.19699,0.0,0.0
250,62.25,70.3967,69.1573,125.837,99.191,84.4729,0.0163231,0.830625,19.7813,65.8433,1.44439,0.0,0.0
252,62.75,70.8876,69.4173,128.622,99.1918,84.9414,0.0163312,0.844787,19.7631,65.7433,1.39473,0.0,0.0
254,63.25,71.7983,70.0649,122.881,99.1942,84.2459,0.0163018,0.858686,19.7483,65.6532,1.46888,0.0,0.0
256,63.75,72.6198,71.0535,123.484,99.193,85.5807,0.0162458,0.871736,19.7305,65.6031,1.3274,0.0,0.0
258,64.25,73.2448,71.436,120.854,99.1894,83.9511,0.0161863,0.883918,19.7161,65.483,1.49997,0.0,0.0
260,64.75,73.754,72.5034,129.185,99.1914,83.8506,0.0161254,0.893786,19.6999,65.413,1.51092,0.0,0.0
262,65.25,74.3003,73.2427,123.997,99.2013,85.7552,0.0160761,0.901779,19.6868,65.2729,1.30984,0.0,0.0
264,65.75,75.5824,73.5768,124.146,99.2121,85.714,0.0160215,0.913114,19.6713,65.1928,1.31515,0.0,0.0
266,66.25,76.1294,74.2948,126.742,99.187,86.0518,0.0159773,0.922295,19.6588,65.0727,1.27749,0.0,0.0
268,66.75,76.8175,74.9319,130.34,99.187,83.6191,0.0159414,0.932959,19.6347,64.9726,1.53539,0.0,0.0
270,67.25,77.1675,76.0641,111.445,99.1802,83.6272,0.0159187,0.944499,19.6153,64.9026,1.5339,0.0,0.0
272,67.75,77.9173,76.3777,122.729,99.2061,83.0838,0.015906,0.953847,19.5901,64.7925,1.59487,0.0,0.0
274,68.25,78.4372,76.4733,118.571,99.185,83.0762,0.0158958,0.967899,19.5697,64.7124,1.59378,0.0,0.0
276,68.75,78.9336,77.8072,124.847,99.1846,84.7085,0.0159115,0.979281,19.5532,64.6123,1.41877,0.0,0.0
278,69.25,79.8251,78.8532,117.604,99.1778,83.8533,0.0159242,0.993946,19.5313,64.4922,1.5094,0.0,0.0
280,69.75,80.208,79.5518,114.982,99.181,85.1765,0.0159345,1.00582,19.5136,64.4422,1.3689,0.0,0.0
282,70.25,81.3879,80.0714,120.247,99.1774,85.3909,0.0159616,1.01966,19.4962,64.3021,1.34596,0.0,0.0
284,70.75,81.9079,80.7559,118.467,99.175,85.049,0.0159835,1.03086,19.4793,64.212,1.38182,0.0,0.0
286,71.25,82.6645,81.6008,112.616,99.1794,84.7825,0.0159872,1.04282,19.4657,64.0519,1.41044,0.0,0.0
288,71.75,83.5471,82.2326,118.204,99.1826,86.3906,0.0159775,1.05251,19.451,63.9718,1.24177,0.0,0.0
290,72.25,84.1626,83.3206,123.376,99.1878,85.2945,0.0159557,1.06035,19.4392,63.8417,1.35706,0.0,0.0
292,72.75,85.0352,84.1024,122.911,99.1806,85.9248,0.0159253,1.06925,19.426,63.7617,1.29019,0.0,0.0
294,73.25,85.6738,84.9522,121.973,99.1686,86.9361,0.0158929,1.07646,19.4153,63.6716,1.18389,0.0,0.0
296,73.75,86.391,85.6225,115.694,99.1734,87.9573,0.0158598,1.0835,19.4022,63.5815,1.0793,0.0,0.0
298,74.25,87.4145,86.6402,111.102,99.1706,86.4426,0.0158236,1.09029,19.3916,63.5114,1.23526,0.0,0.0
300,74.75,87.9594,87.392,115.141,99.1738,87.204,0.0157942,1.09765,19.3767,63.3513,1.15669,0.0,0.0
302,75.25,88.856,87.7914,119.478,99.167,87.4099,0.0157663,1.10527,19.3646,63.2913,1.13486,0.0,0.0
304,75.75,89.7822,88.7909,119.982,99.1786,87.1457,0.0157398,1.11261,19.3522,63.2112,1.16314,0.0,0.0
306,76.25,89.8045,89.5787,118.781,99.1762,85.2801,0.0157184,1.11961,19.3421,63.0811,1.35753,0.0,0.0
308,76.75,90.8887,90.6203,110.488,99.1806,86.0572,0.0156891,1.12576,19.3333,62.981,1.27635,0.0,0.0
310,77.25,91.3557,90.9377,120.676,99.1674,87.1928,0.0156653,1.13116,19.3254,62.8709,1.15727,0.0,0.0
312,77.75,92.4942,91.9985,116.235,99.1834,86.929,0.0156434,1.13596,19.3186,62.8009,1.18597,0.0,0.0
314,78.25,92.9225,92.5999,110.793,99.1742,85.915,0.0156256,1.14023,19.3127,62.7008,1.29065,0.0,0.0
316,78.75,93.7016,93.461,113.743,99.187,87.2444,0.0156072,1.14368,19.306,62.5907,1.15372,0.0,0.0
318,79.25,93.9799,94.5564,113.97,99.1985,87.7137,0.0155923,1.1484,19.2989,62.4406,1.10652,0.0,0.0
320,79.75,95.1794,94.817,119.934,99.1942,86.1765,0.015569,1.15222,19.2931,62.3605,1.26512,0.0,0.0
322,80.25,95.8739,95.9076,114.689,99.1818,87.2408,0.0155399,1.15662,19.2844,62.2504,1.15362,0.0,0.0
324,80.75,96.4242,96.3038,117.45,99.1965,85.7032,0.0154967,1.16134,19.2774,62.1403,1.31487,0.0,0.0
326,81.25,97.02,97.1301,117.385,99.1914,87.5275,0.0154441,1.16593,19.2689,62.0403,1.12498,0.0,0.0
328,81.75,97.4416,98.3986,117.611,99.1914,86.3937,0.0154015,1.17031,19.2619,61.9502,1.24223,0.0,0.0
330,82.25,98.461,99.0233,120.688,99.1826,85.5699,0.0153084,1.17466,19.2551,61.8401,1.3276,0.0,0.0
332,82.75,98.6914,99.7867,110.682,99.1973,85.6076,0.015233,1.17889,19.2486,61.69,1.32497,0.0,0.0
334,83.25,99.988,100.173,112.771,99.1886,86.3349,0.0151355,1.18232,19.2433,61.6199,1.2481,0.0,0.0
336,83.75,100.182,100.765,114.9,99.1973,86.6284,0.0150239,1.18561,19.239,61.5298,1.21838,0.0,0.0
338,84.25,101.057,102.062,117.133,99.1969,86.8886,0.0149188,1.18828,19.2355,61.3997,1.19137,0.0,0.0
340,84.75,101.311,102.486,115.531,99.2001,87.7366,0.0148204,1.19017,19.2327,61.2997,1.10432,0.0,0.0
342,85.25,102.218,103.093,114.725,99.1993,85.7674,0.0147408,1.1917,19.2299,61.2096,1.30839,0.0,0.0
344,85.75,102.387,104.286,115.518,99.2097,87.7998,0.0146637,1.1936,19.2277,61.1195,1.09871,0.0,0.0
346,86.25,103.215,104.633,115.965,99.2085,87.2273,0.0145899,1.19572,19.2245,60.9994,1.15743,0.0,0.0
348,86.75,103.713,104.785,106.852,99.2125,87.0591,0.0145197,1.19745,19.222,60.8693,1.17515,0.0,0.0
350,87.25,104.537,105.909,111.24,99.2133,86.9088,0.0144534,1.20108,19.2181,60.7792,1.19077,0.0,0.0
352,87.75,104.7,106.437,106.906,99.2141,86.4758,0.0143788,1.20402,19.2149,60.6792,1.23575,0.0,0.0
354,88.25,105.069,107.085,112.945,99.2173,86.457,0.0142996,1.2064,19.2124,60.529,1.238,0.0,0.0
356,88.75,105.852,107.818,118.252,99.2225,86.3093,0.0142006,1.20827,19.2103,60.4189,1.25384,0.0,0.0
358,89.25,106.285,108.581,121.953,99.2169,86.592,0.0140891,1.20979,19.2086,60.3589,1.22393,0.0,0.0
360,89.75,107.474,109.107,118.647,99.2113,86.0729,0.0139987,1.20952,19.2073,60.2588,1.2775,0.0,0.0
362,90.25,107.601,109.922,120.437,99.2276,86.1137,0.0139255,1.2093,19.2062,60.1788,1.27471,0.0,0.0
364,90.75,108.13,110.535,119.516,99.2217,87.1511,0.0137383,1.20749,19.2071,60.0887,1.16649,0.0,0.0
366,91.25,108.591,111.457,122.378,99.238,88.5428,0.0135867,1.20603,19.2078,59.9886,1.02549,0.0,0.0
368,91.75,109.092,111.792,101.923,99.2524,87.4023,0.0133836,1.20287,19.2099,59.8585,1.14338,0.0,0.0
370,92.25,109.501,112.239,115.151,99.2484,89.2414,0.0132191,1.20031,19.2129,59.7984,0.955759,0.0,0.0
372,92.75,109.867,112.856,113.913,99.2452,88.8636,0.0130429,1.19565,19.2187,59.6984,0.993619,0.0,0.0
374,93.25,110.451,113.72,120.958,99.2456,89.3469,0.0128617,1.18956,19.2263,59.5883,0.944887,0.0,0.0
376,93.75,110.937,113.648,116.59,99.2552,88.7147,0.0126865,1.18462,19.2325,59.4682,1.00961,0.0,0.0
378,94.25,110.749,114.467,124.713,99.2512,89.7951,0.0125192,1.1711,19.2536,59.3581,0.900392,0.0,0.0
380,94.75,111.46,114.808,122.794,99.2583,88.9565,0.0123623,1.16015,19.2775,59.298,0.985418,0.0,0.0
382,95.25,111.987,115.411,117.227,99.2647,91.7177,0.012216,1.14648,19.3031,59.228,0.711112,0.0,0.0
384,95.75,112.642,115.71,116.113,99.2659,90.7117,0.0120647,1.13108,19.3294,59.1379,0.810394,0.0,0.0
386,96.25,112.686,116.723,120.271,99.2687,88.118,0.0119422,1.11475,19.3558,59.0378,1.07153,0.0,0.0
388,96.75,112.85,116.861,121.76,99.2751,90.3236,0.011843,1.09806,19.3772,58.9377,0.849783,0.0,0.0
390,97.25,112.839,117.092,114.747,99.2803,89.293,0.0117273,1.0802,19.4009,58.8677,0.953451,0.0,0.0
392,97.75,113.106,117.913,124.232,99.2855,89.7031,0.0116336,1.06182,19.4258,58.8176,0.912714,0.0,0.0
394,98.25,113.112,118.19,126.628,99.2827,90.5336,0.0115529,1.04303,19.446,58.7176,0.829587,0.0,0.0
396,98.75,113.696,118.203,129.903,99.2922,90.5565,0.0114832,1.0243,19.473,58.6075,0.828181,0.0,0.0
398,99.25,113.853,118.709,117.966,99.2859,88.8874,0.0114301,1.00354,19.495,58.5875,0.994898,0.0,0.0
400,99.75,113.49,118.594,120.155,99.3018,89.8198,0.0113903,0.981707,19.5261,58.5274,0.902508,0.0,0.0
402,100.25,113.606,118.95,122.365,99.297,91.2587,0.0113642,0.964022,19.5514,58.4373,0.759153,0.0,0.0
404,100.75,113.702,119.639,130.309,99.3106,88.3468,0.0113486,0.943742,19.582,58.3773,1.052,0.0,0.0
406,101.25,113.735,119.408,129.361,99.2982,88.1027,0.0113479,0.921955,19.6303,58.3172,1.07576,0.0,0.0
408,101.75,113.627,119.773,129.796,99.3054,87.8492,0.0113585,0.899373,19.6499,58.2672,1.10232,0.0,0.0
410,102.25,113.564,119.394,131.369,99.3074,88.6321,0.0113767,0.876641,19.6834,58.1971,1.02271,0.0,0.0
412,102.75,112.911,119.463,129.112,99.3134,87.4333,0.0114426,0.854036,19.7174,58.1071,1.14572,0.0,0.0
414,103.25,113.42,119.51,139.642,99.3054,88.5805,0.0114959,0.831954,19.751,58.1071,1.02777,0.0,0.0
416,103.75,113.12,119.522,132.355,99.3186,87.1277,0.011539,0.814067,19.7783,58.007,1.17767,0.0,0.0
418,104.25,112.519,119.438,130.752,99.3189,86.6966,0.0116238,0.781153,19.8063,57.9469,1.22232,0.0,0.0
420,104.75,112.04,119.918,131.904,99.3098,80.8023,0.0116925,0.772299,19.8342,57.8669,1.85466,0.0,0.0
422,105.25,112.125,119.501,140.372,99.3289,82.6585,0.0117508,0.75059,19.8616,57.8469,1.65215,0.0,0.0
424,105.75,112.025,119.645,134.489,99.3397,83.9668,0.011798,0.733007,19.888,57.7968,1.5119,0.0,0.0
426,106.25,111.584,119.327,138.498,99.3229,83.3432,0.011806,0.713838,19.9155,57.7668,1.57743,0.0,0.0
428,106.75,111.131,118.838,139.267,99.3289,80.1437,0.0118126,0.693878,19.9432,57.7168,1.93,0.0,0.0
430,107.25,110.979,118.696,134.012,99.3321,83.6052,0.0117615,0.67771,19.9657,57.6767,1.55003,0.0,0.0
432,107.75,110.564,118.409,144.88,99.3201,82.3709,0.0117202,0.654137,19.9932,57.5766,1.6827,0.0,0.0
434,108.25,109.933,118.17,132.887,99.3457,82.2197,0.0116867,0.635042,20.0236,57.5666,1.70154,0.0,0.0
436,108.75,109.747,118.138,146.443,99.3325,84.9144,0.011586,0.611778,20.0483,57.5366,1.41033,0.0,0.0
438,109.25,109.604,117.946,140.666,99.3441,81.7468,0.0114382,0.592934,20.0805,57.4966,1.75326,0.0,0.0
440,109.75,108.1,117.561,141.37,99.3353,80.7467,0.0112506,0.573464,20.1066,57.4365,1.86317,0.0,0.0
442,110.25,108.452,117.217,151.863,99.3508,85.3375,0.0110375,0.553908,20.1394,57.4265,1.3673,0.0,0.0
444,110.75,107.925,117.15,146.098,99.3437,83.2602,0.010865,0.538067,20.166,57.4265,1.58827,0.0,0.0
446,111.25,107.024,116.526,146.432,99.3449,83.2642,0.0106038,0.519154,20.1875,57.3665,1.58794,0.0,0.0
448,111.75,106.799,116.274,148.499,99.362,84.4788,0.0102828,0.498362,20.2187,57.3264,1.45926,0.0,0.0
450,112.25,106.053,115.519,148.802,99.3568,83.7308,0.00993531,0.477858,20.2441,57.3164,1.53877,0.0,0.0
452,112.75,105.878,115.024,144.562,99.3489,85.1455,0.00957499,0.457955,20.2721,57.2664,1.38738,0.0,0.0
454,113.25,104.777,114.429,147.635,99.3672,85.3514,0.00928312,0.441833,20.3017,57.2464,1.36731,0.0,0.0
456,113.75,104.533,114.375,151.271,99.3496,88.9242,0.00894196,0.421903,20.3303,57.2464,0.996952,0.0,0.0
458,114.25,103.503,113.871,152.54,99.3624,88.0363,0.00857135,0.405759,20.3577,57.2163,1.08835,0.0,0.0
460,114.75,102.802,113.601,147.257,99.3656,89.477,0.00814328,0.392683,20.3884,57.1963,0.942669,0.0,0.0
462,115.25,101.952,112.923,152.383,99.368,94.5295,0.00779655,0.373785,20.4208,57.1763,0.448906,0.0,0.0
464,115.75,101.536,112.418,155.151,99.3548,93.3024,0.0074239,0.358479,20.453,57.1663,0.565219,0.0,0.0
466,116.25,100.981,111.646,151.898,99.3656,92.0555,0.00712205,0.342582,20.4844,57.1563,0.687181,0.0,0.0
468,116.75,100.029,111.689,157.989,99.3588,92.8806,0.00683682,0.326558,20.514,57.1263,0.606321,0.0,0.0
470,117.25,99.8785,110.552,155.047,99.364,94.464,0.00660579,0.310864,20.5419,57.1463,0.45478,0.0,0.0
472,117.75,98.7874,110.161,154.217,99.3624,96.7365,0.00641865,0.295708,20.5644,57.1263,0.240855,0.0,0.0
474,118.25,98.419,109.71,154.948,99.3724,96.7226,0.0063078,0.280683,20.5871,57.1363,0.243051,0.0,0.0
476,118.75,97.9453,109.142,155.624,99.364,97.5481,0.00621801,0.266038,20.6096,57.1263,0.165862,0.0,0.0
478,119.25,96.9171,108.721,153.734,99.3744,99.0359,0.00623964,0.251723,20.6315,57.1263,0.0306773,0.0,0.0
480,119.75,96.219,108.008,158.292,99.3676,99.9225,0.00625715,0.23792,20.6527,57.1263,-0.0500828,0.0,0.0
482,120.25,95.7398,107.282,160.961,99.3712,99.2818,0.00641074,0.22674,20.6734,57.1363,0.00809017,0.0,0.0
484,120.75,95.1352,106.901,158.9,99.358,100.893,0.00653515,0.212337,20.6933,57.1363,-0.137868,0.0,0.0
486,121.25,94.6762,106.22,160.033,99.376,101.27,0.00679126,0.200671,20.7094,57.1163,-0.169814,0.0,0.0
488,121.75,93.5432,105.762,162.669,99.3664,101.785,0.0069987,0.186566,20.7314,57.1063,-0.216303,0.0,0.0
490,122.25,92.8254,104.836,160.952,99.3648,101.819,0.00726582,0.175141,20.7516,57.0963,-0.21938,0.0,0.0
492,122.75,92.058,104.271,162.304,99.3608,101.485,0.00757135,0.164247,20.7701,57.1263,-0.190209,0.0,0.0
494,123.25,91.172,104.001,162.358,99.3644,102.209,0.0078938,0.153948,20.7851,57.1463,-0.253827,0.0,0.0
496,123.75,91.0908,102.998,156.475,99.3544,101.523,0.00822245,0.143619,20.7999,57.1563,-0.194206,0.0,0.0
498,124.25,90.1039,102.431,160.615,99.3612,101.875,0.00848866,0.135252,20.8119,57.1263,-0.224697,0.0,0.0
500,124.75,89.3568,102.344,162.358,99.3504,101.918,0.00875829,0.127721,20.8216,57.1263,-0.229472,0.0,0.0
502,125.25,88.5469,101.347,164.224,99.3672,101.748,0.0090253,0.120942,20.8312,57.0963,-0.2129,0.0,0.0
504,125.75,87.3403,100.018,163.397,99.3508,101.444,0.00926007,0.115082,20.839,57.0862,-0.187454,0.0,0.0
506,126.25,85.5175,98.5752,159.591,99.3588,101.936,0.00946687,0.110004,20.8472,57.0963,-0.230259,0.0,0.0
508,126.75,84.6008,98.1905,162.85,99.3373,101.575,0.0096426,0.105891,20.8538,57.0862,-0.200327,0.0,0.0
510,127.25,84.5509,97.5061,161.458,99.3504,101.377,0.00979234,0.102251,20.8604,57.0862,-0.1816,0.0,0.0
512,127.75,83.0198,97.0158,162.474,99.3409,102.036,0.00991295,0.0990253,20.8658,57.0862,-0.240704,0.0,0.0
514,128.25,83.047,96.3751,161.631,99.3373,101.938,0.01001,0.0964126,20.8711,57.0662,-0.232445,0.0,0.0
516,128.75,82.4773,95.5967,163.841,99.3305,101.357,0.0100784,0.0939541,20.8754,57.0762,-0.181614,0.0,0.0
518,129.25,81.7033,95.0528,162.531,99.3305,101.967,0.0101245,0.0918576,20.8797,57.0862,-0.235592,0.0,0.0
520,129.75,81.2026,94.6268,161.371,99.3225,101.542,0.010144,0.090065,20.8833,57.0862,-0.198762,0.0,0.0
522,130.25,80.5285,93.96875,163.848,99.3261,101.861,0.0101439,0.0884856,20.8861,57.0662,-0.226605,0.0,0.0
524,130.75,79.9701,93.3885,162.687,99.3134,101.503,0.0101437,0.0870916,20.8889,57.0562,-0.196095,0.0,0.0
526,131.25,79.3098,93.0512,159.0625,99.3062,102.164,0.0101436,0.0858575,20.8911,57.0562,-0.255148,0.0,0.0
528,131.75,78.9283,92.0363,164.232,99.3026,101.453,0.0100949,0.0847634,20.8929,57.0562,-0.192696,0.0,0.0
530,132.25,78.3765,91.7049,159.133,99.3118,101.94,0.0100119,0.0837799,20.8943,57.0562,-0.234913,0.0,0.0
532,132.75,77.6441,91.0934,162.423,99.2914,101.396,0.00991182,0.0828956,20.8955,57.0262,-0.188655,0.0,0.0
534,133.25,77.5595,90.343,163.232,99.2978,101.939,0.00980131,0.0821793,20.8968,56.9962,-0.236098,0.0,0.0
536,133.75,76.5911,89.8466,164.759,99.2823,101.466,0.00971179,0.0815992,20.8979,57.0462,-0.195652,0.0,0.0
538,134.25,75.9788,89.4919,165.698,99.2739,101.532,0.00956294,0.080859,20.8988,57.0562,-0.202293,0.0,0.0
540,134.75,75.9802,88.9229,164.365,99.2683,101.551,0.00944236,0.0802594,20.8996,57.0662,-0.204468,0.0,0.0
542,135.25,75.4091,88.388,164.839,99.2767,101.542,0.00927881,0.0796466,20.9006,57.0462,-0.202915,0.0,0.0
544,135.75,75.233,87.7094,163.625,99.2591,101.815,0.00914634,0.0790357,20.9019,57.0162,-0.228631,0.0,0.0
546,136.25,74.4458,87.1819,162.102,99.248,101.015,0.00897069,0.0785409,20.9032,56.9962,-0.158705,0.0,0.0
548,136.75,73.7977,86.8446,164.464,99.2328,101.795,0.00882842,0.0778702,20.9044,57.0162,-0.229232,0.0,0.0
550,137.25,73.3748,86.2277,162.294,99.2284,101.728,0.00867794,0.0773269,20.9057,57.0162,-0.223722,0.0,0.0
552,137.75,72.8494,86.0835,166.57,99.2181,101.433,0.00852434,0.0767524,20.9069,56.9962,-0.198525,0.0,0.0
554,138.25,72.6987,85.5462,160.641,99.2069,102.25,0.00839993,0.0761659,20.9079,56.9762,-0.271683,0.0,0.0
556,138.75,71.818,85.2357,162.967,99.2021,101.312,0.00829348,0.0755639,20.9083,57.0362,-0.189264,0.0,0.0
558,139.25,71.4782,84.3911,159.859,99.1985,101.515,0.00811145,0.074962,20.9095,57.0462,-0.207611,0.0,0.0
560,139.75,71.6759,84.4651,163.92,99.1842,101.737,0.00791882,0.0743475,20.9104,57.0462,-0.228527,0.0,0.0
562,140.25,70.5442,83.6023,161.774,99.1674,101.746,0.00772211,0.0737356,20.9116,57.0462,-0.230878,0.0,0.0
564,140.75,70.1782,83.2141,162.274,99.1682,101.148,0.00751702,0.0731056,20.9126,57.0262,-0.177748,0.0,0.0
566,141.25,70.4018,82.7858,163.252,99.1638,101.012,0.00730971,0.0724745,20.9139,57.0262,-0.166051,0.0,0.0
568,141.75,69.7428,82.1016,163.186,99.1463,101.662,0.00710015,0.0722054,20.9149,57.0062,-0.225376,0.0,0.0
570,142.25,68.7756,82.1019,164.129,99.1435,101.33,0.00689294,0.0715664,20.9161,56.9962,-0.196171,0.0,0.0
572,142.75,68.8387,80.8927,163.81,99.1268,101.387,0.00667887,0.0708877,20.9172,57.0062,-0.202786,0.0,0.0
574,143.25,68.2462,81.0919,164.806,99.1152,101.853,0.00646385,0.0701963,20.9189,56.9962,-0.245009,0.0,0.0
576,143.75,68.1806,80.1466,162.445,99.1108,101.943,0.00628969,0.0695089,20.9203,56.9862,-0.253405,0.0,0.0
578,144.25,67.5414,80.477,163.871,99.1116,100.862,0.0060724,0.068833,20.9214,57.0062,-0.157478,0.0,0.0
580,144.75,67.1187,79.6601,161.304,99.1012,101.173,0.00589639,0.0681782,20.9223,57.0462,-0.186098,0.0,0.0
582,145.25,67.0211,79.3973,161.24,99.0869,101.032,0.00575382,0.0675213,20.9231,57.0262,-0.17483,0.0,0.0
584,145.75,66.127,78.9655,163.818,99.0833,100.329,0.00558364,0.0668753,20.9237,57.0362,-0.112356,0.0,0.0
586,146.25,66.3306,78.1727,161.364,99.0614,101.374,0.00539656,0.066352,20.9246,57.0262,-0.207486,0.0,0.0
588,146.75,65.0851,78.1813,162.905,99.0546,101.214,0.00521375,0.0656313,20.9254,56.9962,-0.193921,0.0,0.0
590,147.25,65.4212,77.306,161.31,99.0395,101.174,0.00503751,0.0650476,20.9269,57.0162,-0.191788,0.0,0.0
592,147.75,65.0542,77.185,160.666,99.0478,101.338,0.00486817,0.0645747,20.9281,57.0162,-0.205572,0.0,0.0
594,148.25,64.4682,76.8327,165.016,99.0283,101.199,0.00470708,0.0638809,20.9291,56.9962,-0.195034,0.0,0.0
596,148.75,64.4791,76.3795,161.879,99.0167,101.214,0.00454938,0.0633189,20.9299,57.0162,-0.1974,0.0,0.0
598,149.25,64.0767,76.0543,163.058,99.004,101.573,0.00439714,0.0627225,20.931,56.9962,-0.230394,0.0,0.0
600,149.75,63.9242,75.901,166.718,99.0088,100.668,0.00423937,0.0621124,20.9319,56.9762,-0.149478,0.0,0.0
602,150.25,63.6908,75.2472,162.797,98.9769,101.243,0.00408056,0.061529,20.933,56.9661,-0.203613,0.0,0.0
604,150.75,63.0151,74.5342,164.037,98.988,101.372,0.00391554,0.0609763,20.934,56.9461,-0.21399,0.0,0.0
606,151.25,62.6403,74.5541,167.589,98.9561,100.531,0.00374912,0.0604321,20.9347,56.9461,-0.141986,0.0,0.0
608,151.75,62.4498,74.1209,165.492,98.9537,100.608,0.00361433,0.0599044,20.9354,56.9561,-0.149105,0.0,0.0
610,152.25,62.5356,74.2842,166.316,98.9402,100.919,0.00341358,0.0594027,20.9359,56.9661,-0.178047,0.0,0.0
612,152.75,61.5867,73.4733,160.562,98.9394,100.736,0.00325097,0.0589295,20.9363,56.9661,-0.161831,0.0,0.0
614,153.25,61.1797,73.1378,160.413,98.9079,101,0.00309025,0.0584795,20.9366,56.9561,-0.188256,0.0,0.0
616,153.75,60.9405,72.9355,161.422,98.9222,100.694,0.00293395,0.0580548,20.9369,56.9361,-0.159625,0.0,0.0
618,154.25,61.3187,72.6572,164.776,98.8987,101.063,0.00280735,0.0577109,20.938,56.9962,-0.194641,0.0,0.0
620,154.75,60.898,71.8019,165.853,98.8891,100.846,0.0027048,0.057249,20.9389,56.9762,-0.176247,0.0,0.0
622,155.25,60.0523,71.9019,162.178,98.8776,100.557,0.00256923,0.0568749,20.9395,56.9862,-0.151495,0.0,0.0
624,155.75,60.5719,71.6049,163.41,98.8712,101.087,0.00245943,0.0564904,20.9398,56.9962,-0.199338,0.0,0.0
626,156.25,59.7485,70.956,161.185,98.8409,100.985,0.00234177,0.0561054,20.9404,56.9661,-0.19295,0.0,0.0
628,156.75,59.1079,70.9007,161.326,98.8305,100.605,0.00224646,0.0557936,20.941,56.9862,-0.159987,0.0,0.0
630,157.25,59.5823,70.4754,161.611,98.8325,100.513,0.00214057,0.0555411,20.9415,57.0162,-0.15162,0.0,0.0
632,157.75,59.1549,69.8747,166.386,98.7938,101.587,0.00205479,0.0551242,20.9419,57.0262,-0.250732,0.0,0.0
634,158.25,59.1918,69.5988,166.742,98.7667,100.38,0.00195913,0.0547865,20.9423,56.9962,-0.145718,0.0,0.0
636,158.75,58.1637,69.7542,166.433,98.7771,100.649,0.00188165,0.0544536,20.9426,56.9561,-0.16886,0.0,0.0
638,159.25,58.2407,69.1342,167.138,98.7627,100.787,0.00181889,0.0541307,20.9428,56.9661,-0.182465,0.0,0.0
640,159.75,58.0399,68.7198,162.754,98.738,100.65,0.00172694,0.0537565,20.9432,57.0262,-0.172498,0.0,0.0
642,160.25,57.893,68.1335,164.14,98.7249,100.838,0.00165247,0.0534534,20.9438,57.0162,-0.190478,0.0,0.0
644,160.75,57.1866,68.5796,164.92,98.7189,100.829,0.00157099,0.0530953,20.9444,56.9962,-0.190222,0.0,0.0
646,161.25,57.4672,67.84,162.761,98.6958,101.268,0.00150499,0.0528052,20.9452,56.9862,-0.23134,0.0,0.0
648,161.75,56.6582,67.752,164.055,98.6902,100.811,0.00144171,0.0524888,20.9458,56.9862,-0.191237,0.0,0.0
650,162.25,56.7436,66.6913,164.266,98.6674,101.309,0.00138162,0.0521592,20.9463,56.9862,-0.237585,0.0,0.0
652,162.75,56.4195,67.1285,161.956,98.6543,100.107,0.00132967,0.0518922,20.9467,56.9962,-0.13145,0.0,0.0
654,163.25,56.6448,66.8508,161.469,98.6403,100.788,0.00128464,0.0516056,20.9471,56.9862,-0.193698,0.0,0.0
656,163.75,55.5776,66.3841,160.223,98.6356,100.684,0.00124752,0.0513734,20.9473,56.9962,-0.184881,0.0,0.0
658,164.25,55.8198,65.9121,160.605,98.6164,100.887,0.00121686,0.051141,20.9475,57.0062,-0.204722,0.0,0.0
660,164.75,55.7307,65.6877,161.906,98.6168,100.182,0.00119203,0.0509127,20.9477,56.9962,-0.141636,0.0,0.0
662,165.25,55.4564,65.6539,164.673,98.606,100.378,0.00117564,0.0506908,20.9481,56.9962,-0.16016,0.0,0.0
664,165.75,55.0146,65.4046,164.637,98.6136,100.66,0.00116237,0.0504778,20.9486,57.0062,-0.184678,0.0,0.0
666,166.25,55.0767,64.8453,163.144,98.5889,100.029,0.00115162,0.0502978,20.949,56.9962,-0.130396,0.0,0.0
668,166.75,55.0854,64.6633,160.862,98.5881,100.623,0.00114913,0.0501454,20.9494,57.0162,-0.183716,0.0,0.0
670,167.25,54.5995,64.4405,162.479,98.561,101.264,0.00114711,0.0500219,20.9496,57.0162,-0.243269,0.0,0.0
672,167.75,54.1577,64.3664,164.323,98.559,100.585,0.00115667,0.0499078,20.9499,57.0462,-0.182963,0.0,0.0
674,168.25,54.0542,64.0663,162.319,98.5439,100.221,0.00116442,0.0498154,20.95,57.0162,-0.151754,0.0,0.0
676,168.75,53.9252,63.7416,165.888,98.549,100.142,0.00118687,0.0497406,20.9502,57.0062,-0.144193,0.0,0.0
678,169.25,53.8028,63.1263,164.412,98.5191,99.9755,0.00120505,0.0496378,20.9503,57.0262,-0.131962,0.0,0.0
680,169.75,53.8069,62.8968,164.682,98.5139,100.953,0.00122725,0.0495545,20.9504,57.0062,-0.219948,0.0,0.0
682,170.25,53.0159,62.8198,167.835,98.5139,100.064,0.00123671,0.0494308,20.9504,56.9962,-0.140382,0.0,0.0
684,170.75,53.3609,62.7333,162.877,98.4868,100.255,0.00125093,0.0493306,20.9505,56.9862,-0.160058,0.0,0.0
686,171.25,52.8848,62.3389,161.668,98.4769,101.48,0.00126067,0.0492494,20.951,57.0062,-0.270173,0.0,0.0
688,171.75,52.8225,62.2359,167.376,98.4677,100.481,0.00126464,0.0491837,20.9514,56.9962,-0.181987,0.0,0.0
690,172.25,52.8615,62.052,161.972,98.4478,100.332,0.00126431,0.0491164,20.9517,56.9962,-0.170506,0.0,0.0
692,172.75,52.3848,61.4847,161.425,98.4518,100.723,0.00126405,0.0490619,20.952,57.0062,-0.205061,0.0,0.0
694,173.25,52.363,61.0901,164.556,98.4294,99.6843,0.00125466,0.0490461,20.9522,57.0062,-0.113923,0.0,0.0
696,173.75,52.2578,60.9575,164.966,98.4175,100.08,0.00123881,0.049019,20.9524,57.0162,-0.150606,0.0,0.0
698,174.25,52.0781,60.6296,157.093,98.3947,101.355,0.00122011,0.0490044,20.9525,57.0262,-0.266538,0.0,0.0
700,174.75,51.7097,60.5981,163.209,98.3764,100.133,0.00119967,0.0489993,20.9527,57.0162,-0.159196,0.0,0.0
702,175.25,51.7419,60.6151,162.858,98.3668,99.6515,0.00117853,0.0489952,20.9528,57.0362,-0.116689,0.0,0.0
704,175.75,51.6622,60.4356,162.383,98.3553,100.57,0.00115729,0.0489637,20.9529,57.0362,-0.200288,0.0,0.0
706,176.25,51.7446,60.0587,165.705,98.3413,100.888,0.00114009,0.0489382,20.9531,57.0462,-0.229924,0.0,0.0
708,176.75,50.7621,59.7465,168.576,98.3365,100.687,0.00109757,0.0488805,20.9533,57.0262,-0.212387,0.0,0.0
710,177.25,51.2445,59.5808,162.867,98.315,100.796,0.00106313,0.0488005,20.9534,57.0162,-0.224129,0.0,0.0
712,177.75,50.7763,59.3234,162.648,98.3006,100.355,0.00103523,0.0487358,20.9535,57.0162,-0.185966,0.0,0.0
714,178.25,50.4477,58.7247,163.033,98.2951,100.026,0.000965456,0.0486703,20.9535,57.0062,-0.156998,0.0,0.0
716,178.75,50.3769,58.7133,165.137,98.2759,101.159,0.00090894,0.0486172,20.9533,57.0262,-0.25999,0.0,0.0
718,179.25,50.8036,58.5664,163.312,98.2675,100.663,0.000852718,0.0485602,20.9531,57.0362,-0.216573,0.0,0.0
720,179.75,50.1512,58.4331,163.119,98.2644,99.8175,0.000797778,0.048514,20.953,57.0362,-0.14103,0.0,0.0
722,180.25,50.3945,58.3542,165.09,98.2265,100.856,0.000753277,0.0484766,20.9529,57.0262,-0.237551,0.0,0.0
724,180.75,49.7975,57.991,165.028,98.2149,100.049,0.000698635,0.0484241,20.9528,57.0362,-0.166391,0.0,0.0
726,181.25,49.5746,58.0341,164.434,98.2197,100.443,0.000654376,0.0483616,20.9528,57.0462,-0.201331,0.0,0.0
728,181.75,49.5428,57.3776,168.461,98.1846,100.744,0.000613568,0.048311,20.9527,57.0362,-0.231378,0.0,0.0
730,182.25,49.5255,57.2418,159.938,98.191,99.8992,0.000580514,0.04827,20.9527,57.0562,-0.155101,0.0,0.0
732,182.75,49.5617,57.5111,165.472,98.1738,100.551,0.000556219,0.0482368,20.9526,57.0262,-0.215126,0.0,0.0
734,183.25,48.8544,57.3934,159.952,98.175,100.205,0.00053654,0.0481958,20.9526,56.9962,-0.184065,0.0,0.0
736,183.75,48.9066,56.8992,170.115,98.1611,100.551,0.000534235,0.0481626,20.9526,57.0162,-0.216335,0.0,0.0
738,184.25,48.9188,56.8426,165.746,98.1679,99.9916,0.000532367,0.0480796,20.9526,57.0362,-0.165536,0.0,0.0
740,184.75,49.0418,56.9072,163.767,98.1547,99.4438,0.000548177,0.0480123,20.9525,57.0162,-0.117336,0.0,0.0
742,185.25,48.955,56.6636,165.992,98.1451,99.8988,0.000560983,0.0479437,20.9525,57.0262,-0.159261,0.0,0.0
744,185.75,48.6636,56.0978,164.371,98.128,100.342,0.000581279,0.0478881,20.9525,57.0062,-0.200688,0.0,0.0
746,186.25,48.2904,56.2586,163.846,98.1296,100.566,0.000597718,0.0478291,20.9528,57.0162,-0.220545,0.0,0.0
748,186.75,48.5632,55.9595,160.898,98.1264,100.076,0.000611035,0.0477813,20.953,56.9962,-0.176877,0.0,0.0
750,187.25,48.4026,55.7807,164.588,98.1392,99.7879,0.000621168,0.0477285,20.9532,57.0062,-0.149827,0.0,0.0
752,187.75,48.368,55.7731,165.01,98.1156,99.8965,0.000628789,0.0476857,20.9529,57.0162,-0.161763,0.0,0.0
754,188.25,48.0694,55.2873,168.019,98.128,99.8534,0.000628433,0.0476506,20.9527,57.0262,-0.156752,0.0,0.0
756,188.75,48.205,55.4371,161.993,98.1144,99.7004,0.00062227,0.0476216,20.9525,57.0362,-0.144204,0.0,0.0
758,189.25,47.951,55.0743,163.8,98.1156,100.308,0.000609446,0.0475981,20.9523,57.0262,-0.198725,0.0,0.0
760,189.75,47.541,54.6506,162.008,98.0997,100.767,0.00059201,0.0476493,20.9522,56.9962,-0.241282,0.0,0.0
762,190.25,47.5192,54.8836,165.14,98.1089,99.5703,0.000572669,0.0476908,20.9521,56.9862,-0.132972,0.0,0.0
764,190.75,47.2216,54.5568,161.029,98.0877,99.3671,0.000552305,0.0477096,20.952,57.0362,-0.116535,0.0,0.0
766,191.25,47.3216,54.1458,167.278,98.0973,99.7081,0.000533854,0.0477116,20.9519,57.0362,-0.146464,0.0,0.0
768,191.75,46.9813,54.3474,167.587,98.0809,99.9189,0.000517148,0.0477131,20.9519,57.0262,-0.166962,0.0,0.0
770,192.25,47.2156,53.7871,164.872,98.0893,100.032,0.000503615,0.0476582,20.9518,57.0162,-0.176324,0.0,0.0
772,192.75,47.0058,53.8986,161,98.0686,99.8988,0.000490176,0.0476211,20.9518,56.9862,-0.166278,0.0,0.0
774,193.25,46.6447,53.3684,166.839,98.0714,99.9373,0.00047929,0.0475977,20.9517,56.9661,-0.169495,0.0,0.0
776,193.75,47.085,53.6917,165.555,98.0686,100.192,0.000470472,0.0475787,20.9517,57.0062,-0.192653,0.0,0.0
778,194.25,46.8579,53.4169,162.248,98.0666,99.8184,0.000460851,0.0475774,20.9517,57.0062,-0.159229,0.0,0.0
780,194.75,46.6006,53.0093,167.222,98.0566,99.9876,0.000453059,0.0475764,20.9517,57.0062,-0.175368,0.0,0.0
782,195.25,46.6692,52.3949,170.555,98.0459,100.226,0.000451703,0.0475474,20.9519,57.0062,-0.197758,0.0,0.0
784,195.75,46.3512,52.6159,167.749,98.0323,99.9194,0.000450605,0.047524,20.9523,57.0062,-0.171464,0.0,0.0
786,196.25,46.6546,52.8959,159.923,98.0423,99.8431,0.000465829,0.0475124,20.9526,57.0162,-0.163681,0.0,0.0
788,196.75,46.342,52.4362,162.248,98.0227,99.9311,0.00047816,0.0475096,20.9529,57.0162,-0.173391,0.0,0.0
790,197.25,46.3018,52.8523,163.641,98.0291,99.9436,0.000496633,0.0475074,20.9531,56.9962,-0.173937,0.0,0.0
792,197.75,45.8765,52.3519,165.512,98.002,99.9068,0.000519232,0.0474634,20.9533,57.0062,-0.173113,0.0,0.0
794,198.25,46.4708,52.4452,165.485,98.0128,100.675,0.000536232,0.0474278,20.9534,56.9962,-0.241041,0.0,0.0
796,198.75,46.1532,51.9339,162.061,98.0068,100.358,0.000548827,0.0473709,20.9535,56.9962,-0.213211,0.0,0.0
798,199.25,45.6997,52.0032,166.285,98.0108,100.083,0.000553155,0.0473248,20.9536,56.9762,-0.188125,0.0,0.0
800,199.75,45.7812,51.422,165.038,98.0052,100.151,0.000551374,0.0472874,20.9537,57.0062,-0.194764,0.0,0.0
802,200.25,46.0155,51.2255,163.122,98.016,99.9827,0.000549931,0.0472291,20.9537,56.9962,-0.178655,0.0,0.0
804,200.75,46.0455,51.5312,166.603,98.0104,100.17,0.000548762,0.0471966,20.9538,56.9862,-0.195979,0.0,0.0
806,201.25,45.7798,51.1418,164.737,98.0116,99.5833,0.000531702,0.0471836,20.9537,56.9962,-0.143069,0.0,0.0
808,201.75,45.4455,51.3359,165.947,98.002,99.4949,0.000517883,0.0471509,20.9536,56.9962,-0.135962,0.0,0.0
810,202.25,45.3206,50.973,166.153,97.9992,100.041,0.000505385,0.0471044,20.9535,56.9862,-0.185477,0.0,0.0
812,202.75,45.176,50.7808,160.166,97.9984,99.988,0.000494088,0.0470668,20.9539,56.9862,-0.180749,0.0,0.0
814,203.25,44.9726,50.6525,162.667,97.9996,99.6704,0.000482328,0.0470363,20.9542,56.9862,-0.152023,0.0,0.0
816,203.75,44.9536,50.9328,163.421,97.9924,100.109,0.000470455,0.0470257,20.954,56.9862,-0.192146,0.0,0.0
818,204.25,44.8668,50.5928,162.282,98.0052,99.7924,0.000456273,0.047017,20.9538,56.9962,-0.162516,0.0,0.0
820,204.75,44.8041,50.4632,170.499,97.9865,99.9984,0.000440678,0.0470248,20.9537,56.9962,-0.182775,0.0,0.0
822,205.25,45.0439,50.3168,163.847,97.9896,100.002,0.000428046,0.0470445,20.9536,56.9661,-0.182805,0.0,0.0
824,205.75,44.7864,50.1558,163.041,97.9857,99.9477,0.000404227,0.0470678,20.9535,56.9762,-0.178287,0.0,0.0
826,206.25,44.9374,49.9524,163.46,97.9841,100.175,0.000384934,0.0470933,20.9535,56.9962,-0.198878,0.0,0.0
828,206.75,44.5481,49.6755,162.922,97.9857,100.759,0.000365592,0.0470918,20.9535,56.9762,-0.25098,0.0,0.0
830,207.25,44.4604,49.709,163.962,97.9821,99.7843,0.000349925,0.0470706,20.9536,56.9762,-0.16391,0.0,0.0
832,207.75,44.2954,49.2444,166.19,97.9884,100.084,0.000337235,0.0470534,20.9537,56.9962,-0.190255,0.0,0.0
834,208.25,44.1099,49.326,165.792,97.9876,99.3316,0.000331908,0.0470114,20.9537,57.0062,-0.122505,0.0,0.0
836,208.75,44.5157,49.3698,163.949,97.9761,99.8274,0.000327594,0.0469774,20.9538,57.0162,-0.16834,0.0,0.0
838,209.25,44.3915,49.3329,163.783,97.9857,100.135,0.000308005,0.0469228,20.9538,57.0062,-0.195105,0.0,0.0
840,209.75,44.159,48.9221,162.812,97.9705,100.096,0.000292137,0.0468786,20.9539,57.0062,-0.19303,0.0,0.0
842,210.25,43.7952,48.4463,165.409,97.9733,99.4025,0.000254537,0.0468428,20.9541,56.9862,-0.130239,0.0,0.0
844,210.75,43.6985,49.1335,162.467,97.9729,99.4151,0.00022408,0.0468137,20.9546,56.9862,-0.131412,0.0,0.0
846,211.25,44.3146,48.9602,162.756,97.9665,99.7507,0.000180861,0.0467902,20.9549,56.9762,-0.162305,0.0,0.0
848,211.75,43.8714,48.7938,170.925,97.9589,99.3648,0.000145854,0.0467571,20.9552,56.9661,-0.128146,0.0,0.0
850,212.25,43.3793,48.4,162.022,97.9546,99.9544,0.000120752,0.0467303,20.9554,56.9762,-0.181748,0.0,0.0
852,212.75,43.8051,48.7462,164.653,97.9374,99.7,0.000103347,0.0466946,20.9556,56.9561,-0.160405,0.0,0.0
854,213.25,43.8472,47.8727,164.604,97.931,99.1252,0.000103572,0.0466656,20.9557,56.9862,-0.108999,0.0,0.0
856,213.75,43.8101,48.3219,163.347,97.933,100.158,0.000116646,0.0466496,20.9559,56.9962,-0.201992,0.0,0.0
858,214.25,44.07,48.6376,160.18,97.9223,99.9687,0.000127235,0.0466432,20.956,57.0162,-0.186005,0.0,0.0
860,214.75,43.7243,48.2425,158.908,97.9175,100.162,0.00017915,0.0466306,20.956,56.9962,-0.203782,0.0,0.0
862,215.25,43.8335,47.6885,164.644,97.9171,99.7686,0.000221201,0.0466138,20.9561,56.9862,-0.168461,0.0,0.0
864,215.75,43.6245,47.5295,164.928,97.9127,99.5887,0.000267656,0.0465854,20.9562,57.0062,-0.152633,0.0,0.0
866,216.25,43.3076,47.9369,165.879,97.9115,99.7404,0.000316438,0.0465491,20.9562,56.9962,-0.166426,0.0,0.0
868,216.75,43.1763,48.1218,162.718,97.9027,98.9005,0.000359195,0.0465197,20.9562,56.9962,-0.0911827,0.0,0.0
870,217.25,42.9362,47.8081,163.56,97.8959,99.6457,0.000396746,0.0465099,20.9561,56.9962,-0.159315,0.0,0.0
872,217.75,42.9965,47.5792,162.299,97.9047,99.3541,0.000427162,0.046502,20.956,57.0262,-0.13215,0.0,0.0
874,218.25,43.022,47.5476,164.956,97.8979,99.1463,0.000439402,0.0464586,20.9559,57.0162,-0.113951,0.0,0.0
876,218.75,42.8232,47.4245,164.55,97.9019,99.293,0.000449317,0.0463902,20.9558,57.0162,-0.126882,0.0,0.0
878,219.25,42.8386,47.2753,161.993,97.8892,99.9961,0.00043876,0.0463348,20.9558,57.0062,-0.191506,0.0,0.0
880,219.75,43.2032,47.2476,164.208,97.8951,99.6506,0.000430209,0.046331,20.9557,57.0062,-0.159833,0.0,0.0
882,220.25,42.5294,46.8685,166.341,97.8987,99.5196,0.000408419,0.0463279,20.9557,57.0162,-0.147673,0.0,0.0
884,220.75,42.7474,46.8639,164.966,97.8896,99.6995,0.000390769,0.0463254,20.9556,57.0062,-0.164758,0.0,0.0
886,221.25,43.2102,46.9655,164.089,97.8852,99.3554,0.00037517,0.0463234,20.9556,57.0262,-0.134067,0.0,0.0
888,221.75,42.826,46.6083,164.513,97.884,99.4164,0.000361361,0.0463359,20.9556,57.0262,-0.139699,0.0,0.0
890,222.25,42.5767,46.8513,163.505,97.87,100.426,0.000356694,0.0463459,20.9556,57.0262,-0.231837,0.0,0.0
892,222.75,42.583,46.3257,161.118,97.892,99.7633,0.00035878,0.0463962,20.9556,57.0362,-0.170284,0.0,0.0
894,223.25,42.6819,46.7403,162.522,97.8744,99.9324,0.00036047,0.0464369,20.9556,57.0262,-0.18713,0.0,0.0
896,223.75,42.2365,46.2472,163.826,97.884,100.203,0.000361838,0.0464477,20.9555,57.0262,-0.210605,0.0,0.0
898,224.25,42.0915,46.2181,164.033,97.8768,99.4519,0.00038649,0.0464365,20.9554,57.0162,-0.143564,0.0,0.0
900,224.75,42.183,46.2134,164.469,97.8804,99.6394,0.000409067,0.0464201,20.9553,57.0362,-0.160176,0.0,0.0
902,225.25,42.505,46.0486,167.658,97.8892,99.4685,0.000429704,0.0464001,20.9552,57.0262,-0.143928,0.0,0.0
904,225.75,42.1135,45.9793,165.598,97.8788,99.5636,0.000442505,0.0463839,20.9551,57.0062,-0.153477,0.0,0.0
906,226.25,42.7121,45.9238,163.173,97.8672,99.5542,0.000449352,0.0463708,20.9551,57.0162,-0.153688,0.0,0.0
908,226.75,42.1357,45.8095,165.344,97.8744,100.315,0.000454897,0.0463601,20.955,57.0162,-0.221464,0.0,0.0
910,227.25,42.0329,45.8601,163.949,97.8656,99.4433,0.00044328,0.0463515,20.9552,57.0262,-0.143818,0.0,0.0
912,227.75,41.6896,45.3212,168.253,97.8696,99.2576,0.00043387,0.0463586,20.9556,56.9862,-0.126638,0.0,0.0
914,228.25,42.1144,45.758,166.774,97.8597,99.4249,0.000426248,0.0463644,20.9559,56.9962,-0.142704,0.0,0.0
916,228.75,41.8051,45.3392,167.27,97.8541,99.726,0.000420074,0.046383,20.9562,56.9862,-0.170406,0.0,0.0
918,229.25,41.638,45.2761,169.591,97.8441,99.8512,0.00041879,0.0463982,20.9564,56.9762,-0.182604,0.0,0.0
920,229.75,41.3238,45.3906,163.235,97.8477,100.215,0.000426881,0.0463823,20.9565,56.9962,-0.214945,0.0,0.0
922,230.25,41.8861,45.4048,166.359,97.8333,100.401,0.000441654,0.0463695,20.9566,56.9862,-0.232958,0.0,0.0
924,230.75,42.1504,45.0218,165.094,97.8286,99.5604,0.000460798,0.0463591,20.9567,56.9762,-0.15781,0.0,0.0
926,231.25,41.81,45.1203,166.237,97.815,99.5963,0.000482764,0.0462945,20.9568,56.9661,-0.162298,0.0,0.0
928,231.75,40.872,45.0319,162.242,97.829,99.6793,0.000503821,0.0462422,20.9569,56.9762,-0.168506,0.0,0.0
930,232.25,41.5633,45.1894,163.801,97.8066,99.525,0.000514344,0.046222,20.9569,56.9862,-0.156623,0.0,0.0
932,232.75,41.4933,44.9925,165.94,97.807,99.9185,0.000531032,0.0462256,20.957,56.9962,-0.192071,0.0,0.0
934,233.25,41.3825,45.002,166.916,97.803,100.035,0.000543374,0.0462285,20.957,56.9962,-0.202891,0.0,0.0
936,233.75,41.2752,44.9341,164.095,97.8194,99.8898,,0.0462309,,56.9862,-0.188351,0.0,0.0
938,234.25,41.2776,44.989,164.766,97.8046,99.8413,,0.0462254,,56.9862,-0.185343,0.0,0.0
940,234.75,41.3984,44.5226,164.96,97.8098,99.7915,,0.0462143,,56.9762,-0.18038,0.0,0.0
942,235.25,41.3254,44.2348,164.483,97.8003,99.5394,,0.046217,,56.9762,-0.158507,0.0,0.0
944,235.75,41.2269,44.3469,163.663,97.8026,99.8171,,0.0462215,,56.9862,-0.183344,0.0,0.0
946,236.25,41.09,44.5275,167.059,97.7971,100.094,,0.0462252,,56.9962,-0.208803,0.0,0.0
948,236.75,41.2857,44.2151,163.593,97.8038,100.471,,,,57.0062,-0.241977,0.0,0.0
950,237.25,41.3587,43.72,162.782,97.7891,100.064,,,,57.0062,-0.206836,0.0,0.0
952,237.75,40.6923,43.9521,165.985,97.7907,100.054,,,,57.0062,-0.205721,0.0,0.0
954,238.25,41.193,44.3087,165.173,97.7731,99.9844,,,,56.9762,-0.201122,0.0,0.0
956,238.75,41.0831,43.9274,163.029,97.7815,99.7202,,,,56.9962,-0.176552,0.0,0.0
958,239.25,41.3453,44.1692,162.681,97.7652,99.7825,,,,56.9962,-0.183677,0.0,0.0
960,239.75,40.9846,44.2929,167.597,97.7588,99.1391,,,,56.9962,-0.126091,0.0,0.0
962,240.25,40.7385,44.1079,167.552,97.7516,99.4483,,,,57.0062,-0.154749,0.0,0.0
964,240.75,41.0516,43.5848,164.96,97.756,100.039,,,,57.0062,-0.207621,0.0,0.0
966,241.25,40.7701,43.8403,166.198,97.7408,99.3128,,,,56.9962,-0.143478,0.0,0.0
968,241.75,40.667,43.6249,161.629,97.7389,98.9538,,,,57.0062,-0.1111,0.0,0.0
970,242.25,40.6807,43.8743,166.066,97.7384,99.3195,,,,57.0062,-0.144308,0.0,0.0
972,242.75,40.5532,43.5715,166.66,97.7436,99.5142,,,,56.9661,-0.161444,0.0,0.0
974,243.25,40.8407,43.406,161.9,97.7377,99.3559,,,,56.9361,-0.147671,0.0,0.0
976,243.75,40.5171,43.6121,164.187,97.7381,99.4909,,,,56.9762,-0.15985,0.0,0.0
978,244.25,40.646,43.1711,163.233,97.7373,99.1764,,,,56.9661,-0.131449,0.0,0.0
979,244.5,40.7344,43.4772,168.755,97.7321,99.7085,,,,56.9561,-0.180048,0.0,0.0