File: 01_Data/Memory_Foam_Carpet_Pad/Cone/Memory_Foam_Carpet_Pad_Cone_HF50Scan_220915_R1.csv
Names,Time,Stack TC,Smoke TC,Exh Press,Smoke Comp,Smoke Meas,CO Meter,CO2 Meter,O2 Meter,Sample Mass,Ext Coeff,Start Test,Flame Verif
Chan Gain,,500,500,1,1,1,1,1,1,1,1,1.0,1.0
Offset,,0,0,0.139139,0,0,0,0,0,0,0,0.0,0.0
Gain,,1,1,25.011,13.0826,14.7555,1,1,1,1.00088,1.03743,1.0,1.0
Units,sec,C,C,Pa,%,%,%,%,%,g,/m,,
Baseline,,54.208,55.8301,140.745,100.353,106.338,-0.000841632,0.047578,20.9882,-451.283,-0.527207,,
2,0.25,52.1256,53.821,140.59,100.375,106.583,-0.00069094,0.055954,20.9741,43.0479,-0.546144,0.0,0.0
4,0.75,52.8468,53.9133,138.647,100.366,106.501,-0.000584733,0.0565559,20.9729,42.7977,-0.539904,0.0,0.0
6,1.25,52.1528,53.9319,142.669,100.364,106.193,-0.000498705,0.0579329,20.9705,42.7777,-0.513801,0.0,0.0
8,1.75,51.6191,53.6739,140.695,100.374,106.142,-0.000429022,0.0590483,20.9673,42.8978,-0.508459,0.0,0.0
10,2.25,52.2958,53.7324,140.422,100.347,104.252,-0.000134866,0.0632562,20.9648,42.7476,-0.347425,0.0,1.0
12,2.75,52.2929,53.9261,134.893,100.367,102.959,0.000317343,0.0666646,20.9494,42.6175,-0.232016,0.0,1.0
14,3.25,52.3088,53.93,131.345,100.354,99.9401,0.000683632,0.0762125,20.937,42.7176,0.037602,0.0,1.0
16,3.75,52.7696,54.1964,134.318,100.365,96.1211,0.00131692,0.0839463,20.918,42.6876,0.393184,0.0,1.0
18,4.25,52.9498,54.3989,132.191,100.351,91.7091,0.00182988,0.0902107,20.8945,42.6375,0.819521,0.0,1.0
20,4.75,53.3566,54.0594,129.005,100.374,89.8997,0.0024329,0.103132,20.8754,42.6075,1.00288,0.0,1.0
22,5.25,53.4376,54.0922,132.619,100.35,88.253,0.00309012,0.12066,20.841,42.5675,1.16899,0.0,1.0
24,5.75,53.9779,54.4147,127.6,100.364,86.1496,0.00377782,0.134858,20.8132,42.4874,1.38974,0.0,1.0
26,6.25,54.8579,55.1174,128.134,100.35,87.9144,0.00447466,0.157151,20.7678,42.4574,1.20394,0.0,1.0
28,6.75,53.2103,53.7729,129.969,100.364,83.482,0.00518266,0.175209,20.7311,42.4174,1.67601,0.0,1.0
30,7.25,54.1562,54.0288,124.376,100.34,80.606,0.00588533,0.198249,20.6895,42.3473,1.99292,0.0,1.0
32,7.75,54.975,54.7442,129.915,100.366,81.0743,0.00660318,0.216911,20.6559,42.2772,1.94249,0.0,0.0
34,8.25,55.2547,54.9821,127.616,100.353,79.2406,0.00731845,0.236197,20.6181,42.2372,2.14955,0.0,0.0
36,8.75,55.5322,55.101,131.179,100.356,79.2006,0.00789781,0.255572,20.5875,42.2072,2.15437,0.0,0.0
38,9.25,55.9794,55.6816,127.323,100.356,77.6488,0.00856467,0.274545,20.5627,42.1371,2.33447,0.0,0.0
40,9.75,56.655,55.8785,125.488,100.37,73.9253,0.00928264,0.292864,20.5343,42.1071,2.78291,0.0,0.0
42,10.25,57.1741,56.1991,132.712,100.358,76.6843,0.00999857,0.310528,20.5114,42.047,2.44844,0.0,0.0
44,10.75,57.5897,56.6209,121.332,100.367,72.3384,0.0106994,0.327379,20.4857,41.967,2.98013,0.0,0.0
46,11.25,58.5501,57.3371,127.344,100.368,74.2108,0.0113904,0.341029,20.465,41.8769,2.74765,0.0,0.0
48,11.75,58.4109,57.1694,119.471,100.36,72.6928,0.012061,0.358545,20.4411,41.8569,2.93507,0.0,0.0
50,12.25,58.9951,57.6496,121.253,100.362,72.9004,0.0127218,0.372734,20.4219,41.8068,2.90927,0.0,0.0
52,12.75,59.9379,58.1455,121.109,100.366,74.684,0.0133629,0.387364,20.3975,41.7167,2.68969,0.0,0.0
54,13.25,60.2181,58.6442,121.724,100.36,73.5776,0.0139927,0.402039,20.3777,41.6867,2.82497,0.0,0.0
56,13.75,61.0652,59.1881,120.335,100.36,74.1315,0.0146022,0.416347,20.3585,41.6267,2.75669,0.0,0.0
58,14.25,61.4214,59.4078,125.387,100.359,71.0172,0.0150959,0.430116,20.34,41.5366,3.14718,0.0,0.0
60,14.75,62.1793,60.3264,122.618,100.355,71.2491,0.015681,0.441269,20.323,41.4665,3.11715,0.0,0.0
62,15.25,62.4657,60.3868,123.547,100.353,71.5306,0.0161549,0.45416,20.3073,41.4165,3.08106,0.0,0.0
64,15.75,62.8471,60.6616,121.787,100.371,73.8032,0.0165388,0.464601,20.2946,41.3064,2.79805,0.0,0.0
66,16.25,63.9429,61.2339,121.824,100.35,76.1029,0.017037,0.47631,20.2823,41.2363,2.51693,0.0,0.0
68,16.75,64.3662,61.9215,118.246,100.365,72.5514,0.0174406,0.485795,20.2704,41.1362,2.95323,0.0,0.0
70,17.25,64.5826,62.6249,124.607,100.352,74.8308,0.0178711,0.497545,20.2578,41.0962,2.67052,0.0,0.0
72,17.75,65.596,63.24,121.744,100.357,70.2715,0.0182198,0.507063,20.2449,40.9961,3.24303,0.0,0.0
74,18.25,66.0218,63.3172,120.064,100.354,73.6006,0.0186115,0.514772,20.2308,40.9461,2.82155,0.0,0.0
76,18.75,66.6352,63.9854,121.167,100.354,73.5213,0.0189287,0.525994,20.216,40.876,2.83135,0.0,0.0
78,19.25,66.6686,64.2388,116.779,100.357,70.5732,0.0192549,0.535084,20.199,40.8059,3.20407,0.0,0.0
80,19.75,67.3694,64.632,120.746,100.362,73.1008,0.0195814,0.544986,20.1806,40.7359,2.88429,0.0,0.0
82,20.25,67.9393,65.4035,122.261,100.364,70.1274,0.0199291,0.555293,20.1657,40.6558,3.26239,0.0,0.0
84,20.75,68.7594,65.6642,119.696,100.358,70.557,0.0202855,0.566001,20.1462,40.5457,3.2062,0.0,0.0
86,21.25,69.102,66.2036,119.881,100.36,72.193,0.0207122,0.576799,20.1252,40.4957,2.99783,0.0,0.0
88,21.75,69.833,66.9317,120.476,100.357,73.5511,0.0210578,0.588551,20.1033,40.4156,2.82793,0.0,0.0
90,22.25,70.5168,67.2671,121.416,100.375,74.2779,0.0213377,0.600775,20.0856,40.3055,2.74011,0.0,0.0
92,22.75,71.3172,67.7269,115.214,100.36,75.2316,0.0217097,0.614395,20.0646,40.2555,2.62263,0.0,0.0
94,23.25,72.0991,68.4324,118.183,100.36,71.7228,0.0218683,0.628774,20.0525,40.1554,3.05732,0.0,0.0
96,23.75,72.2779,69.192,111.544,100.357,72.8036,0.0221906,0.644505,20.0318,40.0753,2.92093,0.0,0.0
98,24.25,73.4136,69.7604,109.728,100.365,72.3627,0.0224977,0.660923,20.015,39.9152,2.97689,0.0,0.0
100,24.75,73.8812,70.3962,111.894,100.364,71.2104,0.0227464,0.674222,19.9933,39.8951,3.1229,0.0,0.0
102,25.25,74.4325,71.0819,111.168,100.372,74.6417,0.0229479,0.696087,19.9685,39.755,2.69539,0.0,0.0
104,25.75,75.6763,71.8155,110.152,100.377,72.9958,0.0231807,0.713798,19.9398,39.6649,2.8987,0.0,0.0
106,26.25,76.5426,72.415,106.451,100.357,72.5487,0.0234318,0.721348,19.9088,39.5248,2.95284,0.0,0.0
108,26.75,77.863,73.2586,106.11,100.356,71.771,0.0236272,0.748046,19.8707,39.3747,3.05081,0.0,0.0
110,27.25,78.9584,73.8564,106.088,100.377,71.8242,0.0237782,0.769671,19.8283,39.2946,3.04595,0.0,0.0
112,27.75,79.3626,74.6114,106.577,100.379,71.4518,0.0238309,0.787188,19.7861,39.2045,3.09348,0.0,0.0
114,28.25,80.7284,75.6575,114.338,100.369,73.8429,0.0238736,0.817886,19.7449,39.0744,2.79302,0.0,0.0
116,28.75,81.8861,76.4467,112.86,100.362,74.8065,0.0238165,0.842751,19.7071,38.9743,2.67438,0.0,0.0
118,29.25,81.9152,77.289,99.9659,100.368,74.0937,0.0237702,0.866702,19.6726,38.8342,2.76209,0.0,0.0
120,29.75,83.0891,78.3606,109.353,100.364,73.2674,0.0237327,0.889532,19.6446,38.7541,2.86375,0.0,0.0
122,30.25,83.9596,79.2343,109.608,100.369,79.5221,0.0235805,0.910583,19.6194,38.594,2.11873,0.0,0.0
124,30.75,85.2992,80.0201,109.736,100.367,75.3572,0.0234571,0.929938,19.5967,38.564,2.60806,0.0,0.0
126,31.25,86.0311,80.6445,103.902,100.38,73.932,0.0232728,0.947626,19.577,38.4439,2.78305,0.0,0.0
128,31.75,87.0992,81.8394,102.614,100.368,74.6732,0.0231236,0.963763,19.5597,38.3338,2.69115,0.0,0.0
130,32.25,88.3046,82.813,101.696,100.382,75.3716,0.0228924,0.976833,19.5455,38.2237,2.6077,0.0,0.0
132,32.75,88.6878,83.1571,108.644,100.364,75.4162,0.0227051,0.990569,19.5338,38.1336,2.60069,0.0,0.0
134,33.25,89.4248,84.465,107.551,100.381,74.8488,0.0224447,1.0017,19.5241,38.0735,2.67097,0.0,0.0
136,33.75,90.6672,85.183,97.7913,100.369,74.2234,0.0222338,1.01167,19.516,37.9034,2.74621,0.0,0.0
138,34.25,91.0215,86.0427,106.616,100.39,74.498,0.0219696,1.02061,19.5095,37.8233,2.71455,0.0,0.0
140,34.75,91.8152,87.2305,105.328,100.375,74.5561,0.0217556,1.02846,19.5037,37.7232,2.70608,0.0,0.0
142,35.25,92.6366,87.5403,103.918,100.382,75.5234,0.0215398,1.03535,19.4991,37.6031,2.58943,0.0,0.0
144,35.75,93.8158,88.465,105.99,100.37,76.451,0.0213267,1.0416,19.4936,37.493,2.47718,0.0,0.0
146,36.25,93.87,89.4993,103.316,100.376,77.8884,0.021154,1.04725,19.4891,37.4129,2.30829,0.0,0.0
148,36.75,95.0998,89.9668,96.4274,100.368,74.2612,0.0210142,1.05318,19.4828,37.3329,2.74147,0.0,0.0
150,37.25,95.7163,90.362,106.793,100.391,76.0313,0.020849,1.05799,19.4778,37.2228,2.52923,0.0,0.0
152,37.75,96.6564,91.4989,100.284,100.364,74.9502,0.0207785,1.06302,19.4693,37.1427,2.65706,0.0,0.0
154,38.25,97.5112,91.9652,108.877,100.385,75.9143,0.0206689,1.06812,19.4657,36.9926,2.54274,0.0,0.0
156,38.75,97.9709,92.9147,103.962,100.363,77.2863,0.0205898,1.07225,19.4547,36.8725,2.37771,0.0,0.0
158,39.25,98.8679,94.454,109.047,100.379,77.8681,0.0205646,1.07831,19.4414,36.7824,2.31087,0.0,0.0
160,39.75,99.5763,94.8514,105.406,100.371,76.1345,0.0205792,1.08567,19.4228,36.6723,2.51508,0.0,0.0
162,40.25,100.55,95.505,98.5645,100.381,76.524,0.0206815,1.09646,19.4007,36.5322,2.46951,0.0,0.0
164,40.75,100.794,96.3873,96.1343,100.372,74.1653,0.0207644,1.10335,19.3703,36.4421,2.75363,0.0,0.0
166,41.25,101.591,96.7822,105.325,100.404,77.0224,0.0209236,1.11514,19.3346,36.332,2.41252,0.0,0.0
168,41.75,102.82,97.7609,100.606,100.367,75.8548,0.0210526,1.13553,19.2954,36.2319,2.54821,0.0,0.0
170,42.25,103.639,98.6969,95.4656,100.383,74.2873,0.0212341,1.15204,19.2546,36.1118,2.73971,0.0,0.0
172,42.75,104.645,99.7714,100.341,100.379,73.8149,0.0213812,1.17538,19.2215,35.9417,2.7974,0.0,0.0
174,43.25,106.272,100.246,89.7434,100.38,75.84,0.0215003,1.19429,19.1816,35.8215,2.55118,0.0,0.0
176,43.75,107.434,101.881,95.3428,100.368,77.5777,0.0216685,1.21956,19.1493,35.7515,2.34394,0.0,0.0
178,44.25,108.012,102.356,96.0061,100.385,76.7284,0.0218048,1.24004,19.116,35.6014,2.44559,0.0,0.0
180,44.75,109.037,103.196,94.6291,100.383,75.6729,0.0219493,1.26619,19.0825,35.4612,2.57147,0.0,0.0
182,45.25,110.186,104.753,102.402,100.396,75.1699,0.0220972,1.28737,19.0555,35.3511,2.63336,0.0,0.0
184,45.75,111.784,105.749,98.9943,100.371,73.8586,0.0222169,1.31151,19.016,35.241,2.79122,0.0,0.0
186,46.25,112.142,107.001,97.5082,100.389,74.9452,0.0224177,1.33734,18.9841,35.1109,2.66002,0.0,0.0
188,46.75,112.923,108.283,88.7931,100.372,75.0452,0.0225804,1.35826,18.9582,34.9908,2.6463,0.0,0.0
190,47.25,114.67,108.788,88.1176,100.381,76.8914,0.0227121,1.39015,18.9372,34.7806,2.42599,0.0,0.0
192,47.75,116.048,110.275,94.4742,100.373,76.4551,0.0229153,1.41599,18.8992,34.6906,2.47698,0.0,0.0
194,48.25,117.278,111.293,91.344,100.38,75.1645,0.0231667,1.44638,18.8685,34.5304,2.63256,0.0,0.0
196,48.75,118.28,112.55,84.3974,100.369,75.8733,0.0234474,1.47951,18.8156,34.3803,2.54614,0.0,0.0
198,49.25,119.659,113.975,84.8164,100.389,74.9371,0.0237442,1.50635,18.7728,34.2301,2.661,0.0,0.0
200,49.75,121.171,115.389,83.9226,100.36,75.9557,0.0240559,1.54853,18.7057,34.06,2.53546,0.0,0.0
202,50.25,122.268,116.281,82.0213,100.383,78.0388,0.0243727,1.58271,18.6514,33.9699,2.29138,0.0,0.0
204,50.75,123.913,117.89,90.9784,100.367,75.8287,0.0246293,1.61038,18.5878,33.8098,2.55134,0.0,0.0
206,51.25,125.286,119.085,85.063,100.376,76.2925,0.0249072,1.64698,18.5186,33.6697,2.49668,0.0,0.0
208,51.75,127.136,121.015,85.4278,100.373,78.3373,0.0251955,1.68939,18.4474,33.4795,2.25569,0.0,0.0
210,52.25,128.274,122.315,84.6859,100.381,75.5581,0.0254594,1.73205,18.376,33.3894,2.58518,0.0,0.0
212,52.75,130.123,123.994,84.16,100.368,79.065,0.0257005,1.77409,18.3181,33.1692,2.17111,0.0,0.0
214,53.25,131.807,125.509,91.8828,100.383,77.076,0.025915,1.80814,18.2525,33.0791,2.40435,0.0,0.0
216,53.75,133.48,127.193,84.779,100.36,78.49,0.0261061,1.85195,18.1993,32.8389,2.23674,0.0,0.0
218,54.25,134.633,128.667,93.7086,100.369,75.695,0.0262794,1.88743,18.1338,32.7388,2.56759,0.0,0.0
220,54.75,136.473,130.16,96.8037,100.369,77.2773,0.0264364,1.92506,18.0691,32.5787,2.37927,0.0,0.0
222,55.25,137.898,132.114,76.4555,100.364,75.5139,0.0266003,1.96352,18.006,32.4185,2.58887,0.0,0.0
224,55.75,139.495,133.197,87.5093,100.358,76.4731,0.0267331,2.00196,17.955,32.2184,2.47347,0.0,0.0
226,56.25,141.213,135.247,79.788,100.355,80.7789,0.026871,2.03963,17.9057,32.0382,1.97473,0.0,0.0
228,56.75,142.726,136.315,86.5094,100.366,78.0374,0.0270102,2.07578,17.8658,31.9081,2.28995,0.0,0.0
230,57.25,144.1,138.4,78.5751,100.351,79.3005,0.027123,2.11014,17.8335,31.7279,2.14249,0.0,0.0
232,57.75,146.029,140.095,75.993,100.337,79.1681,0.0272143,2.14382,17.8073,31.5578,2.15639,0.0,0.0
234,58.25,147.837,141.638,95.4237,100.342,78.6264,0.027325,2.1711,17.7861,31.4577,2.21938,0.0,0.0
236,58.75,148.969,143.627,85.0134,100.335,78.3882,0.0274146,2.19314,17.769,31.3376,2.24634,0.0,0.0
238,59.25,150.27,145.485,79.9712,100.328,78.5233,0.0274421,2.21093,17.7551,31.1674,2.22998,0.0,0.0
240,59.75,151.743,146.844,73.9214,100.324,79.7981,0.0274643,2.22534,17.7635,30.9973,2.08307,0.0,0.0
242,60.25,153.006,148.312,85.6141,100.314,79.3946,0.0273596,2.2283,17.7703,30.8171,2.12837,0.0,0.0
244,60.75,154.264,149.803,82.2137,100.315,77.1103,0.027189,2.2307,17.8026,30.707,2.39412,0.0,0.0
246,61.25,154.957,150.811,86.4514,100.302,77.6853,0.0269735,2.22551,17.8287,30.637,2.32535,0.0,0.0
248,61.75,156.288,152.599,85.2286,100.298,76.6609,0.0267991,2.21488,17.8823,30.4168,2.44572,0.0,0.0
250,62.25,157.23,153.786,89.8739,100.286,75.681,0.0264785,2.19873,17.9257,30.3467,2.56173,0.0,0.0
252,62.75,157.769,155.234,91.834,100.275,76.6717,0.0262189,2.17886,17.9902,30.2366,2.4424,0.0,0.0
254,63.25,158.642,155.798,95.5786,100.282,76.1187,0.0258607,2.15441,18.0425,30.0865,2.50893,0.0,0.0
256,63.75,159.105,156.815,89.0877,100.276,74.0279,0.0255706,2.12708,18.0993,29.9364,2.7618,0.0,0.0
258,64.25,159.543,158.002,99.8621,100.237,75.1667,0.0253356,2.09588,18.1585,29.8563,2.61928,0.0,0.0
260,64.75,159.996,158.601,91.9874,100.241,77.4066,0.0249577,2.06244,18.2218,29.7162,2.35244,0.0,0.0
262,65.25,159.934,159.448,99.2019,100.237,73.2669,0.0246517,2.02562,18.287,29.6461,2.85229,0.0,0.0
264,65.75,160.18,159.777,86.904,100.246,74.7412,0.0242529,1.98703,18.3541,29.486,2.67182,0.0,0.0
266,66.25,160.141,160.393,94.2078,100.197,73.022,0.0239299,1.95577,18.4213,29.4059,2.87917,0.0,0.0
268,66.75,160.313,160.832,104.433,100.195,72.5721,0.0235754,1.90876,18.4758,29.3358,2.93523,0.0,0.0
270,67.25,160.119,161.568,97.1555,100.169,70.8263,0.0232046,1.87069,18.5549,29.2157,3.1544,0.0,0.0
272,67.75,160.229,161.589,102.04,100.161,70.2751,0.0229043,1.83985,18.6191,29.1357,3.2248,0.0,0.0
274,68.25,160.453,161.802,95.5252,100.14,69.7424,0.0224497,1.78521,18.6881,29.0156,3.29212,0.0,0.0
276,68.75,159.78,161.984,99.3896,100.128,70.5003,0.0220815,1.74095,18.7593,28.9655,3.19272,0.0,0.0
278,69.25,159.374,162.317,106.928,100.094,72.9639,0.0215961,1.70511,18.817,28.8654,2.87698,0.0,0.0
280,69.75,159.26,162.1,104.932,100.086,72.5554,0.021203,1.64898,18.884,28.8154,2.92738,0.0,0.0
282,70.25,158.116,162.607,106.88,100.054,75.2411,0.0208845,1.60351,18.9566,28.7053,2.59371,0.0,0.0
284,70.75,157.626,162.038,113.029,100.043,75.1933,0.0204494,1.54158,19.0154,28.6853,2.59844,0.0,0.0
286,71.25,156.364,162.824,109.508,100.011,74.7137,0.0199374,1.49141,19.0975,28.6252,2.65383,0.0,0.0
288,71.75,155.694,161.905,108.259,100,76.818,0.0195228,1.43943,19.1641,28.5151,2.40005,0.0,0.0
290,72.25,155.796,161.262,111.397,99.9667,74.9155,0.0189012,1.38712,19.2344,28.4451,2.62522,0.0,0.0
292,72.75,155.088,160.982,111.378,99.9507,76.2173,0.0183978,1.34475,19.306,28.385,2.46699,0.0,0.0
294,73.25,153.955,160.702,113.07,99.9128,77.3665,0.0178024,1.29682,19.379,28.3149,2.32735,0.0,0.0
296,73.75,153.297,160.204,109.337,99.8972,79.9674,0.0173202,1.24573,19.4517,28.2949,2.02502,0.0,0.0
298,74.25,152.666,160.218,112.868,99.8593,81.5926,0.0167243,1.19533,19.5252,28.2749,1.83848,0.0,0.0
300,74.75,151.544,159.499,115.256,99.8337,79.8639,0.0162415,1.14639,19.5981,28.2249,2.03103,0.0,0.0
302,75.25,150.226,159.424,117.12,99.7958,79.1681,0.0156184,1.10676,19.6698,28.1348,2.10719,0.0,0.0
304,75.75,149.596,158.651,119.611,99.7754,78.1329,0.0151137,1.05803,19.7393,28.0747,2.22512,0.0,0.0
306,76.25,148.262,158.486,117.819,99.7467,80.6564,0.0145551,1.01856,19.7956,28.0147,1.93323,0.0,0.0
308,76.75,147.441,157.623,119.166,99.7175,82.0375,0.0139678,0.974645,19.8583,27.9546,1.77606,0.0,0.0
310,77.25,146.647,157.194,121.721,99.672,83.423,0.013492,0.939077,19.9091,27.9246,1.61949,0.0,0.0
312,77.75,145.477,156.41,120.114,99.6497,84.0517,0.0127993,0.898844,19.958,27.8645,1.54913,0.0,0.0
314,78.25,145.041,155.532,121.558,99.6149,86.3563,0.0122383,0.866255,20.0048,27.8445,1.2998,0.0,0.0
316,78.75,143.824,155.416,122.061,99.6038,87.2011,0.0117838,0.83307,20.0426,27.8245,1.21019,0.0,0.0
318,79.25,142.692,154.96,119.824,99.5535,89.6449,0.0110563,0.80008,20.083,27.8145,0.954063,0.0,0.0
320,79.75,141.642,154.222,127.592,99.5295,91.9112,0.0104671,0.773358,20.1245,27.7845,0.724663,0.0,0.0
322,80.25,141.177,152.969,126.002,99.49,91.9315,0.00978244,0.739158,20.1683,27.7344,0.719041,0.0,0.0
324,80.75,139.786,152.875,124.34,99.4704,90.0141,0.00922787,0.711455,20.2129,27.7044,0.909061,0.0,0.0
326,81.25,138.8,151.848,128.393,99.4213,91.9058,0.00860308,0.689016,20.258,27.6844,0.715299,0.0,0.0
328,81.75,137.959,151.325,126.71,99.4065,92.679,0.008097,0.657114,20.3026,27.6644,0.63771,0.0,0.0
330,82.25,137.205,150.289,128.313,99.359,93.748,0.00755304,0.631274,20.3482,27.6343,0.528992,0.0,0.0
332,82.75,135.561,149.906,128.896,99.3486,95.9095,0.00711244,0.604399,20.3937,27.6343,0.320606,0.0,0.0
334,83.25,133.993,149.337,130.289,99.3031,96.9344,0.0066512,0.577282,20.4372,27.6143,0.219707,0.0,0.0
336,83.75,133.419,148.246,129.426,99.2871,98.161,0.00627759,0.550735,20.4784,27.5943,0.103808,0.0,0.0
338,84.25,132.337,147.752,129.92,99.2404,98.8743,0.0059449,0.525109,20.5118,27.5943,0.0336383,0.0,0.0
340,84.75,131.476,146.992,128.802,99.2289,100.557,0.00564835,0.500516,20.5472,27.6143,-0.121002,0.0,0.0
342,85.25,130.653,146.075,129.626,99.1853,100.617,0.00540814,0.477142,20.5758,27.5843,-0.130453,0.0,0.0
344,85.75,129.279,145.429,132.052,99.1606,101.156,0.00521484,0.45137,20.603,27.5643,-0.181264,0.0,0.0
346,86.25,128.372,144.804,129.109,99.1107,101.116,0.00505827,0.430494,20.6285,27.5743,-0.182279,0.0,0.0
348,86.75,126.738,143.457,131.349,99.1063,102.552,0.00496319,0.410258,20.6524,27.5543,-0.311013,0.0,0.0
350,87.25,125.94,143.106,135.097,99.0516,102.83,0.00488617,0.390873,20.6746,27.5543,-0.340698,0.0,0.0
352,87.75,125.358,142.55,132.316,99.038,102.974,0.00485254,0.375171,20.6926,27.5543,-0.354688,0.0,0.0
354,88.25,123.588,141.31,134.508,98.9945,103.123,0.00485119,0.356936,20.7129,27.5543,-0.371851,0.0,0.0
356,88.75,122.68,140.826,136.357,98.9857,103.347,0.0048501,0.342166,20.7294,27.5443,-0.392346,0.0,0.0
358,89.25,122.151,139.789,132.275,98.9494,103.422,0.00491032,0.325259,20.7455,27.5342,-0.402308,0.0,0.0
360,89.75,121.372,138.538,130.994,98.9282,103.574,0.00495909,0.311564,20.761,27.5242,-0.417636,0.0,0.0
362,90.25,120.262,138.006,135.73,98.8899,103.764,0.00505086,0.298399,20.7752,27.5042,-0.437805,0.0,0.0
364,90.75,119.656,138.024,133.019,98.8823,103.882,0.00512519,0.285871,20.7881,27.4942,-0.448843,0.0,0.0
366,91.25,118.068,137.129,131.114,98.8564,103.767,0.0052339,0.275723,20.8012,27.4842,-0.441207,0.0,0.0
368,91.75,118.195,136.229,135.161,98.8232,104.064,0.00532196,0.264382,20.8118,27.4842,-0.470245,0.0,0.0
370,92.25,116.246,134.885,134.988,98.8005,104.064,0.00542423,0.255195,20.8204,27.4842,-0.472302,0.0,0.0
372,92.75,115.706,134.153,138.228,98.7925,103.818,0.00553493,0.245422,20.8274,27.5142,-0.45155,0.0,0.0
374,93.25,114.832,133.493,137.134,98.7817,103.994,0.00562459,0.237506,20.8348,27.4942,-0.467925,0.0,0.0
376,93.75,113.882,133.22,136.554,98.7609,104.169,0.0057282,0.229246,20.8408,27.4842,-0.485193,0.0,0.0
378,94.25,113.054,132.292,136.923,98.7374,103.579,0.00584003,0.222556,20.8455,27.4742,-0.435604,0.0,0.0
380,94.75,112.442,131.623,135.277,98.7318,103.392,0.00594275,0.216147,20.8492,27.4542,-0.419725,0.0,0.0
382,95.25,111.73,130.704,132.755,98.7146,104.1,0.00603687,0.210064,20.853,27.4542,-0.483401,0.0,0.0
384,95.75,110.549,130.212,136.737,98.7066,104.102,0.00611312,0.205137,20.8561,27.4442,-0.484333,0.0,0.0
386,96.25,109.686,129.178,134.792,98.7078,104.089,0.00620052,0.201145,20.8598,27.4442,-0.483043,0.0,0.0
388,96.75,109.4,128.648,133.392,98.7046,104.368,0.00627132,0.19558,20.8639,27.4442,-0.507713,0.0,0.0
390,97.25,108.384,128.076,135.748,98.709,104.135,0.00636716,0.191071,20.868,27.4442,-0.486947,0.0,0.0
392,97.75,107.857,127.55,136.586,98.6927,104.231,0.0064448,0.186185,20.8722,27.4442,-0.496834,0.0,0.0
394,98.25,107.45,126.557,136.842,98.6935,104.501,0.00652927,0.182227,20.8757,27.4242,-0.520358,0.0,0.0
396,98.75,106.442,126.289,137.93,98.7014,104.522,0.00661713,0.177805,20.8793,27.4242,-0.521466,0.0,0.0
398,99.25,106.101,125.936,132.104,98.7274,104.555,0.00668829,0.174224,20.8823,27.4242,-0.521895,0.0,0.0
400,99.75,105.192,125.021,135.326,98.7154,104.642,0.00674593,0.17023,20.8858,27.4141,-0.5306,0.0,0.0
402,100.25,104.715,123.851,131.395,98.7486,104.284,0.0068312,0.166995,20.8887,27.4041,-0.496359,0.0,0.0
404,100.75,103.444,123.938,137.829,98.7502,104.895,0.00690027,0.163809,20.8919,27.3841,-0.54938,0.0,0.0
406,101.25,102.698,123.206,135.46,98.7653,104.99,0.00697165,0.160718,20.8944,27.3941,-0.556222,0.0,0.0
408,101.75,102.252,122.712,138.101,98.7789,104.918,0.00702948,0.158216,20.8974,27.3941,-0.548724,0.0,0.0
410,102.25,101.495,121.771,140.254,98.7985,104.603,0.0070879,0.154837,20.8998,27.3841,-0.519579,0.0,0.0
412,102.75,101.562,120.681,134.89,98.822,104.767,0.00713793,0.1521,20.9027,27.3741,-0.531619,0.0,0.0
414,103.25,100.869,120.036,136.194,98.8472,105.02,0.0071809,0.149375,20.9049,27.3641,-0.55122,0.0,0.0
416,103.75,100.253,119.614,136.238,98.8671,105.035,0.0072157,0.14671,20.9072,27.3741,-0.550709,0.0,0.0
418,104.25,99.2667,118.534,135.633,98.9027,105.019,0.00724647,0.144199,20.9091,27.3941,-0.546073,0.0,0.0
420,104.75,98.8289,118.986,136.017,98.9282,104.343,0.00727139,0.141846,20.911,27.3841,-0.484963,0.0,0.0
422,105.25,97.8484,118.555,135.584,98.9669,104.826,0.00729544,0.139649,20.9126,27.3741,-0.523445,0.0,0.0
424,105.75,98.123,117.133,134.116,99.0081,105.061,0.00731492,0.137608,20.9141,27.3741,-0.540008,0.0,0.0
426,106.25,97.2555,116.423,136.218,99.0408,105.221,0.00733408,0.135686,20.9155,27.3841,-0.550835,0.0,0.0
428,106.75,96.4875,116.095,135.74,99.0708,105.206,0.00735266,0.133888,20.9167,27.3841,-0.54676,0.0,0.0
430,107.25,96.422,115.853,134.089,99.1231,105.31,0.00736703,0.132187,20.9176,27.3641,-0.551028,0.0,0.0
432,107.75,95.491,115.657,135.609,99.1394,105.181,0.00737806,0.130589,20.9184,27.3741,-0.538312,0.0,0.0
434,108.25,95.277,114.944,134.982,99.1981,105.154,0.00738699,0.129295,20.919,27.3641,-0.530628,0.0,0.0
436,108.75,93.0175,112.455,135.602,99.2209,105.273,0.00738779,0.127767,20.9195,27.3641,-0.538784,0.0,0.0
438,109.25,92.5883,112.495,135.358,99.274,104.888,0.00738843,0.12653,20.9199,27.3441,-0.500611,0.0,0.0
440,109.75,91.8979,111.471,137.811,99.2951,105.352,0.00738828,0.125337,20.9207,27.3441,-0.538823,0.0,0.0
442,110.25,91.6354,111.019,136.409,99.3454,105.316,0.00738754,0.124199,20.9213,27.3241,-0.531102,0.0,0.0
444,110.75,91.3016,110.311,140.46,99.3786,105.334,0.00738627,0.123133,20.9218,27.3141,-0.529623,0.0,0.0
446,111.25,89.5862,110.218,136.914,99.4205,105.496,0.00738463,0.122139,20.9222,27.3141,-0.539779,0.0,0.0
448,111.75,90.1092,109.506,137.28,99.4628,105.459,0.00737991,0.121333,20.9225,27.294,-0.532682,0.0,0.0
450,112.25,89.4756,109.014,131.566,99.49,105.453,0.00737304,0.12029,20.9228,27.304,-0.529693,0.0,0.0
452,112.75,88.9828,108.752,139.107,99.5131,105.769,0.00736747,0.119446,20.923,27.304,-0.554814,0.0,0.0
454,113.25,88.632,107.976,134.654,99.5566,105.66,0.00735348,0.118594,20.9232,27.304,-0.541494,0.0,0.0
456,113.75,87.8994,107.398,133.327,99.5854,105.505,0.00733361,0.117753,20.9233,27.304,-0.525437,0.0,0.0
458,114.25,88.1295,106.853,138.238,99.6229,105.958,0.00731751,0.116943,20.9239,27.304,-0.560998,0.0,0.0
460,114.75,87.2946,106.992,136.427,99.6429,105.688,0.00727488,0.116171,20.9243,27.3141,-0.536018,0.0,0.0
462,115.25,86.999,105.759,136.947,99.6932,106.193,0.00724036,0.115545,20.9247,27.304,-0.574825,0.0,0.0
464,115.75,87.1515,105.478,138.706,99.6896,106.035,0.00721239,0.114692,20.9254,27.304,-0.561521,0.0,0.0
466,116.25,86.2251,104.942,136.437,99.7271,105.542,0.00714347,0.114,20.926,27.304,-0.515757,0.0,0.0
468,116.75,85.7247,104.626,136.599,99.7303,105.677,0.00708764,0.113273,20.9268,27.284,-0.527067,0.0,0.0
470,117.25,85.6212,104.266,137.567,99.7686,106.108,0.00701418,0.112534,20.9277,27.274,-0.560604,0.0,0.0
472,117.75,85.0268,103.537,137.334,99.7786,106.216,0.00695467,0.111814,20.9285,27.264,-0.568997,0.0,0.0
474,118.25,84.9312,103.517,139.133,99.8022,106.212,0.00687824,0.111122,20.9291,27.264,-0.566425,0.0,0.0
476,118.75,84.3821,102.538,136.128,99.8209,105.704,0.00681634,0.110561,20.9298,27.244,-0.521089,0.0,0.0
478,119.25,84.078,102.215,133.507,99.8477,105.924,0.00674824,0.109917,20.9306,27.254,-0.537587,0.0,0.0
480,119.75,83.8359,101.763,137.418,99.8457,105.912,0.00669308,0.109225,20.9313,27.254,-0.536764,0.0,0.0
482,120.25,83.5526,101.148,140.18,99.884,106.279,0.0066484,0.108665,20.9318,27.244,-0.56475,0.0,0.0
484,120.75,82.9224,101.513,132.326,99.8633,105.935,0.00659872,0.107937,20.9322,27.254,-0.537136,0.0,0.0
486,121.25,82.371,101.018,140.748,99.8872,105.993,0.00654634,0.107348,20.9325,27.244,-0.539942,0.0,0.0
488,121.75,82.2451,100.155,137.191,99.8916,106.022,0.00649717,0.106597,20.9328,27.244,-0.542015,0.0,0.0
490,122.25,81.9643,99.7247,136.633,99.896,106.309,0.00645128,0.105989,20.933,27.244,-0.566242,0.0,0.0
492,122.75,82.0026,99.4901,136.172,99.8788,106.004,0.0064141,0.105398,20.9335,27.234,-0.541633,0.0,0.0
494,123.25,81.3855,98.2302,136.158,99.9024,106.077,0.00637247,0.104831,20.934,27.234,-0.545787,0.0,0.0
496,123.75,81.4806,98.4161,135.657,99.882,106.122,0.00633874,0.104372,20.9347,27.224,-0.551465,0.0,0.0
498,124.25,81.1141,98.1955,134.635,99.906,105.915,0.00629606,0.104,20.9354,27.214,-0.531542,0.0,0.0
500,124.75,80.3757,98.0233,137.107,99.8776,105.887,0.00626149,0.103426,20.9363,27.224,-0.531725,0.0,0.0
502,125.25,80.0438,97.5661,136.084,99.8844,105.664,0.00620534,0.102832,20.9371,27.224,-0.51193,0.0,0.0
504,125.75,80.1126,97.2974,136.76,99.8661,105.821,0.00615986,0.102236,20.9379,27.214,-0.527089,0.0,0.0
506,126.25,79.5219,96.8931,139.373,99.8748,106.136,0.00608723,0.101753,20.9384,27.214,-0.553317,0.0,0.0
508,126.75,79.8132,96.7538,137.088,99.8593,106.145,0.0060284,0.101089,20.9389,27.1939,-0.555546,0.0,0.0
510,127.25,79.0627,96.312,136.452,99.8517,106.171,0.00598075,0.100551,20.9393,27.1939,-0.5584,0.0,0.0
512,127.75,78.9651,95.5488,139.373,99.8301,105.984,0.00589746,0.0998858,20.9396,27.204,-0.544371,0.0,0.0
514,128.25,78.0688,95.5443,136.264,99.8273,105.812,0.00582999,0.0993471,20.9403,27.1939,-0.529806,0.0,0.0
516,128.75,78.168,94.9874,138.202,99.8022,105.94,0.00575238,0.0986529,20.9408,27.1839,-0.543091,0.0,0.0
518,129.25,78.1216,94.4911,136.55,99.7918,105.862,0.00571929,0.0980905,20.9411,27.1739,-0.537343,0.0,0.0
520,129.75,77.6491,94.8473,136.652,99.7782,105.897,0.00564393,0.0975144,20.9415,27.1839,-0.541638,0.0,0.0
522,130.25,77.6464,94.1965,134.406,99.777,105.822,0.00556597,0.0969392,20.9418,27.1739,-0.535282,0.0,0.0
524,130.75,77.3194,93.595,136.555,99.7399,105.911,0.00550283,0.0964733,20.9423,27.1839,-0.546335,0.0,0.0
526,131.25,77.1904,93.0927,133.554,99.7367,106.239,0.00539056,0.0957954,20.9429,27.1839,-0.57475,0.0,0.0
528,131.75,76.8739,92.9504,138.401,99.7012,105.73,0.00529963,0.0952463,20.9436,27.1539,-0.534301,0.0,0.0
530,132.25,76.298,92.4751,136.672,99.678,105.636,0.00519988,0.0948541,20.9444,27.1639,-0.528272,0.0,0.0
532,132.75,76.372,92.5884,140.677,99.6557,106.138,0.00509559,0.0941835,20.9451,27.1639,-0.573504,0.0,0.0
534,133.25,76.0355,91.8604,135.529,99.6409,105.445,0.0049616,0.0936403,20.9456,27.1539,-0.515239,0.0,0.0
536,133.75,75.8759,91.3889,135.028,99.6117,105.547,0.00485306,0.0929716,20.946,27.1539,-0.526718,0.0,0.0
538,134.25,75.8384,91.2386,140.308,99.5962,105.686,0.00476515,0.0924299,20.9464,27.1539,-0.540053,0.0,0.0
540,134.75,75.1396,90.8791,135.835,99.5594,105.927,0.00464195,0.0917341,20.9471,27.1439,-0.564169,0.0,0.0
542,135.25,74.5513,90.2774,137.869,99.5463,105.549,0.00454216,0.0911704,20.9481,27.1439,-0.532818,0.0,0.0
544,135.75,75.1257,90.6745,136.117,99.5247,105.842,0.00444612,0.0904283,20.9489,27.1339,-0.560029,0.0,0.0
546,136.25,74.5356,90.0976,138.359,99.4952,105.969,0.00436834,0.0898273,20.9496,27.1539,-0.573682,0.0,0.0
548,136.75,74.5968,89.8664,140.232,99.462,105.863,0.00430026,0.0891827,20.9504,27.1539,-0.567582,0.0,0.0
550,137.25,74.0535,89.4742,138.333,99.4433,105.266,0.00424512,0.0885187,20.9512,27.1439,-0.517826,0.0,0.0
552,137.75,74.4528,89.4988,140.851,99.4229,105.639,0.00419913,0.0879809,20.9519,27.1339,-0.551866,0.0,0.0
554,138.25,73.9247,89.0498,136.452,99.3766,105.295,0.00416067,0.0873726,20.9524,27.1339,-0.526421,0.0,0.0
556,138.75,73.1121,88.806,135.166,99.3442,105.69,0.00412952,0.0867247,20.9533,27.1339,-0.563451,0.0,0.0
558,139.25,73.556,88.4072,138.22,99.3119,105.431,0.00409562,0.0860873,20.954,27.1239,-0.54409,0.0,0.0
560,139.75,72.9746,87.8921,136.676,99.3007,105.555,0.00406037,0.0854699,20.9546,27.1239,-0.555876,0.0,0.0
562,140.25,73.0102,87.5726,140.638,99.2868,105.36,0.00402316,0.0848348,20.9551,27.1239,-0.540292,0.0,0.0
564,140.75,72.5607,86.9625,134.419,99.2424,105.507,0.00398522,0.084199,20.9559,27.1139,-0.557025,0.0,0.0
566,141.25,72.7489,86.9076,137.622,99.2201,105.523,0.00395449,0.083684,20.9565,27.1139,-0.560474,0.0,0.0
568,141.75,72.1939,87.098,136.083,99.2041,105.744,0.0039296,0.0830796,20.9571,27.1239,-0.580948,0.0,0.0
570,142.25,71.8823,86.295,135.545,99.1809,105.189,0.0038576,0.0824216,20.9575,27.1339,-0.535242,0.0,0.0
572,142.75,71.9506,86.2823,134.962,99.1805,105.291,0.00379928,0.0817763,20.9579,27.1039,-0.544078,0.0,0.0
574,143.25,71.6306,86.0259,138.397,99.1574,105.332,0.00371288,0.0811526,20.9584,27.1039,-0.549705,0.0,0.0
576,143.75,71.8753,85.2508,139.123,99.1618,105.417,0.0036429,0.0806473,20.959,27.1039,-0.556692,0.0,0.0
578,144.25,71.7857,85.4638,138.38,99.1402,105.316,0.00354333,0.0799681,20.9597,27.1039,-0.549959,0.0,0.0
580,144.75,71.203,85.1784,135.366,99.1502,105.543,0.00346267,0.0794179,20.9605,27.0939,-0.568632,0.0,0.0
582,145.25,71.6239,84.5941,142.149,99.1478,105.336,0.00336457,0.0789722,20.9612,27.1039,-0.550974,0.0,0.0
584,145.75,71.1894,84.6742,135.94,99.1762,105.339,0.00328511,0.0783981,20.9617,27.1039,-0.548606,0.0,0.0
586,146.25,70.8076,84.835,140.906,99.2149,105.437,0.00320312,0.0779331,20.9624,27.1039,-0.553569,0.0,0.0
588,146.75,70.0822,84.5518,136.623,99.2444,105.41,0.0031367,0.0773293,20.9631,27.0939,-0.548487,0.0,0.0
590,147.25,70.4998,83.9816,136.134,99.2648,105.095,0.00308165,0.0768402,20.9637,27.0939,-0.519406,0.0,0.0
592,147.75,70.6878,83.7044,139.249,99.3139,105.703,0.00303705,0.0762312,20.9642,27.0939,-0.567393,0.0,0.0
594,148.25,70.4185,83.4251,138.736,99.3139,105.396,0.00300093,0.0757378,20.9646,27.0839,-0.540877,0.0,0.0
596,148.75,69.9862,83.2155,134.622,99.3658,105.908,0.00297419,0.0751964,20.9651,27.0738,-0.5803,0.0,0.0
598,149.25,69.6052,83.1131,140.425,99.3814,105.535,0.00295253,0.0747578,20.9658,27.0839,-0.546702,0.0,0.0
600,149.75,69.8573,82.9083,136.489,99.4113,105.524,0.00292995,0.0743354,20.9663,27.0939,-0.543067,0.0,0.0
602,150.25,69.5014,82.7633,137.121,99.4173,105.768,0.00291166,0.0739328,20.9667,27.0839,-0.563504,0.0,0.0
604,150.75,69.6282,82.4222,135.143,99.4337,105.894,0.00287544,0.0735395,20.9671,27.0738,-0.572848,0.0,0.0
606,151.25,69.9772,82.1075,136.696,99.4037,105.84,0.00284611,0.0731605,20.9674,27.0738,-0.570943,0.0,0.0
608,151.75,69.1112,81.8176,134.821,99.4201,105.566,0.00280117,0.0728535,20.9676,27.0738,-0.545874,0.0,0.0
610,152.25,69.2553,80.9041,136.291,99.4113,105.559,0.00274571,0.0724631,20.9682,27.0839,-0.546096,0.0,0.0
612,152.75,68.9453,81.2233,139.529,99.4389,105.887,0.00270078,0.0721469,20.9687,27.0839,-0.571792,0.0,0.0
614,153.25,68.6999,81.3965,141.084,99.462,106.081,0.0026267,0.0717864,20.9691,27.0738,-0.586299,0.0,0.0
616,153.75,68.8715,80.784,137.959,99.4824,105.777,0.00256669,0.0714004,20.9695,27.0839,-0.558323,0.0,0.0
618,154.25,68.3669,80.5311,135.752,99.4776,105.784,0.00249424,0.0709834,20.97,27.0839,-0.559381,0.0,0.0
620,154.75,68.4671,80.144,138.295,99.5079,106.198,0.00243555,0.0705517,20.9706,27.0939,-0.592175,0.0,0.0
622,155.25,67.6719,80.2889,135.509,99.4972,106.143,0.00237679,0.070202,20.9711,27.0939,-0.588375,0.0,0.0
624,155.75,68.0184,80.1925,138.651,99.5594,106.047,0.00231909,0.0697913,20.9715,27.1039,-0.574453,0.0,0.0
626,156.25,68.0583,80.0054,137.592,99.557,106.007,0.0022651,0.0694587,20.9718,27.1039,-0.571271,0.0,0.0
628,156.75,68.1004,79.1267,139.868,99.6157,105.839,0.00221482,0.0690619,20.9721,27.0839,-0.551478,0.0,0.0
630,157.25,67.6429,79.2237,136.281,99.6153,105.662,0.00217411,0.0687404,20.9723,27.1039,-0.536247,0.0,0.0
632,157.75,67.9839,79.1184,135.74,99.6589,106.009,0.00212232,0.0684354,20.9727,27.1039,-0.562163,0.0,0.0
634,158.25,67.701,79.3137,135.08,99.6628,105.94,0.00208038,0.0681481,20.9732,27.0839,-0.555844,0.0,0.0
636,158.75,67.4968,79.074,136.107,99.6968,106.044,0.00202636,0.0679154,20.9736,27.1039,-0.561638,0.0,0.0
638,159.25,67.2015,78.6411,139.014,99.6944,106.034,0.0019826,0.0676137,20.974,27.1139,-0.561006,0.0,0.0
640,159.75,67.4168,78.1594,143.683,99.7235,106.075,0.00192838,0.0673694,20.9743,27.1139,-0.561863,0.0,0.0
642,160.25,66.9166,78.4066,136.331,99.7375,105.967,0.00188446,0.0670583,20.9745,27.1039,-0.55135,0.0,0.0
644,160.75,67.0155,78.3269,141.654,99.7698,105.894,0.00183011,0.0668063,20.9747,27.0939,-0.542171,0.0,0.0
646,161.25,67.0586,77.4512,139.424,99.7599,105.966,0.00178609,0.0664891,20.9748,27.1139,-0.549233,0.0,0.0
648,161.75,66.8693,77.4371,134.787,99.797,105.849,0.00175043,0.0662321,20.975,27.1139,-0.535747,0.0,0.0
650,162.25,66.6576,77.9507,138.976,99.7926,106.191,0.00172155,0.065925,20.9751,27.1139,-0.565524,0.0,0.0
652,162.75,66.5736,77.6539,138.478,99.8126,106.125,0.0016469,0.0656763,20.975,27.1239,-0.558067,0.0,0.0
654,163.25,66.7676,77.0637,133.906,99.8174,106.214,0.00158643,0.0654324,20.9749,27.1139,-0.565273,0.0,0.0
656,163.75,66.5185,77.498,139.33,99.8413,105.579,0.0015105,0.0652348,20.9747,27.1139,-0.508487,0.0,0.0
658,164.25,66.6415,76.897,135.709,99.8349,106.244,0.00142476,0.0650748,20.9746,27.1039,-0.566255,0.0,0.0
660,164.75,66.2651,76.8734,139.953,99.8657,106.12,0.00133824,0.0648634,20.9745,27.1139,-0.552802,0.0,0.0
662,165.25,66.2666,76.6776,139.415,99.8381,105.671,0.0012528,0.0646185,20.9745,27.1239,-0.516732,0.0,0.0
664,165.75,66.124,76.2902,136.078,99.8804,106.212,0.00118162,0.0644201,20.9744,27.1239,-0.559369,0.0,0.0
666,166.25,65.8205,76.2066,138.506,99.8597,106.058,0.0011222,0.0641479,20.9744,27.1339,-0.548056,0.0,0.0
668,166.75,65.9983,75.9663,134.445,99.8677,106.183,0.00108063,0.063827,20.9743,27.1439,-0.558025,0.0,0.0
670,167.25,66.2505,75.9416,139.61,99.8653,106.246,0.00105286,0.0635671,20.9747,27.1439,-0.563644,0.0,0.0
672,167.75,65.9721,75.5648,136.046,99.8633,106.483,0.0010389,0.0632577,20.9751,27.1439,-0.584053,0.0,0.0
674,168.25,65.789,75.1278,136.585,99.8549,106.358,0.00103528,0.0630071,20.9753,27.1639,-0.574151,0.0,0.0
676,168.75,65.8855,75.6289,138.559,99.8645,106.095,0.00103234,0.0627335,20.9756,27.1839,-0.550749,0.0,0.0
678,169.25,65.8264,75.3593,140.541,99.8605,105.935,0.00103994,0.0625119,20.9757,27.1439,-0.537351,0.0,0.0
680,169.75,65.4527,75.0985,139.742,99.8565,106.08,0.0010461,0.0622759,20.9763,27.1139,-0.550241,0.0,0.0
682,170.25,65.4953,74.6619,143.077,99.8473,106.421,0.00104846,0.0620551,20.9768,27.0939,-0.580273,0.0,0.0
684,170.75,65.4089,74.6868,138.304,99.8365,106.027,0.00104801,0.0618494,20.9772,27.0738,-0.547461,0.0,0.0
686,171.25,65.3514,74.1505,141.197,99.8297,105.934,0.0010437,0.0616828,20.9775,27.1039,-0.540115,0.0,0.0
688,171.75,65.1691,74.3172,140.059,99.8142,106.05,0.00103667,0.061435,20.9777,27.0939,-0.55151,0.0,0.0
690,172.25,65.2205,74.119,138.423,99.8014,105.748,0.00102966,0.0612343,20.9779,27.0638,-0.526671,0.0,0.0
692,172.75,65.1151,73.8211,137.333,99.7974,105.581,0.0010228,0.0610197,20.9781,27.0638,-0.512685,0.0,0.0
694,173.25,65.2824,74.3426,137.003,99.7922,106.285,0.00101724,0.060799,20.9782,27.0238,-0.57366,0.0,0.0
696,173.75,64.9534,73.7931,133.146,99.7798,106.053,0.00102397,0.0605906,20.9783,27.0538,-0.554911,0.0,0.0
698,174.25,64.9638,73.47,138.714,99.7603,106.218,0.00102942,0.0603951,20.9784,27.0438,-0.570827,0.0,0.0
700,174.75,64.56,73.2959,135.7,99.7435,105.982,0.00103882,0.0601922,20.9785,27.0438,-0.552079,0.0,0.0
702,175.25,64.6769,73.2806,138.146,99.7351,106.13,0.00104644,0.0599877,20.9785,27.1039,-0.565557,0.0,0.0
704,175.75,64.3233,73.3085,137.705,99.7016,105.875,0.00105261,0.0598221,20.9786,27.1039,-0.546698,0.0,0.0
706,176.25,64.1947,72.6643,132.71,99.7004,105.994,0.00105885,0.0596174,20.9786,27.0839,-0.557097,0.0,0.0
708,176.75,64.145,72.324,135.866,99.6836,105.592,0.00106391,0.0594516,20.9787,27.1039,-0.524038,0.0,0.0
710,177.25,64.1846,72.4609,140.307,99.6656,106.044,0.00107051,0.0592802,20.9789,27.1039,-0.56452,0.0,0.0
712,177.75,63.9381,72.6732,137.487,99.6373,105.172,0.00107585,0.0591079,20.9793,27.0638,-0.491986,0.0,0.0
714,178.25,63.9936,72.6945,136.962,99.6393,105.388,0.00108017,0.0589684,20.9797,27.0638,-0.510448,0.0,0.0
716,178.75,64.2847,72.0925,137.756,99.601,105.588,0.00108368,0.0587285,20.9799,27.0839,-0.531197,0.0,0.0
718,179.25,64.3293,71.7807,138.204,99.5718,105.755,0.00107995,0.0585342,20.9802,27.1139,-0.548247,0.0,0.0
720,179.75,64.052,71.9956,142.751,99.5507,105.781,0.00107102,0.05831,20.9803,27.1239,-0.55239,0.0,0.0
722,180.25,63.742,71.7063,134.519,99.5475,105.894,0.00105263,0.0580683,20.9807,27.0738,-0.5624,0.0,0.0
724,180.75,63.7975,71.7866,136.15,99.5191,106.12,0.00102769,0.0578726,20.9812,27.0738,-0.584398,0.0,0.0
726,181.25,63.8556,71.5683,141.985,99.4964,105.888,0.000998955,0.057714,20.9819,27.0839,-0.566571,0.0,0.0
728,181.75,63.0471,71.3374,143.045,99.4632,105.314,0.000968007,0.0575707,20.9826,27.0738,-0.520164,0.0,0.0
730,182.25,63.0809,71.5865,137.589,99.4516,105.524,0.00094294,0.0574413,20.9832,27.0638,-0.539377,0.0,0.0
732,182.75,63.5982,71.1617,139.448,99.4425,105.947,0.000910175,0.0572994,20.9837,27.1239,-0.576608,0.0,0.0
734,183.25,63.2034,71.1527,136.681,99.4576,105.573,0.000883636,0.0571511,20.984,27.0839,-0.542983,0.0,0.0
736,183.75,63.2116,70.9131,138.308,99.4441,105.123,0.000862139,0.0569791,20.9844,27.0939,-0.505365,0.0,0.0
738,184.25,63.3585,71.204,137.284,99.4564,106.09,0.000828535,0.056793,20.9846,27.0939,-0.587583,0.0,0.0
740,184.75,62.8934,70.4754,136.689,99.4596,105.415,0.000801316,0.0566422,20.9846,27.0939,-0.529243,0.0,0.0
742,185.25,62.5424,70.4944,137.583,99.4688,106.021,0.000779268,0.0564497,20.9844,27.1039,-0.580577,0.0,0.0
744,185.75,62.8233,70.2064,138.011,99.4764,105.618,0.000731536,0.0562938,20.9844,27.1039,-0.545224,0.0,0.0
746,186.25,62.61,70.4493,140.46,99.4916,105.89,0.000692873,0.0561674,20.9847,27.1339,-0.567203,0.0,0.0
748,186.75,62.8287,70.1184,135.628,99.4632,105.7,0.000646628,0.0560651,20.985,27.0939,-0.553449,0.0,0.0
750,187.25,62.3902,69.7575,138.178,99.492,106.074,0.000609169,0.0559822,20.9852,27.0939,-0.582941,0.0,0.0
752,187.75,63.0634,70.2398,136.731,99.478,105.393,0.000572938,0.0559151,20.9853,27.0939,-0.525657,0.0,0.0
754,188.25,62.5691,69.7644,136.799,99.4884,105.734,0.000538288,0.0558163,20.985,27.0939,-0.554094,0.0,0.0
756,188.75,62.2435,69.6101,140.013,99.4924,105.713,0.00050695,0.0556961,20.9848,27.1239,-0.551946,0.0,0.0
758,189.25,62.0643,69.4117,143.241,99.5099,106.034,0.000478622,0.0555692,20.9846,27.1539,-0.577898,0.0,0.0
760,189.75,62.2002,69.2848,138.876,99.5039,105.739,0.000455676,0.0554397,20.9844,27.1339,-0.553096,0.0,0.0
762,190.25,62.2611,69.0081,140.225,99.5187,105.736,0.000433165,0.0553274,20.9843,27.1739,-0.551435,0.0,0.0
764,190.75,62.6271,69.1905,139.2,99.5107,105.433,0.000411398,0.0552297,20.9846,27.1639,-0.526084,0.0,0.0
766,191.25,61.92,68.7117,139.508,99.5387,105.872,0.000391804,0.0551432,20.9849,27.1439,-0.561385,0.0,0.0
768,191.75,62.0389,68.6996,136.784,99.5275,105.493,0.000374168,0.0550665,20.9846,27.1339,-0.529757,0.0,0.0
770,192.25,62.1942,68.7996,136.46,99.5479,105.746,0.00035792,0.0550043,20.9845,27.1239,-0.549662,0.0,0.0
772,192.75,62.1058,68.6939,141.155,99.5387,105.685,0.000342993,0.0548976,20.9843,27.0839,-0.545269,0.0,0.0
774,193.25,62.3267,68.2554,137.039,99.5554,105.623,0.000325017,0.0548112,20.9842,27.0939,-0.538422,0.0,0.0
776,193.75,62.1784,68.4451,140.423,99.5443,105.571,0.00030516,0.0547412,20.9841,27.0939,-0.534903,0.0,0.0
778,194.25,61.8583,68.4342,138.337,99.569,105.739,0.000289076,0.0546423,20.984,27.0939,-0.547108,0.0,0.0
780,194.75,61.7051,68.2759,137.464,99.5618,105.61,0.000264282,0.0545622,20.984,27.0939,-0.536713,0.0,0.0
782,195.25,62.0494,68.4159,136.544,99.5774,105.671,0.00023361,0.0544973,20.9839,27.1039,-0.540488,0.0,0.0
784,195.75,61.7832,68.1688,138.727,99.5762,105.523,0.000197661,0.0544299,20.9839,27.1039,-0.527908,0.0,0.0
786,196.25,61.459,68.037,139.196,99.5878,106.165,0.000158548,0.0543619,20.9838,27.1039,-0.58202,0.0,0.0
788,196.75,61.2531,67.2325,136.882,99.603,105.314,0.000126866,0.0543069,20.9838,27.0839,-0.507387,0.0,0.0
790,197.25,61.6889,67.9625,136.676,99.6185,105.409,9.20617e-05,0.054206,20.9838,27.0538,-0.514172,0.0,0.0
792,197.75,61.7382,67.4535,140.614,99.6121,105.795,4.01151e-05,0.0541243,20.9844,27.0738,-0.54805,0.0,0.0
794,198.25,61.0866,67.6858,137.085,99.6205,105.904,9.84224e-06,0.0540137,20.9847,27.0939,-0.556614,0.0,0.0
796,198.75,61.9933,67.5223,139.107,99.6049,105.899,-3.06356e-06,0.0538841,20.9848,27.1039,-0.557611,0.0,0.0
798,199.25,61.506,67.3836,141.587,99.6341,106.11,-3.03569e-05,0.0537791,20.9851,27.0939,-0.573079,0.0,0.0
800,199.75,61.6992,67.7373,139.44,99.6237,106.104,-5.71665e-05,0.053694,20.9852,27.0738,-0.573525,0.0,0.0
802,200.25,61.2295,67.2668,137.964,99.6369,105.967,-8.28008e-05,0.0536251,20.9854,27.1139,-0.560534,0.0,0.0
804,200.75,61.5984,67.2462,139.743,99.6317,105.71,-0.000107091,0.0534892,20.9855,27.1139,-0.538901,0.0,0.0
806,201.25,61.2769,67.2267,138.53,99.6401,105.815,-0.000126766,0.053403,20.9856,27.1039,-0.547162,0.0,0.0
808,201.75,61.4557,67.1914,136.189,99.6461,106.009,-0.000145185,0.0533439,20.9857,27.1039,-0.56333,0.0,0.0
810,202.25,61.1749,66.4912,138.62,99.6533,105.92,-0.000160105,0.0532431,20.9857,27.0839,-0.554978,0.0,0.0
812,202.75,60.865,66.3455,136.384,99.6381,106.256,-0.000170948,0.0531613,20.986,27.0738,-0.585218,0.0,0.0
814,203.25,61.2004,66.8544,134.763,99.6569,105.789,-0.000179731,0.0530811,20.9865,27.0538,-0.543384,0.0,0.0
816,203.75,61.2134,66.5488,137.554,99.6572,105.989,-0.000182274,0.053016,20.9868,27.0738,-0.56057,0.0,0.0
818,204.25,61.0772,66.4162,135.712,99.6596,105.833,-0.000180219,0.052893,20.9871,27.0939,-0.546964,0.0,0.0
820,204.75,61.2193,66.2687,139.662,99.6417,105.747,-0.000178555,0.0527934,20.9873,27.0939,-0.541205,0.0,0.0
822,205.25,61.0953,66.3543,142.735,99.662,105.625,-0.000175901,0.0526564,20.9875,27.1239,-0.5288,0.0,0.0
824,205.75,60.7031,66.3089,137.923,99.6632,105.768,-0.000172576,0.0525454,20.9877,27.1339,-0.541019,0.0,0.0
826,206.25,60.7399,66.4419,136.398,99.6553,105.23,-0.000173801,0.0524481,20.9878,27.1439,-0.495369,0.0,0.0
828,206.75,61.0294,66.0218,137.085,99.6557,105.513,-0.00017832,0.0523627,20.9879,27.1339,-0.519717,0.0,0.0
830,207.25,61.3509,66.5095,138.943,99.6712,105.647,-0.000185246,0.0522934,20.988,27.1339,-0.529901,0.0,0.0
832,207.75,60.5557,66.0673,136.318,99.668,105.486,-0.000193794,0.0522514,20.988,27.1539,-0.516296,0.0,0.0
834,208.25,60.5613,65.3643,136.765,99.6732,105.895,-0.000200719,0.0522174,20.9881,27.1239,-0.551065,0.0,0.0
836,208.75,60.7203,65.6473,138.879,99.6589,105.989,-0.000209593,0.0521528,20.9881,27.1039,-0.560424,0.0,0.0
838,209.25,61.1417,65.9424,141.43,99.676,105.619,-0.000214923,0.0520672,20.9882,27.1039,-0.527059,0.0,0.0
840,209.75,60.6325,65.7451,139.891,99.6604,106.043,-0.000224037,0.0519904,20.9885,27.1039,-0.564916,0.0,0.0
842,210.25,61.0843,66.0054,138.633,99.6668,105.456,-0.000220252,0.0519216,20.9886,27.0839,-0.513841,0.0,0.0
844,210.75,59.8443,65.7875,139.578,99.6744,106.082,-0.000217186,0.0518658,20.9887,27.0839,-0.567001,0.0,0.0
846,211.25,60.5234,65.3102,141.941,99.6776,106.1,-0.000214703,0.0518207,20.9889,27.0738,-0.568255,0.0,0.0
848,211.75,60.3415,65.3735,139.052,99.6856,105.746,-0.000204201,0.0517841,20.9889,27.0839,-0.537079,0.0,0.0
850,212.25,60.4972,64.9608,142.157,99.688,106.025,-0.000188054,0.0517685,20.989,27.0939,-0.560816,0.0,0.0
852,212.75,60.4093,65.5525,138.121,99.6908,105.665,-0.000174975,0.051727,20.9891,27.1039,-0.529666,0.0,0.0
854,213.25,60.0232,65.0538,140.747,99.6896,106.076,-0.00016438,0.0516801,20.9891,27.0939,-0.565038,0.0,0.0
856,213.75,60.1596,65.0383,141.925,99.704,106.102,-0.00016233,0.0516421,20.9892,27.1139,-0.566004,0.0,0.0
858,214.25,59.7568,65.2808,138.162,99.6976,106.176,-0.000166547,0.051541,20.9892,27.0839,-0.572957,0.0,0.0
860,214.75,60.1428,64.9753,140.042,99.6956,105.775,-0.000179105,0.0514591,20.9892,27.0738,-0.538687,0.0,0.0
862,215.25,60.0846,64.7022,141.785,99.6956,105.836,-0.000197506,0.0514001,20.9892,27.0638,-0.543915,0.0,0.0
864,215.75,59.8885,64.2875,137.302,99.6976,105.532,-0.000212411,0.0513591,20.9892,27.0738,-0.51756,0.0,0.0
866,216.25,60.2778,64.9959,138.95,99.6852,106.146,-0.000250481,0.0513406,20.9895,27.0939,-0.571462,0.0,0.0
868,216.75,59.8255,64.5083,137.661,99.6796,105.436,-0.000281317,0.051339,20.9899,27.1139,-0.510925,0.0,0.0
870,217.25,59.7174,64.7938,140.662,99.6784,105.731,-0.000317463,0.0513376,20.9901,27.0939,-0.536418,0.0,0.0
872,217.75,60.1429,64.5308,137.437,99.6944,105.812,,0.0513366,,27.0939,-0.541972,0.0,0.0
874,218.25,59.8512,64.5041,139.568,99.6984,106.023,,0.0513066,,27.0939,-0.559752,0.0,0.0
876,218.75,60.0111,63.5798,138.147,99.6884,105.799,,0.0512563,,27.1139,-0.541396,0.0,0.0
878,219.25,60.0417,64.5217,138.038,99.6744,105.652,,0.0512155,,27.0638,-0.530035,0.0,0.0
880,219.75,59.2348,64.2878,139.307,99.6848,106.022,,0.0511824,,27.1039,-0.560915,0.0,0.0
882,220.25,60.2203,64.0795,135.82,99.6744,105.89,,0.0511556,,27.1239,-0.550453,0.0,0.0
884,220.75,59.2168,64.3856,134.818,99.6764,105.769,,,,27.1339,-0.539894,0.0,0.0
886,221.25,59.8492,64.0614,142.345,99.6632,105.956,,,,27.1039,-0.557161,0.0,0.0
888,221.75,59.9718,63.8169,141.049,99.686,105.953,,,,27.1139,-0.554813,0.0,0.0
890,222.25,59.4726,63.6669,139.812,99.6748,105.919,,,,27.0839,-0.552932,0.0,0.0
892,222.75,60.0404,63.8407,139.078,99.6948,105.305,,,,27.0839,-0.498222,0.0,0.0
894,223.25,59.3911,63.5588,136.197,99.6772,105.674,,,,27.0638,-0.531642,0.0,0.0
896,223.75,59.572,63.2935,139.068,99.6848,105.668,,,,27.0839,-0.530446,0.0,0.0
898,224.25,59.6735,63.5745,141.764,99.6716,105.498,,,,27.0638,-0.516978,0.0,0.0
900,224.75,59.6316,63.7333,141.234,99.684,105.769,,,,27.1339,-0.539201,0.0,0.0
902,225.25,59.3501,63.6458,140.965,99.666,105.863,,,,27.1039,-0.548974,0.0,0.0
904,225.75,59.6174,63.4415,139.254,99.6788,105.994,,,,27.0638,-0.559065,0.0,0.0
906,226.25,59.3085,63.282,135.861,99.6628,105.797,,,,27.0438,-0.543573,0.0,0.0
908,226.75,59.3242,63.002,139.315,99.672,105.925,,,,27.0738,-0.553728,0.0,0.0
910,227.25,59.2396,63.3424,137.28,99.6612,105.651,,,,27.0839,-0.531161,0.0,0.0
912,227.75,58.9556,63.0504,136.679,99.6632,105.722,,,,27.0238,-0.537028,0.0,0.0
914,228.25,59.6321,63.2391,140.694,99.6529,105.746,,,,27.0138,-0.540107,0.0,0.0