File: 01_Data/Feather_PillowB_Feathers/MCC/Feather_PillowB_Feathers_MCC_30K_min_220107_R3.txt
Sample ID:	C:\MCC\MCC Cal\Test\Feather_PillowB_Feathers_MCC_30K_min_220107_R3.txt
Sample Weight (mg):	4.85
Heating Rate (C/s):	0.5
Combustor Temp (C):	900
N2 Flow Rate (cc/min):	80
O2 Flow Rate (cc/min):	20
Calibration File:	C:\MCC\MCC Cal\Coeff1 JN10440_30_210304.txt.txt
T Correction Coefficients:	0	1.024463	0
Time Shift (s):	14
*
Time (s)	Temperature (C)	N2 flow rate (cc/min)	O2 flow rate (cc/min)	Flow Rate (cc/min)	Oxygen (%)	HRR (W/g)	Heating rate (C/s)
0.000	109.972	80.003	19.994	104.089	20.084	-0.176	0.008
2.000	110.013	80.005	19.994	104.088	20.084	-0.233	0.011
4.000	110.021	80.002	19.996	104.104	20.083	-0.147	0.005
6.000	109.989	80.005	19.996	104.109	20.083	-0.136	-0.027
8.000	110.019	80.005	19.992	104.102	20.078	0.169	0.029
10.001	110.004	80.006	19.992	104.088	20.080	0.077	-0.004
12.001	110.001	80.008	19.991	104.125	20.080	0.040	-0.012
14.000	110.056	80.007	19.993	104.129	20.076	0.323	0.018
16.000	110.040	80.015	19.990	104.156	20.072	0.628	-0.012
18.000	110.026	80.003	19.994	104.169	20.073	0.503	-0.049
20.000	110.071	80.006	19.994	104.191	20.070	0.720	-0.002
22.000	110.110	80.006	19.993	104.185	20.070	0.761	0.018
24.000	110.204	80.004	19.994	104.184	20.067	0.925	0.044
26.000	110.318	80.006	19.993	104.185	20.063	1.235	0.045
28.000	110.418	80.000	19.993	104.214	20.065	1.107	0.086
30.000	110.558	80.000	19.994	104.218	20.063	1.182	0.052
32.000	110.735	80.004	19.994	104.246	20.061	1.351	0.099
34.000	110.904	80.004	19.994	104.263	20.053	1.853	0.049
36.001	111.114	80.000	19.996	104.262	20.047	2.282	0.127
38.001	111.333	80.002	19.995	104.296	20.047	2.254	0.144
40.000	111.586	79.996	19.995	104.286	20.049	2.164	0.143
42.001	111.894	80.005	19.992	104.290	20.046	2.328	0.188
44.000	112.181	80.006	19.993	104.292	20.045	2.407	0.143
46.000	112.500	80.005	19.993	104.280	20.045	2.419	0.163
48.000	112.796	80.007	19.996	104.291	20.044	2.481	0.187
50.000	113.188	80.010	19.993	104.279	20.044	2.496	0.162
52.000	113.554	79.996	19.995	104.302	20.043	2.550	0.182
54.000	113.994	79.993	19.995	104.300	20.043	2.538	0.225
56.000	114.433	79.990	19.995	104.308	20.042	2.641	0.210
58.000	114.859	80.004	19.994	104.326	20.043	2.545	0.214
60.001	115.340	80.006	19.994	104.310	20.041	2.665	0.288
62.000	115.791	80.004	19.994	104.331	20.040	2.728	0.239
64.000	116.242	80.002	19.996	104.344	20.037	2.985	0.231
66.001	116.774	80.013	19.992	104.315	20.036	3.009	0.260
68.000	117.311	80.005	19.994	104.301	20.033	3.245	0.259
70.000	117.865	80.005	19.995	104.305	20.036	2.992	0.277
72.000	118.472	80.007	19.993	104.337	20.034	3.160	0.310
74.000	119.003	80.008	19.992	104.336	20.033	3.225	0.267
76.000	119.564	80.010	19.993	104.330	20.029	3.492	0.296
78.000	120.142	80.001	19.995	104.341	20.030	3.389	0.300
80.000	120.769	80.009	19.989	104.347	20.036	3.042	0.312
82.000	121.387	80.005	19.993	104.363	20.036	3.049	0.283
84.001	122.068	80.003	19.996	104.372	20.037	2.970	0.348
86.000	122.748	80.006	19.991	104.339	20.034	3.144	0.319
88.000	123.347	80.006	19.995	104.329	20.032	3.277	0.312
90.000	124.038	79.991	19.993	104.310	20.033	3.218	0.316
92.000	124.768	80.008	19.996	104.317	20.030	3.391	0.354
94.000	125.486	80.006	19.993	104.332	20.033	3.247	0.361
96.000	126.195	80.007	19.996	104.319	20.031	3.365	0.341
98.000	126.937	80.005	19.993	104.350	20.035	3.115	0.381
100.000	127.642	80.005	19.995	104.354	20.036	3.010	0.346
102.000	128.390	80.004	19.994	104.353	20.032	3.291	0.359
104.000	129.159	79.985	20.000	104.362	20.032	3.293	0.397
106.000	129.922	80.000	19.992	104.347	20.028	3.567	0.401
108.000	130.682	80.020	19.993	104.344	20.029	3.465	0.365
110.000	131.459	79.997	19.994	104.352	20.029	3.489	0.400
112.001	132.251	80.003	19.995	104.355	20.031	3.336	0.431
114.000	132.993	79.993	19.995	104.334	20.030	3.391	0.352
116.000	133.826	80.003	19.994	104.342	20.032	3.321	0.409
118.000	134.645	80.014	19.993	104.358	20.031	3.364	0.415
120.001	135.415	80.005	19.991	104.366	20.029	3.477	0.407
122.000	136.206	80.014	19.995	104.363	20.027	3.634	0.426
124.001	137.064	80.004	19.994	104.356	20.031	3.329	0.439
126.000	137.930	80.008	19.993	104.348	20.029	3.474	0.461
128.000	138.780	80.012	19.990	104.367	20.027	3.647	0.445
130.000	139.664	80.002	19.993	104.355	20.026	3.700	0.454
132.000	140.503	80.007	19.994	104.359	20.028	3.566	0.443
134.000	141.369	79.997	19.995	104.363	20.025	3.778	0.418
136.000	142.276	80.008	19.994	104.375	20.026	3.666	0.437
138.000	143.204	80.006	19.995	104.376	20.026	3.676	0.452
140.000	144.093	80.003	19.994	104.364	20.026	3.697	0.457
142.000	145.017	80.004	19.992	104.366	20.027	3.640	0.481
144.000	145.938	80.003	19.996	104.379	20.024	3.818	0.446
146.000	146.860	80.004	19.995	104.366	20.026	3.720	0.437
148.000	147.768	80.002	19.993	104.369	20.025	3.781	0.445
150.000	148.696	80.004	19.997	104.340	20.028	3.588	0.461
152.000	149.638	80.007	19.997	104.349	20.026	3.702	0.505
154.000	150.657	80.009	19.994	104.376	20.026	3.702	0.505
156.000	151.532	80.015	19.993	104.343	20.024	3.826	0.461
158.000	152.497	80.005	19.994	104.350	20.021	4.019	0.446
160.000	153.442	80.003	19.994	104.362	20.023	3.927	0.465
162.000	154.434	80.006	19.995	104.354	20.021	4.028	0.516
164.000	155.390	80.011	19.994	104.354	20.025	3.781	0.510
166.000	156.345	80.006	19.993	104.369	20.028	3.560	0.481
168.000	157.319	80.003	19.995	104.369	20.024	3.837	0.487
170.000	158.309	80.012	19.994	104.374	20.024	3.832	0.474
172.000	159.284	80.003	19.994	104.372	20.027	3.626	0.521
174.000	160.268	80.000	19.992	104.371	20.025	3.744	0.467
176.000	161.254	80.000	19.994	104.370	20.024	3.852	0.498
178.000	162.282	80.007	19.995	104.347	20.025	3.779	0.518
180.000	163.258	80.015	19.993	104.336	20.022	3.928	0.528
182.000	164.275	80.004	19.994	104.337	20.025	3.758	0.517
184.000	165.267	80.005	19.994	104.356	20.022	3.967	0.504
186.000	166.255	80.023	19.993	104.339	20.022	3.990	0.496
188.000	167.264	80.003	19.994	104.350	20.023	3.892	0.466
190.000	168.280	80.004	19.992	104.349	20.026	3.678	0.513
192.000	169.296	80.002	19.991	104.337	20.025	3.777	0.499
194.000	170.290	80.010	19.991	104.347	20.023	3.899	0.487
196.000	171.292	80.001	19.996	104.345	20.035	3.090	0.470
198.000	172.285	80.003	19.994	104.350	20.035	3.115	0.454
200.000	173.333	80.007	19.993	104.367	20.022	3.982	0.471
202.000	174.393	80.003	19.994	104.345	20.029	3.475	0.538
204.000	175.313	80.014	19.992	104.358	20.023	3.916	0.465
206.000	176.335	80.005	19.994	104.363	20.017	4.273	0.498
208.000	177.371	80.021	19.992	104.364	20.019	4.183	0.485
210.000	178.308	80.007	19.993	104.352	20.021	4.014	0.498
212.000	179.360	80.001	19.992	104.364	20.022	3.927	0.500
214.000	180.351	80.001	19.993	104.339	20.025	3.746	0.495
216.000	181.368	80.016	19.991	104.336	20.015	4.444	0.515
218.000	182.364	80.002	19.992	104.328	20.015	4.431	0.499
220.000	183.383	79.999	19.994	104.335	20.026	3.695	0.490
222.000	184.403	79.998	19.996	104.340	20.022	3.926	0.511
224.001	185.425	80.009	19.993	104.325	20.010	4.764	0.538
226.000	186.426	80.005	19.993	104.325	20.013	4.565	0.508
228.000	187.449	80.028	19.991	104.332	20.017	4.296	0.495
230.000	188.433	79.987	19.995	104.335	20.014	4.472	0.482
232.000	189.417	80.010	19.992	104.303	20.014	4.511	0.470
234.000	190.392	80.007	19.992	104.321	20.012	4.603	0.495
236.000	191.421	80.005	19.994	104.334	20.011	4.724	0.538
238.000	192.423	80.005	19.993	104.305	20.010	4.746	0.520
240.000	193.463	80.009	19.994	104.303	20.008	4.927	0.477
242.000	194.448	80.018	19.994	104.304	20.006	5.034	0.487
244.000	195.414	80.013	19.993	104.317	20.008	4.884	0.462
246.000	196.425	80.012	19.993	104.319	20.007	4.940	0.506
248.000	197.425	80.012	19.994	104.302	20.008	4.929	0.459
250.000	198.439	80.013	19.993	104.303	20.005	5.070	0.501
252.000	199.439	80.011	19.991	104.317	20.002	5.310	0.532
254.000	200.394	80.002	19.994	104.311	19.999	5.469	0.475
256.000	201.413	80.003	19.994	104.312	19.998	5.550	0.541
258.000	202.400	80.005	19.993	104.329	19.995	5.793	0.488
260.000	203.377	80.008	19.994	104.312	19.992	5.977	0.477
262.000	204.364	80.009	19.992	104.297	19.988	6.212	0.529
264.000	205.373	80.008	19.993	104.303	19.986	6.407	0.492
266.000	206.333	80.008	19.996	104.307	19.982	6.640	0.492
268.000	207.341	80.001	19.995	104.303	19.980	6.805	0.522
270.000	208.304	80.011	19.993	104.300	19.977	6.974	0.480
272.000	209.365	80.012	19.993	104.308	19.973	7.233	0.557
274.001	210.304	80.004	19.995	104.305	19.968	7.601	0.483
276.000	211.259	80.014	19.995	104.314	19.963	7.918	0.487
278.000	212.291	80.000	19.995	104.325	19.960	8.151	0.543
280.001	213.212	80.000	19.997	104.301	19.953	8.589	0.461
282.001	214.249	79.992	19.996	104.280	19.949	8.853	0.491
284.000	215.196	80.005	19.995	104.272	19.940	9.434	0.480
286.000	216.201	80.004	19.994	104.256	19.938	9.591	0.461
288.000	217.214	80.006	19.993	104.287	19.938	9.623	0.528
290.000	218.194	80.010	19.993	104.286	19.932	10.004	0.533
292.000	219.169	80.002	19.995	104.296	19.928	10.272	0.497
294.000	220.127	79.999	19.996	104.269	19.920	10.810	0.477
296.000	221.129	80.005	19.994	104.254	19.918	10.912	0.516
298.000	222.104	80.002	19.994	104.255	19.912	11.324	0.481
300.000	223.040	80.006	19.993	104.260	19.909	11.537	0.476
302.001	224.083	80.012	19.992	104.250	19.907	11.681	0.508
304.000	225.089	80.003	19.995	104.280	19.908	11.630	0.506
306.000	226.065	80.005	19.993	104.264	19.901	12.103	0.493
308.000	227.014	80.004	19.994	104.269	19.899	12.196	0.484
310.000	228.034	80.008	19.994	104.248	19.897	12.358	0.492
312.000	229.053	80.004	19.995	104.259	19.899	12.200	0.503
314.000	230.066	80.001	19.993	104.266	19.897	12.343	0.520
316.000	231.079	80.004	19.994	104.283	19.893	12.606	0.511
318.000	232.034	80.008	19.993	104.272	19.894	12.556	0.482
320.000	233.033	80.005	19.993	104.279	19.891	12.773	0.512
322.000	234.082	80.006	19.995	104.299	19.893	12.596	0.531
324.000	235.029	80.006	19.994	104.289	19.888	12.952	0.496
326.000	236.022	80.005	19.994	104.276	19.893	12.634	0.485
328.000	237.055	80.008	19.993	104.292	19.888	12.927	0.493
330.000	238.011	80.010	19.994	104.289	19.892	12.655	0.476
332.000	239.019	80.010	19.992	104.303	19.892	12.681	0.493
334.000	239.965	80.005	19.994	104.327	19.890	12.815	0.482
336.000	240.994	80.004	19.995	104.327	19.892	12.700	0.496
338.001	241.973	80.003	19.992	104.325	19.893	12.587	0.476
340.000	243.047	80.010	19.993	104.327	19.886	13.068	0.518
342.000	244.035	79.996	19.995	104.336	19.886	13.101	0.506
344.000	245.027	80.009	19.995	104.333	19.882	13.354	0.510
346.000	246.058	80.003	19.994	104.333	19.883	13.281	0.516
348.000	247.035	79.991	19.995	104.324	19.878	13.651	0.526
350.001	248.045	80.007	19.993	104.326	19.875	13.860	0.470
352.000	249.084	80.001	19.994	104.317	19.872	14.043	0.513
354.000	250.125	80.005	19.994	104.322	19.866	14.416	0.526
356.000	251.138	80.010	19.994	104.305	19.866	14.443	0.534
358.000	252.089	80.011	19.995	104.330	19.864	14.590	0.492
360.000	253.114	80.004	19.994	104.338	19.856	15.069	0.490
362.000	254.094	79.993	19.997	104.332	19.857	15.063	0.494
364.000	255.123	80.010	19.994	104.306	19.850	15.522	0.498
366.000	256.119	80.025	19.994	104.299	19.846	15.751	0.514
368.000	257.107	80.003	19.995	104.294	19.842	16.051	0.494
370.000	258.137	80.006	19.993	104.297	19.839	16.234	0.522
372.000	259.149	80.004	19.994	104.303	19.832	16.730	0.509
374.000	260.101	79.996	19.996	104.302	19.828	16.994	0.461
376.000	261.090	80.006	19.994	104.285	19.820	17.485	0.469
378.000	262.085	80.001	19.993	104.291	19.816	17.809	0.491
380.000	263.066	80.000	19.993	104.307	19.810	18.202	0.505
382.000	264.094	79.998	19.995	104.307	19.804	18.574	0.485
384.000	265.106	80.012	19.994	104.316	19.801	18.814	0.501
386.000	266.090	80.004	19.993	104.327	19.796	19.136	0.505
388.000	267.077	80.012	19.992	104.284	19.786	19.789	0.508
390.000	268.101	80.006	19.993	104.293	19.780	20.199	0.511
392.000	269.071	79.998	19.995	104.318	19.771	20.802	0.483
394.000	270.109	79.998	19.994	104.315	19.767	21.088	0.532
396.000	271.100	80.017	19.992	104.322	19.758	21.677	0.504
398.000	272.132	80.007	19.992	104.317	19.750	22.214	0.508
400.000	273.159	80.006	19.993	104.318	19.740	22.889	0.523
402.000	274.090	80.010	19.994	104.336	19.730	23.531	0.443
404.000	275.124	80.005	19.993	104.305	19.719	24.301	0.495
406.000	276.143	80.005	19.993	104.308	19.710	24.904	0.498
408.000	277.131	80.007	19.994	104.329	19.700	25.601	0.537
410.000	278.151	80.012	19.992	104.322	19.691	26.179	0.504
412.000	279.132	80.008	19.992	104.304	19.679	26.989	0.493
414.000	280.112	80.014	19.992	104.318	19.670	27.573	0.497
416.000	281.096	80.007	19.994	104.326	19.661	28.187	0.490
418.000	282.127	80.008	19.992	104.332	19.648	29.081	0.543
420.000	283.082	80.012	19.993	104.337	19.639	29.700	0.477
422.000	284.078	79.986	19.995	104.323	19.626	30.567	0.509
424.000	285.076	80.001	19.994	104.330	19.613	31.401	0.480
426.000	286.100	79.987	19.995	104.331	19.600	32.312	0.501
428.000	287.090	80.010	19.994	104.326	19.588	33.081	0.476
430.000	288.092	80.013	19.993	104.330	19.580	33.647	0.479
432.000	289.111	80.005	19.994	104.355	19.571	34.233	0.498
434.000	290.092	80.008	19.994	104.367	19.560	34.966	0.474
436.000	291.131	79.996	19.995	104.373	19.556	35.225	0.522
438.000	292.147	80.010	19.993	104.372	19.546	35.902	0.488
440.001	293.184	80.011	19.993	104.358	19.537	36.535	0.557
442.000	294.189	80.003	19.993	104.369	19.534	36.688	0.479
444.001	295.182	80.001	19.995	104.356	19.531	36.950	0.475
446.001	296.196	80.006	19.993	104.339	19.539	36.422	0.499
448.000	297.165	79.997	19.995	104.333	19.540	36.313	0.485
450.000	298.197	80.003	19.996	104.337	19.543	36.150	0.523
452.000	299.150	79.998	19.994	104.337	19.554	35.447	0.468
454.000	300.100	80.001	19.996	104.344	19.554	35.430	0.448
456.000	301.136	80.002	19.994	104.380	19.552	35.558	0.496
458.000	302.148	79.994	19.994	104.406	19.542	36.252	0.506
460.000	303.148	80.016	19.994	104.415	19.518	37.792	0.510
462.000	304.180	80.009	19.994	104.437	19.485	40.066	0.538
464.000	305.176	79.995	19.995	104.474	19.440	43.078	0.489
466.000	306.175	80.001	19.994	104.494	19.386	46.667	0.515
468.000	307.194	79.997	19.994	104.546	19.331	50.385	0.515
470.000	308.188	79.984	19.995	104.475	19.279	53.825	0.473
472.000	309.181	80.006	19.993	104.381	19.231	57.082	0.504
474.000	310.181	80.014	19.993	104.474	19.197	59.350	0.491
476.000	311.223	80.003	19.993	104.398	19.186	60.102	0.507
478.000	312.306	80.017	19.992	104.395	19.192	59.775	0.560
480.000	313.351	80.003	19.993	104.398	19.176	60.741	0.520
482.000	314.323	79.985	19.996	104.400	19.193	59.597	0.497
484.000	315.367	80.008	19.995	104.415	19.198	59.233	0.488
486.000	316.468	80.018	19.992	104.351	19.149	62.611	0.533
488.000	317.439	80.011	19.992	104.551	19.128	64.010	0.543
490.000	318.551	80.009	19.995	104.473	19.134	63.617	0.526
492.000	319.580	80.008	19.994	104.302	19.127	64.095	0.534
494.000	320.644	80.009	19.994	104.304	19.135	63.581	0.512
496.000	321.719	80.007	19.993	104.387	19.148	62.723	0.505
498.000	322.719	80.025	19.992	104.444	19.166	61.451	0.497
500.000	323.793	80.008	19.993	104.393	19.174	60.897	0.552
502.000	324.806	80.004	19.993	104.427	19.182	60.368	0.475
504.000	325.860	80.004	19.994	104.447	19.154	62.283	0.519
506.000	326.903	80.009	19.992	104.493	19.135	63.562	0.518
508.000	327.880	80.009	19.993	104.486	19.122	64.352	0.503
510.000	328.895	79.990	19.995	104.375	19.099	65.988	0.515
512.000	329.946	79.996	19.994	104.418	19.076	67.505	0.514
514.000	330.997	80.004	19.993	104.416	19.065	68.328	0.538
516.000	331.981	80.013	19.992	104.456	19.074	67.729	0.517
518.000	332.984	80.012	19.992	104.381	19.085	66.845	0.511
520.000	334.041	80.021	19.992	104.399	19.102	65.697	0.530
522.000	335.041	79.993	19.994	104.453	19.103	65.621	0.507
524.000	336.042	80.017	19.992	104.455	19.041	69.848	0.482
526.000	337.030	80.008	19.992	104.577	19.011	71.920	0.515
528.000	338.026	79.987	19.995	104.455	19.010	71.935	0.501
530.000	339.038	80.007	19.994	104.323	19.016	71.535	0.482
532.000	340.032	80.004	19.993	104.276	19.035	70.221	0.488
534.000	341.005	80.003	19.996	104.363	19.054	68.896	0.482
536.000	342.050	80.007	19.994	104.462	19.059	68.603	0.493
538.000	342.954	79.997	19.996	104.469	19.071	67.817	0.448
540.000	343.986	80.011	19.994	104.419	19.070	67.903	0.483
542.000	344.939	80.009	19.996	104.406	19.093	66.566	0.497
544.000	345.961	79.983	19.994	104.369	19.133	63.744	0.514
546.000	346.923	80.009	19.993	104.309	19.189	59.731	0.473
548.000	347.880	80.004	19.995	104.347	19.239	56.356	0.464
550.001	348.861	80.004	19.994	104.369	19.179	60.486	0.516
552.000	349.896	80.000	19.995	104.576	19.074	67.663	0.536
554.000	350.856	80.001	19.994	104.696	19.057	68.838	0.474
556.000	351.853	80.006	19.995	104.315	19.093	66.344	0.505
558.000	352.858	80.013	19.993	104.076	19.142	63.002	0.480
560.000	353.868	80.008	19.993	104.119	19.191	59.740	0.533
562.000	354.861	80.010	19.993	104.406	19.227	57.340	0.537
564.000	355.862	80.029	19.992	104.512	19.255	55.520	0.489
566.000	356.838	80.006	19.993	104.448	19.291	53.062	0.499
568.000	357.836	80.003	19.994	104.374	19.335	50.031	0.487
570.000	358.832	80.007	19.993	104.330	19.374	47.386	0.494
572.000	359.816	80.015	19.993	104.339	19.371	47.623	0.482
574.000	360.838	80.012	19.994	104.424	19.318	51.199	0.522
576.000	361.779	80.015	19.993	104.535	19.298	52.555	0.508
578.001	362.764	80.003	19.992	104.350	19.319	51.187	0.488
580.000	363.732	80.004	19.993	104.171	19.356	48.690	0.494
582.000	364.741	80.011	19.993	104.155	19.401	45.695	0.518
584.000	365.728	80.004	19.995	104.284	19.446	42.618	0.512
586.000	366.708	80.011	19.992	104.390	19.488	39.757	0.504
588.000	367.690	80.004	19.993	104.392	19.503	38.729	0.489
590.000	368.715	80.003	19.993	104.383	19.471	40.913	0.487
592.000	369.701	80.006	19.993	104.459	19.445	42.660	0.492
594.000	370.766	80.004	19.992	104.384	19.442	42.893	0.520
596.000	371.724	80.003	19.993	104.254	19.450	42.307	0.485
598.000	372.795	80.000	19.995	104.197	19.457	41.844	0.499
600.000	373.828	80.005	19.993	104.251	19.477	40.552	0.535
602.000	374.897	80.012	19.992	104.332	19.490	39.624	0.535
604.000	375.891	80.002	19.994	104.338	19.505	38.621	0.544
606.000	376.931	80.022	19.995	104.317	19.524	37.344	0.525
608.000	377.971	80.002	19.993	104.303	19.536	36.562	0.516
610.000	378.984	80.006	19.994	104.305	19.548	35.765	0.510
612.000	380.034	80.007	19.993	104.304	19.556	35.206	0.533
614.000	381.079	80.005	19.993	104.303	19.568	34.452	0.534
616.000	382.087	80.005	19.993	104.299	19.575	33.966	0.506
618.000	383.069	79.985	19.997	104.299	19.577	33.813	0.499
620.000	384.165	79.991	19.997	104.293	19.578	33.756	0.511
622.000	385.187	80.005	19.994	104.292	19.588	33.094	0.535
624.000	386.205	80.008	19.994	104.294	19.595	32.598	0.487
626.000	387.255	80.005	19.994	104.292	19.602	32.149	0.534
628.000	388.303	80.000	19.995	104.300	19.614	31.345	0.521
630.000	389.307	80.005	19.995	104.301	19.617	31.110	0.516
632.000	390.323	80.008	19.993	104.294	19.625	30.577	0.482
634.000	391.363	80.001	19.995	104.298	19.634	30.005	0.525
636.001	392.386	79.996	19.996	104.287	19.646	29.167	0.525
638.000	393.383	80.011	19.992	104.279	19.651	28.853	0.495
640.000	394.478	80.003	19.994	104.305	19.653	28.680	0.513
642.000	395.486	79.997	19.994	104.297	19.660	28.246	0.488
644.000	396.522	80.003	19.994	104.292	19.663	28.040	0.505
646.000	397.563	80.003	19.995	104.270	19.673	27.372	0.522
648.000	398.575	79.996	19.996	104.258	19.678	27.031	0.524
650.000	399.629	80.022	19.992	104.266	19.685	26.561	0.516
652.000	400.645	79.999	19.995	104.293	19.689	26.326	0.539
654.000	401.601	79.975	19.996	104.297	19.694	25.979	0.497
656.000	402.682	80.005	19.993	104.284	19.696	25.821	0.539
658.000	403.669	80.011	19.992	104.288	19.702	25.433	0.515
660.000	404.732	79.999	19.993	104.268	19.707	25.056	0.528
662.000	405.713	80.005	19.994	104.258	19.716	24.463	0.508
664.000	406.697	80.014	19.994	104.265	19.716	24.456	0.497
666.000	407.721	80.007	19.994	104.263	19.719	24.275	0.496
668.000	408.717	80.011	19.993	104.262	19.726	23.843	0.485
670.000	409.696	79.979	19.995	104.260	19.729	23.597	0.504
672.000	410.706	80.001	19.994	104.259	19.734	23.292	0.508
674.000	411.707	80.003	19.994	104.257	19.741	22.795	0.507
676.000	412.784	80.010	19.992	104.254	19.741	22.801	0.536
678.000	413.707	80.012	19.993	104.262	19.747	22.381	0.468
680.000	414.682	79.996	19.996	104.265	19.753	21.997	0.501
682.000	415.683	80.015	19.995	104.262	19.758	21.680	0.522
684.000	416.669	80.008	19.991	104.261	19.764	21.261	0.501
686.001	417.701	80.006	19.994	104.263	19.769	20.947	0.531
688.001	418.673	80.018	19.994	104.254	19.775	20.539	0.502
690.000	419.682	79.999	19.994	104.258	19.781	20.138	0.517
692.000	420.651	80.008	19.994	104.256	19.787	19.724	0.500
694.000	421.711	80.002	19.994	104.254	19.790	19.533	0.537
696.000	422.691	80.010	19.993	104.257	19.792	19.387	0.487
698.000	423.691	80.006	19.993	104.256	19.795	19.158	0.502
700.000	424.736	79.999	19.995	104.261	19.804	18.576	0.509
702.000	425.777	80.019	19.991	104.261	19.806	18.437	0.536
704.000	426.702	79.989	19.997	104.260	19.811	18.131	0.460
706.000	427.768	80.023	19.992	104.255	19.817	17.683	0.500
708.000	428.790	79.995	19.994	104.263	19.825	17.169	0.487
710.000	429.787	79.998	19.995	104.265	19.822	17.346	0.468
712.000	430.796	80.010	19.993	104.258	19.827	17.030	0.522
714.000	431.832	80.011	19.993	104.251	19.828	16.944	0.485
716.000	432.834	80.001	19.995	104.250	19.833	16.661	0.503
718.000	433.864	80.011	19.993	104.252	19.836	16.421	0.498
720.000	434.905	80.009	19.992	104.232	19.840	16.148	0.484
722.000	435.943	80.017	19.992	104.241	19.845	15.842	0.527
724.000	436.958	80.001	19.994	104.245	19.843	15.941	0.541
726.000	437.941	80.009	19.994	104.258	19.845	15.805	0.487
728.000	438.953	80.003	19.994	104.267	19.848	15.639	0.502
730.000	439.981	79.993	19.995	104.269	19.849	15.538	0.545
732.000	441.009	80.008	19.993	104.243	19.854	15.246	0.500
734.000	442.013	80.008	19.995	104.247	19.854	15.197	0.510
736.000	443.020	80.018	19.995	104.230	19.859	14.916	0.452
738.000	444.055	80.005	19.995	104.233	19.861	14.743	0.523
740.000	445.024	80.010	19.993	104.231	19.865	14.487	0.488
742.000	446.046	80.011	19.994	104.222	19.862	14.660	0.507
744.000	447.054	80.006	19.995	104.237	19.865	14.492	0.509
746.000	448.073	80.005	19.994	104.240	19.865	14.509	0.515
748.000	449.115	80.002	19.993	104.248	19.873	13.960	0.502
750.000	450.092	80.006	19.994	104.229	19.869	14.203	0.482
752.000	451.146	80.003	19.995	104.231	19.873	13.969	0.517
754.000	452.189	80.017	19.993	104.233	19.873	13.926	0.510
756.000	453.175	80.003	19.994	104.221	19.877	13.703	0.519
758.000	454.168	80.001	19.993	104.239	19.878	13.600	0.509
760.001	455.181	79.989	19.996	104.242	19.880	13.493	0.495
762.000	456.240	80.014	19.993	104.238	19.879	13.526	0.489
764.001	457.220	80.004	19.994	104.236	19.885	13.123	0.488
766.000	458.277	80.014	19.993	104.237	19.884	13.225	0.514
768.000	459.239	80.003	19.993	104.252	19.886	13.055	0.513
770.000	460.320	79.994	19.995	104.234	19.884	13.200	0.512
772.000	461.300	80.008	19.994	104.229	19.890	12.831	0.475
774.000	462.355	80.024	19.991	104.241	19.889	12.853	0.523
776.000	463.376	80.005	19.993	104.251	19.892	12.706	0.528
778.000	464.427	80.023	19.993	104.231	19.897	12.336	0.541
780.000	465.402	79.991	19.995	104.234	19.898	12.267	0.490
782.000	466.470	80.005	19.993	104.225	19.898	12.264	0.551
784.000	467.456	80.006	19.993	104.227	19.900	12.108	0.491
786.000	468.531	80.004	19.993	104.238	19.900	12.120	0.552
788.000	469.510	80.001	19.994	104.257	19.905	11.835	0.473
790.000	470.586	80.006	19.993	104.254	19.904	11.851	0.535
792.000	471.600	80.005	19.994	104.216	19.901	12.069	0.519
794.000	472.625	80.016	19.993	104.198	19.906	11.763	0.519
796.000	473.727	80.013	19.992	104.219	19.904	11.867	0.512
798.000	474.740	80.003	19.994	104.224	19.909	11.550	0.526
800.000	475.716	80.003	19.995	104.271	19.907	11.656	0.466
802.000	476.793	80.005	19.993	104.199	19.909	11.505	0.513
804.000	477.801	80.011	19.994	104.187	19.910	11.494	0.513
806.001	478.855	79.992	19.995	104.250	19.911	11.412	0.515
808.000	479.902	80.001	19.995	104.216	19.916	11.030	0.507
810.000	480.890	79.997	19.996	104.215	19.918	10.956	0.528
812.000	481.905	80.006	19.994	104.241	19.918	10.950	0.517
814.000	482.939	80.011	19.993	104.246	19.921	10.754	0.528
816.000	483.968	80.001	19.995	104.228	19.919	10.884	0.531
818.000	484.978	80.007	19.993	104.231	19.923	10.612	0.497
820.000	486.056	80.001	19.994	104.219	19.927	10.354	0.563
822.000	487.089	80.018	19.994	104.234	19.926	10.424	0.513
824.000	488.138	80.007	19.992	104.215	19.927	10.296	0.555
826.000	489.147	80.004	19.994	104.225	19.924	10.519	0.514
828.000	490.216	80.009	19.995	104.257	19.926	10.370	0.539
830.000	491.277	80.003	19.994	104.218	19.929	10.199	0.563
832.000	492.266	80.005	19.994	104.220	19.930	10.125	0.527
834.000	493.323	80.004	19.995	104.223	19.934	9.879	0.525
836.000	494.416	80.005	19.994	104.200	19.934	9.835	0.531
838.000	495.447	80.003	19.994	104.214	19.933	9.908	0.515
840.000	496.424	80.003	19.993	104.250	19.930	10.116	0.510
842.000	497.462	80.004	19.994	104.189	19.937	9.631	0.505
844.000	498.525	80.004	19.994	104.185	19.935	9.815	0.534
846.000	499.604	80.003	19.992	104.238	19.936	9.745	0.527
848.000	500.652	80.005	19.992	104.235	19.936	9.692	0.544
850.001	501.694	80.006	19.992	104.222	19.939	9.511	0.542
852.000	502.719	80.003	19.994	104.248	19.937	9.626	0.512
854.000	503.737	80.005	19.994	104.243	19.938	9.602	0.498
856.000	504.759	80.004	19.994	104.219	19.941	9.413	0.522
858.000	505.828	80.006	19.993	104.212	19.943	9.257	0.517
860.000	506.828	80.006	19.992	104.240	19.943	9.255	0.492
862.000	507.874	80.005	19.993	104.200	19.941	9.399	0.505
864.000	508.914	80.005	19.993	104.204	19.945	9.086	0.512
866.000	509.936	80.004	19.994	104.214	19.946	9.036	0.497
868.000	510.934	80.007	19.993	104.219	19.947	9.015	0.518
870.000	511.969	80.005	19.992	104.217	19.951	8.695	0.548
872.000	512.997	80.005	19.993	104.213	19.950	8.753	0.540
874.000	514.070	80.004	19.993	104.196	19.951	8.695	0.535
876.000	515.078	79.999	19.993	104.206	19.953	8.597	0.527
878.000	516.150	80.005	19.991	104.208	19.952	8.648	0.520
880.000	517.158	80.005	19.993	104.216	19.955	8.422	0.530
882.000	518.195	80.006	19.993	104.215	19.954	8.490	0.520
884.000	519.280	80.007	19.994	104.216	19.957	8.294	0.532
886.000	520.320	80.007	19.993	104.200	19.961	8.068	0.488
888.000	521.365	80.006	19.994	104.234	19.964	7.873	0.520
890.000	522.378	80.006	19.992	104.221	19.966	7.729	0.498
892.000	523.451	80.005	19.993	104.202	19.959	8.180	0.509
894.000	524.512	80.005	19.994	104.208	19.964	7.864	0.541
896.000	525.460	80.004	19.994	104.217	19.958	8.225	0.518
898.001	526.567	80.006	19.993	104.219	19.968	7.576	0.474
900.000	527.615	80.006	19.994	104.215	19.962	7.978	0.564
902.000	528.595	80.007	19.994	104.209	19.966	7.701	0.568
904.000	529.714	80.007	19.994	104.213	19.965	7.789	0.555
906.000	530.459	80.007	19.993	104.217	19.965	7.745	0.408
908.000	531.632	80.007	19.993	104.198	19.964	7.841	0.457
910.000	532.555	80.008	19.993	104.214	19.968	7.567	0.303
912.000	533.607	80.011	19.993	104.214	19.964	7.839	0.330
914.000	534.684	80.006	19.992	104.187	19.963	7.920	0.671
916.000	535.766	80.003	19.994	104.202	19.963	7.915	0.513
918.000	536.763	80.004	19.994	104.188	19.966	7.708	0.571
920.000	537.772	80.004	19.994	104.185	19.965	7.748	0.533
922.000	538.689	80.003	19.995	104.221	19.964	7.866	0.407
924.000	539.865	80.005	19.994	104.212	19.967	7.675	0.512
926.000	540.851	80.003	19.994	104.214	19.968	7.584	0.473
928.000	541.803	80.004	19.994	104.232	19.970	7.424	0.506
930.000	542.857	80.004	19.994	104.217	19.970	7.430	0.524
932.000	543.903	80.005	19.994	104.216	19.969	7.482	0.519
934.000	544.922	80.005	19.993	104.215	19.967	7.642	0.515
936.000	545.924	80.004	19.994	104.225	19.969	7.499	0.516
938.000	546.996	80.005	19.992	104.235	19.972	7.287	0.546
940.001	548.029	80.003	19.994	104.248	19.971	7.404	0.508
942.000	549.138	80.004	19.994	104.215	19.970	7.424	0.531
944.000	550.138	80.005	19.993	104.217	19.971	7.385	0.496
946.000	551.219	80.004	19.994	104.213	19.975	7.099	0.516
948.000	552.281	80.003	19.994	104.239	19.973	7.265	0.523
950.000	553.336	80.004	19.994	104.218	19.970	7.454	0.529
952.000	554.389	80.004	19.994	104.194	19.971	7.380	0.527
954.000	555.473	80.005	19.993	104.187	19.973	7.245	0.527
956.000	556.511	80.006	19.993	104.187	19.972	7.316	0.530
958.000	557.557	80.005	19.994	104.186	19.968	7.563	0.524
960.000	558.650	80.005	19.994	104.197	19.971	7.342	0.508
962.001	559.701	80.007	19.993	104.218	19.971	7.393	0.531
964.000	560.777	80.005	19.994	104.224	19.968	7.558	0.553
966.000	561.822	80.005	19.993	104.223	19.970	7.474	0.507
968.000	562.924	80.008	19.994	104.235	19.969	7.523	0.561
970.000	563.977	80.005	19.994	104.207	19.968	7.607	0.545
972.000	564.980	80.007	19.992	104.212	19.969	7.477	0.513
974.000	566.048	80.005	19.993	104.205	19.971	7.342	0.521
976.000	567.101	80.004	19.993	104.218	19.975	7.108	0.480
978.000	568.140	80.006	19.993	104.291	19.974	7.146	0.507
980.001	569.256	80.005	19.993	104.225	19.973	7.231	0.559
982.000	570.236	80.007	19.993	104.207	19.975	7.077	0.545
984.000	571.299	80.005	19.994	104.197	19.973	7.220	0.575
986.000	572.367	80.007	19.992	104.225	19.976	7.014	0.540
988.000	573.431	80.007	19.993	104.233	19.973	7.224	0.529
990.000	574.502	80.009	19.994	104.231	19.974	7.161	0.532
992.000	575.576	80.008	19.993	104.200	19.974	7.184	0.555
994.000	576.587	80.006	19.993	104.179	19.977	6.975	0.502
996.000	577.631	80.006	19.994	104.184	19.976	7.028	0.524
998.000	578.648	80.005	19.992	104.227	19.974	7.169	0.504
1000.000	579.656	80.004	19.993	104.230	19.975	7.127	0.502
1002.000	580.682	80.005	19.994	104.215	19.977	6.998	0.493
1004.000	581.703	80.005	19.995	104.216	19.978	6.891	0.478
1006.000	582.709	80.005	19.994	104.200	19.974	7.164	0.506
1008.000	583.747	80.005	19.994	104.198	19.977	6.956	0.542
1010.000	584.724	80.005	19.994	104.209	19.973	7.262	0.501
1012.000	585.643	80.004	19.994	104.216	19.974	7.184	0.491
1014.001	586.671	80.005	19.995	104.208	19.972	7.307	0.509
1016.000	587.645	80.003	19.995	104.199	19.972	7.284	0.473
1018.001	588.618	80.005	19.995	104.183	19.973	7.254	0.489
1020.000	589.613	80.005	19.996	104.190	19.976	7.037	0.501
1022.000	590.518	80.003	19.994	104.208	19.973	7.265	0.468
1024.000	591.441	80.005	19.993	104.198	19.977	6.992	0.427
1026.001	592.379	80.004	19.993	104.183	19.975	7.088	0.458
1028.000	593.312	80.006	19.994	104.208	19.973	7.251	0.444
1030.000	594.265	80.005	19.994	104.218	19.976	7.027	0.461
1032.000	595.182	80.005	19.993	104.208	19.977	6.954	0.471
1034.000	596.110	80.003	19.994	104.216	19.975	7.128	0.457
1036.000	596.991	80.004	19.993	104.187	19.973	7.218	0.410
1038.000	597.915	80.005	19.993	104.182	19.975	7.139	0.448
1040.001	598.835	80.005	19.994	104.211	19.975	7.135	0.460
1042.000	599.718	80.006	19.993	104.205	19.974	7.185	0.422
1044.000	600.623	80.005	19.992	104.168	19.973	7.225	0.460
1046.000	601.526	80.006	19.993	104.183	19.979	6.868	0.452
1048.000	602.431	80.006	19.994	104.214	19.974	7.147	0.460
1050.000	603.297	80.007	19.993	104.221	19.978	6.935	0.423
1052.000	604.165	80.007	19.994	104.221	19.977	6.997	0.416
1054.000	605.049	80.004	19.994	104.220	19.979	6.842	0.459
1056.001	605.975	80.008	19.993	104.209	19.978	6.903	0.454
1058.000	606.833	80.004	19.993	104.207	19.979	6.840	0.427
1060.000	607.753	80.006	19.995	104.209	19.977	6.937	0.455
1062.000	608.697	80.007	19.993	104.195	19.978	6.873	0.461
1064.000	609.614	80.008	19.993	104.189	19.979	6.858	0.467
1066.000	610.515	80.006	19.994	104.186	19.978	6.936	0.454
1068.000	611.430	80.009	19.993	104.186	19.977	6.949	0.452
1070.001	612.378	80.007	19.994	104.180	19.976	7.030	0.469
1072.000	613.273	80.008	19.993	104.179	19.977	6.965	0.430
1074.000	614.180	80.007	19.993	104.179	19.980	6.787	0.461
1076.000	615.124	80.006	19.993	104.179	19.980	6.797	0.474
1078.000	616.027	80.007	19.995	104.179	19.980	6.781	0.443
1080.000	616.923	80.006	19.993	104.185	19.977	6.960	0.456
1082.000	617.800	80.004	19.994	104.180	19.977	6.979	0.450
1084.000	618.740	80.005	19.995	104.179	19.977	6.975	0.475
1086.000	619.623	80.005	19.995	104.176	19.976	7.060	0.470
1088.000	620.572	80.005	19.994	104.176	19.977	6.982	0.454
1090.000	621.535	80.005	19.993	104.211	19.980	6.798	0.482
1092.000	622.495	80.004	19.993	104.251	19.979	6.819	0.452
1094.000	623.431	80.004	19.994	104.296	19.980	6.761	0.469
1096.000	624.406	80.003	19.994	104.246	19.980	6.745	0.499
1098.000	625.361	80.005	19.994	104.199	19.981	6.735	0.500
1100.000	626.328	80.006	19.993	104.181	19.979	6.818	0.488
1102.000	627.311	80.005	19.994	104.192	19.978	6.922	0.511
1104.000	628.292	80.004	19.994	104.195	19.983	6.569	0.486
1106.000	629.284	80.004	19.995	104.216	19.980	6.758	0.496
1108.001	630.257	80.003	19.994	104.213	19.982	6.639	0.491
1110.000	631.313	80.003	19.994	104.205	19.982	6.644	0.536
1112.000	632.313	80.004	19.995	104.221	19.983	6.584	0.493
1114.000	633.354	80.002	19.995	104.225	19.979	6.833	0.514
1116.000	634.397	80.003	19.994	104.210	19.978	6.881	0.511
1118.001	635.453	80.004	19.994	104.189	19.977	6.949	0.566
1120.000	636.470	80.005	19.995	104.210	19.980	6.782	0.528
1122.000	637.478	80.004	19.995	104.205	19.981	6.723	0.532
1124.001	638.480	80.005	19.993	104.181	19.979	6.844	0.483
1126.000	639.547	80.008	19.994	104.189	19.976	7.044	0.500
1128.000	640.538	80.007	19.993	104.179	19.978	6.894	0.484
1130.000	641.591	80.007	19.993	104.198	19.980	6.791	0.505
1132.000	642.632	80.006	19.994	104.234	19.982	6.669	0.546
1134.000	643.675	80.006	19.994	104.231	19.979	6.840	0.547
1136.000	644.668	80.006	19.994	104.215	19.979	6.870	0.509
1138.000	645.679	80.006	19.994	104.189	19.980	6.777	0.517
1140.000	646.688	80.006	19.994	104.203	19.979	6.819	0.521
1142.001	647.707	80.006	19.994	104.206	19.980	6.743	0.521
1144.001	648.726	80.007	19.994	104.188	19.983	6.589	0.507
1146.000	649.776	80.007	19.994	104.198	19.979	6.808	0.517
1148.001	650.754	80.008	19.994	104.214	19.979	6.865	0.457
1150.000	651.808	80.008	19.994	104.198	19.982	6.657	0.525
1152.000	652.822	80.007	19.993	104.185	19.986	6.361	0.498
1154.000	653.844	80.009	19.992	104.192	19.984	6.494	0.521
1156.000	654.865	80.007	19.993	104.186	19.982	6.651	0.527
1158.000	655.836	80.007	19.993	104.190	19.983	6.549	0.485
1160.000	656.858	80.006	19.993	104.200	19.981	6.723	0.493
1162.001	657.788	80.006	19.992	104.198	19.986	6.358	0.460
1164.001	658.831	80.006	19.993	104.220	19.984	6.489	0.547
1166.001	659.872	80.006	19.994	104.220	19.983	6.546	0.526
1168.001	660.893	80.005	19.993	104.208	19.983	6.570	0.563
1170.001	661.816	80.004	19.994	104.185	19.984	6.506	0.475
1172.000	662.808	80.005	19.993	104.187	19.983	6.578	0.489
1174.000	663.789	80.005	19.994	104.195	19.980	6.746	0.489
1176.000	664.763	80.005	19.994	104.211	19.979	6.836	0.480
1178.001	665.732	80.003	19.993	104.203	19.980	6.763	0.491
1180.000	666.699	80.004	19.995	104.212	19.981	6.677	0.491
1182.000	667.716	80.006	19.993	104.216	19.984	6.534	0.502
1184.000	668.706	80.006	19.993	104.217	19.980	6.758	0.511
1186.000	669.723	80.005	19.994	104.205	19.978	6.912	0.506
1188.000	670.769	80.004	19.994	104.197	19.978	6.889	0.497
1190.001	671.800	80.006	19.993	104.216	19.978	6.886	0.548
1192.000	672.891	80.005	19.994	104.202	19.982	6.633	0.540
1194.000	673.919	80.005	19.994	104.202	19.979	6.809	0.515
1196.000	675.009	80.005	19.994	104.214	19.982	6.652	0.587
1198.000	676.103	80.006	19.994	104.214	19.980	6.776	0.526
1200.000	677.093	80.004	19.995	104.195	19.985	6.445	0.530
1202.000	678.098	80.005	19.995	104.206	19.983	6.565	0.520
1204.000	679.132	80.006	19.994	104.212	19.988	6.263	0.514
1206.000	680.192	80.006	19.994	104.204	19.987	6.316	0.501
1208.000	681.215	80.007	19.995	104.194	19.984	6.489	0.522
1210.001	682.250	80.006	19.995	104.205	19.982	6.616	0.513
1212.000	683.267	80.008	19.994	104.197	19.986	6.394	0.508
1214.000	684.271	80.006	19.994	104.178	19.984	6.501	0.503
1216.000	685.288	80.006	19.994	104.177	19.983	6.555	0.512
1218.000	686.391	80.006	19.994	104.173	19.977	6.982	0.557
1220.001	687.401	80.006	19.993	104.181	19.980	6.774	0.514
1222.000	688.362	80.005	19.994	104.194	19.980	6.773	0.501
1224.000	689.402	80.006	19.994	104.210	19.983	6.602	0.537
1226.001	690.427	80.006	19.993	104.193	19.977	6.963	0.512
1228.000	691.459	80.007	19.994	104.210	19.980	6.794	0.510
1230.000	692.492	80.008	19.994	104.220	19.976	7.014	0.465
1232.000	693.505	80.007	19.993	104.232	19.981	6.713	0.481
1234.000	694.511	80.008	19.992	104.203	19.983	6.569	0.496
1236.000	695.582	80.008	19.993	104.198	19.978	6.900	0.502
1238.000	696.631	80.006	19.993	104.213	19.981	6.696	0.526
1240.000	697.702	80.007	19.993	104.233	19.985	6.428	0.499
1242.000	698.730	80.006	19.994	104.200	19.980	6.752	0.521
1244.000	699.713	80.005	19.993	104.201	19.980	6.741	0.476
1246.000	700.880	80.007	19.993	104.183	19.983	6.558	0.548
1248.000	701.868	80.004	19.993	104.195	19.978	6.878	0.500
1250.001	702.919	80.006	19.993	104.194	19.983	6.574	0.516
1252.000	704.069	80.006	19.994	104.202	19.982	6.664	0.555
1254.000	705.127	80.005	19.993	104.181	19.979	6.831	0.547
1256.000	706.156	80.007	19.994	104.185	19.980	6.793	0.509
1258.000	707.220	80.006	19.993	104.205	19.979	6.841	0.541
1260.001	708.254	80.006	19.994	104.189	19.979	6.835	0.527
1262.000	709.352	80.006	19.994	104.183	19.978	6.917	0.551
1264.000	710.410	80.005	19.993	104.191	19.981	6.689	0.527
1266.000	711.482	80.007	19.993	104.225	19.980	6.782	0.557
1268.000	712.535	80.007	19.995	104.256	19.984	6.484	0.520
1270.001	713.539	80.006	19.994	104.235	19.981	6.726	0.514
1272.000	714.586	80.006	19.994	104.173	19.979	6.833	0.527
1274.000	715.617	80.005	19.994	104.152	19.983	6.602	0.544
1276.000	716.630	80.005	19.994	104.188	19.977	7.004	0.502
1278.000	717.646	80.005	19.994	104.183	19.977	6.944	0.508
1280.000	718.664	80.006	19.993	104.180	19.981	6.703	0.528
1282.000	719.654	80.006	19.993	104.198	19.979	6.871	0.514
1284.001	720.617	80.005	19.993	104.199	19.975	7.123	0.500
1286.001	721.612	80.005	19.994	104.195	19.977	6.993	0.504
1288.000	722.541	80.005	19.993	104.186	19.975	7.102	0.461
1290.001	723.527	80.007	19.994	104.212	19.975	7.118	0.456
1292.000	724.501	80.006	19.993	104.210	19.975	7.076	0.510
1294.000	725.510	80.006	19.994	104.202	19.976	7.055	0.508
1296.001	726.446	80.006	19.995	104.212	19.980	6.792	0.506
1298.001	727.402	80.005	19.993	104.203	19.976	7.060	0.458
1300.001	728.377	80.007	19.995	104.193	19.978	6.906	0.483
1302.000	729.307	80.005	19.995	104.187	19.976	7.019	0.475
1304.000	730.239	80.008	19.995	104.201	19.978	6.900	0.462
1306.000	731.197	80.005	19.993	104.206	19.977	6.986	0.468
1308.000	732.149	80.005	19.994	104.206	19.981	6.730	0.474
1310.000	733.146	80.008	19.993	104.197	19.978	6.900	0.495
1312.000	734.083	80.007	19.993	104.195	19.977	6.950	0.473
1314.000	735.031	80.008	19.993	104.194	19.977	6.987	0.482
1316.001	735.953	80.008	19.994	104.197	19.978	6.877	0.467
1318.000	736.906	80.008	19.992	104.194	19.975	7.122	0.490
1320.000	737.904	80.007	19.993	104.193	19.978	6.927	0.452
1322.000	738.904	80.008	19.993	104.197	19.978	6.935	0.467
1324.000	739.852	80.007	19.992	104.210	19.980	6.800	0.492
1326.000	740.850	80.006	19.993	104.190	19.977	6.991	0.506
1328.000	741.886	80.007	19.993	104.186	19.971	7.387	0.520
1330.000	742.904	80.005	19.993	104.192	19.969	7.484	0.513
1331.000	743.422	80.004	19.993	104.194	19.974	7.150	0.514