File: 01_Data/Mineral_Wool_Insulation/MCC/Mineral_Wool_Insulation_MCC_30K_min_211112_R3.txt
Sample ID:	C:\MCC\MCC Cal\Test\Mineral_Wool_Insulation_MCC_30K_min_211112_R3.txt
Sample Weight (mg):	4.38
Heating Rate (C/s):	0.5
Combustor Temp (C):	900
N2 Flow Rate (cc/min):	80
O2 Flow Rate (cc/min):	20
Calibration File:	C:\MCC\MCC Cal\Coeff1 JN10440_30_210304.txt.txt
T Correction Coefficients:	0	1.024463	0
Time Shift (s):	14
*
Time (s)	Temperature (C)	N2 flow rate (cc/min)	O2 flow rate (cc/min)	Flow Rate (cc/min)	Oxygen (%)	HRR (W/g)	Heating rate (C/s)
0.000	107.055	80.002	19.994	102.991	20.018	-0.148	0.021
2.001	107.042	80.003	19.995	102.994	20.018	-0.098	-0.003
4.000	107.010	80.002	19.994	102.992	20.016	-0.004	0.001
6.000	107.058	80.002	19.995	102.991	20.015	0.094	0.019
8.000	107.025	80.000	19.994	102.994	20.013	0.226	-0.028
10.001	107.019	79.999	19.995	102.996	20.014	0.146	-0.023
12.000	107.004	79.999	19.995	103.019	20.013	0.246	0.003
14.000	107.053	79.999	19.995	103.019	20.012	0.334	0.024
16.000	107.050	79.999	19.995	103.016	20.007	0.667	-0.012
18.000	107.081	80.000	19.995	103.035	20.009	0.505	0.020
20.000	107.083	80.000	19.995	103.033	20.008	0.619	-0.013
22.000	107.119	80.001	19.996	103.045	20.006	0.781	0.015
24.000	107.180	80.000	19.997	103.068	20.002	1.034	0.032
26.000	107.241	80.001	19.996	103.089	20.000	1.158	0.039
28.000	107.333	80.000	19.996	103.108	19.994	1.613	0.028
30.000	107.483	80.001	19.996	103.110	19.995	1.573	0.058
32.000	107.619	80.000	19.996	103.121	19.992	1.806	0.086
34.000	107.796	80.001	19.996	103.146	19.989	1.969	0.095
36.000	107.942	80.001	19.994	103.158	19.985	2.261	0.081
38.000	108.225	79.999	19.996	103.183	19.984	2.398	0.127
40.000	108.425	80.000	19.996	103.188	19.983	2.460	0.105
42.000	108.734	80.000	19.996	103.192	19.976	2.925	0.131
44.000	109.044	80.000	19.997	103.204	19.979	2.759	0.156
46.000	109.429	79.999	19.996	103.227	19.971	3.294	0.180
48.000	109.804	79.999	19.997	103.226	19.973	3.188	0.186
50.000	110.211	80.000	19.997	103.231	19.971	3.321	0.227
52.000	110.646	79.999	19.997	103.229	19.969	3.473	0.251
54.000	111.126	80.001	19.997	103.232	19.970	3.433	0.230
56.000	111.578	80.001	19.997	103.230	19.968	3.546	0.257
58.000	112.094	80.000	19.994	103.228	19.967	3.602	0.272
60.000	112.666	80.003	19.995	103.251	19.969	3.463	0.285
62.000	113.210	80.001	19.995	103.260	19.970	3.381	0.284
64.000	113.824	80.000	19.994	103.264	19.966	3.702	0.315
66.000	114.458	80.001	19.995	103.264	19.964	3.809	0.301
68.000	115.082	80.002	19.994	103.264	19.964	3.819	0.344
70.000	115.756	80.001	19.994	103.265	19.967	3.630	0.343
72.001	116.422	80.002	19.995	103.260	19.968	3.542	0.354
74.000	117.137	80.001	19.995	103.267	19.970	3.393	0.336
76.001	117.822	80.002	19.995	103.268	19.969	3.468	0.339
78.000	118.564	80.002	19.995	103.270	19.966	3.660	0.348
80.001	119.300	80.002	19.995	103.273	19.971	3.339	0.386
82.000	120.046	80.002	19.994	103.271	19.965	3.736	0.356
84.000	120.878	80.003	19.995	103.269	19.970	3.393	0.409
86.000	121.741	80.003	19.995	103.269	19.966	3.700	0.439
88.001	122.535	80.001	19.994	103.268	19.967	3.630	0.394
90.001	123.395	80.001	19.994	103.264	19.969	3.464	0.428
92.000	124.214	80.001	19.994	103.263	19.969	3.482	0.430
94.000	125.085	80.001	19.994	103.266	19.966	3.678	0.443
96.001	125.988	80.001	19.995	103.268	19.966	3.717	0.462
98.000	126.866	80.001	19.994	103.268	19.967	3.646	0.454
100.000	127.716	80.001	19.996	103.268	19.969	3.486	0.442
102.000	128.676	80.000	19.995	103.267	19.965	3.736	0.464
104.000	129.579	80.002	19.994	103.270	19.967	3.620	0.475
106.000	130.485	80.001	19.995	103.269	19.967	3.656	0.442
108.000	131.405	80.001	19.995	103.272	19.962	3.967	0.447
110.000	132.343	80.002	19.995	103.268	19.966	3.698	0.487
112.000	133.262	80.001	19.995	103.266	19.964	3.875	0.459
114.000	134.198	80.001	19.996	103.264	19.969	3.453	0.468
116.000	135.170	80.001	19.996	103.261	19.968	3.542	0.483
118.000	136.142	79.999	19.995	103.264	19.967	3.610	0.476
120.000	137.111	80.001	19.996	103.262	19.974	3.131	0.485
122.001	138.074	80.001	19.996	103.265	19.968	3.532	0.478
124.000	139.085	79.999	19.996	103.266	19.967	3.614	0.491
126.001	140.047	80.000	19.996	103.264	19.968	3.537	0.486
128.001	141.088	80.001	19.995	103.268	19.971	3.308	0.505
130.000	142.089	80.000	19.995	103.262	19.972	3.285	0.511
132.000	143.061	80.002	19.995	103.261	19.974	3.128	0.486
134.001	144.134	80.000	19.996	103.259	19.973	3.146	0.522
136.000	145.125	80.001	19.995	103.255	19.974	3.090	0.471
138.000	146.146	80.003	19.995	103.238	19.974	3.086	0.493
140.000	147.154	80.002	19.996	103.247	19.974	3.074	0.496
142.000	148.197	80.002	19.995	103.244	19.970	3.380	0.535
144.000	149.240	80.001	19.995	103.241	19.972	3.254	0.536
146.000	150.293	80.001	19.996	103.241	19.972	3.289	0.531
148.000	151.273	80.001	19.996	103.262	19.975	3.061	0.508
150.001	152.301	80.001	19.995	103.245	19.972	3.230	0.513
152.000	153.291	80.002	19.995	103.237	19.975	3.027	0.497
154.000	154.283	80.002	19.996	103.239	19.975	3.061	0.491
156.001	155.267	80.002	19.994	103.248	19.972	3.254	0.491
158.000	156.265	80.003	19.994	103.237	19.977	2.897	0.483
160.000	157.331	80.003	19.995	103.230	19.975	3.053	0.533
162.001	158.356	80.004	19.995	103.228	19.977	2.873	0.522
164.000	159.275	80.004	19.996	103.230	19.973	3.198	0.461
166.000	160.317	80.004	19.995	103.226	19.974	3.123	0.518
168.001	161.341	80.003	19.995	103.227	19.975	3.059	0.519
170.001	162.360	80.002	19.994	103.226	19.974	3.105	0.503
172.001	163.363	80.001	19.993	103.226	19.975	3.007	0.509
174.001	164.383	80.000	19.995	103.226	19.978	2.791	0.524
176.000	165.407	80.001	19.995	103.228	19.977	2.886	0.504
178.001	166.381	80.000	19.994	103.227	19.977	2.855	0.481
180.000	167.411	80.000	19.995	103.225	19.978	2.782	0.509
182.000	168.414	80.002	19.995	103.224	19.975	3.069	0.485
184.000	169.395	80.001	19.995	103.226	19.974	3.075	0.491
186.001	170.388	80.002	19.994	103.218	19.975	3.001	0.517
188.001	171.387	80.001	19.995	103.169	19.975	3.009	0.494
190.001	172.385	80.001	19.994	103.247	19.976	2.991	0.493
192.000	173.402	80.001	19.995	103.226	19.976	2.924	0.504
194.000	174.379	80.001	19.994	103.214	19.979	2.750	0.479
196.000	175.331	80.001	19.994	103.223	19.979	2.712	0.456
198.000	176.355	80.000	19.995	103.209	19.980	2.662	0.467
200.000	177.358	80.000	19.994	103.218	19.982	2.488	0.509
202.001	178.326	80.000	19.994	103.214	19.977	2.848	0.480
204.000	179.300	80.000	19.995	103.201	19.981	2.596	0.441
206.000	180.270	80.000	19.996	103.205	19.982	2.542	0.471
208.000	181.295	79.999	19.995	103.218	19.980	2.698	0.513
210.001	182.294	80.000	19.995	103.212	19.982	2.533	0.492
212.000	183.260	80.000	19.995	103.215	19.981	2.571	0.490
214.000	184.270	80.001	19.996	103.211	19.981	2.600	0.507
216.000	185.237	80.003	19.995	103.203	19.980	2.670	0.472
218.000	186.295	80.002	19.995	103.217	19.980	2.700	0.522
220.000	187.264	80.003	19.995	103.206	19.981	2.574	0.465
222.000	188.217	80.004	19.994	103.198	19.983	2.469	0.455
224.000	189.217	80.003	19.995	103.199	19.986	2.209	0.455
226.001	190.205	80.003	19.995	103.203	19.984	2.382	0.505
228.000	191.182	80.000	19.995	103.195	19.982	2.487	0.493
230.000	192.181	80.000	19.995	103.203	19.984	2.357	0.506
232.000	193.146	79.999	19.995	103.207	19.983	2.429	0.483
234.000	194.102	80.001	19.996	103.158	19.985	2.265	0.496
236.000	195.103	80.001	19.998	103.237	19.986	2.204	0.493
238.000	196.085	80.000	19.997	103.203	19.985	2.271	0.489
240.001	197.056	80.002	19.996	103.201	19.983	2.447	0.469
242.001	198.070	80.002	19.995	103.187	19.986	2.200	0.500
244.000	199.034	80.003	19.996	103.193	19.984	2.369	0.508
246.000	200.005	80.003	19.995	103.189	19.984	2.369	0.495
248.000	200.972	80.003	19.995	103.188	19.985	2.321	0.489
250.001	201.964	80.003	19.994	103.188	19.983	2.441	0.492
252.000	202.973	80.002	19.993	103.195	19.983	2.467	0.482
254.000	203.935	80.000	19.993	103.190	19.982	2.487	0.465
256.000	204.961	80.000	19.995	103.190	19.981	2.579	0.503
258.000	205.948	80.000	19.995	103.192	19.980	2.641	0.498
260.000	206.955	80.000	19.995	103.193	19.981	2.609	0.519
262.000	207.929	80.000	19.995	103.190	19.983	2.479	0.484
264.000	208.923	80.000	19.995	103.189	19.982	2.541	0.532
266.000	209.905	80.000	19.995	103.197	19.983	2.475	0.507
268.000	210.899	80.000	19.995	103.193	19.984	2.393	0.485
270.001	211.871	80.000	19.995	103.191	19.983	2.479	0.495
272.000	212.875	80.000	19.994	103.192	19.984	2.393	0.503
274.000	213.824	79.999	19.995	103.193	19.985	2.275	0.471
276.000	214.814	80.000	19.995	103.192	19.985	2.301	0.504
278.000	215.816	80.001	19.994	103.191	19.984	2.337	0.492
280.000	216.775	80.000	19.995	103.190	19.982	2.497	0.473
282.000	217.823	80.002	19.995	103.190	19.982	2.513	0.517
284.000	218.765	80.001	19.996	103.189	19.983	2.423	0.472
286.000	219.810	80.001	19.994	103.189	19.986	2.214	0.504
288.000	220.747	80.001	19.995	103.188	19.987	2.126	0.485
290.000	221.775	80.001	19.994	103.189	19.993	1.713	0.505
292.000	222.812	80.001	19.995	103.189	19.986	2.196	0.556
294.000	223.785	80.001	19.996	103.189	19.987	2.152	0.521
296.000	224.705	80.000	19.995	103.187	19.991	1.890	0.492
298.000	225.705	80.001	19.995	103.187	19.989	2.036	0.472
300.000	226.744	80.004	19.996	103.188	19.988	2.072	0.487
302.000	227.762	80.001	19.996	103.188	19.994	1.657	0.505
304.000	228.766	80.002	19.995	103.183	19.991	1.850	0.506
306.000	229.740	80.001	19.995	103.185	19.990	1.896	0.499
308.001	230.775	80.002	19.996	103.186	19.989	2.014	0.507
310.000	231.787	80.002	19.996	103.185	19.991	1.890	0.500
312.000	232.731	80.002	19.995	103.187	19.986	2.216	0.490
314.000	233.699	80.000	19.996	103.184	19.990	1.920	0.471
316.000	234.730	80.001	19.994	103.183	19.989	2.018	0.509
318.000	235.731	80.001	19.995	103.189	19.987	2.146	0.492
320.000	236.735	80.001	19.996	103.189	19.991	1.883	0.478
322.000	237.694	80.003	19.996	103.190	19.993	1.733	0.466
324.000	238.703	80.004	19.995	103.187	19.991	1.857	0.523
326.000	239.649	80.003	19.996	103.186	19.990	1.938	0.444
328.000	240.646	80.003	19.995	103.177	19.988	2.090	0.487
330.000	241.608	80.002	19.995	103.169	19.992	1.773	0.459
332.000	242.625	80.001	19.995	103.164	19.992	1.797	0.504
334.000	243.625	80.000	19.995	103.169	19.989	1.986	0.487
336.001	244.599	80.000	19.996	103.170	19.990	1.948	0.486
338.000	245.587	80.000	19.996	103.178	19.990	1.901	0.464
340.000	246.575	80.001	19.995	103.173	19.992	1.795	0.485
342.000	247.520	80.001	19.994	103.167	19.991	1.877	0.484
344.000	248.471	79.999	19.995	103.180	19.993	1.721	0.482
346.000	249.516	80.001	19.996	103.175	19.993	1.681	0.513
348.000	250.475	80.001	19.995	103.171	19.992	1.763	0.498
350.000	251.436	80.001	19.995	103.172	19.993	1.705	0.468
352.000	252.428	80.001	19.994	103.154	19.994	1.603	0.509
354.000	253.434	80.000	19.996	103.159	19.989	1.989	0.483
356.000	254.357	80.001	19.995	103.160	19.994	1.669	0.491
358.000	255.352	80.000	19.994	103.154	19.990	1.957	0.509
360.000	256.358	80.001	19.997	103.156	19.992	1.753	0.471
362.000	257.305	80.001	19.995	103.163	19.990	1.959	0.487
364.000	258.297	79.999	19.995	103.154	19.992	1.779	0.513
366.000	259.255	80.001	19.995	103.159	19.991	1.889	0.491
368.000	260.248	80.002	19.995	103.153	19.992	1.763	0.487
370.000	261.151	79.999	19.996	103.153	19.991	1.873	0.452
372.000	262.149	79.999	19.996	103.159	19.995	1.597	0.432
374.000	263.121	80.001	19.994	103.160	19.994	1.607	0.474
376.000	264.116	80.001	19.995	103.154	19.993	1.717	0.492
378.000	265.081	80.002	19.995	103.151	19.993	1.693	0.496
380.001	266.070	80.003	19.994	103.155	19.994	1.653	0.479
382.000	267.073	80.002	19.995	103.160	19.994	1.617	0.483
384.000	268.058	80.003	19.995	103.168	19.992	1.815	0.493
386.000	269.052	80.003	19.995	103.162	19.994	1.665	0.503
388.000	270.020	80.002	19.995	103.155	19.994	1.645	0.483
390.000	271.054	80.000	19.994	103.154	19.990	1.943	0.497
392.000	272.058	80.001	19.994	103.156	19.993	1.741	0.516
394.000	273.028	80.001	19.995	103.152	19.991	1.849	0.490
396.000	274.030	80.002	19.996	103.156	19.996	1.495	0.504
398.000	275.026	80.001	19.995	103.161	19.993	1.733	0.495
400.000	276.042	80.001	19.995	103.159	19.995	1.591	0.495
402.000	277.008	80.002	19.996	103.154	19.996	1.513	0.480
404.000	278.010	80.001	19.995	103.158	19.997	1.418	0.509
406.000	279.013	80.003	19.995	103.169	19.996	1.497	0.477
408.000	280.044	80.003	19.994	103.152	19.996	1.473	0.499
410.000	281.029	80.003	19.996	103.155	19.996	1.457	0.510
412.000	282.050	80.004	19.994	103.156	19.993	1.705	0.505
414.000	283.057	80.001	19.995	103.160	19.999	1.290	0.480
416.000	284.071	80.001	19.996	103.155	19.997	1.386	0.515
418.000	285.083	80.000	19.995	103.150	19.993	1.681	0.503
420.000	286.083	79.999	19.997	103.158	19.996	1.521	0.528
422.000	287.085	80.000	19.997	103.156	19.996	1.496	0.523
424.000	288.098	79.999	19.996	103.148	20.000	1.214	0.507
426.000	289.086	79.999	19.996	103.157	19.997	1.434	0.504
428.000	290.107	79.999	19.995	103.151	19.999	1.294	0.501
430.000	291.094	80.000	19.996	103.153	19.999	1.256	0.477
432.000	292.176	80.001	19.995	103.152	20.001	1.142	0.536
434.000	293.125	79.999	19.996	103.151	20.001	1.104	0.478
436.000	294.129	80.001	19.995	103.149	20.001	1.142	0.499
438.000	295.213	80.001	19.995	103.155	20.002	1.014	0.549
440.000	296.206	80.000	19.995	103.155	20.000	1.202	0.519
442.000	297.217	80.001	19.995	103.149	20.000	1.198	0.506
444.000	298.257	80.001	19.994	103.151	20.000	1.200	0.528
446.000	299.282	80.002	19.995	103.150	19.999	1.234	0.520
448.000	300.266	80.001	19.995	103.153	20.002	1.060	0.491
450.000	301.244	79.999	19.994	103.153	20.000	1.176	0.511
452.000	302.292	79.999	19.995	103.153	20.000	1.170	0.523
454.000	303.302	80.002	19.995	103.151	20.001	1.140	0.525
456.000	304.326	80.001	19.996	103.159	20.003	0.992	0.491
458.000	305.345	80.000	19.995	103.163	20.000	1.180	0.510
460.000	306.358	80.002	19.994	103.158	20.003	0.960	0.506
462.000	307.340	80.002	19.995	103.153	20.004	0.914	0.480
464.000	308.384	80.001	19.994	103.153	20.004	0.928	0.509
466.000	309.394	80.002	19.994	103.155	19.999	1.262	0.503
468.000	310.430	80.002	19.995	103.154	19.998	1.314	0.504
470.000	311.434	80.002	19.994	103.151	20.001	1.134	0.506
472.000	312.525	80.003	19.993	103.152	19.995	1.528	0.510
474.000	313.550	80.001	19.994	103.148	19.996	1.484	0.537
476.000	314.603	80.002	19.994	103.148	19.998	1.364	0.557
478.000	315.568	80.002	19.994	103.149	19.998	1.342	0.503
480.001	316.568	80.002	19.995	103.150	19.997	1.450	0.490
482.000	317.619	80.002	19.996	103.146	19.998	1.346	0.494
484.000	318.613	80.004	19.996	103.143	19.999	1.302	0.513
486.001	319.626	80.003	19.995	103.146	19.998	1.324	0.521
488.000	320.662	80.003	19.996	103.146	19.998	1.332	0.508
490.000	321.697	80.004	19.996	103.145	20.000	1.210	0.546
492.000	322.672	80.003	19.995	103.140	20.002	1.064	0.517
494.000	323.671	80.004	19.995	103.140	20.000	1.174	0.491
496.000	324.703	80.003	19.996	103.144	20.004	0.895	0.518
498.001	325.767	80.000	19.995	103.137	20.003	1.008	0.529
500.000	326.772	80.001	19.995	103.144	20.002	1.022	0.489
502.000	327.779	80.002	19.996	103.140	20.001	1.142	0.493
504.000	328.788	80.000	19.995	103.145	20.003	0.991	0.494
506.000	329.856	80.001	19.996	103.145	20.004	0.867	0.530
508.000	330.803	80.001	19.996	103.149	20.003	1.008	0.503
510.000	331.841	80.000	19.995	103.143	20.001	1.132	0.507
512.000	332.892	80.001	19.996	103.138	19.999	1.276	0.528
514.000	333.870	79.998	19.996	103.133	20.000	1.166	0.475
516.000	334.933	80.000	19.996	103.136	20.000	1.166	0.508
518.000	335.920	80.000	19.995	103.145	20.000	1.216	0.494
520.000	336.938	80.000	19.996	103.139	20.002	1.034	0.512
522.000	337.920	79.999	19.996	103.130	20.005	0.855	0.522
524.000	338.939	80.000	19.994	103.128	20.006	0.773	0.494
526.000	339.888	80.000	19.996	103.126	20.007	0.647	0.515
528.000	340.913	80.000	19.995	103.129	20.004	0.917	0.495
530.000	341.894	79.999	19.995	103.132	20.005	0.801	0.477
532.000	342.888	80.000	19.995	103.148	20.005	0.851	0.487
534.000	343.915	79.999	19.994	103.148	20.005	0.847	0.518
536.000	344.918	80.000	19.995	103.138	20.010	0.473	0.506
538.000	345.903	80.000	19.994	103.145	20.006	0.725	0.488
540.000	346.888	80.003	19.996	103.133	20.009	0.521	0.492
542.000	347.908	80.002	19.995	103.122	20.007	0.695	0.487
544.000	348.918	80.002	19.996	103.139	20.007	0.653	0.515
546.000	349.867	80.003	19.995	103.126	20.005	0.839	0.492
548.000	350.881	80.003	19.995	103.140	20.005	0.833	0.487
550.000	351.881	80.002	19.994	103.131	20.009	0.523	0.514
552.000	352.895	80.002	19.994	103.127	20.006	0.765	0.509
554.000	353.863	80.000	19.993	103.118	20.004	0.895	0.479
556.000	354.881	80.002	19.993	103.120	20.006	0.765	0.500
558.000	355.816	80.000	19.996	103.131	20.008	0.605	0.483
560.000	356.788	80.003	19.994	103.139	20.008	0.607	0.475
562.000	357.860	80.003	19.994	103.131	20.006	0.781	0.502
564.000	358.806	80.003	19.996	103.139	20.005	0.825	0.467
566.000	359.827	80.004	19.995	103.128	20.005	0.827	0.517
568.000	360.808	80.004	19.994	103.125	20.007	0.667	0.503
570.000	361.823	80.004	19.994	103.135	20.008	0.617	0.520
572.000	362.862	80.004	19.995	103.132	20.009	0.553	0.522
574.000	363.825	80.003	19.995	103.125	20.006	0.737	0.488
576.000	364.814	80.002	19.996	103.125	20.010	0.465	0.515
578.000	365.832	80.002	19.994	103.139	20.010	0.489	0.494
580.000	366.820	80.000	19.995	103.124	20.012	0.316	0.500
582.000	367.814	80.000	19.997	103.116	20.012	0.284	0.490
584.000	368.836	79.999	19.995	103.121	20.010	0.425	0.523
586.000	369.853	80.000	19.995	103.136	20.010	0.443	0.525
588.000	370.826	80.000	19.995	103.125	20.008	0.591	0.500
590.000	371.799	80.001	19.996	103.132	20.008	0.581	0.503
592.000	372.854	80.000	19.994	103.134	20.007	0.649	0.539
594.001	373.861	80.002	19.995	103.122	20.003	0.947	0.525
596.000	374.880	80.000	19.995	103.139	20.007	0.651	0.491
598.000	375.847	80.000	19.993	103.147	20.007	0.651	0.469
600.000	376.875	80.000	19.994	103.141	20.006	0.725	0.513
602.000	377.904	80.000	19.996	103.125	20.009	0.529	0.506
604.000	378.912	80.000	19.996	103.117	20.007	0.689	0.502
606.000	379.955	80.001	19.995	103.116	20.008	0.597	0.543
608.000	380.912	79.999	19.996	103.112	20.005	0.829	0.469
610.000	381.959	80.000	19.996	103.120	20.007	0.705	0.491
612.000	382.993	79.998	19.997	103.117	20.006	0.743	0.517
614.000	383.983	80.000	19.997	103.112	20.004	0.933	0.496
616.000	385.041	79.999	19.997	103.112	20.008	0.601	0.502
618.000	385.995	80.002	19.997	103.109	20.006	0.721	0.473
620.000	387.027	80.002	19.996	103.116	20.006	0.761	0.500
622.000	387.985	80.002	19.995	103.113	20.006	0.741	0.495
624.000	389.033	80.004	19.995	103.115	20.004	0.879	0.480
626.000	390.005	80.002	19.995	103.118	20.005	0.853	0.515
628.000	391.008	80.003	19.995	103.119	20.008	0.573	0.498
630.000	392.017	80.004	19.995	103.123	20.008	0.581	0.506
632.000	392.984	80.003	19.995	103.120	20.008	0.579	0.466
634.000	394.056	80.001	19.996	103.122	20.005	0.821	0.498
636.000	395.102	80.002	19.994	103.117	20.010	0.449	0.514
638.000	396.150	80.000	19.995	103.120	20.009	0.541	0.538
640.000	397.123	80.003	19.995	103.119	20.006	0.723	0.491
642.000	398.209	80.001	19.995	103.118	20.009	0.555	0.512
644.000	399.171	80.001	19.996	103.117	20.009	0.511	0.510
646.000	400.261	80.003	19.993	103.113	20.002	1.045	0.533
648.000	401.182	80.002	19.994	103.123	20.001	1.091	0.483
650.000	402.260	80.004	19.995	103.122	20.009	0.539	0.497
652.000	403.294	80.003	19.994	103.121	20.011	0.395	0.556
654.000	404.212	80.004	19.994	103.114	20.009	0.523	0.489
656.001	405.403	80.003	19.995	103.115	20.012	0.334	0.497
658.000	406.276	80.001	19.993	103.114	20.013	0.240	0.512
660.000	407.141	80.002	19.994	103.120	20.011	0.399	0.463
662.000	408.074	80.002	19.994	103.119	20.012	0.324	0.114
664.000	409.203	80.000	19.995	103.121	20.013	0.272	0.273
666.000	410.451	80.000	19.996	103.129	20.013	0.252	0.471
668.000	411.422	80.000	19.996	103.135	20.011	0.366	0.583
670.000	412.315	80.001	19.995	103.124	20.014	0.132	0.515
672.000	413.396	80.002	19.994	103.121	20.013	0.238	0.467
674.000	414.403	80.001	19.995	103.115	20.011	0.362	0.482
676.000	415.475	80.002	19.995	103.111	20.010	0.457	0.487
678.000	416.477	80.002	19.995	103.110	20.009	0.505	0.521
680.000	417.484	80.002	19.996	103.118	20.007	0.647	0.518
682.000	418.528	80.002	19.996	103.114	20.008	0.617	0.532
684.000	419.586	80.001	19.996	103.123	20.008	0.607	0.509
686.000	420.643	80.000	19.995	103.110	20.008	0.615	0.500
688.000	421.631	80.001	19.995	103.115	20.007	0.657	0.512
690.000	422.721	80.001	19.997	103.111	20.011	0.413	0.553
692.000	423.707	80.000	19.996	103.117	20.006	0.719	0.505
694.000	424.734	80.000	19.995	103.115	20.008	0.613	0.515
696.000	425.793	80.000	19.996	103.112	20.010	0.449	0.510
698.000	426.794	80.001	19.996	103.111	20.007	0.681	0.501
700.000	427.829	80.000	19.997	103.110	20.008	0.605	0.525
702.000	428.892	80.000	19.998	103.117	20.006	0.787	0.518
704.000	429.906	80.001	19.996	103.111	20.005	0.795	0.524
706.000	430.965	80.001	19.996	103.116	20.005	0.799	0.550
708.000	431.966	80.002	19.996	103.112	20.006	0.733	0.503
710.000	433.019	80.002	19.995	103.113	20.002	1.035	0.526
712.000	434.059	80.001	19.994	103.114	20.007	0.647	0.536
714.000	435.075	80.002	19.995	103.118	20.006	0.785	0.545
716.000	436.071	80.002	19.994	103.114	20.005	0.861	0.502
718.000	437.082	80.000	19.995	103.114	20.010	0.485	0.508
720.000	438.109	80.002	19.995	103.117	20.006	0.763	0.533
722.000	439.145	80.003	19.994	103.118	20.007	0.659	0.502
724.000	440.131	80.002	19.993	103.112	20.008	0.585	0.499
726.000	441.140	80.001	19.994	103.114	20.009	0.503	0.502
728.000	442.161	80.002	19.994	103.114	20.009	0.553	0.486
730.000	443.193	80.003	19.995	103.112	20.007	0.651	0.501
732.000	444.251	80.005	19.994	103.111	20.010	0.445	0.529
734.000	445.235	80.003	19.994	103.109	20.010	0.483	0.484
736.000	446.256	80.003	19.994	103.108	20.010	0.477	0.520
738.000	447.257	80.003	19.994	103.109	20.013	0.240	0.510
740.000	448.231	80.002	19.994	103.109	20.010	0.425	0.501
742.000	449.262	80.001	19.995	103.108	20.009	0.531	0.504
744.000	450.281	80.000	19.994	103.105	20.006	0.753	0.507
746.000	451.304	80.001	19.995	103.101	20.007	0.647	0.512
748.000	452.321	80.002	19.993	103.111	20.007	0.693	0.500
750.000	453.317	80.001	19.994	103.110	20.009	0.509	0.524
752.000	454.336	80.002	19.995	103.109	20.011	0.400	0.519
754.000	455.364	80.001	19.994	103.113	20.011	0.358	0.530
756.000	456.387	80.003	19.994	103.107	20.012	0.314	0.513
758.000	457.357	80.001	19.995	103.109	20.010	0.469	0.496
760.000	458.358	80.001	19.995	103.110	20.011	0.368	0.474
762.000	459.376	80.001	19.995	103.107	20.012	0.296	0.521
764.000	460.385	80.001	19.994	103.108	20.013	0.254	0.514
766.000	461.441	80.002	19.995	103.109	20.010	0.431	0.499
768.000	462.464	80.002	19.996	103.111	20.014	0.188	0.517
770.000	463.463	80.000	19.996	103.113	20.012	0.342	0.499
772.000	464.445	80.001	19.995	103.109	20.009	0.539	0.527
774.000	465.449	79.999	19.996	103.114	20.009	0.567	0.493
776.000	466.462	80.000	19.995	103.109	20.011	0.350	0.495
778.000	467.465	79.999	19.994	103.101	20.011	0.368	0.497
780.000	468.483	80.000	19.995	103.107	20.011	0.352	0.484
782.000	469.510	80.001	19.996	103.109	20.009	0.537	0.548
784.000	470.503	79.999	19.994	103.105	20.014	0.142	0.515
786.000	471.503	80.001	19.995	103.109	20.011	0.390	0.512
788.000	472.544	80.001	19.996	103.112	20.012	0.304	0.520
790.000	473.518	80.001	19.995	103.110	20.013	0.214	0.501
792.000	474.574	80.001	19.996	103.093	20.011	0.374	0.519
794.000	475.596	80.001	19.996	103.100	20.014	0.196	0.538
796.000	476.567	80.001	19.996	103.105	20.011	0.350	0.498
798.000	477.664	80.001	19.996	103.079	20.013	0.248	0.510
800.000	478.660	80.003	19.996	103.088	20.014	0.174	0.500
802.000	479.638	80.001	19.996	103.099	20.014	0.144	0.479
804.000	480.709	80.002	19.996	103.091	20.016	-0.006	0.510
806.001	481.713	80.002	19.994	103.102	20.014	0.198	0.547
808.000	482.708	80.003	19.995	103.108	20.014	0.186	0.517
810.000	483.714	80.004	19.994	103.097	20.013	0.236	0.514
812.001	484.747	80.004	19.994	103.096	20.011	0.354	0.504
814.000	485.775	80.004	19.995	103.089	20.012	0.298	0.498
816.000	486.780	80.005	19.995	103.098	20.014	0.184	0.511
818.000	487.782	80.003	19.994	103.097	20.015	0.126	0.502
820.000	488.752	80.002	19.995	103.099	20.015	0.088	0.476
822.000	489.764	80.000	19.994	103.109	20.014	0.130	0.482
824.000	490.742	80.001	19.995	103.093	20.016	0.012	0.472
826.000	491.771	80.001	19.995	103.085	20.015	0.122	0.501
828.000	492.750	80.001	19.995	103.098	20.015	0.080	0.498
830.000	493.766	80.001	19.995	103.103	20.015	0.062	0.488
832.000	494.799	80.000	19.996	103.103	20.015	0.074	0.538
834.000	495.806	80.000	19.995	103.090	20.014	0.172	0.472
836.000	496.848	80.000	19.994	103.105	20.013	0.250	0.535
838.000	497.859	79.999	19.992	103.107	20.014	0.172	0.522
840.000	498.887	80.003	19.995	103.095	20.012	0.296	0.522
842.000	499.829	80.002	19.994	103.099	20.012	0.310	0.492
844.000	500.895	80.000	19.995	103.096	20.014	0.192	0.520
846.000	501.836	80.001	19.994	103.099	20.010	0.426	0.472
848.000	502.846	80.001	19.995	103.109	20.013	0.212	0.546
850.000	503.859	80.000	19.994	103.109	20.010	0.432	0.506
852.000	504.878	80.000	19.995	103.086	20.015	0.080	0.499
854.000	505.912	79.999	19.995	103.105	20.014	0.186	0.520
856.000	506.875	80.000	19.996	103.107	20.016	0.036	0.492
858.000	507.901	80.000	19.995	103.104	20.015	0.088	0.500
860.000	508.922	80.001	19.996	103.103	20.016	0.036	0.514
862.000	509.940	80.002	19.996	103.089	20.014	0.138	0.511
864.000	510.938	80.002	19.995	103.088	20.010	0.422	0.476
866.000	511.947	80.002	19.995	103.093	20.016	0.042	0.501
868.000	512.929	80.002	19.995	103.099	20.013	0.208	0.491
870.000	513.984	80.003	19.995	103.092	20.008	0.579	0.536
872.000	514.940	80.003	19.995	103.091	20.011	0.406	0.454
874.000	516.001	80.002	19.995	103.105	20.011	0.358	0.506
876.000	517.000	80.002	19.995	103.092	20.013	0.272	0.495
878.000	518.005	80.001	19.996	103.100	20.012	0.324	0.501
880.000	519.034	80.001	19.995	103.105	20.013	0.254	0.524
882.000	520.020	80.002	19.995	103.096	20.013	0.246	0.526
884.000	520.993	80.001	19.996	103.094	20.013	0.262	0.474
886.000	522.035	80.001	19.997	103.087	20.010	0.432	0.532
888.000	523.020	80.001	19.996	103.094	20.008	0.589	0.501
890.000	524.066	80.002	19.996	103.091	20.009	0.539	0.524
892.000	525.065	80.003	19.996	103.096	20.007	0.679	0.507
894.000	526.076	80.003	19.995	103.085	20.010	0.426	0.513
896.000	527.064	80.004	19.995	103.090	20.011	0.372	0.489
898.000	528.080	80.002	19.993	103.082	20.011	0.362	0.515
900.000	529.068	80.001	19.995	103.093	20.012	0.336	0.531
902.000	530.059	80.000	19.994	103.108	20.012	0.340	0.471
904.000	531.095	80.001	19.994	103.105	20.009	0.499	0.494
906.000	532.092	80.000	19.994	103.092	20.008	0.591	0.520
908.000	533.108	79.999	19.995	103.094	20.011	0.356	0.503
910.000	534.192	80.000	19.995	103.100	20.012	0.334	0.507
912.000	535.250	80.001	19.994	103.093	20.011	0.392	0.544
914.000	536.258	80.000	19.996	103.095	20.013	0.258	0.475
916.000	537.292	80.001	19.995	103.105	20.014	0.170	0.491
918.000	538.263	80.000	19.995	103.098	20.015	0.118	0.507
920.001	539.374	80.001	19.994	103.107	20.013	0.204	0.556
922.000	540.332	80.002	19.995	103.097	20.015	0.106	0.524
924.000	541.343	80.002	19.996	103.100	20.012	0.328	0.519
926.000	542.371	80.001	19.995	103.073	20.013	0.254	0.497
928.000	543.390	80.002	19.996	103.081	20.014	0.174	0.506
930.000	544.387	80.001	19.995	103.102	20.013	0.204	0.515
932.000	545.371	80.000	19.995	103.086	20.012	0.308	0.506
934.000	546.379	80.001	19.995	103.089	20.011	0.406	0.505
936.000	547.425	80.000	19.994	103.094	20.011	0.362	0.536
938.000	548.411	79.999	19.995	103.080	20.011	0.368	0.505
940.000	549.423	80.000	19.996	103.085	20.010	0.492	0.506
942.000	550.419	80.002	19.995	103.092	20.008	0.615	0.499
944.000	551.462	80.002	19.994	103.090	20.009	0.526	0.495
946.000	552.435	80.003	19.995	103.084	20.009	0.498	0.501
948.000	553.427	80.003	19.995	103.088	20.010	0.432	0.502
950.000	554.480	80.002	19.996	103.074	20.011	0.386	0.504
952.000	555.511	80.002	19.994	103.079	20.009	0.531	0.503
954.000	556.516	80.001	19.994	103.087	20.009	0.511	0.458
956.000	557.496	80.001	19.996	103.077	20.009	0.553	0.494
958.000	558.526	80.001	19.995	103.081	20.009	0.547	0.499
960.000	559.547	80.002	19.996	103.087	20.013	0.272	0.507
962.000	560.532	80.001	19.995	103.104	20.011	0.418	0.488
964.000	561.512	80.001	19.995	103.105	20.013	0.260	0.493
966.000	562.571	80.002	19.995	103.106	20.011	0.402	0.512
968.000	563.518	80.001	19.994	103.095	20.012	0.314	0.489
970.000	564.499	80.002	19.994	103.090	20.016	0.048	0.503
972.000	565.503	80.003	19.994	103.091	20.012	0.336	0.502
974.000	566.518	80.003	19.996	103.089	20.012	0.336	0.529
976.000	567.512	80.001	19.996	103.090	20.014	0.172	0.513
978.000	568.523	80.002	19.995	103.108	20.014	0.142	0.502
980.000	569.529	80.000	19.994	103.101	20.013	0.232	0.547
982.000	570.533	80.000	19.996	103.093	20.010	0.422	0.493
984.000	571.549	79.999	19.995	103.104	20.014	0.144	0.504
986.000	572.561	80.000	19.995	103.090	20.013	0.238	0.510
988.000	573.559	80.001	19.995	103.106	20.013	0.206	0.509
990.000	574.585	80.002	19.995	103.099	20.015	0.094	0.509
992.000	575.606	80.002	19.994	103.082	20.013	0.216	0.495
994.000	576.624	80.001	19.994	103.085	20.012	0.306	0.513
996.000	577.624	80.002	19.995	103.102	20.013	0.210	0.525
998.000	578.670	80.001	19.995	103.095	20.014	0.142	0.525
1000.001	579.644	80.001	19.995	103.084	20.011	0.348	0.482
1002.000	580.653	80.001	19.995	103.090	20.015	0.106	0.486
1004.000	581.699	80.003	19.994	103.079	20.011	0.358	0.503
1006.000	582.711	80.001	19.994	103.088	20.012	0.288	0.534
1008.000	583.669	80.001	19.994	103.077	20.009	0.551	0.504
1010.000	584.641	80.002	19.994	103.080	20.006	0.745	0.511
1012.000	585.661	80.001	19.995	103.078	20.006	0.717	0.491
1014.000	586.677	80.001	19.996	103.072	20.009	0.526	0.471
1016.000	587.681	80.001	19.995	103.073	20.008	0.633	0.499
1018.000	588.660	79.999	19.994	103.075	20.010	0.424	0.482
1020.000	589.680	80.001	19.994	103.082	20.010	0.492	0.522
1022.000	590.638	80.002	19.995	103.079	20.013	0.270	0.471
1024.000	591.627	80.001	19.994	103.085	20.014	0.134	0.520
1026.000	592.634	80.001	19.994	103.083	20.012	0.282	0.473
1028.000	593.643	80.003	19.994	103.082	20.011	0.372	0.492
1030.000	594.656	80.003	19.994	103.087	20.011	0.408	0.516
1032.000	595.670	80.002	19.995	103.079	20.012	0.298	0.497
1034.000	596.715	80.002	19.995	103.082	20.012	0.314	0.506
1036.000	597.689	80.003	19.995	103.076	20.013	0.254	0.511
1038.000	598.670	80.002	19.994	103.081	20.012	0.342	0.489
1040.000	599.684	80.002	19.996	103.078	20.010	0.458	0.500
1042.001	600.660	80.001	19.994	103.084	20.012	0.278	0.483
1044.000	601.648	80.001	19.995	103.084	20.012	0.346	0.496
1046.001	602.582	80.002	19.995	103.073	20.012	0.326	0.485
1048.000	603.570	80.002	19.995	103.072	20.010	0.488	0.472
1050.000	604.552	80.003	19.994	103.073	20.012	0.336	0.465
1052.000	605.502	80.004	19.995	103.072	20.014	0.170	0.470
1054.000	606.476	80.004	19.994	103.073	20.010	0.478	0.490
1056.000	607.462	80.004	19.995	103.072	20.011	0.386	0.513
1058.000	608.459	80.002	19.994	103.080	20.009	0.551	0.508
1060.001	609.467	80.002	19.995	103.074	20.013	0.228	0.494
1062.000	610.476	80.002	19.995	103.068	20.008	0.627	0.480
1064.000	611.487	80.002	19.995	103.074	20.010	0.488	0.539
1066.000	612.489	80.000	19.994	103.074	20.008	0.571	0.526
1068.000	613.536	80.000	19.995	103.091	20.010	0.480	0.508
1070.000	614.569	80.002	19.996	103.075	20.011	0.400	0.527
1072.000	615.602	80.003	19.996	103.074	20.008	0.579	0.523
1074.001	616.673	80.001	19.996	103.078	20.010	0.430	0.521
1076.000	617.714	80.001	19.996	103.077	20.010	0.428	0.513
1078.001	618.721	80.001	19.995	103.081	20.009	0.567	0.514
1080.001	619.789	80.002	19.995	103.074	20.012	0.316	0.524
1082.001	620.851	80.002	19.995	103.073	20.012	0.294	0.510
1084.001	621.927	80.003	19.995	103.082	20.006	0.733	0.532
1086.000	622.982	80.002	19.995	103.090	20.011	0.382	0.554
1088.001	624.040	80.001	19.995	103.099	20.011	0.354	0.527
1090.001	625.076	80.001	19.995	103.086	20.010	0.493	0.520
1092.000	626.108	80.001	19.994	103.093	20.011	0.384	0.520
1094.000	627.193	80.001	19.995	103.091	20.009	0.531	0.532
1096.000	628.244	80.002	19.995	103.085	20.010	0.454	0.527
1098.001	629.314	80.001	19.995	103.092	20.010	0.456	0.531
1100.001	630.340	80.001	19.995	103.086	20.011	0.348	0.508
1102.000	631.453	80.002	19.995	103.080	20.011	0.354	0.526
1104.000	632.518	80.001	19.994	103.085	20.012	0.322	0.578
1106.001	633.562	80.001	19.995	103.077	20.010	0.422	0.543
1108.000	634.680	80.002	19.994	103.079	20.013	0.232	0.569
1110.001	635.790	80.001	19.994	103.075	20.009	0.520	0.557
1112.000	636.827	80.002	19.994	103.079	20.014	0.184	0.545
1114.001	637.898	80.003	19.994	103.079	20.013	0.254	0.530
1116.000	638.974	80.002	19.994	103.077	20.011	0.414	0.554
1118.000	640.018	80.003	19.994	103.074	20.012	0.280	0.534
1120.000	641.072	80.002	19.995	103.074	20.009	0.498	0.512
1122.001	642.155	80.004	19.993	103.079	20.011	0.366	0.533
1124.000	643.221	80.002	19.994	103.093	20.007	0.673	0.536
1126.001	644.277	80.002	19.994	103.076	20.014	0.134	0.536
1128.000	645.265	80.003	19.995	103.074	20.013	0.208	0.524
1130.000	646.362	80.003	19.995	103.079	20.010	0.464	0.597
1132.000	647.338	80.003	19.995	103.072	20.010	0.462	0.495
1134.001	648.361	80.004	19.995	103.069	20.012	0.278	0.502
1136.000	649.404	80.004	19.995	103.080	20.011	0.374	0.523
1138.000	650.428	80.003	19.994	103.072	20.014	0.148	0.521
1140.000	651.460	80.002	19.995	103.076	20.012	0.340	0.494
1142.000	652.517	80.002	19.996	103.076	20.012	0.326	0.504
1144.000	653.421	80.002	19.995	103.070	20.011	0.418	0.430
1146.000	654.527	80.002	19.994	103.070	20.011	0.364	0.546
1148.000	655.587	80.001	19.995	103.070	20.012	0.308	0.552
1150.000	656.606	80.001	19.994	103.075	20.012	0.288	0.535
1152.000	657.564	79.999	19.995	103.077	20.013	0.230	0.505
1154.000	658.562	80.000	19.995	103.081	20.013	0.216	0.464
1156.000	659.555	80.001	19.994	103.081	20.008	0.573	0.520
1158.000	660.555	80.001	19.995	103.076	20.015	0.090	0.465
1160.000	661.563	80.001	19.995	103.078	20.013	0.210	0.512
1162.001	662.582	79.999	19.996	103.076	20.012	0.276	0.515
1164.000	663.574	80.000	19.995	103.076	20.011	0.350	0.519
1166.000	664.554	80.000	19.995	103.074	20.012	0.288	0.512
1168.000	665.572	80.000	19.995	103.077	20.012	0.320	0.531
1170.000	666.528	80.000	19.995	103.076	20.014	0.184	0.482
1172.001	667.532	79.999	19.994	103.082	20.011	0.398	0.494
1174.000	668.506	80.001	19.995	103.079	20.010	0.446	0.455
1176.000	669.515	80.001	19.994	103.085	20.015	0.122	0.498
1178.001	670.501	80.000	19.994	103.077	20.008	0.609	0.506
1180.000	671.484	80.001	19.994	103.074	20.012	0.334	0.487
1182.000	672.522	80.001	19.995	103.072	20.013	0.264	0.510
1184.000	673.532	80.001	19.995	103.071	20.011	0.400	0.489
1186.000	674.556	80.002	19.994	103.071	20.012	0.294	0.507
1188.000	675.561	80.002	19.994	103.079	20.011	0.350	0.516
1190.000	676.598	80.003	19.994	103.071	20.014	0.172	0.521
1192.000	677.589	80.002	19.994	103.071	20.011	0.398	0.477
1194.000	678.565	80.003	19.994	103.068	20.015	0.126	0.499
1196.000	679.589	80.003	19.995	103.072	20.011	0.386	0.480
1198.001	680.579	80.002	19.993	103.069	20.011	0.374	0.504
1200.000	681.602	80.002	19.995	103.070	20.016	0.046	0.505
1202.000	682.610	80.002	19.994	103.070	20.012	0.342	0.473
1204.001	683.647	80.004	19.994	103.071	20.014	0.162	0.504
1206.000	684.650	80.003	19.994	103.069	20.014	0.160	0.514
1208.000	685.665	80.002	19.995	103.070	20.017	-0.056	0.512
1210.001	686.654	80.002	19.994	103.071	20.015	0.090	0.488
1212.001	687.637	80.003	19.994	103.072	20.014	0.172	0.497
1214.001	688.656	80.004	19.994	103.070	20.014	0.148	0.517
1216.000	689.651	80.004	19.994	103.071	20.009	0.550	0.505
1218.001	690.631	80.002	19.993	103.070	20.014	0.142	0.515
1220.000	691.643	80.003	19.994	103.072	20.012	0.326	0.473
1222.000	692.637	80.003	19.995	103.072	20.010	0.490	0.496
1224.000	693.627	80.002	19.995	103.071	20.013	0.212	0.488
1226.000	694.579	80.000	19.995	103.071	20.013	0.206	0.497
1228.000	695.587	80.001	19.994	103.073	20.011	0.420	0.509
1230.001	696.590	80.001	19.996	103.073	20.010	0.456	0.483
1232.001	697.592	80.001	19.996	103.072	20.010	0.482	0.532
1234.000	698.576	80.000	19.995	103.074	20.013	0.240	0.496
1236.001	699.586	80.000	19.995	103.073	20.010	0.428	0.495
1238.001	700.578	80.001	19.994	103.074	20.013	0.234	0.501
1240.000	701.553	80.001	19.995	103.077	20.009	0.536	0.489
1242.001	702.606	80.001	19.995	103.074	20.010	0.422	0.502
1244.000	703.610	80.002	19.994	103.072	20.008	0.589	0.511
1246.000	704.578	80.001	19.995	103.070	20.010	0.452	0.485
1248.000	705.602	80.000	19.994	103.073	20.013	0.250	0.501
1250.001	706.651	80.000	19.995	103.069	20.011	0.388	0.481
1252.001	707.607	80.000	19.996	103.072	20.013	0.260	0.491
1254.000	708.639	79.999	19.997	103.079	20.010	0.456	0.528
1256.000	709.664	80.000	19.996	103.088	20.010	0.434	0.507
1258.000	710.682	80.000	19.996	103.075	20.012	0.314	0.526
1260.000	711.710	80.001	19.998	103.069	20.010	0.490	0.528
1262.001	712.738	80.002	19.996	103.069	20.011	0.368	0.541
1264.000	713.729	80.001	19.995	103.073	20.012	0.314	0.526
1266.000	714.759	80.002	19.995	103.071	20.015	0.092	0.510
1268.000	715.824	80.002	19.995	103.078	20.011	0.418	0.517
1270.000	716.796	80.003	19.995	103.090	20.010	0.426	0.526
1272.001	717.820	80.002	19.994	103.072	20.009	0.554	0.498
1274.001	718.815	80.003	19.995	103.076	20.010	0.492	0.524
1276.000	719.833	80.003	19.994	103.073	20.010	0.492	0.507
1278.000	720.855	80.002	19.995	103.072	20.009	0.524	0.521
1280.001	721.845	80.004	19.994	103.071	20.010	0.462	0.496
1282.000	722.811	80.001	19.995	103.072	20.013	0.242	0.486
1284.000	723.806	80.003	19.995	103.073	20.013	0.246	0.483
1286.000	724.803	80.002	19.995	103.075	20.009	0.516	0.497
1288.000	725.766	80.002	19.994	103.075	20.011	0.374	0.506
1290.000	726.777	80.003	19.994	103.074	20.010	0.481	0.514
1292.000	727.729	80.004	19.993	103.072	20.011	0.396	0.484
1294.000	728.748	80.004	19.993	103.082	20.007	0.693	0.485
1296.000	729.750	80.004	19.993	103.038	20.010	0.428	0.502
1298.000	730.791	80.004	19.995	103.066	20.011	0.378	0.525
1300.000	731.805	80.004	19.994	103.139	20.012	0.294	0.469
1302.000	732.831	80.002	19.994	103.083	20.013	0.208	0.506
1304.000	733.847	80.002	19.994	103.078	20.009	0.504	0.506
1306.000	734.835	80.001	19.993	103.075	20.012	0.296	0.519
1308.000	735.837	80.001	19.994	103.077	20.012	0.296	0.507
1310.000	736.862	80.001	19.995	103.075	20.013	0.206	0.501
1312.001	737.872	80.002	19.995	103.077	20.017	-0.076	0.507
1314.000	738.888	80.002	19.995	103.071	20.012	0.292	0.479
1316.000	739.883	80.000	19.994	103.070	20.018	-0.120	0.472
1318.001	740.936	80.000	19.994	103.075	20.013	0.244	0.496
1320.000	741.928	80.002	19.996	103.074	20.016	0.034	0.497
1322.001	743.005	80.002	19.995	103.079	20.017	-0.052	0.487
1323.001	743.528	80.001	19.995	103.079	20.013	0.242	0.531