File: 01_Data/Mineral_Wool_Insulation/MCC/Mineral_Wool_Insulation_MCC_30K_min_211111_R2.txt
Sample ID:	C:\MCC\MCC Cal\Test\Mineral_Wool_Insulation_MCC_30K_min_211111_R2.txt
Sample Weight (mg):	4.56
Heating Rate (C/s):	0.5
Combustor Temp (C):	900
N2 Flow Rate (cc/min):	80
O2 Flow Rate (cc/min):	20
Calibration File:	C:\MCC\MCC Cal\Coeff1 JN10440_30_210304.txt.txt
T Correction Coefficients:	0	1.024463	0
Time Shift (s):	14
*
Time (s)	Temperature (C)	N2 flow rate (cc/min)	O2 flow rate (cc/min)	Flow Rate (cc/min)	Oxygen (%)	HRR (W/g)	Heating rate (C/s)
0.000	108.332	80.000	19.994	103.025	20.039	-0.157	-0.007
2.000	108.329	80.001	19.996	103.027	20.040	-0.228	0.004
4.000	108.302	80.001	19.994	103.026	20.037	-0.017	-0.015
6.000	108.291	79.999	19.994	103.024	20.039	-0.167	0.004
8.000	108.314	80.001	19.995	103.028	20.037	-0.052	-0.001
10.000	108.303	80.001	19.993	103.027	20.039	-0.201	-0.013
12.000	108.282	80.000	19.994	103.027	20.039	-0.213	-0.016
14.000	108.244	80.000	19.995	103.033	20.038	-0.119	-0.021
16.000	108.280	80.002	19.994	103.038	20.039	-0.219	0.020
18.001	108.268	80.000	19.995	103.064	20.034	0.134	0.005
20.000	108.277	80.003	19.994	103.067	20.031	0.409	-0.003
22.001	108.340	80.001	19.994	103.082	20.033	0.225	0.018
24.000	108.375	80.001	19.995	103.102	20.030	0.476	0.041
26.000	108.421	80.002	19.995	103.121	20.026	0.755	0.012
28.000	108.518	80.000	19.995	103.146	20.018	1.274	0.072
30.000	108.637	79.999	19.994	103.174	20.017	1.400	0.060
32.000	108.709	79.999	19.995	103.179	20.014	1.558	0.052
34.000	108.865	79.999	19.994	103.183	20.015	1.539	0.073
36.000	109.083	80.000	19.996	103.189	20.012	1.720	0.138
38.001	109.300	79.999	19.996	103.188	20.011	1.774	0.129
40.000	109.495	79.999	19.995	103.187	20.009	1.905	0.120
42.000	109.687	80.000	19.994	103.187	20.006	2.172	0.073
44.000	109.993	79.999	19.994	103.186	20.006	2.111	0.142
46.000	110.252	79.998	19.994	103.187	20.006	2.149	0.115
48.000	110.571	79.999	19.994	103.216	20.005	2.228	0.154
50.000	110.904	80.000	19.995	103.235	20.001	2.501	0.152
52.001	111.283	79.999	19.995	103.256	19.999	2.646	0.185
54.000	111.676	79.999	19.996	103.264	19.998	2.696	0.192
56.000	112.052	79.998	19.996	103.264	19.993	3.059	0.206
58.000	112.539	79.999	19.996	103.266	19.993	3.060	0.242
60.001	112.988	80.000	19.996	103.272	19.989	3.344	0.271
62.000	113.459	79.998	19.996	103.275	19.989	3.317	0.241
64.001	113.980	79.999	19.996	103.288	19.989	3.336	0.261
66.000	114.514	79.999	19.997	103.293	19.986	3.553	0.253
68.001	115.133	79.999	19.995	103.294	19.990	3.294	0.294
70.000	115.725	80.000	19.995	103.285	19.984	3.734	0.317
72.000	116.309	80.001	19.995	103.284	19.987	3.515	0.300
74.000	116.966	80.000	19.995	103.290	19.986	3.534	0.309
76.000	117.667	80.001	19.995	103.280	19.985	3.652	0.315
78.001	118.331	80.001	19.995	103.276	19.987	3.509	0.327
80.000	119.055	80.000	19.994	103.288	19.989	3.317	0.341
82.000	119.729	80.001	19.994	103.281	19.987	3.508	0.356
84.001	120.475	80.000	19.994	103.270	19.985	3.648	0.346
86.000	121.223	80.000	19.995	103.280	19.987	3.519	0.391
88.001	122.022	79.999	19.994	103.285	19.989	3.381	0.407
90.001	122.755	80.000	19.994	103.290	19.983	3.777	0.377
92.001	123.600	80.000	19.994	103.301	19.986	3.566	0.436
94.000	124.370	80.000	19.996	103.301	19.986	3.571	0.384
96.001	125.201	80.000	19.994	103.302	19.986	3.548	0.385
98.000	126.027	80.001	19.997	103.303	19.982	3.827	0.405
100.001	126.899	80.001	19.995	103.299	19.984	3.718	0.431
102.001	127.776	80.003	19.995	103.297	19.984	3.668	0.434
104.000	128.654	80.002	19.993	103.302	19.985	3.618	0.446
106.000	129.545	80.003	19.993	103.296	19.984	3.681	0.458
108.000	130.436	80.002	19.992	103.298	19.983	3.795	0.474
110.000	131.353	80.003	19.994	103.301	19.987	3.521	0.457
112.000	132.239	79.999	19.994	103.301	19.985	3.654	0.430
114.000	133.182	80.000	19.994	103.305	19.987	3.458	0.438
116.000	134.145	80.000	19.994	103.301	19.984	3.694	0.483
118.000	135.047	79.999	19.995	103.304	19.986	3.542	0.451
120.000	136.024	80.000	19.995	103.306	19.984	3.713	0.452
122.001	136.990	80.000	19.994	103.294	19.987	3.467	0.495
124.000	137.970	79.999	19.996	103.296	19.984	3.698	0.478
126.000	138.947	79.999	19.995	103.294	19.983	3.744	0.476
128.000	139.955	80.001	19.995	103.294	19.986	3.571	0.501
130.000	140.892	80.000	19.995	103.289	19.987	3.500	0.487
132.000	141.940	80.000	19.996	103.292	19.986	3.528	0.511
134.000	142.904	79.999	19.995	103.291	19.985	3.607	0.510
136.000	143.908	80.000	19.994	103.291	19.989	3.351	0.479
138.000	144.936	80.000	19.995	103.290	19.987	3.505	0.487
140.000	145.916	80.000	19.996	103.273	19.985	3.664	0.504
142.000	146.913	79.999	19.995	103.286	19.990	3.274	0.502
144.000	147.945	80.000	19.995	103.271	19.990	3.307	0.507
146.000	149.005	79.998	19.994	103.275	19.987	3.503	0.536
148.000	149.983	79.998	19.995	103.265	19.988	3.443	0.528
150.000	151.032	79.997	19.995	103.263	19.984	3.678	0.546
152.000	152.026	80.000	19.996	103.262	19.988	3.420	0.512
154.000	153.031	79.998	19.995	103.261	19.985	3.595	0.517
156.000	154.011	80.000	19.995	103.260	19.989	3.325	0.490
158.000	155.001	80.000	19.995	103.260	19.989	3.366	0.487
160.000	155.995	80.001	19.995	103.263	19.991	3.187	0.502
162.000	156.975	79.999	19.993	103.258	19.993	3.070	0.501
164.000	157.979	80.001	19.994	103.257	19.992	3.157	0.498
166.000	158.985	80.001	19.995	103.253	19.991	3.230	0.498
168.000	159.959	80.000	19.995	103.255	19.987	3.483	0.498
170.000	160.945	80.000	19.994	103.257	19.992	3.114	0.503
172.000	161.896	80.001	19.994	103.252	19.995	2.939	0.456
174.000	162.918	80.000	19.995	103.261	19.992	3.133	0.475
176.000	163.873	80.000	19.994	103.260	19.993	3.066	0.516
178.000	164.836	80.000	19.993	103.256	19.992	3.112	0.458
180.000	165.854	80.001	19.994	103.251	19.988	3.403	0.521
182.000	166.801	80.000	19.994	103.253	19.992	3.156	0.491
184.000	167.782	80.001	19.994	103.233	19.993	3.046	0.499
186.000	168.726	80.002	19.995	103.244	19.996	2.860	0.462
188.000	169.716	80.002	19.994	103.248	19.988	3.442	0.468
190.000	170.671	80.001	19.995	103.232	19.994	2.994	0.474
192.000	171.618	80.001	19.994	103.231	19.991	3.237	0.451
194.000	172.548	80.000	19.994	103.233	19.992	3.150	0.477
196.000	173.507	80.000	19.994	103.234	19.993	3.041	0.475
198.000	174.450	79.998	19.995	103.229	19.992	3.135	0.481
200.001	175.416	80.000	19.995	103.230	19.989	3.356	0.468
202.000	176.358	80.000	19.994	103.232	20.000	2.558	0.479
204.000	177.261	79.999	19.995	103.239	19.990	3.240	0.465
206.000	178.248	80.000	19.994	103.242	19.992	3.123	0.468
208.000	179.160	80.001	19.995	103.229	19.994	2.985	0.467
210.000	180.135	80.000	19.995	103.231	19.994	2.975	0.461
212.000	181.025	79.998	19.994	103.226	19.994	3.010	0.454
214.000	182.020	80.000	19.995	103.233	19.996	2.823	0.494
216.000	182.978	80.000	19.996	103.227	19.995	2.890	0.496
218.000	183.891	80.000	19.995	103.230	19.994	2.990	0.471
220.000	184.858	79.999	19.995	103.230	19.992	3.150	0.489
222.000	185.794	79.999	19.995	103.224	19.998	2.699	0.470
224.000	186.810	79.999	19.994	103.227	19.999	2.643	0.488
226.000	187.721	79.999	19.995	103.227	19.999	2.667	0.486
228.000	188.670	79.999	19.994	103.227	19.997	2.781	0.470
230.000	189.611	79.998	19.996	103.229	19.994	3.009	0.465
232.000	190.576	79.998	19.995	103.237	19.996	2.857	0.473
234.000	191.549	79.999	19.995	103.237	19.996	2.856	0.474
236.000	192.460	79.999	19.996	103.232	19.997	2.806	0.470
238.000	193.429	79.999	19.996	103.196	19.997	2.794	0.477
240.000	194.367	80.000	19.994	103.204	20.001	2.523	0.430
242.000	195.326	79.999	19.995	103.290	19.996	2.881	0.472
244.000	196.313	79.999	19.994	103.235	20.001	2.466	0.473
246.000	197.260	79.998	19.996	103.229	20.001	2.529	0.498
248.000	198.263	80.000	19.995	103.228	20.004	2.314	0.498
250.000	199.209	80.000	19.996	103.226	19.998	2.679	0.479
252.000	200.197	80.000	19.996	103.225	20.001	2.508	0.486
254.000	201.121	79.998	19.996	103.224	19.996	2.817	0.462
256.000	202.121	80.000	19.995	103.224	20.001	2.527	0.482
258.000	203.156	80.000	19.995	103.223	19.999	2.635	0.506
260.000	204.109	80.002	19.994	103.225	19.998	2.725	0.511
262.000	205.075	80.000	19.994	103.219	20.001	2.510	0.511
264.000	206.091	80.002	19.994	103.224	20.000	2.585	0.511
266.000	207.058	80.002	19.995	103.219	20.004	2.289	0.502
268.000	208.076	80.001	19.995	103.220	20.001	2.506	0.507
270.000	209.041	80.003	19.996	103.221	20.002	2.427	0.493
272.000	210.037	80.001	19.995	103.223	20.002	2.462	0.490
274.000	211.057	80.000	19.995	103.223	20.000	2.540	0.513
276.000	211.988	79.999	19.995	103.222	19.997	2.746	0.485
278.000	213.019	79.999	19.996	103.221	19.999	2.619	0.522
280.000	214.022	79.998	19.996	103.223	20.000	2.586	0.525
282.000	214.993	79.998	19.995	103.219	19.998	2.704	0.489
284.000	215.974	79.999	19.994	103.220	19.996	2.833	0.490
286.001	216.974	79.999	19.994	103.215	19.999	2.625	0.484
288.000	217.962	79.999	19.994	103.224	20.002	2.419	0.484
290.001	218.993	80.000	19.994	103.216	19.998	2.732	0.529
292.000	219.927	79.999	19.994	103.208	20.000	2.550	0.476
294.000	220.908	80.001	19.994	103.221	20.002	2.406	0.482
296.000	221.922	79.999	19.994	103.224	20.003	2.363	0.532
298.000	222.894	80.000	19.995	103.208	20.000	2.588	0.480
300.000	223.855	79.999	19.995	103.217	20.004	2.265	0.464
302.000	224.866	79.999	19.994	103.201	20.002	2.461	0.465
304.000	225.909	79.998	19.995	103.217	20.000	2.540	0.522
306.000	226.878	79.997	19.995	103.195	19.999	2.626	0.464
308.000	227.865	79.997	19.995	103.203	20.001	2.528	0.497
310.000	228.900	79.996	19.996	103.208	20.004	2.277	0.493
312.000	229.881	79.998	19.995	103.192	20.000	2.571	0.508
314.000	230.891	79.999	19.998	103.193	20.000	2.534	0.517
316.000	231.872	79.999	19.996	103.199	20.005	2.209	0.501
318.000	232.834	79.999	19.995	103.187	19.999	2.651	0.481
320.000	233.882	80.000	19.995	103.188	20.003	2.384	0.505
322.000	234.862	80.001	19.995	103.206	20.003	2.355	0.485
324.000	235.858	80.001	19.995	103.200	20.003	2.371	0.521
326.000	236.818	80.001	19.995	103.189	20.002	2.438	0.494
328.000	237.819	80.000	19.996	103.188	20.004	2.305	0.498
330.000	238.740	79.999	19.996	103.186	20.003	2.374	0.472
332.000	239.765	80.000	19.996	103.188	20.002	2.394	0.470
334.000	240.727	80.000	19.996	103.187	20.005	2.234	0.490
336.000	241.750	80.000	19.996	103.184	20.003	2.376	0.507
338.000	242.705	80.001	19.996	103.184	20.003	2.351	0.467
340.000	243.696	79.999	19.996	103.184	20.003	2.359	0.505
342.000	244.685	80.002	19.996	103.183	20.000	2.597	0.511
344.000	245.634	80.002	19.995	103.183	20.000	2.551	0.471
346.000	246.626	80.002	19.994	103.183	20.006	2.163	0.477
348.000	247.624	80.001	19.993	103.184	20.006	2.109	0.492
350.000	248.598	80.002	19.994	103.188	20.008	2.034	0.466
352.000	249.646	80.001	19.994	103.189	20.006	2.136	0.534
354.000	250.600	80.000	19.994	103.187	20.009	1.952	0.454
356.000	251.606	79.999	19.994	103.188	20.003	2.384	0.499
358.000	252.596	79.999	19.994	103.185	20.007	2.059	0.489
360.000	253.591	79.998	19.995	103.187	20.001	2.498	0.521
362.000	254.570	80.000	19.995	103.188	20.004	2.271	0.512
364.000	255.551	79.998	19.995	103.188	20.005	2.202	0.497
366.000	256.549	79.999	19.995	103.187	20.006	2.148	0.486
368.000	257.510	80.000	19.995	103.188	20.003	2.323	0.487
370.000	258.485	79.998	19.995	103.195	20.004	2.315	0.470
372.000	259.464	79.999	19.995	103.197	20.003	2.324	0.460
374.000	260.469	79.999	19.995	103.192	20.005	2.244	0.471
376.000	261.481	80.000	19.995	103.189	20.003	2.342	0.514
378.000	262.473	80.000	19.995	103.191	20.003	2.328	0.519
380.000	263.462	80.001	19.994	103.189	20.007	2.071	0.499
382.000	264.439	79.999	19.994	103.187	20.002	2.451	0.503
384.000	265.432	80.000	19.994	103.189	19.998	2.713	0.494
386.000	266.439	80.002	19.994	103.190	20.003	2.330	0.468
388.000	267.479	79.999	19.995	103.187	20.001	2.530	0.516
390.000	268.472	80.000	19.995	103.188	20.005	2.232	0.496
392.000	269.454	79.999	19.995	103.188	20.002	2.459	0.480
394.000	270.521	79.999	19.995	103.186	20.004	2.271	0.516
396.000	271.533	80.001	19.995	103.195	20.006	2.165	0.500
398.000	272.516	80.001	19.995	103.185	20.007	2.073	0.508
400.000	273.552	80.000	19.995	103.185	20.004	2.313	0.522
402.000	274.549	80.000	19.995	103.183	20.002	2.420	0.484
404.000	275.600	80.001	19.995	103.186	20.003	2.363	0.510
406.000	276.626	80.001	19.994	103.184	20.003	2.349	0.511
408.000	277.634	80.001	19.995	103.180	20.003	2.323	0.497
410.000	278.667	80.000	19.994	103.185	20.005	2.238	0.517
412.000	279.711	79.999	19.994	103.183	20.004	2.315	0.528
414.000	280.686	79.999	19.995	103.184	20.003	2.334	0.498
416.000	281.711	79.999	19.994	103.185	20.006	2.121	0.515
418.000	282.732	80.001	19.995	103.188	20.005	2.221	0.515
420.000	283.708	79.999	19.994	103.188	20.005	2.205	0.503
422.000	284.718	80.001	19.995	103.187	20.002	2.438	0.521
424.000	285.796	80.000	19.995	103.187	20.009	1.898	0.528
426.000	286.814	80.000	19.995	103.186	20.005	2.228	0.509
428.000	287.829	80.000	19.995	103.181	20.007	2.044	0.532
430.001	288.816	80.001	19.995	103.182	20.009	1.913	0.499
432.000	289.856	80.000	19.995	103.186	20.007	2.082	0.525
434.000	290.868	80.001	19.995	103.186	20.007	2.054	0.486
436.000	291.940	79.998	19.995	103.185	20.006	2.165	0.525
438.000	292.917	79.999	19.994	103.186	20.006	2.134	0.478
440.000	293.927	80.001	19.993	103.181	20.004	2.299	0.525
442.000	294.944	79.999	19.994	103.186	20.004	2.288	0.476
444.000	296.025	79.999	19.995	103.185	20.001	2.486	0.535
446.000	296.998	79.999	19.995	103.182	20.003	2.376	0.484
448.000	297.990	80.000	19.995	103.169	20.007	2.101	0.512
450.000	298.985	80.000	19.996	103.163	20.001	2.467	0.505
452.000	300.014	79.998	19.995	103.171	20.003	2.376	0.527
454.001	301.019	79.998	19.996	103.173	20.006	2.132	0.491
456.000	302.045	80.000	19.995	103.181	20.006	2.121	0.535
458.000	303.027	79.998	19.994	103.167	20.004	2.284	0.522
460.001	304.006	80.000	19.995	103.182	20.006	2.126	0.492
462.000	305.037	79.999	19.994	103.171	20.006	2.167	0.524
464.000	306.050	80.000	19.996	103.168	20.008	1.984	0.504
466.000	307.036	80.000	19.995	103.172	20.004	2.311	0.526
468.000	308.064	79.999	19.995	103.178	20.007	2.088	0.506
470.000	309.077	79.999	19.995	103.171	20.006	2.174	0.555
472.000	310.064	79.999	19.995	103.167	20.006	2.147	0.491
474.000	311.090	80.002	19.995	103.169	20.006	2.176	0.520
476.000	312.101	79.999	19.994	103.176	20.008	1.976	0.482
478.000	313.160	80.001	19.995	103.167	20.007	2.065	0.525
480.000	314.141	80.002	19.995	103.173	20.005	2.241	0.494
482.000	315.154	80.001	19.995	103.171	20.009	1.923	0.522
484.000	316.157	80.002	19.996	103.161	20.007	2.105	0.510
486.001	317.131	80.002	19.995	103.161	20.008	1.999	0.485
488.000	318.151	80.000	19.995	103.167	20.008	2.036	0.521
490.000	319.150	80.001	19.996	103.167	20.009	1.963	0.524
492.000	320.127	80.000	19.994	103.168	20.008	2.005	0.476
494.000	321.133	79.998	19.995	103.174	20.010	1.886	0.504
496.000	322.121	79.998	19.995	103.162	20.008	1.992	0.478
498.000	323.141	79.998	19.996	103.161	20.009	1.961	0.499
500.000	324.124	79.999	19.995	103.164	20.006	2.155	0.471
502.000	325.124	80.000	19.995	103.168	20.008	1.970	0.497
504.000	326.136	80.000	19.996	103.153	20.007	2.068	0.524
506.000	327.127	80.003	19.994	103.161	20.008	1.974	0.502
508.000	328.090	80.001	19.996	103.166	20.009	1.934	0.474
510.000	329.118	80.000	19.995	103.155	20.013	1.625	0.469
512.000	330.144	80.000	19.995	103.146	20.010	1.834	0.506
514.000	331.087	80.002	19.995	103.146	20.007	2.099	0.480
516.000	332.072	80.000	19.997	103.146	20.007	2.080	0.489
518.000	333.128	79.998	19.997	103.154	20.010	1.849	0.507
520.000	334.135	80.000	19.997	103.145	20.011	1.799	0.515
522.000	335.139	79.997	19.997	103.147	20.006	2.118	0.508
524.000	336.122	79.999	19.996	103.146	20.008	2.012	0.492
526.000	337.089	80.001	19.995	103.146	20.009	1.936	0.492
528.000	338.102	80.001	19.996	103.146	20.009	1.934	0.504
530.000	339.085	80.000	19.995	103.143	20.008	2.020	0.503
532.000	340.065	80.000	19.996	103.145	20.008	2.016	0.508
534.000	341.037	79.999	19.995	103.146	20.010	1.826	0.455
536.000	341.974	79.999	19.994	103.147	20.009	1.930	0.489
538.000	342.905	80.000	19.994	103.147	20.009	1.949	0.460
540.000	343.883	80.000	19.995	103.147	20.009	1.961	0.472
542.000	344.836	79.999	19.994	103.148	20.007	2.038	0.480
544.000	345.810	79.999	19.996	103.145	20.010	1.848	0.481
546.000	346.822	79.999	19.995	103.150	20.009	1.907	0.496
548.000	347.735	79.998	19.994	103.150	20.009	1.951	0.490
550.000	348.685	79.997	19.995	103.149	20.008	1.980	0.509
552.000	349.666	79.998	19.994	103.152	20.006	2.118	0.480
554.000	350.630	79.997	19.996	103.160	20.005	2.226	0.507
556.000	351.567	79.997	19.994	103.156	20.005	2.235	0.490
558.000	352.560	79.999	19.994	103.155	20.007	2.057	0.508
560.000	353.563	80.001	19.995	103.153	20.007	2.064	0.500
562.000	354.573	80.000	19.995	103.159	20.005	2.197	0.508
564.000	355.524	80.001	19.994	103.153	20.003	2.352	0.495
566.000	356.525	80.000	19.993	103.156	20.003	2.353	0.493
568.000	357.529	80.000	19.994	103.152	20.001	2.464	0.504
570.000	358.480	79.999	19.995	103.154	20.007	2.087	0.490
572.000	359.497	80.000	19.994	103.148	20.007	2.101	0.488
574.000	360.500	80.000	19.996	103.151	20.002	2.418	0.500
576.000	361.512	79.998	19.995	103.151	20.004	2.285	0.502
578.000	362.510	80.000	19.994	103.154	20.006	2.147	0.488
580.000	363.483	79.999	19.995	103.147	20.006	2.149	0.495
582.000	364.490	80.000	19.995	103.147	20.006	2.116	0.484
584.000	365.551	80.000	19.995	103.145	20.008	1.976	0.539
586.000	366.563	80.003	19.996	103.148	20.009	1.915	0.505
588.000	367.560	80.000	19.995	103.144	20.008	1.988	0.488
590.000	368.562	80.001	19.996	103.145	20.008	2.013	0.485
592.000	369.605	80.000	19.994	103.144	20.009	1.930	0.518
594.000	370.567	79.999	19.996	103.150	20.009	1.920	0.479
596.000	371.567	79.999	19.995	103.149	20.007	2.086	0.474
598.000	372.607	80.000	19.995	103.147	20.010	1.882	0.490
600.000	373.685	79.998	19.996	103.154	20.006	2.109	0.500
602.000	374.667	79.997	19.996	103.147	20.005	2.187	0.504
604.000	375.696	79.999	19.996	103.148	20.008	1.974	0.506
606.000	376.735	79.999	19.996	103.150	20.007	2.045	0.509
608.000	377.752	79.998	19.997	103.153	20.006	2.164	0.524
610.000	378.789	79.998	19.995	103.148	20.008	2.030	0.506
612.000	379.791	79.999	19.995	103.146	20.008	2.028	0.514
614.000	380.829	79.999	19.997	103.146	20.008	1.978	0.500
616.000	381.875	79.998	19.996	103.149	20.009	1.901	0.536
618.000	382.855	79.999	19.996	103.146	20.006	2.170	0.491
620.000	383.873	79.997	19.995	103.148	20.008	2.001	0.471
622.000	384.893	79.999	19.994	103.149	20.006	2.158	0.488
624.000	385.888	80.000	19.995	103.149	20.010	1.859	0.501
626.000	386.923	79.998	19.995	103.148	20.009	1.961	0.525
628.000	387.889	79.999	19.995	103.148	20.009	1.930	0.457
630.000	388.912	79.999	19.995	103.144	20.007	2.080	0.500
632.000	389.913	80.000	19.995	103.148	20.005	2.199	0.494
634.000	390.908	80.001	19.995	103.144	20.007	2.057	0.507
636.000	391.899	79.999	19.995	103.142	20.006	2.153	0.497
638.000	392.911	80.001	19.997	103.144	20.007	2.039	0.481
640.000	393.935	79.999	19.995	103.146	20.006	2.133	0.517
642.000	394.938	80.002	19.994	103.146	20.009	1.901	0.536
644.000	395.930	80.001	19.996	103.146	20.006	2.111	0.523
646.000	396.879	80.003	19.995	103.147	20.006	2.145	0.460
648.000	397.918	80.001	19.995	103.144	20.007	2.089	0.502
650.000	398.955	80.000	19.994	103.145	20.004	2.285	0.514
652.000	399.969	80.000	19.994	103.149	20.006	2.120	0.528
654.000	400.981	80.002	19.994	103.152	20.007	2.059	0.510
656.000	402.034	80.002	19.995	103.152	20.006	2.174	0.535
658.000	403.085	80.001	19.994	103.145	20.006	2.162	0.541
660.000	404.141	80.002	19.995	103.142	20.005	2.233	0.521
662.000	405.208	80.002	19.995	103.141	20.005	2.237	0.532
664.000	406.241	80.001	19.994	103.145	20.007	2.082	0.535
666.000	407.327	80.001	19.995	103.145	20.006	2.130	0.544
668.000	408.389	80.001	19.995	103.151	20.007	2.087	0.515
670.000	409.482	80.001	19.995	103.148	20.007	2.045	0.548
672.001	410.533	80.002	19.995	103.146	20.004	2.304	0.541
674.000	411.593	80.002	19.995	103.146	20.004	2.262	0.564
676.000	412.680	79.999	19.995	103.145	20.005	2.229	0.528
678.000	413.738	80.000	19.995	103.148	20.004	2.279	0.558
680.000	414.767	79.998	19.995	103.145	20.008	2.005	0.507
682.000	415.835	80.000	19.994	103.147	20.012	1.717	0.544
684.000	416.903	79.998	19.995	103.148	20.011	1.784	0.532
686.000	417.982	80.000	19.995	103.137	20.012	1.743	0.559
688.001	419.004	79.997	19.996	103.134	20.011	1.780	0.521
690.000	420.070	79.997	19.995	103.143	20.007	2.066	0.546
692.000	421.116	79.998	19.996	103.136	20.008	2.012	0.529
694.000	422.208	79.999	19.995	103.134	20.007	2.049	0.568
696.000	423.254	79.999	19.996	103.130	20.010	1.866	0.500
698.000	424.247	80.000	19.995	103.127	20.011	1.768	0.507
700.000	425.323	80.001	19.995	103.133	20.012	1.722	0.516
702.000	426.346	80.000	19.996	103.133	20.012	1.722	0.505
704.000	427.346	80.000	19.996	103.124	20.010	1.860	0.519
706.000	428.382	79.999	19.997	103.134	20.013	1.642	0.537
708.000	429.386	80.000	19.996	103.139	20.010	1.876	0.491
710.000	430.407	79.999	19.995	103.138	20.012	1.743	0.526
712.000	431.413	79.999	19.995	103.139	20.014	1.588	0.493
714.000	432.430	79.998	19.995	103.135	20.011	1.776	0.511
716.000	433.460	80.001	19.995	103.132	20.011	1.799	0.513
718.000	434.436	79.997	19.996	103.129	20.013	1.676	0.493
720.000	435.488	80.000	19.995	103.130	20.014	1.609	0.497
722.000	436.447	80.000	19.995	103.128	20.007	2.041	0.492
724.000	437.441	80.002	19.995	103.132	20.012	1.740	0.475
726.000	438.428	80.003	19.994	103.137	20.016	1.432	0.493
728.000	439.405	80.002	19.996	103.126	20.014	1.597	0.492
730.000	440.391	80.000	19.994	103.121	20.016	1.463	0.485
732.000	441.396	79.999	19.996	103.122	20.014	1.551	0.491
734.000	442.350	79.999	19.994	103.131	20.015	1.520	0.478
736.000	443.322	80.000	19.996	103.135	20.012	1.697	0.486
738.000	444.306	80.001	19.994	103.129	20.013	1.672	0.501
740.000	445.288	79.999	19.994	103.122	20.014	1.563	0.477
742.000	446.266	80.000	19.994	103.122	20.007	2.058	0.506
744.000	447.231	80.000	19.995	103.113	20.014	1.578	0.478
746.000	448.198	80.003	19.994	103.121	20.013	1.674	0.495
748.000	449.159	80.002	19.993	103.134	20.011	1.818	0.479
750.000	450.134	80.003	19.994	103.134	20.013	1.649	0.503
752.000	451.098	80.001	19.995	103.139	20.012	1.713	0.486
754.000	452.107	80.001	19.994	103.139	20.015	1.482	0.489
756.000	453.064	80.001	19.995	103.133	20.011	1.782	0.472
758.000	454.075	79.997	19.994	103.130	20.012	1.734	0.502
760.000	455.015	80.001	19.994	103.117	20.009	1.922	0.495
762.000	455.973	79.999	19.994	103.131	20.012	1.728	0.491
764.000	456.975	80.000	19.995	103.121	20.014	1.548	0.516
766.000	457.968	79.998	19.995	103.132	20.011	1.763	0.513
768.000	458.976	80.000	19.995	103.119	20.015	1.540	0.491
770.000	459.956	79.997	19.995	103.125	20.013	1.672	0.463
772.000	460.955	79.999	19.995	103.128	20.011	1.820	0.499
774.000	461.935	79.999	19.996	103.134	20.015	1.542	0.514
776.001	462.979	80.000	19.994	103.134	20.016	1.450	0.512
778.000	463.988	79.999	19.995	103.133	20.015	1.482	0.517
780.000	464.997	79.998	19.995	103.124	20.015	1.490	0.495
782.000	465.993	80.000	19.993	103.114	20.012	1.703	0.504
784.000	467.040	80.000	19.994	103.117	20.013	1.659	0.523
786.000	468.007	79.998	19.996	103.117	20.014	1.613	0.481
788.000	469.080	80.000	19.995	103.133	20.013	1.649	0.532
790.000	470.080	79.997	19.996	103.108	20.012	1.705	0.501
792.000	471.131	79.999	19.995	103.112	20.014	1.574	0.525
794.000	472.080	79.997	19.997	103.111	20.012	1.695	0.470
796.000	473.102	79.998	19.997	103.117	20.011	1.791	0.487
798.000	474.156	80.001	19.996	103.110	20.017	1.402	0.525
800.000	475.155	80.000	19.996	103.113	20.011	1.813	0.502
802.000	476.140	79.999	19.995	103.118	20.013	1.667	0.497
804.000	477.129	80.001	19.995	103.114	20.012	1.686	0.483
806.001	478.179	80.001	19.995	103.113	20.009	1.962	0.535
808.000	479.189	80.001	19.993	103.127	20.010	1.856	0.519
810.000	480.174	80.000	19.995	103.132	20.011	1.776	0.491
812.000	481.215	80.002	19.994	103.132	20.011	1.795	0.505
814.000	482.217	79.999	19.995	103.139	20.011	1.793	0.538
816.000	483.233	80.001	19.994	103.129	20.010	1.872	0.500
818.000	484.246	79.999	19.993	103.118	20.009	1.960	0.521
820.001	485.218	80.000	19.994	103.122	20.010	1.862	0.480
822.000	486.265	80.000	19.995	103.124	20.010	1.891	0.510
824.000	487.319	79.999	19.993	103.116	20.009	1.912	0.538
826.000	488.323	80.001	19.993	103.113	20.008	1.972	0.503
828.001	489.321	80.000	19.994	103.112	20.011	1.799	0.525
830.000	490.335	80.003	19.995	103.112	20.010	1.845	0.506
832.001	491.426	80.001	19.995	103.121	20.006	2.129	0.537
834.000	492.417	80.001	19.995	103.108	20.012	1.751	0.536
836.000	493.434	80.001	19.995	103.118	20.012	1.749	0.532
838.000	494.462	80.001	19.996	103.116	20.011	1.774	0.517
840.000	495.517	79.998	19.995	103.117	20.012	1.737	0.535
842.000	496.516	79.998	19.995	103.117	20.012	1.722	0.485
844.000	497.569	79.999	19.995	103.108	20.010	1.826	0.522
846.000	498.565	79.998	19.994	103.109	20.011	1.780	0.494
848.000	499.607	79.999	19.995	103.113	20.013	1.657	0.521
850.000	500.642	80.000	19.994	103.111	20.016	1.413	0.511
852.000	501.630	79.999	19.996	103.116	20.013	1.684	0.508
854.000	502.653	79.999	19.995	103.114	20.014	1.605	0.517
856.000	503.617	79.998	19.996	103.112	20.013	1.616	0.483
858.001	504.641	79.999	19.995	103.110	20.015	1.499	0.489
860.000	505.649	79.999	19.996	103.114	20.015	1.486	0.500
862.000	506.611	80.000	19.995	103.116	20.010	1.853	0.499
864.000	507.651	79.998	19.996	103.118	20.013	1.641	0.496
866.000	508.656	79.998	19.994	103.112	20.017	1.342	0.502
868.000	509.639	79.997	19.995	103.115	20.014	1.588	0.471
870.000	510.643	80.000	19.996	103.111	20.013	1.664	0.517
872.000	511.666	79.997	19.996	103.118	20.013	1.682	0.544
874.000	512.621	79.997	19.996	103.126	20.013	1.674	0.477
876.000	513.672	79.998	19.995	103.114	20.011	1.808	0.536
878.000	514.717	79.997	19.996	103.121	20.011	1.795	0.511
880.000	515.781	79.998	19.995	103.115	20.011	1.781	0.541
882.000	516.791	79.999	19.997	103.122	20.013	1.643	0.488
884.000	517.881	80.000	19.996	103.116	20.016	1.449	0.529
886.000	518.894	80.001	19.996	103.116	20.014	1.568	0.527
888.000	519.968	80.001	19.996	103.119	20.012	1.693	0.518
890.000	521.053	80.003	19.996	103.107	20.013	1.659	0.519
892.000	522.100	80.001	19.995	103.115	20.011	1.803	0.515
894.000	523.131	80.003	19.994	103.113	20.011	1.783	0.504
896.000	524.198	80.001	19.994	103.116	20.009	1.949	0.503
898.000	525.279	80.004	19.995	103.115	20.014	1.582	0.522
900.000	526.313	79.999	19.995	103.122	20.010	1.875	0.517
902.000	527.360	80.000	19.995	103.119	20.013	1.639	0.549
904.000	528.400	80.002	19.995	103.110	20.011	1.776	0.544
906.000	529.408	80.001	19.994	103.112	20.009	1.897	0.523
908.000	530.488	80.001	19.994	103.123	20.011	1.778	0.531
910.000	531.498	80.002	19.994	103.106	20.006	2.115	0.510
912.000	532.631	80.001	19.994	103.107	20.023	0.914	0.549
914.000	533.586	80.000	19.995	103.106	20.008	1.977	0.480
916.000	534.651	80.002	19.995	103.113	20.002	2.405	0.474
918.000	535.564	80.001	19.994	103.107	20.012	1.739	0.507
920.000	536.711	80.001	19.994	103.107	20.013	1.630	0.580
922.000	537.698	79.999	19.995	103.110	20.007	2.064	0.372
924.000	538.631	79.999	19.996	103.109	20.011	1.816	0.325
926.000	539.889	79.999	19.994	103.113	20.008	2.018	0.456
928.000	540.235	79.998	19.994	103.114	20.007	2.090	-0.189
930.000	541.485	79.998	19.995	103.124	20.009	1.956	0.495
932.000	542.803	79.999	19.995	103.122	20.010	1.831	0.507
934.000	543.853	79.999	19.995	103.112	20.008	2.014	0.595
936.000	544.942	79.999	19.995	103.111	20.009	1.954	0.646
938.000	545.805	79.999	19.994	103.112	20.009	1.946	0.529
940.000	546.787	79.999	19.996	103.110	20.008	2.016	0.470
942.000	547.777	79.999	19.995	103.111	20.008	1.995	0.490
944.000	548.856	80.000	19.994	103.111	20.009	1.943	0.514
946.000	549.774	79.999	19.994	103.111	20.010	1.828	0.474
948.000	550.794	79.999	19.994	103.109	20.012	1.708	0.474
950.000	551.755	80.000	19.994	103.108	20.009	1.910	0.472
952.000	552.774	80.000	19.995	103.112	20.010	1.851	0.537
954.000	553.753	80.000	19.995	103.109	20.011	1.755	0.510
956.000	554.717	79.998	19.995	103.125	20.011	1.806	0.456
958.000	555.754	80.000	19.995	103.122	20.012	1.741	0.495
960.000	556.777	79.999	19.995	103.109	20.012	1.745	0.509
962.000	557.777	80.000	19.995	103.120	20.012	1.728	0.509
964.001	558.812	80.000	19.996	103.116	20.011	1.770	0.526
966.000	559.776	80.001	19.994	103.109	20.009	1.912	0.490
968.000	560.830	80.000	19.995	103.108	20.011	1.768	0.481
970.000	561.876	80.001	19.995	103.110	20.012	1.697	0.495
972.000	562.937	80.001	19.995	103.115	20.013	1.676	0.505
974.000	563.951	79.999	19.996	103.108	20.010	1.864	0.499
976.000	564.980	79.998	19.996	103.117	20.011	1.791	0.523
978.000	566.052	80.000	19.996	103.105	20.009	1.946	0.564
980.000	567.092	79.999	19.995	103.109	20.010	1.850	0.503
982.000	568.111	79.999	19.995	103.113	20.013	1.668	0.526
984.000	569.187	80.000	19.996	103.112	20.008	2.031	0.502
986.000	570.247	80.001	19.996	103.112	20.007	2.058	0.538
988.000	571.260	80.001	19.994	103.108	20.009	1.924	0.521
990.000	572.296	80.000	19.994	103.108	20.009	1.929	0.550
992.000	573.378	80.002	19.994	103.115	20.009	1.904	0.546
994.000	574.454	80.003	19.993	103.126	20.007	2.094	0.541
996.000	575.520	80.001	19.994	103.112	20.005	2.198	0.516
998.000	576.570	80.001	19.994	103.113	20.009	1.949	0.540
1000.000	577.612	80.000	19.995	103.119	20.008	1.999	0.515
1002.000	578.716	80.000	19.995	103.118	20.009	1.901	0.538
1004.000	579.752	79.997	19.994	103.118	20.009	1.937	0.514
1006.000	580.804	79.999	19.994	103.110	20.010	1.831	0.535
1008.000	581.853	79.998	19.995	103.111	20.006	2.133	0.533
1010.000	582.898	80.000	19.994	103.119	20.008	1.989	0.515
1012.000	583.939	80.001	19.995	103.114	20.008	2.025	0.522
1014.000	584.985	80.000	19.995	103.116	20.005	2.244	0.545
1016.000	586.027	79.999	19.994	103.111	20.009	1.960	0.507
1018.000	587.064	79.999	19.994	103.114	20.007	2.106	0.489
1020.000	588.109	80.001	19.994	103.110	20.005	2.244	0.536
1022.000	589.146	79.998	19.995	103.111	20.007	2.106	0.523
1024.000	590.207	80.000	19.994	103.106	20.005	2.202	0.558
1026.000	591.241	80.000	19.995	103.111	20.009	1.964	0.525
1028.000	592.286	80.000	19.994	103.108	20.009	1.954	0.532
1030.000	593.318	79.999	19.994	103.106	20.009	1.964	0.530
1032.000	594.342	79.998	19.994	103.106	20.007	2.073	0.506
1034.000	595.408	79.999	19.996	103.113	20.010	1.837	0.508
1036.000	596.445	79.999	19.995	103.122	20.007	2.058	0.510
1038.000	597.523	79.999	19.995	103.111	20.010	1.891	0.546
1040.000	598.558	79.999	19.996	103.108	20.013	1.626	0.550
1042.000	599.577	79.999	19.996	103.110	20.008	2.019	0.512
1044.000	600.573	80.001	19.995	103.117	20.009	1.916	0.507
1046.001	601.638	80.000	19.995	103.110	20.010	1.879	0.528
1048.000	602.665	80.002	19.995	103.109	20.009	1.927	0.514
1050.001	603.663	80.000	19.996	103.109	20.006	2.152	0.500
1052.000	604.724	80.000	19.995	103.112	20.011	1.804	0.518
1054.000	605.726	80.000	19.995	103.110	20.006	2.173	0.463
1056.000	606.769	80.001	19.995	103.111	20.006	2.142	0.497
1058.000	607.779	80.000	19.995	103.112	20.007	2.052	0.502
1060.000	608.852	80.003	19.996	103.109	20.009	1.908	0.533
1062.000	609.836	80.001	19.996	103.109	20.011	1.783	0.511
1064.000	610.869	80.000	19.995	103.110	20.010	1.862	0.531
1066.001	611.869	79.999	19.996	103.107	20.008	1.981	0.506
1068.000	612.916	80.000	19.996	103.111	20.007	2.090	0.517
1070.000	613.937	80.000	19.995	103.109	20.011	1.810	0.504
1072.000	614.941	80.001	19.995	103.110	20.011	1.770	0.506
1074.001	615.986	80.000	19.995	103.100	20.009	1.950	0.483
1076.000	617.045	80.001	19.996	103.100	20.005	2.219	0.522
1078.000	618.032	80.000	19.995	103.102	20.006	2.163	0.527
1080.000	619.024	79.998	19.995	103.103	20.011	1.810	0.474
1082.000	620.069	79.999	19.995	103.094	20.004	2.290	0.539
1084.000	621.101	79.999	19.994	103.096	20.008	2.000	0.502
1086.001	622.090	79.999	19.995	103.105	20.008	1.968	0.483
1088.000	623.110	79.998	19.994	103.104	20.007	2.077	0.510
1090.000	624.116	79.997	19.995	103.107	20.008	2.006	0.506
1092.000	625.124	80.000	19.994	103.107	20.008	2.006	0.486
1094.000	626.155	79.999	19.995	103.107	20.005	2.179	0.519
1096.000	627.121	80.000	19.995	103.106	20.007	2.077	0.477
1098.000	628.171	79.999	19.996	103.107	20.007	2.048	0.504
1100.000	629.164	80.001	19.994	103.109	20.006	2.123	0.499
1102.000	630.176	80.001	19.995	103.109	20.011	1.804	0.499
1104.000	631.209	80.002	19.995	103.106	20.009	1.906	0.509
1106.000	632.182	79.998	19.995	103.107	20.008	1.989	0.501
1108.000	633.205	80.000	19.995	103.108	20.009	1.962	0.531
1110.001	634.206	80.000	19.995	103.108	20.008	2.016	0.506
1112.000	635.227	79.998	19.995	103.110	20.007	2.094	0.507
1114.001	636.242	79.998	19.994	103.110	20.010	1.845	0.526
1116.000	637.248	79.998	19.995	103.111	20.005	2.246	0.508
1118.000	638.274	80.001	19.995	103.111	20.011	1.764	0.537
1120.001	639.302	80.001	19.995	103.111	20.008	2.023	0.517
1122.000	640.286	80.000	19.995	103.113	20.007	2.096	0.496
1124.000	641.279	80.001	19.995	103.106	20.007	2.088	0.508
1126.000	642.292	80.001	19.993	103.111	20.008	2.012	0.508
1128.001	643.338	80.001	19.995	103.108	20.007	2.075	0.518
1130.000	644.318	80.001	19.995	103.108	20.009	1.966	0.499
1132.001	645.307	79.999	19.995	103.113	20.015	1.490	0.506
1134.000	646.301	79.998	19.995	103.106	20.008	2.034	0.510
1136.000	647.319	79.999	19.995	103.102	20.010	1.833	0.517
1138.000	648.373	80.000	19.996	103.107	20.010	1.894	0.489
1140.000	649.333	80.000	19.995	103.107	20.008	2.004	0.474
1142.000	650.344	79.996	19.995	103.104	20.011	1.785	0.503
1144.000	651.366	79.998	19.996	103.088	20.004	2.263	0.520
1146.000	652.941	80.001	19.995	103.094	20.019	1.255	0.806
1148.000	653.342	80.004	19.995	103.104	20.008	1.977	0.701
1150.000	654.336	80.000	19.995	103.086	20.008	1.973	0.389
1152.000	655.368	80.005	19.995	103.091	20.004	2.265	0.204
1154.000	656.378	80.003	19.996	103.095	20.007	2.086	0.013
1156.001	657.421	80.003	19.996	103.108	20.006	2.119	0.677
1158.000	658.141	79.998	19.998	103.100	20.010	1.845	0.294
1160.000	659.854	79.999	19.997	103.096	20.009	1.942	0.663
1162.000	660.102	80.003	19.997	103.095	20.007	2.058	0.458
1164.000	661.171	79.998	19.996	103.106	19.997	2.791	0.434
1166.000	662.159	80.000	19.996	103.100	20.016	1.418	0.454
1168.000	663.049	79.997	19.996	103.099	20.009	1.956	0.462
1170.000	663.981	79.997	19.997	103.096	20.008	2.012	0.420
1172.001	664.873	80.000	19.995	103.101	20.006	2.150	0.465
1174.000	665.857	79.998	19.995	103.097	20.007	2.046	0.479
1176.000	666.728	79.999	19.996	103.097	20.010	1.856	0.355
1178.000	667.245	79.989	19.996	103.089	20.009	1.954	-0.173
1180.000	668.632	80.003	19.995	103.087	20.009	1.962	0.149
1182.001	669.558	80.002	19.995	103.101	20.005	2.240	0.509
1184.000	670.482	79.999	19.996	103.104	20.007	2.048	0.459
1186.000	671.422	79.999	19.995	103.085	20.003	2.369	0.461
1188.000	672.388	79.995	19.996	103.101	20.005	2.227	0.474
1190.000	673.321	79.997	19.995	103.110	20.002	2.449	0.514
1192.001	674.340	80.000	19.994	103.104	20.004	2.286	0.491
1194.000	675.337	79.998	19.995	103.103	20.005	2.179	0.515
1196.000	676.323	79.995	19.994	103.107	20.004	2.303	0.491
1198.000	677.334	79.997	19.995	103.096	20.003	2.324	0.585
1200.001	678.308	79.996	19.995	103.104	20.006	2.157	0.460
1202.000	679.355	79.999	19.995	103.109	20.004	2.300	0.514
1204.000	680.359	79.999	19.994	103.103	20.005	2.194	0.500
1206.000	681.397	80.001	19.994	103.105	20.006	2.125	0.520
1208.000	682.430	80.003	19.994	103.104	20.008	2.014	0.504
1210.000	683.417	79.999	19.995	103.092	20.009	1.943	0.509
1212.000	684.515	80.008	19.996	103.101	20.007	2.079	0.527
1214.001	685.538	80.001	19.995	103.103	20.010	1.881	0.530
1216.001	686.596	80.000	19.996	103.104	20.008	2.018	0.525
1218.000	687.637	79.998	19.995	103.104	20.008	2.033	0.540
1220.001	688.655	79.998	19.996	103.105	20.007	2.061	0.514
1222.001	689.658	80.006	19.995	103.098	20.007	2.073	0.513
1224.001	690.718	80.007	19.996	103.101	20.008	2.021	0.502
1226.000	691.736	80.004	19.995	103.105	20.009	1.896	0.509
1228.000	692.810	80.006	19.995	103.117	20.009	1.956	0.547
1230.000	693.774	79.998	19.995	103.103	20.007	2.096	0.502
1232.001	694.783	80.002	19.997	103.097	20.006	2.123	0.481
1234.000	695.857	80.010	19.994	103.094	20.005	2.196	0.516
1236.000	696.857	80.002	19.995	103.083	20.011	1.810	0.501
1238.000	697.869	80.000	19.995	103.105	20.005	2.194	0.495
1240.000	698.881	80.001	19.996	103.094	20.007	2.102	0.488
1242.001	699.902	79.997	19.996	103.099	20.005	2.202	0.514
1244.000	700.945	80.001	19.996	103.099	20.004	2.263	0.496
1246.000	701.851	79.992	19.998	103.096	20.006	2.150	0.452
1248.001	702.865	79.999	19.997	103.110	20.008	1.967	0.478
1250.000	703.949	79.997	19.998	103.109	20.009	1.939	0.535
1252.000	704.866	79.996	19.996	103.104	20.009	1.954	0.515
1254.000	705.816	80.000	19.997	103.103	20.006	2.154	0.498
1256.000	706.813	80.002	19.995	103.102	20.006	2.161	0.511
1258.000	707.780	79.980	19.996	103.088	20.006	2.167	0.482
1260.000	708.788	79.998	19.996	103.102	20.004	2.267	0.486
1262.000	709.771	79.998	19.995	103.106	20.008	1.994	0.504
1264.001	710.775	80.000	19.994	103.105	20.002	2.453	0.470
1266.000	711.762	79.999	19.996	103.100	20.002	2.432	0.499
1268.000	712.706	80.001	19.995	103.084	20.000	2.581	0.493
1270.000	713.698	80.004	19.995	103.096	20.000	2.539	0.493
1272.000	714.725	79.999	19.994	103.095	20.000	2.561	0.495
1274.000	715.713	80.001	19.996	103.100	20.000	2.586	0.498
1276.000	716.756	80.001	19.997	103.108	20.004	2.290	0.502
1278.000	717.722	79.996	19.994	103.089	20.002	2.442	0.491
1280.000	718.641	80.001	19.996	103.088	20.001	2.501	0.487
1282.000	719.662	79.999	19.996	103.105	20.000	2.566	0.510
1284.000	720.656	79.992	19.996	103.099	20.000	2.572	0.488
1286.001	721.632	80.000	19.995	103.098	20.000	2.547	0.491
1288.001	722.669	79.999	19.995	103.100	20.005	2.224	0.494
1290.000	723.658	80.003	19.995	103.105	20.002	2.434	0.505
1292.000	724.648	80.003	19.994	103.106	20.001	2.503	0.492
1294.000	725.595	80.005	19.995	103.105	20.003	2.332	0.440
1296.000	726.611	80.002	19.995	103.104	20.001	2.493	0.520
1298.000	727.617	79.999	19.994	103.090	20.002	2.409	0.535
1300.000	728.590	80.000	19.995	103.097	20.002	2.393	0.470
1302.000	729.652	79.999	19.995	103.091	20.002	2.424	0.536
1304.000	730.668	80.000	19.996	103.101	20.004	2.301	0.499
1306.000	731.642	80.000	19.995	103.105	20.005	2.217	0.482
1308.000	732.677	80.000	19.996	103.099	20.005	2.180	0.499
1310.001	733.688	79.999	19.995	103.093	20.001	2.516	0.504
1312.000	734.737	80.001	19.995	103.096	20.005	2.194	0.552
1314.000	735.773	80.004	19.994	103.094	20.003	2.320	0.537
1316.001	736.748	79.999	19.996	103.103	20.003	2.319	0.460
1318.000	737.787	80.000	19.995	103.104	20.005	2.181	0.521
1320.000	738.828	80.001	19.994	103.098	20.004	2.282	0.519
1322.000	739.864	80.002	19.995	103.105	20.003	2.357	0.521
1324.000	740.869	80.001	19.995	103.086	20.004	2.280	0.536
1326.000	741.901	80.000	19.995	103.100	20.002	2.445	0.544
1328.000	742.909	79.998	19.995	103.098	20.002	2.430	0.513
1329.500	743.697	79.998	19.995	103.102	20.004	2.255	0.534