File: 01_Data/Mineral_Wool_Insulation/MCC/Mineral_Wool_Insulation_MCC_30K_min_211116_O4.txt
Sample ID:	C:\MCC\MCC Cal\Test\Mineral_Wool_Insulation\Mineral_Wool_Insulation_MCC_30K_min_211116_R4.txt
Sample Weight (mg):	4.5
Heating Rate (C/s):	0.5
Combustor Temp (C):	900
N2 Flow Rate (cc/min):	80
O2 Flow Rate (cc/min):	20
Calibration File:	C:\MCC\MCC Cal\Coeff1 JN10440_30_210304.txt.txt
T Correction Coefficients:	0	1.024463	0
Time Shift (s):	14
*
Time (s)	Temperature (C)	N2 flow rate (cc/min)	O2 flow rate (cc/min)	Flow Rate (cc/min)	Oxygen (%)	HRR (W/g)	Heating rate (C/s)
0.000	106.440	80.009	19.997	103.050	19.908	0.033	-0.040
2.000	106.435	80.008	19.995	103.046	19.905	0.258	-0.031
3.999	106.452	80.009	19.995	103.045	19.906	0.153	0.010
5.999	106.428	80.010	19.994	103.048	19.910	-0.146	-0.015
7.999	106.457	80.011	19.994	103.044	19.908	0.008	0.030
9.999	106.408	80.011	19.994	103.055	19.906	0.120	-0.031
12.000	106.410	80.010	19.993	103.056	19.907	0.084	-0.004
13.999	106.439	80.010	19.994	103.056	19.905	0.243	0.015
15.999	106.449	80.010	19.994	103.069	19.904	0.266	0.026
18.000	106.468	80.010	19.995	103.064	19.905	0.231	0.016
19.999	106.469	80.008	19.995	103.058	19.911	-0.196	0.024
21.999	106.465	80.009	19.995	103.052	19.908	0.023	-0.001
23.999	106.505	80.009	19.995	103.045	19.909	-0.074	0.025
26.000	106.520	80.009	19.994	103.050	19.907	0.103	0.002
27.999	106.510	80.010	19.995	103.054	19.910	-0.156	0.010
30.000	106.509	80.011	19.995	103.051	19.906	0.169	0.030
31.999	106.518	80.011	19.995	103.052	19.906	0.152	0.002
33.999	106.555	80.012	19.995	103.047	19.905	0.251	0.028
35.999	106.500	80.012	19.995	103.054	19.900	0.553	-0.047
37.999	106.550	80.012	19.994	103.200	19.886	1.605	0.013
40.000	106.609	80.010	19.994	103.296	19.882	1.870	0.028
41.999	106.761	80.009	19.995	103.323	19.870	2.704	0.065
43.999	106.962	80.007	19.994	103.330	19.864	3.150	0.102
45.999	107.202	80.008	19.995	103.333	19.860	3.422	0.138
47.999	107.511	80.008	19.994	103.333	19.858	3.588	0.186
49.999	107.842	80.006	19.995	103.334	19.855	3.832	0.204
52.000	108.214	80.008	19.996	103.332	19.856	3.759	0.181
54.000	108.664	80.008	19.996	103.332	19.857	3.689	0.219
55.999	109.158	80.008	19.995	103.331	19.854	3.910	0.244
57.999	109.661	80.007	19.996	103.332	19.854	3.882	0.244
59.999	110.187	80.008	19.996	103.331	19.851	4.065	0.269
61.999	110.725	80.008	19.996	103.331	19.852	4.007	0.309
64.000	111.295	80.010	19.996	103.330	19.856	3.724	0.299
66.000	111.950	80.008	19.995	103.332	19.856	3.740	0.334
67.999	112.523	80.008	19.994	103.328	19.852	3.993	0.290
69.999	113.220	80.008	19.994	103.329	19.858	3.580	0.338
72.000	113.840	80.009	19.995	103.329	19.858	3.568	0.307
74.000	114.614	80.007	19.994	103.328	19.857	3.651	0.337
75.999	115.321	80.008	19.994	103.324	19.856	3.758	0.374
78.000	116.050	80.008	19.995	103.328	19.854	3.904	0.371
79.999	116.840	80.006	19.995	103.330	19.847	4.375	0.384
81.999	117.621	80.009	19.995	103.327	19.852	4.032	0.418
84.001	118.446	80.008	19.995	103.334	19.853	3.946	0.406
86.000	119.235	80.009	19.995	103.335	19.853	3.976	0.374
87.999	120.055	80.009	19.994	103.335	19.851	4.075	0.396
89.999	120.887	80.009	19.994	103.329	19.852	4.022	0.416
91.999	121.719	80.008	19.995	103.327	19.851	4.106	0.401
93.999	122.583	80.009	19.994	103.325	19.855	3.808	0.429
96.000	123.493	80.010	19.994	103.328	19.852	4.057	0.473
97.999	124.369	80.009	19.995	103.327	19.853	3.983	0.464
99.999	125.272	80.010	19.995	103.315	19.851	4.090	0.430
102.000	126.202	80.008	19.995	103.320	19.853	3.923	0.462
103.999	127.126	80.009	19.995	103.322	19.853	3.968	0.433
105.999	128.070	80.011	19.994	103.322	19.853	3.976	0.487
108.000	128.996	80.011	19.994	103.329	19.852	4.026	0.440
109.999	129.963	80.010	19.993	103.325	19.855	3.823	0.510
111.999	130.881	80.010	19.995	103.333	19.854	3.911	0.476
113.999	131.800	80.009	19.994	103.332	19.856	3.705	0.496
115.999	132.835	80.011	19.993	103.334	19.855	3.809	0.479
117.999	133.808	80.012	19.994	103.331	19.854	3.883	0.503
119.999	134.768	80.011	19.993	103.318	19.853	3.961	0.494
121.999	135.730	80.010	19.994	103.321	19.854	3.854	0.462
123.999	136.744	80.010	19.994	103.328	19.855	3.808	0.504
125.999	137.735	80.008	19.994	103.314	19.857	3.675	0.514
128.000	138.725	80.008	19.995	103.305	19.852	4.053	0.517
130.000	139.720	80.007	19.995	103.307	19.854	3.903	0.494
132.000	140.692	80.009	19.995	103.305	19.853	3.984	0.485
134.000	141.712	80.008	19.995	103.314	19.857	3.682	0.505
136.000	142.677	80.008	19.994	103.313	19.854	3.902	0.498
138.000	143.701	80.008	19.994	103.309	19.851	4.101	0.502
140.000	144.787	80.008	19.994	103.325	19.857	3.684	0.517
142.000	145.745	80.008	19.995	103.310	19.856	3.768	0.527
144.000	146.768	80.008	19.995	103.302	19.858	3.581	0.486
146.000	147.746	80.008	19.995	103.298	19.859	3.501	0.498
148.000	148.756	80.008	19.995	103.291	19.859	3.511	0.506
150.000	149.791	80.010	19.995	103.290	19.865	3.082	0.483
152.000	150.779	80.007	19.994	103.291	19.863	3.242	0.475
154.000	151.783	80.008	19.996	103.291	19.862	3.285	0.471
156.000	152.821	80.007	19.996	103.289	19.865	3.125	0.529
158.000	153.826	80.007	19.996	103.291	19.861	3.368	0.497
160.000	154.800	80.007	19.996	103.289	19.862	3.337	0.453
162.000	155.801	80.008	19.997	103.291	19.861	3.392	0.472
164.000	156.660	80.006	19.996	103.284	19.861	3.372	0.511
166.000	157.812	80.007	19.996	103.284	19.864	3.166	0.447
168.000	158.811	80.008	19.996	103.286	19.861	3.357	0.513
170.000	159.817	80.007	19.994	103.285	19.862	3.333	0.505
172.000	160.776	80.008	19.995	103.281	19.864	3.147	0.482
174.000	161.786	80.008	19.994	103.284	19.862	3.275	0.481
176.000	162.725	80.010	19.994	103.286	19.863	3.251	0.477
178.000	163.755	80.010	19.995	103.286	19.860	3.415	0.491
180.000	164.806	80.008	19.993	103.284	19.864	3.140	0.510
182.000	165.808	80.011	19.994	103.281	19.862	3.326	0.502
184.000	166.736	80.009	19.994	103.286	19.860	3.423	0.453
186.000	167.704	80.010	19.995	103.284	19.861	3.362	0.524
188.000	168.773	80.009	19.994	103.283	19.862	3.310	0.519
190.000	169.738	80.010	19.993	103.280	19.862	3.298	0.475
192.000	170.693	80.009	19.995	103.283	19.863	3.241	0.472
194.000	171.719	80.009	19.995	103.281	19.863	3.241	0.492
196.000	172.695	80.010	19.994	103.263	19.866	3.037	0.522
198.000	173.674	80.009	19.994	103.269	19.865	3.111	0.501
200.000	174.662	80.009	19.994	103.287	19.865	3.097	0.552
202.000	175.664	80.010	19.994	103.272	19.868	2.844	0.501
204.000	176.632	80.010	19.994	103.269	19.867	2.963	0.450
206.000	177.600	80.011	19.993	103.265	19.867	2.953	0.484
208.000	178.610	80.011	19.994	103.267	19.865	3.079	0.476
210.000	179.612	80.010	19.994	103.273	19.869	2.789	0.508
212.000	180.600	80.012	19.994	103.269	19.871	2.669	0.488
214.000	181.575	80.009	19.994	103.268	19.868	2.898	0.453
216.000	182.577	80.009	19.995	103.259	19.865	3.056	0.490
218.000	183.562	80.007	19.994	103.257	19.866	3.009	0.496
220.000	184.587	80.010	19.994	103.265	19.864	3.149	0.441
222.000	185.504	80.007	19.995	103.262	19.869	2.828	0.507
224.000	186.548	80.006	19.995	103.261	19.866	3.007	0.520
226.000	187.519	80.007	19.995	103.256	19.865	3.097	0.461
228.000	188.473	80.009	19.996	103.255	19.866	3.015	0.486
230.000	189.484	80.009	19.995	103.254	19.868	2.857	0.491
232.000	190.460	80.009	19.996	103.259	19.864	3.171	0.503
234.000	191.422	80.009	19.995	103.260	19.864	3.147	0.488
236.000	192.420	80.010	19.995	103.251	19.866	3.048	0.496
238.000	193.380	80.008	19.995	103.253	19.866	3.015	0.489
240.000	194.347	80.009	19.995	103.255	19.868	2.867	0.483
242.000	195.330	80.007	19.995	103.254	19.867	2.961	0.471
244.000	196.280	80.007	19.994	103.256	19.869	2.770	0.442
246.000	197.265	80.008	19.994	103.256	19.871	2.686	0.459
248.000	198.256	80.005	19.995	103.255	19.869	2.801	0.505
250.000	199.220	80.006	19.996	103.255	19.870	2.700	0.486
252.000	200.183	80.006	19.995	103.255	19.866	3.030	0.492
254.000	201.163	80.008	19.996	103.255	19.867	2.949	0.493
256.000	202.133	80.007	19.996	103.255	19.869	2.813	0.478
258.000	203.105	80.008	19.995	103.255	19.869	2.793	0.478
260.000	204.100	80.008	19.995	103.254	19.866	3.025	0.491
262.000	205.062	80.008	19.996	103.247	19.871	2.655	0.490
264.000	206.072	80.010	19.996	103.249	19.868	2.853	0.482
266.000	207.015	80.009	19.994	103.252	19.869	2.832	0.479
268.000	208.022	80.009	19.994	103.254	19.871	2.657	0.521
270.000	209.017	80.010	19.995	103.255	19.868	2.906	0.493
272.000	209.983	80.010	19.994	103.249	19.869	2.828	0.497
274.000	210.984	80.010	19.994	103.251	19.866	3.015	0.521
276.000	211.927	80.009	19.994	103.250	19.867	2.942	0.512
278.000	212.903	80.010	19.996	103.251	19.867	2.951	0.468
280.000	213.895	80.008	19.994	103.240	19.867	2.958	0.485
282.000	214.858	80.010	19.995	103.248	19.866	2.991	0.492
284.000	215.824	80.009	19.994	103.249	19.874	2.470	0.472
286.000	216.760	80.012	19.994	103.238	19.872	2.556	0.463
288.000	217.733	80.010	19.995	103.236	19.870	2.731	0.428
290.000	218.733	80.011	19.993	103.246	19.867	2.927	0.486
292.000	219.710	80.010	19.996	103.239	19.870	2.746	0.474
294.000	220.653	80.009	19.995	103.247	19.867	2.916	0.484
296.000	221.695	80.011	19.995	103.247	19.870	2.732	0.515
298.000	222.640	80.010	19.995	103.250	19.871	2.635	0.455
300.000	223.658	80.008	19.995	103.246	19.872	2.584	0.522
302.000	224.599	80.009	19.995	103.246	19.872	2.594	0.482
304.000	225.601	80.009	19.994	103.248	19.873	2.532	0.505
306.000	226.534	80.008	19.995	103.238	19.869	2.798	0.464
308.000	227.580	80.008	19.996	103.241	19.873	2.532	0.482
310.000	228.520	80.008	19.995	103.229	19.871	2.627	0.492
312.000	229.526	80.007	19.994	103.220	19.874	2.443	0.496
314.000	230.522	80.009	19.994	103.222	19.874	2.470	0.504
316.000	231.483	80.010	19.994	103.227	19.873	2.488	0.479
318.000	232.442	80.009	19.995	103.231	19.873	2.534	0.507
320.000	233.409	80.009	19.994	103.237	19.870	2.735	0.481
322.000	234.374	80.008	19.995	103.240	19.872	2.593	0.515
324.000	235.361	80.009	19.994	103.253	19.873	2.490	0.484
326.000	236.370	80.008	19.995	103.253	19.870	2.739	0.486
328.000	237.399	80.008	19.996	103.255	19.874	2.468	0.529
330.000	238.384	80.009	19.994	103.257	19.873	2.497	0.510
332.000	239.371	80.007	19.995	103.258	19.873	2.542	0.462
334.000	240.411	80.007	19.995	103.257	19.869	2.789	0.526
336.000	241.416	80.007	19.994	103.255	19.868	2.849	0.542
338.000	242.470	80.008	19.994	103.255	19.868	2.865	0.530
340.000	243.539	80.008	19.994	103.255	19.868	2.886	0.587
342.000	244.583	80.007	19.994	103.254	19.868	2.865	0.535
344.000	245.641	80.008	19.994	103.246	19.872	2.604	0.515
346.000	246.709	80.009	19.995	103.238	19.870	2.715	0.536
348.000	247.717	80.007	19.995	103.252	19.871	2.637	0.516
350.000	248.820	80.009	19.996	103.251	19.872	2.569	0.542
352.000	249.864	80.010	19.995	103.245	19.874	2.429	0.566
354.000	250.933	80.008	19.996	103.238	19.873	2.545	0.515
356.000	252.073	80.008	19.996	103.246	19.875	2.364	0.565
358.000	253.142	80.009	19.996	103.238	19.872	2.567	0.539
360.000	254.174	80.010	19.995	103.240	19.877	2.236	0.514
362.000	255.249	80.009	19.995	103.240	19.874	2.411	0.556
364.000	256.287	80.010	19.995	103.227	19.875	2.341	0.527
366.000	257.359	80.008	19.995	103.226	19.871	2.687	0.533
368.000	258.423	80.008	19.995	103.224	19.873	2.506	0.525
370.000	259.481	80.009	19.993	103.225	19.874	2.419	0.526
372.000	260.527	80.011	19.994	103.218	19.871	2.635	0.517
374.000	261.603	80.008	19.993	103.234	19.871	2.640	0.524
376.000	262.640	80.010	19.993	103.230	19.876	2.306	0.524
378.000	263.702	80.009	19.994	103.229	19.874	2.458	0.515
380.000	264.757	80.010	19.994	103.219	19.879	2.055	0.534
382.000	265.785	80.007	19.994	103.219	19.878	2.193	0.495
384.000	266.807	80.008	19.994	103.216	19.876	2.273	0.496
386.000	267.860	80.007	19.994	103.226	19.881	1.972	0.516
388.000	268.935	80.006	19.995	103.226	19.882	1.895	0.536
390.000	269.953	80.009	19.994	103.221	19.876	2.269	0.491
392.000	271.012	80.007	19.995	103.219	19.877	2.199	0.540
394.000	272.064	80.007	19.995	103.178	19.882	1.870	0.533
396.000	273.043	80.007	19.994	103.237	19.879	2.086	0.503
398.000	274.076	80.009	19.994	103.236	19.880	1.996	0.494
400.000	275.120	80.011	19.994	103.217	19.879	2.091	0.544
402.000	276.139	80.007	19.994	103.219	19.877	2.239	0.502
404.000	277.073	80.011	19.994	103.219	19.877	2.232	0.486
406.000	278.134	80.009	19.994	103.216	19.881	1.963	0.498
408.000	279.132	80.008	19.995	103.218	19.884	1.760	0.520
410.000	280.062	80.008	19.995	103.211	19.881	1.914	0.458
412.000	281.079	80.009	19.994	103.208	19.881	1.942	0.491
414.000	282.069	80.000	19.996	103.207	19.880	1.996	0.509
416.000	283.070	80.008	19.995	103.216	19.877	2.206	0.489
418.000	284.016	80.008	19.994	103.194	19.879	2.117	0.482
420.000	285.003	80.008	19.995	103.200	19.877	2.216	0.448
422.000	285.977	80.007	19.996	103.200	19.877	2.226	0.468
424.000	286.994	80.010	19.996	103.205	19.876	2.331	0.531
426.000	287.967	80.008	19.996	103.212	19.882	1.905	0.490
428.000	288.936	80.011	19.995	103.214	19.881	1.951	0.475
430.000	289.907	80.007	19.995	103.213	19.881	1.922	0.510
432.000	290.906	80.009	19.996	103.208	19.884	1.762	0.487
434.000	291.870	80.009	19.995	103.204	19.884	1.765	0.513
436.000	292.837	80.010	19.995	103.205	19.884	1.752	0.512
438.000	293.832	80.008	19.994	103.212	19.880	2.004	0.493
440.000	294.822	80.007	19.996	103.213	19.882	1.897	0.510
442.000	295.779	80.008	19.995	103.210	19.881	1.965	0.503
444.000	296.788	80.005	19.995	103.150	19.882	1.841	0.526
446.000	297.706	80.008	19.995	103.259	19.884	1.712	0.466
448.000	298.729	80.009	19.995	103.216	19.886	1.588	0.460
450.000	299.703	80.009	19.996	103.216	19.885	1.656	0.462
452.000	300.671	80.004	19.996	103.211	19.887	1.521	0.483
454.000	301.682	80.009	19.995	103.214	19.887	1.513	0.521
456.000	302.650	80.015	19.994	103.210	19.888	1.410	0.496
458.000	303.661	80.011	19.994	103.215	19.887	1.492	0.507
460.000	304.609	80.002	19.996	103.203	19.886	1.557	0.487
462.000	305.569	80.004	19.997	103.208	19.885	1.667	0.480
464.000	306.583	79.992	19.996	103.202	19.888	1.469	0.480
466.000	307.593	80.014	19.995	103.195	19.885	1.685	0.468
468.000	308.568	80.012	19.993	103.207	19.888	1.418	0.497
470.000	309.575	80.008	19.994	103.218	19.893	1.054	0.498
472.000	310.566	80.006	19.994	103.207	19.891	1.257	0.539
474.000	311.562	80.006	19.994	103.207	19.889	1.346	0.498
476.000	312.563	80.009	19.994	103.209	19.893	1.095	0.473
478.000	313.546	80.004	19.994	103.209	19.895	0.914	0.494
480.000	314.515	80.007	19.996	103.196	19.889	1.399	0.490
482.000	315.544	80.009	19.994	103.209	19.893	1.095	0.518
484.000	316.539	80.010	19.995	103.198	19.894	1.033	0.529
486.000	317.514	80.010	19.995	103.191	19.895	0.965	0.497
488.000	318.539	80.009	19.994	103.203	19.896	0.870	0.496
490.000	319.540	80.005	19.995	103.192	19.887	1.484	0.504
492.000	320.484	80.008	19.994	103.200	19.889	1.338	0.496
494.000	321.512	80.008	19.995	103.199	19.892	1.156	0.526
496.000	322.507	80.010	19.995	103.190	19.891	1.214	0.521
498.000	323.504	80.007	19.994	103.203	19.895	0.922	0.522
500.000	324.504	80.012	19.994	103.195	19.892	1.189	0.527
502.000	325.478	80.013	19.994	103.187	19.894	0.986	0.511
504.000	326.464	79.994	19.995	103.189	19.892	1.160	0.517
506.000	327.435	80.009	19.995	103.197	19.893	1.066	0.487
508.000	328.470	80.007	19.994	103.187	19.895	0.939	0.497
510.000	329.481	79.992	19.997	103.191	19.893	1.058	0.495
512.000	330.499	80.020	19.993	103.194	19.900	0.591	0.486
514.000	331.543	80.018	19.994	103.200	19.898	0.753	0.497
516.000	332.515	80.011	19.995	103.209	19.893	1.097	0.476
518.000	333.599	80.006	19.994	103.185	19.894	0.996	0.559
520.000	334.561	80.009	19.994	103.180	19.895	0.934	0.488
522.000	335.576	80.009	19.996	103.189	19.893	1.050	0.507
524.000	336.546	80.009	19.994	103.185	19.893	1.105	0.520
526.000	337.569	80.007	19.995	103.180	19.895	0.942	0.475
528.000	338.546	80.007	19.995	103.197	19.894	1.015	0.477
530.000	339.584	79.993	19.995	103.195	19.896	0.871	0.506
532.000	340.558	80.008	19.994	103.193	19.894	0.984	0.465
534.000	341.594	80.007	19.995	103.189	19.897	0.782	0.523
536.000	342.597	80.010	19.993	103.193	19.895	0.969	0.488
538.000	343.600	80.007	19.994	103.183	19.900	0.580	0.531
540.000	344.570	79.996	19.996	103.172	19.901	0.531	0.482
542.000	345.608	80.008	19.995	103.173	19.900	0.552	0.511
544.000	346.651	80.009	19.995	103.193	19.905	0.257	0.515
546.000	347.633	80.008	19.996	103.179	19.903	0.397	0.485
548.000	348.666	80.008	19.996	103.179	19.900	0.580	0.531
550.000	349.689	79.997	19.994	103.172	19.900	0.603	0.526
552.000	350.670	80.008	19.992	103.175	19.902	0.440	0.475
554.000	351.719	80.005	19.996	103.179	19.902	0.476	0.513
556.000	352.754	80.005	19.996	103.183	19.906	0.138	0.514
558.000	353.795	80.011	19.996	103.177	19.907	0.095	0.515
560.000	354.791	80.011	19.994	103.179	19.905	0.224	0.524
562.000	355.784	80.006	19.994	103.178	19.905	0.194	0.456
564.000	356.845	79.999	19.996	103.174	19.910	-0.113	0.537
566.000	357.839	80.003	19.996	103.169	19.905	0.210	0.508
568.000	358.868	80.000	19.996	103.174	19.908	0.033	0.534
570.000	359.857	80.007	19.994	103.175	19.906	0.175	0.504
572.000	360.878	80.013	19.994	103.176	19.906	0.183	0.465
574.000	361.945	80.005	19.993	103.175	19.906	0.167	0.534
576.000	362.939	80.014	19.993	103.175	19.910	-0.132	0.484
578.000	363.925	80.010	19.994	103.184	19.914	-0.412	0.522
580.000	364.939	80.012	19.993	103.188	19.911	-0.208	0.512
582.000	365.939	79.991	19.996	103.189	19.907	0.074	0.522
584.000	366.923	80.003	19.994	103.182	19.911	-0.195	0.492
586.000	367.906	80.008	19.995	103.172	19.912	-0.257	0.471
588.000	368.920	80.007	19.994	103.177	19.914	-0.389	0.506
590.000	369.965	80.003	19.994	103.179	19.917	-0.638	0.501
592.000	370.972	80.008	19.995	103.181	19.920	-0.852	0.507
594.000	371.976	80.008	19.995	103.179	19.910	-0.163	0.504
596.000	372.963	80.011	19.992	103.178	19.912	-0.278	0.480
598.000	374.012	80.009	19.994	103.177	19.913	-0.370	0.535
600.000	374.980	80.023	19.993	103.177	19.917	-0.655	0.469
602.000	376.053	80.016	19.993	103.175	19.913	-0.375	0.543
604.000	377.011	80.020	19.993	103.185	19.914	-0.441	0.486
606.000	378.006	80.014	19.996	103.177	19.915	-0.480	0.467
608.000	379.036	80.012	19.993	103.174	19.916	-0.535	0.504
610.000	380.069	80.017	19.994	103.179	19.911	-0.224	0.511
612.000	381.063	80.015	19.994	103.174	19.916	-0.543	0.501
614.000	382.041	80.008	19.994	103.174	19.919	-0.743	0.496
616.000	383.034	80.012	19.994	103.170	19.912	-0.276	0.469
618.000	384.013	80.007	19.995	103.168	19.917	-0.603	0.512
620.000	384.975	80.006	19.995	103.171	19.915	-0.511	0.472
622.000	386.036	80.011	19.994	103.166	19.917	-0.626	0.507
624.000	387.005	80.013	19.992	103.168	19.920	-0.846	0.465
626.000	388.044	80.011	19.995	103.162	19.922	-1.011	0.492
628.000	388.977	80.004	19.997	103.169	19.921	-0.941	0.456
630.000	390.029	80.008	19.994	103.166	19.924	-1.099	0.563
632.000	391.061	80.017	19.993	103.169	19.919	-0.747	0.510
634.000	392.071	80.003	19.995	103.173	19.924	-1.111	0.506
636.000	393.061	79.998	19.996	103.175	19.918	-0.720	0.505
638.000	394.135	80.015	19.994	103.183	19.925	-1.206	0.531
640.000	395.108	80.013	19.996	103.173	19.925	-1.225	0.490
642.000	396.110	80.004	19.996	103.171	19.926	-1.268	0.490
644.000	397.159	80.022	19.995	103.176	19.924	-1.111	0.549
646.000	398.106	80.018	19.995	103.174	19.926	-1.241	0.498
648.000	399.133	80.019	19.995	103.168	19.929	-1.500	0.528
650.000	400.138	80.013	19.996	103.172	19.927	-1.373	0.484
652.000	401.174	80.009	19.996	103.162	19.927	-1.319	0.515
654.000	402.180	80.014	19.994	103.168	19.930	-1.579	0.523
656.000	403.153	80.001	19.996	103.177	19.929	-1.467	0.506
658.000	404.142	80.007	19.993	103.171	19.934	-1.846	0.473
660.000	405.144	80.004	19.994	103.179	19.931	-1.665	0.481
662.000	406.183	80.004	19.993	103.177	19.932	-1.721	0.505
664.000	407.166	80.005	19.994	103.167	19.933	-1.752	0.479
666.000	408.160	79.998	19.995	103.177	19.933	-1.772	0.518
668.000	409.185	80.004	19.994	103.176	19.931	-1.643	0.531
670.000	410.163	80.007	19.995	103.175	19.933	-1.764	0.519
672.000	411.165	80.001	19.996	103.175	19.935	-1.931	0.489
674.000	412.183	80.014	19.995	103.176	19.934	-1.840	0.502
676.000	413.164	80.010	19.997	103.181	19.933	-1.764	0.513
678.000	414.169	80.011	19.994	103.162	19.934	-1.832	0.507
680.000	415.144	80.015	19.996	103.162	19.934	-1.834	0.494
682.000	416.122	80.002	19.993	103.163	19.941	-2.384	0.438
684.000	417.138	80.009	19.995	103.151	19.939	-2.221	0.490
686.000	418.147	80.020	19.994	103.166	19.944	-2.596	0.500
688.000	419.142	80.017	19.993	103.156	19.944	-2.573	0.502
690.000	420.127	80.017	19.994	103.166	19.940	-2.293	0.507
692.000	421.108	80.004	19.995	103.151	19.938	-2.153	0.500
694.000	422.107	80.006	19.994	103.161	19.945	-2.631	0.483
696.000	423.083	80.018	19.994	103.151	19.938	-2.151	0.499
698.000	424.073	80.009	19.994	103.172	19.942	-2.448	0.502
700.000	425.047	80.018	19.994	103.168	19.939	-2.240	0.494
702.000	426.058	80.011	19.993	103.162	19.940	-2.271	0.501
704.000	427.012	80.010	19.994	103.145	19.941	-2.330	0.487
706.000	427.956	80.002	19.996	103.169	19.940	-2.301	0.484
708.000	428.963	79.995	19.996	103.162	19.937	-2.056	0.516
710.000	429.963	80.018	19.993	103.149	19.937	-2.056	0.479
712.000	430.922	80.009	19.996	103.153	19.941	-2.330	0.515
714.000	431.951	80.014	19.993	103.155	19.941	-2.320	0.506
716.000	432.925	80.014	19.994	103.157	19.941	-2.384	0.522
718.000	433.927	80.005	19.993	103.161	19.939	-2.204	0.499
720.000	434.977	80.009	19.995	103.177	19.940	-2.254	0.513
722.000	435.985	80.011	19.994	103.161	19.943	-2.466	0.501
724.000	436.966	80.003	19.994	103.160	19.941	-2.334	0.509
726.000	437.987	80.006	19.996	103.169	19.942	-2.452	0.484
728.000	439.035	80.013	19.992	103.168	19.940	-2.262	0.499
730.000	440.068	80.002	19.994	103.156	19.945	-2.656	0.501
732.000	441.112	80.001	19.995	103.163	19.947	-2.746	0.534
734.000	442.108	80.010	19.993	103.171	19.945	-2.631	0.526
736.000	443.138	80.006	19.997	103.148	19.945	-2.668	0.555
738.000	444.193	80.010	19.994	103.166	19.947	-2.759	0.514
740.000	445.217	80.017	19.995	103.161	19.949	-2.919	0.544
742.000	446.255	80.004	19.995	103.166	19.952	-3.139	0.493
744.000	447.329	80.002	19.996	103.160	19.948	-2.831	0.529
746.000	448.419	80.001	19.997	103.160	19.948	-2.858	0.563
748.000	449.409	80.008	19.996	103.142	19.946	-2.682	0.496
750.000	450.483	80.001	19.997	103.148	19.951	-3.036	0.533
752.000	451.534	80.003	19.994	103.160	19.950	-3.010	0.505
754.000	452.623	80.007	19.995	103.140	19.952	-3.164	0.526
756.000	453.675	80.004	19.996	103.154	19.954	-3.300	0.549
758.000	454.740	80.008	19.994	103.155	19.959	-3.604	0.532
760.000	455.817	80.003	19.996	103.156	19.956	-3.452	0.539
762.000	456.876	80.009	19.994	103.166	19.952	-3.162	0.538
764.000	457.938	80.009	19.995	103.154	19.953	-3.232	0.539
766.000	459.014	80.004	19.995	103.152	19.957	-3.475	0.559
768.000	460.061	80.008	19.996	103.157	19.954	-3.275	0.529
770.000	461.139	80.007	19.995	103.164	19.957	-3.477	0.550
772.000	462.186	79.994	19.995	103.170	19.960	-3.695	0.524
774.000	463.259	80.016	19.994	103.170	19.957	-3.469	0.508
776.000	464.290	80.021	19.994	103.162	19.962	-3.854	0.533
778.000	465.325	80.011	19.991	103.165	19.962	-3.854	0.520
780.000	466.374	80.018	19.994	103.154	19.967	-4.178	0.558
782.000	467.441	80.010	19.993	103.151	19.966	-4.148	0.551
784.000	468.497	80.011	19.994	103.156	19.964	-3.970	0.555
786.000	469.530	80.011	19.995	103.151	19.964	-4.006	0.514
788.000	470.587	80.018	19.994	103.156	19.968	-4.254	0.529
790.000	471.660	80.008	19.993	103.142	19.964	-3.961	0.557
792.000	472.688	80.010	19.992	103.150	19.967	-4.210	0.527
794.000	473.743	80.011	19.994	103.147	19.964	-4.017	0.544
796.000	474.798	80.017	19.995	103.148	19.966	-4.153	0.513
798.000	475.825	80.010	19.992	103.147	19.969	-4.334	0.531
800.000	476.810	80.009	19.994	103.144	19.968	-4.281	0.510
802.000	477.912	80.018	19.995	103.143	19.966	-4.100	0.539
804.000	478.869	80.002	19.997	103.145	19.966	-4.143	0.507
806.000	479.934	80.010	19.997	103.137	19.975	-4.796	0.491
808.000	480.965	80.007	19.996	103.145	19.974	-4.701	0.530
810.000	481.961	80.009	19.995	103.139	19.967	-4.194	0.520
812.000	482.991	80.017	19.997	103.134	19.970	-4.451	0.525
814.000	483.998	80.010	19.996	103.136	19.971	-4.458	0.496
816.000	485.059	80.010	19.994	103.133	19.971	-4.499	0.493
818.000	486.080	80.004	19.996	103.137	19.971	-4.468	0.486
820.000	487.140	80.011	19.996	103.133	19.971	-4.509	0.546
822.000	488.188	80.014	19.994	103.142	19.972	-4.550	0.545
824.000	489.194	80.011	19.992	103.140	19.969	-4.353	0.522
826.000	490.189	80.009	19.996	103.142	19.970	-4.410	0.521
828.000	491.183	80.007	19.995	103.141	19.971	-4.501	0.487
830.000	492.178	80.007	19.995	103.136	19.974	-4.742	0.483
832.000	493.227	80.008	19.996	103.136	19.975	-4.794	0.509
834.000	494.251	80.011	19.995	103.136	19.974	-4.742	0.522
836.000	495.256	80.009	19.993	103.139	19.973	-4.643	0.518
838.000	496.295	80.000	19.995	103.142	19.969	-4.369	0.522
840.000	497.320	80.004	19.994	103.143	19.973	-4.653	0.510
842.000	498.298	80.024	19.994	103.134	19.971	-4.468	0.528
844.000	499.316	80.011	19.994	103.136	19.975	-4.748	0.498
846.000	500.360	80.015	19.991	103.133	19.975	-4.797	0.552
848.000	501.354	80.004	19.994	103.138	19.976	-4.857	0.509
850.000	502.291	80.003	19.995	103.138	19.979	-5.071	0.467
852.000	503.360	80.009	19.993	103.140	19.977	-4.937	0.525
854.000	504.366	80.007	19.993	103.133	19.979	-5.039	0.516
856.000	505.338	80.008	19.993	103.130	19.980	-5.117	0.496
858.000	506.362	80.008	19.993	103.137	19.986	-5.587	0.508
860.000	507.333	80.001	19.995	103.140	19.985	-5.498	0.505
862.000	508.369	80.006	19.995	103.142	19.986	-5.537	0.499
864.000	509.369	80.002	19.996	103.131	19.984	-5.418	0.501
866.000	510.376	80.005	19.994	103.132	19.988	-5.707	0.479
868.000	511.394	80.009	19.994	103.129	19.985	-5.525	0.501
870.000	512.408	80.010	19.993	103.132	19.993	-6.068	0.496
872.000	513.419	80.003	19.996	103.131	19.986	-5.574	0.530
874.000	514.462	80.020	19.992	103.131	19.985	-5.494	0.545
876.000	515.430	79.997	19.996	103.131	19.984	-5.395	0.488
878.000	516.491	80.006	19.995	103.128	19.995	-6.184	0.512
880.000	517.486	80.010	19.995	103.136	19.993	-6.031	0.502
882.000	518.541	80.013	19.992	103.136	19.987	-5.660	0.516
884.000	519.554	80.010	19.996	103.135	19.984	-5.409	0.542
886.000	520.565	80.008	19.994	103.134	19.989	-5.797	0.509
888.000	521.580	80.011	19.995	103.134	19.992	-6.021	0.520
890.000	522.588	80.015	19.992	103.137	19.994	-6.140	0.521
892.000	523.577	80.005	19.996	103.145	19.992	-5.986	0.481
894.000	524.615	80.015	19.994	103.134	19.994	-6.128	0.518
896.000	525.630	80.007	19.994	103.130	19.995	-6.179	0.533
898.000	526.652	80.008	19.994	103.134	19.994	-6.155	0.486
900.000	527.645	80.008	19.994	103.131	19.999	-6.505	0.489
902.000	528.662	80.011	19.993	103.134	19.995	-6.225	0.485
904.000	529.702	80.006	19.995	103.138	19.998	-6.450	0.521
906.000	530.759	80.005	19.993	103.137	19.994	-6.159	0.547
908.000	531.784	80.006	19.994	103.136	19.996	-6.248	0.554
910.000	532.755	80.008	19.995	103.134	19.996	-6.287	0.466
912.000	533.797	80.005	19.995	103.127	19.997	-6.339	0.534
914.000	534.836	80.007	19.994	103.129	19.995	-6.229	0.527
916.000	535.888	80.006	19.995	103.128	19.999	-6.517	0.526
918.000	536.896	80.019	19.995	103.132	19.996	-6.305	0.504
920.000	537.949	80.009	19.994	103.133	19.996	-6.257	0.500
922.000	538.960	80.004	19.996	103.130	19.996	-6.272	0.543
924.000	539.997	80.005	19.996	103.125	20.001	-6.658	0.528
926.000	541.021	80.008	19.996	103.137	19.995	-6.205	0.523
928.000	542.032	80.009	19.995	103.132	19.997	-6.377	0.518
930.000	543.041	80.006	19.996	103.125	20.004	-6.880	0.500
932.000	544.065	80.008	19.996	103.127	20.005	-6.911	0.518
934.000	545.071	80.003	19.996	103.129	20.005	-6.902	0.488
936.000	546.073	80.006	19.995	103.116	20.008	-7.150	0.513
938.000	547.111	80.008	19.996	103.129	20.001	-6.620	0.538
940.000	548.086	80.012	19.994	103.125	20.006	-7.016	0.475
942.000	549.168	80.009	19.994	103.129	20.000	-6.595	0.539
944.000	550.230	80.011	19.994	103.133	20.009	-7.209	0.539
946.000	551.264	80.007	19.993	103.129	20.012	-7.415	0.545
948.000	552.239	80.018	19.994	103.131	20.012	-7.435	0.529
950.000	553.281	80.004	19.995	103.134	20.007	-7.057	0.522
952.000	554.298	80.008	19.994	103.130	20.005	-6.927	0.519
954.000	555.347	80.009	19.995	103.132	20.018	-7.862	0.506
956.000	556.344	80.001	19.995	103.131	20.010	-7.314	0.481
958.000	557.381	80.006	19.995	103.133	20.012	-7.429	0.531
960.000	558.409	80.001	19.996	103.131	20.011	-7.331	0.531
962.000	559.447	80.008	19.993	103.121	20.017	-7.776	0.533
964.000	560.417	80.006	19.994	103.131	20.012	-7.452	0.482
966.000	561.454	80.007	19.993	103.126	20.012	-7.452	0.511
968.000	562.492	80.009	19.995	103.131	20.018	-7.836	0.537
970.000	563.481	80.017	19.993	103.132	20.015	-7.665	0.467
972.000	564.479	80.004	19.995	103.129	20.019	-7.927	0.513
974.000	565.523	80.010	19.993	103.132	20.019	-7.919	0.507
976.000	566.504	80.007	19.995	103.133	20.019	-7.920	0.515
978.000	567.530	79.998	19.995	103.125	20.021	-8.033	0.503
980.000	568.529	80.001	19.995	103.128	20.021	-8.062	0.499
982.000	569.567	80.006	19.994	103.117	20.021	-8.032	0.507
984.000	570.552	80.007	19.995	103.118	20.020	-8.000	0.492
986.000	571.567	80.005	19.995	103.119	20.026	-8.444	0.523
988.000	572.576	80.002	19.996	103.132	20.020	-7.988	0.484
990.000	573.549	80.011	19.993	103.121	20.020	-8.013	0.512
992.000	574.586	80.010	19.996	103.132	20.028	-8.534	0.531
994.000	575.591	80.002	19.996	103.112	20.028	-8.537	0.482
996.000	576.573	80.008	19.995	103.108	20.026	-8.418	0.487
998.000	577.571	80.004	19.996	103.118	20.029	-8.610	0.523
1000.000	578.576	80.015	19.995	103.091	20.023	-8.192	0.497
1002.000	579.575	80.010	19.994	103.117	20.027	-8.463	0.503
1004.000	580.592	80.007	19.996	103.129	20.021	-8.078	0.497
1006.000	581.612	80.011	19.996	103.134	20.024	-8.275	0.512
1008.000	582.672	80.014	19.995	103.133	20.028	-8.574	0.507
1010.000	583.727	80.006	19.994	103.124	20.032	-8.860	0.523
1012.000	584.759	80.008	19.995	103.130	20.031	-8.775	0.509
1014.000	585.773	80.009	19.998	103.128	20.031	-8.779	0.490
1016.000	586.843	80.015	19.996	103.129	20.033	-8.934	0.519
1018.000	587.913	80.007	19.996	103.112	20.026	-8.426	0.536
1020.000	589.016	80.011	19.996	103.108	20.031	-8.771	0.543
1022.000	590.091	80.017	19.996	103.122	20.028	-8.570	0.527
1024.001	591.186	80.020	19.996	103.120	20.030	-8.711	0.525
1025.999	592.299	80.009	19.995	103.124	20.033	-8.931	0.531
1027.999	593.371	80.008	19.994	103.121	20.031	-8.747	0.564
1029.999	594.463	80.012	19.994	103.123	20.032	-8.839	0.547
1031.999	595.528	80.008	19.996	103.112	20.032	-8.848	0.522
1033.999	596.579	80.014	19.993	103.105	20.034	-9.007	0.518
1035.999	597.654	80.007	19.994	103.105	20.035	-9.034	0.539
1037.999	598.712	80.021	19.994	103.106	20.039	-9.321	0.517
1039.999	599.780	80.015	19.994	103.120	20.032	-8.885	0.551
1041.999	600.815	80.013	19.993	103.112	20.033	-8.941	0.525
1043.999	601.825	79.998	19.996	103.108	20.033	-8.911	0.525
1045.999	602.830	80.009	19.994	103.103	20.032	-8.855	0.486
1048.000	603.877	80.004	19.996	103.103	20.037	-9.178	0.494
1050.000	604.901	80.003	19.995	103.108	20.038	-9.277	0.488
1051.999	605.897	80.009	19.995	103.112	20.039	-9.363	0.489
1053.999	606.912	80.000	19.995	103.116	20.040	-9.427	0.481
1055.999	607.932	80.001	19.996	103.115	20.034	-8.988	0.507
1057.999	608.951	80.014	19.993	103.119	20.037	-9.199	0.534
1059.999	609.986	80.002	19.994	103.129	20.036	-9.110	0.512
1062.000	610.953	80.017	19.994	103.106	20.038	-9.301	0.483
1063.999	611.985	80.008	19.995	103.111	20.033	-8.929	0.486
1065.999	613.017	80.000	19.995	103.104	20.038	-9.298	0.505
1067.999	614.026	80.001	19.995	103.125	20.044	-9.722	0.525
1069.999	615.047	80.012	19.994	103.114	20.036	-9.110	0.503
1072.000	616.098	80.004	19.995	103.108	20.041	-9.481	0.537
1073.999	617.101	80.005	19.993	103.112	20.043	-9.650	0.517
1076.000	618.110	80.001	19.995	103.106	20.043	-9.637	0.503
1077.999	619.168	80.003	19.993	103.098	20.047	-9.923	0.551
1079.999	620.166	80.021	19.994	103.124	20.047	-9.895	0.525
1081.999	621.198	80.006	19.997	103.125	20.048	-9.979	0.537
1083.999	622.207	79.999	19.996	103.103	20.045	-9.780	0.488
1085.999	623.250	80.010	19.995	103.107	20.047	-9.939	0.530
1087.999	624.300	80.006	19.996	103.112	20.044	-9.683	0.538
1089.999	625.330	80.008	19.995	103.112	20.049	-10.081	0.503
1091.999	626.356	80.006	19.995	103.112	20.051	-10.237	0.537
1093.999	627.433	80.006	19.994	103.107	20.047	-9.912	0.545
1095.999	628.424	80.008	19.994	103.102	20.044	-9.695	0.519
1097.999	629.449	80.007	19.995	103.103	20.048	-9.992	0.489
1099.999	630.461	80.007	19.994	103.100	20.044	-9.737	0.517
1102.000	631.532	80.006	19.996	103.101	20.043	-9.623	0.501
1103.999	632.538	80.008	19.995	103.098	20.052	-10.262	0.518
1105.999	633.565	80.011	19.998	103.099	20.050	-10.168	0.528
1107.999	634.602	80.001	19.996	103.101	20.055	-10.501	0.534
1109.999	635.645	80.006	19.993	103.101	20.054	-10.414	0.503
1112.000	636.682	80.007	19.995	103.105	20.054	-10.422	0.507
1114.000	637.717	80.006	19.994	103.102	20.054	-10.415	0.514
1115.999	638.752	80.008	19.996	103.104	20.052	-10.313	0.538
1117.999	639.817	79.999	19.996	103.100	20.056	-10.536	0.532
1119.999	640.814	80.016	19.994	103.103	20.058	-10.676	0.529
1121.999	641.883	80.005	19.995	103.104	20.054	-10.429	0.529
1123.999	642.873	80.003	19.995	103.106	20.058	-10.682	0.478
1125.999	643.934	79.999	19.996	103.109	20.056	-10.549	0.520
1128.000	644.960	80.009	19.996	103.099	20.053	-10.376	0.540
1129.999	646.015	80.005	19.994	103.102	20.064	-11.110	0.542
1131.999	647.043	80.005	19.995	103.095	20.058	-10.700	0.500
1134.000	648.084	80.008	19.995	103.108	20.055	-10.468	0.536
1135.999	649.117	80.016	19.992	103.113	20.055	-10.524	0.543
1138.000	650.146	80.004	19.994	103.101	20.061	-10.921	0.544
1140.000	651.157	80.003	19.997	103.097	20.057	-10.628	0.495
1141.999	652.274	80.007	19.995	103.098	20.060	-10.855	0.517
1143.999	653.287	80.008	19.997	103.113	20.058	-10.738	0.537
1145.999	654.319	80.007	19.995	103.102	20.060	-10.826	0.522
1147.999	655.401	80.010	19.994	103.098	20.059	-10.807	0.540
1149.999	656.409	80.006	19.995	103.101	20.063	-11.078	0.482
1151.999	657.486	80.006	19.995	103.114	20.058	-10.709	0.540
1154.000	658.480	80.005	19.994	103.099	20.060	-10.884	0.503
1155.999	659.527	80.007	19.994	103.102	20.060	-10.841	0.485
1157.999	660.621	80.012	19.993	103.101	20.064	-11.129	0.511
1159.999	661.639	79.999	19.995	103.106	20.062	-11.016	0.503
1161.999	662.663	80.009	19.994	103.098	20.063	-11.095	0.513
1163.999	663.661	80.010	19.995	103.101	20.067	-11.366	0.520
1165.999	664.736	80.007	19.994	103.101	20.063	-11.100	0.513
1168.000	665.730	80.009	19.996	103.099	20.063	-11.102	0.485
1170.000	666.813	80.008	19.994	103.096	20.066	-11.313	0.546
1171.999	667.792	80.005	19.996	103.099	20.065	-11.227	0.500
1174.000	668.868	80.012	19.996	103.096	20.067	-11.369	0.550
1175.999	669.812	80.000	19.996	103.105	20.057	-10.635	0.486
1177.999	670.872	80.010	19.995	103.101	20.061	-10.952	0.523
1179.999	671.893	80.010	19.995	103.104	20.068	-11.435	0.522
1181.999	672.924	80.011	19.994	103.095	20.063	-11.084	0.535
1183.999	673.989	80.011	19.995	103.097	20.071	-11.612	0.548
1185.999	674.994	80.009	19.996	103.099	20.075	-11.892	0.551
1187.999	676.009	80.011	19.995	103.102	20.068	-11.437	0.522
1189.999	676.989	80.012	19.994	103.096	20.075	-11.894	0.484
1191.999	678.004	80.009	19.996	103.097	20.072	-11.725	0.497
1193.999	678.986	80.006	19.997	103.097	20.077	-12.042	0.490
1195.999	680.061	80.006	19.996	103.097	20.077	-12.065	0.522
1197.999	681.090	80.007	19.996	103.095	20.073	-11.777	0.498
1199.999	682.113	80.006	19.996	103.096	20.081	-12.366	0.501
1201.999	683.098	80.006	19.996	103.096	20.080	-12.252	0.469
1203.999	684.122	80.011	19.996	103.097	20.078	-12.122	0.491
1205.999	685.137	80.006	19.996	103.095	20.074	-11.863	0.517
1208.000	686.118	80.006	19.995	103.095	20.073	-11.749	0.522
1209.999	687.140	80.007	19.995	103.095	20.078	-12.130	0.526
1211.999	688.143	80.008	19.994	103.096	20.079	-12.182	0.487
1213.999	689.144	80.010	19.996	103.097	20.074	-11.881	0.487
1216.000	690.146	80.005	19.995	103.096	20.080	-12.307	0.505
1217.999	691.163	80.007	19.994	103.095	20.080	-12.262	0.516
1219.999	692.138	80.007	19.995	103.099	20.077	-12.079	0.500
1221.999	693.169	80.007	19.995	103.101	20.079	-12.190	0.492
1223.999	694.176	80.009	19.994	103.101	20.077	-12.067	0.520
1225.999	695.197	80.004	19.994	103.092	20.079	-12.198	0.513
1227.999	696.204	80.010	19.995	103.099	20.081	-12.326	0.512
1229.999	697.219	80.008	19.995	103.100	20.074	-11.876	0.502
1232.000	698.215	80.008	19.996	103.100	20.081	-12.358	0.481
1234.000	699.225	80.007	19.995	103.103	20.080	-12.248	0.545
1235.999	700.225	80.015	19.994	103.100	20.079	-12.236	0.533
1237.999	701.243	80.010	19.993	103.103	20.079	-12.230	0.522
1239.999	702.221	80.009	19.994	103.095	20.080	-12.269	0.479
1241.999	703.187	80.011	19.995	103.091	20.079	-12.191	0.466
1243.999	704.217	80.014	19.993	103.101	20.083	-12.491	0.521
1245.999	705.186	80.010	19.994	103.100	20.078	-12.156	0.485
1247.999	706.181	80.004	19.996	103.098	20.080	-12.255	0.477
1249.999	707.189	80.006	19.994	103.090	20.079	-12.230	0.478
1251.999	708.216	80.007	19.994	103.101	20.082	-12.421	0.523
1253.999	709.201	80.008	19.995	103.106	20.082	-12.415	0.489
1256.000	710.170	80.011	19.995	103.092	20.080	-12.290	0.476
1258.000	711.208	80.010	19.995	103.097	20.081	-12.379	0.505
1259.999	712.192	80.010	19.994	103.094	20.085	-12.644	0.477
1261.999	713.218	80.008	19.995	103.095	20.082	-12.450	0.503
1263.999	714.239	80.009	19.995	103.093	20.081	-12.383	0.531
1265.999	715.301	80.009	19.995	103.095	20.084	-12.570	0.513
1267.999	716.298	80.006	19.995	103.093	20.085	-12.650	0.477
1269.999	717.354	80.009	19.995	103.093	20.084	-12.564	0.540
1271.999	718.347	80.005	19.996	103.093	20.081	-12.339	0.489
1273.999	719.341	80.008	19.997	103.092	20.085	-12.627	0.495
1276.000	720.383	80.007	19.995	103.091	20.086	-12.689	0.530
1277.999	721.377	80.006	19.995	103.096	20.085	-12.654	0.493
1279.999	722.405	80.006	19.995	103.095	20.085	-12.654	0.483
1281.999	723.445	80.007	19.995	103.095	20.082	-12.454	0.512
1283.999	724.459	80.006	19.995	103.096	20.088	-12.870	0.497
1286.000	725.428	80.007	19.996	103.098	20.084	-12.592	0.488
1287.999	726.441	80.006	19.996	103.096	20.088	-12.866	0.518
1289.999	727.495	80.007	19.996	103.095	20.088	-12.819	0.504
1291.999	728.526	80.006	19.996	103.097	20.090	-13.018	0.524
1293.999	729.508	80.006	19.996	103.096	20.087	-12.813	0.498
1295.999	730.524	80.004	19.995	103.097	20.088	-12.846	0.500
1297.999	731.541	80.006	19.994	103.097	20.089	-12.961	0.491
1299.999	732.567	80.005	19.994	103.098	20.086	-12.745	0.532
1301.999	733.593	80.005	19.994	103.098	20.083	-12.463	0.506
1303.999	734.605	80.007	19.994	103.105	20.086	-12.708	0.492
1305.999	735.583	80.004	19.995	103.102	20.088	-12.852	0.486
1307.999	736.560	80.006	19.996	103.097	20.088	-12.846	0.480
1309.999	737.631	80.007	19.994	103.097	20.092	-13.118	0.537
1312.000	738.583	80.009	19.994	103.095	20.089	-12.959	0.493
1313.999	739.638	80.010	19.994	103.096	20.090	-13.014	0.509
1316.001	740.652	80.008	19.995	103.099	20.091	-13.084	0.513
1317.999	741.636	80.007	19.995	103.091	20.091	-13.086	0.522
1319.999	742.703	80.006	19.995	103.095	20.090	-13.023	0.508
1321.499	743.421	80.009	19.996	103.092	20.089	-12.920	0.474