File: 01_Data/Mineral_Wool_Insulation/MCC/Mineral_Wool_Insulation_MCC_30K_min_211111_R1.txt
Sample ID:	C:\MCC\MCC Cal\Test\Mineral_Wool_Insulation_MCC_30K_min_211111_R1.txt
Sample Weight (mg):	4.78
Heating Rate (C/s):	0.5
Combustor Temp (C):	900
N2 Flow Rate (cc/min):	80
O2 Flow Rate (cc/min):	20
Calibration File:	C:\MCC\MCC Cal\Coeff1 JN10440_30_210304.txt.txt
T Correction Coefficients:	0	1.024463	0
Time Shift (s):	14
*
Time (s)	Temperature (C)	N2 flow rate (cc/min)	O2 flow rate (cc/min)	Flow Rate (cc/min)	Oxygen (%)	HRR (W/g)	Heating rate (C/s)
0.000	107.238	80.000	19.995	103.047	20.039	-0.057	-0.006
2.000	107.244	80.000	19.995	103.034	20.040	-0.145	-0.003
4.000	107.254	80.000	19.994	103.037	20.038	-0.004	-0.011
6.000	107.271	79.999	19.994	103.046	20.034	0.229	0.015
8.000	107.241	80.000	19.995	103.033	20.037	0.038	-0.002
10.000	107.251	79.999	19.996	103.037	20.036	0.114	0.018
12.000	107.233	79.999	19.995	103.054	20.035	0.163	-0.028
14.000	107.187	79.999	19.996	103.082	20.027	0.697	-0.021
16.000	107.202	79.999	19.994	103.107	20.023	0.994	-0.005
18.000	107.265	79.997	19.996	103.147	20.020	1.208	0.043
20.000	107.313	79.998	19.995	103.186	20.015	1.518	0.029
22.000	107.407	80.000	19.996	103.193	20.008	1.995	0.036
24.000	107.568	80.001	19.995	103.220	20.006	2.135	0.092
26.000	107.728	80.001	19.995	103.226	20.002	2.395	0.094
28.000	107.917	80.001	19.996	103.227	20.003	2.335	0.100
30.000	108.141	80.000	19.996	103.246	20.001	2.483	0.120
32.000	108.434	80.002	19.995	103.261	20.000	2.562	0.166
33.999	108.733	80.001	19.994	103.261	20.000	2.546	0.162
35.999	109.037	80.000	19.996	103.263	19.996	2.812	0.168
37.999	109.423	80.001	19.995	103.267	19.996	2.796	0.215
39.999	109.776	80.001	19.995	103.274	19.992	3.067	0.185
42.000	110.196	80.000	19.995	103.267	19.994	2.933	0.216
43.999	110.653	79.999	19.996	103.268	19.994	2.970	0.223
45.999	111.130	80.000	19.995	103.270	19.994	2.928	0.236
47.999	111.608	80.001	19.996	103.282	19.995	2.897	0.238
49.999	112.126	80.001	19.996	103.285	19.994	2.956	0.247
52.001	112.657	80.001	19.995	103.286	19.991	3.121	0.263
53.999	113.198	80.003	19.995	103.297	19.993	3.020	0.273
55.999	113.800	80.003	19.995	103.290	19.994	2.923	0.291
57.999	114.381	80.002	19.995	103.301	19.991	3.161	0.296
59.999	115.021	80.000	19.995	103.303	19.989	3.293	0.301
62.000	115.648	80.003	19.995	103.297	19.990	3.251	0.323
63.999	116.317	79.999	19.994	103.301	19.984	3.609	0.359
66.000	116.977	80.000	19.995	103.301	19.987	3.390	0.326
67.999	117.725	80.002	19.994	103.302	19.988	3.330	0.376
69.999	118.415	80.002	19.995	103.304	19.989	3.275	0.352
71.999	119.164	80.000	19.995	103.303	19.992	3.115	0.365
73.999	119.842	79.999	19.996	103.301	19.988	3.321	0.321
75.999	120.646	80.001	19.995	103.294	19.989	3.299	0.379
77.999	121.411	80.000	19.996	103.303	19.987	3.402	0.372
79.999	122.187	80.002	19.995	103.302	19.990	3.224	0.424
82.000	122.982	80.001	19.996	103.304	19.988	3.338	0.401
83.999	123.850	80.003	19.995	103.305	19.990	3.193	0.412
85.999	124.681	80.001	19.995	103.308	19.991	3.182	0.437
87.999	125.494	80.001	19.995	103.303	19.989	3.293	0.404
89.999	126.411	80.001	19.995	103.305	19.990	3.218	0.447
91.999	127.199	79.999	19.996	103.307	19.990	3.240	0.421
93.999	128.083	80.000	19.995	103.309	19.989	3.253	0.447
95.999	128.976	79.999	19.994	103.307	19.989	3.260	0.435
97.999	129.900	79.998	19.995	103.309	19.990	3.192	0.469
99.999	130.727	79.999	19.995	103.306	19.990	3.185	0.430
101.999	131.635	80.002	19.996	103.305	19.992	3.095	0.434
103.999	132.556	80.001	19.995	103.287	19.988	3.346	0.451
106.000	133.468	80.000	19.995	103.299	19.989	3.269	0.456
107.999	134.381	79.999	19.995	103.292	19.994	2.959	0.477
109.999	135.278	80.003	19.994	103.297	19.994	2.970	0.484
112.000	136.217	80.003	19.994	103.295	19.989	3.274	0.467
113.999	137.142	80.000	19.994	103.292	19.993	3.001	0.491
115.999	138.020	80.001	19.995	103.298	19.992	3.096	0.446
118.000	138.964	80.002	19.994	103.298	19.993	3.023	0.455
120.000	139.905	80.002	19.995	103.291	19.995	2.905	0.484
121.999	140.853	80.001	19.994	103.283	19.995	2.885	0.468
123.999	141.845	80.002	19.995	103.285	19.995	2.878	0.483
126.000	142.773	80.003	19.994	103.282	19.997	2.731	0.462
127.999	143.737	80.001	19.994	103.280	19.994	2.964	0.479
130.000	144.659	80.001	19.995	103.272	19.993	3.047	0.453
132.000	145.625	80.002	19.995	103.272	19.995	2.859	0.493
134.000	146.588	80.001	19.995	103.270	19.996	2.845	0.478
136.000	147.567	80.001	19.995	103.277	19.994	2.931	0.487
138.000	148.542	80.002	19.997	103.264	19.995	2.872	0.485
140.000	149.516	80.000	19.997	103.276	19.997	2.758	0.499
142.000	150.485	80.004	19.996	103.273	19.996	2.800	0.449
144.000	151.481	79.998	19.996	103.264	19.996	2.830	0.523
146.000	152.437	79.996	19.996	103.266	19.998	2.691	0.496
148.000	153.383	79.998	19.995	103.258	19.996	2.832	0.529
150.000	154.349	79.994	19.995	103.264	19.999	2.639	0.448
152.000	155.381	80.000	19.995	103.261	19.998	2.683	0.516
154.000	156.309	79.995	19.995	103.258	20.001	2.489	0.496
156.000	157.279	79.994	19.994	103.262	20.002	2.393	0.473
158.000	158.251	79.997	19.997	103.268	19.999	2.582	0.495
160.000	159.234	79.997	19.996	103.272	20.003	2.329	0.477
162.000	160.206	79.999	19.994	103.264	19.999	2.599	0.465
164.000	161.139	79.998	19.994	103.263	19.999	2.593	0.465
166.000	162.157	80.001	19.994	103.262	20.001	2.494	0.484
168.000	163.115	80.001	19.995	103.268	20.001	2.492	0.488
170.000	164.145	79.994	19.995	103.258	20.000	2.516	0.505
172.000	165.084	79.998	19.995	103.245	20.002	2.384	0.507
174.000	166.079	79.995	19.995	103.263	20.002	2.377	0.521
176.000	167.095	80.000	19.993	103.260	20.001	2.455	0.482
178.000	168.058	79.999	19.995	103.258	20.001	2.495	0.509
180.000	168.994	79.997	19.995	103.247	20.006	2.140	0.476
182.000	169.984	79.998	19.995	103.260	20.000	2.539	0.499
184.000	171.017	80.001	19.995	103.246	20.004	2.257	0.520
186.000	171.942	80.001	19.994	103.258	20.002	2.396	0.502
188.000	172.939	80.001	19.995	103.240	20.005	2.198	0.498
190.000	173.915	80.001	19.995	103.234	20.003	2.339	0.517
192.000	174.915	79.998	19.994	103.234	20.006	2.147	0.507
194.000	175.878	80.001	19.995	103.230	20.005	2.228	0.499
196.000	176.807	80.001	19.995	103.234	20.006	2.132	0.483
198.000	177.778	80.000	19.996	103.227	20.008	2.002	0.483
200.000	178.757	79.996	19.995	103.227	20.009	1.956	0.475
202.000	179.771	79.998	19.997	103.228	20.009	1.938	0.505
204.000	180.703	80.002	19.997	103.232	20.009	1.953	0.468
206.000	181.667	80.002	19.996	103.231	20.010	1.868	0.460
208.000	182.681	79.995	19.997	103.234	20.009	1.949	0.490
210.000	183.642	80.003	19.995	103.224	20.006	2.160	0.507
211.999	184.615	80.003	19.995	103.229	20.014	1.613	0.498
213.999	185.633	80.005	19.995	103.229	20.008	2.009	0.528
215.999	186.663	80.003	19.995	103.228	20.012	1.740	0.521
217.999	187.662	80.001	19.994	103.224	20.013	1.698	0.538
219.999	188.638	80.002	19.995	103.226	20.016	1.465	0.546
221.999	189.562	79.999	19.996	103.229	20.013	1.657	0.479
224.000	190.585	79.998	19.995	103.226	20.016	1.432	0.478
225.999	191.568	79.998	19.995	103.227	20.017	1.390	0.530
228.000	192.588	79.998	19.996	103.219	20.016	1.456	0.494
229.999	193.587	80.002	19.996	103.228	20.015	1.555	0.513
232.000	194.552	80.001	19.996	103.228	20.016	1.467	0.466
233.999	195.554	80.000	19.995	103.223	20.015	1.547	0.488
235.999	196.514	79.998	19.996	103.223	20.014	1.628	0.459
237.999	197.514	79.999	19.997	103.228	20.016	1.489	0.514
239.999	198.491	80.002	19.995	103.229	20.019	1.292	0.479
241.999	199.493	80.003	19.995	103.228	20.017	1.415	0.511
243.999	200.514	80.006	19.994	103.231	20.017	1.384	0.497
246.000	201.494	80.002	19.994	103.221	20.021	1.146	0.521
247.999	202.459	79.985	19.997	103.225	20.019	1.235	0.465
249.999	203.492	80.001	19.995	103.219	20.023	0.990	0.511
251.999	204.503	80.003	19.994	103.223	20.018	1.325	0.503
253.999	205.479	80.004	19.994	103.207	20.018	1.316	0.493
256.000	206.437	79.999	19.995	103.208	20.019	1.252	0.503
258.000	207.486	79.999	19.994	103.205	20.019	1.281	0.492
260.000	208.506	80.026	19.991	103.213	20.016	1.454	0.533
262.000	209.488	80.006	19.993	103.229	20.015	1.558	0.495
264.000	210.485	79.997	19.995	103.209	20.017	1.377	0.471
266.000	211.474	80.002	19.995	103.194	20.018	1.336	0.506
268.000	212.486	79.998	19.996	103.222	20.018	1.316	0.471
270.000	213.469	79.993	19.997	103.207	20.019	1.279	0.497
272.000	214.521	79.998	19.996	103.203	20.018	1.362	0.497
274.000	215.501	80.002	19.995	103.209	20.019	1.287	0.500
276.000	216.476	80.000	19.995	103.206	20.019	1.289	0.519
278.000	217.447	79.995	19.995	103.194	20.021	1.098	0.487
280.000	218.484	79.994	19.994	103.197	20.022	1.057	0.521
282.000	219.481	79.993	19.994	103.197	20.021	1.145	0.497
284.000	220.482	80.000	19.994	103.200	20.019	1.268	0.496
286.000	221.505	80.002	19.994	103.203	20.022	1.034	0.507
288.000	222.452	80.005	19.995	103.205	20.020	1.195	0.473
290.000	223.451	80.001	19.994	103.195	20.026	0.772	0.500
292.000	224.483	80.005	19.995	103.187	20.026	0.823	0.488
294.000	225.495	80.003	19.994	103.194	20.024	0.902	0.556
296.000	226.447	80.013	19.993	103.195	20.018	1.332	0.501
298.000	227.409	80.003	19.995	103.194	20.023	0.968	0.498
300.000	228.463	80.002	19.995	103.191	20.022	1.034	0.525
302.000	229.448	80.004	19.994	103.191	20.025	0.869	0.512
304.000	230.445	79.997	19.995	103.189	20.023	0.990	0.535
306.000	231.440	79.995	19.996	103.189	20.026	0.786	0.485
308.000	232.378	80.001	19.995	103.181	20.022	1.063	0.495
310.000	233.348	79.998	19.996	103.181	20.022	1.046	0.515
312.000	234.336	80.002	19.995	103.186	20.026	0.808	0.494
314.000	235.312	80.000	19.995	103.182	20.026	0.784	0.474
316.000	236.243	80.006	19.993	103.174	20.029	0.616	0.461
318.000	237.226	80.001	19.996	103.189	20.025	0.825	0.487
320.000	238.221	80.014	19.996	103.192	20.026	0.814	0.496
322.000	239.163	80.000	19.995	103.199	20.026	0.779	0.465
324.000	240.144	80.017	19.993	103.201	20.024	0.898	0.482
326.000	241.121	79.994	19.997	103.189	20.025	0.885	0.530
328.000	242.151	80.008	19.994	103.180	20.023	0.979	0.493
330.000	243.108	80.001	19.997	103.192	20.022	1.076	0.480
332.000	244.113	79.997	19.995	103.185	20.024	0.907	0.516
334.000	245.098	80.002	19.995	103.188	20.022	1.032	0.517
336.000	246.098	80.001	19.995	103.189	20.024	0.933	0.501
338.000	247.103	80.001	19.995	103.186	20.021	1.129	0.494
340.000	248.135	80.001	19.994	103.199	20.022	1.065	0.522
342.000	249.129	80.000	19.994	103.191	20.021	1.153	0.501
344.000	250.175	79.997	19.996	103.190	20.022	1.045	0.511
346.000	251.203	80.003	19.994	103.188	20.023	1.015	0.507
348.000	252.249	80.003	19.994	103.187	20.024	0.898	0.521
350.000	253.247	79.996	19.995	103.181	20.020	1.166	0.524
352.000	254.237	79.999	19.995	103.191	20.024	0.940	0.500
354.000	255.254	80.002	19.995	103.183	20.021	1.120	0.514
356.000	256.239	79.996	19.994	103.180	20.021	1.125	0.521
358.000	257.283	80.001	19.994	103.188	20.028	0.671	0.522
360.000	258.312	80.002	19.993	103.188	20.021	1.125	0.511
362.000	259.297	79.999	19.994	103.189	20.021	1.103	0.509
364.000	260.309	79.997	19.996	103.188	20.023	1.019	0.498
366.000	261.314	79.997	19.993	103.188	20.026	0.795	0.504
368.000	262.310	80.000	19.994	103.192	20.028	0.629	0.496
370.000	263.323	80.004	19.993	103.186	20.024	0.946	0.532
372.000	264.347	80.012	19.994	103.183	20.025	0.847	0.552
374.000	265.360	79.997	19.994	103.181	20.020	1.166	0.494
376.000	266.339	80.005	19.994	103.181	20.024	0.949	0.502
378.000	267.350	80.005	19.994	103.181	20.024	0.927	0.498
380.000	268.350	79.996	19.996	103.187	20.024	0.955	0.515
382.000	269.356	80.005	19.995	103.178	20.028	0.654	0.514
384.000	270.392	80.001	19.995	103.179	20.024	0.953	0.516
386.000	271.350	79.994	19.999	103.181	20.025	0.889	0.493
388.000	272.400	79.993	19.996	103.181	20.025	0.889	0.497
390.000	273.389	79.997	19.995	103.181	20.025	0.874	0.494
392.000	274.406	80.006	19.995	103.183	20.027	0.696	0.544
394.000	275.422	80.002	19.995	103.189	20.027	0.707	0.502
396.000	276.405	80.024	19.992	103.185	20.026	0.792	0.490
398.000	277.415	79.976	19.999	103.180	20.027	0.704	0.499
400.000	278.391	79.997	19.997	103.180	20.029	0.618	0.520
402.000	279.385	80.008	19.995	103.183	20.021	1.121	0.511
404.000	280.410	80.006	19.995	103.179	20.027	0.700	0.505
406.000	281.394	79.990	19.997	103.182	20.024	0.946	0.479
408.000	282.399	79.992	19.996	103.184	20.028	0.667	0.502
410.000	283.376	79.991	19.996	103.179	20.026	0.779	0.498
412.000	284.354	79.997	19.997	103.176	20.029	0.585	0.488
414.000	285.367	79.998	19.997	103.183	20.025	0.832	0.464
416.000	286.397	79.993	19.996	103.188	20.027	0.728	0.514
418.000	287.422	80.012	19.997	103.192	20.030	0.513	0.493
420.000	288.456	79.999	19.996	103.185	20.027	0.696	0.518
422.000	289.464	80.009	19.994	103.173	20.022	1.033	0.493
424.000	290.472	79.988	19.997	103.174	20.026	0.768	0.534
426.000	291.540	80.017	19.993	103.179	20.026	0.802	0.541
428.000	292.540	79.997	19.996	103.186	20.023	1.011	0.491
430.000	293.555	79.999	19.995	103.182	20.027	0.702	0.486
432.000	294.660	80.013	19.991	103.169	20.028	0.674	0.566
434.000	295.642	79.997	19.997	103.180	20.025	0.889	0.508
436.000	296.681	79.993	19.996	103.172	20.023	0.958	0.514
438.000	297.741	79.998	19.993	103.156	20.026	0.808	0.510
440.000	298.704	79.995	19.997	103.157	20.029	0.566	0.446
442.000	299.756	79.994	19.994	103.147	20.025	0.881	0.491
444.000	300.788	79.995	19.996	103.175	20.026	0.768	0.511
446.000	301.788	80.004	19.995	103.166	20.027	0.755	0.507
448.000	302.823	79.985	19.997	103.165	20.025	0.830	0.500
450.000	303.854	80.001	19.995	103.164	20.027	0.704	0.522
452.000	304.899	80.009	19.992	103.167	20.024	0.949	0.545
454.000	305.882	80.008	19.996	103.183	20.024	0.916	0.486
456.000	306.915	80.003	19.995	103.159	20.026	0.790	0.483
458.000	307.923	80.003	19.994	103.164	20.026	0.770	0.503
460.000	308.933	80.014	19.994	103.169	20.027	0.689	0.518
462.000	309.917	80.004	19.996	103.163	20.028	0.663	0.485
464.000	310.945	80.021	20.000	103.174	20.025	0.848	0.518
466.000	311.961	79.999	19.994	103.169	20.029	0.594	0.520
468.000	312.973	80.002	19.996	103.160	20.028	0.658	0.495
470.000	313.984	80.003	19.993	103.165	20.027	0.722	0.477
472.000	314.982	80.006	19.996	103.169	20.027	0.700	0.482
474.000	315.981	79.999	19.995	103.157	20.029	0.614	0.513
476.000	316.910	79.998	19.996	103.161	20.024	0.923	0.461
478.000	317.965	79.988	19.996	103.152	20.028	0.665	0.497
480.000	318.916	80.008	19.994	103.156	20.028	0.676	0.476
482.000	319.906	80.011	19.995	103.172	20.030	0.520	0.488
484.000	320.900	79.996	19.995	103.169	20.028	0.658	0.500
486.000	321.888	79.988	19.997	103.157	20.029	0.594	0.471
488.000	322.860	80.000	19.995	103.168	20.026	0.779	0.504
490.000	323.852	79.990	19.994	103.168	20.025	0.832	0.477
492.000	324.814	80.003	19.995	103.166	20.028	0.672	0.486
494.000	325.826	80.017	19.993	103.153	20.025	0.828	0.496
496.000	326.841	80.004	19.994	103.171	20.025	0.879	0.525
498.000	327.812	80.004	19.994	103.180	20.025	0.828	0.483
500.000	328.773	80.001	19.996	103.166	20.030	0.542	0.474
502.000	329.778	79.991	19.998	103.157	20.026	0.773	0.524
504.000	330.812	79.989	19.997	103.147	20.028	0.660	0.537
506.000	331.744	80.004	19.995	103.146	20.024	0.916	0.512
508.000	332.707	80.010	19.995	103.150	20.028	0.630	0.503
510.000	333.742	79.997	19.996	103.157	20.026	0.810	0.501
512.000	334.762	80.005	19.996	103.153	20.026	0.801	0.477
514.000	335.788	80.010	19.994	103.148	20.023	0.967	0.513
516.000	336.752	80.001	19.994	103.168	20.026	0.766	0.507
518.000	337.742	79.996	19.995	103.176	20.024	0.955	0.516
520.000	338.735	79.994	19.996	103.166	20.025	0.881	0.476
522.000	339.797	80.010	19.994	103.160	20.024	0.903	0.523
524.000	340.756	80.003	19.995	103.148	20.026	0.782	0.528
526.000	341.756	79.994	19.995	103.162	20.022	1.046	0.477
528.000	342.746	80.001	19.995	103.167	20.025	0.830	0.486
530.000	343.807	80.013	19.992	103.153	20.027	0.691	0.556
532.000	344.797	80.006	19.994	103.165	20.026	0.771	0.525
534.000	345.798	79.996	19.996	103.165	20.027	0.748	0.508
536.000	346.850	79.997	19.994	103.176	20.026	0.799	0.521
538.000	347.860	80.016	19.993	103.164	20.025	0.861	0.514
540.000	348.916	80.003	19.994	103.172	20.026	0.788	0.529
542.000	349.953	79.988	19.996	103.156	20.026	0.795	0.538
544.000	350.983	80.017	19.992	103.161	20.024	0.918	0.484
546.000	352.022	79.997	19.996	103.159	20.027	0.726	0.514
548.000	353.090	79.997	19.995	103.147	20.025	0.850	0.524
550.000	354.132	80.000	19.995	103.158	20.028	0.639	0.549
552.000	355.150	79.989	19.995	103.156	20.029	0.605	0.494
554.000	356.215	80.005	19.992	103.151	20.026	0.766	0.531
556.000	357.212	80.006	19.992	103.165	20.026	0.775	0.505
558.000	358.246	79.998	19.995	103.155	20.028	0.685	0.521
560.000	359.239	80.002	19.994	103.147	20.028	0.645	0.529
562.000	360.253	80.008	19.994	103.150	20.027	0.738	0.511
564.000	361.281	80.007	19.993	103.151	20.028	0.627	0.504
566.000	362.290	80.003	19.995	103.159	20.028	0.680	0.500
568.000	363.278	79.991	19.996	103.145	20.029	0.570	0.492
570.000	364.276	80.003	19.995	103.139	20.025	0.828	0.515
572.000	365.313	80.000	19.995	103.155	20.028	0.647	0.520
574.000	366.328	80.002	19.996	103.158	20.027	0.696	0.507
576.000	367.311	80.010	19.993	103.150	20.027	0.689	0.496
578.000	368.333	80.000	19.996	103.146	20.027	0.718	0.513
580.000	369.345	79.999	19.996	103.156	20.029	0.570	0.508
582.000	370.347	79.998	19.998	103.149	20.029	0.605	0.498
584.000	371.313	79.982	19.998	103.160	20.027	0.720	0.477
586.000	372.335	79.991	19.995	103.148	20.026	0.797	0.485
588.000	373.352	79.995	19.995	103.147	20.028	0.660	0.511
590.000	374.344	80.002	19.994	103.153	20.028	0.672	0.521
592.000	375.305	80.003	19.996	103.147	20.028	0.623	0.457
594.000	376.292	80.005	19.996	103.141	20.023	0.969	0.470
596.000	377.267	80.014	19.996	103.143	20.027	0.749	0.487
598.000	378.224	79.998	19.997	103.154	20.029	0.572	0.498
600.000	379.212	79.993	19.995	103.154	20.025	0.845	0.472
602.000	380.197	80.016	19.993	103.150	20.027	0.731	0.511
604.000	381.159	79.998	19.995	103.155	20.026	0.815	0.469
606.000	382.161	80.005	19.994	103.146	20.026	0.786	0.497
608.000	383.075	79.986	19.996	103.150	20.023	1.017	0.458
610.000	384.027	80.001	19.994	103.141	20.023	1.013	0.476
612.000	385.037	80.002	19.994	103.149	20.024	0.921	0.480
614.000	385.993	79.992	19.995	103.151	20.024	0.931	0.469
616.000	387.018	80.004	19.994	103.154	20.020	1.174	0.519
618.000	387.912	80.000	19.993	103.154	20.021	1.158	0.467
620.000	388.913	79.997	19.995	103.150	20.022	1.061	0.504
622.000	389.873	79.997	19.995	103.149	20.022	1.092	0.471
624.000	390.868	80.010	19.994	103.151	20.024	0.909	0.496
626.000	391.826	80.008	19.993	103.152	20.022	1.026	0.503
628.000	392.813	79.990	19.996	103.145	20.025	0.883	0.497
630.000	393.788	80.000	19.995	103.141	20.023	1.020	0.471
632.000	394.814	79.998	19.997	103.147	20.022	1.039	0.449
634.000	395.820	80.011	19.994	103.141	20.022	1.037	0.502
636.000	396.826	79.997	19.994	103.152	20.024	0.909	0.489
638.000	397.854	80.006	19.993	103.140	20.022	1.083	0.501
640.000	398.875	79.993	19.995	103.151	20.026	0.802	0.529
642.000	399.921	79.989	19.996	103.155	20.024	0.925	0.494
644.000	400.921	79.988	19.995	103.156	20.024	0.921	0.512
646.000	401.932	79.977	19.996	103.147	20.024	0.918	0.509
648.000	402.969	79.993	19.997	103.147	20.019	1.231	0.549
650.000	403.991	79.994	19.997	103.143	20.021	1.114	0.501
652.000	404.982	79.993	19.996	103.147	20.023	1.002	0.512
654.000	406.038	79.993	19.996	103.144	20.022	1.090	0.522
656.000	407.053	80.005	19.995	103.148	20.027	0.746	0.521
658.000	408.040	79.995	19.995	103.151	20.025	0.843	0.498
660.000	409.005	79.998	19.996	103.149	20.025	0.826	0.457
662.000	410.000	79.998	19.995	103.140	20.024	0.905	0.486
664.000	411.019	80.009	19.993	103.140	20.027	0.749	0.494
666.000	411.972	80.009	19.994	103.137	20.025	0.857	0.488
668.000	412.993	79.997	19.996	103.154	20.027	0.713	0.480
670.000	413.963	80.005	19.996	103.154	20.026	0.777	0.490
672.000	414.938	80.010	19.994	103.149	20.026	0.813	0.499
674.000	415.921	80.002	19.995	103.160	20.026	0.773	0.483
676.000	416.954	80.000	19.995	103.148	20.022	1.043	0.514
678.000	417.983	79.999	19.994	103.172	20.024	0.934	0.502
680.000	418.989	80.002	19.994	103.165	20.022	1.033	0.508
682.000	420.065	80.001	19.995	103.152	20.023	0.958	0.501
684.000	421.102	79.992	19.997	103.159	20.023	0.982	0.529
686.000	422.164	79.999	19.995	103.159	20.026	0.774	0.526
688.000	423.231	80.006	19.994	103.153	20.024	0.921	0.531
690.000	424.250	79.994	19.996	103.150	20.021	1.114	0.527
692.000	425.333	80.015	19.994	103.147	20.026	0.819	0.531
694.000	426.360	80.010	19.993	103.147	20.024	0.918	0.498
696.000	427.450	79.999	19.996	103.100	20.025	0.872	0.533
698.000	428.503	80.008	19.992	103.094	20.022	1.066	0.521
700.000	429.578	80.003	19.994	103.144	20.021	1.143	0.544
702.000	430.631	80.005	19.993	103.152	20.026	0.806	0.559
704.000	431.649	79.999	19.993	103.211	20.025	0.850	0.491
706.000	432.740	80.005	19.995	103.144	20.024	0.916	0.494
708.000	433.787	80.014	19.994	103.143	20.024	0.903	0.525
710.000	434.858	80.009	19.994	103.150	20.027	0.722	0.532
712.000	435.867	79.999	19.993	103.145	20.026	0.782	0.521
714.000	436.870	79.988	19.996	103.139	20.022	1.085	0.483
716.000	437.881	79.990	19.996	103.135	20.022	1.085	0.498
718.000	438.954	80.009	19.994	103.144	20.021	1.156	0.511
720.000	439.967	79.996	19.996	103.146	20.021	1.097	0.533
722.000	440.988	79.991	19.995	103.153	20.022	1.046	0.516
724.000	442.011	79.998	19.994	103.159	20.022	1.055	0.503
726.000	443.066	79.996	19.995	103.151	20.024	0.956	0.500
728.000	444.130	79.998	19.994	103.146	20.021	1.134	0.500
730.000	445.136	79.992	19.995	103.143	20.020	1.207	0.534
732.000	446.170	80.008	19.994	103.145	20.021	1.097	0.484
734.000	447.245	80.006	19.995	103.143	20.020	1.182	0.579
736.000	448.304	80.006	19.994	103.134	20.018	1.317	0.539
738.000	449.396	80.005	19.993	103.098	20.019	1.292	0.512
740.000	450.430	80.008	19.993	103.144	20.019	1.264	0.513
742.000	451.535	79.997	19.993	103.140	20.020	1.189	0.580
744.000	452.545	79.998	19.994	103.188	20.024	0.947	0.529
746.000	453.668	79.996	19.994	103.206	20.022	1.084	0.541
748.000	454.717	79.994	19.995	103.151	20.022	1.050	0.515
750.000	455.791	80.012	19.993	103.148	20.023	0.982	0.510
752.000	456.876	80.002	19.994	103.147	20.021	1.145	0.529
754.000	458.002	79.995	19.995	103.148	20.020	1.207	0.535
756.000	459.014	80.002	19.998	103.139	20.020	1.198	0.524
758.000	460.088	80.012	19.995	103.134	20.020	1.172	0.533
760.000	461.183	80.003	19.993	103.147	20.023	0.980	0.573
762.000	462.232	80.003	19.996	103.152	20.027	0.724	0.547
764.000	463.303	80.006	19.996	103.151	20.024	0.899	0.522
766.000	464.351	80.006	19.994	103.145	20.021	1.150	0.522
768.000	465.412	79.998	19.994	103.139	20.025	0.837	0.505
770.000	466.449	79.996	19.995	103.135	20.024	0.949	0.536
772.000	467.521	80.001	19.997	103.139	20.021	1.099	0.512
774.000	468.580	80.008	19.995	103.142	20.023	0.962	0.513
776.000	469.629	79.997	19.996	103.147	20.025	0.859	0.530
778.000	470.738	80.001	19.994	103.135	20.024	0.903	0.575
780.000	471.740	79.990	19.999	103.140	20.023	0.995	0.494
782.000	472.816	80.008	19.992	103.136	20.019	1.253	0.523
784.000	473.851	79.985	19.999	103.143	20.019	1.255	0.517
786.000	474.916	80.012	19.993	103.134	20.021	1.149	0.527
788.000	475.932	80.011	19.995	103.143	20.022	1.050	0.525
790.000	476.984	80.002	19.995	103.151	20.025	0.835	0.499
792.000	477.981	79.989	19.996	103.151	20.023	0.991	0.493
794.000	479.053	79.991	19.992	103.143	20.026	0.821	0.536
796.000	480.082	79.991	19.992	103.146	20.024	0.905	0.516
798.000	481.065	79.993	19.994	103.150	20.026	0.817	0.500
800.000	482.075	80.005	19.995	103.137	20.024	0.943	0.502
802.000	483.075	79.994	19.995	103.137	20.024	0.896	0.492
804.000	484.078	80.012	19.993	103.147	20.025	0.824	0.474
806.000	485.147	80.009	19.993	103.149	20.018	1.310	0.532
808.000	486.100	80.003	19.995	103.142	20.021	1.145	0.505
810.000	487.139	79.999	19.995	103.145	20.023	1.006	0.494
812.000	488.078	79.992	20.001	103.139	20.028	0.678	0.507
814.000	489.153	79.995	19.993	103.125	20.022	1.079	0.496
816.000	490.134	79.998	19.994	103.131	20.028	0.658	0.527
818.000	491.115	80.005	19.996	103.140	20.022	1.059	0.490
820.000	492.055	79.982	19.994	103.132	20.019	1.257	0.509
822.000	493.075	80.000	19.989	103.136	20.021	1.117	0.516
824.000	494.084	80.000	19.994	103.137	20.019	1.280	0.484
826.000	495.068	80.003	19.993	103.143	20.022	1.037	0.470
828.000	496.053	80.002	19.994	103.145	20.021	1.095	0.506
830.000	497.065	79.994	19.997	103.140	20.021	1.097	0.484
832.000	498.072	80.009	19.990	103.138	20.022	1.026	0.534
834.000	498.930	79.999	19.994	103.136	20.022	1.057	0.448
836.000	499.943	80.001	19.993	103.129	20.024	0.925	0.519
838.000	500.882	80.000	19.996	103.136	20.025	0.887	0.462
840.000	501.925	80.009	19.992	103.121	20.015	1.539	0.488
842.000	502.920	80.003	19.994	103.129	20.020	1.202	0.505
844.000	503.816	80.006	19.998	103.123	20.021	1.125	0.442
846.000	504.807	80.006	19.996	103.115	20.017	1.385	0.417
848.000	505.812	80.002	19.994	103.137	20.021	1.147	0.510
850.000	506.796	80.000	19.995	103.140	20.023	1.013	0.395
852.000	507.891	80.005	19.996	103.146	20.025	0.866	0.515
854.000	508.708	80.001	19.995	103.134	20.026	0.760	0.596
856.000	510.002	79.977	19.998	103.145	20.019	1.242	0.306
858.000	511.093	79.991	19.996	103.130	20.022	1.048	0.556
860.000	511.823	79.999	19.993	103.148	20.022	1.055	0.594
862.000	512.790	79.998	19.995	103.146	20.023	0.971	0.600
864.000	513.781	80.001	19.993	103.141	20.021	1.125	0.472
866.000	514.879	80.005	19.994	103.133	20.025	0.837	0.428
868.000	515.899	80.008	19.994	103.129	20.024	0.910	0.555
870.000	516.914	79.996	19.995	103.122	20.027	0.725	0.556
872.000	517.888	79.999	20.001	103.144	20.024	0.943	0.478
874.000	518.851	79.997	19.997	103.133	20.025	0.833	0.465
876.000	519.885	79.999	19.997	103.118	20.022	1.048	0.483
878.000	520.920	79.998	19.996	103.114	20.025	0.872	0.522
880.000	521.908	80.004	19.993	103.127	20.024	0.899	0.524
882.000	522.917	79.998	19.993	103.119	20.024	0.945	0.511
884.000	523.808	79.996	20.000	103.137	20.021	1.112	0.452
886.000	524.906	79.997	19.997	103.123	20.023	1.013	0.537
888.000	525.834	80.003	19.995	103.122	20.022	1.035	0.482
890.000	526.820	80.000	19.995	103.121	20.025	0.839	0.469
892.000	527.800	80.001	19.996	103.133	20.024	0.932	0.483
894.000	528.786	79.999	19.997	103.122	20.022	1.066	0.490
896.000	529.729	79.999	19.999	103.127	20.024	0.919	0.498
898.000	530.698	80.000	19.995	103.134	20.022	1.048	0.505
900.000	531.733	79.997	20.000	103.136	20.022	1.088	0.501
902.000	532.748	80.002	19.996	103.133	20.022	1.051	0.494
904.000	533.701	79.998	19.996	103.136	20.022	1.086	0.500
906.000	534.740	79.990	19.995	103.130	20.022	1.072	0.531
908.000	535.713	79.996	19.996	103.138	20.023	0.985	0.502
910.000	536.723	80.001	19.994	103.133	20.021	1.124	0.496
912.000	537.737	79.999	19.993	103.128	20.022	1.048	0.526
914.000	538.724	80.004	19.999	103.128	20.018	1.302	0.499
916.000	539.699	80.006	19.993	103.139	20.019	1.286	0.504
918.000	540.673	79.991	19.998	103.138	20.017	1.399	0.470
920.000	541.671	79.996	19.995	103.124	20.017	1.420	0.500
922.000	542.659	80.007	19.993	103.130	20.017	1.403	0.488
924.000	543.672	79.999	19.999	103.153	20.020	1.194	0.514
926.000	544.671	80.003	19.996	103.137	20.020	1.224	0.515
928.000	545.660	79.999	20.002	103.141	20.019	1.268	0.484
930.000	546.691	80.007	19.995	103.139	20.016	1.454	0.514
932.000	547.764	80.011	19.993	103.147	20.020	1.163	0.509
934.000	548.760	79.998	19.997	103.148	20.019	1.238	0.501
936.000	549.801	79.996	19.991	103.141	20.016	1.471	0.524
938.000	550.840	80.000	19.995	103.146	20.016	1.447	0.495
940.000	551.906	80.010	19.996	103.127	20.019	1.286	0.534
942.000	552.901	80.006	19.995	103.124	20.019	1.233	0.483
944.000	553.955	79.994	19.996	103.126	20.023	0.985	0.529
946.000	555.015	79.998	19.994	103.124	20.022	1.082	0.522
948.000	556.047	80.004	19.995	103.116	20.019	1.247	0.501
950.000	557.019	80.014	19.996	103.123	20.017	1.387	0.476
952.000	558.094	79.998	19.992	103.135	20.022	1.090	0.529
954.000	559.106	80.006	19.992	103.128	20.017	1.392	0.507
956.000	560.128	80.002	19.993	103.132	20.019	1.262	0.508
958.000	561.173	80.002	19.993	103.119	20.019	1.255	0.488
960.000	562.245	79.995	19.995	103.134	20.020	1.163	0.540
962.000	563.211	79.998	20.000	103.136	20.018	1.315	0.510
964.000	564.203	79.999	19.996	103.142	20.020	1.225	0.494
966.000	565.209	79.995	20.000	103.135	20.018	1.313	0.474
968.000	566.230	79.999	19.996	103.125	20.018	1.330	0.476
970.000	567.282	80.001	19.996	103.138	20.021	1.152	0.529
972.000	568.294	80.007	19.990	103.130	20.021	1.160	0.526
974.000	569.284	79.995	19.998	103.124	20.021	1.152	0.487
976.000	570.299	79.995	19.999	103.113	20.018	1.315	0.495
978.000	571.343	79.999	19.995	103.121	20.021	1.099	0.509
980.000	572.310	80.000	19.997	103.134	20.022	1.042	0.493
982.000	573.364	79.998	19.995	103.144	20.022	1.068	0.539
984.000	574.440	80.005	19.997	103.126	20.020	1.192	0.519
986.000	575.490	80.004	19.995	103.135	20.019	1.234	0.507
988.000	576.534	79.998	19.996	103.125	20.016	1.475	0.526
990.000	577.475	80.000	19.996	103.118	20.018	1.341	0.490
992.000	578.550	80.003	19.994	103.119	20.016	1.469	0.504
994.000	579.530	80.009	19.993	103.136	20.019	1.247	0.510
996.000	580.531	79.994	19.994	103.128	20.018	1.304	0.481
998.000	581.571	80.002	19.995	103.131	20.019	1.249	0.488
1000.000	582.540	80.018	19.995	103.144	20.019	1.253	0.507
1002.000	583.513	79.997	19.996	103.132	20.021	1.104	0.507
1004.000	584.560	79.999	19.993	103.135	20.018	1.326	0.516
1006.000	585.549	80.005	19.995	103.142	20.024	0.953	0.499
1008.000	586.550	80.000	19.995	103.118	20.022	1.044	0.491
1010.000	587.542	79.997	19.994	103.137	20.018	1.313	0.472
1012.000	588.600	79.996	19.994	103.130	20.018	1.356	0.514
1014.000	589.575	79.995	19.994	103.119	20.018	1.319	0.500
1016.000	590.625	79.997	19.997	103.127	20.020	1.213	0.511
1018.000	591.647	80.005	19.992	103.133	20.018	1.344	0.483
1020.000	592.690	80.000	20.000	103.132	20.020	1.203	0.520
1022.000	593.709	80.001	19.990	103.143	20.017	1.363	0.515
1024.000	594.743	80.003	19.995	103.127	20.017	1.381	0.541
1025.999	595.736	79.996	19.995	103.133	20.018	1.312	0.519
1027.999	596.768	80.005	19.997	103.131	20.020	1.222	0.513
1029.999	597.806	79.997	19.995	103.124	20.023	1.022	0.515
1031.999	598.784	79.995	19.994	103.138	20.019	1.255	0.483
1034.001	599.835	80.000	19.999	103.143	20.020	1.161	0.525
1035.999	600.837	80.010	19.993	103.143	20.021	1.123	0.505
1037.999	601.873	79.996	19.996	103.147	20.021	1.152	0.549
1039.999	602.929	79.987	19.995	103.140	20.019	1.251	0.499
1041.999	604.002	79.997	19.994	103.132	20.023	0.980	0.535
1044.000	605.013	79.996	19.997	103.147	20.020	1.198	0.527
1045.999	606.039	79.997	19.993	103.146	20.024	0.956	0.507
1047.999	607.093	80.000	19.997	103.148	20.023	0.965	0.541
1049.999	608.138	80.007	19.993	103.140	20.019	1.271	0.572
1051.999	609.157	80.002	19.995	103.144	20.021	1.121	0.548
1053.999	610.226	79.999	19.998	103.125	20.019	1.249	0.498
1055.999	611.269	79.997	19.997	103.117	20.022	1.060	0.520
1057.999	612.318	80.000	19.996	103.140	20.019	1.264	0.496
1059.999	613.376	80.003	19.995	103.141	20.020	1.168	0.586
1061.999	614.416	79.997	19.995	103.135	20.018	1.313	0.524
1063.999	615.424	79.998	19.993	103.128	20.020	1.214	0.510
1065.999	616.443	80.003	19.998	103.122	20.022	1.069	0.512
1067.999	617.498	79.999	19.996	103.124	20.021	1.145	0.512
1069.999	618.496	80.002	19.993	103.119	20.023	0.987	0.478
1071.999	619.556	79.998	19.996	103.114	20.020	1.203	0.519
1073.999	620.584	80.000	19.995	103.113	20.021	1.104	0.536
1075.999	621.661	79.994	19.992	103.110	20.020	1.199	0.556
1077.999	622.679	80.002	19.994	103.114	20.019	1.258	0.547
1079.999	623.686	80.004	19.994	103.115	20.018	1.339	0.504
1082.000	624.747	79.999	19.998	103.119	20.016	1.432	0.531
1084.000	625.743	79.996	20.001	103.122	20.019	1.234	0.511
1086.000	626.728	80.000	19.997	103.124	20.020	1.200	0.483
1088.000	627.779	80.001	19.996	103.110	20.020	1.200	0.492
1090.000	628.818	80.001	19.995	103.109	20.017	1.408	0.534
1091.999	629.798	79.999	19.995	103.119	20.019	1.288	0.492
1093.999	630.804	80.002	19.996	103.109	20.018	1.355	0.489
1095.999	631.808	80.002	19.995	103.124	20.017	1.416	0.484
1097.999	632.834	80.006	19.993	103.118	20.018	1.302	0.510
1099.999	633.824	80.003	19.993	103.110	20.017	1.392	0.494
1101.999	634.866	80.003	19.994	103.120	20.020	1.205	0.521
1103.999	635.864	80.003	19.993	103.119	20.017	1.407	0.544
1105.999	636.876	80.004	19.992	103.118	20.018	1.311	0.503
1107.999	637.904	80.003	19.994	103.124	20.017	1.396	0.517
1109.999	638.890	80.001	19.993	103.120	20.019	1.251	0.509
1112.000	639.912	79.996	20.001	103.121	20.018	1.315	0.512
1113.999	640.932	80.001	19.994	103.123	20.020	1.218	0.549
1115.999	641.930	79.996	19.997	103.114	20.018	1.352	0.489
1117.999	642.917	79.996	20.000	103.112	20.020	1.200	0.481
1119.999	643.920	80.000	20.000	103.122	20.017	1.386	0.499
1121.999	644.918	79.997	19.996	103.114	20.020	1.187	0.478
1124.000	645.942	80.002	19.994	103.120	20.020	1.176	0.537
1126.000	646.951	79.999	19.996	103.117	20.016	1.491	0.509
1128.000	647.916	79.998	19.996	103.130	20.017	1.383	0.498
1129.999	648.934	79.999	19.995	103.131	20.016	1.450	0.478
1132.000	649.929	80.000	19.994	103.125	20.017	1.381	0.493
1133.999	650.966	80.001	19.995	103.124	20.017	1.406	0.507
1135.999	651.953	79.999	19.992	103.112	20.014	1.575	0.500
1137.999	652.983	80.003	19.993	103.109	20.017	1.370	0.548
1139.999	653.965	79.991	19.996	103.116	20.016	1.476	0.518
1142.000	654.972	79.993	19.995	103.106	20.021	1.132	0.510
1143.999	655.948	79.997	19.993	103.106	20.015	1.546	0.491
1146.000	656.968	80.006	19.993	103.111	20.015	1.500	0.481
1148.000	657.979	79.999	19.997	103.119	20.015	1.502	0.523
1150.000	658.993	79.998	19.996	103.112	20.020	1.223	0.512
1152.000	660.014	80.000	19.995	103.115	20.016	1.449	0.528
1154.000	661.004	80.002	19.996	103.112	20.015	1.505	0.531
1156.000	662.035	80.000	19.995	103.112	20.019	1.286	0.496
1158.000	663.057	80.001	19.994	103.111	20.014	1.592	0.509
1160.000	664.098	80.002	19.994	103.110	20.017	1.390	0.506
1162.000	665.079	80.000	19.994	103.113	20.009	1.932	0.480
1164.000	666.104	80.001	19.994	103.117	20.015	1.559	0.517
1166.000	667.155	79.998	19.994	103.120	20.019	1.282	0.535
1168.000	668.146	79.998	19.995	103.112	20.019	1.276	0.491
1170.000	669.141	80.003	19.994	103.121	20.019	1.236	0.483
1172.000	670.190	80.001	19.995	103.112	20.020	1.183	0.497
1174.000	671.216	79.999	19.996	103.117	20.018	1.298	0.527
1176.000	671.977	80.002	19.995	103.110	20.020	1.222	0.396
1178.000	673.243	79.997	19.999	103.112	20.017	1.366	0.459
1180.000	674.323	80.007	19.995	103.113	20.017	1.388	0.548
1182.000	675.374	80.004	19.993	103.119	20.018	1.346	0.498
1184.000	676.412	80.004	19.993	103.113	20.018	1.313	0.529
1186.000	677.407	79.999	20.001	103.120	20.018	1.341	0.493
1188.000	678.392	80.002	19.998	103.111	20.018	1.350	0.460
1190.000	679.401	80.002	19.992	103.126	20.017	1.397	0.520
1192.000	680.420	79.997	19.997	103.112	20.014	1.569	0.494
1194.000	681.446	79.999	19.994	103.110	20.016	1.432	0.510
1196.000	682.459	80.007	19.992	103.112	20.018	1.324	0.521
1198.000	683.464	80.003	19.992	103.113	20.017	1.405	0.519
1200.000	684.458	79.998	19.997	103.112	20.018	1.311	0.506
1202.000	685.465	80.002	19.993	103.107	20.016	1.474	0.530
1204.000	686.433	80.000	19.995	103.107	20.021	1.146	0.494
1206.000	687.425	79.997	19.994	103.112	20.018	1.341	0.496
1208.000	688.484	80.001	19.993	103.110	20.018	1.295	0.528
1210.000	689.446	79.999	19.997	103.109	20.018	1.333	0.500
1212.000	690.466	80.000	19.995	103.109	20.017	1.388	0.486
1214.000	691.476	80.002	19.992	103.105	20.015	1.513	0.480
1216.000	692.446	80.000	19.992	103.108	20.014	1.619	0.486
1218.000	693.492	80.000	19.993	103.121	20.015	1.516	0.536
1220.000	694.512	79.999	19.995	103.126	20.015	1.505	0.488
1222.000	695.549	80.002	19.996	103.115	20.014	1.591	0.524
1224.000	696.582	80.000	19.994	103.112	20.013	1.650	0.535
1226.000	697.547	80.000	19.992	103.111	20.019	1.289	0.497
1228.000	698.563	79.999	19.996	103.112	20.017	1.416	0.507
1230.000	699.543	80.001	19.996	103.115	20.015	1.514	0.495
1232.000	700.574	79.995	19.999	103.113	20.014	1.586	0.474
1234.000	701.564	80.000	19.996	103.117	20.011	1.791	0.504
1236.000	702.563	80.000	19.991	103.111	20.013	1.696	0.526
1238.000	703.563	80.005	19.990	103.113	20.012	1.760	0.484
1240.000	704.564	80.000	19.998	103.112	20.013	1.634	0.492
1242.000	705.545	80.001	19.995	103.110	20.012	1.755	0.510
1244.000	706.521	80.002	19.996	103.110	20.013	1.643	0.504
1246.000	707.529	80.000	19.994	103.123	20.014	1.619	0.521
1248.000	708.486	80.001	19.993	103.124	20.011	1.795	0.453
1250.000	709.554	80.000	19.996	103.130	20.014	1.564	0.524
1252.000	710.543	80.002	19.995	103.128	20.012	1.705	0.495
1254.000	711.521	80.001	19.994	103.107	20.013	1.654	0.479
1256.000	712.558	79.999	19.994	103.118	20.012	1.712	0.512
1258.000	713.573	80.006	19.992	103.126	20.011	1.774	0.498
1260.000	714.576	80.003	19.997	103.110	20.010	1.850	0.489
1262.000	715.574	80.004	19.994	103.111	20.011	1.784	0.528
1264.000	716.620	80.002	19.995	103.112	20.011	1.829	0.507
1266.000	717.620	79.999	19.996	103.108	20.013	1.689	0.494
1268.000	718.614	80.001	19.995	103.105	20.008	1.996	0.492
1270.000	719.591	79.998	19.993	103.107	20.009	1.901	0.481
1272.000	720.581	80.002	19.994	103.107	20.010	1.899	0.497
1274.000	721.567	80.002	19.995	103.108	20.008	1.982	0.492
1276.000	722.585	79.998	19.994	103.108	20.005	2.207	0.515
1278.000	723.545	80.001	19.998	103.121	20.005	2.211	0.487
1280.000	724.589	79.999	19.995	103.122	20.008	2.005	0.535
1282.000	725.569	80.001	19.994	103.110	20.005	2.227	0.521
1284.001	726.587	79.999	19.997	103.110	20.007	2.068	0.503
1286.000	727.593	80.000	19.993	103.127	20.009	1.930	0.538
1288.000	728.583	80.000	19.993	103.121	20.009	1.912	0.487
1290.000	729.579	80.002	19.992	103.120	20.012	1.720	0.491
1292.000	730.613	79.995	19.995	103.115	20.013	1.663	0.523
1294.000	731.633	80.000	19.994	103.108	20.011	1.773	0.508
1296.000	732.647	79.996	19.991	103.114	20.013	1.646	0.519
1298.000	733.663	79.998	19.996	103.117	20.009	1.906	0.509
1300.000	734.689	79.999	19.996	103.111	20.005	2.185	0.504
1302.000	735.648	79.994	19.997	103.106	20.007	2.036	0.473
1304.000	736.650	79.998	19.997	103.112	20.008	2.033	0.475
1306.000	737.699	80.000	19.996	103.116	20.009	1.927	0.511
1308.000	738.671	80.000	19.994	103.108	20.012	1.760	0.489
1310.000	739.664	80.000	19.998	103.110	20.009	1.923	0.483
1312.000	740.669	79.997	19.994	103.112	20.010	1.837	0.501
1314.000	741.639	79.999	19.996	103.116	20.008	1.974	0.498
1316.000	742.629	80.004	19.995	103.115	20.009	1.928	0.482
1318.000	743.651	80.000	19.997	103.114	20.010	1.862	0.496