File: 01_Data/Oak_Flooring/STA/N2/30K_min/Oak_Flooring_STA_N2_30KData_211209_R3.csv
Temp/C,Time/min,DSC/mW,Mass loss/mg,Sensit./(uV/mW)
50,10.7141,0.365879,-0.0435682,1.0695
50.6,10.7872,0.460182,-0.0436305,1.06945
51.2,10.8489,0.537433,-0.0446608,1.06939
51.8,10.9044,0.627588,-0.0439719,1.06934
52.4,10.9539,0.704142,-0.0445173,1.06928
53,10.9998,0.770448,-0.0455625,1.06922
53.6,11.0422,0.831512,-0.0445937,1.06916
54.2,11.0825,0.889587,-0.0454759,1.0691
54.8,11.1206,0.957436,-0.047265,1.06904
55.4,11.1572,1.01487,-0.0470647,1.06897
56,11.1924,1.07519,-0.0455776,1.06891
56.6,11.2261,1.12489,-0.0452267,1.06885
57.2,11.2587,1.17859,-0.0456478,1.06878
57.8,11.2906,1.22969,-0.0455349,1.06871
58.4,11.3216,1.26803,-0.0457069,1.06864
59,11.3517,1.32818,-0.0454308,1.06858
59.6,11.3809,1.36646,-0.0452978,1.06851
60.2,11.4097,1.40578,-0.0462207,1.06844
60.8,11.4379,1.45201,-0.0456261,1.06836
61.4,11.4658,1.48654,-0.0470043,1.06829
62,11.4929,1.52147,-0.0475704,1.06822
62.6,11.5197,1.57202,-0.0469887,1.06814
63.2,11.5461,1.60815,-0.0482431,1.06807
63.8,11.5724,1.64485,-0.0480644,1.06799
64.4,11.5982,1.68141,-0.0468906,1.06791
65,11.6234,1.71593,-0.0468104,1.06783
65.6,11.6486,1.74277,-0.0465876,1.06775
66.2,11.6735,1.7807,-0.0470063,1.06767
66.8,11.6985,1.81544,-0.0477263,1.06759
67.4,11.7229,1.85025,-0.0483683,1.0675
68,11.7472,1.88429,-0.0487413,1.06742
68.6,11.7712,1.91106,-0.04806969,1.06734
69.2,11.7951,1.94324,-0.0481947,1.06725
69.8,11.8188,1.97453,-0.04765061,1.06716
70.4,11.8423,2.00619,-0.0473473,1.06708
71,11.8657,2.03297,-0.0479557,1.06699
71.6,11.8889,2.05785,-0.048233,1.0669
72.2,11.9121,2.08709,-0.0476081,1.06681
72.8,11.935,2.10996,-0.0478322,1.06672
73.4,11.9579,2.14195,-0.0488939,1.06662
74,11.9806,2.16804,-0.0490634,1.06652
74.6,12.0033,2.19315,-0.0497458,1.06644
75.2,12.0258,2.21606,-0.04959902,1.06633
75.8,12.0481,2.24589,-0.0492959,1.06624
76.4,12.0703,2.27259,-0.0501594,1.06615
77,12.0925,2.29137,-0.0510478,1.06605
77.6,12.1147,2.31642,-0.051094,1.06595
78.2,12.1368,2.35476,-0.0509512,1.06585
78.8,12.159,2.37167,-0.0493492,1.06575
79.4,12.1809,2.3979,-0.0508616,1.06564
80,12.2027,2.40733,-0.05077864,1.06553
80.6,12.2245,2.44933,-0.0513282,1.06544
81.2,12.2461,2.46953,-0.05249995,1.06533
81.8,12.2677,2.47836,-0.0523038,1.06522
82.4,12.2891,2.51046,-0.0527902,1.06512
83,12.3107,2.53152,-0.0532384,1.065
83.6,12.3323,2.55302,-0.0531892,1.06489
84.2,12.3537,2.57948,-0.0535903,1.06478
84.8,12.375,2.60442,-0.053404,1.06467
85.4,12.3962,2.61761,-0.0545477,1.06457
86,12.4174,2.63805,-0.0546871,1.06444
86.6,12.4385,2.66782,-0.0546755,1.06433
87.2,12.4596,2.67452,-0.056017,1.06421
87.8,12.4805,2.7002,-0.0558552,1.0641
88.4,12.5015,2.72014,-0.0562278,1.06398
89,12.5224,2.73955,-0.0565567,1.06386
89.6,12.5433,2.75967,-0.0574978,1.06374
90.2,12.5643,2.7732,-0.0573902,1.06362
90.8,12.5851,2.79915,-0.0574726,1.0635
91.4,12.6059,2.82313,-0.0574866,1.06338
92,12.6266,2.83214,-0.057632,1.06326
92.6,12.6474,2.84572,-0.0587898,1.06314
93.2,12.6682,2.86567,-0.0587801,1.06301
93.8,12.6889,2.87539,-0.0583984,1.06289
94.4,12.7095,2.89229,-0.05877906,1.06276
95,12.73,2.90275,-0.0588596,1.06263
95.6,12.7506,2.9188,-0.0601931,1.06251
96.2,12.7711,2.92731,-0.0593461,1.06237
96.8,12.7916,2.94368,-0.058811,1.06224
97.4,12.8121,2.94554,-0.0592263,1.06212
98,12.8326,2.95401,-0.0601349,1.06198
98.6,12.8531,2.96422,-0.06010858,1.06185
99.2,12.8736,2.97397,-0.0600464,1.06171
99.8,12.8941,2.98571,-0.0614201,1.06159
100.4,12.9146,2.98964,-0.06143,1.06144
101,12.9349,2.99498,-0.06142836,1.06131
101.6,12.9553,3.00919,-0.0608544,1.06117
102.2,12.9757,3.00831,-0.0614207,1.06104
102.8,12.996,3.00468,-0.0614167,1.0609
103.4,13.0162,3.00972,-0.0621551,1.06075
104,13.0365,3.00965,-0.0627328,1.06061
104.6,13.0568,3.00979,-0.0627393,1.06046
105.2,13.0771,3.01153,-0.0628975,1.06033
105.8,13.0975,3.01413,-0.0633884,1.06018
106.4,13.1178,3.00402,-0.0639604,1.06003
107,13.1381,3.00826,-0.06469,1.05988
107.6,13.1584,3.00404,-0.0647204,1.05974
108.2,13.1787,2.99473,-0.0647157,1.05959
108.8,13.1989,2.98972,-0.0653948,1.05944
109.4,13.2191,2.99023,-0.0660058,1.05929
110,13.2393,2.98548,-0.0660303,1.05914
110.6,13.2595,2.97935,-0.06604149,1.05899
111.2,13.2796,2.97842,-0.0659353,1.05884
111.8,13.2998,2.96087,-0.0660792,1.05868
112.4,13.3199,2.94855,-0.0660297,1.05853
113,13.3401,2.95077,-0.06603,1.05837
113.6,13.3603,2.94824,-0.0660298,1.05822
114.2,13.3804,2.94265,-0.0661,1.05806
114.8,13.4006,2.93204,-0.0674393,1.0579
115.4,13.4206,2.93649,-0.0673575,1.05774
116,13.4407,2.94546,-0.06735,1.05758
116.6,13.4608,2.94738,-0.0673461,1.05742
117.2,13.4808,2.9437,-0.0682511,1.05726
117.8,13.5009,2.93595,-0.0686356,1.05709
118.4,13.5211,2.9393,-0.0686662,1.05693
119,13.5412,2.94326,-0.0675836,1.05677
119.6,13.5613,2.94102,-0.06735013,1.0566
120.2,13.5812,2.9352,-0.0673502,1.05643
120.8,13.6011,2.93373,-0.0672994,1.05627
121.4,13.621,2.91946,-0.0684472,1.0561
122,13.6409,2.9209,-0.0686598,1.05593
122.6,13.6609,2.91794,-0.0686697,1.05576
123.2,13.6809,2.90218,-0.0690786,1.05559
123.8,13.7008,2.90178,-0.069978,1.05542
124.4,13.7207,2.88727,-0.06998,1.05524
125,13.7406,2.88349,-0.0699771,1.05507
125.6,13.7604,2.8904,-0.06924227,1.0549
126.2,13.7803,2.87069,-0.0703689,1.05472
126.8,13.8,2.87396,-0.0699775,1.05454
127.4,13.8198,2.86455,-0.0696681,1.05437
128,13.8396,2.86166,-0.068438,1.05419
128.6,13.8593,2.84938,-0.06844,1.05401
129.2,13.879,2.83898,-0.0684387,1.05383
129.8,13.8988,2.83963,-0.069314,1.05365
130.4,13.9186,2.82429,-0.0697602,1.05347
131,13.9383,2.82032,-0.0697694,1.05328
131.6,13.958,2.80561,-0.0711419,1.0531
132.2,13.9776,2.80847,-0.071085,1.05292
132.8,13.9971,2.80008,-0.07108,1.05273
133.4,14.0167,2.79477,-0.0710936,1.05254
134,14.0363,2.78562,-0.06989054,1.05236
134.6,14.0559,2.78564,-0.06976004,1.05217
135.2,14.0754,2.78479,-0.06976,1.05198
135.8,14.0949,2.77442,-0.069769,1.05179
136.4,14.1144,2.77081,-0.07024821,1.0516
137,14.1337,2.7758,-0.0711092,1.05141
137.6,14.1532,2.76738,-0.07108007,1.05122
138.2,14.1725,2.76948,-0.0710802,1.05102
138.8,14.192,2.77159,-0.0710309,1.05083
139.4,14.2114,2.77573,-0.0721076,1.05063
140,14.2308,2.76393,-0.0723792,1.05044
140.6,14.2502,2.76437,-0.07239,1.05024
141.2,14.2696,2.76521,-0.07239,1.05004
141.8,14.2889,2.76352,-0.07239,1.04984
142.4,14.3082,2.76659,-0.0723963,1.04964
143,14.3275,2.76948,-0.071335,1.04944
143.6,14.3468,2.76753,-0.0710834,1.04924
144.2,14.3661,2.76423,-0.0710388,1.04904
144.8,14.3854,2.77926,-0.0723917,1.04884
145.4,14.4046,2.77584,-0.0724,1.04863
146,14.4239,2.78529,-0.0724,1.04843
146.6,14.4431,2.77931,-0.0724,1.04822
147.2,14.4623,2.7818,-0.0723415,1.04802
147.8,14.4815,2.78872,-0.0710622,1.04781
148.4,14.5007,2.79515,-0.0710759,1.0476
149,14.5198,2.79917,-0.0710247,1.04739
149.6,14.5389,2.79899,-0.0721909,1.04718
150.2,14.5581,2.80678,-0.0724008,1.04697
150.8,14.5772,2.80937,-0.0720818,1.04676
151.4,14.5962,2.81851,-0.0710925,1.04655
152,14.6153,2.81701,-0.07108,1.04634
152.6,14.6345,2.82806,-0.07108,1.04612
153.2,14.6536,2.82673,-0.07108,1.04591
153.8,14.6727,2.83274,-0.07108,1.04569
154.4,14.6917,2.84889,-0.0710758,1.04548
155,14.7108,2.85312,-0.0710185,1.04526
155.6,14.7299,2.86167,-0.0725003,1.04504
156.2,14.749,2.86224,-0.0733798,1.04482
156.8,14.7681,2.86219,-0.07338,1.0446
157.4,14.7871,2.87701,-0.0733842,1.04438
158,14.806,2.88306,-0.0736605,1.04416
158.6,14.8251,2.8844,-0.0737035,1.04394
159.2,14.844,2.89293,-0.07371003,1.04371
159.8,14.863,2.89968,-0.0737517,1.04349
160.4,14.8821,2.91255,-0.07236318,1.04326
161,14.901,2.90981,-0.0726462,1.04304
161.6,14.92,2.91972,-0.0733576,1.04281
162.2,14.9389,2.92217,-0.073379,1.04258
162.8,14.9578,2.91951,-0.07338,1.04236
163.4,14.9768,2.93583,-0.07338,1.04213
164,14.9957,2.94159,-0.07338,1.0419
164.6,15.0146,2.94067,-0.07338,1.04167
165.2,15.0336,2.95453,-0.07338,1.04143
165.8,15.0525,2.96086,-0.07338,1.0412
166.4,15.0714,2.97258,-0.07338,1.04097
167,15.0903,2.97895,-0.07338,1.04073
167.6,15.1092,2.98184,-0.07338,1.0405
168.2,15.1279,2.98277,-0.07338,1.04026
168.8,15.1468,2.99387,-0.07338,1.04003
169.4,15.1656,3.00201,-0.07338,1.03979
170,15.1845,3.00832,-0.07338,1.03955
170.6,15.2034,3.01657,-0.07338,1.03931
171.2,15.2222,3.01921,-0.07338,1.03907
171.8,15.241,3.02878,-0.07338,1.03883
172.4,15.2597,3.02525,-0.07337994,1.03859
173,15.2785,3.04343,-0.0733819,1.03835
173.6,15.2973,3.05112,-0.0739248,1.0381
174.2,15.3162,3.05577,-0.0747193,1.03786
174.8,15.3349,3.05965,-0.07469007,1.03762
175.4,15.3536,3.06923,-0.0746902,1.03737
176,15.3724,3.07014,-0.0746561,1.03712
176.6,15.3911,3.0797,-0.075546,1.03688
177.2,15.4099,3.09203,-0.0760041,1.03663
177.8,15.4286,3.0972,-0.07600998,1.03638
178.4,15.4473,3.09334,-0.07601,1.03613
179,15.466,3.10622,-0.07601,1.03588
179.6,15.4846,3.1081,-0.07601,1.03563
180.2,15.5032,3.11208,-0.07601,1.03538
180.8,15.5218,3.11482,-0.07601,1.03512
181.4,15.5405,3.12956,-0.07601,1.03487
182,15.5591,3.13551,-0.07601,1.03462
182.6,15.5777,3.14169,-0.07601,1.03436
183.2,15.5963,3.13925,-0.07601,1.0341
183.8,15.6148,3.15879,-0.07601,1.03385
184.4,15.6334,3.16017,-0.07601,1.03359
185,15.6521,3.16486,-0.0760151,1.03333
185.6,15.6706,3.17205,-0.0771325,1.03307
186.2,15.6892,3.18349,-0.0773309,1.03281
186.8,15.7077,3.18975,-0.07733,1.03255
187.4,15.7262,3.1958,-0.07733,1.03229
188,15.7447,3.19755,-0.0773185,1.03203
188.6,15.7632,3.20428,-0.0772484,1.03177
189.2,15.7817,3.21061,-0.07850982,1.0315
189.8,15.8001,3.21614,-0.0786504,1.03124
190.4,15.8186,3.22563,-0.07865,1.03097
191,15.8371,3.23123,-0.07865,1.03071
191.6,15.8555,3.23899,-0.07865,1.03044
192.2,15.8741,3.24309,-0.07865,1.03017
192.8,15.8925,3.25327,-0.07865,1.0299
193.4,15.911,3.25824,-0.07865,1.02963
194,15.9294,3.26374,-0.07865,1.02936
194.6,15.9478,3.27219,-0.0786523,1.02909
195.2,15.9663,3.27936,-0.0792706,1.02882
195.8,15.9847,3.28734,-0.0799634,1.02855
196.4,16.0032,3.29661,-0.07997,1.02828
197,16.0216,3.29142,-0.0799549,1.028
197.6,16.04,3.30043,-0.0799078,1.02773
198.2,16.0584,3.31301,-0.0789787,1.02745
198.8,16.0768,3.31315,-0.0789801,1.02718
199.4,16.0952,3.32016,-0.07898,1.0269
200,16.1136,3.32757,-0.07898,1.02662
200.6,16.132,3.3413,-0.0789759,1.02634
201.2,16.1504,3.35391,-0.0789619,1.02606
201.8,16.1688,3.35027,-0.0809024,1.02578
202.4,16.1872,3.35909,-0.0816097,1.0255
203,16.2056,3.35763,-0.08161,1.02522
203.6,16.2239,3.37727,-0.08161,1.02494
204.2,16.2422,3.37207,-0.08161,1.02466
204.8,16.2605,3.37595,-0.08161,1.02437
205.4,16.2788,3.39678,-0.08161,1.02409
206,16.2972,3.4075,-0.0816092,1.0238
206.6,16.3154,3.41463,-0.0815626,1.02352
207.2,16.3338,3.42273,-0.08270081,1.02323
207.8,16.3521,3.4245,-0.08290882,1.02294
208.4,16.3704,3.43674,-0.08292,1.02266
209,16.3885,3.44491,-0.0829096,1.02237
209.6,16.4068,3.44427,-0.0835199,1.02208
210.2,16.4251,3.45388,-0.0838702,1.02179
210.8,16.4435,3.46345,-0.08527411,1.0215
211.4,16.4621,3.4716,-0.0852301,1.0212
212,16.4804,3.48591,-0.0852255,1.02091
212.6,16.4988,3.489,-0.0861084,1.02062
213.2,16.5171,3.48816,-0.0865405,1.02032
213.8,16.5354,3.50477,-0.08654,1.02003
214.4,16.5538,3.51037,-0.08654,1.01973
215,16.5721,3.52968,-0.0865385,1.01944
215.6,16.5904,3.52933,-0.087244,1.019137
216.2,16.6087,3.5461,-0.0878637,1.01884
216.8,16.627,3.55381,-0.0875827,1.01855
217.4,16.6452,3.5651,-0.08718643,1.018247
218,16.6635,3.57804,-0.0871999,1.017947
218.6,16.6818,3.58543,-0.0872419,1.01765
219.2,16.7,3.59942,-0.0885162,1.01734
219.8,16.7182,3.61283,-0.08852,1.017037
220.4,16.7365,3.6146,-0.08852,1.016737
221,16.7547,3.62605,-0.08852,1.01644
221.6,16.7729,3.64577,-0.0885227,1.01613
222.2,16.7911,3.651,-0.08968313,1.01583
222.8,16.8094,3.65271,-0.0898297,1.01552
223.4,16.8277,3.6689,-0.08983,1.01522
224,16.8459,3.68403,-0.08983,1.01491
224.6,16.8642,3.69444,-0.0898103,1.0146
225.2,16.8824,3.69606,-0.0909995,1.01429
225.8,16.9006,3.71672,-0.09115,1.01398
226.4,16.9189,3.72527,-0.0911551,1.01367
227,16.9371,3.72893,-0.092255,1.01336
227.6,16.9553,3.73513,-0.0924708,1.01305
228.2,16.9736,3.74292,-0.09247,1.01274
228.8,16.9919,3.7565,-0.092462,1.01243
229.4,17.0101,3.75516,-0.0940803,1.01211
230,17.0283,3.76238,-0.094761,1.0118
230.6,17.0465,3.77174,-0.09477,1.01148
231.2,17.0647,3.77225,-0.0947807,1.01117
231.8,17.083,3.79237,-0.0957558,1.01085
232.4,17.1012,3.7917,-0.0964532,1.01054
233,17.1195,3.79858,-0.0964197,1.01022
233.6,17.1378,3.79153,-0.09636858,1.0099
234.2,17.156,3.81235,-0.0977829,1.00958
234.8,17.1742,3.80442,-0.0977441,1.00926
235.4,17.1924,3.8027,-0.0992416,1.00894
236,17.2107,3.80691,-0.09940839,1.00862
236.6,17.2289,3.80768,-0.100832,1.0083
237.2,17.2472,3.80415,-0.100838,1.00798
237.8,17.2655,3.80871,-0.102137,1.00766
238.4,17.2838,3.79839,-0.102133,1.00733
239,17.3021,3.80343,-0.103034,1.00701
239.6,17.3203,3.80347,-0.103444,1.00668
240.2,17.3385,3.80121,-0.103899,1.00636
240.8,17.3567,3.80471,-0.104938,1.00603
241.4,17.3749,3.80762,-0.106347,1.0057
242,17.3932,3.80729,-0.106616,1.00538
242.6,17.4114,3.80003,-0.108194,1.00505
243.2,17.4296,3.80219,-0.10824,1.00472
243.8,17.4476,3.80724,-0.109478,1.00439
244.4,17.4658,3.81681,-0.109437,1.00406
245,17.484,3.81495,-0.111306,1.00373
245.6,17.5023,3.80774,-0.112389,1.0034
246.2,17.5208,3.82136,-0.113399,1.00306
246.8,17.539,3.81858,-0.114717,1.00273
247.4,17.5573,3.82445,-0.11657,1.0024
248,17.5755,3.83687,-0.117627,1.00206
248.6,17.5937,3.83126,-0.118267,1.00173
249.2,17.6119,3.83974,-0.119846,1.00139
249.8,17.6301,3.84214,-0.122639,1.00106
250.4,17.6483,3.84372,-0.123827,1.00073
251,17.6665,3.84295,-0.125237,1.00038
251.6,17.6847,3.85886,-0.12668,1.00004
252.2,17.7029,3.86224,-0.128347,0.999707
252.8,17.721,3.87262,-0.128934,0.999367
253.4,17.7392,3.8784,-0.129335,0.999027
254,17.7574,3.88523,-0.130082,0.998687
254.6,17.7757,3.89384,-0.130076,0.998344
255.2,17.7939,3.89893,-0.131245,0.998004
255.8,17.812,3.90704,-0.132335,0.997666
256.4,17.8303,3.91468,-0.134355,0.997317
257,17.8484,3.93518,-0.136308,0.996974
257.6,17.8666,3.938,-0.138215,0.996635
258.2,17.8848,3.94086,-0.1402,0.996284
258.8,17.903,3.95255,-0.141896,0.995937
259.4,17.9212,3.95714,-0.143151,0.995594
260,17.9394,3.96583,-0.145043,0.995244
260.6,17.9576,3.96918,-0.146866,0.994897
261.2,17.9758,3.98344,-0.148709,0.994555
261.8,17.994,3.98712,-0.15041,0.994204
262.4,18.0122,3.99283,-0.152302,0.993854
263,18.0303,3.99887,-0.153813,0.993504
263.6,18.0485,4.01246,-0.154786,0.993154
264.2,18.0666,4.01104,-0.156187,0.992805
264.8,18.0847,4.01762,-0.158188,0.992447
265.4,18.1028,4.02714,-0.159962,0.992095
266,18.121,4.03345,-0.161839,0.991744
266.6,18.1392,4.03961,-0.163667,0.991387
267.2,18.1574,4.04055,-0.165625,0.991034
267.8,18.1756,4.03517,-0.167604,0.990685
268.4,18.1938,4.04737,-0.169855,0.9903244
269,18.2119,4.04989,-0.1718248,0.989964
269.6,18.23,4.05544,-0.173654,0.989614
270.2,18.2482,4.06758,-0.175349,0.9892544
270.8,18.2663,4.06611,-0.177205,0.9888944
271.4,18.2845,4.07604,-0.179643,0.9885344
272,18.3027,4.07064,-0.182184,0.9881744
272.6,18.3209,4.07817,-0.185147,0.9878144
273.2,18.3391,4.08464,-0.187938,0.9874544
273.8,18.3573,4.08467,-0.190701,0.9870944
274.4,18.3755,4.08432,-0.193193,0.9867344
275,18.3937,4.0807,-0.196115,0.9863744
275.6,18.4119,4.08676,-0.199429,0.986014
276.2,18.4301,4.09224,-0.202885,0.985644
276.8,18.4483,4.08706,-0.205381,0.985284
277.4,18.4665,4.09264,-0.207848,0.984913
278,18.4847,4.08299,-0.210238,0.984554
278.6,18.5028,4.08464,-0.213319,0.984185
279.2,18.521,4.07752,-0.215656,0.983824
279.8,18.5391,4.08341,-0.219046,0.983454
280.4,18.5573,4.07762,-0.223037,0.983085
281,18.5754,4.07684,-0.226394,0.982722
281.6,18.5935,4.06492,-0.230925,0.982355
282.2,18.6117,4.06107,-0.234272,0.981985
282.8,18.6299,4.05352,-0.238554,0.981615
283.4,18.6481,4.05534,-0.241953,0.981245
284,18.6663,4.04342,-0.245785,0.980872
284.6,18.6845,4.0413,-0.250186,0.980502
285.2,18.7027,4.03685,-0.255567,0.980123
285.8,18.7209,4.03136,-0.26026,0.979754
286.4,18.739,4.01953,-0.264453,0.979385
287,18.7572,4.00972,-0.269751,0.979003
287.6,18.7753,3.99596,-0.275187,0.978635
288.2,18.7934,3.98137,-0.279845,0.978253
288.8,18.8116,3.96739,-0.285717,0.977885
289.4,18.8297,3.94811,-0.289976,0.977503
290,18.8479,3.94198,-0.294924,0.977132
290.6,18.8661,3.9215,-0.300683,0.976755
291.2,18.8843,3.91288,-0.305812,0.976375
291.8,18.9025,3.90216,-0.311676,0.975993
292.4,18.9207,3.88412,-0.318298,0.975613
293,18.9389,3.85865,-0.323593,0.975242
293.6,18.9571,3.84463,-0.330459,0.974862
294.2,18.9753,3.81368,-0.337017,0.974482
294.8,18.9935,3.79938,-0.34262,0.974093
295.4,19.0116,3.77263,-0.350999,0.973713
296,19.0298,3.75333,-0.357489,0.973335
296.6,19.048,3.72431,-0.364098,0.972952
297.2,19.0662,3.69858,-0.37206,0.972563
297.8,19.0844,3.68219,-0.378434,0.972185
298.4,19.1024,3.642,-0.385759,0.971802
299,19.1205,3.62994,-0.394324,0.971414
299.6,19.1387,3.59943,-0.401919,0.971032
300.2,19.1568,3.57031,-0.411009,0.970644
300.8,19.1751,3.53831,-0.419402,0.970253
301.4,19.1934,3.51611,-0.426593,0.969872
302,19.2115,3.48091,-0.43545,0.969485
302.6,19.2298,3.45562,-0.443676,0.969094
303.2,19.2479,3.425,-0.451968,0.968704
303.8,19.2661,3.39242,-0.462212,0.968314
304.4,19.2841,3.34984,-0.470857,0.967924
305,19.3024,3.31774,-0.480104,0.967534
305.6,19.3206,3.28659,-0.490235,0.967144
306.2,19.3387,3.25734,-0.498615,0.966754
306.8,19.3571,3.21609,-0.509199,0.966364
307.4,19.3753,3.18594,-0.519279,0.965972
308,19.3934,3.14597,-0.528197,0.965582
308.6,19.4116,3.11503,-0.539581,0.965184
309.2,19.4297,3.08072,-0.549219,0.964792
309.8,19.4479,3.043,-0.559201,0.964394
310.4,19.4661,3.02101,-0.571107,0.964001
311,19.4842,2.98051,-0.580865,0.963604
311.6,19.5025,2.93652,-0.591708,0.963211
312.2,19.5206,2.90888,-0.603515,0.962814
312.8,19.5388,2.88633,-0.613221,0.962423
313.4,19.557,2.85653,-0.624908,0.962022
314,19.5752,2.82377,-0.636402,0.961621
314.6,19.5934,2.80844,-0.646572,0.961224
315.2,19.6116,2.78642,-0.659374,0.960824
315.8,19.6298,2.76325,-0.670427,0.960424
316.4,19.6479,2.73462,-0.681848,0.960024
317,19.6661,2.71298,-0.695605,0.959624
317.6,19.6843,2.68341,-0.706971,0.959224
318.2,19.7025,2.65846,-0.719461,0.958821
318.8,19.7208,2.63372,-0.732955,0.958421
319.4,19.7391,2.61429,-0.743731,0.958023
320,19.7573,2.59619,-0.756485,0.957614
320.6,19.7755,2.57912,-0.768664,0.957211
321.2,19.7936,2.56143,-0.779831,0.956812
321.8,19.8118,2.54483,-0.794288,0.956404
322.4,19.83,2.52874,-0.806473,0.956002
323,19.8482,2.52538,-0.818325,0.955594
323.6,19.8666,2.50966,-0.832424,0.955191
324.2,19.8849,2.50716,-0.843862,0.954781
324.8,19.9031,2.50638,-0.85739,0.954374
325.4,19.9214,2.49396,-0.871539,0.953971
326,19.9396,2.49886,-0.882978,0.953562
326.6,19.9578,2.49891,-0.896854,0.953151
327.2,19.9761,2.50269,-0.909164,0.952741
327.8,19.9944,2.51779,-0.920953,0.952334
328.4,20.0126,2.52239,-0.936295,0.951924
329,20.0308,2.53046,-0.94857,0.951514
329.6,20.049,2.53962,-0.961555,0.951104
330.2,20.0673,2.54657,-0.976073,0.950691
330.8,20.0856,2.57163,-0.98806,0.950282
331.4,20.1039,2.59492,-1.00252,0.949872
332,20.1221,2.615,-1.01615,0.949462
332.6,20.1404,2.63616,-1.02819,0.949044
333.2,20.1588,2.64884,-1.04312,0.948632
333.8,20.1771,2.67347,-1.0557,0.948222
334.4,20.1954,2.71296,-1.06878,0.947802
335,20.2138,2.73179,-1.08283,0.947392
335.6,20.232,2.75374,-1.09377,0.946972
336.2,20.2503,2.79248,-1.10786,0.946562
336.8,20.2686,2.81554,-1.122,0.946142
337.4,20.287,2.8423,-1.13406,0.945724
338,20.3053,2.87786,-1.14909,0.945312
338.6,20.3237,2.91032,-1.16213,0.9448918
339.2,20.342,2.94042,-1.17552,0.9444718
339.8,20.3604,2.97887,-1.19049,0.944052
340.4,20.3788,3.00585,-1.2025,0.943642
341,20.3971,3.04109,-1.21734,0.9432218
341.6,20.4154,3.07118,-1.23172,0.9428018
342.2,20.4337,3.11628,-1.24403,0.9423818
342.8,20.4521,3.15006,-1.25926,0.9419618
343.4,20.4705,3.19181,-1.27273,0.941542
344,20.4889,3.21215,-1.28747,0.941112
344.6,20.5072,3.25749,-1.30383,0.9406918
345.2,20.5256,3.28547,-1.31721,0.9402718
345.8,20.544,3.3241,-1.33303,0.939852
346.4,20.5624,3.36618,-1.34801,0.939422
347,20.5808,3.39432,-1.36184,0.9390018
347.6,20.5992,3.43392,-1.37824,0.938582
348.2,20.6176,3.47311,-1.39168,0.938152
348.8,20.636,3.51417,-1.40693,0.937732
349.4,20.6543,3.54375,-1.42344,0.937302
350,20.6727,3.59303,-1.43732,0.93688
350.6,20.6911,3.63818,-1.45478,0.936452
351.2,20.7096,3.67347,-1.47065,0.936022
351.8,20.7281,3.71641,-1.48604,0.9356
352.4,20.7465,3.76117,-1.50405,0.935172
353,20.7649,3.79209,-1.51879,0.934742
353.6,20.7833,3.84428,-1.5363,0.934312
354.2,20.8017,3.87441,-1.55373,0.933881
354.8,20.8202,3.91892,-1.56973,0.93346
355.4,20.8386,3.95951,-1.58896,0.93303
356,20.8571,3.99385,-1.60567,0.9326
356.6,20.8755,4.04465,-1.62321,0.93217
357.2,20.894,4.07868,-1.64273,0.931731
357.8,20.9126,4.11918,-1.65836,0.931301
358.4,20.931,4.16021,-1.67803,0.930872
359,20.9496,4.19794,-1.69678,0.930442
359.6,20.968,4.23555,-1.71494,0.930012
360.2,20.9865,4.27642,-1.73623,0.929571
360.8,21.005,4.31385,-1.75318,0.929142
361.4,21.0235,4.34894,-1.77293,0.928712
362,21.0419,4.38985,-1.79304,0.928271
362.6,21.0602,4.42541,-1.81062,0.927842
363.2,21.0784,4.45696,-1.8325,0.92741
363.8,21.0967,4.48593,-1.85184,0.926973
364.4,21.1153,4.51937,-1.8721,0.926531
365,21.134,4.53957,-1.89573,0.926102
365.6,21.1527,4.56429,-1.91461,0.925661
366.2,21.1714,4.60296,-1.93792,0.92523
366.8,21.1899,4.6167,-1.95834,0.924792
367.4,21.2085,4.63341,-1.97861,0.924352
368,21.227,4.6415,-2.00242,0.923911
368.6,21.2456,4.66471,-2.02226,0.92348
369.2,21.2641,4.67362,-2.04754,0.92304
369.8,21.2827,4.68634,-2.07003,0.9226
370.4,21.3012,4.69116,-2.09051,0.92216
371,21.3197,4.68196,-2.11514,0.92172
371.6,21.3383,4.68175,-2.1353,0.92128
372.2,21.3569,4.66356,-2.15887,0.92084
372.8,21.3754,4.65289,-2.18124,0.9204
373.4,21.394,4.63533,-2.20061,0.919959
374,21.4126,4.61372,-2.22536,0.919511
374.6,21.4311,4.58667,-2.24739,0.919071
375.2,21.4497,4.5494,-2.27249,0.918633
375.8,21.4682,4.51136,-2.29739,0.91819
376.4,21.4868,4.47113,-2.31715,0.917741
377,21.5054,4.40456,-2.34189,0.917303
377.6,21.5239,4.34488,-2.36294,0.916859
378.2,21.5426,4.28273,-2.3852,0.916411
378.8,21.5612,4.21593,-2.40902,0.91597
379.4,21.5798,4.12603,-2.42825,0.915521
380,21.5984,4.04059,-2.45239,0.91508
380.6,21.6169,3.95305,-2.47252,0.914631
381.2,21.6355,3.85721,-2.49303,0.9141893
381.8,21.6541,3.75647,-2.51531,0.91374
382.4,21.6727,3.63617,-2.53302,0.913291
383,21.6912,3.51352,-2.55487,0.9128493
383.6,21.7098,3.38656,-2.57411,0.9124
384.2,21.7284,3.24068,-2.59197,0.911951
384.8,21.747,3.10842,-2.61235,0.911501
385.4,21.7657,2.95305,-2.62872,0.911051
386,21.7843,2.80307,-2.64758,0.910601
386.6,21.8029,2.6494,-2.66408,0.91016
387.2,21.8215,2.48106,-2.67842,0.90971
387.8,21.8401,2.31892,-2.6949,0.90926
388.4,21.8587,2.16519,-2.7077,0.90881
389,21.8773,2.01521,-2.72422,0.90836
389.6,21.896,1.84507,-2.73761,0.9079017
390.2,21.9146,1.69789,-2.74912,0.907451
390.8,21.9332,1.55141,-2.7617,0.907001
391.4,21.9518,1.39956,-2.7706,0.906548
392,21.9704,1.2679,-2.78076,0.9061
392.6,21.989,1.15106,-2.78999,0.90565
393.2,22.0076,1.03776,-2.79803,0.905191
393.8,22.0263,0.920166,-2.80679,0.904738
394.4,22.0449,0.827318,-2.81309,0.90429
395,22.0636,0.730745,-2.81959,0.903831
395.6,22.0822,0.636868,-2.82531,0.90338
396.2,22.1009,0.565062,-2.82994,0.902921
396.8,22.1195,0.489263,-2.83513,0.90247
397.4,22.1382,0.426606,-2.83915,0.902012
398,22.1568,0.364247,-2.84337,0.90156
398.6,22.1754,0.30821,-2.84692,0.901101
399.2,22.1941,0.261886,-2.8499,0.90065
399.8,22.2127,0.216885,-2.85357,0.900188
400.4,22.2314,0.161874,-2.85662,0.899731
401,22.2501,0.12681,-2.85946,0.89928
401.6,22.2688,0.08038994,-2.86229,0.89882
402.2,22.2875,0.0438067,-2.86565,0.898358
402.8,22.3062,0.0018697,-2.86825,0.897901
403.4,22.3249,-0.0221072,-2.87096,0.897442
404,22.3436,-0.06073464,-2.87299,0.89699
404.6,22.3623,-0.0910936,-2.87611,0.89653
405.2,22.381,-0.117065,-2.87947,0.89607
405.8,22.3998,-0.14622,-2.88197,0.89561
406.4,22.4185,-0.181302,-2.88384,0.895148
407,22.4373,-0.198265,-2.8857,0.89469
407.6,22.4561,-0.23078,-2.88752,0.89423
408.2,22.4748,-0.267748,-2.88925,0.89377
408.8,22.4935,-0.291775,-2.89181,0.89331
409.4,22.5123,-0.307059,-2.89431,0.892841
410,22.531,-0.328998,-2.89692,0.892381
410.6,22.5497,-0.363073,-2.89867,0.891919
411.2,22.5685,-0.37778,-2.9004,0.891459
411.8,22.5873,-0.399527,-2.90235,0.891
412.4,22.6061,-0.427197,-2.90417,0.890531
413,22.6248,-0.453373,-2.906,0.890068
413.6,22.6436,-0.470853,-2.90838,0.88961
414.2,22.6623,-0.488296,-2.91097,0.889141
414.8,22.6811,-0.503956,-2.91308,0.888679
415.4,22.6998,-0.524541,-2.91445,0.88822
416,22.7185,-0.543814,-2.91623,0.887749
416.6,22.7373,-0.558304,-2.9179,0.88729
417.2,22.756,-0.575856,-2.91984,0.886819
417.8,22.7749,-0.599691,-2.92177,0.88636
418.4,22.7937,-0.620137,-2.92371,0.885889
419,22.8126,-0.644797,-2.92532,0.885421
419.6,22.8314,-0.656889,-2.927,0.884959
420.2,22.8503,-0.671839,-2.92922,0.884489
420.8,22.8691,-0.688328,-2.93132,0.884021
421.4,22.8878,-0.695307,-2.93401,0.883559
422,22.9066,-0.717722,-2.93687,0.883089
422.6,22.9254,-0.723938,-2.9378,0.882619
423.2,22.9442,-0.732503,-2.93876,0.882151
423.8,22.963,-0.745449,-2.94045,0.88169
424.4,22.9818,-0.753867,-2.94201,0.881219
425,23.0006,-0.774132,-2.94398,0.880749
425.6,23.0194,-0.783933,-2.94567,0.880279
426.2,23.0383,-0.795424,-2.9468,0.879809
426.8,23.0572,-0.800586,-2.94846,0.879339
427.4,23.0761,-0.814622,-2.9503,0.878869
428,23.0949,-0.817495,-2.95217,0.878399
428.6,23.1137,-0.821879,-2.954,0.877929
429.2,23.1325,-0.830579,-2.95574,0.877459
429.8,23.1513,-0.833956,-2.95767,0.876989
430.4,23.1701,-0.843665,-2.9591,0.876519
431,23.189,-0.856195,-2.96095,0.876049
431.6,23.2079,-0.848937,-2.96233,0.875579
432.2,23.2267,-0.848119,-2.96351,0.87511
432.8,23.2455,-0.851608,-2.96526,0.874631
433.4,23.2644,-0.86532,-2.96714,0.874159
434,23.2832,-0.869421,-2.96881,0.873689
434.6,23.302,-0.874825,-2.97063,0.873219
435.2,23.3209,-0.858252,-2.97242,0.872739
435.8,23.3398,-0.868061,-2.97413,0.872269
436.4,23.3587,-0.866951,-2.97595,0.871799
437,23.3776,-0.872876,-2.97707,0.871319
437.6,23.3966,-0.872247,-2.97823,0.870849
438.2,23.4155,-0.866857,-2.97967,0.87038
438.8,23.4344,-0.869187,-2.98278,0.869899
439.4,23.4533,-0.874288,-2.98466,0.869429
440,23.4722,-0.862327,-2.98582,0.868949
440.6,23.4911,-0.860057,-2.98696,0.868479
441.2,23.51,-0.84781,-2.98827,0.867999
441.8,23.529,-0.853747,-2.98971,0.86753
442.4,23.5479,-0.847666,-2.99164,0.8670492
443,23.5669,-0.835882,-2.99334,0.866569
443.6,23.5858,-0.842863,-2.99501,0.866099
444.2,23.6047,-0.8334,-2.99652,0.8656192
444.8,23.6236,-0.820957,-2.99752,0.865139
445.4,23.6425,-0.822423,-2.99868,0.864669
446,23.6613,-0.809557,-3.00015,0.8641892
446.6,23.6803,-0.799429,-3.00178,0.863709
447.2,23.6992,-0.798838,-3.00347,0.86324
447.8,23.718,-0.783553,-3.0044,0.8627592
448.4,23.737,-0.785985,-3.00517,0.8622792
449,23.7559,-0.780245,-3.00686,0.8617992
449.6,23.7749,-0.765275,-3.00808,0.8613192
450.2,23.7941,-0.755415,-3.00878,0.860839
450.8,23.8131,-0.742979,-3.01012,0.860361
451.4,23.8321,-0.728659,-3.01201,0.859889
452,23.8511,-0.71725,-3.01376,0.8594092
452.6,23.87,-0.706767,-3.01501,0.8589292
453.2,23.889,-0.706167,-3.01595,0.8584492
453.8,23.908,-0.686941,-3.01709,0.8579692
454.4,23.927,-0.675764,-3.01856,0.8574892
455,23.946,-0.670365,-3.02008,0.8570092
455.6,23.9649,-0.655665,-3.02177,0.8565292
456.2,23.984,-0.649414,-3.02275,0.856049
456.8,24.003,-0.628715,-3.02356,0.855559
457.4,24.022,-0.627961,-3.02538,0.8550792
458,24.0411,-0.610205,-3.02694,0.8545992
458.6,24.06,-0.595123,-3.02807,0.8541192
459.2,24.0791,-0.580356,-3.0297,0.8536392
459.8,24.0982,-0.56812,-3.03155,0.853159
460.4,24.1173,-0.55291,-3.03222,0.852669
461,24.1364,-0.545576,-3.03301,0.8521892
461.6,24.1554,-0.533784,-3.03449,0.8517092
462.2,24.1744,-0.521398,-3.03577,0.851229
462.8,24.1934,-0.50715,-3.03508,0.850739
463.4,24.2124,-0.495012,-3.03622,0.8502592
464,24.2315,-0.489903,-3.03789,0.849779
464.6,24.2507,-0.462312,-3.03883,0.849289
465.2,24.2698,-0.448525,-3.03968,0.8488092
465.8,24.2889,-0.43935,-3.04136,0.84833
466.4,24.308,-0.434717,-3.0434,0.847839
467,24.327,-0.417824,-3.04413,0.847359
467.6,24.3461,-0.419149,-3.04566,0.846869
468.2,24.3652,-0.403839,-3.04611,0.846389
468.8,24.3842,-0.398604,-3.04702,0.845899
469.4,24.4034,-0.396696,-3.04868,0.845419
470,24.4225,-0.386345,-3.04917,0.844929
470.6,24.4416,-0.364489,-3.05002,0.844449
471.2,24.4607,-0.352688,-3.05133,0.843959
471.8,24.4798,-0.343497,-3.0521,0.843479
472.4,24.4989,-0.335016,-3.05356,0.842989
473,24.518,-0.317011,-3.05501,0.842507
473.6,24.5371,-0.310194,-3.05584,0.842019
474.2,24.5563,-0.288962,-3.05657,0.841529
474.8,24.5754,-0.287559,-3.05824,0.84105
475.4,24.5946,-0.284303,-3.05863,0.840559
476,24.6138,-0.266404,-3.05981,0.840069
476.6,24.6329,-0.275766,-3.06133,0.839587
477.2,24.6521,-0.248656,-3.06131,0.839099
477.8,24.6712,-0.241043,-3.06291,0.838609
478.4,24.6903,-0.227474,-3.063,0.838119
479,24.7095,-0.221382,-3.06433,0.837637
479.6,24.7287,-0.211638,-3.06435,0.837149
480.2,24.7478,-0.199369,-3.06563,0.836659
480.8,24.7668,-0.192438,-3.06595,0.836169
481.4,24.7859,-0.187183,-3.06715,0.835679
482,24.805,-0.185488,-3.06886,0.835188
482.6,24.8243,-0.168519,-3.07025,0.834707
483.2,24.8435,-0.164884,-3.07171,0.83422
483.8,24.8628,-0.16252,-3.07349,0.833729
484.4,24.8819,-0.175668,-3.07432,0.833239
485,24.901,-0.15498,-3.07483,0.832749
485.6,24.9202,-0.144653,-3.07584,0.832259
486.2,24.9394,-0.142334,-3.07625,0.831769
486.8,24.9586,-0.136831,-3.07774,0.831279
487.4,24.9778,-0.128349,-3.07774,0.830789
488,24.9969,-0.121423,-3.07915,0.8303
488.6,25.0161,-0.113485,-3.0791,0.829809
489.2,25.0353,-0.104078,-3.07889,0.829319
489.8,25.0545,-0.111229,-3.07978,0.828829
490.4,25.0737,-0.101904,-3.07978,0.828339
491,25.0929,-0.0948078,-3.08131,0.827849
491.6,25.112,-0.0949904,-3.08225,0.827359
492.2,25.1311,-0.0977573,-3.08281,0.82687
492.8,25.1503,-0.0849536,-3.08412,0.826377
493.4,25.1695,-0.0948039,-3.08445,0.825887
494,25.1887,-0.0794558,-3.08574,0.825388
494.6,25.2079,-0.0725855,-3.08749,0.8249
495.2,25.2271,-0.0698722,-3.08744,0.824409
495.8,25.2463,-0.074083,-3.08875,0.82392
496.4,25.2656,-0.0763799,-3.08876,0.823427
497,25.2848,-0.0585251,-3.08869,0.822928
497.6,25.304,-0.0539028,-3.08948,0.82244
498.2,25.3233,-0.0574783,-3.0896,0.821949
498.8,25.3426,-0.0491952,-3.09156,0.82146
499.4,25.3618,-0.0411761,-3.09293,0.820967
500,25.381,-0.0382737,-3.09371,0.82047
500.6,25.4002,-0.0394292,-3.09491,0.819979
501.2,25.4195,-0.0380019,-3.09519,0.819487
501.8,25.4387,-0.02125888,-3.09623,0.818988
502.4,25.458,-0.0309089,-3.09662,0.818499
503,25.4771,-0.023172,-3.09762,0.81801
503.6,25.4961,0.002579459,-3.09898,0.817508
504.2,25.5152,-0.0104611,-3.0993,0.817019
504.8,25.5345,-0.00580028,-3.1006,0.816527
505.4,25.5538,0.000394735,-3.10099,0.816028
506,25.5731,0.005322805,-3.10215,0.81554
506.6,25.5924,-0.002072111,-3.10267,0.815047
507.2,25.6115,0.02827149,-3.10356,0.814549
507.8,25.6308,0.0338814,-3.10355,0.814057
508.4,25.6503,0.0400711,-3.10479,0.81356
509,25.6695,0.0339778,-3.10489,0.81307
509.6,25.6888,0.0438293,-3.10495,0.812568
510.2,25.708,0.0565578,-3.10623,0.81208
510.8,25.7272,0.0670411,-3.10705,0.811578
511.4,25.7465,0.0758823,-3.10896,0.81109
512,25.7657,0.08778,-3.1092,0.810588
512.6,25.785,0.0843696,-3.11028,0.8101
513.2,25.8042,0.105066,-3.11046,0.809598
513.8,25.8235,0.107405,-3.11081,0.80911
514.4,25.8428,0.107695,-3.11057,0.808608
515,25.862,0.116795,-3.11181,0.80812
515.6,25.8813,0.113572,-3.11187,0.807619
516.2,25.9005,0.133258,-3.11321,0.807127
516.8,25.9198,0.135629,-3.11418,0.806629
517.4,25.939,0.146623,-3.11465,0.806128
518,25.9584,0.155392,-3.11465,0.80564
518.6,25.9776,0.150361,-3.11481,0.805138
519.2,25.9968,0.154433,-3.11599,0.804647
519.8,26.0161,0.165795,-3.11597,0.80415
520.4,26.0353,0.160503,-3.11602,0.803648
521,26.0547,0.172645,-3.1173,0.803157
521.6,26.0739,0.180438,-3.11731,0.802659
522.2,26.0932,0.174138,-3.11873,0.802158
522.8,26.1125,0.194548,-3.11884,0.80167
523.4,26.1318,0.191702,-3.12061,0.801169
524,26.1511,0.189487,-3.12073,0.800668
524.6,26.1704,0.196493,-3.12227,0.800177
525.2,26.1897,0.193949,-3.12222,0.79968
525.8,26.209,0.204428,-3.12219,0.799178
526.4,26.2283,0.219892,-3.12359,0.798687
527,26.2476,0.206388,-3.12353,0.79819
527.6,26.2669,0.199533,-3.12454,0.797689
528.2,26.2862,0.210675,-3.12485,0.797188
528.8,26.3055,0.210098,-3.12573,0.796697
529.4,26.3248,0.22395,-3.12616,0.7962
530,26.3441,0.225908,-3.1263,0.795699
530.6,26.3634,0.221718,-3.12743,0.795198
531.2,26.3828,0.223443,-3.12818,0.794707
531.8,26.4021,0.218308,-3.12929,0.794207
532.4,26.4214,0.228373,-3.12946,0.79371
533,26.4407,0.222727,-3.12948,0.793209
533.6,26.46,0.227152,-3.13078,0.792708
534.2,26.4794,0.227803,-3.13078,0.792217
534.8,26.4987,0.236406,-3.13201,0.791717
535.4,26.518,0.230633,-3.13209,0.79122
536,26.5374,0.230395,-3.13209,0.79072
536.6,26.5568,0.233471,-3.13221,0.790219
537.2,26.5761,0.239385,-3.13343,0.789718
537.8,26.5955,0.247038,-3.13338,0.789218
538.4,26.6148,0.236143,-3.13489,0.788727
539,26.6342,0.247466,-3.13483,0.788227
539.6,26.6536,0.242015,-3.13627,0.78773
540.2,26.673,0.233359,-3.13626,0.78723
540.8,26.6923,0.231849,-3.13679,0.78673
541.4,26.7117,0.236674,-3.13757,0.786228
542,26.7311,0.235828,-3.13759,0.785728
542.6,26.7505,0.238399,-3.13869,0.785228
543.2,26.77,0.241182,-3.13889,0.784728
543.8,26.7893,0.222628,-3.13889,0.784237
544.4,26.8087,0.224871,-3.13889,0.783737
545,26.828,0.22259,-3.13888,0.783237
545.6,26.8475,0.228644,-3.13995,0.782737
546.2,26.8669,0.222834,-3.14021,0.78224
546.8,26.8864,0.228203,-3.14084,0.78174
547.4,26.9059,0.21762,-3.14174,0.78124
548,26.9253,0.223722,-3.1426,0.78074
548.6,26.9447,0.218269,-3.14306,0.78024
549.2,26.964,0.207606,-3.14304,0.77974
549.8,26.9835,0.212389,-3.14427,0.77924
550.4,27.0029,0.218598,-3.14438,0.778739
551,27.0223,0.201464,-3.14454,0.778238
551.6,27.0417,0.208835,-3.14568,0.777738
552.2,27.0611,0.198948,-3.14568,0.777238
552.8,27.0806,0.204204,-3.14703,0.776738
553.4,27.1001,0.192005,-3.147,0.776238
554,27.1197,0.201579,-3.14797,0.775738
554.6,27.1391,0.196478,-3.14833,0.775238
555.2,27.1586,0.177571,-3.14855,0.774738
555.8,27.178,0.179145,-3.14965,0.774238
556.4,27.1975,0.170573,-3.14964,0.773738
557,27.217,0.172217,-3.14964,0.773238
557.6,27.2365,0.162436,-3.15049,0.772738
558.2,27.256,0.155762,-3.15224,0.772238
558.8,27.2754,0.161894,-3.15224,0.77174
559.4,27.2949,0.147582,-3.15374,0.77124
560,27.3145,0.130573,-3.15368,0.77074
560.6,27.334,0.131821,-3.15473,0.77024
561.2,27.3535,0.129936,-3.15371,0.76974
561.8,27.373,0.128775,-3.15371,0.76924
562.4,27.3925,0.117147,-3.1537,0.76874
563,27.412,0.122854,-3.15366,0.76824
563.6,27.4315,0.12167,-3.15505,0.76774
564.2,27.451,0.108379,-3.15502,0.767237
564.8,27.4705,0.106887,-3.15567,0.766737
565.4,27.49,0.0936297,-3.15757,0.766237
566,27.5095,0.0960571,-3.15795,0.765737
566.6,27.5291,0.086613,-3.15906,0.765237
567.2,27.5486,0.0863412,-3.15907,0.764737
567.8,27.568,0.0744068,-3.1591,0.764228
568.4,27.5876,0.0783004,-3.1604,0.763728
569,27.6071,0.0820211,-3.16039,0.763228
569.6,27.6267,0.0749935,-3.16071,0.762728
570.2,27.6463,0.0605576,-3.16171,0.762229
570.8,27.6658,0.0721786,-3.1617,0.76173
571.4,27.6854,0.0721544,-3.16166,0.76123
572,27.7049,0.0589825,-3.16305,0.76073
572.6,27.7245,0.0515946,-3.16302,0.76023
573.2,27.744,0.0646809,-3.16375,0.759727
573.8,27.7636,0.0571812,-3.16433,0.759227
574.4,27.7831,0.052598,-3.16433,0.758727
575,27.8027,0.0448627,-3.16493,0.758227
575.6,27.8223,0.0408099,-3.16565,0.757718
576.2,27.8418,0.0487544,-3.16565,0.757218
576.8,27.8614,0.0464153,-3.16564,0.756718
577.4,27.881,0.0396327,-3.16673,0.756218
578,27.9007,0.0354255,-3.16697,0.75572
578.6,27.9202,0.0312506,-3.16681,0.75522
579.2,27.9398,0.03382309,-3.16723,0.75472
579.8,27.9594,0.025951,-3.16729,0.75422
580.4,27.9791,0.047357,-3.16728,0.753717
581,27.9987,0.046633,-3.16858,0.753217
581.6,28.0184,0.0298881,-3.16862,0.752717
582.2,28.0379,0.0387477,-3.16941,0.752217
582.8,28.0575,0.0165966,-3.16993,0.751708
583.4,28.0771,0.0280757,-3.16991,0.751208
584,28.0968,0.0348386,-3.1711,0.750708
584.6,28.1164,0.0242387,-3.17212,0.750209
585.2,28.1361,0.0100131,-3.17255,0.74971
585.8,28.1557,0.02630073,-3.17272,0.74921
586.4,28.1752,0.007285025,-3.17387,0.74871
587,28.1948,0.0211979,-3.17391,0.748207
587.6,28.2144,0.03137238,-3.1752,0.747707
588.2,28.2341,0.0230036,-3.17519,0.747207
588.8,28.2537,0.0100693,-3.17519,0.746707
589.4,28.2733,0.000390564,-3.17519,0.746198
590,28.293,0.0128401,-3.17581,0.745698
590.6,28.3127,0.008531105,-3.1765,0.745198
591.2,28.3324,0.003909298,-3.17651,0.744698
591.8,28.3521,0.003103306,-3.17702,0.744199
592.4,28.3716,0.002257903,-3.17782,0.7437
593,28.3912,-0.000364817,-3.17784,0.7432
593.6,28.4109,0.0110878,-3.17897,0.7427
594.2,28.4306,0.007083375,-3.17912,0.7422
594.8,28.4505,-0.00232358,-3.1787,0.741697
595.4,28.4702,0.001265331,-3.17936,0.741197
596,28.4899,-0.014507,-3.17947,0.740697
596.6,28.5095,-0.001057227,-3.17955,0.740197
597.2,28.5292,-0.000394096,-3.18081,0.739688
597.8,28.5489,-0.009657968,-3.18079,0.739188
598.4,28.5686,-0.009043236,-3.18079,0.738688
599,28.5883,-0.0109739,-3.18079,0.738188
599.6,28.6079,-0.0221558,-3.18079,0.737688
600.2,28.6277,-0.0186679,-3.18157,0.737189
600.8,28.6473,-0.0230713,-3.1821,0.73669
601.4,28.6671,-0.0183593,-3.1821,0.73619
602,28.6866,-0.015647,-3.18243,0.73569
602.6,28.7063,-0.0154172,-3.18353,0.73519
603.2,28.7259,-0.0172815,-3.18409,0.73469
603.8,28.7456,-0.0189338,-3.18494,0.73419
604.4,28.7654,-0.0304849,-3.18495,0.73369
605,28.7851,-0.02780677,-3.18495,0.733187
605.6,28.8048,-0.03270459,-3.18538,0.732687
606.2,28.8246,-0.0319727,-3.18626,0.732187
606.8,28.8443,-0.0344852,-3.18662,0.731687
607.4,28.864,-0.0318233,-3.18687,0.731187
608,28.8838,-0.0347336,-3.18829,0.730687
608.6,28.9035,-0.0312345,-3.18825,0.730187
609.2,28.9231,-0.0318616,-3.18825,0.729687
609.8,28.9429,-0.023269,-3.18825,0.729187
610.4,28.9626,-0.038652,-3.18825,0.728687
611,28.9823,-0.0384414,-3.18825,0.728187
611.6,29.0019,-0.0307981,-3.18876,0.727687
612.2,29.0216,-0.0369184,-3.18956,0.727187
612.8,29.0413,-0.03107401,-3.18964,0.726687
613.4,29.061,-0.028823,-3.19072,0.726187
614,29.0808,-0.0356491,-3.18952,0.725687
614.6,29.1006,-0.0313821,-3.18957,0.725187
615.2,29.1203,-0.0301138,-3.19026,0.724687
615.8,29.14,-0.0399635,-3.19088,0.724187
616.4,29.1597,-0.0383917,-3.19088,0.723687
617,29.1795,-0.0236575,-3.19086,0.723187
617.6,29.1993,-0.0306353,-3.19221,0.722687
618.2,29.2191,-0.0344995,-3.1922,0.722187
618.8,29.2389,-0.0189338,-3.19221,0.72169
619.4,29.2585,-0.0254568,-3.19343,0.72119
620,29.2782,-0.009912778,-3.19352,0.72069
620.6,29.2978,-0.0208126,-3.19353,0.72019
621.2,29.3176,-0.01796014,-3.19462,0.71969
621.8,29.3373,-0.00865321,-3.19579,0.71919
622.4,29.357,-0.0182797,-3.19614,0.718688
623,29.3768,-0.0163446,-3.19721,0.718188
623.6,29.3965,-0.009658926,-3.19746,0.717688
624.2,29.4164,0.006097822,-3.19746,0.717188
624.8,29.4361,-4.27E-05,-3.19746,0.716697
625.4,29.4559,0.01041783,-3.19745,0.716197
626,29.4756,0.0146777,-3.19861,0.715697
626.6,29.4954,0.009887769,-3.19878,0.7152
627.2,29.5152,0.0283509,-3.19878,0.7147
627.8,29.5349,0.0222968,-3.19876,0.7142
628.4,29.5547,0.0253523,-3.20013,0.713698
629,29.5744,0.0253242,-3.20009,0.713198
629.6,29.5941,0.044993,-3.20011,0.712698
630.2,29.6138,0.0494554,-3.20141,0.712207
630.8,29.6336,0.0539583,-3.20141,0.711707
631.4,29.6535,0.05845196,-3.20141,0.71121
632,29.6733,0.0653612,-3.2024,0.71071
632.6,29.693,0.0716409,-3.20272,0.710209
633.2,29.7127,0.0677469,-3.20272,0.709708
633.8,29.7324,0.0768836,-3.20272,0.709217
634.4,29.7522,0.0883561,-3.2027,0.708717
635,29.772,0.101282,-3.20401,0.70822
635.6,29.7918,0.101885,-3.20404,0.70772
636.2,29.8115,0.0930586,-3.20404,0.707218
636.8,29.8312,0.112317,-3.20405,0.706718
637.4,29.851,0.115589,-3.2048,0.706227
638,29.8707,0.111893,-3.20536,0.70573
638.6,29.8905,0.119996,-3.20537,0.705229
639.2,29.9103,0.124756,-3.20431,0.704728
639.8,29.9301,0.132915,-3.20539,0.704237
640.4,29.9499,0.146853,-3.20536,0.70374
641,29.9697,0.144114,-3.20536,0.70324
641.6,29.9895,0.152541,-3.20536,0.702738
642.2,30.0092,0.150884,-3.20531,0.702247
642.8,30.029,0.156127,-3.20652,0.70175
643.4,30.0487,0.16825,-3.2078,0.701249
644,30.0684,0.156806,-3.20799,0.700748
644.6,30.0882,0.161903,-3.208,0.700257
645.2,30.108,0.1748,-3.20809,0.69976
645.8,30.1278,0.167023,-3.20691,0.699258
646.4,30.1477,0.174089,-3.20835,0.698767
647,30.1675,0.170838,-3.20832,0.69827
647.6,30.1872,0.173877,-3.20834,0.697768
648.2,30.207,0.160416,-3.20964,0.697277
648.8,30.2268,0.167111,-3.20963,0.69678
649.4,30.2467,0.165599,-3.20963,0.696278
650,30.2665,0.15211,-3.20963,0.695787
650.6,30.2863,0.1380957,-3.21096,0.69529
651.2,30.3061,0.151428,-3.21095,0.694788
651.8,30.3259,0.145557,-3.2112,0.694297
652.4,30.3457,0.13141,-3.21213,0.693799
653,30.3655,0.121731,-3.21195,0.693298
653.6,30.3853,0.114842,-3.2119,0.69281
654.2,30.4051,0.119917,-3.21329,0.692308
654.8,30.4249,0.104485,-3.21326,0.691817
655.4,30.4447,0.101704,-3.21326,0.691319
656,30.4646,0.0967326,-3.21326,0.690827
656.6,30.4844,0.0933851,-3.21326,0.69033
657.2,30.5042,0.0875128,-3.21324,0.689828
657.8,30.5241,0.082022,-3.21451,0.68934
658.4,30.5439,0.0841414,-3.21458,0.688838
659,30.5637,0.0589517,-3.21458,0.68835
659.6,30.5836,0.0726757,-3.21456,0.687848
660.2,30.6035,0.0528715,-3.21578,0.68736
660.8,30.6234,0.0447059,-3.21589,0.686858
661.4,30.6432,0.0325737,-3.21589,0.68637
662,30.663,0.0283309,-3.21589,0.685868
662.6,30.6829,0.0233613,-3.21591,0.68538
663.2,30.7027,0.0135448,-3.21608,0.684878
663.8,30.7226,0.01729274,-3.21782,0.68439
664.4,30.7424,0.00960142,-3.21819,0.683888
665,30.7623,-0.0104905,-3.21819,0.683399
665.6,30.7822,-0.0112743,-3.21819,0.682907
666.2,30.8021,-0.0160724,-3.21819,0.682409
666.8,30.822,-0.0159906,-3.21909,0.68192
667.4,30.8419,-0.0234032,-3.21951,0.681418
668,30.8617,-0.0214207,-3.21951,0.68093
668.6,30.8816,-0.03221585,-3.21953,0.680437
669.2,30.9015,-0.0366323,-3.21847,0.67994
669.8,30.9214,-0.0311485,-3.21852,0.67945
670.4,30.9412,-0.0341996,-3.21853,0.678948
671,30.9611,-0.0459768,-3.21853,0.678459
671.6,30.981,-0.0539613,-3.21855,0.67797
672.2,31.0009,-0.0545329,-3.21985,0.677468
672.8,31.0208,-0.0579934,-3.21984,0.676979
673.4,31.0408,-0.0609616,-3.21984,0.67649
674,31.0607,-0.0585668,-3.21984,0.675997
674.6,31.0806,-0.05453,-3.21985,0.6755
675.2,31.1005,-0.0494994,-3.22085,0.675009
675.8,31.1205,-0.0428984,-3.22116,0.674517
676.4,31.1403,-0.0440474,-3.22116,0.674018
677,31.1603,-0.0599301,-3.22083,0.67353
677.6,31.1802,-0.04765415,-3.22083,0.67304
678.2,31.2001,-0.0540465,-3.22117,0.672547
678.8,31.2201,-0.0628737,-3.22214,0.672048
679.4,31.24,-0.0561838,-3.22214,0.67156
680,31.2598,-0.0600178,-3.22214,0.671069
680.6,31.2796,-0.0484972,-3.22214,0.67058
681.2,31.2995,-0.0613903,-3.22214,0.670087
681.8,31.3195,-0.059632,-3.22214,0.669588
682.4,31.3396,-0.0575728,-3.22214,0.669098
683,31.3596,-0.0516671,-3.22275,0.66861
683.6,31.3795,-0.0559019,-3.22345,0.668119
684.2,31.3994,-0.0561706,-3.22346,0.667629
684.8,31.4193,-0.053982,-3.22346,0.66714
685.4,31.4393,-0.0577191,-3.22346,0.666647
686,31.4592,-0.0611265,-3.22346,0.666157
686.6,31.4792,-0.0635405,-3.22473,0.665658
687.2,31.4992,-0.0625808,-3.22478,0.665168
687.8,31.5192,-0.0589049,-3.22478,0.664679
688.4,31.5392,-0.06275314,-3.22478,0.664189
689,31.5592,-0.0591092,-3.22478,0.663699
689.6,31.5791,-0.0568434,-3.22478,0.66321
690.2,31.5991,-0.0613587,-3.22478,0.662719
690.8,31.619,-0.0686951,-3.22478,0.662229
691.4,31.6389,-0.0535606,-3.22477,0.661739
692,31.6588,-0.0695355,-3.2243,0.661249
692.6,31.6788,-0.054929,-3.22476,0.660759
693.2,31.6988,-0.0814638,-3.22477,0.660269
693.8,31.7188,-0.0576444,-3.22477,0.659779
694.4,31.7387,-0.0656406,-3.22473,0.659289
695,31.7586,-0.0574496,-3.22511,0.658798
695.6,31.7785,-0.0815013,-3.22639,0.658308
696.2,31.7985,-0.0634651,-3.22639,0.657827
696.8,31.8185,-0.0625042,-3.22701,0.657337
697.4,31.8386,-0.0723543,-3.22707,0.65685
698,31.8586,-0.0711318,-3.22708,0.656359
698.6,31.8785,-0.0702783,-3.22708,0.655869
699.2,31.8985,-0.0658625,-3.22708,0.655379
699.8,31.9185,-0.0786295,-3.22708,0.654889
700.4,31.9385,-0.0721392,-3.22708,0.654398
701,31.9585,-0.0777256,-3.22708,0.65392
701.6,31.9786,-0.0764062,-3.22708,0.653429
702.2,31.9986,-0.0748167,-3.22704,0.652939
702.8,32.0186,-0.087927,-3.22843,0.652449
703.4,32.0385,-0.0821347,-3.2284,0.651958
704,32.0585,-0.07885579,-3.2284,0.65148
704.6,32.0785,-0.0821622,-3.2284,0.650989
705.2,32.0985,-0.0819019,-3.2284,0.650499
705.8,32.1185,-0.0882167,-3.22839,0.650017
706.4,32.1385,-0.0987415,-3.22807,0.649529
707,32.1584,-0.100167,-3.22704,0.649039
707.6,32.1785,-0.0786465,-3.22708,0.648548
708.2,32.1986,-0.0990743,-3.22793,0.648069
708.8,32.2187,-0.0989032,-3.22839,0.647579
709.4,32.2387,-0.0928897,-3.22839,0.647088
710,32.2586,-0.0911479,-3.22839,0.646609
710.6,32.2786,-0.111248,-3.2284,0.646119
711.2,32.2986,-0.0866128,-3.22925,0.645637
711.8,32.3187,-0.100272,-3.22971,0.645149
712.4,32.3387,-0.0988351,-3.22971,0.644659
713,32.3587,-0.101866,-3.22971,0.644179
713.6,32.3786,-0.0904224,-3.22971,0.643689
714.2,32.3986,-0.0910005,-3.22971,0.64321
714.8,32.4186,-0.0980027,-3.22967,0.642719
715.4,32.4387,-0.0822814,-3.23104,0.64224
716,32.4588,-0.101157,-3.23102,0.641749
716.6,32.4788,-0.098308,-3.23102,0.641267
717.2,32.4988,-0.0975579,-3.23102,0.640779
717.8,32.5188,-0.0882778,-3.23102,0.6403
718.4,32.5388,-0.09331084,-3.23102,0.639809
719,32.5587,-0.0850064,-3.23102,0.639329
719.6,32.5788,-0.091098,-3.23102,0.638839
720.2,32.5988,-0.09665268,-3.23102,0.638359
720.8,32.6189,-0.0983278,-3.23102,0.637868
721.4,32.639,-0.101581,-3.23103,0.6373892
722,32.6591,-0.092598,-3.23109,0.636909
722.6,32.6791,-0.09254027,-3.23108,0.636419
723.2,32.6991,-0.104138,-3.23102,0.6359392
723.8,32.7191,-0.0914414,-3.23102,0.63546
724.4,32.7392,-0.103781,-3.23102,0.634969
725,32.7593,-0.108028,-3.23102,0.6344892
725.6,32.7793,-0.103417,-3.23102,0.634009
726.2,32.7994,-0.0938008,-3.23231,0.633519
726.8,32.8194,-0.102429,-3.23234,0.6330392
727.4,32.8395,-0.100222,-3.23234,0.6325592
728,32.8595,-0.0945462,-3.23234,0.63208
728.6,32.8796,-0.0878524,-3.23362,0.631589
729.2,32.8996,-0.0991499,-3.23365,0.6311092
729.8,32.9197,-0.0792555,-3.23365,0.6306292
730.4,32.9398,-0.0901183,-3.23365,0.630149
731,32.9598,-0.0960303,-3.23365,0.629667
731.6,32.98,-0.0824705,-3.23365,0.629179
732.2,33.0001,-0.0778781,-3.23365,0.6286992
732.8,33.0202,-0.06744732,-3.23365,0.6282192
733.4,33.0403,-0.0701612,-3.23365,0.6277392
734,33.0604,-0.0865355,-3.23401,0.6272592
734.6,33.0805,-0.0821267,-3.23496,0.6267792
735.2,33.1006,-0.0770612,-3.23497,0.6262992
735.8,33.1207,-0.0563741,-3.23497,0.625819
736.4,33.1409,-0.0738935,-3.23497,0.625329
737,33.161,-0.0567457,-3.23499,0.6248492
737.6,33.181,-0.0748029,-3.2363,0.6243692
738.2,33.201,-0.0625694,-3.23628,0.6238892
738.8,33.2211,-0.0736105,-3.23608,0.6234092
739.4,33.2412,-0.0714537,-3.23563,0.6229292
740,33.2613,-0.0580005,-3.23564,0.6224492
740.6,33.2814,-0.0615005,-3.23564,0.621969
741.2,33.3015,-0.0634727,-3.23563,0.621499
741.8,33.3215,-0.0515893,-3.23673,0.6210192
742.4,,,,
743,,,,
743.6,,,,
744.2,,,,
744.8,,,,
745.4,,,,
746,,,,
746.6,,,,
747.2,,,,
747.8,,,,
748.4,,,,
749,,,,
749.6,,,,
750,,,,