File: 01_Data/Oak_Flooring/STA/N2/30K_min/Oak_Flooring_STA_N2_30KData_211209_R2.csv
,Time/min,DSC/mW,Mass loss/mg,Sensit./(uV/mW)
50.0,10.6849,0.39041,-0.0185104,1.0695
50.6,10.7628,0.521547,-0.0179313,1.06945
51.2,10.8273,0.633111,-0.0182377,1.06939
51.8,10.8849,0.751645,-0.0190365,1.06934
52.4,10.9359,0.85661,-0.0173091,1.06928
53,10.983,0.953267,-0.0182072,1.06922
53.6,11.027,1.0523,-0.0194165,1.06916
54.2,11.0682,1.13313,-0.0170234,1.0691
54.8,11.1072,1.21446,-0.0184082,1.06904
55.4,11.1443,1.29441,-0.0175836,1.06897
56,11.1801,1.36565,-0.0178977,1.06891
56.6,11.2142,1.44137,-0.0175851,1.06884
57.2,11.2473,1.50958,-0.017717,1.06878
57.8,11.2794,1.58681,-0.0177776,1.06871
58.4,11.3109,1.64412,-0.0172733,1.06864
59,11.3414,1.7082,-0.018286,1.06857
59.6,11.3712,1.76557,-0.0180321,1.0685
60.2,11.4004,1.83107,-0.0184537,1.06843
60.8,11.4288,1.88793,-0.0181578,1.06836
61.4,11.4567,1.93546,-0.0186229,1.06829
62,11.4841,1.99014,-0.0191635,1.06821
62.6,11.5112,2.05023,-0.0180812,1.06814
63.2,11.5377,2.09537,-0.018274,1.06806
63.8,11.5641,2.14216,-0.0192067,1.06799
64.4,11.59,2.19018,-0.0197505,1.06791
65,11.6156,2.24364,-0.0197118,1.06783
65.6,11.6408,2.28721,-0.0192064,1.06775
66.2,11.6659,2.32596,-0.0186555,1.06767
66.8,11.6904,2.37182,-0.0189321,1.06759
67.4,11.715,2.40864,-0.0186457,1.0675
68,11.7394,2.45798,-0.019155,1.06742
68.6,11.7638,2.49842,-0.0190855,1.06734
69.2,11.7879,2.53989,-0.0189181,1.06725
69.8,11.8116,2.58781,-0.0187357,1.06716
70.4,11.8352,2.62966,-0.0185032,1.06708
71,11.8587,2.66047,-0.0182563,1.06699
71.6,11.8821,2.69666,-0.0183267,1.0669
72.2,11.9054,2.73941,-0.0187294,1.06681
72.8,11.9285,2.77146,-0.0190486,1.06671
73.4,11.9513,2.80739,-0.0203572,1.06662
74,11.974,2.84193,-0.0207593,1.06653
74.6,11.9967,2.87999,-0.0215522,1.06643
75.2,12.0193,2.9052,-0.0212353,1.06634
75.8,12.0418,2.94152,-0.020937,1.06624
76.4,12.0642,2.9796,-0.0224445,1.06614
77,12.0865,3.00384,-0.022199,1.06605
77.6,12.1088,3.03671,-0.0220441,1.06595
78.2,12.1309,3.07478,-0.0216293,1.06585
78.8,12.153,3.10347,-0.0210222,1.06574
79.4,12.175,3.1316,-0.0213998,1.06564
80,12.1967,3.16326,-0.0205091,1.06554
80.6,12.2186,3.19373,-0.0221683,1.06543
81.2,12.2402,3.22334,-0.0222641,1.06533
81.8,12.2621,3.25093,-0.0212603,1.06522
82.4,12.2838,3.28108,-0.022077,1.06511
83,12.3054,3.29718,-0.0222429,1.06501
83.6,12.3269,3.33682,-0.0221718,1.0649
84.2,12.3484,3.3645,-0.0236864,1.06479
84.8,12.3698,3.39254,-0.0235706,1.06468
85.4,12.3911,3.41722,-0.0224263,1.06456
86,12.4123,3.44177,-0.0237366,1.06445
86.6,12.4335,3.47498,-0.0222982,1.06434
87.2,12.4546,3.49162,-0.0234317,1.06422
87.8,12.4756,3.5112,-0.0236964,1.06411
88.4,12.4967,3.54028,-0.0241016,1.06399
89,12.5177,3.56204,-0.0241709,1.06387
89.6,12.5386,3.58993,-0.0236882,1.06375
90.2,12.5596,3.60309,-0.0236855,1.06363
90.8,12.5804,3.62567,-0.0250282,1.06351
91.4,12.6012,3.64092,-0.0250108,1.06339
92,12.622,3.66862,-0.0255352,1.06327
92.6,12.6427,3.69394,-0.026197,1.06314
93.2,12.6635,3.70083,-0.0250229,1.06302
93.8,12.6842,3.72433,-0.0264151,1.06289
94.4,12.7049,3.74102,-0.0263198,1.06277
95,12.7255,3.75715,-0.0272063,1.06264
95.6,12.7462,3.77299,-0.0276013,1.06251
96.2,12.7668,3.79602,-0.0266381,1.06238
96.8,12.7873,3.80845,-0.0265529,1.06225
97.4,12.8078,3.83232,-0.0279413,1.06212
98,12.8284,3.83352,-0.0279696,1.06199
98.6,12.8488,3.84882,-0.0281906,1.06185
99.2,12.8693,3.87085,-0.0292962,1.06172
99.8,12.8898,3.8724,-0.029069,1.06159
100.4,12.9103,3.88643,-0.0302564,1.06145
101,12.9307,3.8932,-0.0302657,1.06131
101.6,12.9511,3.90749,-0.0306405,1.06117
102.2,12.9714,3.90893,-0.0315697,1.06104
102.8,12.9917,3.91673,-0.031579,1.0609
103.4,13.0121,3.91896,-0.0315844,1.06076
104,13.0323,3.91846,-0.0302802,1.06061
104.6,13.0527,3.9249,-0.0304176,1.06047
105.2,13.073,3.92888,-0.0315966,1.06033
105.8,13.0934,3.93643,-0.03159,1.06018
106.4,13.1137,3.93798,-0.0315901,1.06004
107,13.1341,3.93701,-0.0316059,1.05989
107.6,13.1543,3.93431,-0.0318691,1.05974
108.2,13.1746,3.93151,-0.0329223,1.0596
108.8,13.1948,3.94285,-0.0329103,1.05945
109.4,13.2149,3.93419,-0.0328716,1.0593
110,13.2352,3.93066,-0.0339039,1.05915
110.6,13.2554,3.92804,-0.0342077,1.05899
111.2,13.2757,3.92244,-0.03422,1.05884
111.8,13.2959,3.92363,-0.03422,1.05869
112.4,13.3161,3.92036,-0.03422,1.05853
113,13.3363,3.91584,-0.0342197,1.05838
113.6,13.3565,3.92677,-0.0342918,1.05822
114.2,13.3767,3.93089,-0.0356299,1.05806
114.8,13.3969,3.93022,-0.0355666,1.05791
115.4,13.417,3.93503,-0.0342809,1.05775
116,13.437,3.9417,-0.03422,1.05759
116.6,13.4571,3.95138,-0.03422,1.05743
117.2,13.4772,3.95331,-0.03422,1.05726
117.8,13.4972,3.95541,-0.0342323,1.0571
118.4,13.5174,3.96007,-0.0345561,1.05694
119,13.5375,3.95046,-0.035578,1.05677
119.6,13.5575,3.95419,-0.0355397,1.05661
120.2,13.5775,3.95072,-0.03554,1.05644
120.8,13.5974,3.95045,-0.03554,1.05627
121.4,13.6173,3.95138,-0.03554,1.05611
122,13.6373,3.94931,-0.0355523,1.05594
122.6,13.6573,3.94875,-0.0358367,1.05577
123.2,13.6772,3.94595,-0.0368944,1.05559
123.8,13.697,3.93653,-0.0368497,1.05542
124.4,13.7168,3.9273,-0.03685,1.05525
125,13.7367,3.92259,-0.03685,1.05508
125.6,13.7566,3.91514,-0.03685,1.0549
126.2,13.7764,3.91782,-0.03685,1.05473
126.8,13.7963,3.90884,-0.03685,1.05455
127.4,13.8161,3.90998,-0.03685,1.05437
128,13.8358,3.90645,-0.03685,1.05419
128.6,13.8555,3.90254,-0.0368497,1.05402
129.2,13.8752,3.90951,-0.0369515,1.05383
129.8,13.8949,3.89285,-0.0374585,1.05365
130.4,13.9146,3.88994,-0.0382243,1.05347
131,13.9343,3.89562,-0.0385901,1.05329
131.6,13.9539,3.87949,-0.0388222,1.05311
132.2,13.9736,3.88706,-0.03883,1.05292
132.8,13.9932,3.88599,-0.03883,1.05274
133.4,14.0129,3.87339,-0.038835,1.05255
134,14.0323,3.87211,-0.0388316,1.05236
134.6,14.0518,3.87349,-0.0401271,1.05217
135.2,14.0714,3.86836,-0.0392496,1.05198
135.8,14.0909,3.86576,-0.0388199,1.05179
136.4,14.1104,3.86732,-0.03882,1.0516
137,14.1299,3.86192,-0.03882,1.05141
137.6,14.1493,3.86654,-0.03882,1.05122
138.2,14.1687,3.8693,-0.03882,1.05103
138.8,14.1881,3.87271,-0.03882,1.05083
139.4,14.2075,3.87282,-0.03882,1.05064
140,14.2269,3.87075,-0.03882,1.05044
140.6,14.2463,3.87028,-0.03882,1.05024
141.2,14.2657,3.88086,-0.03882,1.05005
141.8,14.2851,3.886,-0.03882,1.04985
142.4,14.3043,3.87734,-0.03882,1.04965
143,14.3236,3.89323,-0.03882,1.04945
143.6,14.3428,3.89898,-0.03882,1.04925
144.2,14.3621,3.90281,-0.03882,1.04904
144.8,14.3813,3.90802,-0.03882,1.04883
145.4,14.4006,3.91458,-0.0388197,1.04864
146,14.4199,3.91791,-0.0388457,1.04843
146.6,14.4391,3.91709,-0.0394505,1.04823
147.2,14.4582,3.93168,-0.0401458,1.04801
147.8,14.4774,3.93246,-0.04014,1.04781
148.4,14.4965,3.93775,-0.04014,1.0476
149,14.5157,3.93912,-0.0401615,1.0474
149.6,14.5348,3.94861,-0.0394575,1.04719
150.2,14.554,3.95887,-0.0390632,1.04697
150.8,14.5731,3.95784,-0.0388304,1.04676
151.4,14.5922,3.96469,-0.0388354,1.04656
152,14.6113,3.97536,-0.0396797,1.04634
152.6,14.6304,3.98128,-0.0401549,1.04612
153.2,14.6495,3.98974,-0.0401704,1.04591
153.8,14.6686,4.00697,-0.0410161,1.04569
154.4,14.6876,4.0077,-0.04114,1.04548
155,14.7066,4.02084,-0.04114,1.04526
155.6,14.7256,4.02617,-0.04114,1.04505
156.2,14.7447,4.02952,-0.04114,1.04483
156.8,14.7638,4.03955,-0.04114,1.04461
157.4,14.7828,4.04041,-0.04114,1.04439
158,14.8019,4.06056,-0.0411516,1.04416
158.6,14.8208,4.06783,-0.0400193,1.04393
159.2,14.8398,4.07754,-0.0398203,1.04371
159.8,14.8587,4.09334,-0.0397687,1.04349
160.4,14.8776,4.09029,-0.0408529,1.04326
161,14.8966,4.09953,-0.0411177,1.04304
161.6,14.9155,4.10485,-0.04113,1.04282
162.2,14.9345,4.11343,-0.04113,1.04258
162.8,14.9534,4.1255,-0.04113,1.04235
163.4,14.9724,4.12542,-0.04113,1.04212
164,14.9913,4.13112,-0.04113,1.04189
164.6,15.0103,4.14579,-0.04113,1.04166
165.2,15.0292,4.15362,-0.04113,1.04143
165.8,15.048,4.1584,-0.04113,1.0412
166.4,15.0668,4.15992,-0.04113,1.04096
167,15.0856,4.17058,-0.04113,1.04073
167.6,15.1045,4.17938,-0.04113,1.04049
168.2,15.1234,4.1897,-0.04113,1.04026
168.8,15.1423,4.19467,-0.04113,1.04002
169.4,15.1612,4.20929,-0.04113,1.03978
170,15.18,4.20862,-0.04113,1.03955
170.6,15.1988,4.2154,-0.04113,1.03931
171.2,15.2176,4.23023,-0.04113,1.03907
171.8,15.2364,4.24206,-0.04113,1.03883
172.4,15.2551,4.24869,-0.04113,1.03858
173,15.274,4.24904,-0.04113,1.03834
173.6,15.2928,4.26754,-0.04113,1.0381
174.2,15.3115,4.2696,-0.04113,1.03786
174.8,15.3304,4.27481,-0.04113,1.03761
175.4,15.3491,4.28339,-0.04113,1.03736
176,15.3678,4.29507,-0.04113,1.03712
176.6,15.3865,4.30779,-0.04113,1.03687
177.2,15.4051,4.31807,-0.04113,1.03662
177.8,15.4239,4.32954,-0.04113,1.03637
178.4,15.4427,4.33001,-0.04113,1.03612
179,15.4613,4.33288,-0.04113,1.03587
179.6,15.48,4.34889,-0.04113,1.03562
180.2,15.4987,4.36504,-0.04113,1.03537
180.8,15.5173,4.3729,-0.04113,1.03512
181.4,15.536,4.38299,-0.04113,1.03486
182,15.5546,4.38566,-0.04113,1.03461
182.6,15.5732,4.39448,-0.04113,1.03436
183.2,15.5917,4.40836,-0.04113,1.0341
183.8,15.6104,4.41586,-0.04113,1.03384
184.4,15.629,4.42417,-0.04113,1.03359
185,15.6475,4.43718,-0.04113,1.03333
185.6,15.6661,4.43894,-0.04113,1.03307
186.2,15.6846,4.45061,-0.04113,1.03281
186.8,15.7031,4.46398,-0.04113,1.03255
187.4,15.7216,4.46765,-0.04113,1.03229
188,15.7401,4.47313,-0.0411235,1.03202
188.6,15.7586,4.47127,-0.0410401,1.03176
189.2,15.7772,4.48674,-0.0423782,1.0315
189.8,15.7957,4.50126,-0.0436527,1.03123
190.4,15.8141,4.50076,-0.04377,1.03097
191,15.8326,4.51839,-0.04377,1.0307
191.6,15.851,4.5233,-0.04377,1.03043
192.2,15.8694,4.54161,-0.04377,1.03017
192.8,15.8879,4.53866,-0.04377,1.0299
193.4,15.9063,4.56224,-0.04377,1.02963
194,15.9249,4.56764,-0.04377,1.02936
194.6,15.9433,4.57722,-0.04377,1.02909
195.2,15.9618,4.57949,-0.04377,1.02882
195.8,15.9802,4.59697,-0.04377,1.02854
196.4,15.9986,4.60693,-0.04377,1.02827
197,16.017,4.61716,-0.04377,1.028
197.6,16.0354,4.62878,-0.04377,1.02772
198.2,16.0537,4.63394,-0.04377,1.02745
198.8,16.0721,4.64867,-0.04377,1.02717
199.4,16.0905,4.65457,-0.04377,1.02689
200,16.1089,4.66438,-0.04377,1.02662
200.6,16.1273,4.67969,-0.04377,1.02634
201.2,16.1457,4.68627,-0.04377,1.02606
201.8,16.1641,4.69246,-0.04377,1.02578
202.4,16.1825,4.70547,-0.0437485,1.0255
203,16.2007,4.71374,-0.0448702,1.02522
203.6,16.2191,4.72575,-0.0450799,1.02493
204.2,16.2375,4.72828,-0.04508,1.02465
204.8,16.2558,4.74059,-0.04508,1.02437
205.4,16.2742,4.75402,-0.04508,1.02408
206,16.2925,4.76856,-0.04508,1.0238
206.6,16.3109,4.77875,-0.04508,1.02351
207.2,16.3293,4.7884,-0.0450802,1.02323
207.8,16.3477,4.80409,-0.045592,1.02294
208.4,16.3661,4.81285,-0.0463974,1.02265
209,16.3844,4.83053,-0.0464,1.02236
209.6,16.4027,4.82217,-0.0464,1.02207
210.2,16.4211,4.84192,-0.0464,1.02178
210.8,16.4394,4.85167,-0.0464,1.02149
211.4,16.4577,4.86069,-0.0464,1.0212
212,16.476,4.87101,-0.0463463,1.02091
212.6,16.4943,4.88517,-0.0477563,1.02061
213.2,16.5126,4.893,-0.04771,1.02032
213.8,16.5309,4.89645,-0.0477101,1.02002
214.4,16.5493,4.91647,-0.0477062,1.01973
215,16.5675,4.93183,-0.0472254,1.01943
215.6,16.5859,4.94433,-0.0467033,1.01914
216.2,16.6042,4.95453,-0.0467197,1.01884
216.8,16.6225,4.96767,-0.0468293,1.01854
217.4,16.6408,4.97215,-0.0480525,1.01824
218,16.659,4.99073,-0.04804,1.01794
218.6,16.6772,5.00555,-0.04804,1.01764
219.2,16.6954,5.01057,-0.0480284,1.01734
219.8,16.7137,5.02594,-0.0487599,1.01704
220.4,16.732,5.03951,-0.0499375,1.01673
221,16.7503,5.04818,-0.0506706,1.01643
221.6,16.7686,5.07098,-0.05068,1.01613
222.2,16.7869,5.07527,-0.0506639,1.01582
222.8,16.8052,5.09088,-0.0519574,1.01552
223.4,16.8235,5.09249,-0.0519899,1.01521
224,16.8417,5.1104,-0.0519902,1.0149
224.6,16.8599,5.11226,-0.0523896,1.0146
225.2,16.8783,5.13133,-0.0533181,1.01429
225.8,16.8965,5.13149,-0.0533207,1.01398
226.4,16.9148,5.14697,-0.0542843,1.01367
227,16.9331,5.15932,-0.0542648,1.01336
227.6,16.9513,5.17097,-0.054299,1.01305
228.2,16.9696,5.17569,-0.0543,1.01274
228.8,16.9877,5.19133,-0.0543,1.01242
229.4,17.0059,5.20323,-0.0542953,1.01211
230,17.0241,5.22107,-0.0554952,1.0118
230.6,17.0424,5.22136,-0.0556098,1.01148
231.2,17.0607,5.22653,-0.0556101,1.01117
231.8,17.079,5.24081,-0.0556063,1.01085
232.4,17.0972,5.24534,-0.0569633,1.01053
233,17.1155,5.25193,-0.0570286,1.01022
233.6,17.1338,5.24673,-0.0581368,1.0099
234.2,17.152,5.26508,-0.0584814,1.00958
234.8,17.1703,5.26498,-0.0596524,1.00926
235.4,17.1886,5.26743,-0.0608547,1.00894
236,17.2069,5.27444,-0.0610112,1.00862
236.6,17.2252,5.27405,-0.0623962,1.0083
237.2,17.2435,5.27845,-0.0625732,1.00798
237.8,17.2617,5.28114,-0.06387,1.00765
238.4,17.2799,5.28349,-0.0638731,1.00733
239,17.298,5.28099,-0.0652928,1.007
239.6,17.3163,5.29217,-0.0653687,1.00668
240.2,17.3345,5.28852,-0.066435,1.00635
240.8,17.3528,5.29854,-0.0665983,1.00603
241.4,17.371,5.3023,-0.0669761,1.0057
242,17.3893,5.31002,-0.0686264,1.00537
242.6,17.4075,5.31559,-0.0694658,1.00505
243.2,17.4257,5.32103,-0.0704104,1.00472
243.8,17.444,5.32915,-0.0716102,1.00439
244.4,17.4622,5.33062,-0.0732683,1.00406
245,17.4805,5.34919,-0.0739177,1.00373
245.6,17.4987,5.34918,-0.0753321,1.00339
246.2,17.517,5.36288,-0.0757633,1.00306
246.8,17.5352,5.3656,-0.0774068,1.00273
247.4,17.5534,5.37861,-0.0792535,1.0024
248,17.5716,5.38484,-0.0797357,1.00206
248.6,17.5897,5.38796,-0.0806693,1.00173
249.2,17.6079,5.41062,-0.0823347,1.00139
249.8,17.6261,5.41805,-0.0835113,1.00106
250.4,17.6443,5.42272,-0.0851094,1.00072
251,17.6626,5.43219,-0.0867776,1.00038
251.6,17.6807,5.44654,-0.0880613,1.00004
252.2,17.6989,5.45005,-0.0897365,0.999712
252.8,17.7171,5.47267,-0.0912503,0.999372
253.4,17.7352,5.4648,-0.092136,0.999032
254,17.7534,5.48416,-0.0932821,0.998692
254.6,17.7716,5.48583,-0.0951211,0.998343
255.2,17.7897,5.50979,-0.0967138,0.998003
255.8,17.8079,5.50877,-0.097874,0.997661
256.4,17.8261,5.53406,-0.0988503,0.997322
257,17.8443,5.54087,-0.100157,0.996973
257.6,17.8624,5.55369,-0.101146,0.996631
258.2,17.8806,5.56453,-0.101971,0.996283
258.8,17.8988,5.57335,-0.103042,0.995941
259.4,17.917,5.57686,-0.104329,0.995591
260,17.9352,5.59072,-0.106185,0.995243
260.6,17.9534,5.60294,-0.108203,0.994901
261.2,17.9715,5.61354,-0.10992,0.994552
261.8,17.9897,5.61964,-0.111505,0.994202
262.4,18.0078,5.63402,-0.112482,0.993852
263,18.026,5.63252,-0.113747,0.993502
263.6,18.0443,5.65297,-0.116177,0.993152
264.2,18.0625,5.6575,-0.118482,0.992802
264.8,18.0807,5.67748,-0.120921,0.992451
265.4,18.0989,5.67908,-0.123236,0.992093
266,18.1171,5.6928,-0.125505,0.991742
266.6,18.1353,5.69933,-0.127526,0.991392
267.2,18.1535,5.70681,-0.129366,0.991031
267.8,18.1717,5.70992,-0.131428,0.990682
268.4,18.1899,5.72314,-0.133242,0.990322
269,18.2079,5.72942,-0.134964,0.989972
269.6,18.2259,5.7389,-0.136807,0.989612
270.2,18.2441,5.73621,-0.138892,0.989252
270.8,18.2624,5.74585,-0.141686,0.988891
271.4,18.2806,5.76189,-0.144255,0.988542
272,18.299,5.76022,-0.147166,0.988182
272.6,18.3172,5.76517,-0.149813,0.987822
273.2,18.3354,5.76114,-0.150968,0.987462
273.8,18.3535,5.78029,-0.153457,0.987102
274.4,18.3717,5.78309,-0.155259,0.986732
275,18.3899,5.78978,-0.15772,0.986372
275.6,18.4081,5.79311,-0.159959,0.986012
276.2,18.4263,5.78791,-0.163175,0.985652
276.8,18.4445,5.79817,-0.166918,0.985282
277.4,18.4627,5.79869,-0.170309,0.984922
278,18.4809,5.79938,-0.173433,0.984552
278.6,18.499,5.79663,-0.176354,0.984192
279.2,18.5172,5.8099,-0.179853,0.983822
279.8,18.5353,5.7963,-0.182732,0.983452
280.4,18.5534,5.80169,-0.187514,0.983091
281,18.5716,5.80492,-0.19042,0.982722
281.6,18.5898,5.80196,-0.194151,0.982352
282.2,18.608,5.79565,-0.197658,0.981982
282.8,18.6261,5.79551,-0.201769,0.981612
283.4,18.6443,5.79072,-0.206447,0.981241
284,18.6625,5.79112,-0.210754,0.980872
284.6,18.6807,5.79184,-0.215621,0.980502
285.2,18.6989,5.77811,-0.21923,0.980131
285.8,18.7171,5.77619,-0.223569,0.979751
286.4,18.7353,5.77464,-0.228367,0.979381
287,18.7534,5.75606,-0.233212,0.979011
287.6,18.7716,5.75248,-0.237573,0.978632
288.2,18.7898,5.73479,-0.242295,0.978261
288.8,18.808,5.73556,-0.247534,0.977882
289.4,18.8262,5.71629,-0.253264,0.977511
290,18.8444,5.70922,-0.259855,0.977132
290.6,18.8626,5.68883,-0.266102,0.976752
291.2,18.8807,5.68154,-0.271756,0.976371
291.8,18.8989,5.66583,-0.277744,0.976
292.4,18.917,5.65177,-0.283525,0.97562
293,18.9352,5.6294,-0.289802,0.97524
293.6,18.9534,5.61999,-0.294642,0.97486
294.2,18.9716,5.59111,-0.300797,0.97448
294.8,18.9898,5.57907,-0.307371,0.9741
295.4,19.008,5.54696,-0.314017,0.973711
296,19.0262,5.53315,-0.320524,0.973331
296.6,19.0443,5.51437,-0.327487,0.972952
297.2,19.0626,5.48995,-0.334721,0.97257
297.8,19.0807,5.46842,-0.342704,0.972181
298.4,19.0989,5.44886,-0.350881,0.971801
299,19.1171,5.41205,-0.358683,0.971411
299.6,19.1353,5.38643,-0.366373,0.971031
300.2,19.1535,5.36879,-0.37411,0.970641
300.8,19.1717,5.32179,-0.381922,0.970261
301.4,19.1899,5.30617,-0.38989,0.969872
302,19.2082,5.2754,-0.398364,0.969481
302.6,19.2264,5.24985,-0.406978,0.969091
303.2,19.2445,5.21704,-0.415937,0.968711
303.8,19.2627,5.1841,-0.42467,0.968321
304.4,19.2808,5.15213,-0.433663,0.967931
305,19.299,5.11943,-0.443356,0.967541
305.6,19.317,5.08767,-0.45295,0.967151
306.2,19.3353,5.04855,-0.463103,0.966751
306.8,19.3535,5.02491,-0.473039,0.966361
307.4,19.3716,4.98169,-0.482602,0.965971
308,19.39,4.95902,-0.492621,0.965581
308.6,19.4082,4.92437,-0.502904,0.965191
309.2,19.4264,4.89791,-0.513328,0.964791
309.8,19.4446,4.85935,-0.523801,0.964401
310.4,19.4628,4.8265,-0.534192,0.964001
311,19.4809,4.79279,-0.544927,0.963611
311.6,19.4991,4.75752,-0.556476,0.963211
312.2,19.5173,4.72309,-0.567691,0.962811
312.8,19.5355,4.68691,-0.578893,0.962421
313.4,19.5538,4.654,-0.589857,0.96202
314,19.572,4.63371,-0.600976,0.961621
314.6,19.5902,4.59613,-0.612921,0.961221
315.2,19.6084,4.56626,-0.62449,0.960831
315.8,19.6265,4.54171,-0.636065,0.960431
316.4,19.6447,4.5139,-0.647846,0.960031
317,19.6629,4.4805,-0.659899,0.959631
317.6,19.6811,4.46226,-0.67184,0.959231
318.2,19.6994,4.44182,-0.684037,0.958821
318.8,19.7176,4.41846,-0.696318,0.95842
319.4,19.7358,4.39085,-0.708875,0.95802
320,19.754,4.36964,-0.721314,0.957621
320.6,19.7723,4.35688,-0.733547,0.957211
321.2,19.7906,4.33778,-0.746244,0.95681
321.8,19.8089,4.32797,-0.759222,0.956411
322.4,19.8272,4.31281,-0.771935,0.956
323,19.8454,4.2931,-0.78485,0.955601
323.6,19.8637,4.28481,-0.797186,0.95519
324.2,19.8819,4.28011,-0.809711,0.954781
324.8,19.9002,4.27417,-0.822936,0.954381
325.4,19.9185,4.26443,-0.836213,0.95397
326,19.9367,4.27193,-0.849162,0.95356
326.6,19.9549,4.27262,-0.862054,0.953151
327.2,19.9731,4.2715,-0.87476,0.952741
327.8,19.9913,4.27008,-0.887889,0.952341
328.4,20.0096,4.27829,-0.900898,0.951931
329,20.0279,4.28854,-0.914225,0.951521
329.6,20.0461,4.30637,-0.92751,0.951111
330.2,20.0645,4.31235,-0.940308,0.950691
330.8,20.0828,4.32197,-0.953166,0.95028
331.4,20.1011,4.34558,-0.966506,0.94987
332,20.1194,4.3644,-0.979574,0.94946
332.6,20.1377,4.37479,-0.993134,0.949051
333.2,20.1561,4.40786,-1.00651,0.94863
333.8,20.1744,4.42972,-1.01988,0.94822
334.4,20.1927,4.44944,-1.03376,0.947801
335,20.2111,4.47371,-1.04713,0.94739
335.6,20.2292,4.50271,-1.06041,0.946971
336.2,20.2475,4.52963,-1.07304,0.94656
336.8,20.2658,4.56688,-1.08666,0.94614
337.4,20.2841,4.58976,-1.10029,0.94573
338,20.3026,4.61232,-1.11388,0.94531
338.6,20.321,4.64922,-1.12728,0.94489
339.2,20.3393,4.68247,-1.14085,0.94447
339.8,20.3578,4.71767,-1.15449,0.94406
340.4,20.3762,4.75045,-1.1687,0.94364
341,20.3945,4.78628,-1.18345,0.94322
341.6,20.413,4.82578,-1.197,0.9428
342.2,20.4313,4.86373,-1.2109,0.94238
342.8,20.4497,4.8931,-1.22501,0.94196
343.4,20.468,4.9307,-1.23942,0.94154
344,20.4864,4.96657,-1.25358,0.94112
344.6,20.5047,5.00835,-1.26727,0.94069
345.2,20.5231,5.04818,-1.28182,0.94027
345.8,20.5416,5.09097,-1.29674,0.93985
346.4,20.5599,5.12306,-1.31135,0.939429
347,20.5782,5.16326,-1.32621,0.939
347.6,20.5965,5.19894,-1.34125,0.93858
348.2,20.6147,5.24231,-1.35654,0.93815
348.8,20.6332,5.27871,-1.37232,0.93773
349.4,20.6518,5.3126,-1.38769,0.9373
350,20.6704,5.3497,-1.40401,0.93688
350.6,20.6889,5.39251,-1.42035,0.93645
351.2,20.7072,5.43425,-1.43635,0.93602
351.8,20.7256,5.47797,-1.45226,0.9356
352.4,20.744,5.52182,-1.46834,0.93517
353,20.7625,5.55948,-1.48477,0.93474
353.6,20.7811,5.59727,-1.50151,0.93431
354.2,20.7995,5.63766,-1.51796,0.933889
354.8,20.818,5.68163,-1.53524,0.933459
355.4,20.8365,5.71772,-1.55277,0.93303
356,20.855,5.76184,-1.57054,0.9326
356.6,20.8735,5.80066,-1.58842,0.932169
357.2,20.892,5.84241,-1.60597,0.931739
357.8,20.9105,5.87733,-1.62426,0.9313
358.4,20.9289,5.91677,-1.64262,0.93087
359,20.9474,5.95073,-1.66138,0.93044
359.6,20.9659,6.00527,-1.68087,0.93001
360.2,20.9844,6.034,-1.7001,0.929579
360.8,21.0029,6.07025,-1.71935,0.92914
361.4,21.0214,6.10813,-1.73871,0.92871
362,21.0399,6.13753,-1.75854,0.928279
362.6,21.0584,6.17297,-1.77898,0.92784
363.2,21.0771,6.20227,-1.79893,0.927409
363.8,21.0956,6.2329,-1.81934,0.92697
364.4,21.1141,6.26452,-1.84015,0.926539
365,21.1327,6.28912,-1.86101,0.926101
365.6,21.1512,6.3139,-1.88253,0.92566
366.2,21.1697,6.33685,-1.90328,0.925229
366.8,21.1883,6.35191,-1.92444,0.924791
367.4,21.2068,6.37059,-1.94599,0.924349
368,21.2254,6.38776,-1.96755,0.92391
368.6,21.2439,6.40061,-1.9897,0.923479
369.2,21.2626,6.41411,-2.01208,0.923039
369.8,21.2811,6.41201,-2.03458,0.922601
370.4,21.2997,6.41528,-2.05724,0.922161
371,21.3182,6.40597,-2.07942,0.921721
371.6,21.3368,6.40573,-2.10259,0.921281
372.2,21.3554,6.38021,-2.12529,0.920841
372.8,21.374,6.36244,-2.14769,0.920399
373.4,21.3927,6.34533,-2.17088,0.919959
374,21.4113,6.31984,-2.19395,0.919519
374.6,21.4298,6.27824,-2.21728,0.919069
375.2,21.4484,6.24293,-2.24011,0.918631
375.8,21.4669,6.20037,-2.26298,0.918189
376.4,21.4855,6.14662,-2.28598,0.917739
377,21.5041,6.09235,-2.30866,0.9173
377.6,21.5227,6.02631,-2.33139,0.916859
378.2,21.5413,5.95375,-2.35338,0.916409
378.8,21.5599,5.87425,-2.37496,0.915969
379.4,21.5785,5.79396,-2.39735,0.915519
380,21.5971,5.70553,-2.41995,0.915079
380.6,21.6157,5.59767,-2.4423,0.91463
381.2,21.6343,5.50129,-2.46344,0.914189
381.8,21.6529,5.37701,-2.48386,0.913741
382.4,21.6716,5.25719,-2.5044,0.91329
383,21.6901,5.12742,-2.52422,0.912849
383.6,21.7087,4.99129,-2.54346,0.912399
384.2,21.7273,4.84408,-2.56213,0.91195
384.8,21.7458,4.69219,-2.58041,0.9115
385.4,21.7643,4.54162,-2.59912,0.911049
386,21.7829,4.38628,-2.6172,0.910609
386.6,21.8015,4.22168,-2.63427,0.910159
387.2,21.8202,4.05745,-2.65126,0.909709
387.8,21.8388,3.88794,-2.66598,0.909259
388.4,21.8574,3.72615,-2.68068,0.908809
389,21.876,3.55585,-2.69481,0.908359
389.6,21.8946,3.38505,-2.70804,0.907909
390.2,21.9131,3.23641,-2.72057,0.90745
390.8,21.9317,3.07409,-2.73149,0.907
391.4,21.9503,2.92765,-2.74186,0.90655
392,21.9689,2.78488,-2.75163,0.906099
392.6,21.9877,2.65727,-2.76106,0.905649
393.2,22.0062,2.51987,-2.76974,0.90519
393.8,22.0248,2.40877,-2.77731,0.904738
394.4,22.0434,2.30841,-2.78384,0.904289
395,22.062,2.2115,-2.78987,0.90383
395.6,22.0806,2.11875,-2.79558,0.903379
396.2,22.0993,2.0404,-2.80109,0.90292
396.8,22.1179,1.97331,-2.80568,0.902468
397.4,22.1364,1.89577,-2.81021,0.90201
398,22.155,1.83116,-2.81492,0.901559
398.6,22.1736,1.7738,-2.8193,0.9011
399.2,22.1923,1.7231,-2.82294,0.90065
399.8,22.211,1.66455,-2.82638,0.900188
400.4,22.2298,1.61151,-2.8299,0.89973
401,22.2484,1.58566,-2.83261,0.89928
401.6,22.2672,1.52722,-2.83621,0.898818
402.2,22.2858,1.49577,-2.83835,0.89836
402.8,22.3044,1.46402,-2.84091,0.8979
403.4,22.3231,1.41373,-2.84304,0.89745
404,22.3417,1.38314,-2.84579,0.89699
404.6,22.3604,1.35581,-2.84872,0.89653
405.2,22.3791,1.33394,-2.85117,0.896068
405.8,22.3979,1.29317,-2.85394,0.895608
406.4,22.4166,1.27217,-2.85639,0.895148
407,22.4352,1.2345,-2.85915,0.894688
407.6,22.4539,1.21174,-2.86145,0.894228
408.2,22.4726,1.18032,-2.86315,0.89377
408.8,22.4913,1.15857,-2.86538,0.89331
409.4,22.51,1.12684,-2.86753,0.892849
410,22.5287,1.10946,-2.86965,0.89238
410.6,22.5475,1.08651,-2.87183,0.891919
411.2,22.5663,1.06039,-2.87362,0.891458
411.8,22.585,1.03765,-2.87571,0.891
412.4,22.6038,1.0199,-2.87755,0.89053
413,22.6226,1.00858,-2.87866,0.890069
413.6,22.6414,0.98902,-2.88027,0.889609
414.2,22.6602,0.971909,-2.88206,0.88914
414.8,22.6789,0.950016,-2.88452,0.888678
415.4,22.6977,0.940654,-2.88684,0.888219
416,22.7165,0.909896,-2.88884,0.887749
416.6,22.7352,0.901152,-2.89105,0.887289
417.2,22.754,0.870712,-2.89326,0.886819
417.8,22.7729,0.864402,-2.89486,0.886359
418.4,22.7917,0.851016,-2.89663,0.885889
419,22.8105,0.832873,-2.89879,0.88542
419.6,22.8293,0.826177,-2.90104,0.884959
420.2,22.848,0.816318,-2.90391,0.884489
420.8,22.8668,0.801457,-2.90683,0.884029
421.4,22.8856,0.786964,-2.90806,0.883559
422,22.9044,0.764559,-2.9093,0.883089
422.6,22.9233,0.761084,-2.91045,0.88262
423.2,22.9422,0.748206,-2.91234,0.882159
423.8,22.961,0.739558,-2.91357,0.881689
424.4,22.9799,0.723504,-2.91557,0.881219
425,22.9987,0.710543,-2.91748,0.880749
425.6,23.0176,0.706167,-2.91927,0.880279
426.2,23.0365,0.690841,-2.92041,0.879809
426.8,23.0553,0.686133,-2.92197,0.879339
427.4,23.0741,0.676894,-2.92375,0.878869
428,23.0929,0.668763,-2.92545,0.878399
428.6,23.1117,0.671159,-2.92704,0.877929
429.2,23.1306,0.662776,-2.92892,0.877459
429.8,23.1494,0.656242,-2.93121,0.876989
430.4,23.1683,0.648679,-2.93345,0.876519
431,23.1872,0.642319,-2.93525,0.876049
431.6,23.2061,0.645759,-2.93698,0.875579
432.2,23.225,0.637253,-2.93879,0.875109
432.8,23.2438,0.643456,-2.93991,0.87463
433.4,23.2627,0.63715,-2.94142,0.874159
434,23.2815,0.640731,-2.94308,0.873689
434.6,23.3002,0.638834,-2.94491,0.873219
435.2,23.319,0.64511,-2.94613,0.87274
435.8,23.3379,0.642619,-2.94727,0.872269
436.4,23.3567,0.635372,-2.94858,0.871799
437,23.3758,0.6516,-2.95045,0.87132
437.6,23.3948,0.639963,-2.95219,0.870849
438.2,23.4138,0.652349,-2.95531,0.870379
438.8,23.4327,0.656795,-2.95693,0.869899
439.4,23.4517,0.657878,-2.95865,0.869429
440,23.4706,0.67078,-2.96022,0.868949
440.6,23.4895,0.669357,-2.96067,0.868479
441.2,23.5084,0.682091,-2.9608,0.867999
441.8,23.5273,0.692094,-2.96288,0.867529
442.4,23.5462,0.692582,-2.96483,0.867049
443,23.5652,0.692869,-2.96676,0.866569
443.6,23.5841,0.712157,-2.96845,0.866099
444.2,23.6031,0.71377,-2.96943,0.865619
444.8,23.622,0.732015,-2.97013,0.86514
445.4,23.6409,0.740624,-2.9719,0.864669
446,23.6598,0.747654,-2.97271,0.864189
446.6,23.6788,0.758663,-2.97388,0.863709
447.2,23.6978,0.77823,-2.97543,0.863239
447.8,23.7168,0.788024,-2.97705,0.862759
448.4,23.7358,0.796017,-2.97767,0.862279
449,23.7547,0.803981,-2.97856,0.861799
449.6,23.7736,0.817065,-2.98029,0.861319
450.2,23.7925,0.826065,-2.98181,0.860839
450.8,23.8115,0.847787,-2.98279,0.860369
451.4,23.8305,0.844423,-2.9838,0.859889
452,23.8495,0.874418,-2.98521,0.859409
452.6,23.8686,0.874487,-2.98745,0.858929
453.2,23.8875,0.892816,-2.98975,0.858449
453.8,23.9065,0.904926,-2.99088,0.857969
454.4,23.9254,0.920087,-2.99154,0.857489
455,23.9444,0.931582,-2.993,0.857009
455.6,23.9634,0.952484,-2.99445,0.856529
456.2,23.9824,0.970436,-2.99532,0.856049
456.8,24.0014,0.971938,-2.99655,0.855559
457.4,24.0204,0.987805,-2.9972,0.855079
458,24.0394,1.00138,-2.99884,0.854599
458.6,24.0585,1.02067,-2.99939,0.854119
459.2,24.0775,1.02507,-3.00015,0.853639
459.8,24.0966,1.04523,-3.00152,0.853159
460.4,24.1157,1.07021,-3.00205,0.852668
461,24.1346,1.07702,-3.00357,0.852189
461.6,24.1536,1.08385,-3.00519,0.851709
462.2,24.1726,1.11062,-3.00684,0.851229
462.8,24.1916,1.11758,-3.00746,0.850739
463.4,24.2107,1.14585,-3.00842,0.850259
464,24.2298,1.15527,-3.01005,0.849779
464.6,24.2489,1.16442,-3.01234,0.849289
465.2,24.268,1.18695,-3.01338,0.848809
465.8,24.2871,1.20431,-3.01437,0.848329
466.4,24.3062,1.21945,-3.01595,0.847839
467,24.3252,1.22541,-3.01694,0.847359
467.6,24.3442,1.25146,-3.01801,0.846869
468.2,24.3633,1.26222,-3.01907,0.846389
468.8,24.3823,1.26696,-3.02036,0.845898
469.4,24.4014,1.29341,-3.02116,0.845419
470,24.4204,1.28973,-3.02247,0.844928
470.6,24.4395,1.32337,-3.02414,0.844449
471.2,24.4585,1.32818,-3.02443,0.843959
471.8,24.4776,1.33363,-3.02548,0.843479
472.4,24.4967,1.35066,-3.02562,0.842989
473,24.5159,1.36561,-3.02681,0.842508
473.6,24.535,1.36037,-3.02686,0.842019
474.2,24.5542,1.39958,-3.02811,0.841529
474.8,24.5733,1.39585,-3.02813,0.841049
475.4,24.5924,1.42223,-3.02954,0.840559
476,24.6114,1.42842,-3.03118,0.840069
476.6,24.6305,1.43455,-3.03213,0.839588
477.2,24.6496,1.44103,-3.03303,0.839099
477.8,24.6687,1.448,-3.0346,0.838609
478.4,24.6878,1.45656,-3.0355,0.838119
479,24.7069,1.48109,-3.03599,0.837638
479.6,24.726,1.49526,-3.03744,0.837149
480.2,24.7452,1.49518,-3.03741,0.836659
480.8,24.7643,1.51668,-3.03901,0.836169
481.4,24.7834,1.5151,-3.04025,0.835678
482,24.8026,1.52218,-3.04061,0.835198
482.6,24.8217,1.53009,-3.04205,0.834709
483.2,24.8409,1.53855,-3.04213,0.834219
483.8,24.8601,1.53688,-3.04344,0.833729
484.4,24.8792,1.55352,-3.04499,0.833239
485,24.8984,1.5627,-3.04525,0.832749
485.6,24.9175,1.57021,-3.04655,0.832259
486.2,24.9367,1.57892,-3.04668,0.831769
486.8,24.9559,1.58907,-3.04799,0.831279
487.4,24.975,1.59669,-3.04814,0.830789
488,24.9942,1.61004,-3.04926,0.830299
488.6,25.0134,1.60946,-3.04931,0.829809
489.2,25.0326,1.61707,-3.05081,0.829319
489.8,25.0518,1.62169,-3.0508,0.828829
490.4,25.071,1.61945,-3.05183,0.828339
491,25.0901,1.63646,-3.05181,0.827849
491.6,25.1091,1.64819,-3.05289,0.827359
492.2,25.1282,1.65875,-3.05321,0.826869
492.8,25.1474,1.66834,-3.05435,0.826378
493.4,25.1667,1.67189,-3.05469,0.825888
494,25.186,1.67553,-3.05618,0.825388
494.6,25.2052,1.68281,-3.05711,0.824899
495.2,25.2244,1.69527,-3.05762,0.824409
495.8,25.2437,1.68999,-3.05893,0.823919
496.4,25.2629,1.69734,-3.05909,0.823429
497,25.282,1.69539,-3.06087,0.822938
497.6,25.3013,1.70432,-3.06192,0.822439
498.2,25.3205,1.72566,-3.06262,0.821949
498.8,25.3398,1.718,-3.06407,0.821459
499.4,25.3591,1.72645,-3.06409,0.820968
500,25.3784,1.72763,-3.06535,0.820469
500.6,25.3976,1.73568,-3.06539,0.819979
501.2,25.4168,1.7427,-3.06537,0.819488
501.8,25.4361,1.74813,-3.06661,0.818988
502.4,25.4553,1.74855,-3.06672,0.818499
503,25.4746,1.76011,-3.06723,0.818009
503.6,25.4937,1.75549,-3.06814,0.817508
504.2,25.5127,1.76604,-3.06882,0.817019
504.8,25.5318,1.76978,-3.06967,0.816528
505.4,25.5512,1.78054,-3.07054,0.816028
506,25.5707,1.7777,-3.07099,0.815539
506.6,25.5901,1.78848,-3.07175,0.815048
507.2,25.6096,1.78591,-3.0723,0.814549
507.8,25.6288,1.79661,-3.07295,0.814058
508.4,25.6481,1.80418,-3.07383,0.813559
509,25.6673,1.80852,-3.07393,0.813069
509.6,25.6866,1.82546,-3.07516,0.812568
510.2,25.7059,1.82078,-3.07516,0.812079
510.8,25.7251,1.84189,-3.07659,0.811578
511.4,25.7444,1.8466,-3.07656,0.811089
512,25.7637,1.85004,-3.07785,0.810588
512.6,25.783,1.85986,-3.07786,0.810099
513.2,25.8022,1.87913,-3.07951,0.809598
513.8,25.8213,1.88062,-3.08001,0.809109
514.4,25.8406,1.88768,-3.08117,0.808608
515,25.86,1.89958,-3.08164,0.808119
515.6,25.8794,1.90715,-3.08154,0.807619
516.2,25.8989,1.91227,-3.08284,0.807128
516.8,25.9181,1.91412,-3.08284,0.806629
517.4,25.9374,1.92404,-3.08367,0.806128
518,25.9567,1.92976,-3.08418,0.805639
518.6,25.976,1.94511,-3.08659,0.805138
519.2,25.9953,1.94584,-3.08679,0.804648
519.8,26.0146,1.9638,-3.0873,0.804149
520.4,26.0339,1.95663,-3.08818,0.803648
521,26.0532,1.98279,-3.08967,0.803158
521.6,26.0726,1.98916,-3.08964,0.802659
522.2,26.0919,1.99022,-3.09022,0.802158
522.8,26.1113,2.00071,-3.09094,0.801669
523.4,26.1306,2.00748,-3.09096,0.801169
524,26.1499,2.00751,-3.09169,0.800668
524.6,26.1692,2.01992,-3.09227,0.800178
525.2,26.1885,2.02576,-3.09226,0.799679
525.8,26.2079,2.03145,-3.09341,0.799178
526.4,26.2273,2.03655,-3.09358,0.798688
527,26.2466,2.04588,-3.09434,0.798189
527.6,26.2659,2.05207,-3.09501,0.797689
528.2,26.2852,2.06636,-3.09632,0.797188
528.8,26.3045,2.06142,-3.09634,0.796698
529.4,26.324,2.07487,-3.09752,0.796199
530,26.3434,2.07768,-3.09759,0.795699
530.6,26.3628,2.08602,-3.09912,0.795198
531.2,26.3822,2.08371,-3.09916,0.794708
531.8,26.4016,2.09111,-3.10052,0.794208
532.4,26.4209,2.09628,-3.10049,0.793709
533,26.4403,2.11063,-3.10049,0.793209
533.6,26.4597,2.10827,-3.10051,0.792708
534.2,26.4791,2.12188,-3.10181,0.792218
534.8,26.4985,2.13259,-3.10181,0.791718
535.4,26.5179,2.12596,-3.10268,0.791219
536,26.5373,2.14162,-3.10325,0.790719
536.6,26.5566,2.14198,-3.10323,0.790219
537.2,26.5759,2.15496,-3.10421,0.789718
537.8,26.5954,2.15809,-3.10422,0.789218
538.4,26.6147,2.15132,-3.10477,0.788728
539,26.6341,2.15198,-3.10554,0.788228
539.6,26.6535,2.16514,-3.10556,0.787729
540.2,26.673,2.17731,-3.10698,0.787229
540.8,26.6924,2.18991,-3.10698,0.786729
541.4,26.7119,2.19273,-3.10825,0.786228
542,26.7314,2.18211,-3.10828,0.785728
542.6,26.7508,2.19567,-3.10828,0.785228
543.2,26.7702,2.20303,-3.10825,0.784728
543.8,26.7896,2.19925,-3.11013,0.784238
544.4,26.809,2.20405,-3.11094,0.783738
545,26.8283,2.20599,-3.11192,0.783238
545.6,26.8477,2.21048,-3.11236,0.782738
546.2,26.8671,2.21532,-3.11323,0.782239
546.8,26.8866,2.21618,-3.11263,0.781739
547.4,26.906,2.21967,-3.11244,0.781239
548,26.9255,2.23014,-3.11376,0.780739
548.6,26.9449,2.2223,-3.11377,0.780239
549.2,26.9644,2.23034,-3.11399,0.779739
549.8,26.9839,2.23326,-3.11509,0.779239
550.4,27.0034,2.24301,-3.11507,0.778739
551,27.0229,2.24137,-3.11631,0.778238
551.6,27.0423,2.23823,-3.11776,0.777738
552.2,27.0618,2.24493,-3.11772,0.777238
552.8,27.0812,2.2515,-3.11771,0.776738
553.4,27.1006,2.23836,-3.11882,0.776238
554,27.1201,2.24388,-3.11908,0.775738
554.6,27.1396,2.25382,-3.11792,0.775238
555.2,27.1591,2.2532,-3.11773,0.774738
555.8,27.1786,2.25166,-3.119,0.774238
556.4,27.1981,2.24682,-3.11903,0.773738
557,27.2176,2.25253,-3.11949,0.773238
557.6,27.2371,2.24652,-3.12034,0.772738
558.2,27.2566,2.24632,-3.12033,0.772238
558.8,27.2761,2.24875,-3.12156,0.771739
559.4,27.2956,2.24024,-3.12167,0.771239
560,27.3151,2.2436,-3.12263,0.770739
560.6,27.3346,2.25051,-3.12298,0.770239
561.2,27.3541,2.24479,-3.12308,0.769739
561.8,27.3736,2.23718,-3.12429,0.769239
562.4,27.393,2.23733,-3.1243,0.768739
563,27.4125,2.23965,-3.12528,0.768239
563.6,27.432,2.23812,-3.12561,0.767739
564.2,27.4514,2.23902,-3.12561,0.767238
564.8,27.4709,2.23292,-3.12561,0.766738
565.4,27.4904,2.22603,-3.1264,0.766238
566,27.5098,2.23251,-3.12693,0.765738
566.6,27.5295,2.24156,-3.12693,0.765238
567.2,27.549,2.23783,-3.12718,0.764738
567.8,27.5685,2.25036,-3.12823,0.764228
568.4,27.5882,2.22944,-3.12825,0.763728
569,27.6077,2.23367,-3.12913,0.763228
569.6,27.6273,2.21794,-3.12956,0.762728
570.2,27.6469,2.22941,-3.12962,0.762228
570.8,27.6665,2.22915,-3.13088,0.761729
571.4,27.686,2.23363,-3.13088,0.761229
572,27.7056,2.22785,-3.13184,0.760729
572.6,27.7252,2.23402,-3.13219,0.760229
573.2,27.7448,2.23545,-3.13219,0.759728
573.8,27.7644,2.23193,-3.13241,0.759228
574.4,27.784,2.22463,-3.13352,0.758728
575,27.8035,2.21953,-3.13351,0.758228
575.6,27.8231,2.21854,-3.13351,0.757718
576.2,27.8426,2.22698,-3.13349,0.757218
576.8,27.8622,2.22632,-3.1347,0.756718
577.4,27.8818,2.22626,-3.13483,0.756218
578,27.9014,2.21959,-3.13484,0.755719
578.6,27.9209,2.22276,-3.13569,0.755219
579.2,27.9405,2.22765,-3.13614,0.754719
579.8,27.96,2.22733,-3.13654,0.754219
580.4,27.9795,2.23124,-3.13757,0.753718
581,27.9991,2.22992,-3.13757,0.753218
581.6,28.0188,2.22867,-3.13887,0.752718
582.2,28.0384,2.23744,-3.13888,0.752218
582.8,28.058,2.2349,-3.13888,0.751708
583.4,28.0776,2.23711,-3.13909,0.751208
584,28.0972,2.23678,-3.14021,0.750708
584.6,28.1168,2.23641,-3.1402,0.750208
585.2,28.1365,2.23385,-3.14093,0.749709
585.8,28.1561,2.24198,-3.14152,0.749209
586.4,28.1757,2.24506,-3.14152,0.748709
587,28.1953,2.24787,-3.14152,0.748208
587.6,28.2148,2.23351,-3.14168,0.747708
588.2,28.2344,2.23598,-3.14282,0.747208
588.8,28.2541,2.24599,-3.1428,0.746708
589.4,28.2737,2.25744,-3.14223,0.746198
590,28.2934,2.24322,-3.14349,0.745698
590.6,28.313,2.23626,-3.14386,0.745198
591.2,28.3326,2.24982,-3.14481,0.744698
591.8,28.3522,2.26034,-3.14481,0.744199
592.4,28.3719,2.26634,-3.14481,0.743699
593,28.3915,2.25482,-3.14505,0.743199
593.6,28.4111,2.26779,-3.14613,0.742699
594.2,28.4308,2.27412,-3.14612,0.742198
594.8,28.4504,2.27851,-3.14612,0.741698
595.4,28.47,2.27534,-3.14628,0.741198
596,28.4897,2.28026,-3.14746,0.740698
596.6,28.5093,2.27211,-3.14744,0.740198
597.2,28.529,2.28221,-3.14754,0.739688
597.8,28.5486,2.29361,-3.14877,0.739188
598.4,28.5683,2.28309,-3.14875,0.738688
599,28.5879,2.28977,-3.14875,0.738188
599.6,28.6076,2.28767,-3.14875,0.737688
600.2,28.6273,2.29487,-3.14922,0.737188
600.8,28.647,2.30105,-3.15007,0.736689
601.4,28.6667,2.3009,-3.15007,0.736189
602,28.6863,2.29661,-3.15006,0.735689
602.6,28.706,2.30992,-3.1514,0.735189
603.2,28.7258,2.30494,-3.15139,0.734689
603.8,28.7454,2.31795,-3.15139,0.734189
604.4,28.7652,2.30612,-3.15196,0.733689
605,28.7848,2.31298,-3.15269,0.733188
605.6,28.8045,2.31119,-3.1527,0.732688
606.2,28.8242,2.31687,-3.1527,0.732188
606.8,28.8439,2.3034,-3.15289,0.731688
607.4,28.8636,2.31765,-3.15404,0.731188
608,28.8833,2.32185,-3.15397,0.730688
608.6,28.903,2.32965,-3.15539,0.730188
609.2,28.9226,2.33482,-3.15534,0.729688
609.8,28.9423,2.34997,-3.15534,0.729188
610.4,28.962,2.35332,-3.15554,0.728688
611,28.9817,2.36455,-3.15664,0.728188
611.6,29.0014,2.35581,-3.15665,0.727688
612.2,29.0212,2.36474,-3.1567,0.727188
612.8,29.0409,2.36911,-3.15798,0.726688
613.4,29.0607,2.37647,-3.15797,0.726188
614,29.0804,2.38013,-3.15841,0.725688
614.6,29.1001,2.38694,-3.15928,0.725188
615.2,29.1198,2.37928,-3.15928,0.724688
615.8,29.1395,2.40394,-3.15928,0.724188
616.4,29.1592,2.40057,-3.15962,0.723688
617,29.179,2.40758,-3.1606,0.723188
617.6,29.1987,2.41476,-3.1606,0.722688
618.2,29.2185,2.41162,-3.1606,0.722188
618.8,29.2382,2.41759,-3.16149,0.721689
619.4,29.2577,2.43117,-3.16195,0.721189
620,29.2774,2.42979,-3.16242,0.720689
620.6,29.2971,2.43372,-3.16328,0.720189
621.2,29.317,2.44129,-3.16421,0.719689
621.8,29.3369,2.44613,-3.16417,0.719189
622.4,29.3567,2.4477,-3.16558,0.718688
623,29.3765,2.45044,-3.16561,0.718188
623.6,29.3962,2.46754,-3.16434,0.717688
624.2,29.4159,2.46855,-3.1649,0.717188
624.8,29.4356,2.47134,-3.16554,0.716698
625.4,29.4553,2.46551,-3.16555,0.716198
626,29.4751,2.477,-3.16556,0.715698
626.6,29.4948,2.49652,-3.16648,0.715199
627.2,29.5146,2.48539,-3.16686,0.714699
627.8,29.5344,2.50057,-3.16686,0.714199
628.4,29.5542,2.5006,-3.16686,0.713698
629,29.5739,2.50166,-3.16686,0.713198
629.6,29.5937,2.51564,-3.16686,0.712698
630.2,29.6135,2.51449,-3.16764,0.712208
630.8,29.6332,2.5187,-3.16818,0.711708
631.4,29.653,2.52891,-3.16818,0.711209
632,29.6728,2.5385,-3.16818,0.710709
632.6,29.6926,2.5567,-3.16819,0.710208
633.2,29.7124,2.55625,-3.16949,0.709708
633.8,29.7322,2.55383,-3.16949,0.709218
634.4,29.7519,2.56897,-3.17043,0.708718
635,29.7717,2.57074,-3.17081,0.708219
635.6,29.7914,2.5695,-3.17054,0.707719
636.2,29.8112,2.5827,-3.16981,0.707218
636.8,29.8311,2.59004,-3.17031,0.706718
637.4,29.8509,2.59958,-3.17114,0.706228
638,29.8708,2.60926,-3.17195,0.705729
638.6,29.8906,2.61665,-3.17253,0.705229
639.2,29.9104,2.63955,-3.17391,0.704728
639.8,29.9302,2.64804,-3.17399,0.704238
640.4,29.95,2.64389,-3.17399,0.703739
641,29.9698,2.65072,-3.17399,0.703239
641.6,29.9896,2.66174,-3.17399,0.702738
642.2,30.0092,2.69331,-3.174,0.702248
642.8,30.0289,2.69145,-3.17502,0.701749
643.4,30.0487,2.69758,-3.1753,0.701249
644,30.0685,2.70895,-3.1753,0.700748
644.6,30.0884,2.71989,-3.1753,0.700258
645.2,30.1081,2.73748,-3.17529,0.699759
645.8,30.1279,2.73464,-3.17644,0.699258
646.4,30.1478,2.75687,-3.17662,0.698768
647,30.1676,2.774,-3.17662,0.698269
647.6,30.1872,2.78683,-3.17662,0.697768
648.2,30.2069,2.78193,-3.17662,0.697278
648.8,30.2267,2.80594,-3.17769,0.696779
649.4,30.2466,2.80608,-3.17794,0.696278
650,30.2666,2.81551,-3.17833,0.695788
650.6,30.2863,2.80803,-3.17925,0.695289
651.2,30.3061,2.83109,-3.17924,0.694788
651.8,30.3259,2.85214,-3.1791,0.694298
652.4,30.3459,2.84717,-3.17993,0.693799
653,30.3657,2.84004,-3.18024,0.693298
653.6,30.3855,2.8607,-3.18055,0.692809
654.2,30.4054,2.85561,-3.18157,0.692308
654.8,30.4251,2.87084,-3.18154,0.691818
655.4,30.445,2.8748,-3.18116,0.691319
656,30.4649,2.87577,-3.18192,0.690828
656.6,30.4847,2.87545,-3.18188,0.690329
657.2,30.5047,2.88396,-3.18188,0.689828
657.8,30.5246,2.87608,-3.18188,0.689339
658.4,30.5445,2.87168,-3.1821,0.688838
659,30.5643,2.87339,-3.18321,0.688349
659.6,30.5842,2.87324,-3.1832,0.687848
660.2,30.604,2.87325,-3.1832,0.687359
660.8,30.6239,2.87372,-3.1832,0.686858
661.4,30.6438,2.86291,-3.1832,0.686369
662,30.6637,2.85674,-3.18321,0.685868
662.6,30.6835,2.86435,-3.18435,0.685379
663.2,30.7034,2.85658,-3.18451,0.684878
663.8,30.7231,2.85105,-3.18451,0.684389
664.4,30.743,2.84145,-3.18452,0.683888
665,30.7629,2.82464,-3.18561,0.683399
665.6,30.7829,2.81512,-3.18589,0.682908
666.2,30.8029,2.81766,-3.18718,0.682409
666.8,30.8228,2.80715,-3.1871,0.681919
667.4,30.8427,2.8138,-3.18853,0.681418
668,30.8626,2.80301,-3.18741,0.680929
668.6,30.8825,2.80012,-3.18715,0.680438
669.2,30.9024,2.78926,-3.18715,0.679939
669.8,30.9224,2.78272,-3.18715,0.679449
670.4,30.9423,2.76783,-3.18715,0.678948
671,30.9622,2.76847,-3.18724,0.678459
671.6,30.982,2.76062,-3.18848,0.677969
672.2,31.0019,2.76131,-3.18846,0.677468
672.8,31.0218,2.75818,-3.18878,0.676979
673.4,31.0417,2.75542,-3.18886,0.676489
674,31.0617,2.7584,-3.19013,0.675998
674.6,31.0815,2.74014,-3.19011,0.675499
675.2,31.1014,2.74719,-3.19011,0.675009
675.8,31.1213,2.74073,-3.19011,0.674518
676.4,31.1412,2.73702,-3.1901,0.674018
677,31.1611,2.73849,-3.19121,0.673529
677.6,31.1811,2.72997,-3.1898,0.673039
678.2,31.201,2.74979,-3.18986,0.672548
678.8,31.2208,2.75351,-3.19012,0.672048
679.4,31.2407,2.74824,-3.19012,0.671559
680,31.2606,2.75067,-3.19012,0.671069
680.6,31.2806,2.74265,-3.19095,0.670579
681.2,31.3005,2.75724,-3.19143,0.670088
681.8,31.3205,2.76709,-3.19143,0.669588
682.4,31.3405,2.7714,-3.19143,0.669098
683,31.3604,2.77554,-3.19143,0.668609
683.6,31.3803,2.78054,-3.19142,0.668119
684.2,31.4003,2.78115,-3.19134,0.667629
684.8,31.4202,2.78507,-3.19272,0.667139
685.4,31.4401,2.78186,-3.19276,0.666648
686,31.46,2.80689,-3.19419,0.666158
686.6,31.4798,2.80217,-3.19417,0.665658
687.2,31.4997,2.79301,-3.19417,0.665168
687.8,31.5196,2.79164,-3.19417,0.664678
688.4,31.5396,2.80322,-3.19454,0.664189
689,31.5594,2.8126,-3.19548,0.663699
689.6,31.5793,2.80739,-3.19545,0.663209
690.2,31.5992,2.80286,-3.19483,0.662719
690.8,31.6192,2.81928,-3.19451,0.662229
691.4,31.639,2.80501,-3.19449,0.661739
692,31.6589,2.79701,-3.19448,0.661249
692.6,31.6788,2.81234,-3.19581,0.660759
693.2,31.6988,2.81412,-3.19581,0.660269
693.8,31.7187,2.82774,-3.19581,0.659779
694.4,31.7387,2.81939,-3.19581,0.659289
695,31.7586,2.81952,-3.1964,0.658798
695.6,31.7785,2.81955,-3.19713,0.658308
696.2,31.7984,2.8249,-3.19713,0.657828
696.8,31.8183,2.82798,-3.19713,0.657338
697.4,31.8382,2.82252,-3.19713,0.656849
698,31.8582,2.8273,-3.19713,0.656359
698.6,31.8781,2.82935,-3.19713,0.655869
699.2,31.8981,2.82226,-3.19713,0.655379
699.8,31.9179,2.83363,-3.19713,0.654889
700.4,31.9379,2.826,-3.19713,0.654398
701,31.9578,2.82581,-3.19763,0.653919
701.6,31.9777,2.8308,-3.19808,0.653429
702.2,31.9977,2.82108,-3.19812,0.652939
702.8,32.0176,2.82294,-3.19812,0.652449
703.4,32.0375,2.83153,-3.19812,0.651968
704,32.0575,2.82196,-3.19809,0.651479
704.6,32.0774,2.84355,-3.19764,0.650989
705.2,32.0974,2.82248,-3.19814,0.650499
705.8,32.1174,2.83639,-3.19812,0.650018
706.4,32.1373,2.83634,-3.19812,0.649529
707,32.1572,2.83974,-3.19812,0.649039
707.6,32.1772,2.83729,-3.19812,0.648548
708.2,32.197,2.84479,-3.19812,0.648069
708.8,32.217,2.83477,-3.19812,0.647579
709.4,32.237,2.8269,-3.19829,0.647088
710,32.257,2.8366,-3.19944,0.646609
710.6,32.277,2.83196,-3.19943,0.646119
711.2,32.297,2.82658,-3.19943,0.645638
711.8,32.3169,2.82284,-3.19943,0.645149
712.4,32.3368,2.82548,-3.19943,0.644659
713,32.3568,2.82864,-3.19938,0.644179
713.6,32.3768,2.81339,-3.20078,0.643689
714.2,32.3968,2.80869,-3.20075,0.643209
714.8,32.4168,2.82527,-3.20075,0.642719
715.4,32.4368,2.81184,-3.20075,0.642239
716,32.4569,2.80722,-3.20075,0.641749
716.6,32.4769,2.81636,-3.20075,0.641269
717.2,32.4968,2.81648,-3.20075,0.640779
717.8,32.5168,2.80723,-3.20073,0.640299
718.4,32.5368,2.79877,-3.202,0.639809
719,32.5568,2.8032,-3.20188,0.639329
719.6,32.5768,2.80968,-3.2007,0.638839
720.2,32.5968,2.78975,-3.20075,0.638359
720.8,32.6168,2.80695,-3.20075,0.637868
721.4,32.6368,2.79267,-3.20075,0.637389
722,32.6568,2.77154,-3.20075,0.636909
722.6,32.6769,2.79639,-3.20075,0.636419
723.2,32.6969,2.7974,-3.20076,0.635939
723.8,32.7171,2.78701,-3.20153,0.635459
724.4,32.7371,2.76591,-3.20213,0.634969
725,32.7571,2.7768,-3.20311,0.634489
725.6,32.7771,2.75777,-3.20305,0.634009
726.2,32.7972,2.76335,-3.20303,0.633519
726.8,32.8172,2.77248,-3.20432,0.633039
727.4,32.8372,2.7656,-3.20437,0.632559
728,32.8573,2.74488,-3.20437,0.632079
728.6,32.8774,2.75508,-3.20437,0.631589
729.2,32.8974,2.75787,-3.20441,0.631109
729.8,32.9174,2.7487,-3.20336,0.630629
730.4,32.9374,2.74686,-3.20306,0.630149
731,32.9575,2.7316,-3.20305,0.629669
731.6,32.9776,2.73566,-3.20305,0.629179
732.2,32.9977,2.71156,-3.20304,0.628699
732.8,33.0178,2.71149,-3.2028,0.628219
733.4,33.0379,2.7077,-3.20298,0.627739
734,33.0579,2.70326,-3.20306,0.627259
734.6,33.0779,2.70944,-3.20306,0.626779
735.2,33.0979,2.70331,-3.20305,0.626299
735.8,33.1179,2.69173,-3.20297,0.625819
736.4,33.138,2.69049,-3.20426,0.625339
737,33.158,2.6826,-3.20569,0.624849
737.6,33.1781,2.68955,-3.20568,0.624369
738.2,33.1983,2.67324,-3.20568,0.623889
738.8,33.2184,2.67818,-3.20568,0.623409
739.4,33.2384,2.65604,-3.20568,0.622929
740,33.2586,2.64971,-3.20568,0.622449
740.6,33.2786,2.65551,-3.20569,0.621979
741.2,33.2987,2.6303,-3.20698,0.621499
741.8,33.3188,2.60943,-3.207,0.621019
742.4,,,,
743,,,,
743.6,,,,
744.2,,,,
744.8,,,,
745.4,,,,
746,,,,
746.6,,,,
747.2,,,,
747.8,,,,
748.4,,,,
749,,,,
749.6,,,,
750,,,,