File: 01_Data/Oak_Flooring/STA/N2/30K_min/Oak_Flooring_STA_N2_30KData_211208_R1.csv
,Time/min,DSC/mW,Mass loss/mg,Sensit./(uV/mW)
50.0,10.707,0.420647,-0.0379707,1.0695
50.6,10.7806,0.522866,-0.0375452,1.06945
51.2,10.8426,0.624654,-0.0385852,1.06939
51.8,10.8983,0.703465,-0.0389724,1.06933
52.4,10.9491,0.802785,-0.0407234,1.06928
53,10.9953,0.884779,-0.0390801,1.06922
53.6,11.0382,0.956305,-0.0378987,1.06916
54.2,11.0783,1.03106,-0.0397184,1.0691
54.8,11.1167,1.11432,-0.0403847,1.06903
55.4,11.1543,1.181,-0.0409622,1.06897
56,11.1896,1.25281,-0.0408686,1.06891
56.6,11.2235,1.309,-0.0412302,1.06884
57.2,11.2565,1.37238,-0.0406881,1.06878
57.8,11.2885,1.42891,-0.0407693,1.06871
58.4,11.3195,1.48516,-0.0399992,1.06864
59,11.3497,1.53977,-0.0390292,1.06857
59.6,11.3794,1.59878,-0.0399313,1.0685
60.2,11.4084,1.6487,-0.0406282,1.06843
60.8,11.4368,1.69631,-0.0414134,1.06836
61.4,11.4647,1.7496,-0.0422956,1.06829
62,11.4922,1.79628,-0.0404812,1.06821
62.6,11.5192,1.84462,-0.0411201,1.06814
63.2,11.5458,1.88446,-0.0404276,1.06806
63.8,11.5722,1.92937,-0.0385731,1.06798
64.4,11.5981,1.9751,-0.0393459,1.06791
65,11.6236,2.0085,-0.0403539,1.06783
65.6,11.6488,2.04951,-0.0405481,1.06775
66.2,11.6738,2.09281,-0.040661,1.06767
66.8,11.6986,2.13072,-0.0406472,1.06758
67.4,11.7233,2.17354,-0.0412731,1.0675
68,11.7475,2.20886,-0.0410714,1.06742
68.6,11.7716,2.24662,-0.0409358,1.06733
69.2,11.7954,2.27652,-0.0406205,1.06725
69.8,11.8192,2.30887,-0.0404572,1.06716
70.4,11.8428,2.34862,-0.0408494,1.06707
71,11.8663,2.3731,-0.0406014,1.06698
71.6,11.8896,2.41839,-0.040537,1.06689
72.2,11.9127,2.44731,-0.0408794,1.0668
72.8,11.9357,2.4828,-0.04234,1.06671
73.4,11.9587,2.51458,-0.0415987,1.06662
74,11.9816,2.54608,-0.0416256,1.06652
74.6,12.0043,2.57362,-0.0402352,1.06643
75.2,12.0267,2.60536,-0.0417488,1.06633
75.8,12.0491,2.63267,-0.0416166,1.06624
76.4,12.0715,2.6654,-0.0426487,1.06614
77,12.0938,2.69383,-0.0426132,1.06604
77.6,12.1161,2.71596,-0.0422969,1.06594
78.2,12.1382,2.74874,-0.0430451,1.06584
78.8,12.1601,2.77916,-0.0429954,1.06574
79.4,12.182,2.80216,-0.0415975,1.06564
80,12.2039,2.82093,-0.0421033,1.06553
80.6,12.2257,2.85278,-0.0431379,1.06543
81.2,12.2475,2.88195,-0.0426833,1.06532
81.8,12.2692,2.90867,-0.0434157,1.06522
82.4,12.2908,2.93306,-0.0420394,1.06511
83,12.3123,2.95779,-0.0433772,1.065
83.6,12.3339,2.98574,-0.0425014,1.06489
84.2,12.3552,3.0101,-0.0428035,1.06478
84.8,12.3766,3.03103,-0.0431565,1.06467
85.4,12.3978,3.05566,-0.0437014,1.06456
86,12.4191,3.08382,-0.0447597,1.06444
86.6,12.4403,3.10522,-0.0444225,1.06433
87.2,12.4614,3.12169,-0.0440633,1.06422
87.8,12.4825,3.15092,-0.0447212,1.0641
88.4,12.5034,3.17614,-0.0461942,1.06398
89,12.5243,3.19352,-0.0463518,1.06386
89.6,12.5454,3.21586,-0.045939,1.06375
90.2,12.5662,3.22815,-0.0462901,1.06363
90.8,12.587,3.25442,-0.0462808,1.0635
91.4,12.6077,3.2711,-0.0457779,1.06338
92,12.6285,3.2949,-0.0462057,1.06326
92.6,12.6492,3.30299,-0.0476612,1.06314
93.2,12.6699,3.32233,-0.0478647,1.06301
93.8,12.6905,3.34673,-0.0492275,1.06289
94.4,12.7112,3.36334,-0.0491398,1.06276
95,12.7319,3.36479,-0.0490536,1.06263
95.6,12.7525,3.38705,-0.0491355,1.0625
96.2,12.7731,3.3997,-0.04914,1.06237
96.8,12.7937,3.41544,-0.0491401,1.06224
97.4,12.8142,3.42429,-0.0493425,1.06211
98,12.8346,3.43252,-0.050486,1.06198
98.6,12.855,3.43607,-0.0504598,1.06185
99.2,12.8754,3.45481,-0.0499373,1.06171
99.8,12.8958,3.46993,-0.0491365,1.06158
100.4,12.9163,3.4665,-0.0504561,1.06144
101,12.9368,3.47986,-0.0504509,1.06131
101.6,12.9572,3.48249,-0.0504511,1.06117
102.2,12.9776,3.48556,-0.0518282,1.06103
102.8,12.9979,3.49571,-0.0517707,1.06089
103.4,13.0182,3.49565,-0.0517818,1.06075
104,13.0385,3.49594,-0.0529661,1.06061
104.6,13.0588,3.50376,-0.0521137,1.06046
105.2,13.0791,3.50069,-0.0520995,1.06032
105.8,13.0995,3.50702,-0.0520571,1.06018
106.4,13.1198,3.5069,-0.0529461,1.06003
107,13.14,3.50645,-0.0530902,1.05988
107.6,13.1603,3.49934,-0.05309,1.05974
108.2,13.1805,3.5053,-0.05309,1.05959
108.8,13.2007,3.49754,-0.05309,1.05944
109.4,13.221,3.49242,-0.05309,1.0593
110,13.2411,3.48518,-0.0531443,1.05914
110.6,13.2614,3.48971,-0.0545084,1.05899
111.2,13.2817,3.48309,-0.0545453,1.05883
111.8,13.3018,3.47485,-0.0549664,1.05869
112.4,13.3221,3.47852,-0.0563053,1.05853
113,13.3422,3.47524,-0.0563594,1.05838
113.6,13.3624,3.48089,-0.0562779,1.05821
114.2,13.3825,3.4887,-0.0576352,1.05806
114.8,13.4027,3.48187,-0.05769,1.0579
115.4,13.4228,3.48304,-0.05769,1.05775
116,13.4429,3.49031,-0.05769,1.05759
116.6,13.4629,3.4949,-0.05769,1.05742
117.2,13.4826,3.5049,-0.05769,1.05726
117.8,13.5023,3.50652,-0.0577222,1.05709
118.4,13.5224,3.50333,-0.0563296,1.05694
119,13.5426,3.49916,-0.05638,1.05676
119.6,13.5629,3.49825,-0.05638,1.05661
120.2,13.5831,3.49515,-0.0563447,1.05644
120.8,13.6031,3.48968,-0.0580587,1.05627
121.4,13.6228,3.49107,-0.0590585,1.0561
122,13.6428,3.48302,-0.05901,1.05594
122.6,13.6627,3.47745,-0.05901,1.05577
123.2,13.6827,3.47337,-0.05901,1.05559
123.8,13.7026,3.48032,-0.05901,1.05541
124.4,13.7224,3.4693,-0.05901,1.05524
125,13.7422,3.46498,-0.05901,1.05507
125.6,13.762,3.45765,-0.0589995,1.05489
126.2,13.7818,3.45324,-0.0589273,1.05472
126.8,13.8016,3.45113,-0.0602362,1.05454
127.4,13.8213,3.44143,-0.06032,1.05436
128,13.8411,3.43226,-0.06032,1.05419
128.6,13.8609,3.4277,-0.06032,1.05401
129.2,13.8806,3.42368,-0.06032,1.05383
129.8,13.9003,3.4183,-0.06032,1.05366
130.4,13.9199,3.41934,-0.06032,1.05346
131,13.9395,3.40404,-0.06032,1.05328
131.6,13.9591,3.4028,-0.06032,1.0531
132.2,13.9786,3.39726,-0.06032,1.05291
132.8,13.9983,3.39457,-0.0603315,1.05273
133.4,14.0178,3.40028,-0.0616789,1.05254
134,14.0373,3.39461,-0.0616411,1.05235
134.6,14.0569,3.38581,-0.06164,1.05218
135.2,14.0764,3.38486,-0.06164,1.05199
135.8,14.0959,3.38276,-0.06164,1.0518
136.4,14.1154,3.37596,-0.0616497,1.05161
137,14.1349,3.37741,-0.061636,1.05141
137.6,14.1543,3.37073,-0.0616774,1.05121
138.2,14.1738,3.38229,-0.06165,1.05102
138.8,14.1932,3.37495,-0.06165,1.05083
139.4,14.2126,3.37021,-0.06165,1.05063
140,14.232,3.38129,-0.06165,1.05044
140.6,14.2514,3.37517,-0.06165,1.05025
141.2,14.2707,3.3785,-0.06165,1.05004
141.8,14.29,3.37681,-0.0616688,1.04984
142.4,14.3092,3.38732,-0.0604773,1.04964
143,14.3286,3.3932,-0.0603296,1.04944
143.6,14.3479,3.3902,-0.06033,1.04924
144.2,14.3671,3.40047,-0.06033,1.04905
144.8,14.3863,3.40213,-0.0603301,1.04884
145.4,14.4056,3.40804,-0.0605525,1.04863
146,14.4247,3.4077,-0.061686,1.04844
146.6,14.4439,3.40819,-0.0616396,1.04822
147.2,14.4631,3.41629,-0.06164,1.04802
147.8,14.4823,3.43359,-0.06164,1.04782
148.4,14.5014,3.42568,-0.06164,1.04761
149,14.5205,3.4354,-0.06164,1.0474
149.6,14.5397,3.44524,-0.0616623,1.04719
150.2,14.5588,3.44535,-0.0630846,1.04698
150.8,14.578,3.44887,-0.0623145,1.04677
151.4,14.5971,3.45011,-0.0621095,1.04655
152,14.6163,3.45514,-0.0619963,1.04634
152.6,14.6354,3.47159,-0.0616589,1.04613
153.2,14.6544,3.47716,-0.06165,1.04591
153.8,14.6735,3.47831,-0.0616466,1.0457
154.4,14.6925,3.48749,-0.0607371,1.04548
155,14.7115,3.5015,-0.0603302,1.04526
155.6,14.7305,3.50469,-0.06033,1.04504
156.2,14.7495,3.50862,-0.0603121,1.04483
156.8,14.7686,3.51934,-0.0614586,1.04461
157.4,14.7875,3.51968,-0.0616497,1.04438
158,14.8065,3.53353,-0.0616574,1.04416
158.6,14.8255,3.53534,-0.0625439,1.04394
159.2,14.8445,3.54555,-0.0616966,1.04372
159.8,14.8635,3.54899,-0.06164,1.04349
160.4,14.8826,3.55919,-0.06164,1.04327
161,14.9016,3.57051,-0.06164,1.04304
161.6,14.9205,3.56838,-0.0616265,1.04281
162.2,14.9394,3.58171,-0.0629332,1.04259
162.8,14.9583,3.5859,-0.0629599,1.04236
163.4,14.9772,3.59402,-0.06296,1.04213
164,14.9962,3.59387,-0.0629599,1.0419
164.6,15.0151,3.60177,-0.0628423,1.04167
165.2,15.0341,3.6114,-0.0616462,1.04144
165.8,15.053,3.62243,-0.06164,1.0412
166.4,15.0719,3.6255,-0.06164,1.04097
167,15.0908,3.64028,-0.06164,1.04074
167.6,15.1096,3.64699,-0.06164,1.0405
168.2,15.1285,3.65041,-0.06164,1.04027
168.8,15.1474,3.65662,-0.0616401,1.04003
169.4,15.1663,3.66222,-0.0616476,1.03979
170,15.185,3.67442,-0.0624496,1.03955
170.6,15.2037,3.67412,-0.0629596,1.03931
171.2,15.2225,3.68517,-0.06296,1.03907
171.8,15.2414,3.69551,-0.0629544,1.03883
172.4,15.2603,3.70156,-0.0636312,1.03859
173,15.2791,3.70475,-0.0636199,1.03835
173.6,15.2976,3.70964,-0.0636204,1.03811
174.2,15.3163,3.71252,-0.063336,1.03786
174.8,15.335,3.71478,-0.0622635,1.03762
175.4,15.3539,3.7354,-0.0622903,1.03737
176,15.3728,3.72706,-0.0621991,1.03713
176.6,15.3916,3.73563,-0.0635361,1.03688
177.2,15.4103,3.74259,-0.06362,1.03663
177.8,15.4291,3.7522,-0.06362,1.03638
178.4,15.4478,3.75123,-0.06362,1.03613
179,15.4664,3.76593,-0.06362,1.03588
179.6,15.485,3.7746,-0.0636196,1.03563
180.2,15.5036,3.78952,-0.0629326,1.03538
180.8,15.5223,3.79536,-0.0623202,1.03513
181.4,15.541,3.79694,-0.0624814,1.03487
182,15.5596,3.80067,-0.063662,1.03462
182.6,15.5782,3.81287,-0.0636204,1.03436
183.2,15.5968,3.8255,-0.06362,1.03411
183.8,15.6153,3.83685,-0.0636718,1.03385
184.4,15.6339,3.84252,-0.0649445,1.03359
185,15.6524,3.8497,-0.06494,1.03333
185.6,15.671,3.85343,-0.06494,1.03307
186.2,15.6896,3.8612,-0.0649312,1.03281
186.8,15.7081,3.87853,-0.0640999,1.03255
187.4,15.7267,3.88808,-0.0636119,1.03229
188,15.7451,3.89526,-0.0631348,1.03203
188.6,15.7637,3.89852,-0.0622616,1.03177
189.2,15.7822,3.91164,-0.0623,1.0315
189.8,15.8007,3.91835,-0.0623,1.03124
190.4,15.8193,3.92221,-0.0623,1.03097
191,15.8377,3.93038,-0.0623,1.03071
191.6,15.8562,3.94362,-0.0623001,1.03044
192.2,15.8747,3.95365,-0.0624488,1.03017
192.8,15.8932,3.95545,-0.0636974,1.0299
193.4,15.9117,3.95891,-0.0636298,1.02963
194,15.9301,3.96251,-0.06362,1.02936
194.6,15.9485,3.97976,-0.06362,1.02909
195.2,15.9669,3.99081,-0.0636193,1.02882
195.8,15.9853,3.99765,-0.0641095,1.02855
196.4,16.0038,3.98938,-0.0649283,1.02828
197,16.0222,4.0089,-0.06494,1.028
197.6,16.0406,4.01447,-0.0649322,1.02773
198.2,16.0589,4.02134,-0.0658238,1.02745
198.8,16.0773,4.02808,-0.0662498,1.02718
199.4,16.0957,4.03484,-0.06625,1.0269
200,16.1142,4.03621,-0.06625,1.02662
200.6,16.1326,4.04537,-0.0662542,1.02634
201.2,16.151,4.05122,-0.0674076,1.02606
201.8,16.1695,4.0576,-0.0675702,1.02578
202.4,16.1878,4.06341,-0.06757,1.0255
203,16.2061,4.08088,-0.06757,1.02522
203.6,16.2244,4.07961,-0.06757,1.02494
204.2,16.2428,4.0869,-0.06757,1.02466
204.8,16.2612,4.08906,-0.06757,1.02437
205.4,16.2795,4.10748,-0.06757,1.02409
206,16.2979,4.1127,-0.06757,1.0238
206.6,16.3163,4.11536,-0.06757,1.02352
207.2,16.3347,4.11972,-0.06757,1.02323
207.8,16.3531,4.13175,-0.06757,1.02294
208.4,16.3714,4.13466,-0.0675797,1.02266
209,16.3897,4.14815,-0.0680841,1.02237
209.6,16.4081,4.1533,-0.0682303,1.02208
210.2,16.4264,4.16481,-0.0682216,1.02179
210.8,16.4447,4.17212,-0.0690911,1.0215
211.4,16.463,4.17983,-0.0692008,1.0212
212,16.4813,4.18562,-0.0692518,1.02091
212.6,16.4996,4.19688,-0.0698732,1.02062
213.2,16.5179,4.21061,-0.06987,1.02032
213.8,16.5362,4.21861,-0.06987,1.02003
214.4,16.5545,4.22373,-0.06987,1.01973
215,16.5728,4.23671,-0.06987,1.01944
215.6,16.5911,4.24236,-0.06987,1.01914
216.2,16.6095,4.24682,-0.06987,1.01884
216.8,16.6278,4.26623,-0.0698711,1.01854
217.4,16.6459,4.26909,-0.0695961,1.01825
218,16.664,4.27779,-0.070316,1.01795
218.6,16.6823,4.2923,-0.0705303,1.01764
219.2,16.7005,4.29334,-0.07053,1.01734
219.8,16.7191,4.31401,-0.07053,1.01704
220.4,16.7375,4.32063,-0.07053,1.01674
221,16.7557,4.33783,-0.0705299,1.01644
221.6,16.7739,4.35111,-0.070914,1.01613
222.2,16.7921,4.36045,-0.0718526,1.01583
222.8,16.8104,4.36596,-0.07185,1.01552
223.4,16.8286,4.38336,-0.07185,1.01521
224,16.8468,4.38933,-0.0718457,1.01491
224.6,16.8651,4.40582,-0.0732871,1.0146
225.2,16.8834,4.4201,-0.0745368,1.01429
225.8,16.9017,4.42881,-0.0744794,1.01398
226.4,16.92,4.44073,-0.07447,1.01367
227,16.9383,4.44589,-0.0744704,1.01336
227.6,16.9565,4.45378,-0.0744546,1.01305
228.2,16.9747,4.46178,-0.0747674,1.01274
228.8,16.993,4.48212,-0.0744705,1.01243
229.4,17.0113,4.47994,-0.07448,1.01211
230,17.0296,4.49044,-0.0744359,1.0118
230.6,17.0478,4.4997,-0.0758402,1.01149
231.2,17.066,4.50893,-0.0757736,1.01117
231.8,17.0843,4.52229,-0.0772693,1.01085
232.4,17.1025,4.53276,-0.0772124,1.01054
233,17.1208,4.53078,-0.0783789,1.01022
233.6,17.139,4.54392,-0.0792107,1.0099
234.2,17.1573,4.53921,-0.0791692,1.00958
234.8,17.1754,4.55286,-0.0803309,1.00926
235.4,17.1937,4.55067,-0.0805116,1.00894
236,17.212,4.54124,-0.0813621,1.00862
236.6,17.2302,4.54651,-0.0818196,1.0083
237.2,17.2485,4.54772,-0.0823421,1.00798
237.8,17.2667,4.55347,-0.0833568,1.00766
238.4,17.285,4.54875,-0.0841822,1.00733
239,17.3032,4.55853,-0.0846694,1.00701
239.6,17.3215,4.54629,-0.0851331,1.00668
240.2,17.3398,4.54672,-0.0861021,1.00636
240.8,17.358,4.55374,-0.0864889,1.00603
241.4,17.3762,4.54501,-0.0875905,1.0057
242,17.3944,4.55823,-0.0887169,1.00538
242.6,17.4126,4.54781,-0.0893264,1.00505
243.2,17.4308,4.55769,-0.0906041,1.00472
243.8,17.4491,4.5548,-0.0919141,1.00439
244.4,17.4673,4.56195,-0.0921473,1.00406
245,17.4855,4.56738,-0.0935202,1.00373
245.6,17.5038,4.57024,-0.0938451,1.0034
246.2,17.5219,4.5744,-0.095114,1.00307
246.8,17.5401,4.58047,-0.0967471,1.00273
247.4,17.5584,4.58089,-0.0977323,1.0024
248,17.5766,4.59502,-0.0985562,1.00207
248.6,17.5948,4.59552,-0.100364,1.00173
249.2,17.6131,4.59991,-0.102305,1.0014
249.8,17.6313,4.60588,-0.103335,1.00106
250.4,17.6495,4.62376,-0.104405,1.00072
251,17.6676,4.62837,-0.106093,1.00039
251.6,17.6858,4.63295,-0.10804,1.00005
252.2,17.704,4.642,-0.110054,0.999709
252.8,17.722,4.64688,-0.112062,0.99937
253.4,17.7401,4.65804,-0.113694,0.99903
254,17.7583,4.66166,-0.116049,0.99869
254.6,17.7765,4.67511,-0.117481,0.998348
255.2,17.7949,4.67877,-0.118449,0.998008
255.8,17.8132,4.6865,-0.1202,0.997659
256.4,17.8314,4.69703,-0.121668,0.99732
257,17.8495,4.71371,-0.121864,0.996978
257.6,17.8677,4.71451,-0.123902,0.99663
258.2,17.8859,4.7216,-0.125052,0.996288
258.8,17.904,4.72906,-0.126542,0.99594
259.4,17.9222,4.73886,-0.128045,0.995589
260,17.9403,4.75178,-0.129574,0.99525
260.6,17.9585,4.75867,-0.131045,0.994899
261.2,17.9767,4.7609,-0.133011,0.99455
261.8,17.9949,4.77461,-0.134196,0.9942
262.4,18.0131,4.79082,-0.135217,0.993849
263,18.0313,4.78348,-0.136442,0.9935
263.6,18.0495,4.79595,-0.138533,0.99315
264.2,18.0676,4.81166,-0.140448,0.9928
264.8,18.0858,4.81593,-0.142778,0.99245
265.4,18.1039,4.82029,-0.145053,0.9921
266,18.1221,4.82689,-0.147285,0.99174
266.6,18.1403,4.82874,-0.148208,0.99139
267.2,18.1585,4.837,-0.149605,0.991038
267.8,18.1767,4.84156,-0.151293,0.99068
268.4,18.1948,4.84999,-0.153687,0.990328
269,18.213,4.85739,-0.156042,0.98997
269.6,18.2311,4.85652,-0.158735,0.98961
270.2,18.2493,4.87199,-0.161516,0.989249
270.8,18.2674,4.86524,-0.164013,0.9889
271.4,18.2856,4.87817,-0.165812,0.98854
272,18.3037,4.87438,-0.167846,0.98818
272.6,18.3219,4.8817,-0.170659,0.98782
273.2,18.3401,4.87696,-0.172883,0.98746
273.8,18.3583,4.88346,-0.175282,0.9871
274.4,18.3764,4.89021,-0.177985,0.98674
275,18.3947,4.89798,-0.180554,0.98637
275.6,18.4128,4.90486,-0.183748,0.98601
276.2,18.431,4.89833,-0.186579,0.98565
276.8,18.4492,4.90281,-0.190685,0.985279
277.4,18.4673,4.90224,-0.193888,0.98492
278,18.4855,4.8962,-0.196992,0.984549
278.6,18.5037,4.90104,-0.199991,0.98419
279.2,18.5219,4.89761,-0.203227,0.98382
279.8,18.54,4.90894,-0.206552,0.98346
280.4,18.5581,4.90283,-0.210017,0.98309
281,18.5763,4.90335,-0.213789,0.98272
281.6,18.5945,4.90066,-0.217439,0.98235
282.2,18.6126,4.89626,-0.221405,0.98198
282.8,18.6308,4.89423,-0.224934,0.981609
283.4,18.6489,4.89107,-0.229405,0.981239
284,18.6671,4.88228,-0.233402,0.98087
284.6,18.6854,4.86822,-0.237474,0.9805
285.2,18.7035,4.86656,-0.242213,0.980129
285.8,18.7217,4.86074,-0.247373,0.979751
286.4,18.7398,4.85937,-0.252239,0.979379
287,18.758,4.84887,-0.257062,0.979009
287.6,18.7761,4.84471,-0.262411,0.978631
288.2,18.7943,4.83085,-0.267794,0.978259
288.8,18.8125,4.81846,-0.272887,0.977881
289.4,18.8307,4.80891,-0.27786,0.97751
290,18.8489,4.79571,-0.283172,0.977129
290.6,18.867,4.77815,-0.288589,0.976751
291.2,18.8852,4.76744,-0.294558,0.97638
291.8,18.9032,4.74371,-0.300165,0.976
292.4,18.9214,4.72446,-0.306108,0.97562
293,18.9396,4.71142,-0.313014,0.975239
293.6,18.9578,4.69249,-0.32001,0.974859
294.2,18.9762,4.6673,-0.326936,0.97448
294.8,18.9944,4.65693,-0.333144,0.9741
295.4,19.0126,4.63393,-0.339626,0.97372
296,19.0307,4.60858,-0.346795,0.973331
296.6,19.0489,4.59134,-0.354288,0.972949
297.2,19.067,4.56003,-0.361681,0.97257
297.8,19.0852,4.54441,-0.369524,0.972181
298.4,19.1034,4.51543,-0.377445,0.971799
299,19.1215,4.48745,-0.384985,0.971411
299.6,19.1396,4.46882,-0.392838,0.971029
300.2,19.1579,4.43613,-0.400921,0.970641
300.8,19.1761,4.40412,-0.409758,0.97026
301.4,19.1943,4.37657,-0.418583,0.969869
302,19.2126,4.34466,-0.42697,0.969481
302.6,19.2308,4.31976,-0.435374,0.969091
303.2,19.249,4.28179,-0.445026,0.96871
303.8,19.2672,4.24197,-0.453682,0.96832
304.4,19.2853,4.22004,-0.462927,0.96793
305,19.3034,4.18722,-0.472187,0.96754
305.6,19.3216,4.14445,-0.482041,0.96715
306.2,19.3399,4.11728,-0.491365,0.96676
306.8,19.3581,4.07983,-0.500694,0.966361
307.4,19.3762,4.05265,-0.510672,0.965971
308,19.3944,4.00905,-0.520846,0.96558
308.6,19.4126,3.9883,-0.531019,0.96519
309.2,19.4308,3.93499,-0.541601,0.964791
309.8,19.449,3.91005,-0.552495,0.9644
310.4,19.4672,3.87019,-0.563319,0.964001
311,19.4853,3.82976,-0.5746,0.96361
311.6,19.5036,3.79396,-0.585786,0.963211
312.2,19.5219,3.76097,-0.597116,0.96281
312.8,19.5401,3.72129,-0.60862,0.96242
313.4,19.5584,3.69701,-0.620162,0.962022
314,19.5766,3.65637,-0.63278,0.96162
314.6,19.5947,3.62736,-0.644889,0.96122
315.2,19.613,3.59532,-0.656904,0.96083
315.8,19.6312,3.55528,-0.669425,0.96043
316.4,19.6494,3.53519,-0.681868,0.96003
317,19.6677,3.50386,-0.694259,0.95963
317.6,19.6859,3.4634,-0.706562,0.95923
318.2,19.7041,3.44042,-0.717628,0.95882
318.8,19.7223,3.41626,-0.73008,0.958421
319.4,19.7405,3.40125,-0.742923,0.958022
320,19.7588,3.37778,-0.75535,0.95762
320.6,19.7771,3.34615,-0.767591,0.95721
321.2,19.7954,3.32973,-0.780004,0.956811
321.8,19.8137,3.31513,-0.792502,0.95641
322.4,19.832,3.2895,-0.805758,0.956001
323,19.8502,3.27881,-0.819021,0.9556
323.6,19.8684,3.26953,-0.832438,0.955191
324.2,19.8867,3.25151,-0.845919,0.95478
324.8,19.905,3.25024,-0.858661,0.95438
325.4,19.9232,3.24474,-0.871905,0.953971
326,19.9415,3.22675,-0.885357,0.953561
326.6,19.9597,3.22562,-0.898584,0.95315
327.2,19.978,3.22766,-0.911685,0.95274
327.8,19.9961,3.23994,-0.924349,0.95234
328.4,20.0144,3.23764,-0.937604,0.95193
329,20.0326,3.24897,-0.951429,0.95152
329.6,20.051,3.25686,-0.966317,0.95111
330.2,20.0694,3.26651,-0.980036,0.95069
330.8,20.0877,3.28132,-0.993533,0.950281
331.4,20.1061,3.2972,-1.00692,0.949871
332,20.1243,3.30363,-1.02052,0.949461
332.6,20.1427,3.32908,-1.03408,0.94905
333.2,20.161,3.34714,-1.04749,0.948631
333.8,20.1793,3.37745,-1.06094,0.948221
334.4,20.1977,3.39682,-1.07343,0.947801
335,20.216,3.42174,-1.08738,0.947391
335.6,20.2344,3.4526,-1.10136,0.946971
336.2,20.2527,3.47591,-1.11627,0.946561
336.8,20.2711,3.50047,-1.1306,0.946141
337.4,20.2894,3.53437,-1.14462,0.945732
338,20.3077,3.55558,-1.15852,0.945311
338.6,20.326,3.59572,-1.17255,0.944891
339.2,20.3443,3.62815,-1.18657,0.944471
339.8,20.3627,3.65846,-1.20065,0.94406
340.4,20.381,3.69647,-1.21451,0.943641
341,20.3993,3.72305,-1.22842,0.943221
341.6,20.4177,3.75548,-1.24294,0.942801
342.2,20.4361,3.79458,-1.25751,0.942381
342.8,20.4544,3.82953,-1.2716,0.941961
343.4,20.4729,3.86909,-1.28615,0.941541
344,20.4913,3.90562,-1.30087,0.941111
344.6,20.5097,3.9602,-1.31639,0.940691
345.2,20.5282,3.98772,-1.33218,0.940271
345.8,20.5466,4.02895,-1.34689,0.939851
346.4,20.565,4.07299,-1.36155,0.939421
347,20.5834,4.10432,-1.37646,0.939001
347.6,20.6018,4.13728,-1.39236,0.938581
348.2,20.6203,4.18458,-1.40873,0.938151
348.8,20.6387,4.22062,-1.42408,0.937731
349.4,20.6571,4.26737,-1.43956,0.937301
350,20.6756,4.30367,-1.45511,0.936881
350.6,20.694,4.33895,-1.47098,0.936451
351.2,20.7125,4.38472,-1.48782,0.936021
351.8,20.731,4.42251,-1.50447,0.935601
352.4,20.7494,4.46128,-1.52145,0.935171
353,20.7679,4.51362,-1.53862,0.934741
353.6,20.7864,4.55426,-1.55566,0.934311
354.2,20.8049,4.59744,-1.57289,0.933882
354.8,20.8233,4.62898,-1.5898,0.933462
355.4,20.8417,4.68247,-1.60732,0.933032
356,20.8602,4.72223,-1.62561,0.932602
356.6,20.8786,4.75394,-1.64355,0.932172
357.2,20.8971,4.80371,-1.66197,0.931732
357.8,20.9156,4.84332,-1.68041,0.931302
358.4,20.9342,4.88235,-1.69893,0.930871
359,20.9527,4.93401,-1.71833,0.930441
359.6,20.9712,4.96554,-1.73716,0.930011
360.2,20.9897,5.01317,-1.7562,0.929572
360.8,21.0082,5.05131,-1.77577,0.929141
361.4,21.0266,5.08449,-1.79726,0.928711
362,21.0451,5.11973,-1.81804,0.928272
362.6,21.0636,5.16241,-1.83853,0.927841
363.2,21.0821,5.19066,-1.8592,0.927402
363.8,21.1006,5.22394,-1.88038,0.926971
364.4,21.1192,5.2636,-1.90103,0.926532
365,21.1377,5.29289,-1.92244,0.926101
365.6,21.1561,5.32241,-1.94371,0.925661
366.2,21.1746,5.35718,-1.96518,0.925232
366.8,21.1932,5.37702,-1.9872,0.924791
367.4,21.2117,5.39951,-2.00897,0.924351
368,21.2303,5.41541,-2.03149,0.923913
368.6,21.2488,5.42804,-2.05397,0.923472
369.2,21.2673,5.44601,-2.07629,0.923042
369.8,21.2859,5.44407,-2.09925,0.922602
370.4,21.3043,5.44101,-2.12205,0.922162
371,21.3229,5.44198,-2.14506,0.921722
371.6,21.3414,5.44232,-2.16846,0.921282
372.2,21.3599,5.43479,-2.19131,0.920842
372.8,21.3785,5.42704,-2.21522,0.920402
373.4,21.397,5.4077,-2.23898,0.919953
374,21.4157,5.37229,-2.2631,0.919513
374.6,21.4343,5.35614,-2.28763,0.919071
375.2,21.4529,5.31488,-2.31118,0.918632
375.8,21.4715,5.27316,-2.33505,0.918192
376.4,21.4901,5.22835,-2.35832,0.917742
377,21.5086,5.18038,-2.38157,0.917301
377.6,21.5271,5.1324,-2.40476,0.916862
378.2,21.5457,5.05662,-2.42755,0.916412
378.8,21.5642,4.98351,-2.45007,0.915972
379.4,21.5828,4.90536,-2.47213,0.915522
380,21.6014,4.81356,-2.49453,0.915082
380.6,21.6199,4.70824,-2.51714,0.914631
381.2,21.6385,4.60779,-2.53915,0.914183
381.8,21.6571,4.49835,-2.56056,0.913742
382.4,21.6757,4.35995,-2.58177,0.913292
383,21.6943,4.23557,-2.60231,0.912843
383.6,21.7129,4.10243,-2.6229,0.912402
384.2,21.7314,3.95833,-2.64247,0.911952
384.8,21.7499,3.80623,-2.66208,0.911502
385.4,21.7685,3.6456,-2.68085,0.911052
386,21.7871,3.47126,-2.69874,0.910602
386.6,21.8057,3.3014,-2.71611,0.910152
387.2,21.8243,3.13085,-2.73265,0.909702
387.8,21.8429,2.95034,-2.7487,0.909262
388.4,21.8614,2.77981,-2.76413,0.908802
389,21.88,2.60219,-2.77836,0.908352
389.6,21.8986,2.42864,-2.79173,0.907902
390.2,21.9172,2.26033,-2.80448,0.907452
390.8,21.9358,2.08965,-2.81654,0.907002
391.4,21.9543,1.92709,-2.82771,0.906552
392,21.9729,1.78477,-2.83757,0.906102
392.6,21.9915,1.63022,-2.84673,0.905642
393.2,22.01,1.49453,-2.8552,0.905192
393.8,22.0286,1.36767,-2.86279,0.904742
394.4,22.0472,1.26025,-2.87154,0.904282
395,22.0657,1.14529,-2.87858,0.903833
395.6,22.0843,1.05748,-2.88532,0.903381
396.2,22.1028,0.970552,-2.89157,0.902922
396.8,22.1214,0.891634,-2.89709,0.902472
397.4,22.14,0.809053,-2.90164,0.902012
398,22.1586,0.74977,-2.90509,0.901561
398.6,22.1772,0.684137,-2.90729,0.901103
399.2,22.1958,0.625378,-2.91117,0.900642
399.8,22.2144,0.560015,-2.91414,0.900192
400.4,22.233,0.517633,-2.91739,0.899733
401,22.2517,0.466889,-2.92066,0.899272
401.6,22.2703,0.429963,-2.92411,0.898822
402.2,22.2889,0.371797,-2.9276,0.898363
402.8,22.3075,0.328886,-2.9306,0.897903
403.4,22.3261,0.299006,-2.93489,0.897442
404,22.3448,0.264529,-2.93712,0.896982
404.6,22.3634,0.225489,-2.93931,0.896522
405.2,22.3822,0.189698,-2.94175,0.896072
405.8,22.4008,0.152281,-2.94401,0.895612
406.4,22.4195,0.131501,-2.94633,0.895152
407,22.4382,0.103248,-2.94869,0.894692
407.6,22.4569,0.0668018,-2.95121,0.894232
408.2,22.4755,0.0462997,-2.95413,0.893762
408.8,22.4942,0.0169174,-2.9562,0.893302
409.4,22.5128,-0.00254208,-2.95843,0.892842
410,22.5314,-0.0401639,-2.96082,0.892383
410.6,22.5501,-0.0690567,-2.963,0.891923
411.2,22.5687,-0.0885426,-2.9649,0.891462
411.8,22.5875,-0.118182,-2.96599,0.890992
412.4,22.6062,-0.125404,-2.96759,0.890533
413,22.6249,-0.157609,-2.97061,0.890073
413.6,22.6436,-0.167425,-2.97328,0.889602
414.2,22.6623,-0.200091,-2.97595,0.889143
414.8,22.681,-0.216364,-2.97781,0.888682
415.4,22.6997,-0.242748,-2.98015,0.888212
416,22.7184,-0.259663,-2.98238,0.887753
416.6,22.7371,-0.273745,-2.98424,0.887282
417.2,22.7558,-0.302309,-2.98644,0.886823
417.8,22.7746,-0.322994,-2.98894,0.886352
418.4,22.7933,-0.348785,-2.99103,0.885892
419,22.812,-0.355951,-2.99335,0.885423
419.6,22.8307,-0.370549,-2.99508,0.884962
420.2,22.8494,-0.393325,-2.99629,0.884493
420.8,22.8681,-0.408795,-2.99723,0.884023
421.4,22.8869,-0.422787,-2.99885,0.883552
422,22.9057,-0.433907,-3.0007,0.883093
422.6,22.9244,-0.444877,-3.00261,0.882623
423.2,22.9431,-0.4633,-3.00453,0.882153
423.8,22.9618,-0.467821,-3.00645,0.881682
424.4,22.9806,-0.480648,-3.0086,0.881222
425,22.9994,-0.494512,-3.01048,0.880753
425.6,23.0182,-0.512517,-3.01305,0.880283
426.2,23.037,-0.517416,-3.01373,0.879813
426.8,23.0558,-0.519046,-3.01529,0.879343
427.4,23.0746,-0.534679,-3.0173,0.878873
428,23.0933,-0.54142,-3.01922,0.878403
428.6,23.1121,-0.544283,-3.02104,0.877933
429.2,23.1309,-0.551606,-3.02283,0.877463
429.8,23.1496,-0.562869,-3.0246,0.876993
430.4,23.1684,-0.561282,-3.02638,0.876523
431,23.1872,-0.573787,-3.02778,0.876052
431.6,23.206,-0.576486,-3.02953,0.875572
432.2,23.2249,-0.58613,-3.0308,0.875103
432.8,23.2437,-0.577294,-3.03236,0.874633
433.4,23.2625,-0.582895,-3.03421,0.874163
434,23.2813,-0.582437,-3.03563,0.873693
434.6,23.3001,-0.59292,-3.03722,0.873213
435.2,23.319,-0.592093,-3.03789,0.872743
435.8,23.3378,-0.594998,-3.03936,0.872273
436.4,23.3566,-0.594094,-3.04176,0.871792
437,23.3755,-0.590492,-3.04408,0.871323
437.6,23.3943,-0.577409,-3.04604,0.870853
438.2,23.4132,-0.578834,-3.04794,0.870373
438.8,23.432,-0.573308,-3.0496,0.869903
439.4,23.4508,-0.575888,-3.05052,0.869423
440,23.4697,-0.572328,-3.05131,0.868953
440.6,23.4885,-0.572464,-3.05312,0.868473
441.2,23.5074,-0.552583,-3.05518,0.868003
441.8,23.5263,-0.560669,-3.05812,0.867523
442.4,23.5451,-0.549795,-3.05966,0.867053
443,23.5638,-0.554359,-3.06124,0.866573
443.6,23.5826,-0.544793,-3.06286,0.866093
444.2,23.6015,-0.528615,-3.06459,0.865623
444.8,23.6205,-0.535593,-3.0654,0.865143
445.4,23.6396,-0.533059,-3.06649,0.864663
446,23.6586,-0.522622,-3.06723,0.864193
446.6,23.6775,-0.517643,-3.06814,0.863713
447.2,23.6964,-0.506091,-3.06932,0.863233
447.8,23.7153,-0.492607,-3.07058,0.862753
448.4,23.7342,-0.493573,-3.07199,0.862283
449,23.7532,-0.478169,-3.07316,0.861803
449.6,23.7722,-0.483685,-3.07461,0.861323
450.2,23.7912,-0.460487,-3.07672,0.860843
450.8,23.8102,-0.449499,-3.07961,0.860363
451.4,23.8292,-0.442911,-3.08149,0.859883
452,23.8481,-0.427888,-3.08291,0.859403
452.6,23.867,-0.429951,-3.08402,0.858923
453.2,23.8859,-0.402442,-3.08417,0.858443
453.8,23.9048,-0.398821,-3.08504,0.857963
454.4,23.9238,-0.387867,-3.08645,0.857483
455,23.9428,-0.381263,-3.08729,0.857003
455.6,23.9619,-0.364027,-3.08858,0.856523
456.2,23.9809,-0.349435,-3.09053,0.856043
456.8,23.9999,-0.333215,-3.09278,0.855563
457.4,24.0188,-0.325674,-3.09526,0.855083
458,24.0378,-0.313058,-3.09633,0.854603
458.6,24.0568,-0.301015,-3.0975,0.854123
459.2,24.0758,-0.286095,-3.09882,0.853634
459.8,24.0948,-0.278214,-3.10009,0.853153
460.4,24.1137,-0.274033,-3.1004,0.852673
461,24.1328,-0.264575,-3.10193,0.852193
461.6,24.1518,-0.255927,-3.10323,0.851713
462.2,24.1708,-0.24098,-3.1035,0.851223
462.8,24.1899,-0.215968,-3.10491,0.850743
463.4,24.209,-0.204159,-3.10549,0.850263
464,24.228,-0.197372,-3.10696,0.849773
464.6,24.2471,-0.178361,-3.10965,0.849293
465.2,24.2662,-0.168577,-3.11113,0.848813
465.8,24.2854,-0.170123,-3.11199,0.848323
466.4,24.3044,-0.146305,-3.11272,0.847843
467,24.3234,-0.143288,-3.1142,0.847352
467.6,24.3425,-0.133995,-3.11603,0.846873
468.2,24.3615,-0.121295,-3.11721,0.846384
468.8,24.3806,-0.102249,-3.11751,0.845903
469.4,24.3997,-0.0813336,-3.11812,0.845424
470,24.4188,-0.0764841,-3.11872,0.844933
470.6,24.4378,-0.0663795,-3.11909,0.844444
471.2,24.4569,-0.0569609,-3.11946,0.843963
471.8,24.476,-0.0500762,-3.12102,0.843472
472.4,24.4951,-0.0244829,-3.12239,0.842993
473,24.5142,-0.0199385,-3.1227,0.842503
473.6,24.5333,-0.00722171,-3.12408,0.842024
474.2,24.5524,0.00985775,-3.12506,0.841533
474.8,24.5715,0.018316,-3.12609,0.841043
475.4,24.5906,0.0228571,-3.12748,0.840564
476,24.6098,0.0343024,-3.12883,0.840073
476.6,24.6289,0.0381214,-3.13071,0.839583
477.2,24.648,0.0474694,-3.13154,0.839094
477.8,24.6672,0.0598889,-3.13227,0.838613
478.4,24.6863,0.0646676,-3.13295,0.838123
479,24.7054,0.0808996,-3.13432,0.837633
479.6,24.7245,0.0917942,-3.13356,0.837144
480.2,24.7436,0.104898,-3.13469,0.836664
480.8,24.7628,0.117078,-3.13618,0.836173
481.4,24.782,0.122747,-3.13642,0.835683
482,24.8012,0.123935,-3.13782,0.835193
482.6,24.8204,0.140795,-3.13779,0.834703
483.2,24.8395,0.148876,-3.13902,0.834212
483.8,24.8586,0.139149,-3.13982,0.833724
484.4,24.8778,0.163331,-3.14123,0.833244
485,24.8969,0.160855,-3.14132,0.832754
485.6,24.9161,0.173879,-3.14229,0.832264
486.2,24.9353,0.183487,-3.14261,0.831773
486.8,24.9546,0.193431,-3.14383,0.831283
487.4,24.9738,0.186094,-3.14416,0.830793
488,24.993,0.191982,-3.14546,0.830303
488.6,25.0122,0.201376,-3.14546,0.829813
489.2,25.0314,0.199014,-3.14693,0.829323
489.8,25.0506,0.20813,-3.14736,0.828834
490.4,25.0698,0.217682,-3.14873,0.828344
491,25.089,0.222929,-3.15022,0.827854
491.6,25.1081,0.224253,-3.15054,0.827354
492.2,25.1273,0.223694,-3.15206,0.826864
492.8,25.1465,0.235152,-3.15205,0.826372
493.4,25.1659,0.236232,-3.15296,0.825883
494,25.1852,0.231197,-3.15347,0.825393
494.6,25.2044,0.246371,-3.1548,0.824903
495.2,25.2236,0.250187,-3.15517,0.824414
495.8,25.2428,0.257979,-3.15643,0.823914
496.4,25.262,0.259706,-3.15696,0.823422
497,25.2812,0.25997,-3.15774,0.822933
497.6,25.3004,0.272161,-3.15776,0.822443
498.2,25.3196,0.277316,-3.15916,0.821954
498.8,25.3389,0.281328,-3.15915,0.821454
499.4,25.3581,0.268514,-3.16065,0.820963
500,25.3775,0.274931,-3.16075,0.820473
500.6,25.3967,0.28264,-3.16193,0.819984
501.2,25.4159,0.29492,-3.16209,0.819482
501.8,25.435,0.299888,-3.16333,0.818993
502.4,25.4542,0.304317,-3.16337,0.818504
503,25.4735,0.305198,-3.16466,0.818004
503.6,25.4928,0.312169,-3.16467,0.817513
504.2,25.5121,0.319654,-3.16591,0.817024
504.8,25.5314,0.330365,-3.16597,0.816522
505.4,25.5507,0.343583,-3.16729,0.816033
506,25.57,0.349947,-3.16766,0.815534
506.6,25.5893,0.36191,-3.16882,0.815043
507.2,25.6086,0.376743,-3.16979,0.814554
507.8,25.6279,0.383962,-3.1704,0.814052
508.4,25.6472,0.397302,-3.17202,0.813563
509,25.6664,0.412117,-3.17232,0.813064
509.6,25.6856,0.424307,-3.17333,0.812573
510.2,25.7049,0.426675,-3.17334,0.812074
510.8,25.7241,0.416328,-3.17446,0.811583
511.4,25.7435,0.436893,-3.17464,0.811084
512,25.7628,0.444608,-3.176,0.810593
512.6,25.7821,0.455517,-3.17716,0.810094
513.2,25.8014,0.469749,-3.17775,0.809603
513.8,25.8207,0.47783,-3.17926,0.809104
514.4,25.8399,0.480968,-3.17925,0.808613
515,25.8593,0.487081,-3.18017,0.808114
515.6,25.8785,0.488124,-3.18057,0.807624
516.2,25.8978,0.492091,-3.18095,0.807123
516.8,25.9171,0.500151,-3.18199,0.806634
517.4,25.9364,0.505187,-3.18302,0.806132
518,25.9557,0.518958,-3.18332,0.805634
518.6,25.9751,0.529952,-3.18421,0.805143
519.2,25.9944,0.525115,-3.18475,0.804643
519.8,26.0138,0.542276,-3.18545,0.804154
520.4,26.0331,0.53727,-3.18605,0.803653
521,26.0525,0.555857,-3.18602,0.803154
521.6,26.0719,0.551422,-3.18739,0.802664
522.2,26.0912,0.55386,-3.18755,0.802162
522.8,26.1105,0.561502,-3.18888,0.801664
523.4,26.1299,0.555579,-3.18832,0.801174
524,26.1491,0.561827,-3.18954,0.800673
524.6,26.1685,0.558209,-3.18953,0.800174
525.2,26.1879,0.566954,-3.19092,0.799684
525.8,26.2072,0.579221,-3.19088,0.799183
526.4,26.2266,0.579394,-3.19152,0.798683
527,26.2459,0.576723,-3.1923,0.798184
527.6,26.2652,0.592292,-3.19229,0.797694
528.2,26.2846,0.595139,-3.19356,0.797193
528.8,26.304,0.601497,-3.19362,0.796693
529.4,26.3233,0.592019,-3.19372,0.796194
530,26.3427,0.596991,-3.19496,0.795704
530.6,26.362,0.599618,-3.19493,0.795203
531.2,26.3814,0.596902,-3.19558,0.794702
531.8,26.4007,0.598361,-3.19664,0.794204
532.4,26.4201,0.589476,-3.19691,0.793704
533,26.4395,0.610329,-3.19785,0.793214
533.6,26.4589,0.613509,-3.19823,0.792713
534.2,26.4783,0.620209,-3.19843,0.792212
534.8,26.4976,0.611894,-3.19955,0.791714
535.4,26.5171,0.620961,-3.19949,0.791214
536,26.5364,0.618435,-3.20091,0.790724
536.6,26.5559,0.617408,-3.20093,0.790224
537.2,26.5753,0.618005,-3.2022,0.789723
537.8,26.5948,0.625634,-3.20221,0.789222
538.4,26.6143,0.620982,-3.20362,0.788723
539,26.6336,0.62019,-3.20361,0.788224
539.6,26.653,0.630829,-3.20515,0.787724
540.2,26.6724,0.619842,-3.2054,0.787234
540.8,26.6918,0.638909,-3.20658,0.786734
541.4,26.7113,0.62718,-3.20656,0.786234
542,26.7308,0.622887,-3.20656,0.785734
542.6,26.7502,0.623644,-3.20685,0.785232
543.2,26.7696,0.633708,-3.20787,0.784732
543.8,26.7891,0.621318,-3.20789,0.784232
544.4,26.8085,0.624197,-3.20845,0.783733
545,26.828,0.635471,-3.20866,0.783234
545.6,26.8474,0.634474,-3.20904,0.782734
546.2,26.8669,0.627118,-3.20996,0.782234
546.8,26.8863,0.632968,-3.20996,0.781734
547.4,26.9058,0.629345,-3.20993,0.781234
548,26.9253,0.622673,-3.2113,0.780744
548.6,26.9447,0.621934,-3.21129,0.780244
549.2,26.9643,0.623276,-3.21243,0.779744
549.8,26.9837,0.618731,-3.21257,0.779244
550.4,27.0031,0.620965,-3.21384,0.778744
551,27.0226,0.615422,-3.21399,0.778244
551.6,27.0421,0.622602,-3.21551,0.777744
552.2,27.0616,0.616426,-3.21545,0.777244
552.8,27.0811,0.62772,-3.21547,0.776744
553.4,27.1006,0.609509,-3.21676,0.776244
554,27.1201,0.608418,-3.21676,0.775744
554.6,27.1396,0.608497,-3.21801,0.775244
555.2,27.1591,0.60899,-3.21925,0.774744
555.8,27.1786,0.608909,-3.21939,0.774244
556.4,27.1982,0.604907,-3.2194,0.773744
557,27.2176,0.593079,-3.21977,0.773244
557.6,27.2371,0.587271,-3.22077,0.772744
558.2,27.2566,0.585216,-3.21999,0.772244
558.8,27.276,0.569868,-3.22002,0.771744
559.4,27.2955,0.567061,-3.22099,0.771244
560,27.315,0.56101,-3.22073,0.770744
560.6,27.3345,0.567953,-3.22073,0.770244
561.2,27.354,0.555171,-3.22204,0.769744
561.8,27.3734,0.541462,-3.22203,0.769234
562.4,27.3928,0.5488,-3.22203,0.768734
563,27.4124,0.542746,-3.22229,0.768234
563.6,27.4319,0.540498,-3.22334,0.767734
564.2,27.4514,0.535857,-3.22354,0.767234
564.8,27.4709,0.526068,-3.2248,0.766734
565.4,27.4904,0.519098,-3.22478,0.766234
566,27.5099,0.510961,-3.22582,0.765732
566.6,27.5294,0.506834,-3.22612,0.765232
567.2,27.5489,0.50033,-3.22578,0.764732
567.8,27.5685,0.489667,-3.22665,0.764232
568.4,27.588,0.476793,-3.22643,0.763732
569,27.6075,0.469288,-3.22642,0.763233
569.6,27.627,0.466356,-3.22711,0.762734
570.2,27.6465,0.462073,-3.22773,0.762234
570.8,27.666,0.45196,-3.22773,0.761734
571.4,27.6856,0.438365,-3.22773,0.761234
572,27.7051,0.442423,-3.22773,0.760724
572.6,27.7246,0.431983,-3.22773,0.760224
573.2,27.7441,0.420209,-3.22848,0.759724
573.8,27.7636,0.427768,-3.22904,0.759224
574.4,27.7832,0.427532,-3.22949,0.758722
575,27.8027,0.429706,-3.23033,0.758222
575.6,27.8224,0.410943,-3.23168,0.757722
576.2,27.842,0.408322,-3.23188,0.757222
576.8,27.8615,0.398258,-3.23338,0.756724
577.4,27.881,0.405015,-3.23332,0.756224
578,27.9005,0.39314,-3.23478,0.755724
578.6,27.9201,0.382511,-3.23476,0.755224
579.2,27.9397,0.372596,-3.23359,0.754714
579.8,27.9592,0.377204,-3.23436,0.754214
580.4,27.9788,0.379339,-3.23475,0.753714
581,27.9984,0.366173,-3.23495,0.753214
581.6,28.0179,0.355612,-3.23607,0.752712
582.2,28.0375,0.352643,-3.23601,0.752212
582.8,28.057,0.348199,-3.23755,0.751712
583.4,28.0766,0.358796,-3.23747,0.751213
584,28.0963,0.348312,-3.23868,0.750714
584.6,28.1159,0.346199,-3.23879,0.750214
585.2,28.1355,0.341967,-3.23995,0.749714
585.8,28.1551,0.333191,-3.24016,0.749204
586.4,28.1746,0.334661,-3.24171,0.748704
587,28.1941,0.335745,-3.24306,0.748204
587.6,28.2136,0.327239,-3.24431,0.747704
588.2,28.2332,0.323712,-3.24429,0.747202
588.8,28.2529,0.325188,-3.24489,0.746702
589.4,28.2725,0.312933,-3.24563,0.746202
590,28.2921,0.307333,-3.24455,0.745702
590.6,28.3115,0.307103,-3.24429,0.745203
591.2,28.3311,0.303989,-3.24429,0.744704
591.8,28.3507,0.301221,-3.24429,0.744204
592.4,28.3704,0.300368,-3.24429,0.743704
593,28.3902,0.298717,-3.24424,0.743194
593.6,28.4097,0.281237,-3.24566,0.742694
594.2,28.4294,0.282429,-3.24561,0.742194
594.8,28.4489,0.278244,-3.24562,0.741694
595.4,28.4685,0.274635,-3.2465,0.741194
596,28.4882,0.275809,-3.24692,0.740692
596.6,28.5079,0.273687,-3.24692,0.740192
597.2,28.5276,0.270844,-3.24691,0.739692
597.8,28.5473,0.279806,-3.24796,0.739192
598.4,28.5669,0.279225,-3.24824,0.738692
599,28.5866,0.268409,-3.24824,0.738194
599.6,28.6062,0.257229,-3.24953,0.737694
600.2,28.6257,0.262258,-3.24956,0.737194
600.8,28.6453,0.258938,-3.24956,0.736694
601.4,28.6649,0.254563,-3.24975,0.736194
602,28.6846,0.256341,-3.25088,0.735694
602.6,28.7044,0.268612,-3.25088,0.735184
603.2,28.724,0.256572,-3.252,0.734684
603.8,28.7438,0.264744,-3.25219,0.734184
604.4,28.7634,0.250147,-3.25219,0.733684
605,28.7831,0.25073,-3.25229,0.733184
605.6,28.8027,0.250485,-3.25352,0.732684
606.2,28.8224,0.248134,-3.2535,0.732184
606.8,28.8421,0.24984,-3.25404,0.731684
607.4,28.8619,0.244491,-3.25481,0.731184
608,28.8816,0.242612,-3.25483,0.730684
608.6,28.9013,0.248807,-3.25564,0.730182
609.2,28.9209,0.234836,-3.25614,0.729682
609.8,28.9406,0.239788,-3.25614,0.729182
610.4,28.9603,0.230512,-3.25614,0.728682
611,28.98,0.241128,-3.25647,0.728182
611.6,28.9997,0.241278,-3.25745,0.727682
612.2,29.0195,0.241653,-3.25745,0.727182
612.8,29.0392,0.237972,-3.25745,0.726682
613.4,29.0588,0.22594,-3.25745,0.726182
614,29.0785,0.23245,-3.25793,0.725682
614.6,29.0982,0.234548,-3.25876,0.725182
615.2,29.1179,0.228219,-3.25877,0.724683
615.8,29.1376,0.236454,-3.25953,0.724184
616.4,29.1573,0.237358,-3.26009,0.723684
617,29.1771,0.224288,-3.26009,0.723184
617.6,29.1967,0.231356,-3.26009,0.722684
618.2,29.2165,0.240893,-3.26019,0.722184
618.8,29.2362,0.236965,-3.26142,0.721684
619.4,29.256,0.245493,-3.26131,0.721184
620,29.2757,0.236885,-3.26116,0.720684
620.6,29.2955,0.23124,-3.26141,0.720194
621.2,29.3152,0.238149,-3.26192,0.719694
621.8,29.3349,0.254941,-3.26272,0.719194
622.4,29.3546,0.247482,-3.26272,0.718694
623,29.3743,0.241722,-3.26272,0.718194
623.6,29.394,0.235626,-3.26271,0.717692
624.2,29.4139,0.255031,-3.26406,0.717192
624.8,29.4336,0.238685,-3.26404,0.716692
625.4,29.4534,0.266501,-3.26404,0.716193
626,29.4732,0.264077,-3.26469,0.715694
626.6,29.4929,0.272183,-3.26553,0.715194
627.2,29.5126,0.277288,-3.26667,0.714694
627.8,29.5323,0.279864,-3.26667,0.714204
628.4,29.5521,0.272521,-3.26753,0.713704
629,29.5719,0.284956,-3.26798,0.713203
629.6,29.5917,0.285614,-3.26798,0.712702
630.2,29.6114,0.287344,-3.26879,0.712202
630.8,29.6311,0.312374,-3.2693,0.711704
631.4,29.6508,0.307449,-3.26797,0.711204
632,29.6705,0.312675,-3.26831,0.710714
632.6,29.6903,0.323984,-3.2693,0.710214
633.2,29.71,0.318957,-3.26931,0.709713
633.8,29.7297,0.325308,-3.26931,0.709212
634.4,29.7494,0.341682,-3.26929,0.708714
635,29.7691,0.346374,-3.27046,0.708214
635.6,29.7889,0.338505,-3.27062,0.707724
636.2,29.8087,0.355136,-3.27062,0.707224
636.8,29.8285,0.355476,-3.27062,0.706722
637.4,29.8483,0.362831,-3.27111,0.706224
638,29.868,0.372992,-3.27194,0.705724
638.6,29.8878,0.367732,-3.27194,0.705234
639.2,29.9076,0.373786,-3.27194,0.704733
639.8,29.9273,0.368692,-3.27194,0.704233
640.4,29.9471,0.391007,-3.27194,0.703734
641,29.9668,0.394273,-3.27194,0.703244
641.6,29.9866,0.401724,-3.27325,0.702743
642.2,30.0064,0.382813,-3.27325,0.702243
642.8,30.0262,0.394456,-3.27325,0.701744
643.4,30.046,0.391724,-3.27383,0.701254
644,30.0658,0.382446,-3.27457,0.700752
644.6,30.0856,0.385162,-3.27457,0.700254
645.2,30.1054,0.383496,-3.27457,0.699764
645.8,30.1252,0.400197,-3.27478,0.699263
646.4,30.145,0.394105,-3.2759,0.698763
647,30.1648,0.404416,-3.27589,0.698264
647.6,30.1847,0.384968,-3.27589,0.697774
648.2,30.2045,0.385792,-3.27589,0.697273
648.8,30.2243,0.377365,-3.27625,0.696774
649.4,30.2441,0.377812,-3.27718,0.696283
650,30.2639,0.369091,-3.27713,0.695783
650.6,30.2837,0.368993,-3.27829,0.695284
651.2,30.3036,0.357485,-3.27821,0.694793
651.8,30.3232,0.357048,-3.27883,0.694294
652.4,30.3428,0.352014,-3.27952,0.693804
653,30.3626,0.341163,-3.28048,0.693302
653.6,30.3825,0.342168,-3.28083,0.692804
654.2,30.4025,0.33674,-3.2809,0.692313
654.8,30.4223,0.333547,-3.28216,0.691813
655.4,30.4422,0.320202,-3.28214,0.691324
656,30.4619,0.321234,-3.28226,0.690823
656.6,30.4819,0.304122,-3.28347,0.690334
657.2,30.5018,0.294283,-3.2824,0.689833
657.8,30.5217,0.293787,-3.28214,0.689334
658.4,30.5417,0.295051,-3.28214,0.688843
659,30.5615,0.272373,-3.28214,0.688344
659.6,30.5814,0.276836,-3.28214,0.687853
660.2,30.6012,0.274855,-3.28213,0.687354
660.8,30.621,0.260892,-3.28321,0.686863
661.4,30.6409,0.250445,-3.28345,0.686364
662,30.6607,0.240449,-3.28345,0.685873
662.6,30.6806,0.242221,-3.28383,0.685374
663.2,30.7004,0.235785,-3.28477,0.684883
663.8,30.7202,0.229676,-3.28477,0.684384
664.4,30.7401,0.229292,-3.28477,0.683893
665,30.76,0.232731,-3.28609,0.683404
665.6,30.7799,0.226328,-3.28609,0.682903
666.2,30.7999,0.221873,-3.28609,0.682414
666.8,30.8197,0.215658,-3.28609,0.681914
667.4,30.8396,0.211172,-3.28609,0.681423
668,30.8595,0.193393,-3.28609,0.680934
668.6,30.8794,0.198305,-3.28609,0.680433
669.2,30.8993,0.19971,-3.28637,0.679943
669.8,30.9192,0.189893,-3.2874,0.679444
670.4,30.9391,0.182581,-3.2874,0.678953
671,30.959,0.178985,-3.2874,0.678464
671.6,30.9789,0.160749,-3.2874,0.677964
672.2,30.9989,0.167797,-3.2874,0.677473
672.8,31.0187,0.171808,-3.2879,0.676984
673.4,31.0386,0.177051,-3.28872,0.676484
674,31.0585,0.17989,-3.28872,0.675993
674.6,31.0784,0.171516,-3.28872,0.675503
675.2,31.0984,0.181323,-3.28867,0.675004
675.8,31.1183,0.177816,-3.29007,0.674512
676.4,31.1383,0.158981,-3.29004,0.674023
677,31.1583,0.17304,-3.29004,0.673534
677.6,31.1782,0.175608,-3.29048,0.673034
678.2,31.1982,0.162925,-3.29134,0.672542
678.8,31.2182,0.156664,-3.2914,0.672053
679.4,31.2381,0.164406,-3.29034,0.671563
680,31.2581,0.153473,-3.29137,0.671074
680.6,31.278,0.14979,-3.29135,0.670574
681.2,31.298,0.154337,-3.29135,0.670082
681.8,31.318,0.150235,-3.29135,0.669593
682.4,31.3379,0.155598,-3.29215,0.669103
683,31.3579,0.15507,-3.29266,0.668613
683.6,31.3778,0.146703,-3.29266,0.668124
684.2,31.3978,0.154831,-3.29266,0.667624
684.8,31.4178,0.139695,-3.29266,0.667134
685.4,31.4377,0.131681,-3.29266,0.666642
686,31.4577,0.127635,-3.29266,0.666153
686.6,31.4777,0.142892,-3.29266,0.665663
687.2,31.4976,0.141053,-3.29266,0.665173
687.8,31.5176,0.145093,-3.29266,0.664683
688.4,31.5376,0.143767,-3.29282,0.664193
689,31.5575,0.129237,-3.29399,0.663703
689.6,31.5775,0.135406,-3.29398,0.663213
690.2,31.5975,0.133581,-3.29398,0.662723
690.8,31.6174,0.138414,-3.29398,0.662233
691.4,31.6374,0.131022,-3.29397,0.661743
692,31.6575,0.133711,-3.2941,0.661253
692.6,31.6775,0.123674,-3.29497,0.660763
693.2,31.6975,0.134414,-3.29497,0.660273
693.8,31.7174,0.136907,-3.29497,0.659783
694.4,31.7374,0.129428,-3.29497,0.659293
695,31.7574,0.131997,-3.29497,0.658803
695.6,31.7774,0.130147,-3.29498,0.658313
696.2,31.7975,0.132054,-3.29571,0.657823
696.8,31.8175,0.136639,-3.29628,0.657332
697.4,31.8375,0.131848,-3.29627,0.656842
698,31.8575,0.130494,-3.2961,0.656354
698.6,31.8775,0.131082,-3.29561,0.655874
699.2,31.8975,0.126704,-3.29561,0.655383
699.8,31.9174,0.129477,-3.29688,0.654893
700.4,31.9374,0.135284,-3.29695,0.654403
701,31.9574,0.110538,-3.29695,0.653913
701.6,31.9775,0.107451,-3.29695,0.653424
702.2,31.9975,0.114223,-3.29696,0.652944
702.8,32.0175,0.109157,-3.29809,0.652453
703.4,32.0375,0.102765,-3.29827,0.651963
704,32.0575,0.116611,-3.29827,0.651472
704.6,32.0775,0.110734,-3.29831,0.650994
705.2,32.0975,0.107867,-3.29791,0.650503
705.8,32.1175,0.110671,-3.29789,0.650013
706.4,32.1375,0.11675,-3.29929,0.649524
707,32.1575,0.118786,-3.29925,0.649043
707.6,32.1776,0.115595,-3.29925,0.648553
708.2,32.1976,0.111647,-3.29925,0.648062
708.8,32.2177,0.113459,-3.29926,0.647583
709.4,32.2378,0.112126,-3.29818,0.647093
710,32.2578,0.113425,-3.29931,0.646602
710.6,32.2777,0.103416,-3.29925,0.646123
711.2,32.2978,0.106482,-3.29925,0.645633
711.8,32.3178,0.101178,-3.29925,0.645154
712.4,32.3378,0.112317,-3.29925,0.644663
713,32.3578,0.103278,-3.29925,0.644172
713.6,32.3778,0.10901,-3.29925,0.643693
714.2,32.3978,0.107051,-3.29924,0.643203
714.8,32.4178,0.0919096,-3.30031,0.642723
715.4,32.4379,0.105608,-3.3005,0.642233
716,32.4579,0.0997828,-3.30191,0.641753
716.6,32.4779,0.106126,-3.30188,0.641263
717.2,32.4979,0.0966929,-3.30205,0.640783
717.8,32.5179,0.103421,-3.30321,0.640293
718.4,32.538,0.11049,-3.3032,0.639813
719,32.5581,0.0987361,-3.3032,0.639323
719.6,32.5781,0.106306,-3.3032,0.638843
720.2,32.5982,0.0944479,-3.3032,0.638354
720.8,32.6181,0.0979664,-3.30326,0.637873
721.4,32.6381,0.0999411,-3.30225,0.637393
722,32.6581,0.108008,-3.30219,0.636903
722.6,32.6781,0.0998313,-3.30348,0.636423
723.2,32.6982,0.0881522,-3.30353,0.635944
723.8,32.7182,0.102449,-3.30353,0.635453
724.4,32.7382,0.107998,-3.30353,0.634973
725,32.7582,0.112635,-3.30353,0.634493
725.6,32.7782,0.106561,-3.30353,0.634003
726.2,32.7982,0.113459,-3.30353,0.633523
726.8,32.8183,0.100615,-3.30348,0.633043
727.4,32.8384,0.11413,-3.30487,0.632552
728,32.8584,0.0870594,-3.30484,0.632073
728.6,32.8784,0.0960735,-3.30484,0.631593
729.2,32.8984,0.100006,-3.30484,0.631113
729.8,32.9184,0.0858056,-3.30484,0.630634
730.4,32.9383,0.101901,-3.30484,0.630143
731,32.9583,0.108973,-3.30484,0.629663
731.6,32.9784,0.106362,-3.30484,0.629183
732.2,32.9985,0.0872763,-3.30505,0.628703
732.8,33.0185,0.090934,-3.30617,0.628223
733.4,33.0385,0.0902419,-3.30616,0.627743
734,33.0584,0.0757971,-3.30616,0.627253
734.6,33.0785,0.0787069,-3.30616,0.626773
735.2,33.0986,0.0851859,-3.30616,0.626293
735.8,33.1187,0.0807956,-3.30639,0.625813
736.4,33.1388,0.0840552,-3.30748,0.625333
737,33.1589,0.0794081,-3.3075,0.624853
737.6,33.1789,0.0946883,-3.30714,0.624373
738.2,33.199,0.0781125,-3.30715,0.623893
738.8,33.2191,0.0883292,-3.30715,0.623413
739.4,33.2392,0.0863578,-3.30714,0.622933
740,33.2593,0.0802931,-3.3062,0.622453
740.6,33.2794,0.085639,-3.30642,0.621973
741.2,33.2994,0.0852365,-3.30681,0.621493
741.8,33.3194,,,0.621013
742.4,,,,
743,,,,
743.6,,,,
744.2,,,,
744.8,,,,
745.4,,,,
746,,,,
746.6,,,,
747.2,,,,
747.8,,,,
748.4,,,,
749,,,,
749.6,,,,
750,,,,