File: 01_Data/Polyisocyanurate_Foam_Board/Cone/Polyisocyanurate_Foam_Board_Cone_HF75Scan_221202_R2.csv
Names,Time,Stack TC,Smoke TC,Exh Press,Smoke Comp,Smoke Meas,CO Meter,CO2 Meter,O2 Meter,Sample Mass,Ext Coeff,Start Test,Flame Verif
Chan Gain,,500,500,1,1,1,1,1,1,1,1,1.0,1.0
Offset,,0,0,0.13918,0,0,0,0,0,0,0,0.0,0.0
Gain,,1,1,25.011,14.0162,15.5607,1,1,1,1.0009,1.02981,1.0,1.0
Units,sec,C,C,Pa,%,%,%,%,%,g,/m,,
Baseline,,43.2688,45.1991,151.034,104.169,4.81712,0.000695815,0.093791,20.9463,-1.99509,27.7675,,
2,0.25,41.1802,43.1813,150.986,104.147,4.91069,0.00497499,0.113471,20.909,525.815,27.5917,0.0,1.0
4,0.75,41.4444,43.0924,135.525,104.169,4.5626,0.00614792,0.122661,20.8937,525.564,28.2577,0.0,1.0
6,1.25,41.2749,43.0063,136.462,104.196,4.33941,0.00831434,0.145531,20.8681,525.484,28.7131,0.0,1.0
8,1.75,42.2776,43.6656,137.033,104.21,4.23779,0.0100691,0.164056,20.8355,525.404,28.9284,0.0,1.0
10,2.25,42.1712,43.2962,130.759,104.257,4.07538,0.0121625,0.190986,20.809,525.384,29.2854,0.0,1.0
12,2.75,42.4254,43.8623,134.59,104.271,4.11242,0.0144629,0.223532,20.7584,525.284,29.2049,0.0,1.0
14,3.25,43.1329,44.1708,130.228,104.313,4.21405,0.0168877,0.261194,20.7174,525.254,28.988,0.0,1.0
16,3.75,43.9426,45.063,125.628,104.335,4.20977,0.019357,0.301868,20.6481,525.074,28.9992,0.0,1.0
18,4.25,43.6675,44.2201,126.629,104.37,3.93197,0.0217889,0.334815,20.592,525.044,29.6188,0.0,1.0
20,4.75,44.7618,45.2101,126.298,104.385,3.8954,0.0241473,0.378168,20.5249,524.844,29.7045,0.0,0.0
22,5.25,45.1756,45.2424,131.742,104.436,3.93055,0.0263559,0.413283,20.4706,524.834,29.6279,0.0,0.0
24,5.75,46.0559,46.2991,126.478,104.441,3.81942,0.0284132,0.449441,20.4051,524.684,29.8873,0.0,0.0
26,6.25,46.8471,46.5091,121.882,104.478,3.80043,0.0300797,0.485672,20.352,524.654,29.9356,0.0,0.0
28,6.75,47.9471,47.525,122.643,104.495,3.95429,0.0315083,0.518505,20.309,524.443,29.5785,0.0,0.0
30,7.25,48.5207,47.9076,126.522,104.541,3.74962,0.0327364,0.548237,20.2706,524.433,30.0626,0.0,0.0
32,7.75,49.194,49.0372,131.716,104.543,4.00463,0.0335753,0.572755,20.2395,524.253,29.4684,0.0,0.0
34,8.25,50.2964,49.6397,130.136,104.586,4.22354,0.0341147,0.593005,20.2144,524.243,28.9913,0.0,0.0
36,8.75,50.7972,50.364,124.123,104.591,4.17843,0.0342708,0.609407,20.194,524.043,29.0888,0.0,0.0
38,9.25,51.4815,50.8608,129.687,104.645,4.30332,0.0341446,0.61806,20.1775,524.043,28.8274,0.0,0.0
40,9.75,52.2153,51.8609,130.757,104.646,4.27008,0.0337198,0.625068,20.1641,523.913,28.8975,0.0,0.0
42,10.25,52.4863,52.3017,130.709,104.689,4.35508,0.0330853,0.625779,20.1687,523.883,28.7232,0.0,0.0
44,10.75,52.852,52.6114,133.63,104.707,4.24729,0.0322386,0.621884,20.1724,523.753,28.9511,0.0,0.0
46,11.25,53.5533,52.9025,136.285,104.767,4.31899,0.0312532,0.61873,20.1819,523.783,28.8051,0.0,0.0
48,11.75,53.6134,53.4644,133.864,104.738,4.29572,0.030455,0.607966,20.1954,523.683,28.8514,0.0,0.0
50,12.25,53.7466,53.6787,136.041,104.775,4.46098,0.029113,0.599247,20.2063,523.703,28.5136,0.0,0.0
52,12.75,54.4044,54.1139,134.807,104.791,4.45908,0.0280259,0.584331,20.2262,523.543,28.5188,0.0,0.0
54,13.25,54.2735,54.4195,131.614,104.834,4.55311,0.0271454,0.572249,20.2423,523.553,28.334,0.0,0.0
56,13.75,54.8066,55.0513,139.19,104.837,4.59917,0.0256484,0.555546,20.2608,523.462,28.2433,0.0,0.0
58,14.25,54.5074,55.2697,132.067,104.874,4.64143,0.0244358,0.542016,20.2806,523.492,28.1638,0.0,0.0
60,14.75,55.5208,55.6137,138.644,104.886,4.55026,0.0230638,0.524932,20.2966,523.372,28.3442,0.0,0.0
62,15.25,54.715,55.3682,138.652,104.924,4.53886,0.0219525,0.511094,20.3096,523.412,28.37,0.0,0.0
64,15.75,55.2003,56.0139,137.225,104.929,4.59157,0.0210524,0.499885,20.329,523.302,28.2662,0.0,0.0
66,16.25,55.9233,56.2136,139.697,104.96,4.60202,0.0200405,0.484808,20.3446,523.352,28.2483,0.0,0.0
68,16.75,56.1196,56.3716,138.326,104.971,4.52461,0.0189664,0.472596,20.3654,523.252,28.4025,0.0,0.0
70,17.25,56.1835,57.1071,139.489,105.002,4.65663,0.017963,0.460534,20.3861,523.272,28.1454,0.0,0.0
72,17.75,56.1731,56.9259,140.472,105.001,4.66043,0.0170301,0.448811,20.4064,523.162,28.1379,0.0,0.0
74,18.25,56.1007,57.3395,138.705,105.04,4.62529,0.0160535,0.439315,20.4257,523.192,28.2096,0.0,0.0
76,18.75,56.3103,56.8937,138.267,105.079,4.64143,0.0152625,0.42929,20.4438,523.052,28.1815,0.0,0.0
78,19.25,56.4837,57.4882,143.852,105.082,4.62196,0.0144602,0.419068,20.4612,523.102,28.2198,0.0,0.0
80,19.75,56.5425,57.3011,141.979,105.087,4.63004,0.0138103,0.409591,20.4779,522.972,28.2044,0.0,0.0
82,20.25,56.6704,57.6071,142.862,105.132,4.65805,0.0132838,0.400837,20.4913,522.982,28.1538,0.0,0.0
84,20.75,56.4834,57.5719,137.274,105.116,4.74068,0.0126952,0.392734,20.5039,522.852,27.9936,0.0,0.0
86,21.25,56.9225,58.152,138.539,105.137,4.70982,0.0122183,0.385259,20.5155,522.892,28.0544,0.0,0.0
88,21.75,56.5945,57.8184,140.544,105.162,4.70744,0.0117875,0.377592,20.5249,522.762,28.0611,0.0,0.0
90,22.25,56.6533,58.0419,143.656,105.17,4.69035,0.0113984,0.371382,20.5351,522.802,28.0946,0.0,0.0
92,22.75,56.5263,57.9121,138.651,105.173,4.66708,0.0110832,0.3655,20.5434,522.702,28.1398,0.0,0.0
94,23.25,56.6484,58.1519,139.041,105.199,4.66328,0.0107498,0.359968,20.5516,522.772,28.1495,0.0,0.0
96,23.75,56.7217,58.0676,139.541,105.208,4.70839,0.0104797,0.355487,20.5594,522.682,28.0633,0.0,0.0
98,24.25,56.9348,58.207,140.182,105.227,4.65093,0.0101868,0.350641,20.5667,522.692,28.1758,0.0,0.0
100,24.75,56.9728,58.4849,140.067,105.239,4.69082,0.00994951,0.346716,20.5734,522.562,28.0997,0.0,0.0
102,25.25,56.5855,58.5586,140.605,105.253,4.64143,0.00966544,0.343054,20.5795,522.612,28.1965,0.0,0.0
104,25.75,56.8494,58.6397,142.208,105.247,4.73593,0.00943535,0.339653,20.5851,522.532,28.0139,0.0,0.0
106,26.25,57.1192,58.8048,137.755,105.279,4.70079,0.00917895,0.336898,20.5908,522.542,28.0839,0.0,0.0
108,26.75,57.1236,58.8432,140.481,105.29,4.68892,0.00897127,0.33372,20.5965,522.452,28.1077,0.0,0.0
110,27.25,57.2192,59.0166,138.4,105.278,4.67753,0.00880304,0.331146,20.601,522.502,28.1286,0.0,0.0
112,27.75,57.3759,59.0819,139.416,105.282,4.74733,0.00863245,0.328393,20.6052,522.422,27.9952,0.0,0.0
114,28.25,57.3994,59.3115,137.057,105.297,4.70887,0.00849426,0.326164,20.609,522.401,28.07,0.0,0.0
116,28.75,57.6638,59.2063,136.31,105.303,4.72216,0.00840014,0.324059,20.6128,522.311,28.045,0.0,0.0
118,29.25,57.3051,59.5291,141.839,105.319,4.59347,0.00832389,0.322084,20.6165,522.311,28.296,0.0,0.0
120,29.75,57.1547,59.47,140.324,105.317,4.64808,0.00828757,0.320485,20.6197,522.221,28.189,0.0,0.0
122,30.25,57.4647,59.3767,140.635,105.323,4.66755,0.00825816,0.318833,20.6225,522.251,28.1518,0.0,0.0
124,30.75,57.7933,59.5902,137.339,105.319,4.71931,0.00823942,0.317495,20.6248,522.201,28.0518,0.0,0.0
126,31.25,57.5475,59.6669,147.154,105.337,4.74876,0.00822424,0.316508,20.6266,522.181,27.9972,0.0,0.0
128,31.75,57.5069,59.8426,142.784,105.342,4.70459,0.00820176,0.315709,20.6281,522.071,28.082,0.0,0.0
130,32.25,57.7561,59.5134,143.938,105.336,4.68227,0.00818356,0.315353,20.6293,522.061,28.1245,0.0,0.0
132,32.75,57.3634,59.5138,140.702,105.347,4.73831,0.00815472,0.315065,20.6303,521.981,28.018,0.0,0.0
134,33.25,57.7237,59.8473,138.686,105.338,4.65995,0.00813574,0.315352,20.6307,521.981,28.1678,0.0,0.0
136,33.75,57.5902,59.8478,141.968,105.348,4.70744,0.00810329,0.315584,20.631,521.931,28.0771,0.0,0.0
138,34.25,57.7523,60.0745,137.12,105.345,4.72549,0.00807701,0.316309,20.6312,521.901,28.0422,0.0,0.0
140,34.75,57.9572,59.9394,134.945,105.343,4.67135,0.00801125,0.316896,20.6313,521.871,28.1462,0.0,0.0
142,35.25,57.7406,60.351,145.045,105.353,4.75256,0.00795798,0.317697,20.6313,521.821,27.9913,0.0,0.0
144,35.75,58.0338,60.1998,139.253,105.349,4.76965,0.00790595,0.318637,20.6311,521.781,27.9586,0.0,0.0
146,36.25,58.0953,60.3068,138.793,105.337,4.74258,0.0078638,0.319038,20.6307,521.721,28.0089,0.0,0.0
148,36.75,57.747,60.1441,139.165,105.349,4.74448,0.00783093,0.320163,20.6301,521.661,28.0063,0.0,0.0
150,37.25,58.0496,60.6273,139.1,105.338,4.64951,0.00780431,0.321469,20.6295,521.651,28.1881,0.0,0.0
152,37.75,58.0888,60.3209,141.808,105.337,4.59015,0.00779544,0.322527,20.6289,521.601,28.304,0.0,0.0
154,38.25,58.2782,60.7454,142.279,105.328,4.75635,0.00778826,0.324039,20.6285,521.581,27.9819,0.0,0.0
156,38.75,58.2948,60.6149,138.036,105.326,4.62909,0.00778244,0.325264,20.6282,521.571,28.2268,0.0,0.0
158,39.25,58.4833,60.543,139.181,105.327,4.63431,0.00778842,0.326454,20.6279,521.521,28.2167,0.0,0.0
160,39.75,58.4815,60.947,135.983,105.321,4.66755,0.0078029,0.327417,20.6279,521.491,28.1516,0.0,0.0
162,40.25,58.8179,60.9022,140.75,105.326,4.72311,0.0078173,0.328033,20.6281,521.451,28.0452,0.0,0.0
164,40.75,58.7181,61.2627,140.694,105.309,4.72121,0.00783138,0.328384,20.6285,521.461,28.0474,0.0,0.0
166,41.25,58.6487,61.0273,143.872,105.303,4.6932,0.00784277,0.328669,20.6288,521.381,28.1006,0.0,0.0
168,41.75,58.7302,61.3425,137.015,105.304,4.65236,0.00785455,0.328503,20.629,521.411,28.1796,0.0,0.0
170,42.25,58.74,61.22,141.094,105.282,4.69272,0.00786409,0.328012,20.6292,521.311,28.0997,0.0,0.0
172,42.75,58.9714,61.2393,139.681,105.277,4.74686,0.00787047,0.32751,20.6294,521.341,27.9957,0.0,0.0
174,43.25,58.4871,61.4333,140.444,105.267,4.66375,0.00787444,0.327011,20.6295,521.26,28.1543,0.0,0.0
176,43.75,58.7973,61.4403,137.913,105.276,4.6799,0.007879,0.326607,20.6296,521.26,28.1239,0.0,0.0
178,44.25,59.0918,61.8565,138.444,105.238,4.70697,0.00788389,0.326574,20.6297,521.16,28.0685,0.0,0.0
180,44.75,58.9262,61.6852,140.234,105.242,4.68085,0.00789187,0.326547,20.6298,521.19,28.1191,0.0,0.0
182,45.25,58.5881,61.1094,138.377,105.22,4.63906,0.00790194,0.326931,20.6294,521.06,28.1983,0.0,0.0
184,45.75,59.1187,61.5674,138.871,105.224,4.6742,0.00791813,0.327606,20.6291,521.07,28.1304,0.0,0.0
186,46.25,58.978,61.5929,135.661,105.191,4.66565,0.00793847,0.32863,20.6275,520.99,28.1441,0.0,0.0
188,46.75,58.9667,61.6802,136.904,105.193,4.67278,0.00795963,0.329886,20.6263,520.97,28.1305,0.0,0.0
190,47.25,59.6329,62.3471,142.463,105.174,4.62719,0.00798099,0.330905,20.6243,520.88,28.2174,0.0,0.0
192,47.75,59.3055,61.9672,134.698,105.177,4.59252,0.00799829,0.332686,20.6228,520.9,28.2857,0.0,0.0
194,48.25,59.4356,62.106,133.941,105.144,4.55786,0.00800093,0.334129,20.6215,520.82,28.3512,0.0,0.0
196,48.75,59.575,62.2892,137.247,105.141,4.64001,0.00799282,0.336042,20.6201,520.8,28.1896,0.0,0.0
198,49.25,59.4171,62.5209,143.793,105.122,4.78485,0.00798626,0.337591,20.6189,520.75,27.9103,0.0,0.0
200,49.75,59.6176,62.3509,136.362,105.11,4.72644,0.00793139,0.339128,20.618,520.73,28.0202,0.0,0.0
202,50.25,59.4941,61.8145,134.516,105.095,4.61674,0.00788695,0.340373,20.6172,520.68,28.2311,0.0,0.0
204,50.75,59.6003,62.3262,140.763,105.087,4.64048,0.00777738,0.341006,20.6166,520.68,28.1841,0.0,0.0
206,51.25,59.6873,62.6013,143.412,105.061,4.69842,0.00763867,0.341182,20.616,520.59,28.0698,0.0,0.0
208,51.75,59.774,62.6247,140.088,105.053,4.53981,0.00748135,0.341325,20.6187,520.61,28.3793,0.0,0.0
210,52.25,59.9199,63.0306,141.495,105.033,4.7877,0.00730142,0.33943,20.6209,520.5,27.8973,0.0,0.0
212,52.75,59.7962,62.8541,138.383,105.022,4.73878,0.00710844,0.337895,20.6247,520.55,27.9891,0.0,0.0
214,53.25,59.7811,62.9198,143.313,104.992,4.659,0.00695213,0.334232,20.6297,520.47,28.1399,0.0,0.0
216,53.75,59.6983,63.0648,141.746,104.989,4.73783,0.00668841,0.331265,20.6337,520.48,27.988,0.0,0.0
218,54.25,59.574,62.729,139.463,104.962,4.72786,0.00647479,0.325882,20.6405,520.42,28.0048,0.0,0.0
220,54.75,59.6757,62.8085,143.488,104.963,4.78295,0.00630176,0.321522,20.646,520.43,27.9003,0.0,0.0
222,55.25,60.459,63.2252,137.991,104.924,4.85988,0.00608374,0.315313,20.6505,520.36,27.7527,0.0,0.0
224,55.75,59.8082,62.8206,143.207,104.926,4.73831,0.00583705,0.310284,20.6582,520.37,27.9817,0.0,0.0
226,56.25,59.8086,62.7269,140.255,104.9,4.90452,0.00560368,0.303197,20.6645,520.33,27.6681,0.0,0.0
228,56.75,59.5199,62.9131,141.145,104.885,4.81999,0.00538444,0.297456,20.6712,520.36,27.8238,0.0,0.0
230,57.25,59.8676,63.0605,140.521,104.858,4.81999,0.00520686,0.292806,20.6781,520.28,27.8215,0.0,0.0
232,57.75,59.7746,63.1895,141.771,104.858,4.84896,0.00501682,0.287403,20.685,520.31,27.7674,0.0,0.0
234,58.25,59.5572,63.0194,140.614,104.82,4.89692,0.00486289,0.281554,20.6919,520.28,27.6752,0.0,0.0
236,58.75,59.3533,62.7526,141.876,104.825,4.7763,0.00471451,0.276816,20.6991,520.31,27.9009,0.0,0.0
238,59.25,59.4661,62.7624,141.468,104.802,4.83898,0.00459432,0.271095,20.7064,520.25,27.7811,0.0,0.0
240,59.75,59.3605,62.8024,142.57,104.799,4.81381,0.00447702,0.26646,20.7135,520.29,27.828,0.0,0.0
242,60.25,59.4702,62.8723,142.475,104.771,4.886,0.00438201,0.261328,20.7203,520.23,27.6911,0.0,0.0
244,60.75,59.7147,63.2502,143.489,104.767,4.90641,0.0042739,0.257171,20.7258,520.26,27.6531,0.0,0.0
246,61.25,59.3279,62.7257,141.575,104.743,4.8575,0.00418634,0.25234,20.7311,520.199,27.7416,0.0,0.0
248,61.75,59.2778,62.8374,144.329,104.738,4.8784,0.00411541,0.248427,20.7363,520.25,27.7024,0.0,0.0
250,62.25,58.9915,62.2928,147.798,104.711,4.90357,0.00405796,0.243862,20.7405,520.159,27.6535,0.0,0.0
252,62.75,58.9376,62.3036,144.41,104.711,4.90499,0.00395543,0.240164,20.7448,520.199,27.651,0.0,0.0
254,63.25,58.7539,62.7991,145.602,104.686,4.86225,0.00387239,0.235902,20.749,520.159,27.7278,0.0,0.0
256,63.75,58.4944,62.8148,147.644,104.689,4.94488,0.00380312,0.232449,20.7525,520.18,27.5758,0.0,0.0
258,64.25,58.9184,62.9707,145.862,104.662,4.97337,0.00374522,0.229653,20.757,520.139,27.5216,0.0,0.0
260,64.75,59.0245,62.8577,140.963,104.662,4.98809,0.00370486,0.227387,20.7607,520.159,27.4949,0.0,0.0
262,65.25,58.4448,61.932,151.678,104.649,4.8746,0.00367807,0.223836,20.7653,520.129,27.7017,0.0,0.0
264,65.75,58.3236,61.98,146.973,104.633,4.98287,0.00365701,0.220959,20.769,520.139,27.5019,0.0,0.0
266,66.25,57.9634,61.7982,142.406,104.612,4.98002,0.00364055,0.217661,20.7738,520.089,27.5053,0.0,0.0
268,66.75,58.2787,61.9323,143.428,104.61,4.92541,0.0036246,0.214989,20.7777,520.129,27.6047,0.0,0.0
270,67.25,57.8849,61.9976,143.636,104.59,4.91686,0.00360932,0.212268,20.7826,520.049,27.6186,0.0,0.0
272,67.75,57.9361,61.6239,143.198,104.588,4.91686,0.00359694,0.209564,20.7865,520.079,27.6185,0.0,0.0
274,68.25,58.0872,62.06,146.679,104.573,4.96482,0.00358319,0.207374,20.7904,520.029,27.5295,0.0,0.0
276,68.75,57.7285,62.0429,148.126,104.579,4.85418,0.00357205,0.204442,20.7942,520.069,27.7336,0.0,0.0
278,69.25,57.6556,61.4968,141.561,104.544,5.03036,0.00356302,0.202068,20.7973,520.039,27.4085,0.0,0.0
280,69.75,57.9069,61.9608,145.156,104.543,4.93538,0.00353955,0.199396,20.8006,520.069,27.5806,0.0,0.0
282,70.25,57.4325,61.5857,141.398,104.536,4.96292,0.00352054,0.197232,20.8034,520.009,27.5298,0.0,0.0
284,70.75,57.3918,61.551,142.618,104.524,4.96198,0.00349148,0.194956,20.806,520.039,27.5305,0.0,0.0
286,71.25,57.3194,61.1435,148.186,104.526,4.97052,0.00346793,0.193112,20.8086,519.989,27.5151,0.0,0.0
288,71.75,57.2779,61.4315,140.379,104.507,4.96815,0.00344513,0.191273,20.8112,520.009,27.5177,0.0,0.0
290,72.25,57.0024,61.2137,142.08,104.507,4.97337,0.00343255,0.189472,20.8132,519.979,27.5083,0.0,0.0
292,72.75,57.5731,61.3836,147.533,104.495,5.01801,0.00342766,0.188014,20.8158,520.009,27.4265,0.0,0.0
294,73.25,57.0472,61.2702,139.783,104.506,4.9539,0.00342369,0.185939,20.8187,519.979,27.5436,0.0,0.0
296,73.75,57.3142,60.9869,143.564,104.492,4.93966,0.00344286,0.184259,20.8218,519.989,27.5684,0.0,0.0
298,74.25,56.7999,60.7998,146.548,104.5,4.9653,0.00345838,0.181992,20.8249,519.979,27.5223,0.0,0.0
300,74.75,56.3411,60.9948,145.696,104.476,4.92873,0.00348273,0.180157,20.8274,519.999,27.587,0.0,0.0
302,75.25,56.6359,60.8126,144.175,104.468,5.08592,0.00351307,0.177826,20.8302,519.979,27.3028,0.0,0.0
304,75.75,56.3422,60.4665,146.399,104.462,5.05648,0.00353764,0.175938,20.833,519.949,27.3546,0.0,0.0
306,76.25,56.4397,60.8521,142.645,104.461,4.93871,0.00356474,0.173596,20.8353,519.939,27.5675,0.0,0.0
308,76.75,56.485,60.7561,147.738,104.453,5.04698,0.00359318,0.1717,20.8376,519.909,27.3709,0.0,0.0
310,77.25,56.3514,60.689,146.706,104.455,4.9558,0.00362736,0.16976,20.8395,519.929,27.5357,0.0,0.0
312,77.75,56.2542,60.1008,145.735,104.449,4.96815,0.00366506,0.167827,20.8423,519.899,27.5127,0.0,0.0
314,78.25,56.1815,60.6371,142.893,104.441,4.9786,0.00371265,0.16626,20.8446,519.929,27.493,0.0,0.0
316,78.75,56.1695,60.3765,145.639,104.433,5.01374,0.00376654,0.164124,20.8473,519.889,27.4288,0.0,0.0
318,79.25,56.1026,60.2348,143.903,104.435,4.99189,0.00382595,0.162394,20.8496,519.919,27.4684,0.0,0.0
320,79.75,55.6092,60.4351,145.439,104.436,4.88125,0.00385873,0.160993,20.8514,519.919,27.671,0.0,0.0
322,80.25,56.1238,60.0927,144.234,104.433,4.90499,0.00393318,0.159169,20.8546,519.919,27.6269,0.0,0.0
324,80.75,55.8536,59.9583,145.959,104.43,4.93443,0.00401004,0.157691,20.8577,519.929,27.5725,0.0,0.0
326,81.25,55.4891,59.699,147.538,104.428,4.93063,0.00408676,0.155997,20.8601,519.939,27.5794,0.0,0.0
328,81.75,55.4696,59.6986,147.296,104.416,4.90452,0.00416191,0.154624,20.8626,519.899,27.6263,0.0,0.0
330,82.25,55.2847,60.0098,144.258,104.439,4.90404,0.00422279,0.153074,20.8645,519.939,27.6292,0.0,0.0
332,82.75,55.4202,59.9333,148.276,104.434,4.89359,0.00427605,0.152413,20.8661,519.909,27.648,0.0,0.0
334,83.25,55.0224,59.6231,149.427,104.452,4.86083,0.00432273,0.150918,20.8678,519.929,27.7103,0.0,0.0
336,83.75,55.4002,59.5043,148.681,104.444,4.88742,0.00436055,0.149707,20.8693,519.859,27.6602,0.0,0.0
338,84.25,55.0349,59.4223,149.063,104.458,4.94868,0.00436995,0.148478,20.8704,519.899,27.5489,0.0,0.0
340,84.75,54.6756,59.2006,145.588,104.455,4.91496,0.00437755,0.147483,20.8715,519.859,27.6105,0.0,0.0
342,85.25,54.6964,59.2581,144.891,104.466,4.90262,0.00438372,0.146458,20.8727,519.929,27.6342,0.0,0.0
344,85.75,55.0565,59.382,151.04,104.457,4.90167,0.00436575,0.145627,20.8736,519.869,27.6351,0.0,0.0
346,86.25,54.4058,58.7987,145.433,104.473,4.8746,0.00433053,0.144955,20.8751,519.949,27.6865,0.0,0.0
348,86.75,54.2327,59.1352,147.254,104.459,4.91591,0.00429676,0.144221,20.8763,519.899,27.609,0.0,0.0
350,87.25,54.5889,58.9433,144.798,104.48,4.93586,0.00426467,0.143626,20.8774,519.969,27.5743,0.0,0.0
352,87.75,54.2958,58.3638,147.199,104.464,4.91021,0.00424524,0.143145,20.8783,519.869,27.62,0.0,0.0
354,88.25,54.2783,58.7423,147.051,104.478,4.94013,0.00423542,0.142594,20.8791,519.949,27.5663,0.0,0.0
356,88.75,54.2361,58.8842,144.751,104.469,4.95153,0.00423337,0.142148,20.8797,519.849,27.5447,0.0,0.0
358,89.25,53.9828,58.6992,146.055,104.49,4.89692,0.00423703,0.141727,20.8802,519.899,27.6467,0.0,0.0
360,89.75,53.8381,58.2781,144.036,104.466,4.92446,0.00424,0.141331,20.8806,519.799,27.594,0.0,0.0
362,90.25,53.7997,58.4073,147.157,104.492,4.9691,0.0042424,0.140995,20.8811,519.889,27.5147,0.0,0.0
364,90.75,53.7032,58.1759,148.099,104.47,4.93253,0.00424434,0.140709,20.8818,519.809,27.5795,0.0,0.0
366,91.25,53.5169,58.124,146.725,104.49,4.86985,0.00424329,0.140454,20.8823,519.909,27.6968,0.0,0.0
368,91.75,53.3682,57.6287,145.01,104.491,4.94061,0.00424008,0.140228,20.8827,519.789,27.5665,0.0,0.0
370,92.25,53.0456,57.4748,144.194,104.501,4.93301,0.00423682,0.140044,20.8831,519.869,27.5813,0.0,0.0
372,92.75,52.9794,57.2378,144.635,104.473,4.91876,0.00423358,0.139924,20.8833,519.779,27.605,0.0,0.0
374,93.25,52.9124,57.7364,144.658,104.501,4.93871,0.0042349,0.139827,20.8836,519.839,27.5709,0.0,0.0
376,93.75,52.7626,57.4104,145.346,104.483,4.95723,0.00423952,0.139771,20.8838,519.769,27.5355,0.0,0.0
378,94.25,52.8272,57.4703,146.623,104.495,4.99427,0.00425325,0.139747,20.8839,519.859,27.4693,0.0,0.0
380,94.75,52.7114,57.1796,147.336,104.47,4.92636,0.00426437,0.139735,20.884,519.779,27.5908,0.0,0.0
382,95.25,52.4009,56.727,145.9,104.473,4.98382,0.00427587,0.139732,20.8841,519.879,27.4864,0.0,0.0
384,95.75,52.7439,57.0132,144.967,104.464,5.04508,0.00428519,0.139753,20.8842,519.789,27.3752,0.0,0.0
386,96.25,52.6977,57.3868,146.827,104.478,4.97385,0.00429273,0.13979,20.8843,519.879,27.5049,0.0,0.0
388,96.75,52.9308,57.3837,144.331,104.454,4.98809,0.00430275,0.139851,20.8843,519.779,27.4769,0.0,0.0
390,97.25,52.3116,57.146,149.134,104.464,4.89597,0.00431439,0.139928,20.8844,519.869,27.6462,0.0,0.0
392,97.75,52.6625,57.3488,145.674,104.447,4.90119,0.00432447,0.13999,20.8844,519.769,27.6352,0.0,0.0
394,98.25,52.7293,56.9221,145.882,104.461,4.86225,0.00433322,0.140041,20.8843,519.849,27.7084,0.0,0.0
396,98.75,52.4099,57.0703,146.279,104.449,4.89597,0.00434032,0.140082,20.8842,519.789,27.6449,0.0,0.0
398,99.25,52.2529,56.3968,148.381,104.47,4.90736,0.00434232,0.140157,20.8841,519.879,27.6257,0.0,0.0
400,99.75,51.8012,56.6532,142.312,104.434,4.92446,0.00434394,0.140218,20.884,519.769,27.5912,0.0,0.0
402,100.25,51.9671,56.7936,147.892,104.433,4.86985,0.00433651,0.140298,20.8837,519.849,27.6919,0.0,0.0
404,100.75,51.2609,56.2527,147.722,104.411,4.97005,0.00432524,0.140391,20.8833,519.729,27.506,0.0,0.0
406,101.25,51.8207,56.1335,145.514,104.423,4.91306,0.00431138,0.140465,20.8829,519.799,27.6112,0.0,0.0
408,101.75,52.0823,56.281,144.959,104.423,4.95343,0.00429884,0.140541,20.8826,519.689,27.5372,0.0,0.0
410,102.25,51.7266,55.6551,147.899,104.424,4.94346,0.0042875,0.140601,20.8824,519.769,27.5555,0.0,0.0
412,102.75,52.4153,56.2199,148.555,104.428,4.94915,0.00427831,0.140651,20.8822,519.709,27.5455,0.0,0.0
414,103.25,51.6706,55.9793,144.447,104.433,4.93111,0.00427941,0.140691,20.882,519.779,27.5789,0.0,0.0
416,103.75,51.6546,55.4653,147.272,104.434,4.97907,0.00428799,0.140694,20.8819,519.719,27.4916,0.0,0.0
418,104.25,52.1958,56.0201,145.136,104.457,4.99142,0.00430611,0.140697,20.8818,519.809,27.4712,0.0,0.0
420,104.75,51.6404,56.0582,146.693,104.467,4.96198,0.00433085,0.140757,20.8817,519.709,27.5255,0.0,0.0
422,105.25,51.3081,55.6884,149.885,104.453,5.02228,0.00435088,0.140806,20.8817,519.809,27.4152,0.0,0.0
424,105.75,51.4877,55.6422,147.115,104.456,4.93918,0.00437585,0.140948,20.8816,519.739,27.5661,0.0,0.0
426,106.25,51.8167,55.7419,146.334,104.457,4.9596,0.00439608,0.141062,20.8816,519.799,27.529,0.0,0.0
428,106.75,51.6014,55.9691,148.562,104.472,4.93491,0.00441378,0.141186,20.8815,519.729,27.5753,0.0,0.0
430,107.25,51.5654,55.92,145.762,104.465,4.952,0.0044293,0.141313,20.8815,519.779,27.5435,0.0,0.0
432,107.75,51.3459,55.5022,148.682,104.47,5.03938,0.00444187,0.141417,20.8815,519.719,27.3859,0.0,0.0
434,108.25,51.356,55.4621,144.084,104.486,4.94251,0.00444154,0.141428,20.8815,519.749,27.5627,0.0,0.0
436,108.75,51.4393,55.7722,146.909,104.489,4.95105,0.0044318,0.141437,20.8816,519.699,27.5473,0.0,0.0
438,109.25,50.6738,55.5568,148.598,104.494,5.00281,0.00442128,0.141398,20.8818,519.729,27.4538,0.0,0.0
440,109.75,51.0206,55.3751,147.551,104.495,4.94678,0.00441039,0.141325,20.8819,519.679,27.5557,0.0,0.0
442,110.25,51.4643,55.4464,143.888,104.508,5.03891,0.00440157,0.141266,20.882,519.679,27.39,0.0,0.0
444,110.75,50.6053,55.4945,146.596,104.511,4.95533,0.00440363,0.141218,20.8821,519.649,27.5414,0.0,0.0
446,111.25,51.0809,55.1376,148.457,104.524,4.93063,0.00441359,0.141092,20.8821,519.639,27.5877,0.0,0.0
448,111.75,51.2701,55.2733,149.662,104.532,4.93871,0.0044302,0.14099,20.8822,519.619,27.5736,0.0,0.0
450,112.25,50.5697,55.1961,146.113,104.535,4.9482,0.00445135,0.140893,20.8822,519.649,27.5565,0.0,0.0
452,112.75,51.1097,54.6367,147.122,104.537,4.92493,0.00447835,0.140814,20.8822,519.629,27.5992,0.0,0.0
454,113.25,51.0176,55.0759,146.629,104.547,4.93823,0.0045091,0.140811,20.8823,519.599,27.5758,0.0,0.0
456,113.75,50.5557,54.7861,145.642,104.557,4.94013,0.00454191,0.140865,20.8823,519.579,27.5732,0.0,0.0
458,114.25,50.993,54.8199,149.202,104.56,4.99189,0.00457559,0.140915,20.8823,519.619,27.4792,0.0,0.0
460,114.75,50.6906,54.8042,145.639,104.584,4.94203,0.00460485,0.140963,20.8823,519.639,27.572,0.0,0.0
462,115.25,50.8045,54.474,144.326,104.574,4.98809,0.00463033,0.141002,20.8828,519.649,27.4873,0.0,0.0
464,115.75,50.3696,54.3275,146.674,104.588,4.97337,0.00464636,0.14099,20.8831,519.639,27.5153,0.0,0.0
466,116.25,50.0808,54.2203,144.939,104.599,4.96055,0.0046552,0.140949,20.8834,519.639,27.5395,0.0,0.0
468,116.75,50.4787,54.5659,148.265,104.617,4.96625,0.00466235,0.140889,20.8837,519.659,27.5307,0.0,0.0
470,117.25,50.6687,54.5657,147.184,104.616,4.99332,0.00466815,0.140817,20.8839,519.619,27.4815,0.0,0.0
472,117.75,50.7093,54.4572,150.665,104.631,4.98429,0.00466534,0.140738,20.884,519.669,27.4991,0.0,0.0
474,118.25,50.5912,54.4691,146.89,104.627,4.95913,0.00466307,0.140697,20.8842,519.619,27.5445,0.0,0.0
476,118.75,50.0811,54.5545,146.54,104.647,4.96103,0.00467373,0.140685,20.8843,519.629,27.5428,0.0,0.0
478,119.25,50.0025,54.3347,144.812,104.656,4.95058,0.00468237,0.140674,20.8844,519.599,27.5626,0.0,0.0
480,119.75,50.2253,54.7154,143.781,104.668,4.98287,0.00468937,0.140682,20.8844,519.629,27.5049,0.0,0.0
482,120.25,50.312,54.3154,145.071,104.673,4.97527,0.00469503,0.140701,20.8845,519.579,27.5192,0.0,0.0
484,120.75,50.0098,54.4623,143.127,104.692,4.99617,0.00469107,0.140717,20.8845,519.669,27.4829,0.0,0.0
486,121.25,49.7661,54.2389,148.482,104.695,4.96435,0.00468015,0.14073,20.8846,519.589,27.5408,0.0,0.0
488,121.75,50.6289,54.3151,147.243,104.711,4.96577,0.00466342,0.14074,20.8846,519.659,27.5397,0.0,0.0
490,122.25,50.4786,54.7697,146.013,104.717,4.97242,0.00464275,0.140756,20.8846,519.589,27.5281,0.0,0.0
492,122.75,50.0052,53.9318,143.911,104.731,4.98429,0.00461615,0.140776,20.8846,519.609,27.5077,0.0,0.0
494,123.25,49.7677,54.2051,146.306,104.732,4.95628,0.00458573,0.140746,20.8846,519.539,27.5588,0.0,0.0
496,123.75,50.0753,54.0002,146.797,104.755,4.98334,0.00456108,0.140681,20.8847,519.639,27.5116,0.0,0.0
498,124.25,49.9538,53.9552,147.457,104.752,4.97575,0.00452535,0.140628,20.8849,519.559,27.525,0.0,0.0
500,124.75,49.9437,53.805,144.815,104.776,4.99189,0.0044822,0.140497,20.8853,519.649,27.4979,0.0,0.0
502,125.25,50.0132,54.3305,147.141,104.778,5.02133,0.00444331,0.140315,20.8856,519.529,27.4449,0.0,0.0
504,125.75,49.8773,53.6876,148.817,104.805,4.99617,0.00440827,0.140099,20.8859,519.609,27.4927,0.0,0.0
506,126.25,49.8787,54.0916,145.566,104.8,4.96245,0.00438448,0.139923,20.8861,519.509,27.5534,0.0,0.0
508,126.75,49.7088,54.3101,147.093,104.825,5.02561,0.00436935,0.139694,20.8863,519.619,27.4413,0.0,0.0
510,127.25,50.1401,54.2211,144.433,104.834,4.99047,0.00435709,0.139508,20.8864,519.529,27.5054,0.0,0.0
512,127.75,50.2455,53.5593,147.665,104.848,4.98667,0.00435722,0.139312,20.8865,519.619,27.5136,0.0,0.0
514,128.25,49.7968,53.7622,149.323,104.856,4.97337,0.00435732,0.139111,20.8866,519.509,27.5383,0.0,0.0
516,128.75,49.987,53.9489,149.43,104.898,5.01564,0.00436595,0.138949,20.8867,519.619,27.4656,0.0,0.0
518,129.25,49.6812,54.0363,148.379,104.89,4.99427,0.00438063,0.138818,20.8869,519.509,27.5034,0.0,0.0
520,129.75,49.9704,53.2405,146.241,104.91,4.99332,0.00440371,0.138711,20.8871,519.609,27.5068,0.0,0.0
522,130.25,49.9872,53.6615,144.42,104.928,4.9786,0.00443246,0.138639,20.8873,519.539,27.5351,0.0,0.0
524,130.75,49.6257,53.4956,144.222,104.947,4.97147,0.00445574,0.138581,20.8874,519.649,27.5496,0.0,0.0
526,131.25,49.8902,53.6311,146.319,104.954,4.96292,0.00447461,0.13855,20.8875,519.549,27.5657,0.0,0.0
528,131.75,49.462,53.3367,146.538,104.975,4.92968,0.00450568,0.13854,20.8875,519.639,27.6283,0.0,0.0
530,132.25,49.412,53.6011,149.078,104.968,4.98524,0.00454507,0.138585,20.8877,519.509,27.5264,0.0,0.0
532,132.75,49.4536,53.3475,145.11,105.017,5.0731,0.00458026,0.138669,20.8878,519.609,27.3729,0.0,0.0
534,133.25,49.5003,53.4737,142.84,105.001,5.07262,0.00461173,0.138738,20.8879,519.539,27.3724,0.0,0.0
536,133.75,49.4847,53.3239,143.678,105.037,5.0579,0.00463393,0.138794,20.888,519.599,27.4017,0.0,0.0
538,134.25,49.37,53.4278,147.918,105.041,5.02561,0.00464895,0.138839,20.8881,519.499,27.4599,0.0,0.0
540,134.75,49.5338,53.7491,150.714,105.062,4.9748,0.00465255,0.138875,20.8881,519.609,27.5535,0.0,0.0
542,135.25,50.0455,53.466,150.025,105.061,5.06312,0.00464777,0.138851,20.8881,519.509,27.3944,0.0,0.0
544,135.75,50.2185,53.2211,146.437,105.107,5.02846,0.00463403,0.138783,20.8882,519.599,27.4604,0.0,0.0
546,136.25,49.6558,53.1877,148.396,105.087,5.04793,0.00461402,0.138698,20.8882,519.489,27.4238,0.0,0.0
548,136.75,49.5614,53.3282,150.192,105.112,5.01231,0.00458992,0.138601,20.8882,519.579,27.4899,0.0,0.0
550,137.25,49.1559,52.9045,145.332,105.117,4.9653,0.0045633,0.138461,20.8882,519.449,27.5755,0.0,0.0
552,137.75,49.6544,53.4165,149.498,105.145,5.02513,0.00454173,0.138293,20.8883,519.539,27.4697,0.0,0.0
554,138.25,49.4376,53.3478,147.24,105.162,5.06312,0.00451572,0.138157,20.8883,519.459,27.4031,0.0,0.0
556,138.75,49.2151,53.3428,145.624,105.177,5.04318,0.00448695,0.137945,20.8887,519.519,27.4401,0.0,0.0
558,139.25,49.7465,53.566,149.11,105.168,4.98619,0.00446366,0.137765,20.8891,519.449,27.542,0.0,0.0
560,139.75,49.4237,53.4727,147.754,105.195,5.0465,0.0044323,0.137613,20.8894,519.559,27.4356,0.0,0.0
562,140.25,49.5848,53.1405,145.504,105.193,4.98809,0.0044069,0.13749,20.8896,519.489,27.5406,0.0,0.0
564,140.75,49.7854,53.416,149.591,105.221,4.92351,0.00438107,0.137463,20.8898,519.559,27.6608,0.0,0.0
566,141.25,49.4558,52.758,154.612,105.225,5.03796,0.00435542,0.137441,20.89,519.449,27.4535,0.0,0.0
568,141.75,48.9759,52.809,147.051,105.235,4.99047,0.00433136,0.137423,20.8901,519.489,27.5399,0.0,0.0
570,142.25,49.0337,52.7884,145.431,105.243,4.98904,0.00430892,0.137452,20.8902,519.409,27.5432,0.0,0.0
572,142.75,49.5934,53.2066,144.004,105.26,5.01041,0.00429599,0.137475,20.8903,519.469,27.5061,0.0,0.0
574,143.25,49.3272,52.7108,144.946,105.274,5.02466,0.00429025,0.137479,20.8904,519.419,27.4816,0.0,0.0
576,143.75,49.4431,52.9578,151.09,105.282,5.02418,0.00431557,0.137469,20.8904,519.469,27.4832,0.0,0.0
578,144.25,48.7877,52.9902,148.689,105.285,5.02846,0.00433607,0.13746,20.8905,519.419,27.4758,0.0,0.0
580,144.75,49.4305,53.0884,143.831,105.3,5.00614,0.00434482,0.137453,20.8905,519.469,27.5172,0.0,0.0
582,145.25,49.0316,52.7583,149.785,105.304,5.03891,0.00438147,0.137432,20.8905,519.419,27.4586,0.0,0.0
584,145.75,49.1795,52.7287,147.914,105.312,5.08354,0.0044307,0.137401,20.8905,519.459,27.3796,0.0,0.0
586,146.25,49.1903,52.6525,147.323,105.316,5.00614,0.00448433,0.137353,20.8906,519.389,27.5186,0.0,0.0
588,146.75,49.4575,53.0858,148.608,105.321,5.02656,0.00452777,0.137294,20.8906,519.409,27.4823,0.0,0.0
590,147.25,49.1036,52.5645,152.211,105.32,5.09114,0.00456691,0.137246,20.8906,519.389,27.3668,0.0,0.0
592,147.75,49.2477,53.0536,146.716,105.328,5.08117,0.00460217,0.137225,20.8906,519.389,27.3852,0.0,0.0
594,148.25,49.3966,52.9956,146.183,105.337,5.06645,0.00463204,0.13719,20.8906,519.369,27.4122,0.0,0.0
596,148.75,48.6839,53.0801,147.758,105.326,5.07072,0.00465743,0.137131,20.8906,519.389,27.4036,0.0,0.0
598,149.25,49.5314,52.364,144.824,105.33,5.10159,0.00467799,0.137056,20.8906,519.369,27.3492,0.0,0.0
600,149.75,49.0024,52.6672,147.976,105.333,4.99949,0.0046959,0.137002,20.8906,519.369,27.5321,0.0,0.0
602,150.25,48.6339,52.5727,149.91,105.344,5.0636,0.0047104,0.136966,20.8906,519.349,27.4179,0.0,0.0
604,150.75,49.2541,52.5167,145.113,105.329,5.05458,0.00471089,0.136921,20.8906,519.349,27.4327,0.0,0.0
606,151.25,49.272,52.4766,145.223,105.338,5.05125,0.00471128,0.136871,20.8906,519.329,27.4395,0.0,0.0
608,151.75,48.8174,52.1884,145.803,105.326,5.03748,0.00471161,0.136831,20.8906,519.349,27.4631,0.0,0.0
610,152.25,49.251,52.2347,148.882,105.321,5.00329,0.0046856,0.136754,20.8906,519.359,27.5241,0.0,0.0
612,152.75,48.8667,52.492,143.843,105.322,5.07974,0.00466454,0.136693,20.8906,519.339,27.3873,0.0,0.0
614,153.25,49.065,52.1598,146.425,105.326,5.0446,0.00464374,0.136589,20.8906,519.339,27.4503,0.0,0.0
616,153.75,49.6362,52.7476,146.503,105.312,4.99379,0.00462688,0.136457,20.8909,519.319,27.5405,0.0,0.0
618,154.25,49.6284,52.173,148.382,105.314,5.04888,0.00461323,0.136281,20.8913,519.319,27.4416,0.0,0.0
620,154.75,49.1374,52.4225,145.268,105.306,5.0446,0.00461717,0.136077,20.8915,519.289,27.4486,0.0,0.0
622,155.25,48.8449,52.0549,148.798,105.301,5.02703,0.00462036,0.135911,20.8917,519.319,27.4796,0.0,0.0
624,155.75,48.7264,52.164,142.23,105.277,5.08782,0.0046267,0.135719,20.8918,519.289,27.3691,0.0,0.0
626,156.25,48.6526,51.9358,149.401,105.274,5.10966,0.00463184,0.135563,20.8919,519.329,27.3301,0.0,0.0
628,156.75,48.9082,51.7494,145.645,105.255,5.13008,0.00462849,0.135437,20.8922,519.329,27.2924,0.0,0.0
630,157.25,48.9624,52.2096,147.463,105.258,5.05363,0.00462578,0.135297,20.8927,519.369,27.4283,0.0,0.0
632,157.75,49.3897,52.6138,146.901,105.238,5.02039,0.00461175,0.135149,20.893,519.319,27.4862,0.0,0.0
634,158.25,48.7574,51.8825,145.045,105.224,5.0503,0.00458972,0.134983,20.8933,519.399,27.4314,0.0,0.0
636,158.75,48.8891,52.1482,147.045,105.202,5.00899,0.00457188,0.134808,20.8936,519.349,27.5037,0.0,0.0
638,159.25,48.7183,52.1219,146.821,105.196,5.04413,0.00452121,0.13462,20.8938,519.429,27.44,0.0,0.0
640,159.75,48.9189,52.1686,144.233,105.166,5.05363,0.00448017,0.134426,20.8939,519.359,27.4204,0.0,0.0
642,160.25,49.263,52.4357,145.944,105.169,5.01754,0.00444692,0.134247,20.8941,519.419,27.4854,0.0,0.0
644,160.75,48.4594,51.975,146.768,105.147,5.12201,0.00439996,0.134081,20.8942,519.309,27.2974,0.0,0.0
646,161.25,49.2741,52.1145,147.634,105.14,5.07737,0.00436192,0.133946,20.8943,519.379,27.3758,0.0,0.0
648,161.75,48.9192,52.3303,151.995,105.123,5.03131,0.00433236,0.133808,20.8942,519.259,27.4567,0.0,0.0
650,162.25,48.4504,51.8665,148.817,105.117,4.96862,0.00430841,0.133696,20.8941,519.359,27.5694,0.0,0.0
652,162.75,48.4032,52.2594,146.532,105.091,4.97907,0.004294,0.133582,20.894,519.249,27.5482,0.0,0.0
654,163.25,48.6966,52.275,147.984,105.084,4.99807,0.0042843,0.133468,20.894,519.349,27.5133,0.0,0.0
656,163.75,48.8216,51.8696,148.103,105.056,4.99807,0.00427822,0.133376,20.8944,519.239,27.5108,0.0,0.0
658,164.25,48.9202,51.9104,145.696,105.036,4.98145,0.00427527,0.133214,20.8947,519.329,27.5392,0.0,0.0
660,164.75,49.0692,52.3501,146.298,105.008,5.07974,0.00427464,0.133083,20.895,519.239,27.3603,0.0,0.0
662,165.25,48.9816,51.443,144.259,104.994,5.00376,0.00427414,0.132963,20.8952,519.319,27.4952,0.0,0.0
664,165.75,48.2184,51.9028,151.04,104.971,5.03558,0.00427702,0.132865,20.8954,519.209,27.436,0.0,0.0
666,166.25,48.7341,52.0422,145.677,104.957,5.01089,0.00428231,0.132728,20.8955,519.329,27.4792,0.0,0.0
668,166.75,48.8489,51.9191,147.247,104.924,5.09684,0.0042879,0.132617,20.8956,519.219,27.3227,0.0,0.0
670,167.25,48.5915,52.0034,145.942,104.913,4.9539,0.00429362,0.132484,20.8957,519.319,27.5787,0.0,0.0
672,167.75,48.3053,51.9171,148.553,104.879,4.99664,0.00429299,0.132376,20.8958,519.209,27.4981,0.0,0.0
674,168.25,48.8486,51.8346,142.807,104.859,5.04983,0.00428776,0.13228,20.8958,519.299,27.4008,0.0,0.0
676,168.75,48.6183,52.1806,147.255,104.83,5.01991,0.00427432,0.132196,20.8959,519.209,27.452,0.0,0.0
678,169.25,48.4429,51.8609,146.724,104.819,4.97717,0.00425516,0.132113,20.8959,519.299,27.5283,0.0,0.0
680,169.75,48.7165,51.8844,141.594,104.788,5.0427,0.00423964,0.132032,20.896,519.209,27.4074,0.0,0.0
682,170.25,48.9001,51.7856,150.659,104.778,5.01326,0.00420961,0.131966,20.896,519.289,27.4595,0.0,0.0
684,170.75,48.8372,51.8512,143.793,104.738,5.06122,0.00419681,0.131928,20.896,519.189,27.37,0.0,0.0
686,171.25,48.4464,51.8689,147.352,104.715,5.07547,0.0041743,0.131896,20.896,519.299,27.3426,0.0,0.0
688,171.75,48.4409,51.8353,147.37,104.686,4.99949,0.0041555,0.131871,20.8962,519.209,27.4764,0.0,0.0
690,172.25,48.7407,52.096,146.519,104.658,4.98097,0.00414028,0.131865,20.8963,519.309,27.5074,0.0,0.0
692,172.75,48.4482,52.0848,144.513,104.619,4.97907,0.00412794,0.131875,20.8964,519.199,27.5076,0.0,0.0
694,173.25,48.9314,52.0028,144.439,104.595,4.95485,0.00411795,0.131882,20.8965,519.279,27.5495,0.0,0.0
696,173.75,48.6308,51.3173,143.577,104.544,5.02608,0.00410265,0.131863,20.8966,519.169,27.4162,0.0,0.0
698,174.25,48.7386,51.84,148.147,104.538,4.97907,0.00408375,0.131831,20.8967,519.269,27.5005,0.0,0.0
700,174.75,48.3825,51.7151,147.012,104.494,4.97955,0.00406451,0.131805,20.8967,519.179,27.4959,0.0,0.0
702,175.25,48.5463,51.6657,145.51,104.475,4.99094,0.00404538,0.131726,20.8968,519.279,27.4736,0.0,0.0
704,175.75,48.6593,51.396,145.076,104.436,5.01516,0.00403251,0.131662,20.8968,519.179,27.4265,0.0,0.0
706,176.25,48.9747,51.8453,146.999,104.41,4.98857,0.00402445,0.131579,20.8968,519.279,27.4723,0.0,0.0
708,176.75,48.2228,51.5011,146.156,104.374,5.00376,0.00401792,0.131485,20.8973,519.169,27.4417,0.0,0.0
710,177.25,48.7985,51.7048,147.854,104.358,4.98714,0.00401263,0.131409,20.8977,519.249,27.4704,0.0,0.0
712,177.75,48.7114,52.0107,145.341,104.311,5.04603,0.00401956,0.131275,20.898,519.149,27.3603,0.0,0.0
714,178.25,48.7992,51.9109,147.989,104.283,4.95343,0.00402518,0.131166,20.8982,519.229,27.5251,0.0,0.0
716,178.75,48.7972,51.4096,146.306,104.241,5.00234,0.00403347,0.131078,20.8984,519.149,27.4328,0.0,0.0
718,179.25,48.4948,51.7532,146.271,104.209,4.99427,0.00404018,0.131007,20.8986,519.219,27.4445,0.0,0.0
720,179.75,48.3235,51.9116,147.289,104.184,5.00756,0.00404562,0.130949,20.8987,519.149,27.4184,0.0,0.0
722,180.25,48.6036,51.2385,148.128,104.154,5.03178,0.00404753,0.13083,20.8988,519.219,27.3722,0.0,0.0
724,180.75,48.389,51.568,148.781,104.116,4.9615,0.00404908,0.130733,20.8989,519.139,27.4959,0.0,0.0
726,181.25,48.7428,51.6449,145.063,104.095,5.02608,0.00404771,0.13064,20.899,519.219,27.3774,0.0,0.0
728,181.75,48.1269,51.748,148.753,104.056,5.02798,0.00404424,0.130565,20.8995,519.149,27.3705,0.0,0.0
730,182.25,48.4387,51.362,146.36,104.034,5.03226,0.00403683,0.130436,20.8999,519.159,27.361,0.0,0.0
732,182.75,48.3087,51.3327,145.071,104.007,5.02466,0.0040267,0.130269,20.9002,519.099,27.3722,0.0,0.0
734,183.25,48.1585,51.1503,147.435,103.966,4.9786,0.00401259,0.130134,20.9005,519.119,27.4519,0.0,0.0
736,183.75,48.2778,51.4717,150.232,103.932,4.93158,0.00399585,0.129909,20.9007,519.089,27.5346,0.0,0.0
738,184.25,48.8913,51.2126,144.044,103.899,5.01279,0.00398229,0.129727,20.9008,519.099,27.3842,0.0,0.0
740,184.75,48.5448,51.6791,147.95,103.872,4.96008,0.0039601,0.129595,20.901,519.048,27.4773,0.0,0.0
742,185.25,47.9512,51.3334,147.568,103.861,5.00756,0.00394081,0.129501,20.9011,519.059,27.3904,0.0,0.0
744,185.75,47.9042,51.8006,149.757,103.823,4.93871,0.00392401,0.129425,20.9012,519.038,27.5121,0.0,0.0
746,186.25,48.1197,51.7054,145.811,103.8,4.9577,0.0039104,0.129349,20.9013,519.068,27.4754,0.0,0.0
748,186.75,48.5702,51.3411,146.704,103.758,5.00186,0.00390658,0.129288,20.9013,519.059,27.3917,0.0,0.0
750,187.25,48.0762,51.4951,147.515,103.75,4.95723,0.00390998,0.12918,20.9014,519.099,27.472,0.0,0.0
752,187.75,48.3622,51.4333,143.479,103.709,4.94773,0.00392192,0.129093,20.9014,519.089,27.4857,0.0,0.0
754,188.25,48.277,51.5651,144.862,103.676,4.89929,0.00393986,0.128993,20.9014,519.099,27.5717,0.0,0.0
756,188.75,47.6878,51.4749,146.207,103.666,4.93776,0.00395438,0.128913,20.9015,519.099,27.5001,0.0,0.0
758,189.25,48.3722,51.1685,146.686,103.639,4.9824,0.00397612,0.128847,20.9015,519.109,27.4165,0.0,0.0
760,189.75,48.4561,51.5699,147.516,103.611,4.97717,0.00399373,0.128795,20.9015,519.109,27.4236,0.0,0.0
762,190.25,48.4154,51.5736,144.328,103.59,4.96103,0.00400924,0.128714,20.9015,519.059,27.4511,0.0,0.0
764,190.75,48.3274,51.7531,147.158,103.569,4.99997,0.00402181,0.128614,20.9015,519.059,27.3786,0.0,0.0
766,191.25,47.7915,51.2235,146.372,103.538,4.96008,0.00403323,0.128533,20.9015,519.038,27.4483,0.0,0.0
768,191.75,48.1415,51.3751,145.292,103.524,5.0484,0.00404249,0.12841,20.902,519.038,27.2876,0.0,0.0
770,192.25,47.9456,51.6189,146.088,103.507,4.99712,0.0040467,0.12831,20.9023,519.038,27.3783,0.0,0.0
772,192.75,48.2904,51.1859,143.469,103.499,4.96815,0.00404716,0.128258,20.9026,519.059,27.4302,0.0,0.0
774,193.25,48.322,51.2337,148.565,103.47,4.98857,0.00404753,0.128216,20.9029,519.059,27.3906,0.0,0.0
776,193.75,48.0569,51.4493,147.401,103.459,4.9539,0.00404258,0.128138,20.9031,519.078,27.4526,0.0,0.0
778,194.25,48.0277,51.0582,149.975,103.448,4.93301,0.00403385,0.128075,20.9032,519.059,27.4898,0.0,0.0
780,194.75,48.2266,51.2049,147.188,103.439,5.02513,0.00402416,0.128009,20.9034,519.089,27.3219,0.0,0.0
782,195.25,47.7344,51.1152,144.092,103.429,4.97622,0.00401394,0.127942,20.9035,519.059,27.4094,0.0,0.0
784,195.75,47.7449,50.8833,146.758,103.413,4.97907,0.00400567,0.127888,20.9035,519.099,27.4028,0.0,0.0
786,196.25,48.2418,51.1596,149.153,103.412,4.97527,0.00399897,0.127798,20.904,519.038,27.4097,0.0,0.0
788,196.75,47.7049,51.2753,148.354,103.406,4.97005,0.00399682,0.127684,20.9045,519.129,27.4186,0.0,0.0
790,197.25,48.2327,51.2672,147.941,103.4,4.92873,0.00399803,0.127531,20.9048,519.059,27.4935,0.0,0.0
792,197.75,48.0491,51.3351,148.098,103.409,4.93348,0.0040036,0.127352,20.9051,519.109,27.4856,0.0,0.0
794,198.25,47.7236,51.294,147.484,103.394,4.99189,0.00401225,0.127192,20.9053,519.048,27.3779,0.0,0.0
796,198.75,48.0098,50.9236,144.03,103.393,4.9805,0.0040186,0.127049,20.9055,519.139,27.3985,0.0,0.0
798,199.25,48.0199,51.0485,151.552,103.396,5.03796,0.00402315,0.126918,20.9056,519.048,27.2951,0.0,0.0
800,199.75,48.0592,50.3001,143.889,103.408,5.06835,0.00402684,0.126798,20.9057,519.129,27.2418,0.0,0.0
802,200.25,47.9955,50.7246,148.08,103.4,5.02086,0.00402983,0.1267,20.9058,519.028,27.3261,0.0,0.0
804,200.75,48.3934,51.1853,147.272,103.409,4.98145,,0.126593,,519.109,27.3982,0.0,0.0
806,201.25,47.758,51.182,146.546,103.4,5.03083,,0.12646,,519.008,27.3082,0.0,0.0
808,201.75,47.9768,51.0043,145.549,103.433,4.94203,,0.126311,,519.099,27.4721,0.0,0.0
810,202.25,48.2785,51.1252,150.371,103.427,4.99712,,0.126191,,518.988,27.3714,0.0,0.0
812,202.75,47.9525,51.1944,146.706,103.463,4.93538,,0.126093,,519.078,27.4868,0.0,0.0
814,203.25,47.6577,51.1323,149.15,103.466,4.98952,,0.126007,,518.988,27.3885,0.0,0.0
816,203.75,47.9181,51.4747,146.221,103.479,5.02371,,,,519.078,27.328,0.0,0.0
818,204.25,48.5352,51.2766,145.018,103.505,5.04935,,,,518.988,27.2843,0.0,0.0
820,204.75,47.5228,50.9681,150.996,103.512,4.96245,,,,519.068,27.4416,0.0,0.0
822,205.25,47.9858,50.6972,146.435,103.515,5.01089,,,,518.978,27.3542,0.0,0.0
824,205.75,47.7919,51.0608,148.646,103.546,4.9672,,,,519.068,27.436,0.0,0.0
826,206.25,48.1189,51.0517,147.343,103.557,4.94108,,,,518.958,27.4846,0.0,0.0
828,206.75,48.3827,50.755,146.161,103.592,4.98145,,,,519.059,27.4142,0.0,0.0
830,207.25,47.8339,51.0318,146.65,103.608,4.92921,,,,518.968,27.5107,0.0,0.0
832,207.75,48.1333,51.2315,146.33,103.64,4.93633,,,,519.068,27.5005,0.0,0.0
834,208.25,48.3842,51.0357,145.261,103.679,4.98002,,,,518.968,27.4243,0.0,0.0
836,208.75,47.7011,51.1003,150.196,103.691,4.94156,,,,519.078,27.4954,0.0,0.0
838,209.25,47.6472,50.9282,146.828,103.708,4.99712,,,,518.978,27.3959,0.0,0.0
840,209.75,48.2197,51.009,147.99,103.74,5.05505,,,,519.068,27.2946,0.0,0.0
842,210.25,47.9956,50.7498,145.927,103.761,4.98382,,,,518.988,27.4245,0.0,0.0
844,210.75,48.0672,50.7932,144.958,103.82,5.00946,,,,519.068,27.3834,0.0,0.0
846,211.25,47.6562,50.9475,144.784,103.823,4.97052,,,,518.968,27.4541,0.0,0.0
847,211.5,47.9674,51.1014,147.37,103.837,4.9748,,,,518.998,27.4475,0.0,0.0