File: 01_Data/Polyisocyanurate_Foam_Board/Cone/Polyisocyanurate_Foam_Board_Cone_HF25Scan_220922_R1.csv
Names,Time,Stack TC,Smoke TC,Exh Press,Smoke Comp,Smoke Meas,CO Meter,CO2 Meter,O2 Meter,Sample Mass,Ext Coeff,Start Test,Flame Verif
Chan Gain,,500,500,1,1,1,1,1,1,1,1,1.0,1.0
Offset,,0,0,0.137569,0,0,0,0,0,0,0,0.0,0.0
Gain,,1,1,25.011,13.0852,15.0251,1,1,1,1.00088,1.05531,1.0,1.0
Units,sec,C,C,Pa,%,%,%,%,%,g,/m,,
Baseline,,37.7022,38.3186,167.201,98.6698,95.9858,0.0015105,0.0796596,20.9425,-447.407,0.255332,,
18,4.25,35.6637,36.1229,165.284,99.1901,96.7155,0.00151368,0.0843497,20.9384,84.6744,0.233881,0.0,0.0
36,8.75,35.4479,35.9828,163.096,99.2672,96.9072,0.00146643,0.0839552,20.9398,84.6144,0.222743,0.0,0.0
54,13.25,36.2503,36.3169,171.967,99.2069,96.738,0.00145732,0.0817963,20.9427,84.6044,0.233295,0.0,0.0
72,17.75,35.429,36.7699,163.693,99.0352,96.5509,0.00145044,0.0809073,20.9433,84.6044,0.235178,0.0,0.0
90,22.25,35.5198,36.6426,167.434,98.7305,95.9241,0.00151223,0.0810697,20.9433,84.5743,0.266947,0.0,0.0
108,26.75,36.0742,35.8272,166.065,98.4063,95.9947,0.0014994,0.0816142,20.9437,84.5043,0.229682,0.0,0.0
126,31.25,35.6331,36.0847,165.582,98.5121,96.0327,0.00149961,0.0817042,20.944,84.5443,0.235964,0.0,0.0
144,35.75,35.6726,36.3075,169.569,98.6439,95.9158,0.00166448,0.0821026,20.9434,84.4643,0.259615,0.0,0.0
162,40.25,36.3727,36.2712,165.002,98.798,96.3051,0.00165822,0.0844188,20.9393,84.5243,0.236575,0.0,0.0
180,44.75,35.8783,36.3843,167.012,98.9274,96.1309,0.00155041,0.0849647,20.9374,84.4943,0.265453,0.0,0.0
198,49.25,35.9249,36.3097,166.72,99.0013,96.533,0.00147141,0.0830527,20.9391,84.4643,0.233719,0.0,0.0
216,53.75,36.2845,36.1588,166.288,98.9785,96.1377,0.00154597,0.0816668,20.9412,84.4743,0.269573,0.0,0.0
234,58.25,35.9489,36.5125,170.214,98.8819,96.0456,0.00147981,0.0805371,20.9427,84.3942,0.269408,0.0,0.0
252,62.75,36.1527,36.4693,166.33,98.7141,95.8489,0.00163802,0.0798942,20.9438,84.4743,0.272672,0.0,0.0
270,67.25,35.8488,36.6304,164.481,98.4925,95.7526,0.00147492,0.0805774,20.9434,84.3642,0.26117,0.0,0.0
288,71.75,35.7934,36.7023,168.419,98.2589,95.8085,0.00139952,0.0816697,20.9418,84.4142,0.233782,0.0,0.0
306,76.25,35.3768,36.6283,167.212,98.0377,95.2216,0.00134652,0.0810939,20.9449,84.3041,0.269799,0.0,0.0
324,80.75,35.8412,36.6577,166.884,97.8732,95.2569,0.00113249,0.0807347,20.9449,84.3742,0.250819,0.0,0.0
342,85.25,36.023,36.5502,168.675,97.7598,94.8351,0.00124623,0.0823933,20.9431,84.3241,0.281173,0.0,0.0
360,89.75,36.1896,36.2775,163.744,97.7518,95.1308,0.00132368,0.0825498,20.9422,84.3141,0.251592,0.0,0.0
378,94.25,35.4921,36.4347,164.697,97.8133,94.9291,0.00127685,0.0815434,20.9436,84.3041,0.277067,0.0,0.0
396,98.75,36.4608,36.2426,165.353,97.9822,95.2473,0.00168374,0.0812074,20.945,84.224,0.262059,0.0,0.0
414,103.25,36.4558,36.9753,165.46,98.2477,95.5545,0.00180103,0.0823991,20.9428,84.2541,0.257305,0.0,0.0
432,107.75,36.3791,36.6487,165.46,98.5336,96.1799,0.0015405,0.0852238,20.9387,84.204,0.223813,0.0,0.0
450,112.25,35.9527,36.6132,167.65,98.8519,96.34,0.00167369,0.0849165,20.9377,84.2441,0.238275,0.0,0.0
468,116.75,36.4286,36.3846,169.081,99.1454,96.4766,0.00141098,0.0841456,20.9394,84.194,0.252599,0.0,0.0
486,121.25,36.3747,37.041,166.283,99.3858,96.6816,0.00137117,0.0843371,20.9378,84.2341,0.255373,0.0,0.0
504,125.75,36.2683,37.018,177.156,99.5404,96.798,0.00133696,0.0846339,20.9385,84.184,0.25861,0.0,0.0
522,130.25,35.93,36.6239,166.162,99.6094,97.0016,0.00139599,0.0830788,20.9395,84.144,0.245583,0.0,0.0
540,134.75,36.1939,36.8301,164.585,99.6314,96.7778,0.00109277,0.0822646,20.9414,84.134,0.269004,0.0,0.0
558,139.25,36.115,36.7709,165.001,99.5523,96.7673,0.00118188,0.0817787,20.9425,84.0739,0.262663,0.0,0.0
576,143.75,36.4419,36.8948,168.371,99.4565,96.561,0.00140102,0.0812362,20.9459,84.1139,0.273507,0.0,0.0
594,148.25,36.6638,36.7365,165.881,99.2812,96.6651,0.00131081,0.0815343,20.9471,84.0439,0.247203,0.0,0.0
612,152.75,35.8539,36.5569,170.07,99.1151,96.3918,0.00144228,0.0857846,20.9391,84.0339,0.257908,0.0,0.0
630,157.25,36.2584,36.8763,163.957,98.9318,96.339,0.00154435,0.0900323,20.9328,84.0239,0.245839,0.0,0.0
648,161.75,36.8538,37.2369,166.202,98.8072,95.7801,0.00142661,0.0911888,20.932,83.9838,0.288038,0.0,0.0
666,166.25,36.1856,36.9096,173.725,98.9501,96.6797,0.00158245,0.0915482,20.9298,83.9538,0.21488,0.0,0.0
684,170.75,36.4017,36.7364,168.082,99.145,96.7503,0.00140038,0.0898666,20.9319,83.9138,0.226334,0.0,0.0
702,175.25,36.0571,36.8584,170.004,99.2524,96.444,0.00132528,0.0890213,20.9327,83.9238,0.265711,0.0,0.0
720,179.75,36.1839,36.7504,167.357,99.2341,96.6041,0.00128499,0.0900867,20.9308,83.8337,0.24865,0.0,0.0
738,184.25,36.0053,36.8777,165.276,99.1314,96.2285,0.00119247,0.0908283,20.9288,83.8737,0.275128,0.0,0.0
756,188.75,36.3218,37.0078,166.371,98.909,96.5724,0.0012882,0.0894022,20.9322,83.8237,0.22131,0.0,0.0
774,193.25,36.1631,36.5933,170.684,98.6179,96.0818,0.00148581,0.0890145,20.935,83.8637,0.241173,0.0,0.0
792,197.75,36.0761,36.6882,170.898,98.4059,96.0011,0.00171863,0.0895875,20.9338,83.8237,0.229027,0.0,0.0
810,202.25,36.5834,36.7106,164.817,98.4821,96.0529,0.00150551,0.0885868,20.9342,83.8337,0.231203,0.0,0.0
828,206.75,36.2309,36.8079,168.131,98.5876,96.1653,0.00128769,0.0874131,20.9356,83.7937,0.230287,0.0,0.0
846,211.25,36.1963,36.8264,171.749,98.6814,96.5211,0.00122714,0.0864433,20.9373,83.7236,0.204906,0.0,0.0
864,215.75,35.9605,36.945,165.183,98.7796,96.1964,0.00113559,0.0849847,20.9396,83.7736,0.245304,0.0,0.0
882,220.25,36.0728,36.6075,167.786,98.8731,96.5481,0.00119514,0.0836027,20.9417,83.6936,0.220276,0.0,0.0
900,224.75,36.0569,36.7673,164.986,98.9473,96.5307,0.0015759,0.0835885,20.942,83.7336,0.228898,0.0,0.0
918,229.25,36.1453,36.8587,169.071,98.9462,96.7526,0.0016261,0.0839666,20.941,83.7536,0.207528,0.0,0.0
936,233.75,36.1771,37.1479,163.305,98.9042,96.4972,0.00162583,0.0834463,20.942,83.7636,0.228072,0.0,0.0
954,238.25,36.272,36.6022,169.211,98.798,96.4271,0.00153477,0.0832236,20.9434,83.7436,0.224857,0.0,0.0
972,242.75,35.6152,36.8089,167.734,98.6682,96.3982,0.00168817,0.0825843,20.9438,83.7236,0.215463,0.0,0.0
990,247.25,35.787,36.3642,164.739,98.5273,96.4981,0.00154735,0.0819782,20.9447,83.7036,0.192634,0.0,0.0
1008,251.75,35.6595,36.8457,168.504,98.3272,96.2914,0.00136329,0.081466,20.945,83.7036,0.193677,0.0,0.0
1026,256.25,36.061,36.6639,168.649,98.1647,95.9763,0.0014032,0.0824616,20.9453,83.7136,0.208697,0.0,0.0
1044,260.75,35.6636,37.1012,165.562,97.9778,95.9328,0.0012877,0.0826209,20.9458,83.6235,0.19526,0.0,0.0
1062,265.25,36.1624,36.6396,164.879,97.842,95.7521,0.00129202,0.0814721,20.9467,83.6936,0.199872,0.0,0.0
1080,269.75,36.2142,36.7671,165.794,97.7306,95.3885,0.00142322,0.0796496,20.9494,83.6635,0.224545,0.0,0.0
1098,274.25,36.1557,36.9024,166.899,97.6791,96.0323,0.00135934,0.0788868,20.9511,83.6936,0.157399,0.0,0.0
1116,278.75,35.645,36.5116,163.217,97.6998,95.5687,0.00133864,0.0792992,20.9489,83.6535,0.20416,0.0,0.0
1134,283.25,36.2433,36.7446,164.74,97.7733,95.8741,0.00125538,0.0800553,20.9497,83.6335,0.181587,0.0,0.0
1152,287.75,36.2414,36.7171,164.753,97.943,95.7177,0.00126632,0.0794785,20.952,83.6235,0.212751,0.0,0.0
1170,292.25,35.8766,36.8704,171.373,98.1315,96.5174,0.000776234,0.0789659,20.9529,83.5635,0.153532,0.0,0.0
1188,296.75,35.3728,36.4334,164.994,98.3671,96.2363,0.000869332,0.0789391,20.953,83.6135,0.202728,0.0,0.0
1206,301.25,36.203,36.7635,167.42,98.584,96.1969,0.00105975,0.0789718,20.9523,83.5334,0.226905,0.0,0.0
1224,305.75,36.3399,36.9501,166.488,98.8196,96.8122,0.00139068,0.0789518,20.9499,83.6035,0.189975,0.0,0.0
1242,310.25,35.874,37.107,168.234,99.044,96.9695,0.00140891,0.0786689,20.9497,83.5935,0.195949,0.0,0.0
1260,314.75,36.5035,36.8822,165.651,99.2249,97.0365,0.0013867,0.078578,20.95,83.5835,0.206452,0.0,0.0
1278,319.25,35.5856,36.7128,160.353,99.3886,97.4409,0.00129646,0.0786913,20.9505,83.5835,0.183212,0.0,0.0
1296,323.75,36.3773,36.7499,165.045,99.4888,97.5473,0.00144417,0.0788049,20.9509,83.5234,0.182442,0.0,0.0
1314,328.25,36.2581,36.5626,167.093,99.5731,97.6335,0.00154776,0.0790884,20.9511,83.5535,0.182102,0.0,0.0
1332,332.75,35.7653,36.3714,165.132,99.5935,97.6527,0.00174482,0.0792833,20.9512,83.4934,0.182171,0.0,0.0
1350,337.25,36.28,36.4239,165.551,99.5787,97.5179,0.00159313,0.0792652,20.9523,83.5334,0.193584,0.0,0.0
1368,341.75,36.5982,36.8768,165.844,99.508,97.484,0.00146947,0.0792854,20.9517,83.5234,0.190234,0.0,0.0
1386,346.25,35.8996,36.8811,163.697,99.4018,97.3226,0.00134025,0.0792115,20.9513,83.5134,0.195685,0.0,0.0
1404,350.75,36.0181,36.5589,169.317,99.2848,97.5748,0.00120994,0.0790857,20.9478,83.5134,0.160826,0.0,0.0
1422,355.25,35.9641,36.5973,166.719,99.1438,97.3107,0.00122431,0.0790159,20.9473,83.5434,0.172765,0.0,0.0
1440,359.75,35.4886,36.9928,166.586,98.9973,97.0933,0.00134338,0.0792468,20.9472,83.5134,0.179769,0.0,0.0
1458,364.25,35.953,36.5363,165.81,98.8543,96.71,0.00120826,0.0788362,20.9472,83.4534,0.203012,0.0,0.0
1476,368.75,36.0021,37.1758,170.266,98.7657,96.7806,0.00130702,0.0789709,20.9468,83.5234,0.18795,0.0,0.0
1494,373.25,35.5265,36.7355,170.056,98.8978,96.8737,0.00100183,0.0790431,20.9497,83.4434,0.191431,0.0,0.0
1512,377.75,35.8674,36.9443,167.897,99.0807,96.8081,0.000894372,0.0796832,20.9487,83.4934,0.214802,0.0,0.0
1530,382.25,35.5022,37.0929,168.029,99.1985,97.1176,0.00122994,0.0797721,20.9486,83.5134,0.196253,0.0,0.0
1548,386.75,35.5343,36.878,166.755,99.2409,97.23,0.00120088,0.0794169,20.9485,83.4934,0.189502,0.0,0.0
1566,391.25,35.8185,36.8926,168.991,99.2369,97.3923,0.00126894,0.0793916,20.9485,83.4534,0.173687,0.0,0.0
1584,395.75,35.6807,36.1368,166.016,99.1594,97.3753,0.00120524,0.0797588,20.9487,83.4133,0.16807,0.0,0.0
1602,400.25,35.7684,36.6593,166.307,99.048,97.0933,0.000943376,0.0798855,20.9489,83.4634,0.18451,0.0,0.0
1620,404.75,36.2049,36.6169,165.338,98.8455,96.997,0.00102318,0.0792937,20.9507,83.4033,0.174755,0.0,0.0
1638,409.25,35.6524,36.716,169.43,98.5928,96.8842,0.00120254,0.0784337,20.9521,83.4834,0.161822,0.0,0.0
1656,413.75,36.1655,36.7533,165.213,98.3827,96.6499,0.00133095,0.0776503,20.9533,83.4233,0.164494,0.0,0.0
1674,418.25,35.8813,36.3828,170.101,98.4294,96.3289,0.00117588,0.0774646,20.9538,83.4634,0.199683,0.0,0.0
1692,422.75,35.8677,36.6419,169.626,98.5013,96.4422,0.00126552,0.0771359,20.9541,83.4233,0.195564,0.0,0.0
1710,427.25,35.2265,37.1642,171.156,98.5896,96.6458,0.00139791,0.0769309,20.9542,83.4434,0.184333,0.0,0.0
1728,431.75,35.6135,36.3545,164.455,98.6782,96.8026,0.00165847,0.0765938,20.954,83.4233,0.177644,0.0,0.0
1746,436.25,35.6771,36.8119,169.888,98.7365,96.7292,0.00113779,0.0763223,20.9551,83.3933,0.19013,0.0,0.0
1764,440.75,35.8225,36.7285,168.256,98.8343,97.0493,0.000945745,0.0762119,20.9548,83.4534,0.16872,0.0,0.0
1782,445.25,36.1022,36.0931,166.472,98.8679,97.0741,0.00098331,0.0759406,20.9552,83.3533,0.169499,0.0,0.0
1800,449.75,35.7846,36.4512,166.635,98.9122,97.2593,0.00103598,0.076178,20.9555,83.4133,0.156001,0.0,0.0
1818,454.25,35.4263,36.7294,166.089,98.8823,97.1933,0.00126264,0.0765049,20.954,83.3833,0.159484,0.0,0.0
1836,458.75,35.7741,36.6044,168.263,98.8519,96.616,0.00117871,0.0765728,20.9536,83.4434,0.211789,0.0,0.0
1854,463.25,35.3391,36.1893,169.52,98.7908,97.036,0.0010746,0.0769725,20.9534,83.4233,0.165911,0.0,0.0
1872,467.75,35.6664,36.4437,168.837,98.7133,96.6284,0.000952989,0.078872,20.9493,83.4233,0.197618,0.0,0.0
1890,472.25,35.0507,36.3329,167.228,98.6027,96.7329,0.00108805,0.0812883,20.9464,83.4133,0.177229,0.0,0.0
1908,476.75,35.7346,36.3346,164.982,98.4634,96.6967,0.0012507,0.0806844,20.9482,83.3232,0.167603,0.0,0.0
1926,481.25,35.7,36.5,165.927,98.3376,96.5678,0.0011101,0.0794548,20.949,83.4033,0.168113,0.0,0.0
1944,485.75,35.3412,36.4926,166.009,98.1747,95.953,0.00105728,0.0794648,20.9491,83.3333,0.211895,0.0,0.0
1962,490.25,35.554,35.9132,160.986,98.0381,96.1423,0.00106244,0.0796591,20.9489,83.3633,0.180756,0.0,0.0
1980,494.75,35.1672,36.1946,167.924,97.8895,96.1616,0.001177,0.0798814,20.9487,83.3833,0.164865,0.0,0.0
1998,499.25,35.4906,36.4254,166.136,97.7657,96.0263,0.00136768,0.0796811,20.9481,83.3833,0.166182,0.0,0.0
2016,503.75,35.6532,36.2123,167.576,97.6667,96.1478,0.00137087,0.0799663,20.948,83.3533,0.145093,0.0,0.0
2034,508.25,35.5612,36.6716,164.21,97.5976,95.9089,0.0011307,0.0804961,20.9468,83.3533,0.161572,0.0,0.0
2052,512.75,35.7098,36.1537,165.552,97.594,95.5912,0.00142794,0.0810731,20.9476,83.3633,0.191952,0.0,0.0
2070,517.25,35.5035,36.0748,163.283,97.6092,95.7168,0.00148162,0.0808062,20.9472,83.2932,0.181233,0.0,0.0
2088,521.75,35.3406,36.5497,166.394,97.7082,96.1355,0.00121202,0.0805514,20.9481,83.3633,0.150221,0.0,0.0
2106,526.25,35.3038,36.5917,167.576,97.836,96.1987,0.00126303,0.079898,20.9501,83.3032,0.156228,0.0,0.0
2124,530.75,35.268,36.0484,164.966,97.9766,96.3001,0.00107278,0.0797032,20.9505,83.3433,0.159773,0.0,0.0
2142,535.25,35.5982,35.6224,164.919,98.1631,96.6192,0.00123465,0.079353,20.9496,83.3333,0.146749,0.0,0.0
2160,539.75,35.3324,36.4295,168.922,98.3695,96.5743,0.00139132,0.0792812,20.9493,83.3333,0.170503,0.0,0.0
2178,544.25,35.3264,36.4538,168.395,98.5716,96.5325,0.00131278,0.0791327,20.9492,83.3232,0.1935,0.0,0.0
2196,548.75,35.4011,36.1118,168.023,98.7673,96.9906,0.00123938,0.0788151,20.9512,83.2732,0.168034,0.0,0.0
2214,553.25,35.433,36.0982,158.198,98.9765,96.9746,0.00100095,0.0782105,20.9515,83.3132,0.189157,0.0,0.0
2232,557.75,35.359,35.8106,169.468,99.133,97.3584,0.00118798,0.077885,20.9529,83.2332,0.167222,0.0,0.0
2250,562.25,35.1347,36.138,168.842,99.2772,97.2396,0.0014688,0.0776515,20.9527,83.3232,0.191973,0.0,0.0
2268,566.75,35.0539,35.792,167.392,99.377,97.7398,0.00154674,0.0772701,20.9527,83.2432,0.153776,0.0,0.0
2286,571.25,34.9884,36.0947,160.683,99.4633,98.3103,0.00147023,0.0770276,20.9533,83.3132,0.10794,0.0,0.0
2304,575.75,35.2598,36.2705,167.2,99.518,97.6399,0.001267,0.0773301,20.9535,83.3132,0.176369,0.0,0.0
2322,580.25,35.0424,36.2003,166.358,99.5368,97.9897,0.00113509,0.0775548,20.953,83.3032,0.145004,0.0,0.0
2340,584.75,35.1394,36.1063,168.653,99.5336,97.8201,0.00136297,0.0777511,20.9523,83.3132,0.160749,0.0,0.0
2358,589.25,34.7408,35.6898,167.747,99.5016,97.9893,0.00149199,0.077691,20.9525,83.2432,0.141779,0.0,0.0
2376,593.75,35.3923,35.8908,164.393,99.4485,98.0434,0.00163811,0.077464,20.9542,83.3032,0.131727,0.0,0.0
2394,598.25,35.174,35.9439,161.771,99.3339,97.7692,0.00147476,0.0774189,20.9535,83.2432,0.146978,0.0,0.0
2412,602.75,35.4366,36.2322,168.782,99.2301,97.7238,0.00141697,0.0772436,20.9538,83.2732,0.141597,0.0,0.0
2430,607.25,35.1039,35.7223,167.911,99.1063,97.8316,0.00118954,0.0771468,20.9533,83.2932,0.11984,0.0,0.0
2448,611.75,35.1958,36.0824,169.669,98.9741,97.5353,0.00117032,0.0769131,20.9532,83.2832,0.135556,0.0,0.0
2466,616.25,35.0972,36.0081,164.803,98.8699,97.3166,0.00141645,0.0768885,20.9532,83.2632,0.146585,0.0,0.0
2484,620.75,35.093,35.6523,167.433,98.7465,97.0273,0.00144578,0.0765132,20.9532,83.2132,0.162587,0.0,0.0
2502,625.25,34.7593,36.2719,168.584,98.6866,97.042,0.00130993,0.0765977,20.9532,83.2732,0.155571,0.0,0.0
2520,629.75,34.9427,35.9325,167.513,98.8651,97.5817,0.00120808,0.076804,20.9532,83.2031,0.120959,0.0,0.0
2538,634.25,34.8201,35.6235,172.922,99.032,97.3396,0.00106217,0.0770008,20.9532,83.2332,0.159571,0.0,0.0
2556,638.75,34.9886,36.1133,163.779,99.1274,97.2919,0.00110387,0.077136,20.9532,83.2332,0.173024,0.0,0.0
2574,643.25,34.7449,35.7711,169.343,99.1925,97.4019,0.00113537,0.0770751,20.9523,83.2332,0.168636,0.0,0.0
2592,647.75,35.2766,35.9541,171.98,99.2125,98.1246,0.000987666,0.0771278,20.9531,83.2332,0.102072,0.0,0.0
2610,652.25,35.4366,35.4488,167.405,99.1822,97.7371,0.00129065,0.0772571,20.9527,83.1931,0.135865,0.0,0.0
2628,656.75,34.946,35.7237,165.273,99.1402,97.7132,0.00140403,0.0772383,20.9526,83.2432,0.13421,0.0,0.0
2646,661.25,34.9166,35.9867,164.952,99.054,97.3111,0.00114813,0.0771989,20.9545,83.1531,0.164328,0.0,0.0
2664,665.75,34.9928,35.7204,168.839,98.9697,97.6298,0.00130431,0.0771144,20.9548,83.2132,0.126184,0.0,0.0
2682,670.25,35.1096,35.9249,168.475,98.8252,97.0076,0.00104052,0.0770821,20.9534,83.1831,0.17184,0.0,0.0
2700,674.75,34.6696,35.9595,169.456,98.683,97.0585,0.0012611,0.0771124,20.9522,83.2332,0.153659,0.0,0.0
2718,679.25,34.9851,36.0765,165.908,98.4741,97.2795,0.00135878,0.077299,20.9503,83.2132,0.112991,0.0,0.0
2736,683.75,35.1908,35.6123,166.147,98.3639,96.8902,0.00124237,0.0774431,20.9512,83.2132,0.139744,0.0,0.0
2754,688.25,34.6787,35.9975,169.669,98.3803,96.942,0.00107404,0.0772096,20.9535,83.2031,0.136335,0.0,0.0
2772,692.75,34.837,35.6935,163.579,98.3963,97.0984,0.00108053,0.0770244,20.9541,83.1331,0.122919,0.0,0.0
2790,697.25,34.9572,36.0832,169.16,98.4374,96.8475,0.000996085,0.0768078,20.9547,83.2031,0.150731,0.0,0.0
2808,701.75,35.0362,36.2833,166.286,98.4777,96.9356,0.00135821,0.0769862,20.9548,83.1031,0.146112,0.0,0.0
2826,706.25,34.879,36.3613,165.491,98.5444,96.9438,0.00129541,0.0770308,20.9549,83.1731,0.151591,0.0,0.0
2844,710.75,35.2439,36.1274,165.103,98.5959,97.0351,0.0013656,0.07699,20.9549,83.1431,0.147719,0.0,0.0
2862,715.25,34.9787,35.8655,169.909,98.6554,97.3203,0.00141185,0.0769031,20.9549,83.1831,0.126136,0.0,0.0
2880,719.75,35.3727,36.3244,167.681,98.6818,97.3941,0.00115762,0.0769186,20.954,83.1731,0.121589,0.0,0.0
2898,724.25,35.063,35.9588,166.048,98.7373,97.4147,0.00127298,0.0767619,20.9536,83.1631,0.124833,0.0,0.0
2916,728.75,35.1689,35.8827,164.568,98.782,97.4826,0.00126749,0.0768719,20.9536,83.1531,0.122579,0.0,0.0
2934,733.25,35.0461,35.7373,169.093,98.792,97.4546,0.00104226,0.0769732,20.9536,83.1031,0.126171,0.0,0.0
2952,737.75,34.917,35.8825,164.321,98.8072,97.528,0.00107499,0.0770687,20.9536,83.1531,0.120626,0.0,0.0
2970,742.25,35.4424,36.1471,167.731,98.7828,97.6289,0.00118555,0.0770199,20.9539,83.1031,0.108774,0.0,0.0
2988,746.75,35.3259,36.3988,166.25,98.7848,97.4854,0.00121768,0.077098,20.9542,83.1831,0.12258,0.0,0.0
3006,751.25,34.8636,36.0778,167.028,98.7505,97.5468,0.00126246,0.0773391,20.9542,83.1531,0.113528,0.0,0.0
3024,755.75,34.5957,35.7617,166.894,98.7185,97.4519,0.00123326,0.0770806,20.9546,83.1431,0.119545,0.0,0.0
3042,760.25,35.3169,35.7337,168.252,98.6782,97.7839,0.0012007,0.0770332,20.9552,83.1131,0.0842812,0.0,0.0
3060,764.75,34.7722,36.076,163.694,98.6371,97.1071,0.00103662,0.0767219,20.9546,83.1031,0.144714,0.0,0.0
3078,769.25,35.6076,35.6607,175.878,98.5955,97.5106,0.000996208,0.076868,20.9548,83.1231,0.102431,0.0,0.0
3096,773.75,34.7106,35.5096,168.435,98.544,97.5344,0.000949681,0.076898,20.9549,83.063,0.0953302,0.0,0.0
3114,778.25,34.9104,35.6882,163.567,98.5045,97.0617,0.00110503,0.0770561,20.9549,83.1231,0.136593,0.0,0.0
3132,782.75,35.1101,35.4012,169.682,98.4474,96.7572,0.00104927,0.0769547,20.9549,83.063,0.160308,0.0,0.0
3150,787.25,35.2552,35.8508,166.581,98.3855,96.7746,0.0011265,0.0771498,20.9548,83.1231,0.15282,0.0,0.0
3168,791.75,35.4804,36.0547,168.57,98.314,97.025,0.000984221,0.0770188,20.9546,83.093,0.122174,0.0,0.0
3186,796.25,35.4666,35.6485,168.409,98.2349,97.1286,0.000813612,0.0773697,20.9546,83.093,0.104845,0.0,0.0
3204,800.75,35.1712,36.2018,167.207,98.1603,96.7288,0.00123917,0.0773707,20.9547,82.9429,0.135991,0.0,0.0
3222,805.25,34.7346,35.861,173.967,98.084,96.7091,0.00150692,0.0775423,20.9553,83.013,0.130682,0.0,0.0
3240,809.75,34.7965,35.7409,166.412,98.0065,96.4459,0.00144883,0.0777971,20.9546,83.093,0.148596,0.0,0.0
3258,814.25,34.9503,35.9766,168.695,97.9147,97.1268,0.00154441,0.0777822,20.9523,83.043,0.0747911,0.0,0.0
3276,818.75,34.9707,36.2167,169.076,97.8432,96.6256,0.000871375,0.0775102,20.9521,83.1131,0.115921,0.0,0.0
3294,823.25,34.9868,36.0327,171.537,97.7657,96.4683,0.00104383,0.0775081,20.9521,83.083,0.123668,0.0,0.0
3312,827.75,35.0258,36.2095,169.842,97.7198,96.8581,0.00132744,0.0769823,20.9521,83.1031,0.0819933,0.0,0.0
3330,832.25,34.8682,35.5398,164.963,97.6795,96.1258,0.00123762,0.0767091,20.9521,83.083,0.148424,0.0,0.0
3348,836.75,35.4236,35.6449,167.029,97.6384,96.555,0.00119951,0.07663,20.9534,83.043,0.103286,0.0,0.0
3366,841.25,35.4728,35.6684,170.827,97.5868,96.3267,0.00139325,0.0768543,20.9532,83.033,0.120319,0.0,0.0
3384,845.75,34.953,36.0929,166.668,97.5441,96.1497,0.00117694,0.0769788,20.953,82.983,0.133289,0.0,0.0
3402,850.25,35.2004,35.8082,167.924,97.5257,96.5133,0.000975421,0.0769354,20.9529,83.053,0.0966047,0.0,0.0
3420,854.75,34.9573,35.9744,164.449,97.5002,96.7045,0.00112575,0.0767979,20.9529,82.9629,0.0758572,0.0,0.0
3438,859.25,34.8415,35.898,169.446,97.4914,96.6366,0.0011282,0.0764733,20.9529,83.033,0.0815218,0.0,0.0
3456,863.75,35.1699,35.8277,169.42,97.473,96.3005,0.00118007,0.0768591,20.9529,83.033,0.112029,0.0,0.0
3474,868.25,34.9311,35.7513,164.08,97.4802,96.6371,0.000865815,0.0770506,20.9529,83.023,0.0804148,0.0,0.0
3492,872.75,34.6277,35.3813,164.458,97.4842,96.2029,0.00116903,0.0767537,20.9529,83.003,0.122484,0.0,0.0
3510,877.25,35.1533,35.6474,166.074,97.511,96.677,0.00120739,0.0768509,20.9529,82.9629,0.0795144,0.0,0.0
3528,881.75,35.5828,35.41,168.22,97.5625,96.6004,0.00112627,0.0769375,20.954,82.993,0.0917383,0.0,0.0
3546,886.25,34.8212,35.8155,168.778,97.6,96.7077,0.001094,0.0769062,20.9547,82.9629,0.0850226,0.0,0.0
3564,890.75,34.8573,36.1548,165.858,97.6667,96.6453,0.00128951,0.077168,20.9547,83.013,0.0973178,0.0,0.0
3582,895.25,34.9114,35.5512,165.741,97.755,96.3853,0.00123735,0.0771591,20.9546,82.9529,0.130615,0.0,0.0
3600,899.75,34.6818,35.5626,167.648,97.8644,96.8691,0.00112602,0.0769654,20.9573,82.9729,0.0946257,0.0,0.0
3618,904.25,34.569,35.768,168.361,97.9886,96.6687,0.0011631,0.07649,20.9557,82.9629,0.125534,0.0,0.0
3636,908.75,35.1125,35.8081,168.046,98.1243,96.9172,0.00114461,0.0763909,20.9522,82.9529,0.114584,0.0,0.0
3654,913.25,35.2265,35.8509,164.793,98.2665,96.6811,0.00139221,0.0768957,20.951,82.9529,0.150568,0.0,0.0
3672,917.75,34.7215,35.2507,159.376,98.3759,97.3684,0.00116489,0.07721,20.9512,82.9629,0.0952909,0.0,0.0
3690,922.25,34.5717,35.871,170.514,98.4977,97.755,0.000978714,0.0775052,20.9515,82.9729,0.0700676,0.0,0.0
3708,926.75,35.0933,35.789,165.977,98.572,98.0122,0.000710846,0.0772266,20.9515,82.9129,0.0527186,0.0,0.0
3726,931.25,35.0568,35.7631,169.894,98.6802,97.9499,0.000924679,0.0769122,20.9509,82.9529,0.0687675,0.0,0.0
3744,935.75,34.8301,35.9577,166.224,98.7872,97.7265,0.00121671,0.0764151,20.953,82.9129,0.0999306,0.0,0.0
3762,940.25,35.3752,34.984,166.72,98.8966,97.8462,0.00140143,0.076076,20.9547,82.9529,0.0988476,0.0,0.0
3780,944.75,35.0752,35.7739,174.972,99.0104,97.5849,0.00113161,0.076147,20.9551,82.9429,0.134255,0.0,0.0
3798,949.25,34.4438,35.0246,165.661,99.1003,98.28,0.00124613,0.0760204,20.9562,82.9129,0.076944,0.0,0.0
3816,953.75,35.5151,35.6545,168.999,99.1933,98.2795,0.00123911,0.076008,20.9576,82.9229,0.0856743,0.0,0.0
3834,958.25,35.2138,35.7822,165.106,99.2664,98.4176,0.00128194,0.0756723,20.9579,82.8729,0.0795013,0.0,0.0
3852,962.75,35.1312,35.8132,167.256,99.3399,98.5212,0.0012538,0.0757091,20.9579,82.9329,0.076608,0.0,0.0
3870,967.25,35.0166,36.3864,165.845,99.3571,98.2089,0.00125996,0.0758559,20.9579,82.8528,0.107594,0.0,0.0
3888,971.75,34.8945,35.7978,164.736,99.4014,98.8628,0.00141275,0.0758795,20.958,82.9129,0.0502955,0.0,0.0
3906,976.25,34.865,35.8896,165.993,99.4253,98.6624,0.00128052,0.0760074,20.9586,82.8929,0.0713084,0.0,0.0
3924,980.75,35.4059,35.8272,163.397,99.4345,98.2525,0.00104014,0.0760501,20.9571,82.9029,0.110705,0.0,0.0
3942,985.25,34.2318,35.3613,167.804,99.4477,98.3754,0.00105421,0.0760131,20.9588,82.8929,0.100361,0.0,0.0
3960,989.75,35.2823,35.9112,167.551,99.4413,98.3158,0.00104378,0.0761628,20.9577,82.8528,0.105378,0.0,0.0
3978,994.25,35.3174,35.3068,165.946,99.4305,98.6583,0.00115691,0.0763483,20.9584,82.8829,0.0721789,0.0,0.0
3996,998.75,34.7379,35.746,166.594,99.3986,98.3327,0.00108979,0.0763561,20.9551,82.8328,0.0998007,0.0,0.0
4014,1003.25,34.8283,35.3588,169.643,99.3654,98.3589,0.00110987,0.0763484,20.9536,82.8829,0.0942532,0.0,0.0
4032,1007.75,34.6013,35.4427,170.544,99.3175,98.7376,0.00143526,0.0763383,20.9546,82.8128,0.0542107,0.0,0.0
4050,1012.25,34.9175,35.5284,165.764,99.2696,98.4056,0.00135599,0.0761931,20.9549,82.8829,0.0809202,0.0,0.0
4068,1016.75,34.6889,35.6652,168.305,99.2013,98.4139,0.00130415,0.0759981,20.9547,82.8829,0.0737741,0.0,0.0
4086,1021.25,34.5694,35.814,167.47,99.1278,98.1837,0.00127765,0.0758084,20.9584,82.8829,0.088592,0.0,0.0
4104,1025.75,33.9656,35.0833,168.476,99.0448,98.1255,0.00136983,0.0759724,20.9591,82.8428,0.0863237,0.0,0.0
4122,1030.25,34.8356,35.0843,164.241,98.9649,97.7265,0.00137241,0.0758279,20.9592,82.6427,0.116567,0.0,0.0
4140,1034.75,34.1947,35.5807,166.332,98.8978,97.7999,0.00144145,0.076307,20.9586,82.8929,0.103343,0.0,0.0
4158,1039.25,34.4162,34.9727,165.461,98.8144,98.0136,0.00136867,0.0772611,20.9571,82.8128,0.0753242,0.0,0.0
4176,1043.75,34.7424,35.8778,166.966,98.7553,97.9072,0.00125231,0.0774951,20.9565,82.8328,0.0798382,0.0,0.0
4194,1048.25,34.7415,35.6981,165.775,98.6742,97.9256,0.00129069,0.0772035,20.9551,82.7828,0.0705024,0.0,0.0
4212,1052.75,34.7927,35.3446,165.696,98.6287,97.5216,0.00136046,0.0769985,20.9545,82.8328,0.104498,0.0,0.0
4230,1057.25,34.7248,35.4526,163.43,98.6019,97.5537,0.00101775,0.0769419,20.954,82.8428,0.0989404,0.0,0.0
4248,1061.75,34.7604,35.241,168.558,98.6622,97.7339,0.000941252,0.0769228,20.9558,82.8428,0.0875153,0.0,0.0
4266,1066.25,35.201,35.7027,167.455,98.7421,97.8747,0.00131343,0.0771556,20.9562,82.8228,0.0816815,0.0,0.0
4284,1070.75,35.2826,35.8281,167.586,98.8072,98.2071,0.00134787,0.0773645,20.9554,82.7828,0.0563937,0.0,0.0
4302,1075.25,34.6395,35.0155,166.28,98.8839,97.8747,0.00118524,0.0775678,20.9552,82.8328,0.0949621,0.0,0.0
4320,1079.75,34.9617,35.7165,167.975,98.9557,98.2002,0.00123564,0.077513,20.9552,82.7628,0.0709481,0.0,0.0
4338,1084.25,34.5315,35.5595,169.016,99.0104,98.2635,0.001305,0.077633,20.9552,82.7928,0.0701026,0.0,0.0
4356,1088.75,34.7252,35.9455,169.131,99.0552,98.1429,0.00133144,0.077496,20.9566,82.8128,0.0856502,0.0,0.0
4374,1093.25,35.1871,36.1025,167.831,99.0971,98.109,0.00131649,0.0772562,20.9568,82.8128,0.0927697,0.0,0.0
4392,1097.75,34.8153,35.74,165.806,99.1219,98.1791,0.00124537,0.0769737,20.9569,82.8028,0.0884652,0.0,0.0
4410,1102.25,35.2735,35.9358,165.023,99.1179,98.4529,0.00126358,0.0767027,20.9569,82.7728,0.0623179,0.0,0.0
4428,1106.75,35.2015,35.691,166.193,99.1159,98.2218,0.00127854,0.0762893,20.9569,82.8028,0.0838853,0.0,0.0
4446,1111.25,35.1622,35.8821,164.182,99.0883,98.6285,0.001262,0.0759647,20.958,82.7327,0.0430587,0.0,0.0
4464,1115.75,34.356,35.5313,166.795,99.058,98.2144,0.0012269,0.0759031,20.9576,82.7828,0.0791676,0.0,0.0
4482,1120.25,34.9286,35.7273,166.964,99.0196,98.5368,0.00123934,0.0759488,20.9581,82.7427,0.0452509,0.0,0.0
4500,1124.75,35.0931,35.0522,167.187,98.9709,98.5138,0.00125615,0.0758685,20.9582,82.7628,0.04285,0.0,0.0
4518,1129.25,35.2293,35.7825,169.883,98.919,98.5936,0.00138282,0.0759018,20.9582,82.7527,0.0304987,0.0,0.0
4536,1133.75,34.1899,34.9422,163.632,98.8699,98.2919,0.00110694,0.0757574,20.9584,82.7527,0.0542733,0.0,0.0
4554,1138.25,34.4346,35.4218,165.98,98.8315,98.2016,0.000887093,0.075614,20.9587,82.7427,0.0591945,0.0,0.0
4572,1142.75,34.6091,35.0368,169.97,98.7501,98.0402,0.00121889,0.0756415,20.9583,82.7027,0.0667879,0.0,0.0
4590,1147.25,34.6397,34.9142,170.244,98.6906,97.9535,0.00148499,0.0756804,20.9582,82.8028,0.0693951,0.0,0.0
4608,1151.75,34.337,35.0559,167.848,98.5935,98.0773,0.00135099,0.0756654,20.9589,82.6927,0.0485963,0.0,0.0
4626,1156.25,34.5394,35.59,165.3,98.5073,98.3777,0.00110639,0.0758551,20.959,82.7828,0.0121904,0.0,0.0
4644,1160.75,34.9557,35.4742,171.952,98.3931,98.0315,0.00118991,0.0757889,20.9579,82.6927,0.0340837,0.0,0.0
4662,1165.25,35.0815,35.5409,166.554,98.2865,97.3602,0.00118901,0.0755653,20.9566,82.7327,0.0876552,0.0,0.0
4680,1169.75,34.5726,35.5825,164.754,98.2873,97.5101,0.00124961,0.0758419,20.9553,82.7227,0.0734851,0.0,0.0
4698,1174.25,34.748,35.4561,170.12,98.308,97.4533,0.00121931,0.0762188,20.9551,82.7327,0.0808403,0.0,0.0
4716,1178.75,34.5369,35.4602,170.868,98.33,98.02,0.000963554,0.0764721,20.955,82.7127,0.0292282,0.0,0.0
4734,1183.25,34.5633,34.8773,168.963,98.3484,97.7105,0.000990754,0.0765172,20.956,82.6827,0.060234,0.0,0.0
4752,1187.75,34.5969,35.3717,169.163,98.3803,97.91,0.00112282,0.0764202,20.9564,82.6927,0.0443635,0.0,0.0
4770,1192.25,34.2631,35.7688,164.745,98.4035,97.8802,0.00115237,0.0762766,20.9574,82.6527,0.0493603,0.0,0.0
4788,1196.75,34.8072,35.9441,165.016,98.4514,97.9664,0.001183,0.0760707,20.9564,82.7027,0.0457176,0.0,0.0
4806,1201.25,34.2134,34.9233,165.94,98.4678,98.2222,0.00100085,0.0758607,20.9573,82.6427,0.0231121,0.0,0.0
4824,1205.75,34.4328,35.9761,169.152,98.4993,97.8137,0.00108226,0.0759906,20.9552,82.6927,0.0646622,0.0,0.0
4842,1210.25,34.2052,35.7123,171.046,98.5201,98.2245,0.00119541,0.0761416,20.9544,82.7227,0.0278135,0.0,0.0
4860,1214.75,34.7817,34.997,164.265,98.5169,97.5381,0.00106277,0.0764348,20.9535,82.7628,0.092431,0.0,0.0
4878,1219.25,34.4244,35.4372,167.23,98.5285,97.7687,0.00101704,0.0762428,20.9534,82.7327,0.0716544,0.0,0.0
4896,1223.75,34.769,34.6507,164.828,98.5017,97.589,0.00115666,0.0763484,20.9538,82.6627,0.086175,0.0,0.0
4914,1228.25,34.606,35.3217,169.227,98.4809,97.9563,0.00122871,0.0765071,20.9548,82.6827,0.0494493,0.0,0.0
4932,1232.75,34.8553,35.8815,164.832,98.4318,98.2025,0.0012478,0.0764544,20.9549,82.6326,0.0215907,0.0,0.0
4950,1237.25,34.4452,35.3353,168.365,98.3947,97.7431,0.00139727,0.0763822,20.955,82.7227,0.06151,0.0,0.0
4968,1241.75,34.7728,35.4081,166.054,98.3368,97.7907,0.00110859,0.0762623,20.9554,82.7127,0.0515455,0.0,0.0
4986,1246.25,34.7785,35.6562,165.996,98.3024,97.3331,0.00130683,0.076258,20.9564,82.6827,0.0917317,0.0,0.0
5004,1250.75,34.6129,35.7786,166.773,98.2665,97.8412,0.00130031,0.0761087,20.9566,82.7127,0.040153,0.0,0.0
5022,1255.25,34.6893,35.6049,164.818,98.5233,97.7518,0.00123366,0.0762357,20.9563,82.6427,0.0727734,0.0,0.0
5040,1259.75,33.972,35.0701,168.431,98.8068,98.2318,0.00115757,0.0761442,20.9559,82.6727,0.054022,0.0,0.0
5058,1264.25,34.5477,35.4043,168.239,98.9597,98.4451,0.00116877,0.0758984,20.9556,82.6527,0.0482692,0.0,0.0
5076,1268.75,35.1241,35.7077,163.623,99.0775,98.1113,0.00135459,0.0760196,20.9544,82.6827,0.0907242,0.0,0.0
5094,1273.25,34.5691,35.7682,166.194,99.0951,98.1612,0.00136796,0.0758082,20.9543,82.6326,0.0876509,0.0,0.0
5112,1277.75,35.416,36.169,168.632,98.9857,98.3171,0.00108468,0.0757901,20.9542,82.6727,0.0627344,0.0,0.0
5130,1282.25,35.1166,36.2561,164.239,98.7461,97.9856,0.00136388,0.0758345,20.9542,82.6727,0.0715668,0.0,0.0
5148,1286.75,34.468,36.061,163.922,98.6035,97.489,0.00126154,0.0757834,20.9542,82.6827,0.105227,0.0,0.0
5166,1291.25,35.3004,35.6505,164.183,98.7804,98.2447,0.00115076,0.0758709,20.9542,82.6827,0.0503427,0.0,0.0
5184,1295.75,35.4108,35.7594,168.084,98.9909,98.5134,0.00104526,0.076023,20.9542,82.6226,0.04476,0.0,0.0
5202,1300.25,34.8175,35.8299,164.778,99.2313,98.6519,0.00125316,0.076092,20.9537,82.6727,0.0542107,0.0,0.0
5220,1304.75,34.5782,36.265,167.708,99.3619,98.9632,0.00121661,0.0758467,20.9552,82.6326,0.0372155,0.0,0.0
5238,1309.25,35.3806,36.282,164.634,99.3894,98.4937,0.00121709,0.0756655,20.9558,82.6627,0.0838077,0.0,0.0
5256,1313.75,35.6172,36.408,164.944,99.2413,98.4065,0.00130219,0.0754977,20.9554,82.6326,0.0781894,0.0,0.0
5274,1318.25,34.8393,35.7971,163.919,98.9493,98.5079,0.00119343,0.0753562,20.9538,82.6527,0.0413923,0.0,0.0
5292,1322.75,35.4548,36.0169,169.266,98.5085,97.9719,0.000974465,0.0753137,20.957,82.6326,0.0505666,0.0,0.0
5310,1327.25,35.4259,36.4758,161.991,98.0081,97.4028,0.000948594,0.0750373,20.9566,82.6026,0.0573501,0.0,0.0
5328,1331.75,35.5497,36.7628,161.387,97.6084,96.8673,0.00112205,0.0750497,20.9565,82.6326,0.0705571,0.0,0.0
5346,1336.25,35.4696,35.9786,168.652,97.3988,96.4445,0.0011706,0.0749079,20.9579,82.5726,0.0911427,0.0,0.0
5364,1340.75,35.6688,36.1899,167.282,97.4611,96.6981,0.00146959,0.0747014,20.9593,82.6226,0.0727548,0.0,0.0
5382,1345.25,34.9326,36.3311,167.06,97.7462,96.7967,0.00150335,0.074649,20.9589,82.5826,0.0903636,0.0,0.0
5400,1349.75,35.4508,36.0129,164.352,98.1455,97.7,0.00125765,0.0749495,20.9586,82.6527,0.0421195,0.0,0.0
5418,1354.25,35.4072,35.8981,166.092,98.5153,97.9586,0.00129845,0.0748678,20.9589,82.6126,0.0524596,0.0,0.0
5436,1358.75,35.3807,36.2866,168.527,98.6902,97.4601,0.00127995,0.0747366,20.9605,82.6026,0.116102,0.0,0.0
5454,1363.25,35.5071,36.4356,164.227,98.6507,97.6784,0.00138131,0.0749038,20.959,82.5826,0.0916847,0.0,0.0
5472,1367.75,35.7973,36.4138,171.475,98.4626,97.6326,0.00113985,0.0749033,20.9588,82.5426,0.0783655,0.0,0.0
5490,1372.25,35.5213,36.4605,165.638,98.2721,97.6215,0.00101866,0.075304,20.9602,82.5926,0.0614837,0.0,0.0
5508,1376.75,35.1909,36.5407,166.926,98.6147,97.8329,0.00122499,0.0752193,20.9593,82.5125,0.0736789,0.0,0.0
5526,1381.25,35.6554,36.5278,166.069,99.0376,98.2566,0.00156282,0.0750428,20.9589,82.5726,0.0732891,0.0,0.0
5544,1385.75,35.1193,36.3843,166.017,99.0053,97.3937,0.00142639,0.0750916,20.9588,82.5526,0.151926,0.0,0.0
5562,1390.25,35.3613,35.9961,166.838,98.5768,97.9191,0.00125456,0.0752169,20.9597,82.5826,0.0619639,0.0,0.0
5580,1394.75,35.0655,36.5639,164.119,98.9046,98.1067,0.00120514,0.0752899,20.9591,82.5726,0.0749881,0.0,0.0
5598,1399.25,35.6149,36.3693,168.523,99.2552,98.7261,0.0013155,0.0754163,20.9598,82.5526,0.0494778,0.0,0.0
5616,1403.75,35.3233,35.7856,166.922,99.4134,98.2254,0.00147438,0.0752861,20.9601,82.5926,0.111284,0.0,0.0
5634,1408.25,34.7657,36.3221,162.437,99.1382,98.3112,0.00160934,0.0752053,20.9601,82.5025,0.0775503,0.0,0.0
5652,1412.75,35.1063,36.1563,167.112,98.5684,97.5381,0.00143876,0.0752783,20.9598,82.5426,0.0972698,0.0,0.0
5670,1417.25,34.8416,35.8404,167.936,97.8452,96.6586,0.00116536,0.075412,20.9595,82.5125,0.112947,0.0,0.0
5688,1421.75,35.0074,35.7591,163.183,97.4423,96.2294,0.00126009,0.0754808,20.9578,82.5626,0.115944,0.0,0.0
5706,1426.25,34.7987,35.9838,167.231,97.5812,96.4583,0.00122563,0.0754558,20.9573,82.5326,0.10715,0.0,0.0
5724,1430.75,35.1799,36.0179,164.042,98.1104,97.135,0.00102032,0.0754843,20.9572,82.5426,0.0924845,0.0,0.0
5742,1435.25,35.227,35.9998,163.566,98.5904,97.4037,0.00101007,0.0756172,20.9572,82.5526,0.112092,0.0,0.0
5760,1439.75,35.2157,35.6279,165.345,98.6894,97.794,0.000982099,0.0756005,20.9563,82.5025,0.0843753,0.0,0.0
5778,1444.25,34.8768,35.9301,166.061,98.4486,96.9718,0.00106934,0.0756021,20.9571,82.5526,0.139913,0.0,0.0
5796,1448.75,34.8873,35.9861,169.712,98.2226,96.8576,0.00106442,0.0754042,20.9572,82.5225,0.129542,0.0,0.0
5814,1453.25,35.2732,35.7763,167.148,99.0168,97.2483,0.00102923,0.0753288,20.9573,82.5626,0.166834,0.0,0.0
5832,1457.75,34.6882,36.0173,170.545,98.8475,97.6403,0.00133572,0.0754442,20.9589,82.5225,0.113749,0.0,0.0
5850,1462.25,35.0604,35.8045,167.937,98.8068,97.136,0.00138307,0.0754178,20.9591,82.5726,0.157875,0.0,0.0
5868,1466.75,35.0256,36.0729,165.629,99.28,98.1181,0.00124968,0.0752815,20.9585,82.5626,0.108973,0.0,0.0
5886,1471.25,35.4004,35.7626,167.466,99.3367,97.9939,0.0011187,0.0750834,20.958,82.5125,0.12599,0.0,0.0
5904,1475.75,34.8494,35.7953,164.865,98.7657,97.1071,0.00121817,0.0749847,20.9582,82.5526,0.156774,0.0,0.0
5922,1480.25,34.6083,35.871,171.013,97.9155,96.5362,0.00141339,0.0751363,20.9571,82.4725,0.131326,0.0,0.0
5940,1484.75,34.9872,36.0994,168.113,97.479,95.7631,0.00125523,0.0748282,20.9603,82.5326,0.164401,0.0,0.0
5958,1489.25,34.7663,35.7304,165.1,97.7474,96.1377,0.00152659,0.0748279,20.9607,82.4925,0.153707,0.0,0.0
5976,1493.75,35.1138,35.6169,166.865,98.3508,97.0447,0.00154998,0.0749778,20.9608,82.5726,0.123752,0.0,0.0
5994,1498.25,35.0799,35.7027,169.998,98.7365,97.3143,0.00131543,0.0750366,20.9608,82.5225,0.134306,0.0,0.0
6012,1502.75,35.0389,35.8225,170.907,98.5856,97.2726,0.00127088,0.0748614,20.9608,82.5426,0.124112,0.0,0.0
6030,1507.25,34.9593,35.9369,166.983,98.2505,96.5981,0.00130193,0.0746376,20.9589,82.5326,0.157013,0.0,0.0
6048,1511.75,35.2792,36.0505,166.219,98.7724,96.9053,0.00118757,0.0745846,20.9585,82.5225,0.176665,0.0,0.0
6066,1516.25,35.1324,35.978,170.811,99.028,97.4377,0.00100321,0.0746399,20.9587,82.5626,0.149871,0.0,0.0
6084,1520.75,34.5739,36.2076,170.444,98.5676,96.6632,0.00107378,0.0743182,20.9606,82.4925,0.180601,0.0,0.0
6102,1525.25,34.7477,35.8298,167.479,98.9757,97.2433,0.00115545,0.0742592,20.96,82.5926,0.163468,0.0,0.0
6120,1529.75,34.8125,35.8068,167.718,99.3283,97.6261,0.00104814,0.0742353,20.9606,82.4925,0.160012,0.0,0.0
6138,1534.25,35.1245,35.2852,167.748,99.3658,97.7243,0.000958956,0.074285,20.9608,82.5526,0.15421,0.0,0.0
6156,1538.75,34.7618,35.6198,169.275,99.0069,97.4198,0.00125851,0.0743507,20.9602,82.5125,0.149591,0.0,0.0
6174,1543.25,35.0711,35.4894,171.271,98.4222,96.9383,0.00112009,0.0746666,20.9589,82.4825,0.140631,0.0,0.0
6192,1547.75,35.2703,35.7826,167.731,97.86,96.4202,0.00102388,0.0748705,20.958,82.4825,0.137208,0.0,0.0
6210,1552.25,35.2016,35.6639,166.202,97.5253,95.9837,0.00119978,0.0750033,20.9603,82.4525,0.147504,0.0,0.0
6228,1556.75,35.0352,35.3854,167.002,97.5489,95.7805,0.00114064,0.075113,20.9594,82.5225,0.169351,0.0,0.0
6246,1561.25,34.8382,35.6447,166.987,97.8176,96.3106,0.000940149,0.0753881,20.9586,82.4425,0.143731,0.0,0.0
6264,1565.75,35.3495,36.1797,166.6,98.1922,96.6233,0.00109846,0.0755407,20.9585,82.4825,0.149102,0.0,0.0
6282,1570.25,35.2495,36.0965,163.647,98.5161,96.5683,0.00126212,0.0758054,20.9585,82.4725,0.184856,0.0,0.0
6300,1574.75,35.1398,35.7777,167.242,98.7141,97.0218,0.00114492,0.0758908,20.9585,82.4725,0.16008,0.0,0.0
6318,1579.25,34.9124,35.9081,166.351,98.7481,96.9521,0.00104007,0.0759809,20.9585,82.4625,0.169914,0.0,0.0
6336,1583.75,34.8459,35.7674,170.593,98.6351,97.0644,0.00104127,0.0758701,20.9585,82.4124,0.148594,0.0,0.0
6354,1588.25,34.9708,35.4422,168.355,98.4562,96.6513,0.00111339,0.0758072,20.9585,82.4425,0.171274,0.0,0.0
6372,1592.75,34.6373,35.903,168.501,98.2968,96.6687,0.0011759,0.0756875,20.9578,82.3824,0.154612,0.0,0.0
6390,1597.25,35.1304,35.6472,165.255,98.179,96.185,0.00119362,0.0756461,20.9567,82.4525,0.189951,0.0,0.0
6408,1601.75,34.8548,35.5005,168.445,98.4717,96.5596,0.00127352,0.0755712,20.958,82.4425,0.181525,0.0,0.0
6426,1606.25,34.5088,35.9094,167.146,98.8228,97.0864,0.00122655,0.075667,20.9572,82.4625,0.164093,0.0,0.0
6444,1610.75,34.5039,35.3362,168.585,98.9813,97.0498,0.00115186,0.0757693,20.9583,82.4725,0.182429,0.0,0.0
6462,1615.25,34.9637,35.6548,165.399,99.0216,97.4258,0.0012188,0.0755759,20.9578,82.4425,0.150406,0.0,0.0
6480,1619.75,35.0027,35.653,167.908,98.939,96.8851,0.001272,0.0755927,20.9592,82.4525,0.194185,0.0,0.0
6498,1624.25,35.081,35.4039,167.564,98.7561,96.8645,0.00114221,0.075499,20.9587,82.4024,0.179029,0.0,0.0
6516,1628.75,34.9261,35.199,167.373,98.544,96.7985,0.00107099,0.0758061,20.9585,82.4925,0.165444,0.0,0.0
6534,1633.25,34.4354,35.3193,171.613,98.6395,96.9782,0.00107009,0.0758514,20.9589,82.3624,0.157231,0.0,0.0
6552,1637.75,34.7722,35.8225,163.468,98.7848,97.0273,0.0008921,0.0760568,20.9593,82.4425,0.166181,0.0,0.0
6570,1642.25,34.5822,35.8843,166.193,98.919,97.0603,0.00115838,0.0762483,20.9581,82.4225,0.175596,0.0,0.0
6588,1646.75,35.264,35.6838,166.815,99.0835,97.0158,0.00145894,0.0763665,20.955,82.4325,0.195222,0.0,0.0
6606,1651.25,35.0648,35.9302,167.924,99.2161,97.1969,0.00146296,0.0766446,20.9564,82.4425,0.190335,0.0,0.0
6624,1655.75,34.3181,35.7889,166.695,99.3211,97.7784,0.00133655,0.0765473,20.9552,82.3924,0.144918,0.0,0.0
6642,1660.25,34.8491,35.6631,162.17,99.3818,97.0988,0.00147197,0.0763796,20.9566,82.4425,0.215134,0.0,0.0
6660,1664.75,34.7633,35.5002,167.318,99.3906,97.4372,0.0013157,0.0761816,20.9569,82.3624,0.183747,0.0,0.0
6678,1669.25,34.5295,35.9515,169.249,99.391,97.5693,0.00117401,0.076181,20.9557,82.4325,0.171246,0.0,0.0
6696,1673.75,34.5853,35.8934,168.485,99.3415,97.6596,0.00127328,0.0763821,20.955,82.3824,0.158067,0.0,0.0
6714,1678.25,34.7449,35.5301,165.53,99.278,97.4019,0.00122009,0.0763822,20.9567,82.4325,0.176608,0.0,0.0
6732,1682.75,34.5625,35.5858,169.001,99.1806,97.3565,0.00122002,0.0763152,20.9578,82.4024,0.171834,0.0,0.0
6750,1687.25,34.8569,35.5088,166.093,99.0787,97.1373,0.00120795,0.0764657,20.958,82.4225,0.183188,0.0,0.0
6768,1691.75,34.3181,35.4842,168.224,98.9122,96.9791,0.00110154,0.0765055,20.9584,82.4425,0.182704,0.0,0.0
6786,1696.25,34.5457,35.4449,166.133,98.7517,97.1859,0.00106983,0.0767037,20.9565,82.3824,0.147949,0.0,0.0
6804,1700.75,35.1098,35.6494,168.272,98.5975,96.6045,0.00136949,0.0767138,20.9555,82.4225,0.189037,0.0,0.0
6822,1705.25,35.1201,35.4415,164.555,98.3927,96.1685,0.00137428,0.076591,20.9553,82.3724,0.211663,0.0,0.0
6840,1709.75,34.4267,35.4516,164.742,98.2485,96.2038,0.00137734,0.0765472,20.9567,82.4225,0.194692,0.0,0.0
6858,1714.25,34.7042,35.9865,169.364,98.098,95.9364,0.00142337,0.0764148,20.9547,82.3924,0.206254,0.0,0.0
6876,1718.75,34.6643,35.6012,167.783,97.9502,96.0396,0.00129915,0.076864,20.9548,82.4024,0.182351,0.0,0.0
6894,1723.25,34.2486,35.6101,165.964,97.836,95.9167,0.00142219,0.0770152,20.955,82.3924,0.183405,0.0,0.0
6912,1727.75,35.1516,35.3684,165.83,97.747,95.8617,0.00150108,0.0771311,20.9551,82.4024,0.180287,0.0,0.0
6930,1732.25,34.2686,35.7046,165.749,97.6943,95.8966,0.00140768,0.0770355,20.9551,82.4024,0.171929,0.0,0.0
6948,1736.75,34.3281,35.1212,171.538,97.6615,95.6297,0.00139574,0.0771403,20.9535,82.3524,0.194623,0.0,0.0
6966,1741.25,34.4251,35.7109,167.576,97.6332,95.7838,0.00123418,0.0772656,20.9524,82.4124,0.177033,0.0,0.0
6984,1745.75,34.5766,35.2544,166.009,97.6124,95.6288,0.00116313,0.0770098,20.9539,82.3624,0.190054,0.0,0.0
7002,1750.25,34.7419,35.547,172.7,97.6124,95.9479,0.000849699,0.0770304,20.9542,82.4024,0.159213,0.0,0.0
7020,1754.75,34.2324,35.5,165.938,97.6028,95.5293,0.000907697,0.0770105,20.9542,82.3624,0.198782,0.0,0.0
7038,1759.25,34.1626,35.3726,165.467,97.5988,95.6563,0.000949507,0.0769553,20.9538,82.4024,0.186104,0.0,0.0
7056,1763.75,34.3328,35.5095,165.719,97.5956,95.6141,0.00107798,0.0766856,20.9531,82.3824,0.189884,0.0,0.0
7074,1768.25,34.3528,35.4552,166.248,97.5892,95.7938,0.00146347,0.0769678,20.9525,82.3624,0.171892,0.0,0.0
7092,1772.75,34.2521,35.1378,163.588,97.5964,95.6164,0.00140342,0.0771146,20.9525,82.3824,0.189737,0.0,0.0
7110,1777.25,34.4852,35.5343,164.058,97.6,95.9034,0.00129067,0.0770281,20.9529,82.3124,0.162331,0.0,0.0
7128,1781.75,34.2211,35.272,165.992,97.6284,95.7127,0.0010172,0.077095,20.9528,82.3624,0.183449,0.0,0.0
7146,1786.25,34.7407,35.6063,166.217,97.6467,95.8159,0.00101803,0.0773234,20.9544,82.3024,0.175218,0.0,0.0
7164,1790.75,34.6573,35.6867,167.82,97.6755,95.46875,0.00103875,0.0772742,20.9544,82.3724,0.21154,0.0,0.0
7182,1795.25,34.3174,35.2531,169.899,97.6807,95.7805,0.00126302,0.0773467,20.9536,82.3724,0.181847,0.0,0.0
7200,1799.75,34.1742,35.5314,167.448,97.7202,95.9562,0.00138137,0.0775425,20.9534,82.3824,0.168636,0.0,0.0
7218,1804.25,34.7728,34.8881,168.384,97.757,96.3014,0.00133024,0.077504,20.9533,82.3624,0.138866,0.0,0.0
7236,1808.75,34.605,34.746,163.643,97.7969,96.2547,0.00121167,0.0776624,20.9524,82.3324,0.147143,0.0,0.0
7254,1813.25,34.3919,35.1395,166.996,97.8783,96.1565,0.00129516,0.0777433,20.9512,82.3624,0.164293,0.0,0.0
7272,1817.75,35.0347,35.4576,168.547,97.9522,96.1653,0.00116386,0.0777687,20.9527,82.3124,0.170439,0.0,0.0
7290,1822.25,34.1661,35.3897,166.566,98.0245,96.058,0.00127147,0.0775532,20.9531,82.3424,0.187602,0.0,0.0
7308,1826.75,34.4939,35.3885,165.18,98.096,96.2405,0.00139779,0.0776573,20.9527,82.3324,0.176779,0.0,0.0
7326,1831.25,34.7555,35.4863,166.596,98.1838,96.3684,0.00140124,0.0774676,20.9531,82.3624,0.172768,0.0,0.0
7344,1835.75,35.2691,34.9112,166.328,98.2637,96.549,0.0011489,0.0774984,20.9538,82.3524,0.162958,0.0,0.0
7362,1840.25,34.8608,35.4596,172.358,98.3719,96.179,0.00118658,0.0774776,20.954,82.3524,0.208694,0.0,0.0
7380,1844.75,34.0028,35.6953,166.215,98.4646,96.6426,0.00132241,0.0773571,20.9541,82.3424,0.172896,0.0,0.0
7398,1849.25,34.7649,35.2623,172.238,98.5556,96.9287,0.00104029,0.0775201,20.9536,82.2823,0.154086,0.0,0.0
7416,1853.75,33.8453,35.1209,169.079,98.6774,97.0993,0.00109036,0.0774004,20.9558,82.3424,0.149242,0.0,0.0
7434,1858.25,35.2873,35.0826,166.022,98.7752,96.8237,0.00134121,0.0773245,20.9568,82.2723,0.184726,0.0,0.0
7452,1862.75,34.3701,35.7635,166.078,98.8819,97.1745,0.00141351,0.0773391,20.9579,82.3424,0.161237,0.0,0.0
7470,1867.25,34.2693,35.7038,169.174,98.9925,97.4556,0.00118751,0.0772365,20.9572,82.3224,0.144849,0.0,0.0
7488,1871.75,34.5747,35.0418,166.689,99.0903,97.1323,0.00117764,0.077255,20.9579,82.3524,0.184751,0.0,0.0
7506,1876.25,34.6659,35.5618,165.816,99.1905,97.4386,0.0013488,0.0773323,20.9536,82.3524,0.164964,0.0,0.0
7524,1880.75,34.7821,35.3401,171.194,99.2544,97.1676,0.00149681,0.0775702,20.9524,82.2923,0.196706,0.0,0.0
7542,1885.25,34.2336,35.3618,165.103,99.3243,97.4019,0.00134919,0.0775378,20.952,82.3324,0.180926,0.0,0.0
7560,1889.75,34.2843,35.1882,167.346,99.3738,97.5551,0.000926994,0.0772708,20.9534,82.2823,0.170995,0.0,0.0
7578,1894.25,34.309,35.6495,166.591,99.4122,97.5706,0.000959595,0.077441,20.952,82.3524,0.173087,0.0,0.0
7596,1898.75,34.5198,35.7282,165.484,99.4186,97.8228,0.000983773,0.0774667,20.9527,82.2823,0.149786,0.0,0.0
7614,1903.25,34.6698,35.4053,167.283,99.409,97.7339,0.00119569,0.0778112,20.9534,82.3224,0.157316,0.0,0.0
7632,1907.75,34.3617,35.1018,170.377,99.3686,97.5734,0.0010971,0.0776926,20.9535,82.3324,0.168772,0.0,0.0
7650,1912.25,34.7345,35.2773,165.177,99.3175,97.4235,0.000916598,0.0775904,20.9535,82.3424,0.178245,0.0,0.0
7668,1916.75,34.3314,35.2639,169.402,99.258,97.5216,0.00111785,0.0776262,20.9537,82.3624,0.163378,0.0,0.0
7686,1921.25,34.2813,35.4731,163.478,99.1694,97.0952,0.00146688,0.0776177,20.9548,82.2923,0.195674,0.0,0.0
7704,1925.75,34.6613,35.5271,168.363,99.1143,97.4519,0.00147574,0.0777274,20.9551,82.3124,0.15658,0.0,0.0
7722,1930.25,35.1386,34.849,165.241,99.0276,96.8581,0.00124205,0.0778417,20.9552,82.2623,0.205061,0.0,0.0
7740,1934.75,34.5915,35.3891,171.107,98.9497,96.925,0.00108461,0.0775903,20.9552,82.3324,0.191383,0.0,0.0
7758,1939.25,34.7755,35.2182,164.893,98.8607,96.9246,0.000924856,0.0775031,20.9547,82.2623,0.183091,0.0,0.0
7776,1943.75,34.4221,35.1727,167.85,98.806,96.6142,0.0012213,0.0775109,20.9548,82.3024,0.207664,0.0,0.0
7794,1948.25,34.069,35.7687,168.64,98.7361,96.8586,0.00115156,0.077611,20.9551,82.3124,0.177727,0.0,0.0
7812,1952.75,34.1064,35.5559,169.278,98.6718,97.0337,0.0012234,0.0775967,20.9535,82.3124,0.154972,0.0,0.0
7830,1957.25,33.9348,34.9509,170.973,98.6295,97.0919,0.00111992,0.0774407,20.9543,82.3224,0.145446,0.0,0.0
7848,1961.75,32.599,33.4742,169.574,98.5844,96.8553,0.00119096,0.0775685,20.9532,82.2823,0.163796,0.0,0.0
7866,1966.25,33.1765,33.8285,171.464,98.6039,96.8255,0.00128691,0.0776358,20.9529,82.2923,0.168481,0.0,0.0
7884,1970.75,33.2353,34.0707,163.536,98.7249,97.2946,0.00116043,0.0776686,20.9529,82.2123,0.135095,0.0,0.0
7902,1975.25,33.3585,34.2788,169.691,98.8611,97.2125,0.000961268,0.0778956,20.9511,82.2923,0.155668,0.0,0.0
7920,1979.75,32.5458,33.6531,167.978,98.9366,97.0484,0.00097258,0.0781945,20.9508,82.3224,0.178377,0.0,0.0
7938,1984.25,32.9275,33.6797,165.881,98.9981,97.257,0.000921913,0.0783454,20.9518,82.3224,0.164251,0.0,0.0
7956,1988.75,32.7094,33.586,163.004,99.0336,97.0709,0.00113187,0.0785019,20.9527,82.3124,0.185309,0.0,0.0
7974,1993.25,33.0862,34.0005,167.593,99.0324,97.3249,0.00128581,0.0788011,20.9514,82.3024,0.161005,0.0,0.0
7992,1997.75,32.7851,33.8817,167.854,98.9921,97.2217,0.00132295,0.0789034,20.9512,82.3024,0.167051,0.0,0.0
8010,2002.25,33.0215,33.6554,167.407,98.933,97.2703,0.00116268,0.0790186,20.9507,82.2623,0.156897,0.0,0.0
8028,2006.75,32.9311,34.3351,164.515,98.8527,96.8333,0.00118752,0.0790037,20.9485,82.3424,0.191063,0.0,0.0
8046,2011.25,32.4678,33.7238,169.043,98.6978,96.9677,0.00117993,0.0785553,20.9495,82.2423,0.163708,0.0,0.0
8064,2015.75,32.367,33.5942,167.775,98.5013,96.8723,0.000915125,0.078223,20.9518,82.2923,0.154372,0.0,0.0
8082,2020.25,32.4722,34.1528,169.24,98.2178,96.483,0.00119444,0.0785018,20.9521,82.3024,0.164963,0.0,0.0
8100,2024.75,33.0814,33.5712,162.533,98.2018,96.3973,0.00123374,0.0787398,20.9529,82.3024,0.171688,0.0,0.0
8118,2029.25,32.8328,33.8214,168.34,98.2917,96.7737,0.00110336,0.0786948,20.953,82.3024,0.144073,0.0,0.0
8136,2033.75,32.4964,34.0098,164.307,98.3615,96.5761,0.00138672,0.0785414,20.9526,82.2323,0.169576,0.0,0.0
8154,2038.25,32.6947,34.0005,168.383,98.4586,96.7045,0.00159581,0.0780388,20.9523,82.3124,0.166406,0.0,0.0
8172,2042.75,33.1612,33.3281,165.652,98.5572,96.7696,0.00150282,0.0776406,20.954,82.2323,0.169444,0.0,0.0
8190,2047.25,32.9074,33.3215,167.949,98.681,96.9498,0.00113494,0.0770961,20.9552,82.3024,0.163842,0.0,0.0
8208,2051.75,32.9404,33.6244,165.787,98.7497,97.2928,0.000954066,0.0767445,20.9553,82.2623,0.137592,0.0,0.0
8226,2056.25,33.2941,33.5322,165.556,98.7657,96.7989,0.000995147,0.0762958,20.956,82.2823,0.186196,0.0,0.0
8244,2060.75,33.0202,33.745,163.44,98.7453,97.1016,0.00135846,0.0760444,20.9567,82.2823,0.155391,0.0,0.0
8262,2065.25,32.3536,33.5671,166.571,98.6586,96.6366,0.00137153,0.0759992,20.9568,82.2423,0.191696,0.0,0.0
8280,2069.75,33.2938,33.9307,169.423,98.5205,96.4578,,,,82.2923,0.195869,0.0,0.0
8298,2074.25,32.4043,33.4587,167.389,98.3264,96.837,,,,82.2223,0.141293,0.0,0.0
8311,2077.5,32.6156,33.9533,169.662,98.1978,96.4381,,,,81.952,0.167393,0.0,0.0