File: 01_Data/Polyisocyanurate_Foam_Board/Cone/Polyisocyanurate_Foam_Board_Cone_HF50Scan_221129_R4.csv
Names,Time,Stack TC,Smoke TC,Exh Press,Smoke Comp,Smoke Meas,CO Meter,CO2 Meter,O2 Meter,Sample Mass,Ext Coeff,Start Test,Flame Verif
Chan Gain,,500,500,1,1,1,1,1,1,1,1,1.0,1.0
Offset,,0,0,0.13918,0,0,0,0,0,0,0,0.0,0.0
Gain,,1,1,25.011,14.0162,15.5607,1,1,1,1.0009,1.02981,1.0,1.0
Units,sec,C,C,Pa,%,%,%,%,%,g,/m,,
Baseline,,33.3525,34.6442,155.161,104.342,4.47287,0.000813785,0.0922597,20.9502,-0.773572,28.4522,,
3,0.5,31.3375,32.6921,154.779,104.022,4.48852,0.00362985,0.10336,20.929,527.186,28.3928,0.0,1.0
6,1.25,31.4835,32.8439,143.417,104.001,4.39972,0.00535665,0.116836,20.9056,527.116,28.5715,0.0,1.0
9,2,31.988,33.2277,136.722,104.001,4.01887,0.00731412,0.14205,20.8527,527.216,29.3894,0.0,1.0
12,2.75,32.631,33.2267,136.648,103.998,3.95856,0.0092753,0.174181,20.8142,526.946,29.5257,0.0,1.0
15,3.5,33.0641,33.4001,142.068,103.965,3.96236,0.0116184,0.209901,20.7566,526.836,29.5142,0.0,1.0
18,4.25,34.088,34.3667,135.016,103.971,3.80613,0.0138659,0.248316,20.7056,526.665,29.8781,0.0,1.0
21,5,33.8775,34.4138,140.805,103.966,3.94717,0.0159069,0.287642,20.6529,526.675,29.549,0.0,1.0
24,5.75,35.31,35.2113,133.188,104.022,3.90775,0.0177682,0.326649,20.5951,526.485,29.6445,0.0,0.0
27,6.5,36.4316,35.4938,132.702,104.058,3.79948,0.0192588,0.359158,20.5359,526.405,29.9014,0.0,0.0
30,7.25,37.1363,36.4503,134.446,104.077,3.72777,0.0203865,0.38982,20.4908,526.265,30.0753,0.0,0.0
33,8,37.5701,37.2565,139.119,104.121,3.71068,0.0211779,0.416814,20.4542,526.205,30.1206,0.0,0.0
36,8.75,38.553,37.7933,135.813,104.163,3.63755,0.0216725,0.43761,20.4276,526.085,30.304,0.0,0.0
39,9.5,39.0709,38.4787,139.253,104.19,3.60478,0.022033,0.453218,20.4082,525.985,30.3881,0.0,0.0
42,10.25,39.9603,39.2313,136.229,104.217,3.76576,0.0218752,0.464547,20.3941,525.835,29.9958,0.0,0.0
45,11,40.7868,40.1493,136.162,104.258,3.89256,0.0215076,0.470848,20.3847,525.845,29.7001,0.0,0.0
48,11.75,40.9908,40.4219,133.774,104.307,3.81468,0.0209463,0.474608,20.3794,525.765,29.887,0.0,0.0
51,12.5,41.3423,40.3641,143.165,104.342,3.96759,0.0202199,0.471106,20.3844,525.685,29.535,0.0,0.0
54,13.25,42.324,41.4789,142.209,104.375,3.93007,0.0192388,0.4657,20.3981,525.564,29.6237,0.0,0.0
57,14,42.0166,42.0092,143.632,104.416,4.03977,0.0182266,0.45688,20.4164,525.494,29.3785,0.0,0.0
60,14.75,42.3178,42.3163,139.787,104.474,4.04642,0.0172207,0.445375,20.4365,525.514,29.3687,0.0,0.0
63,15.5,42.9368,42.9011,145.848,104.508,4.13094,0.0162456,0.432567,20.4605,525.444,29.1849,0.0,0.0
66,16.25,42.8757,42.7271,143.778,104.531,4.14994,0.0153717,0.419371,20.4808,525.324,29.1454,0.0,0.0
69,17,43.3023,43.4331,143.165,104.555,4.13854,0.0144558,0.404207,20.5004,525.254,29.1723,0.0,0.0
72,17.75,43.4966,43.3956,145.8,104.606,4.13664,0.0135649,0.390115,20.5146,525.284,29.1809,0.0,0.0
75,18.5,43.6461,43.6402,147.884,104.632,4.2074,0.0129154,0.37693,20.5319,525.264,29.0299,0.0,0.0
78,19.25,43.5954,44.0455,143.515,104.663,4.17606,0.0122461,0.364555,20.5463,525.114,29.1002,0.0,0.0
81,20,43.5405,43.9074,141.035,104.674,4.26913,0.0116747,0.353097,20.5599,525.024,28.902,0.0,0.0
84,20.75,43.9472,44.124,145.604,104.697,4.23732,0.0111228,0.343706,20.5746,525.054,28.9715,0.0,0.0
87,21.5,44.0436,44.495,146.036,104.723,4.25299,0.0106551,0.335564,20.5888,525.014,28.9404,0.0,0.0
90,22.25,44.264,44.7168,149.342,104.746,4.21357,0.010254,0.327411,20.6015,524.964,29.0265,0.0,0.0
93,23,44.843,44.7881,147.799,104.749,4.26533,0.00990631,0.320598,20.6133,524.824,28.9165,0.0,0.0
96,23.75,44.2192,45.1678,149.626,104.773,4.27151,0.00963271,0.315015,20.6219,524.914,28.9054,0.0,0.0
99,24.5,44.5575,45.1275,146.424,104.782,4.27151,0.00939878,0.310525,20.6294,524.864,28.9063,0.0,0.0
102,25.25,44.6362,45.3887,145.382,104.797,4.28955,0.00920822,0.306979,20.6349,524.774,28.8695,0.0,0.0
105,26,45.1896,45.4196,145.556,104.802,4.29572,0.00906803,0.304177,20.6394,524.664,28.8569,0.0,0.0
108,26.75,44.723,45.7588,139.817,104.81,4.24919,0.00895992,0.301961,20.6434,524.684,28.956,0.0,0.0
111,27.5,45.297,45.5863,144.089,104.821,4.215,0.00887191,0.300201,20.6464,524.664,29.0299,0.0,0.0
114,28.25,45.0698,46.0074,143.568,104.82,4.22022,0.00875503,0.298755,20.6494,524.593,29.0187,0.0,0.0
117,29,45.2822,45.9883,142.192,104.815,4.24396,0.00863698,0.297528,20.652,524.463,28.9676,0.0,0.0
120,29.75,44.8168,46.5627,145.883,104.814,4.30712,0.00849477,0.296086,20.6543,524.493,28.834,0.0,0.0
123,30.5,45.6372,46.4395,145.21,104.825,4.28053,0.0083911,0.294656,20.6562,524.463,28.8909,0.0,0.0
126,31.25,45.6577,46.6912,144.064,104.823,4.28148,0.00813436,0.292967,20.6589,524.393,28.8888,0.0,0.0
129,32,45.3275,46.4754,140.434,104.816,4.27815,0.00784841,0.290487,20.6623,524.283,28.8951,0.0,0.0
132,32.75,46.0991,47.2656,146.419,104.821,4.33561,0.00753801,0.288678,20.6664,524.303,28.775,0.0,0.0
135,33.5,45.3198,47.1776,146.807,104.835,4.33229,0.00720944,0.285143,20.6726,524.313,28.7832,0.0,0.0
138,34.25,45.5478,46.9593,149.435,104.835,4.35366,0.00685155,0.281935,20.6782,524.273,28.7388,0.0,0.0
141,35,45.8345,46.7374,148.783,104.826,4.42869,0.00648799,0.278516,20.6843,524.133,28.5836,0.0,0.0
144,35.75,46.1572,47.2985,145.568,104.836,4.36363,0.00613369,0.274163,20.6919,524.083,28.7182,0.0,0.0
147,36.5,45.7543,47.2901,149.193,104.842,4.45101,0.00579677,0.269897,20.699,524.153,28.5395,0.0,0.0
150,37.25,45.6851,47.3024,146.161,104.835,4.50135,0.00555116,0.264916,20.707,524.123,28.4374,0.0,0.0
153,38,45.8786,47.3875,146.294,104.83,4.51369,0.00534711,0.258343,20.7163,524.023,28.4122,0.0,0.0
156,38.75,45.6884,47.6523,154.476,104.818,4.54171,0.00522465,0.252496,20.726,524.003,28.3553,0.0,0.0
159,39.5,45.6802,47.3153,151.426,104.827,4.47618,0.00514659,0.246432,20.7355,524.063,28.4874,0.0,0.0
162,40.25,45.6427,47.3964,148.034,104.843,4.47095,0.00517359,0.240158,20.7435,524.033,28.4992,0.0,0.0
165,41,45.1489,47.401,149.651,104.803,4.50657,0.00523293,0.234795,20.7514,523.933,28.4241,0.0,0.0
168,41.75,45.4753,47.6085,149.746,104.793,4.52414,0.00534398,0.228953,20.7582,523.853,28.3881,0.0,0.0
171,42.5,44.9578,47.0429,150.229,104.794,4.5042,0.00549119,0.223889,20.7649,523.923,28.4281,0.0,0.0
174,43.25,45.2918,47.1838,147.899,104.776,4.48425,0.0057118,0.219855,20.7722,523.923,28.4667,0.0,0.0
177,44,44.9755,47.1465,147.817,104.77,4.49612,0.00596082,0.21607,20.7779,523.843,28.4423,0.0,0.0
180,44.75,45.5111,47.4887,147.638,104.746,4.45101,0.00614236,0.21331,20.7823,523.773,28.5313,0.0,0.0
183,45.5,45.1625,47.0665,149.285,104.733,4.43819,0.00635222,0.21132,20.7854,523.843,28.5562,0.0,0.0
186,46.25,45.4197,46.7068,148.757,104.726,4.49422,0.00652418,0.210187,20.7878,523.793,28.4423,0.0,0.0
189,47,44.6723,47.1105,148.963,104.706,4.42157,0.00666762,0.209497,20.7894,523.743,28.5878,0.0,0.0
192,47.75,44.8751,47.2152,144.072,104.678,4.55026,0.00678927,0.209901,20.7907,523.683,28.3262,0.0,0.0
195,48.5,45.0248,46.84,143.302,104.669,4.44341,0.00691409,0.210732,20.7898,523.713,28.5401,0.0,0.0
198,49.25,45.064,46.525,149.121,104.656,4.44294,0.00703296,0.212254,20.788,523.713,28.5399,0.0,0.0
201,50,44.8407,47.0341,149.343,104.637,4.46715,0.00716472,0.214777,20.7852,523.643,28.4892,0.0,0.0
204,50.75,45.1409,47.2376,146.288,104.598,4.53411,0.00722153,0.217703,20.7825,523.523,28.3514,0.0,0.0
207,51.5,45.0327,46.9576,146.103,104.589,4.46051,0.00728717,0.220961,20.7793,523.503,28.4984,0.0,0.0
210,52.25,44.8866,47.379,151.031,104.599,4.44769,0.00734044,0.224471,20.7759,523.492,28.5254,0.0,0.0
213,53,44.666,47.3354,145.768,104.565,4.44674,0.00738689,0.22983,20.7717,523.462,28.5243,0.0,0.0
216,53.75,44.5628,47.2502,144.618,104.558,4.44626,0.00742801,0.232086,20.7667,523.322,28.5247,0.0,0.0
219,54.5,45.4974,47.2453,149.633,104.594,4.38975,0.00746483,0.23813,20.7598,523.282,28.6434,0.0,0.0
222,55.25,44.882,47.5525,153.494,104.665,4.34654,0.00750055,0.243616,20.7514,523.332,28.7388,0.0,0.0
225,56,45.3974,46.5644,144.098,104.696,4.39402,0.00753165,0.24946,20.7427,523.302,28.6434,0.0,0.0
228,56.75,45.4086,47.078,146.025,104.705,4.3076,0.00754618,0.255877,20.7349,523.162,28.8236,0.0,0.0
231,57.5,45.2168,47.7444,145.532,104.697,4.41017,0.00754193,0.261979,20.726,523.102,28.6104,0.0,0.0
234,58.25,45.4856,47.9194,145,104.702,4.36268,0.00752281,0.267604,20.7195,523.142,28.7085,0.0,0.0
237,59,45.69,47.4745,145.738,104.684,4.36838,0.00748148,0.272678,20.7136,523.082,28.6952,0.0,0.0
240,59.75,45.4666,47.9164,145.823,104.673,4.32802,0.00744232,0.277014,20.7092,522.972,28.7781,0.0,0.0
243,60.5,45.8891,48.0719,145.019,104.66,4.3945,0.00743405,0.280448,20.706,522.892,28.6393,0.0,0.0
246,61.25,45.8002,48.1579,145.617,104.653,4.37171,0.00743666,0.283019,20.7037,522.942,28.6857,0.0,0.0
249,62,45.8119,48.4509,144.47,104.649,4.42442,0.00748425,0.284466,20.7025,522.872,28.577,0.0,0.0
252,62.75,46.1188,48.3428,148.794,104.623,4.40067,0.00754978,0.284788,20.7018,522.812,28.6234,0.0,0.0
255,63.5,46.3495,48.5804,145.974,104.602,4.40637,0.00761698,0.283437,20.7025,522.702,28.6099,0.0,0.0
258,64.25,46.047,48.5908,146.641,104.592,4.43771,0.00766053,0.280807,20.703,522.722,28.545,0.0,0.0
261,65,46.2541,48.5193,143.213,104.585,4.42014,0.00769228,0.278188,20.7059,522.732,28.5803,0.0,0.0
264,65.75,45.7662,48.7338,145.622,104.562,4.42727,0.00769338,0.273366,20.7096,522.702,28.5637,0.0,0.0
267,66.5,46.2994,48.4283,147.457,104.531,4.42347,0.00765647,0.268351,20.7149,522.582,28.5688,0.0,0.0
270,67.25,45.995,48.5566,147.087,104.513,4.47903,0.00759701,0.264056,20.7205,522.582,28.4545,0.0,0.0
273,68,46.054,48.5267,146.783,104.506,4.45006,0.00753464,0.259773,20.7263,522.622,28.5125,0.0,0.0
276,68.75,46.2912,48.3579,148.718,104.475,4.50752,0.00747306,0.254681,20.732,522.572,28.3939,0.0,0.0
279,69.5,45.9685,48.918,150.631,104.468,4.46478,0.00741449,0.24972,20.7394,522.432,28.4794,0.0,0.0
282,70.25,46.351,48.7226,149.772,104.437,4.48947,0.00736935,0.245044,20.7439,522.452,28.4268,0.0,0.0
285,71,45.9807,48.5601,151.348,104.426,4.42869,0.00729948,0.240736,20.7506,522.512,28.549,0.0,0.0
288,71.75,45.967,48.5213,145.158,104.412,4.49232,0.00724098,0.236219,20.7567,522.492,28.419,0.0,0.0
291,72.5,46.0985,48.5949,148.336,104.379,4.47238,0.00718302,0.231934,20.7612,522.372,28.4564,0.0,0.0
294,73.25,45.9577,48.6631,149.501,104.378,4.52604,0.00711458,0.229446,20.7663,522.331,28.3485,0.0,0.0
297,74,45.8453,48.539,145.851,104.392,4.54646,0.00701959,0.22514,20.7709,522.432,28.309,0.0,0.0
300,74.75,45.8634,48.181,145.002,104.398,4.57685,0.00690993,0.221323,20.7756,522.411,28.2494,0.0,0.0
303,75.5,45.859,48.1767,152.135,104.4,4.5911,0.00679814,0.217379,20.7806,522.271,28.2214,0.0,0.0
306,76.25,45.4138,48.5022,151.987,104.402,4.58635,0.00669166,0.213312,20.7873,522.261,28.231,0.0,0.0
309,77,45.5861,48.5439,147.705,104.423,4.55976,0.00659964,0.209434,20.7932,522.351,28.2853,0.0,0.0
312,77.75,45.3297,48.1992,145.908,104.434,4.51749,0.00653508,0.205916,20.798,522.321,28.3704,0.0,0.0
315,78.5,45.09,48.5699,149.727,104.443,4.55358,0.0064891,0.202495,20.8019,522.231,28.2993,0.0,0.0
318,79.25,45.3329,48.1299,150.054,104.428,4.57828,0.00646188,0.198992,20.8053,522.201,28.2491,0.0,0.0
321,80,45.2595,48.252,145.806,104.448,4.58587,0.00644141,0.195951,20.8085,522.301,28.2359,0.0,0.0
324,80.75,45.2826,47.8472,148.609,104.456,4.55833,0.0064208,0.193371,20.8115,522.261,28.2911,0.0,0.0
327,81.5,44.4325,48.3983,147.399,104.466,4.61152,0.00637161,0.191132,20.8141,522.151,28.1871,0.0,0.0
330,82.25,44.9206,48.0397,149.201,104.462,4.59347,0.00629839,0.189347,20.8162,522.131,28.2222,0.0,0.0
333,83,44.98,47.8798,146.21,104.475,4.53554,0.00625944,0.187534,20.8186,522.201,28.338,0.0,0.0
336,83.75,44.8174,47.8094,146.968,104.493,4.54551,0.00619933,0.186048,20.8209,522.191,28.3196,0.0,0.0
339,84.5,44.6077,48.1304,150.919,104.512,4.53174,0.00614708,0.184683,20.823,522.121,28.3487,0.0,0.0
342,85.25,44.5093,47.9327,151.029,104.491,4.53601,0.00610559,0.183136,20.8246,522.081,28.3384,0.0,0.0
345,86,44.6609,47.5792,153.399,104.512,4.58255,0.00608163,0.181852,20.8257,522.151,28.248,0.0,0.0
348,86.75,44.3102,47.801,149.514,104.525,4.58302,0.00606951,0.180648,20.8265,522.151,28.2482,0.0,0.0
351,87.5,43.9605,47.6165,149.534,104.531,4.53981,0.0060652,0.179346,20.8271,522.101,28.3343,0.0,0.0
354,88.25,43.6669,47.2672,149.912,104.532,4.57495,0.00606206,0.178217,20.8294,522.041,28.2647,0.0,0.0
357,89,44.1039,47.5953,150.608,104.547,4.60819,0.00607415,0.177087,20.831,522.061,28.2006,0.0,0.0
360,89.75,43.8288,47.1683,152.097,104.563,4.59015,0.00608655,0.175922,20.8325,522.131,28.2374,0.0,0.0
363,90.5,43.8582,47.3695,150.055,104.572,4.58302,0.00609095,0.174928,20.834,522.101,28.2522,0.0,0.0
366,91.25,44.035,46.8256,150.995,104.578,4.52841,0.00607893,0.173669,20.8356,522.011,28.361,0.0,0.0
369,92,43.7136,46.7067,155.502,104.59,4.53221,0.0060577,0.172307,20.8386,521.981,28.3545,0.0,0.0
372,92.75,43.519,47.0194,148.276,104.605,4.55596,0.00604223,0.170941,20.8407,522.061,28.3086,0.0,0.0
375,93.5,43.8413,46.8266,150.354,104.603,4.5702,0.00600581,0.169397,20.8423,522.041,28.2802,0.0,0.0
378,94.25,43.6063,47.1079,151.031,104.606,4.60534,0.00597549,0.167962,20.8435,521.941,28.2113,0.0,0.0
381,95,43.3803,46.6303,148.585,104.619,4.62956,0.00595177,0.166784,20.845,521.941,28.1651,0.0,0.0
384,95.75,43.6511,46.2912,149.679,104.643,4.59965,0.0059309,0.165505,20.846,522.011,28.2257,0.0,0.0
387,96.5,43.1503,46.6502,150.075,104.662,4.57448,0.00592071,0.164572,20.8473,522.011,28.2769,0.0,0.0
390,97.25,43.7175,46.116,152.481,104.639,4.55073,0.00593179,0.163241,20.849,521.911,28.3219,0.0,0.0
393,98,43.158,46.4815,150.734,104.656,4.55073,0.00596475,0.161917,20.8509,521.881,28.3233,0.0,0.0
396,98.75,43.3941,46.2708,147.263,104.673,4.55216,0.00601937,0.160617,20.8527,521.981,28.322,0.0,0.0
399,99.5,43.1618,46.3607,143.601,104.685,4.58635,0.0060592,0.159351,20.8542,521.971,28.2554,0.0,0.0
402,100.25,42.9387,46.2109,151.407,104.685,4.59347,0.00615117,0.15803,20.8559,521.901,28.2414,0.0,0.0
405,101,42.8096,46.3061,150.349,104.693,4.55406,0.00623262,0.156877,20.8576,521.871,28.32,0.0,0.0
408,101.75,43.2943,46.2009,149.05,104.698,4.54931,0.00628947,0.155955,20.859,521.911,28.3298,0.0,0.0
411,102.5,42.7941,46.1171,152.173,104.714,4.57685,0.00632983,0.154907,20.86,521.951,28.2767,0.0,0.0
414,103.25,42.6029,46.1755,154.206,104.721,4.56403,0.00635026,0.153988,20.8612,521.901,28.3026,0.0,0.0
417,104,42.3724,45.8329,148.719,104.715,4.58872,0.00636516,0.153055,20.8623,521.841,28.2534,0.0,0.0
420,104.75,42.519,46.1067,152.484,104.742,4.5702,0.00637602,0.152061,20.8631,521.841,28.2922,0.0,0.0
423,105.5,42.6976,45.7005,151.113,104.746,4.55263,0.00640013,0.151132,20.8641,521.901,28.3274,0.0,0.0
426,106.25,42.1697,45.8755,150.931,104.749,4.56688,0.0064177,0.150368,20.865,521.921,28.2994,0.0,0.0
429,107,42.2212,45.4759,151.781,104.747,4.54361,0.00648454,0.149435,20.8661,521.801,28.3454,0.0,0.0
432,107.75,42.3668,45.4061,151.002,104.763,4.58777,0.00658889,0.148478,20.8673,521.801,28.2593,0.0,0.0
435,108.5,42.3973,45.7287,149.339,104.786,4.55786,0.00671999,0.147662,20.8686,521.881,28.3204,0.0,0.0
438,109.25,42.1211,45.5512,150.478,104.792,4.55406,0.00686911,0.146775,20.8702,521.861,28.3285,0.0,0.0
441,110,41.9577,45.4684,150.35,104.783,4.55263,0.00703387,0.146037,20.8713,521.741,28.3306,0.0,0.0
444,110.75,42.0148,44.9703,147.428,104.793,4.55311,0.00715398,0.145341,20.8722,521.761,28.3304,0.0,0.0
447,111.5,42.0615,45.4176,151.786,104.805,4.54788,0.00727961,0.144459,20.8727,521.861,28.3418,0.0,0.0
450,112.25,42.0988,45.3257,152.964,104.804,4.53506,0.00739878,0.143663,20.8729,521.851,28.3673,0.0,0.0
453,113,41.8491,45.0128,150.577,104.798,4.54598,0.00750509,0.142821,20.8737,521.761,28.345,0.0,0.0
456,113.75,41.5866,44.8653,150.697,104.81,4.54693,0.00759931,0.142061,20.8742,521.771,28.3442,0.0,0.0
459,114.5,41.3487,45.2737,150.992,104.823,4.55548,0.00769659,0.141258,20.8753,521.861,28.3283,0.0,0.0
462,115.25,41.428,44.961,151.489,104.821,4.59442,0.00778276,0.140445,20.8762,521.841,28.2513,0.0,0.0
465,116,41.3177,45.0796,152.096,104.814,4.53221,0.00786414,0.13973,20.8774,521.731,28.3739,0.0,0.0
468,116.75,41.6092,45.0407,154.534,104.841,4.5702,0.00794407,0.138999,20.8788,521.731,28.3008,0.0,0.0
471,117.5,41.1062,45.1047,153.567,104.836,4.52699,0.00806227,0.138367,20.8799,521.831,28.3862,0.0,0.0
474,118.25,41.4497,44.5433,152.604,104.833,4.5759,0.00820454,0.137736,20.8808,521.821,28.2888,0.0,0.0
477,119,41.1587,44.7755,152.8,104.834,4.57258,0.00836106,0.137131,20.882,521.731,28.2955,0.0,0.0
480,119.75,41.1033,44.2898,149.045,104.825,4.59157,0.00852456,0.136516,20.8834,521.701,28.2572,0.0,0.0
483,120.5,41.0791,44.5745,153.495,104.835,4.5683,0.00866798,0.135878,20.8845,521.801,28.304,0.0,0.0
486,121.25,41.1431,44.3933,152.57,104.854,4.5683,0.00881395,0.135218,20.8852,521.801,28.3056,0.0,0.0
489,122,40.7636,44.4957,153.75,104.827,4.58113,0.00894774,0.134509,20.8862,521.721,28.278,0.0,0.0
492,122.75,41.0296,44.1076,150.572,104.83,4.59537,0.00905423,0.133923,20.8872,521.681,28.2502,0.0,0.0
495,123.5,40.6115,44.3206,152.29,104.825,4.57163,0.00913298,0.133379,20.8878,521.771,28.2966,0.0,0.0
498,124.25,40.6609,43.9569,150.159,104.835,4.56688,0.00918579,0.132895,20.8883,521.771,28.3068,0.0,0.0
501,125,41.018,43.875,150.92,104.823,4.56925,0.00921014,0.132444,20.8889,521.741,28.301,0.0,0.0
504,125.75,40.8271,43.9534,152.378,104.805,4.56118,0.00920371,0.132012,20.8897,521.641,28.3155,0.0,0.0
507,126.5,40.7947,43.93,152.444,104.803,4.56166,0.00916438,0.131489,20.8903,521.731,28.3144,0.0,0.0
510,127.25,40.5365,43.772,153.865,104.813,4.59157,0.0091357,0.130964,20.8908,521.791,28.2562,0.0,0.0
513,128,40.3693,43.5949,151.842,104.8,4.54171,0.00912574,0.130334,20.8917,521.771,28.3537,0.0,0.0
516,128.75,40.5362,43.788,152.929,104.786,4.56071,0.00915429,0.129715,20.8924,521.671,28.3148,0.0,0.0
519,129.5,39.851,43.4495,151.987,104.785,4.53269,0.0092153,0.129196,20.8929,521.681,28.3704,0.0,0.0
522,130.25,40.2259,43.5812,154.93,104.785,4.55738,0.00930241,0.128632,20.8933,521.741,28.3213,0.0,0.0
525,131,40.2559,43.2277,158.478,104.787,4.56973,0.00942991,0.128213,20.8935,521.721,28.297,0.0,0.0
528,131.75,39.9302,43.3264,152.659,104.76,4.53839,0.00951399,0.127895,20.8937,521.601,28.3569,0.0,0.0
531,132.5,40.2227,43.3387,149.253,104.763,4.5816,0.0096354,0.127663,20.8938,521.631,28.2715,0.0,0.0
534,133.25,39.8524,43.4807,152.561,104.768,4.57305,0.00976054,0.127501,20.894,521.731,28.2889,0.0,0.0
537,134,40.0243,43.2657,153.448,104.759,4.58492,0.00985177,0.127397,20.894,521.721,28.2646,0.0,0.0
540,134.75,39.8982,43.2024,153.612,104.762,4.5854,0.00991827,0.127372,20.8941,521.591,28.2639,0.0,0.0
543,135.5,39.938,43.0384,154.591,104.748,4.5816,0.0100273,0.127336,20.894,521.571,28.2703,0.0,0.0
546,136.25,39.8879,43.0687,152.834,104.75,4.55833,0.0101101,0.127297,20.8939,521.691,28.3164,0.0,0.0
549,137,39.4223,42.7665,152.306,104.746,4.54836,0.0101763,0.127268,20.8938,521.681,28.3358,0.0,0.0
552,137.75,39.9192,42.593,152.113,104.727,4.60297,0.0102282,0.127103,20.8938,521.611,28.2264,0.0,0.0
555,138.5,39.7472,42.5507,154.149,104.726,4.52651,0.0102724,0.126982,20.894,521.571,28.3776,0.0,0.0
558,139.25,39.5839,42.4206,150.746,104.736,4.48995,0.0103129,0.126689,20.8945,521.641,28.4518,0.0,0.0
561,140,39.4749,42.8679,153.342,104.728,4.60867,0.0103516,0.126417,20.8949,521.671,28.2153,0.0,0.0
564,140.75,39.183,42.6439,149.203,104.728,4.54456,0.0103927,0.126216,20.8952,521.611,28.3418,0.0,0.0
567,141.5,39.5871,42.5278,150.555,104.72,4.55786,0.0104227,0.126109,20.8954,521.571,28.3148,0.0,0.0
570,142.25,39.3805,41.7266,153.513,104.714,4.59015,0.0104592,0.126093,20.8955,521.591,28.2504,0.0,0.0
573,143,39.3946,42.5738,151.511,104.723,4.60962,0.0104961,0.125995,20.8956,521.661,28.213,0.0,0.0
576,143.75,39.4851,42.2996,153.327,104.708,4.57638,0.0105301,0.125886,20.8957,521.631,28.2771,0.0,0.0
579,144.5,38.9284,42.5536,156.294,104.701,4.55691,0.0105596,0.12558,20.8958,521.541,28.315,0.0,0.0
582,145.25,39.4434,42.2952,156.195,104.703,4.56118,0.01057,0.125373,20.8958,521.521,28.3067,0.0,0.0
585,146,39.304,42.1116,155.205,104.706,4.54266,0.0105582,0.125247,20.8958,521.641,28.3437,0.0,0.0
588,146.75,39.2892,42.1801,151.478,104.701,4.5854,0.0105414,0.125114,20.8959,521.611,28.2587,0.0,0.0
591,147.5,39.1271,42.1746,151.396,104.689,4.58492,0.0105144,0.124989,20.8957,521.501,28.2586,0.0,0.0
594,148.25,38.8722,41.9472,154.66,104.685,4.57163,0.0104947,0.124885,20.8955,521.541,28.2845,0.0,0.0
597,149,38.8369,41.9668,153.39,104.694,4.47333,0.0104951,0.12489,20.8954,521.611,28.4816,0.0,0.0
600,149.75,38.6289,41.9109,150.82,104.681,4.49185,0.0105211,0.124951,20.8953,521.621,28.4432,0.0,0.0
603,150.5,38.9852,41.7936,153.998,104.668,4.53601,0.0105639,0.12502,20.8953,521.521,28.3536,0.0,0.0
606,151.25,38.834,41.9031,148.836,104.671,4.55453,0.0106266,0.124967,20.8952,521.541,28.3171,0.0,0.0
609,152,39.1387,41.8723,157.58,104.666,4.56688,0.0106886,0.124861,20.8958,521.591,28.2922,0.0,0.0
612,152.75,38.9832,41.3927,158.238,104.663,4.52129,0.0107467,0.124666,20.8962,521.581,28.3826,0.0,0.0
615,153.5,38.6352,41.5481,151.764,104.65,4.53126,0.0107959,0.1244,20.8965,521.471,28.3616,0.0,0.0
618,154.25,38.851,41.6106,154.814,104.646,4.51559,0.0108341,0.124192,20.8968,521.451,28.3925,0.0,0.0
621,155,38.8075,41.646,149.276,104.646,4.53886,0.0108571,0.124042,20.8969,521.551,28.3461,0.0,0.0
624,155.75,38.8689,41.1432,149.255,104.627,4.53981,0.0108658,0.123946,20.8971,521.561,28.3426,0.0,0.0
627,156.5,38.3999,41.5521,152.828,104.625,4.5854,0.0108646,0.123978,20.8971,521.491,28.2521,0.0,0.0
630,157.25,38.6234,41.5781,150.337,104.619,4.60724,0.0108603,0.12404,20.8972,521.461,28.2087,0.0,0.0
633,158,38.3277,40.8545,149.998,104.623,4.49422,0.0108392,0.12415,20.8975,521.551,28.4334,0.0,0.0
636,158.75,38.7296,41.019,148.099,104.628,4.56783,0.0108162,0.124192,20.8982,521.581,28.287,0.0,0.0
639,159.5,38.5862,41.1453,154.383,104.614,4.5835,0.0107773,0.124158,20.8986,521.461,28.2549,0.0,0.0
642,160.25,38.5459,41.5636,148.053,104.577,4.55738,0.0107245,0.124133,20.899,521.461,28.3033,0.0,0.0
645,161,38.2703,40.9744,150.934,104.598,4.53079,0.0106807,0.12422,20.8992,521.531,28.358,0.0,0.0
648,161.75,38.4098,40.7696,150.411,104.596,4.52129,0.0106179,0.124312,20.8994,521.551,28.3768,0.0,0.0
651,162.5,38.3878,41.0442,155.257,104.584,4.53031,0.0105701,0.124369,20.8995,521.501,28.3578,0.0,0.0
654,163.25,38.3077,40.8139,153.764,104.572,4.574,0.0105318,0.124371,20.8996,521.411,28.27,0.0,0.0
657,164,38.4184,41.2102,152.816,104.565,4.49375,0.0105204,0.124329,20.8997,521.451,28.4293,0.0,0.0
660,164.75,38.6036,40.7368,153.21,104.577,4.54646,0.0105185,0.124258,20.8998,521.501,28.325,0.0,0.0
663,165.5,38.2715,41.1649,155.922,104.581,4.4928,0.0105165,0.124167,20.8998,521.481,28.4327,0.0,0.0
666,166.25,38.2064,41.1998,150.976,104.556,4.55168,0.0105092,0.124057,20.8998,521.411,28.3129,0.0,0.0
669,167,38.3831,40.7923,151.707,104.562,4.54266,0.0104974,0.123936,20.8998,521.411,28.3313,0.0,0.0
672,167.75,38.6734,40.4565,157.327,104.56,4.55596,0.010486,0.123809,20.8999,521.461,28.3047,0.0,0.0
675,168.5,37.8173,41.1154,159.567,104.555,4.52082,0.0104759,0.123658,20.8996,521.471,28.3742,0.0,0.0
678,169.25,38.2655,40.8239,151.001,104.54,4.57543,0.0104658,0.123523,20.8995,521.391,28.2645,0.0,0.0
681,170,38.0353,40.7878,155.802,104.54,4.52556,0.0104538,0.123423,20.8994,521.361,28.3634,0.0,0.0
684,170.75,38.048,40.9167,152.211,104.54,4.5664,0.0104347,0.12333,20.8993,521.431,28.2823,0.0,0.0
687,171.5,38.3301,40.9866,155.035,104.554,4.53459,0.0104152,0.123262,20.8995,521.431,28.3466,0.0,0.0
690,172.25,37.8414,40.7196,157.933,104.525,4.55881,0.0104098,0.123027,20.9,521.331,28.296,0.0,0.0
693,173,38.7056,40.7285,153.213,104.519,4.54598,0.0104222,0.122848,20.9003,521.341,28.321,0.0,0.0
696,173.75,38.1535,40.6228,156.775,104.516,4.54931,0.0104624,0.122705,20.9006,521.431,28.3141,0.0,0.0
699,174.5,37.6887,40.5583,155.566,104.514,4.60962,0.0105007,0.122642,20.9008,521.421,28.1949,0.0,0.0
702,175.25,37.8585,40.6219,154.393,104.514,4.5645,0.0105325,0.122639,20.901,521.351,28.2838,0.0,0.0
705,176,38.3172,40.8799,149.211,104.51,4.47143,0.0105595,0.122693,20.9011,521.311,28.4696,0.0,0.0
708,176.75,37.9156,40.4704,147.916,104.518,4.50942,0.0105836,0.122782,20.9012,521.401,28.3938,0.0,0.0
711,177.5,38.0547,40.5227,151.546,104.512,4.54551,0.0106059,0.122822,20.9012,521.411,28.3213,0.0,0.0
714,178.25,37.531,40.6484,151.987,104.496,4.56498,0.0106369,0.12285,20.9013,521.381,28.2813,0.0,0.0
717,179,38.1705,40.3746,152.939,104.485,4.51749,0.0106642,0.122871,20.9016,521.291,28.3748,0.0,0.0
720,179.75,37.2392,41.032,153.36,104.483,4.54029,0.0106922,0.122927,20.9015,521.341,28.3291,0.0,0.0
723,180.5,37.9162,40.2371,156.862,104.505,4.51274,0.0107127,0.122992,20.9011,521.401,28.386,0.0,0.0
726,181.25,37.8547,40.2964,154.179,104.482,4.55026,0.0107037,0.123079,20.9014,521.391,28.3093,0.0,0.0
729,182,36.93,40.1652,150.378,104.459,4.47713,0.0106475,0.123061,20.9016,521.28,28.4537,0.0,0.0
732,182.75,36.4277,40.9427,154.483,104.437,4.61532,0.0106066,0.123047,20.9018,521.291,28.1771,0.0,0.0
735,183.5,37.6049,40.1008,154.431,104.462,4.51844,0.0105235,0.123037,20.9019,521.381,28.3709,0.0,0.0
738,184.25,37.5385,40.3563,152.068,104.456,4.57305,0.0104685,0.123053,20.9016,521.371,28.2619,0.0,0.0
741,185,37.7914,39.707,155.713,104.434,4.52936,0.0104539,0.123103,20.9012,521.26,28.3467,0.0,0.0
744,185.75,37.5003,40.2182,150.818,104.417,4.55738,0.0104544,0.123284,20.9009,521.26,28.2895,0.0,0.0
747,186.5,37.7305,40.0175,156.949,104.433,4.55833,0.0104842,0.123469,20.9006,521.361,28.2891,0.0,0.0
750,187.25,37.5609,39.9481,150.006,104.425,4.58113,0.0105174,0.123694,20.9004,521.371,28.2433,0.0,0.0
753,188,37.5059,39.844,155.823,104.416,4.51512,0.0105613,0.123839,20.9003,521.27,28.3736,0.0,0.0
756,188.75,37.7912,40.0407,151.578,104.404,4.63953,0.0106154,0.124005,20.9002,521.23,28.127,0.0,0.0
759,189.5,37.319,39.9524,152.194,104.416,4.51179,0.0106548,0.124112,20.9001,521.331,28.3802,0.0,0.0
762,190.25,37.1127,40.2594,148.468,104.407,4.49232,0.0106652,0.124163,20.9001,521.341,28.4185,0.0,0.0
765,191,37.818,39.8931,153.265,104.385,4.59205,0.0106379,0.124172,20.9,521.24,28.2183,0.0,0.0
768,191.75,37.5791,40.1883,152.384,104.371,4.55596,0.0106033,0.124166,20.9,521.23,28.2884,0.0,0.0
771,192.5,37.3004,40.3095,154.035,104.383,4.5778,0.0105174,0.124089,20.9,521.32,28.2462,0.0,0.0
774,193.25,37.562,39.6404,154.615,104.403,4.5911,0.0104292,0.123972,20.9,521.32,28.2217,0.0,0.0
777,194,37.9002,39.7203,154.65,104.414,4.53934,0.0103478,0.123835,20.8999,521.2,28.3251,0.0,0.0
780,194.75,37.2584,39.7029,151.433,104.426,4.54836,0.010278,0.123721,20.8999,521.18,28.3082,0.0,0.0
783,195.5,37.6242,39.9874,150.018,104.447,4.55026,0.0102052,0.123623,20.8999,521.291,28.3062,0.0,0.0
786,196.25,37.5408,39.8415,152.542,104.463,4.58255,0.0101521,0.12354,20.8999,521.291,28.2437,0.0,0.0
789,197,37.222,39.7572,151.6,104.473,4.55406,0.0100384,0.123417,20.8999,521.2,28.3009,0.0,0.0
792,197.75,37.3074,39.4771,152.435,104.481,4.60914,0.00995258,0.123312,20.9001,521.18,28.1931,0.0,0.0
795,198.5,37.6195,39.8097,151.978,104.505,4.55263,0.00981797,0.12321,20.9005,521.22,28.3065,0.0,0.0
798,199.25,37.1389,39.7505,152.295,104.528,4.55596,0.00967419,0.123115,20.901,521.25,28.3019,0.0,0.0
801,200,37.5257,39.6536,149.841,104.556,4.54361,0.0095687,0.123053,20.9013,521.2,28.3289,0.0,0.0
804,200.75,37.8445,39.4142,154.74,104.535,4.51607,0.00949065,0.12303,20.9016,521.14,28.382,0.0,0.0
807,201.5,37.5613,39.7621,152.9,104.583,4.53696,0.0094593,0.123004,20.9018,521.18,28.3444,0.0,0.0
810,202.25,37.1816,39.6427,154.073,104.6,4.53601,0.0094531,0.122985,20.9019,521.24,28.3478,0.0,0.0
813,203,37.2485,39.7869,155.442,104.619,4.55501,0.00945567,0.123157,20.902,521.24,28.3117,0.0,0.0
816,203.75,37.3663,39.5555,152.397,104.62,4.57163,0.00945755,0.123354,20.902,521.13,28.2789,0.0,0.0
819,204.5,36.1508,39.9473,151.684,104.624,4.57638,0.00943883,0.123544,20.9022,521.15,28.2698,0.0,0.0
822,205.25,37.5671,39.4593,154.062,104.663,4.55026,0.00939958,0.123708,20.9024,521.22,28.3249,0.0,0.0
825,206,37.4781,39.4942,152.468,104.669,4.55263,0.00935976,0.123828,20.9025,521.23,28.3207,0.0,0.0
828,206.75,37.3823,39.7743,157.41,104.666,4.58207,0.00929819,0.123713,20.9026,521.16,28.2622,0.0,0.0
831,207.5,37.5267,39.6858,154.628,104.677,4.52509,0.00923143,0.123505,20.9031,521.11,28.3762,0.0,0.0
834,208.25,37.2143,39.3115,151.164,104.697,4.54693,0.00918007,0.123289,20.9037,521.22,28.3345,0.0,0.0
837,209,37.3222,39.4818,151.494,104.702,4.51987,0.00915059,0.12311,20.904,521.19,28.3889,0.0,0.0
840,209.75,37.2526,39.6911,150.504,104.708,4.5873,0.00912006,0.123034,20.9042,521.13,28.2556,0.0,0.0
843,210.5,37.5217,38.6115,155.06,104.721,4.51084,0.00909781,0.122975,20.9042,521.08,28.4085,0.0,0.0
846,211.25,37.1793,39.7909,157.607,104.732,4.52082,0.0090907,0.122985,20.9043,521.19,28.3895,0.0,0.0
849,212,37.3448,39.1077,152.474,104.749,4.57875,0.00909224,0.123004,20.9043,521.22,28.2759,0.0,0.0
852,212.75,37.1078,39.3513,152.303,104.747,4.54029,0.00910487,0.123045,20.9043,521.13,28.352,0.0,0.0
855,213.5,37.3704,39.6014,153.439,104.755,4.45813,0.00912503,0.123031,20.9043,521.1,28.5177,0.0,0.0
858,214.25,38.4791,39.5218,151.564,104.77,4.52984,0.00912949,0.123003,20.9043,521.15,28.3748,0.0,0.0
861,215,37.0671,39.2824,151.972,104.782,4.55643,0.00911829,0.122941,20.9043,521.17,28.3229,0.0,0.0
864,215.75,36.689,39.6537,153.18,104.787,4.55548,0.00909287,0.122839,20.9043,521.15,28.3253,0.0,0.0
867,216.5,37.0794,39.6808,154.26,104.787,4.52461,0.00903425,0.122709,20.9043,521.08,28.3866,0.0,0.0
870,217.25,36.8983,38.5932,150.703,104.812,4.52936,0.00899152,0.122562,20.9043,521.11,28.3793,0.0,0.0
873,218,37.5747,38.8181,151.007,104.82,4.55833,0.00889483,0.122455,20.9043,521.17,28.3224,0.0,0.0
876,218.75,37.2413,39.0013,153.421,104.832,4.53506,0.00878356,0.122435,20.9043,521.15,28.3697,0.0,0.0
879,219.5,36.9824,38.8875,149.664,104.817,4.50847,0.00867637,0.122445,20.9043,521.07,28.4215,0.0,0.0
882,220.25,36.7338,38.9781,154.318,104.815,4.60677,0.0085834,0.122534,20.9045,521.07,28.2265,0.0,0.0
885,221,36.793,39.2013,153.415,104.856,4.49707,0.00852582,0.12263,20.9047,521.14,28.4478,0.0,0.0
888,221.75,36.9631,39.1666,150.296,104.842,4.53079,0.00848818,0.122752,20.9048,521.12,28.3791,0.0,0.0
891,222.5,36.8213,39.3592,154.122,104.847,4.61247,0.00848074,0.122827,20.9049,521.01,28.2181,0.0,0.0
894,223.25,37.0817,39.2491,149.284,104.848,4.55928,0.00848806,0.122877,20.905,521.01,28.323,0.0,0.0
897,224,36.7746,38.7589,153.335,104.862,4.51607,0.00849883,0.122913,20.905,521.08,28.4102,0.0,0.0
900,224.75,36.6923,39.1199,149.33,104.866,4.55691,0.00849394,0.12304,20.9051,521.12,28.3292,0.0,0.0
903,225.5,36.6549,39.3617,152.317,104.853,4.58872,0.00846951,0.123184,20.9051,521.01,28.2653,0.0,0.0
906,226.25,37.1454,38.9204,153.319,104.852,4.54551,0.00842534,0.123302,20.9051,521.01,28.3506,0.0,0.0
909,227,37.0002,38.9039,154.399,104.865,4.55453,0.00836299,0.123315,20.9052,521.1,28.3339,0.0,0.0
912,227.75,36.655,39.4468,153.24,104.869,4.51274,0.00826601,0.123294,20.9045,521.09,28.4175,0.0,0.0
915,228.5,37.1314,38.7527,148.475,104.854,4.54551,0.00815904,0.123279,20.9041,521,28.3508,0.0,0.0
918,229.25,37.0969,39.2047,154.224,104.853,4.50989,0.00807237,0.123268,20.9038,520.98,28.4218,0.0,0.0
921,230,37.0781,39.1218,154.596,104.854,4.53554,0.00799433,0.12326,20.9035,521.08,28.3707,0.0,0.0
924,230.75,37.1875,38.6895,151.276,104.871,4.52034,0.00793743,0.12324,20.9034,521.06,28.4024,0.0,0.0
927,231.5,37.1429,39.1462,159.091,104.862,4.54361,0.00789595,0.123188,20.9032,520.99,28.3552,0.0,0.0
930,232.25,37.2891,37.7117,150.902,104.853,4.54978,0.00787461,0.123099,20.9031,520.96,28.3423,0.0,0.0
933,233,37.4505,39.0805,151.645,104.858,4.50989,0.00786886,0.122962,20.9031,521.03,28.4222,0.0,0.0
936,233.75,36.3963,39.4944,154.89,104.857,4.52366,0.00787496,0.122831,20.903,521.01,28.3946,0.0,0.0
939,234.5,36.7872,39.1298,149.257,104.851,4.56308,0.00789572,0.122764,20.903,520.95,28.3157,0.0,0.0
942,235.25,37.4714,38.9298,151.878,104.832,4.56023,0.00791594,0.122728,20.9032,520.97,28.3197,0.0,0.0
945,236,36.3234,40.0642,150.808,104.836,4.53031,0.00793218,0.122496,20.9037,521.02,28.3795,0.0,0.0
948,236.75,37.2523,38.4588,151.965,104.848,4.56783,0.00794288,0.122212,20.9041,521.04,28.306,0.0,0.0
951,237.5,36.5058,39.1876,150.115,104.824,4.51939,0.00794705,0.121955,20.9044,520.99,28.4003,0.0,0.0
954,238.25,36.6874,39.0287,152.258,104.811,4.54171,0.00795009,0.121768,20.9046,520.92,28.3547,0.0,0.0
957,239,36.8407,38.9162,156.904,104.815,4.49802,0.00794687,0.121673,20.9048,520.99,28.4423,0.0,0.0
960,239.75,36.8461,39.0647,151.831,104.816,4.53886,0.00794062,0.12156,20.9051,521.03,28.3607,0.0,0.0
963,240.5,36.5553,39.246,155.098,104.806,4.51274,0.00793441,0.121459,20.9058,520.99,28.412,0.0,0.0
966,241.25,36.8625,38.4889,152.66,104.78,4.51227,0.00791357,0.121283,20.9061,520.92,28.4108,0.0,0.0
969,242,36.5012,39.2576,151.218,104.78,4.53126,0.00788948,0.121117,20.9062,520.9,28.3728,0.0,0.0
972,242.75,37.111,38.4892,149.341,104.776,4.55691,0.00786813,0.120931,20.9064,520.99,28.3215,0.0,0.0
975,243.5,37.1598,38.6873,155.747,104.766,4.55358,0.00784894,0.120736,20.9064,520.99,28.3272,0.0,0.0
978,244.25,36.9419,38.7711,155.184,104.738,4.58492,0.00783368,0.120569,20.9065,520.89,28.2628,0.0,0.0
981,245,35.7333,40.0665,149.173,104.72,4.574,0.00782202,0.120345,20.9065,520.92,28.2828,0.0,0.0
984,245.75,36.5678,39.0585,154.042,104.723,4.5042,0.00779178,0.120152,20.907,520.99,28.422,0.0,0.0
987,246.5,37.4455,38.4265,152.128,104.727,4.56071,0.00774815,0.119977,20.9075,520.98,28.3097,0.0,0.0
990,247.25,36.6584,38.8177,153.809,104.684,4.51037,0.00770715,0.11981,20.9079,520.91,28.4063,0.0,0.0
993,248,36.9495,38.507,150.298,104.657,4.55263,0.00763926,0.119617,20.9082,520.89,28.3197,0.0,0.0
996,248.75,36.1933,38.2379,153.631,104.65,4.51654,0.0075518,0.119445,20.9084,520.99,28.391,0.0,0.0
999,249.5,36.1561,38.4828,153.812,104.642,4.54646,0.00748804,0.119155,20.9086,520.98,28.3306,0.0,0.0
1002,250.25,36.1714,38.2713,157.568,104.607,4.57638,0.0074087,0.118872,20.9088,520.92,28.2684,0.0,0.0
1005,251,36.3348,38.4791,156.053,104.591,4.49517,0.00733153,0.11862,20.9091,520.9,28.4287,0.0,0.0
1008,251.75,36.3459,38.2007,152.701,104.577,4.51939,0.00728569,0.118411,20.9093,520.93,28.3789,0.0,0.0
1011,252.5,35.8779,38.0961,151.901,104.561,4.61009,0.00723274,0.118258,20.9097,520.98,28.1981,0.0,0.0
1014,253.25,36.5991,38.1984,151.888,104.532,4.62101,0.00718691,0.118146,20.9099,520.94,28.1742,0.0,0.0
1017,254,36.5556,38.1997,154.108,104.503,4.574,0.00714338,0.118023,20.9102,520.86,28.264,0.0,0.0
1020,254.75,36.0813,38.1022,150.32,104.477,4.49612,0.00710733,0.117948,20.9103,520.88,28.417,0.0,0.0
1023,255.5,36.0613,37.8674,155.824,104.455,4.51844,0.00705759,0.117832,20.9104,520.95,28.3703,0.0,0.0
1026,256.25,36.1226,37.9196,151.42,104.432,4.53364,0.00701248,0.117735,20.9105,520.96,28.338,0.0,0.0
1029,257,36.4493,38.0324,156.247,104.382,4.56498,0.00697203,0.117706,20.9108,520.86,28.2714,0.0,0.0
1032,257.75,36.0682,38.2772,157.687,104.359,4.55548,0.00694025,0.117656,20.9114,520.87,28.2882,0.0,0.0
1035,258.5,36.318,38.2624,154.705,104.345,4.50657,0.00691595,0.117592,20.9118,520.92,28.3846,0.0,0.0
1038,259.25,36.5675,38.3473,155.182,104.316,4.51322,0.00689358,0.117519,20.9121,520.93,28.3688,0.0,0.0
1041,260,35.9464,37.7642,154.242,104.27,4.51607,0.00686731,0.117528,20.9124,520.84,28.359,0.0,0.0
1044,260.75,36.0203,37.9723,152.054,104.247,4.54551,0.00684475,0.117548,20.9125,520.85,28.2984,0.0,0.0
1047,261.5,35.5677,38.1688,154.27,104.25,4.58113,0.00683654,0.11757,20.9126,520.93,28.2281,0.0,0.0
1050,262.25,36.1623,38.1682,155.898,104.216,4.54836,0.00683133,0.117585,20.9127,520.9,28.29,0.0,0.0
1053,263,36.2818,37.6442,156.056,104.197,4.56545,0.00684376,0.117553,20.9128,520.81,28.2545,0.0,0.0
1056,263.75,35.8339,37.6209,154.915,104.167,4.52936,0.00684903,0.117489,20.9129,520.81,28.3236,0.0,0.0
1059,264.5,36.1615,38.4404,154.125,104.163,4.50515,0.00685125,0.117429,20.9129,520.88,28.3717,0.0,0.0
1062,265.25,35.8997,38.5865,152.631,104.128,4.59727,0.00683124,0.117352,20.9129,520.88,28.1858,0.0,0.0
1065,266,35.8375,38.0648,152.409,104.103,4.55643,0.00681665,0.117283,20.913,520.79,28.2642,0.0,0.0
1068,266.75,35.9567,38.3434,154.571,104.063,4.55548,0.00676276,0.117191,20.9136,520.8,28.2626,0.0,0.0
1071,267.5,36.4385,37.7573,156.031,104.057,4.52651,0.00671447,0.117067,20.9141,520.87,28.3197,0.0,0.0
1074,268.25,35.989,38.2399,151.966,104.038,4.57305,0.00668685,0.116952,20.9144,520.88,28.2257,0.0,0.0
1077,269,36.4521,38.0814,154.331,104.018,4.52556,0.00667792,0.116807,20.9147,520.77,28.3182,0.0,0.0
1080,269.75,36.2562,38.2321,150.249,103.996,4.47333,0.00668505,0.116701,20.9148,520.77,28.4212,0.0,0.0
1083,270.5,36.3163,37.9175,149.945,104.015,4.53316,0.00671008,0.116623,20.915,520.87,28.3029,0.0,0.0
1086,271.25,36.1149,38.0939,149.334,104.041,4.53934,0.00673763,0.116485,20.9151,520.85,28.2927,0.0,0.0
1089,272,35.8837,38.1438,150.427,104.026,4.50609,0.00677365,0.116312,20.9151,520.79,28.3578,0.0,0.0
1092,272.75,36.3836,38.1608,155.026,104.032,4.51559,0.00679991,0.116125,20.9152,520.77,28.3394,0.0,0.0
1095,273.5,36.513,37.9258,152.471,104.037,4.48805,0.00681506,0.115938,20.9152,520.83,28.3951,0.0,0.0
1098,274.25,35.7229,37.7804,150.819,104.056,4.51322,0.00681928,0.115759,20.915,520.84,28.3462,0.0,0.0
1101,275,35.7048,38.3577,154.247,104.062,4.57115,0.00680072,0.11563,20.9149,520.77,28.2315,0.0,0.0
1104,275.75,36.03,38.0645,148.424,104.052,4.55358,0.00677961,0.115497,20.9148,520.76,28.2654,0.0,0.0
1107,276.5,35.8811,37.8681,150.175,104.072,4.53079,0.00676098,0.115336,20.9147,520.75,28.3125,0.0,0.0
1110,277.25,36.2537,38.0266,151.971,104.098,4.55311,0.00674741,0.115161,20.9146,520.85,28.2704,0.0,0.0
1113,278,36.0471,38.2606,151.758,104.1,4.53649,0.00675013,0.114964,20.915,520.79,28.3036,0.0,0.0
1116,278.75,36.1816,38.3471,152.232,104.101,4.50325,0.0067559,0.114742,20.9155,520.74,28.3701,0.0,0.0
1119,279.5,35.9754,37.4845,155.956,104.114,4.52936,0.00676173,0.114437,20.9158,520.71,28.319,0.0,0.0
1122,280.25,36.4813,38.3195,153.194,104.141,4.54029,0.0067546,0.114186,20.9161,520.82,28.2995,0.0,0.0
1125,281,36.3474,37.7605,153.951,104.137,4.55168,0.00673126,0.113961,20.9163,520.8,28.2766,0.0,0.0
1128,281.75,35.8614,38.2842,153.653,104.161,4.53649,0.00669151,0.113745,20.917,520.72,28.3089,0.0,0.0
1131,282.5,36.0384,37.7221,154.358,104.143,4.57685,0.00662341,0.113501,20.9176,520.73,28.2272,0.0,0.0
1134,283.25,35.7375,37.7367,154.053,104.17,4.5816,0.00654646,0.113287,20.918,520.81,28.2203,0.0,0.0
1137,284,36.0291,38.0531,148.001,104.189,4.50467,0.00647221,0.113029,20.9183,520.8,28.3749,0.0,0.0
1140,284.75,36.185,37.8043,151.504,104.186,4.56308,0.00641269,0.112795,20.9185,520.71,28.2582,0.0,0.0
1143,285.5,35.9137,37.9886,150.743,104.193,4.52699,0.00638821,0.112547,20.9187,520.7,28.3305,0.0,0.0
1146,286.25,35.7606,37.5056,154.564,104.222,4.55216,0.00637842,0.112284,20.9188,520.78,28.283,0.0,0.0
1149,287,35.996,37.6589,152.951,104.24,4.53364,0.00642169,0.112093,20.9189,520.78,28.3214,0.0,0.0
1152,287.75,36.1623,37.8697,152.292,104.236,4.53079,0.00646785,0.111953,20.9189,520.7,28.3267,0.0,0.0
1155,288.5,36.314,37.8211,154.982,104.249,4.50372,0.0065265,0.111811,20.919,520.66,28.3819,0.0,0.0
1158,289.25,36.2401,38.0459,152.464,104.272,4.57068,0.00658728,0.111635,20.919,520.76,28.2506,0.0,0.0
1161,290,35.8359,37.6345,152.635,104.304,4.54503,0.00662654,0.111476,20.9193,520.8,28.3042,0.0,0.0
1164,290.75,35.5484,37.2982,150.396,104.316,4.54788,0.00664901,0.111156,20.9198,520.74,28.2996,0.0,0.0
1167,291.5,35.8301,38.0963,156.613,104.309,4.48615,0.00665857,0.11078,20.9203,520.66,28.4225,0.0,0.0
1170,292.25,35.7952,37.8286,151.01,104.336,4.54646,0.00665473,0.110406,20.9206,520.69,28.3042,0.0,0.0
1173,293,35.7327,37.8603,153.775,104.37,4.47475,0.00665193,0.110069,20.9208,520.77,28.4508,0.0,0.0
1176,293.75,35.7201,37.7043,152.915,104.364,4.51464,0.00663537,0.109722,20.9214,520.76,28.37,0.0,0.0
1179,294.5,35.5912,37.7932,149.567,104.364,4.54598,0.0066213,0.109397,20.922,520.68,28.3076,0.0,0.0
1182,295.25,36.2059,37.5878,156.24,104.391,4.52984,0.00660764,0.109129,20.9225,520.68,28.3421,0.0,0.0
1185,296,35.808,37.4876,150.074,104.421,4.52319,0.00659768,0.108861,20.9226,520.77,28.3579,0.0,0.0
1188,296.75,35.7897,37.6485,151.516,104.427,4.53459,0.00661023,0.108635,20.9233,520.74,28.3357,0.0,0.0
1191,297.5,35.8411,37.6624,152.762,104.425,4.53031,0.006632,0.10847,20.924,520.69,28.344,0.0,0.0
1194,298.25,35.6596,37.4167,151.108,104.447,4.5987,0.00665518,0.108349,20.9246,520.69,28.2106,0.0,0.0
1197,299,35.7012,37.7064,162.122,104.469,4.49185,0.00668458,0.108118,20.925,520.75,28.4249,0.0,0.0
1200,299.75,35.979,37.6822,152.996,104.479,4.53079,0.00672405,0.107866,20.9253,520.75,28.3477,0.0,0.0
1203,300.5,35.5398,37.9484,156.817,104.477,4.5816,0.00675282,0.107644,20.9255,520.66,28.2468,0.0,0.0
1206,301.25,35.4802,37.6127,151.896,104.504,4.55928,0.00680446,0.107421,20.9261,520.64,28.2933,0.0,0.0
1209,302,35.8877,37.8776,155.244,104.514,4.574,0.00685222,0.107244,20.9267,520.74,28.265,0.0,0.0
1212,302.75,35.58,37.6048,148.511,104.531,4.51512,0.00690326,0.107109,20.9273,520.73,28.3835,0.0,0.0
1215,303.5,35.8111,37.9444,157.039,104.528,4.54788,0.0069236,0.106908,20.9275,520.63,28.318,0.0,0.0
1218,304.25,35.9423,37.7441,149.733,104.542,4.54124,0.00694838,0.106701,20.9283,520.65,28.3324,0.0,0.0
1221,305,35.6649,37.8702,155.173,104.56,4.51607,0.00696765,0.106448,20.9292,520.75,28.3841,0.0,0.0
1224,305.75,35.8583,37.5079,153.608,104.589,4.52889,0.00698283,0.106091,20.9298,520.75,28.361,0.0,0.0
1227,306.5,36.0543,37.3453,154.133,104.582,4.52936,0.00701195,0.105952,20.9303,520.66,28.3595,0.0,0.0
1230,307.25,35.7632,37.4667,155.36,104.584,4.52414,0.00703318,0.105801,20.9306,520.64,28.3701,0.0,0.0
1233,308,35.8366,37.5295,155.616,104.605,4.52841,0.00707755,0.105651,20.9309,520.72,28.3634,0.0,0.0
1236,308.75,35.8208,37.454,153.902,104.617,4.54171,0.0071099,0.105511,20.9311,520.72,28.3379,0.0,0.0
1239,309.5,35.5411,37.1342,150.907,104.626,4.57305,0.00711216,0.105358,20.9312,520.65,28.2766,0.0,0.0
1242,310.25,35.35,37.9127,152.498,104.632,4.52984,0.00707735,0.105103,20.9313,520.64,28.3629,0.0,0.0
1245,311,36.2533,37.244,152.817,104.637,4.58777,0.00696543,0.10491,20.9314,520.7,28.2485,0.0,0.0
1248,311.75,35.8875,37.5266,151.239,104.667,4.54266,0.00685527,0.104757,20.9314,520.72,28.3404,0.0,0.0
1251,312.5,36.1305,37.3946,151.964,104.678,4.52034,0.00672611,0.104563,20.9314,520.69,28.3858,0.0,0.0
1254,313.25,35.7726,37.7448,153.925,104.666,4.4947,0.006578,0.104384,20.9315,520.63,28.4361,0.0,0.0
1257,314,35.9338,37.1622,155.674,104.678,4.56545,0.00647003,0.10419,20.9315,520.66,28.2961,0.0,0.0
1260,314.75,35.7373,37.6006,155.718,104.694,4.55406,0.00636257,0.104109,20.9315,520.69,28.32,0.0,0.0
1263,315.5,35.8389,37.163,155.173,104.715,4.59157,0.00628556,0.104022,20.9315,520.67,28.2478,0.0,0.0
1266,316.25,35.9843,37.0946,152.177,104.697,4.58302,0.00623169,0.103946,20.9315,520.61,28.263,0.0,0.0
1269,317,35.8374,37.7409,156.54,104.7,4.53744,0.00621218,0.103905,20.9315,520.63,28.3536,0.0,0.0
1272,317.75,35.6903,37.4387,155.506,104.727,4.57685,0.00621056,0.103881,20.9315,520.73,28.2778,0.0,0.0
1275,318.5,35.5588,37.3627,155.29,104.723,4.56688,0.00621475,0.103884,20.9315,520.71,28.2971,0.0,0.0
1278,319.25,35.7045,37.4006,152.474,104.708,4.57875,0.0062198,0.103856,20.9315,520.6,28.2724,0.0,0.0
1281,320,35.9016,37.2854,151.165,104.722,4.54409,0.00622688,0.103784,20.9308,520.62,28.3422,0.0,0.0
1284,320.75,35.4528,37.6794,154.852,104.737,4.57828,0.00620508,0.103752,20.9302,520.71,28.2759,0.0,0.0
1287,321.5,35.6458,36.9791,150.335,104.73,4.55168,0.00616996,0.103729,20.9298,520.7,28.3278,0.0,0.0
1290,322.25,35.3105,37.1951,151.105,104.726,4.52366,0.0061115,0.10359,20.9301,520.62,28.3833,0.0,0.0
1293,323,35.7453,37.2502,152.613,104.715,4.53364,0.00604016,0.103431,20.9304,520.59,28.3625,0.0,0.0
1296,323.75,35.545,37.6998,152.712,104.727,4.53411,0.0059855,0.103291,20.9306,520.68,28.3626,0.0,0.0
1299,324.5,35.563,36.8755,152.833,104.743,4.53269,0.00594113,0.103148,20.9307,520.69,28.3668,0.0,0.0
1302,325.25,35.7433,37.1183,153,104.721,4.55311,0.00593032,0.103029,20.9308,520.62,28.3243,0.0,0.0
1305,326,35.4267,37.3723,148.669,104.713,4.53649,0.00593171,0.102924,20.9309,520.62,28.3566,0.0,0.0
1308,326.75,35.3564,37.1603,158.218,104.711,4.53696,0.00594858,0.10286,20.9309,520.66,28.3554,0.0,0.0
1311,327.5,35.2231,37.3053,150.41,104.73,4.51654,0.00597525,0.102828,20.9309,520.68,28.3979,0.0,0.0
1314,328.25,35.7652,37.176,154.389,104.711,4.52224,0.00599469,0.102773,20.931,520.67,28.3849,0.0,0.0
1317,329,35.7098,36.931,149.975,104.693,4.53934,0.00598013,0.102669,20.931,520.6,28.3492,0.0,0.0
1320,329.75,35.8813,37.3383,154.315,104.694,4.54788,0.00593807,0.10255,20.931,520.61,28.3323,0.0,0.0
1323,330.5,35.051,37.3183,151.18,104.703,4.55121,0.00587745,0.102445,20.931,520.69,28.3265,0.0,0.0
1326,331.25,35.6195,37.6473,153.123,104.687,4.59965,0.00580498,0.102369,20.9317,520.68,28.2295,0.0,0.0
1329,332,35.4348,37.6584,149.072,104.67,4.53459,0.00573064,0.102313,20.9321,520.59,28.3567,0.0,0.0
1332,332.75,35.4317,37.6823,151.103,104.655,4.55643,0.00568148,0.102272,20.9325,520.59,28.3119,0.0,0.0
1335,333.5,35.0719,37.1306,154.158,104.682,4.51844,0.00565836,0.102141,20.9327,520.66,28.3899,0.0,0.0
1338,334.25,35.272,36.6847,154.545,104.654,4.53649,0.0056596,0.102015,20.9329,520.65,28.3515,0.0,0.0
1341,335,35.3342,37.2042,153.537,104.624,4.54646,0.0056605,0.101872,20.933,520.57,28.3291,0.0,0.0
1344,335.75,35.5081,36.9163,152.874,104.61,4.54171,0.0056755,0.101747,20.9331,520.57,28.3373,0.0,0.0
1347,336.5,35.5435,37.1667,151.147,104.61,4.52746,0.00566256,0.101685,20.9332,520.67,28.3657,0.0,0.0
1350,337.25,35.7962,36.8275,155.991,104.596,4.52936,0.00563039,0.101651,20.9332,520.67,28.3607,0.0,0.0
1353,338,35.5952,37.063,153.145,104.568,4.56118,0.00558545,0.101566,20.9333,520.57,28.2951,0.0,0.0
1356,338.75,35.1638,37.0535,153.308,104.559,4.56213,0.00552405,0.101504,20.9333,520.58,28.2924,0.0,0.0
1359,339.5,35.4055,37.4426,152.127,104.548,4.52177,0.00546872,0.101458,20.9333,520.66,28.3717,0.0,0.0
1362,340.25,35.5371,36.8406,154.541,104.521,4.54029,0.00541032,0.10144,20.9333,520.64,28.3325,0.0,0.0
1365,341,35.4156,37.2467,150.301,104.504,4.57828,0.00535164,0.101424,20.9333,520.55,28.2557,0.0,0.0
1368,341.75,35.5667,37.154,154.921,104.474,4.55121,0.00530887,0.101401,20.934,520.56,28.3067,0.0,0.0
1371,342.5,35.5508,37.3144,151.154,104.47,4.55358,0.00526647,0.101302,20.9344,520.64,28.3017,0.0,0.0
1374,343.25,35.1629,37.1378,152.699,104.449,4.52794,0.00521638,0.101187,20.9347,520.65,28.3508,0.0,0.0
1377,344,35.6604,37.3432,153.848,104.414,4.53554,0.00516557,0.101085,20.9349,520.57,28.3326,0.0,0.0
1380,344.75,35.4175,37.2634,154.524,104.382,4.55358,0.00512259,0.100996,20.935,520.58,28.294,0.0,0.0
1383,345.5,35.3246,37.5096,150.93,104.377,4.55786,0.00508112,0.100905,20.9351,520.64,28.2852,0.0,0.0
1386,346.25,35.7813,36.9008,156.171,104.365,4.50704,0.00502945,0.100853,20.9351,520.67,28.3853,0.0,0.0
1389,347,35.6483,37.4058,155.244,104.323,4.53506,0.00498124,0.100813,20.9352,520.58,28.3257,0.0,0.0
1392,347.75,35.5327,37.0036,154.319,104.281,4.52414,0.00492807,0.100772,20.9359,520.57,28.3439,0.0,0.0
1395,348.5,36.2271,37.2625,155.409,104.255,4.52509,0.00488217,0.100727,20.9363,520.61,28.3398,0.0,0.0
1398,349.25,35.5935,37.2615,153.201,104.241,4.54171,0.00484871,0.100689,20.9367,520.66,28.3054,0.0,0.0
1401,350,35.4647,37.0612,152.48,104.222,4.51559,0.00484574,0.10062,20.9369,520.62,28.3558,0.0,0.0
1404,350.75,35.4424,37.3645,151.405,104.187,4.51132,0.0048586,0.100577,20.9371,520.56,28.3614,0.0,0.0
1407,351.5,35.5633,37.2731,152.951,104.157,4.55453,0.00487437,0.100559,20.9373,520.61,28.2726,0.0,0.0
1410,352.25,35.4777,37.1458,155.495,104.143,4.51227,0.00490552,0.100526,20.9374,520.64,28.3557,0.0,0.0
1413,353,35.7668,37.3389,159.333,104.139,4.43249,0.00493199,0.100494,20.9374,520.63,28.5164,0.0,0.0
1416,353.75,35.6665,37.3493,147.294,104.087,4.49897,0.00495539,0.100457,20.9375,520.54,28.3774,0.0,0.0
1419,354.5,35.3452,36.7954,153.438,104.051,4.49042,0.00498012,0.100374,20.9375,520.54,28.3915,0.0,0.0
1422,355.25,35.4098,37.2617,155.188,104.041,4.47665,0.00500942,0.100281,20.9376,520.6,28.4184,0.0,0.0
1425,356,35.4594,37.2351,154.057,104.01,4.4738,0.00503078,0.100201,20.9376,520.62,28.4215,0.0,0.0
1428,356.75,35.292,37.6473,154.26,103.972,4.50087,0.00506959,0.100163,20.9376,520.53,28.3636,0.0,0.0
1431,357.5,35.0727,37.0074,147.74,103.934,4.56023,,0.100135,,520.52,28.242,0.0,0.0
1434,358.25,35.5836,37.3814,153.983,103.909,4.47333,,0.100114,,520.59,28.4137,0.0,0.0
1437,359,35.536,36.847,149.329,103.898,4.49992,,0.100079,,520.6,28.3591,0.0,0.0
1440,359.75,35.5851,37.2336,149.911,103.856,4.51797,,0.100046,,520.52,28.3194,0.0,0.0
1443,360.5,35.5149,37.4263,148.305,103.832,4.56735,,,,520.53,28.219,0.0,0.0
1446,361.25,35.2568,37.2325,150.074,103.819,4.53506,,,,520.6,28.282,0.0,0.0
1449,362,35.7562,37.4552,152.918,103.797,4.52224,,,,520.58,28.3057,0.0,0.0
1452,362.75,35.4162,37.4652,152.643,103.754,4.50515,,,,520.52,28.3361,0.0,0.0
1455,363.5,35.0137,37.2457,155.253,103.731,4.50799,,,,520.5,28.3284,0.0,0.0
1458,364.25,35.6902,37.1175,156.111,103.708,4.49565,,,,520.58,28.3512,0.0,0.0
1461,365,35.5063,36.9709,151.832,103.689,4.49565,,,,520.61,28.3495,0.0,0.0
1464,365.75,35.2318,36.8641,150.343,103.66,4.52366,,,,520.56,28.2909,0.0,0.0
1467,366.5,35.1519,37.3911,156.152,103.628,4.52319,,,,520.5,28.289,0.0,0.0
1470,367.25,35.5529,37.1612,155.383,103.613,4.50135,,,,520.54,28.3315,0.0,0.0
1473,368,35.8449,36.9076,152.274,103.607,4.50182,,,,520.6,28.33,0.0,0.0