File: 01_Data/Polyisocyanurate_Foam_Board/Cone/Polyisocyanurate_Foam_Board_Cone_HF25Scan_220922_R2.csv
Names,Time,Stack TC,Smoke TC,Exh Press,Smoke Comp,Smoke Meas,CO Meter,CO2 Meter,O2 Meter,Sample Mass,Ext Coeff,Start Test,Flame Verif
Chan Gain,,500,500,1,1,1,1,1,1,1,1,1.0,1.0
Offset,,0,0,0.137569,0,0,0,0,0,0,0,0.0,0.0
Gain,,1,1,25.011,13.0852,15.0251,1,1,1,1.00088,1.05531,1.0,1.0
Units,sec,C,C,Pa,%,%,%,%,%,g,/m,,
Baseline,,34.0019,34.7521,168.679,98.834,97.611,0.00153664,0.0780236,20.9468,-447.481,0.11528,,
2,0.25,34.0769,34.4825,168.486,98.2138,97.0369,0.00232804,0.0851614,20.9385,80.1404,0.111594,0.0,0.0
4,0.75,32.6082,33.743,165.388,98.2142,96.1148,0.00275182,0.0865884,20.9312,80.0304,0.200019,0.0,0.0
6,1.25,32.0221,32.9915,169.475,98.227,94.858,0.00324755,0.0928303,20.9209,80.0404,0.32307,0.0,0.0
8,1.75,32.2691,33.1882,164.8,98.2166,91.3424,0.0036491,0.0978862,20.9125,80.0203,0.67169,0.0,0.0
10,2.25,32.4865,32.7949,155.92,98.225,85.0298,0.00444587,0.107924,20.8977,80.0704,1.33541,1.0,0.0
12,2.75,32.4982,33.1332,156.004,98.2242,84.1875,0.00509126,0.121404,20.8784,80.0103,1.42749,0.0,1.0
14,3.25,32.5741,33.0936,153.128,98.2361,85.0757,0.00593376,0.136897,20.8627,80.0404,1.33147,0.0,1.0
16,3.75,32.6005,33.6621,157.757,98.2329,84.2815,0.00661618,0.153564,20.8356,79.9303,1.41799,0.0,1.0
18,4.25,33.0559,33.437,157.796,98.2389,80.9787,0.00729386,0.167064,20.8087,79.8902,1.78862,0.0,1.0
20,4.75,33.2019,34.1657,157.642,98.2485,80.5362,0.00795521,0.185404,20.7826,79.7401,1.84024,0.0,1.0
22,5.25,33.8684,34.0793,157.771,98.2569,78.8071,0.00863788,0.200259,20.7569,79.8402,2.04194,0.0,1.0
24,5.75,34.3489,34.2184,153.035,98.2541,81.0594,0.00919085,0.215325,20.7318,79.7101,1.78083,0.0,1.0
26,6.25,34.4012,34.4695,155.192,98.2473,80.9086,0.00971115,0.230259,20.7099,79.6901,1.79743,0.0,1.0
28,6.75,34.699,34.9507,159.193,98.2517,78.6343,0.0101326,0.243846,20.6907,79.62,2.06178,0.0,1.0
30,7.25,35.1829,34.6886,154.934,98.2573,78.4302,0.010476,0.256191,20.6752,79.61,2.08636,0.0,1.0
32,7.75,34.5559,33.9284,154.98,98.2529,78.8626,0.010756,0.267039,20.66,79.5399,2.03505,0.0,1.0
34,8.25,34.6153,34.0684,158.403,98.2577,77.3531,0.0109828,0.27659,20.6476,79.5199,2.21441,0.0,0.0
36,8.75,35.192,34.0482,151.334,98.2573,77.0803,0.0111325,0.284709,20.6377,79.4799,2.24708,0.0,0.0
38,9.25,34.6357,34.5433,154.579,98.2665,77.6856,0.0112231,0.291631,20.6296,79.4398,2.17554,0.0,0.0
40,9.75,35.3288,34.9593,154.167,98.2701,74.1764,0.0112965,0.297101,20.623,79.3998,2.60377,0.0,0.0
42,10.25,35.1865,34.599,157.387,98.2725,76.6144,0.0112721,0.301409,20.6177,79.3498,2.30463,0.0,0.0
44,10.75,35.9072,35.214,156.81,98.2936,77.2839,0.0112523,0.304898,20.6134,79.3397,2.22608,0.0,0.0
46,11.25,36.161,35.6223,153.445,98.2889,75.5039,0.0111821,0.306755,20.6104,79.2797,2.44134,0.0,0.0
48,11.75,36.2774,35.7691,156.275,98.2873,76.8277,0.0111253,0.308259,20.6084,79.2397,2.28029,0.0,0.0
50,12.25,36.4848,35.9569,158.594,98.2909,78.9786,0.0110137,0.309477,20.6079,79.2497,2.02502,0.0,0.0
52,12.75,36.8111,36.0172,152.688,98.2941,77.3197,0.0109232,0.308903,20.6085,79.2196,2.22184,0.0,0.0
54,13.25,37.0432,36.5563,154.237,98.3016,77.5641,0.0107588,0.308438,20.6107,79.1696,2.19334,0.0,0.0
56,13.75,37.3995,36.6348,155.673,98.2976,79.3179,0.0106257,0.307202,20.6138,79.1496,1.98597,0.0,0.0
58,14.25,37.4485,36.6096,154.926,98.3016,80.9645,0.0104179,0.305429,20.6171,79.1196,1.79615,0.0,0.0
60,14.75,37.7613,36.5282,157.817,98.3072,81.5414,0.0102496,0.30323,20.6204,79.0795,1.73095,0.0,0.0
62,15.25,37.7464,37.4156,157.749,98.3204,81.2814,0.0101133,0.300763,20.623,79.0595,1.76176,0.0,0.0
64,15.75,38.261,37.6765,160.757,98.3168,81.5982,0.00987392,0.298048,20.6266,78.9894,1.72541,0.0,0.0
66,16.25,38.3671,37.7494,155.471,98.322,82.2094,0.00968001,0.295204,20.6307,78.9894,1.65681,0.0,0.0
68,16.75,38.3065,37.7508,159.79,98.324,81.8119,0.00942617,0.292179,20.6352,78.9494,1.70187,0.0,0.0
70,17.25,38.9116,38.1266,154.582,98.3268,82.5937,0.00922057,0.289079,20.6398,78.9194,1.6141,0.0,0.0
72,17.75,38.8224,38.045,155.374,98.3216,84.4402,0.00900055,0.285785,20.6436,78.8894,1.40893,0.0,0.0
74,18.25,38.7641,38.1015,154.231,98.3284,83.104,0.00877421,0.28241,20.6467,78.8493,1.55722,0.0,0.0
76,18.75,38.7483,38.6592,161.282,98.3356,84.4264,0.00859087,0.279677,20.6509,78.8293,1.41175,0.0,0.0
78,19.25,39.5477,38.6093,156.8,98.34,84.122,0.0083724,0.275951,20.6544,78.7993,1.44561,0.0,0.0
80,19.75,38.8839,38.3465,160.028,98.3472,85.8667,0.00813245,0.272932,20.6604,78.7492,1.25626,0.0,0.0
82,20.25,39.2173,38.7164,158.121,98.3492,84.6415,0.0079381,0.26972,20.6653,78.7492,1.38948,0.0,0.0
84,20.75,39.8195,38.9236,159.422,98.3496,86.6008,0.0076923,0.266426,20.6704,78.7292,1.17768,0.0,0.0
86,21.25,39.8023,38.9003,159.207,98.3627,87.4284,0.0074932,0.263759,20.6756,78.7192,1.09087,0.0,0.0
88,21.75,40.125,39.2519,163.287,98.3687,86.6021,0.00727523,0.260567,20.6798,78.7192,1.17933,0.0,0.0
90,22.25,39.8642,39.7557,164.535,98.3543,87.7324,0.00709867,0.257054,20.6854,78.6692,1.05795,0.0,0.0
92,22.75,39.2141,39.1055,168.433,98.3683,89.2002,0.00695565,0.254209,20.6899,78.6391,0.905673,0.0,0.0
94,23.25,39.6417,39.785,162.2,98.3703,89.047,0.00675428,0.250707,20.6949,78.6291,0.921769,0.0,0.0
96,23.75,39.832,39.7205,157.53,98.3755,89.186,0.00659118,0.247871,20.7003,78.5991,0.907824,0.0,0.0
98,24.25,39.7542,39.6984,161.151,98.3767,89.5225,0.00640256,0.245066,20.7055,78.6091,0.873069,0.0,0.0
100,24.75,40.1306,39.6588,158.699,98.4003,89.6422,0.00624979,0.242339,20.7106,78.5891,0.862919,0.0,0.0
102,25.25,40.0053,39.6963,155.981,98.3799,90.6111,0.00606963,0.240129,20.7152,78.5691,0.761488,0.0,0.0
104,25.75,40.0611,39.9149,160.047,98.3911,90.5116,0.00592371,0.237334,20.7193,78.5491,0.77271,0.0,0.0
106,26.25,40.1203,39.7631,160.641,98.3847,90.9467,0.00576169,0.23507,20.7231,78.519,0.727712,0.0,0.0
108,26.75,40.4806,39.9456,158.818,98.4083,90.6886,0.00563046,0.2329,20.7266,78.499,0.756242,0.0,0.0
110,27.25,40.1349,40.1274,162.518,98.3899,91.5501,0.00549789,0.23084,20.7297,78.489,0.666982,0.0,0.0
112,27.75,40.4894,40.2996,163.091,98.4011,91.4442,0.00539052,0.228964,20.7324,78.499,0.678751,0.0,0.0
114,28.25,40.4654,40.2951,165.101,98.3907,91.4493,0.00534342,0.227258,20.7335,78.449,0.677263,0.0,0.0
116,28.75,39.9576,40.5814,161.356,98.417,91.6918,0.0052629,0.225482,20.7359,78.459,0.655222,0.0,0.0
118,29.25,40.4461,40.4311,161.841,98.4039,91.883,0.00519767,0.224044,20.7379,78.4089,0.634698,0.0,0.0
120,29.75,40.5196,40.3644,163.033,98.415,91.9802,0.00514615,0.222485,20.7395,78.439,0.625961,0.0,0.0
122,30.25,40.377,40.4448,162.73,98.4095,92.1123,0.00510561,0.221223,20.7416,78.3789,0.612154,0.0,0.0
124,30.75,40.6017,40.7855,160.274,98.4202,93.1014,0.00507276,0.220009,20.7433,78.4089,0.514301,0.0,0.0
126,31.25,40.5832,40.6103,161.489,98.417,92.6648,0.00503366,0.219401,20.7452,78.3389,0.557507,0.0,0.0
128,31.75,40.5893,40.1207,159.586,98.425,93.5507,0.00500199,0.218362,20.7472,78.3589,0.47018,0.0,0.0
130,32.25,40.4157,40.6702,159.37,98.4166,92.8978,0.00494885,0.217083,20.749,78.2888,0.534229,0.0,0.0
132,32.75,40.7551,40.8817,162.846,98.439,92.5653,0.0049058,0.216047,20.7506,78.3289,0.569518,0.0,0.0
134,33.25,40.6385,41.0105,159.851,98.4346,92.4434,0.00484097,0.215207,20.7524,78.2388,0.58131,0.0,0.0
136,33.75,40.7937,40.9112,166.964,98.4454,92.9757,0.00478846,0.21391,20.7543,78.2688,0.529169,0.0,0.0
138,34.25,40.4967,41.1398,162.581,98.4298,92.9175,0.00473805,0.212859,20.7558,78.2088,0.533504,0.0,0.0
140,34.75,40.5725,41.1825,164.116,98.4398,92.3021,0.00469012,0.211557,20.7571,78.2388,0.595951,0.0,0.0
142,35.25,40.6204,41.2499,161.07,98.4386,92.4159,0.00465327,0.210502,20.7581,78.1487,0.58444,0.0,0.0
144,35.75,40.8482,41.0033,162.337,98.4502,92.7914,0.00462519,0.209489,20.7598,78.1887,0.54799,0.0,0.0
146,36.25,40.5665,41.0439,159.211,98.4462,92.7992,0.00460245,0.208527,20.7611,78.1387,0.546835,0.0,0.0
148,36.75,40.2467,41.2166,159.267,98.4546,91.8555,0.00460524,0.20755,20.7625,78.1787,0.64224,0.0,0.0
150,37.25,40.5093,41.0906,161.398,98.4526,92.2008,0.00460751,0.206581,20.7638,78.0686,0.607322,0.0,0.0
152,37.75,40.4482,41.2885,161.918,98.4586,92.5204,0.00461197,0.205488,20.7655,78.1387,0.575852,0.0,0.0
154,38.25,40.6657,41.551,158.783,98.4582,91.9216,0.00461794,0.204327,20.7675,78.0286,0.635926,0.0,0.0
156,38.75,40.8188,41.2434,164.485,98.461,93.1335,0.00461359,0.203386,20.7699,78.0886,0.514941,0.0,0.0
158,39.25,40.8164,41.2892,161.157,98.4586,93.4411,0.00460179,0.201832,20.7724,78.0086,0.484185,0.0,0.0
160,39.75,40.9307,41.5826,162.789,98.469,93.962,0.00457778,0.200573,20.7744,78.0686,0.4337,0.0,0.0
162,40.25,40.6435,41.5064,158.932,98.4686,93.6227,0.00454534,0.199106,20.777,77.9886,0.467152,0.0,0.0
164,40.75,40.643,41.1535,164.268,98.4694,93.6259,0.00451906,0.197516,20.779,78.0486,0.46691,0.0,0.0
166,41.25,40.8769,41.8796,160.445,98.4761,93.9822,0.00446786,0.19586,20.7807,77.9585,0.432388,0.0,0.0
168,41.75,40.6607,41.5868,161.998,98.4737,94.5265,0.00442639,0.194187,20.7827,77.9886,0.378707,0.0,0.0
170,42.25,40.6473,41.5598,164.692,98.4797,93.99,0.00439279,0.192442,20.785,77.9285,0.431958,0.0,0.0
172,42.75,40.8261,41.3064,164.209,98.4757,94.1376,0.00434658,0.190677,20.7868,77.9786,0.417053,0.0,0.0
174,43.25,41.0087,41.1819,160.109,98.4809,95.0079,0.00429203,0.18885,20.79,77.9085,0.332353,0.0,0.0
176,43.75,40.9677,41.6466,162.678,98.4953,94.8309,0.00424785,0.187013,20.7926,77.9786,0.350965,0.0,0.0
178,44.25,40.4182,41.4421,167.245,98.4937,95.0309,0.00419177,0.185525,20.7951,77.9285,0.331321,0.0,0.0
180,44.75,40.6086,41.5165,161.572,98.4969,94.9451,0.00412807,0.184319,20.7976,77.9385,0.339978,0.0,0.0
182,45.25,40.9557,41.3321,165.583,98.4921,95.4256,0.00406012,0.182551,20.7996,77.9085,0.292793,0.0,0.0
184,45.75,41.1154,41.9478,161.663,98.4985,95.3449,0.00399037,0.180406,20.8026,77.9085,0.301226,0.0,0.0
186,46.25,40.7822,41.7487,162.383,98.5009,95.5586,0.00392014,0.178669,20.8049,77.8584,0.280728,0.0,0.0
188,46.75,40.8449,41.4757,165.588,98.5021,95.7141,0.0038509,0.176585,20.8086,77.8885,0.265795,0.0,0.0
190,47.25,40.7775,41.3616,162.176,98.5045,95.947,0.00378632,0.174898,20.8121,77.8785,0.243519,0.0,0.0
192,47.75,40.5795,41.653,159.362,98.5061,95.9915,0.00372637,0.173107,20.8153,77.8785,0.23938,0.0,0.0
194,48.25,40.6621,41.424,161.201,98.5065,95.8768,0.00367036,0.171273,20.8186,77.8384,0.250478,0.0,0.0
196,48.75,40.8689,41.5403,162.738,98.5137,96.3056,0.003625,0.169488,20.8219,77.8484,0.209852,0.0,0.0
198,49.25,40.3267,41.9077,164.498,98.5081,96.3977,0.00359073,0.167772,20.825,77.8284,0.200471,0.0,0.0
200,49.75,40.6123,41.597,166.367,98.5185,96.0887,0.00356298,0.166112,20.828,77.8084,0.231173,0.0,0.0
202,50.25,40.6001,41.6677,167.033,98.5309,96.3817,0.0035405,0.164526,20.8303,77.7884,0.204152,0.0,0.0
204,50.75,40.3882,41.5085,162.918,98.5189,96.4303,0.00353594,0.162911,20.8327,77.7984,0.19836,0.0,0.0
206,51.25,40.2507,41.743,167.659,98.5189,96.6563,0.00353225,0.161306,20.8351,77.7584,0.176684,0.0,0.0
208,51.75,40.7453,41.7028,161.261,98.5181,96.8929,0.00353579,0.159599,20.8375,77.7484,0.153976,0.0,0.0
210,52.25,40.8346,42.0826,168.338,98.5209,97.4624,0.00354454,0.157852,20.8398,77.7584,0.0999895,0.0,0.0
212,52.75,40.3669,41.8439,167.67,98.5289,96.5729,0.00355294,0.155955,20.8417,77.7784,0.185617,0.0,0.0
214,53.25,40.4485,41.6713,167.836,98.5225,96.8737,0.00356092,0.153985,20.8441,77.7584,0.156229,0.0,0.0
216,53.75,40.3485,41.5368,165.778,98.5273,96.787,0.00356542,0.152389,20.8461,77.7383,0.164964,0.0,0.0
218,54.25,39.9646,41.8412,160.496,98.5221,96.7526,0.0035673,0.150457,20.8498,77.7383,0.167766,0.0,0.0
220,54.75,39.9874,41.8761,168.351,98.5253,97.4432,0.00356555,0.148315,20.8529,77.7383,0.102232,0.0,0.0
222,55.25,39.998,41.8611,166.909,98.5285,96.9067,0.0035612,0.145981,20.8571,77.7484,0.153637,0.0,0.0
224,55.75,40.1969,41.4532,166.091,98.5384,97.1754,0.00355935,0.14355,20.8589,77.7183,0.128942,0.0,0.0
226,56.25,39.9534,41.4584,164.983,98.5237,97.1176,0.00355493,0.141582,20.863,77.6983,0.13306,0.0,0.0
228,56.75,39.9211,41.2168,163.622,98.5301,96.5156,0.00355135,0.138664,20.867,77.7183,0.191226,0.0,0.0
230,57.25,40.4835,41.9245,164.865,98.5452,96.5275,0.00354846,0.136301,20.8703,77.7083,0.191508,0.0,0.0
232,57.75,39.7384,41.5613,167.139,98.5352,96.483,0.00355108,0.13324,20.8739,77.6883,0.194837,0.0,0.0
234,58.25,39.6325,40.9949,166.579,98.538,96.8155,0.0035532,0.130761,20.8777,77.6883,0.163258,0.0,0.0
236,58.75,39.913,40.9315,166.993,98.5404,96.5623,0.0035574,0.129231,20.8814,77.6983,0.187716,0.0,0.0
238,59.25,39.7949,41.3362,164.465,98.5376,97.0502,0.00356081,0.126613,20.8851,77.7083,0.140801,0.0,0.0
240,59.75,40.014,41.4209,163.436,98.536,97.5147,0.00355984,0.123976,20.8887,77.6983,0.0964507,0.0,0.0
242,60.25,39.8079,41.4018,165.74,98.5408,96.9145,0.00355905,0.121373,20.8923,77.6783,0.154056,0.0,0.0
244,60.75,39.5835,41.1643,163.692,98.5324,96.8398,0.00355345,0.119265,20.8952,77.6483,0.160409,0.0,0.0
246,61.25,39.8232,41.1492,164.549,98.5344,97.0603,0.00354892,0.116676,20.8984,77.6683,0.139538,0.0,0.0
248,61.75,38.9499,40.7139,165.682,98.5352,97.1841,0.00353675,0.114579,20.901,77.6783,0.127814,0.0,0.0
250,62.25,38.9752,40.4889,165.909,98.5344,96.981,0.00351925,0.112589,20.904,77.6783,0.147107,0.0,0.0
252,62.75,39.2206,40.9479,170.466,98.5372,96.8393,0.00349333,0.110715,20.9064,77.6282,0.160904,0.0,0.0
254,63.25,38.6233,40.4225,164.016,98.5476,97.0663,0.00346175,0.108729,20.9089,77.6783,0.140208,0.0,0.0
256,63.75,39.3341,40.8595,165.993,98.538,97.3409,0.00343618,0.107121,20.9113,77.6783,0.11315,0.0,0.0
258,64.25,39.1001,40.948,168.045,98.5404,97.2845,0.00339785,0.105587,20.9132,77.6583,0.118741,0.0,0.0
260,64.75,38.7995,40.5426,167.89,98.5356,97.3579,0.00335095,0.104136,20.9147,77.5982,0.111312,0.0,0.0
262,65.25,38.842,40.4629,168.837,98.5508,96.959,0.00331296,0.10279,20.9162,77.6583,0.150746,0.0,0.0
264,65.75,38.0476,39.9155,166.302,98.5376,97.2497,0.00327567,0.101546,20.9177,77.6383,0.121795,0.0,0.0
266,66.25,38.4461,40.4491,165.035,98.5556,97.0456,0.00323959,0.100538,20.9184,77.6583,0.142926,0.0,0.0
268,66.75,38.5722,40.0562,168.707,98.5504,96.9191,0.00321037,0.0996622,20.9191,77.6383,0.154518,0.0,0.0
270,67.25,36.5864,39.1736,168.934,98.5536,96.9512,0.00318175,0.0988991,20.9196,77.6583,0.151754,0.0,0.0
272,67.75,36.4768,38.3479,163.775,98.5472,97.2286,0.00315857,0.098281,20.92,77.6182,0.124704,0.0,0.0
274,68.25,36.755,38.6861,164.987,98.5616,96.9594,0.00314477,0.0977803,20.9204,77.6483,0.151716,0.0,0.0
276,68.75,36.6682,38.4907,169.298,98.5568,97.4216,0.00312119,0.0973606,20.9211,77.5982,0.107243,0.0,0.0
278,69.25,36.2371,38.8475,168.254,98.5596,97.1305,0.00308723,0.0970207,20.9217,77.6383,0.135213,0.0,0.0
280,69.75,36.2535,38.6799,166.657,98.554,97.1066,0.00305972,0.0966888,20.9221,77.5782,0.136962,0.0,0.0
282,70.25,36.4666,37.8974,168.84,98.5752,96.7448,0.00302012,0.09642,20.9227,77.6282,0.173502,0.0,0.0
284,70.75,36.5312,38.1943,163.304,98.5668,97.5133,0.00298804,0.0960468,20.9234,77.5682,0.0994688,0.0,0.0
286,71.25,36.5347,37.724,171.613,98.5612,97.0754,0.00296205,0.0958877,20.924,77.6282,0.140609,0.0,0.0
288,71.75,36.4843,37.9288,167.841,98.5568,97.4225,0.00290762,0.0954603,20.9244,77.5482,0.107155,0.0,0.0
290,72.25,36.4426,38.1689,169.271,98.5688,96.7256,0.00286353,0.0951141,20.9248,77.6082,0.174744,0.0,0.0
292,72.75,36.2666,38.0357,167.996,98.5596,97.0034,0.00281811,0.0946924,20.9251,77.5282,0.147326,0.0,0.0
294,73.25,36.2606,38.4049,166.78,98.5708,97.1497,0.00277257,0.0942239,20.9258,77.6182,0.134428,0.0,0.0
296,73.75,35.7452,37.9059,168.895,98.578,97.1066,0.00273569,0.0937404,20.9263,77.5482,0.139211,0.0,0.0
298,74.25,36.0589,37.7468,167.216,98.5684,97.3606,0.00270581,0.0932552,20.9274,77.6182,0.114127,0.0,0.0
300,74.75,35.3954,38.1708,169.641,98.5744,97.5913,0.00268486,0.0928622,20.9282,77.5382,0.0927849,0.0,0.0
302,75.25,35.4821,37.9087,170.229,98.5732,97.3313,0.00267082,0.092448,20.9289,77.6282,0.117367,0.0,0.0
304,75.75,35.6233,37.6921,164.332,98.5596,97.0397,0.00266205,0.0920262,20.9295,77.5782,0.143869,0.0,0.0
306,76.25,34.9825,37.7961,163.689,98.5728,97.0612,0.00265728,0.0916698,20.9299,77.6383,0.143052,0.0,0.0
308,76.75,35.7786,37.625,165.415,98.5552,97.2304,0.00265277,0.0913677,20.9303,77.5482,0.125278,0.0,0.0
310,77.25,35.3168,37.398,167.732,98.5728,97.0874,0.00264853,0.091123,20.931,77.6182,0.14056,0.0,0.0
312,77.75,35.5732,37.5168,166.308,98.5596,97.1905,0.0026451,0.0908403,20.9316,77.5181,0.12949,0.0,0.0
314,78.25,35.4895,37.5705,168.071,98.5776,97.0007,0.00264427,0.0906112,20.9321,77.5682,0.149277,0.0,0.0
316,78.75,35.0704,37.3329,166.896,98.572,97.2575,0.00264535,0.0902706,20.9325,77.5181,0.124278,0.0,0.0
318,79.25,35.2986,36.9887,170.99,98.574,96.9516,0.00265079,0.0899948,20.9328,77.5882,0.153623,0.0,0.0
320,79.75,35.1845,37.0908,162.797,98.5616,97.0823,0.00265928,0.0896163,20.9331,77.5282,0.13999,0.0,0.0
322,80.25,34.9349,36.9196,172.571,98.5736,97.4615,0.00267007,0.0893098,20.9333,77.5782,0.105027,0.0,0.0
324,80.75,34.8463,36.984,161.84,98.5676,96.859,0.00268232,0.08898,20.9335,77.4981,0.16187,0.0,0.0
326,81.25,35.0422,36.8885,166.38,98.576,97.1172,0.00269159,0.0886395,20.9336,77.5682,0.138017,0.0,0.0
328,81.75,34.8427,36.6199,169.338,98.5664,96.7118,0.00269852,0.0882821,20.9342,77.4881,0.175835,0.0,0.0
330,82.25,34.8818,36.6831,164.436,98.5776,97.412,0.00270413,0.0879193,20.935,77.5482,0.110108,0.0,0.0
332,82.75,34.7072,37.2605,166.62,98.5692,96.9099,0.00270002,0.087581,20.9358,77.5081,0.157157,0.0,0.0
334,83.25,34.6995,37.1829,166.921,98.5772,97.23,0.00269669,0.087267,20.9363,77.5482,0.127385,0.0,0.0
336,83.75,34.9675,36.8801,162.703,98.5652,97.1823,0.00268526,0.0870126,20.9368,77.4781,0.130801,0.0,0.0
338,84.25,34.7775,36.5668,167.276,98.5692,96.8746,0.00267601,0.086694,20.937,77.5482,0.16053,0.0,0.0
340,84.75,34.4422,36.5639,168.991,98.5648,96.7756,0.00266851,0.086436,20.9372,77.5282,0.169587,0.0,0.0
342,85.25,34.3111,36.3307,168.183,98.572,97.1369,0.00265723,0.0861003,20.9373,77.5382,0.135764,0.0,0.0
344,85.75,35.0574,37.2025,165.554,98.568,96.9576,0.00264342,0.0858284,20.9375,77.4881,0.15249,0.0,0.0
346,86.25,34.6053,36.6848,172.754,98.5728,96.9438,0.00263223,0.0855928,20.9375,77.5282,0.154254,0.0,0.0
348,86.75,34.2647,36.1239,165.899,98.568,96.6316,0.00261822,0.085388,20.9376,77.5282,0.183669,0.0,0.0
350,87.25,34.4454,36.4269,169.158,98.564,96.8475,0.00260688,0.0852221,20.9377,77.5282,0.162628,0.0,0.0
352,87.75,34.3568,36.4667,166.025,98.5616,96.6774,0.0025804,0.0850655,20.9377,77.4781,0.178678,0.0,0.0
354,88.25,34.2998,36.6243,166.351,98.5644,96.8783,0.00255895,0.0849187,20.938,77.5181,0.159729,0.0,0.0
356,88.75,34.3897,35.8307,169.021,98.56,96.5605,0.00254158,0.0847998,20.9384,77.5081,0.18973,0.0,0.0
358,89.25,35.0359,36.2723,163.913,98.5676,96.5371,0.00247816,0.0846472,20.939,77.5081,0.192684,0.0,0.0
360,89.75,34.2232,36.4322,163.792,98.5572,96.3844,0.00242679,0.0845237,20.9396,77.4781,0.206363,0.0,0.0
362,90.25,34.7213,35.9641,164.136,98.5664,96.8897,0.00235806,0.0843673,20.9401,77.5282,0.158821,0.0,0.0
364,90.75,34.1452,36.0171,166.321,98.5568,96.6852,0.0023024,0.0842407,20.9405,77.5181,0.177481,0.0,0.0
366,91.25,33.9545,35.7784,165.818,98.564,97.5028,0.00225018,0.0841381,20.9408,77.5081,0.100209,0.0,0.0
368,91.75,33.6789,36.0941,171.884,98.55,96.4427,0.00220146,0.0840624,20.9411,77.4781,0.200096,0.0,0.0
370,92.25,33.9914,36.0479,164.512,98.564,96.9645,0.002162,0.0840078,20.9413,77.4981,0.151458,0.0,0.0
372,92.75,33.8111,36.2408,172.077,98.5568,96.7572,0.00213742,0.0839487,20.9417,77.4881,0.170591,0.0,0.0
374,93.25,33.9568,36.1587,168.126,98.5616,96.7407,0.00211752,0.0838876,20.9422,77.4881,0.172621,0.0,0.0
376,93.75,34.3209,36.2878,169.443,98.564,97.1112,0.00210334,0.083838,20.9427,77.4781,0.137462,0.0,0.0
378,94.25,33.591,36.2,170.93,98.5568,96.8127,0.00209361,0.0837979,20.943,77.4881,0.165284,0.0,0.0
380,94.75,34.1097,35.8548,169.092,98.5684,96.8443,0.00208572,0.0837654,20.9433,77.4781,0.163348,0.0,0.0
382,95.25,33.893,36.1115,166.435,98.5476,96.8347,0.00208057,0.083725,20.9435,77.4481,0.162317,0.0,0.0
384,95.75,33.7942,36.3121,165.88,98.5468,96.5545,0.00207315,0.0836923,20.9437,77.4481,0.189064,0.0,0.0
386,96.25,33.4254,35.9866,168.899,98.5428,96.9154,0.00206846,0.0836806,20.9438,77.4381,0.154156,0.0,0.0
388,96.75,33.9813,36.2467,169.387,98.5424,96.4798,0.00206042,0.0836845,20.9439,77.4581,0.19582,0.0,0.0
390,97.25,33.8455,35.9767,163.471,98.5348,97.3207,0.00204899,0.0836802,20.944,77.4781,0.11477,0.0,0.0
392,97.75,33.7087,35.9217,170.159,98.5336,96.6458,0.00203973,0.08367,20.9441,77.4981,0.179082,0.0,0.0
394,98.25,33.755,35.7957,169.004,98.5265,96.6917,0.00203962,0.0836618,20.944,77.4581,0.174015,0.0,0.0
396,98.75,33.9658,35.7536,161.744,98.5277,96.5261,0.00203953,0.0836833,20.9436,77.4781,0.189989,0.0,0.0
398,99.25,33.4838,35.4038,169.897,98.5213,96.776,0.00203946,0.0836925,20.9434,77.408,0.165454,0.0,0.0
400,99.75,34.0923,35.7394,167.33,98.5265,96.9154,0.00206527,0.0837303,20.9431,77.4681,0.152618,0.0,0.0
402,100.25,33.7986,35.4038,170.608,98.534,96.5582,0.00208619,0.083781,20.943,77.4181,0.187512,0.0,0.0
404,100.75,33.8711,35.2872,166.071,98.5177,96.8618,0.00212039,0.0838664,20.9426,77.4681,0.156918,0.0,0.0
406,101.25,33.5648,35.0886,167.2,98.5169,96.5591,0.00214809,0.0839755,20.9421,77.4481,0.185811,0.0,0.0
408,101.75,34.1969,35.652,165.503,98.5241,96.5697,0.0021804,0.084064,20.9414,77.4581,0.185474,0.0,0.0
410,102.25,33.7389,35.4365,166.034,98.5149,96.7568,0.00220657,0.0843325,20.9407,77.388,0.166695,0.0,0.0
412,102.75,33.6685,35.3705,168.998,98.5117,96.6678,0.0022327,0.08455,20.9401,77.4481,0.174911,0.0,0.0
414,103.25,33.3039,35.5159,163.911,98.5085,96.3092,0.00225387,0.0848744,20.9396,77.4381,0.209011,0.0,0.0
416,103.75,33.4976,35.15,166.657,98.5332,96.5073,0.00228212,0.0852704,20.9392,77.4481,0.192318,0.0,0.0
418,104.25,32.9388,34.8959,162.722,98.4997,96.9131,0.002305,0.0857024,20.9387,77.388,0.150323,0.0,0.0
420,104.75,33.372,35.1076,171.835,98.4989,96.6953,0.00233835,0.0861524,20.938,77.4481,0.171075,0.0,0.0
422,105.25,33.4809,35.2742,172.206,98.5093,96.4945,0.00236536,0.0866859,20.9375,77.398,0.191297,0.0,0.0
424,105.75,33.6683,35.4732,166.482,98.5045,96.572,0.00238724,0.08717,20.9371,77.4381,0.183417,0.0,0.0
426,106.25,33.5756,35.2067,163.104,98.4837,96.8668,0.00241212,0.0876089,20.9367,77.368,0.153246,0.0,0.0
428,106.75,33.3476,35.2014,168.421,98.4905,96.6297,0.0024387,0.0879643,20.9365,77.4381,0.176566,0.0,0.0
430,107.25,33.458,35.0381,166.447,98.4757,96.505,0.00246153,0.0882522,20.9362,77.398,0.187134,0.0,0.0
432,107.75,33.7485,35.446,169.701,98.4853,97.0704,0.00247188,0.0884855,20.9361,77.4281,0.13396,0.0,0.0
434,108.25,33.3236,34.8114,172.158,98.4698,96.494,0.00248957,0.0886744,20.936,77.348,0.187627,0.0,0.0
436,108.75,33.2851,35.2705,170.622,98.4801,96.7811,0.00250267,0.0886865,20.9358,77.4181,0.161106,0.0,0.0
438,109.25,33.0969,34.9497,169.14,98.4554,96.7343,0.00251328,0.0886962,20.9357,77.348,0.163253,0.0,0.0
440,109.75,33.2564,35.3431,165.966,98.4734,96.9548,0.00252188,0.0885915,20.9356,77.4281,0.143861,0.0,0.0
442,110.25,33.2236,34.8734,168.772,98.4502,96.3986,0.00253079,0.0885066,20.936,77.348,0.19494,0.0,0.0
444,110.75,33.182,35.2841,167.279,98.461,97.2194,0.00253976,0.0884111,20.9363,77.398,0.11747,0.0,0.0
446,111.25,33.4516,35.3583,168.526,98.4506,96.4693,0.00254703,0.0882478,20.9366,77.328,0.188199,0.0,0.0
448,111.75,33.325,34.8172,167.215,98.4562,96.7004,0.00255552,0.0880489,20.9368,77.388,0.166576,0.0,0.0
450,112.25,32.9277,34.9383,167.079,98.4458,96.8003,0.00256474,0.0878277,20.9369,77.308,0.156035,0.0,0.0
452,112.75,32.5224,35.1065,171.883,98.4522,96.362,0.0025722,0.0875893,20.9369,77.378,0.198652,0.0,0.0
454,113.25,33.4224,34.753,170.359,98.435,96.7095,0.00258085,0.0873428,20.9369,77.318,0.163708,0.0,0.0
456,113.75,33.1352,34.7609,170.058,98.4446,96.5944,0.0025902,0.0871291,20.9372,77.388,0.175632,0.0,0.0
458,114.25,32.7928,34.5369,165.939,98.4238,97.0796,0.00259777,0.086956,20.9375,77.338,0.127303,0.0,0.0
460,114.75,33.2908,34.8574,161.079,98.4326,96.3936,0.0026039,0.0868158,20.9379,77.388,0.193772,0.0,0.0
462,115.25,32.7833,34.7604,166.818,98.4254,97.3336,0.00261212,0.0866578,20.9381,77.348,0.103263,0.0,0.0
464,115.75,33.0633,34.7995,164.374,98.4326,96.815,0.0026217,0.0864898,20.9383,77.398,0.153393,0.0,0.0
466,116.25,32.9103,34.621,169.881,98.4099,97.0222,0.00262946,0.0863537,20.9385,77.318,0.131456,0.0,0.0
468,116.75,33.095,35.1007,163.532,98.417,96.5931,0.0026444,0.0862138,20.9387,77.368,0.173172,0.0,0.0
470,117.25,33.5561,35.2722,164.165,98.3995,96.4945,0.00265651,0.0860739,20.9388,77.328,0.180973,0.0,0.0
472,117.75,33.0499,34.5246,166.194,98.4043,96.975,0.0026624,0.0859532,20.9389,77.358,0.135438,0.0,0.0
474,118.25,33.0873,34.7678,169.15,98.3963,97.0337,0.00266367,0.0858487,20.9389,77.2779,0.129086,0.0,0.0
476,118.75,33.2858,34.7557,167.128,98.4071,96.7146,0.00265494,0.0857641,20.939,77.338,0.160596,0.0,0.0
478,119.25,32.8215,34.3885,161.131,98.3827,96.7173,0.0026466,0.0856674,20.939,77.308,0.15804,0.0,0.0
480,119.75,32.8593,34.788,172.15,98.3959,96.4573,0.00263233,0.0855891,20.9391,77.318,0.184199,0.0,0.0
482,120.25,33.2055,34.6816,166.382,98.3839,96.9324,0.00260193,0.0855256,20.9391,77.318,0.137593,0.0,0.0
484,120.75,32.4914,34.6766,169.998,98.3871,96.7302,0.00256035,0.0854742,20.9391,77.328,0.157226,0.0,0.0
486,121.25,32.7816,34.9013,169.934,98.3755,96.5541,0.00251433,0.0854474,20.9391,77.318,0.173001,0.0,0.0
488,121.75,32.9936,34.3837,170.665,98.3775,96.538,0.00246595,0.0854391,20.9392,77.308,0.174728,0.0,0.0
490,122.25,32.7964,34.2776,165.484,98.3791,97.1341,0.00241963,0.0854355,20.9392,77.308,0.117895,0.0,0.0
492,122.75,32.8685,34.2796,165.04,98.3731,96.9017,0.00237568,0.0853731,20.9392,77.328,0.139513,0.0,0.0
494,123.25,32.778,34.2574,167.911,98.3903,96.8365,0.00234073,0.0853226,20.9392,77.328,0.147352,0.0,0.0
496,123.75,32.9015,34.8814,165.472,98.3611,96.9475,0.002313,0.0852816,20.9392,77.338,0.134006,0.0,0.0
498,124.25,33.0503,34.3692,166.471,98.3504,96.9342,0.00229898,0.0852485,20.9392,77.338,0.134261,0.0,0.0
500,124.75,32.9557,34.8406,167.322,98.3535,96.7517,0.00229522,0.0852142,20.9392,77.348,0.152005,0.0,0.0
502,125.25,32.7245,34.3299,169.071,98.3396,96.6577,0.00229217,0.0851798,20.9392,77.338,0.159689,0.0,0.0
504,125.75,33.3528,34.4746,166.87,98.3396,96.8668,0.00232549,0.0851223,20.9392,77.328,0.139685,0.0,0.0
506,126.25,32.9515,34.2403,164.178,98.3332,96.6247,0.00235248,0.0850491,20.9392,77.338,0.16225,0.0,0.0
508,126.75,33.0738,34.6178,169.928,98.3328,96.9342,0.00237434,0.0849602,20.9392,77.318,0.132608,0.0,0.0
510,127.25,32.5763,34.2527,169.329,98.3368,96.5174,0.00240959,0.0848615,20.9392,77.308,0.172873,0.0,0.0
512,127.75,32.8259,33.9118,167.591,98.3264,96.8796,0.00245395,0.0847964,20.9392,77.308,0.137218,0.0,0.0
514,128.25,32.6929,34.2831,166.502,98.31,96.92,0.00249508,0.084757,20.9392,77.328,0.131821,0.0,0.0
516,128.75,32.5932,34.1685,166.609,98.3172,96.9814,0.00253308,0.0847251,20.9392,77.298,0.126632,0.0,0.0
518,129.25,32.5397,34.0576,164.638,98.3164,96.8425,0.00256451,0.0846844,20.9392,77.2779,0.139828,0.0,0.0
520,129.75,32.7694,34.4322,167.513,98.3052,97.1754,0.00259056,0.0846381,20.9392,77.2879,0.107009,0.0,0.0
522,130.25,32.7083,34.1608,168.668,98.3008,96.8347,0.0026058,0.0846007,20.9392,77.298,0.139107,0.0,0.0
524,130.75,32.3831,33.7377,164.752,98.2984,96.644,0.00261288,0.0845407,20.9392,77.308,0.157133,0.0,0.0
526,131.25,32.8232,34.0923,172.882,98.3036,97.0814,0.00260821,0.0844655,20.9392,77.298,0.115817,0.0,0.0
528,131.75,32.5013,34.1371,165.987,98.2845,96.8526,0.00259506,0.0843824,20.9392,77.2779,0.135855,0.0,0.0
530,132.25,33.0671,34.4358,167.508,98.2709,96.5064,0.00257531,0.084295,20.9392,77.2879,0.167724,0.0,0.0
532,132.75,32.5802,34.3053,168.611,98.2813,97.0653,0.00255113,0.0842169,20.9397,77.2479,0.115242,0.0,0.0
534,133.25,32.3005,34.1442,164.37,98.2881,97.0961,0.00253154,0.084147,20.94,77.2679,0.112952,0.0,0.0
536,133.75,32.3269,34.0961,166.986,98.2813,97.0741,0.00251444,0.0840904,20.9403,77.2279,0.114411,0.0,0.0
538,134.25,32.6962,34.2288,166.178,98.2725,97.0048,0.00250059,0.0840445,20.9406,77.2679,0.120189,0.0,0.0
540,134.75,32.745,34.2474,164.139,98.2597,96.6839,0.00248937,0.0839851,20.9408,77.2479,0.149665,0.0,0.0
542,135.25,33.0203,34.5027,173.564,98.2681,97.0346,0.00249016,0.083917,20.9409,77.2779,0.11693,0.0,0.0
544,135.75,32.4845,34.3141,165.629,98.2505,96.8164,0.0024908,0.0838619,20.9413,77.2379,0.13612,0.0,0.0
546,136.25,32.6076,34.1025,167.948,98.2605,97.1107,0.00249651,0.0837891,20.9417,77.2779,0.108958,0.0,0.0
548,136.75,32.2892,34.3266,165.543,98.2557,97.2066,0.00250582,0.0837302,20.942,77.2279,0.0993749,0.0,0.0
550,137.25,32.2003,34.0743,166.306,98.2489,97.0443,0.00251336,0.0836824,20.9422,77.2679,0.114206,0.0,0.0
552,137.75,32.4818,33.5833,169.094,98.2381,96.1987,0.00252688,0.0836067,20.9424,77.2079,0.194199,0.0,0.0
554,138.25,32.6102,34.078,169.233,98.2397,96.8274,0.00253784,0.0835122,20.9426,77.2479,0.134053,0.0,0.0
556,138.75,32.1007,33.7159,166.839,98.2314,96.9929,0.00254794,0.0834356,20.9427,77.1879,0.117451,0.0,0.0
558,139.25,32.8269,34.5335,162.731,98.2322,97.0452,0.00255613,0.0833735,20.9428,77.2479,0.112539,0.0,0.0
560,139.75,32.391,34.0604,173.523,98.227,96.9704,0.00255658,0.0833232,20.9429,77.2079,0.119181,0.0,0.0
562,140.25,32.3607,32.9427,166.45,98.229,96.3922,0.00255695,0.0832966,20.9429,77.2679,0.174732,0.0,0.0
564,140.75,32.2311,33.7976,165.766,98.2126,96.7054,0.00255725,0.083275,20.943,77.1879,0.143162,0.0,0.0
566,141.25,32.6146,33.822,166.799,98.215,96.9493,0.00252169,0.0832353,20.943,77.2479,0.120065,0.0,0.0
568,141.75,32.2838,34.3076,165.333,98.2182,97.2877,0.00249288,0.0831832,20.9431,77.1778,0.0881121,0.0,0.0
570,142.25,32.4757,33.7787,164.745,98.2066,97.4436,0.00243255,0.0831129,20.9431,77.2379,0.0721986,0.0,0.0
572,142.75,32.2289,33.4956,164.643,98.1946,97.1525,0.00238368,0.0830559,20.9431,77.1778,0.0987711,0.0,0.0
574,143.25,32.0575,33.9118,165.081,98.1962,96.8677,0.00232684,0.0830172,20.9431,77.2379,0.126093,0.0,0.0
576,143.75,32.3556,33.6721,166.858,98.1838,96.8191,0.0022808,0.0829925,20.9431,77.1678,0.129572,0.0,0.0
578,144.25,32.2038,33.8082,165.507,98.1986,96.3257,0.00224474,0.0829724,20.9432,77.2279,0.178259,0.0,0.0
580,144.75,32.3752,34.0023,168.999,98.1794,97.0727,0.00221554,0.0829141,20.9432,77.1578,0.104945,0.0,0.0
582,145.25,32.7158,33.7261,172.122,98.1858,96.7655,0.0022042,0.0828668,20.9432,77.2279,0.134891,0.0,0.0
584,145.75,32.7098,33.7687,170.162,98.1902,96.7586,0.00219502,0.0828004,20.9432,77.1778,0.135963,0.0,0.0
586,146.25,32.2143,33.6917,167.053,98.1814,96.6495,0.00220121,0.0827466,20.9432,77.2179,0.145582,0.0,0.0
588,146.75,32.3237,34.0159,166.496,98.1647,96.7471,0.00221849,0.082703,20.9432,77.1578,0.13465,0.0,0.0
590,147.25,32.1372,33.8554,167.74,98.1766,96.9278,0.00223249,0.0826677,20.9432,77.2079,0.11851,0.0,0.0
592,147.75,32.3141,33.2203,170.672,98.1531,96.7306,0.00226591,0.0826251,20.9432,77.1478,0.135138,0.0,0.0
594,148.25,32.144,33.5456,170.678,98.1659,96.9576,0.00231286,0.0825905,20.9436,77.2179,0.114647,0.0,0.0
596,148.75,31.9084,33.869,170.67,98.1443,96.8677,0.00235089,0.0825345,20.944,77.1578,0.121198,0.0,0.0
598,149.25,32.4326,33.8763,166.277,98.1651,96.9328,0.00239652,0.0824891,20.9443,77.2179,0.116936,0.0,0.0
600,149.75,32.04,33.4886,166.154,98.1447,97.0585,0.00243282,0.0824523,20.9445,77.1478,0.103025,0.0,0.0
602,150.25,32.3346,33.8388,169.067,98.1535,96.8288,0.00246165,0.0824365,20.9447,77.2179,0.12579,0.0,0.0
604,150.75,32.4565,33.467,168.982,98.1403,96.7389,0.00248239,0.0824237,20.9449,77.1478,0.133142,0.0,0.0
606,151.25,32.5375,33.8039,165.877,98.1439,97.2621,0.00249686,0.0824134,20.945,77.1979,0.0835518,0.0,0.0
608,151.75,32.0877,33.6485,167.413,98.1223,97.3207,0.00250857,0.082391,20.9451,77.1478,0.0759338,0.0,0.0
610,152.25,32.1242,33.7228,169.585,98.1299,97.0085,0.00251312,0.0823728,20.9452,77.2079,0.1064,0.0,0.0
612,152.75,32.4055,33.5964,167.128,98.1299,97.556,0.00251681,0.0823862,20.9452,77.1578,0.0543029,0.0,0.0
614,153.25,32.3492,33.9064,167.929,98.1183,96.6073,0.00251732,0.0823971,20.9453,77.2079,0.143672,0.0,0.0
616,153.75,32.6523,33.6734,175.38,98.1143,97.5574,0.00251774,0.0823216,20.9453,77.1478,0.0527021,0.0,0.0
618,154.25,32.2317,33.6452,166.522,98.1088,96.7875,0.00251807,0.0822604,20.9454,77.1778,0.125516,0.0,0.0
620,154.75,32.5561,33.5621,170.07,98.1068,96.9425,0.00251958,0.0821406,20.9454,77.1578,0.110518,0.0,0.0
622,155.25,32.138,33.7364,166.074,98.0968,97.1328,0.00252081,0.0820436,20.9454,77.1778,0.0914225,0.0,0.0
624,155.75,32.8086,33.8523,167.925,98.0936,96.5756,0.00252797,0.081951,20.9454,77.1378,0.144369,0.0,0.0
626,156.25,32.4265,33.7008,169.749,98.0972,96.9879,0.00253377,0.081876,20.9455,77.1578,0.105279,0.0,0.0
628,156.75,32.3567,33.7643,169.639,98.0852,97.0479,0.00254112,0.08183,20.9455,77.1478,0.0984163,0.0,0.0
630,157.25,32.1714,33.8912,169.414,98.0884,97.2359,0.00254945,0.081806,20.9455,77.1578,0.0808031,0.0,0.0
632,157.75,32.4852,33.049,170.865,98.0804,96.7017,0.00255619,0.0817866,20.9455,77.1678,0.131046,0.0,0.0
634,158.25,32.4848,33.9786,165.74,98.0808,96.7687,0.00256165,0.0817709,20.9455,77.1578,0.124678,0.0,0.0
636,158.75,32.1155,33.2037,165.945,98.0768,97.1089,0.00256237,0.0817582,20.9451,77.1378,0.0918104,0.0,0.0
638,159.25,31.9826,33.2844,167.39,98.0576,96.7691,0.00256296,0.081776,20.9447,77.1778,0.122446,0.0,0.0
640,159.75,32.6,33.4212,166.632,98.0756,97.0443,0.00256343,0.0817904,20.9444,77.1678,0.0978627,0.0,0.0
642,160.25,32.5036,33.7354,165.919,98.0624,96.859,0.00256381,0.081802,20.9442,77.1578,0.114307,0.0,0.0
644,160.75,31.8946,33.3466,168.604,98.058,96.6458,0.00256592,0.0818269,20.9441,77.1578,0.134292,0.0,0.0
646,161.25,32.46,33.8145,166.21,98.0553,96.5362,0.00256954,0.081861,20.9439,77.1678,0.144531,0.0,0.0
648,161.75,32.1701,33.0917,168.198,98.0417,97.1548,0.00257246,0.0818885,20.9438,77.1578,0.0841227,0.0,0.0
650,162.25,32.3121,33.0729,171.713,98.0457,97.4482,0.00258101,0.0818828,20.9432,77.1578,0.0565812,0.0,0.0
652,162.75,32.1127,33.6796,166.719,98.0381,96.8278,0.00258794,0.0818781,20.9428,77.1378,0.114987,0.0,0.0
654,163.25,31.5534,33.0148,167.126,98.0405,97.0048,0.00259108,0.0819024,20.9424,77.1478,0.0983071,0.0,0.0
656,163.75,32.2535,33.4674,166.332,98.0321,97.2625,0.00259362,0.0819128,20.9421,77.1478,0.0729563,0.0,0.0
658,164.25,32.3215,33.3248,166.344,98.0309,96.9773,0.00257962,0.0819453,20.9419,77.1378,0.100029,0.0,0.0
660,164.75,32.2984,33.3411,169.488,98.0241,96.5202,0.00255658,0.0819849,20.9417,77.1478,0.143128,0.0,0.0
662,165.25,32.2997,33.2074,168.554,98.0301,96.9613,0.0025274,0.082017,20.9416,77.1378,0.101484,0.0,0.0
664,165.75,32.1605,32.9638,165.875,98.0153,96.8975,0.00250376,0.0820711,20.9414,77.1378,0.106176,0.0,0.0
666,166.25,32.5,33.3667,166.809,98.0161,96.87,0.00246733,0.082115,20.9418,77.1478,0.10888,0.0,0.0
668,166.75,31.9968,33.5456,169.094,98.0049,96.6577,0.00243783,0.0821786,20.942,77.1478,0.128135,0.0,0.0
670,167.25,31.6709,33.29,168.01,97.9961,96.6508,0.00241517,0.0822301,20.9423,77.1378,0.127963,0.0,0.0
672,167.75,31.7253,32.938,164.522,97.9946,96.809,0.00239681,0.0822578,20.9424,77.1478,0.112674,0.0,0.0
674,168.25,32.0481,33.3122,162.211,97.989,97.2547,0.00238194,0.0822802,20.9426,77.1478,0.0696251,0.0,0.0
676,168.75,32.1497,33.1774,167.573,97.9858,96.7866,0.0023892,0.0822703,20.9426,77.1478,0.113992,0.0,0.0
678,169.25,32.4927,33.2261,162.794,97.981,97.1071,0.00240161,0.0822622,20.9425,77.1278,0.0829339,0.0,0.0
680,169.75,32.4338,33.2006,164.815,97.9778,96.6362,0.00241167,0.0822978,20.9425,77.1278,0.127634,0.0,0.0
682,170.25,32.2987,33.0186,164.713,97.9598,96.8663,0.00243092,0.0823267,20.942,77.1178,0.103911,0.0,0.0
684,170.75,32.0434,33.4741,168.808,97.9626,96.6302,0.00244197,0.0823716,20.9417,77.1378,0.126771,0.0,0.0
686,171.25,31.8755,33.7227,167.488,97.9522,96.8975,0.00244683,0.0824274,20.9413,77.1178,0.100215,0.0,0.0
688,171.75,31.8628,33.4572,164.463,97.9434,96.8553,0.00244491,0.0824512,20.9411,77.1578,0.103417,0.0,0.0
690,172.25,32.2267,33.2451,169.488,97.9498,97.3492,0.0024381,0.0824918,20.9409,77.0978,0.056941,0.0,0.0
692,172.75,32.0226,33.2441,167.408,97.9526,97.2258,0.00243258,0.0825529,20.9407,77.1278,0.0689416,0.0,0.0
694,173.25,32.0414,33.4282,166.276,97.9434,96.9191,0.00241454,0.0826023,20.9406,77.0878,0.0973265,0.0,0.0
696,173.75,31.6029,32.9431,164.423,97.9319,97.2625,0.00239992,0.0826845,20.9405,77.1378,0.0634863,0.0,0.0
698,174.25,32.6633,33.3619,167.026,97.937,96.809,0.00238191,0.0827585,20.9404,77.0778,0.10724,0.0,0.0
700,174.75,32.2636,33.1624,168.234,97.9359,96.9856,0.00236733,0.0828251,20.9403,77.1278,0.090262,0.0,0.0
702,175.25,31.7876,32.9155,167.054,97.9319,97.1465,,0.082879,,77.0778,0.0745349,0.0,0.0
704,175.75,32.0972,32.9931,166.143,97.9219,96.9718,,0.0829227,,77.1378,0.0902532,0.0,0.0
706,176.25,31.9653,33.3368,165.594,97.9143,96.5651,,0.0829581,,77.0778,0.128443,0.0,0.0
708,176.75,32.066,33.1375,169.574,97.9215,96.7494,,0.0829727,,77.1278,0.11147,0.0,0.0
710,177.25,31.6122,32.7386,167.029,97.8979,96.7925,,0.0829846,,77.0677,0.105118,0.0,0.0
712,177.75,31.7911,33.5674,166.346,97.9075,96.859,,0.0829941,,77.1178,0.0996686,0.0,0.0
714,178.25,31.9732,33.2797,167.03,97.9087,96.5211,,,,77.0477,0.132136,0.0,0.0
716,178.75,31.9345,33.2062,169.264,97.9071,96.7558,,,,77.0978,0.109495,0.0,0.0
718,179.25,32.1623,33.0475,170.385,97.8987,96.6339,,,,77.0277,0.120379,0.0,0.0
720,179.75,32.5173,33.4629,167.098,97.9131,97.246,,,,77.1078,0.0632836,0.0,0.0
722,180.25,31.7585,33.1378,166.266,97.8863,96.5431,,,,77.0377,0.127911,0.0,0.0
724,180.75,32.3397,33.3141,166.441,97.8935,96.6591,,,,77.1178,0.117474,0.0,0.0
726,181.25,32.1829,33.1316,164.4,97.8772,96.7641,,,,77.0377,0.105875,0.0,0.0
728,181.75,31.7594,33.1447,171.126,97.8883,96.4743,,,,77.1078,0.134696,0.0,0.0
730,182.25,32.256,33.138,171.281,97.868,97.1337,,,,77.0477,0.0697171,0.0,0.0
732,182.75,32.0963,33.3254,167.689,97.8736,96.8329,,,,77.1178,0.0989578,0.0,0.0
734,183.25,32.3813,33.6587,165.922,97.8652,96.3422,,,,77.0477,0.145187,0.0,0.0
736,183.75,32.1458,32.5778,167.554,97.8708,96.4294,,,,77.1078,0.137348,0.0,0.0
738,184.25,31.9175,33.186,167.706,97.872,97.1988,,,,77.0477,0.0638907,0.0,0.0
740,184.75,31.9995,33.1665,166.626,97.8716,96.9805,,,,77.0978,0.0846639,0.0,0.0
742,185.25,31.8491,33.2027,171.282,97.8548,96.8434,,,,77.0177,0.0961733,0.0,0.0
744,185.75,32.2827,33.2933,168.088,97.8496,97.1268,,,,77.0878,0.0686349,0.0,0.0
745,186,31.7523,33.0437,163.874,97.8456,96.9888,,,,77.0978,0.0814201,0.0,0.0