File: 01_Data/Polyisocyanurate_Foam_Board/Cone/Polyisocyanurate_Foam_Board_Cone_HF50Scan_220913_R1.csv
Names,Time,Stack TC,Smoke TC,Exh Press,Smoke Comp,Smoke Meas,CO Meter,CO2 Meter,O2 Meter,Sample Mass,Ext Coeff,Start Test,Flame Verif
Chan Gain,,500,500,1,1,1,1,1,1,1,1,1.0,1.0
Offset,,0,0,0.13918,0,0,0,0,0,0,0,0.0,0.0
Gain,,1,1,25.011,14.0162,15.5607,1,1,1,1.0009,1.02981,1.0,1.0
Units,sec,C,C,Pa,%,%,%,%,%,g,/m,,
Baseline,,31.6119,33.0601,155.299,104.72,4.39574,0.000747645,0.0961288,20.945,-0.0990895,28.6421,,
4,0.75,30.9811,32.6088,159.423,104.131,4.3133,0.000711172,0.111879,20.9215,528.617,28.762,0.0,0.0
8,1.75,30.835,32.7062,155.419,104.105,4.32849,0.000743385,0.112442,20.9212,528.587,28.728,0.0,0.0
12,2.75,30.8801,32.6731,155.118,104.07,4.37693,0.00077131,0.112202,20.9216,528.657,28.6244,0.0,0.0
16,3.75,31.0473,32.6704,152.623,104.039,4.31377,0.000786894,0.111649,20.9225,528.667,28.753,0.0,0.0
20,4.75,31.0616,32.209,158.936,104.013,4.30902,0.000798656,0.110875,20.9236,528.637,28.7607,0.0,0.0
24,5.75,31.3441,32.5182,152.84,103.981,4.26533,0.000817391,0.110128,20.9251,528.587,28.85,0.0,0.0
28,6.75,31.2369,32.5012,153.516,103.953,4.26248,0.00087409,0.109431,20.9262,528.567,28.8536,0.0,0.0
32,7.75,30.9577,32.5225,153.686,103.912,4.21405,0.000964616,0.108974,20.9268,528.517,28.9533,0.0,0.0
36,8.75,31.3007,32.5829,151.835,103.878,4.16466,0.00106825,0.108694,20.9274,528.477,29.0568,0.0,0.0
40,9.75,30.7782,32.3267,153.967,103.834,4.15659,0.00119914,0.108631,20.9283,528.477,29.0705,0.0,0.0
44,10.75,30.3259,32.5655,155.755,103.796,4.08251,0.00128408,0.108682,20.9288,528.447,29.2297,0.0,0.0
48,11.75,31.3609,32.2334,152.49,103.763,4.15041,0.00143995,0.108871,20.9292,528.407,29.0778,0.0,0.0
52,12.75,31.3161,32.4393,156.954,103.735,4.11907,0.00164743,0.109228,20.9291,528.367,29.1438,0.0,0.0
56,13.75,31.3417,32.7543,146.835,103.711,4.17748,0.00193143,0.110763,20.9279,528.367,29.0145,0.0,0.0
60,14.75,31.3215,32.9307,149.894,103.663,4.3038,0.00223566,0.11545,20.9166,528.287,28.7412,0.0,1.0
64,15.75,31.2487,32.801,153.302,103.629,4.30427,0.00262035,0.124713,20.8946,528.207,28.7372,0.0,1.0
68,16.75,32.0937,33.2505,146.575,103.591,4.25773,0.00301871,0.139666,20.8702,528.157,28.8322,0.0,1.0
72,17.75,32.5019,33.1199,146.36,103.546,4.30142,0.00337283,0.159164,20.8446,528.107,28.736,0.0,1.0
76,18.75,32.5434,33.2227,145.779,103.515,4.17226,0.00392622,0.181536,20.8162,528.037,29.0087,0.0,1.0
80,19.75,33.0604,33.9326,143.558,103.496,4.22544,0.00452094,0.205261,20.7851,527.896,28.8927,0.0,1.0
84,20.75,33.5125,33.9215,142.006,103.463,4.23447,0.0051139,0.229004,20.7521,527.836,28.8705,0.0,1.0
88,21.75,34.2272,34.6824,140.424,103.43,4.22212,0.00561452,0.250471,20.7229,527.786,28.894,0.0,0.0
92,22.75,34.522,35.2793,147.157,103.429,4.26343,0.00603067,0.268656,20.6963,527.666,28.8059,0.0,0.0
96,23.75,34.8707,35.2643,146.826,103.386,4.21072,0.00634809,0.284113,20.6742,527.576,28.9145,0.0,0.0
100,24.75,35.5459,35.9676,142.439,103.37,4.16181,0.00655879,0.296235,20.6583,527.456,29.0187,0.0,0.0
104,25.75,35.38,35.8106,140.996,103.341,4.1979,0.00670127,0.305931,20.6479,527.396,28.9382,0.0,0.0
108,26.75,36.5663,36.7457,142.972,103.335,4.21547,0.00674332,0.311937,20.641,527.326,28.8999,0.0,0.0
112,27.75,37.3134,37.0834,145.833,103.324,4.17606,0.00677778,0.314506,20.6372,527.316,28.9838,0.0,0.0
116,28.75,37.4461,37.8044,143.592,103.314,4.17701,0.00683015,0.314556,20.6375,527.236,28.9808,0.0,0.0
120,29.75,37.0186,37.5054,141.94,103.3,4.18983,0.00690343,0.312867,20.6385,527.166,28.952,0.0,0.0
124,30.75,38.3171,38.714,143.356,103.301,4.20075,0.00697901,0.31089,20.6392,527.066,28.9286,0.0,0.0
128,31.75,38.8601,39.2583,145.264,103.298,4.19648,0.00702859,0.309331,20.6396,527.016,28.9375,0.0,0.0
132,32.75,38.8673,39.1774,143.988,103.298,4.26628,0.0070521,0.308345,20.64,526.956,28.7885,0.0,0.0
136,33.75,38.6785,38.7084,145.815,103.302,4.20835,0.00707954,0.307823,20.6404,526.876,28.9123,0.0,0.0
140,34.75,39.4958,39.8922,145.215,103.309,4.24444,0.0071231,0.308143,20.6402,526.836,28.8358,0.0,0.0
144,35.75,39.9199,40.1658,147.722,103.317,4.2981,0.00716132,0.308891,20.6392,526.725,28.723,0.0,0.0
148,36.75,39.7285,40.4255,146.573,103.335,4.29335,0.00718766,0.309996,20.6383,526.675,28.7346,0.0,0.0
152,37.75,40.064,40.7281,144.446,103.333,4.2074,0.00720826,0.310663,20.6376,526.615,28.9171,0.0,0.0
156,38.75,40.8847,41.3937,148.876,103.341,4.24919,0.00722485,0.310573,20.6372,526.535,28.8285,0.0,0.0
160,39.75,40.7275,41.3854,149.979,103.365,4.32659,0.00725409,0.309519,20.6376,526.455,28.6675,0.0,0.0
164,40.75,41.0896,41.6864,142.482,103.378,4.22829,0.00727097,0.307892,20.6392,526.405,28.8763,0.0,0.0
168,41.75,41.3789,42.1167,145.468,103.4,4.29478,0.0072637,0.305974,20.6419,526.365,28.7372,0.0,0.0
172,42.75,41.6216,42.4307,146.993,103.416,4.24824,0.00725713,0.303893,20.6449,526.305,28.837,0.0,0.0
176,43.75,41.6938,42.3333,144.271,103.45,4.1884,0.00726982,0.301724,20.647,526.245,28.9681,0.0,0.0
180,44.75,41.8863,42.5867,148.008,103.457,4.20312,0.00730061,0.299932,20.6492,526.185,28.9371,0.0,0.0
184,45.75,42.1078,42.9002,145.015,103.486,4.22544,0.00732902,0.298429,20.6511,526.125,28.8918,0.0,0.0
188,46.75,42.1394,43.07,143.584,103.515,4.27531,0.00734537,0.297539,20.6525,526.115,28.7884,0.0,0.0
192,47.75,42.1805,43.0695,144.91,103.527,4.2131,0.00732857,0.296251,20.6539,526.065,28.9218,0.0,0.0
196,48.75,42.5557,43.3568,146.539,103.568,4.23637,0.00725794,0.294631,20.6557,525.995,28.8756,0.0,0.0
200,49.75,43.022,43.7425,144.942,103.61,4.21215,0.00710169,0.292769,20.6583,525.925,28.931,0.0,0.0
204,50.75,43.0947,44.1597,142.591,103.617,4.14187,0.00688488,0.290511,20.6616,525.845,29.0836,0.0,0.0
208,51.75,42.7988,43.965,142.101,103.657,4.19838,0.00662851,0.288176,20.6654,525.825,28.9648,0.0,0.0
212,52.75,42.8608,44.0373,150.896,103.691,4.23162,0.00639234,0.285307,20.6697,525.765,28.8964,0.0,0.0
216,53.75,43.2314,44.5293,146.77,103.716,4.23067,0.00615718,0.282116,20.6742,525.714,28.9007,0.0,0.0
220,54.75,43.2377,44.3961,145.875,103.755,4.21974,0.00598253,0.278968,20.6784,525.644,28.9274,0.0,0.0
224,55.75,43.4918,44.7895,143.23,103.786,4.19885,0.00584106,0.275105,20.6839,525.634,28.975,0.0,0.0
228,56.75,43.2457,44.5793,145.951,103.818,4.28433,0.0057001,0.27089,20.6912,525.574,28.7957,0.0,0.0
232,57.75,43.214,44.6633,148.358,103.865,4.3114,0.00554402,0.266999,20.6992,525.504,28.7429,0.0,0.0
236,58.75,43.8219,45.3759,143.875,103.891,4.22212,0.00535993,0.262365,20.7069,525.494,28.9341,0.0,0.0
240,59.75,43.5957,45.1247,148.423,103.925,4.2017,0.00520029,0.25793,20.7134,525.424,28.9809,0.0,0.0
244,60.75,43.5792,45.1573,151.494,103.959,4.2886,0.00498498,0.253843,20.7192,525.394,28.7989,0.0,0.0
248,61.75,44.1619,45.9557,143.801,104,4.30665,0.00480192,0.250286,20.7255,525.344,28.7646,0.0,0.0
252,62.75,44.2189,45.9681,146.174,104.017,4.28623,0.0046738,0.246468,20.7327,525.284,28.809,0.0,0.0
256,63.75,43.5079,45.2949,145.146,104.063,4.27008,0.00458974,0.242841,20.7388,525.254,28.847,0.0,0.0
260,64.75,43.7642,45.4903,150.03,104.098,4.34369,0.00451424,0.239529,20.7443,525.204,28.6957,0.0,0.0
264,65.75,42.7159,44.7458,148.451,104.14,4.32564,0.00442404,0.236231,20.7502,525.174,28.737,0.0,0.0
268,66.75,43.842,45.7208,147.988,104.176,4.33894,0.00429726,0.232834,20.7558,525.144,28.7124,0.0,0.0
272,67.75,43.5235,45.5021,151.755,104.205,4.31187,0.00414614,0.229169,20.762,525.114,28.7714,0.0,0.0
276,68.75,43.9395,46.0554,148.367,104.255,4.35413,0.0039981,0.225531,20.7684,525.104,28.6877,0.0,0.0
280,69.75,41.4656,43.6179,150.413,104.294,4.37788,0.00387151,0.221795,20.7743,525.064,28.6419,0.0,0.0
284,70.75,43.7279,45.8219,146.052,104.332,4.34511,0.00377731,0.217749,20.7809,525.014,28.713,0.0,0.0
288,71.75,43.0016,45.1087,151.571,104.368,4.41349,0.00374566,0.213752,20.7876,524.984,28.5751,0.0,0.0
292,72.75,43.2822,45.5015,150.14,104.414,4.36601,0.00374607,0.209844,20.7927,524.944,28.6768,0.0,0.0
296,73.75,42.943,45.4324,152.303,104.418,4.50135,0.00384102,0.206398,20.7972,524.934,28.4014,0.0,0.0
300,74.75,43.2125,45.5862,151.26,104.48,4.36601,0.00394779,0.203214,20.8014,524.904,28.6825,0.0,0.0
304,75.75,42.8115,45.2482,151.46,104.519,4.4078,0.0040476,0.200296,20.8053,524.874,28.5998,0.0,0.0
308,76.75,42.801,45.2284,154.194,104.554,4.45861,0.00411538,0.198209,20.8082,524.854,28.4993,0.0,0.0
312,77.75,42.6777,45.2007,150.18,104.594,4.40305,0.00415783,0.195835,20.8108,524.814,28.616,0.0,0.0
316,78.75,42.6396,45.3896,150.942,104.619,4.34559,0.00414503,0.193654,20.8136,524.794,28.7369,0.0,0.0
320,79.75,42.7514,45.5977,149.505,104.657,4.39545,0.00413212,0.191762,20.8157,524.774,28.6371,0.0,0.0
324,80.75,42.8241,45.2964,151.343,104.689,4.37645,0.00413153,0.190506,20.8171,524.734,28.6789,0.0,0.0
328,81.75,42.7084,45.1631,149.333,104.716,4.45148,0.00415758,0.189835,20.818,524.704,28.5277,0.0,0.0
332,82.75,42.5414,45.0306,151.802,104.755,4.40922,0.00419623,0.189799,20.8178,524.643,28.6173,0.0,0.0
336,83.75,42.6066,45.2306,147.418,104.782,4.41302,0.00423383,0.19086,20.8169,524.583,28.6118,0.0,0.0
340,84.75,42.5493,45.2387,151.59,104.832,4.36981,0.00426491,0.192499,20.815,524.553,28.705,0.0,0.0
344,85.75,42.6435,45.2601,151.115,104.858,4.43534,0.0042853,0.194751,20.8122,524.523,28.5728,0.0,0.0
348,86.75,42.6199,45.1802,147.931,104.884,4.41729,0.00428061,0.19738,20.8088,524.463,28.6118,0.0,0.0
352,87.75,42.8745,45.8762,152.103,104.918,4.41539,0.00426879,0.200029,20.8053,524.403,28.6187,0.0,0.0
356,88.75,42.802,45.4732,149.269,104.951,4.42584,0.00424897,0.202635,20.8023,524.343,28.6002,0.0,0.0
360,89.75,42.0727,44.9442,149.06,104.982,4.42489,0.00422943,0.20465,20.8003,524.293,28.6048,0.0,0.0
364,90.75,42.4076,45.1419,148.042,105.001,4.51797,0.00421656,0.206089,20.799,524.263,28.4184,0.0,0.0
368,91.75,42.5465,45.1841,150.33,105.038,4.43486,0.00421883,0.206705,20.799,524.223,28.5892,0.0,0.0
372,92.75,42.5817,45.2964,153.249,105.066,4.45861,0.00423473,0.206642,20.7997,524.183,28.5434,0.0,0.0
376,93.75,42.6267,45.3352,147.061,105.088,4.42679,0.00427454,0.206062,20.8009,524.153,28.61,0.0,0.0
380,94.75,42.6721,45.0734,152.595,105.112,4.42442,0.0043256,0.205159,20.8022,524.123,28.6169,0.0,0.0
384,95.75,42.4908,45.1478,149.537,105.146,4.47285,0.00435831,0.203884,20.8035,524.093,28.5215,0.0,0.0
388,96.75,42.0968,45.0187,149.733,105.158,4.45433,0.00434998,0.202456,20.8047,524.023,28.56,0.0,0.0
392,97.75,42.578,45.3401,149.27,105.194,4.47238,0.00429162,0.200824,20.8069,524.013,28.5266,0.0,0.0
396,98.75,42.1322,45.278,151.799,105.187,4.41872,0.00419986,0.198664,20.8092,524.003,28.635,0.0,0.0
400,99.75,42.5064,45.1915,149.508,105.209,4.43344,0.00410102,0.196405,20.8112,523.983,28.6069,0.0,0.0
404,100.75,41.4927,44.4799,152.4,105.224,4.45861,0.00402203,0.194282,20.8132,523.933,28.557,0.0,0.0
408,101.75,41.9894,44.304,147.258,105.227,4.42964,0.00397284,0.19193,20.8146,523.883,28.6162,0.0,0.0
412,102.75,42.4461,45.2397,149.723,105.236,4.47143,0.00396204,0.189684,20.8175,523.873,28.5321,0.0,0.0
416,103.75,42.5537,45.2283,148.473,105.249,4.43059,0.00400356,0.187472,20.821,523.843,28.6161,0.0,0.0
420,104.75,41.8801,44.7871,145.421,105.245,4.41207,0.00406422,0.184681,20.8241,523.823,28.6536,0.0,0.0
424,105.75,42.5221,45.397,151.662,105.249,4.44056,0.00411523,0.181621,20.8286,523.803,28.5958,0.0,0.0
428,106.75,42.0368,44.9885,149.044,105.243,4.42632,0.00412792,0.178309,20.8333,523.763,28.6243,0.0,0.0
432,107.75,42.0499,45.0565,148.986,105.244,4.44484,0.00411864,0.174861,20.8402,523.733,28.5867,0.0,0.0
436,108.75,41.3716,44.311,155.015,105.237,4.48473,0.00407521,0.171633,20.8447,523.723,28.5054,0.0,0.0
440,109.75,41.8899,44.3432,153.562,105.22,4.4852,0.00401002,0.168422,20.8481,523.693,28.5029,0.0,0.0
444,110.75,41.7969,44.8279,156.383,105.215,4.44389,0.00393642,0.165637,20.8517,523.693,28.5861,0.0,0.0
448,111.75,41.3151,44.4542,151.807,105.194,4.52082,0.00384906,0.163059,20.8546,523.663,28.4293,0.0,0.0
452,112.75,40.8586,43.9508,155.848,105.188,4.4985,0.00376318,0.161009,20.8565,523.643,28.4735,0.0,0.0
456,113.75,41.1314,44.2917,150.198,105.179,4.49327,0.0036765,0.159212,20.8593,523.623,28.4832,0.0,0.0
460,114.75,40.6297,43.6843,152.879,105.157,4.4776,0.00360388,0.15782,20.8612,523.613,28.5128,0.0,0.0
464,115.75,40.3219,43.4783,152.136,105.132,4.51369,0.00357042,0.156893,20.8624,523.603,28.4382,0.0,0.0
468,116.75,41.1202,44.2835,152.838,105.115,4.53411,0.00358213,0.156287,20.863,523.583,28.3959,0.0,0.0
472,117.75,40.9145,43.8451,152.698,105.097,4.50562,0.00364138,0.155916,20.8628,523.553,28.4514,0.0,0.0
476,118.75,41.0007,44.1554,151.823,105.072,4.45861,0.00371862,0.155684,20.8627,523.553,28.544,0.0,0.0
480,119.75,40.852,44.0011,145.226,105.05,4.52366,0.00379114,0.155426,20.8626,523.543,28.4112,0.0,0.0
484,120.75,40.5878,43.65,146.848,105.028,4.4814,0.00383617,0.155071,20.8628,523.523,28.4941,0.0,0.0
488,121.75,40.604,43.8281,150.2,104.993,4.48567,0.00388209,0.154572,20.8635,523.523,28.4825,0.0,0.0
492,122.75,40.8164,43.7711,151.981,104.974,4.47713,0.00391448,0.15398,20.8639,523.512,28.4981,0.0,0.0
496,123.75,40.7732,43.9523,150.486,104.936,4.48425,0.00395706,0.153569,20.8642,523.523,28.4804,0.0,0.0
500,124.75,40.3699,43.3731,149.859,104.901,4.47048,0.00401438,0.153021,20.8652,523.503,28.5052,0.0,0.0
504,125.75,40.4987,43.3799,151.055,104.877,4.4681,0.00411686,0.152486,20.8661,523.503,28.508,0.0,0.0
508,126.75,40.1962,43.3142,152.649,104.832,4.47238,0.00420172,0.151816,20.8667,523.492,28.4954,0.0,0.0
512,127.75,39.9758,43.1921,149.897,104.824,4.48235,0.0042574,0.150896,20.8683,523.503,28.4747,0.0,0.0
516,128.75,40.3675,43.4303,149.628,104.763,4.45386,0.00429168,0.149725,20.8703,523.472,28.527,0.0,0.0
520,129.75,39.8529,43.2187,158.061,104.738,4.4947,0.00431772,0.148562,20.8723,523.442,28.4424,0.0,0.0
524,130.75,40.2015,43.2483,151.088,104.706,4.48567,0.00433221,0.147296,20.8744,523.452,28.4577,0.0,0.0
528,131.75,39.8306,42.6951,151.091,104.688,4.50609,0.00433363,0.146111,20.8761,523.442,28.4152,0.0,0.0
532,132.75,40.0831,43.0278,151.777,104.634,4.4985,0.00433265,0.145015,20.8781,523.432,28.4258,0.0,0.0
536,133.75,39.6102,42.6384,147.423,104.598,4.50894,0.0043395,0.143768,20.8803,523.432,28.4017,0.0,0.0
540,134.75,39.4701,42.6491,152.695,104.561,4.51797,0.00435006,0.142502,20.8824,523.412,28.3805,0.0,0.0
544,135.75,39.2716,42.6315,149.827,104.532,4.53839,0.00435699,0.141224,20.8837,523.432,28.3372,0.0,0.0
548,136.75,39.8905,42.9011,151.45,104.502,4.50562,0.00432086,0.139938,20.8852,523.392,28.4001,0.0,0.0
552,137.75,39.672,42.6414,154.938,104.485,4.50277,0.00427458,0.138752,20.8864,523.372,28.4043,0.0,0.0
556,138.75,39.235,42.5691,152.106,104.434,4.47428,0.00425844,0.137622,20.8872,523.402,28.4573,0.0,0.0
560,139.75,39.1469,42.3095,153.277,104.42,4.49327,0.0042873,0.13651,20.8881,523.392,28.4177,0.0,0.0
564,140.75,39.1849,42.5124,150.612,104.369,4.51274,0.0043657,0.13545,20.8895,523.362,28.3743,0.0,0.0
568,141.75,39.4159,42.3518,150.787,104.354,4.5042,0.00447872,0.134402,20.8908,523.352,28.3901,0.0,0.0
572,142.75,39.2828,42.274,152.522,104.36,4.49612,0.00454736,0.133492,20.8915,523.342,28.4069,0.0,0.0
576,143.75,38.8682,41.9691,151.622,104.454,4.5004,0.00463124,0.132711,20.8927,523.332,28.4064,0.0,0.0
580,144.75,38.7951,41.8396,153.083,104.498,4.50087,0.00462968,0.132067,20.8937,523.342,28.4092,0.0,0.0
584,145.75,38.9378,41.8882,153.315,104.56,4.50515,0.0045823,0.131631,20.8943,523.312,28.406,0.0,0.0
588,146.75,38.9619,42.0878,151.258,104.606,4.52651,0.00451203,0.131129,20.8948,523.302,28.3673,0.0,0.0
592,147.75,38.4831,41.6639,150.294,104.655,4.53554,0.00445874,0.130481,20.895,523.322,28.3535,0.0,0.0
596,148.75,38.9294,41.9602,153.824,104.705,4.51607,0.00444863,0.129817,20.8958,523.302,28.3966,0.0,0.0
600,149.75,38.45,41.4538,149.292,104.758,4.48615,0.00449403,0.129252,20.8963,523.302,28.4613,0.0,0.0
604,150.75,38.392,41.2203,151.254,104.779,4.5759,0.00455507,0.128633,20.8966,523.272,28.2841,0.0,0.0
608,151.75,38.5666,41.7352,156.198,104.801,4.50847,0.00462045,0.12806,20.8971,523.242,28.4202,0.0,0.0
612,152.75,38.5457,41.573,152.1,104.825,4.47618,0.00464458,0.127548,20.8981,523.262,28.4872,0.0,0.0
616,153.75,38.299,41.0501,152.039,104.835,4.49232,0.00462271,0.127083,20.8997,523.242,28.4555,0.0,0.0
620,154.75,38.8934,41.8277,154.536,104.841,4.50657,0.00457508,0.126254,20.9012,523.232,28.4274,0.0,0.0
624,155.75,37.9998,41.2429,156.375,104.835,4.51274,0.00453788,0.125371,20.9021,523.252,28.4145,0.0,0.0
628,156.75,38.1055,41.0179,147.507,104.835,4.49802,0.00451852,0.124687,20.9026,523.252,28.444,0.0,0.0
632,157.75,38.1598,41.1107,153.293,104.817,4.48188,0.00457823,0.12428,20.9028,523.232,28.475,0.0,0.0
636,158.75,37.9282,40.85,150.733,104.796,4.54503,0.00467631,0.123939,20.903,523.202,28.3467,0.0,0.0
640,159.75,38.1739,40.9328,157.839,104.783,4.52984,0.00479581,0.123569,20.9031,523.202,28.3759,0.0,0.0
644,160.75,38.1326,41.1119,152.094,104.744,4.48378,0.00491696,0.123178,20.9032,523.162,28.4649,0.0,0.0
648,161.75,37.9349,40.745,156.604,104.726,4.51322,0.00504267,0.122798,20.9032,523.172,28.4042,0.0,0.0
652,162.75,37.9875,40.8197,153.869,104.696,4.49945,0.00517794,0.122421,20.9035,523.142,28.4292,0.0,0.0
656,163.75,37.5266,40.3819,153.406,104.658,4.4852,0.00530126,0.122044,20.9042,523.132,28.4546,0.0,0.0
660,164.75,37.4649,40.2449,155.502,104.621,4.49565,0.00547544,0.121484,20.9047,523.112,28.4304,0.0,0.0
664,165.75,37.443,40.2677,149.008,104.567,4.4966,0.00564908,0.121012,20.905,523.102,28.4238,0.0,0.0
668,166.75,37.0559,39.9898,155.979,104.51,4.54219,0.00580402,0.120497,20.9055,523.072,28.3278,0.0,0.0
672,167.75,37.8234,40.6249,147.263,104.454,4.51939,0.00592621,0.120044,20.9065,523.052,28.3683,0.0,0.0
676,168.75,37.1968,40.1264,152.856,104.367,4.49565,0.00600637,0.119556,20.9073,523.052,28.4084,0.0,0.0
680,169.75,37.4351,40.4966,149.858,104.294,4.47238,0.00605537,0.119145,20.9078,523.052,28.4489,0.0,0.0
684,170.75,37.3206,40.2776,151.526,104.225,4.4757,0.00608655,0.118742,20.9089,523.062,28.4363,0.0,0.0
688,171.75,37.2996,40.1903,151.215,104.136,4.48425,0.00610522,0.118378,20.9098,523.032,28.4113,0.0,0.0
692,172.75,37.3778,40.0851,151.086,104.039,4.50277,0.00611338,0.118065,20.9105,523.062,28.3656,0.0,0.0
696,173.75,37.4463,40.2144,152.685,103.998,4.49802,0.00611059,0.117837,20.9109,523.032,28.3717,0.0,0.0
700,174.75,36.975,39.8301,151.684,103.928,4.51939,0.00610304,0.117655,20.9112,523.012,28.3228,0.0,0.0
704,175.75,37.3586,40.1775,154.188,103.951,4.51369,0.00610385,0.11756,20.9114,523.002,28.3361,0.0,0.0
708,176.75,37.5153,39.808,150.639,103.969,4.47855,0.00613672,0.117424,20.9115,523.022,28.4083,0.0,0.0
712,177.75,36.9361,39.5758,150.712,103.984,4.43819,0.00617871,0.117231,20.9116,523.002,28.4914,0.0,0.0
716,178.75,37.0844,39.755,154.802,104.005,4.4985,0.00630444,0.116961,20.9117,523.002,28.3713,0.0,0.0
720,179.75,36.788,39.6904,150.694,104.031,4.53506,0.00644097,0.116581,20.9117,522.982,28.3004,0.0,0.0
724,180.75,37.1311,39.8687,151.429,104.061,4.49802,0.00659017,0.116123,20.9117,522.972,28.3771,0.0,0.0
728,181.75,37.1536,39.766,154.429,104.085,4.5004,0.00672906,0.115741,20.9122,523.002,28.3744,0.0,0.0
732,182.75,37.151,39.7441,149.432,104.115,4.49042,0.0068646,0.115398,20.9129,522.992,28.397,0.0,0.0
736,183.75,37.0414,39.4781,153.204,104.14,4.48852,0.00698562,0.115173,20.9133,522.972,28.403,0.0,0.0
740,184.75,36.9371,39.8375,152.304,104.169,4.52319,0.00705819,0.115018,20.9135,522.952,28.336,0.0,0.0
744,185.75,36.9831,39.7315,152.453,104.205,4.48947,0.00714703,0.114867,20.9137,522.972,28.4067,0.0,0.0
748,186.75,36.7861,39.298,158.384,104.212,4.48662,0.00722597,0.114672,20.9139,522.972,28.4131,0.0,0.0
752,187.75,37.1261,39.7147,158.376,104.247,4.53221,0.00729153,0.114528,20.9139,522.952,28.3248,0.0,0.0
756,188.75,36.6869,39.2929,156.575,104.313,4.50799,0.0073506,0.114312,20.914,522.952,28.379,0.0,0.0
760,189.75,36.7304,39.4287,154.872,104.353,4.55548,0.00739855,0.114163,20.914,522.932,28.2877,0.0,0.0
764,190.75,36.7803,39.3563,153.131,104.381,4.50989,0.00743362,0.114062,20.9141,522.932,28.381,0.0,0.0
768,191.75,36.9059,39.4144,147.235,104.417,4.48188,0.00745761,0.113913,20.9141,522.942,28.4405,0.0,0.0
772,192.75,36.7155,39.1037,150.13,104.455,4.50942,0.00748002,0.113675,20.9141,522.922,28.3884,0.0,0.0
776,193.75,36.4555,39.217,151.364,104.487,4.48235,0.00751101,0.113445,20.9141,522.912,28.4456,0.0,0.0
780,194.75,36.3648,38.8417,148.863,104.509,4.51369,0.00758929,0.113216,20.914,522.922,28.3845,0.0,0.0
784,195.75,36.4351,39.2503,150.503,104.534,4.51749,0.00768704,0.112984,20.9138,522.922,28.379,0.0,0.0
788,196.75,36.6484,39.0278,149.869,104.562,4.48567,0.00777217,0.112824,20.9137,522.942,28.4453,0.0,0.0
792,197.75,36.561,39.0226,157.366,104.577,4.52841,0.00782561,0.112757,20.9136,522.922,28.361,0.0,0.0
796,198.75,35.9607,38.601,155.769,104.596,4.52224,0.0078203,0.112661,20.9135,522.912,28.3749,0.0,0.0
800,199.75,36.4299,39.4911,153.109,104.601,4.52651,0.00774346,0.112623,20.9135,522.902,28.3668,0.0,0.0
804,200.75,36.7852,39.1642,153.012,104.596,4.57543,0.00758517,0.112807,20.9135,522.922,28.2693,0.0,0.0
808,201.75,36.4239,39.0885,150.783,104.601,4.53554,0.00744157,0.113173,20.9135,522.952,28.3488,0.0,0.0
812,202.75,36.2661,38.2072,152.224,104.599,4.53696,0.00734208,0.113551,20.9135,522.952,28.3458,0.0,0.0
816,203.75,36.6049,38.8874,152.422,104.601,4.52509,0.00731724,0.11385,20.9135,522.962,28.3697,0.0,0.0
820,204.75,36.7469,38.8607,154.823,104.603,4.4681,0.00735141,0.114012,20.9135,522.952,28.4843,0.0,0.0
824,205.75,36.558,38.9167,156.225,104.567,4.53459,0.00741315,0.114067,20.9135,522.932,28.3478,0.0,0.0
828,206.75,36.3111,38.8636,153.055,104.556,4.51322,0.00751345,0.114066,20.9135,522.912,28.3895,0.0,0.0
832,207.75,36.1674,38.421,152.44,104.535,4.49327,0.00761659,0.11402,20.9135,522.932,28.4277,0.0,0.0
836,208.75,36.577,38.5821,155.761,104.517,4.49707,0.0077443,0.113879,20.9135,522.932,28.4185,0.0,0.0
840,209.75,36.1293,38.3948,152.396,104.474,4.49422,0.0078644,0.113604,20.9135,522.922,28.4205,0.0,0.0
844,210.75,35.62,38.1099,152.242,104.441,4.4909,0.00800212,0.11324,20.9143,522.932,28.4244,0.0,0.0
848,211.75,36.0228,38.5273,150.011,104.414,4.49802,0.00813662,0.112747,20.9148,522.932,28.4077,0.0,0.0
852,212.75,35.9615,38.3259,158.183,104.376,4.50562,0.00824849,0.112205,20.9151,522.912,28.3892,0.0,0.0
856,213.75,35.9388,38.0626,157.456,104.339,4.47,0.00831916,0.11169,20.9153,522.902,28.4576,0.0,0.0
860,214.75,35.5578,38.0037,152.377,104.285,4.45671,0.00834127,0.111252,20.9159,522.912,28.4799,0.0,0.0
864,215.75,36.0863,38.3893,152.391,104.248,4.49042,0.00831903,0.110947,20.9167,522.912,28.4086,0.0,0.0
868,216.75,35.8464,38.1723,151.898,104.202,4.49992,0.00826667,0.110746,20.9172,522.902,28.3855,0.0,0.0
872,217.75,35.8912,38.0677,153.283,104.141,4.51797,0.00816047,0.110629,20.9177,522.932,28.3441,0.0,0.0
876,218.75,36.1112,38.4515,153.742,104.09,4.4966,0.0080057,0.11059,20.918,522.922,28.3825,0.0,0.0
880,219.75,36.1796,38.4346,153.893,104.039,4.47618,0.00791366,0.110578,20.9182,522.912,28.4191,0.0,0.0
884,220.75,36.0497,38.2662,155.466,103.983,4.4776,0.00780107,0.110625,20.9184,522.882,28.4114,0.0,0.0
888,221.75,36.0618,38.3976,153.558,103.932,4.47998,0.00772328,0.110691,20.9185,522.872,28.4022,0.0,0.0
892,222.75,36.1272,38.3003,154.182,103.874,4.50325,0.00767062,0.110725,20.9186,522.872,28.3504,0.0,0.0
896,223.75,36.0812,38.5975,153.341,103.839,4.48852,0.00762458,0.110817,20.9186,522.882,28.3769,0.0,0.0
900,224.75,35.9982,38.2194,150.494,103.764,4.44721,0.0075829,0.110923,20.9187,522.882,28.4539,0.0,0.0
904,225.75,35.9766,38.0441,156.172,103.706,4.47523,0.00754866,0.111016,20.9187,522.882,28.3921,0.0,0.0
908,226.75,35.673,37.9007,152.471,103.65,4.48425,0.00751478,0.111085,20.9187,522.872,28.369,0.0,0.0
912,227.75,35.8832,38.0806,155.475,103.61,4.46858,0.00747065,0.111162,20.9187,522.842,28.3972,0.0,0.0
916,228.75,35.8631,38.0442,154.052,103.56,4.4681,0.00745732,0.111195,20.9187,522.822,28.3938,0.0,0.0
920,229.75,35.9035,37.8875,152.247,103.497,4.45291,0.00749315,0.111142,20.9187,522.802,28.4191,0.0,0.0
924,230.75,35.6824,37.7295,148.749,103.461,4.4833,0.00757713,0.11116,20.919,522.822,28.3545,0.0,0.0
928,231.75,35.9227,38.0305,154.313,103.431,4.48615,0.00764405,0.111233,20.9195,522.812,28.3461,0.0,0.0
932,232.75,35.8686,38.072,153.005,103.386,4.46905,0.00775656,0.111297,20.9193,522.802,28.3767,0.0,0.0
936,233.75,35.727,37.6456,152.449,103.343,4.49422,0.00782313,0.111287,20.9191,522.812,28.3222,0.0,0.0
940,234.75,35.6439,38.0687,151.894,103.332,4.42347,0.00784854,0.111268,20.919,522.802,28.4646,0.0,0.0
944,235.75,35.7126,37.679,154.041,103.3,4.46098,0.00786082,0.111242,20.9189,522.792,28.3855,0.0,0.0
948,236.75,35.7365,37.87,150.947,103.291,4.43201,0.00787794,0.111225,20.9184,522.762,28.4435,0.0,0.0
952,237.75,35.5929,37.8223,153.987,103.288,4.46905,0.00790068,0.111214,20.9177,522.762,28.3681,0.0,0.0
956,238.75,35.7612,37.8405,152.445,103.287,4.42157,0.00791931,0.111241,20.9173,522.752,28.4645,0.0,0.0
960,239.75,35.6085,37.9871,155.182,103.277,4.42347,0.00793256,0.111261,20.917,522.732,28.4598,0.0,0.0
964,240.75,35.4887,37.7451,149.884,103.29,4.43819,0.00796287,0.111238,20.9168,522.712,28.4309,0.0,0.0
968,241.75,35.7443,37.761,154.081,103.304,4.44056,0.00800536,0.1113,20.9167,522.682,28.4273,0.0,0.0
972,242.75,35.5684,37.7754,154.492,103.339,4.45718,0.00802798,0.111341,20.9166,522.672,28.3966,0.0,0.0
976,243.75,35.7805,37.6483,152.599,103.358,4.47285,0.00800325,0.111368,20.9171,522.652,28.3666,0.0,0.0
980,244.75,35.3488,37.4025,149.011,103.398,4.45053,0.00791828,0.111308,20.9171,522.652,28.4152,0.0,0.0
984,245.75,35.094,37.3179,149.904,103.448,4.4681,0.00783389,0.111187,20.9177,522.652,28.384,0.0,0.0
988,246.75,35.7656,37.7469,152.684,103.499,4.47808,0.00776386,0.111126,20.918,522.672,28.3683,0.0,0.0
992,247.75,35.8581,37.9646,151.983,103.551,4.5042,0.00771561,0.111179,20.9177,522.672,28.3203,0.0,0.0
996,248.75,35.7769,37.688,153.373,103.606,4.49802,0.00769085,0.111277,20.9172,522.652,28.3375,0.0,0.0
1000,249.75,35.5269,37.544,151.537,103.681,4.48567,0.00767823,0.111434,20.917,522.642,28.3689,0.0,0.0
1004,250.75,35.5295,37.5739,154.258,103.753,4.46288,0.00767454,0.111573,20.9168,522.622,28.4212,0.0,0.0
1008,251.75,35.4424,37.4421,149.698,103.827,4.53316,0.00769483,0.111714,20.9167,522.632,28.2865,0.0,0.0
1012,252.75,35.5758,37.5589,153.448,103.912,4.4928,0.0077432,0.111898,20.9166,522.642,28.3747,0.0,0.0
1016,253.75,35.3047,37.4869,154.425,103.986,4.54029,0.00779861,0.112019,20.9165,522.652,28.2861,0.0,0.0
1020,254.75,35.4983,37.3695,152.187,104.092,4.53364,0.00791783,0.111995,20.9165,522.602,28.3086,0.0,0.0
1024,255.75,35.7257,37.8921,152.159,104.153,4.53601,0.00806518,0.111901,20.9165,522.632,28.3091,0.0,0.0
1028,256.75,35.7338,37.6569,153.741,104.237,4.52461,0.0082472,0.111778,20.9171,522.642,28.3392,0.0,0.0
1032,257.75,35.6286,37.743,152.026,104.305,4.52794,0.00842205,0.111623,20.9177,522.642,28.3384,0.0,0.0
1036,258.75,35.7651,37.6045,152.791,104.383,4.51084,0.00857373,0.111432,20.918,522.632,28.3793,0.0,0.0
1040,259.75,35.6842,37.5327,150.881,104.453,4.54266,0.00867788,0.111287,20.9183,522.602,28.3219,0.0,0.0
1044,260.75,35.5492,37.5114,145.079,104.528,4.57163,0.00872198,0.111203,20.9184,522.592,28.2709,0.0,0.0
1048,261.75,35.5812,37.7315,150.353,104.599,4.52177,0.00866768,0.111147,20.9185,522.582,28.3762,0.0,0.0
1052,262.75,35.5153,37.3551,153.596,104.671,4.52841,0.00857314,0.111111,20.9184,522.592,28.3691,0.0,0.0
1056,263.75,35.4078,37.5629,149.134,104.74,4.50325,0.00845001,0.111111,20.9185,522.582,28.4254,0.0,0.0
1060,264.75,35.5123,37.388,154.021,104.8,4.51702,0.00830829,0.110947,20.919,522.602,28.403,0.0,0.0
1064,265.75,35.3061,37.4241,155.796,104.853,4.54693,0.00821139,0.110796,20.9194,522.592,28.3479,0.0,0.0
1068,266.75,35.6458,37.3227,153.744,104.924,4.52651,0.00817426,0.110463,20.9196,522.572,28.3947,0.0,0.0
1072,267.75,35.541,37.2419,154.554,104.971,4.54266,0.00818257,0.110285,20.9198,522.582,28.3666,0.0,0.0
1076,268.75,35.5802,37.4035,152.443,105.028,4.574,0.00825342,0.110262,20.9199,522.582,28.3093,0.0,0.0
1080,269.75,35.9811,37.3454,150.087,105.067,4.60914,0.00834657,0.11035,20.9199,522.582,28.2435,0.0,0.0
1084,270.75,35.383,37.4515,155.295,105.114,4.55121,0.00841746,0.110401,20.92,522.562,28.3619,0.0,0.0
1088,271.75,35.5956,37.3502,151.423,105.158,4.52414,0.00845539,0.110404,20.9202,522.552,28.4195,0.0,0.0
1092,272.75,35.3946,37.2407,158.642,105.171,4.5778,0.00846875,0.11038,20.9204,522.562,28.3141,0.0,0.0
1096,273.75,35.5704,37.5534,151.05,105.2,4.55168,0.00847506,0.110346,20.9206,522.582,28.3683,0.0,0.0
1100,274.75,35.2728,37.0709,153.897,105.232,4.50942,0.00848793,0.110359,20.9207,522.592,28.4553,0.0,0.0
1104,275.75,35.479,37.4862,149.664,105.244,4.55406,0.00851764,0.110387,20.9208,522.602,28.3674,0.0,0.0
1108,276.75,35.3194,37.2175,153.58,105.258,4.58872,0.00855561,0.110404,20.9208,522.632,28.3001,0.0,0.0
1112,277.75,35.475,37.4254,149.669,105.256,4.53649,0.0086036,0.110355,20.9208,522.632,28.4034,0.0,0.0
1116,278.75,35.3496,37.2136,156.122,105.26,4.57163,0.00867899,0.11032,20.9209,522.612,28.3339,0.0,0.0
1120,279.75,35.4925,37.4563,152.561,105.264,4.50372,0.00879999,0.110323,20.9209,522.622,28.4695,0.0,0.0
1124,280.75,35.31,37.2577,154.666,105.256,4.55121,0.00890727,0.110294,20.9209,522.632,28.3741,0.0,0.0
1128,281.75,35.1537,37.0165,152.938,105.247,4.54931,0.00896231,0.110226,20.9209,522.622,28.3771,0.0,0.0
1132,282.75,35.7261,37.3684,155.184,105.235,4.55691,0.00895152,0.110183,20.9209,522.602,28.361,0.0,0.0
1136,283.75,35.2601,37.1303,155.56,105.221,4.53886,0.00890038,0.11021,20.9209,522.612,28.3956,0.0,0.0
1140,284.75,35.1709,37.1816,152.755,105.18,4.49185,0.00882213,0.110263,20.9209,522.602,28.4861,0.0,0.0
1144,285.75,35.689,37.412,151.958,105.162,4.51702,0.00877135,0.11022,20.9209,522.582,28.4341,0.0,0.0
1148,286.75,35.5168,37.3163,154.78,105.129,4.52746,0.00874989,0.110139,20.9209,522.572,28.4104,0.0,0.0
1152,287.75,35.3558,37.293,152.559,105.088,4.58682,0.00877946,0.110127,20.921,522.562,28.2892,0.0,0.0
1156,288.75,35.4941,37.2518,158.9,105.067,4.54931,0.00882218,0.11013,20.921,522.572,28.3616,0.0,0.0
1160,289.75,35.4027,37.2188,151.659,105.025,4.50894,0.00885094,0.110132,20.921,522.542,28.4385,0.0,0.0
1164,290.75,35.3483,37.1735,150.976,104.977,4.49992,0.00882477,0.110134,20.921,522.542,28.4525,0.0,0.0
1168,291.75,35.1992,36.9514,150.481,104.937,4.52272,0.00876173,0.110155,20.921,522.542,28.4034,0.0,0.0
1172,292.75,35.2739,37.0917,154.012,104.9,4.52509,0.00861655,0.110232,20.921,522.552,28.3955,0.0,0.0
1176,293.75,35.4435,37.0221,155.375,104.849,4.50752,0.00844066,0.110358,20.921,522.542,28.4262,0.0,0.0
1180,294.75,35.3116,37.1607,149.701,104.805,4.49042,0.00828173,0.110492,20.921,522.522,28.4567,0.0,0.0
1184,295.75,35.3246,37.0468,155.265,104.752,4.49945,0.00816775,0.110619,20.921,522.512,28.4341,0.0,0.0
1188,296.75,35.5352,37.1182,154.104,104.722,4.50609,0.00810322,0.110738,20.921,522.512,28.4181,0.0,0.0
1192,297.75,35.3591,37.1709,154.917,104.663,4.5023,0.00808014,0.110817,20.921,522.512,28.4206,0.0,0.0
1196,298.75,35.2942,37.0179,151.558,104.617,4.52556,0.00810739,0.110894,20.921,522.522,28.3701,0.0,0.0
1200,299.75,35.0044,36.6954,154.933,104.583,4.49565,0.00817433,0.110823,20.921,522.522,28.4271,0.0,0.0
1204,300.75,35.1153,36.9573,153.071,104.539,4.55501,0.00826495,0.110702,20.921,522.502,28.3047,0.0,0.0
1208,301.75,35.2568,36.8207,150.501,104.504,4.52129,0.00835058,0.110617,20.921,522.502,28.3689,0.0,0.0
1212,302.75,35.0811,37.0785,151.573,104.48,4.52889,0.00839767,0.110679,20.921,522.502,28.3517,0.0,0.0
1216,303.75,35.2485,37.0436,152.114,104.436,4.50942,0.00839523,0.110792,20.921,522.502,28.3868,0.0,0.0
1220,304.75,35.1796,36.914,152.369,104.397,4.47713,0.00836239,0.110893,20.921,522.502,28.4482,0.0,0.0
1224,305.75,35.3066,37.3275,152.529,104.361,4.4719,0.00832101,0.11097,20.921,522.482,28.4557,0.0,0.0
1228,306.75,35.299,37.0556,151.594,104.353,4.48615,0.00829919,0.110995,20.921,522.492,28.4263,0.0,0.0
1232,307.75,35.0995,36.7619,150.314,104.416,4.48235,0.00830022,0.110881,20.921,522.482,28.4394,0.0,0.0
1236,308.75,35.48,37.0705,151.041,104.481,4.50704,0.00830914,0.110755,20.921,522.472,28.3954,0.0,0.0
1240,309.75,35.3437,37.1734,153.445,104.531,4.48093,0.00832647,0.110631,20.9209,522.472,28.4522,0.0,0.0
1244,310.75,35.4698,37.2843,148.626,104.607,4.46763,0.00836878,0.11058,20.9206,522.442,28.4856,0.0,0.0
1248,311.75,34.7255,36.771,155.363,104.641,4.50515,0.00843288,0.11058,20.9204,522.432,28.413,0.0,0.0
1252,312.75,35.4425,37.1361,149.803,104.692,4.52082,0.00852078,0.110635,20.9203,522.422,28.3861,0.0,0.0
1256,313.75,35.3704,37.2538,150.739,104.733,4.48378,0.00865322,0.110671,20.9202,522.411,28.4639,0.0,0.0
1260,314.75,35.5446,36.9543,157.842,104.757,4.45481,0.00876471,0.110716,20.9202,522.372,28.5245,0.0,0.0
1264,315.75,35.3761,36.8487,153.283,104.78,4.45243,0.00885636,0.11073,20.9201,522.351,28.5313,0.0,0.0
1268,316.75,35.1359,36.9958,155.782,104.811,4.52604,0.00891138,0.110676,20.9201,522.351,28.3859,0.0,0.0
1272,317.75,34.8385,36.9141,154.165,104.824,4.40827,0.00893056,0.110594,20.9201,522.331,28.6252,0.0,0.0
1276,318.75,35.5631,37.3432,154.505,104.862,4.49327,0.00892258,0.110541,20.9201,522.321,28.4559,0.0,0.0
1280,319.75,35.0974,36.9499,149.264,104.848,4.49755,0.00889374,0.110506,20.9201,522.311,28.4461,0.0,0.0
1284,320.75,35.6257,36.871,157.107,104.852,4.52841,0.00884327,0.11056,20.9201,522.311,28.3847,0.0,0.0
1288,321.75,35.1067,36.7575,151.271,104.859,4.49137,0.00877552,0.1107,20.9201,522.321,28.4595,0.0,0.0
1292,322.75,35.4881,37.1234,151.231,104.851,4.53411,0.00871556,0.11087,20.9201,522.341,28.3732,0.0,0.0
1296,323.75,34.9886,37.3298,148.827,104.838,4.52604,0.00863239,0.111085,20.9194,522.331,28.3882,0.0,0.0
1300,324.75,35.2413,36.7634,150.579,104.825,4.52461,0.00855237,0.111278,20.9188,522.301,28.3899,0.0,0.0
1304,325.75,35.0265,36.9314,152.652,104.798,4.50799,0.00849685,0.111405,20.9185,522.281,28.4209,0.0,0.0
1308,326.75,35.4338,36.9751,152.144,104.785,4.56878,0.00848263,0.111488,20.9182,522.301,28.2987,0.0,0.0
1312,327.75,35.5529,37.1552,153.457,104.741,4.53364,0.00850536,0.111509,20.9183,522.271,28.3647,0.0,0.0
1316,328.75,35.0904,36.9056,153.99,104.698,4.46241,0.00854773,0.111504,20.9189,522.271,28.5041,0.0,0.0
1320,329.75,35.4107,37.0969,152.594,104.657,4.53554,0.00858689,0.111605,20.9193,522.271,28.3536,0.0,0.0
1324,330.75,35.5488,37.1676,152.445,104.611,4.51607,0.00863337,0.111645,20.9195,522.261,28.3885,0.0,0.0
1328,331.75,35.0294,36.8626,156.588,104.551,4.52604,0.00866155,0.111568,20.9195,522.251,28.3634,0.0,0.0
1332,332.75,35.0602,36.7365,150.613,104.501,4.51607,0.00866984,0.111455,20.919,522.261,28.379,0.0,0.0
1336,333.75,35.2276,36.9559,149.79,104.434,4.53174,0.0086568,0.111408,20.9187,522.231,28.342,0.0,0.0
1340,334.75,35.5546,37.003,153.027,104.362,4.52509,0.00862723,0.111412,20.9179,522.241,28.349,0.0,0.0
1344,335.75,35.0896,36.9989,153.53,104.283,4.48995,0.00859079,0.111441,20.9174,522.241,28.4126,0.0,0.0
1348,336.75,35.1269,36.9584,147.467,104.209,4.48235,0.00855906,0.111408,20.9171,522.251,28.4215,0.0,0.0
1352,337.75,35.1207,36.6176,151.249,104.162,4.47143,0.00853697,0.111304,20.9169,522.251,28.4394,0.0,0.0
1356,338.75,35.2026,36.91,152.722,104.051,4.51322,0.00852897,0.111153,20.9167,522.241,28.3458,0.0,0.0
1360,339.75,35.1621,36.9843,152.371,103.961,4.47475,0.00852162,0.111061,20.9166,522.261,28.4152,0.0,0.0
1364,340.75,35.3527,37.0016,152.927,103.929,4.49612,0.00849388,0.110977,20.9166,522.221,28.3695,0.0,0.0
1368,341.75,34.8177,36.6543,153.412,103.954,4.47618,0.00845626,0.110957,20.9165,522.201,28.4118,0.0,0.0
1372,342.75,34.6025,36.4006,155.506,103.963,4.48615,0.00842893,0.11098,20.9169,522.201,28.3925,0.0,0.0
1376,343.75,34.9337,36.5302,153.283,103.969,4.52224,0.00841807,0.111053,20.9175,522.201,28.3206,0.0,0.0
1380,344.75,35.1049,36.699,152.084,104.002,4.50087,0.00842567,0.111127,20.9172,522.201,28.3663,0.0,0.0
1384,345.75,35.4601,36.9924,152.69,104.032,4.4871,0.00844665,0.111254,20.9169,522.191,28.3966,0.0,0.0
1388,346.75,35.3988,37.0223,158.697,104.039,4.50325,0.00845132,0.111337,20.9166,522.211,28.3647,0.0,0.0
1392,347.75,34.7487,36.4401,150.391,104.075,4.51132,0.0084335,0.111363,20.9162,522.191,28.3516,0.0,0.0
1396,348.75,35.3115,36.8096,152.987,104.103,4.51749,0.00839644,0.111369,20.916,522.201,28.3417,0.0,0.0
1400,349.75,34.9309,36.6463,153.3,104.126,4.50087,0.00835033,0.111384,20.9158,522.181,28.377,0.0,0.0
1404,350.75,34.9812,36.5989,149.703,104.14,4.45956,0.00830404,0.111424,20.9158,522.201,28.4616,0.0,0.0
1408,351.75,35.8879,37.633,154.125,104.174,4.49375,0.00825523,0.111531,20.9157,522.231,28.3955,0.0,0.0
1412,352.75,35.4348,37.2196,152.783,104.199,4.47903,0.00821497,0.11162,20.9156,522.251,28.4273,0.0,0.0
1416,353.75,35.3808,37.0551,150.804,104.205,4.45006,0.00820255,0.111679,20.9156,522.241,28.4864,0.0,0.0
1420,354.75,33.509,35.3239,148.875,104.225,4.52699,0.00820574,0.111615,20.9156,522.271,28.3333,0.0,0.0
1424,355.75,35.309,37.0611,154.17,104.267,4.49802,0.0082605,0.111504,20.916,522.261,28.395,0.0,0.0
1428,356.75,35.8791,37.3914,150.966,104.255,4.49992,0.00833071,0.111369,20.9165,522.251,28.3902,0.0,0.0
1432,357.75,34.6613,36.5423,153.648,104.324,4.51322,0.00837549,0.111251,20.917,522.241,28.3694,0.0,0.0
1436,358.75,34.5964,36.5955,152.475,104.353,4.50704,0.00837845,0.111137,20.9173,522.241,28.3843,0.0,0.0
1440,359.75,34.5583,36.4096,153.701,104.381,4.4871,0.00836065,0.111026,20.9175,522.241,28.4268,0.0,0.0
1444,360.75,34.5626,36.4303,152.265,104.422,4.45148,0.00831422,0.110954,20.9176,522.231,28.5023,0.0,0.0
1448,361.75,34.3479,36.5775,153.699,104.441,4.51939,0.00826764,0.110886,20.9177,522.241,28.3673,0.0,0.0
1452,362.75,34.469,36.404,154.413,104.455,4.4966,0.00824243,0.110875,20.9186,522.221,28.4141,0.0,0.0
1456,363.75,34.6355,36.6674,153.351,104.483,4.47665,0.00823897,0.110909,20.9192,522.191,28.4567,0.0,0.0
1460,364.75,35.0627,36.7459,155.681,104.498,4.4928,0.00826575,0.110955,20.9195,522.201,28.4254,0.0,0.0
1464,365.75,35.0485,36.3433,149.871,104.525,4.49185,0.00831113,0.110928,20.9198,522.201,28.4297,0.0,0.0
1468,366.75,35.0854,36.4055,151.465,104.54,4.47,0.00835401,0.110841,20.92,522.201,28.4751,0.0,0.0
1472,367.75,34.4251,36.1511,155.236,104.53,4.49232,0.00838236,0.110728,20.9204,522.201,28.4291,0.0,0.0
1476,368.75,35.0491,36.2647,155.248,104.553,4.50989,0.00836332,0.110603,20.9206,522.211,28.3959,0.0,0.0
1480,369.75,35.1651,36.2655,155.728,104.573,4.49755,0.00830425,0.110653,20.9208,522.221,28.4224,0.0,0.0
1484,370.75,34.7878,35.7226,156.421,104.568,4.50894,0.00824282,0.110747,20.9209,522.201,28.3991,0.0,0.0
1488,371.75,34.7885,36.6707,152.726,104.579,4.50135,0.00817949,0.110784,20.921,522.191,28.4153,0.0,0.0
1492,372.75,34.7846,36.6026,150.838,104.579,4.46051,0.00817396,0.110818,20.921,522.201,28.4976,0.0,0.0
1496,373.75,34.4554,36.4801,153.725,104.586,4.51084,0.0081854,0.110928,20.9211,522.181,28.3969,0.0,0.0
1500,374.75,34.4333,36.5268,151.926,104.588,4.54409,0.00820449,0.110993,20.9211,522.181,28.3307,0.0,0.0
1504,375.75,34.7309,36.141,152.934,104.59,4.52319,0.00819837,0.111016,20.9211,522.171,28.3725,0.0,0.0
1508,376.75,34.6004,36.3703,155.57,104.573,4.44911,0.00817547,0.111053,20.9211,522.181,28.5202,0.0,0.0
1512,377.75,34.7161,36.7119,156.208,104.565,4.47903,0.00814912,0.110974,20.9207,522.161,28.459,0.0,0.0
1516,378.75,34.5647,36.3765,153.135,104.566,4.53696,0.00811571,0.110896,20.92,522.171,28.343,0.0,0.0
1520,379.75,34.5946,36.2993,153.602,104.572,4.46383,0.00805519,0.110819,20.9192,522.161,28.4902,0.0,0.0
1524,380.75,34.8004,36.4929,153.42,104.545,4.53079,0.00802112,0.110769,20.9187,522.121,28.3535,0.0,0.0
1528,381.75,34.7292,36.2291,150.219,104.542,4.51132,0.00800856,0.110811,20.9184,522.111,28.3921,0.0,0.0
1532,382.75,34.5101,35.7079,148.945,104.524,4.44056,0.00800953,0.110818,20.9181,522.121,28.5334,0.0,0.0
1536,383.75,34.7872,36.4797,156.25,104.504,4.4985,0.00801477,0.110774,20.918,522.111,28.4145,0.0,0.0
1540,384.75,34.5646,36.0169,153.554,104.487,4.50609,0.00802511,0.110668,20.9185,522.141,28.3978,0.0,0.0
1544,385.75,35.0518,36.5617,152.508,104.471,4.51417,0.00803317,0.110592,20.9191,522.121,28.3803,0.0,0.0
1548,386.75,34.3318,35.8989,154.029,104.453,4.44389,0.0080344,0.110508,20.9194,522.131,28.5205,0.0,0.0
1552,387.75,34.5821,36.3646,154.485,104.418,4.5004,0.00802841,0.110414,20.9196,522.091,28.4033,0.0,0.0
1556,388.75,34.7919,36.3155,153.012,104.391,4.51654,0.00801795,0.11037,20.9198,522.071,28.3686,0.0,0.0
1560,389.75,34.697,36.2014,148.834,104.358,4.49565,0.00800372,0.11042,20.9199,522.051,28.4076,0.0,0.0
1564,390.75,34.4333,36.5104,151.89,104.33,4.52889,0.00796173,0.110411,20.9199,522.061,28.3387,0.0,0.0
1568,391.75,34.8217,36.2138,154.412,104.302,4.49517,0.00789829,0.110333,20.92,522.081,28.4037,0.0,0.0
1572,392.75,34.4565,36.435,155.405,104.279,4.51702,0.00778222,0.110307,20.92,522.051,28.358,0.0,0.0
1576,393.75,34.6546,36.797,154.331,104.232,4.50182,0.00761157,0.110341,20.92,522.031,28.3843,0.0,0.0
1580,394.75,34.4638,36.1807,155.069,104.193,4.4966,0.00746271,0.11036,20.92,522.021,28.3914,0.0,0.0
1584,395.75,34.4973,36.138,149.291,104.16,4.50657,0.00737235,0.110369,20.92,522.021,28.3686,0.0,0.0
1588,396.75,34.7134,36.1909,154.055,104.128,4.48995,0.00733814,0.110393,20.92,521.981,28.3992,0.0,0.0
1592,397.75,34.7675,36.49,152.406,104.083,4.51607,0.00733167,0.110383,20.92,521.991,28.3429,0.0,0.0
1596,398.75,34.5845,36.7435,153.57,104.045,4.50989,0.00733564,0.110487,20.92,522.001,28.3519,0.0,0.0
1600,399.75,34.1789,36.1325,151.512,104.008,4.53886,0.0073566,0.110574,20.92,521.991,28.2908,0.0,0.0
1604,400.75,34.6381,36.6073,153.116,103.961,4.49612,0.0073933,0.11058,20.92,521.981,28.3722,0.0,0.0
1608,401.75,34.168,36.0125,148.202,103.918,4.4947,0.00743006,0.110583,20.92,521.981,28.3714,0.0,0.0
1612,402.75,34.7413,36.2158,152.073,103.873,4.53126,0.00750036,0.110578,20.9203,521.971,28.2943,0.0,0.0
1616,403.75,34.3311,36.3367,153.839,103.823,4.50752,0.00757278,0.110556,20.9204,521.971,28.3374,0.0,0.0
1620,404.75,34.4288,36.1831,151.587,103.796,4.50847,0.0076405,0.110603,20.9205,521.931,28.3331,0.0,0.0
1624,405.75,34.4525,36.2412,151.007,103.75,4.49327,0.00769213,0.110691,20.9206,521.951,28.3596,0.0,0.0
1628,406.75,34.4943,36.0274,153.529,103.69,4.4757,0.00772831,0.11078,20.9206,521.951,28.3898,0.0,0.0
1632,407.75,34.1764,36.0358,152.624,103.653,4.48757,0.00772905,0.110804,20.9213,521.931,28.3626,0.0,0.0
1636,408.75,34.5915,35.9435,154.048,103.612,4.5004,0.007706,0.110685,20.9219,521.941,28.3333,0.0,0.0
1640,409.75,34.1157,35.8856,155.401,103.566,4.489,0.00767731,0.110552,20.9223,521.941,28.3522,0.0,0.0
1644,410.75,34.2059,35.9158,152.635,103.543,4.47998,0.00765907,0.110386,20.9225,521.951,28.3684,0.0,0.0
1648,411.75,34.2126,35.8612,158.284,103.491,4.4871,0.00764727,0.110223,20.9227,521.941,28.3495,0.0,0.0
1652,412.75,34.7527,35.9132,150.927,103.458,4.52224,0.00764266,0.110089,20.9228,521.921,28.2761,0.0,0.0
1656,413.75,34.6169,36.0705,151.774,103.416,4.46715,0.00760624,0.110106,20.9229,521.931,28.3832,0.0,0.0
1660,414.75,34.0223,35.575,150.873,103.38,4.51369,0.00753643,0.110076,20.9223,521.911,28.2864,0.0,0.0
1664,415.75,34.8878,36.0812,150.47,103.352,4.44626,0.00744934,0.110045,20.9217,521.911,28.4199,0.0,0.0
1668,416.75,34.5365,35.9738,151.296,103.328,4.4833,0.00736697,0.110039,20.9214,521.901,28.3429,0.0,0.0
1672,417.75,34.8472,35.9404,152.748,103.323,4.52082,0.00729848,0.110032,20.9218,521.901,28.2672,0.0,0.0
1676,418.75,34.6108,35.7013,151.673,103.288,4.46241,0.00724049,0.109945,20.9222,521.891,28.3816,0.0,0.0
1680,419.75,34.3159,36.2663,154.673,103.268,4.50087,0.00720578,0.109829,20.9225,521.871,28.3023,0.0,0.0
1684,420.75,34.608,36.4203,151.168,103.249,4.45196,0.00719646,0.109776,20.9227,521.891,28.3993,0.0,0.0
1688,421.75,34.4748,35.9795,158.597,103.246,4.4719,0.00720935,0.109796,20.9228,521.881,28.3587,0.0,0.0
1692,422.75,34.2367,35.7447,150.438,103.244,4.51132,0.00723245,0.109913,20.9229,521.881,28.2792,0.0,0.0
1696,423.75,34.4689,35.9527,151.563,103.244,4.51559,0.0072476,0.110068,20.9229,521.891,28.2707,0.0,0.0
1700,424.75,34.336,36.2758,156.169,103.235,4.52366,0.00724488,0.110149,20.9225,521.911,28.2538,0.0,0.0
1704,425.75,34.0899,36.093,150.449,103.255,4.51322,0.00720573,0.110197,20.9222,521.911,28.2764,0.0,0.0
1708,426.75,34.723,36.2468,155.15,103.26,4.51322,0.00713948,0.110236,20.922,521.941,28.2768,0.0,0.0
1712,427.75,33.9606,36.2403,151.687,103.259,4.44674,0.00701482,0.110264,20.9219,521.931,28.4108,0.0,0.0
1716,428.75,34.4997,36.2913,152.327,103.279,4.45148,0.00683245,0.110246,20.9214,521.941,28.4029,0.0,0.0
1720,429.75,34.3857,35.8921,148.972,103.297,4.45956,0.00664202,0.110183,20.9207,521.941,28.3881,0.0,0.0
1724,430.75,33.9787,36.5035,153.181,103.32,4.42537,0.00650618,0.110182,20.9203,521.931,28.4597,0.0,0.0
1728,431.75,34.526,36.077,156.325,103.349,4.45243,0.00645449,0.110235,20.9197,521.951,28.4071,0.0,0.0
1732,432.75,34.2368,35.7463,149.477,103.369,4.4719,0.0065025,0.110318,20.9193,521.971,28.3694,0.0,0.0
1736,433.75,34.29,36.3047,152.222,103.41,4.46003,0.00655875,0.110391,20.919,521.951,28.3971,0.0,0.0
1740,434.75,34.3442,36.3498,155.868,103.438,4.4097,0.00667028,0.110464,20.9189,521.941,28.5021,0.0,0.0
1744,435.75,34.2984,35.5476,154.435,103.482,4.50515,0.00673201,0.110531,20.9188,521.911,28.3124,0.0,0.0
1748,436.75,34.1391,36.1301,153.892,103.539,4.47998,0.00672447,0.110524,20.9191,521.931,28.368,0.0,0.0
1752,437.75,34.3133,35.6986,153.736,103.574,4.4738,0.00665552,0.110446,20.9197,521.911,28.3835,0.0,0.0
1756,438.75,34.1213,36.0032,153.32,103.621,4.48615,0.00656004,0.110323,20.9201,521.911,28.3627,0.0,0.0
1760,439.75,34.5959,36.3963,157.686,103.687,4.47713,0.00646315,0.110216,20.9204,521.911,28.3866,0.0,0.0
1764,440.75,33.9311,35.9951,154.334,103.72,4.4757,0.00640092,0.110135,20.9205,521.931,28.3924,0.0,0.0
1768,441.75,34.3689,35.7646,152.677,103.772,4.4871,0.00637631,0.110122,20.9206,521.931,28.3739,0.0,0.0
1772,442.75,34.3695,35.5978,152.544,103.831,4.55311,0.00637906,0.110167,20.9209,521.921,28.2472,0.0,0.0
1776,443.75,34.7006,35.5996,151.402,103.878,4.52224,0.00639838,0.110232,20.9212,521.921,28.3127,0.0,0.0
1780,444.75,33.6475,35.9974,154.131,103.938,4.52366,0.00641364,0.110148,20.9213,521.891,28.315,0.0,0.0
1784,445.75,34.4761,36.2468,151.823,104,4.47048,0.00642203,0.110112,20.9215,521.881,28.4273,0.0,0.0
1788,446.75,34.5072,35.8953,153.284,104.071,4.51987,0.00641996,0.110095,20.9216,521.881,28.3342,0.0,0.0
1792,447.75,34.3527,36.1028,152.877,104.115,4.46193,0.00641247,0.110057,20.9215,521.851,28.4546,0.0,0.0
1796,448.75,33.7683,35.4589,151.849,104.172,4.48093,0.00638929,0.110033,20.9213,521.851,28.4211,0.0,0.0
1800,449.75,34.3244,35.8129,149.575,104.246,4.44958,0.00637637,0.110017,20.9212,521.851,28.491,0.0,0.0
1804,450.75,33.9206,35.6288,153.347,104.308,4.49137,0.00635648,0.110084,20.9212,521.851,28.4118,0.0,0.0
1808,451.75,34.2367,36.1169,154.518,104.382,4.51559,0.0063092,0.110114,20.9211,521.841,28.3697,0.0,0.0
1812,452.75,34.2148,36.0428,153.046,104.438,4.52414,0.00624169,0.110142,20.9211,521.841,28.3575,0.0,0.0
1816,453.75,34.1127,35.7899,154.992,104.506,4.51369,0.00618841,0.110095,20.9211,521.851,28.3842,0.0,0.0
1820,454.75,34.3083,36.284,156.798,104.548,4.52841,0.00616497,0.11002,20.9211,521.841,28.3584,0.0,0.0
1824,455.75,34.3542,36.0968,153.534,104.605,4.54171,0.00619815,0.109967,20.9211,521.841,28.3369,0.0,0.0
1828,456.75,34.2327,36.2281,151.861,104.656,4.54931,0.00626416,0.109896,20.9211,521.851,28.3262,0.0,0.0
1832,457.75,34.0729,36.1761,151.644,104.707,4.54456,0.00632852,0.109849,20.9211,521.841,28.34,0.0,0.0
1836,458.75,34.4621,35.9818,150.641,104.776,4.53934,0.00636743,0.109766,20.9215,521.821,28.3563,0.0,0.0
1840,459.75,34.4076,35.8556,149.588,104.814,4.5683,0.00638087,0.109608,20.9221,521.841,28.3021,0.0,0.0
1844,460.75,34.0461,35.988,153.393,104.851,4.55596,0.00637998,0.109546,20.9226,521.821,28.3298,0.0,0.0
1848,461.75,34.0948,36.0619,150.653,104.905,4.51179,0.00634162,0.109536,20.9226,521.811,28.4224,0.0,0.0
1852,462.75,34.3907,36.1615,151.265,104.945,4.55691,0.00626598,0.109556,20.9221,521.791,28.3361,0.0,0.0
1856,463.75,34.3089,35.9035,152.142,104.988,4.54646,0.00616714,0.10956,20.9217,521.771,28.3604,0.0,0.0
1860,464.75,34.4759,35.8595,154.994,105.022,4.53221,0.00605858,0.109551,20.9215,521.741,28.3917,0.0,0.0
1864,465.75,34.3643,36.5984,150.632,105.068,4.54883,0.00597796,0.109467,20.9213,521.751,28.3626,0.0,0.0
1868,466.75,34.2385,35.9229,151.858,105.102,4.55168,,0.109248,,521.741,28.3598,0.0,0.0
1872,467.75,34.2546,36.1542,154.086,105.14,4.53079,,0.109143,,521.731,28.4048,0.0,0.0
1876,468.75,34.2908,36.3115,148.866,105.15,4.61009,,0.109167,,521.711,28.2488,0.0,0.0
1880,469.75,34.2432,35.7123,150.901,105.161,4.53554,,,,521.721,28.397,0.0,0.0
1884,470.75,33.949,36.3962,153.828,105.189,4.56783,,,,521.731,28.3354,0.0,0.0
1888,471.75,34.3705,35.3834,151.076,105.202,4.57353,,,,521.731,28.3252,0.0,0.0
1892,472.75,34.5227,35.6582,156.689,105.222,4.57685,,,,521.721,28.3204,0.0,0.0
1896,473.75,34.0709,35.9634,151.668,105.232,4.53079,,,,521.701,28.4126,0.0,0.0
1900,474.75,34.3433,36.0126,152.042,105.234,4.48662,,,,521.701,28.5013,0.0,0.0
1904,475.75,34.3264,35.9435,151.742,105.238,4.60297,,,,521.691,28.2704,0.0,0.0
1908,476.75,34.326,35.9978,152.276,105.241,4.54076,,,,521.681,28.3936,0.0,0.0
1911,477.5,34.249,36.2966,154.642,105.241,4.57543,,,,521.731,28.3248,0.0,0.0