File: 01_Data/Polyisocyanurate_Foam_Board/Cone/Polyisocyanurate_Foam_Board_Cone_HF50Scan_221129_R3.csv
Names,Time,Stack TC,Smoke TC,Exh Press,Smoke Comp,Smoke Meas,CO Meter,CO2 Meter,O2 Meter,Sample Mass,Ext Coeff,Start Test,Flame Verif
Chan Gain,,500,500,1,1,1,1,1,1,1,1,1.0,1.0
Offset,,0,0,0.13918,0,0,0,0,0,0,0,0.0,0.0
Gain,,1,1,25.011,14.0162,15.5607,1,1,1,1.0009,1.02981,1.0,1.0
Units,sec,C,C,Pa,%,%,%,%,%,g,/m,,
Baseline,,32.6215,33.8718,155.268,104.066,4.41305,0.000975547,0.0966528,20.9418,-0.673776,28.5499,,
4,0.75,31.0673,32.1354,154.457,105.132,4.47998,0.00428748,0.121958,20.9199,524.684,28.5059,0.0,1.0
8,1.75,31.6246,32.5706,144.847,105.167,4.24729,0.00668334,0.136334,20.889,524.543,28.9908,0.0,1.0
12,2.75,31.9226,32.8368,139.125,105.205,4.02077,0.00952211,0.179817,20.8225,524.333,29.4891,0.0,1.0
16,3.75,32.9491,33.3256,141.329,105.232,3.96094,0.012148,0.227653,20.7334,524.313,29.6269,0.0,1.0
20,4.75,33.7675,33.751,139.057,105.257,4.12714,0.0150703,0.279418,20.6549,524.233,29.2577,0.0,1.0
24,5.75,35.133,34.2062,136.729,105.291,3.8954,0.0174139,0.327588,20.5842,524.053,29.7826,0.0,0.0
28,6.75,36.0643,35.255,137.258,105.295,3.95191,0.0190581,0.366583,20.5292,523.923,29.6528,0.0,0.0
32,7.75,37.0111,36.3595,137.262,105.308,3.86074,0.0200854,0.397325,20.4869,523.803,29.8648,0.0,0.0
36,8.75,37.68,37.3933,142.202,105.321,3.74202,0.0205536,0.421364,20.4535,523.703,30.148,0.0,0.0
40,9.75,38.6739,38.2083,135.019,105.332,3.82085,0.0205349,0.438385,20.4316,523.523,29.9608,0.0,0.0
44,10.75,39.4021,39.0949,138.035,105.33,3.72777,0.020351,0.448704,20.4172,523.462,30.1833,0.0,0.0
48,11.75,40.2003,39.6072,143.42,105.325,3.83415,0.0195539,0.452145,20.414,523.342,29.9287,0.0,0.0
52,12.75,41.0274,40.5062,141.797,105.317,3.88543,0.0185258,0.448994,20.4212,523.222,29.808,0.0,0.0
56,13.75,41.3872,40.7574,140.947,105.3,4.11385,0.0172757,0.441415,20.4354,523.162,29.2905,0.0,0.0
60,14.75,41.7839,41.4178,143.494,105.292,4.02552,0.0159742,0.428266,20.4594,523.052,29.4859,0.0,0.0
64,15.75,41.9525,42.1147,143.704,105.273,4.13997,0.0147713,0.413797,20.4837,522.972,29.2311,0.0,0.0
68,16.75,42.3819,42.4994,146.087,105.253,4.15421,0.0136112,0.397318,20.5073,522.942,29.1983,0.0,0.0
72,17.75,42.7714,42.4903,146.582,105.232,4.23352,0.0127756,0.379971,20.5306,522.862,29.0257,0.0,0.0
76,18.75,42.9828,43.1835,144.695,105.202,4.2017,0.0117615,0.363166,20.5528,522.812,29.0912,0.0,0.0
80,19.75,43.1644,43.0901,143.11,105.184,4.22164,0.0108968,0.348608,20.5745,522.742,29.0469,0.0,0.0
84,20.75,43.4424,43.5687,145.955,105.149,4.32612,0.0101375,0.335333,20.5946,522.712,28.8231,0.0,0.0
88,21.75,43.2279,43.7732,145.732,105.11,4.2036,0.00948937,0.324512,20.6107,522.592,29.0792,0.0,0.0
92,22.75,43.5597,44.2117,147.811,105.08,4.24349,0.00894592,0.314008,20.6269,522.562,28.9914,0.0,0.0
96,23.75,43.5872,43.9408,144.778,105.035,4.28718,0.00845757,0.304456,20.6399,522.502,28.895,0.0,0.0
100,24.75,43.3832,44.0873,149.298,105.001,4.31045,0.00804925,0.297414,20.6517,522.502,28.8431,0.0,0.0
104,25.75,43.5901,44.3491,142.733,104.965,4.25299,0.00770912,0.291119,20.6613,522.432,28.9612,0.0,0.0
108,26.75,43.7866,44.354,145.325,104.925,4.33989,0.00742683,0.285478,20.6699,522.381,28.7751,0.0,0.0
112,27.75,43.7684,44.7485,147.72,104.885,4.34796,0.00717409,0.280766,20.6771,522.321,28.7549,0.0,0.0
116,28.75,44.0307,44.6023,148.927,104.841,4.30807,0.00691841,0.276713,20.6834,522.261,28.8343,0.0,0.0
120,29.75,44.0519,45.1386,147.126,104.798,4.32754,0.00666426,0.272782,20.6884,522.201,28.7899,0.0,0.0
124,30.75,43.9695,45.126,151.845,104.753,4.38405,0.0063267,0.269316,20.6947,522.171,28.6688,0.0,0.0
128,31.75,44.0399,45.4352,147.887,104.717,4.36221,0.00605522,0.265612,20.7019,522.121,28.7108,0.0,0.0
132,32.75,43.8508,45.1526,150.204,104.687,4.4059,0.00586098,0.263035,20.7067,522.071,28.6183,0.0,0.0
136,33.75,44.2949,45.6558,146.578,104.652,4.27388,0.00573995,0.260645,20.7099,522.001,28.89,0.0,0.0
140,34.75,44.2341,45.466,146.68,104.611,4.30855,0.00565806,0.259525,20.7124,521.941,28.8135,0.0,0.0
144,35.75,44.1807,45.2895,146.254,104.584,4.34274,0.00557781,0.25894,20.7143,521.921,28.7397,0.0,0.0
148,36.75,44.3705,45.6095,146.862,104.535,4.34416,0.00548441,0.258336,20.7165,521.841,28.7325,0.0,0.0
152,37.75,44.3763,45.5472,144.091,104.508,4.41064,0.00537642,0.256978,20.7204,521.801,28.5931,0.0,0.0
156,38.75,44.3452,46.1154,145.6,104.49,4.45243,0.00529547,0.254425,20.7244,521.741,28.5063,0.0,0.0
160,39.75,44.3548,46.0315,145.887,104.462,4.44531,0.00517221,0.249527,20.7318,521.671,28.5184,0.0,0.0
164,40.75,44.4453,46.2317,149.418,104.425,4.48425,0.00508652,0.244411,20.7412,521.631,28.4364,0.0,0.0
168,41.75,44.3808,45.7491,149.814,104.401,4.51512,0.00507791,0.237439,20.7505,521.581,28.3723,0.0,0.0
172,42.75,44.2233,46.0367,151.497,104.397,4.49755,0.00513353,0.230776,20.7624,521.521,28.4072,0.0,0.0
176,43.75,44.2774,46.1485,148.188,104.468,4.48662,0.00521317,0.22347,20.7741,521.491,28.4353,0.0,0.0
180,44.75,44.3105,45.9947,146.246,104.532,4.53364,0.00529041,0.216643,20.7832,521.461,28.3466,0.0,0.0
184,45.75,44.1304,45.969,150.716,104.594,4.56166,0.00534109,0.210578,20.7908,521.411,28.2964,0.0,0.0
188,46.75,44.0517,45.7362,150.309,104.647,4.4947,0.00546984,0.205583,20.7973,521.361,28.4345,0.0,0.0
192,47.75,43.8818,45.8825,148.728,104.695,4.55453,0.00564312,0.201977,20.802,521.331,28.3192,0.0,0.0
196,48.75,43.6239,46.0358,146.968,104.736,4.51512,0.00584677,0.199611,20.805,521.311,28.4012,0.0,0.0
200,49.75,43.5136,45.8531,153.424,104.767,4.50704,0.00605252,0.199037,20.8059,521.26,28.42,0.0,0.0
204,50.75,43.6067,45.59,147.632,104.797,4.53364,0.0062554,0.200706,20.8048,521.2,28.3695,0.0,0.0
208,51.75,43.7341,45.5021,147.836,104.821,4.53411,0.00641584,0.203744,20.801,521.16,28.3706,0.0,0.0
212,52.75,43.4781,45.7657,147.844,104.84,4.49185,0.00652416,0.207999,20.7951,521.12,28.4569,0.0,0.0
216,53.75,43.8031,45.7653,145.081,104.864,4.42822,0.00656551,0.214432,20.7875,521.07,28.5878,0.0,0.0
220,54.75,43.6986,46.0881,145.054,104.882,4.45813,0.00653779,0.222421,20.7771,520.99,28.5286,0.0,0.0
224,55.75,43.9886,45.9698,144.4,104.886,4.48283,0.00647622,0.231643,20.7653,520.95,28.479,0.0,0.0
228,56.75,43.9591,46.32,142.714,104.887,4.43486,0.00641071,0.24072,20.7539,520.85,28.5763,0.0,0.0
232,57.75,44.181,46.2731,145.751,104.894,4.41682,0.00635874,0.249341,20.7421,520.82,28.6137,0.0,0.0
236,58.75,43.8983,46.3171,144.355,104.897,4.43154,0.00633122,0.258013,20.7304,520.75,28.5839,0.0,0.0
240,59.75,44.4136,46.4636,146.219,104.889,4.4078,0.00631558,0.266144,20.7209,520.71,28.6317,0.0,0.0
244,60.75,44.2523,46.5622,143.289,104.88,4.42014,0.00632586,0.27322,20.7134,520.62,28.6057,0.0,0.0
248,61.75,44.3676,46.8374,145.354,104.862,4.39212,0.00631663,0.278824,20.7082,520.55,28.6616,0.0,0.0
252,62.75,44.3954,47.2489,143.027,104.85,4.43534,0.00625354,0.282911,20.7047,520.49,28.5721,0.0,0.0
256,63.75,44.484,47.4333,142.293,104.825,4.42299,0.0061301,0.285,20.7025,520.42,28.5951,0.0,0.0
260,64.75,44.9773,47.2089,145.5,104.811,4.51749,0.00595124,0.285208,20.7035,520.35,28.4029,0.0,0.0
264,65.75,45.1485,47.2287,141.664,104.774,4.51987,0.00576924,0.282595,20.7059,520.28,28.395,0.0,0.0
268,66.75,45.0174,47.4298,148.904,104.746,4.56023,0.00552817,0.278394,20.7097,520.23,28.3123,0.0,0.0
272,67.75,44.8111,47.5138,148.544,104.732,4.48805,0.00527108,0.272814,20.7145,520.189,28.4552,0.0,0.0
276,68.75,45.3171,47.44,148.934,104.671,4.5645,0.00506997,0.268868,20.7208,520.189,28.2974,0.0,0.0
280,69.75,45.4288,47.599,152.326,104.634,4.53506,0.00491126,0.261663,20.7278,520.189,28.3527,0.0,0.0
284,70.75,45.1868,47.6136,148.415,104.605,4.51369,0.00481495,0.254,20.7354,520.159,28.3928,0.0,0.0
288,71.75,44.9603,47.4687,150.124,104.549,4.56355,0.00478263,0.247026,20.743,520.119,28.2887,0.0,0.0
292,72.75,44.9347,47.7515,144.984,104.492,4.58967,0.00479615,0.239629,20.752,520.129,28.2322,0.0,0.0
296,73.75,44.9843,47.6485,143.356,104.433,4.51369,0.00482632,0.23226,20.7619,520.119,28.378,0.0,0.0
300,74.75,45.091,47.4262,152.081,104.371,4.55073,0.00491639,0.22691,20.7702,520.089,28.2987,0.0,0.0
304,75.75,44.8415,47.5504,150.327,104.312,4.52034,0.00502087,0.220792,20.7775,520.059,28.3542,0.0,0.0
308,76.75,44.5096,47.5851,148.149,104.247,4.52461,0.00511667,0.215647,20.7838,520.029,28.34,0.0,0.0
312,77.75,44.8328,47.0528,145.916,104.18,4.51037,0.00516363,0.211006,20.7896,520.019,28.3626,0.0,0.0
316,78.75,44.5524,47.0633,149.519,104.115,4.49992,0.00513089,0.20699,20.795,520.029,28.378,0.0,0.0
320,79.75,43.8116,47.8991,148.713,104.069,4.51987,0.00505274,0.203529,20.7988,519.959,28.334,0.0,0.0
324,80.75,44.5076,46.7593,150.458,104.012,4.44151,0.00500805,0.200619,20.802,519.949,28.4871,0.0,0.0
328,81.75,44.6565,46.6204,149.743,104.016,4.5759,0.00499481,0.198283,20.8042,519.929,28.2182,0.0,0.0
332,82.75,44.5978,46.5441,150.164,104.027,4.48188,0.00504055,0.196593,20.8057,519.889,28.4066,0.0,0.0
336,83.75,44.1693,46.939,148.798,104.045,4.56213,0.00510687,0.195022,20.8071,519.879,28.2478,0.0,0.0
340,84.75,43.889,47.1379,150.739,104.053,4.51892,0.00515493,0.193543,20.8084,519.859,28.3346,0.0,0.0
344,85.75,43.673,47.3757,146.017,104.074,4.58302,0.00517284,0.192003,20.8106,519.849,28.2091,0.0,0.0
348,86.75,44.3441,46.608,148.059,104.074,4.47523,0.00519594,0.190296,20.8133,519.859,28.4241,0.0,0.0
352,87.75,44.1844,46.5449,151.339,104.113,4.50657,0.00527912,0.18819,20.8161,519.829,28.3645,0.0,0.0
356,88.75,43.4586,47.1754,150.068,104.119,4.53506,0.0053834,0.185628,20.8199,519.809,28.308,0.0,0.0
360,89.75,43.046,47.1255,149.432,104.145,4.52984,0.00550114,0.183065,20.8232,519.799,28.3207,0.0,0.0
364,90.75,44.0725,46.0892,150.286,104.158,4.51987,0.00559775,0.180878,20.8266,519.789,28.3418,0.0,0.0
368,91.75,43.4163,46.6693,151.731,104.183,4.55881,0.00575211,0.178207,20.8295,519.789,28.2664,0.0,0.0
372,92.75,43.5291,46.4498,144.209,104.202,4.51227,0.0059001,0.175622,20.8323,519.759,28.3608,0.0,0.0
376,93.75,42.6144,46.931,147.533,104.208,4.54219,0.00602955,0.173584,20.8352,519.719,28.3016,0.0,0.0
380,94.75,42.7971,46.1777,148.647,104.242,4.54124,0.00613872,0.171175,20.8379,519.719,28.3064,0.0,0.0
384,95.75,43.3264,45.8546,149.65,104.262,4.52509,0.00623098,0.169026,20.8408,519.719,28.3404,0.0,0.0
388,96.75,42.4447,46.2649,151.897,104.282,4.51274,0.00630646,0.166922,20.8436,519.699,28.3668,0.0,0.0
392,97.75,42.6866,45.7558,153.341,104.313,4.52936,0.00636151,0.165037,20.8469,519.659,28.3362,0.0,0.0
396,98.75,42.9664,45.9714,149.624,104.356,4.56735,0.00640456,0.163077,20.8491,519.679,28.2645,0.0,0.0
400,99.75,41.9272,46.1061,156.089,104.376,4.52129,0.00645905,0.161045,20.8522,519.669,28.3578,0.0,0.0
404,100.75,42.833,45.4378,151.11,104.406,4.63004,0.00652723,0.159052,20.855,519.649,28.1457,0.0,0.0
408,101.75,42.3521,45.642,156.121,104.44,4.54883,0.00663271,0.157107,20.8576,519.629,28.3085,0.0,0.0
412,102.75,42.1846,45.3369,153.222,104.478,4.56973,0.00676046,0.155361,20.8602,519.629,28.2704,0.0,0.0
416,103.75,42.0613,44.9523,149.43,104.513,4.55833,0.00687234,0.153848,20.8621,519.639,28.2959,0.0,0.0
420,104.75,41.5762,45.6159,147.293,104.532,4.56403,0.00696742,0.15263,20.8646,519.619,28.2863,0.0,0.0
424,105.75,41.8231,45.426,151.165,104.557,4.54029,0.00706026,0.151012,20.8673,519.599,28.3356,0.0,0.0
428,106.75,41.9592,45.0452,148.474,104.572,4.55976,0.00714795,0.149422,20.8692,519.619,28.2982,0.0,0.0
432,107.75,41.9674,44.5812,152.792,104.597,4.52556,0.00721524,0.148194,20.8704,519.609,28.3684,0.0,0.0
436,108.75,41.9139,44.6023,151.049,104.604,4.59537,0.00726627,0.147335,20.8714,519.559,28.2307,0.0,0.0
440,109.75,41.685,44.6323,151.775,104.621,4.52034,0.00730893,0.146666,20.8729,519.529,28.3808,0.0,0.0
444,110.75,41.7125,44.9239,152.529,104.635,4.53411,0.00735299,0.145873,20.8745,519.549,28.3546,0.0,0.0
448,111.75,40.8866,44.7668,150.638,104.648,4.53554,0.00740349,0.144951,20.8755,519.559,28.3529,0.0,0.0
452,112.75,41.4258,44.6958,151.346,104.648,4.52319,0.00744243,0.143923,20.876,519.529,28.3775,0.0,0.0
456,113.75,41.271,44.7389,153.362,104.66,4.54503,0.00752591,0.143092,20.8765,519.529,28.335,0.0,0.0
460,114.75,40.7135,44.7812,155.297,104.658,4.53554,0.00762343,0.142422,20.8776,519.499,28.3537,0.0,0.0
464,115.75,41.3936,44.046,148.631,104.671,4.57685,0.00770811,0.141777,20.8783,519.469,28.273,0.0,0.0
468,116.75,40.8541,44.5801,152.634,104.675,4.60344,0.00780165,0.14115,20.8788,519.459,28.2209,0.0,0.0
472,117.75,40.7867,44.3674,152.511,104.665,4.55453,0.00787607,0.140505,20.8799,519.459,28.3166,0.0,0.0
476,118.75,41.0495,43.6462,148.469,104.656,4.63716,0.00792193,0.139913,20.8806,519.419,28.1534,0.0,0.0
480,119.75,40.4147,44.6052,150.742,104.643,4.60724,0.00795441,0.139463,20.8811,519.399,28.2108,0.0,0.0
484,120.75,40.9421,43.6297,148.972,104.649,4.57115,0.00799622,0.139151,20.8822,519.389,28.2823,0.0,0.0
488,121.75,40.1667,44.1651,148.96,104.63,4.5626,0.00804978,0.138771,20.8836,519.399,28.2976,0.0,0.0
492,122.75,39.9161,43.844,156.501,104.615,4.58587,0.00811548,0.138236,20.8846,519.369,28.2504,0.0,0.0
496,123.75,40.4048,43.8648,151.136,104.612,4.52224,0.00819479,0.137622,20.8853,519.349,28.3763,0.0,0.0
500,124.75,40.284,43.3015,151.869,104.589,4.57258,0.00826503,0.137001,20.8858,519.359,28.2743,0.0,0.0
504,125.75,40.2796,43.0044,155.102,104.579,4.58255,0.00832471,0.136352,20.8861,519.349,28.2538,0.0,0.0
508,126.75,40.4791,42.8898,150.008,104.562,4.53981,0.0083856,0.135742,20.8863,519.359,28.337,0.0,0.0
512,127.75,39.9676,43.2208,151.036,104.551,4.53221,0.00845575,0.135185,20.8864,519.349,28.3511,0.0,0.0
516,128.75,39.7687,43.0299,150.755,104.518,4.5626,0.00854271,0.134661,20.8865,519.299,28.2879,0.0,0.0
520,129.75,39.8282,43.1501,150.315,104.502,4.57353,0.00870608,0.134173,20.8872,519.289,28.2649,0.0,0.0
524,130.75,40.161,42.6794,153.856,104.473,4.47143,0.00890121,0.133607,20.8878,519.289,28.4663,0.0,0.0
528,131.75,39.7769,42.8998,152.683,104.453,4.58492,0.0091057,0.13302,20.8882,519.269,28.2382,0.0,0.0
532,132.75,39.3082,42.7342,151.894,104.409,4.49375,0.00927655,0.132448,20.8889,519.289,28.4158,0.0,0.0
536,133.75,39.7805,42.3161,156.065,104.381,4.5968,0.00941679,0.131996,20.8899,519.269,28.2086,0.0,0.0
540,134.75,39.8013,42.5955,147.653,104.365,4.50562,0.00953296,0.131549,20.8907,519.269,28.3882,0.0,0.0
544,135.75,39.5589,41.9965,151.106,104.326,4.51749,0.00962476,0.131003,20.8918,519.229,28.3611,0.0,0.0
548,136.75,39.8008,42.5832,149.919,104.291,4.59537,0.00971193,0.130478,20.8926,519.259,28.2036,0.0,0.0
552,137.75,39.2375,42.3782,156.234,104.246,4.52794,0.00978711,0.129792,20.8929,519.259,28.3332,0.0,0.0
556,138.75,39.2006,42.5822,152.11,104.225,4.49897,0.00982176,0.129213,20.8937,519.239,28.3895,0.0,0.0
560,139.75,39.7027,41.6984,147.781,104.182,4.5004,0.00982744,0.128518,20.8945,519.259,28.3828,0.0,0.0
564,140.75,39.3649,41.8507,151.875,104.152,4.50182,0.0098275,0.127669,20.8956,519.219,28.3774,0.0,0.0
568,141.75,39.3648,41.8328,152.367,104.102,4.51274,0.00984117,0.127008,20.8963,519.229,28.3511,0.0,0.0
572,142.75,38.6199,42.2502,153.27,104.057,4.46668,0.00985949,0.126615,20.8967,519.229,28.44,0.0,0.0
576,143.75,38.9799,41.9874,158.823,104.031,4.50562,0.00994339,0.126525,20.8964,519.249,28.3592,0.0,0.0
580,144.75,38.9054,41.5753,150.681,103.999,4.54124,0.0101008,0.126597,20.8958,519.219,28.2853,0.0,0.0
584,145.75,38.5043,41.9267,149.996,103.958,4.51749,0.0102739,0.126715,20.8954,519.189,28.3292,0.0,0.0
588,146.75,38.8756,41.739,151.297,103.924,4.54646,0.0104283,0.126807,20.895,519.179,28.2684,0.0,0.0
592,147.75,38.702,41.4677,153.369,103.892,4.58682,0.0105336,0.126809,20.8948,519.189,28.1858,0.0,0.0
596,148.75,38.6057,41.6051,149.407,103.857,4.55168,0.0105802,0.126754,20.8947,519.159,28.2523,0.0,0.0
600,149.75,38.6522,41.4329,151.284,103.822,4.49897,0.0105981,0.126749,20.8946,519.159,28.3544,0.0,0.0
604,150.75,38.6397,41.1793,153.795,103.782,4.5664,0.0106014,0.126812,20.8945,519.159,28.2166,0.0,0.0
608,151.75,38.2106,40.9596,154.38,103.745,4.51322,0.0106242,0.126835,20.8945,519.169,28.3191,0.0,0.0
612,152.75,38.9572,41.6359,152.642,103.712,4.489,0.010657,0.126746,20.8953,519.169,28.3649,0.0,0.0
616,153.75,38.3188,41.2358,154.981,103.68,4.53174,0.0106739,0.126584,20.8958,519.189,28.2765,0.0,0.0
620,154.75,38.4964,40.8457,151.964,103.651,4.54978,0.0106595,0.126406,20.8963,519.179,28.238,0.0,0.0
624,155.75,38.466,41.2456,153.307,103.611,4.45386,0.0106188,0.126161,20.8968,519.189,28.4271,0.0,0.0
628,156.75,38.1474,41.3535,153.408,103.587,4.48283,0.0105797,0.125962,20.8971,519.219,28.3664,0.0,0.0
632,157.75,38.4456,40.798,150.878,103.547,4.48757,0.0105475,0.125771,20.8972,519.189,28.3533,0.0,0.0
636,158.75,38.6556,40.4967,153.113,103.524,4.51322,0.0105346,0.125553,20.8974,519.209,28.2999,0.0,0.0
640,159.75,38.1495,40.5531,154.61,103.494,4.4795,0.0105416,0.125254,20.8971,519.169,28.365,0.0,0.0
644,160.75,38.6387,40.1476,154.861,103.489,4.57685,0.0105605,0.125057,20.8967,519.159,28.1704,0.0,0.0
648,161.75,37.8171,40.8883,150.488,103.453,4.51084,0.0105643,0.124928,20.8969,519.179,28.2985,0.0,0.0
652,162.75,37.8188,40.9128,154.057,103.416,4.47523,0.0105459,0.124922,20.8974,519.169,28.3668,0.0,0.0
656,163.75,37.9932,40.8008,151.345,103.412,4.51227,0.0105289,0.124996,20.8977,519.149,28.292,0.0,0.0
660,164.75,38.0822,40.9193,152.234,103.402,4.51939,0.0105262,0.125045,20.8979,519.139,28.2769,0.0,0.0
664,165.75,38.1278,40.4314,148.244,103.38,4.51607,0.0105393,0.125077,20.898,519.119,28.2816,0.0,0.0
668,166.75,37.6995,40.8414,150.891,103.366,4.45481,0.0105828,0.125045,20.8981,519.149,28.4038,0.0,0.0
672,167.75,38.0241,40.6082,151.452,103.367,4.50515,0.0106164,0.124938,20.8981,519.139,28.3024,0.0,0.0
676,168.75,38.189,40.3885,146.849,103.348,4.47475,0.0106381,0.124775,20.8982,519.129,28.3619,0.0,0.0
680,169.75,37.8929,40.1493,152.724,103.345,4.44816,0.010643,0.124612,20.8982,519.129,28.4154,0.0,0.0
684,170.75,37.8271,40.4892,153.324,103.352,4.46336,0.010641,0.124558,20.8982,519.109,28.3853,0.0,0.0
688,171.75,37.4749,40.6949,152.121,103.358,4.48283,0.0106304,0.12459,20.8982,519.089,28.3464,0.0,0.0
692,172.75,37.963,40.142,154.437,103.363,4.45148,0.0106142,0.124648,20.8982,519.099,28.4103,0.0,0.0
696,173.75,37.0466,40.4536,149.67,103.368,4.47855,0.0106007,0.124712,20.8982,519.119,28.3559,0.0,0.0
700,174.75,37.3896,40.3343,150.775,103.384,4.48425,0.0105985,0.124671,20.8982,519.078,28.3458,0.0,0.0
704,175.75,37.4446,40.547,154.754,103.394,4.47,0.0106052,0.124622,20.8987,519.078,28.3754,0.0,0.0
708,176.75,37.6925,40.0628,150.581,103.417,4.49185,0.0106329,0.124488,20.8991,519.099,28.3334,0.0,0.0
712,177.75,37.7902,40.0575,154.162,103.428,4.53506,0.010652,0.124312,20.8992,519.078,28.2479,0.0,0.0
716,178.75,37.3072,40.1835,154.64,103.455,4.47095,0.010658,0.124207,20.8994,519.059,28.3788,0.0,0.0
720,179.75,37.6799,39.7611,153.676,103.487,4.54598,0.0106198,0.124245,20.8995,519.078,28.2313,0.0,0.0
724,180.75,37.6992,39.7059,152.641,103.508,4.53269,0.0105137,0.124382,20.8996,519.068,28.2596,0.0,0.0
728,181.75,37.1294,40.2729,154.753,103.549,4.50894,0.0103912,0.124529,20.8992,519.048,28.3106,0.0,0.0
732,182.75,36.8156,40.5023,150.37,103.595,4.50182,0.0102706,0.124714,20.899,519.028,28.3289,0.0,0.0
736,183.75,37.2248,40.0149,152.407,103.633,4.4795,0.010196,0.124816,20.8998,519.028,28.3771,0.0,0.0
740,184.75,37.494,39.6441,151.614,103.666,4.52319,0.0101595,0.124803,20.9006,519.018,28.2923,0.0,0.0
744,185.75,37.358,39.8884,151.824,103.727,4.50799,0.0102333,0.124628,20.9012,518.998,28.328,0.0,0.0
748,186.75,36.9938,39.9678,150.394,103.759,4.52509,0.0103073,0.124461,20.9015,518.918,28.2966,0.0,0.0
752,187.75,37.1247,39.9985,151.891,103.805,4.53364,0.0103321,0.124534,20.9018,518.958,28.2836,0.0,0.0
756,188.75,37.5108,39.3762,155.103,103.864,4.5626,0.0103143,0.124568,20.9019,518.888,28.2312,0.0,0.0
760,189.75,37.4327,39.5188,152.194,103.934,4.52841,0.010277,0.124586,20.9016,518.938,28.3052,0.0,0.0
764,190.75,37.2895,39.4266,153.103,103.989,4.57115,0.0102494,0.124639,20.901,518.818,28.2251,0.0,0.0
768,191.75,37.5846,39.1307,151.636,104.042,4.51322,0.0102523,0.124767,20.9006,518.908,28.345,0.0,0.0
772,192.75,37.5525,39.1762,147.312,104.121,4.60724,0.0102751,0.12496,20.9004,518.868,28.1656,0.0,0.0
776,193.75,37.4567,39.4728,147.665,104.171,4.51987,0.0103152,0.125123,20.9003,518.878,28.3429,0.0,0.0
780,194.75,37.2857,39.2662,153.511,104.243,4.5664,0.0103447,0.125334,20.9001,518.878,28.2566,0.0,0.0
784,195.75,37.4125,39.4659,153.99,104.309,4.54836,0.0103432,0.125444,20.9001,518.858,28.2981,0.0,0.0
788,196.75,37.4243,39.327,150.724,104.379,4.52841,0.0102956,0.125483,20.9,518.838,28.3438,0.0,0.0
792,197.75,37.2523,38.9165,152.005,104.446,4.56735,0.0102223,0.125449,20.9,518.838,28.2723,0.0,0.0
796,198.75,37.1151,39.3763,154.854,104.514,4.50372,0.0101294,0.125421,20.9,518.828,28.4049,0.0,0.0
800,199.75,36.6232,39.6518,152.954,104.57,4.5778,0.0100334,0.125454,20.8999,518.808,28.2624,0.0,0.0
804,200.75,36.719,39.1999,154.549,104.638,4.57923,0.00995196,0.1255,20.8999,518.798,28.2654,0.0,0.0
808,201.75,37.2223,39.3506,150.051,104.703,4.61009,0.0099052,0.125582,20.8999,518.818,28.2104,0.0,0.0
812,202.75,36.8422,39.268,149.479,104.769,4.60582,0.00988276,0.125677,20.8999,518.808,28.2244,0.0,0.0
816,203.75,36.782,39.758,151.225,104.834,4.57305,0.00988661,0.12573,20.8999,518.738,28.2945,0.0,0.0
820,204.75,36.8936,39.0594,152.163,104.885,4.58445,0.00990541,0.126068,20.8997,518.768,28.2764,0.0,0.0
824,205.75,36.8988,39.6138,149.984,104.937,4.58065,0.00991773,0.126633,20.899,518.768,28.2884,0.0,0.0
828,206.75,37.0706,39.0814,153.194,104.99,4.59015,0.00988634,0.127345,20.8985,518.778,28.2743,0.0,0.0
832,207.75,37.0335,39.2084,148.082,105.036,4.56403,0.00985476,0.127918,20.8982,518.778,28.3298,0.0,0.0
836,208.75,36.5689,39.1813,145.993,105.086,4.61579,0.00982852,0.128191,20.898,518.748,28.2321,0.0,0.0
840,209.75,36.6635,39.121,157.877,105.121,4.60867,0.00980008,0.128304,20.8979,518.728,28.2491,0.0,0.0
844,210.75,37.3966,38.8028,150.051,105.163,4.63953,0.00976871,0.128285,20.8978,518.738,28.1924,0.0,0.0
848,211.75,37.2017,38.978,151.994,105.192,4.55453,0.00973433,0.128115,20.8977,518.718,28.362,0.0,0.0
852,212.75,36.6333,39.644,150.935,105.226,4.58018,0.00971434,0.127926,20.8977,518.718,28.3142,0.0,0.0
856,213.75,37.2502,38.834,153.802,105.249,4.59015,0.00971178,0.127749,20.8976,518.708,28.2965,0.0,0.0
860,214.75,37.3642,38.6615,155.998,105.275,4.59442,0.00970567,0.127528,20.8984,518.698,28.2903,0.0,0.0
864,215.75,36.4852,39.2548,157.259,105.291,4.53221,0.00967809,0.127148,20.8997,518.708,28.4149,0.0,0.0
868,216.75,37.0828,39.0936,153.75,105.311,4.57828,0.0096386,0.126693,20.9006,518.688,28.3252,0.0,0.0
872,217.75,36.8974,38.6906,152.286,105.325,4.55738,0.00956648,0.126276,20.9012,518.718,28.3677,0.0,0.0
876,218.75,36.9025,38.7047,152.623,105.319,4.58635,0.00948813,0.125929,20.9018,518.658,28.31,0.0,0.0
880,219.75,36.8723,38.7581,151.433,105.326,4.5816,0.00941557,0.125612,20.9022,518.728,28.32,0.0,0.0
884,220.75,37.2194,38.9943,153.857,105.306,4.56545,0.00937124,0.125371,20.9025,518.648,28.3502,0.0,0.0
888,221.75,36.9726,39.1103,153.935,105.3,4.55311,0.00933113,0.125212,20.9027,518.738,28.374,0.0,0.0
892,222.75,36.9089,39.1645,153.261,105.291,4.55026,0.00929585,0.125186,20.9028,518.648,28.3789,0.0,0.0
896,223.75,36.7342,39.2586,150.535,105.261,4.56878,0.00925746,0.125217,20.9029,518.718,28.3397,0.0,0.0
900,224.75,37.1268,39.1136,151.61,105.267,4.54646,0.00921914,0.125288,20.903,518.658,28.3845,0.0,0.0
904,225.75,36.6219,39.0273,149.924,105.22,4.54361,0.00916392,0.125382,20.903,518.708,28.386,0.0,0.0
908,226.75,36.5431,39.1993,154.677,105.198,4.52177,0.0090983,0.125455,20.903,518.738,28.4277,0.0,0.0
912,227.75,37.1134,38.7482,148.649,105.171,4.56355,0.00899689,0.125503,20.9031,518.708,28.3423,0.0,0.0
916,228.75,36.9685,38.796,151.685,105.14,4.61959,0.00892241,0.125504,20.9031,518.708,28.2293,0.0,0.0
920,229.75,36.7458,38.8138,150.02,105.107,4.60724,0.00878802,0.12543,20.9026,518.678,28.2507,0.0,0.0
924,230.75,36.9518,38.2525,156.749,105.066,4.61199,0.00865678,0.125359,20.9019,518.678,28.2379,0.0,0.0
928,231.75,36.4927,38.782,150.548,105.022,4.52034,0.00854601,0.125302,20.9014,518.668,28.4154,0.0,0.0
932,232.75,36.5575,38.8318,153.9,104.975,4.57828,0.00843851,0.125217,20.9011,518.638,28.2964,0.0,0.0
936,233.75,37.1068,38.8117,153.501,104.947,4.55501,0.00834546,0.125109,20.9009,518.648,28.34,0.0,0.0
940,234.75,36.6689,39.028,153.153,104.898,4.58445,0.00827172,0.124985,20.9016,518.658,28.2775,0.0,0.0
944,235.75,36.7772,38.5931,152.28,104.856,4.51179,0.0082289,0.124826,20.902,518.668,28.4182,0.0,0.0
948,236.75,36.2758,38.7816,150.361,104.806,4.4928,0.00820245,0.124617,20.9023,518.668,28.4521,0.0,0.0
952,237.75,36.8065,38.4896,151.359,104.773,4.60629,0.00817357,0.12435,20.9025,518.658,28.2239,0.0,0.0
956,238.75,37.2532,38.8177,154.566,104.726,4.50657,0.00814326,0.123967,20.9033,518.638,28.4175,0.0,0.0
960,239.75,36.7169,38.6849,152.06,104.684,4.53601,0.00812941,0.123615,20.9039,518.618,28.3551,0.0,0.0
964,240.75,36.3546,38.3738,153.83,104.643,4.51939,0.00811056,0.123283,20.9046,518.608,28.3846,0.0,0.0
968,241.75,36.5573,38.6584,156.329,104.59,4.51417,0.00807815,0.123016,20.9051,518.618,28.3905,0.0,0.0
972,242.75,36.5673,38.6356,157.029,104.563,4.52936,0.00803714,0.12285,20.9054,518.608,28.3579,0.0,0.0
976,243.75,36.2963,38.6755,155.266,104.524,4.55643,0.00799391,0.122758,20.9065,518.618,28.3006,0.0,0.0
980,244.75,36.4253,38.2087,153.562,104.498,4.52082,0.00796785,0.122714,20.9065,518.598,28.3693,0.0,0.0
984,245.75,36.5861,38.2456,154.068,104.471,4.52272,0.00797146,0.122562,20.907,518.588,28.3631,0.0,0.0
988,246.75,36.6896,38.6712,154.145,104.438,4.57258,0.00798303,0.122386,20.9075,518.578,28.2612,0.0,0.0
992,247.75,36.932,38.9087,155.02,104.417,4.53174,0.00797537,0.122177,20.9078,518.578,28.3405,0.0,0.0
996,248.75,37.2559,38.516,154.499,104.458,4.52461,0.00794594,0.121949,20.908,518.578,28.3583,0.0,0.0
1000,249.75,36.6453,38.4151,147.615,104.525,4.55643,0.00788859,0.121627,20.9081,518.578,28.3007,0.0,0.0
1004,250.75,36.4257,39.1671,152.742,104.584,4.50325,0.00782976,0.121267,20.9082,518.548,28.4119,0.0,0.0
1008,251.75,36.717,38.224,154.629,104.638,4.55786,0.00777738,0.12097,20.9083,518.568,28.3077,0.0,0.0
1012,252.75,36.8975,38.5461,154.507,104.689,4.50087,0.00774301,0.120717,20.9082,518.548,28.4257,0.0,0.0
1016,253.75,36.6799,38.8212,151.994,104.749,4.51512,0.0077103,0.120497,20.9082,518.578,28.4023,0.0,0.0
1020,254.75,36.5807,38.5207,152.449,104.787,4.5664,0.00767394,0.120318,20.9088,518.538,28.3036,0.0,0.0
1024,255.75,36.7035,38.503,152.729,104.825,4.57305,0.0076423,0.120044,20.9091,518.498,28.2937,0.0,0.0
1028,256.75,36.5543,38.5839,152.802,104.856,4.56166,0.00759926,0.119864,20.9093,518.508,28.319,0.0,0.0
1032,257.75,36.6108,38.4941,155.086,104.883,4.54551,0.00755954,0.119766,20.9095,518.488,28.3533,0.0,0.0
1036,258.75,36.7586,38.273,156.301,104.9,4.52604,0.00750135,0.119682,20.9096,518.478,28.3935,0.0,0.0
1040,259.75,36.7625,38.2113,149.236,104.915,4.54124,0.00742701,0.119507,20.9097,518.488,28.3646,0.0,0.0
1044,260.75,36.7195,38.5146,153.565,104.917,4.54598,0.00733961,0.119356,20.9097,518.438,28.3553,0.0,0.0
1048,261.75,36.4401,38.4505,150.3,104.922,4.55406,0.00725984,0.119226,20.9098,518.418,28.3397,0.0,0.0
1052,262.75,36.6687,38.2624,150.187,104.914,4.54931,0.00717175,0.119051,20.9098,518.488,28.3484,0.0,0.0
1056,263.75,36.5584,38.4806,151.415,104.897,4.59822,0.00709106,0.1189,20.9098,518.438,28.2503,0.0,0.0
1060,264.75,36.6216,38.487,152.758,104.879,4.50182,0.00702896,0.118719,20.9098,518.398,28.4402,0.0,0.0
1064,265.75,35.9868,38.2405,152.803,104.862,4.52224,0.00699279,0.11852,20.9104,518.398,28.3978,0.0,0.0
1068,266.75,35.8493,37.6451,154.077,104.826,4.56688,0.0069828,0.118257,20.911,518.408,28.306,0.0,0.0
1072,267.75,36.0738,38.1737,155.446,104.789,4.54266,0.00700513,0.117976,20.9114,518.388,28.3509,0.0,0.0
1076,268.75,36.0531,37.7665,148.987,104.753,4.53269,0.00703545,0.117685,20.9118,518.368,28.3676,0.0,0.0
1080,269.75,35.7564,37.6897,156.693,104.705,4.59347,0.00709161,0.11746,20.9127,518.358,28.2431,0.0,0.0
1084,270.75,35.9564,38.0923,153.761,104.655,4.56355,0.00712064,0.117234,20.9133,518.338,28.2979,0.0,0.0
1088,271.75,35.9624,37.8755,151.523,104.596,4.60534,0.00711694,0.117074,20.9135,518.348,28.2105,0.0,0.0
1092,272.75,35.634,37.8227,151.558,104.541,4.52556,0.00705725,0.116838,20.9135,518.338,28.3635,0.0,0.0
1096,273.75,35.5225,37.799,149.859,104.468,4.54741,0.00693539,0.116469,20.9142,518.338,28.3138,0.0,0.0
1100,274.75,35.8956,37.427,155.69,104.394,4.55596,0.00681004,0.116029,20.9148,518.328,28.2904,0.0,0.0
1104,275.75,35.9978,37.8844,157.127,104.333,4.53839,0.00672779,0.11557,20.9152,518.298,28.32,0.0,0.0
1108,276.75,36.2355,37.7306,151.025,104.249,4.55501,0.00662588,0.115191,20.9156,518.308,28.2797,0.0,0.0
1112,277.75,36.1389,37.6358,150.746,104.15,4.50325,0.00652246,0.114907,20.916,518.308,28.3743,0.0,0.0
1116,278.75,35.7862,37.812,151.308,104.048,4.52651,0.00644922,0.114639,20.9163,518.318,28.3189,0.0,0.0
1120,279.75,35.8435,37.5915,152.842,104.007,4.50752,0.0063883,0.114483,20.9165,518.338,28.3534,0.0,0.0
1124,280.75,35.9717,37.627,150.507,104.009,4.59062,0.00631967,0.114278,20.917,518.348,28.1885,0.0,0.0
1128,281.75,36.0249,37.6473,154.084,104.023,4.49565,0.00624178,0.113944,20.9178,518.328,28.3786,0.0,0.0
1132,282.75,35.8468,37.8232,154.648,104.039,4.56213,0.00618391,0.113595,20.9186,518.308,28.2474,0.0,0.0
1136,283.75,35.7087,37.7242,155.685,104.07,4.4985,0.00611175,0.113179,20.919,518.308,28.3769,0.0,0.0
1140,284.75,35.7445,37.5822,153.215,104.103,4.51512,0.00606441,0.112758,20.9194,518.318,28.3465,0.0,0.0
1144,285.75,35.768,37.2115,149.525,104.11,4.55311,0.00603107,0.11238,20.9202,518.318,28.2714,0.0,0.0
1148,286.75,35.5972,37.6935,153.889,104.13,4.4871,0.00599943,0.112004,20.9209,518.278,28.4051,0.0,0.0
1152,287.75,35.7883,37.3154,153.899,104.163,4.4909,0.00597704,0.111676,20.9214,518.328,28.4003,0.0,0.0
1156,288.75,35.7254,37.5752,154.592,104.184,4.53981,0.00595781,0.111503,20.9217,518.298,28.3042,0.0,0.0
1160,289.75,35.8073,37.6346,154.229,104.217,4.51559,0.00595595,0.111353,20.9223,518.268,28.3554,0.0,0.0
1164,290.75,35.9743,37.5191,156.045,104.249,4.54551,0.00598156,0.111082,20.9231,518.298,28.2986,0.0,0.0
1168,291.75,35.3742,37.2589,153.896,104.257,4.51227,0.00603916,0.110797,20.9236,518.308,28.3655,0.0,0.0
1172,292.75,36.0577,37.3844,152.088,104.278,4.49517,0.00609231,0.110572,20.924,518.308,28.4016,0.0,0.0
1176,293.75,35.7037,37.8655,154.509,104.294,4.4738,0.00611105,0.110343,20.9242,518.348,28.4461,0.0,0.0
1180,294.75,35.8088,37.6763,153.003,104.318,4.48995,0.00608724,0.11011,20.9243,518.348,28.4156,0.0,0.0
1184,295.75,35.8889,37.3831,151.797,104.325,4.57068,0.00605838,0.109879,20.9244,518.348,28.2553,0.0,0.0
1188,296.75,35.7849,37.8182,151.37,104.351,4.55026,0.00603419,0.109629,20.9245,518.368,28.298,0.0,0.0
1192,297.75,35.2433,37.479,154.468,104.369,4.59917,0.00602665,0.109357,20.9245,518.388,28.2029,0.0,0.0
1196,298.75,35.5793,37.4274,149.887,104.392,4.59917,0.00602681,0.109154,20.9245,518.368,28.2049,0.0,0.0
1200,299.75,35.7752,37.0695,155.145,104.416,4.51987,0.0060064,0.10895,20.9241,518.368,28.3641,0.0,0.0
1204,300.75,35.6817,37.5047,155.367,104.433,4.53601,0.00596795,0.10879,20.9244,518.398,28.3334,0.0,0.0
1208,301.75,35.5783,37.791,150.43,104.456,4.51939,0.00593542,0.108671,20.9247,518.398,28.3685,0.0,0.0
1212,302.75,35.0841,37.3958,148.464,104.466,4.55833,0.00589669,0.108567,20.9248,518.398,28.2919,0.0,0.0
1216,303.75,35.9129,37.4533,154.794,104.484,4.57163,0.00587079,0.108463,20.9247,518.378,28.2671,0.0,0.0
1220,304.75,35.9256,37.4197,156.498,104.501,4.51322,0.00585152,0.108365,20.9247,518.368,28.3847,0.0,0.0
1224,305.75,35.9054,37.2024,153.632,104.525,4.56023,0.00583205,0.108248,20.9246,518.358,28.2932,0.0,0.0
1228,306.75,35.542,36.9228,153.683,104.529,4.57923,0.00580943,0.10809,20.9246,518.348,28.256,0.0,0.0
1232,307.75,35.6255,37.2305,154.389,104.542,4.56071,0.00576802,0.107921,20.9246,518.368,28.2938,0.0,0.0
1236,308.75,35.8691,37.6515,153.101,104.548,4.57115,0.00573175,0.107776,20.9252,518.358,28.2736,0.0,0.0
1240,309.75,35.4912,37.5574,148.411,104.563,4.54456,0.00571706,0.107701,20.9251,518.358,28.3276,0.0,0.0
1244,310.75,35.5939,37.6096,152.819,104.567,4.59632,0.0056961,0.107617,20.9249,518.338,28.2256,0.0,0.0
1248,311.75,35.48,37.5481,152.41,104.591,4.62291,0.00566067,0.107564,20.9248,518.358,28.1756,0.0,0.0
1252,312.75,35.6257,37.6697,155.568,104.599,4.55596,0.00559497,0.107542,20.9247,518.328,28.3081,0.0,0.0
1256,313.75,35.7279,37.3656,151.878,104.583,4.53791,0.00552286,0.107527,20.9249,518.318,28.3426,0.0,0.0
1260,314.75,35.7651,38.1551,152.477,104.596,4.54646,0.00546522,0.107458,20.9251,518.318,28.3267,0.0,0.0
1264,315.75,35.6291,37.4641,150.946,104.607,4.51084,0.00543546,0.107253,20.9258,518.318,28.3987,0.0,0.0
1268,316.75,35.6323,37.0686,145.116,104.61,4.55976,0.00543184,0.107038,20.9265,518.308,28.3015,0.0,0.0
1272,317.75,35.5869,37.51,154.74,104.61,4.52082,0.005442,0.106819,20.9269,518.308,28.379,0.0,0.0
1276,318.75,35.1948,37.5905,149.862,104.598,4.58635,0.00545204,0.106583,20.9272,518.288,28.248,0.0,0.0
1280,319.75,35.4075,37.3982,153.706,104.605,4.55073,0.00545485,0.106375,20.9274,518.298,28.319,0.0,0.0
1284,320.75,35.7217,37.3012,153.458,104.617,4.52651,0.00544361,0.10622,20.9275,518.298,28.3682,0.0,0.0
1288,321.75,35.5997,37.3854,155.929,104.622,4.48567,0.0054281,0.106222,20.9276,518.288,28.4505,0.0,0.0
1292,322.75,35.762,37.6311,154.622,104.618,4.5949,0.00540539,0.106223,20.9277,518.278,28.2328,0.0,0.0
1296,323.75,35.7104,37.1645,153.428,104.623,4.55263,0.00539239,0.10612,20.9279,518.288,28.3168,0.0,0.0
1300,324.75,35.4951,37.5617,155.689,104.626,4.54788,0.00539717,0.106037,20.9277,518.288,28.3265,0.0,0.0
1304,325.75,35.4822,37.2936,153.125,104.608,4.54456,0.00542931,0.105901,20.9277,518.258,28.3315,0.0,0.0
1308,326.75,35.5768,37.5045,152.19,104.607,4.55786,0.00546859,0.105699,20.9276,518.278,28.305,0.0,0.0
1312,327.75,35.818,37.0928,155.582,104.601,4.54598,0.00548981,0.105485,20.9276,518.278,28.3281,0.0,0.0
1316,328.75,35.1603,37.2157,154.858,104.614,4.52746,0.00550146,0.10538,20.9282,518.308,28.366,0.0,0.0
1320,329.75,35.5031,37.4264,152.992,104.61,4.56166,0.00550456,0.105315,20.9287,518.298,28.2978,0.0,0.0
1324,330.75,35.4232,37.3511,154.213,104.626,4.55881,0.00550204,0.105151,20.9291,518.288,28.3048,0.0,0.0
1328,331.75,35.5475,37.3811,156.982,104.611,4.55263,0.00548658,0.104874,20.9294,518.268,28.3157,0.0,0.0
1332,332.75,35.4808,37.1831,158.52,104.61,4.55406,0.00545395,0.104554,20.9295,518.238,28.3128,0.0,0.0
1336,333.75,35.3241,37.2487,152.778,104.604,4.52841,0.00541719,0.104283,20.9296,518.218,28.3633,0.0,0.0
1340,334.75,35.624,37.1797,150.036,104.602,4.53886,0.00539201,0.104069,20.93,518.218,28.3423,0.0,0.0
1344,335.75,35.3929,37.0596,152.429,104.596,4.59252,0.00538912,0.10398,20.931,518.238,28.2356,0.0,0.0
1348,336.75,35.5535,37.4558,154.129,104.598,4.56023,0.00539887,0.103882,20.9317,518.218,28.2995,0.0,0.0
1352,337.75,35.3652,37,152.487,104.601,4.55168,0.00541011,0.103727,20.9322,518.208,28.3167,0.0,0.0
1356,338.75,36.1374,37.5178,152.555,104.594,4.51512,0.00541389,0.103545,20.9324,518.218,28.389,0.0,0.0
1360,339.75,35.4982,37.6276,152.375,104.596,4.58113,0.005419,0.103366,20.9326,518.218,28.258,0.0,0.0
1364,340.75,35.6369,37.6226,150.198,104.602,4.56545,0.00542833,0.103208,20.9328,518.218,28.2895,0.0,0.0
1368,341.75,35.4585,37.1858,151.803,104.584,4.54219,0.00543601,0.103074,20.9328,518.208,28.3342,0.0,0.0
1372,342.75,35.3768,37.6766,152.052,104.597,4.61342,0.00541753,0.102952,20.9329,518.228,28.1947,0.0,0.0
1376,343.75,35.5931,37.1982,151.255,104.573,4.56355,0.00537698,0.102836,20.9329,518.218,28.2908,0.0,0.0
1380,344.75,36.0312,37.1624,150.674,104.567,4.55643,0.00533202,0.102656,20.933,518.218,28.3044,0.0,0.0
1384,345.75,35.2523,36.4676,153.528,104.565,4.55216,0.00527493,0.102564,20.9331,518.198,28.3127,0.0,0.0
1388,346.75,35.5483,37.2416,153.412,104.554,4.51322,0.00520723,0.102527,20.9335,518.178,28.3894,0.0,0.0
1392,347.75,35.4451,37.3491,152.151,104.554,4.49992,0.00513954,0.10251,20.9338,518.178,28.4159,0.0,0.0
1396,348.75,35.4565,37.5919,154.694,104.54,4.53981,0.00508945,0.102518,20.934,518.178,28.3351,0.0,0.0
1400,349.75,35.6728,37.1882,148.859,104.53,4.56735,0.00507084,0.102563,20.9341,518.208,28.2796,0.0,0.0
1404,350.75,35.4604,37.3643,152.35,104.513,4.5797,0.00506726,0.102584,20.9342,518.158,28.2537,0.0,0.0
1408,351.75,35.3569,37.4328,157.559,104.51,4.59205,0.00505847,0.10253,20.9342,518.168,28.2291,0.0,0.0
1412,352.75,35.4398,37.2258,151.316,104.5,4.55311,0.00502948,0.10245,20.9347,518.168,28.3051,0.0,0.0
1416,353.75,35.6377,37.5175,150.966,104.478,4.59015,0.0049992,0.102304,20.9354,518.158,28.2301,0.0,0.0
1420,354.75,35.7734,37.6007,147.689,104.48,4.56878,0.00496908,0.102134,20.9359,518.188,28.2724,0.0,0.0
1424,355.75,35.4104,37.816,150.94,104.465,4.57163,0.00494956,0.101972,20.9363,518.188,28.2655,0.0,0.0
1428,356.75,35.6417,37.5155,152.05,104.438,4.5892,0.00489677,0.101828,20.9367,518.168,28.2285,0.0,0.0
1432,357.75,35.5097,37.318,155.079,104.438,4.57115,0.00485193,0.101659,20.937,518.148,28.2641,0.0,0.0
1436,358.75,35.7806,37.4705,153.627,104.413,4.55738,0.0048338,0.101592,20.9365,518.138,28.2892,0.0,0.0
1440,359.75,35.5912,37.6875,153.481,104.409,4.52366,0.00483489,0.101459,20.936,518.138,28.3559,0.0,0.0
1444,360.75,35.5068,37.4435,154.905,104.388,4.60059,0.00484397,0.101285,20.9357,518.148,28.2018,0.0,0.0
1448,361.75,35.9113,37.3278,149.553,104.359,4.60344,0.00484196,0.101192,20.9355,518.118,28.1937,0.0,0.0
1452,362.75,35.8582,37.1493,155.519,104.358,4.55311,0.00482698,0.10113,20.9356,518.128,28.2929,0.0,0.0
1456,363.75,35.8596,37.5882,151.6,104.329,4.55311,0.00479197,0.101072,20.9363,518.128,28.2904,0.0,0.0
1460,364.75,35.4767,37.5687,152.642,104.326,4.54219,0.0047471,0.100853,20.9367,518.148,28.3119,0.0,0.0
1464,365.75,35.6505,36.8671,153.303,104.311,4.53649,0.00470343,0.100606,20.937,518.158,28.3218,0.0,0.0
1468,366.75,35.6907,37.3688,153.304,104.292,4.55833,0.0046612,0.100392,20.9369,518.138,28.2768,0.0,0.0
1472,367.75,35.5632,37.4595,153.723,104.288,4.53364,0.00464933,0.100209,20.9368,518.158,28.3255,0.0,0.0
1476,368.75,36.1647,37.2584,151.754,104.264,4.56545,0.00465932,0.100098,20.9375,518.178,28.2603,0.0,0.0
1480,369.75,35.9439,37.5947,154.766,104.246,4.53506,0.00472636,0.100009,20.9378,518.208,28.3191,0.0,0.0
1484,370.75,35.6778,37.1256,153.752,104.223,4.60059,0.00482268,0.0998946,20.938,518.208,28.1875,0.0,0.0
1488,371.75,35.7583,37.4812,151.758,104.199,4.54931,0.00491095,0.0997181,20.9381,518.228,28.2867,0.0,0.0
1492,372.75,35.6203,37.185,152.197,104.187,4.59822,0.00496726,0.0995547,20.9382,518.238,28.189,0.0,0.0
1496,373.75,35.4037,37.161,152.231,104.172,4.51037,0.00497025,0.099503,20.9382,518.228,28.362,0.0,0.0
1500,374.75,35.6817,37.842,154.679,104.168,4.51607,,0.099457,,518.248,28.3502,0.0,0.0
1504,375.75,35.7303,37.2143,154.846,104.129,4.54503,,0.0994262,,518.208,28.2891,0.0,0.0
1508,376.75,35.7847,37.0908,150.572,104.127,4.5683,,0.0994384,,518.198,28.2428,0.0,0.0
1512,377.75,35.4398,37.3926,155.665,104.101,4.54171,,,,518.228,28.2933,0.0,0.0
1516,378.75,35.3596,37.3504,153.242,104.089,4.51987,,,,518.178,28.3358,0.0,0.0
1520,379.75,35.9013,37.6582,149.094,104.073,4.5949,,,,518.178,28.1857,0.0,0.0
1524,380.75,35.7259,37.3009,150.068,104.064,4.54409,,,,518.188,28.2853,0.0,0.0
1528,381.75,35.5859,36.7604,155.846,104.05,4.57353,,,,518.178,28.2257,0.0,0.0
1532,382.75,35.8693,37.2724,151.731,104.044,4.55358,,,,518.248,28.2647,0.0,0.0
1536,383.75,35.4346,37.2311,150.385,104.027,4.53886,,,,518.268,28.2925,0.0,0.0
1540,384.75,35.0639,36.9188,151.929,104.01,4.49327,,,,518.238,28.3822,0.0,0.0
1542,385.25,35.7233,37.0877,150.8,103.992,4.5987,,,,518.158,28.1711,0.0,0.0