File: 01_Data/Polyisocyanurate_Foam_Board/Cone/Polyisocyanurate_Foam_Board_Cone_HF75Scan_220913_R1.csv
Names,Time,Stack TC,Smoke TC,Exh Press,Smoke Comp,Smoke Meas,CO Meter,CO2 Meter,O2 Meter,Sample Mass,Ext Coeff,Start Test,Flame Verif
Chan Gain,,500,500,1,1,1,1,1,1,1,1,1.0,1.0
Offset,,0,0,0.13918,0,0,0,0,0,0,0,0.0,0.0
Gain,,1,1,25.011,14.0162,15.5607,1,1,1,1.0009,1.02981,1.0,1.0
Units,sec,C,C,Pa,%,%,%,%,%,g,/m,,
Baseline,,41.2328,43.3032,151.107,104.724,4.78786,0.00108287,0.0941494,20.9436,-1.5499,27.8705,,
3,0.5,40.237,42.2599,155.403,105.321,4.6704,0.0010914,0.103311,20.9318,525.634,28.1461,0.0,0.0
6,1.25,39.9662,42.1993,149.604,105.317,4.68132,0.00108291,0.103186,20.9317,525.284,28.1246,0.0,0.0
9,2,39.485,42.2668,151.439,105.315,4.67515,0.00108285,0.103031,20.9318,525.284,28.1364,0.0,0.0
12,2.75,39.8557,42.2453,148.656,105.312,4.69272,0.00108543,0.102836,20.9323,525.454,28.1023,0.0,0.0
15,3.5,40.1092,41.7421,154.325,105.322,4.66233,0.00111191,0.10278,20.9326,525.404,28.1618,0.0,0.0
18,4.25,39.9009,42.1624,150.452,105.315,4.64856,0.00113122,0.102896,20.9329,525.304,28.1879,0.0,0.0
21,5,39.7072,42.0241,150.733,105.3,4.65948,0.00118736,0.103186,20.9332,525.254,28.1654,0.0,0.0
24,5.75,40.1273,41.9597,149.766,105.312,4.54978,0.00126027,0.103827,20.9336,525.264,28.3817,0.0,0.0
27,6.5,39.7038,42.1667,148.756,105.328,4.48995,0.00132705,0.104477,20.9329,525.324,28.5026,0.0,0.0
30,7.25,40.216,42.2849,151.126,105.317,4.4928,0.00146444,0.105769,20.9319,525.324,28.496,0.0,0.0
33,8,40.4767,42.2385,146.417,105.313,4.40685,0.00160241,0.107066,20.9308,525.254,28.6702,0.0,0.0
36,8.75,40.244,42.1671,152.842,105.314,4.40827,0.00180513,0.108618,20.9295,525.264,28.6673,0.0,0.0
39,9.5,39.8632,42.1516,150.156,105.326,4.52082,0.00206556,0.10975,20.9259,525.314,28.4406,0.0,0.0
42,10.25,40.0493,42.4161,146.997,105.317,4.66138,0.00238058,0.117332,20.9189,525.164,28.1632,0.0,1.0
45,11,40.3746,42.3391,143.098,105.308,4.62006,0.00274214,0.129985,20.8949,525.064,28.2428,0.0,1.0
48,11.75,40.505,42.5808,139.75,105.315,4.75588,0.00314772,0.146231,20.8775,525.014,27.9817,0.0,1.0
51,12.5,41.3868,42.9213,146.079,105.317,4.52414,0.00368622,0.164891,20.849,525.054,28.4332,0.0,1.0
54,13.25,41.7205,43.1,145.499,105.329,4.4757,0.0043817,0.186774,20.8208,524.964,28.5315,0.0,1.0
57,14,41.9874,43.5672,141.274,105.3,4.49945,0.0050205,0.205046,20.7971,524.814,28.4812,0.0,1.0
60,14.75,41.8542,43.0322,141.333,105.289,4.43961,0.00571157,0.222333,20.772,524.764,28.6011,0.0,1.0
63,15.5,42.5065,43.5753,142.069,105.305,4.50562,0.00653663,0.240644,20.7436,524.784,28.4692,0.0,1.0
66,16.25,42.8735,43.9361,141.124,105.309,4.53601,0.00737236,0.256427,20.7186,524.674,28.4088,0.0,1.0
69,17,43.6339,44.531,136.923,105.287,4.70602,0.00818444,0.28078,20.6802,524.393,28.0746,0.0,1.0
72,17.75,43.8512,44.6769,135.347,105.285,4.68417,0.00895254,0.308033,20.6328,524.413,28.1164,0.0,1.0
75,18.5,44.4889,45.4284,136.184,105.286,4.59632,0.00989735,0.33195,20.5848,524.353,28.2876,0.0,1.0
78,19.25,45.0611,45.9261,135.129,105.282,4.54456,0.0103447,0.358649,20.5618,524.223,28.3895,0.0,0.0
81,20,45.6979,46.4749,139.707,105.275,4.53174,0.0109849,0.381009,20.5331,524.073,28.4144,0.0,0.0
84,20.75,46.3111,47.1708,135.906,105.27,4.52129,0.0116309,0.398545,20.507,524.023,28.4349,0.0,0.0
87,21.5,46.897,47.7949,134.466,105.258,4.58967,0.0122321,0.418475,20.4852,523.913,28.2982,0.0,0.0
90,22.25,47.3391,47.8427,143.849,105.269,4.58018,0.0128011,0.426266,20.4637,523.913,28.3179,0.0,0.0
93,23,47.8925,48.5278,134.972,105.255,4.55453,0.0134064,0.435993,20.448,523.803,28.3674,0.0,0.0
96,23.75,47.9909,49.0834,136.913,105.237,4.53316,0.0140562,0.443442,20.4352,523.653,28.4083,0.0,0.0
99,24.5,49.1442,49.2862,136.136,105.227,4.37455,0.0147474,0.449034,20.4247,523.573,28.7292,0.0,0.0
102,25.25,49.2226,49.6486,133.206,105.252,4.41919,0.0152513,0.453322,20.4164,523.603,28.6397,0.0,0.0
105,26,49.8706,50.3881,138.519,105.219,4.3736,0.0159787,0.456691,20.4095,523.392,28.7304,0.0,0.0
108,26.75,50.0269,50.7544,138.036,105.207,4.61484,0.0165531,0.459399,20.4041,523.272,28.2444,0.0,0.0
111,27.5,50.7785,51.3327,135.642,105.202,4.32089,0.0169491,0.46148,20.4001,523.192,28.8385,0.0,0.0
114,28.25,50.7308,51.6366,134.232,105.204,4.49232,0.0171671,0.462304,20.3972,523.202,28.4872,0.0,0.0
117,29,51.2654,52.0808,136.002,105.187,4.60392,0.0171624,0.462028,20.3951,523.082,28.2642,0.0,0.0
120,29.75,51.9316,52.2004,135.303,105.17,4.64856,0.0170697,0.460326,20.3963,522.912,28.1755,0.0,0.0
123,30.5,52.0479,52.6149,140.604,105.167,4.66375,0.0166861,0.456966,20.3995,522.802,28.1457,0.0,0.0
126,31.25,52.2778,53.6579,138.261,105.169,4.65663,0.0161303,0.452312,20.4062,522.852,28.1597,0.0,0.0
129,32,52.6861,53.4093,138.765,105.149,4.76965,0.0155327,0.446694,20.4167,522.762,27.9413,0.0,0.0
132,32.75,52.9686,53.6622,138.439,105.139,4.68845,0.0149598,0.437655,20.4243,522.582,28.0956,0.0,0.0
135,33.5,53.631,54.4748,136.252,105.119,4.74543,0.0143074,0.432659,20.4368,522.512,27.9848,0.0,0.0
138,34.25,53.4651,54.5685,140.67,105.117,4.7801,0.0136619,0.4238,20.4491,522.582,27.9189,0.0,0.0
141,35,53.5817,55.0301,138.924,105.11,4.75398,0.0131188,0.416026,20.4637,522.472,27.9678,0.0,0.0
144,35.75,53.9632,55.2874,141.026,105.083,4.73071,0.0125001,0.406198,20.4783,522.351,28.0098,0.0,0.0
147,36.5,54.4563,55.1139,135.948,105.072,4.72264,0.0119382,0.397575,20.4926,522.301,28.0243,0.0,0.0
150,37.25,54.7925,55.8125,138.652,105.059,4.81239,0.0114288,0.388797,20.5067,522.321,27.853,0.0,0.0
153,38,54.0051,55.7361,143.743,105.054,4.76348,0.0109672,0.380088,20.5226,522.271,27.945,0.0,0.0
156,38.75,54.1605,55.9385,140.199,105.032,4.78057,0.010512,0.371698,20.5373,522.111,27.9107,0.0,0.0
159,39.5,54.4938,55.5789,139.372,105.021,4.74923,0.0101277,0.363773,20.5493,522.081,27.9691,0.0,0.0
162,40.25,54.3594,56.2978,142.334,105.016,4.70174,0.00986834,0.355924,20.5576,522.091,28.0595,0.0,0.0
165,41,54.7515,56.0059,138.117,105.004,4.65616,0.00953316,0.348807,20.5686,522.021,28.1464,0.0,0.0
168,41.75,55.035,56.4144,136.813,104.983,4.68275,0.00919917,0.343024,20.5791,521.911,28.0932,0.0,0.0
171,42.5,55.4314,56.9092,140.176,104.973,4.77535,0.00890642,0.336572,20.5892,521.881,27.9155,0.0,0.0
174,43.25,55.175,57.064,139.745,104.954,4.7554,0.00862047,0.333274,20.5992,521.851,27.9516,0.0,0.0
177,44,55.247,56.7928,141.253,104.96,4.60962,0.00837264,0.327911,20.6076,521.861,28.2335,0.0,0.0
180,44.75,55.2576,57.0773,140.988,104.931,4.73309,0.00817519,0.323046,20.6156,521.751,27.9921,0.0,0.0
183,45.5,55.3405,57.2514,141.399,104.933,4.659,0.00805396,0.318574,20.6204,521.711,28.1348,0.0,0.0
186,46.25,55.5836,57.5797,143.109,104.918,4.68227,0.00787624,0.314427,20.6286,521.671,28.0885,0.0,0.0
189,47,55.7069,57.052,144.988,104.906,4.64096,0.00780293,0.310303,20.6333,521.691,28.1675,0.0,0.0
192,47.75,55.2867,57.7617,141.034,104.881,4.64286,0.00771291,0.30659,20.6387,521.621,28.1617,0.0,0.0
195,48.5,55.3692,57.6232,137.027,104.862,4.55311,0.00763814,0.304482,20.644,521.551,28.3364,0.0,0.0
198,49.25,55.2498,57.5246,138.692,104.878,4.55453,0.00759631,0.300614,20.6491,521.491,28.3349,0.0,0.0
201,50,55.3173,57.6789,145.321,104.853,4.63336,0.00759118,0.299097,20.6539,521.491,28.1778,0.0,0.0
204,50.75,55.2867,58.3314,139.742,104.845,4.51892,0.00761697,0.296682,20.6581,521.381,28.4031,0.0,0.0
207,51.5,55.9036,58.2144,139.755,104.816,4.55596,0.00766778,0.294444,20.6631,521.351,28.3268,0.0,0.0
210,52.25,55.9814,58.3584,140.492,104.797,4.61959,0.00774294,0.29239,20.6668,521.311,28.1999,0.0,0.0
213,53,55.4468,58.4087,141.029,104.799,4.60012,0.00781399,0.290519,20.6701,521.301,28.2382,0.0,0.0
216,53.75,55.345,58.4926,140.82,104.788,4.58207,0.00786578,0.288917,20.6725,521.27,28.2727,0.0,0.0
219,54.5,55.9023,58.1763,138.376,104.772,4.57068,0.00802156,0.287647,20.675,521.18,28.2938,0.0,0.0
222,55.25,55.6578,58.6194,140.39,104.752,4.62101,0.00815391,0.286722,20.6771,521.11,28.1932,0.0,0.0
225,56,56.2069,58.6748,141.218,104.763,4.54266,0.00828251,0.286047,20.6787,521.07,28.3486,0.0,0.0
228,56.75,55.4942,59.0609,135.474,104.746,4.54314,0.00840903,0.285941,20.6798,521.03,28.3462,0.0,0.0
231,57.5,55.8247,58.7347,145.208,104.728,4.49992,0.00850891,0.285948,20.6806,520.95,28.431,0.0,0.0
234,58.25,56.0584,59.1843,137.653,104.711,4.51464,0.0085897,0.286096,20.6812,520.92,28.4001,0.0,0.0
237,59,55.7214,58.6168,139.41,104.71,4.53126,0.00865663,0.286092,20.6817,520.89,28.3667,0.0,0.0
240,59.75,56.3218,58.3202,143.388,104.711,4.4966,0.00871818,0.286042,20.682,520.87,28.4362,0.0,0.0
243,60.5,55.8022,58.2015,141.526,104.684,4.53316,0.00876304,0.28621,20.6822,520.74,28.3607,0.0,0.0
246,61.25,56.0073,59.273,144.435,104.665,4.60107,0.00881579,0.286992,20.682,520.69,28.2247,0.0,0.0
249,62,56.0468,59.0549,137.75,104.668,4.56023,0.00885041,0.288249,20.6811,520.63,28.3055,0.0,0.0
252,62.75,56.3551,59.0538,144.917,104.666,4.61627,0.00886595,0.289458,20.6797,520.63,28.1951,0.0,0.0
255,63.5,56.0878,59.4947,138.92,104.64,4.57448,0.00886348,0.291505,20.6774,520.53,28.275,0.0,0.0
258,64.25,56.2396,58.9459,142.153,104.624,4.56688,0.00883437,0.293293,20.6753,520.48,28.2886,0.0,0.0
261,65,56.6192,59.5839,139.619,104.637,4.54266,0.00877312,0.295103,20.6736,520.44,28.3378,0.0,0.0
264,65.75,55.8858,59.7871,142.93,104.625,4.62671,0.00870368,0.296468,20.6723,520.45,28.1711,0.0,0.0
267,66.5,56.2151,59.3511,139.427,104.611,4.46288,0.0086107,0.297254,20.6714,520.36,28.4956,0.0,0.0
270,67.25,56.5049,59.4918,139.589,104.595,4.61389,0.00854291,0.297679,20.6709,520.29,28.1936,0.0,0.0
273,68,56.5054,59.5056,142.687,104.583,4.58825,0.00840062,0.297887,20.6706,520.21,28.2429,0.0,0.0
276,68.75,56.6234,59.6382,145.766,104.576,4.64571,0.00822187,0.297787,20.6704,520.24,28.1299,0.0,0.0
279,69.5,56.5449,59.3007,142.932,104.563,4.59632,0.008031,0.297714,20.6716,520.159,28.2253,0.0,0.0
282,70.25,56.3203,59.5797,145.813,104.56,4.60724,0.00776535,0.295997,20.6741,520.109,28.2035,0.0,0.0
285,71,56.512,59.746,140.835,104.552,4.59775,0.00748319,0.294745,20.678,520.069,28.2215,0.0,0.0
288,71.75,56.9526,60.0214,139.2,104.535,4.63051,0.00726341,0.29106,20.683,520.059,28.1559,0.0,0.0
291,72.5,56.7398,60.3486,145.089,104.534,4.63479,0.00694644,0.286507,20.69,520.029,28.1475,0.0,0.0
294,73.25,56.4915,60.0137,144.128,104.504,4.69367,0.00660409,0.280615,20.6971,519.959,28.0309,0.0,0.0
297,74,56.6248,60.0499,140.973,104.503,4.73071,0.00635452,0.274765,20.704,519.919,27.9598,0.0,0.0
300,74.75,56.3843,60.001,142.689,104.501,4.73926,0.0060508,0.270817,20.7098,519.919,27.9433,0.0,0.0
303,75.5,56.2073,60.2817,145.524,104.493,4.73641,0.00582939,0.264779,20.7163,519.859,27.948,0.0,0.0
306,76.25,56.5719,60.2574,142.654,104.468,4.68085,0.0055429,0.259748,20.7219,519.789,28.0525,0.0,0.0
309,77,56.4661,60.3533,148.301,104.465,4.73451,0.00533405,0.25385,20.7276,519.749,27.9492,0.0,0.0
312,77.75,56.6806,60.3807,140.218,104.477,4.74876,0.00507838,0.248757,20.733,519.789,27.9232,0.0,0.0
315,78.5,56.7434,59.8771,139.966,104.455,4.76728,0.00484582,0.243687,20.7389,519.769,27.886,0.0,0.0
318,79.25,56.0328,59.7369,146.916,104.439,4.77345,0.00462916,0.23999,20.7443,519.679,27.873,0.0,0.0
321,80,56.0278,59.7878,145.058,104.427,4.74353,0.00444838,0.23448,20.7503,519.659,27.9287,0.0,0.0
324,80.75,56.05,59.6041,145.658,104.425,4.82379,0.00429752,0.228926,20.7584,519.679,27.777,0.0,0.0
327,81.5,55.5476,59.9543,143.262,104.427,4.86795,0.00418164,0.223656,20.7643,519.679,27.6949,0.0,0.0
330,82.25,56.332,59.4811,145.023,104.406,4.79672,0.00408708,0.218845,20.7711,519.619,27.8262,0.0,0.0
333,83,55.5944,59.7848,146.103,104.394,4.80289,0.00400038,0.213788,20.7783,519.619,27.8135,0.0,0.0
336,83.75,55.742,59.6555,143.785,104.394,4.8537,0.00392605,0.209445,20.7849,519.629,27.7185,0.0,0.0
339,84.5,55.3453,59.5273,144.552,104.387,4.84753,0.00385281,0.205155,20.7905,519.629,27.7294,0.0,0.0
342,85.25,55.663,59.4619,143.137,104.39,4.84088,0.00377104,0.200903,20.7968,519.559,27.742,0.0,0.0
345,86,55.2182,59.4049,144.14,104.401,4.88694,0.00368905,0.197325,20.803,519.549,27.6575,0.0,0.0
348,86.75,55.3328,59.4354,146.89,104.428,4.90119,0.00361974,0.193374,20.8088,519.549,27.6335,0.0,0.0
351,87.5,54.8445,59.3895,148.495,104.461,4.94725,0.00354263,0.189675,20.8138,519.569,27.5518,0.0,0.0
354,88.25,54.9073,59.0653,145.117,104.486,4.86178,0.00348641,0.186269,20.8183,519.499,27.7115,0.0,0.0
357,89,55.1247,59.1777,142.359,104.495,4.82616,0.00342054,0.183171,20.8222,519.509,27.7786,0.0,0.0
360,89.75,54.8858,59.3483,148.116,104.51,4.81334,0.00336059,0.180304,20.8263,519.489,27.8039,0.0,0.0
363,90.5,54.7203,58.7241,147.531,104.545,4.8803,0.00331466,0.177956,20.8301,519.539,27.6821,0.0,0.0
366,91.25,54.6464,58.8138,141.549,104.57,4.93776,0.00328825,0.175122,20.8333,519.449,27.5786,0.0,0.0
369,92,54.3768,58.8448,143.593,104.578,4.82854,0.00326966,0.173056,20.8369,519.439,27.7813,0.0,0.0
372,92.75,54.4198,58.4051,149.211,104.607,4.8689,0.00325722,0.170919,20.8395,519.429,27.7087,0.0,0.0
375,93.5,53.8276,58.3028,145.348,104.632,4.84943,0.00324815,0.169006,20.8419,519.499,27.747,0.0,0.0
378,94.25,54.1138,58.2528,148.869,104.654,4.84088,0.00324402,0.167275,20.8444,519.479,27.7648,0.0,0.0
381,95,53.7696,58.3009,147.448,104.658,4.8499,0.00324265,0.165694,20.8459,519.399,27.7483,0.0,0.0
384,95.75,53.9101,58.3351,149.34,104.674,4.86842,0.00325101,0.163996,20.8479,519.369,27.7153,0.0,0.0
387,96.5,53.6082,58.1383,147.006,104.705,4.85085,0.00326264,0.16239,20.8501,519.399,27.7507,0.0,0.0
390,97.25,53.3794,57.894,148.46,104.727,4.91876,0.00327335,0.161063,20.8518,519.399,27.627,0.0,0.0
393,98,53.4911,57.7181,147.164,104.74,4.93396,0.00327585,0.160017,20.8535,519.339,27.6002,0.0,0.0
396,98.75,53.1924,57.529,149.334,104.757,4.90879,0.00327767,0.158809,20.8548,519.349,27.6479,0.0,0.0
399,99.5,53.5232,57.9387,143.897,104.769,4.92399,0.00327312,0.157322,20.8563,519.359,27.621,0.0,0.0
402,100.25,53.0933,57.529,146.484,104.787,4.89074,0.00325974,0.155778,20.8579,519.389,27.6838,0.0,0.0
405,101,53.0616,57.4296,146.219,104.795,4.9482,0.00323937,0.154652,20.8595,519.309,27.5789,0.0,0.0
408,101.75,52.9082,57.5623,141.864,104.79,4.90452,0.0032121,0.153413,20.861,519.289,27.6586,0.0,0.0
411,102.5,52.6254,57.0829,144.108,104.81,4.92826,0.00318694,0.152511,20.8631,519.309,27.6167,0.0,0.0
414,103.25,52.6571,57.1174,146.973,104.848,4.85703,0.00314254,0.151501,20.8649,519.379,27.7515,0.0,0.0
417,104,52.6133,57.0664,145.744,104.835,4.85275,0.00308668,0.150485,20.8669,519.299,27.7583,0.0,0.0
420,104.75,52.4441,57.2068,149.042,104.855,4.91639,0.00302476,0.149521,20.8686,519.299,27.6423,0.0,0.0
423,105.5,52.4463,57.103,145.194,104.853,4.8822,0.0029598,0.148443,20.8702,519.289,27.7052,0.0,0.0
426,106.25,52.1582,56.7184,146.649,104.871,4.89882,0.00290204,0.147657,20.8713,519.349,27.6761,0.0,0.0
429,107,52.3422,56.8784,146.374,104.864,4.87935,0.00285659,0.146709,20.8726,519.279,27.7115,0.0,0.0
432,107.75,52.5134,56.5233,148.488,104.85,4.87555,0.00283582,0.14577,20.8738,519.259,27.7173,0.0,0.0
435,108.5,52.182,56.6155,147.845,104.85,4.92588,0.0028418,0.144888,20.8752,519.249,27.6245,0.0,0.0
438,109.25,51.776,56.5096,149.198,104.86,4.92778,0.00285517,0.144088,20.8764,519.319,27.6219,0.0,0.0
441,110,51.9731,56.0594,149.172,104.849,4.94915,0.00288515,0.143442,20.8774,519.279,27.5819,0.0,0.0
444,110.75,51.7099,56.093,146.402,104.844,4.91021,0.00294159,0.142879,20.8781,519.229,27.6528,0.0,0.0
447,111.5,51.7399,56.2394,145.841,104.835,4.93443,0.0029969,0.142311,20.8786,519.259,27.6075,0.0,0.0
450,112.25,51.5256,56.2924,148.373,104.835,4.93348,0.00303723,0.141739,20.879,519.309,27.6093,0.0,0.0
453,113,51.4957,56.1181,149.811,104.832,4.93206,0.00306531,0.141254,20.8805,519.279,27.6116,0.0,0.0
456,113.75,51.3593,55.509,146.612,104.809,4.94725,0.0030816,0.140714,20.8816,519.209,27.5818,0.0,0.0
459,114.5,51.017,55.9914,145.988,104.804,4.88077,0.00309012,0.140116,20.8827,519.209,27.7036,0.0,0.0
462,115.25,51.3568,55.4844,148.545,104.794,4.91496,0.00309633,0.139479,20.8838,519.259,27.6398,0.0,0.0
465,116,51.0536,55.5401,149.023,104.793,4.86178,0.00310085,0.138818,20.8847,519.249,27.7379,0.0,0.0
468,116.75,50.7644,55.5465,148.302,104.768,4.92731,0.00313071,0.138088,20.8855,519.199,27.6148,0.0,0.0
471,117.5,50.953,55.4014,148.055,104.748,4.89027,0.0031624,0.137497,20.8865,519.219,27.6812,0.0,0.0
474,118.25,51.0872,55.2788,150.739,104.734,4.93823,0.00318974,0.137042,20.8873,519.229,27.5919,0.0,0.0
477,119,50.9253,54.961,148.13,104.714,4.87365,0.00319875,0.136689,20.8877,519.239,27.709,0.0,0.0
480,119.75,50.694,55.3422,149.984,104.687,4.86178,0.00320328,0.136432,20.8881,519.179,27.7288,0.0,0.0
483,120.5,50.858,55.1239,149.781,104.661,4.89549,0.00319652,0.135955,20.8884,519.159,27.6641,0.0,0.0
486,121.25,50.4265,55.1019,144.77,104.642,4.92446,0.00319514,0.135534,20.8886,519.229,27.6092,0.0,0.0
489,122,50.6194,54.7459,149.939,104.624,4.90879,0.00319413,0.135298,20.8888,519.289,27.6364,0.0,0.0
492,122.75,50.6198,54.9306,145.353,104.594,4.88694,0.00322882,0.135053,20.8889,519.199,27.6741,0.0,0.0
495,123.5,50.3557,54.8604,146.684,104.566,4.90214,0.0032541,0.134859,20.8889,519.159,27.6436,0.0,0.0
498,124.25,50.4991,54.7999,145.294,104.54,4.8784,0.0033399,0.134704,20.889,519.159,27.6853,0.0,0.0
501,125,50.3458,54.6942,148.412,104.528,4.85845,0.0034348,0.134523,20.889,519.219,27.7212,0.0,0.0
504,125.75,50.3113,54.1789,151.387,104.495,4.87887,0.00353153,0.134273,20.889,519.149,27.6805,0.0,0.0
507,126.5,50.1321,54.4353,149.017,104.452,4.8708,0.00362558,0.133932,20.8896,519.139,27.6917,0.0,0.0
510,127.25,50.0612,54.3318,147.368,104.424,4.81666,0.00372258,0.133615,20.8906,519.139,27.7903,0.0,0.0
513,128,49.8167,54.1694,148.739,104.408,4.85465,0.0038095,0.133197,20.8914,519.179,27.7179,0.0,0.0
516,128.75,50.1048,54.3329,146.459,104.369,4.90784,0.00387977,0.132748,20.892,519.119,27.6161,0.0,0.0
519,129.5,49.8322,54.1081,146.319,104.326,4.82189,0.00393802,0.132258,20.8925,519.109,27.772,0.0,0.0
522,130.25,49.7767,54.0927,148.898,104.288,4.82474,0.00398048,0.131857,20.8927,519.089,27.7633,0.0,0.0
525,131,48.8242,54.2816,145.716,104.258,4.8632,0.00399773,0.131523,20.8927,519.179,27.6891,0.0,0.0
528,131.75,49.5499,53.9843,146.726,104.247,4.85703,0.00399395,0.131342,20.8928,519.149,27.6996,0.0,0.0
531,132.5,49.4581,53.7763,150.481,104.199,4.83471,0.00397326,0.13121,20.8928,519.129,27.737,0.0,0.0
534,133.25,49.6313,53.8946,151.952,104.177,4.86795,0.00393152,0.13117,20.8928,519.078,27.6732,0.0,0.0
537,134,48.7663,53.5204,145.525,104.163,4.83186,0.00389114,0.131165,20.8928,519.139,27.7392,0.0,0.0
540,134.75,49.3277,53.7156,144.487,104.122,4.77013,0.00385811,0.131182,20.8928,519.139,27.8519,0.0,0.0
543,135.5,49.1986,53.3654,146.149,104.082,4.86273,0.00383515,0.131253,20.8928,519.068,27.6746,0.0,0.0
546,136.25,49.1488,53.6318,147.874,104.062,4.86842,0.00382729,0.131375,20.8928,519.059,27.6624,0.0,0.0
549,137,49.2461,53.3717,151.925,104.034,4.84801,0.00382156,0.131542,20.8928,519.048,27.6979,0.0,0.0
552,137.75,49.2798,52.8341,149.283,104.022,4.81571,0.00382449,0.131829,20.8928,519.149,27.7572,0.0,0.0
555,138.5,48.5776,53.5743,146.148,104.003,4.83423,0.00382269,0.132125,20.8928,519.048,27.7209,0.0,0.0
558,139.25,48.7996,52.9927,151.021,104.017,4.82996,0.00381466,0.132378,20.8928,519.048,27.7301,0.0,0.0
561,140,48.9463,53.0077,149.933,104.024,4.83043,0.00377507,0.132563,20.8928,519.038,27.7299,0.0,0.0
564,140.75,48.6934,52.8692,147.048,104.042,4.83756,0.00373901,0.132652,20.8928,519.139,27.7181,0.0,0.0
567,141.5,48.7243,53.0742,150.294,104.044,4.83993,0.0037004,0.132638,20.8928,519.059,27.7138,0.0,0.0
570,142.25,47.5896,53.9636,152.206,104.058,4.77677,0.00367474,0.13267,20.8928,519.059,27.8337,0.0,0.0
573,143,49.2668,51.8022,145.363,104.062,4.8613,0.00366208,0.132692,20.8928,519.038,27.6755,0.0,0.0
576,143.75,48.6199,52.6039,147.789,104.089,4.867,0.00365497,0.132833,20.8928,519.119,27.6673,0.0,0.0
579,144.5,48.2223,52.1901,148.995,104.089,4.85323,0.00364978,0.133023,20.8928,519.038,27.693,0.0,0.0
582,145.25,48.3711,52.0225,147.241,104.099,4.89264,0.00364245,0.133244,20.8928,518.998,27.6207,0.0,0.0
585,146,48.0349,52.114,154.098,104.112,4.8784,0.00364208,0.133484,20.8931,519.008,27.6482,0.0,0.0
588,146.75,47.9853,51.806,146.032,104.133,4.82759,0.00365114,0.133658,20.8926,519.129,27.7446,0.0,0.0
591,147.5,47.5981,52.0681,147.246,104.148,4.79909,0.00367007,0.133786,20.8925,519.038,27.7994,0.0,0.0
594,148.25,48.0892,52.2389,149.81,104.179,4.94346,0.00370695,0.133833,20.8928,519.018,27.5344,0.0,0.0
597,149,47.5062,51.9248,149.688,104.175,4.90452,0.00375002,0.133789,20.8931,519.008,27.6054,0.0,0.0
600,149.75,47.6099,51.8068,150.313,104.206,4.8727,0.00378832,0.133881,20.8932,519.059,27.6669,0.0,0.0
603,150.5,47.3595,51.1981,148.028,104.211,4.89644,0.00382628,0.133948,20.8934,519.048,27.6234,0.0,0.0
606,151.25,47.5961,51.3424,146.411,104.232,4.87745,0.00385822,0.133974,20.8934,518.968,27.6604,0.0,0.0
609,152,47.4117,52.0565,146.471,104.247,4.87887,0.00388276,0.133954,20.8935,518.968,27.659,0.0,0.0
612,152.75,47.3087,51.6423,150.869,104.286,4.93871,0.00390118,0.134001,20.8937,519.048,27.5523,0.0,0.0
615,153.5,47.3444,51.5613,147.237,104.323,4.90262,0.0039146,0.134035,20.8939,518.998,27.6218,0.0,0.0
618,154.25,47.3578,51.6366,146.202,104.335,4.92304,0.00393861,0.134042,20.8941,518.928,27.5852,0.0,0.0
621,155,46.9563,51.1136,145.51,104.356,4.88932,0.00396983,0.134047,20.8942,518.928,27.6491,0.0,0.0
624,155.75,47.4809,51.5009,149.637,104.385,4.87365,0.0040004,0.13405,20.8943,519.018,27.6806,0.0,0.0
627,156.5,47.6433,51.239,144.39,104.413,4.89787,0.00402605,0.134038,20.8944,519.018,27.6383,0.0,0.0
630,157.25,47.235,51.3368,147.643,104.42,4.90547,0.00404475,0.134031,20.8944,518.888,27.6249,0.0,0.0
633,158,47.5295,51.4548,149.085,104.445,4.91591,0.00405839,0.134039,20.8949,518.918,27.6078,0.0,0.0
636,158.75,47.5435,50.9961,144.258,104.469,4.91259,0.00404521,0.134024,20.8954,518.878,27.6161,0.0,0.0
639,159.5,47.3719,51.0775,147.091,104.505,4.89597,0.00401192,0.133969,20.8958,518.968,27.6498,0.0,0.0
642,160.25,47.4574,51.1376,147.866,104.502,4.89787,0.00396574,0.133911,20.8961,518.898,27.646,0.0,0.0
645,161,47.5009,51.0156,148.785,104.523,4.97717,0.00391183,0.133951,20.8963,518.858,27.5027,0.0,0.0
648,161.75,47.3532,50.7189,149.955,104.534,4.85085,0.00385262,0.134024,20.8965,518.908,27.7359,0.0,0.0
651,162.5,46.8632,50.7647,149.979,104.571,4.886,0.00380097,0.134081,20.8964,518.958,27.6739,0.0,0.0
654,163.25,47.383,51.1255,145.951,104.575,4.87745,0.00375622,0.134096,20.8963,518.878,27.69,0.0,0.0
657,164,46.8977,50.9237,147.03,104.592,4.83898,0.00372608,0.134083,20.8962,518.858,27.763,0.0,0.0
660,164.75,47.2463,50.8769,146.085,104.604,4.92683,0.00370517,0.134033,20.8962,518.868,27.6015,0.0,0.0
663,165.5,46.7123,50.8703,149.207,104.631,4.90214,0.00370362,0.133997,20.8961,518.948,27.6492,0.0,0.0
666,166.25,46.8329,50.758,147.405,104.637,4.84658,0.0037116,0.133963,20.8961,518.848,27.7527,0.0,0.0
669,167,47.1986,50.9061,150.725,104.641,4.88884,0.00372301,0.133925,20.8961,518.858,27.6747,0.0,0.0
672,167.75,47.1714,51.0681,144.471,104.658,4.90689,0.00373199,0.13398,20.896,518.848,27.6428,0.0,0.0
675,168.5,47.1833,50.6426,147.975,104.668,4.8822,0.00373966,0.134028,20.8959,518.958,27.6893,0.0,0.0
678,169.25,47.1415,50.768,144.72,104.678,4.94868,0.00373814,0.134076,20.8958,518.908,27.568,0.0,0.0
681,170,46.9401,50.797,146.582,104.674,4.91496,0.00373082,0.134049,20.8957,518.818,27.6294,0.0,0.0
684,170.75,46.7896,50.3232,148.695,104.686,4.86748,0.00371889,0.134029,20.8956,518.818,27.7181,0.0,0.0
687,171.5,46.7548,50.697,149.608,104.701,4.8575,0.00370348,0.133913,20.8955,518.898,27.7379,0.0,0.0
690,172.25,47.2324,50.297,147.843,104.707,4.88457,0.00369225,0.133785,20.8955,518.898,27.6883,0.0,0.0
693,173,46.9512,50.2864,152.518,104.713,4.8727,0.00367164,0.133684,20.8954,518.808,27.7107,0.0,0.0
696,173.75,46.5056,50.3784,147.705,104.712,4.94488,0.00365537,0.133598,20.8954,518.798,27.5779,0.0,0.0
699,174.5,47.1908,50.2658,148.224,104.697,4.94346,0.00364298,0.133534,20.8954,518.808,27.5791,0.0,0.0
702,175.25,46.3589,50.5253,147.448,104.728,4.95723,0.00364991,0.133385,20.8954,518.828,27.5567,0.0,0.0
705,176,46.6361,50.4692,148.518,104.716,4.90784,0.00367488,0.133276,20.8954,518.798,27.6461,0.0,0.0
708,176.75,46.9629,50.705,150.32,104.706,4.88267,0.00371403,0.133114,20.8954,518.768,27.6917,0.0,0.0
711,177.5,46.5924,50.0842,148.5,104.723,4.92541,0.00376386,0.13301,20.896,518.748,27.6144,0.0,0.0
714,178.25,46.4417,50.339,150.313,104.732,4.9463,0.0038233,0.132941,20.8965,518.808,27.5769,0.0,0.0
717,179,46.7752,50.4587,148.73,104.71,4.90736,0.00386662,0.13289,20.8968,518.718,27.6465,0.0,0.0
720,179.75,46.7034,50.1875,148.392,104.715,4.87745,0.00388754,0.132812,20.897,518.738,27.7021,0.0,0.0
723,180.5,46.6702,49.597,148.126,104.713,4.92683,0.00386371,0.132784,20.897,518.738,27.6109,0.0,0.0
726,181.25,47.1346,50.2348,144.752,104.725,4.92683,0.00382603,0.132776,20.8965,518.808,27.612,0.0,0.0
729,182,46.3704,49.9233,147.755,104.72,4.92304,0.00376384,0.132915,20.8962,518.708,27.6185,0.0,0.0
732,182.75,46.8302,50.2623,149.553,104.696,4.93823,0.00371229,0.133024,20.896,518.708,27.5886,0.0,0.0
735,183.5,46.6379,49.8368,148.137,104.69,4.85465,0.00368318,0.133116,20.8958,518.728,27.7423,0.0,0.0
738,184.25,46.6942,49.8827,147.889,104.696,4.84373,0.003681,0.133101,20.8957,518.808,27.7632,0.0,0.0
741,185,46.8033,49.8406,146.129,104.696,4.90309,0.00371314,0.133074,20.8956,518.738,27.6531,0.0,0.0
744,185.75,46.3303,50.0963,144.094,104.668,4.8822,0.00373657,0.133029,20.8955,518.708,27.6893,0.0,0.0
747,186.5,46.7044,49.8247,150.496,104.662,4.89359,0.0037643,0.132934,20.8955,518.678,27.6677,0.0,0.0
750,187.25,46.1652,49.8355,148.635,104.674,4.81809,0.00378577,0.132864,20.8954,518.768,27.8092,0.0,0.0
753,188,46.6428,49.8344,148.263,104.658,4.93728,0.00380195,0.132814,20.8954,518.698,27.5871,0.0,0.0
756,188.75,46.6733,50.0377,148.899,104.622,4.94061,0.00382263,0.13282,20.8954,518.658,27.5779,0.0,0.0
759,189.5,46.5649,49.764,148.399,104.621,4.88505,0.00384125,0.132844,20.8954,518.698,27.6799,0.0,0.0
762,190.25,46.3827,49.9623,145.824,104.627,4.97622,0.00385483,0.132902,20.8949,518.728,27.5134,0.0,0.0
765,191,46.4808,50.0823,147.47,104.607,4.98857,0.00384979,0.132974,20.8946,518.718,27.4894,0.0,0.0
768,191.75,46.4824,49.9907,144.02,104.579,4.97005,0.00383974,0.133038,20.8945,518.648,27.5205,0.0,0.0
771,192.5,46.2956,50.1799,143.311,104.56,4.95865,0.00380045,0.133085,20.8945,518.648,27.5396,0.0,0.0
774,193.25,46.1762,49.9218,150.026,104.555,4.90167,0.00377181,0.133135,20.8944,518.648,27.6436,0.0,0.0
777,194,46.4655,49.477,149.353,104.539,4.90167,0.00370492,0.133197,20.8944,518.708,27.6422,0.0,0.0
780,194.75,45.8445,49.9016,145.376,104.499,4.97147,0.00362019,0.133243,20.8944,518.608,27.511,0.0,0.0
783,195.5,46.4588,49.8326,150.535,104.48,4.90736,0.00353046,0.133276,20.8944,518.618,27.6266,0.0,0.0
786,196.25,46.4238,49.3289,146.187,104.486,4.86795,0.00343495,0.133271,20.8944,518.638,27.6999,0.0,0.0
789,197,46.4048,49.3705,146.454,104.452,4.8746,0.00335664,0.133255,20.895,518.718,27.6847,0.0,0.0
792,197.75,46.5393,49.564,148.372,104.424,4.90689,0.0032978,0.133243,20.8954,518.618,27.6227,0.0,0.0
795,198.5,46.4733,49.9462,146.489,104.395,4.90689,0.00325826,0.133133,20.8958,518.598,27.6201,0.0,0.0
798,199.25,46.327,49.3842,147.849,104.393,4.87697,0.00324006,0.132979,20.896,518.658,27.6752,0.0,0.0
801,200,45.9116,49.4007,145.771,104.363,4.91734,0.00322679,0.132815,20.8962,518.708,27.5981,0.0,0.0
804,200.75,46.3321,49.1338,145.639,104.342,4.8632,0.00322774,0.132612,20.8963,518.618,27.6963,0.0,0.0
807,201.5,46.447,49.0946,146.245,104.321,4.95865,0.00323366,0.132407,20.8964,518.598,27.5189,0.0,0.0
810,202.25,46.0825,49.8219,149.738,104.285,4.92351,0.00324691,0.132232,20.8967,518.618,27.58,0.0,0.0
813,203,46.4975,49.784,147.251,104.267,4.89454,0.0032672,0.132063,20.8973,518.708,27.6318,0.0,0.0
816,203.75,46.316,49.1148,148.682,104.234,4.8613,0.00327611,0.131963,20.8978,518.568,27.6905,0.0,0.0
819,204.5,46.5171,49.6247,145.125,104.196,4.87412,0.00327255,0.131929,20.8981,518.558,27.6634,0.0,0.0
822,205.25,46.3024,49.5983,148.009,104.166,4.89217,0.00324339,0.131863,20.8983,518.568,27.6275,0.0,0.0
825,206,45.7268,49.1226,149.101,104.16,4.89739,0.00320104,0.131815,20.8985,518.678,27.6173,0.0,0.0
828,206.75,46.1372,49.2791,149.587,104.124,4.93206,0.00316118,0.13176,20.8986,518.648,27.5504,0.0,0.0
831,207.5,45.9929,49.3339,149.949,104.091,4.94725,0.00312364,0.131705,20.8987,518.568,27.5198,0.0,0.0
834,208.25,46.5123,49.0741,146.379,104.051,4.90736,0.00308698,0.131605,20.8988,518.548,27.5894,0.0,0.0
837,209,46.5431,49.3104,148.961,104.033,4.8841,0.00306918,0.131441,20.8988,518.648,27.6308,0.0,0.0
840,209.75,46.5203,49.5761,148.225,104.007,4.91069,0.0030916,0.131365,20.8989,518.628,27.5795,0.0,0.0
843,210.5,45.6807,49.4035,147.675,103.977,4.92351,0.00313898,0.131328,20.8989,518.518,27.5533,0.0,0.0
846,211.25,46.2211,49.1414,150.055,103.938,4.90024,0.00320571,0.131218,20.8989,518.518,27.5927,0.0,0.0
849,212,46.3903,49.3768,148.393,103.907,4.87032,0.0032868,0.131095,20.8989,518.568,27.6454,0.0,0.0
852,212.75,46.1408,48.7728,147.106,103.892,4.8803,0.00334591,0.130986,20.8989,518.578,27.6256,0.0,0.0
855,213.5,46.2323,49.4217,145.526,103.849,4.83803,0.00341028,0.130907,20.899,518.508,27.7004,0.0,0.0
858,214.25,46.0974,49.3671,146.976,103.816,4.8613,0.00345721,0.13085,20.8988,518.498,27.6542,0.0,0.0
861,215,46.4753,49.0756,149.895,103.786,4.89454,0.00346538,0.130866,20.8986,518.548,27.59,0.0,0.0
864,215.75,46.0577,48.9413,150.868,103.768,4.88267,0.00344715,0.130902,20.899,518.598,27.6104,0.0,0.0
867,216.5,46.0665,49.2343,149.006,103.738,4.90357,0.00340365,0.130928,20.8996,518.498,27.5692,0.0,0.0
870,217.25,46.1359,49.1718,149.061,103.699,4.8784,0.00335853,0.130784,20.9,518.488,27.6123,0.0,0.0
873,218,46.1198,49.0965,150.346,103.68,4.94108,0.00331855,0.13068,20.9003,518.478,27.4953,0.0,0.0
876,218.75,45.9007,49.1487,147.562,103.66,4.90357,0.00328817,0.1305,20.9005,518.548,27.5624,0.0,0.0
879,219.5,46.057,48.621,149.376,103.63,4.89834,0.00326288,0.130286,20.9007,518.448,27.5694,0.0,0.0
882,220.25,45.8672,49.383,147.644,103.598,4.90594,0.00323997,0.129971,20.9014,518.448,27.5527,0.0,0.0
885,221,45.7782,48.5469,147.305,103.577,4.83946,0.00320956,0.129674,20.902,518.468,27.674,0.0,0.0
888,221.75,46.0861,49.1946,147.209,103.567,4.8727,0.00316394,0.129271,20.9024,518.598,27.6113,0.0,0.0
891,222.5,45.916,48.5188,148.221,103.548,4.886,0.00311954,0.129036,20.9026,518.498,27.5851,0.0,0.0
894,223.25,46.006,48.6279,146.116,103.516,4.85703,0.00306238,0.128942,20.9028,518.488,27.636,0.0,0.0
897,224,46.0425,48.8123,147.164,103.493,4.85323,0.00301067,0.128965,20.9024,518.478,27.6411,0.0,0.0
900,224.75,46.059,48.9989,148.645,103.488,4.85893,0.00297297,0.129004,20.902,518.538,27.63,0.0,0.0
903,225.5,45.4062,48.3964,149.494,103.483,4.91686,0.0029494,0.129052,20.9018,518.478,27.5225,0.0,0.0
906,226.25,46.117,48.8348,149.575,103.455,4.95343,0.00293891,0.129065,20.9016,518.418,27.4532,0.0,0.0
909,227,45.9458,48.7261,146.209,103.462,4.88552,0.0029348,0.129032,20.9015,518.418,27.5785,0.0,0.0
912,227.75,46.2283,49.2567,148.99,103.444,4.89122,0.0029318,0.128989,20.9014,518.478,27.5663,0.0,0.0
915,228.5,46.2387,48.5582,148.863,103.446,4.83423,0.00292255,0.128937,20.9013,518.508,27.6724,0.0,0.0
918,229.25,46.2769,48.8302,149.137,103.422,4.83708,0.00291934,0.128972,20.9013,518.408,27.665,0.0,0.0
921,230,45.8695,48.7905,149.386,103.424,4.87745,0.00292031,0.129028,20.9012,518.388,27.5901,0.0,0.0
924,230.75,45.8589,48.8525,147.114,103.448,4.92588,0.00292477,0.129089,20.9012,518.388,27.5029,0.0,0.0
927,231.5,45.6592,48.8605,148.811,103.432,4.88077,0.00292431,0.129126,20.9012,518.478,27.5846,0.0,0.0
930,232.25,46.275,48.7247,147.093,103.436,4.8537,0.00291652,0.12914,20.9012,518.398,27.6352,0.0,0.0
933,233,45.9476,49.0652,146.709,103.422,4.86558,0.00289689,0.129119,20.9012,518.398,27.6119,0.0,0.0
936,233.75,45.904,48.8723,147.934,103.436,4.8537,0.00287589,0.129063,20.9012,518.378,27.6352,0.0,0.0
939,234.5,46.088,48.3117,147.777,103.449,4.87887,0.00286449,0.12897,20.9012,518.488,27.5896,0.0,0.0
942,235.25,46.244,48.6006,147.802,103.448,4.88267,0.00286287,0.128882,20.9011,518.408,27.5825,0.0,0.0
945,236,45.9329,48.6759,147.956,103.45,4.96055,0.00287284,0.128832,20.9011,518.388,27.4397,0.0,0.0
948,236.75,45.6929,48.5814,149.051,103.466,4.83993,0.00288487,0.128802,20.9014,518.378,27.6635,0.0,0.0
951,237.5,45.6016,48.4417,148.987,103.477,4.87317,0.00289886,0.128739,20.9018,518.448,27.6026,0.0,0.0
954,238.25,46.1239,48.9054,145.996,103.476,4.86985,0.00291798,0.128693,20.902,518.338,27.6087,0.0,0.0
957,239,46.3488,48.7584,147.073,103.491,4.88362,0.00293369,0.128536,20.902,518.328,27.5845,0.0,0.0
960,239.75,45.7548,48.6657,149.775,103.517,4.886,0.0029377,0.128421,20.9021,518.328,27.5824,0.0,0.0
963,240.5,46.1127,48.9223,145.781,103.535,4.9672,0.00294072,0.128337,20.9022,518.438,27.435,0.0,0.0
966,241.25,45.6757,48.7393,145.928,103.543,4.92731,0.0029485,0.128262,20.9022,518.368,27.5086,0.0,0.0
969,242,45.6819,48.8623,145.217,103.566,4.8822,0.00297179,0.128208,20.9022,518.338,27.5937,0.0,0.0
972,242.75,46.1609,49.2441,147.911,103.574,4.8803,0.00301892,0.128182,20.9022,518.338,27.5979,0.0,0.0
975,243.5,45.8842,48.6884,145.759,103.604,4.89074,0.00309046,0.128149,20.9023,518.448,27.5812,0.0,0.0
978,244.25,45.878,48.6215,147.879,103.605,4.89977,0.00315876,0.128118,20.9023,518.418,27.5646,0.0,0.0
981,245,46.114,48.4722,145.351,103.619,4.84706,0.00321609,0.128096,20.9023,518.328,27.6635,0.0,0.0
984,245.75,45.9246,48.6709,148.1,103.636,4.8803,0.003259,0.128152,20.9023,518.318,27.6033,0.0,0.0
987,246.5,45.7163,48.6451,152.8,103.669,4.83898,0.00329028,0.128224,20.9023,518.408,27.683,0.0,0.0
990,247.25,45.981,48.6415,149.072,103.693,4.86035,0.00331439,0.128276,20.9023,518.398,27.6452,0.0,0.0
993,248,46.3663,48.8337,146.304,103.705,4.85988,0.0033342,0.128314,20.9023,518.298,27.6472,0.0,0.0
996,248.75,45.7457,48.9423,147.85,103.732,4.88125,0.00334734,0.128311,20.9023,518.298,27.6099,0.0,0.0
999,249.5,45.6722,48.503,153.797,103.761,4.89122,0.00335468,0.128257,20.9023,518.368,27.5939,0.0,0.0
1002,250.25,45.9504,48.8032,145.506,103.795,4.87982,0.0033494,0.128146,20.9023,518.388,27.618,0.0,0.0
1005,251,46.1032,48.605,150.806,103.805,4.91924,0.00333437,0.128034,20.9023,518.248,27.5463,0.0,0.0
1008,251.75,45.8444,48.4444,152.023,103.835,4.8765,0.00331277,0.127745,20.9023,518.258,27.6276,0.0,0.0
1011,252.5,45.9642,48.9428,152.163,103.865,4.89169,0.00328697,0.127593,20.9023,518.288,27.6022,0.0,0.0
1014,253.25,45.5234,48.7012,147.426,103.889,4.88932,,0.127507,,518.388,27.6086,0.0,0.0
1017,254,45.4642,48.2574,149.108,103.908,4.89644,,0.127423,,518.268,27.5971,0.0,0.0
1020,254.75,45.5752,48.3785,150.111,103.928,4.86937,,0.127348,,518.248,27.6489,0.0,0.0
1023,255.5,45.8613,48.5028,144.434,103.963,4.87555,,0.127287,,518.278,27.6405,0.0,0.0
1026,256.25,46.0343,48.4993,144.584,104.008,4.8746,,,,518.358,27.6462,0.0,0.0
1029,257,46.03,49.078,144.907,104.033,4.90404,,,,518.228,27.594,0.0,0.0
1032,257.75,45.7215,48.7035,149.37,104.057,4.88647,,,,518.248,27.6285,0.0,0.0
1035,258.5,45.6591,48.1958,147.558,104.1,4.90831,,,,518.228,27.5919,0.0,0.0
1038,259.25,45.5248,48.5444,145.976,104.13,4.92019,,,,518.348,27.5727,0.0,0.0
1041,260,45.3087,48.7456,150.57,104.157,4.93918,,,,518.218,27.5403,0.0,0.0
1044,260.75,45.8369,48.6171,150.517,104.178,4.8727,,,,518.198,27.6645,0.0,0.0
1047,261.5,45.8831,48.4726,148.372,104.21,4.98667,,,,518.168,27.4584,0.0,0.0
1050,262.25,46.1552,48.6392,148.441,104.235,4.9672,,,,518.278,27.4959,0.0,0.0
1053,263,45.7507,48.8571,148.342,104.273,4.94061,,,,518.228,27.5477,0.0,0.0
1056,263.75,45.9196,48.4454,149.101,104.298,4.9463,,,,518.198,27.5394,0.0,0.0
1057,264,45.7453,48.1232,149.054,104.317,4.96435,,,,518.248,27.5082,0.0,0.0