File: 01_Data/Polyisocyanurate_Foam_Board/Cone/Polyisocyanurate_Foam_Board_Cone_HF25Scan_220922_R4.csv
Names,Time,Stack TC,Smoke TC,Exh Press,Smoke Comp,Smoke Meas,CO Meter,CO2 Meter,O2 Meter,Sample Mass,Ext Coeff,Start Test,Flame Verif
Chan Gain,,500,500,1,1,1,1,1,1,1,1,1.0,1.0
Offset,,0,0,0.13918,0,0,0,0,0,0,0,0.0,0.0
Gain,,1,1,25.011,13.1577,15.2622,1,1,1,1.00088,1.00926,1.0,1.0
Units,sec,C,C,Pa,%,%,%,%,%,g,/m,,
Baseline,,31.6464,32.3798,163.145,99.8425,104.29,0.00112577,0.0870969,20.9271,-445.827,-0.385854,,
2,0.25,31.3789,32.0519,159.484,99.8518,103.259,0.00241306,0.103231,20.9147,82.4024,-0.297058,0.0,0.0
4,0.75,31.6788,31.9872,163.668,99.8149,99.3774,0.00276537,0.108961,20.9087,82.3524,0.0388863,0.0,0.0
6,1.25,30.7625,31.7256,150.631,99.8072,92.4948,0.00305074,0.119313,20.8992,82.2923,0.673617,0.0,0.0
8,1.75,30.2964,31.1576,150.847,99.7655,89.4846,0.00364085,0.132837,20.8833,82.2723,0.96283,0.0,1.0
10,2.25,30.0071,30.2715,151.907,99.747,86.7501,0.00444191,0.148108,20.863,82.3024,1.23595,0.0,1.0
12,2.75,29.3672,30.5676,151.528,99.7201,84.5475,0.00509077,0.164363,20.8466,82.1122,1.46124,0.0,1.0
14,3.25,30.1699,30.8822,155.027,99.7193,86.1516,0.00603407,0.177529,20.8266,82.1422,1.29478,0.0,1.0
16,3.75,30.6027,30.7409,150.137,99.6811,83.0547,0.00679815,0.188194,20.8045,82.0722,1.61549,0.0,1.0
18,4.25,30.9618,31.4005,150.452,99.6707,81.9471,0.00759838,0.202282,20.7808,82.0822,1.73342,0.0,1.0
20,4.75,31.2036,31.2765,149.256,99.6434,80.2415,0.00824657,0.218598,20.7565,82.0221,1.91721,0.0,1.0
22,5.25,31.5479,31.4765,150.41,99.6326,80.289,0.00881646,0.233617,20.7368,82.0221,1.911,0.0,1.0
24,5.75,31.9702,31.6683,149.662,99.6117,82.9941,0.00931847,0.247405,20.7143,81.882,1.61578,0.0,1.0
26,6.25,32.2516,31.7875,148.856,99.5956,79.2974,0.00972763,0.258573,20.696,81.942,2.01774,0.0,1.0
28,6.75,32.4032,32.2956,149.053,99.5703,82.6225,0.0100591,0.268293,20.6813,81.8419,1.65184,0.0,1.0
30,7.25,31.2909,31.068,149.779,99.5655,81.3067,0.0102779,0.276773,20.6693,81.8419,1.79353,0.0,1.0
32,7.75,31.6273,30.7844,150.566,99.5531,83.2731,0.0104551,0.283422,20.6596,81.7519,1.58085,0.0,1.0
34,8.25,31.6758,30.8254,152.739,99.5494,84.057,0.0105412,0.28861,20.6518,81.7719,1.49759,0.0,1.0
36,8.75,32.3222,31.354,150.524,99.5824,82.4627,0.0105591,0.292182,20.6459,81.7118,1.67004,0.0,1.0
38,9.25,32.5095,31.9946,154.072,99.6261,85.3761,0.0105736,0.294508,20.6411,81.7018,1.36656,0.0,1.0
40,9.75,32.8535,32.2993,150.781,99.6783,85.5288,0.0105034,0.295614,20.6372,81.6418,1.35537,0.0,1.0
42,10.25,33.3702,32.409,152.379,99.7209,84.9052,0.0103728,0.295809,20.6358,81.6518,1.42394,0.0,1.0
44,10.75,33.1972,32.1632,150.456,99.745,84.9149,0.010267,0.295268,20.6347,81.6017,1.42506,0.0,0.0
46,11.25,33.146,32.6131,147.836,99.7884,85.3933,0.0100715,0.294201,20.6349,81.5717,1.37917,0.0,0.0
48,11.75,33.4281,33.0089,153.778,99.8129,84.1483,0.00991321,0.293336,20.6361,81.5417,1.51137,0.0,0.0
50,12.25,34.3457,33.573,152.324,99.8498,86.2694,0.00969812,0.290983,20.6378,81.5016,1.29426,0.0,0.0
52,12.75,33.6776,33.2722,154.347,99.8727,86.3602,0.00952389,0.289078,20.6397,81.4616,1.28697,0.0,0.0
54,13.25,34.6098,33.8645,155.12,99.8996,87.1036,0.00929738,0.286678,20.643,81.4416,1.21348,0.0,0.0
56,13.75,34.8981,34.4538,151.725,99.9165,87.9131,0.0091139,0.283964,20.647,81.3915,1.13307,0.0,0.0
58,14.25,35.0413,34.0528,151.465,99.9578,87.1022,0.00886132,0.281765,20.6514,81.3715,1.21878,0.0,0.0
60,14.75,34.3284,34.1787,153.554,99.9767,89.4995,0.00865673,0.278553,20.656,81.3415,0.980078,0.0,0.0
62,15.25,34.9559,34.8139,154.132,99.9939,88.2186,0.00838732,0.275952,20.6607,81.3215,1.10922,0.0,0.0
64,15.75,34.6458,34.2815,153.33,100.009,88.9443,0.00816911,0.272744,20.6653,81.2915,1.03801,0.0,0.0
66,16.25,35.653,35.0474,154.781,100.03,90.7389,0.00792157,0.270147,20.669,81.2614,0.863048,0.0,0.0
68,16.75,35.1219,34.9452,154.871,100.047,90.8772,0.00765736,0.266993,20.6737,81.2614,0.851089,0.0,0.0
70,17.25,34.9511,34.6535,151.502,100.051,90.3136,0.00739825,0.264439,20.6776,81.2114,0.906482,0.0,0.0
72,17.75,35.5977,35.2352,152.171,100.048,91.9946,0.0071478,0.261125,20.6825,81.2214,0.742972,0.0,0.0
74,18.25,35.4581,35.0126,156.81,100.065,91.9843,0.00694493,0.258441,20.6864,81.1914,0.745415,0.0,0.0
76,18.75,35.9251,35.5914,154.856,100.071,92.4715,0.00670874,0.255582,20.6905,81.1513,0.699253,0.0,0.0
78,19.25,35.9764,35.4556,158.184,100.068,92.9191,0.00651743,0.252651,20.6947,81.1613,0.656218,0.0,0.0
80,19.75,36.3564,36.1119,150.744,100.07,93.3318,0.00630804,0.250276,20.6989,81.1313,0.61713,0.0,0.0
82,20.25,36.1573,36.0425,153.382,100.071,93.7258,0.00613844,0.247088,20.7032,81.1113,0.579903,0.0,0.0
84,20.75,36.152,36.0478,156.819,100.063,94.988,0.00594548,0.244506,20.7067,81.1013,0.460762,0.0,0.0
86,21.25,36.1514,35.7333,158.402,100.065,94.9731,0.00578919,0.241307,20.7113,81.0813,0.462328,0.0,0.0
88,21.75,36.2877,35.9315,160.783,100.051,95.2647,0.00563273,0.238716,20.715,81.0513,0.433983,0.0,0.0
90,22.25,36.5634,36.4562,156.247,100.053,95.955,0.00547913,0.235886,20.7201,81.0312,0.37021,0.0,0.0
92,22.75,36.7397,36.6492,157.253,100.041,97.1501,0.00535471,0.232935,20.7243,81.0212,0.259626,0.0,0.0
94,23.25,36.6159,36.4861,157.124,100.029,97.4836,0.00520221,0.229951,20.7277,81.0012,0.228187,0.0,0.0
96,23.75,36.5111,36.3104,155.073,100.008,97.8022,0.00507869,0.226999,20.7314,80.9812,0.197417,0.0,0.0
98,24.25,36.7576,36.6716,155.602,99.9847,98.0812,0.00497863,0.224064,20.7352,80.9712,0.170172,0.0,0.0
100,24.75,36.544,36.3931,154.208,99.9658,98.5181,0.0048704,0.221197,20.7382,80.9612,0.129155,0.0,0.0
102,25.25,36.79,36.6738,155.028,99.9478,98.4994,0.00475828,0.218874,20.742,80.9612,0.129227,0.0,0.0
104,25.75,36.6166,36.5939,155.476,99.9245,97.9582,0.00465064,0.216007,20.7451,80.9512,0.175944,0.0,0.0
106,26.25,36.9595,36.952,156.421,99.902,98.3085,0.00454833,0.213684,20.7485,80.9111,0.142353,0.0,0.0
108,26.75,36.8832,36.8349,157.089,99.8731,99.0816,0.00445319,0.211803,20.7512,80.9011,0.0704354,0.0,0.0
110,27.25,36.9195,36.9768,158.916,99.8438,98.4193,0.00436507,0.209606,20.7556,80.8911,0.127215,0.0,0.0
112,27.75,36.6748,36.6944,157.8,99.808,99.709,0.00428273,0.20722,20.7591,80.8711,0.0087869,0.0,0.0
114,28.25,36.8638,36.8865,158.729,99.7739,99.7519,0.00420615,0.20492,20.7629,80.8711,0.00195434,0.0,0.0
116,28.75,36.5885,36.6896,164.351,99.7337,99.5609,0.00414412,0.202727,20.7659,80.8611,0.0153561,0.0,0.0
118,29.25,37.0804,37.2041,158.13,99.6948,100.373,0.00406568,0.200592,20.7697,80.8511,-0.0600396,0.0,0.0
120,29.75,36.6693,36.8156,155.174,99.6607,99.7379,0.00400214,0.19854,20.7727,80.8311,-0.00685889,0.0,0.0
122,30.25,37.0536,37.328,155.194,99.6109,99.7542,0.00393972,0.196575,20.7752,80.8211,-0.0127301,0.0,0.0
124,30.75,37.213,37.5085,154.784,99.59,100.311,0.00387929,0.19471,20.7781,80.801,-0.0638455,0.0,0.0
126,31.25,37.0046,37.3016,160.278,99.5294,100.179,0.00383035,0.192921,20.7804,80.811,-0.0575956,0.0,0.0
128,31.75,37.0073,37.2968,156.175,99.4824,100.201,0.00378825,0.191219,20.7827,80.791,-0.0637509,0.0,0.0
130,32.25,36.9686,37.3169,158.304,99.4394,100.107,0.00375415,0.189841,20.785,80.771,-0.0592178,0.0,0.0
132,32.75,37.0951,37.368,153.507,99.3732,100.653,0.00372898,0.188107,20.7871,80.771,-0.113304,0.0,0.0
134,33.25,37.6047,38.1984,156.745,99.3153,100.216,0.00370859,0.186702,20.7891,80.731,-0.0799046,0.0,0.0
136,33.75,37.109,37.4166,157.865,99.2676,100.52,0.00368718,0.185564,20.7913,80.751,-0.111034,0.0,0.0
138,34.25,37,37.3634,155.936,99.2178,100.108,0.00366984,0.18407,20.7937,80.711,-0.0790559,0.0,0.0
140,34.75,37.1897,37.571,156.891,99.2202,100.777,0.00365089,0.182859,20.7961,80.711,-0.137794,0.0,0.0
142,35.25,36.8917,37.3968,156.987,99.2125,99.532,0.00363555,0.181336,20.7985,80.6609,-0.0284632,0.0,0.0
144,35.75,37.0779,37.5362,158.859,99.2122,100.645,0.00361455,0.180102,20.8009,80.6809,-0.126923,0.0,0.0
146,36.25,37.1862,37.655,157.817,99.2318,100.251,0.00359754,0.178736,20.8032,80.6309,-0.0904384,0.0,0.0
148,36.75,37.1284,37.647,157.558,99.2415,100.71,0.00358376,0.17763,20.8051,80.6609,-0.130042,0.0,0.0
150,37.25,36.4444,37.2604,159.14,99.2415,100.288,0.00354935,0.176354,20.8067,80.5908,-0.092827,0.0,0.0
152,37.75,38.375,39.039,157.741,99.2639,100.61,0.00352148,0.17532,20.8079,80.6209,-0.11927,0.0,0.0
154,38.25,36.9217,37.4705,155.798,99.2623,100.543,0.00348545,0.174132,20.8092,80.5408,-0.113467,0.0,0.0
156,38.75,35.1556,35.9197,153.917,99.2832,100.933,0.00345626,0.17317,20.8104,80.6009,-0.145867,0.0,0.0
158,39.25,37.0473,37.6397,158.834,99.2724,101.01,0.00343455,0.172206,20.8114,80.5208,-0.153613,0.0,0.0
160,39.75,36.8473,37.7128,157.236,99.2888,100.241,0.00341871,0.17126,20.8126,80.5708,-0.0845303,0.0,0.0
162,40.25,35.5055,36.1636,156.495,99.2933,100.904,0.00341171,0.170493,20.8136,80.4808,-0.142438,0.0,0.0
164,40.75,36.8754,37.5343,158.913,99.3121,100.682,0.00341128,0.169405,20.8154,80.5408,-0.121242,0.0,0.0
166,41.25,37.087,37.7306,161.705,99.3077,101.64,0.00341609,0.168525,20.8169,80.4707,-0.205482,0.0,0.0
168,41.75,37.0675,37.8664,157.028,99.3378,101.15,0.00342463,0.167432,20.8185,80.5508,-0.160057,0.0,0.0
170,42.25,36.4036,37.3099,160.441,99.3463,101.743,0.00343154,0.166548,20.8199,80.4507,-0.211089,0.0,0.0
172,42.75,36.6005,37.4389,159.414,99.3607,100.96,0.00343591,0.165603,20.821,80.5308,-0.141369,0.0,0.0
174,43.25,36.5906,37.438,155.322,99.3659,101.44,0.00343946,0.164631,20.8218,80.4407,-0.182913,0.0,0.0
176,43.75,36.226,36.7345,160.563,99.3981,101.873,0.00343331,0.163653,20.8225,80.4808,-0.217693,0.0,0.0
178,44.25,36.3484,37.003,156.55,99.3896,101.198,0.00342022,0.162689,20.8244,80.4007,-0.159599,0.0,0.0
180,44.75,36.8024,37.6105,156.597,99.4073,101.876,0.00340511,0.161908,20.8259,80.4707,-0.217195,0.0,0.0
182,45.25,36.661,37.6185,161.69,99.4258,101.828,0.00338882,0.160869,20.8272,80.3707,-0.21134,0.0,0.0
184,45.75,36.7249,37.5738,159.48,99.4503,102.098,0.00336919,0.160028,20.8282,80.4407,-0.232614,0.0,0.0
186,46.25,36.9268,37.8012,155.914,99.4543,102.017,0.0033475,0.159141,20.829,80.3606,-0.225226,0.0,0.0
188,46.75,36.5427,37.559,155.108,99.4828,101.895,0.00332993,0.158237,20.8305,80.4207,-0.212093,0.0,0.0
190,47.25,36.7823,37.2,160.27,99.4792,102.408,0.0033157,0.157504,20.8317,80.3306,-0.256858,0.0,0.0
192,47.75,36.7092,37.6139,160.639,99.5025,102.277,0.00327362,0.156419,20.8339,80.4107,-0.243504,0.0,0.0
194,48.25,36.9683,37.8908,158.545,99.5045,102.142,0.00323376,0.15554,20.8356,80.3306,-0.231586,0.0,0.0
196,48.75,36.8567,37.8772,160.012,99.5141,102.026,0.00319626,0.154467,20.837,80.3907,-0.220671,0.0,0.0
198,49.25,37.0083,37.7846,158.258,99.5181,102.162,0.00316589,0.153598,20.8382,80.3106,-0.232147,0.0,0.0
200,49.75,36.684,37.7484,156.758,99.5454,102.236,0.00313396,0.152894,20.8396,80.3606,-0.236134,0.0,0.0
202,50.25,36.7648,37.6905,156.319,99.5478,101.622,0.0031081,0.151645,20.8411,80.2806,-0.182601,0.0,0.0
204,50.75,36.6614,37.8328,163.453,99.5691,102.373,0.00308715,0.150634,20.8423,80.3506,-0.245837,0.0,0.0
206,51.25,36.7247,37.759,158.291,99.5659,102.678,0.00306767,0.149311,20.8437,80.2706,-0.272506,0.0,0.0
208,51.75,36.5851,37.5336,161.464,99.58,102.456,0.00305189,0.148239,20.8452,80.3306,-0.252079,0.0,0.0
210,52.25,36.7017,37.549,156.63,99.5832,102.587,0.00304104,0.146824,20.8463,80.2906,-0.263056,0.0,0.0
212,52.75,35.5884,36.6962,157.595,99.5876,102.674,0.00303398,0.145679,20.8486,80.3406,-0.270216,0.0,0.0
214,53.25,36.5559,37.2527,161.399,99.6012,102.621,0.00302826,0.144364,20.8509,80.2706,-0.264383,0.0,0.0
216,53.75,36.6679,37.7957,157.9,99.6185,103.7,0.00302363,0.142952,20.8532,80.3206,-0.355464,0.0,0.0
218,54.25,36.178,37.2867,162.443,99.6129,103.104,0.003015,0.141809,20.8554,80.2706,-0.304959,0.0,0.0
220,54.75,36.4555,37.6257,159.057,99.6458,103.3,0.00300801,0.140252,20.8577,80.3106,-0.318814,0.0,0.0
222,55.25,36.4503,37.601,158.817,99.6398,103.39,0.00299849,0.138991,20.8596,80.2706,-0.32709,0.0,0.0
224,55.75,36.3326,37.6883,163.54,99.6615,102.927,0.00298731,0.137676,20.8619,80.3106,-0.285472,0.0,0.0
226,56.25,36.4684,37.8661,162.91,99.6647,104.021,0.00296991,0.136347,20.8638,80.2706,-0.378755,0.0,0.0
228,56.75,36.1832,37.5753,157.01,99.6747,103.431,0.0029483,0.135007,20.8663,80.3006,-0.327536,0.0,0.0
230,57.25,36.4779,37.4522,160.247,99.6759,103.35,0.00293079,0.133685,20.8682,80.2505,-0.32045,0.0,0.0
232,57.75,35.9653,37.5582,156.295,99.6904,103.176,0.00291084,0.132329,20.8698,80.2606,-0.304271,0.0,0.0
234,58.25,36.6342,37.3641,160.214,99.6832,103.622,0.00288948,0.130974,20.872,80.2405,-0.343077,0.0,0.0
236,58.75,36.5505,37.6648,164.726,99.6928,103.724,0.00287025,0.129546,20.8737,80.2405,-0.350932,0.0,0.0
238,59.25,36.3193,37.3796,159.013,99.6944,103.806,0.00285294,0.128094,20.876,80.2305,-0.357783,0.0,0.0
240,59.75,36.1581,37.4704,164.76,99.7024,103.913,0.00283635,0.126917,20.8778,80.2505,-0.366202,0.0,0.0
242,60.25,36.215,37.6252,158.968,99.6956,104.005,0.00282061,0.125253,20.8798,80.2405,-0.374622,0.0,0.0
244,60.75,36.1095,37.3434,159.905,99.6992,103.457,0.00280401,0.123906,20.8814,80.2505,-0.327553,0.0,0.0
246,61.25,36.0905,37.4164,163.159,99.6824,103.64,0.00278709,0.122456,20.8839,80.2405,-0.344701,0.0,0.0
248,61.75,35.6957,37.102,162.136,99.6888,103.712,0.00277083,0.120959,20.886,80.2205,-0.350256,0.0,0.0
250,62.25,36.2128,37.2144,164.853,99.688,104.306,0.00275534,0.119515,20.8886,80.2205,-0.400875,0.0,0.0
252,62.75,35.9716,37.3594,156.114,99.6811,104.408,0.0027428,0.118138,20.8907,80.2105,-0.410134,0.0,0.0
254,63.25,35.8873,37.2587,160.138,99.6956,104.169,0.00272289,0.116687,20.8928,80.2105,-0.388566,0.0,0.0
256,63.75,35.2492,36.8386,158.626,99.6771,103.711,0.00270677,0.115211,20.8949,80.2105,-0.351249,0.0,0.0
258,64.25,35.3432,36.9762,161.615,99.6667,103.659,0.0026937,0.113659,20.8967,80.2005,-0.347722,0.0,0.0
260,64.75,35.6076,37.1075,160.628,99.6635,103.968,0.0026746,0.11208,20.899,80.2105,-0.374302,0.0,0.0
262,65.25,35.7359,37.1361,160.492,99.6518,103.655,0.00265784,0.110801,20.9008,80.2005,-0.348645,0.0,0.0
264,65.75,35.5704,37.1775,161.045,99.6462,103.577,0.00264311,0.109033,20.9028,80.2005,-0.342497,0.0,0.0
266,66.25,34.6948,36.119,160.417,99.6526,102.874,0.00262417,0.107601,20.9048,80.2005,-0.281688,0.0,0.0
268,66.75,35.3112,36.9458,159.087,99.631,103.287,0.00261786,0.106055,20.9071,80.2005,-0.319096,0.0,0.0
270,67.25,35.0769,36.6877,165.545,99.6117,103.138,0.00260707,0.104457,20.9095,80.2005,-0.308026,0.0,0.0
272,67.75,35.7502,36.8156,162.071,99.5912,103.308,0.00258372,0.103163,20.9118,80.1905,-0.324426,0.0,0.0
274,68.25,35.0823,36.9721,163.308,99.582,103.27,0.00256481,0.101693,20.9138,80.1805,-0.321933,0.0,0.0
276,68.75,33.9917,35.5961,165.192,99.5707,103.702,0.00252272,0.100502,20.9154,80.1605,-0.35991,0.0,0.0
278,69.25,33.3965,34.5397,159.856,99.5502,103.433,0.00248862,0.0993695,20.9168,80.1605,-0.338718,0.0,0.0
280,69.75,32.7254,34.9726,160.322,99.5362,103.672,0.002461,0.0984519,20.9178,80.1505,-0.360435,0.0,0.0
282,70.25,33.0589,35.1562,161.686,99.5286,103.34,0.00241067,0.0975543,20.9187,80.1705,-0.33267,0.0,0.0
284,70.75,33.1341,34.7922,160.412,99.496,103.603,0.00236989,0.0968273,20.9197,80.1505,-0.358079,0.0,0.0
286,71.25,33.1684,34.9939,161.347,99.496,102.882,0.00233686,0.0961824,20.9205,80.1605,-0.296253,0.0,0.0
288,71.75,33.214,34.9262,156.848,99.4603,103.665,0.00230755,0.0956599,20.9212,80.1404,-0.366552,0.0,0.0
290,72.25,32.7306,34.4588,161.321,99.4583,103.313,0.00228151,0.0952367,20.9217,80.1605,-0.336649,0.0,0.0
292,72.75,33.4354,34.5469,165.649,99.4334,103.803,0.00226527,0.0948379,20.9221,80.1204,-0.380753,0.0,0.0
294,73.25,32.6538,34.69,161.854,99.4302,103.461,0.00225212,0.0945148,20.9225,80.1605,-0.351793,0.0,0.0
296,73.75,32.8019,34.8015,158.678,99.4113,103.896,0.00224531,0.0942531,20.9227,80.1404,-0.390661,0.0,0.0
298,74.25,32.4356,34.6291,164.762,99.384,103.914,0.00224325,0.0941253,20.923,80.1705,-0.39464,0.0,0.0
300,74.75,32.7262,34.2762,165.637,99.3567,104.135,0.00224522,0.0940217,20.9231,80.1104,-0.415862,0.0,0.0
302,75.25,32.3871,34.5733,163.984,99.3414,103.719,0.00224682,0.0939305,20.9233,80.1605,-0.38179,0.0,0.0
304,75.75,32.8597,34.3748,165.861,99.3081,103.561,0.00224812,0.0938499,20.9234,80.1004,-0.371233,0.0,0.0
306,76.25,32.6917,34.3898,163.337,99.2908,103.963,0.00224867,0.0937625,20.9235,80.1705,-0.407069,0.0,0.0
308,76.75,32.4153,34.5047,161.031,99.2615,103.341,0.0022509,0.0936718,20.9236,80.0904,-0.356574,0.0,0.0
310,77.25,32.5826,34.1842,163.952,99.2563,104.22,0.00225385,0.0935836,20.9236,80.1705,-0.432015,0.0,0.0
312,77.75,32.4813,34.0906,163.996,99.2274,103.274,0.00225625,0.0934988,20.9237,80.0904,-0.35391,0.0,0.0
314,78.25,31.9237,33.9114,160.844,99.2053,103.01,0.00225211,0.0934006,20.9237,80.1705,-0.333214,0.0,0.0
316,78.75,32.04,33.6665,160.877,99.164,103.438,0.00224875,0.0932945,20.9238,80.0904,-0.373576,0.0,0.0
318,79.25,32.3252,34.2261,160.844,99.1515,103.807,0.00223023,0.0932272,20.9238,80.1505,-0.406243,0.0,0.0
320,79.75,32.3921,33.9411,165.142,99.1218,103.415,0.00221523,0.093112,20.9238,80.0704,-0.375388,0.0,0.0
322,80.25,32.3087,34.397,167.452,99.1073,103.047,0.00218486,0.0930187,20.9241,80.1605,-0.345123,0.0,0.0
324,80.75,32.0514,33.5843,163.872,99.0652,103.566,0.00216025,0.0928169,20.9245,80.0804,-0.393395,0.0,0.0
326,81.25,32.3162,33.5074,160.241,99.0523,103.36,0.00213521,0.0926536,20.9248,80.1505,-0.376848,0.0,0.0
328,81.75,32.2566,33.6216,158.792,99.0114,103.455,0.00211032,0.0924401,20.9251,80.0604,-0.388644,0.0,0.0
330,82.25,31.526,34.3103,163.31,99.0025,103.577,0.00209656,0.0921941,20.9253,80.1204,-0.39991,0.0,0.0
332,82.75,31.6471,33.8106,163.693,98.9608,103.787,0.00209116,0.0919507,20.9259,80.0304,-0.421582,0.0,0.0
334,83.25,31.9237,33.7815,158.814,98.954,103.069,0.00209958,0.0917137,20.9264,80.1304,-0.360676,0.0,0.0
336,83.75,32.0366,33.6782,163.35,98.9146,103.636,0.00211791,0.0914996,20.9268,80.0504,-0.412792,0.0,0.0
338,84.25,31.6904,33.266,158.042,98.9046,102.891,0.00213276,0.0913063,20.9271,80.1204,-0.34984,0.0,0.0
340,84.75,31.7927,33.5979,160.549,98.87,103.206,0.00214479,0.0911202,20.9274,80.0504,-0.379942,0.0,0.0
342,85.25,31.5672,33.4695,162.479,98.8656,103.322,0.00218128,0.090943,20.9276,80.1304,-0.39036,0.0,0.0
344,85.75,31.3914,33.4602,164.062,98.8231,103.066,0.00221084,0.0907994,20.9278,80.0504,-0.372195,0.0,0.0
346,86.25,32.043,33.4717,160.125,98.8058,103.155,0.00223479,0.0906131,20.9279,80.1204,-0.38138,0.0,0.0
348,86.75,31.5228,33.1743,159.344,98.7777,102.923,0.00225418,0.0904622,20.928,80.0504,-0.36393,0.0,0.0
350,87.25,31.7519,33.7445,159.097,98.7576,102.853,0.00226413,0.0902958,20.9284,80.1304,-0.359758,0.0,0.0
352,87.75,31.318,33.4791,161.658,98.7339,102.896,0.002267,0.0901212,20.9288,80.0604,-0.365529,0.0,0.0
354,88.25,31.4281,33.4002,163.209,98.7138,103.279,0.00225839,0.0899797,20.9292,80.1404,-0.40021,0.0,0.0
356,88.75,31.3412,33.4373,162.41,98.6833,103.199,0.00225141,0.0897812,20.9295,80.0604,-0.396077,0.0,0.0
358,89.25,31.3434,33.1328,164.662,98.6681,103.136,0.00224128,0.0896204,20.9298,80.1204,-0.392091,0.0,0.0
360,89.75,31.3555,33.237,157.978,98.6363,102.957,0.00222904,0.0895041,20.93,80.0504,-0.379572,0.0,0.0
362,90.25,30.8176,33.5283,163.089,98.6243,103.54,0.00221721,0.0894099,20.9301,80.1204,-0.430614,0.0,0.0
364,90.75,31.3891,32.9955,162.486,98.5962,103.526,0.0022059,0.0893189,20.9302,80.0504,-0.431943,0.0,0.0
366,91.25,31.3559,32.9109,162.771,98.5833,103.066,0.00219674,0.089232,20.9304,80.1204,-0.393657,0.0,0.0
368,91.75,31.0309,33.0747,162.012,98.5649,103.101,0.00218612,0.089132,20.9304,80.0604,-0.398356,0.0,0.0
370,92.25,31.3795,33.2656,162.892,98.5512,102.672,0.00217464,0.0890246,20.9305,80.1104,-0.36263,0.0,0.0
372,92.75,31.2444,32.7634,163.049,98.5307,103.104,0.00216534,0.0889081,20.931,80.0904,-0.401661,0.0,0.0
374,93.25,31.2263,33.1761,161.577,98.5263,102.692,0.0021463,0.0887872,20.9314,80.1204,-0.366634,0.0,0.0
376,93.75,31.3148,32.8109,163.315,98.4906,102.545,0.00212052,0.0886893,20.9315,80.0904,-0.357148,0.0,0.0
378,94.25,31.2931,32.877,159.268,98.4942,102.848,0.00209964,0.0885541,20.9316,80.1004,-0.382922,0.0,0.0
380,94.75,31.046,32.7572,162.516,98.4689,103.054,0.00204874,0.0884445,20.932,80.0704,-0.40294,0.0,0.0
382,95.25,31.093,32.7074,165.723,98.4524,102.842,0.00200751,0.0883558,20.9324,80.0904,-0.386155,0.0,0.0
384,95.75,31.0429,32.8524,161.876,98.4368,102.88,0.00194379,0.0882471,20.9328,80.0904,-0.390891,0.0,0.0
386,96.25,30.2571,32.9238,161.16,98.4279,103.131,0.00189218,0.0881259,20.9331,80.1004,-0.413222,0.0,0.0
388,96.75,30.9337,32.9021,162.711,98.4135,102.723,0.00182372,0.0880572,20.9333,80.0904,-0.379468,0.0,0.0
390,97.25,30.8868,32.6679,160.914,98.4038,102.519,0.00176827,0.0880281,20.9335,80.1004,-0.362736,0.0,0.0
392,97.75,30.738,32.9199,162.84,98.3938,103.065,0.00171366,0.0880045,20.9337,80.1004,-0.410613,0.0,0.0
394,98.25,30.64,32.3761,166.927,98.395,102.89,0.00166943,0.0879154,20.9338,80.1004,-0.39549,0.0,0.0
396,98.75,30.8642,32.6392,158.207,98.3826,102.796,0.0016336,0.0878433,20.9339,80.0904,-0.38847,0.0,0.0
398,99.25,30.6862,32.8441,164.953,98.3769,102.921,0.00160821,0.0877708,20.934,80.0904,-0.399759,0.0,0.0
400,99.75,30.7202,32.8599,160.512,98.3745,102.151,0.00158765,0.0877122,20.9341,80.0904,-0.333461,0.0,0.0
402,100.25,30.6768,32.1828,161.06,98.3645,102.744,0.00158068,0.0876926,20.9342,80.0804,-0.385681,0.0,0.0
404,100.75,30.8386,32.4202,158.465,98.3661,102.902,0.00157504,0.0876768,20.9342,80.0904,-0.399092,0.0,0.0
406,101.25,30.4788,32.3573,163.817,98.3601,102.82,0.00158864,0.0876714,20.9342,80.0904,-0.392578,0.0,0.0
408,101.75,30.7007,32.5349,166.239,98.3625,102.372,0.00159966,0.0876736,20.9343,80.0804,-0.353738,0.0,0.0
410,102.25,30.7374,32.611,164.562,98.3649,102.814,0.00161561,0.0876754,20.9343,80.0804,-0.391664,0.0,0.0
412,102.75,30.5726,32.3844,169.716,98.3693,102.624,0.00163484,0.0876908,20.9343,80.0704,-0.374888,0.0,0.0
414,103.25,30.6932,32.2765,161.583,98.3681,102.972,0.00165233,0.0877033,20.9343,80.0704,-0.40492,0.0,0.0
416,103.75,30.0365,32.5949,160.312,98.3741,102.747,0.00166823,0.0877208,20.9343,80.0704,-0.385016,0.0,0.0
418,104.25,30.9104,32.4465,162.503,98.3669,102.759,0.0016811,0.0877416,20.9343,80.0704,-0.38675,0.0,0.0
420,104.75,30.5034,32.1308,165.793,98.389,102.501,0.00169153,0.0878004,20.9344,80.0604,-0.362504,0.0,0.0
422,105.25,30.624,32.0273,164.374,98.3914,102.677,0.00169997,0.087848,20.9344,80.0704,-0.37744,0.0,0.0
424,105.75,30.579,32.35,160.198,98.3942,102.914,0.00170618,0.0879013,20.9344,80.0704,-0.397645,0.0,0.0
426,106.25,30.6179,32.4826,164.629,98.4059,102.95,0.00171063,0.0879577,20.9344,80.0704,-0.399642,0.0,0.0
428,106.75,30.5665,32.1348,156.88,98.4215,103.131,0.00171614,0.0880035,20.9344,80.0704,-0.4138,0.0,0.0
430,107.25,30.5027,32.3025,163.25,98.4324,103.156,0.00172234,0.0880405,20.9344,80.0604,-0.414983,0.0,0.0
432,107.75,30.4685,31.8508,163.097,98.4464,103.056,0.00172735,0.0880705,20.9344,80.0604,-0.405161,0.0,0.0
434,108.25,30.705,32.087,157.87,98.4589,102.811,0.0017387,0.0881242,20.9344,80.0504,-0.382971,0.0,0.0
436,108.75,30.3704,32.361,162.878,98.4781,102.774,0.00174788,0.0881943,20.9344,80.0504,-0.378028,0.0,0.0
438,109.25,30.3359,32.139,162.927,98.483,103.195,0.00176624,0.088251,20.9344,80.0203,-0.413792,0.0,0.0
440,109.75,30.728,31.9164,162.524,98.5014,103.395,0.00178111,0.0883249,20.9344,80.0404,-0.429216,0.0,0.0
442,110.25,30.448,32.0376,165.035,98.5199,102.797,0.00181136,0.0883848,20.9344,80.0103,-0.376241,0.0,0.0
444,110.75,30.6402,32.1207,162.09,98.54,103.275,0.00183586,0.0884474,20.9344,80.0404,-0.415498,0.0,0.0
446,111.25,30.3317,32.277,164.738,98.544,103.338,0.00187635,0.088498,20.9342,80.0203,-0.420565,0.0,0.0
448,111.75,30.4602,31.8864,162.457,98.5821,103.013,0.00190915,0.088525,20.9338,80.0404,-0.389243,0.0,0.0
450,112.25,30.1792,32.0657,166.084,98.589,103.133,0.00194659,0.0885469,20.9334,80.0103,-0.398951,0.0,0.0
452,112.75,30.4252,32.0784,159.43,98.6155,102.954,0.00198669,0.0885646,20.9332,80.0404,-0.381164,0.0,0.0
454,113.25,30.2988,32.052,161.209,98.6351,102.917,0.00201918,0.088579,20.933,79.9903,-0.376194,0.0,0.0
456,113.75,30.1629,32.0978,162.629,98.6705,103.055,0.00204358,0.0886186,20.9328,80.0504,-0.384875,0.0,0.0
458,114.25,29.9762,31.8919,160.672,98.6893,103.384,0.00206161,0.0886507,20.9327,80.0003,-0.411465,0.0,0.0
460,114.75,30.3954,31.8641,162.26,98.7203,103.669,0.00206164,0.0887061,20.9326,80.0404,-0.433068,0.0,0.0
462,115.25,30.4877,31.764,165.404,98.7311,103.155,0.00206166,0.0887776,20.9325,79.9603,-0.388035,0.0,0.0
464,115.75,30.34,31.5998,159.171,98.766,102.878,0.00206168,0.0888354,20.9324,80.0304,-0.361127,0.0,0.0
466,116.25,30.3402,31.7212,161.401,98.7833,103.194,0.00204572,0.0889191,20.9324,79.9603,-0.386752,0.0,0.0
468,116.75,30.271,31.8896,163.852,98.8214,103.607,0.00203135,0.0890201,20.9323,80.0404,-0.418627,0.0,0.0
470,117.25,30.0039,31.9074,163.086,98.8512,103.193,0.00200677,0.0891092,20.9323,79.9703,-0.380553,0.0,0.0
472,117.75,29.8553,32.0481,162.284,98.8837,103.519,0.00197837,0.089188,20.9322,80.0304,-0.405567,0.0,0.0
474,118.25,29.7858,31.7729,164.93,98.8957,103.738,0.00195536,0.0892519,20.9322,79.9603,-0.42323,0.0,0.0
476,118.75,30.1181,31.9776,159.316,98.9423,104.257,0.00193551,0.0893036,20.9322,80.0404,-0.463232,0.0,0.0
478,119.25,30.1982,32.0091,168.384,98.9612,103.56,0.00191943,0.0892755,20.9322,79.9703,-0.402097,0.0,0.0
480,119.75,30.2726,31.5508,160.335,99.005,103.676,0.00190641,0.0892528,20.9322,80.0504,-0.408131,0.0,0.0
482,120.25,30.1648,31.7065,163.713,99.0234,103.417,0.00190193,0.0892343,20.9321,79.9703,-0.384299,0.0,0.0
484,120.75,30.5881,31.7902,159.235,99.0716,103.586,0.00189575,0.0892194,20.9321,80.0304,-0.394493,0.0,0.0
486,121.25,30.1696,31.4645,161.273,99.0821,103.389,0.00188844,0.0892073,20.9317,79.9603,-0.376665,0.0,0.0
488,121.75,29.5953,31.672,158.433,99.1218,104.263,0.00188252,0.0891975,20.9313,80.0404,-0.4477,0.0,0.0
490,122.25,30.3693,31.9137,158.598,99.1387,103.748,0.00186802,0.0891822,20.9315,79.9603,-0.402305,0.0,0.0
492,122.75,30.015,31.8383,166.743,99.1861,104.178,0.00185308,0.0891632,20.9316,80.0304,-0.434684,0.0,0.0
494,123.25,29.8898,31.1669,160.766,99.2093,103.925,0.00183811,0.0891478,20.9317,79.9703,-0.411127,0.0,0.0
496,123.75,30.3072,31.2719,161.415,99.2764,104.231,0.00182598,0.0890933,20.9318,80.0304,-0.431134,0.0,0.0
498,124.25,30.2834,31.4904,163.919,99.2752,103.902,0.00181373,0.0890492,20.9316,79.9503,-0.403307,0.0,0.0
500,124.75,29.8345,31.9395,161.51,99.3149,103.738,0.00180381,0.0890275,20.9313,80.0203,-0.385743,0.0,0.0
502,125.25,29.9313,31.2719,163.253,99.3455,104.427,0.00180305,0.0890099,20.931,79.9603,-0.441657,0.0,0.0
504,125.75,29.8295,31.7243,160.851,99.3864,104.315,0.00180243,0.0890376,20.9312,80.0304,-0.428447,0.0,0.0
506,126.25,30.2608,31.6661,165.275,99.4157,104.255,0.00180194,0.08906,20.9314,79.9403,-0.420814,0.0,0.0
508,126.75,30.0244,31.766,162.74,99.4591,104.194,0.00181239,0.0890922,20.9315,80.0003,-0.41177,0.0,0.0
510,127.25,29.829,31.256,158.735,99.4832,103.842,0.00183063,0.0891183,20.9316,79.9403,-0.379657,0.0,0.0
512,127.75,29.9157,31.432,169.754,99.5205,103.903,0.00184987,0.0891615,20.9317,80.0203,-0.381535,0.0,0.0
514,128.25,29.7716,31.0866,161.17,99.5446,104.1,0.00186949,0.0892164,20.9314,79.9603,-0.396123,0.0,0.0
516,128.75,30.163,31.7138,156.178,99.5723,103.607,0.00188409,0.0892609,20.9311,80.0203,-0.351692,0.0,0.0
518,129.25,29.726,31.0866,164.97,99.6093,104.752,0.00189478,0.0893669,20.9308,79.9403,-0.445697,0.0,0.0
520,129.75,30.0152,31.663,164.263,99.6402,104.348,0.0018996,0.0894528,20.9306,80.0103,-0.408676,0.0,0.0
522,130.25,29.6569,31.493,160.778,99.6607,104.256,0.00190005,0.0895297,20.9305,79.9503,-0.399068,0.0,0.0
524,130.75,29.4341,31.4263,159.884,99.6888,104.387,0.00189723,0.0895986,20.9303,80.0103,-0.407719,0.0,0.0
526,131.25,29.7568,31.6515,157.484,99.7141,104.356,0.00189206,0.0896545,20.93,79.9603,-0.402825,0.0,0.0
528,131.75,29.9608,31.4496,161.28,99.7486,103.854,0.00188533,0.0897277,20.9295,80.0003,-0.357061,0.0,0.0
530,132.25,29.926,31.1893,161.441,99.7655,104.428,0.00187757,0.0898018,20.9292,79.9703,-0.404346,0.0,0.0
532,132.75,29.7867,31.506,163.846,99.7996,105.08,0.00187129,0.089875,20.9288,80.0003,-0.456466,0.0,0.0
534,133.25,29.6739,31.1405,161.389,99.8177,104.695,0.00187259,0.0899344,20.9286,79.9703,-0.422312,0.0,0.0
536,133.75,29.7915,31.1444,163.616,99.8454,104.778,0.00187939,0.0900104,20.9284,79.9903,-0.426941,0.0,0.0
538,134.25,30.0276,31.6376,162.112,99.8711,104.911,0.0018849,0.0900721,20.9282,79.9903,-0.435833,0.0,0.0
540,134.75,29.8244,30.7306,163.44,99.9096,105.012,0.00189907,0.090192,20.9281,80.0103,-0.440941,0.0,0.0
542,135.25,29.6661,31.1372,160.958,99.9297,104.262,0.00191055,0.0902892,20.928,79.9903,-0.375755,0.0,0.0
544,135.75,29.8088,30.9103,161.346,99.9486,104.652,0.00191499,0.0903826,20.9279,80.0003,-0.407085,0.0,0.0
546,136.25,29.3409,31.1911,164.737,99.9755,104.985,0.00191859,0.0904715,20.9278,79.9903,-0.43283,0.0,0.0
548,136.75,29.3886,31.484,161.212,100.008,105.115,0.00192012,0.0905436,20.9278,80.0003,-0.440941,0.0,0.0
550,137.25,29.6923,31.0317,157.316,100.027,104.587,0.00190576,0.090616,20.9277,79.9803,-0.394713,0.0,0.0
552,137.75,29.5345,31.1815,165.07,100.049,105.201,0.00189412,0.0906746,20.9277,79.9803,-0.444531,0.0,0.0
554,138.25,29.7426,31.0396,162.563,100.075,104.27,0.00188591,0.0907501,20.9277,79.9603,-0.363595,0.0,0.0
556,138.75,28.8864,30.9403,161.979,100.095,104.922,0.00187925,0.0908112,20.9276,79.9803,-0.416972,0.0,0.0
558,139.25,29.1918,30.8711,162.537,100.123,104.791,0.00187387,0.0908387,20.9276,79.9703,-0.4034,0.0,0.0
560,139.75,29.7231,31.2017,159.439,100.13,104.784,0.00189135,0.090841,20.9276,79.9703,-0.402203,0.0,0.0
562,140.25,29.7252,31.0404,163.978,100.156,104.741,0.00190551,0.0908419,20.9276,79.9603,-0.396278,0.0,0.0
564,140.75,30.0377,31.0997,160.336,100.176,104.728,0.00191698,0.0908576,20.9276,79.9603,-0.393397,0.0,0.0
566,141.25,29.3318,30.914,162.007,100.196,104.324,0.00193477,0.0908703,20.9276,79.9603,-0.357385,0.0,0.0
568,141.75,29.3174,31.0041,163.723,100.202,104.433,0.00194918,0.0908806,20.9275,79.9703,-0.366168,0.0,0.0
570,142.25,29.6883,31.0141,163.772,100.219,104.994,0.00196328,0.0909332,20.9275,79.9703,-0.412058,0.0,0.0
572,142.75,29.5354,30.9658,161.657,100.23,104.773,0.00197471,0.0910156,20.9275,79.9603,-0.392426,0.0,0.0
574,143.25,29.8064,30.97,161.234,100.267,104.764,0.00198274,0.0910602,20.9275,79.9503,-0.388341,0.0,0.0
576,143.75,29.6593,31.3514,160.363,100.269,104.612,0.00198925,0.0910765,20.9275,79.9503,-0.375398,0.0,0.0
578,144.25,29.3097,30.6874,162.031,100.286,105.283,0.00198814,0.0910896,20.9275,79.9603,-0.430528,0.0,0.0
580,144.75,29.2102,31.0016,162.714,100.294,105.129,0.00198148,0.0911143,20.9275,79.9403,-0.416845,0.0,0.0
582,145.25,29.25,30.5807,162.668,100.313,105.323,0.00196587,0.0911343,20.9275,79.9503,-0.431485,0.0,0.0
584,145.75,29.7928,30.1187,162.489,100.312,104.866,0.00194402,0.0911357,20.9275,79.9203,-0.393101,0.0,0.0
586,146.25,29.7256,30.753,159.66,100.329,104.723,0.00192633,0.0911236,20.9275,79.9303,-0.379498,0.0,0.0
588,146.75,29.4766,30.6618,164.825,100.336,104.083,0.00188167,0.091099,20.9275,79.9203,-0.324663,0.0,0.0
590,147.25,29.2848,31.1472,158.445,100.35,104.519,0.0018455,0.0910659,20.9275,79.9403,-0.360388,0.0,0.0
592,147.75,29.8239,30.5377,161.494,100.348,104.867,0.00181621,0.091039,20.9275,79.9303,-0.389991,0.0,0.0
594,148.25,29.9491,30.6339,157.817,100.362,105.136,0.00177308,0.0909612,20.9275,79.9403,-0.411445,0.0,0.0
596,148.75,29.4016,30.7504,170.537,100.361,105.254,0.00173815,0.0908982,20.9275,79.9002,-0.421473,0.0,0.0
598,149.25,29.8027,30.6573,165.419,100.366,104.994,0.00171834,0.0908052,20.9275,79.9403,-0.399121,0.0,0.0
600,149.75,29.4898,30.8355,162.472,100.365,104.886,0.0017023,0.0907298,20.9275,79.9002,-0.390075,0.0,0.0
602,150.25,29.6497,30.9649,163.306,100.369,105.131,0.00170384,0.0906614,20.9275,79.9303,-0.410337,0.0,0.0
604,150.75,29.6324,30.3902,162.916,100.359,104.522,0.0017051,0.0905993,20.9275,79.8602,-0.359849,0.0,0.0
606,151.25,29.0956,30.7326,161.931,100.376,105.026,0.00170369,0.090549,20.9275,79.9102,-0.400945,0.0,0.0
608,151.75,29.2448,30.7528,162.649,100.378,105.18,0.00170255,0.0905223,20.9275,79.8602,-0.413714,0.0,0.0
610,152.25,29.3739,30.8288,163.623,100.376,105.186,0.00168951,0.0905007,20.9275,79.9102,-0.414405,0.0,0.0
612,152.75,29.5951,30.7786,164.401,100.369,105.37,0.00167894,0.0904758,20.9275,79.8402,-0.430513,0.0,0.0
614,153.25,29.4048,30.3643,159.613,100.372,104.858,0.00165705,0.090449,20.9275,79.9303,-0.387114,0.0,0.0
616,153.75,29.7468,30.6348,163.172,100.356,105.151,0.00163932,0.0904568,20.9275,79.8502,-0.413271,0.0,0.0
618,154.25,28.709,30.4117,163.246,100.374,104.714,0.00162496,0.0904896,20.9275,79.9102,-0.374742,0.0,0.0
620,154.75,29.1441,30.5614,163.172,100.344,105.407,0.00161817,0.0905531,20.9275,79.8402,-0.435836,0.0,0.0
622,155.25,29.2192,30.4879,163.237,100.349,104.752,0.00161267,0.0906376,20.9275,79.9002,-0.380198,0.0,0.0
624,155.75,29.2449,30.7287,164.859,100.348,104.48,0.0016152,0.0907061,20.9275,79.8302,-0.357215,0.0,0.0
626,156.25,29.4003,30.5037,158.152,100.34,105.097,0.00162353,0.0907616,20.9275,79.9102,-0.410059,0.0,0.0
628,156.75,29.0351,30.3828,164.46,100.32,105.26,0.00163858,0.0907918,20.9275,79.8502,-0.425591,0.0,0.0
630,157.25,29.4031,30.3035,162.818,100.31,105.06,0.00165823,0.090803,20.9274,79.9203,-0.409585,0.0,0.0
632,157.75,29.0962,30.6711,160.371,100.298,104.763,0.00168627,0.0908121,20.9272,79.8402,-0.385572,0.0,0.0
634,158.25,29.4976,30.4131,164.083,100.311,105.13,0.00171991,0.0908188,20.9267,79.9002,-0.415396,0.0,0.0
636,158.75,29.6685,30.5884,161.731,100.274,104.303,0.00174715,0.0908236,20.9262,79.8402,-0.348761,0.0,0.0
638,159.25,29.1773,30.337,161.454,100.271,104.851,0.0017935,0.0908496,20.9259,79.9102,-0.395383,0.0,0.0
640,159.75,29.2951,30.9076,166.868,100.253,104.998,0.00183104,0.0908905,20.9256,79.8402,-0.409397,0.0,0.0
642,160.25,29.0733,29.9451,161.043,100.256,104.855,0.00187602,0.0909237,20.9256,79.9102,-0.397045,0.0,0.0
644,160.75,29.4203,30.6798,167.138,100.239,105.073,0.00191245,0.0909225,20.9258,79.8402,-0.416955,0.0,0.0
646,161.25,29.2251,30.5892,163.005,100.232,104.387,0.00193877,0.0909216,20.926,79.9002,-0.359566,0.0,0.0
648,161.75,29.2816,29.5743,162.604,100.21,104.847,0.00195721,0.0909069,20.9261,79.8302,-0.40053,0.0,0.0
650,162.25,28.8709,30.6143,163.153,100.194,105.125,0.00197214,0.0908949,20.9262,79.9102,-0.425397,0.0,0.0
652,162.75,29.3356,30.5512,157.726,100.175,104.906,0.00198424,0.0909133,20.9263,79.8402,-0.408609,0.0,0.0
654,163.25,29.2182,30.3702,162.195,100.167,105.001,0.00196248,0.0909281,20.9266,79.9102,-0.417259,0.0,0.0
656,163.75,29.4083,30.4648,160.475,100.148,104.142,0.00194485,0.0909401,20.927,79.8302,-0.346211,0.0,0.0
658,164.25,29.1706,30.8741,159.061,100.132,104.836,0.00189782,0.0909499,20.9273,79.9102,-0.406396,0.0,0.0
660,164.75,28.8363,30.2889,164.73,100.105,104.994,0.00185973,0.0909578,20.9276,79.8302,-0.422134,0.0,0.0
662,165.25,29.2722,30.4091,159.035,100.102,104.352,0.00180595,0.0909642,20.9278,79.9002,-0.368098,0.0,0.0
664,165.75,29.4979,30.5285,165.139,100.067,105.242,0.00174176,0.0909413,20.9276,79.8502,-0.446346,0.0,0.0
666,166.25,29.326,30.5205,165.123,100.056,104.47,0.00167384,0.0909228,20.9274,79.9203,-0.382178,0.0,0.0
668,166.75,29.4358,30.4135,163.736,100.037,104.942,0.00160449,0.0909078,20.9274,79.8402,-0.423812,0.0,0.0
670,167.25,29.4866,30.852,164.772,100.032,105.36,0.00154832,0.0908957,20.9274,79.8902,-0.459344,0.0,0.0
672,167.75,29.6039,30.7101,163.98,100.008,104.428,0.00149435,0.0908785,20.9274,79.8302,-0.382889,0.0,0.0
674,168.25,29.451,30.4393,162.71,99.9883,104.589,0.00145064,0.0908579,20.9274,79.8802,-0.398244,0.0,0.0
676,168.75,29.3551,30.3677,162.653,99.9554,104.33,0.00141523,0.0908493,20.9274,79.8402,-0.379251,0.0,0.0
678,169.25,29.4123,29.9445,163.746,99.9365,105.097,0.00142043,0.0908496,20.9274,79.8802,-0.445779,0.0,0.0
680,169.75,29.4803,30.2762,161.225,99.9189,104.497,0.00142465,0.0908498,20.9274,79.8402,-0.396626,0.0,0.0
682,170.25,29.3105,30.3837,159.474,99.9004,104.687,0.00146198,0.090822,20.9274,79.8802,-0.414309,0.0,0.0
684,170.75,29.6244,30.4762,159.034,99.8727,104.405,0.00149222,0.0907994,20.9274,79.8502,-0.392903,0.0,0.0
686,171.25,29.2591,30.2051,160.258,99.8606,103.909,0.00153732,0.0907812,20.9274,79.8802,-0.351848,0.0,0.0
688,171.75,28.912,30.328,160.625,99.8313,104.469,0.00157385,0.0907384,20.9274,79.8602,-0.401979,0.0,0.0
690,172.25,29.4814,30.4772,162.759,99.8221,104.309,0.00161315,0.0907037,20.9274,79.8702,-0.389288,0.0,0.0
692,172.75,29.1732,30.4087,165.697,99.8044,104.514,0.00164497,0.0906609,20.9278,79.8502,-0.408231,0.0,0.0
694,173.25,28.9319,30.2162,166.039,99.7908,104.397,0.00167682,0.0906129,20.9282,79.8602,-0.399494,0.0,0.0
696,173.75,29.2302,30.5899,158.647,99.7615,103.837,0.00170261,0.0905814,20.9284,79.8602,-0.354492,0.0,0.0
698,174.25,29.4109,30.1264,165.565,99.7478,103.945,0.00172351,0.0905626,20.9287,79.8702,-0.364872,0.0,0.0
700,174.75,29.4298,30.4468,165.174,99.7333,104.507,0.00174043,0.0905399,20.9289,79.8802,-0.413908,0.0,0.0
702,175.25,29.2851,30.5734,163.402,99.7157,104.823,0.00175414,0.090515,20.929,79.8802,-0.442187,0.0,0.0
704,175.75,29.0285,30.1277,161.131,99.6988,104.295,0.0017616,0.0904873,20.9291,79.8702,-0.399042,0.0,0.0
706,176.25,29.2315,29.8713,164.765,99.6824,104.73,,0.0904584,,79.8602,-0.437354,0.0,0.0
708,176.75,28.925,30.3517,159.927,99.6691,104.348,,0.0904209,,79.8702,-0.406147,0.0,0.0
710,177.25,28.9468,30.4295,164.03,99.6474,104.295,,0.0903905,,79.8802,-0.403607,0.0,0.0
712,177.75,29.2123,30.1826,164.79,99.6253,104.218,,0.0903659,,79.8602,-0.399003,0.0,0.0
714,178.25,29.5381,29.9899,164.215,99.6145,104.095,,0.090346,,79.8502,-0.389476,0.0,0.0
716,178.75,29.7636,30.4138,161.437,99.6016,103.994,,0.0903299,,79.8602,-0.382018,0.0,0.0
718,179.25,29.2151,29.5836,163.239,99.5948,104.02,,,,79.8502,-0.384884,0.0,0.0
720,179.75,29.0127,30.4908,159.522,99.5739,104.389,,,,79.8802,-0.418081,0.0,0.0
722,180.25,29.4087,30.1122,161.433,99.5583,104.053,,,,79.8802,-0.390907,0.0,0.0
724,180.75,29.232,30.469,162.65,99.5482,104.541,,,,79.8702,-0.433273,0.0,0.0
726,181.25,28.943,30.2499,162.062,99.5338,103.711,,,,79.8602,-0.36399,0.0,0.0
728,181.75,29.2649,29.9305,163.646,99.5241,104.433,,,,79.8502,-0.426261,0.0,0.0
730,182.25,29.0772,30.3188,162.736,99.551,104.135,,,,79.8502,-0.398523,0.0,0.0
732,182.75,29.3149,30.026,159.536,99.5876,104.331,,,,79.8602,-0.411928,0.0,0.0
734,183.25,28.9873,30.2487,159.99,99.6165,104.399,,,,79.8602,-0.415127,0.0,0.0
736,183.75,29.1342,29.8651,163.783,99.6647,104.278,,,,79.8502,-0.40057,0.0,0.0
738,184.25,28.9685,30.5133,160.569,99.6852,104.465,,,,79.8402,-0.414673,0.0,0.0
740,184.75,28.8959,30.1089,159.858,99.7241,104.668,,,,79.8602,-0.428329,0.0,0.0
742,185.25,29.3369,30.0616,160.087,99.7454,104.202,,,,79.8402,-0.386996,0.0,0.0
744,185.75,29.3554,30.4301,163.966,99.7827,104.368,,,,79.8602,-0.397758,0.0,0.0
746,186.25,29.1141,30.3239,160.451,99.7972,104.36,,,,79.8202,-0.395764,0.0,0.0
748,186.75,29.4688,30.1707,162.383,99.8398,104.098,,,,79.8602,-0.369795,0.0,0.0
749,187,28.9723,29.6851,162.463,99.8506,104.189,,,,79.8502,-0.376515,0.0,0.0