File: 01_Data/Polyisocyanurate_Foam_Board/Cone/Polyisocyanurate_Foam_Board_Cone_HF50Scan_221129_R2.csv
Names,Time,Stack TC,Smoke TC,Exh Press,Smoke Comp,Smoke Meas,CO Meter,CO2 Meter,O2 Meter,Sample Mass,Ext Coeff,Start Test,Flame Verif
Chan Gain,,500,500,1,1,1,1,1,1,1,1,1.0,1.0
Offset,,0,0,0.13918,0,0,0,0,0,0,0,0.0,0.0
Gain,,1,1,25.011,14.0162,15.5607,1,1,1,1.0009,1.02981,1.0,1.0
Units,sec,C,C,Pa,%,%,%,%,%,g,/m,,
Baseline,,32.5758,33.9245,155.022,104.619,4.47959,0.000799104,0.0930733,20.9491,-0.515048,28.4626,,
4,0.75,31.0829,33.0107,151.11,103.946,4.60012,0.00460686,0.110086,20.8962,527.987,28.1643,0.0,1.0
8,1.75,31.8921,33.1123,135.188,103.917,4.24444,0.00694589,0.136203,20.8348,527.676,28.8888,0.0,1.0
12,2.75,32.3581,33.2013,139.628,104.075,4.1846,0.0092134,0.176589,20.7777,527.526,29.0308,0.0,1.0
16,3.75,33.6426,33.6111,138.868,104.289,4.19458,0.0118733,0.224809,20.7092,527.436,29.0278,0.0,1.0
20,4.75,34.0858,34.4243,139.822,104.453,4.08583,0.014476,0.276344,20.6497,527.346,29.2793,0.0,1.0
24,5.75,35.8396,35.0706,132.516,104.578,4.27056,0.0165967,0.328263,20.5879,527.246,28.8906,0.0,0.0
28,6.75,36.4953,36.4281,137.409,104.679,4.10767,0.0182975,0.368442,20.5265,527.076,29.2507,0.0,0.0
32,7.75,37.9175,36.7406,138.412,104.766,3.94954,0.0194699,0.401044,20.4793,526.966,29.6128,0.0,0.0
36,8.75,38.5776,38.0673,137.302,104.811,4.0108,0.0201704,0.425948,20.4473,526.825,29.4776,0.0,0.0
40,9.75,39.5787,39.0122,134.902,104.817,3.8256,0.0204421,0.442822,20.4262,526.735,29.9052,0.0,0.0
44,10.75,40.3931,39.6914,134.866,104.797,3.71495,0.020265,0.45202,20.4143,526.605,30.1686,0.0,0.0
48,11.75,40.4861,40.0155,141.102,104.744,4.13379,0.0197247,0.45364,20.4138,526.505,29.199,0.0,0.0
52,12.75,41.505,41.4038,145.634,104.646,4.12714,0.01889,0.44969,20.4202,526.425,29.2051,0.0,0.0
56,13.75,42.144,42.0087,140.424,104.549,4.15041,0.0179473,0.438296,20.4404,526.375,29.146,0.0,0.0
60,14.75,42.1032,42.1508,145.272,104.418,4.16561,0.0167428,0.422727,20.4664,526.285,29.1016,0.0,0.0
64,15.75,42.16,43.3448,143.076,104.325,4.14376,0.0155726,0.405188,20.4946,526.205,29.141,0.0,0.0
68,16.75,42.9993,42.7644,143.423,104.396,4.215,0.0143009,0.387566,20.5131,526.165,28.9932,0.0,0.0
72,17.75,43.5786,43.3483,148.001,104.468,4.17653,0.013331,0.371021,20.5356,526.085,29.0822,0.0,0.0
76,18.75,43.3625,43.6151,146.006,104.557,4.30807,0.0121932,0.355864,20.5595,526.035,28.8098,0.0,0.0
80,19.75,43.2731,43.6148,148.493,104.661,4.30475,0.0111636,0.34202,20.5815,525.955,28.8258,0.0,0.0
84,20.75,43.7954,44.1562,147.654,104.772,4.24064,0.0102686,0.329835,20.6033,525.895,28.9709,0.0,0.0
88,21.75,44.073,44.0567,145.671,104.857,4.32802,0.00956391,0.317693,20.6255,525.825,28.794,0.0,0.0
92,22.75,44.1464,44.4122,144.83,104.951,4.40447,0.0090346,0.306954,20.644,525.785,28.6439,0.0,0.0
96,23.75,44.126,44.6516,149.536,105.034,4.43771,0.00858221,0.297511,20.658,525.745,28.5831,0.0,0.0
100,24.75,43.8246,44.7051,145.125,105.116,4.38975,0.00820975,0.289348,20.6692,525.654,28.6884,0.0,0.0
104,25.75,44.2434,44.8757,147.296,105.164,4.45813,0.00778278,0.282018,20.679,525.634,28.5528,0.0,0.0
108,26.75,44.1986,44.9334,144.468,105.199,4.37645,0.00741509,0.276252,20.6883,525.584,28.7228,0.0,0.0
112,27.75,43.9131,45.3188,141.557,105.223,4.40067,0.00703604,0.270369,20.6976,525.504,28.6751,0.0,0.0
116,28.75,44.0774,45.2381,146.119,105.231,4.43629,0.00669729,0.265863,20.7051,525.454,28.6029,0.0,0.0
120,29.75,44.4175,45.615,148.366,105.2,4.42347,0.00643934,0.262265,20.7106,525.414,28.6265,0.0,0.0
124,30.75,44.0025,45.6958,147.273,105.168,4.43201,0.00617903,0.259312,20.7149,525.354,28.6062,0.0,0.0
128,31.75,44.4648,45.4041,148.905,105.081,4.45338,0.00595138,0.256915,20.7184,525.334,28.5553,0.0,0.0
132,32.75,44.5581,45.4662,147.136,104.993,4.44911,0.00574068,0.254875,20.721,525.284,28.5564,0.0,0.0
136,33.75,44.4169,45.5403,145.665,104.883,4.41919,0.00555929,0.253218,20.7232,525.224,28.6079,0.0,0.0
140,34.75,44.3296,45.6889,147.728,104.747,4.49042,0.00542776,0.251905,20.7255,525.174,28.4517,0.0,0.0
144,35.75,44.1943,45.6501,148.376,104.601,4.45766,0.00534457,0.250874,20.7268,525.094,28.5053,0.0,0.0
148,36.75,44.4764,45.6278,142.213,104.451,4.4947,0.00526083,0.249981,20.7281,525.054,28.4176,0.0,0.0
152,37.75,44.1773,45.8835,144.61,104.279,4.48757,0.00511521,0.248926,20.7297,524.994,28.417,0.0,0.0
156,38.75,44.589,45.8368,148.712,104.114,4.50942,0.00491553,0.247942,20.7326,524.974,28.3588,0.0,0.0
160,39.75,44.5982,46.353,149.188,103.945,4.50942,0.00469184,0.245927,20.7355,524.934,28.3442,0.0,0.0
164,40.75,44.3166,46.2675,148.511,103.804,4.45338,0.0045089,0.243535,20.7393,524.864,28.4449,0.0,0.0
168,41.75,44.4121,45.8556,149.092,103.637,4.43106,0.00435209,0.240632,20.7443,524.844,28.4757,0.0,0.0
172,42.75,44.4248,46.6202,148.25,103.53,4.47618,0.0042444,0.238153,20.7502,524.794,28.3749,0.0,0.0
176,43.75,44.5007,46.4025,147.908,103.407,4.46098,0.00418459,0.234819,20.7564,524.774,28.3948,0.0,0.0
180,44.75,44.3857,46.4863,150.387,103.33,4.47475,0.00416936,0.230869,20.7636,524.754,28.3603,0.0,0.0
184,45.75,44.2541,46.2418,144.935,103.284,4.4852,0.00421358,0.226564,20.7702,524.694,28.3352,0.0,0.0
188,46.75,44.5384,46.7158,145.393,103.276,4.43961,0.0043085,0.221767,20.7764,524.684,28.4268,0.0,0.0
192,47.75,44.2794,46.5728,144.778,103.28,4.51559,0.00445986,0.217323,20.7837,524.664,28.2738,0.0,0.0
196,48.75,44.1388,46.757,147.167,103.336,4.55881,0.00464802,0.212542,20.7916,524.624,28.1927,0.0,0.0
200,49.75,43.7225,46.399,149.711,103.394,4.48995,0.00484923,0.207822,20.7988,524.604,28.3353,0.0,0.0
204,50.75,43.9017,46.3099,148.137,103.486,4.53839,0.00502089,0.203996,20.8042,524.563,28.2463,0.0,0.0
208,51.75,43.7325,46.3589,145.371,103.602,4.50087,0.00522294,0.201306,20.8077,524.493,28.3314,0.0,0.0
212,52.75,43.5788,46.0899,149.652,103.706,4.45623,0.00540147,0.199715,20.81,524.433,28.4306,0.0,0.0
216,53.75,43.9939,46.2107,150.768,103.842,4.47523,0.00558985,0.199788,20.81,524.403,28.4039,0.0,0.0
220,54.75,43.779,46.4232,150.391,103.962,4.46241,0.00584777,0.200934,20.808,524.363,28.4403,0.0,0.0
224,55.75,43.7724,46.2046,147.029,104.086,4.49707,0.00598614,0.203081,20.8054,524.303,28.3811,0.0,0.0
228,56.75,43.9126,46.1548,151.013,104.208,4.46905,0.00619696,0.206018,20.801,524.223,28.4483,0.0,0.0
232,57.75,43.7163,46.2643,154.666,104.31,4.50942,0.00637019,0.210608,20.7972,524.193,28.3758,0.0,0.0
236,58.75,44.027,46.1341,147.2,104.402,4.52699,0.00651333,0.214047,20.7936,524.133,28.3487,0.0,0.0
240,59.75,43.8599,46.7425,149.133,104.469,4.50182,0.0065947,0.217988,20.7863,524.083,28.4048,0.0,0.0
244,60.75,44.0885,46.3941,148.421,104.535,4.5023,0.0066134,0.223575,20.7792,524.033,28.4096,0.0,0.0
248,61.75,43.8934,46.7596,144.397,104.562,4.44341,0.0065779,0.229266,20.7714,523.953,28.5308,0.0,0.0
252,62.75,44.1046,46.6207,147.789,104.575,4.5023,0.00650925,0.235202,20.7645,523.883,28.4131,0.0,0.0
256,63.75,44.0755,46.7799,148.824,104.542,4.43439,0.00639049,0.240852,20.758,523.833,28.5475,0.0,0.0
260,64.75,44.432,46.6881,145.796,104.507,4.48283,0.00625497,0.245957,20.7529,523.763,28.4463,0.0,0.0
264,65.75,44.4951,46.8697,144.326,104.436,4.50325,0.0061209,0.249588,20.749,523.713,28.3991,0.0,0.0
268,66.75,44.3839,47.2788,144.223,104.352,4.50562,0.00599741,0.252818,20.7465,523.653,28.3871,0.0,0.0
272,67.75,44.3337,47.0509,152.603,104.252,4.51844,0.0058777,0.254598,20.7448,523.593,28.3528,0.0,0.0
276,68.75,44.4422,47.1947,146.851,104.149,4.56213,0.00577642,0.254964,20.7443,523.553,28.2569,0.0,0.0
280,69.75,44.5206,47.4581,150.616,104.084,4.51227,0.00569564,0.253774,20.7454,523.512,28.3505,0.0,0.0
284,70.75,44.8156,47.3155,145.129,103.995,4.58302,0.00562624,0.251471,20.7487,523.472,28.2022,0.0,0.0
288,71.75,44.548,47.5195,144.075,103.934,4.53079,0.00555473,0.247994,20.7533,523.432,28.3005,0.0,0.0
292,72.75,44.5407,47.5611,149.416,103.881,4.54646,0.00547446,0.243269,20.759,523.412,28.2647,0.0,0.0
296,73.75,44.8054,47.3009,148.653,103.971,4.53174,0.00539956,0.238076,20.7664,523.382,28.3019,0.0,0.0
300,74.75,44.5523,46.9931,148.858,104.16,4.59062,0.00534104,0.2311,20.7757,523.342,28.2016,0.0,0.0
304,75.75,44.7057,47.0058,147.906,104.345,4.64191,0.00530539,0.22369,20.7854,523.282,28.1173,0.0,0.0
308,76.75,44.6804,47.1391,148.428,104.506,4.5968,0.00528439,0.217102,20.7935,523.262,28.2194,0.0,0.0
312,77.75,44.1509,47.1792,148.764,104.615,4.59727,0.005269,0.211003,20.8,523.252,28.2279,0.0,0.0
316,78.75,44.3171,47.2224,149.011,104.733,4.62766,0.00526392,0.20537,20.8051,523.232,28.1786,0.0,0.0
320,79.75,44.3419,47.1731,151.11,104.745,4.63004,0.00527845,0.200647,20.8094,523.192,28.175,0.0,0.0
324,80.75,44.0743,47.0232,151.257,104.758,4.64951,0.00531925,0.196784,20.8145,523.162,28.1382,0.0,0.0
328,81.75,43.6226,47.0151,143.674,104.725,4.66233,0.00537986,0.193058,20.8189,523.132,28.1105,0.0,0.0
332,82.75,43.9909,46.7621,149.551,104.664,4.5854,0.00545649,0.18983,20.822,523.132,28.2555,0.0,0.0
336,83.75,43.9057,47.0491,150.377,104.562,4.70792,0.00555022,0.18728,20.8249,523.082,28.0085,0.0,0.0
340,84.75,43.8636,46.8233,149.846,104.435,4.61959,0.00563209,0.185121,20.8273,523.092,28.1686,0.0,0.0
344,85.75,43.7746,46.417,148.234,104.278,4.61152,0.00573135,0.183246,20.8289,523.062,28.1708,0.0,0.0
348,86.75,43.8399,46.8337,147.038,104.32,4.61342,0.0058078,0.181613,20.83,523.022,28.1707,0.0,0.0
352,87.75,43.8553,46.4149,151.971,104.386,4.64381,0.00587443,0.180286,20.8304,523.062,28.1171,0.0,0.0
356,88.75,43.4715,46.5329,151.086,104.468,4.62481,0.00593592,0.179347,20.8315,523.052,28.1613,0.0,0.0
360,89.75,43.4773,46.7388,153.392,104.555,4.5892,0.00601502,0.178301,20.8323,523.042,28.2386,0.0,0.0
364,90.75,43.5253,46.7407,149.513,104.659,4.62101,0.00609201,0.177297,20.8334,523.022,28.1852,0.0,0.0
368,91.75,42.9708,46.5775,149.384,104.746,4.66138,0.00615166,0.1763,20.8349,523.042,28.1142,0.0,0.0
372,92.75,43.1477,46.3477,152.204,104.832,4.61532,0.00619978,0.17519,20.8365,523.012,28.2113,0.0,0.0
376,93.75,43.0766,46.4888,151.249,104.911,4.61579,0.00625016,0.173975,20.8381,523.022,28.2171,0.0,0.0
380,94.75,43.066,46.4456,147.602,104.998,4.64713,0.00632679,0.172748,20.84,523.002,28.1635,0.0,0.0
384,95.75,43.0612,46.0139,149.016,105.062,4.67135,0.00642559,0.171449,20.842,522.992,28.122,0.0,0.0
388,96.75,43.3883,46.1016,149.809,105.11,4.64666,0.00652786,0.169874,20.8444,522.972,28.174,0.0,0.0
392,97.75,42.9709,46.1625,150.78,105.146,4.61627,0.00659097,0.168199,20.8465,522.932,28.2364,0.0,0.0
396,98.75,42.6321,46.1923,152.787,105.18,4.59822,0.00662521,0.166513,20.8485,522.922,28.2747,0.0,0.0
400,99.75,42.5091,46.0341,148.075,105.194,4.68322,0.00662426,0.164979,20.8497,522.922,28.1104,0.0,0.0
404,100.75,42.4624,46.0646,147.815,105.191,4.60724,0.00662238,0.163707,20.8514,522.892,28.258,0.0,0.0
408,101.75,42.6358,45.3314,148.866,105.173,4.57163,0.00661804,0.16246,20.8532,522.922,28.3265,0.0,0.0
412,102.75,42.7843,45.9053,149.024,105.15,4.62481,0.00660064,0.161122,20.8553,522.902,28.2201,0.0,0.0
416,103.75,42.4039,46.0982,148.382,105.12,4.67895,0.00657953,0.159652,20.8574,522.872,28.1123,0.0,0.0
420,104.75,42.1659,45.6474,150.227,105.068,4.60629,0.00656525,0.158209,20.8591,522.872,28.2492,0.0,0.0
424,105.75,42.1906,45.635,148.653,105.001,4.64286,0.00655348,0.156823,20.8607,522.842,28.172,0.0,0.0
428,106.75,42.1844,45.4136,147.992,104.931,4.62814,0.00658461,0.155584,20.862,522.832,28.1947,0.0,0.0
432,107.75,42.066,45.3965,149.219,104.857,4.65283,0.00665992,0.15478,20.8634,522.802,28.1403,0.0,0.0
436,108.75,42.0123,45.2939,149.046,104.777,4.62671,0.00670933,0.15366,20.8643,522.792,28.1842,0.0,0.0
440,109.75,42.0031,45.2329,154.658,104.684,4.59062,0.00684249,0.152502,20.8655,522.792,28.2469,0.0,0.0
444,110.75,41.8091,45.2514,150.088,104.582,4.62149,0.00691903,0.15116,20.868,522.782,28.1776,0.0,0.0
448,111.75,41.8758,45.1324,155.62,104.497,4.58635,0.00692122,0.150019,20.8702,522.762,28.2392,0.0,0.0
452,112.75,41.4536,44.6041,153.901,104.4,4.58065,0.00687806,0.148963,20.8716,522.762,28.2421,0.0,0.0
456,113.75,41.5741,44.965,152.411,104.293,4.61532,0.00684607,0.148036,20.8726,522.732,28.1647,0.0,0.0
460,114.75,41.4137,44.9032,153.374,104.206,4.60534,0.00683517,0.147338,20.8732,522.742,28.1767,0.0,0.0
464,115.75,41.7059,44.8221,152.632,104.11,4.55691,0.00684595,0.146705,20.8742,522.722,28.2639,0.0,0.0
468,116.75,41.3855,44.5599,151.374,104.06,4.53934,0.00686746,0.146065,20.875,522.722,28.2945,0.0,0.0
472,117.75,41.7779,44.5911,154.35,104.019,4.51559,0.00690314,0.145354,20.8762,522.712,28.3383,0.0,0.0
476,118.75,41.3753,44.4596,151.646,104.069,4.53649,0.00695453,0.144597,20.8772,522.702,28.3009,0.0,0.0
480,119.75,41.1854,44.4455,150.704,104.06,4.52699,0.00702399,0.143732,20.8782,522.682,28.319,0.0,0.0
484,120.75,41.1396,44.4171,148.399,103.995,4.58207,0.00711112,0.142768,20.8793,522.702,28.2041,0.0,0.0
488,121.75,40.9919,44.294,154.655,103.924,4.5645,0.00718707,0.142057,20.88,522.692,28.2326,0.0,0.0
492,122.75,40.7968,44.386,150.196,103.852,4.52177,0.00724106,0.14159,20.8804,522.672,28.3114,0.0,0.0
496,123.75,40.6482,44.1874,153.054,103.789,4.58113,0.00726827,0.141284,20.8807,522.682,28.1881,0.0,0.0
500,124.75,40.4775,44.3171,153.844,103.732,4.52461,0.00727598,0.140979,20.8809,522.672,28.2952,0.0,0.0
504,125.75,40.9586,43.8019,150.295,103.654,4.53934,0.00728377,0.14071,20.8811,522.652,28.2591,0.0,0.0
508,126.75,40.4539,43.7619,154.401,103.604,4.47285,0.00729503,0.140501,20.8811,522.652,28.3881,0.0,0.0
512,127.75,40.4576,43.8474,152.98,103.565,4.50657,0.00733454,0.1404,20.8812,522.632,28.3168,0.0,0.0
516,128.75,40.5747,43.6893,150.987,103.517,4.52794,0.00736401,0.140241,20.8812,522.582,28.2698,0.0,0.0
520,129.75,40.4322,43.5279,155.909,103.589,4.51702,0.00739001,0.139833,20.8821,522.572,28.2979,0.0,0.0
524,130.75,40.375,43.5094,152.008,103.701,4.50277,0.0074035,0.139127,20.8834,522.552,28.3363,0.0,0.0
528,131.75,40.3999,43.353,154.96,103.689,4.52414,0.0074103,0.13835,20.8849,522.552,28.2925,0.0,0.0
532,132.75,39.9695,43.2566,151.184,103.649,4.57353,0.00741706,0.13721,20.8859,522.482,28.1909,0.0,0.0
536,133.75,40.2071,43.2113,150.501,103.601,4.56545,0.00745133,0.136331,20.8865,522.512,28.2027,0.0,0.0
540,134.75,40.2055,43.0402,151.255,103.557,4.54314,0.00754443,0.135625,20.8873,522.492,28.2431,0.0,0.0
544,135.75,39.8072,43.2062,151.876,103.517,4.51464,0.00769339,0.134738,20.8886,522.462,28.2964,0.0,0.0
548,136.75,40.2675,43.1541,152.188,103.474,4.55691,0.00785291,0.133804,20.8903,522.462,28.2085,0.0,0.0
552,137.75,40.2043,42.8027,152.161,103.45,4.56545,0.00803083,0.132968,20.8918,522.452,28.1895,0.0,0.0
556,138.75,40.0556,42.7004,152.413,103.414,4.49185,0.00821422,0.132079,20.8927,522.432,28.3332,0.0,0.0
560,139.75,39.6654,42.5504,153.387,103.391,4.52556,0.00838164,0.13105,20.8936,522.452,28.2636,0.0,0.0
564,140.75,39.6265,43.093,153.884,103.378,4.59585,0.00853582,0.13006,20.8947,522.411,28.1233,0.0,0.0
568,141.75,39.4606,42.712,147.692,103.349,4.50942,0.0086807,0.129228,20.8956,522.422,28.2922,0.0,0.0
572,142.75,39.3921,42.437,149.517,103.343,4.52509,0.00880939,0.128434,20.8963,522.422,28.2603,0.0,0.0
576,143.75,39.4723,42.6702,153.352,103.335,4.46621,0.00893618,0.12769,20.8973,522.422,28.3779,0.0,0.0
580,144.75,39.6008,42.1931,157.024,103.334,4.50657,0.00906386,0.127013,20.8982,522.432,28.2966,0.0,0.0
584,145.75,39.5598,42.4318,154.012,103.328,4.52082,0.009188,0.126367,20.8988,522.401,28.2676,0.0,0.0
588,146.75,39.2467,42.3872,154.763,103.335,4.48188,0.00928054,0.125776,20.8993,522.411,28.3463,0.0,0.0
592,147.75,38.934,42.6329,150.184,103.343,4.54361,0.00937793,0.125295,20.8995,522.391,28.2234,0.0,0.0
596,148.75,39.1103,41.7567,153.454,103.343,4.53174,0.00949518,0.124961,20.8997,522.391,28.2471,0.0,0.0
600,149.75,38.8693,42.3945,148.525,103.361,4.54171,0.00960462,0.12476,20.8998,522.391,28.2289,0.0,0.0
604,150.75,39.1513,41.9439,150.182,103.374,4.56118,0.0097074,0.124595,20.8999,522.361,28.1913,0.0,0.0
608,151.75,38.9976,41.9452,154.337,103.385,4.4928,0.00980882,0.124355,20.8998,522.351,28.3287,0.0,0.0
612,152.75,38.9105,41.964,150.736,103.403,4.56498,0.00990606,0.124113,20.8996,522.341,28.1863,0.0,0.0
616,153.75,38.9745,42.0636,155.276,103.428,4.54741,0.00999277,0.123942,20.8994,522.331,28.2233,0.0,0.0
620,154.75,38.8386,41.8566,153.422,103.448,4.50087,0.0100541,0.123828,20.8994,522.321,28.318,0.0,0.0
624,155.75,38.9359,41.8094,153.097,103.473,4.54693,0.0100956,0.123649,20.8996,522.331,28.2282,0.0,0.0
628,156.75,38.7279,41.8682,158.939,103.498,4.55026,0.0101056,0.123505,20.9,522.351,28.2238,0.0,0.0
632,157.75,38.6675,41.4792,153.277,103.536,4.52794,0.0101046,0.12338,20.9003,522.321,28.2715,0.0,0.0
636,158.75,38.5436,41.2886,149.321,103.549,4.51369,0.0101224,0.123224,20.9005,522.351,28.3012,0.0,0.0
640,159.75,38.5393,41.4807,152.277,103.582,4.50847,0.0101907,0.123044,20.9009,522.311,28.3144,0.0,0.0
644,160.75,38.4502,41.6225,150.739,103.606,4.54171,0.0102935,0.122977,20.9016,522.291,28.2502,0.0,0.0
648,161.75,38.388,41.5665,153.161,103.632,4.4852,0.0104237,0.123038,20.9022,522.301,28.3656,0.0,0.0
652,162.75,38.65,41.4527,154.753,103.673,4.56023,0.0105551,0.123209,20.9025,522.291,28.2193,0.0,0.0
656,163.75,38.4933,41.2235,155.167,103.701,4.53934,0.0106427,0.123425,20.9027,522.372,28.2632,0.0,0.0
660,164.75,38.2103,41.3208,148.417,103.737,4.50515,0.0106567,0.123668,20.9024,522.301,28.3346,0.0,0.0
664,165.75,38.4767,41.1147,149.485,103.767,4.53126,0.0106219,0.123932,20.902,522.372,28.2851,0.0,0.0
668,166.75,38.5671,41.2063,152.04,103.819,4.50467,0.0105404,0.124184,20.9016,522.311,28.3427,0.0,0.0
672,167.75,38.1629,40.9922,152.308,103.857,4.48378,0.0104773,0.124412,20.9014,522.361,28.388,0.0,0.0
676,168.75,38.5766,41.3557,152.612,103.866,4.4719,0.0104423,0.124545,20.9012,522.301,28.4128,0.0,0.0
680,169.75,38.1816,40.8352,153.335,103.903,4.51939,0.0104415,0.124642,20.9011,522.321,28.3205,0.0,0.0
684,170.75,38.1264,40.6133,152.801,103.942,4.52651,0.0104509,0.124601,20.901,522.311,28.3097,0.0,0.0
688,171.75,38.0131,40.7266,150.483,103.976,4.50847,0.0104618,0.124573,20.9009,522.341,28.3488,0.0,0.0
692,172.75,37.8524,40.6884,150.639,104.014,4.48235,0.0104968,0.124556,20.9009,522.331,28.4045,0.0,0.0
696,173.75,38.0495,40.6944,150.456,104.04,4.53364,0.0105694,0.124524,20.9009,522.311,28.304,0.0,0.0
700,174.75,38.2237,41.0405,149.11,104.067,4.52746,0.0106484,0.124439,20.9009,522.291,28.3187,0.0,0.0
704,175.75,37.7696,40.6817,152.326,104.091,4.59442,0.0107825,0.124314,20.9011,522.291,28.1882,0.0,0.0
708,176.75,38.0501,40.3435,148.501,104.121,4.50704,0.0108535,0.124177,20.9017,522.291,28.3642,0.0,0.0
712,177.75,38.08,40.8097,151.748,104.143,4.51702,0.0109149,0.124003,20.9022,522.281,28.3461,0.0,0.0
716,178.75,37.683,40.5518,149.111,104.169,4.53886,0.0109216,0.12368,20.9024,522.291,28.3048,0.0,0.0
720,179.75,37.5922,40.0088,151.922,104.19,4.57733,0.0108769,0.123596,20.9023,522.301,28.2304,0.0,0.0
724,180.75,37.7456,40.7248,152.987,104.216,4.52651,0.0108182,0.123548,20.9023,522.311,28.3335,0.0,0.0
728,181.75,38.1737,40.2568,149.971,104.244,4.50277,0.01076,0.123517,20.9022,522.301,28.3835,0.0,0.0
732,182.75,38.6268,40.5241,152.324,104.276,4.58635,0.0107135,0.123549,20.9022,522.281,28.2201,0.0,0.0
736,183.75,37.4491,40.1312,148.727,104.302,4.58682,0.0106667,0.123623,20.9022,522.271,28.2214,0.0,0.0
740,184.75,37.4755,40.6907,149.977,104.335,4.52556,0.0106429,0.123671,20.9022,522.271,28.3457,0.0,0.0
744,185.75,38.0091,40.0981,154.228,104.345,4.45718,0.0106553,0.123682,20.9022,522.251,28.4841,0.0,0.0
748,186.75,37.4683,39.8434,149.906,104.375,4.55928,0.0106774,0.123683,20.9022,522.241,28.2821,0.0,0.0
752,187.75,38.1859,40.1558,154.154,104.39,4.51892,0.0106756,0.123684,20.9022,522.241,28.3637,0.0,0.0
756,188.75,37.762,40.7084,152.21,104.41,4.51274,0.0106278,0.12367,20.9022,522.221,28.3779,0.0,0.0
760,189.75,37.4769,40.2587,152.648,104.436,4.51274,0.010554,0.123593,20.9022,522.221,28.38,0.0,0.0
764,190.75,37.2287,40.1825,152.731,104.453,4.52366,0.0104455,0.12343,20.9024,522.211,28.3597,0.0,0.0
768,191.75,37.7749,40.4264,152.008,104.471,4.52841,0.010347,0.123231,20.9031,522.211,28.3518,0.0,0.0
772,192.75,37.5531,40.2543,150.635,104.489,4.51559,0.0102934,0.1231,20.9036,522.191,28.379,0.0,0.0
776,193.75,37.521,40.0435,154.895,104.499,4.51844,0.0102979,0.123093,20.9039,522.181,28.3741,0.0,0.0
780,194.75,37.8033,40.1643,150.129,104.52,4.52841,0.010394,0.123109,20.9035,522.151,28.356,0.0,0.0
784,195.75,37.8488,39.8103,151.978,104.527,4.56213,0.0105195,0.123166,20.903,522.161,28.2896,0.0,0.0
788,196.75,38.054,39.4815,152.764,104.549,4.53459,0.0106535,0.123229,20.9027,522.101,28.3462,0.0,0.0
792,197.75,37.6237,39.9285,149.592,104.561,4.58777,0.0107773,0.123274,20.9025,522.121,28.2419,0.0,0.0
796,198.75,37.5495,39.6368,151.404,104.571,4.54931,0.0108584,0.123285,20.9022,522.081,28.3189,0.0,0.0
800,199.75,37.305,39.7386,156.564,104.594,4.53839,0.010896,0.123528,20.9014,522.121,28.3425,0.0,0.0
804,200.75,37.0902,40.1696,149.73,104.6,4.55121,0.0109124,0.123851,20.9008,522.041,28.3176,0.0,0.0
808,201.75,37.4181,39.6696,148.69,104.611,4.56213,0.0108827,0.124149,20.9007,522.121,28.2969,0.0,0.0
812,202.75,37.7415,39.4304,158.641,104.618,4.53934,0.010806,0.124304,20.9009,522.031,28.3427,0.0,0.0
816,203.75,37.2807,39.7516,150.689,104.625,4.54076,0.0107351,0.124397,20.901,522.001,28.3405,0.0,0.0
820,204.75,37.6338,39.6523,150.853,104.64,4.54171,0.0106685,0.12444,20.901,521.981,28.3399,0.0,0.0
824,205.75,37.1444,39.7467,152.184,104.653,4.55833,0.0105975,0.124567,20.9017,522.011,28.3081,0.0,0.0
828,206.75,37.093,39.7819,154.883,104.643,4.5854,0.0105579,0.124578,20.9017,522.021,28.2537,0.0,0.0
832,207.75,37.5377,39.5892,152.496,104.646,4.52936,0.0105529,0.124553,20.9015,522.001,28.3651,0.0,0.0
836,208.75,37.0362,39.6119,148.816,104.651,4.53601,0.0105567,0.124456,20.9014,521.991,28.3522,0.0,0.0
840,209.75,37.1559,39.4124,151.476,104.658,4.54931,0.0105358,0.124331,20.9013,521.951,28.3264,0.0,0.0
844,210.75,37.2122,39.6205,150.776,104.667,4.55026,0.0104964,0.124185,20.9012,521.961,28.3252,0.0,0.0
848,211.75,37.0045,39.3668,150.466,104.665,4.55643,0.0104522,0.12408,20.9012,521.961,28.3128,0.0,0.0
852,212.75,37.3271,39.297,152.023,104.669,4.60249,0.0104434,0.124,20.9012,521.951,28.2223,0.0,0.0
856,213.75,37.1371,39.5173,149.617,104.664,4.55026,0.010461,0.123892,20.902,521.971,28.325,0.0,0.0
860,214.75,37.0451,39.4148,152.345,104.66,4.53031,0.0104942,0.123743,20.9019,521.971,28.3643,0.0,0.0
864,215.75,37.1648,39.5704,149.532,104.666,4.55311,0.0104973,0.123515,20.9018,521.951,28.3195,0.0,0.0
868,216.75,37.0312,39.3625,155.813,104.655,4.56213,0.0104528,0.123367,20.9019,521.941,28.3007,0.0,0.0
872,217.75,37.0618,39.3841,157.761,104.647,4.52556,0.0104107,0.123314,20.9019,521.921,28.3727,0.0,0.0
876,218.75,37.0563,39.4215,155.542,104.652,4.52699,0.0103977,0.1234,20.902,521.911,28.3703,0.0,0.0
880,219.75,36.663,39.5766,155.909,104.647,4.52509,0.010432,0.123573,20.902,521.901,28.3737,0.0,0.0
884,220.75,37.3351,39.1395,153.835,104.648,4.50657,0.0105058,0.123797,20.902,521.881,28.4107,0.0,0.0
888,221.75,37.1251,39.1192,151.81,104.632,4.51417,0.0106004,0.124102,20.902,521.891,28.3942,0.0,0.0
892,222.75,36.835,39.0396,151.713,104.628,4.54503,0.0106954,0.124353,20.902,521.891,28.3323,0.0,0.0
896,223.75,36.9259,39.4826,154.703,104.628,4.53696,0.0107692,0.124571,20.9014,521.891,28.3484,0.0,0.0
900,224.75,36.9623,39.4592,156.403,104.622,4.56878,0.0108143,0.124661,20.9008,521.881,28.2847,0.0,0.0
904,225.75,37.1433,38.9479,156.88,104.609,4.50325,0.0108179,0.124668,20.9005,521.851,28.414,0.0,0.0
908,226.75,36.7221,39.3404,150.685,104.599,4.47665,0.0107859,0.124642,20.9003,521.851,28.4667,0.0,0.0
912,227.75,37.3151,38.9793,153.376,104.591,4.53079,0.0106817,0.124551,20.9008,521.851,28.3574,0.0,0.0
916,228.75,36.8043,38.8467,150.601,104.59,4.54266,0.0105551,0.124304,20.9012,521.831,28.3337,0.0,0.0
920,229.75,36.8968,39.1777,156.535,104.582,4.55311,0.0104209,0.124003,20.9022,521.841,28.3122,0.0,0.0
924,230.75,36.9431,38.8078,150.317,104.574,4.53316,0.0102724,0.123566,20.903,521.831,28.3512,0.0,0.0
928,231.75,37.224,39.051,153.89,104.566,4.52224,0.0101403,0.123158,20.9037,521.851,28.3723,0.0,0.0
932,232.75,37.4602,39.1197,154.246,104.56,4.52699,0.0100076,0.122734,20.9048,521.841,28.3624,0.0,0.0
936,233.75,37.1616,39.2809,150.447,104.55,4.57923,0.00989188,0.122339,20.9055,521.871,28.2578,0.0,0.0
940,234.75,36.5396,38.9644,155.972,104.533,4.56308,0.00979173,0.12197,20.9059,521.871,28.2882,0.0,0.0
944,235.75,36.8647,38.8966,150.183,104.522,4.53174,0.00971155,0.121675,20.9062,521.881,28.3496,0.0,0.0
948,236.75,37.0051,39.496,147.733,104.509,4.54076,0.00964828,0.12143,20.9064,521.901,28.3305,0.0,0.0
952,237.75,37.1323,39.4917,150.978,104.497,4.51702,0.00960513,0.121243,20.9063,521.901,28.3768,0.0,0.0
956,238.75,36.4185,38.6467,153.393,104.482,4.50847,0.0095549,0.121097,20.9062,521.891,28.3926,0.0,0.0
960,239.75,36.5785,39.4506,155.343,104.483,4.53554,0.00950874,0.121039,20.9061,521.791,28.3386,0.0,0.0
964,240.75,36.8321,39.3726,153.438,104.462,4.48188,0.00947284,0.121074,20.906,521.861,28.4443,0.0,0.0
968,241.75,36.7897,39.1558,153.688,104.444,4.58018,0.00944465,0.121212,20.906,521.811,28.2468,0.0,0.0
972,242.75,36.4622,38.4307,149.937,104.436,4.51512,0.00942517,0.12135,20.906,521.841,28.3754,0.0,0.0
976,243.75,36.9366,38.8117,153.76,104.433,4.574,0.00940326,0.121415,20.906,521.831,28.258,0.0,0.0
980,244.75,36.3934,38.2426,150.328,104.409,4.49612,0.00936892,0.121424,20.9059,521.861,28.411,0.0,0.0
984,245.75,36.3271,38.3854,154.823,104.384,4.53791,0.00928221,0.121385,20.9059,521.871,28.3254,0.0,0.0
988,246.75,36.7099,38.9748,154.131,104.391,4.49707,0.00917291,0.121341,20.9059,521.881,28.4076,0.0,0.0
992,247.75,36.6966,38.7735,156.104,104.368,4.52651,0.00904631,0.121182,20.9059,521.891,28.3467,0.0,0.0
996,248.75,36.7355,38.6855,152.978,104.359,4.5042,0.00891113,0.121005,20.9056,521.871,28.3906,0.0,0.0
1000,249.75,36.6275,38.5282,152.203,104.341,4.50277,0.00880985,0.120831,20.9057,521.841,28.3919,0.0,0.0
1004,250.75,36.7306,38.9283,153.138,104.334,4.48567,0.00872677,0.120616,20.9063,521.831,28.4256,0.0,0.0
1008,251.75,36.909,38.6753,150.637,104.337,4.49042,0.00866296,0.120396,20.9067,521.811,28.4163,0.0,0.0
1012,252.75,36.6904,38.5406,149.549,104.321,4.52129,0.00857726,0.120251,20.9069,521.821,28.353,0.0,0.0
1016,253.75,36.6781,38.4669,155.139,104.33,4.57068,0.00849337,0.120052,20.9071,521.831,28.2557,0.0,0.0
1020,254.75,36.6551,38.9976,154.976,104.304,4.51892,0.00841989,0.119798,20.9079,521.831,28.3563,0.0,0.0
1024,255.75,37.0158,38.767,151.959,104.302,4.55548,0.00835093,0.119538,20.9085,521.831,28.2833,0.0,0.0
1028,256.75,36.5912,38.9517,153.699,104.303,4.54409,0.00826746,0.119174,20.9089,521.821,28.306,0.0,0.0
1032,257.75,36.5445,38.5543,154.47,104.302,4.47285,0.00818435,0.118794,20.9091,521.801,28.4487,0.0,0.0
1036,258.75,36.6441,38.5794,154.376,104.292,4.47665,0.00808575,0.118471,20.9091,521.791,28.4401,0.0,0.0
1040,259.75,36.8802,38.5182,155.966,104.292,4.51559,0.00797046,0.118259,20.9096,521.771,28.3619,0.0,0.0
1044,260.75,36.6042,38.9289,151.593,104.297,4.54029,0.00789302,0.118056,20.9102,521.761,28.3131,0.0,0.0
1048,261.75,36.6493,38.4769,152.655,104.295,4.4795,0.0078544,0.117891,20.9101,521.771,28.4347,0.0,0.0
1052,262.75,36.6168,38.6327,152.745,104.29,4.53459,0.00784516,0.117772,20.9101,521.751,28.3238,0.0,0.0
1056,263.75,36.6073,38.48,150.943,104.285,4.48567,0.00783707,0.117663,20.9105,521.731,28.4213,0.0,0.0
1060,264.75,36.7777,38.38,153.158,104.289,4.48045,0.00780493,0.117495,20.9107,521.731,28.4322,0.0,0.0
1064,265.75,36.8384,38.5928,148.61,104.284,4.51179,0.00775566,0.117329,20.9109,521.751,28.3688,0.0,0.0
1068,266.75,36.8816,38.7195,152.48,104.264,4.51512,0.00765584,0.117221,20.911,521.741,28.3604,0.0,0.0
1072,267.75,36.4202,38.3917,150.884,104.28,4.50704,0.00755291,0.11715,20.9111,521.741,28.378,0.0,0.0
1076,268.75,36.5771,38.4185,152.558,104.271,4.49612,0.00743493,0.117041,20.9111,521.721,28.3991,0.0,0.0
1080,269.75,36.6786,38.5408,157.281,104.266,4.49422,0.00733002,0.116892,20.9112,521.711,28.4025,0.0,0.0
1084,270.75,36.9117,38.6049,153.27,104.273,4.49232,0.00726185,0.116747,20.9115,521.681,28.407,0.0,0.0
1088,271.75,36.7543,38.7088,150.498,104.279,4.48615,0.00722275,0.116594,20.9125,521.671,28.4199,0.0,0.0
1092,272.75,36.2836,38.8567,150.659,104.284,4.57068,0.00720685,0.11653,20.9131,521.651,28.2517,0.0,0.0
1096,273.75,36.6004,38.5238,152.163,104.273,4.4795,0.00722163,0.116488,20.9136,521.621,28.4327,0.0,0.0
1100,274.75,35.9419,38.315,156.771,104.267,4.51844,0.00724968,0.11642,20.9139,521.631,28.354,0.0,0.0
1104,275.75,36.2135,37.9325,151.084,104.274,4.56403,0.00725203,0.116343,20.914,521.641,28.264,0.0,0.0
1108,276.75,35.6313,38.275,153.426,104.281,4.47808,0.00721001,0.116259,20.9142,521.611,28.4363,0.0,0.0
1112,277.75,36.0942,37.9029,152.733,104.271,4.51179,0.00713434,0.11618,20.9142,521.611,28.3677,0.0,0.0
1116,278.75,36.2583,37.8071,152.293,104.267,4.49897,0.00707026,0.116099,20.9143,521.591,28.3931,0.0,0.0
1120,279.75,36.026,37.5706,151.429,104.273,4.56213,0.00704364,0.115995,20.9143,521.561,28.2676,0.0,0.0
1124,280.75,35.5476,37.9514,153.135,104.272,4.54456,0.00708996,0.11588,20.9144,521.561,28.3024,0.0,0.0
1128,281.75,35.9788,37.7221,154.268,104.269,4.51749,0.00716099,0.115749,20.9144,521.561,28.3561,0.0,0.0
1132,282.75,36.0986,37.9625,151.883,104.27,4.53981,0.0072375,0.115794,20.9144,521.551,28.3117,0.0,0.0
1136,283.75,36.3489,37.7528,148.719,104.274,4.55596,0.00732204,0.115884,20.9144,521.521,28.28,0.0,0.0
1140,284.75,36.0824,37.9911,148.833,104.269,4.58777,0.00734309,0.115919,20.9144,521.531,28.2167,0.0,0.0
1144,285.75,36.1499,37.6989,145.432,104.276,4.60819,0.00729907,0.115891,20.9144,521.501,28.1772,0.0,0.0
1148,286.75,35.5671,37.3613,153.725,104.276,4.51749,0.0072078,0.115767,20.9146,521.521,28.3567,0.0,0.0
1152,287.75,35.5953,37.6183,152.668,104.275,4.55738,0.00713073,0.115665,20.9152,521.531,28.2772,0.0,0.0
1156,288.75,36.1225,37.8283,152.78,104.264,4.53221,0.00704569,0.115634,20.9157,521.551,28.3263,0.0,0.0
1160,289.75,36.1054,37.9709,151.631,104.283,4.53459,0.00700363,0.115666,20.9161,521.541,28.3232,0.0,0.0
1164,290.75,36.0777,37.8014,152.232,104.272,4.55406,0.00696459,0.115596,20.9163,521.531,28.2836,0.0,0.0
1168,291.75,35.952,37.8878,151.854,104.279,4.53221,0.00690111,0.115463,20.9164,521.491,28.3276,0.0,0.0
1172,292.75,36.0027,38.0115,149.597,104.291,4.54503,0.00679163,0.115304,20.9165,521.511,28.3032,0.0,0.0
1176,293.75,36.0575,38.0154,151.326,104.294,4.54693,0.00670429,0.115148,20.9166,521.491,28.2996,0.0,0.0
1180,294.75,36.0926,37.6565,151.678,104.291,4.55453,0.00654625,0.115009,20.9163,521.491,28.2842,0.0,0.0
1184,295.75,35.6503,37.8672,156.172,104.281,4.56925,0.00639153,0.114944,20.9159,521.481,28.2543,0.0,0.0
1188,296.75,36.1172,37.8065,152.066,104.285,4.4947,0.00624419,0.114886,20.9158,521.461,28.4032,0.0,0.0
1192,297.75,35.7222,38.0972,151.799,104.288,4.4757,0.00610473,0.114811,20.9164,521.471,28.4417,0.0,0.0
1196,298.75,35.7524,37.6094,156.679,104.299,4.47048,0.00599326,0.114762,20.9167,521.451,28.4532,0.0,0.0
1200,299.75,36.1259,37.4763,151.721,104.289,4.48805,0.00591366,0.114652,20.9169,521.441,28.4169,0.0,0.0
1204,300.75,36.0162,37.5176,154.16,104.295,4.49137,0.00587054,0.114631,20.9171,521.451,28.4107,0.0,0.0
1208,301.75,35.5474,37.7138,152.135,104.307,4.51464,0.0058498,0.114762,20.9172,521.461,28.3651,0.0,0.0
1212,302.75,35.3597,37.8325,152.736,104.311,4.59157,0.00584608,0.114828,20.9172,521.461,28.2129,0.0,0.0
1216,303.75,35.8373,37.5583,155.673,104.309,4.55786,0.00585173,0.114825,20.9173,521.481,28.2792,0.0,0.0
1220,304.75,35.7574,37.6979,149.429,104.323,4.59917,0.00586203,0.114823,20.9173,521.491,28.1989,0.0,0.0
1224,305.75,36.1403,37.7698,151.43,104.335,4.4795,0.00586544,0.11477,20.9173,521.461,28.4381,0.0,0.0
1228,306.75,36.0215,37.3854,152.911,104.325,4.52177,0.00585187,0.114683,20.9173,521.461,28.3524,0.0,0.0
1232,307.75,35.7879,37.6284,149.037,104.337,4.58635,0.00582257,0.114548,20.9173,521.461,28.2253,0.0,0.0
1236,308.75,35.9797,37.5647,150.472,104.338,4.54409,0.00575043,0.114407,20.9174,521.491,28.309,0.0,0.0
1240,309.75,35.7713,37.2341,154.466,104.342,4.5042,0.00567245,0.114315,20.9174,521.481,28.3891,0.0,0.0
1244,310.75,35.8742,37.9667,149.087,104.353,4.4985,0.00560311,0.114333,20.9174,521.471,28.4015,0.0,0.0
1248,311.75,35.6099,37.2234,154.482,104.348,4.50609,0.00556443,0.114283,20.9174,521.501,28.3858,0.0,0.0
1252,312.75,35.9386,37.7475,153.664,104.357,4.55928,0.0055301,0.114204,20.9174,521.491,28.2806,0.0,0.0
1256,313.75,35.7374,37.693,148.399,104.354,4.52414,0.00549263,0.1141,20.9174,521.521,28.3502,0.0,0.0
1260,314.75,36.0331,37.8672,151.737,104.347,4.51322,0.00546091,0.113965,20.9174,521.531,28.3714,0.0,0.0
1264,315.75,35.3674,36.9916,151.953,104.361,4.54931,0.0054496,0.11391,20.9174,521.521,28.3007,0.0,0.0
1268,316.75,35.4236,37.211,159.019,104.368,4.52746,0.00545235,0.113911,20.9174,521.491,28.3447,0.0,0.0
1272,317.75,35.877,37.3442,151.755,104.37,4.56118,0.00549715,0.113859,20.9174,521.501,28.2779,0.0,0.0
1276,318.75,35.4906,37.7675,150.837,104.374,4.54314,0.00554887,0.113744,20.9174,521.521,28.3141,0.0,0.0
1280,319.75,35.8083,37.2322,155.049,104.385,4.55358,0.00557314,0.113661,20.9174,521.521,28.2943,0.0,0.0
1284,320.75,35.8685,37.7343,151.189,104.391,4.56498,0.00554927,0.113659,20.9174,521.501,28.2723,0.0,0.0
1288,321.75,35.3489,37.1001,151.636,104.397,4.55121,0.00550411,0.113709,20.9174,521.511,28.3,0.0,0.0
1292,322.75,35.6191,37.331,151.313,104.406,4.52841,0.005395,0.113779,20.9174,521.491,28.3462,0.0,0.0
1296,323.75,35.6491,37.5451,153.147,104.41,4.55121,0.00528257,0.113773,20.9174,521.481,28.3012,0.0,0.0
1300,324.75,35.4153,37.4147,149.956,104.407,4.52936,0.00519974,0.113783,20.918,521.461,28.3444,0.0,0.0
1304,325.75,35.4309,37.8139,151.217,104.427,4.55073,0.00513859,0.113773,20.9186,521.461,28.3036,0.0,0.0
1308,326.75,35.9755,37.3291,152.285,104.425,4.5664,0.00508713,0.113685,20.919,521.471,28.2724,0.0,0.0
1312,327.75,35.8004,37.7215,153.387,104.436,4.51132,0.00503523,0.113495,20.9192,521.491,28.3829,0.0,0.0
1316,328.75,35.7383,37.7744,150.3,104.433,4.54978,0.00497797,0.113258,20.9194,521.481,28.306,0.0,0.0
1320,329.75,36.0459,37.3561,152.821,104.445,4.56118,0.0049304,0.113024,20.9195,521.451,28.2844,0.0,0.0
1324,330.75,35.3523,38.0161,147.16,104.46,4.4833,0.0049034,0.112806,20.9195,521.441,28.4413,0.0,0.0
1328,331.75,35.7961,37.8068,151.282,104.468,4.53316,0.00490801,0.112589,20.9196,521.451,28.342,0.0,0.0
1332,332.75,35.6433,37.2899,152.435,104.47,4.55263,0.00494096,0.112446,20.9198,521.451,28.3035,0.0,0.0
1336,333.75,35.9102,37.5804,150.103,104.473,4.51987,0.00498621,0.112304,20.9201,521.441,28.369,0.0,0.0
1340,334.75,35.8825,37.3601,153.446,104.484,4.55596,0.00503037,0.112144,20.9202,521.441,28.2981,0.0,0.0
1344,335.75,35.6022,37.3012,154.839,104.487,4.53269,0.00507365,0.11192,20.9203,521.441,28.3446,0.0,0.0
1348,336.75,35.2947,38.0794,154.621,104.495,4.52034,0.00509338,0.111693,20.9208,521.441,28.37,0.0,0.0
1352,337.75,35.6138,37.3441,151.66,104.511,4.50372,0.00506185,0.111484,20.9215,521.441,28.4047,0.0,0.0
1356,338.75,35.7247,37.3667,151.911,104.509,4.54219,0.00497654,0.111327,20.922,521.431,28.3277,0.0,0.0
1360,339.75,35.7344,37.684,153.216,104.506,4.53506,0.00490615,0.111206,20.9223,521.421,28.3416,0.0,0.0
1364,340.75,35.47,37.6723,151.19,104.518,4.51512,0.00479885,0.110996,20.9222,521.411,28.3825,0.0,0.0
1368,341.75,35.9842,37.4095,153.887,104.525,4.53174,0.00476403,0.110963,20.9221,521.401,28.3498,0.0,0.0
1372,342.75,35.4914,37.5742,151.735,104.531,4.50752,0.0047883,0.110969,20.922,521.411,28.3987,0.0,0.0
1376,343.75,35.7588,37.359,159.469,104.549,4.48805,0.00486595,0.110974,20.9217,521.431,28.4394,0.0,0.0
1380,344.75,35.1902,37.5051,150.707,104.545,4.52224,0.00496233,0.110919,20.9217,521.411,28.3705,0.0,0.0
1384,345.75,35.7851,37.3972,152.872,104.537,4.47808,0.00504682,0.110858,20.9223,521.391,28.4585,0.0,0.0
1388,346.75,35.7423,37.9068,150.899,104.55,4.55501,0.0050988,0.110736,20.9227,521.411,28.3057,0.0,0.0
1392,347.75,35.8384,37.2803,153.456,104.56,4.53934,0.00511928,0.110531,20.923,521.371,28.3377,0.0,0.0
1396,348.75,35.6631,37.3426,155.197,104.557,4.52272,0.00512663,0.110329,20.9231,521.351,28.3706,0.0,0.0
1400,349.75,35.4062,37.8087,149.485,104.569,4.52746,0.00510898,0.110144,20.9232,521.351,28.3621,0.0,0.0
1404,350.75,35.652,37.5853,151.048,104.577,4.55358,0.00506997,0.110038,20.9233,521.331,28.3109,0.0,0.0
1408,351.75,35.5498,37.322,150.299,104.575,4.50325,0.00500508,0.109845,20.9234,521.291,28.4111,0.0,0.0
1412,352.75,35.3552,37.0904,154.2,104.579,4.52794,0.00490376,0.109705,20.9234,521.301,28.3621,0.0,0.0
1416,353.75,36.0343,37.1817,153.898,104.596,4.489,0.00479578,0.109528,20.9234,521.311,28.4416,0.0,0.0
1420,354.75,36.0261,37.4229,150.162,104.587,4.49517,0.00472083,0.1094,20.9234,521.28,28.4284,0.0,0.0
1424,355.75,35.2641,36.9592,151.225,104.595,4.49945,0.00468841,0.109231,20.9234,521.28,28.4205,0.0,0.0
1428,356.75,35.5014,36.9287,148.005,104.605,4.50894,0.00473195,0.109071,20.9234,521.27,28.4023,0.0,0.0
1432,357.75,34.9561,36.9752,148.278,104.612,4.5626,0.00479828,0.108893,20.9234,521.26,28.296,0.0,0.0
1436,358.75,35.5246,37.4133,153.905,104.61,4.51797,0.00488793,0.108673,20.9234,521.26,28.3847,0.0,0.0
1440,359.75,35.0236,37.0805,153.003,104.614,4.54836,0.00495661,0.108426,20.9234,521.27,28.3244,0.0,0.0
1444,360.75,35.5744,37.1704,151.285,104.622,4.56688,0.0049792,0.108216,20.9242,521.26,28.2884,0.0,0.0
1448,361.75,34.9791,37.0644,153.323,104.617,4.56166,0.00496669,0.108052,20.9248,521.27,28.2983,0.0,0.0
1452,362.75,35.3556,37.4029,148.973,104.622,4.58397,0.00495848,0.107878,20.9251,521.26,28.2546,0.0,0.0
1456,363.75,35.3656,37.3741,154.161,104.64,4.50325,0.00489871,0.107707,20.9256,521.24,28.4167,0.0,0.0
1460,364.75,35.5266,37.272,152.581,104.634,4.48615,0.00486307,0.107583,20.9259,521.24,28.4505,0.0,0.0
1464,365.75,35.5443,37.3853,151.09,104.637,4.55501,0.00484064,0.10745,20.9262,521.26,28.3132,0.0,0.0
1468,366.75,35.5739,37.2595,154.04,104.637,4.52366,0.00482236,0.10734,20.9263,521.26,28.3756,0.0,0.0
1472,367.75,35.4202,37.5928,151.301,104.643,4.55833,0.00480762,0.107198,20.9264,521.27,28.3072,0.0,0.0
1476,368.75,35.7303,37.2425,152.387,104.657,4.58872,0.004802,0.107038,20.9265,521.25,28.2484,0.0,0.0
1480,369.75,35.6281,37.2091,153.032,104.656,4.54409,0.00480957,0.106852,20.9265,521.25,28.3366,0.0,0.0
1484,370.75,35.1515,37.3172,160.261,104.661,4.52889,0.00483619,0.106697,20.9266,521.26,28.3672,0.0,0.0
1488,371.75,35.4611,37.2484,157.096,104.664,4.55643,0.00487631,0.106558,20.9266,521.24,28.3127,0.0,0.0
1492,372.75,35.3442,37.1287,150.615,104.677,4.54409,0.00491654,0.106389,20.9266,521.27,28.3384,0.0,0.0
1496,373.75,35.2627,37.1668,157.456,104.666,4.50989,0.00494598,0.106238,20.9266,521.26,28.4056,0.0,0.0
1500,374.75,35.4569,37.2502,148.439,104.68,4.51559,0.00495849,0.106086,20.9266,521.27,28.3954,0.0,0.0
1504,375.75,35.5659,37.2814,155.591,104.678,4.55786,0.00495763,0.105956,20.9266,521.25,28.3111,0.0,0.0
1508,376.75,35.164,37.2982,155.457,104.682,4.53411,0.0049535,0.105822,20.9271,521.23,28.3587,0.0,0.0
1512,377.75,35.5183,37.5011,152.651,104.682,4.53126,0.00495161,0.105613,20.9277,521.24,28.3643,0.0,0.0
1516,378.75,35.402,37.3731,155.993,104.703,4.51844,0.00494459,0.105414,20.9281,521.24,28.3917,0.0,0.0
1520,379.75,35.3752,37.7449,152.147,104.685,4.55311,0.00492865,0.105302,20.9284,521.25,28.3211,0.0,0.0
1524,380.75,35.1402,36.9893,153.557,104.7,4.5645,0.00490937,0.105229,20.9286,521.23,28.2999,0.0,0.0
1528,381.75,35.6058,37.045,157.02,104.69,4.53221,0.00487865,0.105077,20.9287,521.23,28.3632,0.0,0.0
1532,382.75,34.8021,36.9259,153.684,104.695,4.574,0.00485319,0.105029,20.9288,521.2,28.2806,0.0,0.0
1536,383.75,35.0148,37.1314,155.962,104.698,4.5023,,0.104946,,521.24,28.4237,0.0,0.0
1540,384.75,34.8722,36.9607,152.344,104.697,4.53221,,0.10484,,521.26,28.3637,0.0,0.0
1544,385.75,35.4878,36.833,154.381,104.693,4.55881,,0.104771,,521.26,28.3106,0.0,0.0
1548,386.75,34.9973,37.0014,150.368,104.685,4.53839,,,,521.28,28.3504,0.0,0.0
1552,387.75,35.1175,37.0069,150.822,104.698,4.50942,,,,521.28,28.4093,0.0,0.0
1556,388.75,35.2893,37.05,158.526,104.697,4.5778,,,,521.301,28.2733,0.0,0.0
1560,389.75,35.0869,36.6447,153.879,104.685,4.55263,,,,521.311,28.3221,0.0,0.0
1564,390.75,35.0972,36.7577,151.125,104.681,4.52699,,,,521.32,28.3727,0.0,0.0
1568,391.75,35.6111,37.1563,153.979,104.686,4.50515,,,,521.311,28.4169,0.0,0.0
1572,392.75,35.0351,36.9083,152.571,104.689,4.58113,,,,521.291,28.2661,0.0,0.0
1576,393.75,35.1485,37.0005,155.253,104.683,4.53601,,,,521.28,28.3549,0.0,0.0
1577,394,34.6923,36.7059,153.357,104.675,4.55073,,,,521.301,28.325,0.0,0.0