File: 01_Data/Polyisocyanurate_Foam_Board/Cone/Polyisocyanurate_Foam_Board_Cone_HF75Scan_221202_R4.csv
Names,Time,Stack TC,Smoke TC,Exh Press,Smoke Comp,Smoke Meas,CO Meter,CO2 Meter,O2 Meter,Sample Mass,Ext Coeff,Start Test,Flame Verif
Chan Gain,,500,500,1,1,1,1,1,1,1,1,1.0,1.0
Offset,,0,0,0.13918,0,0,0,0,0,0,0,0.0,0.0
Gain,,1,1,25.011,14.0162,15.5607,1,1,1,1.0009,1.02981,1.0,1.0
Units,sec,C,C,Pa,%,%,%,%,%,g,/m,,
Baseline,,44.3436,46.182,150.489,105.145,4.82582,0.000780635,0.0913379,20.9499,-2.40258,27.8355,,
3,0.5,42.2003,43.8375,143.598,104.312,4.75303,0.005896,0.106538,20.912,525.484,27.9007,0.0,1.0
6,1.25,42.3808,44.1096,133.647,104.3,4.49422,0.0078374,0.131456,20.8693,525.384,28.4055,0.0,1.0
9,2,42.4237,44.0931,134.081,104.244,4.16276,0.0108024,0.167736,20.8206,525.304,29.0927,0.0,1.0
12,2.75,43.4998,44.7859,131.59,104.194,4.12097,0.0141695,0.211845,20.7549,525.094,29.1795,0.0,1.0
15,3.5,44.3255,45.5663,128.453,104.161,3.95002,0.0175561,0.271298,20.6669,524.944,29.5594,0.0,1.0
18,4.25,45.7967,45.9363,127.005,104.185,3.9296,0.0207787,0.324815,20.5902,524.854,29.6083,0.0,1.0
21,5,45.2961,45.5632,126.052,104.205,3.86216,0.0236485,0.381231,20.5129,524.764,29.7663,0.0,0.0
24,5.75,46.6215,46.746,130.82,104.2,3.80043,0.026081,0.437343,20.4213,524.513,29.9115,0.0,0.0
27,6.5,48.0764,47.6631,122.665,104.213,3.8009,0.0279315,0.48787,20.3541,524.363,29.9115,0.0,0.0
30,7.25,48.7543,49.3108,131.704,104.243,3.80708,0.0290333,0.530232,20.305,524.313,29.8995,0.0,0.0
33,8,49.8429,49.874,125.188,104.257,4.00605,0.0297311,0.560538,20.2691,524.213,29.4405,0.0,0.0
36,8.75,51.242,51.004,136.307,104.286,4.02884,0.029785,0.577825,20.243,524.083,29.3917,0.0,0.0
39,9.5,51.8286,51.4061,131.98,104.273,4.07491,0.0290467,0.588377,20.224,523.913,29.2879,0.0,0.0
42,10.25,52.0102,52.3617,133.885,104.303,4.23827,0.0277152,0.585408,20.2198,523.823,28.9354,0.0,0.0
45,11,53.3335,53.7747,132.745,104.334,4.14329,0.0261403,0.577685,20.228,523.763,29.1428,0.0,0.0
48,11.75,53.3269,53.4834,138.692,104.343,4.27056,0.0244742,0.562551,20.2463,523.683,28.8703,0.0,0.0
51,12.5,53.615,53.9839,138.454,104.365,4.2867,0.0228147,0.542037,20.2836,523.573,28.8381,0.0,0.0
54,13.25,54.5238,55.0001,138.095,104.4,4.42679,0.0210532,0.523041,20.3199,523.533,28.5507,0.0,0.0
57,14,54.7059,54.9419,136.756,104.433,4.2829,0.0194633,0.499817,20.3546,523.512,28.8521,0.0,0.0
60,14.75,54.5707,55.2563,139.329,104.45,4.43059,0.0181739,0.477676,20.3869,523.412,28.5473,0.0,0.0
63,15.5,54.8729,55.6793,140.579,104.477,4.43344,0.0168783,0.456997,20.414,523.282,28.5438,0.0,0.0
66,16.25,55.3213,56.2484,137.21,104.508,4.45433,0.0156872,0.437962,20.4397,523.212,28.504,0.0,0.0
69,17,55.3588,56.0382,141.228,104.554,4.49137,0.0146564,0.419275,20.4653,523.242,28.4332,0.0,0.0
72,17.75,55.39,56.5012,137.494,104.566,4.45196,0.0137038,0.403906,20.484,523.212,28.5138,0.0,0.0
75,18.5,55.2202,56.473,139.598,104.582,4.48235,0.0130095,0.389718,20.5033,523.062,28.4538,0.0,0.0
78,19.25,55.5947,56.6351,136.986,104.61,4.60772,0.0122856,0.376988,20.5174,523.002,28.207,0.0,0.0
81,20,55.6767,56.9026,140.247,104.646,4.51607,0.0116652,0.365127,20.5342,523.062,28.3915,0.0,0.0
84,20.75,55.8267,57.0128,136.915,104.67,4.5683,0.0110191,0.355813,20.5495,522.982,28.2898,0.0,0.0
87,21.5,56.1274,57.4989,138.624,104.679,4.57115,0.0106378,0.348085,20.5583,522.832,28.2849,0.0,0.0
90,22.25,55.9912,57.647,136.507,104.7,4.52319,0.0101316,0.340846,20.5709,522.802,28.382,0.0,0.0
93,23,55.8233,57.7472,138.793,104.731,4.55168,0.00971227,0.334689,20.5815,522.822,28.3279,0.0,0.0
96,23.75,56.5883,58.1376,134.992,104.751,4.53174,0.00932053,0.329826,20.5916,522.762,28.3693,0.0,0.0
99,24.5,56.1633,57.9146,137.9,104.766,4.58967,0.00896054,0.326578,20.6003,522.662,28.2559,0.0,0.0
102,25.25,56.5303,58.034,140.763,104.78,4.64903,0.00866379,0.322347,20.6079,522.592,28.141,0.0,0.0
105,26,56.6992,58.11,140.653,104.802,4.65046,0.00841879,0.318447,20.6146,522.692,28.1401,0.0,0.0
108,26.75,56.6919,58.7872,141.818,104.83,4.69842,0.00821619,0.314669,20.622,522.632,28.0499,0.0,0.0
111,27.5,56.7905,58.3161,140.041,104.832,4.61722,0.00802686,0.311227,20.6283,522.472,28.2075,0.0,0.0
114,28.25,56.854,58.5708,142.976,104.841,4.69415,0.00786221,0.308225,20.6337,522.432,28.0591,0.0,0.0
117,29,56.8693,58.4081,143.188,104.867,4.60772,0.00773082,0.305487,20.6384,522.462,28.2292,0.0,0.0
120,29.75,56.8569,58.9535,143.154,104.875,4.66803,0.00761037,0.30309,20.6419,522.411,28.1124,0.0,0.0
123,30.5,56.8998,58.6653,141.073,104.865,4.78247,0.00748037,0.300969,20.6457,522.291,27.8927,0.0,0.0
126,31.25,57.1309,58.7357,137.426,104.873,4.64428,0.0073513,0.299077,20.6493,522.261,28.1583,0.0,0.0
129,32,57.0089,59.5247,140.248,104.881,4.65948,0.00723824,0.297282,20.6526,522.191,28.1295,0.0,0.0
132,32.75,56.8848,59.311,140.37,104.892,4.66423,0.00714573,0.295796,20.6553,522.211,28.1212,0.0,0.0
135,33.5,56.8562,59.0161,145.745,104.897,4.6571,0.00707487,0.294636,20.6582,522.101,28.1354,0.0,0.0
138,34.25,57.3487,59.358,138.19,104.881,4.64381,0.00703333,0.293704,20.6607,522.101,28.1598,0.0,0.0
141,35,57.4177,59.3519,141.813,104.887,4.58065,0.00702268,0.293096,20.6625,522.051,28.2841,0.0,0.0
144,35.75,57.4231,59.7516,137.604,104.897,4.66233,0.00704112,0.292957,20.6639,522.011,28.1253,0.0,0.0
147,36.5,57.0468,59.308,144.542,104.882,4.64143,0.00707722,0.293255,20.6648,521.931,28.1645,0.0,0.0
150,37.25,57.549,59.7272,143.076,104.859,4.6742,0.0071423,0.293933,20.6649,521.911,28.099,0.0,0.0
153,38,57.4761,59.8442,141.058,104.856,4.58492,0.00721867,0.295297,20.665,521.831,28.273,0.0,0.0
156,38.75,57.4434,59.3878,141.357,104.858,4.64523,0.00728195,0.296588,20.665,521.801,28.1551,0.0,0.0
159,39.5,57.587,60.0683,137.277,104.849,4.59015,0.00733066,0.298036,20.665,521.711,28.2621,0.0,0.0
162,40.25,57.6524,60.3057,141.16,104.826,4.61769,0.00736502,0.298994,20.6651,521.611,28.2061,0.0,0.0
165,41,57.5665,60.4331,142.195,104.81,4.73071,0.00738627,0.299483,20.6651,521.591,27.9863,0.0,0.0
168,41.75,57.7007,60.0597,138.908,104.805,4.60772,0.00740014,0.299549,20.6656,521.591,28.2238,0.0,0.0
171,42.5,57.9823,60.6294,146.15,104.791,4.55026,0.00741025,0.299391,20.6668,521.541,28.3359,0.0,0.0
174,43.25,57.891,60.6485,140.233,104.76,4.59585,0.00741762,0.299277,20.668,521.441,28.2432,0.0,0.0
177,44,58.5122,60.7337,139.535,104.74,4.54314,0.00746106,0.298986,20.6688,521.411,28.3457,0.0,0.0
180,44.75,57.6583,60.5455,140.393,104.725,4.67563,0.00755594,0.298775,20.6694,521.371,28.0847,0.0,0.0
183,45.5,57.8703,60.7013,139.754,104.721,4.59062,0.00761848,0.299102,20.6697,521.351,28.2501,0.0,0.0
186,46.25,58.4834,61.046,135.829,104.665,4.61199,0.00775966,0.300872,20.6679,521.25,28.2033,0.0,0.0
189,47,58.1756,61.1591,141.592,104.658,4.55216,0.0078995,0.302815,20.664,521.18,28.3207,0.0,0.0
192,47.75,58.6603,61.0229,140.47,104.623,4.54029,0.00801785,0.307008,20.6583,521.16,28.3413,0.0,0.0
195,48.5,58.5468,61.1667,138.922,104.605,4.51607,0.00810528,0.310423,20.653,521.13,28.3881,0.0,0.0
198,49.25,58.3686,60.8035,140.417,104.57,4.58397,0.00812361,0.31467,20.6491,521.02,28.2502,0.0,0.0
201,50,58.3502,61.4702,135.515,104.538,4.63906,0.00813697,0.318282,20.6462,520.94,28.1395,0.0,0.0
204,50.75,58.8686,61.3824,137.367,104.507,4.71694,0.00801618,0.320424,20.6442,520.91,27.9865,0.0,0.0
207,51.5,58.652,61.6526,139.728,104.491,4.75635,0.00792811,0.320696,20.6449,520.9,27.9099,0.0,0.0
210,52.25,58.58,61.8349,140.907,104.462,4.67468,0.00764343,0.320345,20.6477,520.84,28.0639,0.0,0.0
213,53,58.364,61.9588,143.881,104.416,4.80384,0.00733107,0.316688,20.6521,520.77,27.8137,0.0,0.0
216,53.75,59.0593,61.6464,143.47,104.392,4.71362,0.00696799,0.314022,20.661,520.72,27.9829,0.0,0.0
219,54.5,58.7426,61.9944,142.055,104.376,4.79862,0.00666465,0.308468,20.6701,520.73,27.8201,0.0,0.0
222,55.25,58.4865,61.7504,140.776,104.335,4.76965,0.00641662,0.301768,20.6756,520.69,27.8712,0.0,0.0
225,56,58.5784,62.0656,144.375,104.288,4.81002,0.00609048,0.293853,20.6857,520.64,27.791,0.0,0.0
228,56.75,58.4031,62.2301,144.907,104.259,4.84706,0.00578502,0.286153,20.6942,520.57,27.7192,0.0,0.0
231,57.5,58.4968,61.8342,142.854,104.236,4.77582,0.00552216,0.278786,20.7023,520.58,27.8509,0.0,0.0
234,58.25,58.9108,61.9551,141.836,104.198,4.79529,0.00526185,0.273651,20.7105,520.57,27.8108,0.0,0.0
237,59,58.4593,61.8262,143.799,104.153,4.70127,0.0050026,0.266636,20.7183,520.53,27.9859,0.0,0.0
240,59.75,58.1781,61.8143,144.93,104.127,4.72359,0.00477617,0.260715,20.7256,520.49,27.9408,0.0,0.0
243,60.5,58.0795,62.0041,144.086,104.101,4.83993,0.00456772,0.255018,20.7334,520.48,27.7187,0.0,0.0
246,61.25,57.8303,61.2436,148.517,104.076,4.80812,0.00440407,0.249238,20.74,520.48,27.7761,0.0,0.0
249,62,58.2623,61.3884,142.672,104.026,4.7839,0.00426522,0.244194,20.7452,520.42,27.8174,0.0,0.0
252,62.75,58.3003,61.7482,145.682,104.003,4.87745,0.00416137,0.239679,20.7508,520.45,27.6405,0.0,0.0
255,63.5,58.0378,61.7492,144.516,103.966,4.83281,0.00408119,0.23556,20.755,520.46,27.7204,0.0,0.0
258,64.25,57.7185,61.3583,144.242,103.952,4.80622,0.00402273,0.231359,20.7589,520.42,27.769,0.0,0.0
261,65,57.4746,61.4589,143.472,103.912,4.81097,0.00394459,0.227647,20.7621,520.35,27.7566,0.0,0.0
264,65.75,57.2841,61.2644,142.75,103.9,4.82948,0.00386648,0.223831,20.7667,520.35,27.7208,0.0,0.0
267,66.5,57.4702,61.503,144.054,103.867,4.73878,0.00379528,0.219836,20.7715,520.39,27.8893,0.0,0.0
270,67.25,57.3081,60.9722,139.175,103.849,4.782,0.00373442,0.216406,20.7764,520.37,27.8056,0.0,0.0
273,68,57.4622,60.9511,144.571,103.812,4.79767,0.00369378,0.212945,20.7816,520.3,27.7729,0.0,0.0
276,68.75,57.1133,61.1599,145.04,103.778,4.85608,0.00366706,0.208778,20.7891,520.28,27.6606,0.0,0.0
279,69.5,57.2184,61.0914,144.915,103.764,4.84801,0.00364982,0.204262,20.796,520.33,27.6744,0.0,0.0
282,70.25,57.3653,61.5013,144.429,103.755,4.85845,0.00364789,0.199967,20.8015,520.33,27.6542,0.0,0.0
285,71,56.9814,61.1444,146.259,103.732,4.78485,0.00364649,0.195905,20.8068,520.27,27.7901,0.0,0.0
288,71.75,56.7319,60.4822,141.17,103.701,4.84706,0.00368097,0.192084,20.8107,520.24,27.6707,0.0,0.0
291,72.5,56.5053,60.6986,147.342,103.683,4.88979,0.00372843,0.188279,20.8154,520.23,27.5898,0.0,0.0
294,73.25,56.4539,60.621,148.086,103.682,4.85655,0.00380121,0.185153,20.8193,520.25,27.6513,0.0,0.0
297,74,56.2278,60.7055,148.058,103.661,4.88505,0.00391296,0.182273,20.8232,520.18,27.5967,0.0,0.0
300,74.75,56.3008,60.1842,143.445,103.634,4.91021,0.00403313,0.179807,20.8278,520.18,27.5479,0.0,0.0
303,75.5,55.9272,60.0041,143.621,103.623,4.85513,0.00414644,0.177384,20.8319,520.159,27.6489,0.0,0.0
306,76.25,56.0179,59.7238,145.246,103.625,4.90926,0.00424478,0.175114,20.8357,520.22,27.5488,0.0,0.0
309,77,56.0987,59.9884,145.603,103.616,4.88694,0.00432539,0.17302,20.8389,520.159,27.5892,0.0,0.0
312,77.75,55.661,59.8237,142.25,103.603,4.88742,0.00439139,0.170952,20.8418,520.119,27.5872,0.0,0.0
315,78.5,55.4519,59.4973,143.59,103.592,4.84326,0.00445188,0.169178,20.8444,520.159,27.6683,0.0,0.0
318,79.25,55.5923,59.9699,146.556,103.597,4.82189,0.00451599,0.167423,20.8471,520.199,27.7087,0.0,0.0
321,80,55.2393,59.4675,143.488,103.609,4.90309,0.00457876,0.165903,20.8491,520.149,27.5589,0.0,0.0
324,80.75,55.4204,59.4247,142.839,103.593,4.95295,0.00462772,0.164383,20.8514,520.109,27.466,0.0,0.0
327,81.5,54.8568,58.9196,145.19,103.59,4.80812,0.00464735,0.162864,20.8537,520.109,27.7339,0.0,0.0
330,82.25,54.6606,58.9196,147.95,103.6,4.84373,0.00463134,0.161434,20.8557,520.159,27.6681,0.0,0.0
333,83,54.8575,58.9776,141.036,103.622,4.92826,0.00461967,0.16014,20.8581,520.129,27.5137,0.0,0.0
336,83.75,54.5918,58.9788,146.125,103.61,4.8518,0.00456829,0.158819,20.8602,520.079,27.6539,0.0,0.0
339,84.5,54.7527,59.1527,144.434,103.62,4.93681,0.00453083,0.157593,20.8615,520.049,27.4979,0.0,0.0
342,85.25,54.6634,58.7722,145.774,103.639,4.84183,0.00449462,0.156586,20.8625,520.079,27.675,0.0,0.0
345,86,54.4951,58.7543,144.993,103.663,4.867,0.00448321,0.15558,20.8632,520.109,27.6303,0.0,0.0
348,86.75,54.537,58.7962,146.133,103.652,4.83328,0.00448128,0.154746,20.8637,520.009,27.6922,0.0,0.0
351,87.5,54.6057,58.8412,149.816,103.681,4.92304,0.00451112,0.153964,20.8647,519.999,27.5285,0.0,0.0
354,88.25,54.3158,58.6991,142.607,103.703,4.8822,0.00455344,0.153161,20.8659,519.999,27.6056,0.0,0.0
357,89,53.9737,58.2076,144.987,103.73,4.87032,0.00459667,0.152367,20.8669,520.069,27.63,0.0,0.0
360,89.75,53.9641,58.3305,146.829,103.743,4.90594,0.00463711,0.151604,20.8677,519.989,27.5653,0.0,0.0
363,90.5,54.3739,58.5451,147.871,103.758,4.86605,0.00465909,0.151047,20.8688,519.989,27.6403,0.0,0.0
366,91.25,54.0691,58.2145,144.128,103.793,4.90736,0.0046719,0.15012,20.8697,519.989,27.567,0.0,0.0
369,92,54.2225,58.291,147.246,103.826,4.90594,0.00465624,0.149328,20.8703,520.039,27.5725,0.0,0.0
372,92.75,53.5613,57.8182,150.233,103.84,4.89549,0.00463416,0.148662,20.8712,519.969,27.593,0.0,0.0
375,93.5,53.2404,57.6085,140.852,103.89,4.89122,0.00461083,0.14811,20.8721,519.969,27.6052,0.0,0.0
378,94.25,53.4937,57.8288,147.239,103.893,4.86415,0.00460436,0.147518,20.8727,519.949,27.6556,0.0,0.0
381,95,53.493,57.8944,146.962,103.927,4.88362,0.00461764,0.147006,20.8731,520.039,27.6225,0.0,0.0
384,95.75,53.4647,57.5967,145.48,103.951,4.91781,0.00465587,0.146279,20.8732,520.009,27.5615,0.0,0.0
387,96.5,53.3104,57.7829,144.491,103.995,4.90736,0.00469124,0.145748,20.8745,519.979,27.5846,0.0,0.0
390,97.25,53.3139,57.5552,151.404,104.011,4.89787,0.00472023,0.145047,20.8759,519.939,27.6034,0.0,0.0
393,98,53.4436,57.6875,143.078,104.048,4.93823,0.00473423,0.144434,20.8772,519.979,27.5325,0.0,0.0
396,98.75,53.3127,57.361,143.764,104.087,4.92399,0.00474443,0.143952,20.878,519.979,27.562,0.0,0.0
399,99.5,53.2764,57.2718,147.843,104.119,4.91734,0.00473938,0.143613,20.8787,519.909,27.577,0.0,0.0
402,100.25,53.1069,57.2191,145.608,104.146,4.87317,0.00473034,0.143387,20.8792,519.899,27.6608,0.0,0.0
405,101,53.0499,57.1902,148.311,104.188,4.88884,0.00472875,0.143176,20.8795,519.979,27.6355,0.0,0.0
408,101.75,52.2445,56.4971,147.149,104.236,4.90689,0.00473698,0.142943,20.8798,519.999,27.6063,0.0,0.0
411,102.5,52.5303,56.9383,145.675,104.266,4.9767,0.00475536,0.142643,20.8799,519.889,27.4813,0.0,0.0
414,103.25,52.4909,56.8739,146.724,104.288,4.9539,0.0047884,0.142337,20.8801,519.899,27.5247,0.0,0.0
417,104,52.2869,56.7531,147.501,104.329,4.90641,0.00481248,0.142062,20.8806,519.929,27.6153,0.0,0.0
420,104.75,52.1141,56.2064,143.58,104.385,4.90167,0.00485326,0.141757,20.8812,519.929,27.6289,0.0,0.0
423,105.5,52.6255,56.6725,146.199,104.412,4.88789,0.00488299,0.141448,20.8816,519.839,27.6566,0.0,0.0
426,106.25,52.3784,56.672,146.352,104.45,4.88837,0.00494576,0.141185,20.8822,519.849,27.6591,0.0,0.0
429,107,52.5703,56.3801,147.098,104.488,4.96482,0.00502789,0.140806,20.8829,519.869,27.5221,0.0,0.0
432,107.75,52.0258,56.2936,146.215,104.547,4.8822,0.00511648,0.140431,20.8835,519.909,27.6788,0.0,0.0
435,108.5,52.4282,56.7275,145.323,104.587,4.91354,0.00520365,0.139987,20.8839,519.829,27.6245,0.0,0.0
438,109.25,51.9657,56.222,148.055,104.599,4.91069,0.00527973,0.13962,20.8842,519.829,27.6308,0.0,0.0
441,110,52.3988,55.9968,144.616,104.645,4.97195,0.0053352,0.139333,20.8847,519.809,27.5228,0.0,0.0
444,110.75,52.1834,56.1738,146.989,104.708,4.89074,0.00537563,0.139104,20.8854,519.899,27.6769,0.0,0.0
447,111.5,52.4008,56.3421,146.919,104.733,4.92351,0.00539507,0.138893,20.8864,519.819,27.6188,0.0,0.0
450,112.25,51.9402,55.6511,146.902,104.768,4.92493,0.00540495,0.138698,20.8871,519.799,27.6192,0.0,0.0
453,113,51.8958,55.884,144.018,104.803,4.97052,0.00539458,0.138516,20.8876,519.789,27.539,0.0,0.0
456,113.75,51.6284,55.9209,149.751,104.853,4.94678,0.00537693,0.138338,20.8879,519.879,27.5865,0.0,0.0
459,114.5,51.5688,55.6078,148.079,104.881,4.92921,0.0053596,0.138129,20.8882,519.799,27.6211,0.0,0.0
462,115.25,51.4387,55.2643,147.437,104.917,4.9672,0.00533945,0.137875,20.8884,519.799,27.5548,0.0,0.0
465,116,51.3993,55.4167,146.806,104.95,4.91876,0.00531561,0.137624,20.8887,519.759,27.6462,0.0,0.0
468,116.75,51.2041,55.5993,147.316,105.006,4.83518,0.00528806,0.137402,20.8892,519.839,27.8058,0.0,0.0
471,117.5,51.7762,55.7735,147.197,105.02,4.86273,0.00525725,0.137255,20.89,519.799,27.7557,0.0,0.0
474,118.25,51.1538,55.2838,147.087,105.042,4.87317,0.00523215,0.137156,20.8905,519.759,27.7382,0.0,0.0
477,119,51.6542,54.9958,149.079,105.073,4.8575,0.00520934,0.136917,20.891,519.729,27.77,0.0,0.0
480,119.75,51.4908,55.4004,146.681,105.121,4.84373,0.005204,0.136642,20.8913,519.809,27.7997,0.0,0.0
483,120.5,50.9357,55.2344,147.439,105.146,4.86368,0.00521284,0.136413,20.8915,519.819,27.7648,0.0,0.0
486,121.25,51.3156,55.0973,147.047,105.154,4.92683,0.00523282,0.136272,20.8916,519.739,27.6489,0.0,0.0
489,122,51.109,54.6419,150.394,105.184,4.8575,0.00526171,0.136213,20.8918,519.759,27.7795,0.0,0.0
492,122.75,51.093,54.8015,147.361,105.205,4.85465,0.00528403,0.136173,20.8918,519.749,27.7866,0.0,0.0
495,123.5,50.8193,54.9781,143.526,105.25,4.84563,0.00529621,0.136118,20.8919,519.809,27.8073,0.0,0.0
498,124.25,51.0813,54.7618,151.572,105.262,4.88694,0.00529718,0.13602,20.892,519.739,27.7317,0.0,0.0
501,125,51.077,54.9049,150.931,105.279,4.8746,0.00528535,0.135924,20.892,519.699,27.7559,0.0,0.0
504,125.75,50.8558,54.8081,145.575,105.306,4.89217,0.00527137,0.135853,20.892,519.689,27.7257,0.0,0.0
507,126.5,50.9937,54.7274,144.666,105.336,4.89217,0.00526871,0.135781,20.892,519.749,27.7283,0.0,0.0
510,127.25,50.6902,54.5043,144.271,105.338,4.85323,0.0052812,0.135691,20.892,519.669,27.8007,0.0,0.0
513,128,50.9915,54.7916,149.018,105.359,4.87555,0.00530951,0.135559,20.892,519.639,27.761,0.0,0.0
516,128.75,50.946,54.8805,150.043,105.388,4.88932,0.00536776,0.135492,20.8921,519.669,27.7381,0.0,0.0
519,129.5,50.5968,54.1751,146.451,105.409,4.90262,0.00543158,0.135456,20.8921,519.769,27.7153,0.0,0.0
522,130.25,50.4608,54.4392,146.586,105.428,4.9463,0.00548721,0.135533,20.8916,519.719,27.6368,0.0,0.0
525,131,50.9846,54.4366,147.687,105.423,4.89122,0.00554748,0.13559,20.8911,519.699,27.7375,0.0,0.0
528,131.75,50.6819,54.2939,148.754,105.442,4.84326,0.00559142,0.135638,20.8907,519.659,27.8281,0.0,0.0
531,132.5,50.2983,54.2933,147.553,105.454,4.85133,0.00562346,0.135687,20.8905,519.739,27.8141,0.0,0.0
534,133.25,50.406,54.0865,146.13,105.475,4.95248,0.00564681,0.135701,20.8903,519.669,27.6296,0.0,0.0
537,134,50.3579,54.2745,152.326,105.462,4.8784,0.00561186,0.135625,20.8901,519.609,27.7646,0.0,0.0
540,134.75,50.6966,54.4591,147.832,105.472,4.88742,0.00557316,0.135532,20.8903,519.639,27.7487,0.0,0.0
543,135.5,50.5878,54.2031,148.415,105.486,4.8632,0.00552235,0.135423,20.8903,519.679,27.7948,0.0,0.0
546,136.25,50.1937,53.9263,150.997,105.496,4.89502,0.00546153,0.135343,20.8904,519.689,27.7368,0.0,0.0
549,137,50.4517,53.9359,145.722,105.486,4.92161,0.00540113,0.135247,20.8907,519.609,27.6869,0.0,0.0
552,137.75,50.3228,54.2145,148.689,105.491,4.88837,0.00534693,0.135112,20.8909,519.619,27.7486,0.0,0.0
555,138.5,50.5467,54.249,145.166,105.506,4.88267,0.00531279,0.135,20.891,519.689,27.7604,0.0,0.0
558,139.25,48.8511,53.198,148.419,105.508,4.91876,0.00529668,0.134928,20.8911,519.719,27.6941,0.0,0.0
561,140,49.6503,53.4202,144.946,105.498,4.82426,0.00528868,0.134902,20.8912,519.619,27.8685,0.0,0.0
564,140.75,50.0983,53.4334,147.126,105.495,4.91876,0.00527908,0.134883,20.8913,519.619,27.693,0.0,0.0
567,141.5,49.4964,52.9272,145.699,105.495,4.89359,0.00526784,0.134846,20.8919,519.669,27.7393,0.0,0.0
570,142.25,49.4227,53.0795,147.976,105.5,4.88125,0.00525513,0.13478,20.8924,519.689,27.7626,0.0,0.0
573,143,49.5548,53.2039,147.631,105.478,4.93776,0.00524408,0.134616,20.8928,519.579,27.6567,0.0,0.0
576,143.75,49.806,53.2774,147.68,105.473,4.95865,0.00522887,0.134408,20.893,519.579,27.6181,0.0,0.0
579,144.5,49.5562,53.1403,145.585,105.463,4.9653,0.00520273,0.134192,20.8932,519.589,27.6052,0.0,0.0
582,145.25,49.6086,52.7809,151.233,105.489,4.94488,0.00517727,0.134075,20.8934,519.639,27.6447,0.0,0.0
585,146,49.2519,52.6951,145.785,105.459,4.90024,0.00512643,0.133947,20.8935,519.529,27.724,0.0,0.0
588,146.75,49.4383,53.1673,148.943,105.446,4.93918,0.00508937,0.133804,20.8935,519.549,27.6513,0.0,0.0
591,147.5,49.5201,52.9892,144.911,105.445,4.86937,0.00501235,0.133648,20.8934,519.569,27.7799,0.0,0.0
594,148.25,49.1145,52.7971,148.879,105.442,4.90689,0.00493869,0.13341,20.8933,519.649,27.7103,0.0,0.0
597,149,49.1815,53.0485,150.173,105.421,4.90452,0.00487752,0.133237,20.8932,519.579,27.7128,0.0,0.0
600,149.75,49.4495,53.27,147.07,105.398,4.91164,0.00480617,0.133004,20.8931,519.499,27.6978,0.0,0.0
603,150.5,49.1447,52.4271,147.57,105.391,4.94868,0.00474666,0.132843,20.8933,519.529,27.6293,0.0,0.0
606,151.25,49.0079,52.3453,148.824,105.395,4.94583,0.00470599,0.132738,20.8938,519.619,27.6348,0.0,0.0
609,152,48.9318,52.3964,148.305,105.369,4.93111,0.00468648,0.13272,20.8942,519.529,27.6595,0.0,0.0
612,152.75,49.0252,52.5117,148.886,105.348,4.90594,0.00469544,0.132747,20.8945,519.499,27.7039,0.0,0.0
615,153.5,48.7656,51.9958,142.189,105.34,5.02561,0.00471449,0.132792,20.8947,519.499,27.4855,0.0,0.0
618,154.25,49.2399,52.435,146.241,105.335,4.88837,0.00474977,0.132763,20.8948,519.589,27.7353,0.0,0.0
621,155,49.3572,52.5108,144.602,105.312,4.92873,0.00480764,0.132641,20.8949,519.569,27.659,0.0,0.0
624,155.75,48.7357,52.3793,144.772,105.288,4.96198,0.00485972,0.132508,20.895,519.479,27.5962,0.0,0.0
627,156.5,48.6798,52.2631,149.382,105.276,4.91354,0.0049146,0.13237,20.895,519.479,27.6838,0.0,0.0
630,157.25,49.166,52.7997,148.931,105.259,4.95913,0.0049546,0.132254,20.8951,519.519,27.5989,0.0,0.0
633,158,48.7231,52.1689,152.685,105.25,4.88742,0.00499449,0.132144,20.8954,519.549,27.7297,0.0,0.0
636,158.75,48.9014,52.1431,144.472,105.223,4.93443,0.00502483,0.132042,20.8957,519.439,27.6409,0.0,0.0
639,159.5,48.8504,52.1364,146.2,105.2,4.99094,0.00504747,0.131969,20.8959,519.429,27.5361,0.0,0.0
642,160.25,49.0066,52.3322,146.166,105.184,4.92588,0.00505505,0.131842,20.8967,519.449,27.6533,0.0,0.0
645,161,48.2608,52.4917,148.13,105.177,4.89454,0.00504672,0.131719,20.8973,519.499,27.7103,0.0,0.0
648,161.75,48.7176,52.0734,149.659,105.146,4.89217,0.00501697,0.131547,20.8977,519.399,27.712,0.0,0.0
651,162.5,48.4511,52.1014,147.658,105.129,4.83566,0.00495243,0.131349,20.898,519.399,27.8155,0.0,0.0
654,163.25,48.5785,52.2565,141.765,105.111,4.94773,0.00488761,0.131174,20.8982,519.409,27.607,0.0,0.0
657,164,48.4879,52.1483,149.166,105.104,4.8765,0.0047968,0.131046,20.8984,519.509,27.7374,0.0,0.0
660,164.75,48.6334,52.1488,149.806,105.06,4.92399,0.00470811,0.130895,20.8985,519.399,27.6461,0.0,0.0
663,165.5,48.6241,52.1262,144.254,105.034,4.98192,0.00462596,0.13076,20.8986,519.399,27.5382,0.0,0.0
666,166.25,48.5475,52.1015,147.662,105.016,4.95723,0.00455863,0.130683,20.8986,519.409,27.5815,0.0,0.0
669,167,48.8647,51.9927,148.025,105.003,5.04698,0.0044846,0.130626,20.8987,519.479,27.4183,0.0,0.0
672,167.75,48.6293,51.9454,146.172,104.972,4.90404,0.0044267,0.130562,20.8987,519.419,27.6752,0.0,0.0
675,168.5,48.7098,51.5516,144.531,104.948,4.91639,0.00437775,0.130476,20.8988,519.399,27.6503,0.0,0.0
678,169.25,48.3358,52.0174,152.857,104.93,4.89739,0.00434831,0.130393,20.8988,519.399,27.6838,0.0,0.0
681,170,48.394,51.7844,153.913,104.91,4.93538,0.00434001,0.130332,20.8988,519.469,27.6123,0.0,0.0
684,170.75,48.4098,51.62,145.575,104.893,4.91021,0.00435195,0.130205,20.8988,519.409,27.657,0.0,0.0
687,171.5,48.4925,52.1087,149.175,104.86,4.92731,0.00437939,0.13009,20.8988,519.339,27.6227,0.0,0.0
690,172.25,48.2861,52.1006,145.51,104.843,4.97575,0.00441264,0.129967,20.8988,519.349,27.5329,0.0,0.0
693,173,48.4475,51.885,145.736,104.826,4.93776,0.00444588,0.129774,20.8994,519.369,27.6007,0.0,0.0
696,173.75,48.607,51.4697,143.831,104.809,4.88884,0.0044808,0.12958,20.8999,519.419,27.6891,0.0,0.0
699,174.5,48.5874,51.484,141.752,104.776,4.92209,0.00450627,0.129347,20.9002,519.339,27.6251,0.0,0.0
702,175.25,48.4523,51.7286,148.757,104.754,4.88979,0.00452661,0.129095,20.9005,519.319,27.6827,0.0,0.0
705,176,48.7916,51.7011,148.144,104.733,4.93158,0.00454019,0.128853,20.9007,519.339,27.604,0.0,0.0
708,176.75,48.3606,51.5132,149.656,104.731,4.94061,0.00454956,0.128652,20.9008,519.429,27.5873,0.0,0.0
711,177.5,48.0618,51.5712,148.049,104.69,4.89407,0.00457422,0.128568,20.9009,519.319,27.6692,0.0,0.0
714,178.25,48.3512,51.6324,146.499,104.669,4.92731,0.00460971,0.128529,20.9009,519.329,27.6063,0.0,0.0
717,179,48.4688,51.5991,145.488,104.663,4.96767,0.00464305,0.12854,20.901,519.329,27.532,0.0,0.0
720,179.75,48.3976,51.2016,147.069,104.654,4.89644,0.00470126,0.128533,20.901,519.419,27.6617,0.0,0.0
723,180.5,48.4825,51.505,147.855,104.624,4.91211,0.0047437,0.128522,20.9011,519.299,27.6303,0.0,0.0
726,181.25,48.2773,51.3001,145.597,104.597,4.9691,0.00480971,0.128411,20.9008,519.319,27.5238,0.0,0.0
729,182,48.2484,51.4176,146.915,104.601,4.86653,0.00487278,0.128301,20.9006,519.319,27.7126,0.0,0.0
732,182.75,48.2319,51.1308,146.425,104.589,4.91686,0.00495272,0.128209,20.9004,519.409,27.6185,0.0,0.0
735,183.5,48.3487,51.4187,147.281,104.56,4.96008,0.005011,0.128103,20.9005,519.299,27.537,0.0,0.0
738,184.25,48.2646,51.3658,145.44,104.594,4.94156,0.00504491,0.127961,20.9009,519.279,27.5737,0.0,0.0
741,185,47.9565,51.4041,149.507,104.645,4.89692,0.00505496,0.127829,20.9013,519.259,27.6601,0.0,0.0
744,185.75,48.05,51.2965,148.898,104.7,4.91734,0.00502298,0.12769,20.9015,519.369,27.6273,0.0,0.0
747,186.5,47.8375,51.2115,144.542,104.723,4.96292,0.00495711,0.127536,20.9017,519.299,27.5458,0.0,0.0
750,187.25,47.8992,51.1548,146.609,104.747,4.90499,0.00489095,0.127341,20.9018,519.239,27.654,0.0,0.0
753,188,47.8511,51.259,145.539,104.791,4.97337,0.00476961,0.127156,20.9023,519.269,27.5327,0.0,0.0
756,188.75,47.6461,51.3293,145.781,104.826,4.95343,0.00468116,0.12698,20.9029,519.339,27.5721,0.0,0.0
759,189.5,47.5988,51.1936,148.163,104.868,4.96198,0.00453824,0.126813,20.9032,519.329,27.5601,0.0,0.0
762,190.25,48.055,50.7089,149.466,104.885,4.92541,0.00442552,0.126676,20.9033,519.239,27.6284,0.0,0.0
765,191,47.916,51.3386,147.467,104.907,4.91924,0.00432876,0.12657,20.9034,519.249,27.6416,0.0,0.0
768,191.75,47.8541,51.1704,147.4,104.934,4.92161,0.00426178,0.126388,20.9034,519.349,27.6396,0.0,0.0
771,192.5,47.8533,51.1268,145.271,104.965,4.94013,0.00422542,0.126255,20.9035,519.349,27.6083,0.0,0.0
774,193.25,47.8169,50.5776,145.354,104.978,4.94251,0.00421145,0.126097,20.9035,519.269,27.6051,0.0,0.0
777,194,48.0423,50.7952,147.676,104.992,4.8537,0.00421362,0.125952,20.9035,519.259,27.7701,0.0,0.0
780,194.75,47.8822,50.9842,147.498,105.009,4.89597,0.00422766,0.125842,20.9036,519.289,27.6932,0.0,0.0
783,195.5,47.5768,50.9706,148.313,105.021,4.9748,0.00423789,0.125775,20.9036,519.309,27.5499,0.0,0.0
786,196.25,48.1968,51.0352,148.953,105.028,4.90879,0.0042507,0.125746,20.9036,519.239,27.6712,0.0,0.0
789,197,47.9528,50.7754,145.712,105.031,4.92826,0.00426003,0.125754,20.9036,519.219,27.6357,0.0,0.0
792,197.75,47.9316,50.8872,150.192,105.042,4.93063,0.00426683,0.125773,20.9036,519.239,27.6323,0.0,0.0
795,198.5,47.8267,50.6525,148.453,105.06,4.93776,0.00426477,0.125786,20.9036,519.319,27.6209,0.0,0.0
798,199.25,47.7171,50.9007,146.864,105.055,4.9691,0.0042597,0.125781,20.9042,519.199,27.5632,0.0,0.0
801,200,48.0427,51.1813,144.213,105.051,4.89834,0.00425141,0.125751,20.9049,519.209,27.6925,0.0,0.0
804,200.75,48.1262,50.9306,146.241,105.047,4.89787,0.0042375,0.125564,20.9054,519.189,27.693,0.0,0.0
807,201.5,47.8272,50.8004,147.125,105.057,4.91734,0.00422025,0.125398,20.9058,519.239,27.658,0.0,0.0
810,202.25,47.7281,50.5378,147.892,105.038,4.97242,0.00420767,0.125227,20.9061,519.149,27.5558,0.0,0.0
813,203,47.5218,50.9586,152.528,105.04,4.93538,0.00419494,0.125143,20.9063,519.149,27.6235,0.0,0.0
816,203.75,47.9057,50.7076,148.964,105.019,4.91924,0.00418566,0.125082,20.9058,519.159,27.6513,0.0,0.0
819,204.5,47.6489,50.5622,149.009,105.024,4.90641,0.00419135,0.125037,20.9055,519.219,27.6753,0.0,0.0
822,205.25,47.3751,50.5576,151.877,105.022,4.9672,0.00420601,0.125025,20.9054,519.139,27.5639,0.0,0.0
825,206,47.9989,50.9795,145.042,104.977,4.91734,0.00423467,0.125017,20.9053,519.149,27.6511,0.0,0.0
828,206.75,47.6541,50.7714,145.619,104.957,4.96245,0.00427337,0.125068,20.9053,519.129,27.5669,0.0,0.0
831,207.5,47.5199,50.8088,148.464,104.945,4.91544,0.00430284,0.12513,20.9052,519.229,27.6519,0.0,0.0
834,208.25,47.3649,50.8582,147.79,104.922,4.88552,0.00432485,0.125114,20.9052,519.169,27.705,0.0,0.0
837,209,47.7173,50.7839,146.67,104.893,4.88884,0.00434089,0.125044,20.9052,519.119,27.6964,0.0,0.0
840,209.75,47.4981,50.2636,146.971,104.86,4.93396,0.00435259,0.124968,20.9052,519.129,27.6106,0.0,0.0
843,210.5,47.6724,51.063,145.993,104.847,4.98952,0.00435577,0.124913,20.9052,519.179,27.5083,0.0,0.0
846,211.25,48.0715,50.2553,146.838,104.82,4.88742,0.00434561,0.124859,20.9051,519.169,27.6927,0.0,0.0
849,212,47.8978,50.552,149.207,104.775,4.89787,0.00433287,0.124813,20.9051,519.089,27.6696,0.0,0.0
852,212.75,47.7971,50.6554,152.201,104.748,4.8784,0.00429511,0.124759,20.9051,519.078,27.7032,0.0,0.0
855,213.5,47.9371,50.2627,149.001,104.73,4.87982,0.00424763,0.124719,20.9051,519.099,27.699,0.0,0.0
858,214.25,47.8067,50.4107,148.166,104.687,4.96198,0.00419532,0.124608,20.9051,519.179,27.5445,0.0,0.0
861,215,47.5519,50.8142,149.731,104.647,4.85038,0.00414147,0.124441,20.9058,519.109,27.7466,0.0,0.0
864,215.75,47.6479,50.5317,147.682,104.61,4.93016,0.00408089,0.124236,20.9062,519.068,27.596,0.0,0.0
867,216.5,47.2851,50.3705,146.085,104.561,4.89882,0.00403673,0.124009,20.9065,519.068,27.6494,0.0,0.0
870,217.25,47.7604,50.2611,146.412,104.534,4.85513,0.00397433,0.123905,20.9068,519.179,27.728,0.0,0.0
873,218,47.6071,50.624,146.49,104.461,4.90831,0.00392013,0.123901,20.907,519.089,27.6232,0.0,0.0
876,218.75,47.7192,50.4625,152.947,104.417,4.86748,0.0038769,0.12393,20.9071,519.089,27.6949,0.0,0.0
879,219.5,47.756,50.3085,145.99,104.381,4.94203,0.00384717,0.123971,20.9072,519.048,27.5544,0.0,0.0
882,220.25,47.685,49.7259,148.465,104.346,4.867,0.00382922,0.12397,20.9072,519.179,27.6896,0.0,0.0
885,221,47.766,50.4825,146.986,104.303,4.88884,0.00381773,0.123918,20.9073,519.089,27.6455,0.0,0.0
888,221.75,47.9372,50.5159,146.972,104.267,4.9615,0.00380581,0.123851,20.9073,519.089,27.5091,0.0,0.0
891,222.5,47.863,50.1861,146.38,104.229,4.89359,0.00378964,0.12376,20.9074,519.099,27.6302,0.0,0.0
894,223.25,48.058,50.7163,148.75,104.195,4.83898,0.00377467,0.123641,20.9074,519.169,27.7287,0.0,0.0
897,224,47.5599,50.7025,146.968,104.18,4.93633,0.00374759,0.123452,20.9074,519.119,27.5474,0.0,0.0
900,224.75,47.7966,50.6402,148.843,104.173,4.90926,0.00371767,0.123283,20.9074,519.038,27.5965,0.0,0.0
903,225.5,47.5086,50.7148,146.708,104.189,4.89312,0.00368829,0.123108,20.9074,519.028,27.6277,0.0,0.0
906,226.25,47.6711,50.5489,147.409,104.202,4.89597,0.00366352,0.122909,20.9077,519.139,27.6235,0.0,0.0
909,227,47.6355,50.6376,147.89,104.222,4.90072,0.0036435,0.122733,20.9082,519.129,27.6165,0.0,0.0
912,227.75,47.4607,50.2443,143.526,104.227,4.91116,0.00362554,0.122543,20.9093,519.048,27.5977,0.0,0.0
915,228.5,47.7296,50.5423,145.7,104.249,4.90547,0.0036137,0.122404,20.91,519.008,27.6101,0.0,0.0
918,229.25,47.1886,50.2951,148.367,104.266,4.88932,0.00360559,0.122303,20.9106,519.119,27.6414,0.0,0.0
921,230,47.3924,50.5708,145.374,104.273,4.91259,0.00362985,0.122301,20.9104,519.099,27.5991,0.0,0.0
924,230.75,47.5521,50.34,145.819,104.293,4.85513,0.00365933,0.122339,20.9102,519.008,27.7071,0.0,0.0
927,231.5,47.3675,50.8829,150.593,104.299,4.89312,0.00370099,0.122379,20.9101,518.998,27.6372,0.0,0.0
930,232.25,47.771,50.5777,149.165,104.326,4.84848,0.00374381,0.122428,20.91,519.038,27.7223,0.0,0.0
933,233,47.6048,50.2491,146.917,104.343,4.87412,0.00378558,0.122465,20.9099,519.089,27.6761,0.0,0.0
936,233.75,47.7587,50.6275,149.179,104.352,4.89739,0.003825,0.122327,20.9099,518.958,27.6339,0.0,0.0
939,234.5,47.6357,50.4086,146.244,104.365,4.89217,0.00386796,0.122226,20.9098,518.958,27.6446,0.0,0.0
942,235.25,47.253,50.4318,147.608,104.388,4.90167,0.00390925,0.122132,20.9101,518.998,27.6292,0.0,0.0
945,236,47.5905,50.2098,147.834,104.407,4.95533,0.00395232,0.122064,20.9106,519.038,27.5324,0.0,0.0
948,236.75,47.9461,49.9497,148.481,104.415,4.92493,0.00398745,0.122006,20.911,518.938,27.5887,0.0,0.0
951,237.5,47.5858,50.5495,149.007,104.453,4.92826,0.00401056,0.121944,20.9113,518.948,27.5859,0.0,0.0
954,238.25,47.6787,50.5225,146.248,104.459,4.94156,0.00401913,0.121885,20.9115,518.948,27.5621,0.0,0.0
957,239,47.511,50.2827,147.352,104.488,4.9501,0.00401303,0.121801,20.9117,519.059,27.549,0.0,0.0
960,239.75,47.0197,50.1295,148.78,104.499,4.90167,0.00399364,0.121711,20.9118,518.958,27.6388,0.0,0.0
963,240.5,47.2665,49.9807,149.698,104.518,4.87317,0.00396394,0.121633,20.9119,518.948,27.6931,0.0,0.0
966,241.25,47.654,50.211,146.871,104.551,4.91924,0.0039266,0.121453,20.9119,518.948,27.6109,0.0,0.0
969,242,47.1676,49.9769,147.692,104.585,4.89502,0.00388162,0.121284,20.912,519.078,27.6584,0.0,0.0
972,242.75,47.5748,49.8658,146.786,104.593,4.95438,0.00383835,0.121096,20.912,518.988,27.5503,0.0,0.0
975,243.5,47.6622,50.1793,146.814,104.591,4.94535,0.00378888,0.120901,20.912,518.968,27.5665,0.0,0.0
978,244.25,47.4309,50.1107,151.887,104.622,4.94156,0.0037093,0.120706,20.912,518.908,27.5762,0.0,0.0
981,245,47.0952,50.4488,146.609,104.65,4.92683,0.00360985,0.120551,20.912,518.998,27.6055,0.0,0.0
984,245.75,47.4602,50.3459,150.254,104.671,4.93348,0.00349822,0.120377,20.9127,518.988,27.5952,0.0,0.0
987,246.5,47.4144,50.0813,146.227,104.691,4.90309,0.00338211,0.120227,20.9131,518.918,27.6527,0.0,0.0
990,247.25,47.4666,50.0654,143.569,104.685,4.87032,0.00326901,0.120078,20.9135,518.898,27.7127,0.0,0.0
993,248,47.4245,50.1044,147.037,104.715,4.92636,0.00317814,0.119927,20.9137,518.938,27.612,0.0,0.0
996,248.75,47.5357,49.9684,148.901,104.74,4.8803,,0.119745,,518.988,27.699,0.0,0.0
999,249.5,47.6014,50.2177,147.551,104.743,4.94251,,0.119522,,518.918,27.5849,0.0,0.0
1002,250.25,47.7428,50.0055,149.967,104.75,4.84943,,0.119195,,518.908,27.7572,0.0,0.0
1005,251,47.7229,50.5947,148.779,104.787,4.92968,,0.118986,,518.888,27.6121,0.0,0.0
1008,251.75,47.3861,49.7839,142.74,104.809,4.9729,,,,518.968,27.5352,0.0,0.0
1011,252.5,47.5417,49.7249,146.193,104.797,4.92541,,,,518.908,27.6208,0.0,0.0
1014,253.25,47.2609,50.4013,149.025,104.807,4.87792,,,,518.898,27.7092,0.0,0.0
1017,254,47.7899,50.4162,146.687,104.824,4.94678,,,,518.868,27.584,0.0,0.0
1020,254.75,47.3091,49.951,147.9,104.85,4.9786,,,,518.958,27.5283,0.0,0.0
1023,255.5,47.4721,50.2424,143.615,104.848,4.96292,,,,518.858,27.5566,0.0,0.0
1026,256.25,47.6071,50.3402,149.978,104.849,4.93348,,,,518.858,27.6105,0.0,0.0
1029,257,47.5588,50.4398,148.793,104.85,4.89027,,,,518.848,27.69,0.0,0.0
1032,257.75,47.4361,50.3189,151.167,104.871,4.86795,,,,518.948,27.7332,0.0,0.0
1035,258.5,47.2919,50.407,149.357,104.868,4.94773,,,,518.868,27.5861,0.0,0.0
1037,259,47.5972,50.2535,145.122,104.863,4.89692,,,,518.868,27.6789,0.0,0.0