File: 01_Data/Polyisocyanurate_Foam_Board/Cone/Polyisocyanurate_Foam_Board_Cone_HF75Scan_221202_R3.csv
Names,Time,Stack TC,Smoke TC,Exh Press,Smoke Comp,Smoke Meas,CO Meter,CO2 Meter,O2 Meter,Sample Mass,Ext Coeff,Start Test,Flame Verif
Chan Gain,,500,500,1,1,1,1,1,1,1,1,1.0,1.0
Offset,,0,0,0.13918,0,0,0,0,0,0,0,0.0,0.0
Gain,,1,1,25.011,14.0162,15.5607,1,1,1,1.0009,1.02981,1.0,1.0
Units,sec,C,C,Pa,%,%,%,%,%,g,/m,,
Baseline,,44.4693,46.4313,150.427,104.379,4.87849,0.000726437,0.0904232,20.9523,-2.14878,27.6713,,
3,0.5,42.4036,44.5485,145.516,104.279,4.97575,0.00636366,0.108803,20.9166,525.935,27.4842,0.0,1.0
6,1.25,42.212,44.6409,136.714,104.249,4.36648,0.00850246,0.135188,20.8748,525.845,28.6615,0.0,1.0
9,2,42.7587,44.7556,130.674,104.252,4.03359,0.0118069,0.173794,20.7866,525.554,29.3781,0.0,1.0
12,2.75,44.0871,44.8123,131.19,104.214,4.2112,0.0142159,0.218888,20.7223,525.424,28.9856,0.0,1.0
15,3.5,44.8812,45.4961,122.759,104.195,4.25014,0.01811,0.280662,20.6459,525.314,28.9008,0.0,1.0
18,4.25,45.5839,45.2203,127.758,104.195,4.20977,0.0226993,0.349442,20.5377,525.234,28.987,0.0,1.0
21,5,46.3473,46.7372,127.178,104.167,4.23542,0.0247463,0.399582,20.4888,525.114,28.9297,0.0,1.0
24,5.75,46.9704,47.5943,124.092,104.152,3.76054,0.0274151,0.459454,20.4041,524.944,30.0027,0.0,0.0
27,6.5,48.7041,48.6656,125.738,104.125,3.63612,0.0295225,0.503101,20.3326,524.704,30.3042,0.0,0.0
30,7.25,50.3685,49.6734,127.049,104.123,3.64799,0.0308722,0.558831,20.2764,524.533,30.2746,0.0,0.0
33,8,51.1688,50.6205,123.475,104.122,3.73585,0.0315492,0.579832,20.2354,524.483,30.0596,0.0,0.0
36,8.75,52.1544,51.5636,129.07,104.141,4.05069,0.0316539,0.601958,20.2055,524.333,29.3303,0.0,0.0
39,9.5,52.6942,52.892,130.664,104.163,4.15801,0.030897,0.614436,20.1895,524.203,29.096,0.0,0.0
42,10.25,53.2905,53.7111,133.742,104.225,4.08346,0.0296836,0.613986,20.1878,524.113,29.2648,0.0,0.0
45,11,54.5991,54.5519,136.136,104.272,4.092,0.0282752,0.602003,20.2028,524.103,29.25,0.0,0.0
48,11.75,54.917,54.7563,134.419,104.3,4.21405,0.0266135,0.588208,20.2198,524.013,28.987,0.0,0.0
51,12.5,54.9246,55.4524,136.835,104.326,4.3774,0.0248322,0.569499,20.2425,523.873,28.6456,0.0,0.0
54,13.25,55.014,55.6036,137.004,104.369,4.48473,0.0230222,0.547951,20.2732,523.793,28.4306,0.0,0.0
57,14,55.9865,56.4978,139.313,104.411,4.39402,0.0212581,0.525585,20.3064,523.823,28.6188,0.0,0.0
60,14.75,56.3729,56.7942,133.487,104.441,4.48662,0.0196179,0.503662,20.3389,523.743,28.4329,0.0,0.0
63,15.5,56.5864,56.8839,141.896,104.477,4.50704,0.0181405,0.481886,20.3758,523.583,28.395,0.0,0.0
66,16.25,56.6258,57.4212,141.347,104.528,4.5023,0.0169,0.461093,20.4062,523.492,28.409,0.0,0.0
69,17,56.3991,57.6363,136.349,104.574,4.48378,0.0156282,0.441747,20.4343,523.512,28.4502,0.0,0.0
72,17.75,57.1541,57.696,139.412,104.615,4.65948,0.0145505,0.423065,20.461,523.482,28.1065,0.0,0.0
75,18.5,56.9164,58.2269,138.797,104.64,4.61057,0.0136253,0.407951,20.4849,523.352,28.2039,0.0,0.0
78,19.25,57.4903,57.9232,137.381,104.68,4.67278,0.012778,0.394376,20.5043,523.342,28.0864,0.0,0.0
81,20,57.5308,58.3155,136.145,104.725,4.57828,0.012112,0.382133,20.5223,523.332,28.2748,0.0,0.0
84,20.75,57.1753,58.4429,141.571,104.756,4.60724,0.0115636,0.371432,20.538,523.282,28.2205,0.0,0.0
87,21.5,57.6023,58.8933,138.35,104.766,4.64476,0.0110564,0.362307,20.5511,523.142,28.1481,0.0,0.0
90,22.25,57.8716,58.5252,140.059,104.788,4.5759,0.0106208,0.354129,20.5623,523.042,28.2849,0.0,0.0
93,23,57.8849,58.8991,139.409,104.814,4.51512,0.0103033,0.348167,20.5713,523.092,28.4079,0.0,0.0
96,23.75,57.9661,59.3525,138.146,104.857,4.56545,0.010013,0.342861,20.5787,523.032,28.3115,0.0,0.0
99,24.5,57.9948,59.3003,138.481,104.856,4.62006,0.00975215,0.338878,20.5844,522.892,28.2041,0.0,0.0
102,25.25,57.8096,60.0479,138.59,104.874,4.53364,0.00952058,0.335926,20.5889,522.832,28.3762,0.0,0.0
105,26,57.7739,59.7489,137.494,104.902,4.65093,0.00927166,0.333708,20.5926,522.862,28.1478,0.0,0.0
108,26.75,57.7773,59.7582,141.395,104.93,4.55928,0.009056,0.332064,20.5961,522.822,28.33,0.0,0.0
111,27.5,58.3807,60.2067,138.174,104.93,4.62339,0.00884029,0.330798,20.5986,522.732,28.2039,0.0,0.0
114,28.25,58.1577,60.2868,137.227,104.929,4.67373,0.00858687,0.329695,20.6018,522.652,28.106,0.0,0.0
117,29,58.3933,60.0281,139.997,104.951,4.61769,0.00834371,0.328815,20.6051,522.622,28.2169,0.0,0.0
120,29.75,58.3229,60.6313,141.047,104.962,4.70364,0.00814154,0.328056,20.6077,522.622,28.0512,0.0,0.0
123,30.5,58.717,60.4104,138.845,104.952,4.63859,0.0079435,0.32747,20.6096,522.492,28.1761,0.0,0.0
126,31.25,58.9075,60.1654,139.61,104.953,4.58967,0.0078058,0.32696,20.611,522.452,28.272,0.0,0.0
129,32,59.1416,60.3875,138.722,104.957,4.61674,0.00771683,0.326471,20.6133,522.381,28.2192,0.0,0.0
132,32.75,58.7023,60.9603,140.973,104.971,4.63384,0.00770265,0.32613,20.6149,522.372,28.187,0.0,0.0
135,33.5,58.6568,60.9898,137.059,104.959,4.56213,0.00774566,0.325889,20.6161,522.261,28.3269,0.0,0.0
138,34.25,59.4154,61.1362,138.406,104.954,4.64761,0.00779977,0.325877,20.617,522.171,28.1588,0.0,0.0
141,35,58.927,61.3053,137.859,104.945,4.70982,0.00790271,0.325851,20.6185,522.141,28.0378,0.0,0.0
144,35.75,59.2085,61.3456,138.544,104.954,4.59015,0.00798981,0.325826,20.62,522.111,28.2711,0.0,0.0
147,36.5,59.215,61.6386,142.008,104.955,4.55548,0.00807394,0.325854,20.6211,522.071,28.3397,0.0,0.0
150,37.25,59.4294,61.2295,138.187,104.924,4.62101,0.00812762,0.325972,20.6219,521.991,28.2081,0.0,0.0
153,38,59.4366,62.0967,138.349,104.911,4.55026,0.0081635,0.326101,20.6225,521.911,28.3463,0.0,0.0
156,38.75,59.0788,61.9289,140.436,104.907,4.64808,0.00815517,0.326568,20.6229,521.871,28.1538,0.0,0.0
159,39.5,59.7116,62.2406,138.635,104.888,4.66945,0.00811475,0.327064,20.6234,521.811,28.1108,0.0,0.0
162,40.25,59.7248,62.3948,140.62,104.869,4.72691,0.00805259,0.327691,20.6242,521.721,27.9986,0.0,0.0
165,41,59.6639,62.1973,136.421,104.846,4.78105,0.00796102,0.328115,20.6248,521.731,27.8938,0.0,0.0
168,41.75,59.8185,62.2709,141.165,104.843,4.62101,0.00786799,0.328358,20.6258,521.661,28.201,0.0,0.0
171,42.5,59.7014,62.4641,139.537,104.821,4.71219,0.00777987,0.328447,20.6266,521.601,28.0226,0.0,0.0
174,43.25,59.3949,61.9345,140.115,104.783,4.62576,0.00770697,0.328723,20.6271,521.551,28.1866,0.0,0.0
177,44,59.9416,63.0699,138.252,104.768,4.58635,0.00765383,0.329186,20.6275,521.471,28.2626,0.0,0.0
180,44.75,59.9684,63.314,134.705,104.753,4.57875,0.00756253,0.329705,20.6278,521.471,28.2763,0.0,0.0
183,45.5,59.6477,62.8615,139.287,104.741,4.62909,0.00747131,0.330201,20.628,521.401,28.1765,0.0,0.0
186,46.25,60.0358,62.7628,140.506,104.702,4.68465,0.00736264,0.330563,20.6279,521.291,28.0654,0.0,0.0
189,47,60.0005,63.0465,136.184,104.663,4.66185,0.00718601,0.330148,20.6278,521.22,28.106,0.0,0.0
192,47.75,60.1816,62.9893,137.428,104.64,4.72406,0.00699413,0.329846,20.6287,521.18,27.9843,0.0,0.0
195,48.5,60.1153,63.1684,139.082,104.62,4.7763,0.00681009,0.328035,20.6309,521.18,27.8833,0.0,0.0
198,49.25,60.3653,63.139,135.297,104.587,4.72881,0.00664641,0.325997,20.6344,521.08,27.9707,0.0,0.0
201,50,60.427,63.3755,135.112,104.553,4.61009,0.00650193,0.324206,20.6374,521,28.1974,0.0,0.0
204,50.75,60.22,63.893,138.64,104.518,4.75635,0.00639661,0.322296,20.6397,520.96,27.9122,0.0,0.0
207,51.5,60.701,63.7301,139.798,104.506,4.63953,0.00626416,0.320531,20.6423,520.95,28.1358,0.0,0.0
210,52.25,60.6028,63.4483,133.725,104.514,4.69842,0.00616535,0.318646,20.6439,520.89,28.0226,0.0,0.0
213,53,60.5285,63.59,138.313,104.527,4.80527,0.00598286,0.317085,20.6464,520.83,27.8206,0.0,0.0
216,53.75,60.6473,63.5589,139.571,104.532,4.65331,0.00580123,0.314308,20.6501,520.8,28.1113,0.0,0.0
219,54.5,60.6198,64.16,142.301,104.566,4.90024,0.00561616,0.310998,20.6549,520.78,27.6471,0.0,0.0
222,55.25,60.159,63.2929,141.19,104.572,4.84468,0.00545879,0.307764,20.6619,520.75,27.7507,0.0,0.0
225,56,60.7278,63.3308,140.373,104.575,4.84658,0.00525489,0.302096,20.6697,520.68,27.7474,0.0,0.0
228,56.75,60.1903,63.8516,143.607,104.583,4.81999,0.00506374,0.296174,20.6777,520.7,27.7978,0.0,0.0
231,57.5,60.5777,63.5878,138.41,104.61,4.83708,0.00490627,0.290201,20.6857,520.7,27.7681,0.0,0.0
234,58.25,60.1346,63.9017,139.304,104.623,4.88837,0.00472656,0.28374,20.6927,520.65,27.674,0.0,0.0
237,59,60.4715,63.4949,147.182,104.635,4.9463,0.00454622,0.277062,20.6998,520.56,27.5686,0.0,0.0
240,59.75,60.0592,63.728,141.375,104.64,4.91829,0.00437773,0.270365,20.7093,520.55,27.6203,0.0,0.0
243,60.5,59.8504,63.6516,142.276,104.659,4.91686,0.00419807,0.263202,20.7189,520.52,27.6246,0.0,0.0
246,61.25,60.1233,63.5893,139.629,104.67,4.97527,0.00403723,0.257007,20.7282,520.51,27.5189,0.0,0.0
249,62,60.2263,63.3631,144.818,104.678,4.99284,0.00390071,0.249701,20.737,520.49,27.4877,0.0,0.0
252,62.75,59.9619,63.6528,143.483,104.691,4.87127,0.00378999,0.243762,20.7452,520.48,27.7115,0.0,0.0
255,63.5,59.9135,63.174,144.02,104.71,4.99284,0.00370928,0.238384,20.7535,520.47,27.4904,0.0,0.0
258,64.25,59.7636,63.233,141.279,104.719,4.95818,0.00365044,0.232982,20.7604,520.47,27.5542,0.0,0.0
261,65,59.16,63.2311,141.44,104.727,4.93538,0.00360223,0.227656,20.7663,520.44,27.5965,0.0,0.0
264,65.75,59.0811,63.6782,141.857,104.732,4.9615,0.00356708,0.222847,20.771,520.44,27.5492,0.0,0.0
267,66.5,59.4754,63.6282,145.774,104.767,4.99237,0.00354146,0.218947,20.7758,520.44,27.4963,0.0,0.0
270,67.25,58.7822,62.7848,146.199,104.787,4.9482,0.00352278,0.214594,20.7805,520.47,27.5782,0.0,0.0
273,68,58.3763,62.4069,144.449,104.791,4.97955,0.0035216,0.21142,20.785,520.41,27.5216,0.0,0.0
276,68.75,59.238,62.3847,140.2,104.8,4.89549,0.00353599,0.207323,20.7902,520.4,27.6761,0.0,0.0
279,69.5,58.6718,62.6467,143.681,104.825,4.95105,0.00355137,0.204337,20.7958,520.38,27.5763,0.0,0.0
282,70.25,58.6318,62.5332,143.591,104.847,4.9558,0.0035637,0.201386,20.8013,520.36,27.5695,0.0,0.0
285,71,58.5772,62.4612,145.908,104.863,5.00661,0.00356752,0.197565,20.8049,520.31,27.4788,0.0,0.0
288,71.75,58.3584,62.6027,142.549,104.878,5.00139,0.00357193,0.194188,20.81,520.32,27.4895,0.0,0.0
291,72.5,58.3982,62.1192,141.301,104.883,5.00471,0.00360176,0.190832,20.8141,520.32,27.4839,0.0,0.0
294,73.25,58.3539,62.4072,146.312,104.923,5.00329,0.00363727,0.18776,20.8177,520.35,27.4899,0.0,0.0
297,74,57.8406,62.3313,145.084,104.935,4.97432,0.00368668,0.186003,20.8217,520.33,27.5434,0.0,0.0
300,74.75,57.87,61.8697,150.12,104.936,4.98477,0.00374579,0.182787,20.8258,520.33,27.5246,0.0,0.0
303,75.5,57.5428,61.837,144.638,104.956,4.9691,0.00378889,0.180044,20.83,520.29,27.5548,0.0,0.0
306,76.25,57.7373,61.9709,148.857,104.98,4.96482,0.0038203,0.177364,20.834,520.29,27.5646,0.0,0.0
309,77,57.4002,61.5448,148.208,104.995,4.98477,0.00383423,0.17463,20.8372,520.26,27.5297,0.0,0.0
312,77.75,57.403,61.8533,144.952,105.019,5.00851,0.00383317,0.172135,20.8406,520.27,27.4888,0.0,0.0
315,78.5,57.2798,61.3261,145.744,105.014,4.98192,0.00382763,0.170102,20.844,520.26,27.5364,0.0,0.0
318,79.25,56.8578,61.4121,145.464,105.05,5.01326,0.00381487,0.167904,20.8468,520.29,27.4829,0.0,0.0
321,80,56.4886,61.1627,144.716,105.055,4.9805,0.00380775,0.165918,20.8488,520.26,27.5426,0.0,0.0
324,80.75,56.6531,61.3504,144.765,105.077,4.9558,0.00381264,0.164306,20.8516,520.199,27.5893,0.0,0.0
327,81.5,56.6331,60.7776,145.975,105.082,5.00756,0.00385708,0.162711,20.8541,520.199,27.4959,0.0,0.0
330,82.25,56.6041,60.9089,144.788,105.107,5.00994,0.00392064,0.161549,20.8563,520.21,27.4938,0.0,0.0
333,83,56.288,60.692,149.44,105.124,4.96387,0.00399866,0.160135,20.8583,520.21,27.5787,0.0,0.0
336,83.75,56.4057,60.9079,146.358,105.134,4.93396,0.00410604,0.158723,20.8593,520.169,27.6341,0.0,0.0
339,84.5,56.1681,60.6694,145.913,105.13,4.94203,0.00418378,0.157338,20.8609,520.129,27.619,0.0,0.0
342,85.25,55.9183,60.3525,143.172,105.152,4.91971,0.0042736,0.155998,20.8629,520.169,27.6618,0.0,0.0
345,86,56.1964,60.705,145.468,105.175,4.94441,0.00438722,0.154687,20.8644,520.23,27.6186,0.0,0.0
348,86.75,55.2918,60.2274,146.262,105.181,4.97052,0.00447667,0.153956,20.8654,520.099,27.5715,0.0,0.0
351,87.5,55.8922,60.3485,147.078,105.172,4.98334,0.0045532,0.153031,20.8668,520.079,27.5474,0.0,0.0
354,88.25,55.615,59.9953,147.502,105.196,4.96055,0.00462025,0.152128,20.8679,520.079,27.5909,0.0,0.0
357,89,54.9868,59.7657,144.974,105.216,4.94441,0.00467393,0.151469,20.8695,520.149,27.6221,0.0,0.0
360,89.75,55.2179,59.5785,144.251,105.217,4.98619,0.00472558,0.150866,20.8704,520.089,27.5461,0.0,0.0
363,90.5,55.1766,59.6064,144.673,105.227,4.98524,0.00476726,0.150364,20.8713,520.069,27.5487,0.0,0.0
366,91.25,55.0652,59.6615,149.723,105.253,4.95675,0.00479539,0.149894,20.8723,520.069,27.6028,0.0,0.0
369,92,54.9127,59.6417,145.539,105.252,4.93206,0.00481589,0.149404,20.8731,520.139,27.6477,0.0,0.0
372,92.75,54.99,59.1775,144.25,105.257,4.95295,0.00483281,0.148797,20.8736,520.109,27.61,0.0,0.0
375,93.5,54.875,59.0613,147.586,105.255,5.02086,0.00484383,0.148209,20.8743,520.069,27.4869,0.0,0.0
378,94.25,54.6792,59.1926,144.802,105.262,4.95865,0.00485463,0.147649,20.8754,520.069,27.6001,0.0,0.0
381,95,54.6682,59.0315,149.334,105.278,4.93158,0.00485248,0.147184,20.8758,520.119,27.6509,0.0,0.0
384,95.75,54.5724,59.0168,146.173,105.291,5.05173,0.00484323,0.146679,20.8762,520.079,27.4345,0.0,0.0
387,96.5,54.2838,58.901,145.064,105.288,5.01184,0.00482042,0.146383,20.8765,520.029,27.5059,0.0,0.0
390,97.25,54.3124,58.7089,147.286,105.295,5.04175,0.00479523,0.145885,20.8768,520.029,27.4528,0.0,0.0
393,98,54.3671,58.3631,149.501,105.303,5.00756,0.00476224,0.145705,20.8769,520.129,27.5148,0.0,0.0
396,98.75,54.046,58.5416,147.24,105.329,4.9482,0.00473461,0.145424,20.8775,520.099,27.6248,0.0,0.0
399,99.5,54.094,58.3761,148.695,105.327,4.99427,0.00471448,0.145187,20.8781,520.039,27.541,0.0,0.0
402,100.25,53.9279,58.2192,145.465,105.317,4.98145,0.00472478,0.144974,20.8785,520.039,27.5633,0.0,0.0
405,101,53.6872,58.5105,144.294,105.32,5.00756,0.00475982,0.144802,20.8788,520.099,27.5163,0.0,0.0
408,101.75,53.9087,58.0838,143.794,105.326,5.02418,0.00481161,0.144651,20.8791,520.099,27.4869,0.0,0.0
411,102.5,53.6877,58.3976,147.316,105.328,5.08734,0.00487416,0.144395,20.8792,519.989,27.3742,0.0,0.0
414,103.25,53.7337,57.9355,147.959,105.334,4.98619,0.00494121,0.144171,20.8793,519.969,27.5562,0.0,0.0
417,104,53.6771,57.6376,143.194,105.35,4.93253,0.00497681,0.143941,20.8794,519.989,27.6553,0.0,0.0
420,104.75,53.1147,57.5286,148.647,105.381,4.93776,0.00501962,0.143795,20.8795,520.029,27.6484,0.0,0.0
423,105.5,53.2214,57.6129,142.537,105.354,4.99332,0.00503831,0.14368,20.8796,519.949,27.545,0.0,0.0
426,106.25,53.1328,57.7469,149.556,105.357,4.96767,0.00505194,0.143612,20.8796,519.919,27.5918,0.0,0.0
429,107,52.7307,57.6035,142.88,105.371,4.96198,0.00501185,0.143492,20.8796,519.949,27.6033,0.0,0.0
432,107.75,52.5361,57.1075,143.556,105.377,4.96577,0.00496088,0.143428,20.8796,520.019,27.5969,0.0,0.0
435,108.5,52.7981,57.092,144.733,105.383,4.99712,0.00488656,0.143421,20.8797,519.919,27.5406,0.0,0.0
438,109.25,53.0248,56.7334,146.204,105.38,4.93966,0.00482488,0.143373,20.8797,519.929,27.6449,0.0,0.0
441,110,52.3458,56.9811,145.034,105.387,4.95343,0.00480048,0.143339,20.8797,519.919,27.6203,0.0,0.0
444,110.75,52.3953,57.1556,146.228,105.412,4.91734,0.00479283,0.143335,20.8797,519.999,27.6885,0.0,0.0
447,111.5,52.5272,56.6597,146.201,105.41,4.86368,0.00485153,0.14334,20.8797,519.889,27.7874,0.0,0.0
450,112.25,52.1908,57.1681,145.912,105.4,4.86368,0.00489433,0.143356,20.8797,519.929,27.7865,0.0,0.0
453,113,52.8395,57.1481,146.898,105.418,4.94203,0.00502032,0.143326,20.8797,519.909,27.6438,0.0,0.0
456,113.75,52.7758,56.7265,145.356,105.423,4.90879,0.00512406,0.143319,20.8797,519.989,27.7052,0.0,0.0
459,114.5,52.4753,56.8377,143.108,105.428,4.92351,0.00522003,0.143321,20.8797,519.899,27.6785,0.0,0.0
462,115.25,52.5117,56.6708,145.519,105.421,4.9539,0.00527028,0.143336,20.8797,519.909,27.6223,0.0,0.0
465,116,52.1791,56.3904,144.32,105.424,4.96672,0.00528909,0.143346,20.8797,519.859,27.5993,0.0,0.0
468,116.75,52.1787,56.3694,145.661,105.437,4.8803,0.00527231,0.14334,20.8803,519.949,27.7589,0.0,0.0
471,117.5,52.4008,56.4835,146.293,105.44,4.90167,0.00521895,0.14332,20.8808,519.969,27.7197,0.0,0.0
474,118.25,52.1785,56.0524,149.182,105.431,4.96008,0.00516884,0.143279,20.8811,519.869,27.612,0.0,0.0
477,119,51.8252,56.702,143.982,105.437,4.95485,0.00511315,0.143312,20.8814,519.859,27.622,0.0,0.0
480,119.75,51.6538,55.6145,142.051,105.43,4.99094,0.00506842,0.143307,20.8815,519.889,27.5558,0.0,0.0
483,120.5,51.7677,56.1791,148.012,105.46,4.98619,0.00505221,0.143291,20.8817,519.859,27.5669,0.0,0.0
486,121.25,51.6866,55.7076,145.698,105.439,4.97812,0.00507816,0.143196,20.8818,519.809,27.5799,0.0,0.0
489,122,51.7299,55.9675,144.949,105.443,4.97242,0.0051184,0.143039,20.8818,519.809,27.5905,0.0,0.0
492,122.75,51.5878,55.8109,146.427,105.441,4.90357,0.00516079,0.142887,20.8819,519.799,27.7163,0.0,0.0
495,123.5,51.812,55.5837,146.442,105.463,4.90262,0.00519846,0.142901,20.8819,519.919,27.7199,0.0,0.0
498,124.25,51.8178,56.3072,146.129,105.446,4.95913,0.00522234,0.142966,20.882,519.799,27.615,0.0,0.0
501,125,51.2869,55.7762,146.421,105.441,4.91971,0.00522847,0.143104,20.882,519.799,27.6866,0.0,0.0
504,125.75,51.2534,56.1937,149.667,105.454,4.9824,0.00521056,0.143122,20.882,519.789,27.5734,0.0,0.0
507,126.5,51.569,55.4532,145.441,105.464,4.93918,0.00519003,0.143033,20.882,519.849,27.6529,0.0,0.0
510,127.25,51.7156,55.8117,147.983,105.453,4.90119,0.00516252,0.142863,20.882,519.769,27.7217,0.0,0.0
513,128,51.7067,55.8044,153.019,105.45,4.886,0.00513911,0.142635,20.882,519.749,27.7495,0.0,0.0
516,128.75,51.6996,55.4523,151.545,105.454,4.89597,0.00512542,0.142426,20.882,519.759,27.7314,0.0,0.0
519,129.5,51.6656,55.3536,148.785,105.467,4.97432,0.00512039,0.142245,20.8819,519.839,27.5891,0.0,0.0
522,130.25,51.4181,55.3749,147.768,105.464,4.94203,0.00512608,0.142101,20.8817,519.769,27.6477,0.0,0.0
525,131,51.2456,54.8017,147.296,105.444,4.90452,0.00514265,0.142058,20.8816,519.709,27.7148,0.0,0.0
528,131.75,51.2079,55.093,144.768,105.462,4.95675,0.00517798,0.142027,20.8815,519.719,27.6207,0.0,0.0
531,132.5,51.2675,55.1878,144.709,105.466,4.87602,0.00520875,0.141981,20.8814,519.789,27.7693,0.0,0.0
534,133.25,51.3598,54.8877,145.361,105.463,4.95105,0.00523332,0.141948,20.8813,519.779,27.6312,0.0,0.0
537,134,51.0938,55.1103,143.032,105.472,4.9463,0.00524332,0.141916,20.8813,519.699,27.6406,0.0,0.0
540,134.75,51.2029,55.2546,142.727,105.46,4.96292,0.00523705,0.141879,20.8817,519.749,27.6093,0.0,0.0
543,135.5,51.0127,54.9925,147.478,105.469,4.96245,0.00521995,0.141707,20.8826,519.769,27.6109,0.0,0.0
546,136.25,51.0738,55.1052,148.116,105.47,4.9501,0.00520213,0.141524,20.8838,519.819,27.6334,0.0,0.0
549,137,50.7084,55.1711,147.447,105.464,4.93491,0.00517127,0.141365,20.8848,519.719,27.6607,0.0,0.0
552,137.75,50.4761,54.5889,145.907,105.462,4.952,0.00513749,0.141249,20.8855,519.719,27.6293,0.0,0.0
555,138.5,50.9262,54.7122,148.359,105.46,4.95533,0.0050982,0.141082,20.886,519.799,27.623,0.0,0.0
558,139.25,50.2241,54.1445,151.377,105.471,4.96815,0.00505272,0.14093,20.8863,519.799,27.6007,0.0,0.0
561,140,50.6434,53.9728,150.722,105.457,4.94441,0.00498826,0.1408,20.8867,519.709,27.6427,0.0,0.0
564,140.75,50.4176,54.1516,150.382,105.455,4.92636,0.00492793,0.140692,20.8871,519.679,27.6756,0.0,0.0
567,141.5,50.7659,54.173,147.232,105.469,4.91829,0.00484292,0.140634,20.8874,519.739,27.6916,0.0,0.0
570,142.25,50.1982,53.9385,143.11,105.477,4.93871,0.00476595,0.140585,20.8876,519.789,27.6548,0.0,0.0
573,143,50.2315,54.4939,143.977,105.458,5.02418,0.00469752,0.140537,20.8877,519.679,27.4982,0.0,0.0
576,143.75,50.2717,54.3143,143.904,105.459,4.95343,0.00463751,0.140459,20.8879,519.639,27.6265,0.0,0.0
579,144.5,50.2047,53.8684,145.48,105.463,4.93443,0.00457417,0.140383,20.8879,519.639,27.6615,0.0,0.0
582,145.25,50.3561,54.1403,143.404,105.471,4.95438,0.00452142,0.140432,20.888,519.739,27.6258,0.0,0.0
585,146,50.0701,53.9805,143.208,105.468,4.9634,0.00447173,0.140467,20.8881,519.639,27.609,0.0,0.0
588,146.75,50.1928,54.0468,145.445,105.46,4.90879,0.0044355,0.140462,20.8881,519.589,27.7083,0.0,0.0
591,147.5,50.2871,53.7854,145.951,105.471,4.97955,0.00441698,0.140407,20.8881,519.569,27.5799,0.0,0.0
594,148.25,50.4949,53.6712,145.284,105.464,4.97717,0.00442053,0.140407,20.8881,519.699,27.5837,0.0,0.0
597,149,50.1107,53.7171,145.717,105.464,4.98572,0.00444686,0.140393,20.8884,519.659,27.5682,0.0,0.0
600,149.75,49.6197,53.7613,142.501,105.454,4.96292,0.00447617,0.140323,20.8889,519.599,27.6087,0.0,0.0
603,150.5,49.9509,53.7759,147.177,105.46,4.95343,0.00452429,0.140223,20.8894,519.579,27.6265,0.0,0.0
606,151.25,50.1411,53.9362,145.369,105.472,4.92446,0.00456463,0.140061,20.8897,519.669,27.6805,0.0,0.0
609,152,50.2743,53.4053,148.065,105.463,4.91781,0.00460305,0.139865,20.8899,519.579,27.692,0.0,0.0
612,152.75,49.4392,53.0868,147.655,105.46,5.03606,0.00462927,0.139649,20.89,519.559,27.4771,0.0,0.0
615,153.5,50.4914,53.7902,146.702,105.458,4.97385,0.00462163,0.139461,20.8902,519.569,27.5892,0.0,0.0
618,154.25,49.6573,53.0552,145.212,105.462,4.94203,0.00461606,0.139199,20.8903,519.599,27.6475,0.0,0.0
621,155,49.7222,53.6526,143.578,105.467,4.87365,0.00457448,0.138921,20.8903,519.609,27.7738,0.0,0.0
624,155.75,49.5342,53.2614,152.88,105.464,4.95723,0.0045152,0.13865,20.8906,519.529,27.62,0.0,0.0
627,156.5,49.9882,53.4473,146.899,105.457,4.96577,0.00447047,0.138401,20.8912,519.539,27.6038,0.0,0.0
630,157.25,49.5037,53.4494,148.891,105.462,4.93728,0.00444349,0.138156,20.8916,519.609,27.6562,0.0,0.0
633,158,49.8378,53.4477,150.181,105.48,4.93918,0.00442579,0.137925,20.8919,519.609,27.6543,0.0,0.0
636,158.75,49.9844,53.3964,151.356,105.46,4.92541,0.00441626,0.137742,20.8918,519.469,27.6777,0.0,0.0
639,159.5,49.4324,53.4978,146.847,105.462,5.01136,0.00440057,0.137502,20.8916,519.479,27.5216,0.0,0.0
642,160.25,49.5455,53.2447,145.813,105.463,4.96292,0.00438278,0.137315,20.8915,519.489,27.6095,0.0,0.0
645,161,49.4918,53.3844,144.096,105.47,4.95628,0.00436532,0.137077,20.8921,519.539,27.6222,0.0,0.0
648,161.75,49.5651,53.2967,149.786,105.464,4.98287,0.00436244,0.136822,20.8925,519.489,27.5734,0.0,0.0
651,162.5,49.3652,53.0516,143.326,105.471,4.95818,0.00437721,0.13657,20.8928,519.469,27.6188,0.0,0.0
654,163.25,50.1171,53.3546,151.594,105.46,4.952,0.0044254,0.136428,20.893,519.489,27.6292,0.0,0.0
657,164,49.2644,52.9894,148.202,105.471,4.92968,0.00448303,0.136325,20.8932,519.569,27.6709,0.0,0.0
660,164.75,49.395,53.2539,145.155,105.466,4.97622,0.00453727,0.136353,20.8933,519.459,27.5856,0.0,0.0
663,165.5,49.7105,52.8928,147.393,105.462,4.96815,0.00458132,0.136403,20.8934,519.449,27.5999,0.0,0.0
666,166.25,49.7189,52.7373,144.474,105.46,4.91639,0.00460273,0.136451,20.8934,519.449,27.6944,0.0,0.0
669,167,49.5194,52.7889,146.27,105.465,4.96055,0.00460833,0.136341,20.8935,519.519,27.614,0.0,0.0
672,167.75,49.2235,52.6397,153.517,105.449,4.95295,0.00460814,0.136174,20.8935,519.439,27.6264,0.0,0.0
675,168.5,48.993,52.7702,145.891,105.455,4.952,0.00459051,0.136,20.8935,519.419,27.6287,0.0,0.0
678,169.25,49.8196,52.9426,152.456,105.459,4.94868,0.00456231,0.135847,20.8936,519.449,27.6351,0.0,0.0
681,170,48.8007,52.4304,147.267,105.47,4.99189,0.00452825,0.135735,20.8936,519.519,27.5575,0.0,0.0
684,170.75,49.6353,52.4203,147.72,105.469,4.92731,0.004487,0.13561,20.8936,519.469,27.675,0.0,0.0
687,171.5,49.449,52.4709,149.934,105.454,4.96103,0.00442883,0.135501,20.8936,519.379,27.6121,0.0,0.0
690,172.25,49.1496,52.0318,146.491,105.469,4.92066,0.00437218,0.135317,20.8936,519.429,27.6872,0.0,0.0
693,173,49.1279,52.6937,146.314,105.454,4.94915,0.00434461,0.135138,20.8936,519.459,27.6338,0.0,0.0
696,173.75,49.3856,52.5404,150.685,105.477,4.91876,0.00434549,0.134928,20.8936,519.539,27.6915,0.0,0.0
699,174.5,49.5281,52.5805,148.741,105.457,4.92541,0.00437197,0.134747,20.8936,519.449,27.6775,0.0,0.0
702,175.25,48.7082,52.34,144.11,105.45,4.93396,0.00442089,0.134602,20.8936,519.409,27.6612,0.0,0.0
705,176,49.2121,52.199,143.939,105.456,4.98287,0.00450718,0.134558,20.8942,519.419,27.5726,0.0,0.0
708,176.75,49.1993,52.6484,146.138,105.462,4.9539,0.00460757,0.134599,20.8947,519.519,27.6258,0.0,0.0
711,177.5,49.378,52.7086,149.519,105.448,5.06265,0.00468702,0.13466,20.895,519.359,27.4285,0.0,0.0
714,178.25,48.9276,51.9797,144.867,105.446,5.05648,0.00474761,0.134704,20.8953,519.329,27.4393,0.0,0.0
717,179,49.0301,52.3437,147.111,105.448,4.94251,0.00479177,0.134635,20.8954,519.279,27.6455,0.0,0.0
720,179.75,48.8787,52.1719,147.096,105.468,4.95058,0.00481147,0.134503,20.8956,519.409,27.6324,0.0,0.0
723,180.5,49.3387,52.036,145.539,105.436,4.93063,0.00482583,0.134342,20.8957,519.349,27.6662,0.0,0.0
726,181.25,49.3211,52.3713,145.968,105.445,4.93253,0.00482378,0.134141,20.8957,519.349,27.6634,0.0,0.0
729,182,48.8895,52.3319,148.247,105.446,4.94488,0.00481695,0.13398,20.8956,519.329,27.6409,0.0,0.0
732,182.75,48.8578,52.5098,145.91,105.453,4.94488,0.00480078,0.133857,20.8955,519.429,27.6415,0.0,0.0
735,183.5,48.877,51.8085,146.585,105.446,4.92019,0.00476985,0.133691,20.8955,519.329,27.6861,0.0,0.0
738,184.25,49.0516,52.219,152.251,105.444,4.92399,0.00472768,0.133439,20.8954,519.279,27.679,0.0,0.0
741,185,48.8421,52.1059,146.093,105.446,4.91306,0.00468818,0.133248,20.8954,519.269,27.6993,0.0,0.0
744,185.75,48.8948,52.3194,144.396,105.453,4.96767,0.00465106,0.133096,20.8953,519.379,27.6,0.0,0.0
747,186.5,49.123,52.1439,146.69,105.44,4.98429,0.00461612,0.133042,20.8953,519.339,27.5687,0.0,0.0
750,187.25,49.1267,52.7663,146.196,105.415,4.9501,0.00458887,0.132998,20.8958,519.259,27.6287,0.0,0.0
753,188,49.0924,52.4235,145.297,105.428,4.93918,0.004579,0.132913,20.8963,519.279,27.6498,0.0,0.0
756,188.75,49.1416,51.8377,147.021,105.439,4.97622,0.00457606,0.132736,20.8966,519.359,27.5832,0.0,0.0
759,189.5,49.1072,52.1607,147.701,105.442,4.9691,0.00460269,0.132484,20.8969,519.369,27.5965,0.0,0.0
762,190.25,48.8378,51.499,147.478,105.436,4.9615,0.00464556,0.132247,20.8971,519.259,27.6098,0.0,0.0
765,191,49.0717,51.8432,145.289,105.429,4.93871,0.00469595,0.132035,20.8972,519.259,27.6508,0.0,0.0
768,191.75,49.1409,52.3065,145.784,105.439,4.95533,0.00473019,0.131837,20.8973,519.339,27.6213,0.0,0.0
771,192.5,48.8682,51.8764,144.912,105.441,4.92683,0.00475407,0.131674,20.8974,519.349,27.6735,0.0,0.0
774,193.25,49.4082,52.0241,143.765,105.421,4.92493,0.00475007,0.131452,20.8981,519.239,27.6753,0.0,0.0
777,194,49.0248,51.9279,150.026,105.431,4.92019,0.00473288,0.131232,20.8986,519.219,27.6849,0.0,0.0
780,194.75,49.4327,52.2641,146.338,105.424,4.96672,0.0047116,0.131047,20.8989,519.279,27.5992,0.0,0.0
783,195.5,48.8566,51.918,147.596,105.423,4.92873,0.00469235,0.130869,20.8992,519.309,27.6685,0.0,0.0
786,196.25,48.9564,51.6735,150.909,105.416,5.01231,0.00469082,0.13069,20.8994,519.189,27.516,0.0,0.0
789,197,48.7045,52.4499,152.561,105.403,4.98999,0.00469504,0.130515,20.8995,519.179,27.5552,0.0,0.0
792,197.75,48.174,51.9488,146.335,105.409,4.93918,0.00470525,0.130401,20.8996,519.209,27.6482,0.0,0.0
795,198.5,48.9406,52.1199,148.906,105.418,4.97195,0.00470269,0.130317,20.8997,519.309,27.5892,0.0,0.0
798,199.25,48.4151,51.6443,147.451,105.397,4.92921,0.004688,0.130256,20.8998,519.219,27.6654,0.0,0.0
801,200,49.1235,52.3571,148.733,105.398,4.9596,0.00465937,0.130212,20.8998,519.209,27.61,0.0,0.0
804,200.75,48.5382,51.7007,144.727,105.393,4.96957,0.00463287,0.130172,20.8998,519.159,27.5914,0.0,0.0
807,201.5,48.808,52.0335,145.116,105.395,4.95438,0.00463674,0.13013,20.8999,519.279,27.6192,0.0,0.0
810,202.25,48.8787,51.4881,148.978,105.378,5.00424,0.00463956,0.13012,20.8999,519.199,27.5273,0.0,0.0
813,203,48.9897,51.6152,146.787,105.369,4.9748,0.00468165,0.130055,20.8999,519.179,27.5798,0.0,0.0
816,203.75,48.7914,51.943,147.162,105.373,4.93063,0.00472941,0.129952,20.8999,519.169,27.6607,0.0,0.0
819,204.5,48.8105,52.1954,143.923,105.369,4.9748,0.00477799,0.129825,20.9001,519.269,27.5798,0.0,0.0
822,205.25,48.4856,51.4513,147.188,105.353,4.91069,0.00481928,0.129689,20.9006,519.169,27.6957,0.0,0.0
825,206,48.617,51.2992,145.557,105.343,4.94061,0.0048351,0.129571,20.9009,519.149,27.6399,0.0,0.0
828,206.75,48.416,51.2345,143.105,105.349,4.94298,0.00483411,0.129485,20.9012,519.129,27.6361,0.0,0.0
831,207.5,48.5134,51.9004,146.899,105.343,5.00329,0.00482212,0.12934,20.9014,519.199,27.526,0.0,0.0
834,208.25,48.8368,51.82,146.438,105.319,4.89692,0.00480325,0.12922,20.9021,519.169,27.7181,0.0,0.0
837,209,48.5077,51.345,146.535,105.305,4.89787,0.00476273,0.129103,20.9031,519.109,27.7152,0.0,0.0
840,209.75,48.7693,51.7182,146.842,105.308,4.88172,0.00473319,0.128979,20.904,519.078,27.7452,0.0,0.0
843,210.5,48.3352,51.3961,148.063,105.31,4.91924,0.00464748,0.128787,20.9047,519.179,27.6763,0.0,0.0
846,211.25,48.6961,51.8613,144.868,105.297,4.91401,0.00455878,0.128551,20.9052,519.199,27.6848,0.0,0.0
849,212,48.6323,51.7207,145.787,105.27,4.93966,0.00448293,0.128288,20.9055,519.109,27.6354,0.0,0.0
852,212.75,48.7507,51.056,146.778,105.265,4.94441,0.00439917,0.127993,20.9058,519.099,27.6263,0.0,0.0
855,213.5,48.6636,51.3277,148.185,105.26,4.89027,0.00433088,0.127747,20.906,519.078,27.7253,0.0,0.0
858,214.25,48.9041,51.506,148.581,105.254,4.91734,0.00426875,0.127516,20.9061,519.199,27.6749,0.0,0.0
861,215,48.673,51.6269,142.565,105.228,4.9596,0.00420212,0.127286,20.9062,519.059,27.5954,0.0,0.0
864,215.75,48.6977,51.4818,149.812,105.238,4.92351,0.00413485,0.127118,20.9063,519.059,27.6623,0.0,0.0
867,216.5,48.3687,51.6556,147.8,105.214,4.90357,0.00407784,0.126892,20.9064,519.068,27.6968,0.0,0.0
870,217.25,48.1418,51.2338,150.778,105.213,4.91211,0.00402258,0.12667,20.9066,519.179,27.681,0.0,0.0
873,218,48.437,51.6884,148.791,105.19,4.89502,0.00398235,0.126484,20.9072,519.089,27.7105,0.0,0.0
876,218.75,48.8015,51.6385,146.646,105.184,4.94583,0.00396312,0.126286,20.9077,519.068,27.6168,0.0,0.0
879,219.5,48.4465,51.8587,144.383,105.161,4.9501,0.00397028,0.12617,20.908,519.008,27.607,0.0,0.0
882,220.25,48.3874,51.7688,146.842,105.161,4.95438,0.00400074,0.126099,20.9082,519.149,27.5992,0.0,0.0
885,221,48.3935,51.2047,146.394,105.142,4.88172,0.00402986,0.12596,20.9084,519.048,27.731,0.0,0.0
888,221.75,48.9209,51.3781,144.252,105.127,4.92778,0.00405109,0.125753,20.9089,519.028,27.6448,0.0,0.0
891,222.5,48.8555,51.3837,145.901,105.106,4.93823,0.00405767,0.125485,20.9095,519.008,27.6239,0.0,0.0
894,223.25,48.4752,51.3158,147.267,105.107,4.94678,0.00406247,0.125208,20.91,519.139,27.6084,0.0,0.0
897,224,48.5127,51.2705,147.815,105.09,4.92019,0.00404103,0.124977,20.9103,519.078,27.6556,0.0,0.0
900,224.75,48.7074,51.4604,147.95,105.071,4.89882,0.00400232,0.124735,20.9105,519.038,27.6933,0.0,0.0
903,225.5,48.7679,51.8471,144.663,105.06,4.94725,0.0039528,0.124455,20.9107,518.998,27.6034,0.0,0.0
906,226.25,48.5233,51.4672,149.25,105.049,4.96482,0.00390176,0.124106,20.9108,519.089,27.5705,0.0,0.0
909,227,48.436,51.352,146.275,105.024,4.94298,0.00385819,0.123791,20.9109,519.099,27.6082,0.0,0.0
912,227.75,48.5242,50.7825,147.935,105.009,4.95105,0.0038202,0.123532,20.9112,519.038,27.5921,0.0,0.0
915,228.5,48.5344,51.0646,146.279,104.991,4.8689,0.00379443,0.123308,20.9118,519.018,27.7417,0.0,0.0
918,229.25,48.2949,51.1993,146.042,104.981,4.86605,0.00378349,0.123106,20.9122,519.089,27.7462,0.0,0.0
921,230,47.82,50.8288,146.915,104.974,4.8822,0.00380394,0.12286,20.9126,519.099,27.7156,0.0,0.0
924,230.75,48.2452,50.9178,145.103,104.956,4.93633,0.00381884,0.122512,20.9128,518.998,27.6145,0.0,0.0
927,231.5,48.064,51.0872,146.323,104.925,4.971,0.00386347,0.122176,20.913,519.008,27.5486,0.0,0.0
930,232.25,48.5563,50.9446,146.168,104.922,4.89217,0.00388711,0.121989,20.9131,519.048,27.6928,0.0,0.0
933,233,48.1567,50.9979,149.388,104.914,4.93206,0.00388534,0.121877,20.9132,519.068,27.6187,0.0,0.0
936,233.75,48.2662,51.5593,145.711,104.901,4.94583,0.00385154,0.121836,20.9133,518.968,27.5924,0.0,0.0
939,234.5,48.6046,51.4996,145.063,104.864,4.96008,0.00376844,0.121754,20.9133,518.948,27.5632,0.0,0.0
942,235.25,47.9583,51.1427,143.285,104.862,4.91401,0.0036607,0.121603,20.9134,518.958,27.6474,0.0,0.0
945,236,48.1187,51.087,146.915,104.853,4.90879,0.00354415,0.121267,20.9134,519.068,27.6561,0.0,0.0
948,236.75,48.1267,51.036,145.289,104.838,4.87555,0.00341847,0.120976,20.9138,518.938,27.7163,0.0,0.0
951,237.5,48.4796,51.2301,147.416,104.824,4.92351,0.00332685,0.120686,20.9144,518.928,27.6266,0.0,0.0
954,238.25,47.9328,50.6074,148.627,104.815,4.91164,0.00323352,0.120475,20.9147,518.948,27.6476,0.0,0.0
957,239,48.314,51.0973,145.903,104.802,4.91734,0.00316425,0.120321,20.915,519.068,27.6361,0.0,0.0
960,239.75,48.0461,50.6836,147.676,104.782,4.86558,0.00311256,0.120209,20.9152,518.958,27.7299,0.0,0.0
963,240.5,48.0612,51.1006,148.012,104.766,4.83518,0.00307377,0.120004,20.9154,518.968,27.7852,0.0,0.0
966,241.25,48.05,51.1614,145.952,104.764,4.92161,0.00305766,0.119824,20.9154,518.958,27.6249,0.0,0.0
969,242,48.1104,51.2561,149.927,104.751,4.92731,0.00304036,0.119641,20.9155,519.038,27.6133,0.0,0.0
972,242.75,48.3219,51.0165,148.472,104.74,4.92114,0.00302998,0.119436,20.9156,518.958,27.6237,0.0,0.0
975,243.5,48.3994,51.0525,146.666,104.713,4.87697,0.00302949,0.119248,20.9156,518.968,27.7029,0.0,0.0
978,244.25,48.0786,50.8062,147.488,104.699,4.85085,0.00302913,0.119143,20.9157,518.958,27.7501,0.0,0.0
981,245,48.3175,50.4605,149.55,104.702,4.92541,0.00305178,0.118919,20.9159,519.018,27.6127,0.0,0.0
984,245.75,47.0385,50.5466,146.616,104.69,4.93348,0.00307482,0.118712,20.9165,518.958,27.5968,0.0,0.0
987,246.5,47.9762,51.1502,145.315,104.675,4.92446,0.00310279,0.118543,20.9167,518.928,27.612,0.0,0.0
990,247.25,48.0782,51.0304,146.209,104.659,4.91544,,0.118347,,518.918,27.6272,0.0,0.0
993,248,48.027,50.8285,150.768,104.675,4.91924,,0.118172,,518.968,27.6216,0.0,0.0
996,248.75,47.7855,50.8949,147.506,104.653,4.90072,,0.117901,,519.038,27.6538,0.0,0.0
999,249.5,47.7315,50.7933,148.957,104.635,4.91211,,0.117646,,518.928,27.6313,0.0,0.0
1002,250.25,48.2372,50.7206,149.519,104.619,4.88647,,,,518.908,27.6772,0.0,0.0
1005,251,48.2221,50.9346,149.082,104.616,4.89169,,,,518.928,27.6672,0.0,0.0
1008,251.75,48.0837,50.9176,149.203,104.605,4.89122,,,,519.028,27.6672,0.0,0.0
1011,252.5,47.8387,51.1519,149.671,104.589,4.97812,,,,518.918,27.5067,0.0,0.0
1014,253.25,47.5257,50.3249,149.057,104.588,4.94725,,,,518.898,27.5628,0.0,0.0
1017,254,48.0755,50.6109,147.935,104.57,4.94915,,,,518.888,27.5578,0.0,0.0
1020,254.75,47.2229,50.8153,146.992,104.584,4.87222,,,,519.008,27.7005,0.0,0.0
1023,255.5,48.1282,50.8675,144.922,104.548,4.86937,,,,518.868,27.7027,0.0,0.0
1026,256.25,48.0243,50.7372,144.522,104.54,4.84943,,,,518.868,27.7391,0.0,0.0
1029,257,48.1845,50.6769,146.426,104.529,4.94725,,,,518.858,27.5577,0.0,0.0
1031,257.5,48.3264,50.7934,144.262,104.532,4.87745,,,,518.878,27.6863,0.0,0.0