File: 01_Data/Polyisocyanurate_Foam_Board/Cone/Polyisocyanurate_Foam_Board_Cone_HF25Scan_220922_R3.csv
Names,Time,Stack TC,Smoke TC,Exh Press,Smoke Comp,Smoke Meas,CO Meter,CO2 Meter,O2 Meter,Sample Mass,Ext Coeff,Start Test,Flame Verif
Chan Gain,,500,500,1,1,1,1,1,1,1,1,1.0,1.0
Offset,,0,0,0.13918,0,0,0,0,0,0,0,0.0,0.0
Gain,,1,1,25.011,13.1577,15.2622,1,1,1,1.00088,1.00926,1.0,1.0
Units,sec,C,C,Pa,%,%,%,%,%,g,/m,,
Baseline,,28.1596,28.6715,164.726,99.6413,104.399,0.00123235,0.0890437,20.9306,-444.974,-0.41287,,
3,0.5,28.2192,29.059,165.936,99.7611,98.5693,0.00322776,0.111367,20.909,81.2514,0.106396,0.0,0.0
6,1.25,27.9855,28.5742,151.906,99.7839,90.4431,0.00416379,0.125723,20.8924,81.0212,0.87014,0.0,0.0
9,2,26.6799,27.4148,154.07,99.7767,88.8497,0.00516451,0.146194,20.856,81.4516,1.02686,0.0,1.0
12,2.75,26.9964,26.9051,153.67,99.7707,85.8232,0.00628092,0.166159,20.8177,80.9412,1.33315,0.0,1.0
15,3.5,27.1821,27.7251,150.557,99.7755,85.4198,0.00727542,0.189224,20.7791,80.8811,1.37528,0.0,1.0
18,4.25,28.0709,28.0283,150.707,99.7691,85.0836,0.0081308,0.216549,20.7411,80.9612,1.40963,0.0,1.0
21,5,28.6636,28.2457,158.565,99.7534,83.8297,0.00884566,0.23819,20.7109,80.8611,1.53968,0.0,1.0
24,5.75,28.8072,28.4319,151.133,99.7362,82.7873,0.00936679,0.257795,20.6846,80.731,1.64892,0.0,1.0
27,6.5,29.4288,28.9473,143.69,99.7145,82.9518,0.00971592,0.273601,20.6634,80.771,1.62943,0.0,1.0
30,7.25,29.946,29.3478,153.42,99.6868,84.8223,0.00997044,0.285972,20.6471,80.6909,1.42956,0.0,1.0
33,8,29.1647,28.1981,153.073,99.6667,85.8083,0.00999696,0.294991,20.6352,80.6309,1.32545,0.0,1.0
36,8.75,28.9193,28.7221,151.878,99.6342,85.0673,0.00991521,0.301131,20.6265,80.5208,1.39935,0.0,1.0
39,9.5,29.2704,28.6803,152.097,99.6113,84.5857,0.00981253,0.305422,20.6202,80.5008,1.44758,0.0,0.0
42,10.25,29.9455,29.1373,155.566,99.5707,86.4771,0.00961902,0.306697,20.616,80.4607,1.24819,0.0,0.0
45,11,30.2808,29.2666,152.59,99.5286,84.5377,0.00941127,0.307626,20.6143,80.4107,1.44525,0.0,0.0
48,11.75,31.1875,30.1378,153.283,99.4792,83.9164,0.00920232,0.30596,20.615,80.3506,1.50616,0.0,0.0
51,12.5,31.5449,30.353,151.074,99.425,85.683,0.00900025,0.303793,20.618,80.3106,1.31689,0.0,0.0
54,13.25,31.5456,30.9294,156.617,99.388,85.6401,0.00876351,0.301332,20.6211,80.3006,1.31803,0.0,0.0
57,14,31.8367,30.9283,153.954,99.3294,84.8022,0.00859093,0.298726,20.6237,80.2105,1.39985,0.0,0.0
60,14.75,32.1275,30.9089,152.738,99.2808,85.2922,0.00832589,0.295319,20.6278,80.1805,1.34451,0.0,0.0
63,15.5,32.4975,31.2809,153.533,99.217,84.9806,0.00806899,0.291406,20.6317,80.0904,1.37122,0.0,0.0
66,16.25,32.4884,31.5973,147.657,99.1684,87.7268,0.00785456,0.287944,20.6376,80.1004,1.08532,0.0,0.0
69,17,32.4704,31.8154,155.069,99.1206,88.8311,0.00763591,0.283532,20.6433,80.0704,0.970306,0.0,0.0
72,17.75,32.969,31.8468,155.669,99.0744,90.4301,0.00742242,0.279511,20.6515,80.0304,0.808241,0.0,0.0
75,18.5,33.1433,32.1211,157.768,99.019,90.1692,0.00721973,0.274035,20.6601,79.9102,0.82886,0.0,0.0
78,19.25,33.5289,32.7656,155.692,98.9592,91.7421,0.00695677,0.268378,20.6691,79.9403,0.67041,0.0,0.0
81,20,33.2513,32.7963,157.669,98.9026,93.2875,0.00669563,0.263545,20.6781,79.9303,0.517453,0.0,0.0
84,20.75,33.6774,32.7434,156.868,98.8484,93.6084,0.00647565,0.257573,20.687,79.9102,0.482196,0.0,0.0
87,21.5,33.7506,33.2248,152.902,98.805,95.3481,0.0062163,0.251909,20.6942,79.7801,0.315294,0.0,0.0
90,22.25,33.5678,32.8196,154.656,98.7548,94.8232,0.00594995,0.246486,20.7006,79.8402,0.35967,0.0,0.0
93,23,34.1097,33.1231,158.568,98.7094,96.92,0.00569577,0.241276,20.7084,79.8102,0.16196,0.0,0.0
96,23.75,34.1894,33.697,159.59,98.6733,95.7743,0.00543313,0.236284,20.7158,79.7901,0.264003,0.0,0.0
99,24.5,33.7284,33.9822,157.539,98.6279,96.8376,0.00521089,0.232136,20.7231,79.7101,0.16218,0.0,0.0
102,25.25,34.0924,33.9504,162.859,98.5914,97.2028,0.00502927,0.227567,20.7304,79.7501,0.125579,0.0,0.0
105,26,34.0533,33.7996,160.175,98.5681,96.3388,0.0048858,0.223426,20.7369,79.7101,0.202531,0.0,0.0
108,26.75,34.157,33.935,157.999,98.5556,97.955,0.00478121,0.2197,20.7421,79.7001,0.0541226,0.0,0.0
111,27.5,34.2486,34.3135,156.462,98.5155,97.3718,0.00470496,0.216363,20.7467,79.62,0.103376,0.0,0.0
114,28.25,34.3316,34.2093,159.028,98.5026,97.2642,0.00464236,0.2131,20.7501,79.65,0.112009,0.0,0.0
117,29,34.2204,34.3155,156.179,98.4854,97.6676,0.00459673,0.21029,20.7544,79.61,0.0738187,0.0,0.0
120,29.75,34.6307,34.2971,156.98,98.4946,98.5134,0.0045487,0.208056,20.7577,79.6,-0.00169087,0.0,0.0
123,30.5,34.3456,34.3712,156.998,98.4645,97.3499,0.00449899,0.205892,20.7602,79.5499,0.100783,0.0,0.0
126,31.25,34.5589,34.6601,158.516,98.4645,98.404,0.00444836,0.204086,20.7627,79.5399,0.005443,0.0,0.0
129,32,34.6561,34.3255,164.397,98.4717,98.097,0.00438166,0.20216,20.7658,79.5199,0.0337508,0.0,0.0
132,32.75,34.0709,34.8409,158.637,98.495,98.063,0.00430726,0.200497,20.769,79.4999,0.0389136,0.0,0.0
135,33.5,34.4818,35.102,157.135,98.5046,98.4151,0.00423104,0.198544,20.7722,79.4599,0.00804779,0.0,0.0
138,34.25,34.7005,35.4865,158.239,98.5159,98.192,0.0041567,0.19672,20.7752,79.4198,0.0291499,0.0,0.0
141,35,34.4433,34.718,161.62,98.546,98.6713,0.00409089,0.19522,20.7773,79.3998,-0.01125,0.0,0.0
144,35.75,35.1328,34.6363,157.532,98.5773,98.9754,0.00402305,0.193578,20.7795,79.4098,-0.0356838,0.0,0.0
147,36.5,34.7207,35.0633,160.301,98.6139,99.0472,0.00395786,0.191665,20.7819,79.3598,-0.0388172,0.0,0.0
150,37.25,35.2063,35.0706,156.316,98.6319,99.7756,0.00390788,0.189898,20.7846,79.2997,-0.102068,0.0,0.0
153,38,34.7021,34.8726,162.413,98.6958,100.576,0.00387234,0.187973,20.7873,79.3197,-0.167097,0.0,0.0
156,38.75,34.8002,35.4399,158.647,98.7371,100.904,0.00384973,0.185894,20.7911,79.3197,-0.192163,0.0,0.0
159,39.5,34.8016,35.0083,157.645,98.7849,100.416,0.00383203,0.183803,20.7943,79.2997,-0.14499,0.0,0.0
162,40.25,34.8822,35.1507,159.51,98.8263,100.732,0.00380764,0.18179,20.7969,79.1896,-0.169122,0.0,0.0
165,41,34.6373,35.0236,157.916,98.9002,101.229,0.00377111,0.179576,20.8,79.2397,-0.206077,0.0,0.0
168,41.75,34.5659,34.7787,163.168,98.9588,101.681,0.00373417,0.177336,20.8022,79.2397,-0.240254,0.0,0.0
171,42.5,34.6087,34.6132,163.243,99.0206,101.559,0.0036896,0.175176,20.8063,79.2297,-0.224093,0.0,0.0
174,43.25,34.4577,35.2801,155.237,99.0744,102.176,0.00365362,0.172916,20.8098,79.1196,-0.272878,0.0,0.0
177,44,34.5521,35.4831,161.062,99.1527,102.002,0.00362005,0.170616,20.8129,79.1896,-0.250777,0.0,0.0
180,44.75,34.705,35.2603,157.29,99.2138,102.409,0.00358536,0.168323,20.816,79.1696,-0.280632,0.0,0.0
183,45.5,34.4409,34.8816,164.243,99.286,102.865,0.00354795,0.165882,20.8195,79.1696,-0.313516,0.0,0.0
186,46.25,34.6188,35.2224,158.313,99.3479,102.702,0.00350323,0.163416,20.8238,79.0595,-0.294003,0.0,0.0
189,47,34.4869,35.4436,164.593,99.4177,102.923,0.00346452,0.161004,20.8281,79.1196,-0.306789,0.0,0.0
192,47.75,34.8849,35.4627,154.775,99.5121,102.869,0.00343369,0.158153,20.8321,79.1296,-0.293741,0.0,0.0
195,48.5,34.8636,35.2619,162.91,99.5779,103.199,0.0034051,0.155267,20.8354,79.0895,-0.31618,0.0,0.0
198,49.25,34.408,35.146,166.314,99.6253,103.16,0.00337715,0.152424,20.8386,78.9894,-0.308651,0.0,0.0
201,50,34.484,35.2778,161.285,99.7153,103.39,0.00334907,0.149678,20.8428,79.0295,-0.320425,0.0,0.0
204,50.75,34.4632,35.3414,160.952,99.7755,103.393,0.00332494,0.146872,20.8459,79.0795,-0.315318,0.0,0.0
207,51.5,34.3105,35.0757,159.503,99.8406,103.779,0.00330578,0.144483,20.849,79.0495,-0.34251,0.0,0.0
210,52.25,34.018,35.0399,158.942,99.9,104.137,0.00330159,0.14127,20.8529,78.9894,-0.367704,0.0,0.0
213,53,34.4519,35.116,163.281,99.965,103.78,0.00330206,0.1385,20.8579,78.9694,-0.331598,0.0,0.0
216,53.75,34.0734,35.5238,164.011,100.025,104.38,0.00330131,0.135747,20.8622,79.0295,-0.377289,0.0,0.0
219,54.5,33.7668,34.8464,165.712,100.077,103.768,0.00328158,0.13374,20.8675,78.9995,-0.320573,0.0,0.0
222,55.25,33.6336,35.3742,162.76,100.121,104.628,0.00324662,0.130063,20.8723,78.9694,-0.389755,0.0,0.0
225,56,33.7427,35.1785,158.673,100.163,103.935,0.00318596,0.126346,20.8783,78.9194,-0.3273,0.0,0.0
228,56.75,33.9094,35.1397,166.662,100.238,102.756,0.00311245,0.122176,20.8836,78.9894,-0.219568,0.0,0.0
231,57.5,33.7538,35.0809,164.911,100.265,102.975,0.00303611,0.118702,20.889,78.9694,-0.236183,0.0,0.0
234,58.25,33.7216,34.6896,160.567,100.299,103.491,0.00296289,0.11482,20.8948,78.9494,-0.277347,0.0,0.0
237,59,33.1006,34.596,164.96,100.324,103.783,0.00289734,0.111627,20.8999,78.8793,-0.300136,0.0,0.0
240,59.75,33.2438,34.4869,167.111,100.362,104.497,0.0028472,0.108679,20.9043,78.9594,-0.357396,0.0,0.0
243,60.5,33.1462,34.5254,163.779,100.391,104.457,0.00280963,0.106007,20.9081,78.9594,-0.351527,0.0,0.0
246,61.25,33.2472,34.8527,162.792,100.405,103.632,0.00276884,0.103807,20.9113,78.9594,-0.280024,0.0,0.0
249,62,32.7306,34.5694,163.187,100.424,104.872,0.00273339,0.10197,20.9138,78.8693,-0.383691,0.0,0.0
252,62.75,32.8219,34.0747,162.144,100.445,104.634,0.00268322,0.100417,20.9156,78.9494,-0.36166,0.0,0.0
255,63.5,32.4355,34.1374,161.3,100.451,104.426,0.00264178,0.0991724,20.9172,78.9394,-0.343572,0.0,0.0
258,64.25,32.7764,34.4594,162.076,100.45,104.345,0.00260244,0.0982174,20.9187,78.9394,-0.336804,0.0,0.0
261,65,32.6095,34.3986,169.631,100.446,104.577,0.00256171,0.097465,20.9198,78.8393,-0.356816,0.0,0.0
264,65.75,32.1002,34.1212,162.846,100.441,104.49,0.00250251,0.0968556,20.9206,78.9094,-0.349904,0.0,0.0
267,66.5,32.1754,34.0905,167.312,100.444,104.722,0.0024326,0.0963482,20.9212,78.8894,-0.369248,0.0,0.0
270,67.25,32.185,33.7632,161.164,100.432,104.776,0.00235808,0.0959383,20.9216,78.8994,-0.374845,0.0,0.0
273,68,32.2468,33.7736,164.792,100.415,105.129,0.00228297,0.0955974,20.9219,78.8393,-0.406109,0.0,0.0
276,68.75,32.4443,33.6975,163.037,100.392,104.755,0.00222055,0.095353,20.9222,78.8994,-0.376614,0.0,0.0
279,69.5,32.0735,33.4011,161.765,100.396,104.706,0.00216193,0.0952128,20.9223,78.9094,-0.372121,0.0,0.0
282,70.25,31.73,33.6641,162.925,100.357,104.585,0.00213612,0.0953108,20.9225,78.9194,-0.365351,0.0,0.0
285,71,32.282,33.7197,163.435,100.32,104.958,0.00212453,0.0955153,20.9225,78.8693,-0.400171,0.0,0.0
288,71.75,31.7506,33.5214,162.028,100.291,105.052,0.00215422,0.0958918,20.922,78.9094,-0.410616,0.0,0.0
291,72.5,31.7204,33.0741,165.063,100.269,105.359,0.00219532,0.0962914,20.9211,78.9194,-0.438363,0.0,0.0
294,73.25,31.6222,33.1619,161.582,100.229,104.516,0.00223998,0.0967964,20.9201,78.8693,-0.370786,0.0,0.0
297,74,31.5076,33.1866,161.968,100.189,104.406,0.00228349,0.0973755,20.9191,78.8493,-0.364977,0.0,0.0
300,74.75,31.147,32.6118,159.001,100.146,104.722,0.00231521,0.0980357,20.918,78.8593,-0.395551,0.0,0.0
303,75.5,30.8026,32.7458,163.359,100.114,104.6,0.00234354,0.0987701,20.9175,78.8894,-0.388143,0.0,0.0
306,76.25,30.844,32.8733,160.853,100.087,104.61,0.00236355,0.0995308,20.9173,78.8793,-0.391351,0.0,0.0
309,77,31.3541,32.7521,159.155,100.027,104.362,0.00237704,0.100181,20.9159,78.8793,-0.37557,0.0,0.0
312,77.75,30.7772,32.8837,168.629,99.9879,104.385,0.00237993,0.100951,20.9149,78.7993,-0.381034,0.0,0.0
315,78.5,31.2178,32.805,162.245,99.9514,103.765,0.00237884,0.101728,20.9141,78.8793,-0.331535,0.0,0.0
318,79.25,30.6852,32.7119,167.438,99.9036,104.274,0.00237257,0.102446,20.9136,78.8793,-0.379096,0.0,0.0
321,80,31.1675,32.646,166.513,99.8703,103.981,0.00236279,0.103125,20.9132,78.8493,-0.357142,0.0,0.0
324,80.75,30.6267,32.7835,161.04,99.8173,104.528,0.00234837,0.103686,20.9129,78.7692,-0.408276,0.0,0.0
327,81.5,31.137,32.4189,166.757,99.8,104.199,0.00233474,0.104075,20.9127,78.8493,-0.381833,0.0,0.0
330,82.25,30.8798,32.274,163.339,99.7538,103.843,0.0023092,0.104203,20.9125,78.8493,-0.355645,0.0,0.0
333,83,30.951,32.3405,162.358,99.7213,103.886,0.00227266,0.104231,20.9124,78.8393,-0.362184,0.0,0.0
336,83.75,30.7313,32.3889,163.331,99.6787,104.52,0.00221541,0.103889,20.9123,78.7392,-0.419861,0.0,0.0
339,84.5,30.8017,32.2927,162.133,99.6546,104.121,0.0021421,0.103442,20.9125,78.8193,-0.388126,0.0,0.0
342,85.25,30.2625,32.4154,157.706,99.6338,104.269,0.00206371,0.103033,20.913,78.8293,-0.402566,0.0,0.0
345,86,30.5942,32.1416,167.621,99.6257,103.601,0.0019869,0.102433,20.9134,78.8293,-0.346428,0.0,0.0
348,86.75,30.6892,32.4648,164.007,99.6129,103.8,0.00193091,0.101944,20.9141,78.7392,-0.364548,0.0,0.0
351,87.5,30.7512,32.1833,159.629,99.6791,103.841,0.00189737,0.101499,20.9148,78.7893,-0.362157,0.0,0.0
354,88.25,30.2297,32.3405,160.509,99.7598,104.398,0.00187858,0.100994,20.9153,78.8393,-0.402357,0.0,0.0
357,89,30.6092,31.863,164.773,99.8221,104.207,0.00187204,0.100471,20.916,78.8193,-0.380587,0.0,0.0
360,89.75,30.5221,32.5475,160.047,99.8739,104.463,0.00186512,0.099972,20.9168,78.7392,-0.397692,0.0,0.0
363,90.5,30.2739,31.4704,162.561,99.9237,104.34,0.00186117,0.0995197,20.9174,78.7392,-0.382852,0.0,0.0
366,91.25,30.2444,32.2327,167.452,99.9875,104.295,0.00186799,0.0990916,20.9178,78.7893,-0.373402,0.0,0.0
369,92,30.1642,32.0437,163.793,100.016,104.453,0.00188733,0.0988434,20.9181,78.8093,-0.384236,0.0,0.0
372,92.75,30.4163,32.1288,161.75,100.063,104.594,0.00191891,0.0984564,20.9184,78.7592,-0.391993,0.0,0.0
375,93.5,30.6903,31.7927,163.076,100.065,104.309,0.00196965,0.0981595,20.9185,78.7192,-0.367694,0.0,0.0
378,94.25,29.7734,31.9396,162.311,100.098,104.751,0.00202365,0.0979178,20.9187,78.7893,-0.402256,0.0,0.0
381,95,30.2412,31.9344,164.429,100.121,104.584,0.00207603,0.0978818,20.9188,78.7893,-0.386089,0.0,0.0
384,95.75,29.8769,31.5419,164.139,100.119,104.578,0.00212407,0.0979518,20.9188,78.7893,-0.385789,0.0,0.0
387,96.5,29.6931,31.6929,163.795,100.12,104.617,0.00216613,0.0981673,20.9189,78.6892,-0.388959,0.0,0.0
390,97.25,30.1971,31.6784,161.223,100.123,104.351,0.00220882,0.0986052,20.9187,78.7692,-0.366211,0.0,0.0
393,98,30.3047,31.7118,160.831,100.122,104.643,0.00224636,0.0991496,20.9181,78.7692,-0.390985,0.0,0.0
396,98.75,29.9165,31.4268,164.601,100.104,104.838,0.00228467,0.0997313,20.917,78.7692,-0.409077,0.0,0.0
399,99.5,30.2192,31.7641,162.325,100.072,104.31,0.00230286,0.100307,20.9162,78.6992,-0.367169,0.0,0.0
402,100.25,29.9695,31.4419,161.915,100.057,104.772,0.00230429,0.100727,20.9156,78.7692,-0.407682,0.0,0.0
405,101,29.7573,31.3104,161.338,100.022,104.493,0.0022922,0.101118,20.9152,78.7492,-0.387208,0.0,0.0
408,101.75,29.9568,31.4764,164.578,99.9815,104.091,0.00225565,0.101417,20.9149,78.7292,-0.356641,0.0,0.0
411,102.5,29.5917,31.2268,162.351,99.9305,104.398,0.00221749,0.101596,20.9147,78.6892,-0.387225,0.0,0.0
414,103.25,29.3883,31.1614,162.745,99.8795,104.072,0.00216999,0.101627,20.9145,78.7492,-0.364013,0.0,0.0
417,104,29.9254,31.5977,161.372,99.8333,104.242,0.00212705,0.101612,20.9144,78.7592,-0.382596,0.0,0.0
420,104.75,29.5525,31.4285,162.802,99.7655,104.514,0.00208154,0.101538,20.9143,78.7692,-0.411648,0.0,0.0
423,105.5,29.8874,31.4463,160.087,99.6952,104.034,0.0020449,0.101363,20.9147,78.6992,-0.377154,0.0,0.0
426,106.25,29.7017,31.2292,167.168,99.6261,104.357,0.00202791,0.101162,20.9153,78.7192,-0.410715,0.0,0.0
429,107,29.7586,30.9089,163.008,99.5531,104.546,0.00201966,0.100889,20.9162,78.7392,-0.43324,0.0,0.0
432,107.75,29.9062,31.2182,165.599,99.4635,103.624,0.00203617,0.100549,20.9169,78.7292,-0.362804,0.0,0.0
435,108.5,29.5827,31.4615,163.308,99.3752,104.104,0.00206553,0.100204,20.9174,78.7092,-0.411603,0.0,0.0
438,109.25,29.4397,30.8069,165.171,99.2848,103.976,0.00208086,0.0998894,20.9179,78.6992,-0.408756,0.0,0.0
441,110,29.4364,30.9519,163.395,99.2748,103.963,0.00208944,0.0996037,20.9187,78.7192,-0.408501,0.0,0.0
444,110.75,29.3013,31.1291,166.487,99.2764,103.964,0.00207785,0.0993568,20.9192,78.7292,-0.408476,0.0,0.0
447,111.5,29.1239,30.9459,163.105,99.2949,104.265,0.00204395,0.0991514,20.9196,78.6992,-0.432414,0.0,0.0
450,112.25,29.3558,31.0774,161.64,99.2953,103.607,0.00199845,0.0989616,20.92,78.6591,-0.376361,0.0,0.0
453,113,29.4408,31.0943,162.512,99.3194,103.894,0.00196848,0.0987788,20.9202,78.7092,-0.398695,0.0,0.0
456,113.75,29.3085,30.8864,162.09,99.329,103.931,0.0019521,0.0986322,20.9204,78.7292,-0.400931,0.0,0.0
459,114.5,29.5554,30.771,164.078,99.3422,104.168,0.00197478,0.0984702,20.921,78.7292,-0.419921,0.0,0.0
462,115.25,29.3882,30.9948,161.578,99.3571,104.043,0.00201927,0.0983647,20.9216,78.6191,-0.407982,0.0,0.0
465,116,29.2025,30.8608,160.763,99.382,103.77,0.00207449,0.0982678,20.922,78.7192,-0.382509,0.0,0.0
468,116.75,29.1186,30.6908,162.375,99.4097,104.302,0.00213335,0.0981972,20.9224,78.6892,-0.425305,0.0,0.0
471,117.5,29.584,30.6071,161.821,99.435,104.31,0.00218964,0.0981531,20.9226,78.6792,-0.423724,0.0,0.0
474,118.25,29.0481,30.4476,165.283,99.4458,103.96,0.00223445,0.0981335,20.9228,78.5791,-0.392982,0.0,0.0
477,119,29.3598,30.6726,164.837,99.4896,104.359,0.00226384,0.0981594,20.9229,78.6491,-0.423013,0.0,0.0
480,119.75,29.1406,30.5824,165.142,99.5121,103.746,0.00226792,0.0982064,20.923,78.6692,-0.368861,0.0,0.0
483,120.5,29.4576,30.443,162.216,99.527,104.238,0.00227089,0.0982526,20.923,78.6591,-0.409412,0.0,0.0
486,121.25,28.856,30.6361,160.389,99.5458,104.405,0.00224011,0.0982262,20.9225,78.5691,-0.421963,0.0,0.0
489,122,29.0682,30.3601,164.474,99.5844,103.927,0.00221127,0.0983053,20.9219,78.6291,-0.377881,0.0,0.0
492,122.75,29.0871,30.5744,164.913,99.5976,104.096,0.00217932,0.0984049,20.9215,78.6291,-0.391094,0.0,0.0
495,123.5,29.3613,30.4847,164.809,99.6117,104.382,0.00216453,0.0986041,20.9212,78.6391,-0.414094,0.0,0.0
498,124.25,29.1882,30.951,161.79,99.6189,103.628,0.00215737,0.0988033,20.9209,78.5791,-0.349342,0.0,0.0
501,125,29.5306,30.7022,164.033,99.6306,104.111,0.00216066,0.0990287,20.9207,78.5891,-0.389474,0.0,0.0
504,125.75,29.3913,30.4025,169.524,99.6567,104.068,0.00217117,0.0992152,20.9206,78.6191,-0.383432,0.0,0.0
507,126.5,28.9822,30.7166,164.151,99.6791,104.529,0.00218648,0.0993892,20.9205,78.6191,-0.420614,0.0,0.0
510,127.25,29.0032,30.5679,160.641,99.6924,104.307,0.00220805,0.0995013,20.9205,78.5791,-0.400562,0.0,0.0
513,128,29.4191,30.5379,161.508,99.7028,104.051,0.00222378,0.0995576,20.9204,78.5491,-0.377943,0.0,0.0
516,128.75,29.3177,30.6108,164.601,99.7185,104.586,0.00223012,0.0995586,20.9204,78.6091,-0.421892,0.0,0.0
519,129.5,29.0708,30.384,159.862,99.7317,103.943,0.00222599,0.0995815,20.9204,78.5891,-0.366139,0.0,0.0
522,130.25,29.45,30.6915,163.14,99.7366,104.278,0.00220444,0.0996361,20.9203,78.5491,-0.394188,0.0,0.0
525,131,29.0376,30.1461,164.915,99.7321,104.288,0.00217953,0.0997161,20.9203,78.509,-0.39545,0.0,0.0
528,131.75,29.2511,30.4626,166.263,99.749,103.894,0.00213019,0.0997744,20.9203,78.5691,-0.36044,0.0,0.0
531,132.5,28.822,30.4264,161.534,99.741,104.327,0.00208937,0.0997888,20.9203,78.5891,-0.397948,0.0,0.0
534,133.25,29.1841,30.9394,158.452,99.739,104.107,0.00205754,0.0997877,20.9203,78.5791,-0.37949,0.0,0.0
537,134,28.8304,30.8378,160.439,99.7177,104.117,0.00203953,0.0998287,20.9203,78.489,-0.382211,0.0,0.0
540,134.75,28.9881,30.7028,159.156,99.7173,104.214,0.00202448,0.0998766,20.9203,78.5691,-0.39048,0.0,0.0
543,135.5,29.3459,30.2814,166.268,99.7165,104.179,0.00200768,0.0999717,20.9203,78.5691,-0.387543,0.0,0.0
546,136.25,29.0437,30.2628,160.685,99.6828,103.803,0.00199106,0.100055,20.9203,78.5591,-0.358579,0.0,0.0
549,137,29.4122,30.4416,162.931,99.6699,104.579,0.00198587,0.100122,20.9199,78.479,-0.425654,0.0,0.0
552,137.75,29.2042,30.5413,166.356,99.6526,104.314,0.00198208,0.100191,20.9193,78.5491,-0.404685,0.0,0.0
555,138.5,29.084,30.6304,169.5,99.6237,104.154,0.00202264,0.100241,20.9196,78.539,-0.393725,0.0,0.0
558,139.25,28.7642,30.3716,163.337,99.5984,104.333,0.00207773,0.100292,20.9198,78.539,-0.411162,0.0,0.0
561,140,29.1161,30.3397,162.515,99.5563,104.287,0.00213901,0.100355,20.9199,78.449,-0.411037,0.0,0.0
564,140.75,29.0831,30.5704,161.275,99.5354,104.433,0.00220121,0.100401,20.9194,78.539,-0.425221,0.0,0.0
567,141.5,29.2358,30.4124,159.001,99.4996,103.803,0.0022639,0.100464,20.9195,78.519,-0.374856,0.0,0.0
570,142.25,29.5406,30.1894,161.859,99.4623,103.617,0.00230839,0.10056,20.9197,78.519,-0.362276,0.0,0.0
573,143,29.1794,30.0984,165.305,99.4185,104.304,0.0023403,0.100671,20.9198,78.479,-0.424716,0.0,0.0
576,143.75,28.7564,30.2381,159.705,99.3812,103.554,0.00235328,0.100808,20.92,78.509,-0.364124,0.0,0.0
579,144.5,29.1361,30.6128,161.58,99.335,103.584,0.00234516,0.100939,20.9193,78.529,-0.370826,0.0,0.0
582,145.25,29.217,30.4194,162.227,99.3117,104.048,0.00233604,0.101047,20.9187,78.509,-0.412463,0.0,0.0
585,146,28.7981,29.9053,162.853,99.2483,103.6,0.00232392,0.101126,20.9181,78.459,-0.379953,0.0,0.0
588,146.75,29.2285,29.9928,159.46,99.2065,103.714,0.00232116,0.101164,20.9177,78.459,-0.393385,0.0,0.0
591,147.5,29.0705,30.4457,161.903,99.1688,103.637,0.00232303,0.101191,20.9174,78.499,-0.390152,0.0,0.0
594,148.25,29.0796,29.8774,160.823,99.1262,103.348,0.00232658,0.101169,20.9171,78.499,-0.369209,0.0,0.0
597,149,29.0865,30.0858,163.127,99.066,104.214,0.00231875,0.101123,20.917,78.499,-0.448494,0.0,0.0
600,149.75,29.4233,30.2239,158.681,99.0242,103.147,0.0022936,0.101039,20.9168,78.4289,-0.36111,0.0,0.0
603,150.5,29.1415,30.1166,162.164,98.9861,103.315,0.00225481,0.100897,20.9167,78.469,-0.37898,0.0,0.0
606,151.25,28.5252,30.2664,163.534,98.9383,103.341,0.00220576,0.10071,20.9173,78.469,-0.38545,0.0,0.0
609,152,29.2097,29.7557,162.032,98.8949,103.214,0.00215466,0.100537,20.9177,78.479,-0.378431,0.0,0.0
612,152.75,28.8256,29.5917,164.659,98.8447,103.721,0.00209118,0.10019,20.918,78.3989,-0.426286,0.0,0.0
615,153.5,28.5906,30.0135,163.375,98.7982,103.909,0.00202414,0.0998393,20.9182,78.469,-0.446506,0.0,0.0
618,154.25,29.2604,30.2869,163.166,98.7584,103.262,0.0019931,0.0994896,20.9183,78.459,-0.394816,0.0,0.0
621,155,28.7128,29.6882,161.575,98.717,103.293,0.00196139,0.0991461,20.9184,78.459,-0.40112,0.0,0.0
624,155.75,28.7403,29.5822,163.974,98.6725,102.988,0.00196376,0.0987973,20.9188,78.3789,-0.378972,0.0,0.0
627,156.5,28.6776,30.3914,162.053,98.6363,103.599,0.00198787,0.0984789,20.9197,78.439,-0.43455,0.0,0.0
630,157.25,28.7842,29.9764,160.502,98.6123,103.249,0.00202512,0.0982896,20.9203,78.449,-0.40681,0.0,0.0
633,158,28.5532,29.9383,160.986,98.5705,103.298,0.00206614,0.0980272,20.9207,78.4289,-0.414752,0.0,0.0
636,158.75,28.9801,29.9159,162.405,98.5376,103.02,0.00209605,0.0977612,20.9211,78.3188,-0.393847,0.0,0.0
639,159.5,29.0755,30.1688,162.744,98.5131,103.185,0.00211439,0.0974671,20.9213,78.3989,-0.410205,0.0,0.0
642,160.25,28.4771,29.9456,158.309,98.4966,103.08,0.00211196,0.0971965,20.9215,78.4089,-0.402649,0.0,0.0
645,161,28.7177,29.8175,161.015,98.4737,103.101,0.00209386,0.0969753,20.9216,78.4089,-0.406507,0.0,0.0
648,161.75,28.8601,29.6581,165.018,98.45,103.133,0.00206427,0.0966739,20.9223,78.3389,-0.411396,0.0,0.0
651,162.5,28.7072,29.7767,164.264,98.4299,103.523,0.00203751,0.0964246,20.9228,78.3789,-0.446643,0.0,0.0
654,163.25,28.7476,30.1005,164.381,98.4296,103.535,0.0020265,0.0961923,20.9232,78.4189,-0.447715,0.0,0.0
657,164,28.7874,29.7824,161.337,98.4235,103.282,0.00202721,0.0959429,20.9235,78.4089,-0.426565,0.0,0.0
660,164.75,28.6409,29.8028,158.833,98.4099,103.121,0.00203647,0.095733,20.9237,78.3389,-0.414008,0.0,0.0
663,165.5,28.8477,29.917,163.708,98.4018,103.201,0.00204322,0.0955532,20.9238,78.3389,-0.421605,0.0,0.0
666,166.25,28.6988,29.9578,157.544,98.4159,103.462,0.00204641,0.0953969,20.9239,78.3989,-0.442688,0.0,0.0
669,167,28.6699,29.8243,162.864,98.4372,103.099,0.00204874,0.0952829,20.924,78.4089,-0.409632,0.0,0.0
672,167.75,28.7873,30.2509,168.187,98.4299,103.499,0.00203311,0.0951999,20.9241,78.3689,-0.444612,0.0,0.0
675,168.5,28.8534,29.8833,161.242,98.4432,103.003,0.00202658,0.0950593,20.9245,78.3188,-0.400887,0.0,0.0
678,169.25,29.0061,30.1647,163.699,98.4818,102.728,0.00203092,0.0949567,20.9251,78.3789,-0.373731,0.0,0.0
681,170,28.7243,29.8847,160.465,98.4874,102.783,0.00204611,0.094882,20.9256,78.3689,-0.377921,0.0,0.0
684,170.75,29.1142,29.9908,161.162,98.5139,103.199,0.00207798,0.094798,20.9259,78.3689,-0.411372,0.0,0.0
687,171.5,29.0255,29.7794,162.914,98.5424,102.968,0.00210972,0.0946862,20.9261,78.2888,-0.38893,0.0,0.0
690,172.25,28.5499,29.9485,165.901,98.5865,103.467,0.00213648,0.0945627,20.9263,78.3689,-0.427788,0.0,0.0
693,173,28.7023,29.7838,163.488,98.6183,103.035,0.00214141,0.0944399,20.9265,78.3789,-0.387879,0.0,0.0
696,173.75,28.3651,29.7791,159.693,98.6548,103.348,0.002126,0.0943251,20.9266,78.3589,-0.411452,0.0,0.0
699,174.5,29.0699,29.7752,160.459,98.6978,103.215,0.0020929,0.0942014,20.9266,78.2788,-0.396179,0.0,0.0
702,175.25,28.8795,29.6532,163.316,98.7552,103.692,0.00207023,0.0940891,20.9267,78.3589,-0.431845,0.0,0.0
705,176,28.8312,29.8869,167.42,98.8038,103.793,0.00203666,0.0939694,20.9267,78.3489,-0.436155,0.0,0.0
708,176.75,28.8917,29.7957,165.66,98.8407,103.63,0.00202257,0.0939101,20.9267,78.3389,-0.418891,0.0,0.0
711,177.5,28.9312,29.6927,161.663,98.8921,103.74,0.00201838,0.0938789,20.9268,78.2888,-0.423713,0.0,0.0
714,178.25,28.8691,29.6898,162.792,98.9383,103.24,0.00201791,0.0938629,20.9268,78.3489,-0.376827,0.0,0.0
717,179,28.5598,29.5748,165.358,99.0066,103.573,0.00201756,0.0938024,20.9268,78.3489,-0.399233,0.0,0.0
720,179.75,29.0931,29.8364,167.886,99.0825,103.629,0.00201604,0.093637,20.927,78.3289,-0.397186,0.0,0.0
723,180.5,28.4349,29.8412,160.59,99.1198,104.074,0.00201274,0.0933398,20.9276,78.2788,-0.431768,0.0,0.0
726,181.25,29.0287,29.6643,166.616,99.172,103.773,0.00200167,0.0928832,20.928,78.3289,-0.401475,0.0,0.0
729,182,28.663,29.9311,158.306,99.2346,104.084,0.00197904,0.0924693,20.9283,78.3389,-0.422388,0.0,0.0
732,182.75,28.562,30.0728,163.49,99.2888,103.566,0.00194298,0.0920288,20.9285,78.3389,-0.37339,0.0,0.0
735,183.5,28.7698,29.8498,163.175,99.3523,104.123,0.0019142,0.0916657,20.9287,78.3088,-0.415226,0.0,0.0
738,184.25,27.3766,28.5583,165.142,99.4021,103.904,0.00190331,0.0913462,20.9288,78.3088,-0.392119,0.0,0.0
741,185,26.9387,28.4466,161.203,99.4647,104.393,0.00191137,0.0910503,20.9288,78.3289,-0.428113,0.0,0.0
744,185.75,26.8072,28.0028,164.923,99.529,104.214,0.00192605,0.0907347,20.9289,78.3489,-0.407216,0.0,0.0
747,186.5,27.2479,28.2944,161.479,99.5832,104.297,0.0019744,0.0904907,20.929,78.3389,-0.409435,0.0,0.0
750,187.25,26.7703,28.2602,163.94,99.6221,104.544,0.0020257,0.0903617,20.929,78.2788,-0.426903,0.0,0.0
753,188,27.0727,27.5553,163.669,99.6984,104.989,0.00210125,0.0902527,20.929,78.3289,-0.457752,0.0,0.0
756,188.75,26.907,27.9252,164.304,99.7474,104.442,0.00216849,0.0901659,20.9291,78.3289,-0.407134,0.0,0.0
759,189.5,26.9956,28.4822,160.874,99.7952,104.784,0.0022227,0.09009,20.9291,78.3389,-0.431826,0.0,0.0
762,190.25,27.1394,27.9101,167.815,99.841,104.328,0.00226157,0.0900346,20.9295,78.2488,-0.389156,0.0,0.0
765,191,27.2069,28.2263,165.21,99.9152,104.653,0.00228881,0.090009,20.9307,78.3188,-0.410117,0.0,0.0
768,191.75,26.8924,28.2775,159.261,99.945,104.878,0.00230521,0.0900156,20.9315,78.3088,-0.426533,0.0,0.0
771,192.5,27.1077,28.0802,165.895,99.9827,104.362,0.00231715,0.0900203,20.9321,78.3088,-0.379521,0.0,0.0
774,193.25,26.7348,27.6333,158.522,100.026,104.939,0.00232586,0.0899839,20.9325,78.2388,-0.424501,0.0,0.0
777,194,25.832,28.0042,163.819,100.077,105.014,0.00234089,0.0899293,20.9328,78.3088,-0.426277,0.0,0.0
780,194.75,27.1811,27.7562,167.132,100.11,105.224,0.00234864,0.0898849,20.9331,78.3188,-0.441092,0.0,0.0
783,195.5,26.8432,28.1769,163.124,100.161,104.844,0.00234882,0.0898652,20.9332,78.2988,-0.404513,0.0,0.0
786,196.25,26.8599,27.9585,166.384,100.176,105.329,0.00232835,0.0898788,20.9329,78.2188,-0.444083,0.0,0.0
789,197,26.7728,28.1642,163.682,100.211,105.171,0.00230016,0.0899007,20.9325,78.2888,-0.427714,0.0,0.0
792,197.75,27.0603,28.5939,164.457,100.238,105.202,0.00227195,0.0899366,20.9324,78.2988,-0.42789,0.0,0.0
795,198.5,26.7196,27.7516,162.311,100.277,105.583,0.00226178,0.0899068,20.9324,78.2888,-0.456455,0.0,0.0
798,199.25,27.0828,27.5911,161.067,100.288,104.75,0.00226775,0.0898611,20.9323,78.2088,-0.385352,0.0,0.0
801,200,27.0092,28.0349,164.439,100.322,104.892,0.00227781,0.0898697,20.9323,78.2288,-0.394377,0.0,0.0
804,200.75,27.0272,27.3247,167.536,100.353,105.501,0.00228392,0.0899039,20.9323,78.2788,-0.442885,0.0,0.0
807,201.5,27.1281,27.6138,162.989,100.357,105.117,0.00227762,0.0899407,20.9323,78.2688,-0.410223,0.0,0.0
810,202.25,26.7809,27.3652,160.895,100.371,105.202,0.00225552,0.0899876,20.9323,78.2188,-0.416198,0.0,0.0
813,203,27.2597,28.0001,161.445,100.383,105.112,0.00220647,0.0899938,20.9323,78.1987,-0.407564,0.0,0.0
816,203.75,26.9044,27.6419,165.77,100.424,105.613,0.00215736,0.0899863,20.9323,78.2688,-0.445992,0.0,0.0
819,204.5,26.2527,27.6386,163.84,100.412,105.055,0.00211778,0.0900208,20.9323,78.2588,-0.400227,0.0,0.0
822,205.25,26.8957,27.7818,161.996,100.414,105.672,0.0020922,0.090032,20.9323,78.2288,-0.451795,0.0,0.0
825,206,26.7821,27.726,165.491,100.415,105.244,0.00209907,0.0900341,20.9323,78.1787,-0.415831,0.0,0.0
828,206.75,27.1758,27.8798,161.47,100.426,105.705,0.00211495,0.0900357,20.9323,78.2688,-0.453574,0.0,0.0
831,207.5,26.5655,27.6735,167.431,100.421,105.375,0.00216659,0.0900968,20.9323,78.2588,-0.426337,0.0,0.0
834,208.25,26.9016,27.8333,167.45,100.427,104.86,0.00223284,0.090156,20.9323,78.2488,-0.382425,0.0,0.0
837,209,26.8545,27.4904,160.749,100.41,105.089,0.00230085,0.0902244,20.932,78.1787,-0.403269,0.0,0.0
840,209.75,26.4291,27.7875,164.82,100.422,105.333,0.0023539,0.090259,20.9319,78.2588,-0.422744,0.0,0.0
843,210.5,26.7514,28.0503,160.358,100.41,105.495,0.00238284,0.0902777,20.9317,78.2588,-0.437383,0.0,0.0
846,211.25,26.7381,27.9581,163.395,100.388,105.358,0.00239018,0.0902633,20.9316,78.2488,-0.427796,0.0,0.0
849,212,27.1047,27.516,164.36,100.369,105.131,0.0023791,0.0902269,20.9316,78.1587,-0.410373,0.0,0.0
852,212.75,26.3318,27.7768,161.28,100.356,105.525,0.00237102,0.0901944,20.9315,78.2388,-0.444668,0.0,0.0
855,213.5,26.5411,27.7249,165.591,100.35,105.338,0.00230271,0.0901706,20.9311,78.2288,-0.429478,0.0,0.0
858,214.25,26.9063,27.6818,162.103,100.325,105.043,0.0022529,0.0901254,20.9305,78.2288,-0.406861,0.0,0.0
861,215,26.5843,27.85,164.287,100.298,104.747,0.00215771,0.0900804,20.9301,78.1687,-0.384194,0.0,0.0
864,215.75,26.9676,27.6944,164.923,100.284,104.914,0.00207132,0.0900616,20.9299,78.2288,-0.399631,0.0,0.0
867,216.5,26.8156,28.2372,159.539,100.263,105.456,0.00198898,0.0900539,20.9297,78.2388,-0.447063,0.0,0.0
870,217.25,26.7589,27.4707,159.789,100.239,104.941,0.00190821,0.0901282,20.9301,78.2288,-0.405881,0.0,0.0
873,218,26.6478,27.208,165.877,100.208,105.629,0.00182686,0.0901897,20.9305,78.1887,-0.466423,0.0,0.0
876,218.75,26.6449,27.46,161.325,100.175,105.085,0.00177138,0.0902471,20.9307,78.2188,-0.423655,0.0,0.0
879,219.5,26.6975,27.0861,164.043,100.157,104.925,0.00173748,0.090269,20.9309,78.2388,-0.41174,0.0,0.0
882,220.25,26.769,27.3822,161.42,100.132,105.666,0.00174735,0.090243,20.931,78.2288,-0.476175,0.0,0.0
885,221,26.9316,27.8906,161.957,100.097,104.911,0.00175455,0.0902061,20.9311,78.2188,-0.415855,0.0,0.0
888,221.75,26.4887,27.533,165.575,100.07,104.889,0.00180306,0.0902072,20.9312,78.1887,-0.416384,0.0,0.0
891,222.5,26.1107,27.8335,160.096,100.045,105.173,0.00185664,0.09022,20.9313,78.2388,-0.442609,0.0,0.0
894,223.25,26.7008,27.616,163.273,100.025,104.693,0.00188947,0.0902293,20.9313,78.2188,-0.403836,0.0,0.0
897,224,27.1632,27.3332,163.837,99.9783,105.029,0.00194126,0.0902161,20.9307,78.2188,-0.436351,0.0,0.0
900,224.75,26.6246,27.4428,162.435,99.9353,104.795,0.0019863,0.0902285,20.9303,78.1587,-0.420347,0.0,0.0
903,225.5,26.7264,27.458,162.653,99.9169,104.835,0.00202346,0.0902754,20.9299,78.2188,-0.425406,0.0,0.0
906,226.25,26.9695,27.3262,162.708,99.8956,104.812,0.00205107,0.0903414,20.9297,78.2088,-0.425365,0.0,0.0
909,227,26.5498,27.5091,162.981,99.8578,104.197,0.00206773,0.0904251,20.9296,78.2288,-0.376547,0.0,0.0
912,227.75,26.8011,28.0529,162.48,99.8112,105.106,0.00207987,0.0904986,20.9294,78.1387,-0.45763,0.0,0.0
915,228.5,26.766,27.6735,162.349,99.8036,104.562,0.00209219,0.0904923,20.9293,78.2188,-0.412326,0.0,0.0
918,229.25,26.9755,27.2973,165.703,99.7695,105.167,0.00210117,0.0904317,20.9293,78.2188,-0.466473,0.0,0.0
921,230,26.341,27.692,162.434,99.7362,104.641,0.00210836,0.0903636,20.9292,78.2088,-0.424975,0.0,0.0
924,230.75,26.7809,27.2484,163.927,99.7,105.001,0.00211469,0.090286,20.9292,78.1287,-0.45863,0.0,0.0
927,231.5,26.8583,27.702,161.837,99.6799,104.55,0.00212797,0.0902322,20.9296,78.2088,-0.422278,0.0,0.0
930,232.25,26.7618,27.3826,163.442,99.6655,105.008,0.00214738,0.0902182,20.9301,78.1987,-0.462287,0.0,0.0
933,233,27.2897,27.7692,160.937,99.645,104.842,0.00216567,0.090138,20.9304,78.1887,-0.450115,0.0,0.0
936,233.75,26.1233,27.7507,161.238,99.6221,104.169,0.00218768,0.0900349,20.9307,78.1087,-0.395133,0.0,0.0
939,234.5,26.7767,27.9406,163.444,99.5888,104.9,0.00219925,0.0899272,20.9309,78.1587,-0.460027,0.0,0.0
942,235.25,26.7453,27.653,165.327,99.5771,104.802,0.00220002,0.0898361,20.931,78.1887,-0.452764,0.0,0.0
945,236,26.2225,27.6723,161.643,99.5964,104.817,0.00219354,0.0898296,20.9311,78.1887,-0.452309,0.0,0.0
948,236.75,26.5662,27.8834,162.045,99.6554,104.432,0.00217679,0.0898248,20.9305,78.1087,-0.414509,0.0,0.0
951,237.5,26.8733,27.3924,162.148,99.7024,104.752,0.00213685,0.0898414,20.93,78.1187,-0.437381,0.0,0.0
954,238.25,26.3328,27.3166,161.957,99.7562,104.267,0.00209304,0.0898534,20.9297,78.1787,-0.391533,0.0,0.0
957,239,27.0422,27.5885,159.364,99.8064,104.955,0.00203598,0.0898622,20.9294,78.1787,-0.445338,0.0,0.0
960,239.75,26.6245,27.6839,166.514,99.8418,105.247,0.0019615,0.0898465,20.9292,78.1087,-0.466764,0.0,0.0
963,240.5,26.7944,27.9371,156.208,99.8707,104.565,0.00190401,0.0897972,20.9293,78.0987,-0.406656,0.0,0.0
966,241.25,25.8148,27.7566,164.552,99.9201,104.755,0.00185665,0.0897613,20.9298,78.1687,-0.418353,0.0,0.0
969,242,26.1535,27.7914,163.274,99.9518,105.177,0.00184031,0.0897491,20.9301,78.1687,-0.451134,0.0,0.0
972,242.75,26.9366,27.2614,162.606,99.9811,105.063,0.00185596,0.0897463,20.9304,78.1487,-0.438928,0.0,0.0
975,243.5,26.6014,27.7625,161.77,99.996,104.682,0.00190124,0.0897242,20.9306,78.0987,-0.40541,0.0,0.0
978,244.25,25.9428,27.3609,171.172,100.051,105.538,0.00196083,0.0896859,20.9306,78.1487,-0.472682,0.0,0.0
981,245,26.3232,27.3297,164.674,100.057,105.117,0.00204504,0.0896203,20.9308,78.1687,-0.436687,0.0,0.0
984,245.75,26.7073,27.5831,160.05,100.073,105.027,0.00214103,0.0895724,20.9308,78.1787,-0.427728,0.0,0.0
987,246.5,26.4716,27.4052,168.912,100.082,105.35,0.00222524,0.089567,20.9309,78.0886,-0.454152,0.0,0.0
990,247.25,26.4433,27.6591,165.434,100.109,105.11,0.00228836,0.0895996,20.9309,78.1687,-0.431553,0.0,0.0
993,248,26.7175,27.4885,159.964,100.113,105.059,0.00233438,0.0896372,20.931,78.1687,-0.42692,0.0,0.0
996,248.75,26.5261,27.2108,159.715,100.11,105.1,0.00234603,0.0896366,20.931,78.1687,-0.430622,0.0,0.0
999,249.5,27.0147,27.731,161.534,100.106,105.044,0.00234518,0.0896169,20.931,78.0686,-0.426307,0.0,0.0
1002,250.25,26.1265,27.819,165.305,100.11,105.238,0.00232027,0.0895899,20.931,78.1487,-0.442303,0.0,0.0
1005,251,26.6465,27.3584,161.502,100.12,105.291,0.00228651,0.0895703,20.931,78.1487,-0.445806,0.0,0.0
1008,251.75,26.5075,27.4289,162.711,100.109,105.188,0.00224489,0.0895559,20.931,78.1487,-0.438106,0.0,0.0
1011,252.5,26.3502,27.4022,161.379,100.094,104.88,0.00220729,0.0894856,20.931,78.0987,-0.41347,0.0,0.0
1014,253.25,26.7421,27.2977,162.294,100.077,104.866,0.0021435,0.0894269,20.931,78.1487,-0.413817,0.0,0.0
1017,254,26.2865,27.1747,162.648,100.079,105.384,0.00206908,0.0893716,20.931,78.1487,-0.457332,0.0,0.0
1020,254.75,26.8101,27.0151,161.634,100.061,105.227,0.00200293,0.0893112,20.931,78.1487,-0.445696,0.0,0.0
1023,255.5,26.5652,27.4562,160.679,100.03,105.058,0.00193046,0.0892813,20.931,78.0987,-0.434199,0.0,0.0
1026,256.25,26.7824,27.5033,163.073,100.006,105.049,0.00186281,0.0892654,20.931,78.1287,-0.435511,0.0,0.0
1029,257,26.5199,28.1011,160.918,99.9759,105.157,0.00180586,0.0892538,20.931,78.1487,-0.447276,0.0,0.0
1032,257.75,26.7502,27.4363,162.299,99.9578,104.754,0.00176953,0.0892454,20.931,78.1487,-0.414931,0.0,0.0
1035,258.5,26.7227,27.3967,163.745,99.9181,104.682,0.00174305,0.0892392,20.9317,78.1287,-0.412388,0.0,0.0
1038,259.25,26.7592,27.1676,162.108,99.8723,105.036,0.00174678,0.0891549,20.9321,78.1087,-0.446292,0.0,0.0
1041,260,26.7864,27.5104,159.542,99.8526,104.743,0.00175932,0.0890794,20.9324,78.1387,-0.42327,0.0,0.0
1044,260.75,26.739,27.6057,164.791,99.8108,105.279,0.00178923,0.0890184,20.9327,78.1287,-0.472209,0.0,0.0
1047,261.5,26.3577,27.425,161.687,99.7727,104.921,0.00180861,0.0890299,20.9329,78.1287,-0.445422,0.0,0.0
1050,262.25,26.7464,27.8634,160.457,99.7301,104.641,0.0018217,0.0890622,20.933,78.0486,-0.425588,0.0,0.0
1053,263,26.3395,27.4128,163.666,99.6836,104.89,0.00182397,0.0890857,20.9328,78.1187,-0.450702,0.0,0.0
1056,263.75,26.6058,27.1599,161.546,99.6362,104.912,0.00182315,0.0891029,20.9324,78.1287,-0.456758,0.0,0.0
1059,264.5,26.6343,27.3782,162.042,99.5876,104.895,0.00182365,0.0891154,20.932,78.1287,-0.4597,0.0,0.0
1062,265.25,26.0158,27.5463,163.489,99.529,104.26,0.0018344,0.0891466,20.9317,78.0386,-0.411172,0.0,0.0
1065,266,26.6281,27.6178,159.563,99.486,104.407,0.00184951,0.0892071,20.9316,78.1387,-0.427404,0.0,0.0
1068,266.75,26.4306,26.918,160.789,99.4181,104.327,0.00186491,0.0892313,20.9314,78.1387,-0.42665,0.0,0.0
1071,267.5,26.5353,27.845,163.096,99.3675,104.276,0.00187832,0.0892209,20.9313,78.1287,-0.426847,0.0,0.0
1074,268.25,26.4261,27.6178,163.351,99.29,104.305,0.00188291,0.0891867,20.9312,78.0386,-0.436206,0.0,0.0
1077,269,27.0921,27.6354,162.076,99.2736,104.46,0.00188625,0.0891365,20.9312,78.1187,-0.450868,0.0,0.0
1080,269.75,26.9505,27.8716,162.741,99.2756,103.972,0.00185927,0.0891,20.9311,78.1287,-0.409222,0.0,0.0
1083,270.5,27.0537,27.2024,160.019,99.2892,104.623,0.0018262,0.0891293,20.9311,78.1187,-0.463236,0.0,0.0
1086,271.25,26.4313,27.4788,162.168,99.2949,104.418,0.00177917,0.0891746,20.9311,78.0386,-0.445416,0.0,0.0
1089,272,26.0716,27.2028,166.219,99.2977,104.301,0.00174489,0.0892275,20.9311,78.0987,-0.435169,0.0,0.0
1092,272.75,26.6059,27.3801,161.868,99.3218,104.174,0.00172717,0.0892662,20.9311,78.1287,-0.422261,0.0,0.0
1095,273.5,26.4307,27.0471,161.48,99.331,104.474,0.00171735,0.0892145,20.9311,78.1087,-0.446893,0.0,0.0
1098,274.25,26.4818,27.2106,159.512,99.3366,104.238,0.00172057,0.0891694,20.9311,78.0286,-0.426359,0.0,0.0
1101,275,26.901,27.0179,163.972,99.3262,104.315,0.00171928,0.0891239,20.931,78.0486,-0.433853,0.0,0.0
1104,275.75,26.7111,27.344,161.318,99.3447,104.07,0.00171679,0.0891108,20.931,78.1087,-0.41139,0.0,0.0
1107,276.5,26.5577,27.5338,162.447,99.3599,104.483,0.00171376,0.0890732,20.931,78.0987,-0.445106,0.0,0.0
1110,277.25,26.6444,27.4004,162.963,99.3732,104.152,0.00171678,0.0890044,20.931,78.0686,-0.415821,0.0,0.0
1113,278,26.4819,27.2865,165.504,99.3712,104.486,0.00172881,0.0889038,20.931,78.0386,-0.44438,0.0,0.0
1116,278.75,26.6021,27.3899,162.333,99.3977,104.559,0.00175072,0.0888026,20.9313,78.1087,-0.448134,0.0,0.0
1119,279.5,26.7015,27.2055,164.129,99.4073,104.52,0.00178306,0.0887168,20.9318,78.1087,-0.444042,0.0,0.0
1122,280.25,26.1939,27.6285,162.401,99.4254,104.148,0.00181866,0.0886144,20.9322,78.0886,-0.410854,0.0,0.0
1125,281,26.7018,27.5366,160.541,99.4354,104.444,0.00185682,0.0885397,20.9325,78.0386,-0.435027,0.0,0.0
1128,281.75,26.8819,27.4177,162.228,99.4563,104.441,0.00188464,0.0885016,20.9328,78.1087,-0.432971,0.0,0.0
1131,282.5,26.5439,27.089,160.293,99.4663,104.07,0.00190857,0.0884575,20.9331,78.1187,-0.400594,0.0,0.0
1134,283.25,26.5369,27.2322,161.667,99.4804,104.808,0.00192756,0.0884333,20.9336,78.0987,-0.461883,0.0,0.0
1137,284,26.5701,27.2031,162.726,99.4876,104.583,0.0019317,0.0884295,20.934,78.0186,-0.442217,0.0,0.0
1140,284.75,26.7235,27.5871,158.27,99.535,104.669,0.00192546,0.0883826,20.9342,78.0987,-0.445253,0.0,0.0
1143,285.5,26.6512,27.1735,162.857,99.5282,104.872,0.00191218,0.0882728,20.9344,78.0987,-0.46306,0.0,0.0
1146,286.25,26.6981,27.4251,163.789,99.5422,104.449,0.00188346,0.0881648,20.9346,78.0987,-0.425957,0.0,0.0
1149,287,26.4534,27.437,165.282,99.5442,104.369,0.00185282,0.0880741,20.9347,78.0186,-0.419025,0.0,0.0
1152,287.75,26.5757,27.4045,163.863,99.5647,104.628,0.00182634,0.088028,20.9348,78.0886,-0.439103,0.0,0.0
1155,288.5,26.2362,26.9271,167.113,99.5784,104.736,0.00180704,0.0880363,20.9348,78.0886,-0.447068,0.0,0.0
1158,289.25,26.1751,27.772,165.929,99.5964,104.169,0.00180335,0.0880676,20.9349,78.0886,-0.397418,0.0,0.0
1161,290,26.5001,27.3016,162.24,99.5924,104.695,0.00180194,0.088103,20.9349,78.0186,-0.442353,0.0,0.0
1164,290.75,26.4645,27.2539,163.525,99.6125,104.694,0.00180309,0.0881488,20.9349,78.0786,-0.440489,0.0,0.0
1167,291.5,26.4708,26.9628,161.993,99.6285,104.904,0.00180629,0.0882522,20.9349,78.0886,-0.456807,0.0,0.0
1170,292.25,26.5362,27.2938,163.694,99.6306,104.791,,0.0883573,,78.0886,-0.447072,0.0,0.0
1173,293,26.597,27.3818,159.374,99.6293,104.82,,0.0885138,,78.0486,-0.449658,0.0,0.0
1176,293.75,26.4953,27.1891,161.236,99.6326,104.901,,0.0885978,,78.0486,-0.456176,0.0,0.0
1179,294.5,26.6482,27.9048,163.669,99.6466,104.627,,0.0886074,,78.0886,-0.431744,0.0,0.0
1182,295.25,26.5268,27.0188,159.564,99.6538,104.621,,,,78.0686,-0.43059,0.0,0.0
1185,296,26.6504,27.1468,161.834,99.6651,105.247,,,,78.0586,-0.482483,0.0,0.0
1188,296.75,26.1542,26.9757,165.439,99.6691,104.704,,,,78.0086,-0.436286,0.0,0.0
1191,297.5,26.4727,27.1361,165.475,99.6864,104.938,,,,78.0686,-0.45454,0.0,0.0
1194,298.25,26.6433,27.5722,162.79,99.692,104.832,,,,78.0586,-0.445038,0.0,0.0
1197,299,26.5305,26.945,159.955,99.696,104.9,,,,78.0886,-0.450501,0.0,0.0
1200,299.75,26.2817,27.3384,165.326,99.688,104.804,,,,78.0086,-0.443113,0.0,0.0
1203,300.5,27.0253,27.2074,162.241,99.7024,105.04,,,,78.0686,-0.461675,0.0,0.0
1206,301.25,26.9856,27.1814,165.76,99.6968,104.914,,,,78.0987,-0.451569,0.0,0.0
1209,302,26.3796,27.5105,159.815,99.704,104.484,,,,78.0886,-0.414576,0.0,0.0
1211,302.5,26.6491,27.1698,161.121,99.6964,104.704,,,,78.0586,-0.433862,0.0,0.0