File: 01_Data/PP/MCC/PP_MCC_30K_min_210928_R3.txt
Sample ID:	C:\MCC\MCC Cal\Test\PP_MCC_30K_min_210928_R3.txt
Sample Weight (mg):	4.86
Heating Rate (C/s):	0.5
Combustor Temp (C):	900
N2 Flow Rate (cc/min):	80
O2 Flow Rate (cc/min):	20
Calibration File:	C:\MCC\MCC Cal\Coeff1 JN10440_30_210304.txt.txt
T Correction Coefficients:	0	1.024463	0
Time Shift (s):	14
*
Time (s)	Temperature (C)	N2 flow rate (cc/min)	O2 flow rate (cc/min)	Flow Rate (cc/min)	Oxygen (%)	HRR (W/g)	Heating rate (C/s)
0.000	107.565	80.006	19.995	100.175	20.099	0.337	0.001
2.000	107.576	80.007	19.996	100.174	20.101	0.219	-0.005
4.000	107.568	80.007	19.995	100.178	20.103	0.116	0.005
6.000	107.537	80.006	19.995	100.178	20.102	0.202	-0.011
8.000	107.533	80.005	19.994	100.187	20.101	0.267	-0.012
10.000	107.537	80.006	19.995	100.214	20.099	0.339	-0.009
12.000	107.576	80.005	19.995	100.213	20.097	0.520	0.027
14.000	107.533	80.005	19.994	100.224	20.095	0.642	-0.026
16.000	107.585	80.006	19.994	100.244	20.094	0.663	0.024
18.000	107.601	80.005	19.994	100.234	20.093	0.756	0.022
20.000	107.633	80.008	19.995	100.258	20.090	0.967	0.038
22.000	107.747	80.007	19.994	100.304	20.087	1.157	0.049
24.000	107.821	80.008	19.994	100.325	20.078	1.702	0.061
26.000	107.954	80.010	19.995	100.331	20.076	1.818	0.076
28.000	108.146	80.008	19.995	100.353	20.071	2.142	0.067
30.000	108.300	80.008	19.997	100.353	20.072	2.137	0.109
32.000	108.563	80.008	19.996	100.364	20.070	2.211	0.102
34.000	108.790	80.009	19.994	100.364	20.072	2.123	0.113
35.999	109.089	80.008	19.994	100.350	20.074	1.975	0.135
37.999	109.387	80.007	19.995	100.366	20.071	2.146	0.161
39.999	109.700	80.027	19.996	100.380	20.072	2.113	0.152
42.000	110.031	80.014	19.995	100.383	20.070	2.220	0.176
43.999	110.414	80.009	19.994	100.388	20.067	2.428	0.182
45.999	110.821	80.009	19.994	100.390	20.069	2.313	0.202
47.999	111.249	80.010	19.994	100.404	20.069	2.308	0.226
49.999	111.674	80.009	19.994	100.397	20.067	2.419	0.222
51.999	112.198	80.011	19.995	100.394	20.064	2.624	0.242
53.999	112.663	80.010	19.996	100.400	20.064	2.648	0.236
56.000	113.138	80.009	19.995	100.405	20.062	2.737	0.237
57.999	113.684	80.009	19.995	100.405	20.062	2.760	0.273
60.000	114.256	80.007	19.995	100.405	20.063	2.716	0.275
62.000	114.814	80.006	19.996	100.385	20.063	2.662	0.283
64.000	115.353	80.006	19.996	100.402	20.062	2.750	0.244
65.999	115.940	80.007	19.995	100.403	20.062	2.725	0.300
67.999	116.490	80.007	19.996	100.400	20.061	2.841	0.286
70.000	117.074	80.005	19.996	100.404	20.062	2.736	0.323
71.999	117.690	80.006	19.994	100.408	20.058	3.040	0.283
74.000	118.347	80.007	19.995	100.408	20.060	2.892	0.307
75.999	118.970	80.007	19.996	100.408	20.062	2.743	0.329
77.999	119.600	80.005	19.994	100.406	20.060	2.876	0.315
79.999	120.288	80.007	19.995	100.410	20.064	2.612	0.349
82.000	120.932	80.006	19.995	100.409	20.060	2.899	0.384
83.999	121.624	80.006	19.995	100.410	20.060	2.853	0.339
85.999	122.384	80.006	19.996	100.406	20.060	2.852	0.360
88.000	123.027	80.005	19.996	100.408	20.062	2.760	0.312
89.999	123.756	80.006	19.996	100.408	20.064	2.635	0.333
91.999	124.503	80.006	19.996	100.404	20.063	2.704	0.325
93.999	125.228	80.006	19.996	100.405	20.062	2.720	0.365
95.999	125.977	80.006	19.997	100.404	20.061	2.787	0.399
97.999	126.651	80.008	19.996	100.406	20.062	2.727	0.359
99.999	127.412	80.007	19.995	100.405	20.060	2.904	0.374
101.999	128.147	80.007	19.996	100.407	20.061	2.831	0.369
103.999	128.968	80.008	19.994	100.406	20.063	2.665	0.373
105.999	129.739	80.008	19.995	100.412	20.060	2.866	0.376
107.999	130.536	80.011	19.994	100.408	20.058	2.979	0.380
110.000	131.302	80.009	19.994	100.407	20.058	3.032	0.385
111.999	132.117	80.010	19.996	100.408	20.062	2.744	0.379
114.001	132.928	80.007	19.994	100.403	20.060	2.859	0.396
116.000	133.768	80.007	19.995	100.411	20.057	3.103	0.414
117.999	134.611	80.007	19.996	100.427	20.057	3.063	0.435
119.999	135.460	80.007	19.994	100.419	20.056	3.120	0.452
121.999	136.312	80.008	19.996	100.432	20.056	3.157	0.430
123.999	137.169	80.008	19.995	100.436	20.055	3.222	0.451
125.999	138.069	80.008	19.995	100.413	20.055	3.172	0.444
127.999	138.970	80.009	19.995	100.416	20.057	3.067	0.430
130.000	139.901	80.009	19.996	100.425	20.059	2.965	0.469
132.000	140.821	80.010	19.995	100.431	20.056	3.121	0.449
134.000	141.750	80.009	19.995	100.438	20.053	3.317	0.495
136.000	142.698	80.008	19.995	100.429	20.057	3.069	0.489
138.000	143.641	80.009	19.995	100.418	20.055	3.200	0.463
140.000	144.659	80.008	19.995	100.427	20.058	3.007	0.519
142.000	145.612	80.006	19.995	100.429	20.058	3.027	0.481
144.000	146.597	80.007	19.995	100.430	20.056	3.165	0.504
146.000	147.601	80.006	19.994	100.437	20.058	3.003	0.530
148.000	148.587	80.006	19.995	100.428	20.057	3.043	0.510
150.000	149.610	80.005	19.995	100.418	20.055	3.232	0.525
152.000	150.636	80.005	19.995	100.435	20.059	2.934	0.487
154.000	151.674	80.006	19.996	100.426	20.063	2.707	0.526
156.000	152.704	80.008	19.995	100.417	20.059	2.955	0.520
158.000	153.718	80.006	19.994	100.409	20.061	2.839	0.477
160.000	154.767	80.007	19.995	100.405	20.062	2.737	0.506
162.000	155.784	80.007	19.995	100.408	20.061	2.829	0.528
164.000	156.786	80.007	19.995	100.405	20.061	2.788	0.495
166.000	157.859	80.007	19.996	100.406	20.060	2.871	0.514
168.000	158.871	80.007	19.996	100.405	20.059	2.929	0.479
170.000	159.946	80.006	19.995	100.405	20.062	2.737	0.521
172.000	160.938	80.006	19.996	100.405	20.063	2.716	0.530
174.000	161.946	80.006	19.996	100.406	20.063	2.702	0.496
176.000	162.944	80.005	19.996	100.404	20.062	2.737	0.493
178.000	164.002	80.006	19.995	100.401	20.064	2.615	0.534
180.000	164.982	80.005	19.996	100.403	20.066	2.489	0.492
182.000	166.007	80.005	19.996	100.403	20.064	2.649	0.500
184.000	166.995	80.006	19.996	100.392	20.063	2.665	0.469
186.000	168.007	80.008	19.997	100.398	20.067	2.452	0.494
188.000	169.020	80.007	19.996	100.382	20.066	2.462	0.475
190.000	170.044	80.007	19.996	100.392	20.068	2.373	0.498
192.000	171.026	80.008	19.995	100.397	20.067	2.435	0.505
194.000	171.981	80.007	19.995	100.397	20.070	2.255	0.486
196.000	172.983	80.007	19.995	100.388	20.068	2.343	0.484
198.000	173.991	80.008	19.995	100.388	20.065	2.552	0.517
200.000	174.975	80.008	19.994	100.379	20.068	2.389	0.493
202.000	175.926	80.008	19.995	100.390	20.064	2.589	0.508
204.000	176.909	80.008	19.994	100.403	20.069	2.330	0.468
206.000	177.933	80.008	19.994	100.386	20.068	2.388	0.522
208.000	178.875	80.007	19.994	100.390	20.067	2.402	0.486
210.000	179.868	80.008	19.995	100.399	20.072	2.114	0.478
212.000	180.857	80.009	19.994	100.396	20.070	2.207	0.481
214.000	181.794	80.010	19.994	100.395	20.070	2.246	0.492
216.000	182.796	80.009	19.993	100.382	20.068	2.360	0.497
218.000	183.759	80.010	19.994	100.372	20.067	2.425	0.487
220.000	184.750	80.010	19.995	100.378	20.068	2.346	0.495
222.000	185.723	80.009	19.996	100.376	20.069	2.309	0.495
224.000	186.733	80.008	19.995	100.381	20.072	2.117	0.477
226.000	187.714	80.006	19.995	100.374	20.070	2.217	0.481
228.000	188.692	80.006	19.995	100.375	20.069	2.270	0.503
230.000	189.653	80.007	19.995	100.376	20.071	2.181	0.490
232.000	190.656	80.007	19.996	100.376	20.070	2.233	0.502
234.000	191.596	80.006	19.994	100.371	20.071	2.158	0.475
236.000	192.595	80.008	19.996	100.367	20.070	2.233	0.508
238.000	193.604	80.007	19.996	100.369	20.072	2.101	0.500
240.000	194.613	80.007	19.994	100.370	20.069	2.291	0.474
242.000	195.553	80.007	19.995	100.367	20.071	2.145	0.486
244.000	196.522	80.008	19.995	100.374	20.069	2.288	0.484
246.000	197.477	80.008	19.996	100.375	20.069	2.314	0.451
248.000	198.484	80.006	19.995	100.371	20.072	2.135	0.481
250.000	199.468	80.006	19.995	100.371	20.070	2.260	0.506
252.000	200.438	80.006	19.995	100.371	20.069	2.288	0.509
254.000	201.407	80.007	19.996	100.368	20.070	2.258	0.494
256.000	202.402	80.006	19.995	100.372	20.071	2.167	0.515
258.000	203.401	80.006	19.995	100.373	20.071	2.200	0.498
260.000	204.354	80.006	19.996	100.370	20.071	2.184	0.483
262.000	205.350	80.005	19.995	100.369	20.068	2.332	0.503
264.000	206.372	80.006	19.995	100.371	20.070	2.251	0.461
266.000	207.348	80.007	19.996	100.377	20.071	2.161	0.520
268.000	208.352	80.007	19.995	100.378	20.069	2.270	0.494
270.000	209.343	80.008	19.995	100.369	20.071	2.138	0.541
272.000	210.318	80.008	19.995	100.369	20.073	2.022	0.473
274.000	211.287	80.007	19.995	100.370	20.073	2.013	0.487
276.000	212.314	80.007	19.995	100.368	20.071	2.163	0.487
278.000	213.293	80.007	19.996	100.373	20.070	2.251	0.503
280.000	214.286	80.007	19.996	100.365	20.071	2.145	0.496
282.000	215.262	80.006	19.995	100.368	20.073	2.026	0.519
284.000	216.260	80.007	19.995	100.366	20.074	1.959	0.509
286.000	217.281	80.008	19.995	100.360	20.075	1.883	0.523
288.000	218.260	80.007	19.995	100.366	20.074	2.006	0.502
290.000	219.187	80.007	19.996	100.365	20.070	2.221	0.455
292.000	220.249	80.007	19.995	100.360	20.075	1.915	0.526
294.000	221.259	80.009	19.995	100.362	20.077	1.811	0.500
296.000	222.236	80.011	19.995	100.363	20.076	1.829	0.508
298.000	223.216	80.010	19.994	100.363	20.077	1.804	0.507
300.000	224.243	80.010	19.995	100.362	20.075	1.924	0.494
302.000	225.228	80.009	19.995	100.359	20.076	1.874	0.522
304.000	226.200	80.008	19.994	100.352	20.075	1.922	0.460
306.000	227.225	80.007	19.995	100.358	20.075	1.934	0.507
308.000	228.214	80.007	19.996	100.360	20.076	1.857	0.511
310.000	229.229	80.006	19.995	100.358	20.078	1.711	0.505
312.000	230.239	80.006	19.996	100.358	20.076	1.853	0.505
314.000	231.237	80.005	19.995	100.361	20.076	1.867	0.503
316.000	232.233	80.008	19.995	100.361	20.075	1.915	0.504
318.000	233.231	80.008	19.995	100.355	20.076	1.871	0.484
320.000	234.178	80.007	19.995	100.345	20.074	1.973	0.483
322.000	235.189	80.007	19.996	100.347	20.078	1.702	0.480
324.000	236.163	80.008	19.995	100.348	20.075	1.883	0.488
326.000	237.148	80.007	19.995	100.350	20.075	1.927	0.489
328.000	238.117	80.006	19.996	100.351	20.076	1.825	0.506
330.000	239.058	80.007	19.995	100.362	20.074	2.006	0.469
332.000	239.975	80.007	19.995	100.346	20.073	2.015	0.425
334.000	240.938	80.008	19.994	100.337	20.071	2.143	0.498
336.000	241.916	80.006	19.994	100.334	20.075	1.930	0.498
338.000	242.850	80.006	19.994	100.346	20.078	1.688	0.468
340.000	243.839	80.006	19.995	100.339	20.080	1.598	0.497
342.000	244.761	80.006	19.994	100.344	20.078	1.723	0.472
344.000	245.736	80.006	19.995	100.350	20.077	1.802	0.474
346.000	246.654	80.006	19.995	100.344	20.076	1.846	0.483
348.000	247.621	80.006	19.995	100.344	20.078	1.690	0.502
350.000	248.562	80.008	19.995	100.344	20.079	1.662	0.468
352.000	249.564	80.007	19.996	100.345	20.078	1.726	0.503
354.000	250.588	80.008	19.996	100.357	20.078	1.688	0.479
356.000	251.511	80.007	19.996	100.345	20.077	1.757	0.485
358.000	252.485	80.008	19.994	100.353	20.076	1.820	0.471
360.000	253.425	80.009	19.995	100.361	20.078	1.721	0.485
362.000	254.383	80.008	19.995	100.343	20.075	1.913	0.479
364.000	255.374	80.008	19.995	100.344	20.073	2.034	0.485
366.000	256.308	80.008	19.995	100.359	20.076	1.853	0.464
368.000	257.279	80.009	19.996	100.362	20.078	1.695	0.472
370.000	258.224	80.008	19.995	100.343	20.081	1.542	0.481
372.000	259.214	80.008	19.995	100.338	20.080	1.612	0.479
374.000	260.174	80.007	19.997	100.351	20.081	1.510	0.494
376.000	261.110	80.008	19.995	100.352	20.080	1.587	0.451
378.000	262.126	80.008	19.996	100.337	20.077	1.781	0.501
380.000	263.070	80.008	19.995	100.333	20.079	1.638	0.475
382.000	264.057	80.009	19.996	100.347	20.078	1.695	0.507
384.000	265.014	80.008	19.996	100.337	20.075	1.888	0.486
386.000	266.014	80.008	19.995	100.331	20.079	1.646	0.490
388.000	266.972	80.009	19.995	100.332	20.080	1.558	0.491
390.000	267.925	80.007	19.994	100.338	20.080	1.579	0.489
392.000	268.917	80.007	19.994	100.336	20.081	1.551	0.473
394.000	269.880	80.006	19.994	100.339	20.082	1.447	0.467
396.000	270.883	80.007	19.995	100.354	20.080	1.572	0.503
398.000	271.871	80.007	19.995	100.332	20.083	1.417	0.482
400.000	272.855	80.008	19.995	100.338	20.080	1.600	0.479
402.000	273.850	80.008	19.994	100.334	20.082	1.486	0.507
404.000	274.880	80.007	19.994	100.338	20.080	1.563	0.539
406.000	275.862	80.007	19.994	100.338	20.077	1.765	0.492
408.000	276.835	80.006	19.995	100.342	20.078	1.723	0.502
410.000	277.850	80.008	19.994	100.351	20.078	1.742	0.513
412.000	278.849	80.006	19.995	100.349	20.079	1.647	0.530
414.000	279.853	80.009	19.995	100.351	20.078	1.696	0.525
416.000	280.860	80.008	19.994	100.345	20.078	1.703	0.504
418.000	281.807	80.008	19.995	100.357	20.079	1.626	0.469
420.000	282.818	80.006	19.994	100.334	20.081	1.551	0.513
422.000	283.821	80.008	19.995	100.330	20.077	1.804	0.490
424.000	284.809	80.008	19.996	100.332	20.079	1.642	0.493
426.000	285.832	80.008	19.994	100.333	20.081	1.526	0.542
428.000	286.868	80.007	19.994	100.337	20.082	1.482	0.492
430.000	287.912	80.007	19.995	100.344	20.080	1.584	0.516
432.000	288.895	80.007	19.994	100.348	20.081	1.512	0.504
434.000	289.898	80.009	19.995	100.344	20.082	1.475	0.532
436.000	290.886	80.011	19.995	100.332	20.080	1.577	0.498
438.000	291.956	80.010	19.995	100.330	20.075	1.890	0.512
440.000	292.946	80.009	19.996	100.331	20.077	1.792	0.532
442.000	293.959	80.008	19.996	100.329	20.082	1.433	0.511
444.000	294.980	80.010	19.996	100.330	20.081	1.540	0.504
446.000	295.983	80.008	19.995	100.328	20.084	1.355	0.490
448.000	297.016	80.008	19.996	100.328	20.078	1.695	0.525
450.000	298.054	80.009	19.995	100.332	20.081	1.521	0.547
452.000	299.036	80.008	19.995	100.345	20.080	1.559	0.511
454.000	300.012	80.007	19.995	100.332	20.083	1.385	0.486
456.000	301.050	80.007	19.995	100.337	20.080	1.563	0.534
458.000	302.043	80.008	19.994	100.342	20.078	1.749	0.487
460.000	303.058	80.009	19.995	100.333	20.078	1.739	0.510
462.000	304.065	80.010	19.995	100.335	20.079	1.680	0.514
464.000	305.080	80.010	19.995	100.346	20.076	1.837	0.511
466.000	306.105	80.009	19.995	100.331	20.079	1.647	0.516
468.000	307.119	80.008	19.996	100.335	20.076	1.844	0.542
470.000	308.142	80.007	19.995	100.338	20.078	1.693	0.502
472.000	309.111	80.006	19.997	100.331	20.080	1.610	0.490
474.000	310.099	80.005	19.995	100.327	20.076	1.837	0.487
476.000	311.146	80.006	19.996	100.329	20.078	1.698	0.480
478.000	312.173	80.005	19.996	100.329	20.079	1.659	0.499
480.000	313.211	80.006	19.995	100.328	20.079	1.677	0.516
482.000	314.184	80.006	19.995	100.331	20.079	1.658	0.497
484.000	315.211	80.007	19.995	100.329	20.081	1.515	0.495
486.000	316.207	80.006	19.995	100.329	20.075	1.897	0.507
488.000	317.225	80.007	19.994	100.329	20.076	1.814	0.522
490.000	318.218	80.007	19.995	100.326	20.076	1.870	0.505
492.000	319.228	80.006	19.995	100.325	20.077	1.804	0.507
494.000	320.268	80.007	19.995	100.328	20.076	1.837	0.546
496.000	321.225	80.007	19.995	100.327	20.075	1.879	0.502
498.000	322.242	80.009	19.995	100.326	20.076	1.872	0.489
500.000	323.195	80.007	19.995	100.327	20.073	2.050	0.488
502.000	324.217	80.007	19.995	100.328	20.074	1.946	0.489
504.000	325.213	80.006	19.996	100.336	20.077	1.791	0.524
506.000	326.195	80.008	19.997	100.339	20.075	1.942	0.485
508.000	327.204	80.007	19.995	100.311	20.071	2.137	0.499
510.000	328.101	80.007	19.996	100.322	20.075	1.900	0.487
512.000	329.117	80.007	19.995	100.321	20.073	2.032	0.495
514.000	330.088	80.008	19.995	100.312	20.074	1.979	0.482
516.000	331.078	80.008	19.994	100.325	20.069	2.304	0.477
518.000	332.099	80.007	19.995	100.324	20.067	2.435	0.476
520.000	333.074	80.009	19.995	100.328	20.069	2.276	0.493
522.000	334.082	80.010	19.994	100.330	20.068	2.382	0.498
524.000	335.132	80.010	19.994	100.332	20.068	2.368	0.493
526.000	336.085	80.009	19.994	100.332	20.065	2.533	0.506
528.000	337.146	80.007	19.994	100.324	20.065	2.582	0.527
530.000	338.129	80.007	19.995	100.326	20.064	2.607	0.505
532.000	339.137	80.008	19.995	100.327	20.064	2.609	0.483
534.000	340.151	80.008	19.994	100.327	20.063	2.674	0.508
536.000	341.154	80.008	19.995	100.327	20.060	2.895	0.529
538.000	342.194	80.006	19.996	100.326	20.061	2.826	0.512
540.000	343.180	80.007	19.995	100.328	20.062	2.752	0.487
542.000	344.242	80.007	19.995	100.327	20.058	2.977	0.517
544.000	345.266	80.008	19.995	100.329	20.057	3.055	0.526
546.000	346.270	80.010	19.995	100.327	20.058	3.011	0.528
548.000	347.286	80.009	19.995	100.317	20.057	3.053	0.481
550.000	348.329	80.011	19.994	100.323	20.055	3.176	0.531
552.000	349.330	80.009	19.994	100.313	20.052	3.415	0.501
554.000	350.353	80.008	19.995	100.318	20.048	3.619	0.498
556.000	351.410	80.008	19.995	100.324	20.054	3.262	0.519
558.000	352.407	80.008	19.996	100.322	20.050	3.521	0.488
560.000	353.449	80.007	19.995	100.322	20.049	3.558	0.531
562.000	354.460	80.006	19.995	100.324	20.044	3.936	0.476
564.000	355.511	80.007	19.996	100.320	20.044	3.881	0.526
566.000	356.473	80.006	19.996	100.315	20.039	4.230	0.474
568.000	357.491	80.005	19.996	100.315	20.037	4.364	0.511
570.000	358.523	80.007	19.997	100.323	20.037	4.362	0.510
572.000	359.535	80.006	19.995	100.321	20.035	4.503	0.535
574.000	360.543	80.007	19.996	100.323	20.032	4.648	0.501
576.000	361.563	80.006	19.996	100.309	20.030	4.814	0.499
578.000	362.580	80.008	19.994	100.313	20.021	5.391	0.513
580.000	363.600	80.008	19.994	100.306	20.021	5.365	0.494
582.000	364.610	80.009	19.995	100.308	20.012	5.984	0.501
584.000	365.686	80.007	19.995	100.297	20.008	6.235	0.521
586.000	366.690	80.007	19.995	100.310	19.999	6.799	0.543
588.000	367.705	80.006	19.995	100.322	19.996	7.006	0.502
590.000	368.726	80.006	19.995	100.319	19.992	7.236	0.498
592.000	369.805	80.007	19.994	100.298	19.989	7.444	0.559
594.000	370.780	80.008	19.995	100.302	19.985	7.697	0.495
596.000	371.815	80.008	19.995	100.294	19.983	7.856	0.500
598.000	372.853	80.006	19.994	100.307	19.974	8.433	0.520
600.000	373.860	80.008	19.995	100.308	19.973	8.462	0.496
602.000	374.902	80.008	19.996	100.292	19.971	8.610	0.533
604.000	375.870	80.008	19.996	100.302	19.968	8.826	0.510
606.000	376.898	80.008	19.994	100.296	19.961	9.273	0.521
608.000	377.930	80.007	19.994	100.293	19.958	9.462	0.496
610.000	378.966	80.008	19.994	100.288	19.961	9.240	0.519
612.000	379.948	80.008	19.994	100.286	19.961	9.233	0.491
614.000	380.942	80.008	19.994	100.289	19.958	9.422	0.495
616.000	381.932	80.008	19.995	100.292	19.958	9.422	0.511
618.000	382.920	80.007	19.993	100.294	19.949	10.040	0.472
620.000	383.942	80.009	19.995	100.303	19.942	10.500	0.485
622.000	384.929	80.008	19.995	100.298	19.934	10.978	0.472
624.000	385.970	80.009	19.994	100.301	19.926	11.519	0.543
626.000	386.928	80.009	19.995	100.292	19.917	12.053	0.503
628.000	387.915	80.009	19.995	100.287	19.916	12.156	0.507
630.000	388.892	80.008	19.995	100.285	19.906	12.757	0.484
632.000	389.896	80.009	19.995	100.287	19.894	13.592	0.467
634.000	390.957	80.008	19.996	100.286	19.885	14.121	0.512
636.000	391.963	80.009	19.995	100.292	19.875	14.767	0.527
638.000	392.917	80.007	19.995	100.293	19.871	15.062	0.489
640.000	393.914	80.007	19.996	100.287	19.867	15.281	0.474
642.000	394.945	80.007	19.996	100.275	19.862	15.651	0.512
644.000	395.904	80.007	19.995	100.266	19.853	16.183	0.491
646.000	396.921	80.006	19.996	100.277	19.840	17.039	0.495
648.000	397.902	80.006	19.995	100.288	19.831	17.650	0.518
650.000	398.906	80.009	19.995	100.288	19.820	18.311	0.511
652.000	399.923	80.006	19.996	100.288	19.810	18.963	0.512
654.000	400.887	80.007	19.995	100.289	19.801	19.569	0.486
656.000	401.901	80.007	19.995	100.281	19.784	20.637	0.527
658.000	402.853	80.006	19.996	100.283	19.773	21.331	0.475
660.000	403.873	80.005	19.995	100.287	19.764	21.938	0.457
662.000	404.903	80.006	19.996	100.288	19.746	23.089	0.482
664.000	405.874	80.007	19.997	100.288	19.730	24.132	0.505
666.000	406.904	80.006	19.997	100.289	19.713	25.238	0.526
668.000	407.915	80.005	19.996	100.288	19.696	26.306	0.484
670.000	408.931	80.005	19.997	100.287	19.670	27.985	0.500
672.000	410.042	80.005	19.996	100.291	19.647	29.493	0.565
674.000	411.039	80.005	19.996	100.290	19.623	31.026	0.539
676.000	412.109	80.006	19.996	100.288	19.601	32.435	0.542
678.000	413.140	80.006	19.995	100.278	19.571	34.347	0.536
680.000	414.162	80.006	19.996	100.278	19.541	36.301	0.540
682.000	415.197	80.008	19.994	100.289	19.514	38.007	0.500
684.000	416.202	80.009	19.996	100.282	19.483	40.017	0.524
686.000	417.287	80.009	19.995	100.260	19.446	42.369	0.526
688.000	418.319	80.008	19.995	100.252	19.408	44.829	0.514
690.000	419.339	80.008	19.995	100.254	19.360	47.934	0.524
692.000	420.394	80.009	19.996	100.263	19.318	50.619	0.555
694.000	421.435	80.007	19.994	100.260	19.269	53.754	0.512
696.000	422.485	80.008	19.995	100.244	19.214	57.281	0.551
698.000	423.519	80.008	19.995	100.244	19.153	61.231	0.489
700.000	424.546	80.008	19.996	100.248	19.093	65.107	0.498
702.000	425.629	80.006	19.995	100.246	19.039	68.606	0.509
704.000	426.675	80.009	19.996	100.222	18.990	71.707	0.533
706.000	427.704	80.009	19.995	100.182	18.922	76.006	0.546
708.000	428.747	80.008	19.995	100.199	18.836	81.581	0.520
710.000	429.790	80.010	19.995	100.242	18.737	87.972	0.483
712.000	430.817	80.012	19.994	100.255	18.637	94.417	0.516
714.000	431.872	80.010	19.995	100.232	18.553	99.759	0.528
716.000	432.930	80.010	19.995	100.153	18.460	105.712	0.525
718.000	433.938	80.007	19.994	100.128	18.347	113.016	0.510
720.000	434.994	80.008	19.995	100.180	18.217	121.374	0.503
722.000	436.044	80.007	19.994	100.214	18.087	129.730	0.500
724.000	437.072	80.007	19.996	100.195	17.951	138.376	0.528
726.000	438.087	80.006	19.995	100.136	17.794	148.310	0.481
728.000	439.107	80.007	19.995	100.123	17.617	159.734	0.504
730.000	440.099	80.007	19.996	100.149	17.409	173.204	0.496
732.000	441.155	80.008	19.997	100.188	17.202	186.420	0.521
734.000	442.129	80.008	19.996	100.128	17.007	198.645	0.522
736.000	443.187	80.007	19.994	100.035	16.763	214.371	0.515
738.000	444.183	80.005	19.995	100.007	16.484	232.448	0.510
740.000	445.137	80.007	19.995	100.078	16.194	250.645	0.482
742.000	446.193	80.007	19.995	100.092	15.911	268.104	0.510
744.000	447.173	80.008	19.995	99.960	15.564	290.437	0.512
746.000	448.135	80.007	19.995	99.903	15.158	316.521	0.487
748.000	449.206	80.007	19.995	100.014	14.765	340.544	0.524
750.000	450.156	80.005	19.996	99.944	14.424	362.717	0.496
752.000	451.202	80.007	19.995	99.704	14.124	383.490	0.501
754.000	452.168	80.005	19.997	99.545	13.813	403.981	0.504
756.000	453.209	80.008	19.996	99.700	13.644	412.359	0.492
758.000	454.161	80.007	19.997	99.499	13.423	425.297	0.507
760.000	455.161	80.007	19.996	99.313	13.061	447.376	0.497
762.000	456.183	80.007	19.997	99.704	12.646	474.105	0.525
764.000	457.167	80.009	19.997	100.074	12.226	499.499	0.528
766.000	458.205	80.008	19.996	99.745	11.830	524.007	0.515
768.000	459.209	80.008	19.995	99.244	11.531	546.244	0.519
770.000	460.220	80.007	19.995	99.047	11.294	565.055	0.486
772.000	461.237	80.008	19.995	98.960	11.247	567.561	0.465
774.000	462.288	80.010	19.996	98.939	11.408	552.976	0.541
776.000	463.248	80.009	19.995	98.643	11.477	544.433	0.477
778.000	464.193	80.008	19.995	98.851	11.364	552.892	0.482
780.000	465.237	80.009	19.996	99.642	11.146	570.968	0.486
782.000	466.250	80.008	19.995	99.956	10.982	582.907	0.472
784.000	467.295	80.006	19.996	99.544	11.118	573.078	0.509
786.000	468.351	80.008	19.995	98.551	11.349	557.452	0.527
788.000	469.332	80.008	19.995	98.303	11.533	544.827	0.504
790.000	470.355	80.008	19.995	98.926	11.722	533.283	0.526
792.000	471.379	80.009	19.994	99.478	11.910	521.530	0.497
794.000	472.424	80.009	19.994	99.455	12.117	508.518	0.518
796.000	473.389	80.011	19.994	99.237	12.391	491.600	0.499
798.000	474.459	80.009	19.995	99.076	12.734	470.761	0.529
800.000	475.468	80.010	19.995	98.990	13.157	444.604	0.486
802.000	476.503	80.010	19.994	99.138	13.699	410.325	0.516
804.000	477.505	80.007	19.994	99.142	14.302	371.970	0.513
806.000	478.531	80.007	19.996	99.200	14.924	332.344	0.502
808.000	479.534	80.006	19.993	99.368	15.522	294.138	0.505
810.000	480.575	80.008	19.994	99.598	16.121	254.747	0.515
812.000	481.561	80.008	19.994	99.734	16.679	218.556	0.507
814.000	482.583	80.008	19.994	99.814	17.200	186.268	0.514
816.000	483.612	80.008	19.995	99.888	17.667	156.491	0.501
818.000	484.641	80.007	19.995	99.958	18.075	130.336	0.499
820.000	485.675	80.007	19.995	99.945	18.425	107.876	0.538
822.000	486.670	80.007	19.995	99.314	18.731	88.322	0.495
824.000	487.653	80.007	19.995	99.704	18.977	72.542	0.480
826.000	488.669	80.008	19.996	99.975	19.186	59.070	0.509
828.000	489.646	80.006	19.996	100.020	19.364	47.678	0.512
830.000	490.632	80.008	19.996	100.015	19.496	39.174	0.512
832.000	491.617	80.008	19.995	100.091	19.612	31.719	0.464
834.000	492.604	80.007	19.997	100.204	19.703	25.849	0.494
836.000	493.591	80.007	19.995	100.210	19.780	20.866	0.487
838.000	494.604	80.007	19.995	100.212	19.846	16.664	0.518
840.000	495.620	80.007	19.996	100.214	19.895	13.508	0.498
842.000	496.638	80.008	19.996	100.203	19.935	10.896	0.505
844.000	497.640	80.008	19.996	100.222	19.971	8.616	0.495
846.000	498.666	80.007	19.995	100.198	19.998	6.861	0.524
848.000	499.636	80.009	19.997	100.213	20.024	5.207	0.513
850.000	500.655	80.009	19.996	100.206	20.036	4.446	0.505
852.000	501.695	80.006	19.995	100.206	20.046	3.775	0.531
854.000	502.736	80.007	19.996	100.210	20.055	3.220	0.551
856.000	503.681	80.009	19.997	100.220	20.060	2.893	0.465
858.000	504.749	80.007	19.996	100.244	20.065	2.579	0.519
860.000	505.746	80.008	19.996	100.244	20.066	2.490	0.514
862.000	506.793	80.006	19.997	100.255	20.070	2.207	0.549
864.000	507.763	80.010	19.996	100.251	20.072	2.103	0.476
866.000	508.804	80.008	19.995	100.262	20.075	1.922	0.525
868.000	509.815	80.008	19.995	100.268	20.074	1.950	0.495
870.000	510.875	80.008	19.994	100.284	20.078	1.717	0.516
872.000	511.881	80.008	19.994	100.292	20.079	1.627	0.490
874.000	512.913	80.009	19.994	100.291	20.079	1.622	0.510
876.000	513.938	80.010	19.996	100.289	20.081	1.515	0.492
878.000	515.031	80.010	19.994	100.288	20.079	1.650	0.508
880.000	516.100	80.010	19.994	100.289	20.077	1.812	0.530
882.000	517.146	80.010	19.994	100.289	20.083	1.420	0.515
884.000	518.218	80.008	19.995	100.288	20.083	1.418	0.507
886.000	519.246	80.007	19.996	100.289	20.079	1.659	0.511
888.000	520.283	80.005	19.995	100.294	20.078	1.717	0.527
890.000	521.382	80.008	19.994	100.292	20.076	1.859	0.526
892.000	522.375	80.009	19.994	100.288	20.079	1.629	0.517
894.000	523.442	80.008	19.995	100.288	20.079	1.646	0.527
896.000	524.454	80.007	19.996	100.289	20.081	1.522	0.494
898.000	525.515	80.009	19.997	100.288	20.081	1.544	0.495
900.000	526.544	80.009	19.995	100.290	20.081	1.555	0.516
902.000	527.561	80.009	19.995	100.289	20.075	1.899	0.510
904.000	528.635	80.008	19.994	100.287	20.081	1.543	0.493
906.000	529.669	80.006	19.995	100.287	20.081	1.529	0.531
908.000	530.692	80.006	19.995	100.289	20.076	1.817	0.528
910.000	531.731	80.008	19.994	100.287	20.084	1.337	0.491
912.000	532.726	80.008	19.995	100.290	20.082	1.485	0.496
914.000	533.773	80.007	19.994	100.291	20.081	1.511	0.520
916.000	534.733	80.007	19.994	100.292	20.083	1.415	0.489
918.000	535.783	80.006	19.996	100.292	20.079	1.646	0.529
920.000	536.832	80.007	19.995	100.287	20.078	1.696	0.530
922.000	537.826	80.006	19.996	100.292	20.075	1.933	0.504
924.000	538.844	80.004	19.996	100.292	20.087	1.109	0.511
926.000	539.849	80.007	19.997	100.292	20.081	1.523	0.480
928.000	540.854	80.008	19.995	100.294	20.083	1.381	0.507
930.000	541.911	80.008	19.996	100.292	20.085	1.272	0.520
932.000	542.919	80.008	19.995	100.298	20.080	1.592	0.525
934.000	543.899	80.007	19.995	100.288	20.081	1.546	0.491
936.000	544.937	80.007	19.995	100.290	20.081	1.502	0.502
938.000	545.956	80.007	19.995	100.293	20.080	1.597	0.531
940.000	546.916	80.006	19.994	100.291	20.079	1.620	0.521
942.000	547.946	80.009	19.996	100.293	20.084	1.341	0.497
944.000	548.953	80.005	19.995	100.291	20.085	1.274	0.491
946.000	549.947	80.008	19.995	100.290	20.086	1.232	0.491
948.000	550.961	80.008	19.996	100.302	20.077	1.769	0.471
950.000	551.973	80.007	19.996	100.297	20.082	1.485	0.495
952.000	552.976	80.008	19.997	100.291	20.086	1.172	0.510
954.000	553.941	80.009	19.995	100.286	20.089	1.003	0.483
956.000	555.011	80.009	19.997	100.288	20.091	0.882	0.504
958.000	556.024	80.012	19.994	100.287	20.083	1.395	0.496
960.000	557.048	80.010	19.995	100.288	20.075	1.891	0.500
962.000	558.027	80.010	19.994	100.291	20.084	1.327	0.493
964.000	559.117	80.013	19.995	100.286	20.085	1.290	0.536
966.000	560.077	80.008	19.995	100.286	20.090	0.940	0.494
968.000	561.155	80.009	19.995	100.288	20.090	0.959	0.543
970.000	562.159	80.008	19.995	100.287	20.085	1.284	0.548
972.000	563.163	80.009	19.994	100.286	20.087	1.126	0.480
974.000	564.187	80.008	19.995	100.288	20.090	0.921	0.506
976.000	565.216	80.008	19.996	100.288	20.088	1.075	0.517
978.000	566.261	80.006	19.994	100.289	20.093	0.733	0.517
980.000	567.265	80.006	19.997	100.287	20.088	1.082	0.480
982.000	568.321	80.007	19.996	100.291	20.090	0.952	0.511
984.000	569.355	80.007	19.995	100.295	20.091	0.873	0.521
986.000	570.363	80.007	19.996	100.292	20.092	0.833	0.484
988.000	571.423	80.009	19.994	100.290	20.088	1.047	0.491
990.000	572.484	80.010	19.994	100.291	20.084	1.339	0.554
992.000	573.537	80.009	19.995	100.291	20.084	1.339	0.546
994.000	574.603	80.009	19.995	100.290	20.091	0.863	0.540
996.000	575.692	80.007	19.995	100.290	20.102	0.195	0.549
998.000	576.696	80.004	19.994	100.295	20.086	1.209	0.488
1000.000	577.677	80.009	19.994	100.294	20.091	0.866	0.503
1002.000	578.758	80.008	19.995	100.296	20.092	0.796	0.504
1004.000	579.742	80.008	19.995	100.291	20.087	1.161	0.502
1006.000	580.768	80.005	19.994	100.292	20.090	0.924	0.515
1008.000	581.754	80.006	19.994	100.292	20.088	1.081	0.499
1010.000	582.803	80.012	19.997	100.289	20.089	0.984	0.539
1012.000	583.767	80.010	19.996	100.290	20.087	1.119	0.496
1014.000	584.736	80.008	19.996	100.289	20.093	0.727	0.485
1016.000	585.799	80.009	19.995	100.287	20.092	0.833	0.512
1018.000	586.773	80.009	19.997	100.287	20.084	1.300	0.506
1020.000	587.735	80.014	19.994	100.287	20.084	1.300	0.506
1022.000	588.740	80.011	19.994	100.290	20.084	1.318	0.496
1024.000	589.794	80.007	19.994	100.291	20.091	0.889	0.514
1025.999	590.850	80.010	19.993	100.290	20.086	1.209	0.515
1027.999	591.834	80.006	19.997	100.288	20.090	0.947	0.499
1029.999	592.844	80.006	19.995	100.290	20.079	1.648	0.497
1031.999	593.852	80.005	19.995	100.292	20.093	0.720	0.502
1034.000	594.915	80.006	19.994	100.291	20.085	1.276	0.521
1036.000	595.883	80.006	19.997	100.288	20.091	0.880	0.491
1037.999	596.898	80.008	19.996	100.287	20.087	1.107	0.535
1039.999	597.923	80.008	19.996	100.286	20.090	0.926	0.538
1041.999	598.967	80.013	19.997	100.289	20.087	1.109	0.542
1043.999	599.950	80.009	19.995	100.287	20.087	1.137	0.475
1045.999	600.964	80.010	19.996	100.286	20.084	1.311	0.507
1048.000	601.990	80.006	19.997	100.289	20.087	1.116	0.498
1049.999	603.007	80.007	19.997	100.287	20.093	0.764	0.529
1051.999	604.040	80.009	19.996	100.289	20.086	1.207	0.527
1053.999	605.026	80.007	19.995	100.286	20.093	0.773	0.532
1055.999	606.062	80.007	19.995	100.289	20.086	1.207	0.520
1057.999	606.993	80.006	19.996	100.290	20.089	1.021	0.491
1059.999	608.054	80.008	19.995	100.290	20.087	1.119	0.508
1061.999	609.044	80.010	19.994	100.290	20.089	0.995	0.523
1064.000	610.056	80.008	19.994	100.290	20.087	1.169	0.506
1065.999	611.050	80.007	19.993	100.291	20.087	1.116	0.470
1067.999	611.990	80.007	19.995	100.292	20.093	0.742	0.479
1070.000	613.022	80.009	19.994	100.286	20.092	0.821	0.511
1071.999	614.010	80.008	19.994	100.280	20.087	1.128	0.480
1074.000	615.007	80.005	19.994	100.293	20.092	0.821	0.518
1075.999	615.964	80.007	19.996	100.291	20.097	0.476	0.476
1077.999	616.930	80.006	19.994	100.291	20.090	0.972	0.477
1079.999	617.931	80.004	19.995	100.292	20.100	0.330	0.506
1081.999	618.917	80.004	19.995	100.289	20.090	0.942	0.518
1083.999	619.869	80.006	19.996	100.290	20.086	1.179	0.486
1085.999	620.836	80.007	19.994	100.288	20.088	1.056	0.466
1088.000	621.862	80.006	19.996	100.289	20.091	0.905	0.474
1089.999	622.829	80.007	19.996	100.290	20.087	1.140	0.496
1092.000	623.833	80.007	19.995	100.300	20.093	0.750	0.492
1093.999	624.818	80.007	19.996	100.290	20.092	0.847	0.498
1096.001	625.807	80.010	19.994	100.289	20.087	1.167	0.492
1098.000	626.786	80.009	19.993	100.288	20.090	0.944	0.491
1099.999	627.742	80.010	19.995	100.288	20.087	1.123	0.477
1101.999	628.775	80.011	19.995	100.286	20.089	0.982	0.518
1103.999	629.789	80.007	19.995	100.288	20.087	1.139	0.525
1105.999	630.774	80.008	19.996	100.289	20.089	1.016	0.470
1107.999	631.824	80.009	19.995	100.289	20.088	1.072	0.513
1109.999	632.822	80.009	19.996	100.291	20.086	1.172	0.499
1111.999	633.889	80.008	19.995	100.289	20.089	0.979	0.546
1113.999	634.910	80.007	19.996	100.287	20.092	0.810	0.538
1115.999	635.979	80.008	19.995	100.286	20.089	1.016	0.510
1117.999	637.008	80.009	19.994	100.290	20.089	1.014	0.527
1119.999	638.040	80.009	19.994	100.295	20.087	1.121	0.498
1121.999	639.080	80.009	19.994	100.290	20.089	0.984	0.509
1123.999	640.142	80.011	19.994	100.290	20.086	1.193	0.537
1125.999	641.189	80.011	19.995	100.290	20.090	0.973	0.511
1127.999	642.287	80.009	19.994	100.288	20.089	1.023	0.516
1130.001	643.363	80.009	19.994	100.290	20.086	1.202	0.537
1131.999	644.383	80.008	19.996	100.292	20.088	1.075	0.516
1133.999	645.430	80.007	19.995	100.291	20.090	0.970	0.562
1135.999	646.458	80.005	19.996	100.292	20.084	1.353	0.506
1137.999	647.508	80.003	19.996	100.291	20.085	1.267	0.523
1139.999	648.543	80.007	19.995	100.291	20.086	1.214	0.515
1141.999	649.612	80.008	19.996	100.294	20.085	1.297	0.551
1143.999	650.657	80.006	19.997	100.297	20.086	1.195	0.529
1145.999	651.697	80.007	19.996	100.289	20.084	1.300	0.540
1148.000	652.745	80.007	19.996	100.285	20.089	1.014	0.529
1150.000	653.752	80.007	19.995	100.283	20.089	1.021	0.543
1152.000	654.807	80.007	19.995	100.286	20.086	1.219	0.529
1153.999	655.842	80.007	19.994	100.286	20.088	1.088	0.504
1155.999	656.892	80.008	19.995	100.285	20.088	1.077	0.520
1158.001	657.923	80.008	19.994	100.288	20.087	1.107	0.498
1159.999	658.927	80.008	19.996	100.291	20.085	1.262	0.529
1161.999	659.938	80.009	19.995	100.287	20.083	1.423	0.480
1163.999	660.941	80.006	19.994	100.286	20.084	1.306	0.513
1165.999	661.941	80.008	19.994	100.288	20.089	1.005	0.516
1167.999	662.969	80.006	19.994	100.287	20.087	1.146	0.508
1170.000	663.965	80.006	19.994	100.287	20.085	1.283	0.505
1171.999	664.991	80.007	19.994	100.288	20.088	1.089	0.512
1173.999	666.016	80.008	19.994	100.288	20.089	1.024	0.509
1175.999	667.002	80.008	19.995	100.287	20.090	0.919	0.503
1178.000	668.023	80.008	19.994	100.292	20.089	1.023	0.487
1179.999	669.063	80.008	19.994	100.296	20.088	1.093	0.508
1181.999	670.123	80.010	19.994	100.294	20.086	1.204	0.535
1183.999	671.134	80.008	19.994	100.289	20.087	1.119	0.517
1186.000	672.132	80.008	19.995	100.289	20.087	1.119	0.488
1187.999	673.152	80.009	19.994	100.291	20.087	1.135	0.490
1190.000	674.257	80.009	19.994	100.291	20.091	0.859	0.541
1191.999	675.255	80.007	19.994	100.291	20.088	1.053	0.525
1193.999	676.313	80.007	19.994	100.294	20.088	1.077	0.527
1196.000	677.327	80.008	19.993	100.291	20.092	0.842	0.508
1198.000	678.383	80.008	19.994	100.289	20.085	1.244	0.525
1200.000	679.347	80.009	19.995	100.289	20.093	0.750	0.505
1201.999	680.357	80.009	19.994	100.290	20.090	0.975	0.492
1203.999	681.375	80.009	19.995	100.289	20.087	1.107	0.479
1205.999	682.383	80.009	19.995	100.289	20.091	0.898	0.505
1207.999	683.380	80.011	19.995	100.288	20.091	0.877	0.470
1209.999	684.387	80.010	19.995	100.288	20.092	0.812	0.474
1212.000	685.376	80.008	19.995	100.286	20.090	0.928	0.485
1213.999	686.321	80.009	19.995	100.285	20.089	0.982	0.462
1216.000	687.367	80.008	19.995	100.285	20.088	1.052	0.477
1217.999	688.278	80.008	19.994	100.281	20.089	1.009	0.470
1219.999	689.265	80.008	19.994	100.283	20.089	1.007	0.466
1222.000	690.291	80.008	19.995	100.289	20.088	1.052	0.518
1223.999	691.223	80.006	19.995	100.294	20.089	0.987	0.465
1226.000	692.243	80.008	19.995	100.287	20.089	0.982	0.522
1227.999	693.191	80.006	19.995	100.286	20.086	1.228	0.496
1229.999	694.196	80.008	19.995	100.287	20.090	0.963	0.500
1232.000	695.156	80.006	19.995	100.287	20.087	1.109	0.481
1233.999	696.191	80.008	19.995	100.287	20.092	0.785	0.500
1236.000	697.157	80.006	19.996	100.287	20.089	0.991	0.518
1238.000	698.117	80.006	19.996	100.287	20.088	1.065	0.473
1240.000	699.117	80.006	19.996	100.286	20.088	1.077	0.496
1242.000	700.089	80.007	19.996	100.281	20.089	1.033	0.491
1244.000	701.062	80.007	19.995	100.285	20.090	0.952	0.489
1246.000	702.076	80.006	19.995	100.285	20.091	0.910	0.505
1247.999	703.069	80.007	19.997	100.286	20.088	1.051	0.510
1249.999	704.100	80.008	19.994	100.285	20.088	1.070	0.493
1251.999	705.034	80.007	19.996	100.290	20.085	1.237	0.475
1254.000	706.022	80.007	19.995	100.289	20.090	0.952	0.483
1256.000	707.059	80.007	19.994	100.290	20.088	1.082	0.514
1258.000	708.048	80.008	19.995	100.288	20.087	1.109	0.508
1259.999	709.049	80.009	19.994	100.290	20.087	1.123	0.497
1261.999	710.055	80.008	19.995	100.288	20.087	1.149	0.494
1263.999	710.994	80.011	19.995	100.288	20.091	0.882	0.466
1265.999	712.007	80.009	19.995	100.288	20.088	1.063	0.470
1267.999	712.961	80.008	19.995	100.285	20.089	0.989	0.484
1269.999	713.953	80.007	19.994	100.291	20.084	1.342	0.479
1271.999	714.944	80.008	19.994	100.290	20.090	0.928	0.483
1274.000	715.957	80.008	19.994	100.290	20.087	1.114	0.503
1275.999	716.974	80.008	19.995	100.291	20.090	0.944	0.498
1277.999	717.993	80.009	19.994	100.288	20.093	0.757	0.542
1279.999	719.003	80.009	19.995	100.290	20.090	0.929	0.517
1282.000	720.045	80.009	19.994	100.289	20.091	0.905	0.556
1283.999	721.061	80.011	19.993	100.287	20.085	1.241	0.518
1285.999	722.140	80.011	19.994	100.288	20.086	1.190	0.536
1287.999	723.156	80.012	19.993	100.292	20.087	1.130	0.547
1289.999	724.241	80.010	19.994	100.286	20.084	1.344	0.545
1291.999	725.252	80.012	19.995	100.286	20.084	1.304	0.504
1293.999	726.333	80.013	19.995	100.291	20.087	1.151	0.526
1296.000	727.435	80.009	19.995	100.289	20.085	1.258	0.552
1297.999	728.446	80.008	19.994	100.288	20.087	1.118	0.523
1299.999	729.522	80.008	19.995	100.288	20.087	1.119	0.514
1301.999	730.618	80.007	19.996	100.289	20.083	1.399	0.555
1303.999	731.653	80.007	19.995	100.288	20.085	1.269	0.510
1305.999	732.742	80.007	19.995	100.287	20.085	1.253	0.549
1307.999	733.801	80.008	19.995	100.287	20.085	1.281	0.535
1309.999	734.866	80.008	19.996	100.287	20.088	1.098	0.524
1311.999	735.913	80.010	19.996	100.288	20.089	0.995	0.506
1314.000	736.949	80.007	19.994	100.290	20.089	1.023	0.547
1315.999	738.033	80.007	19.994	100.291	20.086	1.190	0.550
1317.999	739.039	80.008	19.995	100.291	20.088	1.054	0.502
1320.000	740.117	80.009	19.995	100.292	20.086	1.205	0.550
1321.999	741.187	80.008	19.995	100.292	20.086	1.204	0.504
1323.999	742.226	80.008	19.996	100.291	20.081	1.497	0.531
1325.999	743.252	80.008	19.995	100.291	20.083	1.414	0.528
1326.499	743.570	80.008	19.996	100.292	20.085	1.237	0.547