File: 01_Data/PP/MCC/PP_MCC_30K_min_210928_R1.txt
Sample ID:	C:\MCC\MCC Cal\Test\PP_MCC_30K_min_210928_R1.txt
Sample Weight (mg):	5
Heating Rate (C/s):	0.5
Combustor Temp (C):	900
N2 Flow Rate (cc/min):	80
O2 Flow Rate (cc/min):	20
Calibration File:	C:\MCC\MCC Cal\Coeff1 JN10440_30_210304.txt.txt
T Correction Coefficients:	0	1.024463	0
Time Shift (s):	14
*
Time (s)	Temperature (C)	N2 flow rate (cc/min)	O2 flow rate (cc/min)	Flow Rate (cc/min)	Oxygen (%)	HRR (W/g)	Heating rate (C/s)
0.000	111.288	80.005	19.995	100.171	20.027	0.125	-0.026
1.999	111.291	80.007	19.995	100.171	20.027	0.111	-0.009
3.999	111.212	80.006	19.995	100.159	20.025	0.242	-0.024
6.000	111.225	80.007	19.995	100.158	20.029	0.026	0.002
8.000	111.200	80.005	19.995	100.174	20.026	0.229	-0.023
9.999	111.222	80.007	19.995	100.190	20.025	0.265	-0.008
11.999	111.228	80.006	19.995	100.222	20.019	0.645	-0.020
13.999	111.236	80.005	19.994	100.237	20.017	0.775	0.005
15.999	111.294	80.006	19.995	100.255	20.013	0.992	0.018
17.999	111.392	80.004	19.996	100.253	20.010	1.228	0.058
19.999	111.459	80.004	19.995	100.275	20.008	1.325	0.023
22.000	111.582	80.005	19.997	100.263	20.010	1.182	0.055
24.000	111.747	80.005	19.996	100.264	20.010	1.184	0.075
25.999	111.883	80.006	19.994	100.262	20.008	1.343	0.089
27.999	111.963	80.006	19.995	100.257	20.004	1.565	0.032
29.999	112.203	80.007	19.995	100.274	20.003	1.663	0.098
31.999	112.342	80.005	19.995	100.296	20.004	1.562	0.108
33.999	112.525	80.007	19.994	100.298	20.001	1.758	0.075
35.999	112.792	80.006	19.995	100.324	20.001	1.748	0.141
37.999	112.987	80.006	19.997	100.332	19.998	1.964	0.106
40.000	113.262	80.006	19.996	100.331	19.998	1.943	0.112
41.999	113.596	80.006	19.995	100.334	19.997	2.008	0.166
43.999	113.908	80.004	19.996	100.335	19.997	1.988	0.170
45.999	114.283	80.005	19.996	100.340	19.997	2.024	0.176
47.999	114.639	80.004	19.994	100.357	19.995	2.167	0.199
49.999	115.011	80.006	19.996	100.354	19.994	2.178	0.183
51.999	115.412	80.006	19.996	100.367	19.993	2.292	0.192
53.999	115.872	80.006	19.995	100.369	19.988	2.554	0.228
55.999	116.303	80.008	19.995	100.366	19.992	2.355	0.224
57.999	116.732	80.008	19.995	100.369	19.990	2.451	0.228
60.000	117.247	80.008	19.993	100.378	19.990	2.487	0.255
61.999	117.760	80.007	19.995	100.374	19.992	2.330	0.266
64.000	118.351	80.007	19.996	100.370	19.990	2.434	0.293
66.000	118.895	80.008	19.996	100.370	19.992	2.314	0.319
67.999	119.414	80.005	19.994	100.371	19.990	2.451	0.283
69.999	119.977	80.006	19.996	100.368	19.994	2.210	0.292
71.999	120.629	80.005	19.995	100.367	19.991	2.371	0.337
74.000	121.214	80.006	19.995	100.370	19.991	2.405	0.318
75.999	121.836	80.005	19.995	100.371	19.989	2.510	0.309
78.000	122.476	80.005	19.996	100.370	19.987	2.621	0.313
79.999	123.154	80.006	19.995	100.373	19.990	2.445	0.343
81.999	123.778	80.005	19.995	100.374	19.989	2.514	0.311
83.999	124.399	80.004	19.995	100.378	19.989	2.517	0.305
85.999	125.103	80.006	19.995	100.394	19.988	2.611	0.321
88.000	125.799	80.005	19.994	100.399	19.985	2.748	0.351
89.999	126.486	80.004	19.994	100.379	19.986	2.712	0.366
92.000	127.221	80.005	19.994	100.407	19.987	2.625	0.374
93.999	127.984	80.005	19.995	100.406	19.986	2.731	0.394
95.999	128.703	80.004	19.995	100.409	19.987	2.621	0.383
97.999	129.462	80.005	19.994	100.403	19.984	2.809	0.370
99.999	130.222	80.004	19.995	100.399	19.984	2.830	0.383
101.999	130.987	80.004	19.994	100.390	19.984	2.862	0.372
103.999	131.798	80.004	19.995	100.409	19.984	2.845	0.410
105.999	132.603	80.006	19.995	100.397	19.982	2.968	0.405
108.000	133.413	80.006	19.995	100.386	19.984	2.808	0.422
109.999	134.202	80.006	19.995	100.406	19.983	2.890	0.428
111.999	135.048	80.006	19.995	100.405	19.983	2.883	0.433
113.999	135.853	80.006	19.995	100.408	19.984	2.804	0.433
115.999	136.678	80.006	19.996	100.405	19.984	2.814	0.402
117.999	137.559	80.006	19.995	100.399	19.984	2.804	0.386
119.999	138.433	80.006	19.995	100.407	19.987	2.638	0.439
121.999	139.364	80.006	19.996	100.402	19.985	2.772	0.463
123.999	140.222	80.007	19.995	100.387	19.986	2.737	0.443
125.999	141.157	80.006	19.996	100.399	19.987	2.655	0.450
127.999	142.048	80.005	19.995	100.398	19.988	2.600	0.490
130.000	142.993	80.006	19.995	100.398	19.985	2.800	0.477
131.999	143.910	80.007	19.996	100.405	19.985	2.758	0.491
133.999	144.827	80.007	19.995	100.390	19.985	2.766	0.467
135.999	145.755	80.007	19.995	100.391	19.984	2.846	0.448
138.000	146.721	80.007	19.995	100.392	19.983	2.872	0.470
139.999	147.673	80.008	19.996	100.382	19.985	2.785	0.497
141.999	148.576	80.007	19.996	100.390	19.987	2.667	0.467
143.999	149.561	80.006	19.996	100.390	19.983	2.909	0.503
146.000	150.505	80.006	19.995	100.378	19.982	2.932	0.466
148.000	151.430	80.005	19.996	100.390	19.984	2.814	0.487
149.999	152.394	80.006	19.997	100.378	19.986	2.718	0.492
151.999	153.346	80.005	19.995	100.374	19.984	2.810	0.478
153.999	154.286	80.004	19.995	100.379	19.986	2.685	0.475
155.999	155.221	80.003	19.995	100.376	19.985	2.766	0.466
158.000	156.176	80.005	19.994	100.380	19.986	2.680	0.473
160.000	157.169	80.005	19.995	100.382	19.984	2.817	0.491
162.000	158.148	80.003	19.995	100.381	19.983	2.899	0.504
164.000	159.068	80.004	19.995	100.384	19.987	2.675	0.477
165.999	160.077	80.003	19.995	100.380	19.984	2.817	0.482
168.000	161.082	80.005	19.995	100.378	19.990	2.465	0.450
169.999	162.032	80.006	19.996	100.377	19.989	2.547	0.492
171.999	163.001	80.005	19.995	100.376	19.991	2.410	0.495
174.000	164.009	80.005	19.995	100.378	19.988	2.573	0.494
175.999	164.974	80.005	19.997	100.378	19.987	2.661	0.477
178.000	165.975	80.005	19.996	100.378	19.985	2.740	0.492
179.999	166.960	80.004	19.995	100.376	19.985	2.740	0.515
182.000	167.973	80.006	19.996	100.372	19.989	2.509	0.484
183.999	168.905	80.005	19.995	100.373	19.987	2.660	0.503
185.999	169.949	80.006	19.996	100.372	19.989	2.538	0.484
187.999	170.911	80.004	19.995	100.372	19.987	2.665	0.467
189.999	171.876	80.005	19.994	100.371	19.988	2.598	0.507
191.999	172.882	80.005	19.994	100.371	19.988	2.553	0.489
194.000	173.902	80.007	19.995	100.369	19.992	2.352	0.463
195.999	174.874	80.008	19.995	100.369	19.993	2.294	0.504
198.000	175.877	80.007	19.994	100.365	19.991	2.364	0.500
199.999	176.859	80.007	19.994	100.361	19.990	2.470	0.508
201.999	177.832	80.006	19.995	100.364	19.991	2.395	0.517
203.999	178.829	80.007	19.995	100.355	19.989	2.509	0.511
205.999	179.809	80.006	19.996	100.366	19.988	2.565	0.506
208.000	180.813	80.005	19.996	100.358	19.987	2.668	0.484
210.000	181.842	80.007	19.996	100.357	19.991	2.389	0.516
211.999	182.883	80.007	19.997	100.367	19.992	2.307	0.510
213.999	183.837	80.006	19.996	100.356	19.991	2.403	0.486
215.999	184.838	80.006	19.995	100.357	19.994	2.234	0.496
217.999	185.790	80.007	19.995	100.358	19.993	2.265	0.506
219.999	186.818	80.008	19.995	100.345	19.990	2.442	0.489
222.000	187.807	80.006	19.994	100.353	19.993	2.254	0.480
223.999	188.844	80.007	19.994	100.362	19.993	2.291	0.533
225.999	189.828	80.008	19.995	100.357	19.992	2.322	0.504
227.999	190.819	80.008	19.994	100.358	19.995	2.165	0.494
229.999	191.826	80.005	19.995	100.368	19.996	2.088	0.514
231.999	192.772	80.005	19.995	100.340	19.997	1.998	0.496
233.999	193.765	80.004	19.995	100.332	20.001	1.748	0.469
235.999	194.753	80.005	19.996	100.337	19.996	2.089	0.496
238.000	195.779	80.005	19.997	100.338	19.999	1.864	0.497
239.999	196.753	80.004	19.995	100.339	19.999	1.873	0.483
241.999	197.721	80.005	19.996	100.348	19.999	1.888	0.520
243.999	198.763	80.006	19.996	100.346	19.997	2.025	0.514
245.999	199.734	80.005	19.995	100.362	19.996	2.091	0.505
247.999	200.771	80.005	19.996	100.346	19.997	1.994	0.497
249.999	201.713	80.005	19.995	100.334	20.000	1.825	0.485
251.999	202.699	80.007	19.995	100.335	19.999	1.880	0.507
253.999	203.693	80.005	19.995	100.338	19.998	1.974	0.513
255.999	204.651	80.005	19.995	100.334	19.998	1.985	0.469
257.999	205.636	80.006	19.995	100.332	19.997	2.016	0.462
259.999	206.593	80.006	19.994	100.336	19.998	1.965	0.479
261.999	207.613	80.004	19.995	100.333	19.998	1.941	0.492
263.999	208.622	80.004	19.996	100.334	20.000	1.861	0.526
265.999	209.550	80.005	19.996	100.334	19.998	1.950	0.472
268.000	210.551	80.005	19.996	100.334	19.998	1.943	0.490
269.999	211.521	80.005	19.995	100.334	20.000	1.847	0.483
271.999	212.525	80.006	19.996	100.333	19.999	1.874	0.506
273.999	213.470	80.007	19.995	100.332	19.999	1.862	0.496
276.000	214.499	80.007	19.995	100.332	20.000	1.847	0.492
277.999	215.459	80.008	19.995	100.331	19.999	1.885	0.467
279.999	216.421	80.007	19.995	100.331	19.999	1.902	0.485
282.000	217.423	80.007	19.994	100.332	19.999	1.917	0.502
283.999	218.364	80.009	19.993	100.332	20.001	1.792	0.466
285.999	219.386	80.007	19.995	100.333	19.998	1.956	0.527
287.999	220.335	80.006	19.994	100.334	20.001	1.777	0.509
290.000	221.323	80.006	19.994	100.334	20.000	1.827	0.461
291.999	222.315	80.006	19.995	100.332	20.003	1.666	0.487
294.000	223.282	80.006	19.995	100.331	20.002	1.734	0.441
296.000	224.259	80.006	19.995	100.332	20.003	1.657	0.495
297.999	225.269	80.007	19.995	100.333	20.007	1.399	0.507
299.999	226.251	80.006	19.994	100.333	20.002	1.685	0.503
302.000	227.200	80.007	19.995	100.334	20.002	1.679	0.494
303.999	228.225	80.007	19.995	100.334	20.003	1.654	0.495
305.999	229.235	80.007	19.994	100.333	20.003	1.647	0.511
308.000	230.252	80.006	19.994	100.330	20.002	1.732	0.516
309.999	231.212	80.006	19.996	100.331	20.004	1.565	0.472
311.999	232.222	80.005	19.995	100.323	20.003	1.649	0.493
313.999	233.216	80.007	19.995	100.332	20.006	1.435	0.495
316.000	234.161	80.005	19.997	100.329	20.003	1.613	0.456
317.999	235.190	80.003	19.995	100.322	20.004	1.609	0.517
320.000	236.166	80.006	19.995	100.327	20.003	1.647	0.476
321.999	237.171	80.005	19.996	100.331	20.006	1.439	0.498
323.999	238.164	80.004	19.996	100.326	20.002	1.692	0.502
325.999	239.132	80.004	19.996	100.323	20.007	1.380	0.501
327.999	240.122	80.004	19.996	100.327	20.006	1.456	0.487
329.999	241.099	80.004	19.996	100.319	20.007	1.411	0.483
331.999	242.083	80.004	19.997	100.319	20.005	1.536	0.517
333.999	243.105	80.004	19.996	100.326	20.004	1.584	0.507
336.000	244.105	80.006	19.996	100.324	20.006	1.485	0.501
338.000	245.063	80.005	19.996	100.314	20.006	1.435	0.483
339.999	246.047	80.004	19.995	100.323	20.006	1.457	0.471
341.999	247.049	80.005	19.995	100.328	20.006	1.428	0.515
343.999	248.048	80.005	19.996	100.322	20.009	1.269	0.496
345.999	249.054	80.005	19.995	100.321	20.008	1.310	0.489
347.999	250.095	80.006	19.994	100.320	20.004	1.584	0.539
349.999	251.103	80.004	19.996	100.318	20.008	1.334	0.508
352.000	252.120	80.005	19.996	100.317	20.008	1.333	0.487
353.999	253.092	80.005	19.995	100.309	20.007	1.380	0.479
355.999	254.103	80.007	19.996	100.318	20.009	1.280	0.477
357.999	255.121	80.005	19.994	100.322	20.010	1.230	0.501
359.999	256.099	80.006	19.994	100.315	20.010	1.184	0.486
361.999	257.082	80.007	19.995	100.323	20.012	1.047	0.498
363.999	258.090	80.007	19.995	100.317	20.008	1.343	0.547
365.999	259.063	80.008	19.995	100.325	20.009	1.281	0.486
367.999	260.058	80.004	19.994	100.326	20.009	1.292	0.490
370.000	261.014	80.005	19.994	100.317	20.014	0.955	0.509
371.999	262.024	80.006	19.995	100.318	20.011	1.143	0.490
373.999	263.004	80.005	19.994	100.317	20.013	1.001	0.461
375.999	264.006	80.007	19.994	100.321	20.011	1.133	0.516
377.999	265.023	80.006	19.995	100.329	20.010	1.201	0.536
379.999	266.002	80.007	19.994	100.323	20.011	1.133	0.466
382.000	266.986	80.007	19.994	100.312	20.010	1.206	0.474
383.999	268.046	80.007	19.994	100.305	20.011	1.156	0.529
385.999	269.008	80.009	19.995	100.317	20.013	1.025	0.464
387.999	270.030	80.006	19.995	100.313	20.014	0.929	0.499
389.999	271.025	80.007	19.995	100.304	20.015	0.859	0.500
391.999	272.052	80.007	19.994	100.305	20.017	0.762	0.470
393.999	273.044	80.009	19.996	100.309	20.013	1.033	0.484
395.999	274.009	80.006	19.995	100.298	20.014	0.936	0.508
398.000	275.061	80.006	19.995	100.303	20.011	1.163	0.510
399.999	276.028	80.007	19.996	100.309	20.011	1.136	0.496
401.999	277.067	80.005	19.996	100.294	20.011	1.148	0.485
403.999	278.064	80.006	19.995	100.293	20.010	1.213	0.432
406.000	279.044	80.006	19.995	100.297	20.012	1.088	0.490
407.999	280.059	80.006	19.995	100.306	20.008	1.324	0.497
409.999	281.006	80.004	19.995	100.296	20.009	1.283	0.469
411.999	282.009	80.005	19.995	100.310	20.010	1.233	0.479
413.999	282.968	80.006	19.995	100.323	20.008	1.339	0.486
416.000	283.944	80.005	19.996	100.306	20.010	1.187	0.495
417.999	284.954	80.006	19.995	100.303	20.011	1.117	0.501
419.999	285.952	80.005	19.993	100.303	20.013	1.013	0.497
422.000	286.906	80.005	19.996	100.306	20.010	1.199	0.486
423.999	287.920	80.004	19.996	100.301	20.012	1.098	0.500
426.000	288.909	80.003	19.997	100.305	20.009	1.266	0.509
427.999	289.895	80.005	19.997	100.300	20.010	1.215	0.485
429.999	290.893	80.005	19.996	100.307	20.009	1.247	0.468
431.999	291.919	80.004	19.996	100.307	20.011	1.117	0.505
433.999	292.902	80.003	19.996	100.300	20.009	1.271	0.491
435.999	293.911	80.004	19.994	100.296	20.016	0.798	0.506
437.999	294.928	80.006	19.995	100.301	20.012	1.093	0.522
440.000	295.920	80.006	19.995	100.309	20.012	1.095	0.484
442.000	296.887	80.006	19.994	100.302	20.009	1.272	0.495
444.000	297.907	80.007	19.995	100.301	20.016	0.846	0.511
446.000	298.889	80.006	19.995	100.298	20.013	1.006	0.470
447.999	299.860	80.008	19.995	100.294	20.012	1.078	0.481
449.999	300.872	80.007	19.995	100.293	20.008	1.320	0.496
451.999	301.856	80.008	19.995	100.292	20.012	1.102	0.500
453.999	302.834	80.007	19.995	100.292	20.011	1.129	0.521
455.999	303.847	80.006	19.995	100.300	20.013	1.038	0.485
458.000	304.888	80.008	19.994	100.293	20.011	1.124	0.525
459.999	305.871	80.008	19.995	100.292	20.006	1.467	0.500
462.000	306.848	80.007	19.995	100.293	20.010	1.177	0.488
464.000	307.869	80.008	19.994	100.294	20.009	1.252	0.525
465.999	308.839	80.008	19.995	100.293	20.010	1.182	0.512
468.000	309.849	80.008	19.995	100.293	20.007	1.385	0.475
469.999	310.845	80.008	19.994	100.291	20.010	1.182	0.496
472.000	311.854	80.008	19.994	100.291	20.012	1.107	0.508
473.999	312.836	80.009	19.994	100.291	20.007	1.366	0.504
476.000	313.836	80.007	19.995	100.291	20.009	1.274	0.492
477.999	314.839	80.007	19.994	100.292	20.009	1.254	0.547
479.999	315.822	80.005	19.994	100.293	20.007	1.419	0.460
481.999	316.822	80.005	19.995	100.297	20.009	1.237	0.517
483.999	317.878	80.005	19.994	100.295	20.008	1.307	0.499
485.999	318.855	80.004	19.995	100.295	20.006	1.457	0.515
488.000	319.815	80.005	19.995	100.297	20.004	1.561	0.476
490.000	320.796	80.003	19.996	100.299	20.006	1.435	0.486
491.999	321.811	80.004	19.995	100.294	20.006	1.484	0.483
493.999	322.797	80.005	19.995	100.294	20.001	1.740	0.509
495.999	323.810	80.006	19.995	100.293	20.004	1.580	0.510
497.999	324.791	80.007	19.995	100.294	20.003	1.670	0.491
500.000	325.785	80.006	19.994	100.295	20.009	1.279	0.513
501.999	326.737	80.004	19.994	100.295	20.005	1.500	0.432
503.999	327.785	80.005	19.995	100.295	20.005	1.517	0.498
505.999	328.805	80.004	19.995	100.296	20.006	1.465	0.547
507.999	329.756	80.006	19.995	100.296	20.001	1.740	0.490
509.999	330.792	80.005	19.996	100.294	20.002	1.691	0.512
512.000	331.789	80.005	19.994	100.294	20.001	1.752	0.505
513.999	332.831	80.003	19.996	100.290	19.999	1.886	0.512
515.999	333.869	80.004	19.996	100.290	19.999	1.889	0.499
518.000	334.862	80.004	19.996	100.289	19.999	1.887	0.505
519.999	335.863	80.005	19.997	100.290	20.000	1.845	0.494
521.999	336.890	80.003	19.996	100.290	19.993	2.266	0.514
523.999	337.918	80.007	19.996	100.289	19.993	2.241	0.530
525.999	338.916	80.006	19.996	100.289	19.996	2.063	0.497
528.000	339.919	80.006	19.995	100.288	19.996	2.104	0.527
529.999	340.912	80.006	19.995	100.289	19.994	2.186	0.508
532.000	341.954	80.005	19.994	100.291	19.991	2.403	0.535
533.999	342.953	80.007	19.995	100.291	19.992	2.360	0.534
535.999	343.929	80.006	19.996	100.290	19.991	2.386	0.479
538.000	344.888	80.007	19.995	100.290	19.993	2.292	0.497
540.000	345.954	80.005	19.994	100.291	19.993	2.292	0.530
541.999	347.005	80.005	19.995	100.291	19.988	2.581	0.581
543.999	347.989	80.005	19.995	100.291	19.984	2.813	0.514
545.999	349.023	80.007	19.995	100.290	19.989	2.500	0.510
547.999	350.034	80.008	19.994	100.292	19.982	2.979	0.552
549.999	351.048	80.008	19.995	100.294	19.984	2.840	0.535
552.000	352.078	80.009	19.994	100.294	19.983	2.921	0.497
553.999	353.155	80.010	19.995	100.293	19.978	3.199	0.540
556.000	354.149	80.006	19.995	100.290	19.972	3.599	0.519
557.999	355.178	80.005	19.994	100.290	19.973	3.524	0.540
560.000	356.220	80.006	19.994	100.292	19.971	3.662	0.550
561.999	357.206	80.004	19.995	100.292	19.967	3.903	0.505
564.000	358.211	80.003	19.995	100.293	19.963	4.137	0.537
565.999	359.241	80.005	19.996	100.293	19.960	4.352	0.536
567.999	360.239	80.005	19.994	100.294	19.960	4.310	0.502
570.000	361.268	80.003	19.994	100.289	19.957	4.500	0.509
572.000	362.310	80.005	19.994	100.293	19.955	4.621	0.534
573.999	363.322	80.005	19.995	100.295	19.951	4.907	0.529
576.000	364.355	80.006	19.995	100.285	19.946	5.178	0.497
577.999	365.416	80.006	19.995	100.283	19.943	5.393	0.546
580.000	366.431	80.005	19.995	100.277	19.942	5.489	0.505
581.999	367.446	80.004	19.995	100.273	19.938	5.683	0.513
583.999	368.503	80.004	19.995	100.275	19.937	5.752	0.502
586.000	369.540	80.004	19.996	100.289	19.937	5.753	0.505
588.000	370.558	80.005	19.996	100.272	19.931	6.115	0.491
589.999	371.605	80.005	19.995	100.282	19.926	6.441	0.491
591.999	372.639	80.007	19.996	100.273	19.923	6.630	0.518
593.999	373.666	80.005	19.995	100.280	19.913	7.256	0.501
595.999	374.699	80.002	19.994	100.284	19.910	7.456	0.506
597.999	375.722	80.004	19.996	100.276	19.902	7.946	0.510
599.999	376.722	80.005	19.994	100.266	19.897	8.275	0.495
602.000	377.731	80.004	19.994	100.265	19.891	8.617	0.489
603.999	378.771	80.005	19.996	100.264	19.886	8.941	0.516
606.000	379.850	80.005	19.995	100.255	19.889	8.760	0.543
607.999	380.844	80.005	19.996	100.254	19.883	9.180	0.495
609.999	381.876	80.005	19.996	100.251	19.882	9.222	0.542
611.999	382.866	80.005	19.996	100.253	19.877	9.519	0.508
613.999	383.888	80.006	19.996	100.255	19.873	9.775	0.503
615.999	384.870	80.007	19.996	100.260	19.867	10.157	0.481
617.999	385.867	80.005	19.996	100.278	19.861	10.556	0.494
619.999	386.913	80.006	19.997	100.265	19.854	10.986	0.519
621.999	387.904	80.005	19.995	100.257	19.852	11.117	0.511
623.999	388.922	80.007	19.996	100.259	19.842	11.700	0.489
625.999	389.884	80.007	19.995	100.254	19.834	12.193	0.488
627.999	390.890	80.006	19.995	100.260	19.822	12.939	0.487
630.000	391.928	80.005	19.994	100.262	19.812	13.612	0.506
632.000	392.914	80.006	19.993	100.257	19.804	14.079	0.491
633.999	393.925	80.007	19.994	100.255	19.800	14.324	0.527
635.999	394.975	80.008	19.994	100.254	19.794	14.712	0.524
638.000	395.948	80.010	19.995	100.251	19.785	15.299	0.487
639.999	396.938	80.007	19.994	100.261	19.778	15.690	0.503
641.999	397.985	80.008	19.995	100.255	19.775	15.895	0.520
644.000	398.975	80.006	19.994	100.250	19.773	16.014	0.506
645.999	399.962	80.005	19.995	100.250	19.760	16.868	0.498
647.999	400.941	80.004	19.996	100.251	19.741	18.018	0.519
649.999	401.894	80.005	19.995	100.253	19.726	18.980	0.491
651.999	402.915	80.005	19.996	100.254	19.716	19.567	0.509
654.000	403.920	80.006	19.994	100.248	19.698	20.744	0.497
655.999	404.931	80.006	19.995	100.235	19.679	21.879	0.487
658.000	405.952	80.004	19.995	100.248	19.662	22.995	0.534
660.000	406.946	80.006	19.995	100.254	19.643	24.175	0.516
661.999	407.969	80.006	19.994	100.253	19.625	25.307	0.499
663.999	408.953	80.007	19.995	100.252	19.607	26.441	0.498
665.999	409.978	80.007	19.995	100.253	19.585	27.782	0.526
668.000	410.969	80.006	19.996	100.253	19.569	28.784	0.505
669.999	411.978	80.007	19.995	100.247	19.544	30.339	0.482
671.999	412.996	80.005	19.995	100.246	19.512	32.349	0.480
673.999	414.002	80.007	19.995	100.253	19.472	34.875	0.509
675.999	414.991	80.006	19.994	100.254	19.431	37.385	0.476
677.999	416.032	80.004	19.997	100.242	19.400	39.348	0.529
679.999	417.032	80.006	19.995	100.213	19.368	41.379	0.501
682.000	418.091	80.005	19.996	100.212	19.338	43.219	0.515
683.999	419.135	80.005	19.996	100.210	19.306	45.194	0.513
686.000	420.163	80.005	19.995	100.214	19.270	47.435	0.513
688.000	421.195	80.007	19.996	100.217	19.226	50.196	0.507
689.999	422.215	80.007	19.995	100.217	19.181	53.009	0.515
691.999	423.215	80.007	19.996	100.216	19.132	56.127	0.493
694.000	424.275	80.007	19.995	100.211	19.086	58.969	0.517
696.000	425.275	80.006	19.996	100.196	19.033	62.292	0.500
697.999	426.324	80.005	19.995	100.189	18.972	66.071	0.529
699.999	427.364	80.006	19.995	100.207	18.909	69.978	0.498
701.999	428.371	80.004	19.996	100.191	18.828	75.096	0.500
703.999	429.437	80.003	19.997	100.206	18.747	80.135	0.512
706.000	430.438	80.007	19.997	100.189	18.674	84.683	0.529
707.999	431.479	80.004	19.995	100.166	18.594	89.649	0.505
710.000	432.516	80.005	19.997	100.140	18.496	95.772	0.518
711.999	433.546	80.006	19.997	100.151	18.390	102.390	0.504
713.999	434.593	80.005	19.995	100.178	18.275	109.631	0.510
716.000	435.621	80.008	19.996	100.174	18.157	116.993	0.541
718.000	436.602	80.007	19.996	100.150	18.043	124.064	0.502
719.999	437.608	80.008	19.995	100.104	17.911	132.260	0.514
721.999	438.598	80.008	19.996	100.111	17.752	142.152	0.500
723.999	439.579	80.009	19.997	100.125	17.579	152.932	0.516
725.999	440.580	80.007	19.995	100.143	17.399	164.153	0.496
727.999	441.545	80.006	19.993	100.119	17.205	176.214	0.480
729.999	442.588	80.005	19.995	100.055	16.991	189.537	0.535
731.999	443.553	80.005	19.994	100.054	16.758	203.973	0.503
733.999	444.554	80.006	19.995	100.033	16.498	219.967	0.488
735.999	445.529	80.005	19.994	100.040	16.224	236.815	0.510
737.999	446.511	80.005	19.995	99.990	15.916	255.945	0.501
739.999	447.536	80.005	19.995	99.970	15.588	276.009	0.508
741.999	448.530	80.004	19.995	99.968	15.272	295.660	0.509
743.999	449.521	80.005	19.995	99.838	14.953	316.112	0.477
745.999	450.558	80.006	19.995	99.791	14.654	334.475	0.503
747.999	451.538	80.005	19.995	99.703	14.414	348.425	0.500
749.999	452.467	80.005	19.994	99.663	14.164	363.624	0.488
751.999	453.451	80.005	19.994	99.561	13.843	383.597	0.511
753.999	454.467	80.006	19.995	99.707	13.521	404.439	0.489
755.999	455.474	80.005	19.995	99.833	13.227	422.027	0.480
757.999	456.475	80.004	19.996	99.596	12.933	438.950	0.508
760.000	457.392	80.005	19.995	99.375	12.662	455.439	0.465
761.999	458.406	80.004	19.994	99.351	12.373	473.440	0.513
763.999	459.432	80.004	19.994	99.483	12.069	490.760	0.512
765.999	460.369	80.004	19.995	99.612	11.838	504.938	0.485
768.000	461.335	80.005	19.995	99.276	11.626	520.880	0.480
770.000	462.367	80.005	19.996	99.077	11.455	531.913	0.559
772.000	463.314	80.006	19.995	99.090	11.474	529.374	0.516
773.999	464.273	80.007	19.996	98.997	11.592	521.802	0.472
775.999	465.212	80.007	19.995	98.699	11.600	521.587	0.467
778.000	466.218	80.007	19.996	99.039	11.642	519.004	0.505
779.999	467.223	80.005	19.995	99.476	11.721	514.240	0.520
782.000	468.237	80.006	19.996	99.287	11.785	510.330	0.491
783.999	469.204	80.006	19.995	99.105	11.894	502.734	0.505
785.999	470.259	80.006	19.996	99.134	12.023	495.062	0.512
787.999	471.247	80.006	19.996	99.174	12.154	487.002	0.476
789.999	472.252	80.007	19.995	99.181	12.317	476.982	0.479
791.999	473.257	80.006	19.996	99.203	12.523	464.754	0.514
793.999	474.302	80.007	19.997	99.095	12.792	448.813	0.506
795.999	475.377	80.008	19.997	99.052	13.154	426.963	0.547
797.999	476.375	80.006	19.993	99.094	13.604	399.390	0.506
800.000	477.386	80.008	19.994	99.102	14.121	367.616	0.497
801.999	478.450	80.006	19.997	99.166	14.672	333.642	0.527
804.000	479.488	80.006	19.995	99.300	15.241	298.464	0.532
805.999	480.457	80.006	19.994	99.454	15.796	264.013	0.518
807.999	481.525	80.005	19.996	99.560	16.339	229.745	0.550
810.000	482.583	80.004	19.998	99.656	16.859	196.379	0.538
812.000	483.603	80.004	19.995	99.758	17.338	167.597	0.533
813.999	484.657	80.004	19.994	99.848	17.769	141.031	0.541
815.999	485.665	80.004	19.998	99.921	18.153	117.076	0.509
817.999	486.687	80.005	19.995	99.943	18.481	96.633	0.536
819.999	487.734	80.004	19.996	99.440	18.766	78.849	0.508
821.999	488.749	80.005	19.996	99.538	19.002	64.227	0.486
823.999	489.800	80.006	19.994	99.928	19.201	51.797	0.525
825.999	490.790	80.004	19.995	99.996	19.362	41.724	0.506
827.999	491.842	80.004	19.996	100.031	19.490	33.703	0.515
829.999	492.874	80.004	19.994	100.017	19.600	26.834	0.536
832.000	493.914	80.004	19.995	100.143	19.685	21.521	0.526
833.999	494.894	80.005	19.994	100.177	19.759	16.888	0.478
835.999	495.920	80.005	19.999	100.177	19.817	13.237	0.490
837.999	496.945	80.004	19.994	100.178	19.865	10.274	0.541
840.000	497.949	80.003	19.994	100.176	19.901	8.003	0.506
842.000	498.943	80.004	19.996	100.176	19.930	6.189	0.493
843.999	499.955	80.004	19.995	100.174	19.951	4.872	0.491
845.999	500.975	80.004	19.995	100.182	19.969	3.766	0.489
847.999	502.007	80.005	19.996	100.187	19.982	2.939	0.510
850.000	503.017	80.005	19.995	100.177	19.987	2.638	0.495
852.000	504.033	80.006	19.994	100.175	19.995	2.171	0.505
853.999	504.991	80.006	19.995	100.175	19.996	2.067	0.499
856.000	506.061	80.007	19.995	100.191	20.002	1.700	0.521
857.999	507.081	80.008	19.996	100.210	20.008	1.337	0.518
859.999	508.070	80.006	19.992	100.213	20.014	0.941	0.488
862.000	509.093	80.008	19.995	100.213	20.012	1.088	0.499
863.999	510.104	80.007	19.995	100.214	20.012	1.105	0.517
865.999	511.170	80.006	19.994	100.221	20.017	0.787	0.495
867.999	512.202	80.006	19.996	100.242	20.014	0.963	0.524
869.999	513.240	80.004	19.995	100.244	20.021	0.497	0.534
871.999	514.323	80.006	19.995	100.247	20.019	0.633	0.533
873.999	515.439	80.005	19.995	100.246	20.018	0.695	0.540
875.999	516.457	80.006	19.996	100.252	20.021	0.521	0.548
877.999	517.542	80.007	19.995	100.253	20.019	0.615	0.534
879.999	518.533	80.007	19.993	100.252	20.021	0.533	0.491
881.999	519.624	80.007	19.995	100.255	20.018	0.697	0.553
884.000	520.695	80.009	19.994	100.254	20.023	0.360	0.551
886.000	521.770	80.008	19.996	100.255	20.024	0.306	0.525
888.000	522.806	80.007	19.993	100.255	20.019	0.645	0.524
889.999	523.862	80.007	19.995	100.254	20.019	0.664	0.552
891.999	524.908	80.003	19.996	100.257	20.021	0.502	0.525
893.999	525.995	80.004	19.995	100.268	20.019	0.661	0.547
895.999	527.006	80.003	19.997	100.256	20.017	0.782	0.527
898.000	528.105	80.004	19.995	100.255	20.021	0.495	0.539
899.999	529.161	80.004	19.995	100.255	20.020	0.589	0.554
901.999	530.209	80.003	19.997	100.260	20.022	0.451	0.532
903.999	531.271	80.004	19.996	100.262	20.023	0.398	0.536
905.999	532.324	80.006	19.995	100.258	20.024	0.341	0.522
907.999	533.377	80.005	19.998	100.251	20.023	0.403	0.541
910.000	534.485	80.007	19.993	100.252	20.022	0.437	0.573
911.999	535.568	80.007	19.996	100.255	20.023	0.386	0.548
914.000	536.616	80.005	19.995	100.259	20.024	0.302	0.517
915.999	537.700	80.007	19.994	100.254	20.023	0.377	0.530
917.999	538.737	80.006	19.995	100.252	20.023	0.415	0.518
919.999	539.842	80.006	19.995	100.255	20.023	0.379	0.528
921.999	540.887	80.004	19.994	100.256	20.025	0.239	0.527
924.000	541.934	80.005	19.997	100.257	20.026	0.222	0.541
926.000	543.024	80.005	19.996	100.252	20.029	0.019	0.522
928.000	544.029	80.005	19.995	100.252	20.029	-0.009	0.529
930.000	545.047	80.004	19.995	100.253	20.025	0.266	0.524
931.999	546.125	80.007	19.995	100.252	20.022	0.470	0.517
933.999	547.103	80.006	19.996	100.249	20.024	0.350	0.526
936.000	548.129	80.007	19.995	100.250	20.025	0.271	0.492
937.999	549.175	80.007	19.994	100.250	20.026	0.229	0.509
939.999	550.177	80.006	19.995	100.251	20.027	0.167	0.493
941.999	551.156	80.007	19.996	100.251	20.026	0.210	0.470
943.999	552.123	80.006	19.992	100.253	20.028	0.061	0.465
945.999	553.121	80.006	19.993	100.255	20.029	0.019	0.503
948.000	554.174	80.007	19.997	100.256	20.028	0.050	0.519
950.000	555.136	80.006	19.994	100.256	20.024	0.311	0.504
951.999	556.136	80.007	19.995	100.254	20.027	0.126	0.479
954.000	557.111	80.007	19.996	100.253	20.029	-0.012	0.507
955.999	558.071	80.007	19.995	100.255	20.027	0.113	0.489
958.000	559.061	80.006	19.995	100.263	20.026	0.203	0.463
960.000	560.050	80.006	19.995	100.242	20.028	0.072	0.489
962.000	561.011	80.006	19.993	100.265	20.028	0.048	0.471
963.999	562.035	80.007	19.996	100.255	20.029	-0.015	0.522
965.999	562.984	80.006	19.994	100.256	20.030	-0.036	0.468
968.000	563.982	80.006	19.995	100.255	20.028	0.051	0.493
969.999	564.923	80.006	19.996	100.255	20.031	-0.097	0.442
971.999	565.915	80.005	19.995	100.253	20.033	-0.242	0.486
973.999	566.933	80.006	19.995	100.251	20.034	-0.328	0.493
976.000	567.880	80.005	19.995	100.254	20.035	-0.341	0.481
978.000	568.891	80.005	19.995	100.254	20.032	-0.179	0.499
979.999	569.914	80.005	19.996	100.253	20.034	-0.268	0.523
981.999	570.926	80.003	19.996	100.257	20.032	-0.160	0.501
983.999	571.945	80.004	19.996	100.257	20.031	-0.133	0.538
985.999	572.971	80.005	19.998	100.251	20.032	-0.195	0.533
987.999	573.971	80.006	19.997	100.252	20.033	-0.205	0.512
989.999	575.109	80.006	19.996	100.259	20.034	-0.318	0.545
991.999	576.133	80.005	19.996	100.256	20.032	-0.150	0.502
993.999	577.185	80.005	19.996	100.250	20.034	-0.271	0.547
996.000	578.204	80.004	19.997	100.251	20.032	-0.171	0.516
997.999	579.290	80.004	19.996	100.250	20.031	-0.092	0.533
999.999	580.327	80.004	19.997	100.249	20.031	-0.099	0.517
1001.999	581.372	80.004	19.996	100.252	20.033	-0.220	0.515
1004.000	582.398	80.003	19.994	100.251	20.034	-0.300	0.536
1005.999	583.442	80.004	19.995	100.253	20.033	-0.210	0.492
1008.000	584.518	80.005	19.995	100.254	20.036	-0.398	0.526
1009.999	585.582	80.003	19.995	100.254	20.035	-0.377	0.531
1011.999	586.651	80.004	19.994	100.258	20.032	-0.159	0.550
1013.999	587.655	80.005	19.998	100.256	20.027	0.130	0.489
1015.999	588.735	80.005	19.996	100.256	20.030	-0.034	0.491
1017.999	589.797	80.006	19.995	100.259	20.032	-0.201	0.528
1019.999	590.845	80.005	19.995	100.256	20.034	-0.280	0.554
1021.999	591.856	80.006	19.995	100.255	20.031	-0.120	0.510
1024.000	592.931	80.005	19.994	100.254	20.035	-0.384	0.541
1025.999	593.956	80.005	19.995	100.254	20.032	-0.166	0.520
1027.999	595.007	80.006	19.995	100.254	20.035	-0.359	0.530
1029.999	596.028	80.005	19.996	100.254	20.035	-0.335	0.585
1031.999	597.108	80.004	19.996	100.255	20.035	-0.355	0.582
1033.999	598.122	80.004	19.996	100.255	20.034	-0.300	0.465
1035.999	599.129	80.007	19.996	100.256	20.035	-0.347	0.467
1037.999	600.146	80.006	19.995	100.253	20.035	-0.335	0.495
1039.999	601.102	80.008	19.994	100.247	20.036	-0.423	0.456
1041.999	602.133	80.008	19.995	100.248	20.035	-0.384	0.487
1043.999	603.126	80.007	19.994	100.252	20.034	-0.273	0.518
1045.999	604.107	80.008	19.995	100.243	20.036	-0.410	0.505
1047.999	605.038	80.009	19.993	100.239	20.036	-0.423	0.479
1049.999	606.012	80.008	19.995	100.243	20.031	-0.109	0.447
1051.999	607.022	80.006	19.995	100.247	20.032	-0.150	0.460
1053.999	607.951	80.007	19.995	100.248	20.031	-0.118	0.476
1055.999	608.915	80.005	19.995	100.251	20.031	-0.108	0.485
1057.999	609.907	80.004	19.996	100.250	20.028	0.060	0.465
1059.999	610.827	80.005	19.996	100.250	20.033	-0.213	0.478
1061.999	611.820	80.006	19.997	100.251	20.030	-0.038	0.488
1063.999	612.687	80.005	19.996	100.251	20.031	-0.092	0.464
1065.999	613.675	80.005	19.995	100.249	20.031	-0.084	0.464
1067.999	614.637	80.006	19.995	100.252	20.030	-0.077	0.465
1069.999	615.641	80.005	19.995	100.254	20.030	-0.020	0.492
1071.999	616.572	80.005	19.996	100.254	20.034	-0.282	0.466
1073.999	617.613	80.006	19.995	100.254	20.034	-0.271	0.481
1075.999	618.599	80.005	19.994	100.254	20.031	-0.135	0.502
1077.999	619.550	80.005	19.995	100.258	20.033	-0.241	0.482
1079.999	620.579	80.005	19.998	100.261	20.033	-0.246	0.522
1081.999	621.570	80.004	19.995	100.261	20.031	-0.128	0.539
1083.999	622.620	80.003	19.996	100.254	20.032	-0.188	0.518
1085.999	623.644	80.004	19.996	100.254	20.037	-0.470	0.526
1087.999	624.717	80.003	19.997	100.255	20.036	-0.413	0.553
1089.999	625.713	80.003	19.996	100.254	20.031	-0.128	0.508
1091.999	626.736	80.003	19.993	100.256	20.034	-0.319	0.504
1093.999	627.758	80.004	19.996	100.258	20.035	-0.376	0.514
1095.999	628.816	80.005	19.995	100.258	20.033	-0.212	0.544
1097.999	629.889	80.005	19.996	100.257	20.037	-0.492	0.541
1099.999	630.957	80.006	19.995	100.256	20.035	-0.391	0.562
1101.999	631.952	80.006	19.995	100.256	20.036	-0.413	0.500
1103.999	632.993	80.007	19.994	100.252	20.036	-0.434	0.524
1105.999	634.035	80.007	19.995	100.255	20.035	-0.381	0.505
1107.999	635.075	80.007	19.994	100.250	20.035	-0.377	0.523
1109.999	636.118	80.006	19.995	100.250	20.031	-0.109	0.512
1111.999	637.194	80.006	19.994	100.252	20.033	-0.225	0.552
1113.999	638.192	80.006	19.994	100.254	20.030	-0.038	0.518
1115.999	639.203	80.006	19.996	100.260	20.036	-0.398	0.501
1117.999	640.213	80.005	19.996	100.255	20.034	-0.307	0.505
1119.999	641.189	80.006	19.995	100.253	20.033	-0.205	0.520
1121.999	642.200	80.008	19.995	100.250	20.033	-0.220	0.517
1123.999	643.200	80.008	19.995	100.252	20.032	-0.196	0.489
1125.999	644.219	80.008	19.996	100.251	20.031	-0.106	0.521
1127.999	645.187	80.007	19.994	100.255	20.035	-0.345	0.501
1130.000	646.197	80.008	19.994	100.265	20.033	-0.258	0.522
1131.999	647.221	80.008	19.994	100.270	20.033	-0.215	0.505
1133.999	648.213	80.009	19.995	100.255	20.031	-0.128	0.499
1136.000	649.220	80.006	19.995	100.253	20.029	0.010	0.484
1137.999	650.232	80.006	19.994	100.252	20.034	-0.316	0.533
1139.999	651.248	80.005	19.993	100.251	20.035	-0.343	0.518
1141.999	652.275	80.006	19.994	100.253	20.038	-0.521	0.495
1143.999	653.309	80.005	19.995	100.253	20.034	-0.319	0.489
1145.999	654.235	80.006	19.994	100.254	20.034	-0.311	0.500
1147.999	655.256	80.006	19.994	100.247	20.035	-0.347	0.492
1149.999	656.317	80.005	19.995	100.248	20.033	-0.254	0.497
1151.999	657.336	80.005	19.995	100.250	20.035	-0.388	0.525
1153.999	658.300	80.005	19.995	100.253	20.035	-0.367	0.485
1155.999	659.361	80.006	19.995	100.254	20.029	-0.012	0.514
1157.999	660.348	80.006	19.994	100.253	20.035	-0.360	0.519
1159.999	661.333	80.005	19.994	100.251	20.032	-0.178	0.494
1161.999	662.343	80.006	19.995	100.255	20.032	-0.152	0.527
1163.999	663.355	80.006	19.995	100.255	20.032	-0.181	0.490
1165.999	664.342	80.005	19.995	100.254	20.030	-0.020	0.460
1167.999	665.406	80.005	19.995	100.255	20.030	-0.046	0.528
1169.999	666.440	80.005	19.997	100.253	20.032	-0.155	0.531
1171.999	667.493	80.006	19.996	100.253	20.031	-0.104	0.542
1173.999	668.573	80.006	19.995	100.252	20.032	-0.167	0.553
1175.999	669.629	80.007	19.996	100.251	20.030	-0.075	0.547
1177.999	670.709	80.005	19.996	100.254	20.033	-0.241	0.546
1179.999	671.794	80.006	19.996	100.252	20.035	-0.377	0.551
1181.999	672.904	80.007	19.996	100.251	20.033	-0.213	0.560
1183.999	673.980	80.007	19.996	100.251	20.036	-0.410	0.562
1185.999	675.087	80.008	19.996	100.250	20.030	-0.067	0.527
1187.999	676.241	80.005	19.996	100.254	20.027	0.121	0.545
1189.999	677.328	80.009	19.995	100.253	20.030	-0.073	0.538
1191.999	678.437	80.005	19.995	100.251	20.029	-0.010	0.542
1193.999	679.591	80.006	19.995	100.253	20.030	-0.048	0.595
1195.999	680.650	80.005	19.995	100.250	20.031	-0.090	0.525
1198.000	681.778	80.007	19.996	100.251	20.032	-0.166	0.597
1199.999	682.929	80.006	19.994	100.251	20.031	-0.130	0.572
1201.999	683.913	80.007	19.995	100.253	20.032	-0.184	0.556
1203.999	685.021	80.007	19.994	100.260	20.031	-0.123	0.556
1205.999	686.141	80.008	19.995	100.253	20.032	-0.201	0.551
1207.999	687.193	80.006	19.994	100.254	20.031	-0.111	0.546
1209.999	688.274	80.008	19.994	100.258	20.031	-0.135	0.505
1211.999	689.393	80.009	19.995	100.257	20.033	-0.234	0.550
1213.999	690.487	80.008	19.995	100.260	20.031	-0.080	0.544
1215.999	691.581	80.008	19.994	100.251	20.033	-0.217	0.528
1217.999	692.672	80.006	19.994	100.253	20.031	-0.135	0.537
1219.999	693.749	80.007	19.995	100.253	20.031	-0.137	0.528
1221.999	694.805	80.005	19.995	100.251	20.029	0.010	0.528
1223.999	695.852	80.005	19.995	100.255	20.028	0.060	0.515
1225.999	696.952	80.005	19.995	100.254	20.030	-0.051	0.542
1227.999	698.021	80.005	19.994	100.256	20.030	-0.024	0.522
1229.999	699.038	80.005	19.994	100.256	20.029	0.029	0.530
1231.999	700.107	80.006	19.994	100.256	20.029	-0.007	0.510
1233.999	701.137	80.007	19.994	100.255	20.032	-0.196	0.522
1235.999	702.151	80.007	19.994	100.252	20.030	-0.027	0.524
1237.999	703.210	80.006	19.995	100.252	20.030	-0.046	0.525
1239.999	704.256	80.007	19.995	100.252	20.029	0.015	0.508
1241.999	705.252	80.006	19.995	100.252	20.032	-0.169	0.504
1243.999	706.251	80.006	19.996	100.252	20.032	-0.191	0.486
1245.999	707.290	80.006	19.996	100.250	20.027	0.126	0.503
1247.999	708.281	80.006	19.996	100.251	20.030	-0.067	0.514
1249.999	709.280	80.005	19.995	100.251	20.034	-0.297	0.504
1251.999	710.287	80.005	19.995	100.251	20.028	0.072	0.481
1253.999	711.296	80.006	19.995	100.253	20.034	-0.280	0.527
1255.999	712.299	80.006	19.994	100.252	20.030	-0.034	0.512
1257.999	713.280	80.004	19.997	100.252	20.028	0.061	0.504
1259.999	714.278	80.005	19.995	100.252	20.029	-0.012	0.512
1261.999	715.279	80.007	19.995	100.252	20.031	-0.096	0.502
1263.999	716.315	80.006	19.995	100.251	20.030	-0.029	0.511
1265.999	717.294	80.006	19.995	100.251	20.028	0.063	0.511
1267.999	718.257	80.006	19.996	100.253	20.028	0.094	0.486
1269.999	719.267	80.006	19.995	100.252	20.027	0.160	0.510
1271.999	720.233	80.007	19.996	100.249	20.026	0.178	0.502
1273.999	721.200	80.008	19.996	100.253	20.026	0.217	0.481
1275.999	722.154	80.006	19.996	100.253	20.030	-0.022	0.480
1277.999	723.160	80.006	19.996	100.251	20.029	0.041	0.470
1279.999	724.059	80.007	19.997	100.254	20.031	-0.133	0.466
1281.999	725.047	80.006	19.997	100.254	20.031	-0.111	0.519
1283.999	725.990	80.006	19.996	100.253	20.032	-0.149	0.492
1285.999	726.912	80.005	19.995	100.254	20.034	-0.295	0.466
1287.999	727.904	80.007	19.994	100.253	20.030	-0.039	0.479
1289.999	728.830	80.008	19.994	100.241	20.028	0.104	0.505
1291.999	729.841	80.007	19.995	100.248	20.029	-0.009	0.491
1293.999	730.804	80.008	19.995	100.252	20.029	0.036	0.485
1295.999	731.784	80.007	19.995	100.256	20.029	0.039	0.486
1297.999	732.754	80.006	19.995	100.253	20.029	0.043	0.505
1299.999	733.719	80.007	19.995	100.253	20.029	0.002	0.506
1301.999	734.711	80.007	19.995	100.252	20.027	0.169	0.507
1303.999	735.634	80.006	19.996	100.252	20.030	-0.034	0.477
1305.999	736.621	80.005	19.996	100.252	20.026	0.183	0.474
1307.999	737.631	80.006	19.995	100.245	20.029	0.019	0.499
1309.999	738.575	80.005	19.995	100.254	20.027	0.116	0.516
1311.999	739.551	80.006	19.996	100.252	20.031	-0.130	0.497
1313.999	740.582	80.007	19.996	100.251	20.029	0.010	0.515
1315.999	741.559	80.007	19.996	100.252	20.029	0.038	0.519
1317.999	742.510	80.007	19.995	100.252	20.031	-0.080	0.471
1319.999	743.494	80.006	19.995	100.253	20.031	-0.114	0.496
1321.999	744.518	80.008	19.995	100.253	20.028	0.055	0.453
1323.999	745.513	80.006	19.995	100.252	20.029	0.015	0.483