File: 01_Data/PP/MCC/PP_MCC_30K_min_210928_R2.txt
Sample ID:	C:\MCC\MCC Cal\Test\PP_MCC_30K_min_210928_R2.txt
Sample Weight (mg):	5
Heating Rate (C/s):	0.5
Combustor Temp (C):	900
N2 Flow Rate (cc/min):	80
O2 Flow Rate (cc/min):	20
Calibration File:	C:\MCC\MCC Cal\Coeff1 JN10440_30_210304.txt.txt
T Correction Coefficients:	0	1.024463	0
Time Shift (s):	14
*
Time (s)	Temperature (C)	N2 flow rate (cc/min)	O2 flow rate (cc/min)	Flow Rate (cc/min)	Oxygen (%)	HRR (W/g)	Heating rate (C/s)
0.000	109.399	80.006	19.995	100.198	20.080	-0.224	-0.002
2.000	109.429	80.005	19.994	100.183	20.075	0.060	-0.015
4.000	109.370	80.005	19.994	100.175	20.077	-0.073	-0.017
6.000	109.391	80.005	19.995	100.192	20.077	-0.043	-0.000
8.001	109.374	80.004	19.995	100.210	20.076	-0.026	-0.012
10.000	109.380	80.002	19.994	100.228	20.076	0.024	0.041
12.000	109.392	80.005	19.995	100.245	20.072	0.226	0.000
14.000	109.425	80.006	19.994	100.250	20.071	0.294	-0.016
16.000	109.438	80.005	19.995	100.265	20.072	0.270	0.021
18.000	109.523	80.005	19.995	100.294	20.065	0.668	0.047
20.000	109.608	80.005	19.995	100.308	20.060	1.005	0.040
22.000	109.750	80.006	19.996	100.317	20.056	1.248	0.068
24.000	109.904	80.007	19.996	100.329	20.055	1.330	0.071
26.000	110.061	80.006	19.994	100.342	20.054	1.395	0.103
28.000	110.273	80.006	19.994	100.347	20.053	1.456	0.135
30.000	110.513	80.006	19.995	100.337	20.053	1.431	0.110
32.001	110.715	80.006	19.995	100.350	20.052	1.535	0.103
34.000	110.988	80.006	19.994	100.365	20.048	1.746	0.147
36.000	111.254	80.006	19.995	100.370	20.044	1.983	0.131
38.000	111.591	80.005	19.994	100.377	20.047	1.845	0.156
40.000	111.939	80.007	19.994	100.379	20.044	1.987	0.150
42.000	112.303	80.005	19.993	100.377	20.046	1.894	0.210
44.000	112.676	80.007	19.994	100.391	20.044	1.988	0.200
46.000	113.133	80.005	19.995	100.401	20.042	2.147	0.210
48.000	113.561	80.007	19.994	100.390	20.040	2.289	0.218
50.000	114.010	80.008	19.995	100.406	20.043	2.062	0.284
52.000	114.459	80.006	19.995	100.400	20.042	2.124	0.244
54.001	114.936	80.006	19.995	100.399	20.039	2.307	0.261
56.000	115.484	80.006	19.995	100.390	20.039	2.307	0.261
58.000	116.020	80.005	19.996	100.388	20.040	2.290	0.276
60.001	116.563	80.005	19.995	100.390	20.037	2.432	0.289
62.000	117.085	80.004	19.995	100.402	20.038	2.375	0.237
64.000	117.722	80.005	19.994	100.404	20.040	2.286	0.307
66.000	118.247	80.005	19.996	100.411	20.042	2.160	0.273
68.001	118.881	80.004	19.995	100.409	20.042	2.151	0.300
70.000	119.520	80.004	19.996	100.409	20.037	2.455	0.317
72.000	120.149	80.004	19.995	100.407	20.040	2.255	0.325
74.000	120.822	80.005	19.995	100.408	20.041	2.209	0.338
76.000	121.508	80.005	19.996	100.408	20.037	2.418	0.330
78.000	122.177	80.005	19.996	100.407	20.040	2.264	0.356
80.001	122.899	80.004	19.995	100.407	20.039	2.351	0.344
82.000	123.607	80.003	19.995	100.407	20.035	2.556	0.363
84.001	124.292	80.005	19.995	100.412	20.034	2.658	0.368
86.000	125.046	80.003	19.996	100.418	20.038	2.410	0.395
88.000	125.791	80.005	19.995	100.428	20.039	2.341	0.382
90.000	126.524	80.005	19.996	100.409	20.038	2.382	0.353
92.001	127.291	80.004	19.995	100.408	20.039	2.341	0.385
94.000	128.023	80.004	19.995	100.412	20.037	2.456	0.352
96.000	128.816	80.004	19.994	100.429	20.035	2.575	0.392
98.000	129.614	80.004	19.993	100.438	20.036	2.527	0.392
100.000	130.399	80.005	19.996	100.412	20.033	2.721	0.383
102.000	131.215	80.004	19.994	100.410	20.039	2.319	0.396
104.001	132.076	80.006	19.994	100.423	20.038	2.416	0.424
106.001	132.878	80.006	19.995	100.428	20.038	2.358	0.419
108.000	133.737	80.005	19.996	100.413	20.039	2.309	0.431
110.000	134.591	80.006	19.994	100.415	20.037	2.478	0.424
112.001	135.384	80.004	19.996	100.414	20.039	2.350	0.387
114.001	136.268	80.006	19.995	100.412	20.037	2.478	0.423
116.000	137.195	80.006	19.995	100.411	20.037	2.464	0.437
118.000	138.055	80.005	19.995	100.419	20.036	2.488	0.435
120.000	138.962	80.005	19.994	100.414	20.038	2.416	0.434
122.001	139.832	80.005	19.995	100.422	20.037	2.428	0.437
124.000	140.804	80.005	19.994	100.415	20.042	2.139	0.471
126.001	141.675	80.006	19.995	100.413	20.042	2.134	0.448
128.000	142.620	80.008	19.995	100.414	20.040	2.232	0.467
130.000	143.583	80.008	19.994	100.411	20.041	2.182	0.489
132.000	144.508	80.009	19.995	100.410	20.041	2.204	0.498
134.000	145.429	80.007	19.994	100.411	20.038	2.356	0.448
136.000	146.354	80.008	19.993	100.407	20.038	2.372	0.471
138.000	147.331	80.007	19.995	100.409	20.037	2.467	0.485
140.000	148.290	80.006	19.995	100.412	20.036	2.539	0.498
142.000	149.248	80.004	19.996	100.409	20.039	2.339	0.454
144.000	150.228	80.003	19.995	100.408	20.038	2.365	0.471
146.000	151.166	80.004	19.995	100.408	20.036	2.527	0.480
148.001	152.084	80.003	19.995	100.408	20.037	2.479	0.481
150.000	153.050	80.005	19.997	100.408	20.036	2.502	0.477
152.000	154.015	80.005	19.997	100.411	20.040	2.254	0.468
154.000	154.936	80.004	19.996	100.413	20.039	2.319	0.455
156.000	155.909	80.005	19.998	100.411	20.039	2.305	0.485
158.000	156.874	80.006	19.995	100.408	20.039	2.332	0.500
160.000	157.826	80.007	19.996	100.407	20.038	2.399	0.466
162.000	158.826	80.005	19.995	100.407	20.035	2.594	0.481
164.000	159.837	80.004	19.995	100.407	20.038	2.409	0.486
166.000	160.787	80.005	19.995	100.408	20.037	2.449	0.481
168.000	161.806	80.004	19.996	100.409	20.038	2.404	0.497
170.000	162.757	80.003	19.997	100.409	20.035	2.546	0.493
172.000	163.720	80.004	19.997	100.410	20.037	2.459	0.501
174.000	164.715	80.003	19.995	100.408	20.035	2.546	0.489
176.000	165.686	80.003	19.997	100.404	20.037	2.437	0.485
178.000	166.699	80.003	19.996	100.406	20.039	2.351	0.498
180.000	167.691	80.004	19.995	100.409	20.037	2.456	0.497
182.000	168.609	80.004	19.996	100.408	20.037	2.437	0.468
184.000	169.614	80.004	19.996	100.406	20.038	2.397	0.510
186.000	170.655	80.004	19.995	100.401	20.038	2.380	0.504
188.000	171.620	80.006	19.994	100.407	20.043	2.099	0.487
190.000	172.572	80.006	19.994	100.408	20.041	2.185	0.442
192.000	173.604	80.006	19.995	100.408	20.040	2.257	0.483
194.000	174.613	80.007	19.995	100.408	20.040	2.277	0.512
196.000	175.562	80.005	19.994	100.403	20.043	2.062	0.494
198.000	176.586	80.004	19.997	100.392	20.040	2.291	0.510
200.000	177.569	80.006	19.994	100.392	20.045	1.970	0.529
202.000	178.602	80.006	19.993	100.381	20.044	2.034	0.497
204.000	179.573	80.005	19.993	100.396	20.044	1.980	0.505
206.000	180.534	80.005	19.993	100.389	20.045	1.935	0.462
208.001	181.572	80.004	19.996	100.396	20.043	2.079	0.484
210.000	182.615	80.008	19.996	100.389	20.046	1.860	0.560
212.000	183.515	80.007	19.993	100.391	20.046	1.913	0.463
214.000	184.523	80.007	19.994	100.385	20.043	2.084	0.478
216.001	185.522	80.006	19.995	100.383	20.045	1.943	0.457
218.000	186.610	80.009	19.994	100.377	20.043	2.079	0.515
220.000	187.581	80.006	19.995	100.385	20.049	1.701	0.464
222.000	188.584	80.006	19.996	100.386	20.045	1.944	0.492
224.000	189.576	80.005	19.995	100.367	20.047	1.827	0.487
226.000	190.570	80.004	19.993	100.369	20.043	2.077	0.527
228.000	191.545	80.004	19.996	100.372	20.045	1.923	0.522
230.000	192.502	80.005	19.994	100.373	20.045	1.978	0.459
232.000	193.505	80.005	19.994	100.370	20.044	1.995	0.479
234.000	194.556	80.004	19.996	100.375	20.042	2.114	0.522
236.000	195.544	80.002	19.995	100.379	20.045	1.923	0.538
238.000	196.474	80.004	19.994	100.376	20.046	1.909	0.488
240.000	197.504	80.005	19.995	100.379	20.044	2.002	0.517
242.000	198.461	80.004	19.995	100.376	20.044	2.038	0.508
244.000	199.438	80.003	19.994	100.374	20.048	1.768	0.472
246.000	200.512	80.005	19.994	100.373	20.045	1.971	0.501
248.000	201.453	80.006	19.996	100.370	20.046	1.873	0.478
250.000	202.471	80.006	19.994	100.372	20.047	1.850	0.542
252.000	203.464	80.005	19.997	100.371	20.045	1.962	0.505
254.000	204.480	80.003	19.996	100.374	20.047	1.826	0.458
256.000	205.454	80.001	19.993	100.377	20.050	1.661	0.510
258.000	206.484	80.002	19.995	100.373	20.049	1.702	0.499
260.000	207.425	80.004	19.995	100.374	20.046	1.856	0.486
262.000	208.427	80.005	19.995	100.372	20.049	1.704	0.475
264.000	209.456	80.003	19.995	100.369	20.047	1.795	0.483
266.000	210.436	80.004	19.995	100.369	20.046	1.902	0.475
268.000	211.523	80.004	19.997	100.367	20.047	1.853	0.571
270.000	212.468	80.007	19.998	100.365	20.049	1.721	0.500
272.000	213.492	80.006	19.996	100.365	20.044	2.025	0.522
274.000	214.496	80.004	19.996	100.365	20.046	1.909	0.501
276.000	215.455	80.006	19.997	100.365	20.049	1.684	0.490
278.000	216.444	80.006	19.998	100.366	20.047	1.815	0.514
280.000	217.455	80.005	19.996	100.361	20.047	1.849	0.506
282.000	218.432	80.007	19.996	100.351	20.049	1.704	0.483
284.000	219.450	80.004	19.995	100.353	20.047	1.817	0.506
286.000	220.433	80.005	19.994	100.367	20.049	1.702	0.525
288.000	221.443	80.007	19.995	100.365	20.049	1.689	0.473
290.000	222.418	80.005	19.996	100.364	20.048	1.728	0.507
292.000	223.434	80.009	19.996	100.359	20.048	1.733	0.517
294.000	224.421	80.008	19.995	100.364	20.049	1.719	0.487
296.000	225.438	80.007	19.997	100.368	20.047	1.810	0.508
298.000	226.465	80.008	19.994	100.367	20.047	1.795	0.512
300.000	227.426	80.008	19.996	100.353	20.048	1.771	0.498
302.000	228.433	80.006	19.995	100.350	20.048	1.757	0.513
304.000	229.403	80.006	19.993	100.360	20.049	1.711	0.517
306.000	230.439	80.004	19.996	100.353	20.047	1.829	0.504
308.000	231.397	80.005	19.994	100.349	20.046	1.883	0.469
310.000	232.390	80.004	19.996	100.356	20.047	1.815	0.506
312.000	233.352	80.005	19.995	100.357	20.046	1.890	0.466
314.000	234.352	80.002	19.996	100.358	20.044	2.030	0.470
316.000	235.407	80.004	19.995	100.364	20.046	1.859	0.482
318.000	236.357	80.003	19.993	100.361	20.049	1.680	0.503
320.000	237.361	80.006	19.995	100.356	20.048	1.762	0.514
322.000	238.351	80.007	19.993	100.345	20.050	1.627	0.476
324.000	239.317	80.006	19.996	100.344	20.051	1.564	0.496
326.000	240.304	80.004	19.994	100.348	20.051	1.581	0.475
328.000	241.311	80.007	19.997	100.357	20.051	1.569	0.490
330.000	242.300	80.006	19.996	100.356	20.050	1.624	0.493
332.000	243.339	80.006	19.995	100.334	20.053	1.437	0.513
334.000	244.306	80.005	19.995	100.336	20.052	1.514	0.527
336.000	245.303	80.004	19.994	100.345	20.050	1.606	0.504
338.000	246.310	80.006	19.997	100.346	20.049	1.678	0.508
340.000	247.264	80.004	19.996	100.348	20.048	1.750	0.495
342.000	248.291	80.003	19.995	100.352	20.049	1.710	0.514
344.000	249.245	80.004	19.997	100.345	20.050	1.647	0.474
346.000	250.314	80.006	19.995	100.346	20.051	1.572	0.517
348.000	251.287	80.006	19.996	100.336	20.051	1.584	0.504
350.000	252.272	80.007	19.997	100.339	20.048	1.736	0.493
352.000	253.244	80.005	19.994	100.351	20.049	1.670	0.455
354.000	254.248	80.006	19.998	100.331	20.051	1.582	0.509
356.000	255.244	80.006	19.996	100.337	20.049	1.668	0.520
358.000	256.221	80.005	19.995	100.333	20.052	1.526	0.501
360.000	257.231	80.006	19.996	100.332	20.047	1.823	0.502
362.001	258.197	80.004	19.996	100.337	20.051	1.591	0.486
364.000	259.195	80.004	19.996	100.339	20.050	1.634	0.502
366.000	260.161	80.005	19.997	100.336	20.049	1.666	0.465
368.000	261.158	80.006	19.996	100.343	20.051	1.567	0.485
370.000	262.127	80.006	19.997	100.342	20.049	1.673	0.481
372.000	263.133	80.006	19.997	100.340	20.048	1.786	0.512
374.000	264.104	80.007	19.996	100.339	20.051	1.570	0.502
376.000	265.113	80.007	19.996	100.339	20.053	1.473	0.513
378.000	266.113	80.007	19.995	100.341	20.051	1.560	0.496
380.000	267.107	80.007	19.996	100.336	20.051	1.601	0.504
382.000	268.094	80.007	19.994	100.342	20.052	1.533	0.517
384.000	269.060	80.006	19.995	100.341	20.050	1.603	0.500
386.001	270.040	80.006	19.995	100.336	20.050	1.661	0.523
388.000	271.118	80.004	19.995	100.339	20.050	1.649	0.528
390.000	272.159	80.005	19.996	100.339	20.051	1.601	0.535
392.000	273.144	80.006	19.996	100.336	20.049	1.705	0.474
394.000	274.127	80.005	19.996	100.342	20.051	1.548	0.529
396.000	275.119	80.004	19.996	100.339	20.053	1.420	0.505
398.000	276.096	80.004	19.995	100.331	20.055	1.316	0.494
400.000	277.107	80.006	19.993	100.334	20.048	1.727	0.503
402.000	278.108	80.005	19.994	100.331	20.048	1.767	0.497
404.000	279.084	80.006	19.996	100.330	20.050	1.620	0.495
406.000	280.099	80.005	19.995	100.330	20.050	1.613	0.484
408.000	281.119	80.006	19.993	100.329	20.049	1.700	0.517
410.000	282.106	80.004	19.994	100.329	20.050	1.608	0.515
412.000	283.139	80.007	19.996	100.330	20.052	1.509	0.513
414.000	284.115	80.007	19.994	100.330	20.054	1.394	0.503
416.000	285.076	80.006	19.994	100.329	20.054	1.374	0.488
418.001	286.056	80.006	19.996	100.328	20.054	1.375	0.476
420.000	287.121	80.005	19.994	100.329	20.054	1.369	0.519
422.000	288.110	80.005	19.996	100.329	20.050	1.630	0.518
424.000	289.073	80.005	19.994	100.327	20.050	1.642	0.508
426.000	290.062	80.005	19.994	100.330	20.052	1.529	0.504
428.000	291.109	80.005	19.996	100.327	20.051	1.548	0.514
430.000	292.073	80.005	19.995	100.328	20.053	1.452	0.494
432.000	293.028	80.006	19.995	100.330	20.048	1.768	0.485
434.001	294.022	80.008	19.994	100.330	20.052	1.492	0.474
436.000	295.028	80.007	19.997	100.330	20.050	1.623	0.522
438.000	296.039	80.006	19.995	100.329	20.051	1.589	0.515
440.000	296.988	80.005	19.995	100.329	20.053	1.463	0.474
442.000	298.018	80.006	19.995	100.331	20.050	1.644	0.494
444.000	299.008	80.003	19.995	100.333	20.048	1.763	0.475
446.000	300.019	80.004	19.997	100.333	20.046	1.891	0.483
448.000	301.044	80.005	19.993	100.333	20.048	1.731	0.512
450.000	302.028	80.005	19.996	100.334	20.050	1.649	0.481
452.000	303.061	80.005	19.994	100.335	20.051	1.584	0.509
454.000	304.041	80.006	19.999	100.333	20.051	1.577	0.500
456.000	305.096	80.005	19.996	100.333	20.049	1.688	0.527
458.000	306.048	80.006	19.996	100.329	20.049	1.666	0.464
460.000	307.085	80.007	19.996	100.328	20.050	1.640	0.478
462.000	308.069	80.006	19.996	100.324	20.047	1.833	0.498
464.000	309.045	80.007	19.997	100.326	20.048	1.768	0.462
466.000	310.064	80.008	19.997	100.324	20.046	1.910	0.506
468.000	311.094	80.005	19.997	100.327	20.050	1.632	0.513
470.000	312.080	80.005	19.996	100.326	20.048	1.751	0.542
472.000	313.130	80.006	19.996	100.326	20.047	1.844	0.533
474.000	314.147	80.005	19.996	100.327	20.045	1.950	0.515
476.000	315.062	80.004	19.993	100.314	20.048	1.762	0.462
478.000	316.090	80.005	19.995	100.324	20.049	1.722	0.507
480.000	317.044	80.005	19.997	100.328	20.045	1.943	0.487
482.000	318.063	80.005	19.995	100.327	20.047	1.801	0.466
484.000	319.066	80.004	19.996	100.326	20.047	1.850	0.504
486.000	320.060	80.006	19.996	100.328	20.044	2.009	0.487
488.000	321.088	80.005	19.995	100.327	20.047	1.838	0.535
490.000	322.071	80.006	19.998	100.329	20.045	1.973	0.489
492.000	323.103	80.006	19.995	100.326	20.042	2.129	0.482
494.000	324.059	80.005	19.994	100.328	20.044	2.004	0.471
496.000	325.078	80.006	19.995	100.329	20.044	2.031	0.489
498.000	326.124	80.005	19.995	100.325	20.043	2.096	0.516
500.000	327.105	80.006	19.996	100.329	20.044	2.020	0.520
502.000	328.158	80.004	19.996	100.325	20.041	2.177	0.543
504.000	329.163	80.004	19.995	100.325	20.043	2.043	0.533
506.000	330.182	80.006	19.993	100.317	20.039	2.322	0.523
508.000	331.200	80.005	19.995	100.322	20.038	2.359	0.514
510.000	332.194	80.006	19.995	100.329	20.042	2.139	0.502
512.000	333.205	80.005	19.996	100.328	20.040	2.228	0.496
514.000	334.240	80.005	19.995	100.325	20.040	2.258	0.478
516.001	335.259	80.007	19.994	100.315	20.042	2.110	0.510
518.000	336.265	80.007	19.994	100.324	20.038	2.383	0.506
520.000	337.284	80.006	19.994	100.323	20.036	2.479	0.497
522.000	338.283	80.005	19.995	100.329	20.040	2.289	0.483
524.000	339.308	80.005	19.994	100.320	20.036	2.486	0.505
526.000	340.319	80.006	19.997	100.321	20.035	2.546	0.491
528.000	341.309	80.006	19.996	100.319	20.036	2.508	0.505
530.000	342.327	80.006	19.995	100.313	20.034	2.641	0.518
532.000	343.285	80.005	19.994	100.324	20.033	2.723	0.484
534.000	344.261	80.005	19.995	100.324	20.028	2.981	0.471
536.000	345.294	80.006	19.996	100.319	20.028	3.008	0.497
538.000	346.270	80.007	19.995	100.326	20.025	3.179	0.467
540.000	347.303	80.007	19.994	100.322	20.024	3.234	0.514
542.000	348.278	80.007	19.995	100.324	20.026	3.142	0.484
544.000	349.295	80.009	19.994	100.311	20.020	3.536	0.504
546.000	350.292	80.008	19.995	100.319	20.021	3.422	0.480
548.001	351.278	80.008	19.995	100.309	20.019	3.596	0.519
550.000	352.313	80.007	19.996	100.307	20.014	3.870	0.497
552.000	353.356	80.006	19.997	100.312	20.016	3.748	0.538
554.000	354.351	80.005	19.995	100.316	20.011	4.049	0.528
556.000	355.337	80.004	19.996	100.315	20.013	3.975	0.509
558.000	356.327	80.004	19.997	100.315	20.013	3.957	0.495
560.000	357.373	80.004	19.996	100.323	20.009	4.202	0.498
562.000	358.389	80.002	19.996	100.323	20.004	4.539	0.498
564.000	359.405	80.004	19.997	100.312	20.004	4.501	0.520
566.000	360.438	80.005	19.995	100.315	20.003	4.544	0.500
568.000	361.416	80.004	19.996	100.312	19.997	4.950	0.515
570.000	362.447	80.005	19.995	100.304	19.993	5.218	0.492
572.000	363.456	80.006	19.995	100.309	19.987	5.596	0.495
574.000	364.480	80.006	19.994	100.302	19.980	6.004	0.530
576.000	365.487	80.006	19.995	100.312	19.980	6.036	0.515
578.000	366.551	80.006	19.995	100.307	19.976	6.268	0.515
580.000	367.539	80.005	19.995	100.297	19.976	6.281	0.472
582.000	368.559	80.004	19.995	100.295	19.969	6.677	0.489
584.000	369.603	80.003	19.995	100.299	19.965	6.948	0.526
586.000	370.581	80.004	19.994	100.314	19.961	7.173	0.495
588.000	371.626	80.004	19.996	100.317	19.955	7.602	0.523
590.000	372.703	80.004	19.994	100.313	19.947	8.094	0.545
592.000	373.711	80.005	19.996	100.300	19.939	8.554	0.525
594.000	374.736	80.006	19.995	100.294	19.935	8.813	0.543
596.000	375.735	80.005	19.995	100.293	19.934	8.889	0.501
598.000	376.782	80.007	19.996	100.292	19.933	8.926	0.562
600.000	377.795	80.007	19.995	100.290	19.932	9.029	0.528
602.000	378.807	80.006	19.994	100.291	19.937	8.681	0.521
604.000	379.816	80.008	19.995	100.296	19.933	8.972	0.517
606.000	380.880	80.007	19.994	100.293	19.930	9.173	0.508
608.000	381.900	80.006	19.994	100.308	19.926	9.378	0.525
610.000	382.993	80.007	19.995	100.304	19.922	9.667	0.515
612.000	383.999	80.005	19.995	100.302	19.916	10.014	0.505
614.000	385.043	80.006	19.995	100.297	19.911	10.343	0.502
616.000	386.082	80.006	19.995	100.290	19.907	10.562	0.502
618.000	387.129	80.006	19.996	100.290	19.899	11.090	0.507
620.000	388.171	80.007	19.995	100.291	19.890	11.624	0.531
622.000	389.210	80.007	19.996	100.293	19.881	12.214	0.516
624.000	390.245	80.008	19.996	100.290	19.872	12.778	0.524
626.000	391.284	80.008	19.995	100.290	19.863	13.310	0.550
628.000	392.256	80.008	19.995	100.290	19.857	13.727	0.515
630.000	393.311	80.008	19.995	100.287	19.853	13.946	0.537
632.000	394.307	80.007	19.995	100.289	19.847	14.333	0.491
634.000	395.351	80.006	19.995	100.290	19.837	14.959	0.536
636.000	396.321	80.005	19.994	100.285	19.832	15.248	0.503
638.000	397.322	80.006	19.995	100.291	19.819	16.081	0.482
640.000	398.317	80.005	19.996	100.292	19.806	16.916	0.488
642.000	399.338	80.005	19.996	100.292	19.797	17.442	0.497
644.000	400.364	80.005	19.996	100.290	19.788	18.012	0.557
646.000	401.357	80.004	19.995	100.281	19.780	18.553	0.527
648.000	402.369	80.004	19.995	100.282	19.770	19.143	0.486
650.000	403.358	80.004	19.996	100.268	19.758	19.892	0.509
652.000	404.371	80.004	19.996	100.279	19.743	20.854	0.517
654.001	405.339	80.004	19.996	100.286	19.728	21.804	0.495
656.000	406.338	80.005	19.996	100.290	19.711	22.870	0.484
658.000	407.384	80.004	19.996	100.283	19.693	23.999	0.526
660.000	408.392	80.005	19.996	100.282	19.666	25.650	0.512
662.000	409.387	80.005	19.995	100.288	19.651	26.621	0.491
664.000	410.379	80.005	19.995	100.273	19.636	27.555	0.484
666.000	411.440	80.005	19.996	100.256	19.618	28.635	0.524
668.000	412.429	80.006	19.995	100.262	19.594	30.155	0.475
670.000	413.452	80.005	19.995	100.278	19.566	31.913	0.506
672.000	414.457	80.004	19.995	100.276	19.541	33.454	0.489
674.000	415.491	80.005	19.994	100.281	19.509	35.456	0.504
676.000	416.527	80.005	19.996	100.265	19.479	37.353	0.510
678.000	417.572	80.006	19.995	100.265	19.443	39.588	0.535
680.000	418.634	80.005	19.995	100.253	19.408	41.787	0.573
682.000	419.670	80.007	19.995	100.267	19.372	44.041	0.533
684.000	420.711	80.007	19.995	100.250	19.330	46.675	0.527
686.000	421.739	80.008	19.995	100.250	19.292	49.040	0.534
688.000	422.725	80.007	19.995	100.250	19.239	52.340	0.488
690.000	423.774	80.007	19.995	100.258	19.187	55.640	0.502
692.000	424.795	80.005	19.995	100.252	19.133	58.971	0.529
694.001	425.832	80.006	19.995	100.247	19.082	62.174	0.508
696.000	426.893	80.007	19.995	100.235	19.032	65.315	0.513
698.000	427.919	80.007	19.994	100.216	18.966	69.394	0.507
700.000	428.964	80.007	19.994	100.239	18.888	74.247	0.544
702.000	429.981	80.006	19.995	100.253	18.810	79.138	0.503
704.000	430.966	80.007	19.994	100.246	18.727	84.381	0.502
706.000	432.008	80.008	19.995	100.228	18.641	89.703	0.521
708.000	433.050	80.009	19.995	100.201	18.555	95.074	0.511
710.000	434.028	80.009	19.993	100.172	18.455	101.317	0.504
712.000	435.053	80.007	19.995	100.176	18.345	108.219	0.497
714.000	436.011	80.008	19.994	100.204	18.230	115.327	0.501
716.000	437.048	80.007	19.995	100.196	18.102	123.317	0.495
718.000	437.982	80.006	19.995	100.174	17.949	132.903	0.479
720.000	438.947	80.005	19.996	100.179	17.787	143.008	0.485
722.000	439.973	80.006	19.995	100.183	17.623	153.165	0.515
724.000	440.969	80.005	19.995	100.165	17.454	163.597	0.469
726.000	441.945	80.006	19.996	100.109	17.258	175.812	0.451
728.000	442.945	80.005	19.995	100.118	17.044	189.260	0.500
730.000	443.940	80.005	19.995	100.118	16.807	204.072	0.501
732.000	444.971	80.006	19.995	100.098	16.574	218.265	0.508
734.000	445.965	80.005	19.995	100.044	16.318	233.965	0.516
736.001	446.958	80.006	19.996	100.005	16.019	252.395	0.489
738.000	448.004	80.005	19.995	99.992	15.671	274.292	0.536
740.000	449.043	80.005	19.995	100.057	15.352	294.603	0.529
742.000	450.032	80.004	19.995	99.989	15.042	313.352	0.497
744.000	451.057	80.005	19.995	99.833	14.770	329.574	0.520
746.000	451.999	80.006	19.996	99.715	14.452	348.828	0.463
748.000	453.014	80.003	19.996	99.742	14.062	372.754	0.511
750.000	454.081	80.004	19.996	99.865	13.679	396.704	0.509
752.000	455.083	80.005	19.996	99.881	13.361	416.531	0.534
754.000	456.081	80.004	19.996	99.623	13.078	435.490	0.476
756.000	457.118	80.004	19.996	99.461	12.868	447.654	0.508
758.000	458.109	80.005	19.995	99.329	12.665	458.633	0.483
760.001	459.149	80.006	19.994	99.397	12.506	467.593	0.521
762.000	460.193	80.005	19.994	99.352	12.255	482.800	0.500
764.000	461.213	80.006	19.994	99.600	11.991	499.519	0.523
766.000	462.158	80.008	19.995	99.723	11.797	513.015	0.490
768.000	463.233	80.008	19.995	99.331	11.667	520.866	0.524
770.000	464.201	80.006	19.994	99.034	11.655	521.071	0.493
772.000	465.214	80.006	19.995	98.978	11.731	516.991	0.500
774.000	466.237	80.005	19.994	98.907	11.747	516.317	0.487
776.000	467.262	80.006	19.994	99.185	11.864	507.302	0.512
778.000	468.303	80.006	19.994	99.331	11.995	499.337	0.503
780.000	469.321	80.005	19.995	99.200	12.099	493.970	0.533
782.000	470.349	80.006	19.994	99.189	12.206	488.011	0.518
784.000	471.340	80.006	19.994	99.367	12.418	474.756	0.498
786.000	472.367	80.008	19.995	99.140	12.677	458.557	0.504
788.000	473.423	80.007	19.994	98.988	12.950	441.647	0.526
790.000	474.445	80.007	19.994	99.125	13.256	422.943	0.553
792.000	475.469	80.009	19.994	99.322	13.605	401.710	0.496
794.000	476.530	80.007	19.994	99.373	14.006	377.347	0.541
796.000	477.501	80.008	19.994	99.322	14.468	349.070	0.542
798.000	478.557	80.008	19.994	99.311	14.982	317.325	0.517
800.000	479.549	80.007	19.994	99.328	15.525	283.089	0.504
802.000	480.532	80.004	19.995	99.423	16.071	248.130	0.513
804.000	481.573	80.005	19.995	99.554	16.601	216.339	0.523
806.000	482.613	80.006	19.995	99.698	17.100	185.547	0.515
808.000	483.608	80.006	19.996	99.795	17.554	157.346	0.491
810.000	484.566	80.006	19.995	99.838	17.963	131.785	0.470
812.000	485.638	80.005	19.995	99.400	18.319	109.754	0.515
814.000	486.600	80.005	19.994	99.532	18.629	90.464	0.461
816.000	487.625	80.006	19.995	99.877	18.887	74.344	0.493
818.000	488.643	80.005	19.995	99.950	19.109	60.493	0.504
820.000	489.630	80.007	19.996	99.966	19.287	49.374	0.502
822.000	490.587	80.006	19.995	100.005	19.430	40.418	0.477
824.000	491.599	80.005	19.996	100.143	19.552	32.742	0.519
826.000	492.585	80.006	19.995	100.175	19.653	26.464	0.488
828.001	493.588	80.005	19.995	100.186	19.732	21.526	0.504
830.000	494.589	80.006	19.996	100.202	19.799	17.306	0.507
832.000	495.604	80.005	19.996	100.211	19.853	13.931	0.501
834.000	496.533	80.005	19.995	100.208	19.899	11.069	0.480
836.000	497.520	80.004	19.996	100.206	19.933	8.941	0.508
838.000	498.537	80.005	19.995	100.214	19.961	7.182	0.514
840.000	499.523	80.004	19.996	100.216	19.985	5.687	0.521
842.000	500.546	80.006	19.996	100.214	20.002	4.625	0.484
844.000	501.502	80.007	19.996	100.211	20.015	3.804	0.488
846.000	502.504	80.007	19.997	100.219	20.022	3.364	0.510
848.000	503.481	80.008	19.995	100.238	20.030	2.907	0.489
850.000	504.487	80.006	19.995	100.251	20.038	2.376	0.502
852.000	505.492	80.007	19.996	100.255	20.040	2.282	0.480
854.000	506.508	80.007	19.995	100.257	20.044	2.014	0.496
856.000	507.505	80.008	19.995	100.258	20.042	2.150	0.512
858.000	508.503	80.008	19.995	100.276	20.043	2.053	0.492
860.000	509.531	80.007	19.995	100.286	20.049	1.701	0.491
862.000	510.531	80.006	19.995	100.289	20.053	1.426	0.498
864.000	511.568	80.007	19.995	100.289	20.051	1.548	0.488
866.000	512.568	80.007	19.995	100.292	20.056	1.259	0.507
868.000	513.594	80.007	19.995	100.292	20.054	1.399	0.520
870.000	514.676	80.007	19.995	100.293	20.055	1.325	0.528
872.000	515.688	80.008	19.995	100.296	20.056	1.235	0.507
874.000	516.746	80.009	19.995	100.299	20.056	1.281	0.528
876.000	517.790	80.008	19.996	100.311	20.055	1.295	0.544
878.000	518.805	80.009	19.996	100.301	20.054	1.351	0.507
880.000	519.877	80.009	19.995	100.294	20.054	1.358	0.556
882.000	520.925	80.008	19.995	100.293	20.059	1.049	0.516
884.000	521.965	80.006	19.995	100.293	20.054	1.399	0.526
886.000	522.978	80.006	19.996	100.292	20.055	1.300	0.518
888.000	524.026	80.005	19.994	100.299	20.055	1.319	0.523
890.000	525.087	80.006	19.994	100.292	20.058	1.136	0.531
892.000	526.131	80.006	19.994	100.293	20.056	1.286	0.542
894.001	527.146	80.006	19.995	100.308	20.057	1.173	0.529
896.000	528.195	80.007	19.995	100.304	20.056	1.242	0.495
898.000	529.245	80.005	19.995	100.295	20.058	1.117	0.506
900.000	530.258	80.006	19.995	100.302	20.058	1.151	0.504
902.000	531.323	80.006	19.996	100.301	20.059	1.092	0.527
904.000	532.363	80.005	19.996	100.299	20.058	1.136	0.499
906.000	533.423	80.005	19.995	100.300	20.057	1.187	0.520
908.000	534.455	80.006	19.997	100.302	20.058	1.141	0.514
910.000	535.507	80.005	19.995	100.306	20.057	1.189	0.526
912.000	536.585	80.004	19.996	100.306	20.060	1.015	0.545
914.000	537.611	80.005	19.995	100.315	20.059	1.086	0.533
916.000	538.610	80.004	19.995	100.321	20.058	1.161	0.500
918.000	539.637	80.004	19.995	100.306	20.059	1.081	0.477
920.000	540.722	80.005	19.996	100.306	20.058	1.127	0.512
922.000	541.725	80.007	19.995	100.310	20.062	0.890	0.517
924.000	542.777	80.006	19.996	100.306	20.061	0.957	0.525
926.000	543.792	80.005	19.995	100.293	20.059	1.090	0.480
928.000	544.758	80.006	19.996	100.293	20.061	0.972	0.477
930.000	545.800	80.007	19.996	100.301	20.062	0.910	0.524
932.000	546.838	80.007	19.996	100.302	20.059	1.069	0.537
934.000	547.877	80.007	19.997	100.327	20.060	1.003	0.516
936.000	548.899	80.007	19.997	100.317	20.059	1.052	0.504
938.000	549.954	80.006	19.997	100.298	20.061	0.948	0.536
940.000	550.931	80.007	19.996	100.292	20.056	1.279	0.488
942.000	551.975	80.006	19.996	100.293	20.060	1.023	0.507
944.000	552.980	80.006	19.996	100.291	20.063	0.798	0.505
946.000	554.002	80.004	19.996	100.297	20.061	0.969	0.501
948.000	555.043	80.007	19.995	100.299	20.062	0.910	0.511
950.000	556.032	80.005	19.994	100.303	20.057	1.208	0.485
952.001	557.107	80.009	19.995	100.306	20.060	1.009	0.549
954.000	558.083	80.007	19.994	100.302	20.061	0.931	0.520
956.000	559.087	80.007	19.995	100.302	20.062	0.871	0.526
958.000	560.119	80.007	19.994	100.303	20.061	0.914	0.472
960.000	561.113	80.009	19.995	100.300	20.062	0.912	0.478
962.000	562.124	80.007	19.994	100.297	20.060	0.992	0.478
964.000	563.147	80.005	19.994	100.298	20.062	0.893	0.499
966.000	564.113	80.004	19.994	100.299	20.057	1.225	0.470
968.000	565.105	80.010	19.998	100.317	20.058	1.117	0.494
970.000	566.176	80.004	19.997	100.309	20.063	0.811	0.521
972.000	567.150	80.003	19.997	100.304	20.059	1.080	0.493
974.000	568.149	80.004	19.996	100.313	20.061	0.962	0.482
976.000	569.121	80.005	19.994	100.315	20.060	0.982	0.493
978.000	570.134	80.005	19.996	100.300	20.064	0.747	0.503
980.000	571.122	80.004	19.994	100.308	20.066	0.615	0.493
982.001	572.158	80.004	19.993	100.300	20.059	1.095	0.499
984.000	573.162	80.005	19.996	100.303	20.061	0.953	0.529
986.000	574.188	80.006	19.996	100.306	20.062	0.881	0.512
988.000	575.258	80.006	19.994	100.306	20.061	0.927	0.512
990.000	576.208	80.007	19.996	100.307	20.061	0.950	0.488
992.000	577.259	80.005	19.995	100.297	20.061	0.919	0.542
994.000	578.241	80.005	19.995	100.295	20.059	1.054	0.518
996.000	579.214	80.005	19.994	100.302	20.060	0.980	0.493
998.000	580.192	80.006	19.995	100.295	20.060	0.991	0.487
1000.000	581.223	80.002	19.994	100.295	20.060	1.028	0.472
1002.000	582.238	80.004	19.994	100.306	20.061	0.975	0.492
1004.000	583.228	80.006	19.997	100.308	20.061	0.916	0.477
1006.000	584.224	80.006	19.998	100.300	20.062	0.858	0.515
1008.000	585.234	80.006	19.996	100.300	20.060	0.987	0.489
1010.000	586.255	80.005	19.995	100.302	20.061	0.963	0.514
1012.000	587.281	80.007	19.997	100.301	20.063	0.837	0.535
1014.000	588.248	80.007	19.997	100.308	20.062	0.897	0.512
1016.000	589.305	80.007	19.994	100.312	20.062	0.883	0.524
1018.000	590.301	80.006	19.997	100.312	20.062	0.904	0.519
1020.000	591.335	80.007	19.994	100.299	20.062	0.902	0.505
1022.000	592.320	80.006	19.992	100.300	20.060	0.981	0.459
1024.001	593.376	80.004	19.995	100.312	20.062	0.893	0.508
1026.000	594.378	80.006	19.997	100.311	20.063	0.798	0.528
1028.000	595.440	80.004	19.996	100.302	20.064	0.784	0.487
1030.001	596.425	80.004	19.995	100.302	20.064	0.788	0.484
1032.000	597.440	80.005	19.995	100.301	20.060	0.989	0.510
1034.001	598.507	80.005	19.998	100.319	20.060	0.993	0.500
1036.001	599.518	80.005	19.996	100.303	20.063	0.818	0.533
1038.000	600.504	80.007	19.995	100.311	20.063	0.829	0.518
1040.000	601.530	80.013	19.996	100.323	20.060	1.005	0.493
1042.000	602.571	80.016	19.997	100.317	20.064	0.784	0.544
1044.001	603.602	80.007	19.993	100.312	20.069	0.451	0.539
1046.001	604.574	80.007	19.996	100.312	20.063	0.801	0.527
1048.001	605.576	80.005	19.993	100.314	20.064	0.752	0.491
1050.000	606.520	80.005	19.996	100.320	20.062	0.859	0.471
1052.000	607.542	80.005	19.996	100.325	20.065	0.714	0.476
1054.001	608.573	80.005	19.992	100.316	20.064	0.759	0.533
1056.000	609.569	80.017	19.996	100.320	20.066	0.625	0.522
1058.000	610.548	80.005	19.997	100.321	20.066	0.648	0.490
1060.000	611.519	80.005	19.995	100.315	20.066	0.622	0.506
1062.000	612.467	80.003	19.993	100.311	20.069	0.434	0.458
1064.000	613.492	80.005	19.996	100.314	20.069	0.463	0.503
1066.001	614.542	80.005	19.995	100.325	20.068	0.533	0.527
1068.000	615.523	80.006	19.996	100.323	20.065	0.665	0.484
1070.000	616.523	80.006	19.995	100.323	20.067	0.540	0.521
1072.001	617.583	80.005	19.995	100.326	20.065	0.723	0.512
1074.000	618.552	80.006	19.993	100.318	20.066	0.610	0.480
1076.001	619.576	80.024	19.999	100.323	20.065	0.673	0.498
1078.000	620.590	80.024	19.996	100.334	20.065	0.670	0.504
1080.000	621.592	80.004	19.995	100.321	20.064	0.745	0.513
1082.000	622.649	80.005	19.993	100.327	20.063	0.793	0.515
1084.001	623.674	80.006	19.993	100.327	20.065	0.677	0.507
1086.001	624.708	80.006	19.995	100.329	20.062	0.851	0.545
1088.000	625.690	80.007	19.997	100.333	20.062	0.856	0.516
1090.000	626.738	80.005	19.993	100.331	20.062	0.885	0.524
1092.000	627.731	80.007	19.996	100.331	20.062	0.864	0.522
1094.000	628.812	80.007	19.994	100.330	20.061	0.953	0.534
1096.000	629.760	80.007	19.995	100.330	20.059	1.068	0.493
1098.000	630.806	80.007	19.996	100.319	20.062	0.866	0.501
1100.000	631.848	80.007	19.997	100.327	20.060	0.991	0.523
1102.001	632.851	80.004	19.995	100.327	20.063	0.817	0.478
1104.000	633.932	80.005	19.995	100.324	20.061	0.924	0.532
1106.000	634.918	80.006	19.996	100.328	20.059	1.070	0.518
1108.000	635.995	80.006	19.997	100.327	20.062	0.890	0.490
1110.001	636.998	80.005	19.993	100.332	20.060	1.013	0.504
1112.000	638.056	80.006	19.995	100.335	20.061	0.957	0.509
1114.000	639.085	80.007	19.995	100.334	20.063	0.820	0.506
1116.000	640.138	80.008	19.994	100.330	20.061	0.960	0.540
1118.001	641.168	80.008	19.994	100.331	20.065	0.670	0.528
1120.001	642.169	80.007	19.996	100.328	20.065	0.692	0.491
1122.000	643.199	80.007	19.995	100.328	20.059	1.046	0.508
1124.001	644.221	80.007	19.994	100.328	20.063	0.805	0.509
1126.000	645.281	80.007	19.997	100.326	20.061	0.914	0.515
1128.000	646.308	80.006	19.996	100.329	20.063	0.847	0.549
1130.001	647.333	80.006	19.997	100.328	20.066	0.636	0.535
1132.000	648.365	80.005	19.997	100.325	20.063	0.791	0.542
1134.000	649.341	80.006	19.997	100.327	20.066	0.625	0.504
1136.000	650.350	80.005	19.996	100.331	20.063	0.837	0.506
1138.000	651.383	80.006	19.997	100.330	20.059	1.100	0.496
1140.001	652.361	80.006	19.996	100.331	20.062	0.897	0.500
1142.000	653.374	80.006	19.996	100.333	20.063	0.820	0.483
1144.001	654.395	80.005	19.996	100.330	20.060	0.979	0.501
1146.000	655.432	80.007	19.995	100.335	20.061	0.955	0.507
1148.000	656.463	80.006	19.995	100.332	20.062	0.853	0.517
1150.000	657.421	80.007	19.995	100.333	20.062	0.906	0.464
1152.001	658.466	80.007	19.994	100.333	20.059	1.046	0.495
1154.000	659.479	80.007	19.995	100.334	20.060	1.022	0.511
1156.000	660.488	80.006	19.995	100.333	20.061	0.962	0.488
1158.001	661.501	80.005	19.993	100.333	20.057	1.191	0.532
1160.000	662.501	80.006	19.996	100.343	20.060	0.994	0.525
1162.000	663.502	80.004	19.995	100.346	20.061	0.921	0.505
1164.000	664.517	80.006	19.997	100.348	20.059	1.065	0.495
1166.000	665.508	80.005	19.997	100.338	20.059	1.077	0.505
1168.000	666.570	80.006	19.996	100.338	20.063	0.803	0.516
1170.000	667.608	80.004	19.996	100.334	20.059	1.049	0.533
1172.000	668.589	80.004	19.994	100.336	20.060	0.998	0.504
1174.001	669.600	80.007	19.995	100.348	20.057	1.189	0.481
1176.000	670.571	80.006	19.992	100.343	20.059	1.042	0.514
1178.000	671.623	80.007	19.994	100.335	20.056	1.254	0.530
1180.000	672.651	80.007	19.995	100.338	20.058	1.133	0.520
1182.000	673.659	80.008	19.993	100.338	20.059	1.063	0.520
1184.000	674.714	80.007	19.996	100.349	20.057	1.207	0.518
1186.000	675.742	80.006	19.996	100.355	20.060	1.032	0.555
1188.000	676.745	80.005	19.994	100.351	20.055	1.314	0.506
1190.000	677.767	80.005	19.995	100.348	20.055	1.318	0.503
1192.000	678.747	80.006	19.996	100.349	20.058	1.148	0.507
1194.000	679.791	80.006	19.996	100.355	20.058	1.106	0.546
1196.000	680.753	80.005	19.995	100.351	20.055	1.290	0.484
1198.000	681.767	80.007	19.996	100.338	20.054	1.386	0.493
1200.000	682.770	80.007	19.995	100.355	20.057	1.171	0.508
1202.001	683.765	80.008	19.995	100.352	20.056	1.253	0.496
1204.000	684.758	80.008	19.993	100.355	20.054	1.378	0.502
1206.000	685.821	80.008	19.994	100.352	20.054	1.384	0.507
1208.001	686.825	80.008	19.996	100.361	20.059	1.068	0.502
1210.000	687.831	80.007	19.995	100.361	20.060	1.010	0.493
1212.000	688.789	80.006	19.995	100.356	20.058	1.107	0.466
1214.000	689.811	80.006	19.997	100.359	20.057	1.198	0.519
1216.000	690.854	80.005	19.998	100.353	20.057	1.193	0.518
1218.000	691.821	80.006	19.997	100.346	20.058	1.164	0.472
1220.000	692.800	80.004	19.995	100.344	20.054	1.359	0.516
1222.001	693.859	80.006	19.996	100.351	20.056	1.227	0.505
1224.000	694.840	80.004	19.996	100.362	20.058	1.125	0.505
1226.000	695.858	80.004	19.995	100.361	20.060	1.000	0.458
1228.000	696.824	80.005	19.995	100.358	20.053	1.449	0.477
1230.000	697.847	80.004	19.995	100.363	20.052	1.499	0.503
1232.000	698.854	80.006	19.994	100.363	20.053	1.429	0.493
1234.000	699.884	80.007	19.995	100.353	20.054	1.393	0.515
1236.001	700.881	80.008	19.994	100.356	20.056	1.270	0.526
1238.000	701.890	80.006	19.994	100.367	20.054	1.407	0.514
1240.000	702.895	80.006	19.994	100.369	20.053	1.431	0.525
1242.000	703.848	80.005	19.994	100.361	20.052	1.499	0.481
1244.000	704.851	80.005	19.994	100.363	20.055	1.297	0.461
1246.000	705.832	80.006	19.995	100.371	20.058	1.162	0.518
1248.000	706.806	80.005	19.995	100.373	20.054	1.410	0.479
1250.001	707.856	80.006	19.995	100.372	20.056	1.239	0.508
1252.000	708.853	80.006	19.995	100.371	20.055	1.347	0.508
1254.001	709.849	80.005	19.992	100.373	20.056	1.243	0.499
1256.000	710.873	80.008	19.997	100.368	20.056	1.244	0.497
1258.000	711.887	80.006	19.994	100.370	20.057	1.212	0.539
1260.001	712.891	80.008	19.994	100.368	20.054	1.400	0.528
1262.000	713.886	80.007	19.995	100.367	20.054	1.367	0.512
1264.000	714.948	80.010	19.996	100.366	20.051	1.574	0.533
1266.001	715.954	80.009	19.994	100.368	20.053	1.458	0.522
1268.001	716.961	80.007	19.995	100.368	20.051	1.559	0.506
1270.001	717.984	80.007	19.994	100.367	20.052	1.506	0.502
1272.000	719.008	80.009	19.995	100.363	20.052	1.538	0.493
1274.000	720.011	80.008	19.995	100.367	20.049	1.685	0.531
1276.001	720.998	80.008	19.994	100.362	20.053	1.467	0.463
1278.000	721.971	80.008	19.995	100.361	20.053	1.461	0.474
1280.001	723.014	80.007	19.995	100.359	20.051	1.590	0.533
1282.000	724.010	80.007	19.996	100.365	20.055	1.337	0.506
1284.000	725.038	80.007	19.995	100.367	20.050	1.629	0.508
1286.000	726.047	80.008	19.995	100.367	20.051	1.602	0.499
1288.000	727.043	80.008	19.995	100.366	20.052	1.497	0.509
1290.000	728.043	80.009	19.997	100.367	20.047	1.834	0.487
1292.000	729.063	80.008	19.995	100.369	20.048	1.735	0.494
1294.001	730.096	80.007	19.996	100.369	20.049	1.698	0.489
1296.000	731.117	80.006	19.995	100.370	20.049	1.706	0.496
1298.000	732.116	80.006	19.995	100.368	20.051	1.600	0.503
1300.000	733.105	80.007	19.995	100.371	20.048	1.732	0.494
1302.000	734.093	80.006	19.996	100.371	20.051	1.573	0.504
1304.001	735.091	80.005	19.995	100.377	20.052	1.485	0.489
1306.000	736.089	80.006	19.995	100.392	20.052	1.518	0.484
1308.000	737.095	80.005	19.995	100.377	20.045	1.916	0.519
1310.001	738.035	80.005	19.995	100.372	20.047	1.841	0.468
1312.000	739.087	80.006	19.995	100.373	20.052	1.538	0.517
1314.001	740.060	80.006	19.997	100.372	20.056	1.249	0.516
1316.000	741.061	80.005	19.995	100.373	20.053	1.455	0.510
1318.000	742.095	80.005	19.996	100.376	20.054	1.376	0.521
1320.000	743.133	80.005	19.999	100.373	20.052	1.496	0.522
1321.000	743.614	80.005	19.997	100.371	20.051	1.549	0.501