File: 01_Data/Nylon/STA/N2/30K_min/Nylon_STA_N2_30KData_220704_R3.csv
##Temp./Â°C,Time/min,DSC(subtr.2)/(mW/mg),Mass loss(subtr.2)/mg,Sensit./(uV/mW)
48.468,10.00667,0.02168442,-0.04673,1.07507
49.068,10.53707,0.07102229,-0.04671614,1.07481
49.668,10.65587,0.11254,-0.04701854,1.07454
50.268,10.74058,0.14834,-0.04739741,1.07428
50.868,10.80995,0.18217,-0.04867536,1.07401
51.468,10.86955,0.21619,-0.04826833,1.07375
52.068,10.92263,0.24506,-0.04737597,1.07348
52.668,10.9704,0.27155,-0.04758482,1.07321
53.268,11.01586,0.29703,-0.04866618,1.07295
53.868,11.05768,0.32275,-0.0491267,1.07268
54.468,11.09722,0.3466,-0.04920932,1.07241
55.068,11.13515,0.37036,-0.04722824,1.07214
55.668,11.17122,0.39308,-0.04735208,1.07188
56.268,11.20566,0.41511,-0.04738883,1.07161
56.868,11.23835,0.43407,-0.04776312,1.07134
57.468,11.27063,0.45353,-0.04899818,1.07107
58.068,11.30258,0.47272,-0.0486812,1.0708
58.668,11.3337,0.49332,-0.04882676,1.07053
59.268,11.36368,0.51275,-0.04941315,1.07026
59.868,11.39281,0.52801,-0.04894473,1.06998
60.468,11.4213,0.54504,-0.04830682,1.06971
61.068,11.44947,0.5626,-0.04814243,1.06944
61.668,11.47718,0.57956,-0.04930083,1.06917
62.268,11.50431,0.59542,-0.04969064,1.0689
62.868,11.5311,0.61353,-0.04984295,1.06862
63.468,11.55747,0.62796,-0.04967782,1.06835
64.068,11.58346,0.64342,-0.04946128,1.06807
64.668,11.60896,0.65632,-0.04904969,1.0678
65.268,11.6341,0.66997,-0.04772603,1.06752
65.868,11.65902,0.68746,-0.0475644,1.06725
66.468,11.68389,0.70305,-0.0486314,1.06697
67.068,11.70853,0.71493,-0.04868106,1.0667
67.668,11.73316,0.7298,-0.0479478,1.06642
68.268,11.7574,0.74493,-0.04781786,1.06614
68.868,11.7814,0.75674,-0.04858955,1.06587
69.468,11.805,0.77081,-0.0497281,1.06559
70.068,11.82835,0.78245,-0.05005981,1.06531
70.668,11.85182,0.79505,-0.05005942,1.06503
71.268,11.87519,0.80499,-0.04978054,1.06475
71.868,11.89856,0.81366,-0.05041578,1.06448
72.468,11.92148,0.82362,-0.05058121,1.0642
73.068,11.9443,0.8333,-0.05052195,1.06392
73.668,11.96697,0.84315,-0.05122062,1.06364
74.268,11.98973,0.852,-0.05206236,1.06335
74.868,12.01225,0.85964,-0.05088807,1.06307
75.468,12.03468,0.86365,-0.0504264,1.06279
76.068,12.057,0.87107,-0.04945553,1.06251
76.668,12.0791,0.87682,-0.05053002,1.06223
77.268,12.1012,0.88174,-0.0518528,1.06195
77.868,12.1233,0.88833,-0.05255209,1.06166
78.468,12.14537,0.89195,-0.05189948,1.06138
79.068,12.16737,0.89727,-0.05100331,1.0611
79.668,12.18923,0.8997,-0.05147983,1.06081
80.268,12.21095,0.90465,-0.05095546,1.06053
80.868,12.2327,0.9075,-0.05069093,1.06024
81.468,12.25429,0.90986,-0.05068605,1.05996
82.068,12.27581,0.91641,-0.05170638,1.05967
82.668,12.29721,0.91931,-0.05092945,1.05939
83.268,12.31832,0.92334,-0.05239131,1.0591
83.868,12.33954,0.92716,-0.05100827,1.05881
84.468,12.36084,0.93237,-0.05230852,1.05852
85.068,12.38229,0.93213,-0.05089996,1.05824
85.668,12.40344,0.93734,-0.05144681,1.05795
86.268,12.4245,0.93946,-0.05085886,1.05766
86.868,12.44552,0.94335,-0.05246308,1.05737
87.468,12.46641,0.94773,-0.05396225,1.05708
88.068,12.48735,0.95276,-0.05341965,1.05679
88.668,12.50815,0.95569,-0.05410229,1.0565
89.268,12.52887,0.95926,-0.05290967,1.05621
89.868,12.54969,0.95968,-0.05326825,1.05592
90.468,12.57042,0.96578,-0.05286611,1.05563
91.068,12.59117,0.96876,-0.05264763,1.05534
91.668,12.6118,0.97379,-0.05265028,1.05505
92.268,12.6324,0.97672,-0.05266029,1.05476
92.868,12.65307,0.98271,-0.05265994,1.05447
93.468,12.67367,0.98567,-0.05265564,1.05417
94.068,12.69421,0.98641,-0.05401178,1.05388
94.668,12.7148,0.99231,-0.05397331,1.05359
95.268,12.73493,0.99692,-0.05497994,1.05329
95.868,12.75509,0.99979,-0.05398393,1.053
96.468,12.77533,1.00399,-0.05397787,1.05271
97.068,12.7958,1.00723,-0.05494633,1.05241
97.668,12.81653,1.01164,-0.05408797,1.05212
98.268,12.83722,1.01825,-0.05396918,1.05182
98.868,12.8577,1.02315,-0.05395061,1.05153
99.468,12.87805,1.02556,-0.05522895,1.05123
100.068,12.8983,1.0297,-0.05528072,1.05093
100.668,12.9186,1.03444,-0.05527992,1.05064
101.268,12.93876,1.03908,-0.0552885,1.05034
101.868,12.959,1.04363,-0.05529003,1.05004
102.468,12.97931,1.04821,-0.05528949,1.04974
103.068,12.99953,1.05023,-0.05530957,1.04944
103.668,13.01967,1.05699,-0.05396056,1.04915
104.268,13.03988,1.06005,-0.05528794,1.04885
104.868,13.05995,1.0633,-0.05529003,1.04855
105.468,13.0802,1.06493,-0.05529389,1.04825
106.068,13.1004,1.07004,-0.05660614,1.04795
106.668,13.1205,1.07321,-0.05659986,1.04765
107.268,13.14061,1.0765,-0.05659978,1.04735
107.868,13.16073,1.08397,-0.05661481,1.04705
108.468,13.1807,1.0866,-0.05792967,1.04674
109.068,13.20096,1.09087,-0.05791976,1.04644
109.668,13.2211,1.09225,-0.05792003,1.04614
110.268,13.2412,1.09706,-0.05791855,1.04584
110.868,13.2614,1.10273,-0.05744155,1.04554
111.468,13.2815,1.10739,-0.05796753,1.04523
112.068,13.30151,1.1085,-0.05791911,1.04493
112.668,13.3216,1.11294,-0.05791821,1.04463
113.268,13.3417,1.11556,-0.05802697,1.04432
113.868,13.3617,1.1179,-0.05922752,1.04402
114.468,13.3818,1.12327,-0.05924019,1.04371
115.068,13.40182,1.12596,-0.05924278,1.04341
115.668,13.42189,1.12862,-0.0590733,1.0431
116.268,13.44191,1.13077,-0.05861445,1.0428
116.868,13.46195,1.13446,-0.05910449,1.04249
117.468,13.482,1.13753,-0.0589085,1.04218
118.068,13.50196,1.14176,-0.05890992,1.04188
118.668,13.52198,1.14593,-0.05891568,1.04157
119.268,13.5419,1.1496,-0.05927345,1.04126
119.868,13.5618,1.15188,-0.05923863,1.04095
120.468,13.58167,1.15652,-0.05928065,1.04065
121.068,13.60152,1.15824,-0.06056667,1.04034
121.668,13.62145,1.16203,-0.06055782,1.04003
122.268,13.64132,1.16633,-0.05945715,1.03972
122.868,13.6611,1.17016,-0.05922904,1.03941
123.468,13.68089,1.17356,-0.05923002,1.0391
124.068,13.7006,1.176,-0.05923,1.03879
124.668,13.7205,1.17871,-0.05923,1.03848
125.268,13.74022,1.18105,-0.05923,1.03817
125.868,13.7599,1.18504,-0.05923,1.03786
126.468,13.77953,1.1872,-0.05923037,1.03755
127.068,13.7993,1.19121,-0.05920219,1.03724
127.668,13.819,1.1946,-0.06057633,1.03692
128.268,13.83875,1.1983,-0.05954774,1.03661
128.868,13.8584,1.19915,-0.05957059,1.0363
129.468,13.8779,1.20432,-0.05956973,1.03599
130.068,13.89753,1.20697,-0.05958375,1.03567
130.668,13.917,1.20823,-0.06066224,1.03536
131.268,13.9366,1.2135,-0.06089352,1.03505
131.868,13.95626,1.21623,-0.06088993,1.03473
132.468,13.9758,1.21871,-0.06089,1.03442
133.068,13.9954,1.22175,-0.06088994,1.0341
133.668,14.01493,1.2259,-0.06089243,1.03379
134.268,14.0343,1.22867,-0.0613084,1.03347
134.868,14.05379,1.23008,-0.06219816,1.03316
135.468,14.0732,1.23353,-0.06219999,1.03284
136.068,14.0926,1.23673,-0.0622,1.03252
136.668,14.112,1.24203,-0.06220001,1.03221
137.268,14.13132,1.24349,-0.06219933,1.03189
137.868,14.15073,1.24664,-0.0622353,1.03157
138.468,14.17007,1.25025,-0.06187876,1.03125
139.068,14.18946,1.25368,-0.06186988,1.03094
139.668,14.20881,1.25758,-0.06186758,1.03062
140.268,14.228,1.25891,-0.06195039,1.0303
140.868,14.24727,1.26319,-0.0631736,1.02998
141.468,14.2665,1.26469,-0.06219776,1.02966
142.068,14.28575,1.27068,-0.06220031,1.02934
142.668,14.3051,1.27335,-0.06219999,1.02902
143.268,14.32438,1.27692,-0.0622,1.0287
143.868,14.34355,1.27998,-0.0622,1.02838
144.468,14.3628,1.28326,-0.06219978,1.02806
145.068,14.382,1.28642,-0.06220849,1.02774
145.668,14.40119,1.28615,-0.06300831,1.02742
146.268,14.42036,1.2933,-0.06352109,1.0271
146.868,14.43948,1.29462,-0.06352044,1.02677
147.468,14.45855,1.29799,-0.0634757,1.02645
148.068,14.4777,1.30272,-0.06486523,1.02613
148.668,14.4968,1.30242,-0.06482909,1.02581
149.268,14.5159,1.30603,-0.06483002,1.02548
149.868,14.53496,1.30945,-0.06483,1.02516
150.468,14.55398,1.31275,-0.06483,1.02484
151.068,14.57301,1.31889,-0.06482998,1.02451
151.668,14.5921,1.32185,-0.06483292,1.02419
152.268,14.6111,1.32398,-0.0645386,1.02386
152.868,14.6301,1.32833,-0.06553649,1.02354
153.468,14.6491,1.32905,-0.0651693,1.02321
154.068,14.6681,1.3347,-0.06515698,1.02289
154.668,14.68704,1.33691,-0.0648067,1.02256
155.268,14.7061,1.33866,-0.06450108,1.02224
155.868,14.7249,1.34076,-0.06449756,1.02191
156.468,14.7438,1.34581,-0.06469408,1.02158
157.068,14.7627,1.34679,-0.06483255,1.02126
157.668,14.78169,1.35116,-0.06482995,1.02093
158.268,14.8008,1.35181,-0.06483,1.0206
158.868,14.81983,1.35485,-0.06483,1.02027
159.468,14.8388,1.35947,-0.06483,1.01994
160.068,14.8576,1.36285,-0.06483,1.01962
160.668,14.8765,1.36559,-0.06482975,1.01929
161.268,14.8954,1.36849,-0.06483874,1.01896
161.868,14.9143,1.3733,-0.06560648,1.01863
162.468,14.933,1.37695,-0.06614869,1.0183
163.068,14.95186,1.37661,-0.06615012,1.01797
163.668,14.97069,1.37968,-0.06615,1.01764
164.268,14.9896,1.38128,-0.06615,1.01731
164.868,15.00867,1.38605,-0.06615,1.01698
165.468,15.02754,1.38881,-0.06615007,1.01665
166.068,15.0464,1.39177,-0.06615083,1.01632
166.668,15.0652,1.39388,-0.06567517,1.01598
167.268,15.08394,1.39774,-0.06484134,1.01565
167.868,15.10258,1.39937,-0.06482973,1.01532
168.468,15.1214,1.40248,-0.06483,1.01499
169.068,15.1403,1.40473,-0.06483,1.01465
169.668,15.15911,1.41002,-0.06483,1.01432
170.268,15.178,1.41305,-0.06483,1.01399
170.868,15.1967,1.41355,-0.06482998,1.01365
171.468,15.2154,1.41668,-0.06483062,1.01332
172.068,15.23414,1.42038,-0.06481831,1.01299
172.668,15.25286,1.41845,-0.06611996,1.01265
173.268,15.2716,1.42293,-0.06648987,1.01232
173.868,15.2904,1.42655,-0.06646934,1.01198
174.468,15.30904,1.42936,-0.06647001,1.01165
175.068,15.3277,1.43138,-0.06647,1.01131
175.668,15.34636,1.4338,-0.06647,1.01098
176.268,15.365,1.43742,-0.06647,1.01064
176.868,15.38366,1.44047,-0.06647,1.0103
177.468,15.40235,1.44305,-0.06647,1.00997
178.068,15.421,1.44538,-0.06647,1.00963
178.668,15.43971,1.44726,-0.06647,1.00929
179.268,15.4583,1.44867,-0.06647,1.00896
179.868,15.4769,1.45085,-0.06646987,1.00862
180.468,15.4955,1.45368,-0.06647452,1.00828
181.068,15.514,1.45592,-0.06684389,1.00794
181.668,15.5326,1.45817,-0.06712857,1.0076
182.268,15.5511,1.45957,-0.06713009,1.00726
182.868,15.56962,1.46364,-0.06713,1.00693
183.468,15.58816,1.46566,-0.06713,1.00659
184.068,15.6067,1.46968,-0.06713,1.00625
184.668,15.6252,1.47107,-0.06712969,1.00591
185.268,15.64366,1.47354,-0.06714829,1.00557
185.868,15.66206,1.47718,-0.06785878,1.00523
186.468,15.68051,1.47835,-0.06778947,1.00489
187.068,15.699,1.48073,-0.06778997,1.00454
187.668,15.71742,1.48301,-0.06779,1.0042
188.268,15.73596,1.48559,-0.06779,1.00386
188.868,15.75436,1.48862,-0.06779,1.00352
189.468,15.7728,1.48916,-0.06779,1.00318
190.068,15.7913,1.492,-0.06779019,1.00284
190.668,15.8097,1.49552,-0.06778097,1.00249
191.268,15.82811,1.49734,-0.06686372,1.00215
191.868,15.8465,1.50023,-0.06515818,1.00181
192.468,15.86484,1.50374,-0.06516041,1.00147
193.068,15.8832,1.50657,-0.06515974,1.00112
193.668,15.90158,1.50792,-0.06516651,1.00078
194.268,15.92,1.50865,-0.06581896,1.00043
194.868,15.9384,1.51102,-0.06648794,1.00009
195.468,15.9568,1.51321,-0.06737148,0.99975
196.068,15.97511,1.51781,-0.06746105,0.9994
196.668,15.99334,1.51844,-0.06746,0.99906
197.268,16.0117,1.52246,-0.06746,0.99871
197.868,16.03004,1.52589,-0.06746,0.99836
198.468,16.0484,1.52642,-0.06746,0.99802
199.068,16.06682,1.53005,-0.06746,0.99767
199.668,16.08519,1.53258,-0.06746,0.99733
200.268,16.10347,1.53692,-0.06746,0.99698
200.868,16.12169,1.53679,-0.06746,0.99663
201.468,16.14002,1.5426,-0.06746,0.99629
202.068,16.15833,1.54361,-0.06746,0.99594
202.668,16.1766,1.54527,-0.06746,0.99559
203.268,16.195,1.55031,-0.06746,0.99524
203.868,16.21333,1.55231,-0.06746,0.9949
204.468,16.23164,1.55636,-0.06746,0.99455
205.068,16.25003,1.55912,-0.06746,0.9942
205.668,16.26833,1.56287,-0.06746,0.99385
206.268,16.28654,1.56549,-0.06746,0.9935
206.868,16.30474,1.56861,-0.06746,0.99315
207.468,16.3229,1.57341,-0.06746,0.9928
208.068,16.34117,1.57446,-0.06745999,0.99245
208.668,16.35953,1.58008,-0.0674599,0.9921
209.268,16.37782,1.58444,-0.06747358,0.99175
209.868,16.39612,1.58731,-0.06845778,0.9914
210.468,16.41437,1.58994,-0.06878252,0.99105
211.068,16.4326,1.59438,-0.06878005,0.9907
211.668,16.45081,1.59775,-0.06877999,0.99035
212.268,16.46911,1.60171,-0.06878,0.99
212.868,16.48741,1.60456,-0.06878,0.98965
213.468,16.50566,1.60882,-0.06878,0.98929
214.068,16.52396,1.61388,-0.06878,0.98894
214.668,16.5422,1.6189,-0.06878,0.98859
215.268,16.5604,1.62166,-0.06878,0.98824
215.868,16.57868,1.62634,-0.06878,0.98788
216.468,16.59689,1.6329,-0.06878,0.98753
217.068,16.61509,1.63383,-0.06878,0.98718
217.668,16.63329,1.63918,-0.06878,0.98682
218.268,16.6515,1.64334,-0.06878002,0.98647
218.868,16.66974,1.65158,-0.06877876,0.98612
219.468,16.688,1.65495,-0.06881103,0.98576
220.068,16.70625,1.65948,-0.0700821,0.98541
220.668,16.7244,1.66626,-0.07009095,0.98505
221.268,16.74257,1.67023,-0.07008998,0.9847
221.868,16.76076,1.67802,-0.07008999,0.98434
222.468,16.77896,1.68146,-0.07008953,0.98399
223.068,16.79716,1.68659,-0.07012504,0.98363
223.668,16.81541,1.6918,-0.06976918,0.98327
224.268,16.8336,1.69856,-0.06976061,0.98292
224.868,16.85184,1.70338,-0.07002768,0.98256
225.468,16.8701,1.7095,-0.07009235,0.98221
226.068,16.8883,1.7151,-0.07008996,0.98185
226.668,16.9065,1.72204,-0.07009,0.98149
227.268,16.92463,1.72889,-0.07009,0.98113
227.868,16.9428,1.73487,-0.07009,0.98078
228.468,16.96097,1.74138,-0.07009,0.98042
229.068,16.97917,1.74843,-0.07009,0.98006
229.668,16.99735,1.7535,-0.07009,0.9797
230.268,17.01548,1.76051,-0.07009001,0.97934
230.868,17.03363,1.76891,-0.07008999,0.97899
231.468,17.05179,1.77372,-0.07008828,0.97863
232.068,17.07001,1.78233,-0.0702271,0.97827
232.668,17.08827,1.78969,-0.07122732,0.97791
233.268,17.1065,1.7991,-0.07238938,0.97755
233.868,17.12469,1.80553,-0.07272565,0.97719
234.468,17.14284,1.81315,-0.07272929,0.97683
235.068,17.161,1.82043,-0.07274458,0.97647
235.668,17.17918,1.83096,-0.07145543,0.97611
236.268,17.19742,1.83901,-0.07140713,0.97575
236.868,17.2156,1.8508,-0.07141007,0.97539
237.468,17.23382,1.85863,-0.07141001,0.97503
238.068,17.25199,1.87042,-0.0714111,0.97466
238.668,17.27011,1.87974,-0.07129717,0.9743
239.268,17.2883,1.89175,-0.07007261,0.97394
239.868,17.30647,1.90201,-0.07008994,0.97358
240.468,17.3246,1.91494,-0.07009001,0.97322
241.068,17.34274,1.92771,-0.0700903,0.97285
241.668,17.36091,1.94201,-0.07008516,0.97249
242.268,17.37912,1.95767,-0.07100014,0.97213
242.868,17.39735,1.97332,-0.07140596,0.97177
243.468,17.41555,1.99266,-0.07141009,0.9714
244.068,17.43372,2.01004,-0.07141008,0.97104
244.668,17.45187,2.03107,-0.07141964,0.97067
245.268,17.47,2.05434,-0.0716408,0.97031
245.868,17.48816,2.08201,-0.07108539,0.96995
246.468,17.50633,2.11149,-0.07108004,0.96958
247.068,17.52449,2.13994,-0.07107999,0.96922
247.668,17.5427,2.17858,-0.07108,0.96885
248.268,17.56092,2.22116,-0.07108,0.96849
248.868,17.5791,2.26354,-0.07108,0.96812
249.468,17.59733,2.31201,-0.07107998,0.96776
250.068,17.61551,2.36447,-0.07108066,0.96739
250.668,17.6337,2.42,-0.07107526,0.96702
251.268,17.6519,2.47918,-0.07230596,0.96666
251.868,17.6701,2.54547,-0.07173329,0.96629
252.468,17.6883,2.61687,-0.07108441,0.96593
253.068,17.7066,2.69187,-0.07108001,0.96556
253.668,17.72479,2.77034,-0.07108,0.96519
254.268,17.74307,2.85122,-0.07107998,0.96483
254.868,17.76128,2.93741,-0.07108038,0.96446
255.468,17.77952,3.02833,-0.07108522,0.96409
256.068,17.79786,3.12206,-0.07225276,0.96372
256.668,17.8161,3.22224,-0.07240785,0.96335
257.268,17.8344,3.32809,-0.07231556,0.96299
257.868,17.8527,3.44005,-0.07174554,0.96262
258.468,17.87096,3.55862,-0.07129809,0.96225
259.068,17.88926,3.68147,-0.07107491,0.96188
259.668,17.9076,3.81413,-0.07108006,0.96151
260.268,17.92589,3.94234,-0.07108,0.96114
260.868,17.94422,4.06837,-0.07108,0.96077
261.468,17.96261,4.16325,-0.07108,0.9604
262.068,17.98095,4.20687,-0.07108,0.96003
262.668,17.9993,4.14401,-0.07108,0.95966
263.268,18.01766,3.96986,-0.07108,0.95929
263.868,18.0359,3.74032,-0.07108,0.95892
264.468,18.05418,3.51689,-0.07108,0.95855
265.068,18.07245,3.31465,-0.07108,0.95818
265.668,18.0905,3.14075,-0.07108,0.95781
266.268,18.10868,2.98396,-0.07108001,0.95744
266.868,18.1268,2.8439,-0.07107995,0.95707
267.468,18.14494,2.72568,-0.07106384,0.9567
268.068,18.16317,2.61634,-0.07222918,0.95632
268.668,18.18125,2.52033,-0.07340363,0.95595
269.268,18.1993,2.43941,-0.07339024,0.95558
269.868,18.2173,2.36324,-0.07338998,0.95521
270.468,18.2353,2.29571,-0.07339,0.95483
271.068,18.25331,2.23681,-0.07339,0.95446
271.668,18.27133,2.18375,-0.07339,0.95409
272.268,18.28933,2.1387,-0.07339,0.95372
272.868,18.30733,2.0975,-0.07339,0.95334
273.468,18.32535,2.06255,-0.07339,0.95297
274.068,18.3433,2.03128,-0.07339,0.95259
274.668,18.3613,2.00085,-0.07339,0.95222
275.268,18.37934,1.97388,-0.07339,0.95185
275.868,18.39734,1.94985,-0.07338991,0.95147
276.468,18.4154,1.93086,-0.0733928,0.9511
277.068,18.43342,1.91331,-0.07372769,0.95072
277.668,18.4514,1.89742,-0.07436063,0.95035
278.268,18.46945,1.88333,-0.07437031,0.94997
278.868,18.48744,1.86965,-0.07436999,0.9496
279.468,18.5055,1.86056,-0.07437,0.94922
280.068,18.52352,1.84985,-0.07437,0.94885
280.668,18.54151,1.84066,-0.07437,0.94847
281.268,18.55955,1.83281,-0.07436998,0.94809
281.868,18.5776,1.82672,-0.07437257,0.94772
282.468,18.59564,1.81879,-0.07426451,0.94734
283.068,18.61375,1.81295,-0.07403905,0.94696
283.668,18.63188,1.81045,-0.07402782,0.94659
284.268,18.64989,1.80698,-0.07303954,0.94621
284.868,18.66795,1.8036,-0.07240458,0.94583
285.468,18.686,1.80127,-0.07240008,0.94546
286.068,18.7041,1.80022,-0.0724,0.94508
286.668,18.7222,1.79754,-0.0724,0.9447
287.268,18.74024,1.79332,-0.0724,0.94432
287.868,18.7583,1.79335,-0.0724,0.94394
288.468,18.77638,1.79143,-0.0724,0.94357
289.068,18.79443,1.79275,-0.0724,0.94319
289.668,18.81254,1.79186,-0.0724,0.94281
290.268,18.83066,1.79149,-0.07240001,0.94243
290.868,18.8488,1.79299,-0.07239983,0.94205
291.468,18.86695,1.7896,-0.072401,0.94167
292.068,18.88506,1.79105,-0.0728607,0.94129
292.668,18.90316,1.7918,-0.07370668,0.94091
293.268,18.92126,1.79083,-0.07372021,0.94053
293.868,18.93939,1.79073,-0.07372004,0.94015
294.468,18.95753,1.79068,-0.07371567,0.93977
295.068,18.97563,1.79258,-0.07390286,0.93939
295.668,18.99374,1.79103,-0.07469856,0.93901
296.268,19.0119,1.79263,-0.07469985,0.93863
296.868,19.03,1.79394,-0.07470064,0.93825
297.468,19.04813,1.79567,-0.07468461,0.93787
298.068,19.06622,1.79658,-0.07503413,0.93749
298.668,19.08432,1.79485,-0.07502955,0.93711
299.268,19.10228,1.79687,-0.07502873,0.93672
299.868,19.12037,1.79644,-0.07503943,0.93634
300.468,19.13854,1.80092,-0.07570111,0.93596
301.068,19.1567,1.80145,-0.07568945,0.93558
301.668,19.175,1.80138,-0.07569254,0.9352
302.268,19.19314,1.80104,-0.07600329,0.93481
302.868,19.21125,1.80166,-0.07702206,0.93443
303.468,19.22939,1.80216,-0.07700963,0.93405
304.068,19.2473,1.80565,-0.07701,0.93366
304.668,19.26523,1.80249,-0.07701,0.93328
305.268,19.28335,1.80475,-0.07701,0.9329
305.868,19.30145,1.80511,-0.07701003,0.93251
306.468,19.31979,1.8069,-0.07701021,0.93213
307.068,19.3382,1.80807,-0.07682689,0.93175
307.668,19.3563,1.80962,-0.07603618,0.93136
308.268,19.37445,1.80982,-0.07601977,0.93098
308.868,19.39262,1.8111,-0.07602,0.93059
309.468,19.41076,1.81428,-0.07602,0.93021
310.068,19.42896,1.81431,-0.07602,0.92982
310.668,19.44709,1.81665,-0.07601999,0.92944
311.268,19.46528,1.81748,-0.07601887,0.92905
311.868,19.48343,1.81748,-0.07613257,0.92867
312.468,19.5016,1.8176,-0.07735699,0.92828
313.068,19.51984,1.81944,-0.07734005,0.9279
313.668,19.538,1.81738,-0.07733998,0.92751
314.268,19.55617,1.82167,-0.07734,0.92713
314.868,19.5744,1.82526,-0.07734,0.92674
315.468,19.59254,1.82495,-0.07734,0.92635
316.068,19.61071,1.82563,-0.07734,0.92597
316.668,19.62893,1.82581,-0.07734,0.92558
317.268,19.64708,1.82624,-0.07733997,0.92519
317.868,19.66527,1.82861,-0.07733691,0.92481
318.468,19.68345,1.82613,-0.07761713,0.92442
319.068,19.70164,1.82799,-0.07863769,0.92403
319.668,19.7198,1.82871,-0.07864996,0.92364
320.268,19.73803,1.83108,-0.07865001,0.92326
320.868,19.75623,1.83393,-0.07864988,0.92287
321.468,19.77446,1.83166,-0.07865226,0.92248
322.068,19.79271,1.83537,-0.07894075,0.92209
322.668,19.81095,1.83715,-0.07930498,0.9217
323.268,19.8292,1.83689,-0.07931065,0.92132
323.868,19.84741,1.83986,-0.07930275,0.92093
324.468,19.86562,1.83825,-0.0796506,0.92054
325.068,19.8838,1.84006,-0.07963943,0.92015
325.668,19.90204,1.83998,-0.07964001,0.91976
326.268,19.9203,1.83986,-0.07964,0.91937
326.868,19.93846,1.84404,-0.07964,0.91898
327.468,19.95668,1.84352,-0.07964001,0.91859
328.068,19.9749,1.84533,-0.07963983,0.9182
328.668,19.99314,1.84821,-0.07963917,0.91781
329.268,20.0114,1.84782,-0.08013229,0.91742
329.868,20.02968,1.84776,-0.080305,0.91703
330.468,20.04791,1.84661,-0.08029993,0.91664
331.068,20.06614,1.85078,-0.0803,0.91625
331.668,20.08438,1.85141,-0.0803,0.91586
332.268,20.10268,1.85044,-0.0803,0.91547
332.868,20.12099,1.85112,-0.0803,0.91508
333.468,20.13925,1.85199,-0.0803,0.91469
334.068,20.15754,1.85618,-0.08030069,0.91429
334.668,20.1758,1.85444,-0.08027345,0.9139
335.268,20.1941,1.85416,-0.08062472,0.91351
335.868,20.21238,1.85606,-0.0806298,0.91312
336.468,20.23064,1.85906,-0.08063118,0.91273
337.068,20.24896,1.85932,-0.08058768,0.91234
337.668,20.2672,1.86206,-0.08162672,0.91194
338.268,20.28552,1.85964,-0.08162088,0.91155
338.868,20.3039,1.86178,-0.0815847,0.91116
339.468,20.3222,1.86124,-0.08194063,0.91076
340.068,20.34052,1.86334,-0.08195004,0.91037
340.668,20.35885,1.86458,-0.08194731,0.90998
341.268,20.3771,1.86407,-0.08225551,0.90959
341.868,20.39537,1.86319,-0.0832465,0.90919
342.468,20.41376,1.86796,-0.0832602,0.9088
343.068,20.4321,1.86786,-0.08327043,0.9084
343.668,20.45051,1.86978,-0.084358,0.90801
344.268,20.46889,1.86827,-0.08457371,0.90762
344.868,20.4872,1.87145,-0.08456997,0.90722
345.468,20.50548,1.87079,-0.08457,0.90683
346.068,20.52381,1.87404,-0.08457,0.90643
346.668,20.54218,1.87234,-0.08457,0.90604
347.268,20.56056,1.87142,-0.08457,0.90564
347.868,20.57892,1.8756,-0.08457,0.90525
348.468,20.59732,1.87623,-0.08457,0.90485
349.068,20.6157,1.87805,-0.08457,0.90446
349.668,20.63393,1.87956,-0.08457,0.90406
350.268,20.65233,1.88224,-0.08457,0.90367
350.868,20.67063,1.88104,-0.08457,0.90327
351.468,20.68899,1.88147,-0.08456995,0.90287
352.068,20.70757,1.88338,-0.08457095,0.90248
352.668,20.72598,1.88544,-0.08459666,0.90208
353.268,20.74442,1.88538,-0.08322199,0.90169
353.868,20.76282,1.88665,-0.08347269,0.90129
354.468,20.78121,1.88736,-0.08456941,0.90089
355.068,20.79963,1.89057,-0.0845799,0.9005
355.668,20.81803,1.88959,-0.08457975,0.9001
356.268,20.83646,1.89288,-0.08459253,0.8997
356.868,20.85484,1.89741,-0.0854271,0.8993
357.468,20.8733,1.89682,-0.08589974,0.89891
358.068,20.89172,1.8965,-0.08590013,0.89851
358.668,20.9101,1.8977,-0.0859,0.89811
359.268,20.9285,1.89733,-0.0859,0.89771
359.868,20.94687,1.90254,-0.0859,0.89732
360.468,20.96525,1.90387,-0.0859,0.89692
361.068,20.98374,1.90309,-0.08590003,0.89652
361.668,21.00221,1.90536,-0.08589915,0.89612
362.268,21.02068,1.90772,-0.08591259,0.89572
362.868,21.03914,1.91082,-0.08719231,0.89532
363.468,21.05763,1.91151,-0.08721097,0.89492
364.068,21.07607,1.91281,-0.08721003,0.89453
364.668,21.09456,1.91377,-0.08720863,0.89413
365.268,21.11306,1.91672,-0.08879154,0.89373
365.868,21.13149,1.91988,-0.08982945,0.89333
366.468,21.1499,1.92037,-0.08984034,0.89293
367.068,21.16841,1.92172,-0.08984019,0.89253
367.668,21.1869,1.92688,-0.08983904,0.89213
368.268,21.2054,1.92522,-0.09071253,0.89173
368.868,21.2238,1.92621,-0.09114598,0.89133
369.468,21.24226,1.93065,-0.09114757,0.89093
370.068,21.26075,1.93235,-0.09119096,0.89053
370.668,21.27926,1.93259,-0.09248039,0.89013
371.268,21.29792,1.93527,-0.09246937,0.88973
371.868,21.31642,1.93717,-0.09247,0.88932
372.468,21.33493,1.93981,-0.09247056,0.88892
373.068,21.35343,1.94021,-0.09246853,0.88852
373.668,21.37196,1.94259,-0.09343251,0.88812
374.268,21.3905,1.94713,-0.09346166,0.88772
374.868,21.40902,1.95064,-0.09343492,0.88732
375.468,21.42752,1.94994,-0.09378402,0.88692
376.068,21.44606,1.95157,-0.0937807,0.88651
376.668,21.4646,1.95404,-0.09512304,0.88611
377.268,21.48311,1.95843,-0.09521673,0.88571
377.868,21.5017,1.96165,-0.0957002,0.88531
378.468,21.5202,1.96742,-0.096529,0.88491
379.068,21.53878,1.96614,-0.09653015,0.8845
379.668,21.5574,1.96809,-0.09651111,0.8841
380.268,21.57593,1.97238,-0.09770398,0.8837
380.868,21.5945,1.97641,-0.09785101,0.88329
381.468,21.6131,1.98027,-0.09785001,0.88289
382.068,21.6316,1.98324,-0.09785031,0.88249
382.668,21.65019,1.98583,-0.09783288,0.88208
383.268,21.66873,1.98851,-0.09898273,0.88168
383.868,21.6873,1.99282,-0.09916,0.88128
384.468,21.70594,1.99441,-0.09913262,0.88087
385.068,21.7245,1.99812,-0.10051,0.88047
385.668,21.74315,1.99888,-0.10044,0.88006
386.268,21.76174,2.00469,-0.10196,0.87966
386.868,21.78036,2.00432,-0.10191,0.87926
387.468,21.799,2.01309,-0.1033,0.87885
388.068,21.81766,2.0171,-0.1035,0.87845
388.668,21.83632,2.02075,-0.10479,0.87804
389.268,21.85492,2.02801,-0.10486,0.87764
389.868,21.8736,2.02984,-0.10607,0.87723
390.468,21.89224,2.03489,-0.10607,0.87683
391.068,21.91088,2.03995,-0.10682,0.87642
391.668,21.92955,2.0455,-0.10739,0.87602
392.268,21.94814,2.05433,-0.10785,0.87561
392.868,21.96676,2.06023,-0.10881,0.8752
393.468,21.98538,2.068,-0.11027,0.8748
394.068,22.00405,2.07388,-0.11112,0.87439
394.668,22.02271,2.08059,-0.11219,0.87399
395.268,22.0414,2.09026,-0.11269,0.87358
395.868,22.06008,2.09859,-0.11419,0.87317
396.468,22.0787,2.10801,-0.11418,0.87277
397.068,22.09737,2.11736,-0.11543,0.87236
397.668,22.11599,2.12987,-0.11551,0.87195
398.268,22.13456,2.13954,-0.11551,0.87155
398.868,22.15325,2.14698,-0.11551,0.87114
399.468,22.17191,2.1619,-0.11552,0.87073
400.068,22.1906,2.17287,-0.11709,0.87033
400.668,22.20944,2.18811,-0.11924,0.86992
401.268,22.22814,2.20266,-0.12198,0.86951
401.868,22.2469,2.21494,-0.12441,0.8691
402.468,22.2656,2.23107,-0.12658,0.8687
403.068,22.28426,2.24902,-0.12825,0.86829
403.668,22.303,2.26391,-0.12954,0.86788
404.268,22.32175,2.2789,-0.13185,0.86747
404.868,22.3404,2.29806,-0.13383,0.86706
405.468,22.35922,2.31563,-0.13578,0.86665
406.068,22.37793,2.33557,-0.1377,0.86625
406.668,22.39663,2.35877,-0.13817,0.86584
407.268,22.41541,2.38197,-0.13958,0.86543
407.868,22.4342,2.41612,-0.1414,0.86502
408.468,22.45295,2.44624,-0.14353,0.86461
409.068,22.47172,2.47914,-0.14532,0.8642
409.668,22.49043,2.5184,-0.14697,0.86379
410.268,22.50917,2.55601,-0.14893,0.86338
410.868,22.5279,2.59336,-0.15152,0.86297
411.468,22.54668,2.6312,-0.15423,0.86256
412.068,22.5655,2.67979,-0.15917,0.86215
412.668,22.58425,2.72223,-0.16205,0.86174
413.268,22.60303,2.7632,-0.16527,0.86133
413.868,22.62183,2.8073,-0.16777,0.86092
414.468,22.6405,2.85381,-0.17063,0.86051
415.068,22.65941,2.90515,-0.17411,0.8601
415.668,22.67821,2.95815,-0.17844,0.85969
416.268,22.697,3.00598,-0.18318,0.85928
416.868,22.71595,3.05852,-0.18741,0.85887
417.468,22.73477,3.10844,-0.19188,0.85846
418.068,22.75368,3.16047,-0.19797,0.85805
418.668,22.7726,3.21324,-0.20241,0.85763
419.268,22.79145,3.27263,-0.20777,0.85722
419.868,22.81034,3.32502,-0.21272,0.85681
420.468,22.82926,3.37738,-0.21873,0.8564
421.068,22.84819,3.43557,-0.22538,0.85599
421.668,22.8671,3.48038,-0.23165,0.85558
422.268,22.88597,3.529,-0.23939,0.85516
422.868,22.90485,3.58037,-0.246,0.85475
423.468,22.92373,3.63143,-0.25418,0.85434
424.068,22.94266,3.68774,-0.26213,0.85393
424.668,22.9616,3.74415,-0.26967,0.85352
425.268,22.98049,3.79568,-0.27914,0.8531
425.868,22.99942,3.84872,-0.28681,0.85269
426.468,23.01835,3.90633,-0.29643,0.85228
427.068,23.03735,3.96624,-0.30526,0.85186
427.668,23.05626,4.02405,-0.31541,0.85145
428.268,23.07518,4.07733,-0.32621,0.85104
428.868,23.0942,4.13765,-0.33583,0.85062
429.468,23.11311,4.19335,-0.34769,0.85021
430.068,23.13212,4.25587,-0.35723,0.8498
430.668,23.15115,4.31192,-0.36926,0.84938
431.268,23.1701,4.37026,-0.38095,0.84897
431.868,23.18903,4.4281,-0.39286,0.84856
432.468,23.208,4.48451,-0.40642,0.84814
433.068,23.22702,4.54326,-0.41873,0.84773
433.668,23.24605,4.59988,-0.43449,0.84731
434.268,23.26507,4.6569,-0.4478,0.8469
434.868,23.28406,4.71898,-0.46308,0.84648
435.468,23.30304,4.776,-0.47821,0.84607
436.068,23.322,4.83351,-0.49343,0.84566
436.668,23.341,4.88532,-0.51112,0.84524
437.268,23.36007,4.93885,-0.52602,0.84483
437.868,23.37913,4.9974,-0.54482,0.84441
438.468,23.3982,5.05269,-0.56035,0.84399
439.068,23.4173,5.10687,-0.57927,0.84358
439.668,23.4363,5.16801,-0.59751,0.84316
440.268,23.4554,5.2173,-0.61539,0.84275
440.868,23.4744,5.27553,-0.63604,0.84233
441.468,23.49346,5.3231,-0.65365,0.84192
442.068,23.51233,5.37221,-0.6765,0.8415
442.668,23.53136,5.42153,-0.69592,0.84108
443.268,23.55041,5.46553,-0.71862,0.84067
443.868,23.5696,5.51878,-0.74049,0.84025
444.468,23.5887,5.56808,-0.76104,0.83984
445.068,23.60783,5.61406,-0.78474,0.83942
445.668,23.62694,5.65683,-0.80512,0.839
446.268,23.64594,5.70461,-0.83163,0.83859
446.868,23.665,5.74772,-0.85326,0.83817
447.468,23.68401,5.78802,-0.87904,0.83775
448.068,23.70306,5.82716,-0.90352,0.83733
448.668,23.7222,5.8683,-0.9278,0.83692
449.268,23.74121,5.9006,-0.95641,0.8365
449.868,23.76039,5.94229,-0.97984,0.83608
450.468,23.7795,5.97981,-1.00929,0.83567
451.068,23.7987,6.01308,-1.03307,0.83525
451.668,23.81786,6.04605,-1.06237,0.83483
452.268,23.8369,6.07671,-1.08891,0.83441
452.868,23.85605,6.10253,-1.11686,0.83399
453.468,23.8751,6.13385,-1.14707,0.83358
454.068,23.89423,6.15867,-1.17343,0.83316
454.668,23.91339,6.18198,-1.20652,0.83274
455.268,23.9325,6.20264,-1.2331,0.83232
455.868,23.9516,6.22169,-1.26661,0.8319
456.468,23.97073,6.23791,-1.29519,0.83148
457.068,23.98982,6.25249,-1.32593,0.83106
457.668,24.00885,6.26581,-1.35713,0.83065
458.268,24.0279,6.2795,-1.38514,0.83023
458.868,24.047,6.28661,-1.42021,0.82981
459.468,24.06606,6.29527,-1.44837,0.82939
460.068,24.0852,6.31162,-1.48395,0.82897
460.668,24.1043,6.32258,-1.51416,0.82855
461.268,24.1234,6.32823,-1.54804,0.82813
461.868,24.14249,6.3348,-1.5819,0.82771
462.468,24.16159,6.3371,-1.61318,0.82729
463.068,24.18072,6.34351,-1.65113,0.82687
463.668,24.19979,6.33928,-1.68278,0.82645
464.268,24.21896,6.32557,-1.72156,0.82603
464.868,24.23807,6.31747,-1.7529,0.82561
465.468,24.2572,6.30197,-1.78963,0.82519
466.068,24.2763,6.28188,-1.8244,0.82477
466.668,24.29533,6.26851,-1.85749,0.82435
467.268,24.3144,6.26045,-1.89531,0.82393
467.868,24.33353,6.25369,-1.9268,0.82351
468.468,24.3526,6.24631,-1.9667,0.82309
469.068,24.37175,6.23807,-1.99866,0.82267
469.668,24.3908,6.22617,-2.03672,0.82224
470.268,24.40985,6.21395,-2.07276,0.82182
470.868,24.42894,6.21178,-2.10878,0.8214
471.468,24.44797,6.20857,-2.14862,0.82098
472.068,24.46711,6.20424,-2.18159,0.82056
472.668,24.48614,6.19789,-2.22354,0.82014
473.268,24.50514,6.18837,-2.25775,0.81972
473.868,24.52402,6.17995,-2.29839,0.81929
474.468,24.54308,6.1702,-2.3367,0.81887
475.068,24.5622,6.1622,-2.37475,0.81845
475.668,24.58139,6.15198,-2.4174,0.81803
476.268,24.60065,6.14649,-2.45294,0.81761
476.868,24.61973,6.13008,-2.49686,0.81718
477.468,24.63883,6.11712,-2.53264,0.81676
478.068,24.65793,6.0972,-2.57689,0.81634
478.668,24.67698,6.07672,-2.6162,0.81592
479.268,24.6961,6.05219,-2.65672,0.81549
479.868,24.71521,6.02357,-2.69924,0.81507
480.468,24.7343,5.98914,-2.73646,0.81465
481.068,24.75339,5.95276,-2.78244,0.81422
481.668,24.77252,5.90732,-2.81906,0.8138
482.268,24.79164,5.85911,-2.86349,0.81338
482.868,24.8107,5.80604,-2.90092,0.81295
483.468,24.8297,5.74205,-2.94069,0.81253
484.068,24.8488,5.67862,-2.98213,0.81211
484.668,24.86779,5.60535,-3.01879,0.81168
485.268,24.8868,5.5251,-3.0632,0.81126
485.868,24.90575,5.44371,-3.09811,0.81083
486.468,24.92463,5.3546,-3.14016,0.81041
487.068,24.94354,5.25815,-3.17679,0.80999
487.668,24.96261,5.15218,-3.21371,0.80956
488.268,24.98152,5.04092,-3.25279,0.80914
488.868,25.00054,4.92148,-3.28509,0.80871
489.468,25.01949,4.79649,-3.32457,0.80829
490.068,25.0384,4.66341,-3.35559,0.80786
490.668,25.0575,4.52321,-3.39204,0.80744
491.268,25.07643,4.37811,-3.42479,0.80701
491.868,25.09543,4.221,-3.45583,0.80659
492.468,25.11438,4.06005,-3.48983,0.80616
493.068,25.1332,3.8922,-3.5164,0.80574
493.668,25.1522,3.72018,-3.54843,0.80531
494.268,25.171,3.54008,-3.57356,0.80489
494.868,25.18995,3.35554,-3.60069,0.80446
495.468,25.2088,3.16567,-3.62638,0.80404
496.068,25.2275,2.97414,-3.64781,0.80361
496.668,25.24633,2.78295,-3.67276,0.80319
497.268,25.26507,2.59219,-3.69161,0.80276
497.868,25.28386,2.40271,-3.71215,0.80233
498.468,25.30265,2.2171,-3.73029,0.80191
499.068,25.32141,2.03924,-3.74564,0.80148
499.668,25.34018,1.86805,-3.7626,0.80106
500.268,25.35902,1.70164,-3.77495,0.80063
500.868,25.37783,1.54888,-3.78829,0.8002
501.468,25.3967,1.40636,-3.7991,0.79978
502.068,25.41558,1.27335,-3.8086,0.79935
502.668,25.43445,1.15736,-3.81838,0.79892
503.268,25.45335,1.0524,-3.82498,0.7985
503.868,25.4722,0.95718,-3.83212,0.79807
504.468,25.49106,0.86772,-3.83697,0.79764
505.068,25.50992,0.7902,-3.84218,0.79721
505.668,25.52863,0.72298,-3.84699,0.79679
506.268,25.54733,0.6626,-3.85224,0.79636
506.868,25.56599,0.60676,-3.85665,0.79593
507.468,25.58471,0.56048,-3.85993,0.7955
508.068,25.60359,0.51754,-3.86207,0.79508
508.668,25.6225,0.4795,-3.86413,0.79465
509.268,25.64145,0.44861,-3.86611,0.79422
509.868,25.66041,0.41867,-3.86819,0.79379
510.468,25.67921,0.39713,-3.86978,0.79336
511.068,25.69817,0.37319,-3.87002,0.79294
511.668,25.71708,0.35201,-3.87149,0.79251
512.268,25.73603,0.33664,-3.87283,0.79208
512.868,25.75531,0.32124,-3.873,0.79165
513.468,25.77441,0.30992,-3.87438,0.79122
514.068,25.79359,0.2977,-3.87434,0.79079
514.668,25.81279,0.28791,-3.87493,0.79037
515.268,25.8318,0.2795,-3.87566,0.78994
515.868,25.8509,0.26757,-3.87641,0.78951
516.468,25.86991,0.26184,-3.87708,0.78908
517.068,25.88898,0.25683,-3.87763,0.78865
517.668,25.9082,0.25242,-3.8784,0.78822
518.268,25.92727,0.24711,-3.8784,0.78779
518.868,25.94649,0.24401,-3.87937,0.78736
519.468,25.96557,0.24022,-3.87973,0.78693
520.068,25.98463,0.23755,-3.88088,0.7865
520.668,26.00375,0.23477,-3.88225,0.78607
521.268,26.02286,0.23084,-3.88234,0.78564
521.868,26.04201,0.22858,-3.88234,0.78521
522.468,26.06119,0.2275,-3.88234,0.78478
523.068,26.08031,0.22563,-3.88234,0.78435
523.668,26.09949,0.22535,-3.88234,0.78392
524.268,26.11865,0.22361,-3.88234,0.78349
524.868,26.1378,0.22647,-3.88234,0.78306
525.468,26.1569,0.22416,-3.88235,0.78263
526.068,26.17597,0.22516,-3.88235,0.7822
526.668,26.19521,0.22766,-3.88235,0.78177
527.268,26.21436,0.22976,-3.88235,0.78134
527.868,26.2338,0.23474,-3.88236,0.78091
528.468,26.253,0.23841,-3.88365,0.78048
529.068,26.27208,0.2471,-3.88366,0.78005
529.668,26.2912,0.25135,-3.88366,0.77962
530.268,26.31039,0.25977,-3.88366,0.77919
530.868,26.32958,0.26317,-3.88388,0.77875
531.468,26.34882,0.26705,-3.88496,0.77832
532.068,26.36805,0.26927,-3.88497,0.77789
532.668,26.38723,0.27314,-3.88496,0.77746
533.268,26.4065,0.27151,-3.88399,0.77703
533.868,26.42567,0.27316,-3.88399,0.7766
534.468,26.44489,0.27234,-3.88399,0.77616
535.068,26.46415,0.27167,-3.88399,0.77573
535.668,26.4834,0.27251,-3.88399,0.7753
536.268,26.50272,0.27452,-3.88399,0.77487
536.868,26.522,0.27284,-3.88399,0.77444
537.468,26.5413,0.27081,-3.88399,0.774
538.068,26.5606,0.27085,-3.88399,0.77357
538.668,26.57985,0.26737,-3.88463,0.77314
539.268,26.5991,0.26454,-3.88531,0.77271
539.868,26.61852,0.26643,-3.88531,0.77227
540.468,26.6379,0.26522,-3.88531,0.77184
541.068,26.6572,0.25922,-3.88531,0.77141
541.668,26.6765,0.26099,-3.88531,0.77098
542.268,26.6958,0.25847,-3.88529,0.77054
542.868,26.71513,0.26028,-3.88598,0.77011
543.468,26.7345,0.25677,-3.88596,0.76968
544.068,26.75385,0.25185,-3.88596,0.76924
544.668,26.7732,0.2506,-3.88694,0.76881
545.268,26.7926,0.24758,-3.88728,0.76838
545.868,26.81193,0.24569,-3.88728,0.76794
546.468,26.83121,0.24398,-3.88728,0.76751
547.068,26.85052,0.24379,-3.88728,0.76708
547.668,26.8699,0.24288,-3.88728,0.76664
548.268,26.8893,0.24051,-3.88728,0.76621
548.868,26.9087,0.23739,-3.88728,0.76577
549.468,26.92816,0.23551,-3.88728,0.76534
550.068,26.94753,0.23289,-3.88728,0.76491
550.668,26.96698,0.23045,-3.88728,0.76447
551.268,26.98643,0.2242,-3.88728,0.76404
551.868,27.00583,0.22464,-3.88599,0.7636
552.468,27.02526,0.22009,-3.88597,0.76317
553.068,27.0446,0.2153,-3.88597,0.76273
553.668,27.064,0.21227,-3.88597,0.7623
554.268,27.08338,0.21142,-3.88595,0.76186
554.868,27.10282,0.20951,-3.88715,0.76143
555.468,27.1223,0.20417,-3.88728,0.76099
556.068,27.1417,0.20412,-3.88728,0.76056
556.668,27.1612,0.1999,-3.88728,0.76012
557.268,27.1806,0.19534,-3.88728,0.75969
557.868,27.20011,0.19308,-3.88728,0.75925
558.468,27.2195,0.18956,-3.88728,0.75882
559.068,27.2389,0.18664,-3.88728,0.75838
559.668,27.2584,0.18519,-3.88728,0.75795
560.268,27.2778,0.18226,-3.88728,0.75751
560.868,27.2971,0.1768,-3.88759,0.75708
561.468,27.31652,0.17443,-3.8886,0.75664
562.068,27.336,0.17123,-3.8894,0.7562
562.668,27.3555,0.17028,-3.8884,0.75577
563.268,27.375,0.16799,-3.88838,0.75533
563.868,27.3944,0.16329,-3.88838,0.7549
564.468,27.4138,0.1633,-3.88837,0.75446
565.068,27.4333,0.15816,-3.88937,0.75402
565.668,27.45275,0.1561,-3.88938,0.75359
566.268,27.47219,0.15361,-3.88808,0.75315
566.868,27.49158,0.15144,-3.88805,0.75271
567.468,27.511,0.15235,-3.88805,0.75228
568.068,27.53043,0.14767,-3.88805,0.75184
568.668,27.5499,0.1452,-3.88805,0.7514
569.268,27.5694,0.14126,-3.88805,0.75097
569.868,27.5889,0.14164,-3.88805,0.75053
570.468,27.6084,0.13672,-3.88805,0.75009
571.068,27.6278,0.1366,-3.88805,0.74966
571.668,27.6473,0.13572,-3.88805,0.74922
572.268,27.66682,0.12942,-3.88805,0.74878
572.868,27.68637,0.12959,-3.88805,0.74835
573.468,27.70593,0.1287,-3.88805,0.74791
574.068,27.7254,0.12164,-3.88805,0.74747
574.668,27.7449,0.12586,-3.88805,0.74703
575.268,27.76445,0.1217,-3.88805,0.7466
575.868,27.78394,0.12011,-3.88806,0.74616
576.468,27.80351,0.11905,-3.88841,0.74572
577.068,27.82303,0.11374,-3.88838,0.74528
577.668,27.84252,0.1146,-3.88838,0.74484
578.268,27.8621,0.11415,-3.88838,0.74441
578.868,27.88161,0.1119,-3.88839,0.74397
579.468,27.90121,0.11314,-3.88921,0.74353
580.068,27.92083,0.10822,-3.88982,0.74309
580.668,27.9404,0.10793,-3.89148,0.74265
581.268,27.9599,0.10614,-3.89244,0.74221
581.868,27.9795,0.10166,-3.89277,0.74178
582.468,27.99907,0.10347,-3.89276,0.74134
583.068,28.01865,0.10308,-3.89135,0.7409
583.668,28.03823,0.10018,-3.89105,0.74046
584.268,28.0578,0.10045,-3.88968,0.74002
584.868,28.0773,0.09761082,-3.8897,0.73958
585.468,28.0969,0.0976808,-3.8897,0.73914
586.068,28.1165,0.09181704,-3.8897,0.7387
586.668,28.1361,0.09643276,-3.8897,0.73826
587.268,28.15571,0.09394518,-3.8897,0.73783
587.868,28.1753,0.09066266,-3.8897,0.73739
588.468,28.19496,0.08914788,-3.8897,0.73695
589.068,28.2146,0.09127965,-3.89014,0.73651
589.668,28.2342,0.08908952,-3.89101,0.73607
590.268,28.25385,0.0875595,-3.89101,0.73563
590.868,28.27344,0.08465202,-3.89101,0.73519
591.468,28.2931,0.08450053,-3.89101,0.73475
592.068,28.31273,0.08357059,-3.89069,0.73431
592.668,28.33233,0.08304505,-3.89,0.73387
593.268,28.352,0.08207863,-3.89002,0.73343
593.868,28.37162,0.08221588,-3.89002,0.73299
594.468,28.3913,0.08234569,-3.89002,0.73255
595.068,28.411,0.08044134,-3.89002,0.73211
595.668,28.43065,0.08103083,-3.89002,0.73167
596.268,28.45035,0.08297471,-3.89002,0.73123
596.868,28.47,0.08140711,-3.89013,0.73079
597.468,28.48971,0.08271247,-3.89131,0.73035
598.068,28.5094,0.08116158,-3.89271,0.72991
598.668,28.529,0.08037299,-3.89266,0.72947
599.268,28.54865,0.08122105,-3.89266,0.72903
599.868,28.5683,0.08311047,-3.89266,0.72858
600.468,28.588,0.08211461,-3.89266,0.72814
601.068,28.6076,0.08304854,-3.89266,0.7277
601.668,28.6274,0.08081099,-3.89266,0.72726
602.268,28.64708,0.08069906,-3.89266,0.72682
602.868,28.6668,0.07847533,-3.89266,0.72638
603.468,28.6866,0.07936122,-3.89266,0.72594
604.068,28.7064,0.08092588,-3.89169,0.7255
604.668,28.72605,0.0813456,-3.89167,0.72506
605.268,28.7458,0.08182645,-3.89167,0.72461
605.868,28.76541,0.08309527,-3.89167,0.72417
606.468,28.7851,0.08280949,-3.89167,0.72373
607.068,28.80473,0.07986387,-3.89167,0.72329
607.668,28.82447,0.08447867,-3.89168,0.72285
608.268,28.8442,0.08280442,-3.89281,0.72241
608.868,28.86399,0.08094185,-3.89298,0.72196
609.468,28.88372,0.08381458,-3.89298,0.72152
610.068,28.90345,0.08108324,-3.89298,0.72108
610.668,28.9232,0.08602258,-3.89298,0.72064
611.268,28.9429,0.08457429,-3.89298,0.72019
611.868,28.9627,0.08324312,-3.89298,0.71975
612.468,28.98237,0.08455901,-3.89298,0.71931
613.068,29.00212,0.08283807,-3.89298,0.71887
613.668,29.02184,0.08293441,-3.89298,0.71843
614.268,29.0416,0.08115594,-3.89298,0.71798
614.868,29.06134,0.08199269,-3.89298,0.71754
615.468,29.08108,0.08371608,-3.89298,0.7171
616.068,29.10087,0.07902381,-3.89298,0.71665
616.668,29.12064,0.08221115,-3.89298,0.71621
617.268,29.1404,0.08402682,-3.89298,0.71577
617.868,29.16015,0.08268865,-3.89298,0.71533
618.468,29.1798,0.08217644,-3.89396,0.71488
619.068,29.19962,0.08299323,-3.8943,0.71444
619.668,29.21935,0.08668124,-3.8943,0.714
620.268,29.23916,0.08337544,-3.8943,0.71355
620.868,29.2589,0.08587978,-3.8943,0.71311
621.468,29.27867,0.08368848,-3.8943,0.71267
622.068,29.2985,0.08189487,-3.8943,0.71222
622.668,29.3183,0.08549357,-3.89411,0.71178
623.268,29.33803,0.08209137,-3.89332,0.71134
623.868,29.35773,0.08380171,-3.89331,0.71089
624.468,29.37753,0.08649778,-3.89331,0.71045
625.068,29.3973,0.08307045,-3.89331,0.71001
625.668,29.41709,0.0830646,-3.89343,0.70956
626.268,29.4369,0.08344741,-3.89429,0.70912
626.868,29.45666,0.08410131,-3.8943,0.70867
627.468,29.4765,0.08288724,-3.8943,0.70823
628.068,29.49625,0.08357306,-3.8943,0.70779
628.668,29.5161,0.08695424,-3.8943,0.70734
629.268,29.5359,0.0871061,-3.8943,0.7069
629.868,29.5557,0.08562605,-3.8943,0.70645
630.468,29.57553,0.08386132,-3.8943,0.70601
631.068,29.59533,0.08790745,-3.89443,0.70556
631.668,29.6151,0.08474564,-3.89561,0.70512
632.268,29.6349,0.08277938,-3.89562,0.70467
632.868,29.65467,0.08575241,-3.89562,0.70423
633.468,29.6744,0.08558757,-3.89562,0.70379
634.068,29.6942,0.08673391,-3.89562,0.70334
634.668,29.71397,0.0857466,-3.89633,0.7029
635.268,29.7338,0.08813388,-3.8966,0.70245
635.868,29.75375,0.08758607,-3.8966,0.70201
636.468,29.77347,0.09011629,-3.8966,0.70156
637.068,29.79305,0.09038847,-3.8966,0.70112
637.668,29.81281,0.09212109,-3.89601,0.70067
638.268,29.8326,0.09470867,-3.89529,0.70023
638.868,29.8526,0.09060311,-3.89529,0.69978
639.468,29.8726,0.09424482,-3.89529,0.69934
640.068,29.8924,0.09190481,-3.89529,0.69889
640.668,29.9121,0.09422277,-3.89529,0.69844
641.268,29.93192,0.0933159,-3.89529,0.698
641.868,29.95167,0.09165187,-3.89529,0.69755
642.468,29.9715,0.09400167,-3.89529,0.69711
643.068,29.9913,0.09516411,-3.89529,0.69666
643.668,30.0111,0.09238683,-3.89529,0.69622
644.268,30.03101,0.09248187,-3.89529,0.69577
644.868,30.0508,0.0950629,-3.89529,0.69532
645.468,30.07062,0.09392009,-3.89529,0.69488
646.068,30.09038,0.0917774,-3.89529,0.69443
646.668,30.1101,0.09516197,-3.89529,0.69399
647.268,30.1299,0.09595053,-3.89529,0.69354
647.868,30.1497,0.09477686,-3.89529,0.69309
648.468,30.16955,0.09410235,-3.89529,0.69265
649.068,30.1893,0.09519045,-3.89529,0.6922
649.668,30.20915,0.09407717,-3.89529,0.69175
650.268,30.22894,0.09511517,-3.89539,0.69131
650.868,30.2488,0.09488083,-3.89561,0.69086
651.468,30.2686,0.09420519,-3.89489,0.69042
652.068,30.28841,0.09552572,-3.89496,0.68997
652.668,30.30827,0.09627309,-3.89496,0.68952
653.268,30.3281,0.09546678,-3.89499,0.68908
653.868,30.34787,0.09861047,-3.89632,0.68863
654.468,30.36753,0.09686435,-3.89563,0.68818
655.068,30.38709,0.09607923,-3.89562,0.68773
655.668,30.4068,0.09726007,-3.89562,0.68729
656.268,30.42653,0.09618853,-3.89562,0.68684
656.868,30.44645,0.09870688,-3.89562,0.68639
657.468,30.46647,0.09749381,-3.89562,0.68595
658.068,30.4863,0.09592049,-3.89562,0.6855
658.668,30.50615,0.09655737,-3.89563,0.68505
659.268,30.5259,0.09936153,-3.89687,0.6846
659.868,30.5457,0.09849631,-3.89794,0.68416
660.468,30.5655,0.09827255,-3.89793,0.68371
661.068,30.5853,0.09987692,-3.89793,0.68326
661.668,30.6051,0.0981388,-3.89793,0.68282
662.268,30.6249,0.09871623,-3.89793,0.68237
662.868,30.6446,0.10067,-3.89793,0.68192
663.468,30.6643,0.10053,-3.89793,0.68147
664.068,30.68409,0.09839744,-3.89778,0.68102
664.668,30.7039,0.10408,-3.89659,0.68058
665.268,30.72375,0.10311,-3.89661,0.68013
665.868,30.74362,0.10445,-3.89661,0.67968
666.468,30.7635,0.10239,-3.89658,0.67923
667.068,30.78345,0.10578,-3.89729,0.67878
667.668,30.8033,0.10545,-3.89727,0.67834
668.268,30.8232,0.10382,-3.89727,0.67789
668.868,30.84297,0.10551,-3.89736,0.67744
669.468,30.8628,0.10825,-3.8986,0.67699
670.068,30.88263,0.10954,-3.89858,0.67654
670.668,30.9025,0.10928,-3.89858,0.6761
671.268,30.92233,0.1079,-3.89858,0.67565
671.868,30.94218,0.1103,-3.89858,0.6752
672.468,30.962,0.109,-3.89858,0.67475
673.068,30.98188,0.11334,-3.89858,0.6743
673.668,31.00173,0.11219,-3.89858,0.67385
674.268,31.02158,0.11158,-3.89858,0.6734
674.868,31.0414,0.11417,-3.89858,0.67296
675.468,31.06125,0.11284,-3.89858,0.67251
676.068,31.0811,0.11417,-3.89858,0.67206
676.668,31.101,0.11651,-3.89858,0.67161
677.268,31.1207,0.11516,-3.89858,0.67116
677.868,31.1405,0.11761,-3.89859,0.67071
678.468,31.1602,0.11326,-3.89725,0.67026
679.068,31.1799,0.11736,-3.89726,0.66981
679.668,31.1998,0.1166,-3.89726,0.66936
680.268,31.2196,0.11685,-3.89726,0.66891
680.868,31.23957,0.11804,-3.89726,0.66847
681.468,31.25955,0.11856,-3.89726,0.66802
682.068,31.27937,0.12189,-3.89855,0.66757
682.668,31.2993,0.12203,-3.89858,0.66712
683.268,31.31914,0.12071,-3.89858,0.66667
683.868,31.33897,0.12118,-3.89858,0.66622
684.468,31.35888,0.12373,-3.89858,0.66577
685.068,31.3788,0.12405,-3.89858,0.66532
685.668,31.3986,0.1257,-3.89858,0.66487
686.268,31.41865,0.12516,-3.89858,0.66442
686.868,31.43863,0.12734,-3.89858,0.66397
687.468,31.45869,0.12848,-3.89858,0.66352
688.068,31.47883,0.13078,-3.89858,0.66307
688.668,31.4988,0.12782,-3.89858,0.66262
689.268,31.51884,0.12759,-3.89858,0.66217
689.868,31.5388,0.13081,-3.89858,0.66172
690.468,31.5587,0.12971,-3.89858,0.66127
691.068,31.57866,0.12918,-3.89858,0.66082
691.668,31.59862,0.13108,-3.89858,0.66037
692.268,31.61855,0.13011,-3.8988,0.65992
692.868,31.6385,0.13128,-3.89995,0.65947
693.468,31.6584,0.13586,-3.8989,0.65902
694.068,31.6783,0.13547,-3.89892,0.65857
694.668,31.69827,0.13472,-3.90012,0.65812
695.268,31.71824,0.13396,-3.90023,0.65767
695.868,31.7383,0.13476,-3.90023,0.65722
696.468,31.7582,0.13641,-3.90023,0.65677
697.068,31.7781,0.13838,-3.90023,0.65632
697.668,31.79805,0.14031,-3.90023,0.65587
698.268,31.818,0.14189,-3.90023,0.65542
698.868,31.838,0.14137,-3.90023,0.65497
699.468,31.858,0.14222,-3.90023,0.65452
700.068,31.878,0.14513,-3.90023,0.65407
700.668,31.89798,0.14803,-3.90026,0.65361
701.268,31.918,0.14876,-3.89991,0.65316
701.868,31.9379,0.14898,-3.8999,0.65271
702.468,31.9578,0.14844,-3.8999,0.65226
703.068,31.9778,0.14811,-3.8999,0.65181
703.668,31.9978,0.15042,-3.8999,0.65136
704.268,32.01786,0.15134,-3.8999,0.65091
704.868,32.03787,0.15081,-3.8999,0.65046
705.468,32.05782,0.15223,-3.8999,0.65001
706.068,32.07783,0.15514,-3.89996,0.64956
706.668,32.0978,0.15495,-3.8989,0.6491
707.268,32.11786,0.15807,-3.89886,0.64865
707.868,32.13791,0.15538,-3.90026,0.6482
708.468,32.15789,0.1583,-3.90023,0.64775
709.068,32.1779,0.16138,-3.90023,0.6473
709.668,32.19787,0.15665,-3.90023,0.64685
710.268,32.21788,0.15909,-3.90023,0.6464
710.868,32.23795,0.15907,-3.90023,0.64595
711.468,32.2579,0.161,-3.90023,0.64549
712.068,32.27798,0.1629,-3.90023,0.64504
712.668,32.29801,0.16158,-3.90023,0.64459
713.268,32.31799,0.16091,-3.90025,0.64414
713.868,32.338,0.16553,-3.90092,0.64369
714.468,32.3581,0.16757,-3.90088,0.64324
715.068,32.3781,0.16808,-3.9009,0.64278
715.668,32.39812,0.16796,-3.89961,0.64233
716.268,32.41811,0.16943,-3.89956,0.64188
716.868,32.4381,0.17182,-3.89956,0.64143
717.468,32.45811,0.17117,-3.89956,0.64098
718.068,32.4781,0.1743,-3.89956,0.64053
718.668,32.49812,0.17405,-3.89956,0.64007
719.268,32.51815,0.17656,-3.89872,0.63962
719.868,32.5382,0.17991,-3.89858,0.63917
720.468,32.55831,0.17767,-3.89858,0.63872
721.068,32.5784,0.18385,-3.89858,0.63827
721.668,32.5985,0.18068,-3.89858,0.63781
722.268,32.61855,0.18241,-3.89858,0.63736
722.868,32.6386,0.18362,-3.89854,0.63691
723.468,32.65863,0.18645,-3.89991,0.63646
724.068,32.67864,0.18423,-3.89989,0.636
724.668,32.69874,0.1889,-3.89985,0.63555
725.268,32.7188,0.18945,-3.90073,0.6351
725.868,32.7388,0.1942,-3.8999,0.63465
726.468,32.7588,0.19589,-3.8999,0.63419
727.068,32.77875,0.19565,-3.9004,0.63374
727.668,32.7988,0.19582,-3.90121,0.63329
728.268,32.8189,0.19763,-3.90121,0.63284
728.868,32.83892,0.19804,-3.90032,0.63239
729.468,32.85909,0.20422,-3.89989,0.63193
730.068,32.87917,0.19952,-3.89989,0.63148
730.668,32.89924,0.20565,-3.89989,0.63103
731.268,32.91932,0.20644,-3.89989,0.63057
731.868,32.93939,0.20456,-3.89989,0.63012
732.468,32.95945,0.20754,-3.89989,0.62967
733.068,32.97959,0.20828,-3.89987,0.62922
733.668,32.9997,0.20874,-3.90121,0.62876
734.268,33.01978,0.20825,-3.90121,0.62831
734.868,33.03988,0.20773,-3.90121,0.62786
735.468,33.05997,0.21065,-3.90121,0.62741
736.068,33.0801,0.21388,-3.90121,0.62695
736.668,33.10027,0.20977,-3.90119,0.6265
737.268,33.12038,0.21287,-3.90055,0.62605
737.868,33.1405,0.21212,-3.90055,0.62559
738.468,33.1606,0.21279,-3.89988,0.62514
739.068,33.1806,0.21376,-3.89989,0.62469
739.668,33.20069,0.21399,-3.89989,0.62423
740.268,33.22072,0.2162,-3.89989,0.62378
740.868,33.24078,0.2173,-3.89989,0.62333
741.468,33.26089,0.21823,-3.89989,0.62288
742.068,33.28096,0.20993,-3.89985,0.62242
742.668,33.3011,0.21217,-3.89956,0.62197
743.268,33.32131,0.20919,-3.89956,0.62152
743.568,33.3315,0.21099,-3.89956,0.62129