File: 01_Data/Nylon/STA/N2/30K_min/Nylon_STA_N2_30KData_220604_R1.csv
##Temp./Â°C,Time/min,DSC(subtr.2)/(mW/mg),Mass loss(subtr.2)/mg,Sensit./(uV/mW)
48.589,10.00667,0.00766766,-0.02072,1.07502
49.189,10.53545,0.05249285,-0.02190784,1.07475
49.789,10.65116,0.09390146,-0.02224635,1.07449
50.389,10.73921,0.12969,-0.02336869,1.07422
50.989,10.8078,0.16491,-0.02330975,1.07396
51.589,10.86706,0.19475,-0.02419565,1.07369
52.189,10.91986,0.22423,-0.02292616,1.07343
52.789,10.96832,0.25377,-0.02455335,1.07316
53.389,11.01282,0.27987,-0.02433705,1.07289
53.989,11.05413,0.30294,-0.02455128,1.07263
54.589,11.09408,0.32877,-0.02463381,1.07236
55.189,11.1327,0.35175,-0.02448083,1.07209
55.789,11.16877,0.37399,-0.02382178,1.07182
56.389,11.2033,0.39479,-0.0237571,1.07155
56.989,11.23682,0.41519,-0.02381001,1.07128
57.589,11.26931,0.43481,-0.0239509,1.07101
58.189,11.30025,0.45266,-0.02324158,1.07074
58.789,11.3308,0.47247,-0.0234072,1.07047
59.389,11.36086,0.48921,-0.02345659,1.0702
59.989,11.3904,0.50661,-0.02350901,1.06993
60.589,11.4191,0.52476,-0.02298196,1.06966
61.189,11.4472,0.54083,-0.02369878,1.06939
61.789,11.475,0.5569,-0.02380919,1.06911
62.389,11.5021,0.572,-0.02335706,1.06884
62.989,11.52881,0.58989,-0.02365845,1.06857
63.589,11.5551,0.60682,-0.0240743,1.06829
64.189,11.58104,0.6207,-0.02422949,1.06802
64.789,11.6067,0.63717,-0.02489219,1.06774
65.389,11.632,0.65225,-0.02506501,1.06747
65.989,11.6569,0.66648,-0.02571776,1.06719
66.589,11.68169,0.67954,-0.02595937,1.06692
67.189,11.70625,0.69291,-0.02617111,1.06664
67.789,11.7307,0.70551,-0.02590894,1.06637
68.389,11.75473,0.72222,-0.02581792,1.06609
68.989,11.77867,0.73542,-0.0256809,1.06581
69.589,11.80226,0.7484,-0.02526692,1.06553
70.189,11.82584,0.75884,-0.02493591,1.06526
70.789,11.8492,0.77138,-0.02508586,1.06498
71.389,11.8726,0.78193,-0.02547682,1.0647
71.989,11.89575,0.79504,-0.02555001,1.06442
72.589,11.91864,0.80456,-0.02516689,1.06414
73.189,11.9415,0.81608,-0.02469046,1.06386
73.789,11.96391,0.82318,-0.02475453,1.06358
74.389,11.98662,0.83306,-0.02489331,1.0633
74.989,12.00901,0.8398,-0.02549501,1.06302
75.589,12.03169,0.84945,-0.02628238,1.06274
76.189,12.05407,0.85711,-0.02572791,1.06245
76.789,12.0764,0.86539,-0.02619833,1.06217
77.389,12.09856,0.86734,-0.02690045,1.06189
77.989,12.1206,0.87597,-0.02559723,1.06161
78.589,12.14255,0.88145,-0.02571202,1.06132
79.189,12.16452,0.88601,-0.02650623,1.06104
79.789,12.18626,0.89014,-0.02520734,1.06075
80.389,12.20791,0.89692,-0.02664417,1.06047
80.989,12.2295,0.90117,-0.02552278,1.06018
81.589,12.2511,0.90276,-0.0266246,1.0599
82.189,12.2727,0.90915,-0.02582702,1.05961
82.789,12.29412,0.91095,-0.02665441,1.05933
83.389,12.3155,0.91469,-0.02727723,1.05904
83.989,12.33677,0.91647,-0.02825923,1.05875
84.589,12.358,0.91858,-0.02799942,1.05847
85.189,12.37926,0.92401,-0.02789849,1.05818
85.789,12.40034,0.92923,-0.02758627,1.05789
86.389,12.4214,0.92924,-0.02806873,1.0576
86.989,12.44246,0.93091,-0.02731312,1.05731
87.589,12.4634,0.93362,-0.02793502,1.05703
88.189,12.48439,0.93859,-0.02692148,1.05674
88.789,12.5053,0.9416,-0.02732769,1.05645
89.389,12.5262,0.94385,-0.02700667,1.05616
89.989,12.54703,0.94762,-0.02853254,1.05587
90.589,12.5677,0.95039,-0.02890928,1.05557
91.189,12.58848,0.95327,-0.02859391,1.05528
91.789,12.60908,0.95672,-0.0286298,1.05499
92.389,12.62975,0.96126,-0.02969621,1.0547
92.989,12.65039,0.96518,-0.02858989,1.05441
93.589,12.67095,0.96818,-0.02861143,1.05412
94.189,12.6915,0.96976,-0.02989337,1.05382
94.789,12.7119,0.97321,-0.02972259,1.05353
95.389,12.73236,0.97951,-0.02858053,1.05324
95.989,12.7528,0.98201,-0.02994741,1.05294
96.589,12.77324,0.98734,-0.02993959,1.05265
97.189,12.79373,0.99041,-0.02892413,1.05235
97.789,12.81413,0.99466,-0.0299395,1.05206
98.389,12.8345,0.99863,-0.02992849,1.05176
98.989,12.85482,1.00075,-0.03002483,1.05147
99.589,12.8751,1.0062,-0.0311223,1.05117
100.189,12.89547,1.01029,-0.02995292,1.05087
100.789,12.91583,1.01253,-0.03001033,1.05058
101.389,12.93593,1.01665,-0.03127863,1.05028
101.989,12.95615,1.01901,-0.0312586,1.04998
102.589,12.97644,1.02216,-0.03131843,1.04968
103.189,12.99673,1.02708,-0.03095151,1.04938
103.789,13.01731,1.03203,-0.03125744,1.04909
104.389,13.03761,1.03419,-0.03088254,1.04879
104.989,13.0577,1.03954,-0.02993927,1.04849
105.589,13.0779,1.04394,-0.02994347,1.04819
106.189,13.09805,1.04916,-0.03111868,1.04789
106.789,13.1182,1.04996,-0.0312519,1.04759
107.389,13.1385,1.05223,-0.03125461,1.04729
107.989,13.15874,1.05696,-0.03068733,1.04699
108.589,13.1789,1.06204,-0.0316332,1.04668
109.189,13.1989,1.06627,-0.03126266,1.04638
109.789,13.219,1.07091,-0.03125995,1.04608
110.389,13.23911,1.07296,-0.03125996,1.04578
110.989,13.2593,1.07716,-0.03126177,1.04547
111.589,13.2795,1.08137,-0.03092813,1.04517
112.189,13.2996,1.08351,-0.03223993,1.04487
112.789,13.31967,1.08867,-0.03125518,1.04456
113.389,13.3397,1.09222,-0.03124992,1.04426
113.989,13.3598,1.09563,-0.03124996,1.04396
114.589,13.37985,1.09962,-0.03125179,1.04365
115.189,13.4,1.102,-0.03256843,1.04335
115.789,13.42,1.10766,-0.03256998,1.04304
116.389,13.44005,1.11003,-0.03257,1.04273
116.989,13.46006,1.11309,-0.03257,1.04243
117.589,13.48008,1.11767,-0.03257039,1.04212
118.189,13.5001,1.12315,-0.0315731,1.04182
118.789,13.52,1.12696,-0.03126006,1.04151
119.389,13.54001,1.12748,-0.03192076,1.0412
119.989,13.56001,1.13149,-0.03257003,1.04089
120.589,13.58,1.1357,-0.03257,1.04058
121.189,13.59989,1.13986,-0.03257158,1.04028
121.789,13.61979,1.14098,-0.03355671,1.03997
122.389,13.6396,1.14544,-0.03356011,1.03966
122.989,13.65955,1.14812,-0.03356,1.03935
123.589,13.67937,1.15146,-0.03355999,1.03904
124.189,13.69925,1.15561,-0.03356074,1.03873
124.789,13.71907,1.15754,-0.03330443,1.03842
125.389,13.7389,1.16155,-0.03223385,1.03811
125.989,13.75864,1.16305,-0.0322407,1.0378
126.589,13.7784,1.16604,-0.03220911,1.03749
127.189,13.7981,1.17125,-0.03256448,1.03717
127.789,13.8178,1.17727,-0.03257011,1.03686
128.389,13.83756,1.17766,-0.03257037,1.03655
128.989,13.85714,1.18154,-0.03255079,1.03624
129.589,13.8768,1.18666,-0.0337901,1.03592
130.189,13.8964,1.18724,-0.03389133,1.03561
130.789,13.916,1.192,-0.03388998,1.0353
131.389,13.93574,1.19416,-0.03389,1.03498
131.989,13.9554,1.19731,-0.03388994,1.03467
132.589,13.975,1.2039,-0.03389256,1.03435
133.189,13.99451,1.2055,-0.03432689,1.03404
133.789,14.0139,1.20989,-0.0351976,1.03372
134.389,14.0334,1.21184,-0.03520057,1.03341
134.989,14.05287,1.21701,-0.0341955,1.03309
135.589,14.0723,1.21872,-0.03520428,1.03278
136.189,14.0918,1.22288,-0.03519987,1.03246
136.789,14.1113,1.22539,-0.0352,1.03214
137.389,14.13081,1.2295,-0.0352,1.03183
137.989,14.15032,1.23181,-0.0352,1.03151
138.589,14.1698,1.23462,-0.0352,1.03119
139.189,14.1892,1.23974,-0.03520001,1.03087
139.789,14.20846,1.2445,-0.03519948,1.03055
140.389,14.22781,1.2482,-0.03521658,1.03023
140.989,14.24709,1.25029,-0.03387302,1.02992
141.589,14.2664,1.25299,-0.03419587,1.0296
142.189,14.2856,1.25635,-0.03521544,1.02928
142.789,14.3049,1.26039,-0.0352098,1.02896
143.389,14.32412,1.26384,-0.03521,1.02864
143.989,14.34339,1.26743,-0.03521,1.02832
144.589,14.36265,1.27188,-0.03521,1.028
145.189,14.38194,1.27349,-0.03521,1.02767
145.789,14.40116,1.27735,-0.03521,1.02735
146.389,14.42029,1.27922,-0.03521003,1.02703
146.989,14.43946,1.28307,-0.03521212,1.02671
147.589,14.4586,1.28467,-0.03606429,1.02639
148.189,14.4776,1.29011,-0.03651623,1.02606
148.789,14.4967,1.29514,-0.03652009,1.02574
149.389,14.51588,1.29794,-0.03652,1.02542
149.989,14.53488,1.29948,-0.03651999,1.02509
150.589,14.5541,1.30396,-0.03652029,1.02477
151.189,14.57315,1.30605,-0.03652292,1.02445
151.789,14.5922,1.30708,-0.03522511,1.02412
152.389,14.61125,1.31323,-0.03519914,1.0238
152.989,14.6303,1.31483,-0.03520002,1.02347
153.589,14.6494,1.31966,-0.0352,1.02315
154.189,14.6684,1.3233,-0.03519999,1.02282
154.789,14.6874,1.32523,-0.03520021,1.0225
155.389,14.7064,1.32902,-0.03520263,1.02217
155.989,14.7254,1.33062,-0.03644688,1.02184
156.589,14.74441,1.33706,-0.03652253,1.02152
157.189,14.7634,1.33693,-0.03651993,1.02119
157.789,14.7824,1.34034,-0.03652,1.02086
158.389,14.80135,1.34471,-0.03652,1.02053
158.989,14.82032,1.34906,-0.03652,1.02021
159.589,14.83915,1.35241,-0.03652,1.01988
160.189,14.85803,1.35252,-0.03652,1.01955
160.789,14.87694,1.3584,-0.03652,1.01922
161.389,14.89582,1.35957,-0.03652,1.01889
161.989,14.91485,1.36169,-0.03652,1.01856
162.589,14.9338,1.36545,-0.03651997,1.01823
163.189,14.9528,1.37018,-0.03651062,1.0179
163.789,14.97165,1.37258,-0.03650996,1.01757
164.389,14.9905,1.37635,-0.03651009,1.01724
164.989,15.00935,1.37818,-0.03650618,1.01691
165.589,15.02815,1.37929,-0.03605191,1.01658
166.189,15.047,1.3844,-0.03520802,1.01625
166.789,15.06582,1.38861,-0.03650263,1.01592
167.389,15.0847,1.38982,-0.0365208,1.01558
167.989,15.10351,1.39191,-0.03651998,1.01525
168.589,15.1222,1.39454,-0.03652,1.01492
169.189,15.1411,1.39665,-0.03652,1.01459
169.789,15.15983,1.40101,-0.03652,1.01425
170.389,15.17865,1.40283,-0.03651993,1.01392
170.989,15.1975,1.4033,-0.03652482,1.01359
171.589,15.21625,1.40677,-0.03714824,1.01325
172.189,15.23499,1.41142,-0.03869864,1.01292
172.789,15.2537,1.41414,-0.03915112,1.01258
173.389,15.27245,1.41527,-0.03914698,1.01225
173.989,15.29119,1.41716,-0.03838729,1.01191
174.589,15.30991,1.41921,-0.03777975,1.01158
175.189,15.32862,1.42355,-0.03611832,1.01124
175.789,15.34736,1.42472,-0.03618991,1.01091
176.389,15.36604,1.42796,-0.03591581,1.01057
176.989,15.38468,1.43126,-0.03515991,1.01024
177.589,15.4033,1.43587,-0.03656914,1.0099
178.189,15.42185,1.43638,-0.03651829,1.00956
178.789,15.44046,1.44029,-0.03652879,1.00922
179.389,15.45909,1.44376,-0.03782071,1.00889
179.989,15.4777,1.44604,-0.03784096,1.00855
180.589,15.4963,1.44955,-0.0378402,1.00821
181.189,15.51485,1.44918,-0.03783384,1.00787
181.789,15.5334,1.45342,-0.03717294,1.00754
182.389,15.5519,1.45553,-0.03652604,1.0072
182.989,15.57032,1.45772,-0.03652478,1.00686
183.589,15.5888,1.45945,-0.03705394,1.00652
184.189,15.60724,1.46265,-0.03783776,1.00618
184.789,15.6258,1.46504,-0.03783991,1.00584
185.389,15.6443,1.46449,-0.03784001,1.0055
185.989,15.6627,1.46853,-0.03784,1.00516
186.589,15.6812,1.46856,-0.03784,1.00482
187.189,15.6996,1.47238,-0.03784,1.00448
187.789,15.7181,1.47468,-0.03784,1.00413
188.389,15.73657,1.47742,-0.03784006,1.00379
188.989,15.75501,1.48132,-0.0378382,1.00345
189.589,15.7735,1.48162,-0.03784791,1.00311
190.189,15.79186,1.48494,-0.0391727,1.00277
190.789,15.8103,1.48623,-0.0391491,1.00243
191.389,15.8286,1.48796,-0.03915002,1.00208
191.989,15.84692,1.49346,-0.03915001,1.00174
192.589,15.86527,1.49742,-0.03915112,1.0014
193.189,15.8836,1.49814,-0.03902754,1.00105
193.789,15.902,1.50059,-0.03781189,1.00071
194.389,15.92036,1.5022,-0.03782998,1.00036
194.989,15.93875,1.50387,-0.03781525,1.00002
195.589,15.95708,1.50884,-0.03710926,0.99968
196.189,15.9754,1.51104,-0.03717133,0.99933
196.789,15.9938,1.51371,-0.03716999,0.99899
197.389,16.01209,1.51481,-0.03717,0.99864
197.989,16.03037,1.51818,-0.03717,0.9983
198.589,16.04865,1.5205,-0.03717,0.99795
199.189,16.06693,1.52402,-0.03717,0.9976
199.789,16.08521,1.52905,-0.03717,0.99726
200.389,16.10356,1.53015,-0.03717001,0.99691
200.989,16.12187,1.53204,-0.03716985,0.99656
201.589,16.14014,1.53538,-0.03717048,0.99622
202.189,16.15843,1.53907,-0.03763572,0.99587
202.789,16.17662,1.54193,-0.03847692,0.99552
203.389,16.19487,1.54488,-0.03849023,0.99517
203.989,16.21315,1.54846,-0.03849,0.99483
204.589,16.23141,1.54985,-0.03849,0.99448
205.189,16.24954,1.55487,-0.03849,0.99413
205.789,16.26785,1.55816,-0.03849,0.99378
206.389,16.28614,1.55985,-0.03849,0.99343
206.989,16.3044,1.56334,-0.03849,0.99308
207.589,16.32284,1.56834,-0.03849,0.99273
208.189,16.3411,1.57198,-0.03849,0.99238
208.789,16.35931,1.57521,-0.03849,0.99203
209.389,16.37758,1.57993,-0.03849,0.99168
209.989,16.39585,1.58237,-0.03849,0.99133
210.589,16.41411,1.58554,-0.03849,0.99098
211.189,16.43242,1.59128,-0.0384898,0.99063
211.789,16.45068,1.59419,-0.03850648,0.99028
212.389,16.46892,1.59746,-0.03745046,0.98993
212.989,16.48718,1.60022,-0.03751046,0.98958
213.589,16.50534,1.60387,-0.03751003,0.98922
214.189,16.52347,1.60726,-0.03751,0.98887
214.789,16.54168,1.61324,-0.03751,0.98852
215.389,16.55988,1.61628,-0.03751,0.98817
215.989,16.57807,1.61863,-0.03751,0.98781
216.589,16.5964,1.62509,-0.03751,0.98746
217.189,16.61465,1.63106,-0.03751,0.98711
217.789,16.63287,1.63465,-0.03751,0.98675
218.389,16.65113,1.63956,-0.03751,0.9864
218.989,16.6693,1.64274,-0.03751,0.98604
219.589,16.6875,1.64831,-0.03751,0.98569
220.189,16.70572,1.65374,-0.03750999,0.98534
220.789,16.72392,1.65829,-0.03751118,0.98498
221.389,16.74211,1.66478,-0.03747093,0.98463
221.989,16.76034,1.66992,-0.03850459,0.98427
222.589,16.77855,1.67619,-0.03850051,0.98391
223.189,16.7968,1.68143,-0.03849981,0.98356
223.789,16.815,1.68484,-0.0385047,0.9832
224.389,16.83318,1.69173,-0.03882518,0.98285
224.989,16.85142,1.69785,-0.03883147,0.98249
225.589,16.86955,1.70534,-0.03882995,0.98213
226.189,16.8877,1.70931,-0.03883,0.98178
226.789,16.90588,1.71391,-0.03883,0.98142
227.389,16.92406,1.72358,-0.03883,0.98106
227.989,16.94228,1.72965,-0.03883,0.9807
228.589,16.96055,1.73453,-0.03883,0.98035
229.189,16.97877,1.74164,-0.03883,0.97999
229.789,16.99696,1.74905,-0.03882999,0.97963
230.389,17.01517,1.756,-0.03883038,0.97927
230.989,17.03335,1.76398,-0.03882986,0.97891
231.589,17.05157,1.76877,-0.03917868,0.97855
232.189,17.0698,1.77681,-0.03915934,0.9782
232.789,17.08794,1.78488,-0.03916001,0.97784
233.389,17.10606,1.79203,-0.03916,0.97748
233.989,17.12421,1.79875,-0.03916,0.97712
234.589,17.14234,1.80858,-0.03916,0.97676
235.189,17.1605,1.81703,-0.03916,0.9764
235.789,17.17866,1.82488,-0.03916,0.97604
236.389,17.19665,1.83382,-0.03916,0.97567
236.989,17.21485,1.84291,-0.03916,0.97531
237.589,17.23302,1.85476,-0.03916,0.97495
238.189,17.2513,1.86605,-0.03916,0.97459
238.789,17.26961,1.87584,-0.03916,0.97423
239.389,17.28779,1.88891,-0.03916,0.97387
239.989,17.30592,1.89961,-0.03916,0.97351
240.589,17.3241,1.90974,-0.03916,0.97314
241.189,17.34226,1.92247,-0.03916,0.97278
241.789,17.3604,1.93831,-0.03916,0.97242
242.389,17.3786,1.95291,-0.03916,0.97205
242.989,17.39678,1.97067,-0.03916,0.97169
243.589,17.41491,1.98522,-0.03916,0.97133
244.189,17.43306,2.00729,-0.03916,0.97096
244.789,17.45123,2.02952,-0.03916,0.9706
245.389,17.46935,2.05331,-0.03916,0.97024
245.989,17.48749,2.08318,-0.03916,0.96987
246.589,17.50565,2.11343,-0.03916,0.96951
247.189,17.52382,2.15356,-0.03916,0.96914
247.789,17.542,2.19611,-0.03916,0.96878
248.389,17.56022,2.24272,-0.03916,0.96841
248.989,17.57835,2.29793,-0.03916,0.96805
249.589,17.5965,2.35583,-0.03916,0.96768
250.189,17.61469,2.41538,-0.03916,0.96732
250.789,17.63289,2.48115,-0.03915997,0.96695
251.389,17.65117,2.54836,-0.03916409,0.96658
251.989,17.66943,2.6249,-0.03977762,0.96622
252.589,17.68771,2.70093,-0.04014305,0.96585
253.189,17.70594,2.78556,-0.04014006,0.96549
253.789,17.72411,2.87363,-0.04013999,0.96512
254.389,17.74235,2.96607,-0.04014,0.96475
254.989,17.76059,3.06054,-0.04014,0.96438
255.589,17.77886,3.16313,-0.04014,0.96402
256.189,17.79721,3.26827,-0.04014,0.96365
256.789,17.8155,3.38038,-0.04014,0.96328
257.389,17.83375,3.49234,-0.04014,0.96291
257.989,17.85209,3.60763,-0.04014,0.96254
258.589,17.87041,3.72354,-0.04014,0.96217
259.189,17.88875,3.84248,-0.04014,0.96181
259.789,17.90719,3.9605,-0.04014,0.96144
260.389,17.92553,4.06746,-0.04014,0.96107
260.989,17.94389,4.13725,-0.04014,0.9607
261.589,17.96219,4.13082,-0.04014,0.96033
262.189,17.98045,4.01672,-0.04014,0.95996
262.789,17.99875,3.81292,-0.04014,0.95959
263.389,18.01706,3.58087,-0.04014,0.95922
263.989,18.03531,3.36791,-0.04014,0.95885
264.589,18.0535,3.17893,-0.04014,0.95848
265.189,18.07175,3.0118,-0.04013977,0.95811
265.789,18.08985,2.86641,-0.04015259,0.95774
266.389,18.10799,2.73668,-0.0409647,0.95736
266.989,18.12614,2.62239,-0.04145802,0.95699
267.589,18.14419,2.52114,-0.0414602,0.95662
268.189,18.16228,2.43223,-0.04145999,0.95625
268.789,18.1803,2.35232,-0.04146,0.95588
269.389,18.1983,2.28024,-0.04145993,0.9555
269.989,18.21633,2.2188,-0.04146324,0.95513
270.589,18.23432,2.164,-0.04140331,0.95476
271.189,18.25231,2.11371,-0.04012471,0.95439
271.789,18.27024,2.06735,-0.04014089,0.95401
272.389,18.28824,2.03165,-0.04013994,0.95364
272.989,18.30624,1.99345,-0.04013954,0.95327
273.589,18.32424,1.96527,-0.04029592,0.95289
274.189,18.3423,1.93625,-0.04147917,0.95252
274.789,18.3603,1.91322,-0.04145991,0.95215
275.389,18.3783,1.88969,-0.04145999,0.95177
275.989,18.39633,1.86952,-0.04146,0.9514
276.589,18.41435,1.85091,-0.04146,0.95102
277.189,18.43233,1.83575,-0.04146,0.95065
277.789,18.45036,1.82303,-0.04146,0.95027
278.389,18.46839,1.81169,-0.04146,0.9499
278.989,18.48637,1.79793,-0.04146,0.94952
279.589,18.50441,1.79039,-0.04146,0.94915
280.189,18.52238,1.78259,-0.04145999,0.94877
280.789,18.5404,1.77378,-0.04146006,0.94839
281.389,18.55838,1.77001,-0.04146731,0.94802
281.989,18.57641,1.76237,-0.04191547,0.94764
282.589,18.59444,1.7584,-0.0431132,0.94727
283.189,18.61244,1.75507,-0.04310079,0.94689
283.789,18.6305,1.74873,-0.0430617,0.94651
284.389,18.64857,1.74583,-0.04351028,0.94613
284.989,18.66667,1.74211,-0.04409009,0.94576
285.589,18.68476,1.74125,-0.04409157,0.94538
286.189,18.70286,1.7392,-0.04408996,0.945
286.789,18.72094,1.73633,-0.04408973,0.94462
287.389,18.73905,1.73542,-0.04408098,0.94425
287.989,18.75721,1.73469,-0.04297818,0.94387
288.589,18.77529,1.73283,-0.04276642,0.94349
289.189,18.79339,1.73092,-0.04277001,0.94311
289.789,18.8114,1.72983,-0.04277487,0.94273
290.389,18.8294,1.72983,-0.04250946,0.94235
290.989,18.84747,1.72858,-0.0421071,0.94197
291.589,18.86555,1.72791,-0.04210952,0.9416
292.189,18.88368,1.72896,-0.04213548,0.94122
292.789,18.90179,1.73095,-0.04143659,0.94084
293.389,18.9199,1.72888,-0.04145992,0.94046
293.989,18.93802,1.72559,-0.04147839,0.94008
294.589,18.95609,1.7288,-0.0421913,0.9397
295.189,18.97416,1.72595,-0.0421192,0.93932
295.789,18.99224,1.72755,-0.04211999,0.93893
296.389,19.01033,1.72841,-0.04211874,0.93855
296.989,19.02844,1.72783,-0.04216179,0.93817
297.589,19.0466,1.72789,-0.04342836,0.93779
298.189,19.06478,1.7295,-0.04343077,0.93741
298.789,19.08285,1.72952,-0.04342999,0.93703
299.389,19.10097,1.73051,-0.04342973,0.93665
299.989,19.1191,1.73011,-0.04342125,0.93627
300.589,19.13721,1.73138,-0.04232466,0.93588
301.189,19.15535,1.73325,-0.04211648,0.9355
301.789,19.1735,1.73121,-0.04212,0.93512
302.389,19.19163,1.73228,-0.04211672,0.93474
302.989,19.20973,1.73288,-0.04235113,0.93435
303.589,19.22794,1.73191,-0.04342599,0.93397
304.189,19.2461,1.7328,-0.04404954,0.93359
304.789,19.26425,1.73479,-0.04409375,0.9332
305.389,19.2824,1.73545,-0.04408987,0.93282
305.989,19.30047,1.73413,-0.04409023,0.93244
306.589,19.31866,1.73574,-0.0441108,0.93205
307.189,19.33677,1.73875,-0.04340652,0.93167
307.789,19.35492,1.73768,-0.04343044,0.93129
308.389,19.37312,1.73946,-0.04343,0.9309
308.989,19.39125,1.73704,-0.04343,0.93052
309.589,19.40945,1.7385,-0.04343006,0.93013
310.189,19.42764,1.74034,-0.04342898,0.92975
310.789,19.44582,1.73926,-0.04339906,0.92936
311.389,19.464,1.74113,-0.04479081,0.92898
311.989,19.48217,1.74198,-0.04474901,0.92859
312.589,19.50028,1.74399,-0.04475001,0.92821
313.189,19.51838,1.74563,-0.04475,0.92782
313.789,19.53653,1.74593,-0.04475,0.92743
314.389,19.5547,1.74579,-0.04475,0.92705
314.989,19.5729,1.74489,-0.04475,0.92666
315.589,19.59112,1.74693,-0.04475,0.92628
316.189,19.60926,1.74805,-0.04475,0.92589
316.789,19.6274,1.74843,-0.04475,0.9255
317.389,19.64568,1.74985,-0.04475006,0.92512
317.989,19.66389,1.74967,-0.04474501,0.92473
318.589,19.6821,1.75063,-0.04493903,0.92434
319.189,19.70036,1.75333,-0.04540144,0.92395
319.789,19.7185,1.75243,-0.04540016,0.92357
320.389,19.73666,1.75572,-0.04539999,0.92318
320.989,19.75483,1.75397,-0.0454,0.92279
321.589,19.77299,1.75592,-0.0454,0.9224
322.189,19.79116,1.75723,-0.0454,0.92201
322.789,19.80937,1.75794,-0.04539999,0.92163
323.389,19.8276,1.75933,-0.04540027,0.92124
323.989,19.8458,1.75986,-0.04540863,0.92085
324.589,19.86402,1.7606,-0.04652612,0.92046
325.189,19.8822,1.7608,-0.04672368,0.92007
325.789,19.9004,1.764,-0.04671998,0.91968
326.389,19.91873,1.76726,-0.04672008,0.91929
326.989,19.93696,1.76646,-0.04671503,0.9189
327.589,19.95522,1.76627,-0.04688532,0.91851
328.189,19.97343,1.76861,-0.04738041,0.91812
328.789,19.99162,1.76916,-0.04738019,0.91773
329.389,20.00984,1.76795,-0.04737999,0.91734
329.989,20.02806,1.77139,-0.04738,0.91695
330.589,20.0463,1.77216,-0.04738,0.91656
331.189,20.06459,1.77317,-0.04737999,0.91617
331.789,20.08288,1.77425,-0.04738032,0.91578
332.389,20.10119,1.77739,-0.04737333,0.91539
332.989,20.1195,1.77817,-0.04831635,0.915
333.589,20.13774,1.77663,-0.04868652,0.91461
334.189,20.15598,1.77974,-0.0486901,0.91422
334.789,20.17424,1.78182,-0.04869,0.91382
335.389,20.19249,1.78382,-0.04869,0.91343
335.989,20.21078,1.78504,-0.04869,0.91304
336.589,20.22909,1.78707,-0.04869,0.91265
337.189,20.2474,1.78723,-0.04869,0.91226
337.789,20.2657,1.78965,-0.04869,0.91186
338.389,20.28385,1.79298,-0.04869,0.91147
338.989,20.30205,1.79263,-0.04869,0.91108
339.589,20.32029,1.79512,-0.04869,0.91069
340.189,20.3386,1.79744,-0.04869,0.91029
340.789,20.3571,1.79931,-0.04869,0.9099
341.389,20.37546,1.8001,-0.04869,0.90951
341.989,20.3938,1.8029,-0.04869,0.90911
342.589,20.41212,1.80647,-0.04868998,0.90872
343.189,20.43039,1.80769,-0.04869098,0.90832
343.789,20.44866,1.81106,-0.0486591,0.90793
344.389,20.46694,1.81256,-0.05002154,0.90754
344.989,20.48522,1.81339,-0.0500116,0.90714
345.589,20.50355,1.81751,-0.05000992,0.90675
346.189,20.5219,1.81839,-0.05001045,0.90635
346.789,20.54022,1.81988,-0.05000777,0.90596
347.389,20.5585,1.81997,-0.05029454,0.90556
347.989,20.57687,1.82234,-0.05106656,0.90517
348.589,20.59518,1.82357,-0.05265927,0.90477
349.189,20.61352,1.82501,-0.05264997,0.90438
349.789,20.6319,1.82624,-0.05265,0.90398
350.389,20.65022,1.82983,-0.05265,0.90359
350.989,20.66866,1.83332,-0.05265,0.90319
351.589,20.68701,1.83392,-0.05265003,0.90279
352.189,20.70534,1.83733,-0.05265392,0.9024
352.789,20.7237,1.83899,-0.05333792,0.902
353.389,20.74203,1.84007,-0.05395514,0.90161
353.989,20.76044,1.84247,-0.05396003,0.90121
354.589,20.77885,1.84622,-0.05396,0.90081
355.189,20.79721,1.84668,-0.05396,0.90042
355.789,20.81561,1.84737,-0.05396,0.90002
356.389,20.83396,1.84976,-0.05396,0.89962
356.989,20.8523,1.85103,-0.05396,0.89922
357.589,20.8708,1.85241,-0.05395999,0.89883
358.189,20.8892,1.8541,-0.05396028,0.89843
358.789,20.90771,1.85594,-0.0539543,0.89803
359.389,20.92612,1.8551,-0.0549011,0.89763
359.989,20.94445,1.85773,-0.0552766,0.89724
360.589,20.96279,1.85776,-0.05528016,0.89684
361.189,20.98115,1.85891,-0.05527876,0.89644
361.789,20.99953,1.86092,-0.05526089,0.89604
362.389,21.01793,1.8616,-0.05662178,0.89564
362.989,21.0364,1.86087,-0.05658907,0.89524
363.589,21.05476,1.8624,-0.05658944,0.89484
364.189,21.0732,1.86194,-0.05658748,0.89445
364.789,21.09161,1.86277,-0.05786786,0.89405
365.389,21.1101,1.86426,-0.05791124,0.89365
365.989,21.12856,1.86328,-0.05790997,0.89325
366.589,21.14701,1.86251,-0.05791003,0.89285
367.189,21.16545,1.86229,-0.05791389,0.89245
367.789,21.18383,1.86314,-0.05862276,0.89205
368.389,21.20223,1.86081,-0.05922461,0.89165
368.989,21.2207,1.85475,-0.05996352,0.89125
369.589,21.23909,1.84644,-0.06053585,0.89085
370.189,21.25751,1.84119,-0.0605914,0.89045
370.789,21.27597,1.83435,-0.05917804,0.89005
371.389,21.2944,1.8268,-0.0592247,0.88964
371.989,21.3129,1.8195,-0.06017196,0.88924
372.589,21.33139,1.81483,-0.06053697,0.88884
373.189,21.34989,1.80892,-0.0605397,0.88844
373.789,21.36841,1.80418,-0.06055764,0.88804
374.389,21.3869,1.79953,-0.06329415,0.88764
374.989,21.40536,1.79555,-0.06328306,0.88724
375.589,21.4238,1.79279,-0.06322875,0.88684
376.189,21.44225,1.79152,-0.0646405,0.88643
376.789,21.46076,1.78719,-0.06458946,0.88603
377.389,21.47919,1.78497,-0.06459002,0.88563
377.989,21.49769,1.78734,-0.06458631,0.88523
378.589,21.5162,1.78814,-0.0648044,0.88482
379.189,21.53471,1.7908,-0.0658985,0.88442
379.789,21.55329,1.79286,-0.06590986,0.88402
380.389,21.57185,1.79428,-0.06638587,0.88362
380.989,21.59036,1.79782,-0.06721723,0.88321
381.589,21.60889,1.80357,-0.06725665,0.88281
382.189,21.62736,1.81278,-0.0673054,0.88241
382.789,21.6457,1.81522,-0.06822444,0.882
383.389,21.66425,1.8275,-0.06837643,0.8816
383.989,21.68277,1.83585,-0.0695592,0.8812
384.589,21.70134,1.84756,-0.06953215,0.88079
385.189,21.72006,1.85864,-0.07053508,0.88039
385.789,21.7386,1.8667,-0.0708578,0.87998
386.389,21.75711,1.87731,-0.07086486,0.87958
386.989,21.7757,1.88939,-0.07140723,0.87917
387.589,21.79431,1.89803,-0.07216528,0.87877
388.189,21.81295,1.91019,-0.07214865,0.87837
388.789,21.8315,1.92264,-0.0727674,0.87796
389.389,21.8501,1.93497,-0.07472048,0.87756
389.989,21.86865,1.94616,-0.07480392,0.87715
390.589,21.88726,1.95334,-0.07518293,0.87675
391.189,21.90586,1.96351,-0.07611673,0.87634
391.789,21.92455,1.97671,-0.07696326,0.87593
392.389,21.9432,1.98541,-0.07773574,0.87553
392.989,21.96179,1.99271,-0.07920733,0.87512
393.589,21.98049,2.00229,-0.08033195,0.87472
394.189,21.9992,2.01294,-0.0809787,0.87431
394.789,22.018,2.01931,-0.08227348,0.8739
395.389,22.03673,2.02297,-0.08252997,0.8735
395.989,22.05545,2.02974,-0.08356442,0.87309
396.589,22.0742,2.03431,-0.08435965,0.87269
397.189,22.09287,2.04084,-0.08539695,0.87228
397.789,22.11159,2.04864,-0.08672036,0.87187
398.389,22.13032,2.05658,-0.08858757,0.87147
398.989,22.14902,2.06141,-0.08913029,0.87106
399.589,22.1677,2.07036,-0.09014155,0.87065
400.189,22.18644,2.07929,-0.09133272,0.87024
400.789,22.20516,2.08755,-0.09200469,0.86984
401.389,22.22391,2.09811,-0.09334711,0.86943
401.989,22.24271,2.10773,-0.09468513,0.86902
402.589,22.26149,2.12048,-0.09575948,0.86861
403.189,22.28023,2.13486,-0.09676234,0.8682
403.789,22.29879,2.15133,-0.09792064,0.8678
404.389,22.3173,2.16858,-0.10008,0.86739
404.989,22.336,2.18914,-0.10153,0.86698
405.589,22.3548,2.20748,-0.10285,0.86657
406.189,22.3737,2.22953,-0.10461,0.86616
406.789,22.3927,2.25635,-0.10657,0.86575
407.389,22.41146,2.28352,-0.10857,0.86535
407.989,22.4302,2.31048,-0.11039,0.86494
408.589,22.44895,2.3427,-0.11211,0.86453
409.189,22.46774,2.37545,-0.11391,0.86412
409.789,22.48651,2.40689,-0.11658,0.86371
410.389,22.50539,2.43935,-0.11887,0.8633
410.989,22.52424,2.46721,-0.12153,0.86289
411.589,22.54305,2.498,-0.12438,0.86248
412.189,22.56191,2.53101,-0.12712,0.86207
412.789,22.58075,2.56511,-0.13028,0.86166
413.389,22.59966,2.59644,-0.13257,0.86125
413.989,22.61854,2.63422,-0.13545,0.86084
414.589,22.63736,2.67032,-0.13852,0.86043
415.189,22.65615,2.70504,-0.14201,0.86002
415.789,22.675,2.74792,-0.14594,0.85961
416.389,22.6938,2.78315,-0.14984,0.8592
416.989,22.71268,2.82791,-0.15429,0.85879
417.589,22.73156,2.88166,-0.15841,0.85837
418.189,22.75038,2.9204,-0.16287,0.85796
418.789,22.7693,2.96264,-0.16785,0.85755
419.389,22.78811,3.0058,-0.17315,0.85714
419.989,22.80697,3.06396,-0.17865,0.85673
420.589,22.82582,3.11335,-0.18424,0.85632
421.189,22.8446,3.15477,-0.18989,0.85591
421.789,22.86352,3.19832,-0.1955,0.85549
422.389,22.8824,3.23614,-0.20154,0.85508
422.989,22.9013,3.28224,-0.20784,0.85467
423.589,22.92031,3.33156,-0.21388,0.85426
424.189,22.9392,3.38757,-0.22101,0.85384
424.789,22.9582,3.43472,-0.22883,0.85343
425.389,22.97714,3.48472,-0.23695,0.85302
425.989,22.99611,3.53967,-0.24524,0.85261
426.589,23.01505,3.59392,-0.25347,0.85219
427.189,23.03394,3.65059,-0.26176,0.85178
427.789,23.0528,3.70497,-0.27055,0.85137
428.389,23.07166,3.76214,-0.28014,0.85095
428.989,23.09062,3.81799,-0.28982,0.85054
429.589,23.10954,3.8697,-0.29975,0.85013
430.189,23.12849,3.92272,-0.31094,0.84971
430.789,23.14746,3.98203,-0.32163,0.8493
431.389,23.16637,4.03931,-0.3339,0.84889
431.989,23.1854,4.08728,-0.34529,0.84847
432.589,23.20435,4.14478,-0.35649,0.84806
433.189,23.22335,4.19949,-0.36791,0.84764
433.789,23.24236,4.25563,-0.38043,0.84723
434.389,23.2613,4.31335,-0.39383,0.84682
434.989,23.28033,4.36655,-0.40749,0.8464
435.589,23.29929,4.42531,-0.42165,0.84599
436.189,23.3183,4.47391,-0.4357,0.84557
436.789,23.3373,4.53442,-0.45046,0.84516
437.389,23.3564,4.59055,-0.46583,0.84474
437.989,23.3754,4.64519,-0.48144,0.84433
438.589,23.39445,4.70208,-0.49782,0.84391
439.189,23.4134,4.75635,-0.51428,0.8435
439.789,23.43246,4.80621,-0.53138,0.84308
440.389,23.4515,4.86198,-0.54872,0.84266
440.989,23.4706,4.91323,-0.56712,0.84225
441.589,23.48967,4.96416,-0.58555,0.84183
442.189,23.50871,5.01866,-0.60437,0.84142
442.789,23.52776,5.0704,-0.62378,0.841
443.389,23.54683,5.12443,-0.64325,0.84058
443.989,23.56587,5.17881,-0.66361,0.84017
444.589,23.58496,5.22785,-0.68393,0.83975
445.189,23.60405,5.27221,-0.70484,0.83934
445.789,23.62313,5.32361,-0.72629,0.83892
446.389,23.6422,5.37031,-0.75013,0.8385
446.989,23.6613,5.41914,-0.77371,0.83808
447.589,23.6803,5.46372,-0.79658,0.83767
448.189,23.6994,5.50921,-0.82031,0.83725
448.789,23.7184,5.551,-0.84412,0.83683
449.389,23.73745,5.59467,-0.86881,0.83642
449.989,23.7565,5.63626,-0.89347,0.836
450.589,23.7756,5.67498,-0.91866,0.83558
451.189,23.79469,5.71724,-0.94443,0.83516
451.789,23.81375,5.74404,-0.9702,0.83475
452.389,23.83286,5.78103,-0.99705,0.83433
452.989,23.85195,5.81526,-1.02383,0.83391
453.589,23.87108,5.84317,-1.05178,0.83349
454.189,23.89014,5.87038,-1.07955,0.83307
454.789,23.90922,5.90247,-1.1074,0.83265
455.389,23.9283,5.92948,-1.136,0.83224
455.989,23.94739,5.95476,-1.16478,0.83182
456.589,23.9665,5.97609,-1.1953,0.8314
457.189,23.9856,5.99696,-1.22529,0.83098
457.789,24.00471,6.01933,-1.25598,0.83056
458.389,24.0239,6.03537,-1.28625,0.83014
458.989,24.04288,6.05682,-1.31662,0.82972
459.589,24.062,6.06989,-1.34715,0.8293
460.189,24.081,6.09829,-1.37798,0.82888
460.789,24.10012,6.10995,-1.41066,0.82847
461.389,24.11926,6.11162,-1.44339,0.82805
461.989,24.1384,6.11887,-1.47706,0.82763
462.589,24.15747,6.12424,-1.50988,0.82721
463.189,24.17657,6.13597,-1.5436,0.82679
463.789,24.19569,6.14358,-1.57738,0.82637
464.389,24.2148,6.14805,-1.61082,0.82595
464.989,24.23387,6.15821,-1.64468,0.82553
465.589,24.25291,6.15647,-1.67821,0.82511
466.189,24.272,6.15134,-1.71333,0.82468
466.789,24.29097,6.15272,-1.74789,0.82426
467.389,24.31014,6.15146,-1.78323,0.82384
467.989,24.3293,6.14766,-1.81887,0.82342
468.589,24.3485,6.139,-1.85502,0.823
469.189,24.36765,6.13254,-1.89196,0.82258
469.789,24.3868,6.13177,-1.92795,0.82216
470.389,24.4059,6.13157,-1.96474,0.82174
470.989,24.4249,6.13508,-2.00102,0.82132
471.589,24.444,6.13518,-2.0385,0.8209
472.189,24.46303,6.13267,-2.07615,0.82047
472.789,24.48214,6.13639,-2.11409,0.82005
473.389,24.50124,6.12603,-2.15249,0.81963
473.989,24.5203,6.13016,-2.1903,0.81921
474.589,24.53943,6.12751,-2.23004,0.81879
475.189,24.55849,6.13562,-2.26917,0.81836
475.789,24.57767,6.1261,-2.30909,0.81794
476.389,24.5968,6.11878,-2.34869,0.81752
476.989,24.61595,6.115,-2.38914,0.8171
477.589,24.63505,6.10611,-2.4303,0.81668
478.189,24.65417,6.08911,-2.47097,0.81625
478.789,24.67333,6.06903,-2.51289,0.81583
479.389,24.6924,6.04708,-2.55359,0.81541
479.989,24.7116,6.0219,-2.59524,0.81498
480.589,24.73066,5.99562,-2.6364,0.81456
481.189,24.74975,5.96282,-2.6781,0.81414
481.789,24.76888,5.9259,-2.71972,0.81371
482.389,24.78797,5.88554,-2.76082,0.81329
482.989,24.80707,5.8357,-2.80291,0.81287
483.589,24.82615,5.78509,-2.84372,0.81244
484.189,24.84524,5.72639,-2.88513,0.81202
484.789,24.8643,5.66471,-2.92578,0.8116
485.389,24.8834,5.59356,-2.96639,0.81117
485.989,24.90244,5.51994,-3.00706,0.81075
486.589,24.9215,5.44079,-3.04742,0.81032
487.189,24.94056,5.34916,-3.08781,0.8099
487.789,24.95959,5.25098,-3.12655,0.80948
488.389,24.9786,5.15,-3.16534,0.80905
488.989,24.9976,5.04188,-3.20339,0.80863
489.589,25.01661,4.92756,-3.24067,0.8082
490.189,25.0356,4.80377,-3.27695,0.80778
490.789,25.0546,4.67327,-3.31177,0.80735
491.389,25.0735,4.53958,-3.34811,0.80693
491.989,25.0925,4.39091,-3.38178,0.8065
492.589,25.11141,4.24251,-3.4158,0.80608
493.189,25.1303,4.0838,-3.4483,0.80565
493.789,25.14921,3.92515,-3.47991,0.80523
494.389,25.16814,3.75301,-3.51047,0.8048
494.989,25.187,3.57618,-3.53929,0.80438
495.589,25.20589,3.39653,-3.56706,0.80395
496.189,25.22477,3.21537,-3.59323,0.80353
496.789,25.2436,3.02493,-3.6178,0.8031
497.389,25.2624,2.83759,-3.64117,0.80267
497.989,25.28125,2.64891,-3.66286,0.80225
498.589,25.3001,2.45927,-3.6838,0.80182
499.189,25.3189,2.27512,-3.70283,0.8014
499.789,25.33778,2.09544,-3.72062,0.80097
500.389,25.35665,1.92291,-3.73712,0.80054
500.989,25.37545,1.75843,-3.75227,0.80012
501.589,25.39425,1.60228,-3.76615,0.79969
502.189,25.41304,1.46002,-3.77839,0.79926
502.789,25.43177,1.32268,-3.78903,0.79884
503.389,25.45055,1.1978,-3.79836,0.79841
503.989,25.46934,1.08654,-3.80681,0.79798
504.589,25.4881,0.98807,-3.8143,0.79755
505.189,25.50692,0.89558,-3.82077,0.79713
505.789,25.5257,0.81674,-3.82685,0.7967
506.389,25.54458,0.74275,-3.83254,0.79627
506.989,25.56344,0.67932,-3.8374,0.79585
507.589,25.58233,0.62024,-3.84144,0.79542
508.189,25.60127,0.57175,-3.8449,0.79499
508.789,25.6201,0.5287,-3.84878,0.79456
509.389,25.63896,0.48814,-3.85175,0.79413
509.989,25.65785,0.45412,-3.85391,0.79371
510.589,25.67676,0.42609,-3.85574,0.79328
511.189,25.69567,0.39881,-3.85753,0.79285
511.789,25.71461,0.37786,-3.85924,0.79242
512.389,25.7336,0.35842,-3.86031,0.79199
512.989,25.75255,0.34116,-3.86183,0.79157
513.589,25.7715,0.32525,-3.86357,0.79114
514.189,25.79051,0.31261,-3.86468,0.79071
514.789,25.8095,0.30221,-3.86496,0.79028
515.389,25.82854,0.29109,-3.86667,0.78985
515.989,25.84759,0.28213,-3.86773,0.78942
516.589,25.86656,0.27844,-3.86808,0.78899
517.189,25.88556,0.269,-3.86808,0.78856
517.789,25.90467,0.26323,-3.8681,0.78813
518.389,25.92375,0.25884,-3.8668,0.7877
518.989,25.94286,0.25112,-3.86812,0.78728
519.589,25.96189,0.25141,-3.86806,0.78685
520.189,25.98088,0.24825,-3.86913,0.78642
520.789,25.99994,0.2495,-3.86939,0.78599
521.389,26.019,0.24779,-3.86939,0.78556
521.989,26.03815,0.24914,-3.86939,0.78513
522.589,26.0573,0.24971,-3.86952,0.7847
523.189,26.0764,0.25642,-3.87036,0.78427
523.789,26.0956,0.26366,-3.87039,0.78384
524.389,26.1147,0.26685,-3.87121,0.78341
524.989,26.13385,0.2735,-3.8717,0.78298
525.589,26.15295,0.27825,-3.8717,0.78255
526.189,26.1721,0.2811,-3.87203,0.78211
526.789,26.19121,0.28498,-3.87202,0.78168
527.389,26.21032,0.2888,-3.87232,0.78125
527.989,26.2295,0.2874,-3.87337,0.78082
528.589,26.24861,0.28737,-3.87197,0.78039
529.189,26.2678,0.28964,-3.87202,0.77996
529.789,26.287,0.28907,-3.87202,0.77953
530.389,26.30622,0.28715,-3.87202,0.7791
530.989,26.3255,0.28899,-3.87202,0.77867
531.589,26.34477,0.28969,-3.87196,0.77824
532.189,26.36403,0.28915,-3.87302,0.7778
532.789,26.3832,0.2894,-3.87301,0.77737
533.389,26.40243,0.28983,-3.87301,0.77694
533.989,26.42168,0.29048,-3.87305,0.77651
534.589,26.4409,0.28563,-3.87434,0.77608
535.189,26.46019,0.28272,-3.87433,0.77565
535.789,26.4795,0.28256,-3.87433,0.77521
536.389,26.49868,0.27878,-3.87433,0.77478
536.989,26.518,0.27875,-3.87433,0.77435
537.589,26.53728,0.2772,-3.87433,0.77392
538.189,26.55657,0.27291,-3.87433,0.77348
538.789,26.5759,0.27174,-3.87433,0.77305
539.389,26.59504,0.27019,-3.87433,0.77262
539.989,26.61443,0.26315,-3.87433,0.77219
540.589,26.63376,0.25983,-3.87433,0.77175
541.189,26.6531,0.25702,-3.87433,0.77132
541.789,26.6726,0.2543,-3.8756,0.77089
542.389,26.692,0.24617,-3.87564,0.77046
542.989,26.71135,0.24151,-3.87564,0.77002
543.589,26.73072,0.23708,-3.87564,0.76959
544.189,26.7501,0.23083,-3.87564,0.76916
544.789,26.76949,0.22696,-3.87564,0.76872
545.389,26.7889,0.22278,-3.87565,0.76829
545.989,26.80835,0.2131,-3.87651,0.76786
546.589,26.8278,0.21112,-3.87696,0.76742
547.189,26.84722,0.20464,-3.87696,0.76699
547.789,26.8667,0.20054,-3.87696,0.76655
548.389,26.88615,0.19343,-3.87696,0.76612
548.989,26.90555,0.18858,-3.87669,0.76569
549.589,26.92502,0.18185,-3.87596,0.76525
550.189,26.9444,0.17672,-3.87597,0.76482
550.789,26.96385,0.17319,-3.87597,0.76438
551.389,26.98327,0.17019,-3.87597,0.76395
551.989,27.0027,0.16584,-3.87592,0.76351
552.589,27.0221,0.16298,-3.87699,0.76308
553.189,27.0415,0.15771,-3.87781,0.76265
553.789,27.061,0.15544,-3.87828,0.76221
554.389,27.0805,0.15083,-3.87828,0.76178
554.989,27.1,0.15484,-3.87861,0.76134
555.589,27.11944,0.15128,-3.87861,0.76091
556.189,27.1389,0.14819,-3.87866,0.76047
556.789,27.1584,0.14691,-3.87796,0.76004
557.389,27.17789,0.14729,-3.87795,0.7596
557.989,27.1973,0.14444,-3.87795,0.75917
558.589,27.21677,0.14613,-3.87795,0.75873
559.189,27.23617,0.14685,-3.87801,0.7583
559.789,27.2556,0.14431,-3.87727,0.75786
560.389,27.2751,0.147,-3.87866,0.75742
560.989,27.2946,0.14482,-3.87861,0.75699
561.589,27.314,0.14606,-3.87861,0.75655
562.189,27.3334,0.14578,-3.87861,0.75612
562.789,27.3529,0.14621,-3.87861,0.75568
563.389,27.3725,0.14682,-3.87861,0.75524
563.989,27.39205,0.14737,-3.87861,0.75481
564.589,27.4116,0.14616,-3.87861,0.75437
565.189,27.43103,0.14545,-3.87861,0.75394
565.789,27.45052,0.14459,-3.87861,0.7535
566.389,27.4701,0.14529,-3.87861,0.75306
566.989,27.4896,0.14357,-3.87861,0.75263
567.589,27.5091,0.14476,-3.87861,0.75219
568.189,27.5286,0.14447,-3.87857,0.75175
568.789,27.5481,0.14614,-3.87705,0.75132
569.389,27.5676,0.14848,-3.87707,0.75088
569.989,27.5871,0.14726,-3.87779,0.75044
570.589,27.60659,0.14876,-3.87861,0.75001
571.189,27.6261,0.14738,-3.88001,0.74957
571.789,27.64565,0.14642,-3.88003,0.74913
572.389,27.665,0.14722,-3.88023,0.74869
572.989,27.6845,0.14751,-3.88136,0.74826
573.589,27.70406,0.1449,-3.88135,0.74782
574.189,27.72363,0.14369,-3.88135,0.74738
574.789,27.7433,0.14854,-3.88135,0.74694
575.389,27.76275,0.14961,-3.88135,0.74651
575.989,27.78224,0.14742,-3.88135,0.74607
576.589,27.8018,0.15059,-3.88132,0.74563
577.189,27.8214,0.14952,-3.8827,0.74519
577.789,27.84098,0.14598,-3.88266,0.74476
578.389,27.86055,0.15086,-3.88266,0.74432
578.989,27.88015,0.14765,-3.88266,0.74388
579.589,27.89974,0.14624,-3.88266,0.74344
580.189,27.9193,0.15025,-3.88266,0.743
580.789,27.9389,0.15096,-3.88267,0.74256
581.389,27.95849,0.15139,-3.88362,0.74213
581.989,27.97806,0.15128,-3.88365,0.74169
582.589,27.9976,0.15239,-3.88365,0.74125
583.189,28.01715,0.14903,-3.88365,0.74081
583.789,28.0368,0.15241,-3.88365,0.74037
584.389,28.05647,0.15426,-3.88365,0.73993
584.989,28.0761,0.15354,-3.88365,0.73949
585.589,28.0957,0.15635,-3.88365,0.73905
586.189,28.11528,0.15601,-3.88364,0.73862
586.789,28.13478,0.15345,-3.88281,0.73818
587.389,28.15435,0.15211,-3.88233,0.73774
587.989,28.17391,0.15674,-3.88233,0.7373
588.589,28.19349,0.16027,-3.883,0.73686
589.189,28.2131,0.15723,-3.88299,0.73642
589.789,28.2327,0.16002,-3.88299,0.73598
590.389,28.2524,0.16327,-3.88297,0.73554
590.989,28.272,0.15939,-3.88366,0.7351
591.589,28.29158,0.16192,-3.88365,0.73466
592.189,28.31123,0.16535,-3.88365,0.73422
592.789,28.33085,0.16442,-3.88365,0.73378
593.389,28.3505,0.16827,-3.88365,0.73334
593.989,28.37012,0.17294,-3.88365,0.7329
594.589,28.38969,0.17128,-3.88365,0.73246
595.189,28.40932,0.17016,-3.88365,0.73202
595.789,28.42894,0.17305,-3.88365,0.73158
596.389,28.4486,0.17493,-3.88365,0.73114
596.989,28.4682,0.17685,-3.88365,0.7307
597.589,28.4879,0.17534,-3.88365,0.73026
598.189,28.50753,0.18222,-3.88365,0.72982
598.789,28.5271,0.18011,-3.88468,0.72938
599.389,28.54669,0.18303,-3.88497,0.72894
599.989,28.56628,0.18663,-3.88497,0.7285
600.589,28.58588,0.18791,-3.88497,0.72805
601.189,28.6056,0.18877,-3.88497,0.72761
601.789,28.6253,0.19273,-3.88497,0.72717
602.389,28.645,0.19691,-3.88491,0.72673
602.989,28.66467,0.19978,-3.88562,0.72629
603.589,28.68422,0.19862,-3.88563,0.72585
604.189,28.7038,0.20301,-3.88563,0.72541
604.789,28.7234,0.20689,-3.88563,0.72497
605.389,28.7431,0.21214,-3.88563,0.72452
605.989,28.7629,0.21041,-3.88567,0.72408
606.589,28.7827,0.2146,-3.88426,0.72364
607.189,28.80231,0.2125,-3.88431,0.7232
607.789,28.822,0.2143,-3.88431,0.72276
608.389,28.84177,0.21512,-3.88431,0.72232
608.989,28.86151,0.21843,-3.88431,0.72187
609.589,28.88115,0.21786,-3.88431,0.72143
610.189,28.90079,0.21882,-3.88431,0.72099
610.789,28.9204,0.22018,-3.88431,0.72055
611.389,28.94016,0.22015,-3.88431,0.72011
611.989,28.9599,0.22373,-3.88529,0.71966
612.589,28.9796,0.22393,-3.88593,0.71922
613.189,28.9994,0.22442,-3.88694,0.71878
613.789,29.01918,0.22513,-3.88668,0.71834
614.389,29.03882,0.22528,-3.88561,0.71789
614.989,29.0585,0.22725,-3.88562,0.71745
615.589,29.07821,0.22621,-3.88562,0.71701
616.189,29.09784,0.2255,-3.88562,0.71657
616.789,29.1176,0.22786,-3.88562,0.71612
617.389,29.1372,0.22932,-3.88562,0.71568
617.989,29.1569,0.23267,-3.88562,0.71524
618.589,29.1766,0.22901,-3.88562,0.71479
619.189,29.19636,0.23026,-3.88562,0.71435
619.789,29.21613,0.22814,-3.88562,0.71391
620.389,29.2359,0.23282,-3.88562,0.71346
620.989,29.2556,0.2311,-3.88562,0.71302
621.589,29.27535,0.22762,-3.88562,0.71258
622.189,29.2951,0.22772,-3.88562,0.71213
622.789,29.3148,0.22654,-3.88562,0.71169
623.389,29.33455,0.22798,-3.88562,0.71125
623.989,29.35432,0.22955,-3.8852,0.7108
624.589,29.37404,0.22575,-3.88431,0.71036
625.189,29.3938,0.23101,-3.88431,0.70992
625.789,29.41344,0.23046,-3.88431,0.70947
626.389,29.4332,0.22939,-3.88431,0.70903
626.989,29.45291,0.22889,-3.88492,0.70858
627.589,29.4727,0.2317,-3.88563,0.70814
628.189,29.4924,0.23224,-3.88563,0.7077
628.789,29.5121,0.23398,-3.88562,0.70725
629.389,29.5318,0.2342,-3.88664,0.70681
629.989,29.55162,0.23424,-3.88661,0.70636
630.589,29.5714,0.23552,-3.88661,0.70592
631.189,29.59115,0.23607,-3.88661,0.70547
631.789,29.6109,0.23677,-3.88661,0.70503
632.389,29.63062,0.23565,-3.88661,0.70459
632.989,29.6504,0.23759,-3.88661,0.70414
633.589,29.6701,0.23736,-3.88661,0.7037
634.189,29.68983,0.24176,-3.88661,0.70325
634.789,29.70958,0.24343,-3.88661,0.70281
635.389,29.72938,0.24429,-3.88661,0.70236
635.989,29.7491,0.24316,-3.88661,0.70192
636.589,29.7689,0.24582,-3.88651,0.70147
637.189,29.78868,0.24476,-3.88628,0.70103
637.789,29.8085,0.24703,-3.88627,0.70058
638.389,29.82834,0.24361,-3.88591,0.70014
638.989,29.8482,0.24826,-3.88559,0.69969
639.589,29.868,0.24852,-3.88562,0.69925
640.189,29.88777,0.25099,-3.88558,0.6988
640.789,29.9075,0.25148,-3.88528,0.69835
641.389,29.92731,0.24926,-3.88663,0.69791
641.989,29.9471,0.2502,-3.88661,0.69746
642.589,29.9669,0.24851,-3.88661,0.69702
643.189,29.9867,0.2518,-3.88661,0.69657
643.789,30.00647,0.25222,-3.88661,0.69613
644.389,30.02628,0.25563,-3.88629,0.69568
644.989,30.04611,0.25347,-3.88629,0.69523
645.589,30.0659,0.25598,-3.88629,0.69479
646.189,30.08565,0.2542,-3.88629,0.69434
646.789,30.1055,0.25682,-3.88629,0.6939
647.389,30.1253,0.26001,-3.88715,0.69345
647.989,30.14532,0.25691,-3.8876,0.693
648.589,30.16514,0.25632,-3.8876,0.69256
649.189,30.18494,0.25688,-3.8876,0.69211
649.789,30.2047,0.25724,-3.8876,0.69166
650.389,30.2245,0.25689,-3.8876,0.69122
650.989,30.24434,0.25532,-3.8876,0.69077
651.589,30.26417,0.25807,-3.8876,0.69033
652.189,30.28402,0.25878,-3.8876,0.68988
652.789,30.3039,0.25845,-3.8876,0.68943
653.389,30.32372,0.25458,-3.8876,0.68899
653.989,30.34355,0.25665,-3.88731,0.68854
654.589,30.36337,0.25901,-3.88629,0.68809
655.189,30.38317,0.2619,-3.88628,0.68764
655.789,30.40302,0.25949,-3.88628,0.6872
656.389,30.4229,0.26132,-3.88624,0.68675
656.989,30.4428,0.26244,-3.88765,0.6863
657.589,30.4627,0.26207,-3.8876,0.68586
658.189,30.48253,0.26178,-3.8876,0.68541
658.789,30.50235,0.26425,-3.88777,0.68496
659.389,30.5222,0.26166,-3.88891,0.68451
659.989,30.54212,0.26245,-3.88891,0.68407
660.589,30.56196,0.26516,-3.88802,0.68362
661.189,30.58185,0.26343,-3.8876,0.68317
661.789,30.6017,0.26235,-3.8876,0.68272
662.389,30.6215,0.26524,-3.8876,0.68228
662.989,30.6413,0.26424,-3.88761,0.68183
663.589,30.6611,0.26636,-3.88692,0.68138
664.189,30.68102,0.26558,-3.88694,0.68093
664.789,30.70086,0.26691,-3.88694,0.68049
665.389,30.72066,0.26914,-3.88695,0.68004
665.989,30.74052,0.26858,-3.88661,0.67959
666.589,30.76035,0.26773,-3.88661,0.67914
667.189,30.78019,0.26831,-3.88661,0.67869
667.789,30.80005,0.26933,-3.88661,0.67825
668.389,30.8199,0.26868,-3.88661,0.6778
668.989,30.83979,0.27021,-3.88661,0.67735
669.589,30.85973,0.27383,-3.88661,0.6769
670.189,30.8796,0.27271,-3.88661,0.67645
670.789,30.89953,0.27553,-3.88661,0.67601
671.389,30.9194,0.27313,-3.88689,0.67556
671.989,30.93928,0.27183,-3.88793,0.67511
672.589,30.95917,0.27295,-3.88793,0.67466
673.189,30.979,0.27843,-3.88793,0.67421
673.789,30.9989,0.27427,-3.88793,0.67376
674.389,31.01884,0.2756,-3.88793,0.67331
674.989,31.0387,0.27831,-3.88793,0.67287
675.589,31.0586,0.27948,-3.88738,0.67242
676.189,31.07852,0.27744,-3.88727,0.67197
676.789,31.0984,0.27731,-3.8875,0.67152
677.389,31.11826,0.28023,-3.88791,0.67107
677.989,31.13813,0.27729,-3.88813,0.67062
678.589,31.15798,0.27818,-3.88858,0.67017
679.189,31.17788,0.27672,-3.88858,0.66972
679.789,31.19776,0.28155,-3.88858,0.66927
680.389,31.2177,0.27922,-3.88858,0.66882
680.989,31.23753,0.2778,-3.88858,0.66837
681.589,31.25745,0.28229,-3.88858,0.66793
682.189,31.27737,0.28105,-3.88858,0.66748
682.789,31.29727,0.28103,-3.88858,0.66703
683.389,31.31721,0.27934,-3.88858,0.66658
683.989,31.3371,0.2839,-3.88858,0.66613
684.589,31.35698,0.28288,-3.88858,0.66568
685.189,31.37687,0.28155,-3.88858,0.66523
685.789,31.39681,0.2863,-3.88858,0.66478
686.389,31.4168,0.28532,-3.88858,0.66433
686.989,31.43667,0.28594,-3.88858,0.66388
687.589,31.4566,0.28824,-3.88858,0.66343
688.189,31.4766,0.28755,-3.88858,0.66298
688.789,31.4965,0.28749,-3.88856,0.66253
689.389,31.51652,0.28868,-3.88979,0.66208
689.989,31.5365,0.28702,-3.8899,0.66163
690.589,31.5563,0.2888,-3.8899,0.66118
691.189,31.57625,0.29266,-3.8899,0.66073
691.789,31.5962,0.28966,-3.88993,0.66028
692.389,31.6162,0.29014,-3.88958,0.65983
692.989,31.63614,0.28712,-3.88957,0.65938
693.589,31.6561,0.29221,-3.88957,0.65893
694.189,31.6761,0.29388,-3.88956,0.65848
694.789,31.69608,0.29322,-3.89067,0.65803
695.389,31.71605,0.29329,-3.88955,0.65758
695.989,31.736,0.29513,-3.88957,0.65713
696.589,31.756,0.2926,-3.88957,0.65668
697.189,31.77595,0.29243,-3.88957,0.65623
697.789,31.79593,0.29349,-3.88957,0.65578
698.389,31.816,0.29491,-3.88957,0.65533
698.989,31.836,0.29813,-3.88957,0.65488
699.589,31.856,0.29599,-3.88957,0.65443
700.189,31.876,0.30047,-3.88957,0.65397
700.789,31.89602,0.29798,-3.88957,0.65352
701.389,31.91592,0.30021,-3.88957,0.65307
701.989,31.9358,0.3011,-3.88958,0.65262
702.589,31.9558,0.30142,-3.89036,0.65217
703.189,31.97575,0.30285,-3.8896,0.65172
703.789,31.99594,0.30143,-3.88958,0.65127
704.389,32.01605,0.30289,-3.88958,0.65082
704.989,32.03601,0.30277,-3.88958,0.65037
705.589,32.05598,0.30288,-3.88958,0.64992
706.189,32.076,0.30514,-3.88958,0.64946
706.789,32.09599,0.30546,-3.88958,0.64901
707.389,32.116,0.30897,-3.88958,0.64856
707.989,32.13605,0.30775,-3.88958,0.64811
708.589,32.15607,0.3103,-3.88958,0.64766
709.189,32.17606,0.31191,-3.88958,0.64721
709.789,32.1961,0.31493,-3.88958,0.64676
710.389,32.21617,0.31156,-3.88958,0.64631
710.989,32.2362,0.31019,-3.88958,0.64585
711.589,32.25626,0.31469,-3.88958,0.6454
712.189,32.27623,0.31362,-3.88958,0.64495
712.789,32.29622,0.31666,-3.88958,0.6445
713.389,32.31622,0.31407,-3.88958,0.64405
713.989,32.3362,0.31481,-3.88958,0.6436
714.589,32.35625,0.3153,-3.88958,0.64314
715.189,32.37627,0.32194,-3.88958,0.64269
715.789,32.39629,0.31941,-3.8898,0.64224
716.389,32.4163,0.32353,-3.89079,0.64179
716.989,32.43639,0.3224,-3.88992,0.64134
717.589,32.45643,0.32384,-3.8899,0.64089
718.189,32.47651,0.32731,-3.8899,0.64043
718.789,32.4966,0.33302,-3.8899,0.63998
719.389,32.51664,0.33068,-3.8899,0.63953
719.989,32.53668,0.33498,-3.8899,0.63908
720.589,32.55663,0.33808,-3.8899,0.63863
721.189,32.57671,0.33842,-3.8899,0.63817
721.789,32.5968,0.33714,-3.8899,0.63772
722.389,32.6169,0.34129,-3.8899,0.63727
722.989,32.63698,0.34707,-3.8899,0.63682
723.589,32.65704,0.34843,-3.8899,0.63637
724.189,32.67706,0.34821,-3.88991,0.63591
724.789,32.6971,0.34831,-3.891,0.63546
725.389,32.71714,0.35077,-3.89103,0.63501
725.989,32.7372,0.35919,-3.89089,0.63456
726.589,32.75724,0.35896,-3.89089,0.6341
727.189,32.77721,0.36237,-3.89089,0.63365
727.789,32.79721,0.36471,-3.89089,0.6332
728.389,32.81725,0.3658,-3.89089,0.63275
728.989,32.8374,0.36744,-3.89089,0.63229
729.589,32.8575,0.36676,-3.89089,0.63184
730.189,32.87758,0.37062,-3.89089,0.63139
730.789,32.89762,0.37411,-3.89089,0.63094
731.389,32.91768,0.37805,-3.89089,0.63048
731.989,32.93776,0.37883,-3.89089,0.63003
732.589,32.9578,0.37957,-3.89089,0.62958
733.189,32.97784,0.38401,-3.89089,0.62913
733.789,32.99791,0.38486,-3.89091,0.62867
734.389,33.01793,0.38198,-3.88961,0.62822
734.989,33.03801,0.3874,-3.89084,0.62777
735.589,33.05816,0.3905,-3.89089,0.62731
736.189,33.07821,0.39326,-3.8911,0.62686
736.789,33.09833,0.39685,-3.89154,0.62641
737.389,33.11833,0.39953,-3.89154,0.62596
737.989,33.13837,0.4016,-3.89154,0.6255
738.589,33.1584,0.40145,-3.89154,0.62505
739.189,33.17848,0.40404,-3.89154,0.6246
739.789,33.1986,0.39946,-3.89069,0.62414
740.389,33.21873,0.40763,-3.89023,0.62369
740.989,33.23881,0.40995,-3.89023,0.62324
741.589,33.25886,0.41178,-3.89023,0.62278
742.189,33.2789,0.41618,-3.89024,0.62233
742.789,33.29906,0.41515,-3.8915,0.62188
743.389,33.31919,0.42145,-3.89155,0.62142
743.789,33.3326,0.42101,-3.89155,0.62112