File: 01_Data/Nylon/STA/N2/30K_min/Nylon_STA_N2_30KData_220704_R2.csv
##Temp./Â°C,Time/min,DSC(subtr.2)/(mW/mg),Mass loss(subtr.2)/mg,Sensit./(uV/mW)
48.581,10.00667,0.01150866,-0.07075,1.07502
49.181,10.53475,0.05763058,-0.07164823,1.07476
49.781,10.65439,0.0971067,-0.07341819,1.07449
50.381,10.7403,0.1324,-0.07328384,1.07423
50.981,10.80898,0.16795,-0.07484395,1.07396
51.581,10.8687,0.19754,-0.07341146,1.0737
52.181,10.922,0.22679,-0.0753083,1.07343
52.781,10.97065,0.2524,-0.07350249,1.07316
53.381,11.01545,0.28033,-0.07418598,1.0729
53.981,11.05734,0.30412,-0.07529431,1.07263
54.581,11.09702,0.32959,-0.07540104,1.07236
55.181,11.13528,0.35043,-0.0747761,1.07209
55.781,11.1717,0.37449,-0.07593939,1.07182
56.381,11.20652,0.39495,-0.07514771,1.07156
56.981,11.23995,0.41694,-0.07612532,1.07129
57.581,11.27237,0.43657,-0.0765813,1.07102
58.181,11.304,0.45484,-0.07798619,1.07075
58.781,11.33467,0.47473,-0.07732372,1.07048
59.381,11.36456,0.49348,-0.07611796,1.0702
59.981,11.39379,0.50986,-0.07663945,1.06993
60.581,11.42249,0.52768,-0.07565038,1.06966
61.181,11.45085,0.54484,-0.07581727,1.06939
61.781,11.47861,0.56093,-0.0762219,1.06912
62.381,11.50578,0.57701,-0.07709783,1.06884
62.981,11.53242,0.59104,-0.07729041,1.06857
63.581,11.55845,0.6087,-0.07673043,1.0683
64.181,11.58436,0.62215,-0.07768732,1.06802
64.781,11.61022,0.63841,-0.07885451,1.06775
65.381,11.63597,0.65406,-0.07949556,1.06747
65.981,11.66118,0.66836,-0.07877858,1.0672
66.581,11.68587,0.682,-0.07860146,1.06692
67.181,11.71048,0.69762,-0.07834832,1.06665
67.781,11.73478,0.71209,-0.07869033,1.06637
68.381,11.75907,0.72447,-0.07823613,1.06609
68.981,11.783,0.73993,-0.07793855,1.06581
69.581,11.80675,0.7507,-0.07831332,1.06554
70.181,11.83025,0.76278,-0.07911467,1.06526
70.781,11.8538,0.77516,-0.0783484,1.06498
71.381,11.87715,0.7859,-0.0788563,1.0647
71.981,11.90042,0.79895,-0.07930666,1.06442
72.581,11.92347,0.80786,-0.07996662,1.06414
73.181,11.94634,0.81585,-0.08108015,1.06386
73.781,11.9692,0.82488,-0.08139278,1.06358
74.381,11.99207,0.83387,-0.08106461,1.0633
74.981,12.0146,0.84182,-0.08084192,1.06302
75.581,12.03697,0.84906,-0.08085142,1.06274
76.181,12.05919,0.85333,-0.08082741,1.06246
76.781,12.0815,0.86155,-0.08106281,1.06217
77.381,12.1037,0.86709,-0.08118259,1.06189
77.981,12.12577,0.87035,-0.08088215,1.06161
78.581,12.14771,0.87708,-0.08127017,1.06133
79.181,12.16963,0.88114,-0.08099213,1.06104
79.781,12.19152,0.88613,-0.08053184,1.06076
80.381,12.2132,0.88998,-0.0800672,1.06047
80.981,12.23479,0.89269,-0.08078848,1.06019
81.581,12.25633,0.89625,-0.08099409,1.0599
82.181,12.27776,0.89941,-0.08096116,1.05962
82.781,12.29921,0.90498,-0.08084243,1.05933
83.381,12.32047,0.90621,-0.08094688,1.05904
83.981,12.34184,0.91024,-0.08218299,1.05876
84.581,12.36305,0.9135,-0.08176948,1.05847
85.181,12.38429,0.91618,-0.08254229,1.05818
85.781,12.4055,0.91905,-0.08363631,1.0579
86.381,12.4266,0.92433,-0.08347695,1.05761
86.981,12.44779,0.93069,-0.08334242,1.05732
87.581,12.46879,0.9293,-0.08286956,1.05703
88.181,12.48969,0.93555,-0.0841518,1.05674
88.781,12.51055,0.94074,-0.08381133,1.05645
89.381,12.5313,0.94247,-0.08360455,1.05616
89.981,12.55213,0.94797,-0.08423438,1.05587
90.581,12.57287,0.95164,-0.08483663,1.05558
91.181,12.5936,0.95267,-0.08422981,1.05529
91.781,12.6142,0.9581,-0.08425287,1.055
92.381,12.63482,0.96486,-0.08297244,1.0547
92.981,12.6554,0.96718,-0.08412138,1.05441
93.581,12.67585,0.97196,-0.08404469,1.05412
94.181,12.69634,0.9756,-0.08398701,1.05383
94.781,12.71676,0.97859,-0.08413157,1.05353
95.381,12.73725,0.98494,-0.08413103,1.05324
95.981,12.7577,0.98814,-0.0840758,1.05294
96.581,12.7782,0.99341,-0.0846595,1.05265
97.181,12.79866,0.9963,-0.08413154,1.05236
97.781,12.81906,1.00063,-0.0841332,1.05206
98.381,12.83946,1.00622,-0.08507203,1.05177
98.981,12.85984,1.00954,-0.08544981,1.05147
99.581,12.88011,1.01454,-0.08545054,1.05117
100.181,12.90041,1.01684,-0.08442543,1.05088
100.781,12.92065,1.02007,-0.08414204,1.05058
101.381,12.94094,1.02603,-0.08546114,1.05028
101.981,12.96113,1.02958,-0.08501713,1.04998
102.581,12.98135,1.03209,-0.08458801,1.04969
103.181,13.00163,1.03451,-0.08544539,1.04939
103.781,13.02185,1.03972,-0.08545035,1.04909
104.381,13.04217,1.04373,-0.08543431,1.04879
104.981,13.0624,1.04908,-0.08605093,1.04849
105.581,13.08257,1.05219,-0.0854565,1.04819
106.181,13.1027,1.05583,-0.08544966,1.04789
106.781,13.1229,1.05828,-0.08546139,1.04759
107.381,13.14299,1.063,-0.08648145,1.04729
107.981,13.1632,1.06789,-0.0855591,1.04699
108.581,13.1834,1.07113,-0.08543867,1.04669
109.181,13.2035,1.07651,-0.08544038,1.04639
109.781,13.22371,1.07969,-0.08542138,1.04608
110.381,13.24385,1.08271,-0.08667628,1.04578
110.981,13.26397,1.08675,-0.08676118,1.04548
111.581,13.28405,1.0907,-0.08675623,1.04518
112.181,13.30422,1.09475,-0.08712128,1.04487
112.781,13.3242,1.09855,-0.08806944,1.04457
113.381,13.3443,1.1022,-0.08809373,1.04426
113.981,13.3643,1.10572,-0.08922121,1.04396
114.581,13.38427,1.1115,-0.08939281,1.04366
115.181,13.40417,1.113,-0.08938619,1.04335
115.781,13.4241,1.11622,-0.08973623,1.04304
116.381,13.4441,1.11872,-0.09069795,1.04274
116.981,13.46415,1.12275,-0.09077894,1.04243
117.581,13.4842,1.12768,-0.09007369,1.04213
118.181,13.50428,1.13063,-0.09005596,1.04182
118.781,13.52421,1.13326,-0.09042192,1.04151
119.381,13.54424,1.13457,-0.09136001,1.0412
119.981,13.56409,1.14094,-0.09137535,1.0409
120.581,13.584,1.1436,-0.09096629,1.04059
121.181,13.6039,1.14771,-0.09070676,1.04028
121.781,13.6237,1.1489,-0.09065887,1.03997
122.381,13.64362,1.15253,-0.09207538,1.03966
122.981,13.66354,1.15696,-0.09202909,1.03935
123.581,13.68335,1.16203,-0.09203002,1.03904
124.181,13.7031,1.16281,-0.09203,1.03873
124.781,13.7227,1.16491,-0.09203,1.03842
125.381,13.7424,1.17022,-0.09203,1.03811
125.981,13.7621,1.17214,-0.09203,1.0378
126.581,13.78175,1.17352,-0.09203003,1.03749
127.181,13.8015,1.17777,-0.09202897,1.03718
127.781,13.8211,1.18408,-0.09207199,1.03687
128.381,13.84079,1.18568,-0.09201164,1.03655
128.981,13.8605,1.18851,-0.09203007,1.03624
129.581,13.8801,1.19104,-0.09203169,1.03593
130.181,13.8997,1.19335,-0.09333521,1.03561
130.781,13.91934,1.19716,-0.093339,1.0353
131.381,13.9389,1.20013,-0.09362556,1.03499
131.981,13.95841,1.20562,-0.09367122,1.03467
132.581,13.9779,1.20745,-0.09366997,1.03436
133.181,13.9974,1.20974,-0.09367033,1.03404
133.781,14.01689,1.21331,-0.09365363,1.03373
134.381,14.0364,1.2159,-0.09471999,1.03341
134.981,14.05584,1.21973,-0.09465882,1.0331
135.581,14.0753,1.22187,-0.09466002,1.03278
136.181,14.0947,1.22504,-0.09465985,1.03246
136.781,14.1141,1.22884,-0.09466398,1.03215
137.381,14.13352,1.23394,-0.0936544,1.03183
137.981,14.1528,1.23629,-0.0933269,1.03151
138.581,14.1722,1.23988,-0.09366692,1.03119
139.181,14.1915,1.23997,-0.09367011,1.03088
139.781,14.21083,1.24163,-0.09366973,1.03056
140.381,14.23016,1.24645,-0.09368337,1.03024
140.981,14.2493,1.2488,-0.09465367,1.02992
141.581,14.26862,1.25426,-0.09495184,1.0296
142.181,14.28793,1.25537,-0.09563501,1.02928
142.781,14.3073,1.2579,-0.09565017,1.02896
143.381,14.32661,1.25994,-0.09565,1.02864
143.981,14.34581,1.26469,-0.09565,1.02832
144.581,14.3649,1.26784,-0.09565,1.028
145.181,14.3841,1.27196,-0.09565,1.02768
145.781,14.4032,1.27447,-0.09565,1.02736
146.381,14.4224,1.27669,-0.09565,1.02704
146.981,14.4415,1.28051,-0.09565,1.02671
147.581,14.46057,1.28315,-0.09564999,1.02639
148.181,14.4797,1.28624,-0.09564976,1.02607
148.781,14.49876,1.28776,-0.09569026,1.02575
149.381,14.5179,1.29211,-0.09430788,1.02542
149.981,14.537,1.29612,-0.09434595,1.0251
150.581,14.55609,1.2995,-0.09493565,1.02478
151.181,14.5752,1.30385,-0.095645,1.02445
151.781,14.59431,1.30483,-0.09565007,1.02413
152.381,14.61335,1.30695,-0.09565,1.0238
152.981,14.6324,1.3114,-0.09565,1.02348
153.581,14.65136,1.31307,-0.09565,1.02315
154.181,14.6704,1.31716,-0.09565007,1.02283
154.781,14.6894,1.32094,-0.095647,1.0225
155.381,14.7084,1.32249,-0.0957617,1.02217
155.981,14.72737,1.32436,-0.09696311,1.02185
156.581,14.7463,1.32803,-0.09697584,1.02152
157.181,14.7652,1.33146,-0.0956845,1.02119
157.781,14.78411,1.33474,-0.09564897,1.02087
158.381,14.8031,1.33733,-0.09565009,1.02054
158.981,14.82205,1.3405,-0.09564765,1.02021
159.581,14.841,1.34365,-0.09570936,1.01988
160.181,14.8599,1.34622,-0.0969616,1.01955
160.781,14.87884,1.34814,-0.09821065,1.01922
161.381,14.8977,1.35086,-0.09828257,1.0189
161.981,14.91656,1.35358,-0.09827993,1.01857
162.581,14.93547,1.3569,-0.09828,1.01824
163.181,14.9544,1.35893,-0.09828,1.01791
163.781,14.97323,1.36097,-0.09828,1.01758
164.381,14.99213,1.36588,-0.09827996,1.01725
164.981,15.011,1.36901,-0.09828233,1.01692
165.581,15.0295,1.37156,-0.09815023,1.01658
166.181,15.0482,1.37212,-0.09830886,1.01625
166.781,15.067,1.37402,-0.09827983,1.01592
167.381,15.0857,1.37844,-0.09827999,1.01559
167.981,15.1047,1.38203,-0.09828,1.01526
168.581,15.12364,1.38384,-0.09828,1.01492
169.181,15.1425,1.38774,-0.09828,1.01459
169.781,15.1614,1.38791,-0.09828,1.01426
170.381,15.18025,1.39182,-0.09828,1.01393
170.981,15.19907,1.39471,-0.09828,1.01359
171.581,15.21781,1.39831,-0.09828,1.01326
172.181,15.23656,1.39984,-0.09828,1.01292
172.781,15.2553,1.40381,-0.09828,1.01259
173.381,15.27396,1.40396,-0.09828,1.01225
173.981,15.2927,1.40889,-0.09828,1.01192
174.581,15.31148,1.40894,-0.09827999,1.01158
175.181,15.33017,1.41297,-0.09828026,1.01125
175.781,15.3489,1.41669,-0.09827057,1.01091
176.381,15.36755,1.41639,-0.09751021,1.01058
176.981,15.38611,1.4218,-0.09696204,1.01024
177.581,15.4048,1.42255,-0.09695985,1.0099
178.181,15.4234,1.42591,-0.09696001,1.00957
178.781,15.4421,1.42748,-0.09696,1.00923
179.381,15.4607,1.42957,-0.09696,1.00889
179.981,15.4793,1.43511,-0.09696,1.00855
180.581,15.4979,1.43506,-0.09696036,1.00822
181.181,15.51639,1.43747,-0.09694316,1.00788
181.781,15.53491,1.43876,-0.09806997,1.00754
182.381,15.5534,1.44238,-0.09828002,1.0072
182.981,15.57196,1.44492,-0.09823758,1.00686
183.581,15.5905,1.44746,-0.09964393,1.00652
184.181,15.609,1.44956,-0.09959899,1.00618
184.781,15.62744,1.45068,-0.09960001,1.00584
185.381,15.64594,1.45297,-0.0996,1.0055
185.981,15.66441,1.45657,-0.09959998,1.00516
186.581,15.6829,1.45703,-0.09960098,1.00482
187.181,15.70134,1.46141,-0.09957346,1.00448
187.781,15.7198,1.46454,-0.09860692,1.00414
188.381,15.7383,1.46575,-0.09861151,1.0038
188.981,15.7567,1.46822,-0.09855971,1.00346
189.581,15.7752,1.47075,-0.09996799,1.00311
190.181,15.79359,1.47457,-0.09991978,1.00277
190.781,15.81199,1.4771,-0.09991997,1.00243
191.381,15.8304,1.47958,-0.09992,1.00209
191.981,15.84885,1.48268,-0.09991993,1.00174
192.581,15.8673,1.48345,-0.09992087,1.0014
193.181,15.88561,1.4871,-0.10017,1.00106
193.781,15.9039,1.48976,-0.10126,1.00071
194.381,15.9222,1.49281,-0.10124,1.00037
194.981,15.9406,1.49336,-0.10124,1.00003
195.581,15.959,1.49671,-0.10124,0.99968
196.181,15.97741,1.49961,-0.10129,0.99934
196.781,15.9958,1.5028,-0.09986803,0.99899
197.381,16.01407,1.50382,-0.09992054,0.99865
197.981,16.03235,1.50954,-0.09992067,0.9983
198.581,16.0506,1.51063,-0.09986819,0.99795
199.181,16.0689,1.51156,-0.10129,0.99761
199.781,16.0873,1.51543,-0.10128,0.99726
200.381,16.10565,1.51833,-0.10223,0.99691
200.981,16.12398,1.52083,-0.10223,0.99657
201.581,16.14227,1.52432,-0.10233,0.99622
202.181,16.16057,1.52946,-0.10256,0.99587
202.781,16.1789,1.53115,-0.10256,0.99553
203.381,16.19725,1.53316,-0.10256,0.99518
203.981,16.21556,1.53733,-0.10256,0.99483
204.581,16.2338,1.53896,-0.10256,0.99448
205.181,16.25209,1.54616,-0.10256,0.99413
205.781,16.27039,1.54687,-0.10256,0.99378
206.381,16.28866,1.55109,-0.10256,0.99344
206.981,16.30695,1.55371,-0.10256,0.99309
207.581,16.32526,1.55559,-0.10256,0.99274
208.181,16.34346,1.55985,-0.10254,0.99239
208.781,16.3617,1.56394,-0.10187,0.99204
209.381,16.38005,1.56666,-0.10289,0.99169
209.981,16.3983,1.57062,-0.10289,0.99134
210.581,16.41667,1.57427,-0.10289,0.99099
211.181,16.43498,1.57776,-0.10289,0.99063
211.781,16.4532,1.58284,-0.10289,0.99028
212.381,16.47146,1.58713,-0.10289,0.98993
212.981,16.48969,1.59295,-0.10287,0.98958
213.581,16.5079,1.59404,-0.10398,0.98923
214.181,16.5262,1.59977,-0.10421,0.98888
214.781,16.5444,1.60232,-0.10423,0.98852
215.381,16.56261,1.60619,-0.10304,0.98817
215.981,16.58077,1.61048,-0.1029,0.98782
216.581,16.59899,1.61537,-0.10255,0.98746
217.181,16.6172,1.61903,-0.10256,0.98711
217.781,16.63545,1.62473,-0.10256,0.98676
218.381,16.65371,1.62877,-0.10256,0.9864
218.981,16.67193,1.63494,-0.10257,0.98605
219.581,16.6902,1.63888,-0.10363,0.98569
220.181,16.70842,1.64317,-0.10388,0.98534
220.781,16.7266,1.64692,-0.10388,0.98499
221.381,16.74483,1.65587,-0.10388,0.98463
221.981,16.763,1.6607,-0.10388,0.98428
222.581,16.7812,1.66327,-0.10388,0.98392
223.181,16.79949,1.67134,-0.10388,0.98356
223.781,16.81769,1.67659,-0.10388,0.98321
224.381,16.8359,1.6836,-0.10388,0.98285
224.981,16.85412,1.68838,-0.10388,0.9825
225.581,16.87237,1.69481,-0.10388,0.98214
226.181,16.89055,1.6997,-0.10388,0.98178
226.781,16.90876,1.70755,-0.10388,0.98142
227.381,16.9269,1.71384,-0.10388,0.98107
227.981,16.94505,1.71846,-0.10509,0.98071
228.581,16.96329,1.72723,-0.10519,0.98035
229.181,16.98149,1.7317,-0.10519,0.97999
229.781,16.99972,1.73775,-0.10519,0.97964
230.381,17.01795,1.74673,-0.10519,0.97928
230.981,17.03614,1.75319,-0.10519,0.97892
231.581,17.0543,1.75761,-0.10519,0.97856
232.181,17.07249,1.76845,-0.10519,0.9782
232.781,17.09069,1.7751,-0.10519,0.97784
233.381,17.10885,1.7843,-0.10519,0.97748
233.981,17.12706,1.78943,-0.10519,0.97712
234.581,17.1452,1.79946,-0.10567,0.97676
235.181,17.16341,1.80816,-0.1065,0.9764
235.781,17.18154,1.81363,-0.10651,0.97604
236.381,17.1997,1.82612,-0.10651,0.97568
236.981,17.21791,1.83555,-0.10651,0.97532
237.581,17.23603,1.84407,-0.10649,0.97496
238.181,17.25421,1.85531,-0.10757,0.9746
238.781,17.27242,1.86614,-0.10782,0.97423
239.381,17.2906,1.87897,-0.10782,0.97387
239.981,17.30879,1.88928,-0.10782,0.97351
240.581,17.32696,1.90111,-0.10782,0.97315
241.181,17.34505,1.91475,-0.10782,0.97279
241.781,17.36318,1.93103,-0.10782,0.97242
242.381,17.3813,1.94623,-0.10782,0.97206
242.981,17.39947,1.96239,-0.10782,0.9717
243.581,17.41762,1.98214,-0.10782,0.97133
244.181,17.4358,2.0025,-0.10782,0.97097
244.781,17.45392,2.0239,-0.10781,0.97061
245.381,17.4721,2.0533,-0.10653,0.97024
245.981,17.49024,2.0832,-0.1065,0.96988
246.581,17.50834,2.11651,-0.1065,0.96951
247.181,17.52637,2.15581,-0.1065,0.96915
247.781,17.54446,2.20019,-0.10667,0.96878
248.381,17.56261,2.2493,-0.10784,0.96842
248.981,17.58074,2.30468,-0.10782,0.96805
249.581,17.59896,2.36312,-0.10782,0.96769
250.181,17.61721,2.42795,-0.10782,0.96732
250.781,17.63554,2.49495,-0.10783,0.96696
251.381,17.65396,2.56673,-0.10856,0.96659
251.981,17.6723,2.64047,-0.10913,0.96622
252.581,17.6905,2.71956,-0.10913,0.96586
253.181,17.70871,2.8033,-0.10913,0.96549
253.781,17.72693,2.88738,-0.10913,0.96512
254.381,17.7452,2.97822,-0.10913,0.96476
254.981,17.76351,3.07272,-0.10913,0.96439
255.581,17.78171,3.16882,-0.10913,0.96402
256.181,17.79993,3.2684,-0.10913,0.96365
256.781,17.8183,3.37271,-0.10907,0.96329
257.381,17.8366,3.47634,-0.11014,0.96292
257.981,17.85494,3.58297,-0.11012,0.96255
258.581,17.87329,3.68992,-0.11012,0.96218
259.181,17.89157,3.79143,-0.11012,0.96181
259.781,17.90993,3.88902,-0.11012,0.96144
260.381,17.92827,3.9659,-0.11022,0.96107
260.981,17.94663,4.00602,-0.11144,0.9607
261.581,17.96503,3.98876,-0.11144,0.96033
262.181,17.9834,3.90007,-0.11144,0.95996
262.781,18.00181,3.74387,-0.11144,0.95959
263.381,18.02015,3.5453,-0.11144,0.95922
263.981,18.03835,3.35094,-0.11144,0.95885
264.581,18.05657,3.16365,-0.11144,0.95848
265.181,18.0747,3.00079,-0.11144,0.95811
265.781,18.0928,2.85816,-0.11144,0.95774
266.381,18.11085,2.73137,-0.11144,0.95737
266.981,18.12891,2.61495,-0.11144,0.957
267.581,18.147,2.51652,-0.11144,0.95663
268.181,18.16508,2.42678,-0.11144,0.95625
268.781,18.1831,2.34869,-0.11144,0.95588
269.381,18.20112,2.2753,-0.11144,0.95551
269.981,18.21903,2.2141,-0.11144,0.95514
270.581,18.23701,2.15962,-0.11144,0.95476
271.181,18.25496,2.11104,-0.11144,0.95439
271.781,18.27295,2.06829,-0.11144,0.95402
272.381,18.29089,2.02441,-0.11144,0.95365
272.981,18.30879,1.99088,-0.11144,0.95327
273.581,18.3268,1.96109,-0.11144,0.9529
274.181,18.34476,1.93296,-0.11214,0.95252
274.781,18.36283,1.90808,-0.1121,0.95215
275.381,18.3809,1.88453,-0.1121,0.95178
275.981,18.3989,1.86631,-0.1121,0.9514
276.581,18.41686,1.84996,-0.11207,0.95103
277.181,18.43481,1.83479,-0.11242,0.95065
277.781,18.4528,1.82187,-0.11243,0.95028
278.381,18.47077,1.80898,-0.11243,0.9499
278.981,18.48878,1.79706,-0.11243,0.94953
279.581,18.5068,1.78629,-0.11243,0.94915
280.181,18.5248,1.77913,-0.11243,0.94878
280.781,18.54285,1.77224,-0.1127,0.9484
281.381,18.56097,1.7661,-0.11309,0.94802
281.981,18.57903,1.76062,-0.11309,0.94765
282.581,18.5971,1.75511,-0.1134,0.94727
283.181,18.61519,1.7484,-0.11439,0.94689
283.781,18.63318,1.747,-0.1144,0.94652
284.381,18.6512,1.74245,-0.1144,0.94614
284.981,18.66924,1.74026,-0.11439,0.94576
285.581,18.6873,1.73674,-0.11368,0.94538
286.181,18.70526,1.73498,-0.1131,0.94501
286.781,18.72327,1.7321,-0.11309,0.94463
287.381,18.74128,1.72942,-0.11309,0.94425
287.981,18.75936,1.72831,-0.11309,0.94387
288.581,18.7775,1.72921,-0.11309,0.94349
289.181,18.7956,1.72788,-0.11309,0.94312
289.781,18.81371,1.72735,-0.11309,0.94274
290.381,18.83175,1.72581,-0.11309,0.94236
290.981,18.84986,1.72303,-0.11309,0.94198
291.581,18.8679,1.72688,-0.11309,0.9416
292.181,18.88601,1.72403,-0.11309,0.94122
292.781,18.90415,1.72312,-0.11309,0.94084
293.381,18.92227,1.72229,-0.11309,0.94046
293.981,18.9404,1.72539,-0.11309,0.94008
294.581,18.95853,1.7224,-0.11309,0.9397
295.181,18.9766,1.72351,-0.11309,0.93932
295.781,18.99466,1.72337,-0.11309,0.93894
296.381,19.01277,1.72483,-0.11309,0.93856
296.981,19.03088,1.72372,-0.11324,0.93818
297.581,19.04901,1.72448,-0.11405,0.9378
298.181,19.06714,1.7247,-0.11407,0.93742
298.781,19.08523,1.72724,-0.11407,0.93703
299.381,19.1034,1.72825,-0.11418,0.93665
299.981,19.1215,1.72871,-0.11547,0.93627
300.581,19.13965,1.72737,-0.11572,0.93589
301.181,19.15781,1.72656,-0.11572,0.93551
301.781,19.17594,1.72732,-0.11568,0.93512
302.381,19.19414,1.72961,-0.11707,0.93474
302.981,19.21228,1.72833,-0.11704,0.93436
303.581,19.2305,1.72944,-0.11704,0.93398
304.181,19.24868,1.73074,-0.11704,0.93359
304.781,19.26684,1.72924,-0.11703,0.93321
305.381,19.285,1.73158,-0.11604,0.93283
305.981,19.30309,1.72947,-0.11605,0.93244
306.581,19.32124,1.73028,-0.11605,0.93206
307.181,19.3394,1.73231,-0.11605,0.93167
307.781,19.35755,1.73153,-0.11605,0.93129
308.381,19.37575,1.73232,-0.11605,0.93091
308.981,19.3939,1.73358,-0.11605,0.93052
309.581,19.412,1.7344,-0.11605,0.93014
310.181,19.43016,1.73357,-0.11605,0.92975
310.781,19.4482,1.73511,-0.11607,0.92937
311.381,19.46632,1.73587,-0.11572,0.92898
311.981,19.48451,1.73587,-0.11572,0.9286
312.581,19.5027,1.73705,-0.11572,0.92821
313.181,19.52092,1.73768,-0.11572,0.92783
313.781,19.53914,1.73718,-0.11571,0.92744
314.381,19.55729,1.73834,-0.11696,0.92705
314.981,19.57542,1.73636,-0.11704,0.92667
315.581,19.59356,1.73818,-0.11704,0.92628
316.181,19.61175,1.73831,-0.11704,0.92589
316.781,19.62996,1.73854,-0.11704,0.92551
317.381,19.64821,1.73968,-0.11704,0.92512
317.981,19.66641,1.74109,-0.11704,0.92473
318.581,19.6846,1.74055,-0.11704,0.92435
319.181,19.70284,1.74137,-0.11704,0.92396
319.781,19.72103,1.73967,-0.11704,0.92357
320.381,19.73926,1.74034,-0.11704,0.92318
320.981,19.7575,1.73921,-0.11702,0.9228
321.581,19.77574,1.74336,-0.1182,0.92241
322.181,19.794,1.74236,-0.11835,0.92202
322.781,19.8122,1.74391,-0.11835,0.92163
323.381,19.8304,1.74399,-0.11835,0.92124
323.981,19.8486,1.74418,-0.11827,0.92085
324.581,19.86676,1.74242,-0.11802,0.92047
325.181,19.88498,1.74325,-0.11802,0.92008
325.781,19.90324,1.74371,-0.11802,0.91969
326.381,19.92154,1.74549,-0.11802,0.9193
326.981,19.9398,1.74604,-0.11802,0.91891
327.581,19.95801,1.74471,-0.11802,0.91852
328.181,19.97628,1.74808,-0.11802,0.91813
328.781,19.99454,1.74766,-0.11802,0.91774
329.381,20.01287,1.74738,-0.11802,0.91735
329.981,20.03116,1.74912,-0.11825,0.91696
330.581,20.04945,1.74868,-0.11835,0.91657
331.181,20.06777,1.74921,-0.11835,0.91618
331.781,20.08607,1.75055,-0.11835,0.91579
332.381,20.10438,1.75262,-0.11835,0.91539
332.981,20.12266,1.75104,-0.11835,0.915
333.581,20.1409,1.75235,-0.11835,0.91461
334.181,20.15912,1.75413,-0.11835,0.91422
334.781,20.17744,1.75257,-0.11835,0.91383
335.381,20.1957,1.75215,-0.11835,0.91344
335.981,20.214,1.75731,-0.11874,0.91305
336.581,20.23236,1.75443,-0.11969,0.91265
337.181,20.25065,1.75533,-0.12059,0.91226
337.781,20.269,1.75654,-0.12066,0.91187
338.381,20.28728,1.75732,-0.12065,0.91148
338.981,20.30558,1.75857,-0.12192,0.91108
339.581,20.3239,1.76077,-0.12198,0.91069
340.181,20.3422,1.75805,-0.12198,0.9103
340.781,20.36054,1.75933,-0.12198,0.9099
341.381,20.3789,1.76019,-0.12198,0.90951
341.981,20.39706,1.76157,-0.12196,0.90912
342.581,20.4152,1.76382,-0.1231,0.90872
343.181,20.43358,1.76556,-0.12329,0.90833
343.781,20.45194,1.76562,-0.12351,0.90794
344.381,20.47039,1.76801,-0.12458,0.90754
344.981,20.48891,1.76758,-0.12597,0.90715
345.581,20.50722,1.76779,-0.12592,0.90675
346.181,20.52559,1.76976,-0.12592,0.90636
346.781,20.544,1.77145,-0.12592,0.90596
347.381,20.56234,1.77209,-0.12592,0.90557
347.981,20.58076,1.77142,-0.12592,0.90517
348.581,20.59913,1.77396,-0.12592,0.90478
349.181,20.6175,1.77585,-0.12592,0.90438
349.781,20.63597,1.77307,-0.12592,0.90399
350.381,20.65439,1.77665,-0.12592,0.90359
350.981,20.67279,1.77638,-0.1262,0.9032
351.581,20.69117,1.77887,-0.12725,0.9028
352.181,20.7096,1.77924,-0.12724,0.9024
352.781,20.72801,1.78187,-0.12724,0.90201
353.381,20.7464,1.78295,-0.12724,0.90161
353.981,20.7648,1.7805,-0.12724,0.90121
354.581,20.78319,1.78258,-0.12724,0.90082
355.181,20.80161,1.78204,-0.12728,0.90042
355.781,20.82011,1.78345,-0.12855,0.90002
356.381,20.83863,1.78467,-0.12855,0.89963
356.981,20.85709,1.78592,-0.12855,0.89923
357.581,20.87549,1.78642,-0.12855,0.89883
358.181,20.89388,1.7879,-0.12855,0.89843
358.781,20.9123,1.78902,-0.12851,0.89804
359.381,20.93065,1.78943,-0.12991,0.89764
359.981,20.94915,1.79155,-0.12987,0.89724
360.581,20.96762,1.79325,-0.12987,0.89684
361.181,20.98604,1.79356,-0.12987,0.89644
361.781,21.00454,1.7939,-0.12987,0.89605
362.381,21.02293,1.79651,-0.12987,0.89565
362.981,21.04138,1.79798,-0.12987,0.89525
363.581,21.05992,1.79882,-0.12987,0.89485
364.181,21.07841,1.79979,-0.12987,0.89445
364.781,21.097,1.8018,-0.13017,0.89405
365.381,21.11542,1.80185,-0.13117,0.89365
365.981,21.13387,1.80634,-0.13118,0.89325
366.581,21.1524,1.80938,-0.13118,0.89285
367.181,21.17079,1.80997,-0.13118,0.89245
367.781,21.18925,1.81168,-0.1314,0.89205
368.381,21.20774,1.81412,-0.13217,0.89165
368.981,21.22622,1.81587,-0.13217,0.89125
369.581,21.24479,1.81721,-0.13256,0.89085
370.181,21.26339,1.81872,-0.1338,0.89045
370.781,21.2819,1.8227,-0.13382,0.89005
371.381,21.30044,1.82368,-0.13382,0.88965
371.981,21.31895,1.82297,-0.13378,0.88925
372.581,21.33749,1.82876,-0.13518,0.88885
373.181,21.35601,1.83056,-0.13514,0.88845
373.781,21.37456,1.83417,-0.13514,0.88805
374.381,21.3931,1.83575,-0.13514,0.88764
374.981,21.41163,1.83981,-0.13634,0.88724
375.581,21.4302,1.84307,-0.13645,0.88684
376.181,21.44874,1.84762,-0.13645,0.88644
376.781,21.46729,1.84886,-0.13644,0.88604
377.381,21.48582,1.85211,-0.13772,0.88563
377.981,21.50432,1.85667,-0.13777,0.88523
378.581,21.52287,1.85886,-0.13775,0.88483
379.181,21.54148,1.86411,-0.13887,0.88443
379.781,21.56007,1.8677,-0.13909,0.88402
380.381,21.5785,1.86996,-0.14042,0.88362
380.981,21.59702,1.87578,-0.1404,0.88322
381.581,21.61552,1.87704,-0.1404,0.88281
382.181,21.6341,1.88386,-0.14041,0.88241
382.781,21.65279,1.88643,-0.1417,0.88201
383.381,21.6714,1.89148,-0.14171,0.8816
383.981,21.68998,1.89268,-0.14171,0.8812
384.581,21.7085,1.89753,-0.14171,0.8808
385.181,21.72703,1.90496,-0.14173,0.88039
385.781,21.74559,1.90844,-0.14305,0.87999
386.381,21.76422,1.91444,-0.14303,0.87958
386.981,21.78286,1.92022,-0.14385,0.87918
387.581,21.8015,1.92321,-0.14564,0.87878
388.181,21.8201,1.93102,-0.14566,0.87837
388.781,21.83875,1.93702,-0.14653,0.87797
389.381,21.85736,1.94075,-0.14709,0.87756
389.981,21.876,1.94588,-0.14767,0.87716
390.581,21.89459,1.9527,-0.14852,0.87675
391.181,21.91313,1.95803,-0.14914,0.87635
391.781,21.93177,1.96511,-0.14989,0.87594
392.381,21.95039,1.97228,-0.15156,0.87553
392.981,21.96904,1.97942,-0.1525,0.87513
393.581,21.98774,1.98928,-0.15303,0.87472
394.181,22.00633,1.99207,-0.15454,0.87432
394.781,22.02495,2.00275,-0.15458,0.87391
395.381,22.04354,2.00986,-0.15446,0.8735
395.981,22.06215,2.02141,-0.15471,0.8731
396.581,22.0808,2.02766,-0.1561,0.87269
397.181,22.09956,2.03806,-0.15637,0.87228
397.781,22.11823,2.04545,-0.15741,0.87188
398.381,22.13692,2.05933,-0.15742,0.87147
398.981,22.1556,2.06985,-0.15894,0.87106
399.581,22.17424,2.08128,-0.1603,0.87066
400.181,22.19293,2.09475,-0.16201,0.87025
400.781,22.2116,2.10797,-0.16369,0.86984
401.381,22.23027,2.1206,-0.16503,0.86943
401.981,22.24897,2.13493,-0.16605,0.86903
402.581,22.2677,2.15132,-0.16732,0.86862
403.181,22.28639,2.16668,-0.16903,0.86821
403.781,22.30508,2.18283,-0.17072,0.8678
404.381,22.3237,2.19969,-0.17244,0.86739
404.981,22.3424,2.21944,-0.17405,0.86699
405.581,22.36104,2.23969,-0.17507,0.86658
406.181,22.37976,2.26451,-0.17637,0.86617
406.781,22.3983,2.28587,-0.17828,0.86576
407.381,22.41704,2.3095,-0.18015,0.86535
407.981,22.43581,2.33959,-0.18284,0.86494
408.581,22.45453,2.36494,-0.18453,0.86453
409.181,22.4735,2.39425,-0.18651,0.86412
409.781,22.49225,2.4248,-0.18863,0.86371
410.381,22.511,2.45404,-0.19067,0.8633
410.981,22.52982,2.4861,-0.19258,0.86289
411.581,22.54864,2.51909,-0.19526,0.86248
412.181,22.56747,2.54933,-0.19773,0.86207
412.781,22.58624,2.58233,-0.20075,0.86166
413.381,22.605,2.61708,-0.20442,0.86125
413.981,22.62371,2.64919,-0.2073,0.86084
414.581,22.64244,2.68226,-0.21036,0.86043
415.181,22.66122,2.71891,-0.21326,0.86002
415.781,22.68003,2.75402,-0.21652,0.85961
416.381,22.69877,2.78847,-0.21985,0.8592
416.981,22.71761,2.82756,-0.22337,0.85879
417.581,22.7364,2.86653,-0.22768,0.85838
418.181,22.75529,2.90778,-0.23261,0.85797
418.781,22.77419,2.94586,-0.23778,0.85756
419.381,22.793,2.9871,-0.24171,0.85715
419.981,22.81191,3.03983,-0.24633,0.85673
420.581,22.8308,3.07894,-0.2511,0.85632
421.181,22.8496,3.12808,-0.25637,0.85591
421.781,22.86846,3.17067,-0.26197,0.8555
422.381,22.88738,3.21007,-0.2686,0.85509
422.981,22.90624,3.25537,-0.27387,0.85467
423.581,22.92511,3.30046,-0.28042,0.85426
424.181,22.944,3.34706,-0.28581,0.85385
424.781,22.96285,3.39941,-0.29201,0.85344
425.381,22.98169,3.40586,-0.29892,0.85303
425.981,23.0006,3.4159,-0.30551,0.85261
426.581,23.01951,3.42982,-0.31436,0.8522
427.181,23.03847,3.46418,-0.32132,0.85179
427.781,23.05742,3.50468,-0.32964,0.85137
428.381,23.07631,3.53654,-0.33733,0.85096
428.981,23.09518,3.57238,-0.34487,0.85055
429.581,23.11401,3.61385,-0.3539,0.85013
430.181,23.13285,3.65598,-0.36174,0.84972
430.781,23.15178,3.69917,-0.37191,0.84931
431.381,23.1707,3.74295,-0.38059,0.84889
431.981,23.18958,3.79223,-0.3919,0.84848
432.581,23.20851,3.83179,-0.40255,0.84806
433.181,23.22739,3.87343,-0.41197,0.84765
433.781,23.24629,3.91922,-0.4235,0.84724
434.381,23.26517,3.96676,-0.4331,0.84682
434.981,23.28409,4.01342,-0.44534,0.84641
435.581,23.30303,4.05949,-0.45687,0.84599
436.181,23.32199,4.10228,-0.46807,0.84558
436.781,23.34103,4.15219,-0.48157,0.84516
437.381,23.36003,4.20275,-0.49306,0.84475
437.981,23.37905,4.25109,-0.50774,0.84433
438.581,23.39803,4.30025,-0.52036,0.84392
439.181,23.41703,4.35133,-0.53503,0.8435
439.781,23.43601,4.39824,-0.54939,0.84309
440.381,23.45505,4.4496,-0.56301,0.84267
440.981,23.47407,4.50306,-0.57979,0.84225
441.581,23.49305,4.5492,-0.59383,0.84184
442.181,23.51205,4.60046,-0.61247,0.84142
442.781,23.53106,4.65089,-0.62832,0.84101
443.381,23.5501,4.70486,-0.64695,0.84059
443.981,23.56912,4.75266,-0.66549,0.84017
444.581,23.58811,4.80204,-0.68224,0.83976
445.181,23.6071,4.84901,-0.70239,0.83934
445.781,23.62606,4.89555,-0.7189,0.83892
446.381,23.64511,4.94227,-0.73934,0.83851
446.981,23.66411,4.98829,-0.75889,0.83809
447.581,23.68317,5.03484,-0.78041,0.83767
448.181,23.7023,5.07873,-0.80226,0.83726
448.781,23.7213,5.12938,-0.82325,0.83684
449.381,23.74041,5.17385,-0.84778,0.83642
449.981,23.7595,5.21446,-0.86805,0.836
450.581,23.77854,5.25847,-0.894,0.83559
451.181,23.79756,5.2996,-0.91587,0.83517
451.781,23.8167,5.33704,-0.94056,0.83475
452.381,23.8357,5.37335,-0.96547,0.83433
452.981,23.8549,5.40752,-0.98823,0.83392
453.581,23.87398,5.4441,-1.0157,0.8335
454.181,23.89305,5.47681,-1.03943,0.83308
454.781,23.91212,5.50689,-1.06911,0.83266
455.381,23.9312,5.54141,-1.09385,0.83224
455.981,23.9502,5.57339,-1.12188,0.83182
456.581,23.96925,5.60128,-1.1502,0.8314
457.181,23.98834,5.63173,-1.17731,0.83099
457.781,24.00742,5.65669,-1.20922,0.83057
458.381,24.0265,5.68472,-1.23498,0.83015
458.981,24.0457,5.70999,-1.26781,0.82973
459.581,24.0649,5.73387,-1.2951,0.82931
460.181,24.08395,5.76028,-1.32708,0.82889
460.781,24.1031,5.78462,-1.35783,0.82847
461.381,24.12213,5.80429,-1.38783,0.82805
461.981,24.1412,5.82503,-1.42197,0.82763
462.581,24.16031,5.83917,-1.4506,0.82721
463.181,24.17942,5.86235,-1.48661,0.82679
463.781,24.1985,5.87765,-1.51601,0.82637
464.381,24.2177,5.89151,-1.55206,0.82595
464.981,24.23684,5.91211,-1.58505,0.82553
465.581,24.25597,5.92756,-1.61892,0.82511
466.181,24.2751,5.942,-1.65558,0.82469
466.781,24.29416,5.95706,-1.68724,0.82427
467.381,24.3133,5.97368,-1.72677,0.82385
467.981,24.3323,5.98548,-1.75854,0.82343
468.581,24.3514,5.99979,-1.79776,0.82301
469.181,24.3705,6.0089,-1.83223,0.82259
469.781,24.38961,6.01966,-1.86914,0.82217
470.381,24.4087,6.03007,-1.9082,0.82174
470.981,24.42788,6.04083,-1.943,0.82132
471.581,24.44697,6.04485,-1.98446,0.8209
472.181,24.46612,6.05405,-2.0181,0.82048
472.781,24.48526,6.05808,-2.06032,0.82006
473.381,24.50411,6.07219,-2.09698,0.81964
473.981,24.52309,6.07455,-2.13652,0.81921
474.581,24.54211,6.07903,-2.17731,0.81879
475.181,24.56111,6.08564,-2.21316,0.81837
475.781,24.58034,6.08489,-2.25736,0.81795
476.381,24.59946,6.08503,-2.29312,0.81753
476.981,24.61864,6.08926,-2.33885,0.8171
477.581,24.63788,6.09358,-2.37693,0.81668
478.181,24.65713,6.0901,-2.42044,0.81626
478.781,24.67632,6.0821,-2.46186,0.81584
479.381,24.69547,6.07232,-2.50209,0.81541
479.981,24.71463,6.06083,-2.54762,0.81499
480.581,24.73377,6.04691,-2.58546,0.81457
481.181,24.7529,6.02927,-2.63278,0.81414
481.781,24.77197,6.01475,-2.67059,0.81372
482.381,24.79103,5.99357,-2.71572,0.8133
482.981,24.81017,5.96628,-2.75671,0.81287
483.581,24.8293,5.93429,-2.79848,0.81245
484.181,24.8484,5.89765,-2.8436,0.81203
484.781,24.86748,5.85882,-2.88252,0.8116
485.381,24.88651,5.80929,-2.93047,0.81118
485.981,24.90566,5.75857,-2.96819,0.81075
486.581,24.92478,5.69548,-3.01395,0.81033
487.181,24.9438,5.62574,-3.05329,0.80991
487.781,24.96294,5.54802,-3.09497,0.80948
488.381,24.98201,5.46379,-3.13828,0.80906
488.981,25.0011,5.37162,-3.17592,0.80863
489.581,25.0201,5.27174,-3.22085,0.80821
490.181,25.03916,5.16794,-3.25594,0.80778
490.781,25.05816,5.05585,-3.29965,0.80736
491.381,25.0772,4.93805,-3.33602,0.80693
491.981,25.0962,4.81411,-3.37381,0.80651
492.581,25.11524,4.68586,-3.41272,0.80608
493.181,25.1342,4.54609,-3.44552,0.80566
493.781,25.15319,4.40053,-3.485,0.80523
494.381,25.1722,4.25202,-3.51582,0.80481
494.981,25.19114,4.09351,-3.55225,0.80438
495.581,25.21014,3.9276,-3.58366,0.80396
496.181,25.22907,3.75441,-3.61391,0.80353
496.781,25.24796,3.57971,-3.64647,0.80311
497.381,25.26686,3.39751,-3.67094,0.80268
497.981,25.2857,3.21312,-3.70167,0.80225
498.581,25.30451,3.02567,-3.72471,0.80183
499.181,25.32327,2.83653,-3.74879,0.8014
499.781,25.34215,2.64805,-3.77356,0.80097
500.381,25.36102,2.46174,-3.79266,0.80055
500.981,25.37991,2.27696,-3.8149,0.80012
501.581,25.39884,2.09914,-3.83129,0.7997
502.181,25.41759,1.93028,-3.8496,0.79927
502.781,25.43635,1.7685,-3.8646,0.79884
503.381,25.45513,1.6123,-3.87762,0.79841
503.981,25.47395,1.46767,-3.8918,0.79799
504.581,25.49277,1.33432,-3.9019,0.79756
505.181,25.51163,1.21277,-3.91328,0.79713
505.781,25.53046,1.09856,-3.92162,0.79671
506.381,25.54928,0.99994,-3.9296,0.79628
506.981,25.56814,0.9076,-3.9374,0.79585
507.581,25.58695,0.82462,-3.94308,0.79542
508.181,25.60582,0.75058,-3.94972,0.795
508.781,25.62461,0.68623,-3.95459,0.79457
509.381,25.64347,0.6287,-3.96005,0.79414
509.981,25.6623,0.57485,-3.96449,0.79371
510.581,25.6812,0.52768,-3.96903,0.79328
511.181,25.70008,0.48949,-3.97185,0.79286
511.781,25.71894,0.45425,-3.97458,0.79243
512.381,25.73777,0.42233,-3.97773,0.792
512.981,25.75678,0.39359,-3.98077,0.79157
513.581,25.77589,0.37116,-3.98301,0.79114
514.181,25.79498,0.35167,-3.98416,0.79071
514.781,25.81413,0.3307,-3.9848,0.79028
515.381,25.83318,0.3134,-3.98543,0.78986
515.981,25.85216,0.29723,-3.98653,0.78943
516.581,25.87118,0.28637,-3.98817,0.789
517.181,25.89027,0.2742,-3.98867,0.78857
517.781,25.9093,0.26326,-3.98916,0.78814
518.381,25.92834,0.25796,-3.99013,0.78771
518.981,25.94741,0.25074,-3.99173,0.78728
519.581,25.96649,0.24209,-3.99169,0.78685
520.181,25.98563,0.23775,-3.99194,0.78642
520.781,26.00478,0.23456,-3.99302,0.78599
521.381,26.02388,0.22679,-3.99301,0.78556
521.981,26.04301,0.22512,-3.99301,0.78513
522.581,26.06213,0.22285,-3.993,0.7847
523.181,26.08128,0.21782,-3.9941,0.78427
523.781,26.10044,0.2138,-3.99433,0.78384
524.381,26.11962,0.21395,-3.99433,0.78341
524.981,26.13881,0.21062,-3.99432,0.78298
525.581,26.15802,0.21117,-3.9956,0.78255
526.181,26.17726,0.20949,-3.99565,0.78212
526.781,26.19647,0.2074,-3.99565,0.78169
527.381,26.2157,0.20667,-3.99565,0.78126
527.981,26.23485,0.2075,-3.99566,0.78083
528.581,26.25406,0.20532,-3.99639,0.7804
529.181,26.27328,0.20525,-3.99696,0.77997
529.781,26.29255,0.20558,-3.99696,0.77954
530.381,26.31182,0.20398,-3.99674,0.7791
530.981,26.33103,0.20439,-3.99601,0.77867
531.581,26.3503,0.20397,-3.99695,0.77824
532.181,26.3695,0.20378,-3.99696,0.77781
532.781,26.38885,0.20694,-3.99696,0.77738
533.381,26.4082,0.20326,-3.99706,0.77695
533.981,26.42755,0.20477,-3.99827,0.77651
534.581,26.44687,0.20484,-3.99828,0.77608
535.181,26.46617,0.20615,-3.99828,0.77565
535.781,26.4855,0.2057,-3.99828,0.77522
536.381,26.5048,0.20497,-3.99828,0.77479
536.981,26.5241,0.20675,-3.99843,0.77435
537.581,26.54342,0.20626,-4.00029,0.77392
538.181,26.56277,0.20855,-4.00091,0.77349
538.781,26.58212,0.21239,-4.00085,0.77306
539.381,26.60142,0.21451,-3.99957,0.77262
539.981,26.6207,0.21534,-3.99959,0.77219
540.581,26.64,0.2174,-3.99959,0.77176
541.181,26.6593,0.22301,-3.99959,0.77133
541.781,26.67867,0.22218,-3.99959,0.77089
542.381,26.6979,0.2238,-3.99959,0.77046
542.981,26.71714,0.2254,-3.99975,0.77003
543.581,26.7364,0.22651,-4.00024,0.76959
544.181,26.75559,0.22619,-4.00025,0.76916
544.781,26.77494,0.23036,-4.00025,0.76873
545.381,26.7943,0.23231,-4.00025,0.76829
545.981,26.8137,0.22994,-4.00025,0.76786
546.581,26.8331,0.23279,-4.00025,0.76743
547.181,26.8525,0.22971,-4.00023,0.76699
547.781,26.8719,0.23312,-4.00092,0.76656
548.381,26.89128,0.23268,-4.00091,0.76613
548.981,26.9107,0.2324,-4.00091,0.76569
549.581,26.9301,0.23326,-4.00091,0.76526
550.181,26.94952,0.23473,-4.00091,0.76482
550.781,26.9689,0.2354,-4.00091,0.76439
551.381,26.9883,0.23361,-4.00091,0.76396
551.981,27.0077,0.2339,-4.00091,0.76352
552.581,27.0272,0.23419,-4.00091,0.76309
553.181,27.04665,0.23645,-4.00091,0.76265
553.781,27.06618,0.2394,-3.99994,0.76222
554.381,27.0857,0.23828,-3.99993,0.76178
554.981,27.1052,0.23645,-3.99993,0.76135
555.581,27.12479,0.23717,-3.99993,0.76091
556.181,27.1442,0.23448,-3.99993,0.76048
556.781,27.16367,0.23703,-3.99993,0.76004
557.381,27.18315,0.23648,-4.00056,0.75961
557.981,27.20252,0.23651,-4.00123,0.75917
558.581,27.222,0.2363,-4.00124,0.75874
559.181,27.24147,0.23625,-4.00124,0.7583
559.781,27.26098,0.23346,-4.00124,0.75787
560.381,27.28047,0.23558,-4.00124,0.75743
560.981,27.2999,0.234,-4.00124,0.75699
561.581,27.3194,0.23558,-4.00124,0.75656
562.181,27.3388,0.23389,-4.00124,0.75612
562.781,27.35828,0.23501,-4.00124,0.75569
563.381,27.37775,0.23337,-4.00124,0.75525
563.981,27.39722,0.23323,-4.00124,0.75481
564.581,27.41674,0.2329,-4.00124,0.75438
565.181,27.43621,0.23255,-4.00124,0.75394
565.781,27.45569,0.23242,-4.00124,0.75351
566.381,27.4752,0.23029,-4.00124,0.75307
566.981,27.49473,0.23133,-4.00124,0.75263
567.581,27.51422,0.23249,-4.00124,0.7522
568.181,27.5338,0.23138,-4.00124,0.75176
568.781,27.55327,0.23205,-4.00124,0.75132
569.381,27.57276,0.23134,-4.0025,0.75089
569.981,27.5923,0.23002,-4.00322,0.75045
570.581,27.61178,0.2303,-4.00321,0.75001
571.181,27.63128,0.23062,-4.00424,0.74957
571.781,27.65083,0.22689,-4.0042,0.74914
572.381,27.6704,0.22742,-4.0042,0.7487
572.981,27.68992,0.22644,-4.0042,0.74826
573.581,27.7095,0.22605,-4.0042,0.74783
574.181,27.729,0.2266,-4.00416,0.74739
574.781,27.7485,0.22708,-4.00556,0.74695
575.381,27.76803,0.22594,-4.00551,0.74651
575.981,27.7875,0.2227,-4.00551,0.74608
576.581,27.80701,0.2245,-4.00551,0.74564
577.181,27.8265,0.22313,-4.00583,0.7452
577.781,27.84607,0.22625,-4.00617,0.74476
578.381,27.8656,0.22435,-4.00617,0.74432
578.981,27.88518,0.2258,-4.00617,0.74389
579.581,27.9047,0.22173,-4.00617,0.74345
580.181,27.9243,0.22489,-4.00617,0.74301
580.781,27.9439,0.22135,-4.00619,0.74257
581.381,27.96343,0.2209,-4.00496,0.74213
581.981,27.98297,0.21942,-4.00486,0.74169
582.581,28.00249,0.22056,-4.00486,0.74125
583.181,28.022,0.21971,-4.00486,0.74082
583.781,28.0416,0.2207,-4.00486,0.74038
584.381,28.0612,0.2218,-4.00486,0.73994
584.981,28.08077,0.22012,-4.00486,0.7395
585.581,28.10037,0.22071,-4.00486,0.73906
586.181,28.11989,0.21721,-4.00486,0.73862
586.781,28.13945,0.21619,-4.00486,0.73818
587.381,28.159,0.21523,-4.00486,0.73774
587.981,28.17861,0.21637,-4.00486,0.7373
588.581,28.19823,0.21271,-4.00486,0.73686
589.181,28.2179,0.21529,-4.00486,0.73642
589.781,28.23742,0.21543,-4.00486,0.73599
590.381,28.2571,0.21425,-4.00486,0.73555
590.981,28.2767,0.21278,-4.00484,0.73511
591.581,28.29637,0.21469,-4.00555,0.73467
592.181,28.316,0.2095,-4.00552,0.73423
592.781,28.33557,0.20822,-4.00552,0.73379
593.381,28.35512,0.20781,-4.00552,0.73335
593.981,28.37472,0.20836,-4.00552,0.73291
594.581,28.39436,0.20842,-4.00552,0.73247
595.181,28.41402,0.20962,-4.00552,0.73203
595.781,28.4337,0.21137,-4.00552,0.73159
596.381,28.4534,0.20791,-4.00552,0.73115
596.981,28.47304,0.20756,-4.00684,0.7307
597.581,28.4927,0.20721,-4.00814,0.73026
598.181,28.51237,0.20748,-4.00815,0.72982
598.781,28.532,0.20703,-4.00815,0.72938
599.381,28.55167,0.20852,-4.00815,0.72894
599.981,28.57126,0.21154,-4.00816,0.7285
600.581,28.59085,0.20959,-4.00928,0.72806
601.181,28.6105,0.20691,-4.00946,0.72762
601.781,28.63015,0.20975,-4.00946,0.72718
602.381,28.6498,0.20681,-4.00946,0.72674
602.981,28.66947,0.20843,-4.00945,0.7263
603.581,28.68917,0.20804,-4.00851,0.72585
604.181,28.7088,0.206,-4.00815,0.72541
604.781,28.7284,0.21083,-4.00815,0.72497
605.381,28.74812,0.21247,-4.00815,0.72453
605.981,28.7678,0.21277,-4.00815,0.72409
606.581,28.78746,0.21062,-4.00815,0.72365
607.181,28.8071,0.20803,-4.00815,0.72321
607.781,28.8268,0.2103,-4.00815,0.72276
608.381,28.8464,0.20919,-4.00815,0.72232
608.981,28.8661,0.20697,-4.00815,0.72188
609.581,28.8858,0.20714,-4.00815,0.72144
610.181,28.9055,0.21094,-4.00815,0.721
610.781,28.92513,0.21395,-4.00815,0.72055
611.381,28.94485,0.21034,-4.00815,0.72011
611.981,28.9646,0.21102,-4.00833,0.71967
612.581,28.98428,0.20746,-4.00948,0.71923
613.181,29.00398,0.21091,-4.00947,0.71878
613.781,29.0236,0.21106,-4.00947,0.71834
614.381,29.04325,0.21,-4.00947,0.7179
614.981,29.06297,0.20924,-4.00947,0.71746
615.581,29.08265,0.20783,-4.00947,0.71701
616.181,29.1024,0.20962,-4.00947,0.71657
616.781,29.12218,0.2101,-4.00947,0.71613
617.381,29.1419,0.20734,-4.00939,0.71569
617.981,29.16163,0.20963,-4.00914,0.71524
618.581,29.1814,0.2113,-4.00914,0.7148
619.181,29.20105,0.20824,-4.00914,0.71436
619.781,29.22076,0.20906,-4.00914,0.71391
620.381,29.2405,0.2083,-4.00914,0.71347
620.981,29.2602,0.2098,-4.00914,0.71303
621.581,29.27995,0.20756,-4.00914,0.71258
622.181,29.29975,0.20892,-4.00914,0.71214
622.781,29.3194,0.21096,-4.00914,0.7117
623.381,29.3392,0.20835,-4.01005,0.71125
623.981,29.3589,0.20858,-4.01069,0.71081
624.581,29.37862,0.20778,-4.01178,0.71037
625.181,29.39855,0.21084,-4.01177,0.70992
625.781,29.41832,0.211,-4.01177,0.70948
626.381,29.4381,0.21072,-4.01177,0.70903
626.981,29.4577,0.20615,-4.01177,0.70859
627.581,29.47734,0.21,-4.01177,0.70815
628.181,29.4969,0.20791,-4.01177,0.7077
628.781,29.51656,0.20782,-4.01175,0.70726
629.381,29.53633,0.20664,-4.01295,0.70681
629.981,29.5561,0.20392,-4.01308,0.70637
630.581,29.5759,0.20467,-4.01308,0.70592
631.181,29.5957,0.20458,-4.01308,0.70548
631.781,29.6156,0.20215,-4.01261,0.70504
632.381,29.63552,0.20213,-4.01242,0.70459
632.981,29.6555,0.19934,-4.01228,0.70415
633.581,29.6753,0.20358,-4.01112,0.7037
634.181,29.6951,0.20189,-4.01111,0.70326
634.781,29.71487,0.20203,-4.01112,0.70281
635.381,29.7346,0.19951,-4.01183,0.70237
635.981,29.75442,0.20289,-4.01256,0.70192
636.581,29.7742,0.20097,-4.01309,0.70148
637.181,29.79402,0.1993,-4.01309,0.70103
637.781,29.8138,0.20049,-4.01309,0.70059
638.381,29.83362,0.20114,-4.01309,0.70014
638.981,29.85342,0.20091,-4.01309,0.6997
639.581,29.8732,0.19863,-4.01309,0.69925
640.181,29.893,0.20104,-4.01309,0.69881
640.781,29.91283,0.20176,-4.01308,0.69836
641.381,29.93263,0.20178,-4.01181,0.69791
641.981,29.9524,0.20115,-4.01177,0.69747
642.581,29.9723,0.2059,-4.01267,0.69702
643.181,29.99215,0.20164,-4.01309,0.69658
643.781,30.01197,0.2003,-4.01309,0.69613
644.381,30.03179,0.20049,-4.01309,0.69569
644.981,30.05162,0.20733,-4.01309,0.69524
645.581,30.07149,0.20333,-4.01309,0.69479
646.181,30.0914,0.20584,-4.01309,0.69435
646.781,30.11119,0.20417,-4.01309,0.6939
647.381,30.131,0.20573,-4.01309,0.69346
647.981,30.15083,0.20879,-4.01309,0.69301
648.581,30.1707,0.20539,-4.01309,0.69256
649.181,30.1905,0.20363,-4.01304,0.69212
649.781,30.2103,0.21044,-4.01445,0.69167
650.381,30.2301,0.20649,-4.01441,0.69122
650.981,30.2499,0.20884,-4.01441,0.69078
651.581,30.26965,0.20949,-4.01441,0.69033
652.181,30.28947,0.21191,-4.01441,0.68988
652.781,30.3093,0.20892,-4.01441,0.68944
653.381,30.3291,0.20778,-4.01441,0.68899
653.981,30.349,0.21229,-4.01499,0.68854
654.581,30.3689,0.21307,-4.01539,0.6881
655.181,30.3887,0.21017,-4.01539,0.68765
655.781,30.4086,0.2109,-4.01537,0.6872
656.381,30.4284,0.21224,-4.01571,0.68676
656.981,30.44827,0.21021,-4.01572,0.68631
657.581,30.46807,0.21069,-4.01572,0.68586
658.181,30.48787,0.21061,-4.01572,0.68542
658.781,30.5077,0.20985,-4.01572,0.68497
659.381,30.5274,0.21556,-4.0147,0.68452
659.981,30.54707,0.21424,-4.01473,0.68407
660.581,30.56689,0.21466,-4.01473,0.68363
661.181,30.5867,0.21621,-4.01473,0.68318
661.781,30.60678,0.21491,-4.01473,0.68273
662.381,30.62685,0.21655,-4.01473,0.68228
662.981,30.64668,0.21637,-4.01572,0.68184
663.581,30.6665,0.21682,-4.01605,0.68139
664.181,30.68637,0.21562,-4.01605,0.68094
664.781,30.70621,0.21693,-4.01605,0.68049
665.381,30.7261,0.21866,-4.01605,0.68004
665.981,30.74601,0.22031,-4.01604,0.6796
666.581,30.76588,0.21897,-4.01705,0.67915
667.181,30.7857,0.21924,-4.01704,0.6787
667.781,30.8056,0.22238,-4.01678,0.67825
668.381,30.8254,0.21991,-4.01638,0.6778
668.981,30.84525,0.22061,-4.0164,0.67736
669.581,30.86512,0.22031,-4.0157,0.67691
670.181,30.88502,0.22109,-4.01489,0.67646
670.781,30.9048,0.22369,-4.0144,0.67601
671.381,30.9247,0.22501,-4.0144,0.67556
671.981,30.94466,0.22257,-4.0144,0.67511
672.581,30.96459,0.2242,-4.0144,0.67467
673.181,30.98453,0.22084,-4.0144,0.67422
673.781,31.00435,0.2225,-4.01441,0.67377
674.381,31.02416,0.22994,-4.01515,0.67332
674.981,31.044,0.22697,-4.01572,0.67287
675.581,31.06387,0.22764,-4.01572,0.67242
676.181,31.08375,0.22977,-4.01572,0.67197
676.781,31.1036,0.2311,-4.01572,0.67152
677.381,31.12343,0.23124,-4.01572,0.67108
677.981,31.1433,0.2304,-4.01572,0.67063
678.581,31.1632,0.23084,-4.01572,0.67018
679.181,31.18314,0.22979,-4.01557,0.66973
679.781,31.20308,0.22985,-4.01539,0.66928
680.381,31.22295,0.23092,-4.01539,0.66883
680.981,31.2428,0.23087,-4.01539,0.66838
681.581,31.26274,0.23103,-4.01539,0.66793
682.181,31.2827,0.23122,-4.01539,0.66748
682.781,31.30255,0.23674,-4.0154,0.66703
683.381,31.3224,0.2371,-4.01641,0.66658
683.981,31.3422,0.23882,-4.01723,0.66613
684.581,31.3621,0.2373,-4.01964,0.66568
685.181,31.382,0.23492,-4.01953,0.66523
685.781,31.40188,0.23772,-4.0179,0.66479
686.381,31.4218,0.23927,-4.01636,0.66434
686.981,31.4417,0.23717,-4.01627,0.66389
687.581,31.46159,0.23795,-4.01508,0.66344
688.181,31.4815,0.2393,-4.01507,0.66299
688.781,31.5014,0.2398,-4.01516,0.66254
689.381,31.5213,0.23709,-4.01637,0.66209
689.981,31.54128,0.24101,-4.01638,0.66164
690.581,31.5612,0.24347,-4.01638,0.66119
691.181,31.58107,0.24386,-4.01638,0.66074
691.781,31.601,0.24189,-4.01595,0.66029
692.381,31.6208,0.24035,-4.01539,0.65984
692.981,31.6405,0.24365,-4.01539,0.65939
693.581,31.6604,0.24161,-4.01539,0.65894
694.181,31.68031,0.24456,-4.01539,0.65849
694.781,31.7004,0.24162,-4.01539,0.65804
695.381,31.7204,0.24197,-4.01539,0.65758
695.981,31.7404,0.24028,-4.01539,0.65713
696.581,31.7603,0.24222,-4.01539,0.65668
697.181,31.78023,0.24416,-4.01539,0.65623
697.781,31.80017,0.2432,-4.01539,0.65578
698.381,31.8201,0.24147,-4.01539,0.65533
698.981,31.84,0.24645,-4.01539,0.65488
699.581,31.85993,0.2463,-4.01571,0.65443
700.181,31.87981,0.2454,-4.01638,0.65398
700.781,31.8997,0.24363,-4.01638,0.65353
701.381,31.9197,0.24575,-4.01638,0.65308
701.981,31.93964,0.24481,-4.0167,0.65263
702.581,31.9596,0.24843,-4.01671,0.65218
703.181,31.9796,0.24787,-4.01641,0.65173
703.781,31.99956,0.24423,-4.01605,0.65128
704.381,32.01956,0.24686,-4.01605,0.65082
704.981,32.03954,0.24587,-4.01605,0.65037
705.581,32.0595,0.24942,-4.01605,0.64992
706.181,32.0794,0.25175,-4.01605,0.64947
706.781,32.0993,0.2507,-4.01605,0.64902
707.381,32.11926,0.25331,-4.01605,0.64857
707.981,32.13921,0.25138,-4.01606,0.64812
708.581,32.15918,0.25064,-4.01639,0.64767
709.181,32.1792,0.25238,-4.01638,0.64721
709.781,32.19915,0.25786,-4.01635,0.64676
710.381,32.21911,0.25593,-4.01771,0.64631
710.981,32.23911,0.25715,-4.0177,0.64586
711.581,32.25907,0.25876,-4.0177,0.64541
712.181,32.2791,0.25749,-4.0177,0.64496
712.781,32.29911,0.2608,-4.0177,0.64451
713.381,32.3191,0.26135,-4.0177,0.64405
713.981,32.33912,0.26075,-4.0177,0.6436
714.581,32.3591,0.25944,-4.0177,0.64315
715.181,32.37908,0.26192,-4.0177,0.6427
715.781,32.39901,0.26477,-4.0177,0.64225
716.381,32.419,0.26132,-4.0177,0.6418
716.981,32.439,0.26136,-4.0177,0.64134
717.581,32.45892,0.26441,-4.01769,0.64089
718.181,32.47896,0.26621,-4.01644,0.64044
718.781,32.4989,0.26496,-4.01638,0.63999
719.381,32.51896,0.2672,-4.01638,0.63954
719.981,32.539,0.2688,-4.01638,0.63908
720.581,32.55895,0.26935,-4.01638,0.63863
721.181,32.57901,0.26775,-4.01638,0.63818
721.781,32.599,0.26758,-4.01638,0.63773
722.381,32.61903,0.27225,-4.01638,0.63728
722.981,32.63901,0.27532,-4.01638,0.63682
723.581,32.65903,0.27412,-4.01638,0.63637
724.181,32.67907,0.27258,-4.01638,0.63592
724.781,32.69916,0.27311,-4.01638,0.63547
725.381,32.7192,0.27598,-4.01638,0.63501
725.981,32.73921,0.2752,-4.01635,0.63456
726.581,32.7592,0.2784,-4.0177,0.63411
727.181,32.77919,0.27888,-4.01677,0.63366
727.781,32.7992,0.28135,-4.01637,0.6332
728.381,32.81924,0.28108,-4.01637,0.63275
728.981,32.8393,0.27886,-4.01637,0.6323
729.581,32.85923,0.28176,-4.01637,0.63185
730.181,32.8792,0.28018,-4.01637,0.63139
730.781,32.89917,0.2838,-4.01637,0.63094
731.381,32.91912,0.28245,-4.01637,0.63049
731.981,32.9392,0.28094,-4.01637,0.63004
732.581,32.95909,0.27937,-4.01637,0.62958
733.181,32.97898,0.28247,-4.01637,0.62913
733.781,32.99888,0.28007,-4.01637,0.62868
734.381,33.01882,0.28148,-4.01637,0.62823
734.981,33.0388,0.27689,-4.01637,0.62777
735.581,33.05885,0.2806,-4.01613,0.62732
736.181,33.07887,0.28136,-4.01505,0.62687
736.781,33.09891,0.28345,-4.01502,0.62641
737.381,33.11894,0.27773,-4.01603,0.62596
737.981,33.13899,0.27746,-4.01638,0.62551
738.581,33.15907,0.28087,-4.01638,0.62506
739.181,33.17902,0.27861,-4.01638,0.6246
739.781,33.19918,0.27985,-4.01638,0.62415
740.381,33.21931,0.28219,-4.01638,0.6237
740.981,33.2395,0.27947,-4.01638,0.62324
741.581,33.25958,0.28266,-4.01638,0.62279
742.181,33.2796,0.28059,-4.01638,0.62234
742.781,33.2996,0.27959,-4.01668,0.62188
743.381,33.31968,0.2821,-4.0177,0.62143
743.781,33.33316,0.27736,-4.0177,0.62113