File: 01_Data/Bean_Bag_Chair_Beads/STA/N2/3K_min/Bean_Bag_Chair_Beads_STA_N2_3KData_220517_R1.csv
##Temp./Â°C,Time/min,Mass loss(subtr.2)/mg,DSC(subtr.2)/(mW/mg),Sensit./(uV/mW)
50.249,10.01667,0.01668,0.008041771,1.05674
50.649,10.92338,0.01762957,0.02743354,1.0567
51.049,11.21834,0.01798644,0.03972833,1.05666
51.449,11.44599,0.01957799,0.04651097,1.05661
51.849,11.64343,0.01846358,0.05361236,1.05657
52.249,11.82488,0.01963941,0.06026341,1.05652
52.649,11.9961,0.01958266,0.06253232,1.05648
53.049,12.16155,0.01834972,0.06635657,1.05643
53.449,12.32294,0.01880578,0.06553678,1.05638
53.849,12.48146,0.01964975,0.06807938,1.05634
54.249,12.6371,0.01940066,0.06964317,1.05629
54.649,12.7908,0.01832679,0.07123167,1.05624
55.049,12.9431,0.01964952,0.07116872,1.0562
55.449,13.09324,0.02095737,0.07399624,1.05615
55.849,13.2434,0.02231508,0.07453736,1.0561
56.249,13.39153,0.02194995,0.0757437,1.05606
56.649,13.53775,0.02220904,0.07699164,1.05601
57.049,13.6833,0.02097061,0.07636446,1.05596
57.449,13.82841,0.02103041,0.07591974,1.05591
57.849,13.9716,0.02137614,0.07795149,1.05586
58.249,14.11483,0.02030175,0.0783463,1.05581
58.649,14.2589,0.02452877,0.07743187,1.05576
59.049,14.401,0.02191227,0.07848585,1.05571
59.449,14.5418,0.02416723,0.07994121,1.05566
59.849,14.6829,0.02436821,0.08123083,1.05561
60.249,14.8216,0.02241334,0.07841196,1.05556
60.649,14.9609,0.02368372,0.07961027,1.05551
61.049,15.10056,0.02374171,0.07858781,1.05546
61.449,15.2386,0.02380395,0.07879248,1.05541
61.849,15.3776,0.02384692,0.08017139,1.05536
62.249,15.51736,0.0247247,0.07941793,1.05531
62.649,15.6552,0.02338017,0.08034182,1.05526
63.049,15.79195,0.0247376,0.08084223,1.05521
63.449,15.92961,0.02436691,0.08222748,1.05515
63.849,16.06547,0.02465011,0.08182226,1.0551
64.249,16.20215,0.02599711,0.08283887,1.05505
64.649,16.33854,0.02532687,0.08067613,1.055
65.049,16.47571,0.02442111,0.08147386,1.05494
65.449,16.6107,0.02642158,0.08268769,1.05489
65.849,16.7481,0.0259217,0.08377624,1.05484
66.249,16.88425,0.02502854,0.08327305,1.05478
66.649,17.01984,0.0263492,0.08395398,1.05473
67.049,17.15594,0.02505708,0.08401652,1.05467
67.449,17.29286,0.0264606,0.08490237,1.05462
67.849,17.4278,0.02770435,0.08560859,1.05456
68.249,17.56264,0.0282533,0.08429848,1.05451
68.649,17.69768,0.02722417,0.08472331,1.05445
69.049,17.8321,0.02853962,0.08503677,1.0544
69.449,17.96639,0.02985929,0.08542162,1.05434
69.849,18.10086,0.02916838,0.08691314,1.05428
70.249,18.23488,0.02889585,0.08933642,1.05423
70.649,18.3695,0.02742694,0.08816155,1.05417
71.049,18.5033,0.02679135,0.08802567,1.05411
71.449,18.63746,0.02679067,0.08910258,1.05406
71.849,18.77228,0.02746133,0.08761143,1.054
72.249,18.9074,0.02876398,0.08937444,1.05394
72.649,19.04245,0.02834804,0.09003214,1.05388
73.049,19.17783,0.02837199,0.09000398,1.05382
73.449,19.3129,0.02876021,0.0905683,1.05376
73.849,19.4468,0.02876556,0.09132237,1.05371
74.249,19.5808,0.02744004,0.09174078,1.05365
74.649,19.71426,0.02744013,0.09191374,1.05359
75.049,19.84786,0.02875085,0.0929694,1.05353
75.449,19.98133,0.02876,0.09298673,1.05347
75.849,20.11535,0.02908502,0.09366886,1.05341
76.249,20.24899,0.02876,0.09470758,1.05335
76.649,20.383,0.0300644,0.09340387,1.05329
77.049,20.51691,0.03007976,0.09306958,1.05322
77.449,20.65121,0.02943279,0.09306987,1.05316
77.849,20.78506,0.02811228,0.09326554,1.0531
78.249,20.9186,0.02909007,0.09236021,1.05304
78.649,21.0519,0.02780619,0.09188057,1.05298
79.049,21.1859,0.02853385,0.09073197,1.05292
79.449,21.31935,0.02780739,0.09270187,1.05285
79.849,21.45281,0.02886743,0.09017213,1.05279
80.249,21.58735,0.0307596,0.09245547,1.05273
80.649,21.72188,0.03073234,0.09147505,1.05266
81.049,21.85535,0.02941119,0.09132987,1.0526
81.449,21.98904,0.02810187,0.08895452,1.05254
81.849,22.12267,0.02919749,0.0863927,1.05247
82.249,22.25666,0.02908992,0.08783184,1.05241
82.649,22.39078,0.02816945,0.08738132,1.05234
83.049,22.52436,0.02811418,0.08688312,1.05228
83.449,22.6586,0.03058293,0.08717607,1.05221
83.849,22.79307,0.03305434,0.0871572,1.05215
84.249,22.9267,0.02941325,0.08730974,1.05208
84.649,23.0593,0.03007894,0.08940978,1.05202
85.049,23.19286,0.03072421,0.08883777,1.05195
85.449,23.3259,0.03170352,0.08854928,1.05188
85.849,23.4582,0.03072084,0.08887339,1.05182
86.249,23.59066,0.03073024,0.08817224,1.05175
86.649,23.72391,0.02965152,0.08874799,1.05168
87.049,23.8567,0.03071716,0.08795074,1.05161
87.449,23.98917,0.02974449,0.08937939,1.05155
87.849,24.12256,0.03106347,0.08699935,1.05148
88.249,24.25574,0.03138983,0.0886255,1.05141
88.649,24.38879,0.03006547,0.08751884,1.05134
89.049,24.52232,0.03139799,0.08850778,1.05127
89.449,24.65609,0.03025655,0.08824518,1.0512
89.849,24.78942,0.03137949,0.08832887,1.05113
90.249,24.92282,0.03131962,0.08888675,1.05106
90.649,25.05669,0.03206003,0.08926726,1.05099
91.049,25.18967,0.03228467,0.08913946,1.05092
91.449,25.32256,0.03107973,0.08899425,1.05085
91.849,25.45557,0.03105345,0.08988129,1.05078
92.249,25.58869,0.03106,0.09085943,1.05071
92.649,25.72126,0.03106075,0.09085492,1.05064
93.049,25.85474,0.03068071,0.09066149,1.05057
93.449,25.98796,0.03041065,0.09167657,1.0505
93.849,26.1218,0.03041,0.09066652,1.05043
94.249,26.2552,0.03041435,0.09024143,1.05035
94.649,26.3884,0.02904663,0.09194572,1.05028
95.049,26.5213,0.03116392,0.09253602,1.05021
95.449,26.65428,0.03097624,0.09337751,1.05013
95.849,26.7871,0.0285562,0.09536935,1.05006
96.249,26.9191,0.03106406,0.09534727,1.04999
96.649,27.0519,0.02975013,0.09573398,1.04991
97.049,27.18443,0.03040568,0.09742255,1.04984
97.449,27.317,0.03240514,0.09678906,1.04976
97.849,27.4495,0.03107125,0.0978522,1.04969
98.249,27.5823,0.02974991,0.09822827,1.04962
98.649,27.715,0.02875896,0.10064,1.04954
99.049,27.84791,0.02975176,0.10115,1.04946
99.449,27.9809,0.02976203,0.10343,1.04939
99.849,28.1141,0.03039827,0.09997996,1.04931
100.249,28.24683,0.02940248,0.10172,1.04924
100.649,28.37932,0.02601479,0.10327,1.04916
101.049,28.5117,0.02968633,0.10437,1.04908
101.449,28.6435,0.0344509,0.10492,1.04901
101.849,28.77556,0.03115543,0.10371,1.04893
102.249,28.9077,0.02854353,0.10455,1.04885
102.649,29.04068,0.02942599,0.10734,1.04877
103.049,29.1736,0.02997387,0.10546,1.04869
103.449,29.3068,0.02859235,0.1086,1.04862
103.849,29.43937,0.02879852,0.1092,1.04854
104.249,29.5726,0.02875996,0.10809,1.04846
104.649,29.705,0.03021724,0.10793,1.04838
105.049,29.83662,0.03008296,0.10873,1.0483
105.449,29.96854,0.02909495,0.10884,1.04822
105.849,30.10022,0.03171997,0.10956,1.04814
106.249,30.23129,0.03041499,0.10988,1.04806
106.649,30.36307,0.03106297,0.10961,1.04798
107.049,30.4955,0.03106047,0.10868,1.0479
107.449,30.62792,0.02986711,0.10964,1.04782
107.849,30.76023,0.03242058,0.10995,1.04773
108.249,30.8928,0.03119806,0.11063,1.04765
108.649,31.0252,0.02975638,0.10978,1.04757
109.049,31.15682,0.02824208,0.11133,1.04749
109.449,31.28833,0.03028166,0.10947,1.04741
109.849,31.4203,0.0302889,0.10964,1.04732
110.249,31.55213,0.02758433,0.11092,1.04724
110.649,31.68331,0.02897881,0.11019,1.04716
111.049,31.81506,0.03030007,0.11139,1.04707
111.449,31.94622,0.03162065,0.11146,1.04699
111.849,32.07765,0.03030188,0.11254,1.04691
112.249,32.2089,0.0290029,0.11282,1.04682
112.649,32.3393,0.03075286,0.11231,1.04674
113.049,32.4707,0.02973609,0.11219,1.04665
113.449,32.60259,0.02961514,0.11165,1.04657
113.849,32.73454,0.03095012,0.1099,1.04648
114.249,32.8666,0.03227023,0.10883,1.0464
114.649,32.99969,0.02942131,0.11117,1.04631
115.049,33.13196,0.03199835,0.11166,1.04622
115.449,33.26382,0.02930774,0.11036,1.04614
115.849,33.39605,0.03058431,0.1119,1.04605
116.249,33.52775,0.02995198,0.10991,1.04596
116.649,33.65985,0.02940128,0.10954,1.04587
117.049,33.79224,0.02798509,0.10903,1.04579
117.449,33.92492,0.02865285,0.10925,1.0457
117.849,34.05733,0.02974494,0.10979,1.04561
118.249,34.1895,0.02929355,0.11185,1.04552
118.649,34.32183,0.02790205,0.11091,1.04543
119.049,34.4532,0.03062855,0.1106,1.04534
119.449,34.5852,0.02930973,0.11204,1.04526
119.849,34.71672,0.02931036,0.1104,1.04517
120.249,34.84924,0.02734726,0.11096,1.04508
120.649,34.98158,0.02601996,0.11132,1.04499
121.049,35.11462,0.02693103,0.11171,1.0449
121.449,35.24654,0.02831843,0.11248,1.0448
121.849,35.37892,0.02836593,0.11217,1.04471
122.249,35.51044,0.02864998,0.11493,1.04462
122.649,35.6419,0.02807717,0.11303,1.04453
123.049,35.77256,0.02830257,0.11238,1.04444
123.449,35.90397,0.02700686,0.11409,1.04435
123.849,36.03496,0.02835496,0.11373,1.04425
124.249,36.16578,0.02734105,0.11382,1.04416
124.649,36.29672,0.02756006,0.11322,1.04407
125.049,36.42791,0.02833007,0.11267,1.04398
125.449,36.55887,0.02688928,0.11401,1.04388
125.849,36.6898,0.02576075,0.1121,1.04379
126.249,36.82135,0.02568099,0.1146,1.04369
126.649,36.9525,0.02651414,0.11315,1.0436
127.049,37.0844,0.02705544,0.11402,1.04351
127.449,37.2161,0.02799009,0.1142,1.04341
127.849,37.34791,0.02666926,0.11484,1.04332
128.249,37.47899,0.02568081,0.11226,1.04322
128.649,37.61085,0.02699012,0.11347,1.04312
129.049,37.74269,0.02645611,0.11314,1.04303
129.449,37.87471,0.02727606,0.11237,1.04293
129.849,38.00574,0.02605963,0.11372,1.04284
130.249,38.13748,0.02572775,0.11187,1.04274
130.649,38.26905,0.02604817,0.11336,1.04264
131.049,38.39835,0.02569027,0.11456,1.04254
131.449,38.5272,0.02601244,0.11448,1.04245
131.849,38.6569,0.02495992,0.11522,1.04235
132.249,38.7866,0.02602599,0.11583,1.04225
132.649,38.91591,0.02601999,0.11601,1.04215
133.049,39.04712,0.02671053,0.11482,1.04205
133.449,39.17949,0.02694793,0.11711,1.04196
133.849,39.31033,0.02602015,0.11675,1.04186
134.249,39.44206,0.02601855,0.11693,1.04176
134.649,39.57416,0.02403452,0.11593,1.04166
135.049,39.70539,0.02403988,0.11733,1.04156
135.449,39.83632,0.02414166,0.11781,1.04146
135.849,39.96778,0.02666631,0.11708,1.04136
136.249,40.0993,0.02433523,0.11661,1.04125
136.649,40.23039,0.02536001,0.11622,1.04115
137.049,40.36164,0.02536,0.11643,1.04105
137.449,40.49317,0.02535902,0.11708,1.04095
137.849,40.62474,0.0240365,0.11718,1.04085
138.249,40.7562,0.02450187,0.11575,1.04075
138.649,40.8874,0.02535001,0.11761,1.04064
139.049,41.01878,0.02370453,0.11721,1.04054
139.449,41.15,0.02371,0.11798,1.04044
139.849,41.28115,0.02371,0.11766,1.04033
140.249,41.41193,0.02371239,0.11884,1.04023
140.649,41.54269,0.02337985,0.11761,1.04013
141.049,41.67349,0.02337999,0.11832,1.04002
141.449,41.8043,0.02315972,0.11847,1.03992
141.849,41.93547,0.02276821,0.1177,1.03981
142.249,42.066,0.02271848,0.11954,1.03971
142.649,42.1969,0.02404469,0.11741,1.0396
143.049,42.32761,0.02667297,0.11901,1.0395
143.449,42.45845,0.02535111,0.11724,1.03939
143.849,42.5891,0.02401988,0.1192,1.03928
144.249,42.7201,0.0226922,0.1214,1.03918
144.649,42.8515,0.02237651,0.12011,1.03907
145.049,42.98263,0.02271998,0.11923,1.03896
145.449,43.1128,0.02272,0.1189,1.03886
145.849,43.24326,0.02272051,0.12012,1.03875
146.249,43.37375,0.02140188,0.11855,1.03864
146.649,43.5049,0.02139585,0.11904,1.03853
147.049,43.6362,0.0227031,0.11897,1.03842
147.449,43.7674,0.02272874,0.1213,1.03831
147.849,43.89873,0.02272046,0.11951,1.03821
148.249,44.03051,0.02371032,0.12091,1.0381
148.649,44.16028,0.02110262,0.12056,1.03799
149.049,44.28978,0.02179933,0.11992,1.03788
149.449,44.41953,0.02239,0.12069,1.03777
149.849,44.5495,0.02236495,0.1205,1.03766
150.249,44.68009,0.02370998,0.12017,1.03754
150.649,44.81103,0.02536677,0.12141,1.03743
151.049,44.94246,0.02404071,0.12221,1.03732
151.449,45.07376,0.02234188,0.12221,1.03721
151.849,45.2055,0.02010904,0.12207,1.0371
152.249,45.33563,0.02141016,0.12234,1.03699
152.649,45.4662,0.02042137,0.12243,1.03687
153.049,45.59636,0.02131127,0.12216,1.03676
153.449,45.72609,0.02173749,0.12145,1.03665
153.849,45.85624,0.02207056,0.12204,1.03654
154.249,45.98665,0.020807,0.12225,1.03642
154.649,46.11717,0.02074916,0.12245,1.03631
155.049,46.24763,0.02011429,0.12176,1.03619
155.449,46.37836,0.02141245,0.1232,1.03608
155.849,46.50887,0.02272761,0.12332,1.03596
156.249,46.63964,0.02273,0.12298,1.03585
156.649,46.7699,0.02273,0.12375,1.03573
157.049,46.9005,0.02272998,0.12293,1.03562
157.449,47.03139,0.02207071,0.12293,1.0355
157.849,47.16243,0.02141315,0.1232,1.03539
158.249,47.293,0.02266198,0.12348,1.03527
158.649,47.42398,0.02134919,0.12301,1.03515
159.049,47.55453,0.02108004,0.12285,1.03504
159.449,47.68469,0.02107983,0.12306,1.03492
159.849,47.8154,0.0200906,0.12469,1.0348
160.249,47.9463,0.02115396,0.1231,1.03468
160.649,48.077,0.02139999,0.12215,1.03457
161.049,48.20783,0.02146232,0.12505,1.03445
161.449,48.3392,0.01949422,0.124,1.03433
161.849,48.46951,0.02074986,0.12571,1.03421
162.249,48.59962,0.02074895,0.12493,1.03409
162.649,48.7299,0.02304946,0.12605,1.03397
163.049,48.8598,0.02134226,0.12628,1.03385
163.449,48.98952,0.02036519,0.12792,1.03373
163.849,49.11935,0.01977678,0.12922,1.03361
164.249,49.24928,0.02239405,0.12721,1.03349
164.649,49.3795,0.02371891,0.12826,1.03337
165.049,49.5096,0.02161413,0.12982,1.03325
165.449,49.63916,0.02110708,0.13124,1.03313
165.849,49.76958,0.01976108,0.13042,1.033
166.249,49.89966,0.02172999,0.13055,1.03288
166.649,50.02908,0.02300553,0.13082,1.03276
167.049,50.15886,0.02437355,0.13355,1.03264
167.449,50.288,0.02367912,0.13293,1.03251
167.849,50.41793,0.02239024,0.13293,1.03239
168.249,50.54763,0.02370774,0.13515,1.03227
168.649,50.67757,0.02239895,0.13373,1.03214
169.049,50.808,0.02032502,0.1362,1.03202
169.449,50.9388,0.02122316,0.13534,1.03189
169.849,51.0691,0.02239001,0.13596,1.03177
170.249,51.199,0.02238102,0.13671,1.03164
170.649,51.32938,0.02270208,0.13441,1.03152
171.049,51.45977,0.02415531,0.13633,1.03139
171.449,51.58998,0.02404001,0.13701,1.03127
171.849,51.7206,0.02406482,0.13536,1.03114
172.249,51.85137,0.02272003,0.13793,1.03101
172.649,51.98124,0.02271971,0.13595,1.03089
173.049,52.11146,0.02205712,0.13539,1.03076
173.449,52.24156,0.02074141,0.13674,1.03063
173.849,52.3716,0.02164458,0.13781,1.03051
174.249,52.5018,0.02174804,0.13788,1.03038
174.649,52.6324,0.02203345,0.1385,1.03025
175.049,52.76256,0.02208332,0.13903,1.03012
175.449,52.8928,0.0233799,0.1368,1.02999
175.849,53.02345,0.02204477,0.13662,1.02986
176.249,53.1538,0.02338063,0.13633,1.02973
176.649,53.2838,0.02338465,0.13793,1.0296
177.049,53.414,0.02205997,0.13751,1.02947
177.449,53.54444,0.02262861,0.13697,1.02934
177.849,53.67409,0.02375198,0.13684,1.02921
178.249,53.80457,0.02277873,0.13874,1.02908
178.649,53.9348,0.02206233,0.13861,1.02895
179.049,54.06515,0.02238912,0.13871,1.02882
179.449,54.19554,0.02239,0.14094,1.02869
179.849,54.326,0.02247232,0.13985,1.02856
180.249,54.45646,0.02239187,0.13768,1.02842
180.649,54.58712,0.02239,0.13835,1.02829
181.049,54.71755,0.02239,0.13904,1.02816
181.449,54.84855,0.02239413,0.14017,1.02803
181.849,54.979,0.02278494,0.13861,1.02789
182.249,55.1095,0.0204014,0.13835,1.02776
182.649,55.2394,0.02238091,0.1378,1.02763
183.049,55.3694,0.02239,0.1386,1.02749
183.449,55.4991,0.02239003,0.13909,1.02736
183.849,55.6294,0.02304124,0.13953,1.02722
184.249,55.75965,0.0220736,0.13997,1.02709
184.649,55.8904,0.02261289,0.13859,1.02695
185.049,56.01961,0.02239,0.13855,1.02682
185.449,56.15015,0.02238962,0.14034,1.02668
185.849,56.28035,0.02108005,0.14005,1.02654
186.249,56.4104,0.02108,0.13987,1.02641
186.649,56.5403,0.02108,0.14129,1.02627
187.049,56.6706,0.02109679,0.14264,1.02613
187.449,56.8004,0.02372327,0.14059,1.026
187.849,56.9301,0.02237855,0.13933,1.02586
188.249,57.0601,0.02107979,0.14099,1.02572
188.649,57.1905,0.02096204,0.1416,1.02558
189.049,57.3217,0.02248505,0.13961,1.02544
189.449,57.452,0.02240079,0.14202,1.0253
189.849,57.58325,0.02239,0.14313,1.02516
190.249,57.71408,0.02354646,0.14278,1.02502
190.649,57.84509,0.0204368,0.14249,1.02488
191.049,57.97538,0.0214561,0.1423,1.02474
191.449,58.106,0.02151212,0.14331,1.0246
191.849,58.2363,0.0205921,0.14333,1.02446
192.249,58.3672,0.02141,0.1414,1.02432
192.649,58.4973,0.02141,0.14261,1.02418
193.049,58.62754,0.02143594,0.14322,1.02404
193.449,58.75813,0.02270603,0.14278,1.0239
193.849,58.8888,0.02072594,0.1442,1.02376
194.249,59.0185,0.01943066,0.14522,1.02361
194.649,59.1487,0.02075138,0.14341,1.02347
195.049,59.27904,0.0207495,0.14612,1.02333
195.449,59.40882,0.02174676,0.14495,1.02318
195.849,59.53856,0.02036669,0.14582,1.02304
196.249,59.66831,0.02108018,0.14648,1.0229
196.649,59.79806,0.02108,0.1475,1.02275
197.049,59.9278,0.02108032,0.14639,1.02261
197.449,60.05725,0.02009432,0.14727,1.02246
197.849,60.1862,0.0200988,0.14728,1.02232
198.249,60.31535,0.02167718,0.14741,1.02217
198.649,60.445,0.02108018,0.14933,1.02203
199.049,60.57425,0.01961075,0.14799,1.02188
199.449,60.70349,0.02108365,0.14892,1.02174
199.849,60.83279,0.02041957,0.14969,1.02159
200.249,60.9622,0.02142848,0.14716,1.02144
200.649,61.0904,0.02174591,0.14957,1.02129
201.049,61.2195,0.02059747,0.14844,1.02115
201.449,61.3489,0.02014769,0.14732,1.021
201.849,61.47812,0.02073552,0.14837,1.02085
202.249,61.6076,0.02174422,0.15011,1.0207
202.649,61.7375,0.02071494,0.15118,1.02055
203.049,61.867,0.02074999,0.14863,1.02041
203.449,61.9963,0.01971343,0.14849,1.02026
203.849,62.12604,0.0189293,0.14973,1.02011
204.249,62.2554,0.02012532,0.15115,1.01996
204.649,62.3849,0.01976948,0.15051,1.01981
205.049,62.5146,0.01877013,0.14978,1.01966
205.449,62.64425,0.01876964,0.14898,1.01951
205.849,62.7738,0.01943516,0.15213,1.01936
206.249,62.9038,0.02075593,0.1489,1.0192
206.649,63.03371,0.01943485,0.1499,1.01905
207.049,63.1637,0.01810556,0.14997,1.0189
207.449,63.29359,0.01679471,0.15007,1.01875
207.849,63.4235,0.01804071,0.14921,1.0186
208.249,63.55345,0.02052369,0.14896,1.01844
208.649,63.68322,0.01877273,0.148,1.01829
209.049,63.81324,0.01810578,0.15004,1.01814
209.449,63.94359,0.0187703,0.15021,1.01798
209.849,64.0739,0.01933993,0.14842,1.01783
210.249,64.20397,0.01746099,0.14879,1.01768
210.649,64.33453,0.01843714,0.14733,1.01752
211.049,64.4649,0.01810807,0.14961,1.01737
211.449,64.595,0.01813838,0.1481,1.01721
211.849,64.72497,0.01777025,0.1489,1.01706
212.249,64.85502,0.01907484,0.14948,1.0169
212.649,64.98481,0.01901591,0.14878,1.01674
213.049,65.11304,0.01825972,0.15109,1.01659
213.449,65.24224,0.01843991,0.15131,1.01643
213.849,65.37164,0.0174342,0.15197,1.01627
214.249,65.5008,0.01744871,0.15225,1.01612
214.649,65.6301,0.01646013,0.15275,1.01596
215.049,65.75994,0.01700026,0.15257,1.0158
215.449,65.89,0.01942726,0.15209,1.01564
215.849,66.0193,0.01943008,0.15149,1.01549
216.249,66.14919,0.01810571,0.15145,1.01533
216.649,66.2789,0.0181998,0.14932,1.01517
217.049,66.40866,0.01678997,0.14896,1.01501
217.449,66.53871,0.01608784,0.14965,1.01485
217.849,66.6686,0.01675361,0.15022,1.01469
218.249,66.79833,0.01678999,0.14924,1.01453
218.649,66.92787,0.01520854,0.15084,1.01437
219.049,67.0578,0.01464747,0.15114,1.01421
219.449,67.18729,0.01672689,0.15081,1.01405
219.849,67.31692,0.01580989,0.15033,1.01389
220.249,67.446,0.01581,0.15059,1.01372
220.649,67.574,0.01581012,0.1503,1.01356
221.049,67.70243,0.01712445,0.15129,1.0134
221.449,67.8315,0.01580499,0.15052,1.01324
221.849,67.96126,0.01514999,0.15018,1.01308
222.249,68.09103,0.01376531,0.15011,1.01291
222.649,68.22222,0.01308709,0.15164,1.01275
223.049,68.3537,0.01343719,0.14992,1.01258
223.449,68.4845,0.01515023,0.15035,1.01242
223.849,68.61402,0.01416057,0.15225,1.01226
224.249,68.74381,0.01544019,0.1542,1.01209
224.649,68.87335,0.01416767,0.15339,1.01193
225.049,69.00314,0.0131963,0.15277,1.01176
225.449,69.13256,0.01548038,0.15438,1.0116
225.849,69.2624,0.0141792,0.15208,1.01143
226.249,69.39229,0.0141583,0.15233,1.01126
226.649,69.52241,0.01383278,0.15277,1.0111
227.049,69.65191,0.01383903,0.15304,1.01093
227.449,69.7817,0.01246475,0.15167,1.01076
227.849,69.91127,0.01423524,0.15422,1.0106
228.249,70.04057,0.01259554,0.15371,1.01043
228.649,70.17,0.01112653,0.15463,1.01026
229.049,70.2992,0.01317022,0.15502,1.01009
229.449,70.42838,0.01317008,0.15471,1.00993
229.849,70.55734,0.01228742,0.15595,1.00976
230.249,70.6865,0.01250842,0.15382,1.00959
230.649,70.81562,0.01254487,0.15299,1.00942
231.049,70.9452,0.01127556,0.15562,1.00925
231.449,71.07401,0.00988574,0.15391,1.00908
231.849,71.2042,0.01119003,0.15273,1.00891
232.249,71.33407,0.01119,0.15347,1.00874
232.649,71.46391,0.01117826,0.15283,1.00857
233.049,71.59413,0.01020321,0.15335,1.0084
233.449,71.72502,0.01310512,0.15188,1.00822
233.849,71.8552,0.0110739,0.15371,1.00805
234.249,71.9859,0.00899967,0.15445,1.00788
234.649,72.11629,0.008981731,0.15218,1.00771
235.049,72.24579,0.01034459,0.15422,1.00754
235.449,72.37603,0.01125184,0.15392,1.00736
235.849,72.5059,0.01097001,0.15253,1.00719
236.249,72.63556,0.01097,0.15551,1.00702
236.649,72.7651,0.01096113,0.15348,1.00684
237.049,72.8945,0.00997849,0.15517,1.00667
237.449,73.0239,0.01062693,0.15414,1.00649
237.849,73.15294,0.009320099,0.15385,1.00632
238.249,73.28184,0.00932,0.15322,1.00614
238.649,73.41116,0.00932,0.15429,1.00597
239.049,73.5411,0.009311946,0.1547,1.00579
239.449,73.67007,0.008668373,0.15449,1.00562
239.849,73.79955,0.009997023,0.15626,1.00544
240.249,73.92934,0.008835363,0.15624,1.00526
240.649,74.05861,0.006370886,0.15714,1.00509
241.049,74.18714,0.00638629,0.15691,1.00491
241.449,74.3161,0.009005424,0.15829,1.00473
241.849,74.44503,0.007677091,0.15732,1.00456
242.249,74.5737,0.008338487,0.15958,1.00438
242.649,74.70268,0.00665951,0.15913,1.0042
243.049,74.83208,0.007609159,0.16039,1.00402
243.449,74.9618,0.009006412,0.16058,1.00384
243.849,75.09146,0.00636057,0.15939,1.00366
244.249,75.22143,0.006425379,0.15909,1.00348
244.649,75.3507,0.00505,0.16006,1.0033
245.049,75.47926,0.00505,0.15885,1.00312
245.449,75.6084,0.00504823,0.15983,1.00294
245.849,75.73764,0.00372709,0.16077,1.00276
246.249,75.8672,0.00603961,0.16065,1.00258
246.649,75.99651,0.00617924,0.16038,1.0024
247.049,76.12729,0.004053105,0.16008,1.00222
247.449,76.25741,0.005428257,0.15993,1.00204
247.849,76.38731,0.005038821,0.16114,1.00185
248.249,76.5167,0.00505,0.16006,1.00167
248.649,76.6463,0.00258778,0.16238,1.00149
249.049,76.7758,0.001093838,0.16186,1.00131
249.449,76.90519,0.001099694,0.16174,1.00112
249.849,77.03458,0.00240423,0.16181,1.00094
250.249,77.16414,0.001092943,0.16023,1.00076
250.649,77.29364,0.003282551,0.16087,1.00057
251.049,77.42336,0.003519642,0.16174,1.00039
251.449,77.553,0.00372965,0.16296,1.0002
251.849,77.68284,0.00242911,0.16389,1.00002
252.249,77.81229,-0.000329353,0.16277,0.99983
252.649,77.94176,0.0009857119,0.16314,0.99965
253.049,78.07098,-2.9981e-05,0.1652,0.99946
253.449,78.20018,0.00231003,0.16877,0.99927
253.849,78.32939,0.00117457,0.16744,0.99909
254.249,78.45864,-0.0003189738,0.1709,0.9989
254.649,78.5881,-0.002261243,0.17108,0.99871
255.049,78.7175,-0.001035312,0.17004,0.99852
255.449,78.8476,-0.0009903834,0.16878,0.99834
255.849,78.97683,0.0003274323,0.16515,0.99815
256.249,79.10644,-0.001954984,0.16248,0.99796
256.649,79.23589,-0.001889256,0.16212,0.99777
257.049,79.36522,-0.001979699,0.16319,0.99758
257.449,79.49473,-0.002003231,0.1639,0.99739
257.849,79.62455,-0.001314874,0.16195,0.9972
258.249,79.75402,-0.00133084,0.16115,0.99701
258.649,79.88371,-0.001654464,0.16253,0.99682
259.049,80.0136,-0.002645165,0.16224,0.99663
259.449,80.14363,-0.003967883,0.16312,0.99644
259.849,80.27355,-0.00264483,0.16221,0.99625
260.249,80.40348,-0.001980394,0.16301,0.99606
260.649,80.53327,-0.00394967,0.16346,0.99587
261.049,80.66256,-0.005520299,0.16366,0.99567
261.449,80.7919,-0.003485044,0.16358,0.99548
261.849,80.9214,-0.004940048,0.16486,0.99529
262.249,81.05078,-0.004928549,0.16342,0.9951
262.649,81.18046,-0.006258947,0.16507,0.9949
263.049,81.3104,-0.00570808,0.16435,0.99471
263.449,81.44044,-0.00691988,0.16422,0.99452
263.849,81.57027,-0.007252144,0.16408,0.99432
264.249,81.7004,-0.00724989,0.16392,0.99413
264.649,81.8305,-0.00757978,0.16296,0.99393
265.049,81.9602,-0.00758,0.16348,0.99374
265.449,82.0898,-0.007580008,0.16351,0.99354
265.849,82.21981,-0.007730848,0.16477,0.99335
266.249,82.3496,-0.00854683,0.16411,0.99315
266.649,82.47824,-0.009479626,0.16409,0.99295
267.049,82.60689,-0.00915404,0.1635,0.99276
267.449,82.73532,-0.01027859,0.16449,0.99256
267.849,82.8638,-0.01169965,0.16555,0.99236
268.249,82.99292,-0.01297278,0.16557,0.99217
268.649,83.1231,-0.01394952,0.16415,0.99197
269.049,83.25355,-0.01121148,0.16441,0.99177
269.449,83.38422,-0.01254357,0.16588,0.99157
269.849,83.5141,-0.01218517,0.16626,0.99137
270.249,83.64349,-0.01447659,0.16653,0.99117
270.649,83.77265,-0.01446944,0.16778,0.99097
271.049,83.90204,-0.01349206,0.16744,0.99077
271.449,84.03146,-0.01382492,0.16987,0.99057
271.849,84.16104,-0.01482493,0.17031,0.99037
272.249,84.2911,-0.0161025,0.16887,0.99017
272.649,84.42016,-0.01757727,0.16992,0.98997
273.049,84.54932,-0.01746084,0.1683,0.98977
273.449,84.67838,-0.01614061,0.16944,0.98957
273.849,84.8078,-0.01674737,0.16977,0.98937
274.249,84.93709,-0.0176147,0.16944,0.98917
274.649,85.06652,-0.01690871,0.16957,0.98896
275.049,85.1961,-0.01634249,0.16827,0.98876
275.449,85.32593,-0.01987824,0.17056,0.98856
275.849,85.45557,-0.0187803,0.16923,0.98836
276.249,85.5852,-0.01863433,0.16846,0.98815
276.649,85.7154,-0.02018233,0.16878,0.98795
277.049,85.8455,-0.02020093,0.16917,0.98774
277.449,85.97492,-0.02152995,0.17004,0.98754
277.849,86.1045,-0.02223745,0.1697,0.98734
278.249,86.2345,-0.02118915,0.16989,0.98713
278.649,86.36404,-0.02135295,0.17176,0.98692
279.049,86.49356,-0.02250857,0.17073,0.98672
279.449,86.62317,-0.02251001,0.17122,0.98651
279.849,86.75307,-0.0227054,0.17095,0.98631
280.249,86.8826,-0.02382005,0.17177,0.9861
280.649,87.0124,-0.02512255,0.17147,0.98589
281.049,87.14234,-0.02612818,0.17268,0.98569
281.449,87.27224,-0.02623291,0.17101,0.98548
281.849,87.40177,-0.02777893,0.17157,0.98527
282.249,87.5316,-0.02936904,0.17149,0.98506
282.649,87.66133,-0.02867824,0.16999,0.98486
283.049,87.79094,-0.02734125,0.17008,0.98465
283.449,87.9208,-0.02628988,0.16855,0.98444
283.849,88.05104,-0.0286526,0.16751,0.98423
284.249,88.18137,-0.02733428,0.16962,0.98402
284.649,88.31175,-0.02865432,0.16997,0.98381
285.049,88.44232,-0.02865147,0.16869,0.9836
285.449,88.57281,-0.03005896,0.16952,0.98339
285.849,88.7028,-0.02924026,0.17145,0.98318
286.249,88.83299,-0.03128071,0.17139,0.98297
286.649,88.96299,-0.03257046,0.1709,0.98276
287.049,89.0929,-0.03374851,0.17167,0.98254
287.449,89.2225,-0.03361006,0.17148,0.98233
287.849,89.35256,-0.03501588,0.17139,0.98212
288.249,89.48232,-0.03365518,0.17216,0.98191
288.649,89.61227,-0.03360251,0.17373,0.98169
289.049,89.74163,-0.03490728,0.17268,0.98148
289.449,89.87147,-0.03362564,0.17327,0.98127
289.849,90.00157,-0.03491475,0.1732,0.98105
290.249,90.13133,-0.03490702,0.17197,0.98084
290.649,90.26143,-0.03622529,0.17272,0.98063
291.049,90.39164,-0.03741649,0.17614,0.98041
291.449,90.52115,-0.03974925,0.17575,0.9802
291.849,90.65037,-0.03983107,0.1746,0.97998
292.249,90.77978,-0.03885998,0.17611,0.97977
292.649,90.9093,-0.03879074,0.17696,0.97955
293.049,91.03894,-0.0401731,0.17623,0.97933
293.449,91.16847,-0.04018539,0.1768,0.97912
293.849,91.2988,-0.04150507,0.17863,0.9789
294.249,91.429,-0.04384004,0.17809,0.97868
294.649,91.55937,-0.04287047,0.17737,0.97847
295.049,91.68974,-0.04150014,0.17741,0.97825
295.449,91.8197,-0.04424356,0.17754,0.97803
295.849,91.9496,-0.04413342,0.17673,0.97781
296.249,92.0794,-0.04549518,0.17628,0.97759
296.649,92.20894,-0.04529405,0.17653,0.97738
297.049,92.3395,-0.04730115,0.17752,0.97716
297.449,92.47015,-0.04774158,0.1784,0.97694
297.849,92.6015,-0.04678602,0.17939,0.97672
298.249,92.73238,-0.04709906,0.1805,0.9765
298.649,92.86371,-0.04707436,0.18069,0.97628
299.049,92.9936,-0.04972776,0.18088,0.97606
299.449,93.12399,-0.05236817,0.18097,0.97583
299.849,93.2539,-0.05032881,0.18195,0.97561
300.249,93.38381,-0.04909527,0.18123,0.97539
300.649,93.51344,-0.05168749,0.18469,0.97517
301.049,93.64314,-0.05246842,0.1833,0.97495
301.449,93.7718,-0.05171009,0.18329,0.97473
301.849,93.90066,-0.05432609,0.18447,0.9745
302.249,94.03013,-0.05353642,0.18377,0.97428
302.649,94.15932,-0.05433777,0.18576,0.97406
303.049,94.28872,-0.05566726,0.18486,0.97383
303.449,94.41845,-0.05463757,0.18452,0.97361
303.849,94.54904,-0.05537368,0.18428,0.97338
304.249,94.6789,-0.05643397,0.18588,0.97316
304.649,94.80878,-0.05731259,0.18481,0.97294
305.049,94.9392,-0.05862723,0.18431,0.97271
305.449,95.06939,-0.05994019,0.18524,0.97249
305.849,95.1999,-0.05994007,0.1855,0.97226
306.249,95.33046,-0.06228405,0.18633,0.97203
306.649,95.46117,-0.06125322,0.18637,0.97181
307.049,95.5916,-0.06257988,0.18548,0.97158
307.449,95.72233,-0.06255036,0.18669,0.97135
307.849,95.85279,-0.06289931,0.18439,0.97113
308.249,95.98312,-0.06421917,0.18378,0.9709
308.649,96.11405,-0.06555744,0.18683,0.97067
309.049,96.24529,-0.0668695,0.18598,0.97044
309.449,96.37605,-0.06697902,0.18739,0.97021
309.849,96.50686,-0.06817256,0.18774,0.96999
310.249,96.63785,-0.06948824,0.18615,0.96976
310.649,96.7683,-0.06948878,0.18933,0.96953
311.049,96.898,-0.07075602,0.1887,0.9693
311.449,97.02688,-0.07214026,0.18862,0.96907
311.849,97.1563,-0.07106796,0.1913,0.96884
312.249,97.28575,-0.07080585,0.1888,0.96861
312.649,97.4153,-0.07309184,0.19261,0.96838
313.049,97.54556,-0.07358469,0.19323,0.96815
313.449,97.67676,-0.07468243,0.19299,0.96791
313.849,97.80793,-0.07674007,0.19297,0.96768
314.249,97.93904,-0.07671871,0.19522,0.96745
314.649,98.07,-0.07936632,0.19551,0.96722
315.049,98.2005,-0.0793786,0.19686,0.96699
315.449,98.331,-0.08075289,0.19664,0.96675
315.849,98.46125,-0.08064512,0.19771,0.96652
316.249,98.5914,-0.08331211,0.19893,0.96629
316.649,98.7215,-0.08520868,0.19844,0.96605
317.049,98.85119,-0.08463953,0.20001,0.96582
317.449,98.98129,-0.08476829,0.20144,0.96558
317.849,99.11145,-0.08600683,0.20093,0.96535
318.249,99.24149,-0.08730646,0.20183,0.96511
318.649,99.37185,-0.08958679,0.19993,0.96488
319.049,99.5027,-0.09122213,0.2014,0.96464
319.449,99.63361,-0.08980984,0.19955,0.96441
319.849,99.76422,-0.08850046,0.19881,0.96417
320.249,99.89463,-0.08977486,0.20036,0.96393
320.649,100.026,-0.09439356,0.19972,0.9637
321.049,100.156,-0.09640757,0.20235,0.96346
321.449,100.286,-0.09899511,0.2022,0.96322
321.849,100.416,-0.09639919,0.20355,0.96299
322.249,100.547,-0.09759715,0.20295,0.96275
322.649,100.6772,-0.10035,0.20377,0.96251
323.049,100.808,-0.10292,0.20392,0.96227
323.449,100.938,-0.10295,0.20384,0.96203
323.849,101.068,-0.10294,0.20617,0.96179
324.249,101.199,-0.10694,0.203,0.96155
324.649,101.329,-0.10828,0.20744,0.96131
325.049,101.459,-0.11027,0.20772,0.96107
325.449,101.59,-0.11084,0.20876,0.96083
325.849,101.72,-0.1135,0.20885,0.96059
326.249,101.85,-0.11483,0.21039,0.96035
326.649,101.98,-0.11486,0.2091,0.96011
327.049,102.109,-0.11489,0.21182,0.95987
327.449,102.239,-0.11749,0.21093,0.95963
327.849,102.368,-0.12018,0.21338,0.95939
328.249,102.498,-0.12142,0.21364,0.95914
328.649,102.628,-0.12227,0.21426,0.9589
329.049,102.759,-0.12326,0.21287,0.95866
329.449,102.889,-0.12461,0.21404,0.95841
329.849,103.0204,-0.12864,0.21629,0.95817
330.249,103.152,-0.12995,0.21809,0.95793
330.649,103.283,-0.13199,0.21761,0.95768
331.049,103.414,-0.13425,0.2191,0.95744
331.449,103.545,-0.13581,0.21803,0.95719
331.849,103.676,-0.13863,0.21793,0.95695
332.249,103.807,-0.13854,0.21711,0.9567
332.649,103.938,-0.14018,0.21968,0.95646
333.049,104.069,-0.14118,0.22039,0.95621
333.449,104.2,-0.14514,0.22204,0.95596
333.849,104.33,-0.1478,0.22347,0.95572
334.249,104.461,-0.14899,0.22749,0.95547
334.649,104.591,-0.1527,0.22678,0.95522
335.049,104.721,-0.15433,0.22839,0.95498
335.449,104.851,-0.15697,0.22731,0.95473
335.849,104.981,-0.15963,0.23048,0.95448
336.249,105.112,-0.16035,0.23073,0.95423
336.649,105.242,-0.16095,0.23255,0.95398
337.049,105.372,-0.16412,0.23204,0.95373
337.449,105.503,-0.16885,0.23442,0.95349
337.849,105.633,-0.17017,0.23318,0.95324
338.249,105.764,-0.17397,0.23465,0.95299
338.649,105.896,-0.17426,0.2349,0.95274
339.049,106.027,-0.17489,0.23641,0.95249
339.449,106.158,-0.18009,0.23847,0.95223
339.849,106.29,-0.18545,0.24009,0.95198
340.249,106.421,-0.18593,0.23922,0.95173
340.649,106.552,-0.18751,0.24344,0.95148
341.049,106.683,-0.1893,0.24314,0.95123
341.449,106.814,-0.19383,0.24396,0.95098
341.849,106.944,-0.19539,0.24593,0.95072
342.249,107.074,-0.20054,0.24991,0.95047
342.649,107.205,-0.20422,0.25001,0.95022
343.049,107.335,-0.20482,0.24985,0.94997
343.449,107.464,-0.20817,0.2522,0.94971
343.849,107.595,-0.21069,0.25316,0.94946
344.249,107.725,-0.21363,0.25428,0.9492
344.649,107.854,-0.21657,0.25622,0.94895
345.049,107.984,-0.21999,0.25835,0.94869
345.449,108.114,-0.22283,0.2602,0.94844
345.849,108.244,-0.22816,0.26147,0.94818
346.249,108.374,-0.23091,0.2641,0.94793
346.649,108.504,-0.23496,0.26544,0.94767
347.049,108.633,-0.23626,0.26571,0.94742
347.449,108.7636,-0.24158,0.26823,0.94716
347.849,108.894,-0.2457,0.26962,0.9469
348.249,109.024,-0.24956,0.27098,0.94665
348.649,109.154,-0.25338,0.27408,0.94639
349.049,109.2843,-0.25759,0.2745,0.94613
349.449,109.414,-0.26023,0.27693,0.94587
349.849,109.545,-0.26397,0.27698,0.94561
350.249,109.676,-0.27012,0.27979,0.94536
350.649,109.806,-0.27531,0.28304,0.9451
351.049,109.936,-0.27853,0.28567,0.94484
351.449,110.068,-0.2833,0.28882,0.94458
351.849,110.199,-0.28816,0.28814,0.94432
352.249,110.33,-0.29275,0.29104,0.94406
352.649,110.462,-0.29703,0.29444,0.9438
353.049,110.594,-0.30294,0.29637,0.94354
353.449,110.726,-0.30873,0.29726,0.94328
353.849,110.857,-0.31349,0.2995,0.94301
354.249,110.987,-0.31813,0.30143,0.94275
354.649,111.117,-0.32511,0.30582,0.94249
355.049,111.248,-0.32847,0.30956,0.94223
355.449,111.378,-0.3329,0.31225,0.94197
355.849,111.509,-0.33959,0.3151,0.9417
356.249,111.64,-0.34554,0.31787,0.94144
356.649,111.7711,-0.35238,0.32236,0.94118
357.049,111.902,-0.35785,0.32444,0.94091
357.449,112.033,-0.36283,0.32644,0.94065
357.849,112.164,-0.3699,0.32987,0.94039
358.249,112.296,-0.37606,0.33575,0.94012
358.649,112.426,-0.38463,0.33647,0.93986
359.049,112.558,-0.39021,0.33781,0.93959
359.449,112.689,-0.3956,0.34077,0.93933
359.849,112.821,-0.40409,0.34564,0.93906
360.249,112.9522,-0.41297,0.34871,0.93879
360.649,113.085,-0.41796,0.35407,0.93853
361.049,113.2164,-0.42737,0.36046,0.93826
361.449,113.348,-0.43427,0.36076,0.938
361.849,113.48,-0.44188,0.36558,0.93773
362.249,113.611,-0.4495,0.36764,0.93746
362.649,113.742,-0.45873,0.37249,0.93719
363.049,113.873,-0.46697,0.37825,0.93693
363.449,114.004,-0.47428,0.38236,0.93666
363.849,114.135,-0.48478,0.3872,0.93639
364.249,114.266,-0.49415,0.39254,0.93612
364.649,114.397,-0.50276,0.39686,0.93585
365.049,114.528,-0.51255,0.40362,0.93558
365.449,114.659,-0.52268,0.40879,0.93531
365.849,114.79,-0.53324,0.41067,0.93504
366.249,114.921,-0.54291,0.41962,0.93477
366.649,115.052,-0.55285,0.42296,0.9345
367.049,115.183,-0.56306,0.42833,0.93423
367.449,115.314,-0.57161,0.43521,0.93396
367.849,115.445,-0.58547,0.44002,0.93369
368.249,115.576,-0.59659,0.44724,0.93342
368.649,115.707,-0.60846,0.4531,0.93314
369.049,115.837,-0.61909,0.46036,0.93287
369.449,115.968,-0.62855,0.46483,0.9326
369.849,116.099,-0.64135,0.47231,0.93233
370.249,116.229,-0.65481,0.47745,0.93205
370.649,116.36,-0.66818,0.4868,0.93178
371.049,116.491,-0.68032,0.49496,0.93151
371.449,116.621,-0.69463,0.50088,0.93123
371.849,116.752,-0.7096,0.50652,0.93096
372.249,116.883,-0.72391,0.51397,0.93068
372.649,117.015,-0.73795,0.52186,0.93041
373.049,117.147,-0.75576,0.53086,0.93013
373.449,117.279,-0.77032,0.53817,0.92986
373.849,117.411,-0.7848,0.54476,0.92958
374.249,117.543,-0.80047,0.55556,0.92931
374.649,117.675,-0.81728,0.56204,0.92903
375.049,117.807,-0.83402,0.56977,0.92875
375.449,117.939,-0.85084,0.57885,0.92848
375.849,118.072,-0.86864,0.58989,0.9282
376.249,118.204,-0.88551,0.5993,0.92792
376.649,118.336,-0.90534,0.60693,0.92764
377.049,118.468,-0.92342,0.61855,0.92737
377.449,118.599,-0.94316,0.62794,0.92709
377.849,118.7303,-0.96138,0.64023,0.92681
378.249,118.861,-0.98345,0.65075,0.92653
378.649,118.992,-1.00282,0.66085,0.92625
379.049,119.123,-1.02295,0.67091,0.92597
379.449,119.254,-1.04255,0.68396,0.92569
379.849,119.386,-1.06428,0.69977,0.92541
380.249,119.517,-1.0882,0.71149,0.92513
380.649,119.649,-1.10968,0.72359,0.92485
381.049,119.781,-1.13341,0.73532,0.92457
381.449,119.9124,-1.15765,0.74825,0.92429
381.849,120.044,-1.18165,0.76044,0.92401
382.249,120.1748,-1.20797,0.77217,0.92373
382.649,120.306,-1.23342,0.78426,0.92344
383.049,120.437,-1.2587,0.79306,0.92316
383.449,120.569,-1.28552,0.80357,0.92288
383.849,120.7,-1.31331,0.81691,0.9226
384.249,120.831,-1.34036,0.82803,0.92231
384.649,120.963,-1.36669,0.83762,0.92203
385.049,121.094,-1.39531,0.86054,0.92175
385.449,121.226,-1.42759,0.87182,0.92146
385.849,121.358,-1.45874,0.87429,0.92118
386.249,121.489,-1.48969,0.89041,0.92089
386.649,121.621,-1.52063,0.88732,0.92061
387.049,121.754,-1.55098,0.90029,0.92032
387.449,121.886,-1.58171,0.91235,0.92004
387.849,122.0183,-1.61356,0.92813,0.91975
388.249,122.151,-1.64823,0.94349,0.91947
388.649,122.283,-1.6825,0.94633,0.91918
389.049,122.415,-1.71463,0.95919,0.91889
389.449,122.546,-1.7496,0.98164,0.91861
389.849,122.678,-1.78671,0.9921,0.91832
390.249,122.809,-1.82122,0.99456,0.91803
390.649,122.941,-1.85684,1.00756,0.91774
391.049,123.073,-1.89242,1.01362,0.91746
391.449,123.205,-1.92958,1.01514,0.91717
391.849,123.3367,-1.9668,1.03448,0.91688
392.249,123.4684,-2.0041,1.04392,0.91659
392.649,123.6,-2.04219,1.04697,0.9163
393.049,123.731,-2.08104,1.05467,0.91601
393.449,123.862,-2.11917,1.05446,0.91572
393.849,123.995,-2.15731,1.05857,0.91543
394.249,124.126,-2.1958,1.06074,0.91514
394.649,124.257,-2.23399,1.07015,0.91485
395.049,124.39,-2.27455,1.07788,0.91456
395.449,124.521,-2.315,1.07511,0.91427
395.849,124.653,-2.35414,1.08231,0.91398
396.249,124.784,-2.39364,1.07933,0.91369
396.649,124.916,-2.43315,1.07678,0.9134
397.049,125.047,-2.47431,1.08377,0.9131
397.449,125.178,-2.51485,1.08,0.91281
397.849,125.3094,-2.55639,1.06677,0.91252
398.249,125.44,-2.59471,1.06433,0.91223
398.649,125.572,-2.633,1.05736,0.91193
399.049,125.703,-2.6737,1.05217,0.91164
399.449,125.834,-2.71256,1.04871,0.91135
399.849,125.965,-2.75173,1.03824,0.91105
400.249,126.096,-2.79147,1.0284,0.91076
400.649,126.228,-2.83022,1.01975,0.91046
401.049,126.359,-2.86875,1.00029,0.91017
401.449,126.49,-2.90608,0.99359,0.90987
401.849,126.621,-2.94381,0.97877,0.90958
402.249,126.752,-2.97893,0.96336,0.90928
402.649,126.883,-3.0151,0.94619,0.90899
403.049,127.014,-3.04896,0.92916,0.90869
403.449,127.145,-3.08253,0.91526,0.90839
403.849,127.275,-3.11707,0.89702,0.9081
404.249,127.405,-3.14913,0.87626,0.9078
404.649,127.536,-3.18149,0.85904,0.9075
405.049,127.667,-3.21421,0.84059,0.9072
405.449,127.7968,-3.24462,0.81694,0.90691
405.849,127.9272,-3.27359,0.7947,0.90661
406.249,128.059,-3.30231,0.7761,0.90631
406.649,128.189,-3.33065,0.75261,0.90601
407.049,128.32,-3.35856,0.72985,0.90571
407.449,128.451,-3.38476,0.70718,0.90541
407.849,128.582,-3.41038,0.68282,0.90511
408.249,128.712,-3.43471,0.66285,0.90481
408.649,128.842,-3.46047,0.63637,0.90451
409.049,128.973,-3.48177,0.61483,0.90421
409.449,129.104,-3.50401,0.59344,0.90391
409.849,129.235,-3.52575,0.57134,0.90361
410.249,129.366,-3.54625,0.54931,0.90331
410.649,129.497,-3.56569,0.52724,0.90301
411.049,129.628,-3.58412,0.50773,0.9027
411.449,129.758,-3.60153,0.48934,0.9024
411.849,129.888,-3.61922,0.4694,0.9021
412.249,130.019,-3.63505,0.44943,0.9018
412.649,130.148,-3.65149,0.43218,0.9015
413.049,130.276,-3.66487,0.41464,0.90119
413.449,130.406,-3.67938,0.39803,0.90089
413.849,130.535,-3.69232,0.38071,0.90058
414.249,130.665,-3.7049,0.36302,0.90028
414.649,130.796,-3.71743,0.34951,0.89998
415.049,130.928,-3.73189,0.3349,0.89967
415.449,131.06,-3.7411,0.32032,0.89937
415.849,131.191,-3.74621,0.30508,0.89906
416.249,131.323,-3.75182,0.28966,0.89876
416.649,131.454,-3.7634,0.27606,0.89845
417.049,131.585,-3.77479,0.26607,0.89815
417.449,131.717,-3.78964,0.25615,0.89784
417.849,131.848,-3.79943,0.24846,0.89753
418.249,131.98,-3.80595,0.23669,0.89723
418.649,132.112,-3.81314,0.22609,0.89692
419.049,132.243,-3.8203,0.21958,0.89661
419.449,132.375,-3.82605,0.20816,0.8963
419.849,132.506,-3.82621,0.19774,0.896
420.249,132.637,-3.83032,0.18912,0.89569
420.649,132.769,-3.83542,0.18135,0.89538
421.049,132.901,-3.84575,0.17719,0.89507
421.449,133.032,-3.85425,0.16962,0.89476
421.849,133.164,-3.86161,0.16318,0.89445
422.249,133.296,-3.86847,0.15896,0.89414
422.649,133.428,-3.87531,0.15339,0.89383
423.049,133.559,-3.87418,0.14793,0.89352
423.449,133.691,-3.87705,0.14173,0.89321
423.849,133.823,-3.87992,0.13819,0.8929
424.249,133.955,-3.8839,0.13676,0.89259
424.649,134.086,-3.88796,0.12959,0.89228
425.049,134.218,-3.88919,0.12464,0.89197
425.449,134.349,-3.89012,0.12227,0.89166
425.849,134.48,-3.89323,0.11842,0.89135
426.249,134.611,-3.89449,0.11295,0.89104
426.649,134.742,-3.89722,0.11004,0.89072
427.049,134.872,-3.89786,0.1057,0.89041
427.449,135.001,-3.90239,0.10341,0.8901
427.849,135.132,-3.9037,0.09992878,0.88978
428.249,135.262,-3.90646,0.09729535,0.88947
428.649,135.393,-3.90935,0.09597249,0.88916
429.049,135.5256,-3.91169,0.09449178,0.88884
429.449,135.658,-3.91305,0.09299579,0.88853
429.849,135.791,-3.9143,0.08773863,0.88821
430.249,135.924,-3.91676,0.08775541,0.8879
430.649,136.057,-3.91881,0.08379992,0.88758
431.049,136.189,-3.92067,0.08451863,0.88727
431.449,136.3216,-3.92082,0.08039561,0.88695
431.849,136.454,-3.92222,0.07925656,0.88664
432.249,136.586,-3.92487,0.07986993,0.88632
432.649,136.718,-3.9235,0.07599452,0.88601
433.049,136.85,-3.92618,0.07591665,0.88569
433.449,136.982,-3.92618,0.0757871,0.88537
433.849,137.113,-3.9275,0.07467291,0.88506
434.249,137.245,-3.92889,0.07234706,0.88474
434.649,137.3774,-3.93079,0.07211483,0.88442
435.049,137.509,-3.93011,0.06782177,0.8841
435.449,137.642,-3.93146,0.06967422,0.88378
435.849,137.774,-3.93278,0.0655843,0.88347
436.249,137.905,-3.93408,0.06377418,0.88315
436.649,138.037,-3.93343,0.06303868,0.88283
437.049,138.169,-3.93475,0.06166574,0.88251
437.449,138.301,-3.93475,0.05842774,0.88219
437.849,138.433,-3.93541,0.05523957,0.88187
438.249,138.565,-3.93674,0.05189143,0.88155
438.649,138.697,-3.93539,0.05045964,0.88123
439.049,138.829,-3.93639,0.04969363,0.88091
439.449,138.962,-3.93542,0.05297484,0.88059
439.849,139.0944,-3.93544,0.0569813,0.88027
440.249,139.227,-3.93672,0.0581687,0.87995
440.649,139.36,-3.93672,0.05925432,0.87962
441.049,139.4923,-3.93835,0.06202916,0.8793
441.449,139.624,-3.93897,0.06050222,0.87898
441.849,139.756,-3.93837,0.06001562,0.87866
442.249,139.8881,-3.93691,0.05836757,0.87834
442.649,140.02,-3.93838,0.05662177,0.87801
443.049,140.152,-3.93705,0.05539742,0.87769
443.449,140.284,-3.93573,0.05486168,0.87737
443.849,140.416,-3.93804,0.05191614,0.87704
444.249,140.5483,-3.93808,0.04972496,0.87672
444.649,140.68,-3.9368,0.04597823,0.87639
445.049,140.812,-3.93668,0.04327134,0.87607
445.449,140.944,-3.93804,0.04362603,0.87574
445.849,141.076,-3.93752,0.04130862,0.87542
446.249,141.207,-3.93867,0.04214245,0.87509
446.649,141.34,-3.93738,0.04319743,0.87477
447.049,141.472,-3.93736,0.04184834,0.87444
447.449,141.604,-3.93738,0.04350075,0.87412
447.849,141.7363,-3.93738,0.04169881,0.87379
448.249,141.869,-3.93639,0.04218625,0.87346
448.649,142.001,-3.93773,0.04129259,0.87314
449.049,142.132,-3.93805,0.03970728,0.87281
449.449,142.263,-3.93801,0.04139269,0.87248
449.849,142.395,-3.93903,0.04299407,0.87216
450.249,142.527,-3.93903,0.04218787,0.87183
450.649,142.6585,-3.93903,0.04247871,0.8715
451.049,142.7907,-3.93914,0.04072385,0.87117
451.449,142.9231,-3.93847,0.04040983,0.87084
451.849,143.055,-3.93866,0.03868967,0.87051
452.249,143.1878,-3.93942,0.03928016,0.87019
452.649,143.32,-3.93979,0.03748569,0.86986
453.049,143.453,-3.93906,0.03777338,0.86953
453.449,143.586,-3.93904,0.03695845,0.8692
453.849,143.719,-3.9387,0.03813419,0.86887
454.249,143.8517,-3.9387,0.03687914,0.86854
454.649,143.985,-3.93804,0.03682954,0.86821
455.049,144.118,-3.93738,0.03691139,0.86788
455.449,144.25,-3.93737,0.03765176,0.86754
455.849,144.382,-3.93902,0.03657357,0.86721
456.249,144.515,-3.93994,0.03794308,0.86688
456.649,144.648,-3.93969,0.0387029,0.86655
457.049,144.781,-3.93969,0.03888599,0.86622
457.449,144.915,-3.93976,0.03889986,0.86589
457.849,145.048,-3.93713,0.03706926,0.86555
458.249,145.181,-3.93935,0.03903394,0.86522
458.649,145.3134,-3.93803,0.0366941,0.86489
459.049,145.445,-3.93905,0.03404361,0.86455
459.449,145.577,-3.9396,0.03368224,0.86422
459.849,145.709,-3.94052,0.0334554,0.86389
460.249,145.841,-3.94068,0.03451754,0.86355
460.649,145.973,-3.94198,0.03485325,0.86322
461.049,146.104,-3.94039,0.03356418,0.86288
461.449,146.236,-3.93933,0.03434834,0.86255
461.849,146.368,-3.94034,0.03497991,0.86221
462.249,146.5,-3.94034,0.03372475,0.86188
462.649,146.6324,-3.93937,0.03486543,0.86154
463.049,146.765,-3.94065,0.03461218,0.86121
463.449,146.898,-3.94166,0.03501022,0.86087
463.849,147.03,-3.94166,0.03745957,0.86053
464.249,147.162,-3.94163,0.03710992,0.8602
464.649,147.295,-3.94199,0.03605335,0.85986
465.049,147.427,-3.94199,0.0384942,0.85952
465.449,147.56,-3.94199,0.03638382,0.85919
465.849,147.693,-3.94062,0.03416183,0.85885
466.249,147.8257,-3.94075,0.03585425,0.85851
466.649,147.959,-3.94199,0.03668719,0.85817
467.049,148.091,-3.94127,0.03518283,0.85783
467.449,148.2241,-3.941,0.03493114,0.8575
467.849,148.357,-3.941,0.03618947,0.85716
468.249,148.489,-3.941,0.0352061,0.85682
468.649,148.621,-3.94232,0.03484884,0.85648
469.049,148.754,-3.942,0.03786643,0.85614
469.449,148.886,-3.94199,0.03721437,0.8558
469.849,149.018,-3.94299,0.03619278,0.85546
470.249,149.151,-3.94265,0.03702397,0.85512
470.649,149.283,-3.94067,0.03755916,0.85478
471.049,149.415,-3.942,0.03559314,0.85444
471.449,149.547,-3.94291,0.03688567,0.8541
471.849,149.679,-3.94298,0.03643372,0.85376
472.249,149.812,-3.94059,0.03523849,0.85341
472.649,149.944,-3.94296,0.03439055,0.85307
473.049,150.076,-3.94198,0.03455723,0.85273
473.449,150.209,-3.94181,0.03456192,0.85239
473.849,150.341,-3.94166,0.0345355,0.85205
474.249,150.474,-3.94312,0.03459506,0.8517
474.649,150.6066,-3.94296,0.03319478,0.85136
475.049,150.74,-3.94199,0.03636607,0.85102
475.449,150.8724,-3.9423,0.0354836,0.85067
475.849,151.006,-3.94231,0.03463228,0.85033
476.249,151.139,-3.9423,0.03474062,0.84999
476.649,151.272,-3.94249,0.0323388,0.84964
477.049,151.405,-3.942,0.03395236,0.8493
477.449,151.538,-3.94339,0.03447699,0.84895
477.849,151.671,-3.94655,0.03710462,0.84861
478.249,151.804,-3.94365,0.03588823,0.84826
478.649,151.936,-3.94349,0.03326979,0.84792
479.049,152.068,-3.94364,0.03496051,0.84757
479.449,152.201,-3.94265,0.03656742,0.84723
479.849,152.333,-3.94397,0.03523276,0.84688
480.249,152.465,-3.94265,0.03546718,0.84653
480.649,152.598,-3.94264,0.03464968,0.84619
481.049,152.731,-3.94397,0.03629474,0.84584
481.449,152.864,-3.94265,0.03700549,0.84549
481.849,152.997,-3.94265,0.03384159,0.84515
482.249,153.13,-3.94263,0.03550526,0.8448
482.649,153.263,-3.94333,0.03552664,0.84445
483.049,153.3954,-3.94393,0.03748625,0.8441
483.449,153.528,-3.94543,0.03675691,0.84375
483.849,153.66,-3.94265,0.03936243,0.84341
484.249,153.793,-3.94265,0.0351733,0.84306
484.649,153.925,-3.9432,0.03660649,0.84271
485.049,154.057,-3.94463,0.03753007,0.84236
485.449,154.189,-3.94331,0.03824782,0.84201
485.849,154.321,-3.94231,0.03707139,0.84166
486.249,154.454,-3.94232,0.03581347,0.84131
486.649,154.5859,-3.94266,0.03615168,0.84096
487.049,154.718,-3.94397,0.03593343,0.84061
487.449,154.851,-3.94265,0.03526782,0.84026
487.849,154.983,-3.94397,0.035751,0.83991
488.249,155.116,-3.94397,0.03598964,0.83956
488.649,155.249,-3.94528,0.03679904,0.83921
489.049,155.381,-3.9447,0.03561956,0.83885
489.449,155.514,-3.94461,0.03694251,0.8385
489.849,155.646,-3.94365,0.03774803,0.83815
490.249,155.778,-3.94364,0.03846289,0.8378
490.649,155.911,-3.94435,0.03906629,0.83745
491.049,156.044,-3.94529,0.03894298,0.83709
491.449,156.177,-3.94396,0.0357844,0.83674
491.849,156.31,-3.9443,0.03462321,0.83639
492.249,156.444,-3.94429,0.03457019,0.83603
492.649,156.577,-3.94363,0.03457265,0.83568
493.049,156.71,-3.94495,0.03444088,0.83533
493.449,156.844,-3.94495,0.03515155,0.83497
493.849,156.976,-3.94495,0.03519858,0.83462
494.249,157.108,-3.94485,0.03385772,0.83426
494.649,157.2405,-3.94429,0.0366835,0.83391
495.049,157.373,-3.94561,0.03617156,0.83355
495.449,157.505,-3.94562,0.03692844,0.8332
495.849,157.637,-3.94486,0.0365155,0.83284
496.249,157.77,-3.94559,0.03729428,0.83249
496.649,157.904,-3.94659,0.03465307,0.83213
497.049,158.037,-3.94376,0.03549196,0.83178
497.449,158.17,-3.94486,0.03550085,0.83142
497.849,158.303,-3.94616,0.03503866,0.83106
498.249,158.436,-3.94413,0.03700189,0.83071
498.649,158.568,-3.94485,0.0370417,0.83035
499.049,158.701,-3.94485,0.03639258,0.82999
499.449,158.833,-3.94486,0.03391135,0.82963
499.849,158.964,-3.94451,0.03436523,0.82928
500.249,159.097,-3.94255,0.03564516,0.82892
500.649,159.23,-3.94524,0.03684736,0.82856
501.049,159.362,-3.94367,0.03616734,0.8282
501.449,159.496,-3.94487,0.03313594,0.82784
501.849,159.629,-3.94481,0.03250042,0.82748
502.249,159.763,-3.94569,0.0354056,0.82713
502.649,159.896,-3.94649,0.0370941,0.82677
502.949,159.993,-3.94649,0.03635698,0.8265