File: 01_Data/R13_Fiberglas_InsulationB/MCC/R13_Fiberglas_InsulationB_MCC_30K_min_220216_R3.txt
Sample ID:	C:\MCC\MCC Cal\Test\R13_Fiberglas_InsulationB_MCC_30K_min_220216_R3.txt
Sample Weight (mg):	4.39
Heating Rate (C/s):	0.5
Combustor Temp (C):	900
N2 Flow Rate (cc/min):	80
O2 Flow Rate (cc/min):	20
Calibration File:	C:\MCC\MCC Cal\Coeff1 JN10440_30_210304.txt.txt
T Correction Coefficients:	0	1.024463	0
Time Shift (s):	14
*
Time (s)	Temperature (C)	N2 flow rate (cc/min)	O2 flow rate (cc/min)	Flow Rate (cc/min)	Oxygen (%)	HRR (W/g)	Heating rate (C/s)
0.001	112.932	80.009	19.994	103.746	19.934	0.201	-0.024
1.499	112.943	80.010	19.993	103.745	19.935	0.181	0.007
3.000	112.921	80.010	19.993	103.746	19.935	0.173	-0.027
4.500	112.914	80.010	19.991	103.746	19.941	-0.291	0.011
5.999	112.912	80.010	19.993	103.745	19.939	-0.149	0.010
7.500	112.892	80.011	19.993	103.743	19.935	0.127	-0.020
8.999	112.864	80.010	19.992	103.741	19.935	0.181	-0.012
10.500	112.893	80.011	19.993	103.742	19.932	0.387	0.017
11.999	112.882	80.011	19.994	103.747	19.931	0.467	-0.000
13.499	112.872	80.011	19.992	103.752	19.930	0.544	-0.002
14.999	112.826	80.010	19.994	103.747	19.928	0.678	-0.029
16.500	112.869	80.011	19.993	103.769	19.930	0.563	0.011
18.000	112.877	80.011	19.993	103.726	19.930	0.557	0.002
19.500	112.895	80.012	19.993	103.733	19.924	0.992	0.013
20.999	112.909	80.009	19.993	103.873	19.922	1.128	0.012
22.499	112.901	80.010	19.993	103.897	19.919	1.369	-0.010
24.000	112.955	80.010	19.994	103.873	19.915	1.667	0.032
25.500	113.025	80.011	19.993	103.913	19.914	1.697	0.056
27.000	113.124	80.011	19.993	103.937	19.907	2.232	0.058
28.499	113.204	80.010	19.993	103.953	19.910	2.034	0.087
29.999	113.396	80.010	19.994	103.967	19.905	2.415	0.112
31.500	113.515	80.011	19.992	103.975	19.898	2.892	0.086
33.000	113.726	80.012	19.992	103.969	19.897	2.968	0.134
34.499	113.919	80.011	19.992	103.975	19.896	3.074	0.146
35.999	114.175	80.010	19.994	103.984	19.893	3.260	0.183
37.501	114.386	80.012	19.991	103.984	19.894	3.198	0.138
39.001	114.710	80.012	19.994	103.979	19.894	3.228	0.181
40.500	114.975	80.013	19.993	103.978	19.892	3.307	0.179
42.000	115.265	80.012	19.993	103.978	19.893	3.292	0.191
43.499	115.587	80.012	19.992	103.978	19.891	3.406	0.209
45.000	115.904	80.011	19.993	103.979	19.891	3.450	0.202
46.500	116.222	80.013	19.992	103.981	19.891	3.392	0.229
48.001	116.562	80.011	19.992	103.981	19.894	3.223	0.227
49.500	116.933	80.010	19.993	103.991	19.892	3.364	0.264
50.999	117.332	80.011	19.993	104.011	19.895	3.151	0.283
52.500	117.706	80.010	19.993	104.010	19.892	3.317	0.251
53.999	118.123	80.010	19.994	104.005	19.892	3.355	0.288
55.499	118.584	80.011	19.993	104.008	19.892	3.324	0.329
56.999	118.993	80.010	19.993	104.003	19.889	3.540	0.281
58.500	119.463	80.011	19.992	104.012	19.887	3.710	0.325
59.999	119.924	80.012	19.993	104.008	19.888	3.616	0.317
61.500	120.397	80.011	19.993	104.011	19.890	3.472	0.331
63.001	120.865	80.012	19.993	104.014	19.888	3.640	0.311
64.501	121.369	80.012	19.993	104.013	19.887	3.682	0.324
66.001	121.876	80.012	19.993	104.009	19.890	3.526	0.343
67.500	122.421	80.012	19.991	104.009	19.888	3.606	0.355
68.999	122.928	80.012	19.992	104.017	19.888	3.606	0.342
70.499	123.460	80.011	19.993	104.017	19.885	3.832	0.355
71.999	124.000	80.012	19.993	104.018	19.887	3.689	0.367
73.501	124.509	80.010	19.993	104.017	19.886	3.752	0.355
75.000	125.078	80.008	19.994	104.010	19.884	3.948	0.386
76.500	125.681	80.010	19.995	103.999	19.883	4.032	0.405
78.001	126.238	80.009	19.994	104.010	19.883	4.026	0.385
79.500	126.847	80.009	19.993	104.018	19.883	4.036	0.393
81.000	127.431	80.010	19.994	104.018	19.881	4.148	0.391
82.500	128.006	80.009	19.994	104.029	19.881	4.162	0.395
84.001	128.686	80.009	19.994	104.032	19.884	3.948	0.462
85.500	129.281	80.009	19.994	104.024	19.884	3.918	0.416
86.999	129.918	80.010	19.994	104.021	19.885	3.868	0.436
88.501	130.593	80.010	19.995	104.026	19.879	4.321	0.437
90.000	131.209	80.010	19.995	104.024	19.880	4.205	0.411
91.501	131.859	80.010	19.994	104.024	19.885	3.884	0.444
93.000	132.519	80.009	19.994	104.038	19.882	4.080	0.449
94.501	133.190	80.009	19.994	104.036	19.884	3.946	0.439
96.001	133.839	80.010	19.995	104.033	19.884	3.950	0.441
97.500	134.516	80.010	19.994	104.036	19.885	3.854	0.454
99.001	135.214	80.010	19.995	104.019	19.883	4.042	0.452
100.501	135.898	80.012	19.993	104.016	19.883	3.992	0.468
102.000	136.611	80.012	19.993	104.019	19.881	4.169	0.474
103.500	137.313	80.010	19.993	104.022	19.880	4.264	0.460
105.000	138.063	80.009	19.993	104.017	19.882	4.070	0.492
106.500	138.778	80.009	19.993	104.016	19.881	4.134	0.469
108.000	139.491	80.010	19.993	104.017	19.883	3.998	0.495
109.501	140.230	80.009	19.992	104.022	19.885	3.874	0.478
110.999	140.952	80.011	19.993	104.022	19.883	3.992	0.480
112.501	141.699	80.009	19.995	104.020	19.885	3.890	0.483
114.000	142.426	80.010	19.993	104.030	19.885	3.850	0.499
115.501	143.197	80.010	19.993	104.030	19.879	4.271	0.511
117.000	143.909	80.010	19.994	104.022	19.884	3.920	0.496
118.500	144.663	80.011	19.993	104.020	19.884	3.912	0.500
120.001	145.388	80.012	19.993	104.019	19.887	3.736	0.499
121.499	146.226	80.010	19.992	104.019	19.883	4.031	0.548
123.000	146.925	80.011	19.994	104.019	19.884	3.926	0.491
124.500	147.686	80.011	19.993	104.019	19.881	4.141	0.505
126.000	148.488	80.012	19.993	104.016	19.882	4.055	0.552
127.501	149.196	80.012	19.993	104.018	19.886	3.823	0.511
128.999	150.008	80.012	19.992	104.016	19.886	3.805	0.547
130.501	150.740	80.011	19.993	104.013	19.886	3.753	0.502
132.001	151.528	80.011	19.993	104.014	19.888	3.652	0.507
133.500	152.272	80.011	19.993	104.018	19.887	3.745	0.505
134.999	153.025	80.011	19.992	104.017	19.892	3.368	0.519
136.501	153.830	80.010	19.993	104.010	19.890	3.505	0.533
138.000	154.604	80.012	19.994	104.004	19.890	3.495	0.511
139.499	155.317	80.012	19.993	104.003	19.888	3.665	0.487
140.999	156.111	80.012	19.992	103.994	19.891	3.428	0.533
142.500	156.889	80.012	19.993	104.000	19.890	3.501	0.513
144.001	157.669	80.011	19.993	104.001	19.890	3.523	0.532
145.500	158.439	80.011	19.993	103.987	19.887	3.705	0.519
146.999	159.213	80.012	19.993	103.982	19.891	3.391	0.497
148.499	159.968	80.012	19.992	103.988	19.893	3.240	0.497
149.999	160.755	80.013	19.993	103.988	19.890	3.459	0.513
151.499	161.489	80.012	19.993	103.992	19.889	3.595	0.492
153.000	162.252	80.013	19.993	103.985	19.893	3.284	0.493
154.499	163.031	80.011	19.993	103.979	19.888	3.617	0.517
155.999	163.798	80.012	19.994	103.981	19.893	3.271	0.490
157.500	164.599	80.012	19.993	103.984	19.895	3.142	0.535
159.001	165.399	80.011	19.994	103.979	19.893	3.277	0.526
160.500	166.167	80.011	19.994	103.977	19.892	3.331	0.515
161.999	166.938	80.011	19.994	103.977	19.894	3.168	0.525
163.500	167.621	80.009	19.993	103.979	19.893	3.293	0.462
164.999	168.434	80.011	19.992	103.980	19.892	3.331	0.546
166.499	169.168	80.010	19.993	103.973	19.894	3.225	0.502
167.999	169.975	80.011	19.993	103.973	19.896	3.036	0.532
169.499	170.700	80.009	19.994	103.976	19.893	3.232	0.488
171.000	171.512	80.012	19.994	103.978	19.898	2.922	0.502
172.501	172.215	80.009	19.994	103.977	19.893	3.277	0.487
174.001	172.983	80.010	19.994	103.973	19.894	3.222	0.511
175.500	173.764	80.011	19.994	103.973	19.892	3.347	0.528
176.999	174.508	80.009	19.994	103.976	19.894	3.203	0.513
178.500	175.236	80.010	19.994	103.971	19.891	3.379	0.493
180.000	175.999	80.010	19.994	103.974	19.893	3.303	0.516
181.500	176.706	80.009	19.994	103.973	19.892	3.367	0.475
183.000	177.475	80.009	19.994	103.971	19.892	3.355	0.512
184.500	178.215	80.009	19.994	103.976	19.892	3.321	0.488
185.999	178.996	80.010	19.993	103.973	19.893	3.263	0.510
187.500	179.719	80.009	19.994	103.970	19.893	3.234	0.474
188.999	180.451	80.009	19.994	103.977	19.894	3.207	0.500
190.499	181.170	80.009	19.994	103.977	19.894	3.211	0.471
191.999	181.934	80.009	19.993	103.976	19.895	3.136	0.498
193.499	182.636	80.009	19.993	103.974	19.894	3.168	0.486
195.000	183.380	80.009	19.993	103.963	19.896	3.030	0.501
196.499	184.095	80.008	19.991	103.970	19.897	2.943	0.482
198.000	184.859	80.010	19.993	103.983	19.900	2.758	0.514
199.500	185.591	80.011	19.992	103.974	19.899	2.848	0.469
200.999	186.321	80.011	19.994	103.969	19.897	2.972	0.486
202.499	187.119	80.010	19.993	103.976	19.896	3.047	0.511
203.999	187.892	80.011	19.993	103.976	19.897	2.966	0.506
205.500	188.593	80.011	19.993	103.971	19.899	2.834	0.462
206.999	189.303	80.013	19.993	103.950	19.900	2.720	0.466
208.501	190.065	80.012	19.993	103.948	19.900	2.782	0.495
209.999	190.802	80.013	19.992	103.969	19.902	2.636	0.465
211.499	191.551	80.012	19.993	103.968	19.901	2.684	0.499
213.000	192.296	80.013	19.994	103.960	19.901	2.650	0.504
214.499	193.007	80.012	19.993	103.957	19.898	2.923	0.491
215.999	193.731	80.012	19.994	103.953	19.899	2.804	0.487
217.500	194.456	80.011	19.994	103.954	19.897	3.000	0.504
218.999	195.170	80.011	19.994	103.957	19.897	2.944	0.468
220.500	195.941	80.012	19.993	103.953	19.899	2.836	0.502
222.000	196.657	80.012	19.993	103.942	19.901	2.682	0.487
223.499	197.388	80.012	19.993	103.951	19.897	2.955	0.491
225.000	198.113	80.011	19.993	103.951	19.899	2.816	0.461
226.500	198.840	80.011	19.992	103.950	19.899	2.850	0.490
228.000	199.572	80.013	19.993	103.960	19.898	2.931	0.464
229.499	200.315	80.012	19.993	103.968	19.897	2.937	0.489
230.999	201.023	80.013	19.992	103.954	19.898	2.921	0.471
232.499	201.761	80.013	19.994	103.945	19.898	2.917	0.504
233.999	202.502	80.012	19.993	103.954	19.898	2.882	0.511
235.499	203.196	80.013	19.992	103.952	19.898	2.888	0.499
237.000	203.914	80.012	19.992	103.955	19.901	2.698	0.478
238.500	204.665	80.011	19.993	103.949	19.896	3.053	0.496
240.000	205.393	80.014	19.992	103.943	19.895	3.103	0.482
241.500	206.114	80.011	19.992	103.944	19.896	3.015	0.491
242.999	206.826	80.011	19.992	103.946	19.897	2.945	0.465
244.500	207.607	80.010	19.994	103.958	19.896	3.079	0.526
246.000	208.307	80.010	19.994	103.970	19.898	2.907	0.462
247.501	209.040	80.010	19.993	103.954	19.900	2.764	0.480
249.001	209.784	80.009	19.993	103.946	19.899	2.796	0.486
250.499	210.520	80.009	19.995	103.946	19.899	2.819	0.488
252.000	211.273	80.009	19.994	103.944	19.899	2.847	0.496
253.500	212.029	80.010	19.994	103.948	19.901	2.710	0.488
255.000	212.729	80.010	19.993	103.949	19.896	3.075	0.478
256.499	213.465	80.009	19.995	103.947	19.896	3.073	0.483
258.000	214.182	80.010	19.995	103.949	19.896	3.073	0.486
259.500	214.965	80.008	19.994	103.945	19.899	2.850	0.504
260.999	215.700	80.011	19.992	103.943	19.898	2.895	0.473
262.499	216.397	80.009	19.994	103.942	19.899	2.816	0.479
264.001	217.154	80.009	19.993	103.945	19.898	2.880	0.482
265.500	217.930	80.009	19.993	103.953	19.897	2.989	0.503
267.000	218.635	80.011	19.993	103.958	19.898	2.900	0.464
268.500	219.406	80.011	19.993	103.944	19.899	2.828	0.533
269.999	220.122	80.013	19.993	103.954	19.897	2.957	0.483
271.499	220.867	80.011	19.995	103.952	19.898	2.877	0.494
273.000	221.646	80.011	19.994	103.941	19.900	2.730	0.511
274.500	222.397	80.010	19.994	103.949	19.899	2.791	0.518
275.999	223.125	80.009	19.994	103.954	19.900	2.779	0.490
277.501	223.865	80.009	19.995	103.962	19.898	2.903	0.461
278.999	224.656	80.009	19.994	103.951	19.897	2.961	0.513
280.500	225.373	80.008	19.993	103.942	19.897	2.941	0.483
282.000	226.184	80.009	19.995	103.938	19.898	2.889	0.551
283.501	226.879	80.008	19.995	103.939	19.896	3.035	0.468
284.999	227.647	80.010	19.994	103.938	19.899	2.795	0.504
286.499	228.408	80.010	19.994	103.937	19.898	2.923	0.485
287.999	229.150	80.012	19.994	103.937	19.897	2.949	0.502
289.499	229.914	80.011	19.995	103.937	19.898	2.887	0.509
290.999	230.674	80.012	19.993	103.936	19.895	3.087	0.517
292.500	231.411	80.011	19.993	103.937	19.899	2.845	0.520
294.000	232.161	80.011	19.993	103.936	19.898	2.879	0.500
295.499	232.924	80.011	19.992	103.935	19.898	2.925	0.520
297.001	233.658	80.013	19.993	103.935	19.899	2.809	0.481
298.499	234.391	80.012	19.993	103.937	19.897	2.995	0.497
300.000	235.147	80.011	19.992	103.937	19.898	2.933	0.498
301.499	235.897	80.011	19.992	103.935	19.899	2.845	0.497
303.001	236.654	80.012	19.994	103.934	19.898	2.883	0.523
304.501	237.401	80.011	19.993	103.936	19.898	2.867	0.496
305.999	238.152	80.010	19.994	103.936	19.901	2.676	0.487
307.500	238.861	80.011	19.993	103.930	19.897	2.943	0.475
308.999	239.617	80.009	19.993	103.929	19.898	2.917	0.498
310.500	240.340	80.009	19.993	103.939	19.900	2.773	0.491
312.000	241.081	80.011	19.993	103.930	19.900	2.734	0.504
313.500	241.857	80.011	19.993	103.934	19.896	3.031	0.530
314.999	242.572	80.011	19.993	103.938	19.899	2.823	0.505
316.500	243.307	80.012	19.993	103.936	19.898	2.877	0.511
318.000	244.077	80.012	19.992	103.933	19.897	2.975	0.499
319.500	244.792	80.011	19.992	103.938	19.893	3.254	0.493
321.000	245.520	80.012	19.993	103.937	19.895	3.116	0.496
322.500	246.298	80.011	19.992	103.939	19.896	3.033	0.491
324.000	247.064	80.011	19.992	103.937	19.898	2.915	0.499
325.500	247.779	80.012	19.992	103.938	19.898	2.929	0.480
327.000	248.533	80.010	19.993	103.941	19.900	2.758	0.513
328.501	249.288	80.010	19.993	103.940	19.895	3.132	0.491
330.000	250.098	80.010	19.992	103.931	19.897	3.005	0.514
331.501	250.823	80.007	19.993	103.929	19.896	3.041	0.509
332.999	251.597	80.009	19.993	103.931	19.898	2.919	0.512
334.499	252.342	80.010	19.992	103.935	19.897	2.951	0.510
336.000	253.054	80.010	19.994	103.928	19.899	2.845	0.495
337.500	253.823	80.009	19.994	103.940	19.897	2.971	0.498
339.000	254.576	80.010	19.993	103.935	19.897	2.935	0.508
340.501	255.349	80.010	19.994	103.928	19.898	2.911	0.508
342.000	256.106	80.011	19.993	103.936	19.897	2.935	0.500
343.499	256.802	80.010	19.992	103.939	19.897	2.939	0.467
345.000	257.566	80.011	19.992	103.939	19.896	3.057	0.499
346.501	258.312	80.010	19.993	103.936	19.895	3.105	0.491
347.999	259.069	80.011	19.993	103.930	19.895	3.122	0.519
349.499	259.803	80.010	19.994	103.930	19.896	3.064	0.489
350.999	260.590	80.011	19.994	103.937	19.896	3.019	0.510
352.499	261.291	80.010	19.993	103.935	19.901	2.684	0.470
354.001	262.005	80.010	19.994	103.926	19.897	2.943	0.465
355.500	262.773	80.010	19.993	103.928	19.900	2.759	0.487
357.000	263.524	80.010	19.994	103.938	19.898	2.926	0.485
358.499	264.246	80.010	19.993	103.936	19.898	2.893	0.485
360.000	265.011	80.010	19.994	103.927	19.900	2.723	0.510
361.500	265.718	80.010	19.994	103.929	19.897	2.995	0.479
362.999	266.502	80.011	19.994	103.939	19.894	3.171	0.518
364.500	267.275	80.010	19.993	103.936	19.900	2.749	0.505
366.000	267.988	80.010	19.994	103.938	19.899	2.857	0.499
367.501	268.762	80.010	19.994	103.924	19.897	2.955	0.505
369.000	269.518	80.010	19.994	103.915	19.897	3.006	0.500
370.500	270.273	80.010	19.994	103.933	19.895	3.094	0.487
372.000	270.984	80.010	19.993	103.884	19.891	3.449	0.501
373.501	271.814	80.011	19.994	103.857	19.895	3.128	0.535
375.000	272.533	80.010	19.994	103.970	19.896	3.044	0.509
376.500	273.291	80.010	19.993	103.976	19.897	2.970	0.514
378.001	274.062	80.010	19.994	103.930	19.897	2.980	0.508
379.499	274.813	80.010	19.994	103.919	19.895	3.094	0.488
381.000	275.538	80.009	19.994	103.911	19.899	2.811	0.479
382.501	276.316	80.010	19.995	103.913	19.897	2.951	0.526
383.999	277.064	80.009	19.995	103.928	19.895	3.142	0.492
385.500	277.797	80.010	19.994	103.921	19.898	2.923	0.481
387.000	278.553	80.010	19.994	103.908	19.896	3.010	0.522
388.500	279.309	80.011	19.993	103.916	19.898	2.892	0.535
389.999	280.042	80.009	19.993	103.911	19.896	3.068	0.490
391.501	280.805	80.011	19.994	103.909	19.892	3.305	0.514
392.999	281.535	80.011	19.993	103.920	19.896	3.040	0.478
394.500	282.342	80.012	19.992	103.924	19.896	3.074	0.533
396.001	283.014	80.013	19.994	103.919	19.893	3.243	0.478
397.500	283.776	80.013	19.993	103.921	19.892	3.339	0.488
399.000	284.525	80.012	19.994	103.907	19.894	3.174	0.496
400.499	285.251	80.013	19.993	103.908	19.897	2.974	0.477
402.000	286.004	80.012	19.993	103.906	19.899	2.823	0.531
403.500	286.726	80.013	19.993	103.904	19.894	3.200	0.479
404.999	287.505	80.012	19.993	103.908	19.895	3.118	0.506
406.499	288.277	80.012	19.993	103.901	19.897	3.002	0.509
407.999	289.023	80.012	19.992	103.906	19.893	3.252	0.543
409.499	289.768	80.013	19.993	103.928	19.898	2.897	0.526
411.000	290.521	80.011	19.993	103.925	19.894	3.162	0.507
412.499	291.296	80.011	19.993	103.913	19.893	3.229	0.475
413.999	292.128	80.011	19.993	103.911	19.897	2.992	0.548
415.499	292.831	80.010	19.993	103.912	19.899	2.854	0.507
417.001	293.625	80.010	19.993	103.919	19.897	2.962	0.523
418.501	294.385	80.011	19.992	103.909	19.898	2.890	0.464
420.000	295.297	80.010	19.993	103.922	19.899	2.816	0.523
421.499	295.903	80.011	19.993	103.918	19.901	2.665	0.439
423.000	296.642	80.011	19.993	103.908	19.900	2.743	0.478
424.501	297.402	80.010	19.994	103.906	19.899	2.812	0.472
425.999	298.168	80.011	19.993	103.911	19.901	2.675	0.519
427.500	298.897	80.011	19.993	103.903	19.900	2.719	0.497
429.000	299.652	80.010	19.993	103.903	19.901	2.655	0.507
430.500	300.421	80.011	19.993	103.901	19.897	2.958	0.528
431.999	301.177	80.012	19.992	103.899	19.899	2.798	0.508
433.500	301.947	80.012	19.992	103.900	19.901	2.701	0.519
434.999	302.695	80.012	19.992	103.899	19.903	2.557	0.498
436.499	303.425	80.012	19.993	103.899	19.904	2.468	0.511
438.001	304.174	80.010	19.993	103.900	19.900	2.723	0.513
439.499	304.940	80.011	19.992	103.902	19.900	2.761	0.507
440.999	305.704	80.010	19.993	103.903	19.901	2.645	0.479
442.500	306.456	80.010	19.993	103.902	19.901	2.687	0.507
443.999	307.200	80.009	19.994	103.902	19.902	2.587	0.516
445.500	307.927	80.010	19.994	103.903	19.902	2.635	0.482
447.000	308.675	80.010	19.995	103.910	19.901	2.663	0.506
448.499	309.493	80.010	19.994	103.916	19.904	2.447	0.547
449.999	310.248	80.010	19.994	103.908	19.903	2.557	0.497
451.500	310.977	80.010	19.993	103.904	19.902	2.597	0.467
452.999	311.728	80.008	19.994	103.901	19.904	2.417	0.539
454.499	312.508	80.010	19.993	103.901	19.904	2.467	0.510
455.999	313.281	80.009	19.994	103.904	19.901	2.681	0.526
457.499	314.051	80.011	19.993	103.907	19.902	2.593	0.500
459.000	314.823	80.011	19.993	103.902	19.903	2.563	0.514
460.499	315.539	80.010	19.993	103.902	19.899	2.810	0.469
462.000	316.272	80.011	19.993	103.902	19.901	2.685	0.498
463.499	317.059	80.012	19.993	103.902	19.899	2.850	0.534
465.000	317.789	80.012	19.993	103.901	19.900	2.765	0.486
466.501	318.512	80.011	19.994	103.902	19.898	2.900	0.472
468.001	319.267	80.011	19.993	103.901	19.901	2.686	0.513
469.501	320.041	80.010	19.994	103.901	19.900	2.712	0.503
471.000	320.742	80.010	19.994	103.899	19.899	2.814	0.487
472.499	321.498	80.011	19.994	103.899	19.902	2.579	0.481
473.999	322.211	80.012	19.995	103.898	19.903	2.525	0.464
475.500	322.978	80.010	19.994	103.906	19.901	2.709	0.500
477.001	323.746	80.011	19.994	103.899	19.902	2.623	0.520
478.500	324.509	80.010	19.993	103.890	19.901	2.653	0.517
479.999	325.259	80.011	19.994	103.891	19.904	2.457	0.494
481.500	326.003	80.012	19.994	103.899	19.903	2.517	0.502
482.999	326.769	80.010	19.993	103.896	19.903	2.555	0.522
484.500	327.530	80.013	19.994	103.893	19.900	2.715	0.502
486.000	328.260	80.013	19.993	103.897	19.900	2.738	0.485
487.501	329.024	80.014	19.993	103.896	19.903	2.559	0.513
488.999	329.799	80.014	19.993	103.894	19.904	2.423	0.535
490.500	330.564	80.013	19.993	103.897	19.902	2.581	0.510
492.000	331.322	80.013	19.992	103.898	19.903	2.491	0.521
493.500	332.101	80.012	19.992	103.899	19.904	2.455	0.511
495.000	332.869	80.011	19.993	103.900	19.902	2.619	0.544
496.501	333.643	80.011	19.994	103.900	19.905	2.398	0.495
498.000	334.394	80.010	19.994	103.899	19.902	2.587	0.517
499.499	335.189	80.011	19.993	103.899	19.904	2.469	0.523
501.000	335.912	80.010	19.993	103.900	19.903	2.517	0.485
502.500	336.722	80.010	19.993	103.900	19.902	2.575	0.533
504.000	337.440	80.010	19.993	103.900	19.906	2.298	0.500
505.499	338.261	80.009	19.993	103.902	19.903	2.527	0.527
506.999	339.009	80.009	19.993	103.905	19.905	2.375	0.498
508.499	339.777	80.009	19.993	103.902	19.907	2.240	0.486
509.999	340.538	80.010	19.993	103.897	19.905	2.369	0.521
511.501	341.284	80.011	19.992	103.901	19.901	2.656	0.486
512.999	342.019	80.010	19.994	103.903	19.904	2.487	0.494
514.500	342.782	80.010	19.994	103.902	19.903	2.563	0.489
515.999	343.569	80.011	19.994	103.900	19.904	2.489	0.513
517.500	344.312	80.010	19.993	103.895	19.905	2.378	0.509
519.000	345.103	80.011	19.993	103.897	19.904	2.447	0.506
520.499	345.812	80.010	19.990	103.890	19.901	2.669	0.463
522.000	346.613	80.010	19.992	103.884	19.903	2.525	0.535
523.500	347.356	80.010	19.992	103.892	19.904	2.465	0.501
524.999	348.123	80.009	19.993	103.900	19.904	2.457	0.504
526.500	348.876	80.009	19.992	103.902	19.903	2.561	0.496
527.999	349.641	80.009	19.992	103.901	19.900	2.742	0.510
529.499	350.404	80.009	19.992	103.901	19.901	2.661	0.489
531.001	351.191	80.009	19.992	103.903	19.900	2.770	0.528
532.500	351.934	80.009	19.992	103.902	19.900	2.718	0.518
533.999	352.698	80.010	19.992	103.900	19.900	2.742	0.495
535.499	353.472	80.011	19.993	103.899	19.900	2.730	0.518
536.999	354.251	80.011	19.993	103.901	19.900	2.760	0.517
538.499	355.025	80.011	19.995	103.894	19.898	2.912	0.500
539.999	355.759	80.011	19.993	103.892	19.899	2.814	0.496
541.500	356.502	80.011	19.993	103.893	19.901	2.692	0.475
543.000	357.236	80.012	19.992	103.889	19.901	2.682	0.498
544.500	358.011	80.011	19.993	103.891	19.903	2.525	0.514
546.001	358.804	80.013	19.994	103.897	19.904	2.465	0.536
547.500	359.509	80.012	19.993	103.895	19.903	2.555	0.483
549.001	360.283	80.013	19.993	103.883	19.901	2.685	0.499
550.499	361.028	80.012	19.995	103.883	19.902	2.575	0.514
551.999	361.796	80.012	19.993	103.892	19.901	2.649	0.523
553.500	362.538	80.011	19.994	103.889	19.905	2.411	0.488
555.000	363.298	80.012	19.994	103.893	19.905	2.355	0.530
556.499	364.047	80.013	19.993	103.895	19.902	2.569	0.526
557.999	364.851	80.012	19.994	103.890	19.904	2.421	0.520
559.499	365.561	80.010	19.994	103.894	19.900	2.736	0.462
560.999	366.341	80.012	19.994	103.892	19.904	2.473	0.537
562.499	367.033	80.011	19.991	103.890	19.902	2.625	0.470
563.999	367.825	80.013	19.992	103.888	19.900	2.742	0.517
565.499	368.564	80.013	19.994	103.881	19.901	2.657	0.483
566.999	369.365	80.012	19.995	103.888	19.901	2.665	0.540
568.500	370.163	80.013	19.993	103.882	19.904	2.485	0.517
570.000	370.842	80.013	19.993	103.881	19.902	2.597	0.462
571.500	371.614	80.013	19.991	103.887	19.901	2.670	0.474
573.001	372.369	80.013	19.994	103.892	19.895	3.097	0.492
574.500	373.170	80.012	19.994	103.888	19.891	3.436	0.537
576.000	373.933	80.010	19.995	103.888	19.897	2.977	0.513
577.500	374.646	80.010	19.994	103.896	19.901	2.653	0.498
579.000	375.463	80.010	19.994	103.884	19.898	2.862	0.546
580.500	376.184	80.009	19.995	103.889	19.899	2.846	0.501
581.999	376.991	80.009	19.994	103.887	19.902	2.605	0.555
583.501	377.734	80.010	19.995	103.875	19.895	3.085	0.485
585.000	378.475	80.011	19.993	103.887	19.897	3.002	0.466
586.499	379.172	80.012	19.993	103.889	19.899	2.824	0.574
588.000	380.288	80.012	19.991	103.890	19.899	2.794	0.749
589.500	380.747	80.010	19.993	103.897	19.899	2.822	0.441
591.000	381.363	80.009	19.992	103.898	19.900	2.774	0.670
592.500	382.326	80.009	19.992	103.899	19.899	2.844	0.508
594.000	383.152	80.009	19.992	103.901	19.898	2.876	0.547
595.500	383.817	80.009	19.994	103.893	19.898	2.909	0.477
596.999	384.693	80.010	19.992	103.892	19.899	2.834	0.540
598.500	385.325	80.010	19.993	103.885	19.898	2.926	0.532
600.000	386.120	80.011	19.992	103.890	19.900	2.734	0.524
601.500	386.898	80.011	19.993	103.895	19.899	2.792	0.507
602.999	387.679	80.012	19.992	103.899	19.902	2.605	0.495
604.500	388.434	80.011	19.993	103.887	19.898	2.882	0.540
606.000	389.213	80.011	19.994	103.873	19.899	2.812	0.553
607.499	389.990	80.009	19.993	103.889	19.903	2.555	0.508
609.000	390.800	80.009	19.994	103.893	19.899	2.795	0.550
610.500	391.518	80.012	19.994	103.887	19.899	2.798	0.512
612.000	392.342	80.011	19.993	103.891	19.902	2.600	0.526
613.501	393.098	80.011	19.997	103.887	19.900	2.744	0.492
614.999	393.877	80.009	19.993	103.882	19.901	2.684	0.515
616.500	394.658	80.009	19.994	103.879	19.901	2.646	0.542
617.999	395.449	80.010	19.992	103.889	19.901	2.686	0.527
619.500	396.175	80.009	19.993	103.873	19.901	2.680	0.486
620.999	396.982	80.010	19.993	103.873	19.898	2.884	0.556
622.501	397.736	80.011	19.993	103.884	19.901	2.692	0.504
624.001	398.510	80.010	19.993	103.876	19.904	2.439	0.499
625.501	399.295	80.010	19.992	103.883	19.901	2.638	0.527
627.000	400.080	80.013	19.992	103.878	19.901	2.639	0.494
628.500	400.796	80.012	19.992	103.869	19.906	2.315	0.511
630.000	401.550	80.013	19.992	103.865	19.903	2.520	0.494
631.499	402.361	80.011	19.994	103.875	19.904	2.470	0.521
632.999	403.074	80.013	19.993	103.877	19.901	2.652	0.466
634.501	403.870	80.011	19.994	103.877	19.903	2.510	0.532
636.000	404.623	80.011	19.994	103.881	19.904	2.450	0.504
637.499	405.382	80.012	19.993	103.893	19.899	2.849	0.488
639.000	406.194	80.011	19.996	103.884	19.902	2.596	0.528
640.500	406.938	80.011	19.993	103.870	19.898	2.927	0.493
642.000	407.706	80.010	19.993	103.869	19.896	3.071	0.509
643.500	408.462	80.009	19.993	103.812	19.896	3.031	0.506
644.999	409.217	80.011	19.994	103.822	19.895	3.113	0.509
646.499	409.965	80.012	19.993	103.919	19.900	2.768	0.492
647.999	410.747	80.010	19.995	103.938	19.899	2.798	0.519
649.499	411.473	80.013	19.993	103.871	19.898	2.892	0.480
651.000	412.222	80.012	19.993	103.865	19.900	2.728	0.478
652.500	412.993	80.012	19.990	103.875	19.901	2.708	0.517
654.000	413.726	80.013	19.993	103.884	19.901	2.644	0.500
655.499	414.437	80.012	19.992	103.894	19.902	2.604	0.494
656.999	415.188	80.011	19.992	103.888	19.900	2.768	0.506
658.500	415.921	80.012	19.993	103.882	19.899	2.853	0.507
660.000	416.670	80.010	19.993	103.886	19.899	2.816	0.513
661.500	417.418	80.011	19.993	103.876	19.905	2.411	0.518
663.000	418.182	80.011	19.994	103.880	19.902	2.584	0.537
664.499	418.961	80.008	19.992	103.879	19.900	2.720	0.524
665.999	419.700	80.011	19.994	103.872	19.902	2.564	0.488
667.499	420.445	80.011	19.993	103.870	19.902	2.578	0.480
668.999	421.246	80.008	19.995	103.864	19.900	2.773	0.510
670.499	421.997	80.009	19.994	103.874	19.900	2.772	0.516
672.000	422.739	80.009	19.994	103.891	19.901	2.702	0.496
673.500	423.465	80.009	19.995	103.883	19.901	2.706	0.491
674.999	424.236	80.010	19.993	103.867	19.901	2.654	0.530
676.500	425.006	80.009	19.995	103.870	19.899	2.811	0.491
678.000	425.773	80.009	19.996	103.863	19.900	2.712	0.494
679.500	426.491	80.009	19.994	103.862	19.903	2.558	0.481
681.000	427.254	80.008	19.995	103.867	19.901	2.658	0.514
682.499	427.993	80.012	19.995	103.869	19.899	2.846	0.486
683.999	428.799	80.010	19.992	103.879	19.900	2.732	0.535
685.501	429.536	80.012	19.991	103.878	19.902	2.616	0.503
687.000	430.313	80.010	19.996	103.861	19.900	2.764	0.498
688.499	431.070	80.011	19.992	103.869	19.901	2.688	0.501
690.000	431.792	80.010	19.992	103.875	19.899	2.791	0.489
691.500	432.529	80.011	19.993	103.875	19.902	2.604	0.487
693.001	433.313	80.010	19.993	103.873	19.901	2.690	0.505
694.500	434.078	80.011	19.993	103.869	19.902	2.608	0.517
696.001	434.823	80.009	19.994	103.883	19.901	2.670	0.495
697.499	435.627	80.010	19.993	103.884	19.900	2.720	0.523
699.000	436.390	80.011	19.994	103.875	19.899	2.800	0.506
700.499	437.101	80.010	19.992	103.866	19.897	2.947	0.481
702.000	437.911	80.013	19.992	103.864	19.899	2.857	0.517
703.500	438.619	80.011	19.995	103.867	19.903	2.550	0.497
704.999	439.390	80.008	19.994	103.877	19.901	2.670	0.493
706.499	440.146	80.010	19.994	103.881	19.900	2.770	0.497
707.999	440.891	80.011	19.992	103.879	19.904	2.467	0.510
709.499	441.629	80.011	19.992	103.878	19.902	2.618	0.505
711.000	442.355	80.012	19.994	103.865	19.900	2.758	0.501
712.501	443.145	80.012	19.992	103.861	19.900	2.754	0.515
714.001	443.879	80.011	19.995	103.874	19.904	2.480	0.489
715.500	444.642	80.013	19.993	103.871	19.902	2.602	0.497
717.001	445.448	80.012	19.992	103.873	19.903	2.523	0.547
718.500	446.165	80.012	19.994	103.870	19.900	2.778	0.490
720.000	446.904	80.012	19.993	103.868	19.902	2.594	0.488
721.500	447.684	80.012	19.991	103.870	19.901	2.664	0.527
722.999	448.410	80.012	19.993	103.869	19.900	2.712	0.485
724.499	449.158	80.011	19.993	103.864	19.901	2.698	0.478
726.000	449.938	80.009	19.992	103.876	19.900	2.712	0.508
727.500	450.687	80.011	19.993	103.881	19.901	2.682	0.506
729.000	451.463	80.011	19.991	103.877	19.904	2.458	0.512
730.500	452.190	80.010	19.992	103.876	19.897	2.953	0.489
731.999	452.953	80.011	19.990	103.867	19.898	2.913	0.502
733.500	453.705	80.012	19.991	103.870	19.898	2.915	0.522
735.000	454.441	80.010	19.991	103.870	19.899	2.845	0.476
736.499	455.232	80.013	19.993	103.865	19.899	2.821	0.535
738.000	455.986	80.013	19.993	103.859	19.902	2.610	0.518
739.501	456.712	80.012	19.994	103.862	19.901	2.678	0.494
740.999	457.491	80.012	19.993	103.863	19.899	2.821	0.514
742.500	458.268	80.014	19.993	103.859	19.899	2.825	0.533
744.000	458.974	80.010	19.994	103.858	19.901	2.680	0.481
745.500	459.774	80.013	19.994	103.859	19.900	2.732	0.531
746.999	460.496	80.011	19.993	103.859	19.899	2.839	0.484
748.500	461.278	80.011	19.994	103.867	19.901	2.710	0.480
750.000	462.060	80.010	19.995	103.871	19.901	2.650	0.497
751.500	462.798	80.011	19.993	103.859	19.901	2.668	0.508
753.000	463.579	80.010	19.993	103.858	19.902	2.570	0.499
754.499	464.335	80.011	19.992	103.862	19.900	2.781	0.509
756.000	465.054	80.010	19.993	103.866	19.897	2.935	0.489
757.500	465.815	80.010	19.994	103.865	19.901	2.704	0.509
758.999	466.598	80.010	19.993	103.862	19.901	2.690	0.538
760.501	467.369	80.011	19.993	103.865	19.901	2.678	0.529
762.001	468.120	80.010	19.995	103.874	19.899	2.797	0.509
763.500	468.861	80.008	19.993	103.870	19.901	2.706	0.508
764.999	469.670	80.010	19.994	103.867	19.902	2.624	0.533
766.500	470.386	80.011	19.994	103.865	19.901	2.646	0.461
767.999	471.150	80.011	19.994	103.862	19.904	2.442	0.506
769.499	471.912	80.008	19.993	103.866	19.900	2.754	0.517
771.000	472.714	80.009	19.995	103.865	19.900	2.765	0.526
772.499	473.495	80.009	19.994	103.861	19.901	2.668	0.528
774.000	474.274	80.009	19.996	103.861	19.904	2.461	0.526
775.500	475.064	80.010	19.994	103.861	19.905	2.403	0.531
776.999	475.830	80.010	19.995	103.861	19.904	2.423	0.517
778.499	476.614	80.008	19.994	103.862	19.905	2.395	0.523
779.999	477.389	80.009	19.993	103.863	19.904	2.448	0.526
781.499	478.184	80.009	19.994	103.864	19.903	2.546	0.515
783.000	478.934	80.010	19.994	103.867	19.905	2.367	0.516
784.500	479.727	80.010	19.993	103.872	19.903	2.528	0.530
785.999	480.487	80.012	19.992	103.864	19.905	2.401	0.516
787.499	481.258	80.009	19.995	103.864	19.903	2.504	0.517
788.999	482.047	80.011	19.994	103.862	19.901	2.668	0.527
790.500	482.827	80.010	19.992	103.863	19.903	2.546	0.534
791.999	483.570	80.007	19.992	103.865	19.906	2.341	0.495
793.499	484.343	80.010	19.993	103.864	19.907	2.257	0.491
795.000	485.102	80.014	19.992	103.863	19.906	2.273	0.519
796.499	485.873	80.010	19.993	103.861	19.907	2.229	0.528
797.999	486.625	80.014	19.992	103.861	19.903	2.490	0.496
799.499	487.423	80.011	19.994	103.863	19.904	2.442	0.506
801.000	488.159	80.012	19.993	103.862	19.906	2.287	0.482
802.500	488.986	80.011	19.993	103.861	19.903	2.540	0.539
804.000	489.709	80.011	19.994	103.863	19.901	2.696	0.487
805.500	490.518	80.012	19.993	103.861	19.903	2.562	0.531
807.000	491.263	80.010	19.993	103.860	19.905	2.412	0.511
808.500	492.053	80.012	19.993	103.860	19.901	2.691	0.527
809.999	492.807	80.013	19.993	103.858	19.902	2.592	0.508
811.500	493.597	80.012	19.994	103.860	19.903	2.542	0.523
812.999	494.378	80.011	19.993	103.862	19.904	2.484	0.539
814.499	495.167	80.012	19.993	103.861	19.902	2.566	0.540
816.001	495.951	80.012	19.994	103.859	19.901	2.662	0.515
817.499	496.747	80.013	19.992	103.860	19.905	2.406	0.516
819.000	497.497	80.014	19.992	103.853	19.909	2.109	0.495
820.500	498.232	80.013	19.993	103.855	19.907	2.207	0.502
821.999	499.031	80.012	19.992	103.858	19.906	2.305	0.535
823.501	499.822	80.015	19.992	103.857	19.906	2.279	0.508
825.000	500.625	80.013	19.992	103.851	19.908	2.127	0.550
826.499	501.380	80.015	19.992	103.853	19.907	2.229	0.503
828.000	502.165	80.014	19.992	103.859	19.908	2.143	0.536
829.499	502.957	80.013	19.992	103.862	19.909	2.101	0.531
831.000	503.708	80.011	19.992	103.861	19.909	2.085	0.523
832.500	504.450	80.012	19.993	103.857	19.907	2.265	0.511
834.000	505.274	80.011	19.993	103.857	19.904	2.470	0.565
835.501	506.060	80.010	19.994	103.858	19.905	2.393	0.531
836.999	506.820	80.011	19.994	103.860	19.904	2.420	0.489
838.501	507.628	80.011	19.994	103.862	19.908	2.187	0.524
840.000	508.372	80.010	19.994	103.860	19.907	2.259	0.496
841.500	509.198	80.011	19.994	103.860	19.906	2.273	0.553
842.999	510.001	80.010	19.993	103.860	19.907	2.235	0.551
844.501	510.763	80.011	19.993	103.861	19.907	2.257	0.490
845.999	511.547	80.012	19.993	103.862	19.910	2.046	0.520
847.499	512.248	80.010	19.993	103.861	19.906	2.279	0.458
849.000	513.042	80.010	19.994	103.859	19.907	2.195	0.544
850.499	513.837	80.010	19.993	103.860	19.905	2.407	0.528
851.999	514.631	80.009	19.993	103.860	19.908	2.125	0.546
853.500	515.406	80.011	19.993	103.855	19.908	2.161	0.527
855.000	516.143	80.011	19.993	103.855	19.907	2.239	0.491
856.499	516.967	80.010	19.993	103.860	19.909	2.076	0.539
857.999	517.749	80.009	19.993	103.862	19.908	2.173	0.515
859.499	518.502	80.009	19.994	103.863	19.906	2.333	0.518
860.999	519.293	80.009	19.994	103.865	19.905	2.361	0.539
862.500	520.041	80.010	19.994	103.864	19.907	2.267	0.508
863.999	520.845	80.010	19.994	103.861	19.905	2.402	0.517
865.500	521.607	80.009	19.995	103.860	19.904	2.468	0.509
867.000	522.359	80.009	19.995	103.860	19.904	2.428	0.505
868.500	523.122	80.010	19.993	103.853	19.907	2.257	0.495
870.000	523.882	80.010	19.994	103.851	19.903	2.526	0.490
871.499	524.653	80.008	19.994	103.861	19.905	2.410	0.511
872.999	525.443	80.011	19.995	103.862	19.906	2.281	0.516
874.499	526.205	80.010	19.996	103.859	19.907	2.213	0.534
875.999	526.948	80.012	19.996	103.858	19.905	2.348	0.493
877.499	527.733	80.011	19.994	103.858	19.906	2.289	0.519
879.000	528.483	80.013	19.994	103.857	19.908	2.191	0.506
880.500	529.289	80.012	19.993	103.856	19.905	2.374	0.544
881.999	530.034	80.012	19.993	103.857	19.904	2.434	0.477
883.500	530.789	80.012	19.993	103.848	19.910	2.015	0.501
885.000	531.573	80.013	19.994	103.848	19.907	2.227	0.541
886.500	532.312	80.013	19.994	103.852	19.911	1.954	0.505
888.000	533.141	80.014	19.993	103.845	19.909	2.119	0.540
889.499	533.901	80.012	19.994	103.842	19.906	2.269	0.523
891.001	534.660	80.011	19.993	103.843	19.907	2.243	0.504
892.500	535.411	80.012	19.994	103.839	19.904	2.474	0.511
893.999	536.215	80.012	19.994	103.839	19.905	2.380	0.524
895.500	536.974	80.011	19.994	103.841	19.907	2.239	0.509
897.000	537.723	80.012	19.993	103.852	19.908	2.189	0.478
898.499	538.517	80.012	19.993	103.852	19.905	2.414	0.522
900.000	539.330	80.012	19.995	103.852	19.907	2.227	0.531
901.500	540.066	80.013	19.993	103.862	19.908	2.167	0.469
903.000	540.824	80.011	19.993	103.868	19.908	2.151	0.526
904.500	541.615	80.013	19.993	103.855	19.909	2.117	0.529
906.000	542.360	80.014	19.992	103.860	19.908	2.189	0.491
907.499	543.123	80.014	19.992	103.862	19.906	2.303	0.507
909.000	543.881	80.014	19.993	103.858	19.906	2.325	0.514
910.499	544.675	80.015	19.994	103.858	19.906	2.303	0.519
911.999	545.417	80.013	19.993	103.857	19.903	2.490	0.484
913.500	546.196	80.013	19.993	103.853	19.906	2.292	0.545
914.999	546.955	80.012	19.993	103.854	19.906	2.334	0.501
916.500	547.725	80.011	19.993	103.848	19.906	2.285	0.525
918.001	548.513	80.010	19.993	103.853	19.907	2.259	0.518
919.499	549.242	80.012	19.993	103.860	19.908	2.153	0.487
921.001	550.044	80.011	19.993	103.854	19.911	1.946	0.518
922.501	550.760	80.011	19.993	103.853	19.904	2.436	0.478
924.000	551.548	80.010	19.993	103.848	19.907	2.241	0.500
925.499	552.264	80.010	19.993	103.832	19.908	2.165	0.482
926.999	553.074	80.010	19.993	103.846	19.905	2.358	0.559
928.500	553.831	80.010	19.993	103.861	19.906	2.326	0.497
930.000	554.623	80.010	19.993	103.861	19.903	2.500	0.521
931.501	555.412	80.010	19.992	103.853	19.905	2.375	0.520
933.000	556.187	80.010	19.993	103.855	19.907	2.209	0.508
934.501	556.942	80.010	19.993	103.864	19.911	1.928	0.514
935.999	557.715	80.010	19.996	103.857	19.911	1.900	0.515
937.500	558.476	80.010	19.993	103.855	19.904	2.456	0.518
939.000	559.218	80.010	19.994	103.847	19.909	2.119	0.500
940.501	560.007	80.010	19.993	103.844	19.906	2.293	0.530
942.000	560.740	80.010	19.994	103.857	19.906	2.285	0.496
943.499	561.507	80.008	19.995	103.858	19.903	2.524	0.521
945.000	562.288	80.010	19.993	103.854	19.903	2.500	0.516
946.501	563.091	80.011	19.995	103.850	19.902	2.598	0.539
948.001	563.815	80.012	19.994	103.852	19.904	2.480	0.498
949.500	564.596	80.009	19.993	103.852	19.906	2.323	0.503
951.000	565.340	80.011	19.993	103.847	19.909	2.056	0.496
952.501	566.096	80.010	19.994	103.851	19.905	2.384	0.520
953.999	566.892	80.010	19.994	103.859	19.903	2.516	0.524
955.501	567.640	80.008	19.994	103.858	19.905	2.412	0.504
956.999	568.369	80.010	19.994	103.852	19.904	2.440	0.454
958.499	569.127	80.010	19.994	103.850	19.907	2.264	0.525
960.000	569.919	80.010	19.993	103.854	19.905	2.358	0.528
961.500	570.664	80.010	19.993	103.856	19.904	2.426	0.507
963.000	571.451	80.011	19.994	103.858	19.906	2.341	0.526
964.500	572.236	80.011	19.994	103.846	19.904	2.424	0.522
966.000	573.006	80.012	19.993	103.847	19.904	2.486	0.511
967.499	573.794	80.010	19.994	103.847	19.902	2.598	0.531
968.999	574.540	80.013	19.994	103.833	19.905	2.412	0.519
970.500	575.340	80.011	19.995	103.838	19.905	2.361	0.546
971.999	576.089	80.010	19.993	103.846	19.904	2.482	0.494
973.500	576.851	80.011	19.994	103.854	19.906	2.333	0.499
975.000	577.596	80.011	19.993	103.860	19.908	2.135	0.498
976.500	578.375	80.010	19.993	103.851	19.907	2.253	0.526
977.999	579.098	80.010	19.993	103.851	19.908	2.173	0.479
979.499	579.887	80.010	19.993	103.861	19.908	2.139	0.537
980.999	580.643	80.011	19.993	103.855	19.906	2.310	0.510
982.499	581.377	80.012	19.993	103.854	19.905	2.361	0.489
984.000	582.195	80.012	19.993	103.858	19.906	2.275	0.518
985.500	582.915	80.011	19.994	103.853	19.908	2.183	0.483
987.000	583.691	80.013	19.993	103.853	19.905	2.415	0.515
988.500	584.386	80.012	19.993	103.857	19.907	2.245	0.485
989.999	585.177	80.012	19.993	103.847	19.904	2.488	0.508
991.499	585.928	80.012	19.991	103.835	19.903	2.534	0.485
992.999	586.695	80.012	19.993	103.848	19.904	2.482	0.506
994.500	587.416	80.013	19.994	103.858	19.906	2.293	0.498
996.000	588.231	80.012	19.994	103.856	19.907	2.266	0.549
997.500	588.970	80.012	19.994	103.865	19.906	2.292	0.513
998.999	589.725	80.012	19.993	103.867	19.906	2.315	0.505
1000.500	590.460	80.012	19.993	103.858	19.907	2.213	0.501
1001.999	591.242	80.012	19.994	103.856	19.906	2.313	0.538
1003.500	591.990	80.011	19.995	103.860	19.903	2.534	0.508
1005.000	592.760	80.010	19.993	103.857	19.903	2.542	0.513
1006.500	593.530	80.011	19.994	103.843	19.903	2.546	0.515
1008.001	594.314	80.010	19.992	103.827	19.907	2.247	0.521
1009.499	595.132	80.011	19.992	103.842	19.906	2.293	0.547
1010.999	595.881	80.010	19.993	103.856	19.904	2.416	0.490
1012.500	596.652	80.010	19.994	103.856	19.905	2.358	0.503
1013.999	597.446	80.011	19.993	103.850	19.904	2.422	0.530
1015.500	598.251	80.011	19.993	103.846	19.903	2.508	0.527
1017.000	599.008	80.012	19.993	103.854	19.904	2.452	0.482
1018.500	599.760	80.012	19.993	103.854	19.902	2.580	0.522
1020.001	600.536	80.011	19.992	103.858	19.904	2.428	0.524
1021.500	601.329	80.012	19.994	103.849	19.905	2.378	0.516
1023.000	602.186	80.011	19.994	103.838	19.905	2.376	0.538
1024.499	602.888	80.011	19.992	103.847	19.902	2.584	0.477
1026.001	603.695	80.011	19.994	103.857	19.905	2.370	0.524
1027.501	604.483	80.011	19.993	103.860	19.903	2.524	0.520
1029.000	605.275	80.011	19.993	103.860	19.905	2.396	0.535
1030.500	606.040	80.010	19.993	103.853	19.903	2.562	0.514
1032.001	606.797	80.011	19.993	103.855	19.903	2.514	0.519
1033.501	607.578	80.010	19.993	103.853	19.905	2.393	0.518
1034.999	608.315	80.011	19.994	103.844	19.904	2.444	0.472
1036.500	609.112	80.010	19.994	103.851	19.906	2.325	0.534
1037.999	609.888	80.010	19.994	103.855	19.906	2.321	0.533
1039.500	610.686	80.010	19.993	103.856	19.904	2.448	0.532
1041.001	611.426	80.012	19.994	103.863	19.903	2.520	0.503
1042.500	612.209	80.011	19.995	103.856	19.903	2.532	0.532
1044.000	613.006	80.012	19.993	103.855	19.903	2.524	0.520
1045.501	613.731	80.011	19.993	103.861	19.906	2.291	0.498
1047.001	614.530	80.013	19.994	103.856	19.907	2.225	0.538
1048.499	615.321	80.012	19.994	103.852	19.904	2.482	0.545
1050.000	616.075	80.012	19.993	103.858	19.901	2.661	0.509
1051.501	616.850	80.013	19.993	103.852	19.903	2.558	0.506
1053.000	617.593	80.013	19.994	103.840	19.905	2.352	0.518
1054.500	618.368	80.012	19.994	103.851	19.903	2.516	0.499
1055.999	619.131	80.014	19.995	103.859	19.902	2.589	0.508
1057.499	619.899	80.012	19.994	103.849	19.906	2.336	0.509
1058.999	620.670	80.013	19.994	103.845	19.903	2.517	0.503
1060.499	621.428	80.012	19.994	103.848	19.904	2.444	0.499
1061.999	622.188	80.011	19.994	103.846	19.904	2.440	0.510
1063.499	622.936	80.011	19.994	103.849	19.901	2.637	0.506
1065.000	623.733	80.013	19.995	103.851	19.904	2.442	0.520
1066.500	624.504	80.013	19.994	103.841	19.899	2.839	0.511
1067.999	625.248	80.013	19.995	103.832	19.905	2.372	0.528
1069.500	626.026	80.012	19.995	103.824	19.903	2.524	0.512
1071.000	626.767	80.012	19.994	103.829	19.906	2.321	0.506
1072.500	627.511	80.013	19.994	103.843	19.906	2.330	0.498
1074.000	628.346	80.014	19.995	103.836	19.902	2.626	0.535
1075.500	629.052	80.013	19.994	103.826	19.900	2.742	0.485
1076.999	629.812	80.013	19.994	103.829	19.905	2.382	0.495
1078.501	630.578	80.013	19.992	103.849	19.904	2.470	0.507
1080.000	631.391	80.015	19.993	103.854	19.904	2.442	0.552
1081.499	632.129	80.014	19.993	103.857	19.904	2.484	0.514
1083.000	632.849	80.012	19.993	103.856	19.902	2.597	0.490
1084.500	633.627	80.013	19.993	103.798	19.905	2.398	0.502
1086.001	634.371	80.011	19.993	103.849	19.908	2.183	0.510
1087.501	635.181	80.011	19.994	103.909	19.908	2.177	0.542
1089.000	635.948	80.012	19.994	103.860	19.905	2.362	0.499
1090.500	636.715	80.012	19.993	103.857	19.906	2.314	0.546
1092.000	637.486	80.012	19.994	103.844	19.904	2.448	0.498
1093.500	638.249	80.011	19.994	103.826	19.907	2.236	0.518
1095.000	639.017	80.013	19.994	103.824	19.905	2.356	0.525
1096.499	639.759	80.011	19.994	103.839	19.902	2.574	0.493
1097.999	640.494	80.011	19.993	103.851	19.903	2.518	0.503
1099.501	641.266	80.011	19.993	103.838	19.901	2.665	0.511
1101.001	642.028	80.010	19.993	103.841	19.902	2.595	0.507
1102.500	642.814	80.012	19.993	103.829	19.904	2.460	0.523
1104.000	643.574	80.012	19.993	103.827	19.902	2.619	0.499
1105.501	644.305	80.012	19.992	103.845	19.903	2.522	0.492
1107.001	645.036	80.012	19.993	103.861	19.901	2.643	0.506
1108.501	645.773	80.012	19.992	103.855	19.901	2.665	0.492
1109.999	646.525	80.012	19.994	103.850	19.900	2.733	0.505
1111.499	647.285	80.013	19.992	103.842	19.900	2.739	0.494
1113.000	648.017	80.011	19.993	103.839	19.902	2.624	0.485
1114.501	648.776	80.012	19.993	103.848	19.902	2.598	0.498
1116.001	649.514	80.011	19.994	103.838	19.903	2.555	0.501
1117.499	650.295	80.013	19.994	103.843	19.900	2.765	0.509
1118.999	651.013	80.012	19.993	103.841	19.899	2.791	0.467
1120.499	651.801	80.011	19.993	103.849	19.902	2.628	0.493
1121.999	652.525	80.010	19.992	103.843	19.902	2.598	0.482
1123.499	653.310	80.010	19.993	103.853	19.900	2.781	0.520
1124.999	654.071	80.012	19.993	103.853	19.904	2.426	0.480
1126.500	654.884	80.011	19.993	103.840	19.900	2.771	0.556
1128.000	655.633	80.011	19.993	103.846	19.900	2.751	0.491
1129.500	656.382	80.012	19.993	103.859	19.902	2.601	0.493
1131.000	657.135	80.011	19.993	103.855	19.901	2.669	0.508
1132.500	657.914	80.013	19.993	103.849	19.899	2.791	0.544
1134.000	658.669	80.013	19.994	103.856	19.899	2.855	0.510
1135.500	659.423	80.013	19.993	103.845	19.903	2.501	0.521
1137.000	660.180	80.013	19.993	103.839	19.902	2.583	0.489
1138.499	660.945	80.012	19.994	103.843	19.902	2.607	0.515
1140.000	661.714	80.013	19.994	103.834	19.902	2.621	0.532
1141.500	662.499	80.012	19.993	103.832	19.901	2.651	0.528
1143.000	663.244	80.012	19.994	103.830	19.902	2.564	0.516
1144.499	664.017	80.013	19.992	103.846	19.904	2.476	0.504
1145.999	664.752	80.011	19.994	103.832	19.900	2.745	0.479
1147.499	665.508	80.012	19.994	103.820	19.901	2.671	0.504
1149.000	666.261	80.012	19.993	103.830	19.898	2.858	0.506
1150.500	667.061	80.012	19.994	103.838	19.899	2.857	0.528
1152.001	667.785	80.012	19.993	103.838	19.896	3.066	0.508
1153.499	668.515	80.013	19.994	103.840	19.900	2.749	0.504
1155.001	669.302	80.012	19.994	103.851	19.899	2.815	0.531
1156.499	670.062	80.013	19.994	103.853	19.898	2.892	0.494
1157.999	670.828	80.013	19.993	103.846	19.897	2.988	0.503
1159.500	671.570	80.013	19.995	103.831	19.896	3.006	0.493
1161.000	672.298	80.013	19.994	103.838	19.898	2.868	0.498
1162.499	673.040	80.013	19.994	103.844	19.899	2.843	0.508
1164.000	673.821	80.013	19.993	103.840	19.901	2.698	0.515
1165.500	674.542	80.012	19.994	103.834	19.896	3.060	0.474
1166.999	675.290	80.013	19.994	103.839	19.899	2.829	0.484
1168.500	676.087	80.012	19.995	103.847	19.897	2.993	0.528
1170.000	676.818	80.011	19.993	103.853	19.896	3.040	0.468
1171.499	677.571	80.010	19.995	103.842	19.896	3.054	0.503
1173.000	678.278	80.011	19.993	103.842	19.898	2.870	0.482
1174.500	679.034	80.010	19.993	103.859	19.899	2.856	0.524
1175.999	679.797	80.011	19.993	103.859	19.899	2.823	0.537
1177.500	680.518	80.012	19.994	103.859	19.899	2.799	0.487
1179.000	681.250	80.010	19.993	103.858	19.897	2.950	0.493
1180.501	681.995	80.012	19.993	103.849	19.900	2.780	0.498
1182.000	682.731	80.012	19.994	103.840	19.901	2.689	0.510
1183.501	683.517	80.011	19.993	103.829	19.899	2.805	0.510
1184.999	684.206	80.011	19.993	103.826	19.900	2.739	0.479
1186.500	684.924	80.012	19.994	103.833	19.898	2.863	0.497
1188.000	685.690	80.011	19.994	103.841	19.899	2.813	0.516
1189.500	686.452	80.011	19.993	103.852	19.897	2.980	0.510
1191.001	687.250	80.010	19.992	103.835	19.899	2.826	0.523
1192.499	687.957	80.011	19.993	103.825	19.897	2.968	0.510
1193.999	688.643	80.011	19.993	103.846	19.899	2.795	0.454
1195.500	689.451	80.012	19.993	103.855	19.900	2.777	0.498
1197.000	690.239	80.010	19.994	103.851	19.899	2.809	0.502
1198.499	690.946	80.011	19.994	103.842	19.894	3.153	0.479
1199.999	691.687	80.010	19.993	103.830	19.899	2.797	0.486
1201.500	692.472	80.009	19.994	103.832	19.898	2.924	0.500
1203.000	693.221	80.010	19.994	103.836	19.901	2.693	0.513
1204.500	693.970	80.011	19.994	103.846	19.897	2.996	0.498
1206.000	694.703	80.010	19.993	103.851	19.900	2.773	0.484
1207.501	695.475	80.010	19.994	103.853	19.899	2.807	0.498
1208.999	696.231	80.010	19.993	103.838	19.902	2.589	0.527
1210.499	696.998	80.012	19.993	103.846	19.898	2.887	0.505
1212.000	697.750	80.014	19.993	103.852	19.898	2.901	0.512
1213.500	698.526	80.012	19.992	103.840	19.897	2.987	0.526
1215.001	699.300	80.013	19.992	103.845	19.895	3.130	0.508
1216.500	700.042	80.013	19.993	103.852	19.895	3.136	0.509
1218.000	700.822	80.013	19.993	103.841	19.895	3.124	0.504
1219.499	701.584	80.013	19.993	103.834	19.893	3.295	0.508
1221.001	702.347	80.012	19.992	103.846	19.895	3.145	0.497
1222.499	703.081	80.012	19.993	103.844	19.895	3.147	0.494
1223.999	703.834	80.013	19.994	103.853	19.897	2.946	0.513
1225.500	704.586	80.012	19.994	103.856	19.898	2.871	0.482
1226.999	705.303	80.012	19.995	103.856	19.895	3.120	0.490
1228.499	706.057	80.012	19.994	103.845	19.891	3.377	0.516
1230.000	706.801	80.012	19.994	103.833	19.895	3.092	0.493
1231.499	707.551	80.011	19.994	103.834	19.894	3.221	0.516
1232.999	708.294	80.012	19.993	103.832	19.897	3.002	0.485
1234.499	709.051	80.012	19.994	103.842	19.896	3.016	0.511
1235.999	709.857	80.012	19.995	103.848	19.896	3.018	0.539
1237.500	710.576	80.012	19.994	103.849	19.897	2.988	0.503
1239.000	711.323	80.013	19.994	103.857	19.894	3.156	0.498
1240.499	712.069	80.012	19.993	103.843	19.898	2.900	0.491
1242.000	712.803	80.015	19.993	103.836	19.896	3.060	0.511
1243.500	713.542	80.013	19.993	103.840	19.896	3.064	0.505
1245.000	714.420	80.016	19.992	103.835	19.895	3.132	0.588
1246.499	715.065	80.013	19.993	103.848	19.894	3.190	0.431
1247.999	715.840	80.014	19.993	103.850	19.895	3.116	0.481
1249.499	716.604	80.012	19.993	103.845	19.895	3.134	0.520
1251.000	717.367	80.012	19.994	103.836	19.894	3.224	0.481
1252.500	718.106	80.011	19.993	103.834	19.898	2.864	0.503
1253.999	718.851	80.011	19.994	103.846	19.898	2.859	0.505
1255.500	719.625	80.010	19.994	103.855	19.895	3.104	0.506
1256.999	720.400	80.011	19.994	103.846	19.891	3.391	0.510
1258.500	721.146	80.009	19.993	103.849	19.894	3.186	0.500
1259.999	721.896	80.009	19.995	103.858	19.894	3.196	0.504
1261.500	722.638	80.010	19.994	103.857	19.893	3.291	0.489
1263.001	723.435	80.010	19.995	103.842	19.892	3.343	0.527
1264.501	724.187	80.011	19.995	103.837	19.890	3.478	0.519
1265.999	724.966	80.010	19.994	103.840	19.893	3.243	0.531
1267.500	725.793	80.012	19.994	103.847	19.893	3.279	0.535
1268.999	726.518	80.010	19.993	103.857	19.893	3.299	0.493
1270.501	727.273	80.011	19.995	103.851	19.890	3.449	0.503
1272.001	728.022	80.011	19.993	103.850	19.893	3.265	0.509
1273.500	728.816	80.011	19.993	103.848	19.897	2.970	0.514
1275.001	729.595	80.011	19.993	103.843	19.896	3.078	0.527
1276.499	730.347	80.012	19.993	103.835	19.894	3.220	0.514
1278.000	731.131	80.013	19.993	103.842	19.893	3.289	0.508
1279.499	731.913	80.010	19.994	103.852	19.893	3.275	0.529
1280.999	732.694	80.011	19.993	103.855	19.894	3.160	0.509
1282.500	733.494	80.012	19.994	103.848	19.894	3.205	0.533
1283.999	734.231	80.011	19.993	103.834	19.893	3.228	0.504
1285.499	735.003	80.011	19.995	103.844	19.890	3.449	0.508
1287.000	735.786	80.011	19.994	103.851	19.891	3.443	0.514
1288.500	736.558	80.011	19.994	103.850	19.892	3.337	0.515
1289.999	737.336	80.012	19.994	103.841	19.890	3.505	0.518
1291.500	738.063	80.012	19.993	103.843	19.893	3.295	0.491
1292.999	738.852	80.012	19.994	103.838	19.890	3.491	0.514
1294.500	739.593	80.012	19.994	103.842	19.887	3.690	0.512
1296.001	740.408	80.012	19.995	103.856	19.890	3.514	0.533
1297.501	741.137	80.014	19.994	103.853	19.892	3.329	0.487
1299.001	741.865	80.013	19.994	103.851	19.890	3.461	0.479
1300.499	742.650	80.014	19.993	103.851	19.890	3.508	0.514
1302.000	743.430	80.012	19.994	103.839	19.889	3.534	0.510
1302.499	743.684	80.015	19.993	103.837	19.889	3.554	0.540