File: 01_Data/CPVC_Pipe/MCC/CPVC_Pipe_MCC_30K_min_211119_R2.txt
Sample ID:	C:\MCC\MCC Cal\Test\CPVC_Pipe_MCC_30K_min_211119_R2.txt
Sample Weight (mg):	4.59
Heating Rate (C/s):	0.5
Combustor Temp (C):	900
N2 Flow Rate (cc/min):	80
O2 Flow Rate (cc/min):	20
Calibration File:	C:\MCC\MCC Cal\Coeff1 JN10440_30_210304.txt.txt
T Correction Coefficients:	0	1.024463	0
Time Shift (s):	14
*
Time (s)	Temperature (C)	N2 flow rate (cc/min)	O2 flow rate (cc/min)	Flow Rate (cc/min)	Oxygen (%)	HRR (W/g)	Heating rate (C/s)
0.000	107.968	80.005	19.995	103.013	20.300	-0.274	-0.004
2.000	107.945	80.006	19.996	103.025	20.300	-0.232	0.005
4.000	107.952	80.007	19.996	103.031	20.299	-0.203	0.013
6.000	107.929	80.008	19.995	103.022	20.301	-0.340	-0.008
8.000	107.935	80.008	19.994	103.021	20.300	-0.255	0.020
10.001	107.922	80.008	19.994	103.039	20.300	-0.242	-0.004
12.000	107.947	80.006	19.994	103.059	20.295	0.095	0.035
14.000	107.974	80.006	19.994	103.068	20.296	0.051	0.011
16.000	108.009	80.006	19.993	103.067	20.293	0.196	0.036
18.000	108.023	80.005	19.994	103.077	20.295	0.122	0.008
20.000	108.131	80.004	19.995	103.082	20.291	0.337	0.074
22.000	108.144	80.004	19.995	103.091	20.294	0.154	0.023
24.000	108.238	80.004	19.995	103.081	20.288	0.580	0.047
26.000	108.308	80.004	19.995	103.089	20.288	0.588	0.035
28.000	108.417	80.003	19.993	103.112	20.285	0.765	0.050
30.000	108.583	80.005	19.995	103.128	20.284	0.880	0.069
32.000	108.685	80.006	19.994	103.110	20.284	0.846	0.033
34.000	108.849	80.005	19.995	103.135	20.277	1.339	0.070
36.000	109.053	80.006	19.994	103.165	20.272	1.694	0.119
38.000	109.197	80.005	19.994	103.179	20.272	1.669	0.051
40.000	109.468	80.006	19.994	103.195	20.266	2.096	0.125
42.001	109.733	80.006	19.995	103.208	20.266	2.094	0.133
44.000	110.005	80.005	19.993	103.236	20.266	2.147	0.147
46.000	110.343	80.005	19.995	103.251	20.262	2.390	0.157
48.000	110.689	80.006	19.994	103.262	20.263	2.331	0.198
50.001	111.072	80.005	19.994	103.253	20.261	2.496	0.168
52.000	111.472	80.004	19.994	103.257	20.256	2.844	0.223
54.000	111.900	80.003	19.994	103.268	20.255	2.924	0.208
56.001	112.383	80.005	19.994	103.270	20.255	2.928	0.258
58.001	112.861	80.006	19.994	103.289	20.257	2.728	0.242
60.000	113.375	80.005	19.995	103.281	20.254	2.958	0.230
62.001	113.970	80.008	19.994	103.282	20.248	3.382	0.259
64.000	114.557	80.007	19.994	103.302	20.251	3.176	0.292
66.000	115.121	80.007	19.994	103.297	20.248	3.362	0.268
68.000	115.803	80.006	19.993	103.305	20.250	3.233	0.351
70.000	116.432	80.006	19.994	103.309	20.247	3.492	0.312
72.000	117.118	80.006	19.993	103.307	20.248	3.393	0.360
74.000	117.820	80.006	19.993	103.315	20.249	3.318	0.339
76.000	118.511	80.005	19.994	103.300	20.253	3.063	0.381
78.000	119.237	80.006	19.994	103.313	20.247	3.490	0.357
80.000	119.975	80.006	19.994	103.308	20.246	3.522	0.389
82.000	120.760	80.008	19.994	103.298	20.244	3.692	0.392
84.000	121.537	80.008	19.994	103.297	20.246	3.497	0.384
86.000	122.363	80.006	19.993	103.294	20.249	3.294	0.404
88.000	123.214	80.006	19.995	103.302	20.250	3.263	0.421
90.001	124.042	80.009	19.994	103.297	20.248	3.379	0.446
92.001	124.910	80.008	19.994	103.303	20.247	3.486	0.432
94.000	125.761	80.007	19.994	103.306	20.246	3.513	0.444
96.001	126.625	80.007	19.994	103.309	20.244	3.680	0.460
98.000	127.519	80.006	19.995	103.307	20.242	3.800	0.443
100.000	128.466	80.006	19.995	103.312	20.246	3.509	0.471
102.001	129.359	80.006	19.995	103.294	20.245	3.572	0.457
104.000	130.322	80.004	19.994	103.305	20.246	3.502	0.487
106.000	131.219	80.007	19.994	103.293	20.246	3.508	0.449
108.000	132.162	80.004	19.995	103.297	20.252	3.107	0.461
110.000	133.043	80.005	19.994	103.295	20.247	3.434	0.457
112.000	134.013	80.004	19.993	103.293	20.246	3.509	0.473
114.001	135.010	80.006	19.995	103.320	20.249	3.312	0.493
116.000	135.910	80.004	19.995	103.329	20.250	3.248	0.461
118.000	136.892	80.006	19.995	103.316	20.245	3.596	0.466
120.000	137.911	80.006	19.996	103.295	20.248	3.414	0.503
122.000	138.851	80.005	19.996	103.300	20.243	3.724	0.491
124.000	139.864	80.004	19.995	103.292	20.249	3.289	0.512
126.000	140.835	80.004	19.993	103.256	20.246	3.526	0.473
128.001	141.800	80.004	19.995	103.258	20.245	3.601	0.472
130.001	142.774	80.005	19.995	103.349	20.248	3.416	0.466
132.000	143.831	80.004	19.994	103.296	20.245	3.571	0.518
134.000	144.824	80.004	19.995	103.292	20.249	3.329	0.495
136.000	145.866	80.003	19.993	103.289	20.249	3.321	0.527
138.000	146.827	80.006	19.994	103.285	20.248	3.390	0.527
140.001	147.848	80.006	19.994	103.265	20.249	3.304	0.513
142.000	148.855	80.007	19.995	103.280	20.248	3.370	0.510
144.000	149.888	80.007	19.995	103.274	20.251	3.153	0.541
146.001	150.861	80.006	19.994	103.266	20.251	3.197	0.500
148.000	151.909	80.005	19.993	103.278	20.250	3.262	0.524
150.000	152.922	80.005	19.993	103.257	20.253	3.007	0.500
152.000	153.934	80.005	19.994	103.256	20.258	2.721	0.536
154.000	154.911	80.007	19.994	103.257	20.254	2.946	0.489
156.000	155.920	80.007	19.993	103.255	20.251	3.152	0.490
158.000	156.926	80.006	19.995	103.253	20.252	3.083	0.517
160.000	157.953	80.006	19.994	103.258	20.256	2.824	0.498
162.000	158.984	80.007	19.994	103.278	20.254	2.989	0.509
164.000	159.986	80.007	19.994	103.276	20.256	2.845	0.529
166.000	161.027	80.008	19.993	103.291	20.255	2.900	0.504
168.000	162.016	80.008	19.994	103.289	20.259	2.631	0.499
170.000	163.025	80.007	19.993	103.265	20.258	2.665	0.513
172.000	164.052	80.010	19.994	103.257	20.263	2.328	0.531
174.001	165.061	80.008	19.993	103.259	20.256	2.818	0.530
176.000	166.054	80.007	19.994	103.278	20.256	2.840	0.500
178.001	167.079	80.007	19.993	103.261	20.255	2.892	0.523
180.000	168.091	80.004	19.994	103.250	20.256	2.823	0.537
182.001	169.074	80.006	19.995	103.249	20.254	2.970	0.528
184.000	170.031	80.006	19.994	103.246	20.253	3.050	0.473
186.000	171.042	80.006	19.995	103.251	20.252	3.119	0.510
188.000	172.000	80.006	19.995	103.246	20.254	2.951	0.490
190.001	172.929	80.007	19.996	103.243	20.252	3.110	0.481
192.000	173.940	80.004	19.995	103.250	20.255	2.887	0.474
194.000	174.955	80.005	19.995	103.256	20.255	2.926	0.473
196.000	175.902	80.005	19.995	103.252	20.255	2.924	0.487
198.000	176.884	80.007	19.995	103.256	20.252	3.096	0.502
200.000	177.871	80.006	19.995	103.227	20.253	3.012	0.465
202.000	178.799	80.005	19.994	103.245	20.258	2.684	0.481
204.000	179.773	80.006	19.994	103.267	20.248	3.378	0.479
206.000	180.786	80.005	19.995	103.234	20.253	3.013	0.483
208.000	181.811	80.004	19.994	103.236	20.250	3.257	0.528
210.001	182.744	80.003	19.996	103.260	20.254	2.984	0.485
212.000	183.732	80.002	19.995	103.256	20.256	2.811	0.509
214.000	184.709	80.004	19.996	103.253	20.253	3.009	0.505
216.000	185.717	80.005	19.997	103.237	20.256	2.818	0.524
218.001	186.684	80.003	19.994	103.219	20.254	2.975	0.475
220.000	187.701	80.006	19.994	103.224	20.254	2.985	0.492
222.000	188.606	80.006	19.994	103.221	20.251	3.207	0.485
224.000	189.617	80.008	19.994	103.234	20.250	3.248	0.496
226.000	190.607	80.007	19.994	103.215	20.251	3.181	0.481
228.000	191.540	80.008	19.993	103.211	20.251	3.144	0.471
230.001	192.560	80.008	19.994	103.235	20.250	3.240	0.505
232.000	193.502	80.006	19.993	103.242	20.249	3.336	0.463
234.000	194.459	80.006	19.994	103.195	20.245	3.584	0.453
236.001	195.443	80.006	19.994	103.289	20.249	3.298	0.495
238.000	196.416	80.006	19.993	103.226	20.244	3.668	0.508
240.001	197.378	80.007	19.994	103.222	20.245	3.567	0.495
242.000	198.354	80.006	19.994	103.243	20.247	3.433	0.478
244.000	199.318	80.007	19.994	103.254	20.251	3.197	0.468
246.000	200.264	80.009	19.995	103.257	20.248	3.390	0.461
248.001	201.242	80.009	19.993	103.233	20.247	3.440	0.469
250.000	202.279	80.008	19.993	103.224	20.251	3.172	0.516
252.001	203.253	80.008	19.993	103.236	20.247	3.436	0.527
254.000	204.194	80.008	19.992	103.251	20.247	3.435	0.480
256.000	205.178	80.007	19.992	103.238	20.243	3.768	0.510
258.000	206.163	80.007	19.994	103.225	20.244	3.648	0.522
260.000	207.169	80.006	19.993	103.236	20.243	3.753	0.481
262.000	208.239	80.006	19.993	103.237	20.244	3.651	0.527
264.000	209.230	80.006	19.995	103.239	20.239	4.027	0.505
266.000	210.193	80.005	19.994	103.245	20.244	3.699	0.516
268.000	211.177	80.005	19.993	103.240	20.244	3.644	0.457
270.000	212.189	80.004	19.994	103.247	20.243	3.708	0.486
272.000	213.184	80.005	19.994	103.228	20.247	3.472	0.522
274.000	214.150	80.003	19.994	103.240	20.241	3.847	0.486
276.000	215.158	80.004	19.995	103.234	20.244	3.642	0.511
278.000	216.146	80.005	19.994	103.238	20.240	3.961	0.507
280.000	217.137	80.005	19.994	103.234	20.239	4.001	0.484
282.000	218.151	80.004	19.994	103.219	20.237	4.129	0.497
284.000	219.161	80.005	19.993	103.207	20.238	4.074	0.497
286.000	220.135	80.006	19.994	103.241	20.232	4.487	0.479
288.000	221.151	80.007	19.994	103.226	20.234	4.397	0.489
290.000	222.166	80.006	19.994	103.210	20.231	4.604	0.499
292.000	223.130	80.005	19.995	103.227	20.230	4.639	0.473
294.000	224.154	80.005	19.995	103.216	20.228	4.794	0.507
296.000	225.186	80.005	19.995	103.219	20.225	5.018	0.525
298.000	226.154	80.005	19.995	103.217	20.227	4.839	0.492
300.000	227.103	80.005	19.995	103.209	20.225	5.035	0.459
302.000	228.150	80.005	19.995	103.203	20.226	4.939	0.486
304.000	229.130	80.006	19.996	103.215	20.220	5.353	0.505
306.000	230.141	80.007	19.994	103.212	20.219	5.397	0.488
308.000	231.153	80.007	19.995	103.207	20.222	5.224	0.512
310.000	232.180	80.006	19.994	103.207	20.214	5.772	0.516
312.000	233.167	80.007	19.993	103.207	20.212	5.925	0.506
314.000	234.162	80.007	19.994	103.201	20.210	6.022	0.512
316.000	235.131	80.006	19.994	103.213	20.207	6.267	0.524
318.001	236.167	80.005	19.994	103.214	20.205	6.372	0.507
320.000	237.128	80.006	19.993	103.217	20.207	6.283	0.514
322.000	238.125	80.007	19.995	103.217	20.202	6.583	0.517
324.000	239.122	80.007	19.995	103.216	20.202	6.616	0.517
326.000	240.067	80.006	19.994	103.217	20.197	6.984	0.485
328.000	241.108	80.008	19.993	103.216	20.198	6.890	0.515
330.000	242.046	80.008	19.994	103.218	20.199	6.824	0.512
332.000	243.057	80.009	19.994	103.213	20.203	6.570	0.490
334.000	244.051	80.008	19.993	103.212	20.205	6.412	0.506
336.000	244.980	80.007	19.993	103.221	20.210	6.049	0.478
338.000	246.015	80.005	19.994	103.220	20.212	5.918	0.495
340.000	247.012	80.005	19.992	103.216	20.218	5.492	0.468
342.000	247.980	80.004	19.993	103.235	20.221	5.303	0.488
344.000	248.998	80.005	19.993	103.238	20.227	4.876	0.474
346.000	250.055	80.006	19.994	103.242	20.229	4.733	0.534
348.000	251.027	80.006	19.994	103.230	20.232	4.499	0.491
350.000	252.029	80.005	19.994	103.239	20.237	4.125	0.504
352.000	253.020	80.004	19.993	103.247	20.238	4.076	0.479
354.000	254.034	80.006	19.993	103.223	20.244	3.681	0.565
356.000	255.030	80.007	19.993	103.235	20.244	3.689	0.516
358.000	256.017	80.007	19.993	103.225	20.242	3.775	0.510
360.000	256.995	80.006	19.993	103.221	20.246	3.495	0.452
362.000	258.009	80.006	19.995	103.226	20.248	3.361	0.510
364.000	259.014	80.006	19.994	103.218	20.247	3.483	0.518
366.000	260.015	80.006	19.995	103.215	20.242	3.782	0.508
368.000	260.953	80.004	19.994	103.217	20.247	3.455	0.470
370.000	261.987	80.004	19.994	103.218	20.246	3.535	0.499
372.000	262.975	80.004	19.994	103.217	20.248	3.378	0.511
374.000	263.964	80.004	19.995	103.217	20.247	3.430	0.453
376.000	264.969	80.005	19.995	103.220	20.249	3.334	0.504
378.000	265.929	80.004	19.995	103.214	20.244	3.665	0.472
380.000	266.925	80.004	19.993	103.219	20.245	3.575	0.491
382.000	267.960	80.007	19.994	103.240	20.246	3.551	0.533
384.000	268.936	80.008	19.994	103.238	20.244	3.645	0.494
386.000	269.943	80.005	19.994	103.237	20.246	3.521	0.517
388.000	270.992	80.005	19.994	103.247	20.246	3.504	0.512
390.000	272.008	80.005	19.995	103.232	20.243	3.748	0.535
392.000	273.014	80.005	19.994	103.235	20.247	3.454	0.494
394.000	273.998	80.004	19.995	103.257	20.246	3.550	0.516
396.000	275.010	80.006	19.995	103.259	20.246	3.520	0.483
398.000	276.030	80.005	19.995	103.259	20.243	3.767	0.498
400.001	277.011	80.005	19.995	103.261	20.245	3.601	0.466
402.000	278.028	80.005	19.994	103.261	20.244	3.650	0.497
404.000	279.043	80.007	19.994	103.275	20.241	3.903	0.500
406.000	280.038	80.007	19.994	103.283	20.238	4.068	0.483
408.000	281.064	80.005	19.993	103.275	20.236	4.263	0.532
410.000	282.036	80.008	19.994	103.269	20.235	4.277	0.484
412.000	283.045	80.008	19.993	103.291	20.233	4.416	0.496
414.000	284.095	80.008	19.994	103.287	20.233	4.416	0.510
416.000	285.043	80.006	19.994	103.280	20.230	4.661	0.478
418.000	286.088	80.007	19.993	103.288	20.227	4.888	0.512
420.000	287.102	80.005	19.993	103.297	20.224	5.092	0.512
422.000	288.074	80.005	19.994	103.298	20.223	5.159	0.472
424.000	289.099	80.005	19.994	103.299	20.219	5.441	0.491
426.000	290.118	80.004	19.994	103.319	20.216	5.623	0.500
428.000	291.128	80.004	19.995	103.323	20.213	5.847	0.509
430.000	292.158	80.004	19.994	103.324	20.212	5.905	0.524
432.000	293.142	80.006	19.994	103.326	20.208	6.199	0.519
434.000	294.128	80.006	19.994	103.331	20.201	6.677	0.499
436.000	295.150	80.005	19.994	103.333	20.200	6.791	0.510
438.000	296.121	80.006	19.995	103.334	20.199	6.864	0.462
440.000	297.167	80.006	19.994	103.337	20.195	7.089	0.528
442.000	298.163	80.007	19.993	103.345	20.190	7.483	0.494
444.000	299.124	80.005	19.993	103.358	20.184	7.913	0.487
446.000	300.129	80.006	19.993	103.361	20.183	7.963	0.491
448.000	301.143	80.003	19.993	103.370	20.178	8.309	0.502
450.000	302.163	80.005	19.994	103.372	20.171	8.772	0.531
452.000	303.136	80.003	19.995	103.373	20.170	8.906	0.499
454.000	304.147	80.003	19.995	103.378	20.164	9.332	0.485
456.000	305.140	80.005	19.996	103.402	20.159	9.622	0.504
458.000	306.168	80.005	19.995	103.387	20.155	9.899	0.510
460.000	307.181	80.005	19.995	103.391	20.148	10.420	0.506
462.000	308.189	80.007	19.994	103.405	20.144	10.722	0.516
464.000	309.190	80.005	19.993	103.405	20.135	11.312	0.493
466.000	310.208	80.006	19.994	103.411	20.139	11.066	0.525
468.000	311.205	80.005	19.994	103.412	20.140	11.011	0.521
470.000	312.235	80.006	19.994	103.405	20.135	11.323	0.500
472.000	313.224	80.006	19.993	103.391	20.133	11.505	0.491
474.000	314.234	80.004	19.994	103.378	20.131	11.644	0.500
476.000	315.209	80.005	19.995	103.382	20.130	11.696	0.497
478.000	316.209	80.006	19.994	103.363	20.131	11.612	0.503
480.000	317.186	80.004	19.994	103.346	20.124	12.060	0.500
482.000	318.216	80.005	19.996	103.362	20.124	12.088	0.476
484.000	319.253	80.006	19.996	103.343	20.122	12.190	0.527
486.000	320.237	80.004	19.995	103.328	20.124	12.039	0.492
488.000	321.240	80.007	19.996	103.282	20.128	11.814	0.470
490.000	322.260	80.008	19.994	103.229	20.132	11.518	0.510
492.000	323.226	80.009	19.995	103.162	20.134	11.349	0.489
494.000	324.227	80.007	19.995	103.100	20.141	10.844	0.520
496.000	325.216	80.007	19.994	103.053	20.151	10.186	0.463
498.000	326.213	80.006	19.993	103.020	20.154	9.943	0.484
500.000	327.230	80.005	19.994	102.994	20.155	9.900	0.509
502.000	328.212	80.004	19.994	102.980	20.164	9.264	0.496
504.000	329.203	80.007	19.994	102.982	20.168	8.985	0.481
506.000	330.235	80.003	19.995	103.002	20.164	9.298	0.531
508.000	331.183	80.005	19.994	103.022	20.161	9.509	0.502
510.000	332.146	80.006	19.994	103.054	20.163	9.352	0.487
512.000	333.207	80.007	19.994	103.075	20.159	9.657	0.488
514.000	334.230	80.005	19.994	103.120	20.153	10.082	0.489
516.000	335.231	80.005	19.994	103.172	20.152	10.130	0.510
518.000	336.238	80.005	19.994	103.202	20.149	10.314	0.522
520.000	337.174	80.005	19.994	103.231	20.146	10.555	0.463
522.000	338.212	80.004	19.994	103.274	20.146	10.567	0.485
524.000	339.240	80.005	19.994	103.296	20.145	10.606	0.495
526.000	340.239	80.003	19.994	103.301	20.144	10.724	0.500
528.000	341.177	80.006	19.993	103.335	20.150	10.311	0.486
530.000	342.211	80.004	19.994	103.359	20.141	10.900	0.520
532.000	343.171	80.004	19.994	103.374	20.144	10.708	0.497
534.000	344.165	80.005	19.993	103.384	20.149	10.347	0.496
536.000	345.185	80.006	19.993	103.393	20.154	9.978	0.508
538.000	346.207	80.006	19.993	103.395	20.151	10.184	0.529
540.000	347.192	80.006	19.993	103.399	20.159	9.640	0.484
542.000	348.182	80.006	19.994	103.405	20.158	9.688	0.500
544.000	349.150	80.007	19.994	103.409	20.162	9.442	0.499
546.000	350.162	80.005	19.994	103.403	20.165	9.217	0.495
548.000	351.150	80.009	19.995	103.399	20.172	8.761	0.489
550.000	352.162	80.007	19.994	103.397	20.170	8.846	0.499
552.000	353.182	80.006	19.995	103.405	20.174	8.569	0.491
554.000	354.182	80.006	19.995	103.401	20.179	8.268	0.508
556.000	355.210	80.005	19.994	103.407	20.180	8.149	0.482
558.000	356.176	80.004	19.995	103.404	20.182	8.010	0.479
560.000	357.212	80.003	19.994	103.396	20.184	7.905	0.515
562.000	358.174	80.004	19.995	103.388	20.184	7.897	0.467
564.000	359.223	80.007	19.993	103.392	20.189	7.519	0.528
566.000	360.216	80.007	19.996	103.388	20.193	7.284	0.480
568.000	361.172	80.006	19.995	103.380	20.193	7.290	0.500
570.000	362.189	80.005	19.994	103.392	20.189	7.538	0.491
572.000	363.208	80.006	19.995	103.382	20.192	7.335	0.501
574.000	364.204	80.006	19.994	103.384	20.196	7.043	0.497
576.001	365.226	80.005	19.994	103.370	20.196	7.054	0.536
578.000	366.230	80.005	19.996	103.371	20.196	7.029	0.528
580.000	367.248	80.003	19.995	103.371	20.196	7.077	0.509
582.000	368.249	80.004	19.996	103.372	20.200	6.756	0.515
584.000	369.234	80.004	19.995	103.366	20.202	6.651	0.471
586.000	370.261	80.003	19.995	103.358	20.199	6.813	0.498
588.000	371.241	80.004	19.994	103.360	20.200	6.765	0.490
590.000	372.218	80.003	19.994	103.351	20.201	6.698	0.486
592.000	373.259	80.000	19.994	103.357	20.200	6.755	0.495
594.000	374.292	80.004	19.994	103.346	20.201	6.660	0.510
596.000	375.290	80.005	19.993	103.340	20.207	6.250	0.511
598.000	376.249	80.004	19.994	103.339	20.200	6.774	0.523
600.000	377.268	80.005	19.994	103.335	20.207	6.280	0.530
602.000	378.276	80.005	19.995	103.334	20.201	6.716	0.526
604.000	379.200	80.005	19.995	103.331	20.206	6.372	0.469
606.000	380.310	80.005	19.995	103.333	20.205	6.379	0.520
608.000	381.336	80.006	19.995	103.330	20.204	6.488	0.597
610.000	382.113	80.004	19.995	103.330	20.209	6.150	0.792
612.000	383.000	80.002	19.994	103.325	20.201	6.701	0.476
614.000	384.546	80.007	19.994	103.327	20.204	6.448	0.743
616.000	385.230	80.006	19.994	103.330	20.208	6.207	0.476
618.000	386.233	80.007	19.996	103.324	20.209	6.110	0.570
620.000	387.245	80.005	19.994	103.332	20.208	6.170	0.478
622.000	388.244	80.005	19.994	103.326	20.207	6.284	0.514
624.000	389.211	80.008	19.994	103.327	20.211	5.956	0.468
626.000	390.213	80.007	19.993	103.327	20.209	6.112	0.485
628.000	391.210	80.006	19.995	103.316	20.211	5.985	0.531
630.000	392.242	80.010	19.993	103.317	20.210	6.076	0.502
632.000	393.225	80.005	19.994	103.305	20.211	6.021	0.563
634.000	394.218	80.006	19.995	103.309	20.208	6.216	0.527
636.000	395.224	80.006	19.993	103.298	20.212	5.928	0.482
638.000	396.254	80.007	19.995	103.297	20.210	6.051	0.534
640.000	397.225	80.005	19.994	103.301	20.214	5.770	0.484
642.000	398.232	80.006	19.995	103.294	20.215	5.718	0.513
644.000	399.236	80.006	19.994	103.301	20.214	5.769	0.495
646.000	400.233	80.005	19.994	103.309	20.218	5.483	0.518
648.000	401.249	80.007	19.993	103.304	20.214	5.767	0.488
650.000	402.223	80.009	19.994	103.299	20.215	5.683	0.495
652.000	403.200	80.009	19.994	103.312	20.218	5.470	0.513
654.000	404.247	80.008	19.994	103.301	20.214	5.810	0.502
656.000	405.238	80.008	19.994	103.295	20.217	5.578	0.529
658.000	406.295	80.006	19.993	103.295	20.219	5.424	0.505
660.000	407.249	80.004	19.995	103.298	20.212	5.889	0.473
662.000	408.276	80.002	19.994	103.298	20.213	5.841	0.502
664.000	409.253	80.005	19.995	103.303	20.216	5.614	0.518
666.000	410.265	80.003	19.996	103.297	20.218	5.486	0.476
668.000	411.309	80.003	19.994	103.293	20.221	5.290	0.487
670.000	412.304	80.003	19.995	103.292	20.214	5.792	0.482
672.000	413.316	80.005	19.995	103.292	20.215	5.674	0.472
674.000	414.292	80.004	19.997	103.289	20.217	5.573	0.466
676.000	415.287	80.005	19.995	103.284	20.213	5.828	0.506
678.000	416.335	80.006	19.995	103.289	20.215	5.677	0.507
680.000	417.392	80.005	19.995	103.277	20.216	5.662	0.545
682.000	418.377	80.006	19.995	103.259	20.212	5.944	0.498
684.000	419.353	80.004	19.994	103.258	20.216	5.668	0.476
686.000	420.397	80.004	19.993	103.255	20.214	5.792	0.507
688.000	421.403	80.007	19.993	103.257	20.211	5.963	0.514
690.001	422.392	80.007	19.994	103.257	20.211	5.967	0.512
692.000	423.397	80.004	19.995	103.259	20.208	6.192	0.505
694.000	424.424	80.002	19.994	103.256	20.208	6.218	0.524
696.000	425.396	80.003	19.994	103.253	20.207	6.251	0.481
698.000	426.431	80.004	19.995	103.257	20.205	6.400	0.499
700.000	427.424	80.005	19.994	103.258	20.208	6.175	0.501
702.000	428.474	80.005	19.995	103.255	20.204	6.478	0.520
704.001	429.476	80.007	19.995	103.255	20.206	6.360	0.531
706.000	430.514	80.005	19.994	103.255	20.201	6.685	0.492
708.000	431.495	80.008	19.994	103.257	20.198	6.881	0.516
710.000	432.515	80.006	19.994	103.259	20.197	6.978	0.539
712.000	433.541	80.006	19.994	103.256	20.198	6.893	0.533
714.000	434.559	80.007	19.995	103.257	20.196	7.008	0.505
716.000	435.582	80.009	19.993	103.262	20.192	7.304	0.506
718.000	436.584	80.008	19.995	103.256	20.190	7.475	0.498
720.000	437.628	80.005	19.994	103.255	20.190	7.488	0.525
722.000	438.613	80.006	19.995	103.252	20.189	7.502	0.509
724.001	439.653	80.005	19.993	103.248	20.184	7.860	0.511
726.000	440.641	80.008	19.993	103.242	20.180	8.176	0.510
728.000	441.673	80.009	19.993	103.256	20.177	8.390	0.518
730.000	442.654	80.008	19.994	103.248	20.176	8.453	0.478
732.000	443.664	80.007	19.994	103.246	20.174	8.608	0.501
734.000	444.678	80.007	19.994	103.252	20.169	8.936	0.505
736.000	445.682	80.008	19.995	103.244	20.169	8.958	0.494
738.000	446.691	80.006	19.994	103.247	20.162	9.395	0.518
740.000	447.703	80.003	19.994	103.240	20.162	9.431	0.512
742.000	448.721	80.006	19.994	103.229	20.158	9.737	0.561
744.000	449.707	80.005	19.995	103.250	20.156	9.824	0.505
746.000	450.726	80.006	19.995	103.249	20.153	10.047	0.515
748.000	451.750	80.007	19.995	103.251	20.153	10.023	0.525
750.000	452.752	80.005	19.994	103.245	20.149	10.357	0.505
752.000	453.775	80.004	19.994	103.235	20.146	10.519	0.487
754.000	454.797	80.005	19.994	103.244	20.146	10.519	0.518
756.000	455.840	80.004	19.995	103.244	20.137	11.175	0.502
758.000	456.817	80.004	19.995	103.247	20.138	11.121	0.482
760.000	457.845	80.006	19.995	103.225	20.134	11.393	0.496
762.000	458.906	80.003	19.996	103.235	20.132	11.540	0.504
764.000	459.939	80.006	19.996	103.244	20.129	11.733	0.535
766.000	460.925	80.004	19.996	103.249	20.130	11.684	0.505
768.000	461.992	80.004	19.995	103.249	20.128	11.787	0.536
770.000	463.020	80.006	19.996	103.238	20.124	12.053	0.508
772.000	464.011	80.004	19.994	103.243	20.124	12.081	0.512
774.000	464.981	80.003	19.994	103.228	20.125	12.046	0.507
776.000	466.029	80.004	19.995	103.230	20.125	12.013	0.529
778.000	467.005	80.006	19.995	103.218	20.125	12.050	0.500
780.000	468.080	80.006	19.994	103.218	20.126	11.912	0.541
782.001	469.042	80.007	19.996	103.223	20.120	12.377	0.520
784.000	470.077	80.008	19.994	103.222	20.122	12.209	0.515
786.000	471.127	80.006	19.995	103.219	20.126	11.927	0.518
788.000	472.106	80.006	19.994	103.217	20.130	11.684	0.491
790.000	473.133	80.007	19.995	103.218	20.135	11.345	0.524
792.000	474.158	80.003	19.993	103.216	20.136	11.255	0.520
794.000	475.196	80.004	19.994	103.217	20.138	11.136	0.515
796.000	476.176	80.006	19.992	103.214	20.141	10.906	0.525
798.000	477.155	80.006	19.993	103.210	20.141	10.923	0.484
800.000	478.141	80.005	19.994	103.205	20.146	10.511	0.501
802.000	479.127	80.007	19.996	103.210	20.158	9.690	0.511
804.000	480.109	80.007	19.995	103.213	20.155	9.896	0.469
806.000	481.148	80.009	19.995	103.236	20.162	9.396	0.518
808.000	482.131	80.006	19.994	103.247	20.168	8.987	0.485
810.000	483.118	80.006	19.994	103.210	20.166	9.168	0.490
812.000	484.128	80.007	19.995	103.199	20.164	9.246	0.513
814.000	485.091	80.008	19.993	103.204	20.169	8.935	0.470
816.000	486.123	80.009	19.996	103.203	20.178	8.326	0.493
818.000	487.100	80.008	19.994	103.213	20.174	8.585	0.501
820.000	488.083	80.005	19.995	103.213	20.184	7.842	0.514
822.000	489.053	80.008	19.995	103.217	20.184	7.894	0.485
824.000	490.035	80.005	19.995	103.215	20.196	7.024	0.505
826.000	490.983	80.005	19.994	103.210	20.196	7.066	0.487
828.001	491.999	80.004	19.996	103.214	20.196	7.050	0.511
830.000	492.960	80.004	19.995	103.215	20.199	6.831	0.492
832.000	493.992	80.004	19.995	103.214	20.204	6.450	0.497
834.000	495.043	80.004	19.996	103.213	20.201	6.719	0.533
836.000	496.037	80.004	19.995	103.221	20.205	6.410	0.519
838.000	497.021	80.006	19.995	103.215	20.206	6.328	0.488
840.000	498.044	80.003	19.995	103.215	20.206	6.336	0.485
842.000	499.076	80.005	19.995	103.207	20.211	5.995	0.519
844.000	500.103	80.004	19.994	103.216	20.212	5.940	0.527
846.000	501.074	80.006	19.995	103.213	20.216	5.624	0.514
848.000	502.069	80.002	19.995	103.217	20.217	5.550	0.498
850.000	503.083	80.003	19.994	103.216	20.218	5.473	0.505
852.000	504.098	80.003	19.994	103.216	20.224	5.040	0.499
854.000	505.122	80.004	19.995	103.215	20.219	5.444	0.535
856.000	506.140	80.004	19.995	103.224	20.221	5.273	0.531
858.000	507.226	80.002	19.995	103.219	20.219	5.418	0.520
860.000	508.290	80.005	19.997	103.217	20.218	5.510	0.531
862.000	509.345	80.003	19.994	103.200	20.220	5.337	0.527
864.000	510.383	80.005	19.995	103.189	20.221	5.264	0.495
866.000	511.446	80.006	19.994	103.212	20.222	5.216	0.529
868.000	512.490	80.006	19.994	103.210	20.222	5.220	0.512
870.000	513.559	80.006	19.993	103.200	20.222	5.195	0.557
872.000	514.703	80.006	19.993	103.189	20.226	4.951	0.563
874.000	515.803	80.006	19.993	103.210	20.224	5.098	0.549
876.000	516.907	80.004	19.994	103.217	20.228	4.819	0.572
878.000	518.023	80.004	19.994	103.215	20.230	4.643	0.574
880.000	519.134	80.006	19.995	103.211	20.225	5.027	0.546
882.000	520.247	80.006	19.994	103.211	20.228	4.799	0.550
884.000	521.377	80.006	19.994	103.214	20.231	4.603	0.598
886.000	522.454	80.008	19.995	103.201	20.230	4.643	0.565
888.000	523.589	80.007	19.995	103.208	20.230	4.653	0.527
890.000	524.710	80.007	19.994	103.211	20.236	4.227	0.568
892.000	525.827	80.007	19.994	103.209	20.238	4.121	0.577
894.000	526.905	80.007	19.994	103.206	20.236	4.256	0.570
896.000	528.061	80.007	19.993	103.207	20.236	4.199	0.587
898.001	529.206	80.006	19.993	103.202	20.233	4.463	0.593
900.000	530.254	80.005	19.993	103.182	20.233	4.461	0.542
902.000	531.358	80.004	19.994	103.206	20.237	4.176	0.550
904.000	532.469	80.006	19.994	103.203	20.243	3.717	0.531
906.000	533.607	80.006	19.993	103.206	20.237	4.130	0.566
908.000	534.726	80.002	19.994	103.203	20.236	4.212	0.572
910.000	535.849	80.004	19.994	103.200	20.239	4.052	0.585
912.000	536.922	80.004	19.994	103.197	20.241	3.858	0.529
914.000	538.027	80.004	19.994	103.211	20.239	4.052	0.545
916.000	539.101	80.004	19.994	103.214	20.241	3.897	0.550
918.000	540.229	80.005	19.995	103.210	20.240	3.970	0.554
920.000	541.268	80.004	19.995	103.207	20.239	4.001	0.500
922.001	542.362	80.004	19.994	103.210	20.240	3.924	0.524
924.000	543.453	80.004	19.995	103.212	20.237	4.164	0.540
926.000	544.543	80.005	19.995	103.200	20.240	3.981	0.548
928.000	545.572	80.004	19.994	103.183	20.240	3.937	0.525
930.000	546.682	80.004	19.996	103.194	20.237	4.124	0.549
932.000	547.739	80.003	19.994	103.194	20.240	3.975	0.529
934.000	548.769	80.004	19.995	103.183	20.242	3.783	0.532
936.000	549.872	80.003	19.995	103.184	20.241	3.865	0.538
938.000	550.941	80.003	19.995	103.184	20.239	4.017	0.540
940.000	552.047	80.003	19.993	103.193	20.240	3.970	0.526
942.000	553.089	80.004	19.995	103.187	20.243	3.724	0.557
944.000	554.143	80.005	19.995	103.183	20.243	3.716	0.546
946.000	555.190	80.005	19.996	103.194	20.242	3.794	0.506
948.000	556.242	80.005	19.995	103.184	20.241	3.859	0.532
950.000	557.308	80.006	19.995	103.190	20.242	3.805	0.553
952.000	558.393	80.007	19.994	103.201	20.245	3.575	0.506
954.000	559.410	80.006	19.994	103.180	20.245	3.615	0.497
956.000	560.448	80.007	19.995	103.182	20.246	3.554	0.533
958.000	561.524	80.006	19.995	103.174	20.248	3.405	0.527
960.000	562.525	80.005	19.993	103.173	20.245	3.575	0.498
962.000	563.579	80.005	19.994	103.172	20.246	3.510	0.509
964.000	564.580	80.006	19.993	103.177	20.246	3.543	0.496
966.000	565.636	80.006	19.992	103.167	20.244	3.697	0.517
968.000	566.658	80.007	19.993	103.163	20.246	3.520	0.508
970.000	567.683	80.007	19.993	103.159	20.244	3.701	0.540
972.000	568.674	80.007	19.993	103.165	20.243	3.714	0.493
974.000	569.663	80.006	19.992	103.178	20.242	3.806	0.499
976.000	570.649	80.005	19.993	103.177	20.247	3.489	0.503
978.000	571.613	80.006	19.993	103.174	20.248	3.398	0.482
980.000	572.640	80.006	19.993	103.189	20.250	3.234	0.499
982.000	573.644	80.004	19.993	103.179	20.247	3.428	0.505
984.000	574.645	80.004	19.993	103.184	20.245	3.596	0.496
986.000	575.605	80.005	19.994	103.182	20.251	3.145	0.480
988.000	576.593	80.005	19.994	103.177	20.248	3.352	0.453
990.000	577.612	80.005	19.994	103.175	20.251	3.206	0.480
992.000	578.623	80.004	19.994	103.173	20.249	3.299	0.495
994.000	579.628	80.005	19.994	103.166	20.248	3.398	0.465
996.000	580.667	80.004	19.994	103.167	20.244	3.650	0.527
998.000	581.663	80.005	19.993	103.165	20.248	3.391	0.514
1000.000	582.657	80.006	19.995	103.178	20.252	3.138	0.517
1002.000	583.648	80.005	19.994	103.180	20.250	3.254	0.488
1004.000	584.684	80.005	19.995	103.172	20.249	3.287	0.519
1006.000	585.697	80.005	19.995	103.188	20.254	2.981	0.502
1008.000	586.697	80.005	19.994	103.205	20.250	3.227	0.510
1010.000	587.693	80.003	19.994	103.198	20.253	3.024	0.520
1012.000	588.680	80.004	19.994	103.171	20.252	3.079	0.546
1014.000	589.685	80.004	19.995	103.135	20.254	2.960	0.507
1016.000	590.659	80.005	19.995	103.164	20.254	2.964	0.480
1018.000	591.628	80.005	19.995	103.183	20.256	2.802	0.484
1020.000	592.649	80.003	19.994	103.195	20.259	2.640	0.494
1022.000	593.664	80.005	19.994	103.220	20.258	2.682	0.484
1024.000	594.651	80.005	19.994	103.188	20.254	2.987	0.511
1026.000	595.655	80.005	19.995	103.164	20.252	3.088	0.496
1028.000	596.624	80.007	19.995	103.163	20.257	2.740	0.498
1030.001	597.614	80.004	19.995	103.158	20.255	2.892	0.497
1032.000	598.584	80.005	19.995	103.157	20.253	3.008	0.491
1034.000	599.556	80.005	19.995	103.170	20.255	2.872	0.464
1036.000	600.553	80.004	19.995	103.176	20.258	2.672	0.507
1038.000	601.510	80.005	19.994	103.209	20.255	2.873	0.492
1040.000	602.507	80.003	19.995	103.187	20.258	2.696	0.460
1042.000	603.491	80.005	19.996	103.176	20.258	2.709	0.491
1044.000	604.481	80.004	19.995	103.170	20.255	2.897	0.474
1046.000	605.493	80.005	19.994	103.168	20.254	2.933	0.514
1048.000	606.513	80.006	19.994	103.168	20.261	2.482	0.491
1050.000	607.423	80.008	19.995	103.183	20.256	2.842	0.462
1052.000	608.425	80.006	19.993	103.179	20.264	2.288	0.482
1054.000	609.449	80.007	19.992	103.169	20.264	2.254	0.537
1056.000	610.369	80.008	19.994	103.161	20.261	2.486	0.495
1058.000	611.363	80.006	19.993	103.173	20.263	2.340	0.497
1060.000	612.346	80.007	19.994	103.174	20.261	2.475	0.503
1062.001	613.332	80.005	19.994	103.172	20.262	2.398	0.482
1064.000	614.319	80.005	19.993	103.175	20.261	2.452	0.496
1066.001	615.323	80.005	19.995	103.171	20.265	2.161	0.482
1068.000	616.316	80.006	19.994	103.174	20.264	2.260	0.484
1070.001	617.309	80.005	19.994	103.174	20.269	1.919	0.489
1072.000	618.278	80.005	19.994	103.179	20.264	2.250	0.514
1074.000	619.261	80.005	19.994	103.170	20.264	2.244	0.492
1076.001	620.243	80.005	19.994	103.174	20.266	2.088	0.516
1078.000	621.212	80.005	19.993	103.174	20.267	2.079	0.516
1080.000	622.217	80.005	19.995	103.172	20.270	1.860	0.487
1082.000	623.182	80.004	19.993	103.168	20.263	2.353	0.481
1084.000	624.215	80.006	19.994	103.173	20.264	2.271	0.507
1086.000	625.151	80.005	19.994	103.173	20.263	2.307	0.488
1088.000	626.154	80.004	19.993	103.172	20.261	2.443	0.498
1090.000	627.144	80.005	19.995	103.174	20.265	2.166	0.517
1092.001	628.106	80.004	19.994	103.177	20.262	2.404	0.513
1094.000	629.120	80.005	19.994	103.178	20.259	2.631	0.514
1096.000	630.142	80.004	19.994	103.178	20.266	2.099	0.485
1098.000	631.155	80.004	19.995	103.178	20.261	2.499	0.520
1100.000	632.182	80.004	19.995	103.182	20.264	2.275	0.527
1102.000	633.209	80.005	19.994	103.178	20.265	2.210	0.517
1104.000	634.256	80.005	19.995	103.177	20.264	2.263	0.509
1106.000	635.285	80.006	19.995	103.160	20.261	2.501	0.506
1108.000	636.361	80.006	19.995	103.172	20.267	2.082	0.545
1110.001	637.399	80.005	19.994	103.163	20.266	2.120	0.531
1112.000	638.446	80.007	19.995	103.165	20.264	2.252	0.514
1114.000	639.510	80.006	19.994	103.161	20.268	1.987	0.569
1116.000	640.540	80.006	19.994	103.154	20.269	1.907	0.517
1118.000	641.602	80.006	19.994	103.145	20.266	2.149	0.551
1120.000	642.637	80.005	19.993	103.145	20.266	2.105	0.532
1122.000	643.672	80.005	19.994	103.170	20.267	2.066	0.534
1124.000	644.692	80.006	19.994	103.167	20.268	1.997	0.526
1126.000	645.727	80.005	19.994	103.175	20.268	1.983	0.534
1128.001	646.780	80.005	19.995	103.164	20.271	1.753	0.521
1130.000	647.819	80.005	19.994	103.150	20.272	1.704	0.518
1132.000	648.816	80.005	19.995	103.169	20.269	1.890	0.509
1134.001	649.904	80.006	19.995	103.191	20.274	1.574	0.536
1136.000	650.963	80.005	19.996	103.181	20.271	1.787	0.535
1138.000	651.992	80.008	19.996	103.138	20.271	1.791	0.502
1140.001	653.027	80.004	19.995	103.161	20.269	1.907	0.518
1142.001	654.127	80.005	19.996	103.178	20.274	1.557	0.568
1144.000	655.191	80.004	19.994	103.168	20.273	1.603	0.521
1146.000	656.168	80.004	19.994	103.153	20.275	1.471	0.507
1148.000	657.221	80.006	19.995	103.142	20.271	1.772	0.507
1150.001	658.298	80.005	19.995	103.155	20.275	1.512	0.558
1152.001	659.301	80.005	19.993	103.179	20.270	1.854	0.534
1154.000	660.353	80.005	19.993	103.163	20.269	1.911	0.546
1156.000	661.370	80.004	19.994	103.150	20.275	1.464	0.506
1158.000	662.459	80.004	19.993	103.140	20.275	1.502	0.596
1160.000	663.439	80.005	19.994	103.172	20.276	1.448	0.504
1162.000	664.445	80.005	19.993	103.175	20.270	1.828	0.516
1164.000	665.482	80.004	19.995	103.161	20.272	1.732	0.516
1166.001	666.486	80.004	19.994	103.156	20.275	1.500	0.519
1168.000	667.476	80.004	19.994	103.161	20.272	1.685	0.503
1170.000	668.500	80.005	19.995	103.148	20.271	1.780	0.520
1172.000	669.483	80.004	19.995	103.169	20.277	1.376	0.467
1174.001	670.540	80.004	19.994	103.174	20.276	1.401	0.498
1176.000	671.541	80.003	19.994	103.175	20.278	1.288	0.517
1178.000	672.517	80.003	19.993	103.175	20.277	1.368	0.490
1180.000	673.559	80.005	19.993	103.168	20.276	1.448	0.502
1182.000	674.590	80.005	19.994	103.168	20.277	1.340	0.508
1184.000	675.609	80.006	19.994	103.152	20.273	1.614	0.467
1186.000	676.643	80.006	19.994	103.139	20.270	1.823	0.509
1188.000	677.668	80.007	19.994	103.141	20.269	1.880	0.535
1190.001	678.681	80.006	19.994	103.161	20.273	1.602	0.486
1192.000	679.694	80.007	19.995	103.149	20.273	1.647	0.539
1194.001	680.684	80.006	19.995	103.136	20.273	1.633	0.480
1196.000	681.700	80.007	19.994	103.147	20.270	1.863	0.491
1198.000	682.695	80.005	19.995	103.164	20.272	1.724	0.492
1200.000	683.694	80.006	19.995	103.147	20.273	1.637	0.502
1202.000	684.665	80.006	19.995	103.158	20.272	1.680	0.489
1204.001	685.689	80.006	19.993	103.166	20.271	1.791	0.472
1206.001	686.705	80.006	19.995	103.140	20.274	1.543	0.496
1208.001	687.730	80.006	19.994	103.149	20.274	1.583	0.470
1210.001	688.735	80.006	19.994	103.143	20.276	1.391	0.521
1212.000	689.724	80.007	19.994	103.140	20.273	1.648	0.512
1214.000	690.727	80.008	19.995	103.148	20.278	1.298	0.505
1216.000	691.714	80.007	19.995	103.138	20.273	1.633	0.510
1218.000	692.725	80.005	19.994	103.137	20.274	1.574	0.503
1220.000	693.794	80.006	19.995	103.128	20.274	1.532	0.543
1222.000	694.809	80.004	19.995	103.141	20.271	1.740	0.534
1224.000	695.799	80.003	19.995	103.152	20.272	1.709	0.506
1226.000	696.833	80.004	19.995	103.163	20.277	1.325	0.516
1228.000	697.839	80.005	19.995	103.145	20.272	1.677	0.489
1230.000	698.897	80.003	19.996	103.145	20.274	1.542	0.525
1232.001	699.912	80.006	19.995	103.144	20.275	1.521	0.515
1234.000	700.916	80.005	19.995	103.168	20.274	1.561	0.521
1236.000	701.950	80.005	19.995	103.160	20.275	1.521	0.520
1238.001	702.966	80.003	19.993	103.170	20.273	1.631	0.498
1240.000	703.966	80.005	19.994	103.158	20.277	1.372	0.511
1242.000	704.953	80.005	19.993	103.151	20.275	1.481	0.473
1244.000	705.967	80.004	19.994	103.168	20.274	1.544	0.493
1246.000	706.969	80.006	19.994	103.149	20.276	1.429	0.486
1248.000	707.984	80.004	19.994	103.173	20.275	1.467	0.510
1250.000	708.987	80.004	19.994	103.159	20.273	1.610	0.494
1252.000	709.999	80.005	19.994	103.153	20.274	1.557	0.523
1254.000	710.990	80.004	19.994	103.149	20.273	1.640	0.507
1256.000	712.018	80.004	19.995	103.150	20.274	1.570	0.497
1258.000	713.029	80.004	19.994	103.150	20.271	1.751	0.524
1260.000	714.021	80.004	19.995	103.150	20.266	2.154	0.491
1262.001	715.021	80.004	19.994	103.154	20.271	1.791	0.517
1264.000	716.041	80.004	19.994	103.143	20.275	1.459	0.508
1266.000	717.062	80.005	19.995	103.145	20.273	1.619	0.523
1268.000	717.989	80.007	19.995	103.142	20.276	1.452	0.503
1270.000	718.996	80.008	19.995	103.136	20.274	1.535	0.521
1272.000	720.001	80.007	19.994	103.140	20.273	1.612	0.517
1274.001	720.981	80.006	19.993	103.129	20.276	1.397	0.527
1276.000	721.900	80.007	19.994	103.125	20.271	1.784	0.484
1278.000	722.901	80.006	19.994	103.126	20.272	1.711	0.501
1280.000	723.863	80.006	19.994	103.127	20.270	1.835	0.476
1282.000	724.882	80.007	19.994	103.116	20.272	1.696	0.494
1284.000	725.845	80.005	19.994	103.148	20.276	1.395	0.512
1286.000	726.839	80.006	19.995	103.174	20.277	1.384	0.503
1288.000	727.823	80.005	19.995	103.155	20.276	1.439	0.505
1290.000	728.783	80.006	19.994	103.141	20.278	1.260	0.511
1292.000	729.797	80.007	19.994	103.140	20.276	1.387	0.503
1294.000	730.786	80.006	19.994	103.137	20.273	1.618	0.483
1296.000	731.757	80.006	19.994	103.143	20.272	1.686	0.512
1298.000	732.774	80.006	19.995	103.149	20.273	1.652	0.508
1300.000	733.776	80.005	19.995	103.132	20.276	1.389	0.521
1302.000	734.728	80.004	19.993	103.136	20.274	1.548	0.473
1304.001	735.755	80.005	19.995	103.140	20.281	1.102	0.519
1306.000	736.742	80.004	19.994	103.159	20.277	1.326	0.510
1308.000	737.752	80.003	19.994	103.137	20.281	1.071	0.487
1310.000	738.754	80.005	19.994	103.136	20.276	1.435	0.519
1312.000	739.730	80.004	19.994	103.168	20.272	1.677	0.519
1314.000	740.764	80.004	19.995	103.149	20.271	1.783	0.534
1316.000	741.725	80.003	19.995	103.133	20.278	1.250	0.491
1318.000	742.743	80.004	19.995	103.135	20.279	1.203	0.500
1320.001	743.719	80.003	19.995	103.135	20.277	1.368	0.502