File: 01_Data/CPVC_Pipe/MCC/CPVC_Pipe_MCC_30K_min_211119_R1.txt
Sample ID:	C:\MCC\MCC Cal\Test\CPVC_Pipe_MCC_30K_min_211119_R1.txt
Sample Weight (mg):	4.3
Heating Rate (C/s):	0.5
Combustor Temp (C):	900
N2 Flow Rate (cc/min):	80
O2 Flow Rate (cc/min):	20
Calibration File:	C:\MCC\MCC Cal\Coeff1 JN10440_30_210304.txt.txt
T Correction Coefficients:	0	1.024463	0
Time Shift (s):	14
*
Time (s)	Temperature (C)	N2 flow rate (cc/min)	O2 flow rate (cc/min)	Flow Rate (cc/min)	Oxygen (%)	HRR (W/g)	Heating rate (C/s)
0.000	107.534	80.004	19.996	102.970	20.318	-0.014	-0.014
2.000	107.504	80.004	19.995	102.973	20.315	0.203	-0.044
4.000	107.500	80.002	19.995	102.991	20.318	0.010	0.007
6.000	107.548	80.003	19.995	102.974	20.319	-0.032	0.021
8.000	107.494	80.003	19.997	102.968	20.317	0.059	-0.024
10.000	107.480	80.003	19.996	102.973	20.312	0.475	0.003
12.000	107.508	80.003	19.996	102.979	20.314	0.310	0.020
14.000	107.472	80.003	19.996	102.972	20.316	0.164	0.008
16.000	107.505	80.003	19.995	103.001	20.315	0.264	0.027
18.000	107.507	80.003	19.995	102.980	20.314	0.294	0.008
20.000	107.497	80.004	19.996	102.968	20.314	0.282	0.027
22.000	107.489	80.004	19.996	103.020	20.315	0.209	0.013
24.000	107.483	80.004	19.994	103.008	20.313	0.353	-0.011
26.000	107.505	80.004	19.996	103.024	20.313	0.349	0.040
28.000	107.495	80.004	19.996	103.024	20.311	0.532	0.009
30.000	107.512	80.003	19.996	103.022	20.311	0.534	-0.001
32.000	107.564	80.004	19.995	103.047	20.309	0.650	0.008
33.999	107.627	80.005	19.996	103.046	20.308	0.774	0.020
35.999	107.666	80.005	19.995	103.057	20.304	1.077	0.032
38.001	107.781	80.004	19.995	103.076	20.302	1.191	0.069
39.999	107.861	80.005	19.995	103.077	20.299	1.453	0.043
42.000	107.971	80.004	19.995	103.078	20.299	1.443	0.075
43.999	108.063	80.005	19.995	103.109	20.295	1.701	0.064
45.999	108.223	80.005	19.994	103.144	20.294	1.806	0.039
47.999	108.361	80.004	19.994	103.144	20.288	2.262	0.063
49.999	108.563	80.005	19.995	103.165	20.286	2.380	0.063
52.000	108.812	80.006	19.994	103.177	20.287	2.354	0.115
53.999	109.035	80.006	19.995	103.168	20.281	2.787	0.107
55.999	109.299	80.005	19.996	103.165	20.280	2.865	0.100
57.999	109.574	80.004	19.994	103.154	20.279	2.924	0.113
59.999	109.924	80.003	19.995	103.195	20.276	3.151	0.161
61.999	110.248	80.003	19.994	103.203	20.276	3.188	0.180
63.999	110.579	80.003	19.996	103.214	20.274	3.296	0.159
65.999	111.007	80.003	19.994	103.234	20.275	3.241	0.198
68.000	111.380	80.003	19.996	103.266	20.274	3.293	0.169
69.999	111.822	80.003	19.996	103.237	20.276	3.133	0.222
71.999	112.281	80.003	19.994	103.221	20.271	3.524	0.186
73.999	112.768	80.003	19.995	103.238	20.269	3.692	0.216
76.000	113.330	80.003	19.994	103.233	20.266	3.873	0.279
77.999	113.836	80.003	19.995	103.228	20.271	3.561	0.246
80.000	114.373	80.005	19.994	103.233	20.267	3.838	0.290
82.000	114.974	80.002	19.993	103.250	20.266	3.875	0.307
83.999	115.543	80.004	19.995	103.221	20.267	3.848	0.284
86.000	116.126	80.005	19.995	103.215	20.268	3.747	0.279
87.999	116.740	80.004	19.995	103.205	20.265	3.947	0.287
89.999	117.371	80.003	19.995	103.198	20.263	4.135	0.296
92.000	118.020	80.003	19.996	103.214	20.264	4.092	0.326
93.999	118.680	80.002	19.996	103.220	20.264	4.036	0.341
95.999	119.356	80.002	19.995	103.223	20.264	4.088	0.335
98.000	120.022	80.002	19.995	103.247	20.265	3.955	0.351
99.999	120.727	80.003	19.995	103.228	20.262	4.218	0.326
102.000	121.367	80.003	19.994	103.227	20.264	4.046	0.324
103.999	122.112	80.004	19.996	103.222	20.262	4.238	0.360
105.999	122.832	80.005	19.995	103.243	20.262	4.174	0.367
108.000	123.557	80.005	19.994	103.294	20.264	4.086	0.349
110.000	124.305	80.005	19.994	103.281	20.260	4.369	0.382
111.999	125.088	80.005	19.994	103.240	20.265	4.016	0.410
113.999	125.846	80.002	19.996	103.236	20.263	4.131	0.363
115.999	126.618	80.002	19.995	103.277	20.266	3.932	0.390
118.000	127.401	80.002	19.996	103.265	20.264	4.028	0.385
119.999	128.203	80.004	19.996	103.244	20.262	4.197	0.392
122.000	129.009	80.004	19.997	103.231	20.266	3.915	0.411
124.000	129.803	80.004	19.996	103.225	20.258	4.509	0.387
125.999	130.658	80.004	19.995	103.224	20.260	4.383	0.408
127.999	131.531	80.004	19.995	103.227	20.260	4.370	0.452
130.000	132.397	80.006	19.995	103.238	20.259	4.445	0.448
132.000	133.242	80.007	19.995	103.253	20.260	4.378	0.445
134.000	134.084	80.008	19.995	103.265	20.258	4.531	0.422
136.000	135.010	80.007	19.994	103.261	20.263	4.110	0.467
138.000	135.815	80.007	19.994	103.258	20.259	4.427	0.424
140.000	136.765	80.006	19.994	103.257	20.259	4.447	0.431
142.000	137.667	80.003	19.995	103.253	20.260	4.335	0.447
144.000	138.557	80.003	19.994	103.262	20.260	4.346	0.464
146.000	139.451	80.004	19.994	103.256	20.263	4.163	0.427
148.000	140.378	80.004	19.996	103.252	20.256	4.643	0.455
150.000	141.314	80.004	19.994	103.250	20.261	4.258	0.502
152.000	142.166	80.003	19.995	103.242	20.258	4.531	0.461
154.000	143.168	80.004	19.995	103.259	20.258	4.531	0.478
156.000	144.103	80.003	19.995	103.253	20.257	4.588	0.477
158.000	145.079	80.004	19.995	103.261	20.256	4.645	0.473
160.000	146.000	80.002	19.995	103.254	20.254	4.781	0.465
162.000	146.932	80.003	19.994	103.256	20.255	4.706	0.470
164.000	147.914	80.003	19.995	103.256	20.258	4.505	0.483
166.000	148.912	80.003	19.995	103.254	20.256	4.663	0.523
168.000	149.835	80.003	19.994	103.259	20.257	4.598	0.497
170.000	150.841	80.004	19.994	103.260	20.255	4.738	0.492
172.000	151.841	80.002	19.995	103.262	20.259	4.451	0.493
174.000	152.803	80.002	19.994	103.261	20.258	4.538	0.516
176.000	153.779	80.002	19.995	103.262	20.257	4.556	0.486
178.000	154.756	80.003	19.994	103.262	20.263	4.158	0.509
180.000	155.713	80.003	19.994	103.262	20.260	4.335	0.500
182.000	156.750	80.003	19.995	103.246	20.260	4.328	0.523
184.000	157.724	80.002	19.994	103.229	20.260	4.376	0.515
186.000	158.712	80.003	19.995	103.223	20.260	4.337	0.501
188.000	159.683	80.004	19.995	103.238	20.258	4.518	0.494
190.000	160.699	80.006	19.995	103.249	20.257	4.586	0.479
192.000	161.708	80.004	19.994	103.229	20.256	4.657	0.467
194.000	162.730	80.005	19.994	103.229	20.257	4.547	0.509
196.000	163.707	80.005	19.995	103.237	20.257	4.560	0.494
198.000	164.732	80.005	19.994	103.235	20.260	4.369	0.499
200.000	165.797	80.004	19.994	103.242	20.257	4.566	0.537
202.000	166.793	80.003	19.995	103.257	20.261	4.312	0.495
204.000	167.741	80.003	19.995	103.248	20.259	4.460	0.468
206.000	168.782	80.004	19.995	103.242	20.256	4.667	0.493
208.000	169.775	80.005	19.995	103.221	20.260	4.327	0.495
210.000	170.812	80.004	19.996	103.235	20.262	4.205	0.534
212.000	171.752	80.004	19.995	103.218	20.256	4.671	0.486
214.000	172.778	80.005	19.995	103.215	20.255	4.746	0.486
216.000	173.773	80.005	19.996	103.212	20.256	4.660	0.489
218.000	174.798	80.005	19.995	103.227	20.256	4.678	0.499
220.000	175.790	80.004	19.995	103.243	20.256	4.664	0.497
222.000	176.833	80.004	19.995	103.248	20.258	4.509	0.529
224.000	177.810	80.003	19.994	103.236	20.255	4.764	0.490
226.000	178.835	80.001	19.995	103.244	20.256	4.684	0.506
228.000	179.816	80.003	19.993	103.225	20.252	4.942	0.487
230.000	180.866	80.003	19.993	103.228	20.255	4.741	0.523
232.000	181.856	80.002	19.995	103.220	20.257	4.587	0.499
234.000	182.906	80.003	19.994	103.237	20.257	4.574	0.527
236.000	183.876	80.004	19.995	103.235	20.258	4.537	0.495
238.000	184.880	80.003	19.994	103.224	20.256	4.621	0.488
240.000	185.909	80.005	19.994	103.226	20.258	4.515	0.535
242.000	186.921	80.003	19.994	103.228	20.257	4.571	0.506
244.000	187.949	80.003	19.995	103.218	20.258	4.537	0.509
246.000	188.948	80.003	19.994	103.217	20.258	4.485	0.501
248.000	189.924	80.003	19.996	103.219	20.257	4.606	0.469
250.000	190.930	80.004	19.995	103.217	20.253	4.844	0.500
252.000	191.935	80.004	19.995	103.211	20.255	4.718	0.518
254.000	192.938	80.003	19.994	103.199	20.257	4.570	0.496
256.000	193.939	80.003	19.994	103.217	20.254	4.783	0.495
258.000	194.941	80.004	19.995	103.216	20.254	4.781	0.499
260.000	195.902	80.005	19.995	103.215	20.251	4.993	0.481
262.000	196.894	80.005	19.993	103.213	20.254	4.816	0.496
264.000	197.869	80.004	19.994	103.220	20.254	4.794	0.488
266.000	198.867	80.005	19.995	103.222	20.251	5.016	0.483
268.000	199.885	80.005	19.994	103.217	20.253	4.881	0.501
270.000	200.832	80.005	19.994	103.215	20.251	5.048	0.499
272.000	201.786	80.007	19.994	103.215	20.252	4.956	0.484
274.000	202.776	80.007	19.995	103.204	20.250	5.084	0.475
276.000	203.801	80.006	19.995	103.182	20.252	4.932	0.479
278.000	204.771	80.004	19.996	103.198	20.254	4.816	0.488
280.000	205.762	80.005	19.995	103.213	20.252	4.958	0.532
282.000	206.722	80.004	19.994	103.221	20.253	4.877	0.474
284.000	207.749	80.004	19.996	103.213	20.248	5.288	0.474
286.000	208.738	80.005	19.994	103.219	20.248	5.258	0.505
288.000	209.744	80.005	19.994	103.219	20.250	5.072	0.513
290.000	210.740	80.006	19.994	103.217	20.251	5.010	0.515
292.000	211.681	80.006	19.996	103.220	20.249	5.200	0.467
294.000	212.658	80.005	19.995	103.229	20.248	5.233	0.454
296.000	213.700	80.007	19.994	103.199	20.249	5.190	0.512
298.000	214.651	80.007	19.995	103.196	20.244	5.539	0.461
300.000	215.574	80.005	19.994	103.185	20.239	5.910	0.490
302.000	216.566	80.005	19.995	103.192	20.242	5.741	0.462
304.000	217.545	80.005	19.996	103.185	20.242	5.729	0.499
306.000	218.485	80.003	19.995	103.183	20.238	5.984	0.491
308.000	219.459	80.003	19.997	103.199	20.239	5.959	0.478
310.000	220.427	80.002	19.996	103.219	20.238	6.004	0.447
312.000	221.366	80.002	19.996	103.216	20.239	5.897	0.490
314.000	222.362	80.003	19.996	103.217	20.237	6.071	0.492
316.000	223.305	80.003	19.996	103.212	20.235	6.257	0.471
318.000	224.302	80.002	19.997	103.189	20.235	6.233	0.504
320.000	225.235	80.003	19.995	103.196	20.231	6.495	0.473
322.000	226.258	80.004	19.995	103.209	20.226	6.871	0.455
324.000	227.213	80.005	19.995	103.210	20.227	6.830	0.478
326.000	228.207	80.004	19.995	103.208	20.222	7.181	0.476
328.000	229.220	80.004	19.995	103.201	20.223	7.135	0.517
330.000	230.220	80.003	19.994	103.185	20.217	7.542	0.478
332.000	231.214	80.002	19.995	103.190	20.219	7.443	0.499
334.000	232.161	80.003	19.995	103.191	20.214	7.787	0.492
336.000	233.121	80.004	19.994	103.180	20.215	7.735	0.476
338.000	234.108	80.003	19.994	103.177	20.210	8.113	0.484
340.000	235.111	80.005	19.995	103.188	20.211	8.054	0.448
342.000	236.088	80.004	19.995	103.204	20.209	8.184	0.504
344.000	237.104	80.002	19.995	103.195	20.203	8.607	0.526
346.000	238.102	80.005	19.994	103.214	20.203	8.585	0.485
348.000	239.076	80.005	19.994	103.230	20.203	8.605	0.469
350.000	240.087	80.005	19.995	103.237	20.201	8.753	0.482
352.000	241.029	80.006	19.995	103.208	20.200	8.833	0.472
354.000	242.068	80.007	19.994	103.219	20.204	8.579	0.524
356.000	243.047	80.006	19.995	103.198	20.206	8.378	0.482
358.000	244.085	80.006	19.994	103.192	20.205	8.461	0.515
360.000	245.012	80.005	19.995	103.187	20.210	8.082	0.443
362.000	246.025	80.005	19.995	103.204	20.213	7.853	0.478
364.000	247.076	80.005	19.994	103.218	20.220	7.355	0.501
366.000	248.021	80.005	19.995	103.214	20.220	7.349	0.494
368.000	249.048	80.005	19.996	103.220	20.224	7.044	0.509
370.000	250.070	80.004	19.995	103.218	20.230	6.575	0.517
372.000	251.069	80.006	19.995	103.208	20.231	6.538	0.466
374.000	252.094	80.006	19.995	103.217	20.233	6.341	0.482
376.000	253.056	80.007	19.995	103.220	20.231	6.491	0.487
378.000	254.069	80.007	19.994	103.217	20.234	6.273	0.508
380.000	255.049	80.007	19.995	103.232	20.238	6.021	0.490
382.000	256.093	80.008	19.994	103.225	20.236	6.169	0.506
384.000	257.101	80.007	19.996	103.218	20.238	5.983	0.486
386.000	258.067	80.005	19.995	103.216	20.237	6.044	0.490
388.000	259.095	80.004	19.995	103.215	20.239	5.898	0.521
390.000	260.053	80.004	19.995	103.212	20.242	5.694	0.498
392.000	261.045	80.004	19.994	103.205	20.240	5.838	0.492
394.000	262.060	80.003	19.996	103.211	20.244	5.539	0.525
396.000	263.073	80.003	19.995	103.216	20.240	5.838	0.472
398.000	264.089	80.004	19.995	103.218	20.241	5.747	0.524
400.000	265.062	80.003	19.997	103.220	20.240	5.836	0.494
402.000	266.027	80.004	19.996	103.212	20.239	5.964	0.497
404.000	267.045	80.005	19.996	103.209	20.239	5.902	0.498
406.000	268.087	80.005	19.996	103.213	20.242	5.692	0.521
408.000	269.100	80.005	19.997	103.222	20.241	5.746	0.546
410.000	270.046	80.006	19.995	103.215	20.239	5.907	0.521
412.000	271.063	80.004	19.995	103.213	20.239	5.965	0.498
414.000	272.038	80.003	19.995	103.223	20.235	6.261	0.508
416.000	273.022	80.005	19.995	103.226	20.235	6.254	0.483
418.000	274.002	80.003	19.995	103.231	20.234	6.321	0.491
420.000	274.990	80.004	19.994	103.247	20.230	6.590	0.513
422.000	275.993	80.003	19.994	103.224	20.230	6.595	0.459
424.000	276.900	80.004	19.994	103.221	20.229	6.664	0.483
426.000	277.952	80.004	19.994	103.221	20.227	6.854	0.526
428.000	278.922	80.004	19.995	103.239	20.227	6.821	0.519
430.000	279.878	80.004	19.995	103.234	20.226	6.906	0.497
432.000	280.890	80.005	19.994	103.250	20.224	7.043	0.511
434.000	281.814	80.005	19.994	103.258	20.221	7.247	0.475
436.000	282.826	80.006	19.995	103.248	20.221	7.246	0.502
438.000	283.873	80.006	19.994	103.247	20.219	7.427	0.503
440.000	284.856	80.005	19.995	103.257	20.216	7.665	0.508
442.000	285.848	80.005	19.994	103.258	20.216	7.657	0.526
444.000	286.807	80.005	19.994	103.270	20.214	7.802	0.469
446.000	287.815	80.006	19.994	103.261	20.209	8.155	0.495
448.000	288.772	80.005	19.995	103.272	20.205	8.486	0.489
450.000	289.800	80.006	19.995	103.290	20.204	8.535	0.493
452.000	290.842	80.007	19.995	103.293	20.203	8.670	0.520
454.000	291.823	80.006	19.994	103.289	20.199	8.954	0.510
456.000	292.827	80.007	19.994	103.287	20.198	8.985	0.494
458.000	293.810	80.006	19.995	103.292	20.193	9.408	0.480
460.000	294.792	80.007	19.994	103.316	20.191	9.512	0.460
462.000	295.807	80.007	19.994	103.331	20.187	9.869	0.458
464.000	296.745	80.006	19.994	103.330	20.185	10.002	0.486
466.000	297.718	80.007	19.995	103.330	20.180	10.333	0.482
468.000	298.774	80.005	19.994	103.330	20.171	11.073	0.492
470.000	299.739	80.004	19.995	103.333	20.164	11.525	0.499
472.000	300.761	80.004	19.994	103.334	20.162	11.745	0.490
474.000	301.772	80.004	19.995	103.343	20.159	11.953	0.497
476.000	302.820	80.004	19.995	103.346	20.156	12.157	0.536
478.000	303.771	80.004	19.995	103.367	20.153	12.420	0.555
480.000	304.633	80.004	19.995	103.377	20.152	12.451	0.450
482.000	305.505	80.004	19.995	103.372	20.144	13.031	0.160
484.000	306.791	80.004	19.995	103.376	20.140	13.352	0.422
486.000	307.777	80.004	19.994	103.378	20.138	13.483	0.477
488.000	308.814	80.004	19.995	103.377	20.132	13.953	0.487
490.000	309.849	80.003	19.995	103.380	20.132	13.993	0.517
492.000	310.942	80.003	19.995	103.386	20.126	14.437	0.531
494.000	312.005	80.003	19.995	103.376	20.122	14.744	0.544
496.000	312.972	80.002	19.995	103.376	20.121	14.782	0.493
498.000	314.072	80.002	19.996	103.377	20.119	14.911	0.508
500.000	315.077	80.003	19.996	103.376	20.117	15.060	0.515
502.000	316.106	80.003	19.996	103.374	20.116	15.148	0.492
504.000	317.155	80.003	19.995	103.377	20.112	15.404	0.542
506.000	318.194	80.003	19.995	103.372	20.114	15.305	0.543
508.000	319.211	80.004	19.995	103.346	20.111	15.490	0.503
510.000	320.255	80.004	19.993	103.297	20.111	15.482	0.492
512.000	321.325	80.006	19.995	103.254	20.110	15.529	0.541
514.000	322.352	80.004	19.994	103.227	20.113	15.325	0.509
516.000	323.367	80.006	19.994	103.185	20.116	15.130	0.491
518.000	324.414	80.005	19.994	103.134	20.122	14.684	0.488
520.000	325.476	80.006	19.994	103.076	20.132	13.877	0.549
522.000	326.478	80.005	19.994	103.037	20.135	13.694	0.510
524.000	327.485	80.005	19.994	103.019	20.143	13.061	0.525
526.000	328.489	80.005	19.994	102.993	20.149	12.624	0.511
528.000	329.567	80.007	19.996	102.977	20.152	12.457	0.551
530.000	330.574	80.005	19.995	102.980	20.155	12.205	0.511
532.000	331.563	80.005	19.996	102.985	20.152	12.430	0.465
534.000	332.634	80.006	19.994	103.009	20.148	12.730	0.510
536.000	333.623	80.006	19.994	103.033	20.149	12.686	0.496
538.000	334.670	80.007	19.995	103.062	20.146	12.905	0.485
540.000	335.698	80.007	19.994	103.091	20.142	13.202	0.507
542.000	336.695	80.007	19.993	103.107	20.140	13.327	0.492
544.000	337.729	80.007	19.994	103.150	20.137	13.569	0.518
546.000	338.720	80.007	19.995	103.190	20.137	13.607	0.507
548.000	339.706	80.006	19.995	103.220	20.137	13.585	0.504
550.000	340.718	80.005	19.993	103.248	20.137	13.551	0.473
552.000	341.712	80.005	19.994	103.252	20.134	13.796	0.482
554.000	342.686	80.005	19.995	103.268	20.136	13.681	0.486
556.000	343.699	80.005	19.995	103.291	20.139	13.448	0.512
558.000	344.688	80.004	19.995	103.316	20.140	13.341	0.505
560.000	345.675	80.004	19.994	103.314	20.141	13.273	0.472
562.000	346.665	80.004	19.995	103.323	20.149	12.718	0.492
564.000	347.686	80.004	19.994	103.339	20.146	12.879	0.506
566.000	348.654	80.003	19.994	103.340	20.149	12.675	0.494
568.000	349.652	80.005	19.994	103.359	20.151	12.537	0.509
570.000	350.671	80.005	19.994	103.372	20.154	12.328	0.463
572.000	351.676	80.004	19.995	103.356	20.153	12.361	0.498
574.000	352.677	80.007	19.995	103.355	20.159	11.935	0.493
576.000	353.760	80.003	19.995	103.355	20.159	11.900	0.525
578.000	354.735	80.005	19.995	103.345	20.163	11.627	0.495
580.000	355.726	80.005	19.994	103.368	20.163	11.643	0.516
582.000	356.721	80.004	19.995	103.377	20.162	11.683	0.502
584.000	357.741	80.004	19.995	103.381	20.168	11.279	0.511
586.000	358.681	80.005	19.996	103.353	20.164	11.591	0.504
588.000	359.674	80.004	19.995	103.333	20.163	11.639	0.480
590.000	360.674	80.003	19.996	103.342	20.162	11.700	0.517
592.000	361.680	80.003	19.996	103.362	20.165	11.506	0.514
594.000	362.656	80.003	19.996	103.371	20.166	11.378	0.488
596.000	363.628	80.005	19.996	103.369	20.170	11.111	0.505
598.000	364.634	80.005	19.996	103.341	20.169	11.174	0.488
600.000	365.598	80.005	19.995	103.357	20.172	10.961	0.467
602.000	366.627	80.006	19.995	103.347	20.169	11.159	0.493
604.000	367.591	80.006	19.994	103.341	20.172	10.951	0.482
606.000	368.626	80.006	19.995	103.339	20.171	11.061	0.519
608.000	369.589	80.004	19.994	103.354	20.175	10.754	0.476
610.000	370.616	80.004	19.995	103.357	20.172	10.933	0.523
612.000	371.646	80.005	19.994	103.340	20.175	10.716	0.515
614.000	372.672	80.003	19.994	103.337	20.173	10.892	0.506
616.000	373.705	80.005	19.994	103.328	20.173	10.916	0.479
618.000	374.734	80.006	19.995	103.334	20.172	10.943	0.533
620.000	375.726	80.005	19.994	103.336	20.173	10.872	0.501
622.000	376.768	80.006	19.994	103.322	20.172	10.924	0.549
624.000	377.790	80.006	19.995	103.327	20.172	10.960	0.532
626.000	378.788	80.006	19.993	103.324	20.172	10.972	0.525
628.000	379.817	80.005	19.994	103.298	20.171	11.043	0.516
630.000	380.834	80.006	19.994	103.302	20.173	10.908	0.506
632.000	381.859	80.005	19.993	103.327	20.171	11.002	0.497
634.000	382.845	80.006	19.994	103.309	20.171	11.064	0.491
636.000	383.870	80.003	19.994	103.297	20.174	10.782	0.498
638.000	384.895	80.004	19.995	103.300	20.172	10.982	0.506
640.000	385.925	80.005	19.994	103.304	20.173	10.856	0.530
642.000	386.935	80.004	19.994	103.304	20.177	10.590	0.520
644.000	387.995	80.004	19.994	103.299	20.174	10.772	0.516
646.000	388.984	80.004	19.995	103.298	20.171	11.063	0.522
648.000	390.023	80.004	19.994	103.297	20.175	10.732	0.521
650.000	391.080	80.005	19.994	103.298	20.174	10.831	0.529
652.000	392.100	80.003	19.995	103.287	20.172	10.964	0.524
654.000	393.143	80.006	19.995	103.285	20.175	10.734	0.514
656.000	394.219	80.004	19.995	103.293	20.177	10.587	0.544
658.000	395.216	80.004	19.995	103.296	20.177	10.561	0.514
660.000	396.243	80.004	19.995	103.295	20.177	10.558	0.528
662.000	397.232	80.006	19.996	103.294	20.177	10.543	0.488
664.000	398.268	80.003	19.995	103.279	20.171	11.048	0.515
666.000	399.295	80.004	19.995	103.279	20.174	10.817	0.507
668.000	400.322	80.004	19.995	103.273	20.173	10.878	0.499
670.000	401.350	80.004	19.994	103.288	20.174	10.774	0.544
672.000	402.398	80.003	19.994	103.278	20.170	11.113	0.547
674.000	403.382	80.003	19.995	103.281	20.175	10.695	0.510
676.000	404.411	80.004	19.995	103.263	20.176	10.644	0.494
678.000	405.372	80.004	19.995	103.280	20.172	10.921	0.496
680.000	406.422	80.006	19.994	103.284	20.174	10.781	0.537
682.000	407.439	80.006	19.996	103.292	20.174	10.815	0.533
684.000	408.494	80.007	19.994	103.283	20.176	10.683	0.538
686.000	409.467	80.005	19.995	103.262	20.175	10.696	0.501
688.000	410.542	80.006	19.995	103.259	20.174	10.797	0.559
690.000	411.522	80.003	19.996	103.259	20.172	10.915	0.487
692.000	412.502	80.006	19.994	103.256	20.172	10.934	0.501
694.000	413.540	80.005	19.995	103.256	20.169	11.166	0.517
696.000	414.467	80.006	19.995	103.259	20.174	10.796	0.473
698.000	415.517	80.006	19.995	103.261	20.171	11.050	0.536
700.000	416.535	80.007	19.994	103.257	20.176	10.666	0.504
702.000	417.593	80.005	19.993	103.269	20.171	11.015	0.542
704.000	418.581	80.008	19.992	103.269	20.171	11.028	0.512
706.000	419.552	80.007	19.994	103.259	20.169	11.185	0.504
708.000	420.562	80.008	19.993	103.255	20.165	11.467	0.495
710.000	421.594	80.008	19.993	103.235	20.164	11.555	0.487
712.000	422.632	80.007	19.993	103.232	20.165	11.470	0.523
714.000	423.613	80.006	19.994	103.245	20.162	11.703	0.491
716.000	424.593	80.007	19.993	103.252	20.162	11.709	0.507
718.000	425.633	80.004	19.993	103.253	20.160	11.832	0.518
720.000	426.611	80.005	19.994	103.260	20.162	11.687	0.468
722.000	427.679	80.007	19.994	103.285	20.157	12.078	0.514
724.000	428.674	80.007	19.993	103.259	20.156	12.116	0.516
726.000	429.672	80.006	19.994	103.249	20.156	12.130	0.530
728.000	430.697	80.005	19.994	103.252	20.153	12.395	0.509
730.000	431.762	80.005	19.994	103.254	20.151	12.554	0.539
732.000	432.746	80.009	19.994	103.253	20.148	12.781	0.502
734.000	433.786	80.006	19.995	103.258	20.146	12.861	0.541
736.000	434.771	80.006	19.995	103.254	20.144	13.067	0.477
738.000	435.828	80.005	19.994	103.255	20.144	13.045	0.497
740.000	436.879	80.006	19.994	103.257	20.142	13.167	0.538
742.000	437.827	80.004	19.994	103.257	20.138	13.475	0.478
744.000	438.816	80.005	19.994	103.256	20.139	13.455	0.501
746.000	439.896	80.005	19.995	103.241	20.139	13.432	0.525
748.000	440.913	80.004	19.994	103.225	20.136	13.610	0.537
750.000	441.918	80.004	19.995	103.244	20.124	14.575	0.536
752.000	442.942	80.003	19.996	103.253	20.124	14.523	0.519
754.000	443.968	80.004	19.994	103.256	20.121	14.762	0.499
756.000	444.947	80.004	19.995	103.257	20.120	14.805	0.471
758.000	445.998	80.004	19.995	103.244	20.118	14.985	0.518
760.000	447.020	80.004	19.995	103.240	20.116	15.151	0.514
762.000	448.003	80.007	19.995	103.267	20.114	15.311	0.486
764.000	449.062	80.004	19.994	103.255	20.109	15.690	0.482
766.000	450.232	80.005	19.994	103.242	20.106	15.889	0.639
768.000	451.091	80.006	19.994	103.219	20.102	16.219	0.472
770.000	452.117	80.005	19.994	103.219	20.101	16.270	0.533
772.000	453.101	80.005	19.995	103.214	20.093	16.892	0.501
774.000	454.118	80.006	19.994	103.215	20.089	17.184	0.495
776.000	455.134	80.005	19.996	103.221	20.093	16.904	0.524
778.000	456.153	80.006	19.995	103.244	20.089	17.149	0.484
780.000	457.147	80.003	19.995	103.226	20.090	17.104	0.524
782.000	458.145	80.004	19.996	103.192	20.088	17.242	0.527
784.000	459.185	80.004	19.995	103.234	20.088	17.270	0.507
786.000	460.190	80.005	19.995	103.261	20.083	17.618	0.531
788.000	461.218	80.005	19.996	103.209	20.081	17.753	0.508
790.000	462.192	80.006	19.996	103.222	20.079	17.881	0.492
792.000	463.248	80.005	19.996	103.214	20.080	17.854	0.498
794.000	464.257	80.006	19.995	103.213	20.078	17.999	0.489
796.000	465.268	80.008	19.996	103.210	20.075	18.206	0.475
798.000	466.288	80.008	19.994	103.217	20.075	18.186	0.529
800.000	467.290	80.005	19.994	103.232	20.074	18.255	0.498
802.000	468.299	80.005	19.994	103.218	20.075	18.175	0.509
804.000	469.331	80.005	19.994	103.225	20.077	18.066	0.522
806.000	470.321	80.005	19.995	103.253	20.077	18.062	0.506
808.000	471.305	80.000	19.995	103.239	20.081	17.779	0.491
810.000	472.371	80.004	19.995	103.259	20.079	17.882	0.504
812.000	473.385	80.005	19.995	103.230	20.084	17.533	0.524
814.000	474.392	80.005	19.994	103.239	20.086	17.367	0.499
816.000	475.412	80.008	19.994	103.242	20.088	17.214	0.528
818.000	476.451	80.004	19.994	103.217	20.094	16.771	0.518
820.000	477.493	80.005	19.994	103.201	20.094	16.755	0.534
822.000	478.473	80.007	19.994	103.228	20.098	16.491	0.495
824.000	479.470	80.002	19.994	103.207	20.100	16.359	0.509
826.000	480.482	80.007	19.994	103.193	20.102	16.152	0.511
828.000	481.543	80.006	19.994	103.211	20.105	15.954	0.529
830.000	482.567	80.002	19.993	103.217	20.107	15.777	0.529
832.000	483.585	80.004	19.994	103.219	20.111	15.475	0.508
834.000	484.595	80.004	19.995	103.221	20.114	15.308	0.535
836.000	485.590	80.006	19.994	103.216	20.119	14.899	0.513
838.000	486.625	80.003	19.993	103.211	20.117	15.082	0.501
840.000	487.625	80.005	19.995	103.217	20.122	14.698	0.515
842.000	488.598	80.006	19.994	103.208	20.128	14.236	0.492
844.000	489.626	80.004	19.995	103.185	20.125	14.441	0.466
846.000	490.638	80.003	19.994	103.191	20.129	14.169	0.500
848.000	491.655	80.004	19.994	103.219	20.132	13.912	0.489
850.000	492.697	80.007	19.995	103.235	20.134	13.817	0.528
852.000	493.720	80.008	19.994	103.191	20.137	13.599	0.494
854.000	494.763	80.005	19.994	103.171	20.140	13.309	0.516
856.000	495.767	80.006	19.995	103.194	20.138	13.513	0.493
858.000	496.787	80.006	19.994	103.222	20.144	13.020	0.522
860.000	497.812	80.006	19.995	103.221	20.140	13.368	0.489
862.000	498.831	80.007	19.994	103.215	20.149	12.672	0.506
864.000	499.846	80.005	19.994	103.195	20.150	12.555	0.536
866.000	500.880	80.005	19.994	103.181	20.148	12.776	0.520
868.000	501.891	80.005	19.994	103.211	20.153	12.399	0.525
870.000	502.926	80.004	19.994	103.218	20.151	12.491	0.506
872.000	503.916	80.007	19.995	103.206	20.151	12.490	0.482
874.000	504.964	80.007	19.994	103.213	20.154	12.262	0.518
876.000	506.020	80.005	19.995	103.193	20.158	11.996	0.524
878.000	507.038	80.008	19.994	103.178	20.154	12.269	0.526
880.000	508.067	80.006	19.994	103.198	20.157	12.068	0.514
882.000	509.066	80.007	19.995	103.214	20.158	12.006	0.516
884.000	510.059	80.005	19.997	103.212	20.159	11.906	0.472
886.000	511.112	80.004	19.996	103.197	20.159	11.952	0.503
888.000	512.123	80.005	19.994	103.187	20.158	12.002	0.509
890.000	513.147	80.005	19.995	103.217	20.159	11.893	0.507
892.000	514.216	80.005	19.995	103.249	20.157	12.086	0.535
894.000	515.263	80.005	19.995	103.166	20.160	11.866	0.533
896.000	516.281	80.002	19.995	103.181	20.157	12.064	0.515
898.000	517.299	80.006	19.994	103.204	20.163	11.586	0.500
900.000	518.349	80.002	19.995	103.201	20.155	12.183	0.505
902.000	519.378	80.008	19.994	103.199	20.164	11.525	0.531
904.000	520.395	80.003	19.995	103.187	20.161	11.740	0.513
906.000	521.464	80.003	19.994	103.202	20.159	11.947	0.516
908.000	522.511	80.005	19.995	103.187	20.159	11.919	0.512
910.000	523.540	80.004	19.994	103.200	20.157	12.095	0.542
912.000	524.588	80.007	19.995	103.197	20.160	11.874	0.532
914.000	525.608	80.005	19.995	103.186	20.160	11.875	0.501
916.000	526.632	80.006	19.996	103.194	20.158	11.969	0.511
918.000	527.670	80.006	19.995	103.187	20.160	11.847	0.503
920.000	528.678	80.005	19.995	103.190	20.159	11.934	0.513
922.000	529.756	80.006	19.996	103.198	20.160	11.811	0.526
924.000	530.766	80.004	19.994	103.200	20.163	11.581	0.499
926.000	531.768	80.006	19.995	103.181	20.160	11.813	0.519
928.000	532.836	80.005	19.996	103.179	20.160	11.855	0.554
930.000	533.846	80.008	19.995	103.187	20.158	12.009	0.501
932.000	534.895	80.007	19.994	103.186	20.158	11.963	0.488
934.000	535.962	80.007	19.995	103.187	20.161	11.782	0.539
936.000	537.001	80.007	19.994	103.193	20.159	11.920	0.518
938.000	538.029	80.007	19.994	103.207	20.158	12.004	0.523
940.000	539.040	80.006	19.994	103.211	20.161	11.777	0.501
942.000	540.045	80.006	19.993	103.210	20.160	11.823	0.521
944.000	541.050	80.008	19.994	103.207	20.162	11.724	0.484
946.000	542.061	80.006	19.994	103.188	20.160	11.818	0.521
948.000	543.068	80.003	19.995	103.193	20.159	11.909	0.513
950.000	544.082	80.006	19.995	103.202	20.163	11.605	0.496
952.000	545.107	80.004	19.994	103.211	20.158	12.025	0.521
954.000	546.103	80.006	19.996	103.190	20.159	11.911	0.498
956.000	547.120	80.006	19.995	103.186	20.159	11.897	0.529
958.000	548.127	80.007	19.994	103.183	20.160	11.806	0.505
960.000	549.143	80.007	19.994	103.177	20.165	11.468	0.509
962.000	550.093	80.006	19.994	103.181	20.160	11.869	0.509
964.000	551.123	80.008	19.994	103.185	20.159	11.949	0.524
966.000	552.113	80.008	19.994	103.187	20.162	11.725	0.495
968.000	553.124	80.007	19.994	103.189	20.162	11.667	0.538
970.000	554.130	80.007	19.995	103.185	20.157	12.035	0.513
972.000	555.176	80.007	19.996	103.199	20.159	11.906	0.516
974.000	556.243	80.004	19.995	103.212	20.160	11.806	0.533
976.000	557.213	80.005	19.994	103.184	20.161	11.782	0.503
978.000	558.224	80.005	19.995	103.180	20.156	12.131	0.503
980.000	559.247	80.005	19.995	103.180	20.161	11.767	0.509
982.000	560.258	80.005	19.996	103.172	20.158	11.953	0.510
984.000	561.265	80.003	19.995	103.174	20.158	11.975	0.503
986.000	562.300	80.005	19.995	103.174	20.158	11.974	0.534
988.000	563.283	80.004	19.996	103.174	20.156	12.160	0.483
990.000	564.308	80.005	19.995	103.171	20.158	12.003	0.506
992.000	565.305	80.004	19.996	103.175	20.159	11.897	0.506
994.000	566.337	80.006	19.995	103.198	20.156	12.137	0.499
996.000	567.376	80.006	19.994	103.214	20.158	12.003	0.494
998.000	568.422	80.007	19.995	103.186	20.158	12.008	0.513
1000.000	569.443	80.006	19.995	103.175	20.158	12.023	0.508
1002.000	570.480	80.004	19.995	103.185	20.154	12.255	0.493
1004.000	571.511	80.005	19.995	103.186	20.156	12.109	0.549
1006.000	572.565	80.004	19.995	103.175	20.155	12.252	0.531
1008.000	573.686	80.003	19.994	103.178	20.155	12.203	0.549
1010.000	574.716	80.002	19.994	103.179	20.156	12.161	0.551
1012.000	575.779	80.004	19.995	103.192	20.159	11.932	0.545
1014.000	576.834	80.004	19.995	103.183	20.159	11.922	0.552
1016.000	577.880	80.005	19.995	103.178	20.157	12.053	0.537
1018.000	578.911	80.007	19.996	103.177	20.155	12.239	0.521
1020.000	579.945	80.008	19.996	103.184	20.157	12.036	0.531
1022.000	581.003	80.008	19.994	103.179	20.152	12.410	0.538
1024.000	582.048	80.005	19.994	103.178	20.152	12.443	0.515
1025.999	583.089	80.006	19.995	103.170	20.152	12.441	0.498
1027.999	584.130	80.004	19.994	103.165	20.154	12.311	0.519
1029.999	585.171	80.006	19.994	103.177	20.148	12.702	0.536
1031.999	586.238	80.006	19.993	103.180	20.158	11.993	0.527
1033.999	587.237	80.005	19.994	103.181	20.158	12.026	0.497
1035.999	588.310	80.007	19.994	103.182	20.159	11.901	0.532
1037.999	589.357	80.006	19.993	103.185	20.160	11.875	0.541
1040.000	590.366	80.007	19.993	103.180	20.161	11.767	0.507
1042.001	591.402	80.008	19.995	103.172	20.159	11.895	0.520
1043.999	592.455	80.007	19.994	103.176	20.160	11.855	0.538
1046.000	593.501	80.008	19.995	103.175	20.157	12.079	0.499
1048.000	594.556	80.008	19.995	103.172	20.156	12.133	0.535
1049.999	595.574	80.007	19.995	103.170	20.155	12.228	0.504
1052.000	596.626	80.005	19.996	103.167	20.155	12.243	0.504
1053.999	597.644	80.007	19.995	103.170	20.156	12.102	0.516
1056.000	598.690	80.005	19.995	103.176	20.153	12.361	0.529
1058.000	599.715	80.005	19.995	103.175	20.151	12.496	0.505
1060.000	600.722	80.005	19.996	103.171	20.151	12.477	0.502
1061.999	601.790	80.004	19.994	103.169	20.155	12.189	0.526
1063.999	602.802	80.005	19.995	103.174	20.148	12.726	0.517
1065.999	603.798	80.006	19.995	103.163	20.148	12.703	0.489
1067.999	604.856	80.004	19.995	103.159	20.156	12.147	0.515
1069.999	605.861	80.004	19.994	103.145	20.154	12.318	0.491
1071.999	606.928	80.004	19.995	103.166	20.157	12.037	0.497
1073.999	607.936	80.003	19.994	103.170	20.151	12.539	0.506
1075.999	608.974	80.004	19.996	103.175	20.159	11.886	0.532
1077.999	609.968	80.005	19.996	103.179	20.156	12.119	0.535
1079.999	610.986	80.003	19.994	103.158	20.156	12.150	0.504
1081.999	612.013	80.005	19.996	103.172	20.156	12.142	0.506
1084.000	613.010	80.004	19.995	103.160	20.150	12.597	0.509
1085.999	614.015	80.007	19.996	103.150	20.154	12.312	0.498
1087.999	614.996	80.004	19.996	103.163	20.154	12.320	0.489
1089.999	616.028	80.005	19.995	103.178	20.153	12.397	0.490
1092.001	617.057	80.004	19.995	103.181	20.159	11.923	0.527
1093.999	618.074	80.004	19.993	103.179	20.153	12.362	0.534
1095.999	619.033	80.004	19.994	103.171	20.155	12.178	0.469
1098.000	619.997	80.004	19.993	103.173	20.159	11.920	0.463
1099.999	621.041	80.005	19.995	103.175	20.157	12.027	0.516
1101.999	622.042	80.006	19.994	103.168	20.160	11.807	0.514
1103.999	622.994	80.005	19.994	103.168	20.158	11.956	0.493
1106.000	623.966	80.009	19.994	103.165	20.158	12.011	0.490
1107.999	624.930	80.007	19.993	103.162	20.153	12.329	0.510
1110.000	625.924	80.006	19.994	103.156	20.154	12.308	0.475
1112.000	626.875	80.006	19.995	103.163	20.153	12.399	0.477
1113.999	627.859	80.007	19.996	103.167	20.152	12.430	0.489
1115.999	628.850	80.006	19.993	103.175	20.155	12.183	0.495
1117.999	629.829	80.006	19.994	103.169	20.151	12.548	0.490
1119.999	630.814	80.008	19.995	103.153	20.156	12.152	0.493
1121.999	631.791	80.007	19.994	103.167	20.150	12.592	0.488
1124.000	632.761	80.008	19.995	103.174	20.153	12.399	0.488
1125.999	633.788	80.009	19.993	103.172	20.155	12.181	0.522
1127.999	634.812	80.009	19.993	103.168	20.156	12.172	0.500
1129.999	635.806	80.009	19.993	103.176	20.147	12.779	0.532
1131.999	636.805	80.008	19.993	103.173	20.153	12.345	0.481
1133.999	637.843	80.009	19.994	103.171	20.151	12.547	0.493
1135.999	638.815	80.009	19.993	103.172	20.154	12.322	0.504
1137.999	639.877	80.006	19.993	103.161	20.148	12.765	0.492
1140.000	640.844	80.006	19.994	103.166	20.146	12.853	0.495
1141.999	641.869	80.006	19.995	103.167	20.150	12.599	0.521
1144.000	642.851	80.004	19.994	103.165	20.146	12.878	0.491
1145.999	643.826	80.006	19.994	103.173	20.144	13.031	0.513
1147.999	644.830	80.005	19.994	103.172	20.150	12.624	0.512
1149.999	645.797	80.006	19.996	103.178	20.147	12.820	0.474
1152.000	646.827	80.004	19.994	103.170	20.142	13.209	0.507
1153.999	647.821	80.005	19.994	103.158	20.145	12.967	0.482
1156.000	648.780	80.005	19.994	103.171	20.141	13.263	0.473
1157.999	649.796	80.007	19.995	103.165	20.150	12.580	0.503
1160.000	650.759	80.005	19.995	103.166	20.149	12.667	0.451
1161.999	651.816	80.005	19.994	103.174	20.147	12.800	0.549
1163.999	652.827	80.007	19.995	103.174	20.145	12.948	0.532
1165.999	653.817	80.005	19.994	103.177	20.146	12.895	0.479
1167.999	654.868	80.006	19.994	103.171	20.148	12.725	0.514
1169.999	655.849	80.005	19.994	103.171	20.145	12.941	0.518
1171.999	656.942	80.005	19.996	103.172	20.146	12.920	0.536
1174.000	657.950	80.004	19.996	103.172	20.147	12.777	0.503
1175.999	658.957	80.004	19.994	103.161	20.148	12.702	0.483
1177.999	659.957	80.004	19.995	103.152	20.148	12.744	0.517
1180.000	661.040	80.005	19.995	103.147	20.144	13.065	0.530
1181.999	662.050	80.007	19.996	103.161	20.146	12.895	0.491
1183.999	663.136	80.007	19.994	103.162	20.145	12.965	0.534
1185.999	664.150	80.007	19.995	103.163	20.147	12.821	0.529
1187.999	665.207	80.008	19.995	103.162	20.141	13.236	0.539
1189.999	666.253	80.007	19.994	103.148	20.148	12.773	0.551
1191.999	667.324	80.007	19.993	103.153	20.148	12.726	0.546
1193.999	668.391	80.007	19.994	103.145	20.146	12.911	0.513
1195.999	669.391	80.006	19.993	103.156	20.145	12.926	0.486
1197.999	670.483	80.006	19.993	103.169	20.142	13.175	0.539
1199.999	671.508	80.006	19.994	103.173	20.145	12.974	0.490
1201.999	672.594	80.006	19.994	103.172	20.147	12.820	0.551
1204.000	673.657	80.007	19.995	103.166	20.151	12.549	0.524
1205.999	674.677	80.007	19.995	103.174	20.149	12.674	0.507
1208.000	675.790	80.007	19.994	103.173	20.143	13.119	0.511
1209.999	676.821	80.008	19.994	103.159	20.145	12.973	0.546
1211.999	677.857	80.007	19.993	103.154	20.142	13.198	0.508
1214.000	678.928	80.008	19.993	103.163	20.147	12.781	0.535
1216.000	679.959	80.008	19.994	103.174	20.141	13.266	0.558
1217.999	680.997	80.010	19.994	103.174	20.145	12.953	0.525
1219.999	682.011	80.008	19.994	103.177	20.145	12.991	0.501
1222.000	683.079	80.007	19.993	103.175	20.142	13.196	0.532
1224.000	684.114	80.006	19.994	103.175	20.144	13.058	0.528
1225.999	685.141	80.006	19.993	103.167	20.141	13.230	0.525
1227.999	686.198	80.006	19.993	103.170	20.138	13.456	0.516
1229.999	687.211	80.006	19.994	103.165	20.145	12.933	0.499
1231.999	688.235	80.006	19.995	103.169	20.144	13.031	0.515
1233.999	689.264	80.006	19.994	103.171	20.137	13.576	0.512
1235.999	690.294	80.006	19.994	103.171	20.138	13.475	0.516
1237.999	691.338	80.006	19.994	103.169	20.139	13.413	0.531
1239.999	692.372	80.006	19.994	103.174	20.142	13.211	0.539
1241.999	693.400	80.006	19.994	103.170	20.138	13.485	0.507
1243.999	694.433	80.005	19.995	103.173	20.137	13.525	0.506
1245.999	695.457	80.006	19.995	103.173	20.138	13.480	0.536
1247.999	696.454	80.005	19.995	103.163	20.140	13.368	0.490
1250.000	697.507	80.006	19.995	103.157	20.134	13.779	0.519
1251.999	698.533	80.006	19.994	103.160	20.137	13.556	0.519
1253.999	699.528	80.005	19.995	103.103	20.137	13.575	0.533
1255.999	700.573	80.006	19.994	103.176	20.140	13.331	0.510
1257.999	701.587	80.005	19.994	103.182	20.134	13.819	0.533
1259.999	702.599	80.005	19.993	103.146	20.130	14.064	0.504
1261.999	703.667	80.006	19.994	103.157	20.135	13.701	0.519
1263.999	704.664	80.006	19.993	103.149	20.135	13.699	0.518
1266.000	705.681	80.006	19.995	103.157	20.133	13.861	0.484
1267.999	706.688	80.007	19.995	103.165	20.134	13.769	0.486
1269.999	707.708	80.006	19.995	103.189	20.131	13.991	0.519
1271.999	708.731	80.007	19.996	103.161	20.131	13.974	0.490
1274.000	709.713	80.007	19.996	103.156	20.133	13.851	0.490
1276.000	710.744	80.007	19.994	103.149	20.132	13.936	0.480
1277.999	711.760	80.006	19.995	103.165	20.131	13.982	0.481
1280.000	712.806	80.007	19.995	103.162	20.127	14.329	0.499
1281.999	713.792	80.005	19.994	103.176	20.133	13.877	0.501
1283.999	714.762	80.006	19.995	103.162	20.124	14.519	0.509
1285.999	715.891	80.007	19.994	103.151	20.129	14.133	0.531
1288.000	716.875	80.005	19.994	103.146	20.129	14.149	0.511
1289.999	717.870	80.008	19.995	103.148	20.128	14.211	0.506
1291.999	718.885	80.006	19.995	103.160	20.127	14.306	0.526
1294.000	719.905	80.007	19.994	103.174	20.130	14.085	0.485
1295.999	720.918	80.007	19.993	103.168	20.128	14.193	0.500
1297.999	721.924	80.008	19.994	103.107	20.127	14.334	0.502
1299.999	722.927	80.008	19.993	103.170	20.124	14.502	0.499
1301.999	723.913	80.009	19.993	103.197	20.125	14.431	0.492
1303.999	724.996	80.007	19.993	103.139	20.123	14.620	0.503
1305.999	725.969	80.007	19.994	103.142	20.125	14.465	0.493
1307.999	726.965	80.005	19.994	103.143	20.124	14.539	0.522
1310.000	727.930	80.007	19.994	103.145	20.124	14.566	0.503
1311.999	728.924	80.006	19.995	103.136	20.122	14.695	0.455
1313.999	729.938	80.006	19.995	103.158	20.123	14.577	0.510
1315.999	730.949	80.006	19.995	103.168	20.128	14.234	0.473
1318.001	731.956	80.006	19.993	103.142	20.124	14.510	0.512
1319.999	732.930	80.006	19.994	103.139	20.121	14.746	0.504
1321.999	733.933	80.008	19.995	103.137	20.121	14.778	0.505
1323.999	734.959	80.006	19.994	103.149	20.124	14.550	0.502
1326.000	735.961	80.008	19.995	103.178	20.125	14.460	0.481
1327.999	736.941	80.007	19.994	103.139	20.125	14.456	0.466
1330.000	737.907	80.006	19.994	103.137	20.126	14.409	0.473
1332.000	738.984	80.007	19.994	103.155	20.122	14.671	0.519
1333.999	739.967	80.006	19.995	103.173	20.121	14.790	0.519
1336.000	740.980	80.007	19.995	103.147	20.123	14.602	0.507
1337.999	741.987	80.006	19.994	103.161	20.122	14.652	0.504
1339.999	742.987	80.005	19.995	103.176	20.119	14.920	0.501
1341.499	743.785	80.005	19.995	103.176	20.122	14.647	0.511