File: 01_Data/CPVC_Pipe/MCC/CPVC_Pipe_MCC_30K_min_211119_R3.txt
Sample ID:	C:\MCC\MCC Cal\Test\CPVC_Pipe_MCC_30K_min_211119_R3.txt
Sample Weight (mg):	4.3
Heating Rate (C/s):	0.5
Combustor Temp (C):	900
N2 Flow Rate (cc/min):	80
O2 Flow Rate (cc/min):	20
Calibration File:	C:\MCC\MCC Cal\Coeff1 JN10440_30_210304.txt.txt
T Correction Coefficients:	0	1.024463	0
Time Shift (s):	14
*
Time (s)	Temperature (C)	N2 flow rate (cc/min)	O2 flow rate (cc/min)	Flow Rate (cc/min)	Oxygen (%)	HRR (W/g)	Heating rate (C/s)
-0.001	107.319	80.007	19.992	103.035	20.233	0.087	-0.031
2.000	107.345	80.008	19.994	103.050	20.229	0.357	-0.009
3.999	107.316	80.007	19.995	103.046	20.234	0.006	-0.023
6.000	107.332	80.004	19.995	103.049	20.234	-0.039	0.006
7.999	107.373	80.006	19.995	103.043	20.232	0.142	-0.008
9.999	107.337	80.006	19.994	103.036	20.231	0.234	-0.017
11.999	107.341	80.006	19.995	103.053	20.230	0.313	-0.026
13.999	107.344	80.005	19.996	103.077	20.230	0.254	-0.006
15.999	107.355	80.006	19.993	103.107	20.228	0.459	0.001
17.999	107.406	80.005	19.994	103.079	20.225	0.634	-0.003
19.999	107.437	80.005	19.993	103.108	20.219	1.104	0.035
21.999	107.495	80.006	19.996	103.102	20.222	0.862	0.037
23.999	107.541	80.005	19.996	103.115	20.221	0.966	0.048
25.999	107.585	80.007	19.994	103.138	20.215	1.377	0.037
27.999	107.713	80.005	19.995	103.169	20.212	1.649	0.067
29.999	107.799	80.005	19.993	103.181	20.208	1.962	0.051
32.000	107.971	80.005	19.996	103.192	20.206	2.088	0.058
33.999	108.118	80.004	19.994	103.213	20.199	2.591	0.101
35.999	108.345	80.004	19.997	103.232	20.199	2.607	0.107
37.999	108.576	80.003	19.994	103.251	20.199	2.576	0.127
39.999	108.849	80.006	19.993	103.243	20.196	2.794	0.139
41.999	109.128	80.004	19.997	103.248	20.192	3.106	0.149
43.999	109.448	80.004	19.995	103.252	20.194	2.976	0.150
46.001	109.782	80.005	19.994	103.259	20.189	3.344	0.189
47.999	110.157	80.006	19.996	103.251	20.188	3.403	0.210
50.000	110.567	80.007	19.996	103.254	20.185	3.640	0.233
51.999	110.966	80.006	19.995	103.262	20.185	3.638	0.208
53.999	111.429	80.007	19.994	103.280	20.182	3.841	0.234
55.999	111.865	80.007	19.994	103.287	20.182	3.913	0.237
57.999	112.381	80.005	19.996	103.288	20.182	3.866	0.234
59.999	112.889	80.005	19.996	103.289	20.179	4.074	0.274
61.999	113.463	80.005	19.995	103.300	20.178	4.177	0.265
63.999	114.022	80.005	19.994	103.291	20.176	4.291	0.265
65.999	114.605	80.004	19.996	103.309	20.178	4.199	0.324
67.999	115.194	80.006	19.995	103.315	20.177	4.216	0.294
69.999	115.838	80.005	19.995	103.316	20.176	4.364	0.301
71.999	116.548	80.007	19.995	103.316	20.180	4.032	0.374
73.999	117.205	80.005	19.993	103.314	20.180	4.044	0.324
76.000	117.874	80.006	19.994	103.309	20.180	4.010	0.315
77.999	118.577	80.007	19.991	103.308	20.181	3.953	0.342
80.000	119.334	80.006	19.995	103.302	20.181	3.920	0.366
82.000	120.075	80.006	19.991	103.314	20.180	4.036	0.412
83.999	120.780	80.007	19.991	103.292	20.180	4.040	0.376
85.999	121.611	80.004	19.994	103.305	20.180	4.014	0.403
87.999	122.377	80.006	19.993	103.297	20.177	4.269	0.422
89.999	123.120	80.003	19.994	103.291	20.176	4.332	0.366
91.999	123.925	80.003	19.994	103.298	20.177	4.228	0.390
94.000	124.730	80.005	19.994	103.294	20.178	4.209	0.402
95.999	125.574	80.004	19.996	103.296	20.175	4.380	0.410
97.999	126.404	80.005	19.996	103.306	20.177	4.222	0.405
99.999	127.190	80.007	19.995	103.303	20.176	4.313	0.429
101.999	128.031	80.005	19.994	103.298	20.178	4.209	0.402
104.000	128.894	80.005	19.993	103.298	20.177	4.283	0.436
105.999	129.753	80.004	19.994	103.298	20.175	4.381	0.431
107.999	130.645	80.007	19.994	103.302	20.176	4.296	0.453
110.000	131.456	80.005	19.995	103.295	20.177	4.277	0.410
111.999	132.290	80.005	19.994	103.302	20.176	4.318	0.403
113.999	133.191	80.003	19.992	103.303	20.177	4.283	0.438
115.999	134.093	80.006	19.994	103.320	20.179	4.079	0.451
117.999	135.014	80.006	19.995	103.320	20.177	4.271	0.432
119.999	135.914	80.005	19.991	103.313	20.174	4.444	0.445
121.999	136.826	80.005	19.994	103.305	20.175	4.424	0.448
124.000	137.770	80.005	19.994	103.314	20.174	4.494	0.516
125.999	138.668	80.004	19.994	103.306	20.177	4.240	0.453
127.999	139.603	80.007	19.995	103.311	20.173	4.537	0.441
130.000	140.580	80.006	19.996	103.321	20.176	4.354	0.481
132.000	141.543	80.006	19.995	103.320	20.176	4.311	0.520
134.000	142.510	80.006	19.996	103.310	20.173	4.543	0.521
136.000	143.451	80.008	19.994	103.299	20.174	4.507	0.471
138.000	144.404	80.007	19.994	103.311	20.177	4.282	0.487
140.000	145.436	80.007	19.995	103.292	20.174	4.463	0.502
142.000	146.384	80.006	19.996	103.297	20.175	4.433	0.462
144.000	147.334	80.007	19.992	103.297	20.172	4.636	0.511
146.000	148.334	80.007	19.993	103.300	20.175	4.384	0.480
148.000	149.274	80.005	19.994	103.305	20.174	4.449	0.491
150.000	150.319	80.001	19.995	103.292	20.174	4.465	0.489
152.000	151.314	80.006	19.995	103.292	20.172	4.602	0.503
154.000	152.308	80.007	19.994	103.290	20.175	4.414	0.512
156.000	153.323	80.006	19.996	103.291	20.176	4.315	0.508
158.000	154.298	80.007	19.996	103.291	20.174	4.465	0.499
160.000	155.261	80.008	19.993	103.290	20.172	4.634	0.497
162.000	156.263	80.007	19.993	103.290	20.175	4.424	0.496
164.000	157.258	80.006	19.995	103.289	20.174	4.489	0.488
166.000	158.283	80.006	19.995	103.287	20.175	4.420	0.483
168.000	159.243	80.007	19.993	103.289	20.174	4.508	0.504
170.000	160.265	80.005	19.994	103.276	20.174	4.446	0.493
172.000	161.278	80.005	19.994	103.286	20.171	4.725	0.495
174.000	162.274	80.007	19.994	103.280	20.172	4.623	0.519
176.000	163.288	80.006	19.994	103.287	20.170	4.757	0.490
178.000	164.262	80.006	19.994	103.290	20.171	4.668	0.531
180.000	165.308	80.006	19.995	103.269	20.174	4.499	0.533
182.000	166.329	80.005	19.994	103.272	20.174	4.511	0.532
184.000	167.319	80.007	19.994	103.281	20.171	4.696	0.500
186.000	168.276	80.004	19.996	103.264	20.172	4.602	0.458
188.000	169.305	80.004	19.994	103.263	20.176	4.352	0.531
190.001	170.288	80.005	19.994	103.266	20.173	4.568	0.514
192.000	171.267	80.007	19.995	103.266	20.173	4.578	0.483
194.000	172.272	80.007	19.995	103.274	20.172	4.629	0.467
196.000	173.227	80.006	19.994	103.263	20.176	4.324	0.468
198.000	174.275	80.005	19.994	103.261	20.176	4.289	0.498
200.000	175.242	80.005	19.994	103.262	20.178	4.155	0.478
202.000	176.205	80.006	19.995	103.259	20.173	4.576	0.486
204.000	177.251	80.008	19.995	103.254	20.172	4.615	0.515
206.000	178.207	80.004	19.994	103.260	20.169	4.846	0.502
208.000	179.220	80.004	19.994	103.259	20.170	4.810	0.493
210.000	180.240	80.006	19.994	103.259	20.171	4.688	0.515
212.000	181.254	80.005	19.994	103.258	20.173	4.570	0.514
214.000	182.242	80.005	19.997	103.260	20.170	4.771	0.518
216.000	183.213	80.004	19.995	103.262	20.174	4.511	0.468
218.000	184.175	80.009	19.994	103.256	20.172	4.621	0.509
220.000	185.099	80.006	19.994	103.256	20.170	4.808	0.491
222.000	186.150	80.007	19.995	103.256	20.170	4.753	0.521
224.000	187.121	80.006	19.994	103.261	20.169	4.826	0.485
226.000	188.141	80.006	19.994	103.258	20.170	4.785	0.483
228.000	189.068	80.005	19.995	103.256	20.174	4.500	0.484
230.000	190.125	80.005	19.994	103.263	20.174	4.480	0.523
232.000	191.066	80.006	19.995	103.258	20.170	4.783	0.477
234.000	192.072	80.007	19.995	103.255	20.171	4.712	0.452
236.000	192.996	80.007	19.994	103.254	20.168	4.907	0.471
238.000	194.045	80.007	19.994	103.254	20.167	4.990	0.514
240.000	195.031	80.008	19.994	103.252	20.170	4.762	0.495
242.000	196.015	80.009	19.995	103.250	20.171	4.722	0.473
244.000	196.956	80.009	19.994	103.251	20.170	4.801	0.461
246.000	197.901	80.008	19.994	103.251	20.169	4.836	0.465
248.000	198.866	80.007	19.994	103.251	20.166	5.055	0.466
250.000	199.858	80.005	19.995	103.248	20.165	5.167	0.489
252.000	200.827	80.004	19.995	103.249	20.166	5.039	0.501
254.000	201.819	80.006	19.996	103.245	20.165	5.126	0.502
256.000	202.823	80.005	19.996	103.241	20.165	5.112	0.485
258.000	203.768	80.005	19.995	103.249	20.163	5.312	0.487
260.000	204.789	80.007	19.995	103.250	20.167	5.008	0.511
262.000	205.726	80.005	19.994	103.249	20.166	5.106	0.508
264.000	206.696	80.004	19.993	103.250	20.162	5.356	0.474
266.000	207.691	80.006	19.994	103.244	20.159	5.621	0.501
268.000	208.627	80.005	19.992	103.246	20.158	5.638	0.471
270.000	209.644	80.006	19.994	103.250	20.163	5.331	0.455
272.000	210.616	80.006	19.993	103.246	20.161	5.456	0.493
274.000	211.618	80.006	19.994	103.247	20.160	5.551	0.510
276.000	212.628	80.005	19.994	103.252	20.161	5.417	0.499
278.000	213.573	80.005	19.994	103.244	20.160	5.525	0.480
280.000	214.533	80.006	19.994	103.234	20.160	5.531	0.492
282.000	215.491	80.006	19.993	103.238	20.158	5.667	0.496
284.000	216.515	80.004	19.995	103.250	20.157	5.726	0.527
286.000	217.520	80.003	19.993	103.243	20.155	5.887	0.528
288.000	218.469	80.004	19.994	103.247	20.154	5.982	0.477
290.000	219.488	80.004	19.995	103.243	20.153	6.082	0.521
292.000	220.455	80.005	19.994	103.239	20.154	6.001	0.488
294.000	221.419	80.006	19.993	103.250	20.150	6.251	0.519
296.000	222.423	80.008	19.995	103.247	20.152	6.094	0.518
298.000	223.442	80.007	19.994	103.239	20.149	6.368	0.491
300.000	224.362	80.007	19.992	103.245	20.145	6.622	0.465
302.000	225.410	80.008	19.994	103.237	20.144	6.691	0.514
304.000	226.403	80.006	19.993	103.251	20.143	6.830	0.482
306.000	227.372	80.005	19.994	103.244	20.136	7.297	0.508
308.000	228.390	80.005	19.993	103.240	20.139	7.080	0.501
310.000	229.456	80.007	19.994	103.238	20.137	7.274	0.513
312.000	230.437	80.008	19.995	103.225	20.133	7.551	0.516
314.000	231.451	80.005	19.995	103.244	20.133	7.515	0.518
316.000	232.441	80.005	19.995	103.240	20.133	7.515	0.483
318.000	233.429	80.007	19.995	103.235	20.128	7.949	0.475
320.000	234.472	80.007	19.995	103.225	20.126	8.069	0.534
322.000	235.452	80.009	19.995	103.224	20.123	8.309	0.509
324.000	236.449	80.007	19.995	103.237	20.124	8.182	0.511
326.000	237.465	80.009	19.994	103.229	20.123	8.294	0.524
328.000	238.444	80.009	19.994	103.229	20.118	8.646	0.486
330.000	239.458	80.007	19.995	103.218	20.117	8.732	0.516
332.000	240.444	80.008	19.995	103.224	20.114	8.967	0.486
334.000	241.441	80.005	19.996	103.224	20.113	9.077	0.530
336.000	242.457	80.006	19.996	103.216	20.115	8.887	0.500
338.000	243.458	80.003	19.994	103.214	20.114	8.975	0.507
340.000	244.486	80.006	19.995	103.219	20.116	8.853	0.524
342.000	245.401	80.005	19.994	103.221	20.122	8.392	0.472
344.000	246.373	80.005	19.995	103.215	20.126	8.104	0.464
346.000	247.392	80.004	19.994	103.233	20.131	7.678	0.493
348.000	248.337	80.005	19.996	103.233	20.135	7.424	0.461
350.000	249.349	80.004	19.996	103.243	20.132	7.609	0.500
352.000	250.398	80.006	19.995	103.247	20.139	7.087	0.490
354.000	251.417	80.004	19.996	103.235	20.142	6.885	0.544
356.000	252.359	80.006	19.994	103.233	20.144	6.733	0.473
358.000	253.408	80.006	19.993	103.253	20.142	6.883	0.509
360.000	254.376	80.004	19.994	103.249	20.146	6.586	0.487
362.000	255.373	80.006	19.995	103.246	20.147	6.481	0.467
364.000	256.403	80.006	19.994	103.249	20.146	6.591	0.492
366.000	257.433	80.004	19.994	103.243	20.149	6.332	0.515
368.000	258.408	80.006	19.994	103.249	20.146	6.588	0.478
370.000	259.435	80.004	19.994	103.241	20.149	6.334	0.531
372.000	260.368	80.006	19.994	103.250	20.146	6.538	0.478
374.000	261.431	80.006	19.993	103.250	20.152	6.156	0.550
376.000	262.381	80.005	19.994	103.250	20.152	6.104	0.475
378.000	263.410	80.006	19.994	103.247	20.150	6.269	0.494
380.000	264.435	80.006	19.994	103.239	20.153	6.017	0.535
382.000	265.405	80.007	19.995	103.240	20.153	6.068	0.491
384.000	266.430	80.007	19.993	103.250	20.153	6.084	0.502
386.000	267.444	80.006	19.994	103.249	20.152	6.139	0.528
388.000	268.445	80.006	19.994	103.249	20.151	6.181	0.468
390.000	269.413	80.007	19.993	103.249	20.151	6.198	0.488
392.000	270.484	80.007	19.995	103.251	20.148	6.438	0.515
394.000	271.496	80.005	19.994	103.245	20.149	6.341	0.504
396.000	272.511	80.007	19.994	103.249	20.150	6.250	0.484
398.000	273.471	80.006	19.994	103.260	20.147	6.507	0.482
400.000	274.493	80.007	19.994	103.261	20.149	6.356	0.478
402.000	275.483	80.006	19.994	103.253	20.149	6.336	0.489
404.000	276.509	80.008	19.994	103.254	20.148	6.420	0.506
406.000	277.496	80.008	19.993	103.258	20.147	6.532	0.490
408.000	278.490	80.009	19.995	103.267	20.142	6.846	0.500
410.000	279.518	80.007	19.994	103.275	20.142	6.860	0.498
412.000	280.518	80.008	19.994	103.272	20.140	7.009	0.526
414.000	281.527	80.007	19.994	103.286	20.138	7.176	0.510
416.000	282.546	80.006	19.995	103.282	20.136	7.314	0.510
418.000	283.547	80.004	19.995	103.289	20.133	7.579	0.538
420.000	284.502	80.004	19.995	103.294	20.132	7.608	0.493
422.000	285.467	80.005	19.994	103.294	20.131	7.686	0.477
424.000	286.523	80.005	19.994	103.299	20.130	7.754	0.491
426.000	287.526	80.005	19.994	103.297	20.126	8.104	0.514
428.000	288.522	80.005	19.994	103.302	20.125	8.161	0.486
430.000	289.510	80.005	19.994	103.308	20.125	8.133	0.502
432.000	290.502	80.006	19.995	103.323	20.118	8.703	0.504
434.000	291.544	80.006	19.995	103.327	20.116	8.864	0.508
436.000	292.505	80.005	19.995	103.326	20.110	9.271	0.508
438.000	293.526	80.005	19.996	103.329	20.108	9.451	0.499
440.000	294.509	80.005	19.995	103.331	20.104	9.725	0.486
442.000	295.535	80.005	19.995	103.346	20.101	9.927	0.495
444.000	296.567	80.004	19.994	103.337	20.096	10.341	0.525
446.000	297.529	80.005	19.995	103.339	20.094	10.508	0.484
448.000	298.544	80.005	19.994	103.343	20.090	10.745	0.507
450.000	299.496	80.003	19.995	103.362	20.087	10.989	0.482
452.000	300.475	80.005	19.995	103.363	20.083	11.286	0.505
454.000	301.469	80.005	19.994	103.367	20.079	11.614	0.472
456.000	302.455	80.005	19.994	103.376	20.076	11.845	0.480
458.000	303.420	80.005	19.994	103.374	20.071	12.210	0.470
460.000	304.421	80.006	19.994	103.400	20.068	12.401	0.473
462.000	305.355	80.007	19.994	103.387	20.065	12.672	0.482
464.000	306.415	80.007	19.995	103.391	20.062	12.873	0.512
466.000	307.388	80.006	19.994	103.407	20.057	13.283	0.493
468.000	308.371	80.006	19.994	103.405	20.053	13.584	0.509
470.000	309.315	80.006	19.994	103.408	20.049	13.874	0.504
472.000	310.333	80.006	19.994	103.408	20.047	14.042	0.501
474.000	311.276	80.006	19.994	103.413	20.041	14.423	0.502
476.000	312.302	80.007	19.994	103.414	20.038	14.686	0.495
478.000	313.314	80.006	19.994	103.409	20.036	14.847	0.503
480.000	314.298	80.005	19.994	103.406	20.033	15.016	0.494
482.000	315.352	80.006	19.994	103.383	20.032	15.123	0.522
484.000	316.347	80.007	19.994	103.371	20.031	15.161	0.504
486.000	317.347	80.008	19.994	103.362	20.029	15.314	0.516
488.000	318.357	80.008	19.992	103.365	20.028	15.367	0.465
490.000	319.399	80.008	19.993	103.329	20.032	15.087	0.522
492.000	320.442	80.009	19.993	103.297	20.032	15.065	0.523
494.000	321.506	80.008	19.993	103.261	20.033	14.980	0.524
496.000	322.493	80.006	19.993	103.225	20.040	14.498	0.486
498.000	323.576	80.007	19.994	103.181	20.046	14.032	0.565
500.000	324.608	80.006	19.995	103.125	20.050	13.702	0.505
502.000	325.694	80.004	19.996	103.076	20.049	13.852	0.540
504.000	326.770	80.005	19.994	103.031	20.055	13.358	0.542
506.000	327.816	80.005	19.996	103.019	20.063	12.763	0.553
508.000	328.858	80.005	19.994	103.015	20.061	12.955	0.517
510.000	329.929	80.005	19.995	103.034	20.060	13.002	0.542
512.000	331.016	80.006	19.995	103.069	20.059	13.123	0.532
514.000	332.057	80.005	19.996	103.105	20.055	13.400	0.506
516.000	333.109	80.006	19.995	103.142	20.051	13.716	0.503
518.000	334.201	80.006	19.995	103.168	20.048	13.905	0.545
520.000	335.268	80.006	19.995	103.201	20.042	14.378	0.520
522.000	336.320	80.006	19.994	103.227	20.040	14.535	0.518
524.000	337.404	80.007	19.994	103.253	20.037	14.769	0.529
526.000	338.460	80.007	19.994	103.274	20.037	14.743	0.533
528.000	339.531	80.006	19.994	103.310	20.035	14.904	0.523
530.000	340.602	80.004	19.996	103.342	20.037	14.758	0.532
532.000	341.636	80.004	19.996	103.372	20.038	14.715	0.540
534.000	342.708	80.004	19.996	103.378	20.040	14.563	0.497
536.000	343.755	80.004	19.996	103.393	20.041	14.463	0.544
538.000	344.797	80.004	19.995	103.410	20.047	13.994	0.533
540.000	345.820	80.005	19.995	103.412	20.044	14.255	0.506
542.000	346.876	80.006	19.995	103.411	20.050	13.819	0.538
544.000	347.902	80.006	19.995	103.420	20.052	13.671	0.520
546.000	348.961	80.007	19.994	103.433	20.052	13.615	0.524
548.000	349.990	80.007	19.994	103.428	20.058	13.155	0.520
550.000	351.041	80.007	19.994	103.436	20.058	13.160	0.512
552.000	352.125	80.006	19.993	103.438	20.065	12.625	0.521
554.000	353.126	80.004	19.993	103.430	20.067	12.479	0.515
556.000	354.210	80.006	19.993	103.433	20.069	12.352	0.523
558.000	355.224	80.005	19.994	103.417	20.071	12.234	0.565
560.000	356.283	80.005	19.995	103.413	20.072	12.107	0.538
562.000	357.282	80.006	19.994	103.425	20.080	11.530	0.530
564.000	358.340	80.006	19.995	103.411	20.084	11.206	0.551
566.000	359.370	80.006	19.995	103.406	20.080	11.564	0.500
568.000	360.405	80.008	19.994	103.408	20.085	11.179	0.522
570.000	361.400	80.007	19.993	103.408	20.087	10.992	0.495
572.000	362.470	80.007	19.993	103.396	20.080	11.519	0.524
574.000	363.451	80.008	19.995	103.402	20.083	11.330	0.469
576.000	364.468	80.009	19.994	103.391	20.095	10.438	0.477
578.000	365.470	80.009	19.994	103.392	20.088	10.942	0.523
580.000	366.482	80.008	19.994	103.380	20.095	10.436	0.432
582.000	367.467	80.006	19.993	103.371	20.093	10.546	0.437
584.000	368.720	80.007	19.996	103.373	20.094	10.460	0.631
586.000	369.547	80.006	19.993	103.371	20.096	10.354	0.399
588.000	370.245	80.006	19.993	103.376	20.098	10.193	0.066
590.000	371.757	80.007	19.993	103.374	20.099	10.133	0.443
592.000	372.547	80.006	19.994	103.365	20.095	10.395	0.635
594.000	373.684	80.005	19.994	103.365	20.099	10.109	0.536
596.000	374.586	80.006	19.995	103.367	20.099	10.139	0.481
598.000	375.661	80.005	19.995	103.363	20.099	10.107	0.554
600.000	376.593	80.005	19.995	103.355	20.096	10.292	0.479
602.000	377.632	80.005	19.994	103.358	20.099	10.086	0.518
604.000	378.636	80.005	19.995	103.353	20.101	9.957	0.520
606.000	379.605	80.005	19.994	103.355	20.096	10.325	0.533
608.000	380.595	80.005	19.995	103.352	20.100	10.003	0.530
610.000	381.595	80.005	19.994	103.339	20.100	10.048	0.481
612.000	382.576	80.004	19.994	103.344	20.100	10.013	0.485
614.000	383.550	80.006	19.994	103.342	20.100	10.017	0.456
616.000	384.581	80.004	19.994	103.339	20.104	9.724	0.526
618.000	385.511	80.003	19.995	103.336	20.098	10.184	0.476
620.000	386.477	80.004	19.994	103.336	20.102	9.908	0.462
622.000	387.498	80.005	19.995	103.332	20.101	9.914	0.469
624.000	388.524	80.005	19.995	103.333	20.102	9.870	0.489
626.000	389.493	80.006	19.995	103.332	20.101	9.945	0.480
628.000	390.474	80.007	19.995	103.334	20.101	9.932	0.503
630.000	391.478	80.006	19.995	103.324	20.102	9.908	0.489
632.000	392.464	80.006	19.995	103.322	20.101	9.927	0.528
634.000	393.425	80.006	19.996	103.323	20.101	9.983	0.505
636.000	394.466	80.006	19.995	103.322	20.101	9.934	0.530
638.000	395.475	80.006	19.995	103.320	20.103	9.829	0.502
640.000	396.505	80.006	19.995	103.321	20.102	9.895	0.512
642.000	397.508	80.005	19.994	103.327	20.104	9.736	0.494
644.001	398.501	80.006	19.994	103.326	20.104	9.704	0.508
646.000	399.481	80.006	19.994	103.318	20.103	9.810	0.515
648.000	400.501	80.007	19.994	103.318	20.102	9.846	0.511
650.000	401.509	80.006	19.994	103.318	20.101	9.957	0.496
652.000	402.526	80.009	19.994	103.308	20.107	9.534	0.496
654.000	403.518	80.007	19.994	103.314	20.105	9.670	0.503
656.000	404.478	80.010	19.994	103.312	20.105	9.665	0.479
658.000	405.534	80.007	19.993	103.319	20.103	9.835	0.509
660.000	406.502	80.008	19.994	103.302	20.105	9.681	0.486
662.000	407.530	80.006	19.994	103.304	20.103	9.773	0.508
664.000	408.538	80.005	19.993	103.295	20.103	9.816	0.467
666.000	409.533	80.005	19.995	103.293	20.102	9.873	0.493
668.000	410.597	80.007	19.994	103.297	20.110	9.273	0.513
670.000	411.558	80.005	19.994	103.295	20.105	9.661	0.507
672.000	412.588	80.004	19.994	103.292	20.102	9.905	0.525
674.000	413.599	80.005	19.994	103.292	20.106	9.586	0.504
676.000	414.564	80.006	19.993	103.292	20.103	9.764	0.508
678.000	415.564	80.005	19.994	103.292	20.104	9.730	0.520
680.000	416.573	80.005	19.993	103.288	20.102	9.862	0.496
682.000	417.613	80.005	19.994	103.291	20.102	9.856	0.505
684.000	418.634	80.004	19.993	103.303	20.098	10.208	0.516
686.000	419.624	80.006	19.994	103.282	20.098	10.206	0.495
688.000	420.660	80.005	19.994	103.290	20.099	10.092	0.532
690.000	421.672	80.005	19.993	103.292	20.094	10.443	0.497
692.000	422.648	80.006	19.994	103.286	20.095	10.392	0.461
694.000	423.697	80.005	19.995	103.289	20.093	10.579	0.513
696.000	424.707	80.005	19.994	103.279	20.095	10.386	0.509
698.000	425.738	80.005	19.995	103.277	20.095	10.421	0.510
700.000	426.743	80.005	19.995	103.281	20.094	10.494	0.543
702.000	427.770	80.005	19.996	103.278	20.092	10.656	0.499
704.000	428.802	80.004	19.995	103.281	20.089	10.809	0.543
706.000	429.814	80.006	19.994	103.274	20.089	10.833	0.523
708.000	430.846	80.006	19.994	103.285	20.088	10.919	0.543
710.000	431.859	80.007	19.994	103.271	20.085	11.111	0.490
712.000	432.928	80.008	19.995	103.264	20.085	11.154	0.536
714.000	433.958	80.008	19.995	103.268	20.086	11.069	0.538
716.000	435.013	80.006	19.995	103.255	20.083	11.329	0.528
718.000	436.037	80.007	19.995	103.256	20.081	11.473	0.514
720.000	437.060	80.006	19.997	103.256	20.077	11.727	0.514
722.000	438.049	80.006	19.996	103.251	20.075	11.857	0.501
724.000	439.105	80.006	19.995	103.253	20.075	11.910	0.500
726.000	440.122	80.006	19.996	103.255	20.071	12.177	0.513
728.000	441.142	80.006	19.994	103.255	20.069	12.335	0.501
730.000	442.149	80.007	19.995	103.259	20.069	12.329	0.496
732.000	443.194	80.005	19.995	103.246	20.066	12.557	0.527
734.000	444.147	80.007	19.995	103.264	20.064	12.726	0.503
736.000	445.218	80.008	19.994	103.259	20.061	12.927	0.508
738.000	446.217	80.007	19.993	103.250	20.060	12.982	0.508
740.000	447.206	80.007	19.994	103.250	20.056	13.338	0.507
742.000	448.265	80.007	19.992	103.249	20.049	13.832	0.540
744.000	449.309	80.008	19.994	103.250	20.050	13.728	0.526
746.000	450.251	80.007	19.993	103.251	20.044	14.197	0.471
748.000	451.277	80.005	19.994	103.249	20.044	14.228	0.496
750.000	452.284	80.005	19.994	103.251	20.041	14.454	0.492
752.000	453.311	80.005	19.994	103.253	20.040	14.548	0.487
754.000	454.316	80.006	19.995	103.246	20.035	14.901	0.507
756.000	455.317	80.005	19.994	103.252	20.033	15.004	0.495
758.000	456.321	80.005	19.994	103.252	20.031	15.151	0.498
760.000	457.314	80.006	19.994	103.249	20.029	15.373	0.515
762.000	458.371	80.005	19.994	103.248	20.026	15.526	0.532
764.000	459.372	80.006	19.994	103.248	20.024	15.684	0.518
766.000	460.372	80.005	19.995	103.240	20.023	15.794	0.491
768.000	461.393	80.006	19.994	103.245	20.025	15.600	0.500
770.000	462.364	80.006	19.994	103.247	20.022	15.895	0.471
772.000	463.392	80.006	19.993	103.249	20.026	15.540	0.487
774.000	464.369	80.005	19.993	103.247	20.025	15.644	0.486
776.000	465.410	80.005	19.994	103.246	20.021	15.913	0.535
778.000	466.375	80.006	19.992	103.247	20.025	15.619	0.495
780.000	467.396	80.006	19.994	103.238	20.024	15.728	0.532
782.000	468.391	80.006	19.993	103.226	20.023	15.784	0.515
784.000	469.428	80.005	19.994	103.243	20.027	15.514	0.522
786.000	470.435	80.006	19.995	103.249	20.027	15.457	0.517
788.000	471.425	80.005	19.995	103.234	20.027	15.466	0.490
790.000	472.467	80.006	19.995	103.245	20.032	15.133	0.535
792.000	473.521	80.006	19.995	103.228	20.031	15.209	0.524
794.000	474.516	80.007	19.994	103.233	20.032	15.101	0.510
796.000	475.553	80.008	19.995	103.237	20.035	14.870	0.529
798.000	476.613	80.007	19.994	103.232	20.035	14.850	0.523
800.000	477.609	80.006	19.993	103.227	20.038	14.629	0.515
802.000	478.640	80.006	19.995	103.236	20.038	14.650	0.511
804.000	479.649	80.006	19.994	103.229	20.040	14.481	0.497
806.000	480.695	80.006	19.995	103.223	20.044	14.224	0.510
808.000	481.684	80.005	19.994	103.214	20.049	13.820	0.511
810.000	482.706	80.006	19.994	103.217	20.051	13.711	0.506
812.000	483.717	80.006	19.994	103.217	20.054	13.437	0.497
814.000	484.752	80.006	19.995	103.232	20.059	13.113	0.527
816.000	485.770	80.006	19.996	103.236	20.065	12.656	0.520
818.000	486.767	80.006	19.995	103.223	20.065	12.602	0.519
820.000	487.795	80.007	19.995	103.218	20.068	12.390	0.508
822.000	488.880	80.007	19.994	103.215	20.072	12.102	0.543
824.000	489.896	80.007	19.995	103.221	20.073	12.015	0.521
826.000	490.931	80.006	19.994	103.218	20.076	11.779	0.514
828.000	491.892	80.006	19.997	103.215	20.078	11.690	0.484
830.000	492.972	80.004	19.995	103.212	20.081	11.403	0.514
832.000	493.980	80.004	19.993	103.213	20.082	11.366	0.510
834.000	495.026	80.006	19.995	103.227	20.088	10.900	0.504
836.000	496.065	80.003	19.993	103.211	20.090	10.764	0.516
838.000	497.102	80.005	19.994	103.222	20.090	10.736	0.560
840.000	498.095	80.005	19.993	103.225	20.092	10.607	0.503
842.000	499.124	80.004	19.994	103.219	20.094	10.475	0.503
844.000	500.124	80.006	19.993	103.217	20.100	9.979	0.504
846.000	501.183	80.005	19.994	103.214	20.096	10.327	0.532
848.000	502.188	80.006	19.994	103.222	20.101	9.943	0.495
850.000	503.238	80.005	19.994	103.216	20.106	9.593	0.495
852.000	504.270	80.006	19.993	103.212	20.104	9.687	0.500
854.000	505.282	80.006	19.994	103.217	20.108	9.440	0.506
856.000	506.304	80.005	19.994	103.213	20.108	9.451	0.508
858.000	507.369	80.006	19.994	103.214	20.108	9.450	0.510
860.000	508.355	80.005	19.994	103.215	20.111	9.212	0.503
862.000	509.418	80.006	19.994	103.215	20.113	9.040	0.522
864.000	510.468	80.006	19.994	103.216	20.110	9.247	0.527
866.000	511.520	80.006	19.993	103.214	20.110	9.263	0.529
868.000	512.506	80.006	19.994	103.213	20.113	9.007	0.515
870.000	513.534	80.005	19.993	103.213	20.113	9.032	0.521
872.000	514.570	80.007	19.994	103.211	20.114	8.958	0.539
874.000	515.613	80.007	19.995	103.212	20.112	9.151	0.493
876.000	516.656	80.007	19.995	103.213	20.118	8.659	0.514
878.000	517.706	80.006	19.993	103.213	20.116	8.790	0.517
880.000	518.710	80.006	19.994	103.212	20.114	8.933	0.508
882.000	519.745	80.006	19.993	103.212	20.119	8.570	0.507
884.000	520.792	80.007	19.995	103.209	20.115	8.867	0.482
886.000	521.828	80.006	19.995	103.211	20.115	8.857	0.518
888.000	522.851	80.007	19.993	103.211	20.116	8.826	0.520
890.000	523.898	80.006	19.995	103.206	20.120	8.543	0.507
892.000	524.938	80.007	19.995	103.209	20.118	8.653	0.524
894.000	525.967	80.008	19.994	103.208	20.117	8.732	0.508
896.000	526.949	80.007	19.994	103.210	20.119	8.626	0.495
898.000	528.010	80.007	19.994	103.209	20.122	8.360	0.563
900.000	529.032	80.007	19.995	103.207	20.123	8.301	0.517
902.000	530.035	80.008	19.993	103.208	20.121	8.466	0.507
904.000	531.055	80.007	19.993	103.206	20.118	8.675	0.500
906.000	532.078	80.008	19.994	103.206	20.124	8.216	0.510
908.000	533.131	80.007	19.995	103.198	20.121	8.454	0.519
910.000	534.113	80.006	19.995	103.206	20.122	8.394	0.510
912.000	535.174	80.006	19.994	103.206	20.125	8.116	0.537
914.000	536.221	80.006	19.995	103.207	20.120	8.520	0.526
916.000	537.204	80.006	19.995	103.197	20.125	8.176	0.479
918.000	538.220	80.005	19.994	103.205	20.121	8.425	0.492
920.000	539.283	80.007	19.994	103.204	20.123	8.287	0.515
922.000	540.252	80.005	19.994	103.201	20.120	8.521	0.465
924.000	541.268	80.005	19.995	103.207	20.122	8.387	0.490
926.000	542.299	80.006	19.994	103.198	20.121	8.417	0.496
928.000	543.306	80.006	19.994	103.194	20.126	8.041	0.496
930.000	544.291	80.004	19.994	103.204	20.123	8.295	0.498
932.000	545.323	80.006	19.994	103.212	20.121	8.414	0.512
934.000	546.317	80.005	19.995	103.212	20.124	8.202	0.501
936.000	547.311	80.007	19.994	103.208	20.123	8.264	0.514
938.000	548.356	80.005	19.993	103.210	20.118	8.646	0.502
940.000	549.340	80.006	19.994	103.208	20.124	8.245	0.508
942.000	550.325	80.006	19.994	103.208	20.121	8.427	0.487
944.000	551.363	80.004	19.994	103.211	20.122	8.348	0.515
946.000	552.361	80.004	19.994	103.201	20.122	8.379	0.501
948.000	553.383	80.005	19.994	103.193	20.128	7.923	0.503
950.000	554.380	80.005	19.994	103.199	20.125	8.105	0.519
952.000	555.399	80.004	19.994	103.212	20.125	8.106	0.512
954.000	556.387	80.006	19.994	103.200	20.121	8.423	0.485
956.000	557.363	80.007	19.994	103.206	20.125	8.138	0.511
958.000	558.394	80.008	19.993	103.207	20.130	7.741	0.490
960.000	559.435	80.006	19.993	103.202	20.130	7.770	0.523
962.000	560.449	80.008	19.993	103.195	20.129	7.875	0.515
964.000	561.484	80.007	19.994	103.205	20.129	7.841	0.519
966.000	562.480	80.009	19.993	103.196	20.134	7.479	0.506
968.000	563.470	80.005	19.993	103.186	20.132	7.611	0.524
970.000	564.472	80.006	19.992	103.188	20.129	7.822	0.535
972.000	565.493	80.007	19.995	103.189	20.130	7.733	0.513
974.000	566.485	80.008	19.994	103.194	20.128	7.906	0.507
976.000	567.478	80.006	19.994	103.188	20.131	7.663	0.486
978.000	568.501	80.007	19.994	103.191	20.136	7.313	0.489
980.000	569.495	80.007	19.995	103.186	20.130	7.746	0.495
982.000	570.517	80.008	19.995	103.180	20.129	7.826	0.510
984.000	571.493	80.008	19.994	103.180	20.127	7.978	0.460
986.000	572.540	80.008	19.995	103.173	20.130	7.785	0.528
988.000	573.579	80.008	19.994	103.171	20.130	7.783	0.494
990.000	574.616	80.007	19.994	103.171	20.129	7.836	0.527
992.000	575.657	80.006	19.996	103.173	20.129	7.834	0.533
994.000	576.658	80.006	19.995	103.177	20.133	7.522	0.470
996.000	577.665	80.005	19.994	103.178	20.133	7.533	0.478
998.000	578.652	80.006	19.995	103.179	20.131	7.686	0.485
1000.000	579.672	80.006	19.994	103.181	20.133	7.527	0.509
1002.000	580.642	80.004	19.995	103.179	20.131	7.671	0.482
1004.000	581.680	80.004	19.995	103.186	20.129	7.843	0.505
1006.000	582.693	80.005	19.995	103.185	20.134	7.452	0.486
1008.000	583.664	80.005	19.996	103.181	20.130	7.758	0.481
1010.000	584.698	80.005	19.996	103.178	20.131	7.673	0.500
1012.000	585.718	80.004	19.995	103.181	20.132	7.598	0.521
1014.000	586.725	80.004	19.995	103.183	20.136	7.319	0.502
1016.000	587.728	80.005	19.994	103.190	20.133	7.569	0.509
1018.000	588.681	80.005	19.993	103.177	20.130	7.753	0.467
1020.000	589.700	80.005	19.995	103.174	20.132	7.605	0.527
1022.000	590.718	80.006	19.994	103.174	20.135	7.413	0.489
1024.000	591.700	80.005	19.994	103.175	20.133	7.522	0.484
1025.999	592.726	80.006	19.994	103.173	20.132	7.642	0.496
1027.999	593.756	80.006	19.995	103.173	20.136	7.307	0.523
1029.999	594.757	80.005	19.994	103.186	20.132	7.588	0.473
1031.999	595.821	80.006	19.995	103.173	20.137	7.228	0.524
1033.999	596.816	80.005	19.994	103.171	20.130	7.738	0.532
1035.999	597.819	80.006	19.995	103.171	20.132	7.624	0.514
1037.999	598.802	80.007	19.995	103.170	20.130	7.740	0.485
1039.999	599.874	80.005	19.994	103.173	20.131	7.675	0.495
1041.999	600.886	80.006	19.993	103.171	20.134	7.468	0.547
1044.000	601.914	80.007	19.993	103.178	20.134	7.502	0.541
1045.999	602.886	80.006	19.994	103.172	20.136	7.327	0.505
1047.999	603.941	80.007	19.994	103.173	20.134	7.488	0.520
1049.999	604.929	80.007	19.994	103.170	20.137	7.252	0.500
1052.000	605.981	80.007	19.993	103.175	20.134	7.484	0.525
1053.999	606.993	80.007	19.993	103.177	20.136	7.295	0.506
1056.001	607.977	80.007	19.994	103.172	20.135	7.419	0.458
1057.999	609.013	80.006	19.995	103.173	20.135	7.398	0.519
1059.999	610.023	80.006	19.994	103.173	20.135	7.427	0.510
1061.999	611.003	80.007	19.993	103.176	20.138	7.193	0.517
1063.999	611.996	80.008	19.993	103.174	20.139	7.111	0.499
1065.999	612.967	80.006	19.994	103.173	20.137	7.260	0.503
1067.999	613.977	80.007	19.995	103.173	20.134	7.437	0.486
1069.999	614.963	80.008	19.995	103.172	20.133	7.575	0.467
1071.999	616.029	80.009	19.994	103.170	20.131	7.675	0.516
1073.999	617.018	80.006	19.994	103.182	20.137	7.271	0.472
1075.999	618.043	80.005	19.994	103.175	20.135	7.376	0.509
1078.000	619.076	80.005	19.995	103.174	20.132	7.599	0.545
1080.000	620.081	80.007	19.995	103.174	20.136	7.354	0.494
1081.999	621.242	80.005	19.993	103.175	20.142	6.854	0.587
1084.000	622.199	80.005	19.993	103.178	20.138	7.191	0.501
1085.999	623.229	80.006	19.994	103.180	20.140	6.992	0.515
1087.999	624.277	80.008	19.995	103.171	20.138	7.136	0.507
1090.000	625.313	80.006	19.994	103.171	20.140	6.994	0.517
1092.000	626.329	80.004	19.993	103.172	20.137	7.264	0.498
1094.000	627.356	80.006	19.994	103.171	20.141	6.936	0.529
1095.999	628.403	80.006	19.995	103.171	20.144	6.742	0.530
1098.000	629.397	80.006	19.994	103.170	20.142	6.888	0.481
1099.999	630.438	80.004	19.996	103.171	20.141	6.956	0.532
1101.999	631.425	80.006	19.995	103.170	20.140	6.996	0.480
1103.999	632.481	80.005	19.995	103.177	20.138	7.195	0.506
1105.999	633.505	80.004	19.995	103.174	20.145	6.673	0.532
1108.000	634.532	80.005	19.995	103.170	20.141	6.907	0.510
1109.999	635.565	80.004	19.995	103.173	20.145	6.677	0.557
1111.999	636.615	80.004	19.995	103.172	20.143	6.781	0.530
1114.000	637.514	80.005	19.995	103.173	20.140	6.994	0.465
1115.999	638.539	80.002	19.994	103.175	20.142	6.848	0.522
1117.999	639.565	80.007	19.994	103.172	20.143	6.813	0.530
1119.999	640.579	80.006	19.994	103.171	20.149	6.314	0.505
1121.999	641.578	80.006	19.994	103.176	20.142	6.840	0.521
1123.999	642.581	80.007	19.994	103.172	20.146	6.549	0.495
1126.000	643.589	80.007	19.994	103.168	20.146	6.541	0.540
1127.999	644.632	80.008	19.992	103.168	20.148	6.383	0.533
1129.999	645.601	80.008	19.993	103.175	20.144	6.700	0.496
1132.000	646.640	80.004	19.994	103.173	20.147	6.474	0.519
1133.999	647.639	80.007	19.995	103.176	20.146	6.531	0.488
1135.999	648.661	80.006	19.994	103.173	20.145	6.679	0.491
1138.000	649.722	80.008	19.995	103.173	20.146	6.576	0.545
1140.000	650.717	80.007	19.994	103.175	20.145	6.628	0.494
1142.000	651.774	80.007	19.994	103.170	20.144	6.699	0.535
1143.999	652.767	80.006	19.993	103.172	20.146	6.535	0.488
1146.000	653.810	80.009	19.994	103.174	20.145	6.675	0.532
1147.999	654.809	80.008	19.993	103.178	20.143	6.791	0.511
1149.999	655.869	80.009	19.994	103.180	20.143	6.823	0.532
1152.000	656.908	80.009	19.993	103.161	20.145	6.679	0.502
1153.999	657.947	80.008	19.993	103.169	20.147	6.486	0.537
1156.000	658.975	80.008	19.993	103.170	20.147	6.494	0.511
1157.999	660.003	80.008	19.993	103.172	20.148	6.439	0.504
1159.999	661.033	80.007	19.994	103.167	20.148	6.382	0.516
1161.999	662.088	80.005	19.994	103.168	20.149	6.332	0.535
1163.999	663.074	80.006	19.994	103.171	20.145	6.669	0.484
1166.000	664.142	80.005	19.993	103.171	20.146	6.555	0.526
1168.000	665.144	80.005	19.995	103.169	20.143	6.807	0.516
1169.999	666.210	80.005	19.995	103.170	20.145	6.646	0.523
1171.999	667.216	80.007	19.995	103.173	20.145	6.656	0.492
1173.999	668.232	80.006	19.995	103.172	20.144	6.683	0.523
1175.999	669.285	80.007	19.996	103.169	20.143	6.815	0.546
1178.001	670.290	80.006	19.994	103.164	20.139	7.091	0.522
1179.999	671.330	80.007	19.994	103.166	20.145	6.662	0.529
1181.999	672.290	80.006	19.994	103.166	20.141	6.936	0.488
1183.999	673.345	80.007	19.994	103.155	20.142	6.890	0.505
1185.999	674.372	80.005	19.995	103.170	20.146	6.569	0.535
1188.000	675.406	80.005	19.993	103.170	20.145	6.660	0.536
1189.999	676.431	80.004	19.994	103.162	20.146	6.595	0.520
1191.999	677.412	80.006	19.995	103.154	20.145	6.613	0.524
1193.999	678.415	80.005	19.995	103.154	20.143	6.762	0.514
1195.999	679.429	80.004	19.995	103.168	20.146	6.552	0.509
1197.999	680.388	80.004	19.996	103.156	20.146	6.589	0.491
1199.999	681.454	80.005	19.995	103.165	20.149	6.329	0.527
1202.000	682.454	80.007	19.995	103.159	20.150	6.268	0.500
1203.999	683.454	80.007	19.994	103.162	20.146	6.556	0.499
1206.000	684.412	80.007	19.995	103.159	20.148	6.391	0.461
1207.999	685.438	80.005	19.994	103.162	20.145	6.623	0.490
1209.999	686.438	80.007	19.994	103.161	20.145	6.644	0.499
1211.999	687.450	80.007	19.994	103.166	20.143	6.812	0.484
1213.999	688.458	80.007	19.995	103.171	20.148	6.438	0.501
1215.999	689.443	80.008	19.995	103.156	20.146	6.532	0.508
1217.999	690.450	80.007	19.995	103.150	20.146	6.576	0.506
1219.999	691.430	80.007	19.993	103.156	20.148	6.432	0.496
1221.999	692.427	80.007	19.993	103.162	20.145	6.672	0.511
1223.999	693.421	80.006	19.993	103.153	20.144	6.751	0.501
1225.999	694.387	80.007	19.993	103.153	20.147	6.517	0.486
1227.999	695.372	80.009	19.993	103.149	20.149	6.353	0.475
1229.999	696.400	80.009	19.994	103.147	20.147	6.477	0.526
1232.000	697.410	80.009	19.994	103.153	20.144	6.692	0.499
1233.999	698.362	80.010	19.994	103.153	20.148	6.408	0.497
1235.999	699.370	80.008	19.994	103.145	20.143	6.800	0.492
1237.999	700.347	80.009	19.994	103.147	20.145	6.624	0.486
1240.000	701.371	80.005	19.993	103.160	20.146	6.570	0.491
1241.999	702.375	80.006	19.994	103.155	20.146	6.564	0.517
1243.999	703.386	80.007	19.994	103.158	20.145	6.637	0.507
1245.999	704.374	80.006	19.994	103.162	20.151	6.207	0.505
1247.999	705.366	80.008	19.994	103.158	20.143	6.791	0.498
1249.999	706.372	80.007	19.994	103.159	20.142	6.890	0.492
1251.999	707.394	80.007	19.995	103.153	20.146	6.573	0.488
1253.999	708.385	80.005	19.995	103.154	20.141	6.977	0.499
1255.999	709.425	80.007	19.994	103.156	20.142	6.859	0.531
1257.999	710.432	80.008	19.994	103.170	20.146	6.602	0.493
1259.999	711.422	80.006	19.995	103.161	20.148	6.450	0.548
1262.000	712.389	80.006	19.995	103.166	20.145	6.669	0.487
1264.000	713.384	80.006	19.994	103.170	20.139	7.094	0.476
1265.999	714.386	80.003	19.994	103.147	20.145	6.637	0.470
1267.999	715.408	80.006	19.994	103.164	20.144	6.752	0.526
1269.999	716.456	80.007	19.994	103.159	20.152	6.140	0.505
1271.999	717.413	80.006	19.995	103.155	20.147	6.483	0.502
1273.999	718.438	80.004	19.993	103.164	20.149	6.379	0.485
1275.999	719.436	80.007	19.994	103.145	20.147	6.500	0.493
1278.000	720.442	80.005	19.993	103.161	20.151	6.180	0.484
1280.000	721.483	80.005	19.995	103.165	20.147	6.509	0.523
1281.999	722.486	80.004	19.995	103.161	20.141	6.970	0.509
1283.999	723.495	80.006	19.996	103.147	20.143	6.812	0.512
1285.999	724.509	80.008	19.995	103.152	20.145	6.639	0.496
1287.999	725.505	80.009	19.995	103.162	20.143	6.818	0.485
1290.000	726.545	80.003	19.993	103.151	20.151	6.210	0.507
1291.999	727.576	80.005	19.995	103.154	20.143	6.795	0.513
1293.999	728.566	80.006	19.995	103.142	20.145	6.651	0.503
1295.999	729.544	80.007	19.994	103.161	20.145	6.638	0.472
1297.999	730.557	80.007	19.994	103.152	20.149	6.333	0.501
1300.001	731.552	80.006	19.995	103.145	20.151	6.206	0.487
1301.999	732.566	80.007	19.995	103.146	20.147	6.512	0.498
1304.001	733.568	80.007	19.996	103.144	20.150	6.300	0.507
1305.999	734.553	80.006	19.994	103.138	20.148	6.394	0.482
1308.000	735.609	80.007	19.994	103.148	20.148	6.447	0.513
1309.999	736.605	80.009	19.994	103.160	20.148	6.408	0.508
1311.999	737.623	80.009	19.994	103.148	20.148	6.421	0.498
1313.999	738.643	80.008	19.993	103.166	20.144	6.720	0.547
1315.999	739.650	80.009	19.993	103.151	20.147	6.507	0.505
1317.999	740.654	80.008	19.995	103.167	20.147	6.521	0.505
1319.999	741.672	80.008	19.995	103.156	20.147	6.496	0.517
1321.999	742.679	80.006	19.993	103.146	20.142	6.830	0.507
1323.999	743.696	80.006	19.993	103.145	20.141	6.913	0.484