File: 01_Data/Asphalt_Shingle/Cone/Asphalt_Shingle_Cone_HF25Scan_220415_R1.csv
Names,Time,Stack TC,Smoke TC,Exh Press,Smoke Comp,Smoke Meas,CO Meter,CO2 Meter,O2 Meter,Sample Mass,Ext Coeff,Start Test,Flame Verif
Chan Gain,,500,500,1,1,1,1,1,1,1,1,1.0,1.0
Offset,,0,0,0.133554,0,0,0,0,0,0,0,0.0,0.0
Gain,,1,1,25.011,13.1255,13.9488,1,1,1,1.0009,1.00465,1.0,1.0
Units,sec,C,C,Pa,%,%,%,%,%,g,/m,,
Baseline,,16.8256,17.1395,144.941,98.104,94.0548,0.000936691,0.044529,21.0121,-833.61,0.371473,,
5,1,16.6666,16.8765,147.439,97.9764,93.9899,0.00109152,0.0566791,20.9993,-296.207,0.366079,0.0,0.0
10,2.25,16.1967,16.4691,149.412,97.9744,93.9695,0.00109883,0.0559557,20.9997,-296.227,0.367814,0.0,0.0
15,3.5,16.1894,16.865,144.191,97.974,93.9899,0.00109292,0.0553237,21.0006,-296.227,0.365862,0.0,0.0
20,4.75,16.3848,16.5674,144.037,97.9732,93.8149,0.00107323,0.0548968,21.0012,-296.247,0.38221,0.0,0.0
25,6,16.3938,16.5627,145.816,97.9708,93.7051,0.00103516,0.0546761,21.0014,-296.257,0.392316,0.0,0.0
30,7.25,16.5628,16.5323,144.64,97.9656,93.8699,0.00103531,0.0546519,21.0016,-296.267,0.376368,0.0,0.0
35,8.5,15.9375,16.216,142.212,97.9676,93.9644,0.00106738,0.0546488,21.0017,-296.277,0.36768,0.0,0.0
40,9.75,16.1656,16.4715,147.382,97.9668,93.9784,0.00107547,0.0542732,21.0023,-296.267,0.36629,0.0,0.0
45,11,16.5789,16.9181,145.09,97.9568,93.7251,0.00104989,0.0536805,21.0031,-296.257,0.389174,0.0,0.0
50,12.25,16.397,16.7379,145.606,97.9528,94.0972,0.00102409,0.0528205,21.0042,-296.257,0.3539,0.0,0.0
55,13.5,16.3724,16.7421,145.754,97.9548,93.663,0.000965212,0.0517354,21.0051,-296.267,0.394839,0.0,0.0
60,14.75,15.9342,16.6556,146.12,97.9628,94.0457,0.000912384,0.0507382,21.0064,-296.267,0.359625,0.0,0.0
65,16,16.3393,16.9844,143.494,97.9508,93.9146,0.00088119,0.0501524,21.0073,-296.277,0.370839,0.0,0.0
70,17.25,16.0141,16.4814,143.711,97.952,93.7788,0.00086088,0.0496369,21.0079,-296.277,0.383699,0.0,0.0
75,18.5,16.09,16.2893,145.476,97.956,93.9299,0.000838249,0.0493679,21.0082,-296.257,0.36987,0.0,0.0
80,19.75,16.5969,16.4843,144.285,97.9576,93.8328,0.000810821,0.0493749,21.0084,-296.277,0.379124,0.0,0.0
85,21,16.208,16.3495,148.208,97.948,93.8843,0.000790263,0.0495682,21.0085,-296.277,0.373424,0.0,0.0
90,22.25,16.4286,16.5716,144.631,97.9536,93.9988,0.000793599,0.0497836,21.0078,-296.287,0.363186,0.0,0.0
95,23.5,16.4007,16.6274,143.529,97.9664,93.9358,0.00082395,0.0499402,21.0078,-296.277,0.370248,0.0,0.0
100,24.75,16.3557,16.415,143.479,97.9456,93.8843,0.000839351,0.0500326,21.0082,-296.297,0.373207,0.0,0.0
105,26,16.2176,16.7533,146.046,97.9424,93.5719,0.000833463,0.0498267,21.0084,-296.297,0.402298,0.0,0.0
110,27.25,16.0544,16.9582,143.395,97.9512,93.9154,0.000821688,0.049462,21.0085,-296.297,0.370795,0.0,0.0
115,28.5,16.4734,17.0196,144.633,97.9564,93.7809,0.000811466,0.0489702,21.0088,-296.317,0.383895,0.0,0.0
120,29.75,15.9779,16.4481,143.678,97.9432,94.0337,0.000811278,0.0485048,21.009,-296.327,0.358977,0.0,0.0
125,31,16.36,16.9427,145.556,97.9388,93.852,0.000820228,0.0477179,21.0091,-296.337,0.375632,0.0,0.0
130,32.25,16.6666,16.4612,144.463,97.9532,93.5519,0.000821612,0.0470367,21.0101,-296.337,0.405155,0.0,0.0
135,33.5,16.0039,16.9139,144.539,97.9528,93.663,0.000827553,0.0463602,21.0112,-296.327,0.394659,0.0,0.0
140,34.75,16.6252,17.0466,144.46,97.9472,93.5021,0.000847339,0.0456802,21.0123,-296.327,0.409307,0.0,0.0
145,36,16.8285,16.7083,146.667,97.9552,93.5893,0.000879671,0.0452514,21.0129,-296.327,0.401807,0.0,0.0
150,37.25,16.8398,17.2079,144.264,97.9364,93.2062,0.000914289,0.0449123,21.0133,-296.337,0.436263,0.0,0.0
155,38.5,16.6574,17.0727,144.694,97.9472,93.2543,0.000943432,0.0444912,21.0135,-296.337,0.432689,0.0,0.0
160,39.75,16.4742,17.2059,145.057,97.9412,93.4523,0.000965253,0.0440782,21.0137,-296.337,0.413463,0.0,0.0
165,41,16.5618,17.1398,142.322,97.9388,93.2458,0.000994108,0.0437224,21.0138,-296.347,0.432736,0.0,0.0
170,42.25,16.7762,16.8675,146.178,97.9388,93.1551,0.00105399,0.0434015,21.0138,-296.357,0.441311,0.0,0.0
175,43.5,16.5246,17.1057,145.896,97.9424,93.0891,0.001061,0.0432268,21.0138,-296.367,0.447879,0.0,0.0
180,44.75,16.2023,16.6649,144.105,97.9352,93.1373,0.00102303,0.0431233,21.0139,-296.367,0.442677,0.0,0.0
185,46,16.4226,17.3018,145.641,97.9412,93.388,0.000940167,0.0430149,21.0139,-296.367,0.419526,0.0,0.0
190,47.25,16.7035,16.6928,142.359,97.9408,93.1487,0.000886718,0.0428856,21.0139,-296.377,0.442095,0.0,0.0
195,48.5,16.2964,16.829,147.34,97.9384,93.2215,0.000880789,0.042817,21.0139,-296.377,0.434995,0.0,0.0
200,49.75,16.9275,17.4294,145.528,97.934,93.3114,0.000902272,0.0427016,21.0139,-296.377,0.426111,0.0,0.0
205,51,16.9987,17.2086,147.914,97.9436,92.9602,0.000929812,0.0426846,21.014,-296.377,0.460206,0.0,0.0
210,52.25,16.5664,17.1962,143.027,97.9452,93.4361,0.000970864,0.042635,21.0145,-296.377,0.415348,0.0,0.0
215,53.5,16.4252,17.0597,140.728,97.9296,92.9904,0.000968328,0.0425563,21.0148,-296.387,0.45608,0.0,0.0
220,54.75,17.0319,17.1886,141.292,97.9452,92.9053,0.000929921,0.0424902,21.0149,-296.387,0.465558,0.0,0.0
225,56,16.3042,17.0557,144.003,97.9468,93.1913,0.000889913,0.0425203,21.015,-296.387,0.438608,0.0,0.0
230,57.25,17.0064,17.0703,144.173,97.948,93.2407,0.000875348,0.0425577,21.0151,-296.387,0.434049,0.0,0.0
235,58.5,17.0099,16.9353,146.092,97.9396,92.9202,0.00089697,0.0425797,21.0151,-296.387,0.46364,0.0,0.0
240,59.75,17.3103,17.2692,142.635,97.9496,93.0117,0.000923706,0.0426655,21.0151,-296.397,0.455866,0.0,0.0
245,61,17.0171,17.712,142.578,97.9456,92.9729,0.000909329,0.0427542,21.0152,-296.407,0.459176,0.0,0.0
250,62.25,16.9085,17.3739,144.518,97.944,92.8665,0.000860238,0.042787,21.0152,-296.457,0.469125,0.0,0.0
255,63.5,17.1009,17.732,143.505,97.9392,92.9074,0.000788654,0.0427081,21.0152,-296.427,0.464815,0.0,0.0
260,64.75,17.0893,17.2566,147.342,97.9528,92.7022,0.0007419,0.0426664,21.0152,-296.477,0.485525,0.0,0.0
265,66,16.7484,17.6366,144.397,97.9552,92.7626,0.000736993,0.0426346,21.0152,-296.487,0.479996,0.0,0.0
270,67.25,16.9061,17.2073,145.915,97.9336,92.6877,0.000808123,0.0425694,21.0151,-296.467,0.485171,0.0,0.0
275,68.5,17.0729,16.755,142.499,97.946,92.8061,0.000901397,0.0424856,21.0148,-296.467,0.475043,0.0,0.0
280,69.75,17.3529,17.9854,141.8,97.9456,92.5123,0.00097,0.042552,21.014,-296.457,0.502943,0.0,0.0
285,71,17.157,17.7211,145.61,97.9452,92.5545,0.00100059,0.042978,21.0132,-296.447,0.498894,0.0,0.0
290,72.25,17.1796,17.4519,142.997,97.9356,92.7124,0.000999135,0.0436073,21.0127,-296.437,0.483003,0.0,0.0
295,73.5,16.9327,17.5075,142.07,97.944,92.443,0.000963573,0.0441512,21.0124,-296.457,0.509411,0.0,0.0
300,74.75,17.1413,17.491,145.704,97.9484,92.6405,0.000925236,0.0444723,21.0127,-296.457,0.490998,0.0,0.0
305,76,17.5126,17.4913,146.377,97.938,92.5753,0.000896711,0.0443441,21.013,-296.457,0.496258,0.0,0.0
310,77.25,16.9967,17.7251,147.507,97.9364,92.1348,0.000923059,0.0445354,21.0132,-296.457,0.538156,0.0,0.0
315,78.5,16.8588,17.8153,143.36,97.9404,92.5966,0.00102436,0.0458404,21.0105,-296.477,0.494449,0.0,1.0
320,79.75,17.6467,17.6634,145.03,97.952,92.1084,0.00115916,0.0478434,21.0076,-296.497,0.542086,0.0,0.0
325,81,17.7745,17.8003,141.665,97.9544,91.5656,0.00130387,0.0493737,21.0049,-296.537,0.594385,0.0,0.0
330,82.25,17.5884,18.2374,143.092,97.938,91.1519,0.00145385,0.0510598,21.0008,-296.517,0.632821,0.0,0.0
335,83.5,16.9946,17.9402,144.527,97.9516,91.0974,0.00165042,0.0534348,20.9958,-296.517,0.639316,0.0,0.0
340,84.75,17.7124,17.8112,137.402,97.9508,91.9726,0.0018685,0.0564956,20.989,-296.557,0.55498,0.0,0.0
345,86,17.715,18.1284,141.856,97.9432,93.4293,0.00207807,0.0610288,20.9813,-296.577,0.41581,0.0,1.0
350,87.25,17.3865,17.5856,144.862,97.9376,93.382,0.00225001,0.066806,20.9733,-296.597,0.419764,0.0,1.0
355,88.5,18.0519,18.1188,142.339,97.9468,93.5565,0.00236687,0.0732807,20.9653,-296.617,0.404137,0.0,1.0
360,89.75,18.1318,18.697,143.112,97.9516,93.8277,0.00244222,0.0798961,20.9546,-296.537,0.379064,0.0,1.0
365,91,17.4804,17.9058,141.877,97.9524,93.3735,0.00249124,0.0869578,20.9403,-296.617,0.421901,0.0,1.0
370,92.25,17.853,18.2495,140.642,97.9368,92.6405,0.00252468,0.0943924,20.9288,-296.647,0.489952,0.0,1.0
375,93.5,17.7305,18.8681,136.243,97.9444,92.0054,0.00255896,0.10157,20.918,-296.667,0.551263,0.0,1.0
380,94.75,17.5665,18.6493,141.9,97.9444,90.9633,0.00259323,0.108259,20.9079,-296.687,0.651648,0.0,1.0
385,96,18.0418,19.2506,135.499,97.9392,88.8821,0.00260733,0.114559,20.8997,-296.707,0.855151,0.0,1.0
390,97.25,18.9361,19.0712,140.697,97.9452,87.7213,0.00261323,0.12029,20.8912,-296.737,0.971548,0.0,1.0
395,98.5,19.07,19.5041,138.34,97.946,88.1393,0.00262772,0.125006,20.8851,-296.757,0.929725,0.0,1.0
400,99.75,19.0095,19.4709,139.252,97.9436,86.3148,0.00266871,0.128507,20.8801,-296.787,1.11385,0.0,0.0
405,101,19.9146,20.4788,136.417,97.9404,85.7657,0.00279302,0.13136,20.8737,-296.817,1.1698,0.0,0.0
410,102.25,19.9124,20.2839,138.923,97.9456,83.1588,0.00302767,0.134449,20.8659,-296.827,1.4423,0.0,0.0
415,103.5,20.4395,21.0504,139.081,97.9536,83.5866,0.0033,0.139089,20.8564,-296.877,1.3978,0.0,0.0
420,104.75,19.9894,20.8385,138.974,97.9404,81.3381,0.00359413,0.14471,20.8457,-296.887,1.63691,0.0,0.0
425,106,20.1099,20.9347,137.479,97.9448,80.5906,0.00381541,0.150499,20.8331,-296.927,1.71868,0.0,0.0
430,107.25,20.2321,20.9523,134.956,97.9424,78.034,0.00400121,0.157173,20.822,-296.968,2.00257,0.0,0.0
435,108.5,21.0163,21.4421,135.92,97.9472,79.3302,0.0041463,0.161898,20.8154,-297.008,1.85781,0.0,0.0
440,109.75,21.3447,21.8491,137.024,97.9452,79.7133,0.00425365,0.164072,20.8124,-297.028,1.81518,0.0,0.0
445,111,21.7663,22.1343,134.245,97.9484,81.757,0.00434397,0.164158,20.8139,-297.088,1.59237,0.0,0.0
450,112.25,21.6214,22.3754,136.725,97.96,78.4269,0.00441635,0.16341,20.8153,-297.088,1.95989,0.0,0.0
455,113.5,21.9127,22.4547,137.443,97.9676,80.4944,0.00445424,0.16256,20.8161,-297.128,1.73126,0.0,0.0
460,114.75,22.3145,22.9894,135.564,97.9432,78.7163,0.00444214,0.162,20.8172,-297.158,1.92591,0.0,0.0
465,116,22.6678,22.8842,134.454,97.9464,81.8123,0.00441186,0.161548,20.8174,-297.208,1.58623,0.0,0.0
470,117.25,22.7598,23.2877,139.69,97.95,80.5813,0.00444801,0.16085,20.8174,-297.238,1.72017,0.0,0.0
475,118.5,21.9473,23.0336,135.352,97.9424,81.4126,0.00453197,0.160626,20.8174,-297.278,1.62903,0.0,0.0
480,119.75,23.2479,23.381,135.109,97.9392,82.2397,0.00465318,0.161684,20.8158,-297.318,1.53966,0.0,0.0
485,121,23.1414,23.7251,137.628,97.9464,80.789,0.00479628,0.163409,20.814,-297.358,1.69715,0.0,0.0
490,122.25,23.1297,24.1136,134.168,97.9528,77.9092,0.00494613,0.165002,20.812,-297.398,2.0176,0.0,0.0
495,123.5,23.4069,24.1068,136.92,97.9488,79.5932,0.00506326,0.169043,20.8061,-297.448,1.82878,0.0,0.0
500,124.75,24.0143,24.5492,140.915,97.9392,78.1783,0.00521545,0.174565,20.793,-297.468,1.986,0.0,0.0
505,126,23.7498,24.4493,134.571,97.9472,76.6475,0.00536798,0.180612,20.7812,-297.528,2.16098,0.0,0.0
510,127.25,24.3125,25.3319,135.125,97.9464,74.9643,0.0055036,0.185452,20.771,-297.598,2.35659,0.0,0.0
515,128.5,24.6957,25.3072,133.501,97.9372,75.559,0.00564844,0.192803,20.7585,-297.638,2.28613,0.0,0.0
520,129.75,24.8678,25.7132,134.094,97.9504,73.451,0.00580266,0.202119,20.7427,-297.668,2.53668,0.0,0.0
525,131,25.3998,26.1889,137.453,97.944,74.4701,0.00597421,0.210514,20.7262,-297.698,2.41467,0.0,0.0
530,132.25,25.733,26.4058,133.436,97.9456,74.3143,0.00614994,0.217946,20.7125,-297.768,2.43327,0.0,0.0
535,133.5,26.0178,26.7762,137.061,97.9368,70.2503,0.0062778,0.224362,20.7003,-297.818,2.9281,0.0,0.0
540,134.75,26.4664,27.1629,133.089,97.952,73.5762,0.00647291,0.230295,20.6906,-297.858,2.52182,0.0,0.0
545,136,26.8821,27.5587,131.472,97.9468,70.3567,0.00677286,0.236293,20.6771,-297.918,2.91566,0.0,0.0
550,137.25,26.7547,27.8486,132.422,97.9408,69.8225,0.00718411,0.244231,20.6599,-297.998,2.98229,0.0,0.0
555,138.5,27.2119,28.2857,129.352,97.9468,70.0494,0.00757875,0.253187,20.6439,-298.059,2.95424,0.0,0.0
560,139.75,28.014,28.8208,133.001,97.9484,69.891,0.00784742,0.261096,20.6334,-298.109,2.97433,0.0,0.0
565,141,28.2022,29.2224,132.78,97.9388,68.4586,0.00809667,0.267889,20.6231,-298.179,3.15596,0.0,0.0
570,142.25,28.7017,29.7515,129.47,97.9368,68.9022,0.0082825,0.27351,20.6156,-298.259,3.09886,0.0,0.0
575,143.5,28.9124,30.1198,129.966,97.9412,68.1419,0.00845558,0.278007,20.6078,-298.349,3.19704,0.0,0.0
580,144.75,29.2995,30.3728,131.096,97.9416,67.5894,0.00872406,0.283682,20.5992,-298.419,3.26883,0.0,0.0
585,146,29.7417,30.7934,130.384,97.9436,65.7747,0.00907029,0.289235,20.588,-298.479,3.50885,0.0,0.0
590,147.25,30.2535,31.5194,129.379,97.9384,65.1106,0.00944919,0.294971,20.5767,-298.569,3.59781,0.0,0.0
595,148.5,30.4514,31.639,131.042,97.93,64.0949,0.00975014,0.300022,20.5672,-298.619,3.73561,0.0,0.0
600,149.75,30.3943,32.0185,132.069,97.9456,63.4287,0.00994713,0.303633,20.561,-298.679,3.8291,0.0,0.0
605,151,31.465,32.5525,129.649,97.9388,65.1391,0.0100232,0.30543,20.5573,-298.769,3.59399,0.0,0.0
610,152.25,31.3538,33.0844,130.327,97.9388,63.977,0.0100359,0.304134,20.5598,-298.869,3.75263,0.0,0.0
615,153.5,32.1261,33.3253,130.56,97.9324,63.3725,0.00996784,0.301164,20.5659,-298.959,3.83572,0.0,0.0
620,154.75,32.1162,33.624,130.998,97.9396,64.7645,0.00987091,0.29762,20.5724,-299.019,3.64489,0.0,0.0
625,156,31.7718,33.5715,131.841,97.938,62.4198,0.00975077,0.294042,20.5797,-299.059,3.96971,0.0,0.0
630,157.25,32.2899,34.097,132.645,97.936,65.8296,0.00966478,0.290091,20.587,-299.129,3.50081,0.0,0.0
635,158.5,32.2184,33.8512,129.787,97.9408,65.8258,0.00955872,0.28661,20.5942,-299.21,3.50176,0.0,0.0
640,159.75,33.0817,34.6839,137.447,97.9432,66.2629,0.00935465,0.282442,20.6031,-299.26,3.44364,0.0,0.0
645,161,33.2647,35.0043,132.396,97.9376,67.193,0.00905661,0.277556,20.6136,-299.31,3.32029,0.0,0.0
650,162.25,32.7773,34.2014,137.194,97.9392,68.6161,0.00871397,0.271942,20.624,-299.38,3.13574,0.0,0.0
655,163.5,33.0055,35.2003,130.426,97.9436,69.5326,0.00838777,0.265577,20.6354,-299.42,3.01921,0.0,0.0
660,164.75,33.56,35.2869,132.838,97.9376,69.702,0.00812527,0.259289,20.6484,-299.48,2.99722,0.0,0.0
665,166,33.1507,35.2173,133.502,97.9368,72.5652,0.00793158,0.252632,20.6599,-299.54,2.64239,0.0,0.0
670,167.25,33.7843,35.5366,135.382,97.9432,73.8605,0.00753036,0.244727,20.6723,-299.6,2.48703,0.0,0.0
675,168.5,33.7147,35.6794,131.34,97.9392,76.2112,0.00708097,0.237358,20.6879,-299.63,2.21058,0.0,0.0
680,169.75,33.5626,35.6053,134.596,97.946,76.3989,0.00659747,0.227807,20.7033,-299.69,2.18951,0.0,0.0
685,171,34.1585,35.5394,137.614,97.958,79.2042,0.00618988,0.219649,20.7193,-299.7,1.87279,0.0,0.0
690,172.25,34.0429,35.3148,132.37,97.948,78.0944,0.00586763,0.213175,20.7309,-299.75,1.99625,0.0,0.0
695,173.5,33.7805,35.8841,137.505,97.9552,80.0883,0.00561092,0.207524,20.7426,-299.79,1.77471,0.0,0.0
700,174.75,33.0469,35.8337,140.51,97.9472,81.4858,0.00542772,0.201158,20.753,-299.83,1.62154,0.0,0.0
705,176,33.2607,35.6389,134.956,97.9372,80.8886,0.0052167,0.194942,20.7638,-299.88,1.68547,0.0,0.0
710,177.25,33.7835,35.6912,134.923,97.9524,81.7813,0.00496062,0.190531,20.7724,-299.91,1.59011,0.0,0.0
715,178.5,33.7244,35.6621,138.413,97.946,82.4087,0.00470847,0.185869,20.7797,-299.94,1.52218,0.0,0.0
720,179.75,33.5032,35.8494,133.06,97.9524,83.1179,0.00450043,0.182022,20.7863,-299.97,1.44724,0.0,0.0
725,181,33.0506,35.5937,135.594,97.9528,82.1912,0.00436857,0.178895,20.7923,-300.01,1.54609,0.0,0.0
730,182.25,33.1942,35.4827,135.535,97.9608,83.9131,0.00429633,0.175974,20.7968,-300.05,1.36409,0.0,0.0
735,183.5,33.2731,35.3103,139.07,97.9752,83.4333,0.00430352,0.173643,20.8002,-300.03,1.41591,0.0,0.0
740,184.75,33.2074,35.6768,133.892,97.9464,83.6717,0.00430717,0.172183,20.8024,-300.13,1.38818,0.0,0.0
745,186,33.163,35.5293,136.054,97.9504,83.8297,0.00428036,0.171007,20.8046,-300.12,1.37192,0.0,0.0
750,187.25,33.1858,35.066,139.013,97.9592,84.4069,0.00425276,0.169748,20.8065,-300.15,1.31224,0.0,0.0
755,188.5,33.2301,35.2794,134.274,97.962,84.2055,0.00421871,0.168565,20.8085,-300.17,1.33354,0.0,0.0
760,189.75,32.9952,35.2691,139.016,97.9528,84.2719,0.00420055,0.167283,20.811,-300.2,1.32576,0.0,0.0
765,191,32.7405,35.175,136.417,97.9628,83.8301,0.0041959,0.166435,20.8141,-300.24,1.37299,0.0,0.0
770,192.25,32.6057,35.2934,135.903,97.9564,83.5364,0.00417484,0.165719,20.8161,-300.281,1.40334,0.0,0.0
775,193.5,32.6947,34.6552,137.088,97.9664,84.4741,0.00412693,0.164964,20.8185,-300.311,1.30587,0.0,0.0
780,194.75,32.5929,35.1192,135.584,97.9572,84.3064,0.00406462,0.163678,20.8222,-300.331,1.32255,0.0,0.0
785,196,32.7834,34.8124,141.411,97.9652,84.2524,0.00399617,0.162089,20.8254,-300.361,1.32892,0.0,0.0
790,197.25,32.4714,34.956,138.012,97.9832,84.309,0.00398217,0.160695,20.8273,-300.391,1.32463,0.0,0.0
795,198.5,32.4868,34.6421,139.434,97.9636,83.6768,0.00404751,0.159584,20.8284,-300.411,1.38919,0.0,0.0
800,199.75,32.1499,34.8941,137.751,97.9604,83.7462,0.00414848,0.158812,20.829,-300.461,1.38159,0.0,0.0
805,201,32.7995,34.8467,139.133,97.968,84.5648,0.00422475,0.158432,20.8294,-300.451,1.29656,0.0,0.0
810,202.25,32.674,34.6989,137.547,97.9772,83.6147,0.00427978,0.158428,20.8296,-300.491,1.39696,0.0,0.0
815,203.5,32.5018,35.0372,136.647,97.9756,83.7377,0.00429963,0.15862,20.8295,-300.511,1.38386,0.0,0.0
820,204.75,32.201,34.2897,138.814,97.9792,84.4452,0.00428899,0.158952,20.8288,-300.541,1.31004,0.0,0.0
825,206,32.0736,34.7837,135.227,97.9945,84.0208,0.00424954,0.15952,20.8283,-300.571,1.35581,0.0,0.0
830,207.25,32.0829,34.2931,136.459,97.9981,83.3516,0.00416664,0.159935,20.8281,-300.611,1.4266,0.0,0.0
835,208.5,32.4512,34.4616,137.39,97.9945,83.8216,0.00405065,0.159547,20.8287,-300.621,1.37673,0.0,0.0
840,209.75,32.0214,34.6598,136.47,98.0025,83.5027,0.00397816,0.158701,20.8299,-300.651,1.41104,0.0,0.0
845,211,31.7611,34.0587,138.805,98.0213,83.8335,0.00394359,0.157535,20.8309,-300.681,1.37789,0.0,0.0
850,212.25,32.089,34.2663,135.261,98.0325,84.0744,0.00395092,0.155793,20.8327,-300.711,1.35361,0.0,0.0
855,213.5,31.7563,33.9567,141.677,98.0257,84.4686,0.00401591,0.154432,20.8355,-300.741,1.31177,0.0,0.0
860,214.75,31.7595,34.0227,138.799,98.0421,84.2719,0.004125,0.153045,20.8381,-300.781,1.33379,0.0,0.0
865,216,31.4847,33.8727,137.95,98.0469,84.0885,0.00420826,0.151967,20.8401,-300.791,1.35343,0.0,0.0
870,217.25,31.6159,33.8884,135.425,98.0501,83.5934,0.00424353,0.151069,20.8412,-300.821,1.40576,0.0,0.0
875,218.5,31.3013,33.5745,134.012,98.0537,84.2553,0.00420612,0.150286,20.8427,-300.831,1.33657,0.0,0.0
880,219.75,31.3455,33.8477,134.805,98.0714,84.4686,0.00414363,0.149385,20.844,-300.881,1.31588,0.0,0.0
885,221,31.4763,33.8658,138.25,98.0742,83.0834,0.00407423,0.148332,20.8454,-300.891,1.46185,0.0,0.0
890,222.25,31.0749,33.5717,135.939,98.0754,83.6802,0.00399885,0.147285,20.8467,-300.911,1.39888,0.0,0.0
895,223.5,31.3838,33.7076,137.592,98.0846,84.1915,0.00393623,0.146451,20.848,-300.951,1.34603,0.0,0.0
900,224.75,31.0545,33.2464,137.44,98.0966,84.054,0.00391987,0.145617,20.85,-300.971,1.36151,0.0,0.0
905,226,31.3535,33.6565,137.682,98.1014,84.0932,0.00395274,0.144532,20.8514,-300.991,1.35784,0.0,0.0
910,227.25,31.0372,33.3423,135.973,98.103,84.0399,0.00401026,0.143323,20.8537,-301.031,1.36356,0.0,0.0
915,228.5,31.2993,33.6115,136.39,98.1162,83.9391,0.00409111,0.141904,20.8564,-301.051,1.37533,0.0,0.0
920,229.75,31.3566,33.5427,136.947,98.1266,84.5342,0.00416785,0.140324,20.8596,-301.071,1.31401,0.0,0.0
925,231,31.0234,33.1053,135.768,98.1274,85.0995,0.00419919,0.138671,20.8626,-301.101,1.25534,0.0,0.0
930,232.25,30.8939,33.0369,139.359,98.131,84.561,0.00413963,0.137095,20.8645,-301.121,1.31161,0.0,0.0
935,233.5,31.2057,33.4267,136.325,98.1294,84.9675,0.00405195,0.135474,20.8664,-301.141,1.2692,0.0,0.0
940,234.75,30.7034,33.1158,138.648,98.1459,86.1786,0.00399131,0.133555,20.8686,-301.171,1.14595,0.0,0.0
945,236,30.7083,33.242,137.221,98.1431,85.775,0.00401188,0.131679,20.8716,-301.181,1.18706,0.0,0.0
950,237.25,31.035,32.9896,134.438,98.1543,85.7082,0.00404713,0.129931,20.8735,-301.201,1.19494,0.0,0.0
955,238.5,30.5845,32.6569,137.133,98.1571,86.8874,0.0040797,0.128036,20.8765,-301.211,1.07477,0.0,0.0
960,239.75,30.9284,32.9911,138.975,98.1539,86.4638,0.00408032,0.126074,20.881,-301.231,1.11755,0.0,0.0
965,241,30.5758,32.8446,139.848,98.1643,87.6374,0.00404982,0.123381,20.8857,-301.251,0.99967,0.0,0.0
970,242.25,30.1132,32.4339,139.619,98.1527,87.7204,0.00400054,0.120784,20.8906,-301.291,0.990284,0.0,0.0
975,243.5,30.3166,32.1691,139.407,98.1507,87.8532,0.0039836,0.118437,20.8939,-301.291,0.976771,0.0,0.0
980,244.75,30.3098,32.2417,137.35,98.1583,88.6637,0.00398766,0.116073,20.8973,-301.311,0.896523,0.0,0.0
985,246,29.9316,32.3008,140.576,98.1439,88.1248,0.00407041,0.113946,20.9001,-301.321,0.948957,0.0,0.0
990,247.25,29.8123,32.3122,138.177,98.1471,88.8625,0.00417955,0.112063,20.9024,-301.341,0.87578,0.0,0.0
995,248.5,29.9422,32.0323,142.428,98.1423,88.7531,0.00425846,0.110474,20.9054,-301.341,0.886204,0.0,0.0
1000,249.75,29.5047,31.6692,137.523,98.1383,88.9468,0.00427963,0.108532,20.9087,-301.361,0.866633,0.0,0.0
1005,251,29.5899,31.7197,136.417,98.1238,88.914,0.00424971,0.107091,20.9123,-301.372,0.868587,0.0,0.0
1010,252.25,29.609,31.5361,139.534,98.1226,89.0009,0.00421953,0.105306,20.9147,-301.402,0.859876,0.0,0.0
1015,253.5,29.0481,30.8576,139.098,98.1166,89.2205,0.00420308,0.103843,20.9162,-301.412,0.837613,0.0,0.0
1020,254.75,29.1021,31.0032,141.963,98.1214,89.5862,0.00419336,0.102509,20.9186,-301.422,0.802001,0.0,0.0
1025,256,29.1237,30.9902,144.975,98.0986,90.2358,0.00419935,0.101095,20.9219,-301.432,0.736279,0.0,0.0
1030,257.25,28.8891,31.1659,139.268,98.1082,90.043,0.0042282,0.0996029,20.9242,-301.442,0.755995,0.0,0.0
1035,258.5,28.8174,30.6453,145.646,98.0986,90.1077,0.00426072,0.0984763,20.9255,-301.462,0.748801,0.0,0.0
1040,259.75,28.5738,30.6929,142.492,98.0786,90.4329,0.0043351,0.097855,20.9258,-301.482,0.715252,0.0,0.0
1045,261,28.3006,30.6283,140.721,98.0782,90.5406,0.00440007,0.0975328,20.9256,-301.482,0.704726,0.0,0.0
1050,262.25,28.8133,30.862,142.298,98.0649,90.6921,0.00439995,0.0972856,20.9256,-301.492,0.6888,0.0,0.0
1055,263.5,27.7536,30.1688,141.161,98.0601,90.054,0.00434751,0.0969628,20.9267,-301.502,0.750593,0.0,0.0
1060,264.75,28.1239,30.0056,139.304,98.0485,90.6074,0.00430331,0.096357,20.9281,-301.532,0.69556,0.0,0.0
1065,266,28.0561,30.0867,137.538,98.0421,90.3946,0.00429491,0.0957731,20.9289,-301.532,0.715709,0.0,0.0
1070,267.25,27.8551,29.7849,141.945,98.0437,90.773,0.00433806,0.0950749,20.9294,-301.532,0.679036,0.0,0.0
1075,268.5,28.0813,30.094,140.772,98.0265,90.3448,0.00437854,0.0945217,20.9315,-301.562,0.719162,0.0,0.0
1080,269.75,27.6839,29.9235,138.226,98.0341,90.6125,0.00438288,0.0941045,20.9328,-301.572,0.693767,0.0,0.0
1085,271,27.7208,29.8168,139.428,98.0317,90.1847,0.0043673,0.0936696,20.9335,-301.572,0.735257,0.0,0.0
1090,272.25,27.4961,29.5264,143.369,98.0169,90.2434,0.00435337,0.0932716,20.934,-301.592,0.728186,0.0,0.0
1095,273.5,27.5174,29.6229,139.797,98.0065,90.0966,0.00434514,0.0928729,20.935,-301.592,0.741603,0.0,0.0
1100,274.75,27.3616,29.0056,141.451,98.0037,89.4998,0.00435972,0.0923781,20.9358,-301.602,0.799922,0.0,0.0
1105,276,27.5967,29.2615,143.636,97.9957,89.7497,0.0044346,0.0918502,20.9363,-301.622,0.774631,0.0,0.0
1110,277.25,27.1996,29.3238,140.429,97.9876,89.8097,0.0045275,0.0913703,20.9365,-301.632,0.768019,0.0,0.0
1115,278.5,26.7939,29.2078,139.538,97.986,89.5777,0.0046031,0.0908808,20.9367,-301.652,0.79067,0.0,0.0
1120,279.75,27.4911,29.2628,142.24,97.9752,89.7007,0.00465286,0.0903784,20.937,-301.652,0.777602,0.0,0.0
1125,281,27.5471,29.1759,143.249,97.9824,90.0983,0.00468332,0.0898082,20.9379,-301.672,0.739275,0.0,0.0
1130,282.25,26.8745,29.1603,141.191,97.9784,90.409,0.00469553,0.0892792,20.9387,-301.692,0.708572,0.0,0.0
1135,283.5,26.907,28.1483,147.195,97.9688,90.6223,0.00469535,0.0886775,20.9401,-301.702,0.686943,0.0,0.0
1140,284.75,26.8101,28.1795,141.629,97.9668,90.249,0.00468331,0.0881868,20.941,-301.712,0.723142,0.0,0.0
1145,286,26.729,28.4371,139.13,97.9792,90.0191,0.00464315,0.0877995,20.9421,-301.722,0.746735,0.0,0.0
1150,287.25,26.7921,28.8418,143.582,97.9628,90.1647,0.00459645,0.0876256,20.943,-301.732,0.731017,0.0,0.0
1155,288.5,26.3147,28.3427,140.236,97.9532,90.2094,0.00453869,0.0874933,20.9436,-301.742,0.725784,0.0,0.0
1160,289.75,26.3312,28.0732,145.784,97.9672,90.206,0.00449263,0.087233,20.9439,-301.752,0.727378,0.0,0.0
1165,291,26.5918,28.1768,142.449,97.9548,90.7074,0.00448572,0.0868906,20.9449,-301.762,0.677406,0.0,0.0
1170,292.25,26.7291,27.683,140.097,97.9452,91.2068,0.00451296,0.0864533,20.9466,-301.762,0.628161,0.0,0.0
1175,293.5,26.1677,27.9174,139.884,97.9484,90.7411,0.00455483,0.0858748,20.9476,-301.772,0.673563,0.0,0.0
1180,294.75,26.2011,28.1572,139.674,97.9548,91.082,0.00462848,0.085197,20.9484,-301.782,0.641087,0.0,0.0
1185,296,26.227,28.2597,142.915,97.9448,91.114,0.00471007,0.0844079,20.9496,-301.792,0.637098,0.0,0.0
1190,297.25,25.816,27.7892,141.456,97.932,91.4183,0.00481041,0.0835656,20.9507,-301.812,0.606554,0.0,0.0
1195,298.5,26.1164,27.9264,140.109,97.9384,91.9347,0.004914,0.0827676,20.9517,-301.812,0.557494,0.0,0.0
1200,299.75,25.4312,26.6316,141.97,97.9408,91.1225,0.00503274,0.0820325,20.9525,-301.812,0.635913,0.0,0.0
1205,301,26.0497,27.628,138.988,97.934,91.6286,0.00508121,0.0814378,20.9533,-301.832,0.586486,0.0,0.0
1210,302.25,25.7843,27.3932,140.473,97.9304,91.6648,0.00509023,0.0808496,20.9544,-301.842,0.582682,0.0,0.0
1215,303.5,25.1987,26.7582,141.62,97.9328,92.0237,0.00508228,0.0803522,20.9558,-301.852,0.548465,0.0,0.0
1220,304.75,25.4906,27.1481,139.333,97.9352,92.1488,0.00508337,0.0797075,20.957,-301.852,0.536704,0.0,0.0
1225,306,25.666,26.8621,139.913,97.93,92.0258,0.00510004,0.0789421,20.9582,-301.862,0.548009,0.0,0.0
1230,307.25,25.0511,27.3167,140.052,97.9328,92.5055,0.00510461,0.0782487,20.9597,-301.862,0.502438,0.0,0.0
1235,308.5,24.822,27.0248,147.685,97.9304,92.4408,0.00507187,0.0776345,20.9613,-301.872,0.508388,0.0,0.0
1240,309.75,25.6369,27.0636,143.018,97.9336,92.6481,0.00499003,0.076979,20.9625,-301.882,0.488936,0.0,0.0
1245,311,25.2468,26.8474,139.604,97.9316,92.5651,0.00490419,0.0759193,20.9635,-301.892,0.496655,0.0,0.0
1250,312.25,25.2936,26.2714,139.184,97.9308,92.6805,0.00486147,0.0748258,20.9648,-301.892,0.485606,0.0,0.0
1255,313.5,25.5307,26.6274,141.814,97.942,92.6009,0.00486515,0.0738814,20.9662,-301.902,0.494188,0.0,0.0
1260,314.75,24.8374,26.3693,139.836,97.942,92.5937,0.00491379,0.0731727,20.9678,-301.892,0.494877,0.0,0.0
1265,316,24.7934,26.3057,145.994,97.9296,92.921,0.00498081,0.0726686,20.969,-301.912,0.462659,0.0,0.0
1270,317.25,24.6235,26.1542,140.054,97.936,93.0415,0.00505609,0.0721,20.9699,-301.922,0.451817,0.0,0.0
1275,318.5,25.0397,26.5501,145.891,97.9376,93.3297,0.00510103,0.0714784,20.9705,-301.922,0.424706,0.0,0.0
1280,319.75,24.6685,25.9229,143.548,97.9452,93.0547,0.00510256,0.0707469,20.9708,-301.942,0.451395,0.0,0.0
1285,321,24.2341,25.8301,140.14,97.9308,93.279,0.00509027,0.0701353,20.9718,-301.942,0.428878,0.0,0.0
1290,322.25,24.1495,25.7758,143.721,97.942,93.1747,0.00510593,0.06955,20.9725,-301.942,0.439746,0.0,0.0
1295,323.5,24.8365,25.8539,144.907,97.9476,93.4118,0.00513956,0.0688755,20.9739,-301.952,0.417853,0.0,0.0
1300,324.75,24.3865,25.4602,142.465,97.9452,93.3267,0.00515351,0.0682808,20.9747,-301.962,0.425672,0.0,0.0
1305,326,24.4553,25.6647,142.817,97.944,93.617,0.005144,0.0677419,20.9751,-301.972,0.398193,0.0,0.0
1310,327.25,23.6388,24.9352,140.052,97.944,93.2756,0.00512001,0.0671288,20.9754,-301.972,0.43039,0.0,0.0
1315,328.5,24.0071,25.1582,146.004,97.9496,93.3633,0.00511687,0.0665656,20.9756,-301.972,0.422613,0.0,0.0
1320,329.75,23.9758,25.4696,143.196,97.95,93.4816,0.00516448,0.0662388,20.9771,-301.992,0.411486,0.0,0.0
1325,331,23.1024,24.7976,141.297,97.964,93.6149,0.00527305,0.0659107,20.9787,-301.992,0.400196,0.0,0.0
1330,332.25,23.7424,25.2834,142.921,97.96,93.1849,0.00541082,0.0655324,20.9797,-301.992,0.440402,0.0,0.0
1335,333.5,23.3151,24.6739,143.557,97.9552,93.5195,0.00551848,0.0651264,20.9809,-301.992,0.408383,0.0,0.0
1340,334.75,23.2741,24.6657,143.027,97.9512,93.666,0.00558417,0.0646426,20.9819,-302.012,0.394234,0.0,0.0
1345,336,23.5632,25.0199,139.059,97.9644,93.697,0.00558329,0.0640191,20.9825,-302.002,0.3925,0.0,0.0
1350,337.25,23.8466,25.2893,141.533,97.9648,93.5829,0.00555104,0.0635123,20.9828,-302.012,0.403273,0.0,0.0
1355,338.5,22.846,24.1505,142.947,97.9724,93.723,0.0055115,0.063184,20.9838,-302.022,0.39078,0.0,0.0
1360,339.75,23.424,25.0077,146.778,97.9688,93.4574,0.00549144,0.0628091,20.9846,-302.022,0.415467,0.0,0.0
1365,341,23.5219,24.9575,146.681,97.9672,93.7826,0.00549463,0.0624139,20.985,-302.022,0.384709,0.0,0.0
1370,342.25,23.0418,24.1709,145.403,97.9748,93.8541,0.00551249,0.0619614,20.9853,-302.042,0.378675,0.0,0.0
1375,343.5,23.2707,24.4906,141.824,97.982,93.7302,0.00552689,0.0615743,20.9857,-302.042,0.390964,0.0,0.0
1380,344.75,23.4963,24.3036,144.859,97.9656,93.8464,0.00550907,0.0612025,20.9866,-302.042,0.378566,0.0,0.0
1385,346,23.3993,24.4317,140.074,97.966,93.5923,0.005464,0.0608759,20.987,-302.042,0.402499,0.0,0.0
1390,347.25,23.0278,24.1619,142.704,97.9736,93.4765,0.00540209,0.0605521,20.9874,-302.062,0.414093,0.0,0.0
1395,348.5,23.1119,24.0887,144.279,97.9636,93.7634,0.00538876,0.0602635,20.9876,-302.042,0.386184,0.0,0.0
1400,349.75,23.2356,24.2802,142.385,97.968,93.6115,0.00543494,0.0601038,20.9882,-302.072,0.400876,0.0,0.0
1405,351,22.9137,24.2201,143.266,97.9728,93.3407,0.00550474,0.0599791,20.989,-302.082,0.426833,0.0,0.0
1410,352.25,23.0549,24.5863,144.51,97.9676,93.5578,0.00555612,0.0598093,20.989,-302.102,0.40589,0.0,0.0
1415,353.5,22.7303,23.8979,143.263,97.962,93.5646,0.00557038,0.0595253,20.9874,-302.102,0.404744,0.0,0.0
1420,354.75,22.887,23.9909,144.417,97.9596,93.6536,0.0055188,0.0592214,20.987,-302.112,0.396152,0.0,0.0
1425,356,22.5251,23.9347,148.328,97.964,93.5919,0.00540466,0.0589833,20.9871,-302.112,0.40236,0.0,0.0
1430,357.25,22.6648,23.7492,140.743,97.9576,93.663,0.00531455,0.0588769,20.9872,-302.102,0.395091,0.0,0.0
1435,358.5,22.7352,23.5369,143.441,97.9448,93.5855,0.00531854,0.0588478,20.9872,-302.102,0.401231,0.0,0.0
1440,359.75,22.7011,23.8536,146.516,97.9548,93.7064,0.00541991,0.0588887,20.9872,-302.102,0.390755,0.0,0.0
1445,361,22.5367,23.4429,142.51,97.9576,93.6093,0.00554381,0.0588548,20.9873,-302.102,0.400139,0.0,0.0
1450,362.25,22.2747,23.5365,144.488,97.9556,93.7123,0.00565202,0.0588482,20.9877,-302.102,0.390266,0.0,0.0
1455,363.5,22.2697,23.722,140.7,97.9516,93.9848,0.00570755,0.0588407,20.9885,-302.102,0.364323,0.0,0.0
1460,364.75,22.6642,23.6655,145.034,97.956,93.4897,0.00573458,0.0587688,20.9889,-302.112,0.411264,0.0,0.0
1465,366,22.6624,23.4944,135.614,97.9488,93.889,0.00578969,0.0586584,20.9892,-302.112,0.373056,0.0,0.0
1470,367.25,22.163,23.2494,141.719,97.9404,93.8298,0.00587924,0.0585159,20.9893,-302.122,0.377854,0.0,0.0
1475,368.5,22.2338,23.166,143.076,97.9384,93.7694,0.00594814,0.0583535,20.9885,-302.122,0.383354,0.0,0.0
1480,369.75,22.3484,23.3894,145.191,97.9352,93.6813,0.00598882,0.0582483,20.9889,-302.142,0.391352,0.0,0.0
1485,371,22.5687,23.6275,144.492,97.934,93.9273,0.00600754,0.0582152,20.9892,-302.132,0.368127,0.0,0.0
1490,372.25,22.0718,23.1872,144.6,97.9236,93.6685,0.00603903,0.0581886,20.9894,-302.142,0.391506,0.0,0.0
1495,373.5,22.2112,23.3537,140.998,97.9272,93.8043,0.00608273,0.0580729,20.9894,-302.152,0.379065,0.0,0.0
1500,374.75,22.4573,23.3227,148.39,97.9436,93.7873,0.00612262,0.0577348,20.9895,-302.152,0.382143,0.0,0.0
1505,376,22.0851,23.0855,141.419,97.9288,93.7711,0.00614188,0.0574609,20.9897,-302.172,0.382329,0.0,0.0
1510,377.25,22.3149,23.1532,141.843,97.9256,93.7737,0.00614241,0.0573391,20.9899,-302.162,0.381801,0.0,0.0
1515,378.5,22.2167,23.155,140.591,97.9284,93.7788,0.00613885,0.0572691,20.99,-302.162,0.381572,0.0,0.0
1520,379.75,21.9734,23.1493,145.485,97.9288,93.5706,0.00615247,0.057188,20.9901,-302.162,0.401192,0.0,0.0
1525,381,21.878,22.7364,142.996,97.9167,93.5174,0.00616871,0.057138,20.9909,-302.182,0.405124,0.0,0.0
1530,382.25,21.9707,23.0362,142.218,97.9244,93.8707,0.00616509,0.0572009,20.9916,-302.172,0.372576,0.0,0.0
1535,383.5,21.8563,22.9431,143.422,97.9324,93.5353,0.00613316,0.0573542,20.991,-302.182,0.404845,0.0,0.0
1540,384.75,22.0717,22.9496,142.957,97.934,93.9916,0.00610782,0.0575083,20.9907,-302.202,0.362098,0.0,0.0
1545,386,21.7727,22.8747,143.026,97.9224,93.4599,0.0061022,0.057726,20.9905,-302.202,0.411045,0.0,0.0
1550,387.25,21.983,22.6067,141.332,97.9276,93.6587,0.00610701,0.0579509,20.9904,-302.202,0.392789,0.0,0.0
1555,388.5,21.5713,22.5494,141.883,97.9304,93.5923,0.006105,0.0579758,20.9903,-302.202,0.399292,0.0,0.0
1560,389.75,21.8362,22.6325,142.921,97.9232,93.7175,0.00611884,0.05788,20.9909,-302.202,0.386867,0.0,0.0
1565,391,21.606,22.4841,140.805,97.92,93.471,0.00614265,0.05779,20.9916,-302.212,0.409786,0.0,0.0
1570,392.25,21.5069,22.1339,139.992,97.9292,93.7881,0.00622745,0.0575153,20.9919,-302.222,0.380764,0.0,0.0
1575,393.5,21.3283,22.2987,141.869,97.9252,93.5468,0.00631749,0.0572059,20.9922,-302.212,0.403113,0.0,0.0
1580,394.75,21.4371,21.9624,144.265,97.9356,93.7677,0.00638574,0.0568801,20.9923,-302.202,0.383261,0.0,0.0
1585,396,20.6009,21.7819,139.8,97.9159,93.7004,0.00641801,0.0565945,20.9924,-302.222,0.387819,0.0,0.0
1590,397.25,20.8204,21.8896,144.674,97.9256,93.6583,0.00640625,0.0563874,20.9924,-302.242,0.392649,0.0,0.0
1595,398.5,20.986,22.1791,140.447,97.9288,93.7404,0.00637648,0.0561967,20.9925,-302.232,0.385209,0.0,0.0
1600,399.75,21.1884,21.7866,142.101,97.9248,93.7949,0.00629535,0.0561235,20.992,-302.262,0.379728,0.0,0.0
1605,401,20.9619,21.221,142.478,97.9192,93.6166,0.00624115,0.0561477,20.9917,-302.252,0.395998,0.0,0.0
1610,402.25,20.9319,21.3727,141.943,97.9304,93.9631,0.00621166,0.0561619,20.9918,-302.242,0.364449,0.0,0.0
1615,403.5,21.1407,22.1248,142.328,97.9272,93.5016,0.00619688,0.0561947,20.9929,-302.252,0.407545,0.0,0.0
1620,404.75,19.975,21.3366,143.98,97.9284,93.866,0.00618592,0.0561623,20.9935,-302.262,0.373375,0.0,0.0
1625,406,20.387,21.3064,140.29,97.924,93.7988,0.00618741,0.0561432,20.9938,-302.262,0.379296,0.0,0.0
1630,407.25,21.3434,21.1555,140.624,97.9244,93.6902,0.00617243,0.0561977,20.994,-302.282,0.389537,0.0,0.0
1635,408.5,21.1717,22.3027,142.396,97.9276,93.7234,0.00616419,0.0561357,20.9942,-302.272,0.386703,0.0,0.0
1640,409.75,20.9612,21.4232,142.952,97.9264,93.623,0.00619378,0.0560383,20.9933,-302.282,0.396046,0.0,0.0
1645,411,21.0329,21.7114,142.727,97.9292,93.8281,0.00623689,0.0560503,20.9929,-302.282,0.377006,0.0,0.0
1650,412.25,20.7418,21.2569,145.351,97.92,93.686,0.00626325,0.0561258,20.9925,-302.292,0.389541,0.0,0.0
1655,413.5,20.6163,21.3723,143.802,97.9212,93.6451,0.0062493,0.0562377,20.9922,-302.302,0.393493,0.0,0.0
1660,414.75,20.9814,21.5949,143.06,97.9187,93.5617,0.00623475,0.0562445,20.9918,-302.282,0.401132,0.0,0.0
1665,416,20.5716,21.4564,141.885,97.92,94.0312,0.00626067,0.0561718,20.9923,-302.302,0.357126,0.0,0.0
1670,417.25,20.9529,21.6753,139.971,97.9256,93.8401,0.00631775,0.0560891,20.9928,-302.302,0.375562,0.0,0.0
1675,418.5,20.9825,21.4551,141.891,97.9272,93.7839,0.00638779,0.0560552,20.9931,-302.302,0.380985,0.0,0.0
1680,419.75,20.5139,21.7213,143.664,97.9272,94.1542,0.00644111,0.0560182,20.9933,-302.312,0.346252,0.0,0.0
1685,421,20.6346,21.4845,142.282,97.9236,93.8111,0.00646378,0.0560274,20.9934,-302.322,0.3781,0.0,0.0
1690,422.25,20.867,21.6046,139.344,97.9232,93.915,0.00645858,0.0560329,20.9939,-302.332,0.368313,0.0,0.0
1695,423.5,20.6136,21.2848,139.765,97.9236,93.7592,0.00643283,0.0560361,20.9943,-302.332,0.382981,0.0,0.0
1700,424.75,20.2985,21.2167,143.396,97.92,93.7971,0.00641505,0.056038,20.9945,-302.332,0.379096,0.0,0.0
1705,426,20.753,20.9151,141.551,97.9192,93.5655,0.00643282,0.0560746,20.9946,-302.322,0.400808,0.0,0.0
1710,427.25,20.5172,21.0551,139.359,97.9216,93.7788,0.00648581,0.0562328,20.9947,-302.322,0.38096,0.0,0.0
1715,428.5,20.842,20.9102,143.994,97.9151,93.7264,0.00656453,0.0563708,20.9947,-302.322,0.385305,0.0,0.0
1720,429.75,20.5287,21.0924,147.013,97.9192,93.9226,0.006637,0.0564409,20.9948,-302.322,0.367234,0.0,0.0
1725,431,20.814,21.22,147.007,97.9232,93.7179,0.00668248,0.0564511,20.9948,-302.332,0.386826,0.0,0.0
1730,432.25,20.2498,20.6483,140.689,97.9288,94.0827,0.00669325,0.0564572,20.9948,-302.332,0.353094,0.0,0.0
1735,433.5,20.6126,20.8747,142.927,97.9171,93.9444,0.00663041,0.0564537,20.9948,-302.352,0.365015,0.0,0.0
1740,434.75,20.3264,21.2537,145.569,97.9248,94.1346,0.00654442,0.0564297,20.9948,-302.362,0.347869,0.0,0.0
1745,436,20.1601,20.5449,139.646,97.9244,93.9456,0.00646164,0.0564446,20.994,-302.352,0.365545,0.0,0.0
1750,437.25,20.4133,21.0119,143.736,97.9184,93.8562,0.00641577,0.0564533,20.9943,-302.362,0.373394,0.0,0.0
1755,438.5,20.8517,21.4424,141.543,97.92,94.2155,0.00639897,0.0566539,20.9939,-302.362,0.339868,0.0,0.0
1760,439.75,20.2024,20.7466,140.507,97.9187,94.1197,0.00639208,0.0567978,20.9933,-302.372,0.348722,0.0,0.0
1765,441,20.7932,21.4901,141.911,97.9256,93.8494,0.00638013,0.0568937,20.993,-302.372,0.374682,0.0,0.0
1770,442.25,20.3294,21.4641,143.566,97.9175,94.0721,0.00633673,0.0569554,20.9928,-302.372,0.35308,0.0,0.0
1775,443.5,20.5519,21.2519,143.621,97.9264,93.9546,0.00628457,0.057036,20.9927,-302.392,0.364886,0.0,0.0
1780,444.75,20.2095,20.4338,140.584,97.9143,94.2768,0.00626855,0.0570441,20.9928,-302.402,0.333631,0.0,0.0
1785,446,20.7437,20.7482,142.181,97.9332,94.2726,0.00631831,0.0569815,20.9936,-302.402,0.335724,0.0,0.0
1790,447.25,20.3608,21.3048,143.113,97.9232,93.8324,0.00639637,0.0570598,20.9941,-302.412,0.376066,0.0,0.0
1795,448.5,19.9628,20.7587,142.828,97.9312,93.6902,0.006465,0.0572802,20.9944,-302.402,0.39015,0.0,0.0
1800,449.75,20.3587,21.074,145.209,97.9256,93.7439,0.00646087,0.0574886,20.9946,-302.412,0.384602,0.0,0.0
1805,451,20.5812,20.9297,141.353,97.9328,93.9954,0.00641626,0.057581,20.9947,-302.422,0.361631,0.0,0.0
1810,452.25,20.4576,21.1485,143.778,97.9111,93.9167,0.00637399,0.0575888,20.9947,-302.422,0.367071,0.0,0.0
1815,453.5,20.3629,21.4039,143.155,97.9224,93.8656,0.00634903,0.0576179,20.9947,-302.422,0.372875,0.0,0.0
1820,454.75,20.171,20.9894,143.748,97.9228,94.1615,0.00634808,0.0576113,20.9948,-302.432,0.345178,0.0,0.0
1825,456,20.4601,21.0132,144.29,97.9208,94.1968,0.00636688,0.0575268,20.9948,-302.432,0.341692,0.0,0.0
1830,457.25,20.5287,20.6742,136.713,97.9224,93.8341,0.00638024,0.0575129,20.9944,-302.432,0.375833,0.0,0.0
1835,458.5,20.0539,20.5238,141.531,97.928,93.8622,0.00638723,0.0575558,20.9936,-302.442,0.3737,0.0,0.0
1840,459.75,20.5326,20.8129,141.119,97.9252,93.8967,0.00639805,0.0576165,20.9932,-302.442,0.37021,0.0,0.0
1845,461,20.1387,20.8056,145.348,97.9179,93.8596,0.00641017,0.0576294,20.9929,-302.442,0.373038,0.0,0.0
1850,462.25,20.1101,20.7967,144.618,97.9304,94.0818,0.00642473,0.0576175,20.9927,-302.452,0.353317,0.0,0.0
1855,463.5,19.8065,20.8221,141.237,97.9332,93.729,0.0064503,0.0576835,20.9926,-302.452,0.386687,0.0,0.0
1860,464.75,20.2516,20.9806,140.667,97.9324,93.9695,0.00647461,0.0577853,20.9926,-302.462,0.36403,0.0,0.0
1865,466,20.4034,20.5807,141.577,97.9352,93.9593,0.00649428,0.0578186,20.9926,-302.462,0.36524,0.0,0.0
1870,467.25,19.8737,20.6923,143.66,97.9412,93.8303,0.00650769,0.0578432,20.9925,-302.462,0.377886,0.0,0.0
1875,468.5,19.6624,20.7873,143.831,97.9484,94.0423,0.00653622,0.0579273,20.9915,-302.462,0.358647,0.0,0.0
1880,469.75,19.5964,20.1648,142.431,97.95,93.8367,0.00654976,0.0579966,20.9907,-302.462,0.37808,0.0,0.0
1885,471,19.7569,20.6299,149.48,97.9516,94.0337,0.0065488,0.0578924,20.9912,-302.473,0.359733,0.0,0.0
1890,472.25,20.4505,20.9475,142.116,97.9584,94.161,0.00654782,0.057874,20.9915,-302.473,0.348425,0.0,0.0
1895,473.5,20.4511,21.2602,142.961,97.9736,93.783,0.00656332,0.0578936,20.9916,-302.473,0.385246,0.0,0.0
1900,474.75,20.247,20.5699,140.67,97.9656,93.8907,0.0065849,0.0578512,20.9917,-302.473,0.374409,0.0,0.0
1905,476,19.984,20.4843,142.18,97.9676,93.9627,0.00659145,0.0577821,20.9918,-302.473,0.36784,0.0,0.0
1910,477.25,20.0931,20.3023,140.223,97.9744,93.998,0.00654765,0.0577366,20.9918,-302.493,0.365139,0.0,0.0
1915,478.5,19.8496,20.4181,143.977,97.9716,94.2036,0.00646188,0.0576714,20.9918,-302.482,0.345633,0.0,0.0
1920,479.75,19.6565,20.0385,146.176,97.9608,94.0423,0.00640735,0.0575748,20.9918,-302.503,0.359764,0.0,0.0
1925,481,20.0578,20.6899,142.384,97.9712,93.9959,0.00640324,0.0574006,20.9919,-302.513,0.365051,0.0,0.0
1930,482.25,20.1509,20.6193,140.5,97.9804,94.0861,0.0064658,0.0573223,20.9919,-302.513,0.357422,0.0,0.0
1935,483.5,19.6108,20.5888,144.856,97.9844,93.729,0.00650246,0.0573341,20.9919,-302.513,0.3913,0.0,0.0
1940,484.75,20.1172,20.6008,141.961,97.9788,93.9363,0.00647647,0.0573779,20.9919,-302.533,0.371325,0.0,0.0
1945,486,20.3253,20.6875,144.698,97.9848,93.8911,0.00640892,0.0573953,20.9919,-302.523,0.3761,0.0,0.0
1950,487.25,20.1346,21.1318,142.673,97.9896,94.25,0.00633325,0.0573827,20.9919,-302.543,0.342913,0.0,0.0
1955,488.5,20.0136,20.1925,145.007,97.9901,93.7928,0.00629746,0.0573364,20.9919,-302.533,0.385803,0.0,0.0
1960,489.75,20.0497,20.65,144.704,97.9896,93.9571,0.00629152,0.0572749,20.9919,-302.543,0.370341,0.0,0.0
1965,491,20.4468,20.6378,146.453,97.9969,94.0699,0.00627391,0.0571852,20.9919,-302.543,0.360414,0.0,0.0
1970,492.25,20.3236,20.6555,142.958,98.0093,94.2428,0.00625321,0.0571472,20.9926,-302.543,0.345356,0.0,0.0
1975,493.5,20.023,20.4172,143.61,97.9985,93.9971,0.00624315,0.0571564,20.9926,-302.553,0.367381,0.0,0.0
1980,494.75,19.8209,20.4562,142.926,98.0009,93.9252,0.00624523,0.0572314,20.9924,-302.563,0.374344,0.0,0.0
1985,496,19.8297,20.7635,142.776,98.0065,93.9192,0.00625177,0.0572953,20.9923,-302.563,0.375408,0.0,0.0
1990,497.25,19.6704,20.8938,143.318,98.0133,94.0755,0.00623595,0.0572679,20.9922,-302.583,0.361373,0.0,0.0
1995,498.5,20.1755,20.4938,141.44,98.0173,94.0908,0.00617025,0.0572298,20.9922,-302.573,0.360298,0.0,0.0
2000,499.75,19.924,20.2712,142.83,98.0269,94.3279,0.00605495,0.0574176,20.9922,-302.613,0.338982,0.0,0.0
2005,501,19.5009,20.4168,141.62,98.0373,93.918,0.00592891,0.0575717,20.9922,-302.803,0.3783,0.0,0.0
2010,502.25,20.1343,20.6315,141.909,98.0405,94.1133,0.0058582,0.0577421,20.9922,-302.613,0.360274,0.0,0.0
2015,503.5,19.7873,20.4923,141.584,98.0449,94.1444,,0.0578774,,-302.663,0.357759,0.0,0.0
2020,504.75,19.7118,20.2592,144.153,98.0505,94.1763,,0.0580403,,-302.633,0.355276,0.0,0.0
2025,506,19.7756,20.2773,144.15,98.0646,94.3096,,,,-302.623,0.344077,0.0,0.0
2030,507.25,19.9649,20.6259,143.489,98.067,94.032,,,,-302.613,0.370266,0.0,0.0
2035,508.5,20.1772,20.4577,141.255,98.0674,94.0137,,,,-302.633,0.372018,0.0,0.0
2040,509.75,20.038,20.5474,145.833,98.0798,94.1593,,,,-302.623,0.359497,0.0,0.0
2045,511,20.1227,20.4653,141.059,98.0826,94.1031,,,,-302.633,0.36501,0.0,0.0
2050,512.25,19.5447,20.4864,142.491,98.0782,94.0895,,,,-302.633,0.36589,0.0,0.0
2055,513.5,19.996,20.6297,142.208,98.1014,94.35,,,,-302.633,0.343609,0.0,0.0
2056,513.75,20.3044,20.559,139.125,98.1038,94.2308,,,,-302.623,0.354966,0.0,0.0