File: 01_Data/Asphalt_Shingle/Cone/Asphalt_Shingle_Cone_HF25Scan_220415_R3.csv
Names,Time,Stack TC,Smoke TC,Exh Press,Smoke Comp,Smoke Meas,CO Meter,CO2 Meter,O2 Meter,Sample Mass,Ext Coeff,Start Test,Flame Verif
Chan Gain,,500,500,1,1,1,1,1,1,1,1,1.0,1.0
Offset,,0,0,0.133554,0,0,0,0,0,0,0,0.0,0.0
Gain,,1,1,25.011,13.1255,13.9488,1,1,1,1.0009,1.00465,1.0,1.0
Units,sec,C,C,Pa,%,%,%,%,%,g,/m,,
Baseline,,20.2509,20.8088,143.072,99.2758,95.2132,0.000783376,0.0442448,21.0135,-834.056,0.36824,,
4,0.75,19.2391,20.238,144.799,99.1469,95.1035,0.000914798,0.0607746,20.9895,-300.691,0.366931,0.0,0.0
8,1.75,19.7024,19.4792,145.252,99.1421,94.9409,0.00088162,0.0603866,20.9894,-300.721,0.381585,0.0,0.0
12,2.75,18.9395,19.4619,145.959,99.1401,95.2601,0.00082759,0.0597429,20.9898,-300.751,0.351823,0.0,0.0
16,3.75,19.4353,19.9834,140.665,99.1332,95.0218,0.000776685,0.0589572,20.9912,-300.781,0.373298,0.0,0.0
20,4.75,19.3888,19.4784,143.168,99.1316,94.9703,0.000741198,0.0579299,20.9921,-300.781,0.377934,0.0,0.0
24,5.75,19.09,19.7111,138.93,99.116,95.0707,0.000722168,0.0570609,20.9935,-300.761,0.367228,0.0,0.0
28,6.75,19.2071,19.9935,144.24,99.1104,94.8396,0.000705077,0.0563564,20.9951,-300.781,0.388182,0.0,0.0
32,7.75,19.4294,20.1718,141.162,99.1144,95.2086,0.000670055,0.0556469,20.9963,-300.791,0.35431,0.0,0.0
36,8.75,19.9313,19.8478,142.114,99.1088,94.82,0.000626489,0.0548944,20.997,-300.781,0.389859,0.0,0.0
40,9.75,19.5988,20.0436,141.419,99.1056,95.055,0.000559989,0.0540564,20.9985,-300.781,0.367762,0.0,0.0
44,10.75,19.4155,20.0046,146.091,99.0976,95.4006,0.0004804,0.0532779,21.0003,-300.781,0.335061,0.0,0.0
48,11.75,19.1343,20.0908,142.238,99.0968,95.1265,0.000412496,0.0522576,21.0018,-300.791,0.360349,0.0,0.0
52,12.75,19.2127,20.0311,141.561,99.0896,95.1397,0.0003755,0.0512541,21.0033,-300.791,0.358487,0.0,0.0
56,13.75,19.6558,19.9473,140.214,99.0912,95.2308,0.000362829,0.0504922,21.0042,-300.791,0.350195,0.0,0.0
60,14.75,19.4461,19.6511,143.123,99.0768,95.1154,0.000412891,0.0501625,21.0049,-300.791,0.359594,0.0,0.0
64,15.75,19.3601,19.8672,139.519,99.0748,94.8719,0.000438567,0.0500803,21.0053,-300.801,0.382006,0.0,0.0
68,16.75,19.55,19.7565,142.436,99.0732,95.0779,0.000431689,0.0500893,21.0056,-300.801,0.362745,0.0,0.0
72,17.75,19.6072,20.1157,140.633,99.0623,95.0511,0.000403111,0.050117,21.0058,-300.801,0.364269,0.0,0.0
76,18.75,19.4224,20.0023,143.873,99.0579,95.1405,0.000382238,0.050001,21.0059,-300.801,0.355593,0.0,0.0
80,19.75,19.5426,19.8933,140.822,99.0539,95.2018,0.000359236,0.0497356,21.0059,-300.811,0.349561,0.0,0.0
84,20.75,19.4693,20.2055,144.556,99.0551,95.3129,0.000345677,0.0492773,21.0076,-300.811,0.339389,0.0,0.0
88,21.75,19.4972,20.0862,146.661,99.0435,95.2223,0.000336781,0.0488255,21.0086,-300.811,0.346743,0.0,0.0
92,22.75,19.7367,20.142,142.459,99.0335,94.7617,0.000335719,0.0481975,21.0094,-300.811,0.388583,0.0,0.0
96,23.75,19.3829,20.019,139.726,99.0319,95.0873,0.000346056,0.0476459,21.0098,-300.821,0.358207,0.0,0.0
100,24.75,19.6616,19.8574,145.221,99.0319,95.1337,0.000374169,0.0471289,21.0103,-300.821,0.353907,0.0,0.0
104,25.75,19.1137,20.2311,140.735,99.0231,94.9647,0.000425508,0.0465713,21.0112,-300.821,0.368792,0.0,0.0
108,26.75,19.7187,20.4684,145.541,99.0223,95.1205,0.000487604,0.0460841,21.0118,-300.821,0.354274,0.0,0.0
112,27.75,19.638,20.2087,142.037,99.0239,95.0524,0.000545583,0.0456188,21.0122,-300.831,0.36073,0.0,0.0
116,28.75,19.601,20.4647,143.095,99.0059,94.8987,0.000602047,0.0451922,21.0125,-300.841,0.373384,0.0,0.0
120,29.75,19.6053,19.6129,143.326,99.0047,94.9643,0.000669415,0.0448396,21.0127,-300.841,0.367191,0.0,0.0
124,30.75,19.6646,20.3475,143.259,99.0011,94.8034,0.00072228,0.0445317,21.0134,-300.841,0.381816,0.0,0.0
128,31.75,19.4516,20.1241,142.192,98.9983,94.5067,0.000742784,0.0442421,21.0139,-300.841,0.40919,0.0,0.0
132,32.75,19.3857,20.6104,143.876,98.9934,94.777,0.000735761,0.0439845,21.0144,-300.851,0.383592,0.0,0.0
136,33.75,19.5943,20.206,142.625,98.9874,94.8936,0.00070727,0.0438116,21.0142,-300.851,0.372218,0.0,0.0
140,34.75,19.9811,19.9599,144.326,98.9718,94.8583,0.000682152,0.0437358,21.0138,-300.861,0.374109,0.0,0.0
144,35.75,19.3136,20.0955,139.411,98.9918,94.7242,0.000669449,0.0436798,21.0143,-300.861,0.38836,0.0,0.0
148,36.75,19.7243,19.8366,140.882,98.9754,94.4539,0.000674733,0.0436774,21.0146,-300.861,0.412081,0.0,0.0
152,37.75,19.6817,20.4178,143.01,98.9682,94.3326,0.000688948,0.0436031,21.0144,-300.861,0.422766,0.0,0.0
156,38.75,19.4492,19.5433,141.904,98.9698,94.2491,0.000715341,0.0435544,21.0141,-300.861,0.430707,0.0,0.0
160,39.75,19.5783,20.2689,143.628,98.9654,94.1921,0.000752809,0.0435606,21.0141,-300.861,0.43565,0.0,0.0
164,40.75,20.0699,19.9773,143.066,98.965,94.4539,0.000806762,0.043575,21.014,-300.871,0.411154,0.0,0.0
168,41.75,19.7098,20.5718,141.378,98.961,94.2104,0.00085574,0.0435359,21.014,-300.881,0.433545,0.0,0.0
172,42.75,19.6413,19.9525,146.025,98.953,94.4667,0.000922572,0.0434375,21.014,-300.871,0.408892,0.0,0.0
176,43.75,19.325,20.2496,142.381,98.949,94.3224,0.000985228,0.0433921,21.014,-300.861,0.422008,0.0,0.0
180,44.75,19.7856,20.3016,144.169,98.9446,94.4416,0.00104337,0.0433292,21.014,-300.861,0.410487,0.0,0.0
184,45.75,20.1385,20.049,145.864,98.9438,94.3326,0.00108131,0.0432635,21.0144,-300.861,0.420591,0.0,0.0
188,46.75,19.7102,20.4084,142.764,98.941,94.5586,0.00110187,0.043179,21.0151,-300.861,0.399248,0.0,0.0
192,47.75,19.9836,20.1414,142.067,98.937,94.3636,0.00112127,0.0430993,21.0155,-300.871,0.41708,0.0,0.0
196,48.75,19.5997,20.1082,142.699,98.9442,94.2287,0.00114544,0.0430227,21.0157,-300.871,0.430335,0.0,0.0
200,49.75,19.6469,20.3193,141.933,98.935,94.5863,0.00117987,0.0429694,21.0159,-300.881,0.396136,0.0,0.0
204,50.75,19.6238,20.2598,141.711,98.9318,94.104,0.00121688,0.0429688,21.016,-300.891,0.440902,0.0,0.0
208,51.75,20.1005,19.9244,148.948,98.9181,93.875,0.00125566,0.0429199,21.0161,-300.911,0.461162,0.0,0.0
212,52.75,19.5741,19.902,138.626,98.9201,94.0895,0.00127949,0.0428636,21.0162,-300.911,0.441222,0.0,0.0
216,53.75,19.8794,20.4576,142.741,98.9165,94.0818,0.00128574,0.0428266,21.0162,-300.901,0.441618,0.0,0.0
220,54.75,19.8347,20.3462,141.972,98.9193,94.0657,0.00125895,0.0427451,21.0162,-300.911,0.443383,0.0,0.0
224,55.75,19.4708,20.421,141.595,98.9173,94.2006,0.00118843,0.0426953,21.0156,-300.911,0.430572,0.0,0.0
228,56.75,19.5919,20.5055,140.962,98.9201,94.3232,0.00110142,0.0426735,21.0151,-300.901,0.41936,0.0,0.0
232,57.75,20.1563,20.3384,142.309,98.9081,94.0167,0.00103076,0.0426393,21.0148,-300.901,0.446971,0.0,0.0
236,58.75,19.6923,20.351,141.174,98.9033,93.4897,0.000939466,0.0425858,21.0145,-300.891,0.496082,0.0,0.0
240,59.75,20.0429,20.5846,144.766,98.9041,93.9788,0.000855008,0.0425677,21.0143,-300.901,0.450167,0.0,0.0
244,60.75,19.9216,20.2631,140.553,98.9061,93.9439,0.000789906,0.0425041,21.0142,-300.911,0.453619,0.0,0.0
248,61.75,19.9043,20.2275,147.974,98.9205,93.8507,0.000731842,0.0424211,21.0145,-300.921,0.463653,0.0,0.0
252,62.75,19.4581,20.4234,139.636,98.9366,94.3402,0.000684584,0.0425363,21.015,-300.921,0.419231,0.0,0.0
256,63.75,19.6334,20.3088,143.484,98.965,94.3321,0.000640042,0.0426542,21.0153,-300.941,0.422521,0.0,0.0
260,64.75,20.2431,20.6193,143.706,98.9838,93.7102,0.000607748,0.0428348,21.0155,-300.931,0.482491,0.0,0.0
264,65.75,19.8918,20.6263,142.848,99.0063,94.1593,0.000595215,0.0431715,21.0157,-300.921,0.442354,0.0,0.0
268,66.75,19.7655,20.3224,143.602,99.0195,93.9307,0.000595647,0.043641,21.0157,-300.921,0.464952,0.0,0.0
272,67.75,20.1027,20.8309,144.134,99.0471,94.0125,0.00060026,0.0442171,21.0152,-300.931,0.459746,0.0,0.0
276,68.75,19.989,20.4548,144.183,99.0639,94.399,0.000609779,0.0449323,21.014,-300.921,0.425085,0.0,0.0
280,69.75,19.7845,20.6267,146.019,99.0748,94.0584,0.000624396,0.0458112,21.0129,-300.971,0.457896,0.0,0.0
284,70.75,19.9936,20.8751,141.429,99.0864,93.926,0.00064914,0.0468335,21.0111,-300.941,0.471343,0.0,0.0
288,71.75,19.9159,20.8279,143.149,99.0904,93.68,0.000684122,0.0477598,21.0096,-300.961,0.494814,0.0,0.0
292,72.75,19.8767,20.5793,142.54,99.1024,93.5387,0.000727537,0.04854,21.0084,-300.951,0.509188,0.0,0.0
296,73.75,20.0591,20.3823,140.197,99.112,93.8941,0.00077672,0.0491977,21.0071,-300.951,0.476618,0.0,0.0
300,74.75,20.1003,20.8907,141.251,99.1196,93.8179,0.000828143,0.0498482,21.0062,-300.971,0.484449,0.0,0.0
304,75.75,19.8917,20.6368,142.75,99.1232,93.6915,0.000884946,0.0506967,21.0048,-300.971,0.496655,0.0,0.0
308,76.75,19.8892,20.9239,138.952,99.1385,93.8,0.000952984,0.0517314,21.0033,-300.971,0.487804,0.0,0.0
312,77.75,20.089,20.7217,141.171,99.1465,94.1363,0.00103498,0.0529114,21.0021,-300.971,0.456977,0.0,0.0
316,78.75,20.2048,20.8814,140.391,99.1501,93.1811,0.00112055,0.05498,20.9996,-301.021,0.54718,0.0,0.0
320,79.75,20.6125,20.9948,140.771,99.1617,94.579,0.00118828,0.0577316,20.9956,-301.071,0.416981,0.0,0.0
324,80.75,20.2769,21.1491,140.445,99.1469,93.6047,0.00122809,0.0606941,20.9906,-301.021,0.506927,0.0,0.0
328,81.75,20.1848,21.1147,142.168,99.1521,92.9853,0.00124935,0.0628808,20.9867,-301.031,0.565897,0.0,0.0
332,82.75,20.3382,20.7948,141.854,99.1513,93.4918,0.0012633,0.0645848,20.9833,-301.041,0.517946,0.0,0.0
336,83.75,20.535,21.2433,141.943,99.1493,92.961,0.00131012,0.0660457,20.9812,-301.061,0.567947,0.0,0.0
340,84.75,20.1355,20.7212,141.302,99.1597,93.3799,0.00138514,0.0673904,20.9789,-301.041,0.529253,0.0,0.0
344,85.75,20.6965,21.4017,142.847,99.1481,93.9635,0.00151767,0.0691627,20.9777,-301.051,0.473313,0.0,0.0
348,86.75,20.7064,21.4965,141.635,99.1489,94.1806,0.00165255,0.0709622,20.975,-301.061,0.453047,0.0,0.0
352,87.75,20.6945,21.1768,141.708,99.1545,94.565,0.00177155,0.0746441,20.969,-301.101,0.41765,0.0,0.0
356,88.75,20.6309,20.9813,141.829,99.1501,94.7378,0.00186053,0.0789603,20.9604,-301.121,0.401166,0.0,1.0
360,89.75,20.9434,21.4832,137.541,99.138,94.8345,0.00191891,0.083799,20.9512,-301.161,0.391114,0.0,1.0
364,90.75,20.9937,21.7184,141.039,99.1425,94.9622,0.00195481,0.0889182,20.9432,-301.161,0.379646,0.0,1.0
368,91.75,20.8696,21.5186,139.923,99.1413,94.3875,0.00198122,0.0942608,20.936,-301.191,0.433032,0.0,1.0
372,92.75,20.6746,21.5995,141.48,99.128,94.6659,0.00200969,0.0991214,20.9286,-301.181,0.405903,0.0,1.0
376,93.75,21.0499,21.3924,137.882,99.1208,94.2389,0.00204868,0.103496,20.9226,-301.191,0.445098,0.0,1.0
380,94.75,20.9791,21.3186,136.758,99.1132,94.0061,0.0020974,0.108319,20.9155,-301.181,0.466224,0.0,1.0
384,95.75,20.8078,21.111,138.822,99.1064,93.0909,0.00215723,0.11319,20.9077,-301.201,0.551837,0.0,1.0
388,96.75,21.4347,22.0619,137.634,99.1088,92.0637,0.00227731,0.118032,20.8989,-301.201,0.649832,0.0,1.0
392,97.75,21.2986,22.362,138.72,99.086,89.696,0.00247509,0.123542,20.8895,-301.231,0.877411,0.0,0.0
396,98.75,21.6805,22.3091,134.447,99.0804,87.1657,0.00275092,0.129347,20.8781,-301.261,1.12909,0.0,0.0
400,99.75,21.9614,21.8735,136.605,99.0788,85.4153,0.00306462,0.135378,20.8652,-301.281,1.30772,0.0,0.0
404,100.75,21.8977,22.3808,135.947,99.0772,84.2988,0.00344444,0.14258,20.8519,-301.311,1.42354,0.0,0.0
408,101.75,22.4769,22.9855,137.11,99.0704,79.9138,0.00386653,0.150105,20.8356,-301.331,1.8937,0.0,0.0
412,102.75,22.4655,22.8681,133.807,99.0812,78.5261,0.00437202,0.158551,20.818,-301.361,2.04904,0.0,0.0
416,103.75,22.4355,23.1452,135.562,99.0603,76.232,0.0047436,0.167571,20.802,-301.382,2.30847,0.0,0.0
420,104.75,23.3191,23.8711,134.729,99.0519,76.4483,0.00524768,0.177407,20.7859,-301.422,2.28276,0.0,0.0
424,105.75,23.3443,23.9674,136.463,99.0752,75.4637,0.00569657,0.188865,20.7689,-301.472,2.39907,0.0,0.0
428,106.75,23.6774,24.3214,132.775,99.0611,74.3548,0.00595949,0.20055,20.7537,-301.502,2.52828,0.0,0.0
432,107.75,22.9449,24.8742,133.653,99.0708,71.5461,0.00621941,0.210772,20.739,-301.562,2.86848,0.0,0.0
436,108.75,25.6679,25.1409,133.538,99.08,70.0183,0.006381,0.218642,20.7264,-301.602,3.05952,0.0,0.0
440,109.75,24.8517,25.5615,130.281,99.0796,72.3362,0.00644907,0.223806,20.7183,-301.652,2.77248,0.0,0.0
444,110.75,25.7674,25.8037,134.069,99.0808,70.2248,0.00643796,0.225402,20.7137,-301.682,3.03365,0.0,0.0
448,111.75,25.9219,25.9294,134.264,99.1052,74.3927,0.00637404,0.223651,20.7131,-301.722,2.52771,0.0,0.0
452,112.75,25.6263,26.8333,134.732,99.104,76.3316,0.00624688,0.219278,20.7199,-301.762,2.30085,0.0,0.0
456,113.75,26.5981,26.7595,136.366,99.1092,78.309,0.00611344,0.212963,20.7283,-301.792,2.07593,0.0,0.0
460,114.75,26.3344,27.1382,133.02,99.1124,75.4535,0.005981,0.206584,20.7393,-301.842,2.40358,0.0,0.0
464,115.75,26.7798,27.3346,133.862,99.1108,76.8131,0.00590287,0.200986,20.7468,-301.872,2.24605,0.0,0.0
468,116.75,26.3856,28.0211,136.744,99.1272,78.7112,0.00587683,0.197396,20.7517,-301.892,2.03238,0.0,0.0
472,117.75,26.3183,28.4479,133.012,99.1256,75.1457,0.00592426,0.195909,20.7543,-301.932,2.44077,0.0,0.0
476,118.75,26.5686,28.6796,134.877,99.1364,77.5951,0.00599046,0.195843,20.7554,-301.962,2.15906,0.0,0.0
480,119.75,26.9991,28.3085,136.734,99.1465,75.6463,0.00607845,0.196679,20.7545,-302.012,2.38411,0.0,0.0
484,120.75,27.5564,28.1951,137.789,99.1629,76.0341,0.00621063,0.198365,20.7517,-302.052,2.34051,0.0,0.0
488,121.75,27.7934,28.3266,130.402,99.1733,72.7121,0.0064134,0.201787,20.7427,-302.082,2.73514,0.0,0.0
492,122.75,28.3224,28.6024,137.153,99.1769,73.4966,0.00669462,0.206265,20.7302,-302.132,2.64088,0.0,0.0
496,123.75,27.8763,29.2974,131.159,99.1841,70.0256,0.00701612,0.212475,20.717,-302.162,3.06787,0.0,0.0
500,124.75,28.5194,29.4644,131.884,99.2057,69.9685,0.00725509,0.21936,20.7062,-302.212,3.07697,0.0,0.0
504,125.75,28.5517,29.8681,128.226,99.2218,68.6012,0.00752882,0.225947,20.6966,-302.252,3.25232,0.0,0.0
508,126.75,29.0135,29.7896,131.511,99.247,69.8749,0.00775115,0.232374,20.6863,-302.302,3.09244,0.0,0.0
512,127.75,29.1695,30.3604,127.666,99.2626,72.3617,0.00791298,0.238898,20.6769,-302.372,2.78564,0.0,0.0
516,128.75,29.7023,30.3682,138.092,99.2806,72.6712,0.00803763,0.245109,20.6663,-302.402,2.74963,0.0,0.0
520,129.75,29.6113,31.2463,130.743,99.2951,70.8212,0.0081463,0.251032,20.6568,-302.462,2.97816,0.0,0.0
524,130.75,29.8742,30.8027,129.118,99.3255,69.8791,0.00825263,0.257643,20.6467,-302.503,3.09887,0.0,0.0
528,131.75,30.5445,31.4847,127.209,99.3367,67.6115,0.00839272,0.264658,20.6351,-302.553,3.39059,0.0,0.0
532,132.75,30.888,31.9674,130.729,99.3764,65.8577,0.00860738,0.271027,20.6253,-302.623,3.62573,0.0,0.0
536,133.75,31.3183,32.4333,126.887,99.3832,64.6057,0.00887572,0.276913,20.6144,-302.683,3.79547,0.0,0.0
540,134.75,31.3006,32.4333,131.621,99.4036,66.2846,0.00913854,0.282719,20.6041,-302.723,3.57119,0.0,0.0
544,135.75,31.996,32.8419,128.938,99.4232,65.3286,0.00940823,0.287898,20.5934,-302.793,3.70097,0.0,0.0
548,136.75,32.0088,33.6939,128.124,99.4389,64.6045,0.00967267,0.293036,20.5839,-302.843,3.80058,0.0,0.0
552,137.75,32.632,34.0288,127.736,99.4641,68.9392,0.00991029,0.297111,20.5768,-302.913,3.2305,0.0,0.0
556,138.75,32.6587,33.9877,128.905,99.4789,61.9852,0.0101259,0.301028,20.5698,-302.963,4.16887,0.0,0.0
560,139.75,33.3787,34.6847,130.123,99.5314,66.4106,0.010323,0.305137,20.5626,-303.023,3.56578,0.0,0.0
564,140.75,33.5334,35.0308,128.112,99.5226,67.6881,0.01046,0.309813,20.554,-303.073,3.39708,0.0,0.0
568,141.75,34.1853,35.1418,130.543,99.5346,63.5573,0.0105176,0.313727,20.5465,-303.163,3.95308,0.0,0.0
572,142.75,34.1309,35.9579,125.279,99.5554,64.2426,0.010532,0.316772,20.541,-303.203,3.8604,0.0,0.0
576,143.75,34.7128,36.3177,130.656,99.5678,67.1743,0.0105305,0.319135,20.5369,-303.263,3.46824,0.0,0.0
580,144.75,35.368,36.6462,130.879,99.5935,61.5698,0.0105451,0.320787,20.5341,-303.333,4.23828,0.0,0.0
584,145.75,35.5452,36.75,131.638,99.6095,65.5925,0.0105902,0.322127,20.5316,-303.393,3.68193,0.0,0.0
588,146.75,35.5403,37.4067,129.56,99.6127,63.3598,0.0106988,0.323492,20.5299,-303.453,3.98742,0.0,0.0
592,147.75,36.1826,37.5957,124.62,99.6255,65.6091,0.0108327,0.324073,20.5288,-303.493,3.68112,0.0,0.0
596,148.75,36.5275,37.9119,128.169,99.6407,64.7207,0.0109018,0.323739,20.5286,-303.573,3.80261,0.0,0.0
600,149.75,36.8332,38.4215,127.068,99.6516,64.4031,0.010922,0.322595,20.5302,-303.634,3.84692,0.0,0.0
604,150.75,36.8566,38.6373,127.164,99.66,63.7906,0.0108544,0.320836,20.5338,-303.694,3.93189,0.0,0.0
608,151.75,37.057,39.0282,127.794,99.6688,66.7725,0.0107163,0.319032,20.5385,-303.744,3.53005,0.0,0.0
612,152.75,37.2116,39.2706,130.876,99.6772,64.1869,0.0105819,0.316909,20.5415,-303.804,3.87883,0.0,0.0
616,153.75,37.7373,39.8161,128.71,99.6776,63.4287,0.0103144,0.314803,20.5442,-303.854,3.98357,0.0,0.0
620,154.75,38.0161,39.8263,131.22,99.688,64.696,0.0100462,0.312162,20.5476,-303.924,3.81016,0.0,0.0
624,155.75,37.8263,39.9124,128.735,99.696,67.6541,0.00979524,0.309271,20.5526,-303.974,3.41686,0.0,0.0
628,156.75,38.6455,40.2804,124.366,99.7072,69.284,0.00951113,0.306668,20.5582,-304.054,3.20805,0.0,0.0
632,157.75,38.1807,40.6949,126.677,99.7084,66.6673,0.00928147,0.304872,20.5619,-304.094,3.54744,0.0,0.0
636,158.75,38.9498,40.9118,126.684,99.7152,68.3075,0.00909018,0.30381,20.5643,-304.154,3.33385,0.0,0.0
640,159.75,39.0511,41.068,128.417,99.7197,68.4318,0.00895114,0.303335,20.5653,-304.204,3.31822,0.0,0.0
644,160.75,38.7877,41.2783,129.37,99.7205,67.3646,0.00885369,0.30336,20.5655,-304.254,3.45681,0.0,0.0
648,161.75,38.9898,41.1423,131.636,99.7305,65.5516,0.00878221,0.303749,20.5651,-304.314,3.69812,0.0,0.0
652,162.75,38.9255,41.6895,127.595,99.7337,67.8541,0.00872706,0.304135,20.5649,-304.364,3.39417,0.0,0.0
656,163.75,39.2752,41.6993,128.067,99.7401,70.3406,0.00866965,0.304368,20.5649,-304.424,3.07758,0.0,0.0
660,164.75,39.7427,41.9191,129.357,99.7449,71.9897,0.00860183,0.30407,20.5655,-304.484,2.87378,0.0,0.0
664,165.75,39.8019,41.4453,127.79,99.7393,68.5267,0.0085014,0.303875,20.5667,-304.544,3.30774,0.0,0.0
668,166.75,39.8181,42.1712,130.499,99.7405,67.4689,0.00840039,0.303725,20.5675,-304.594,3.44495,0.0,0.0
672,167.75,39.958,42.186,129.818,99.7409,68.1457,0.00833057,0.303155,20.5684,-304.644,3.35701,0.0,0.0
676,168.75,40.105,42.5722,128.569,99.7409,68.6425,0.00827883,0.301926,20.5698,-304.704,3.293,0.0,0.0
680,169.75,40.0481,42.4048,128.466,99.7473,69.4185,0.00820732,0.300211,20.5726,-304.765,3.1945,0.0,0.0
684,170.75,40.4065,42.8149,133.046,99.7409,69.7974,0.00807987,0.298509,20.5765,-304.815,3.14596,0.0,0.0
688,171.75,40.6925,42.7273,130.175,99.7417,69.9651,0.00789849,0.296246,20.5809,-304.865,3.12488,0.0,0.0
692,172.75,40.4997,43.1518,131.395,99.7517,70.8348,0.00769449,0.293883,20.5861,-304.925,3.0169,0.0,0.0
696,173.75,40.4056,42.7096,130.224,99.7341,69.5756,0.00752756,0.291394,20.5913,-304.975,3.17341,0.0,0.0
700,174.75,40.5252,43.177,132.421,99.7345,71.7262,0.00741832,0.288587,20.5948,-305.025,2.90517,0.0,0.0
704,175.75,40.701,43.0003,133.041,99.7313,70.7594,0.00729265,0.285498,20.6002,-305.055,3.02447,0.0,0.0
708,176.75,40.5639,43.9525,134.617,99.7237,71.1234,0.00714303,0.282097,20.6052,-305.115,2.97859,0.0,0.0
712,177.75,40.699,43.1554,132.591,99.7217,72.6009,0.00705534,0.279614,20.6101,-305.145,2.79721,0.0,0.0
716,178.75,41.0895,43.2649,133.532,99.7209,73.3455,0.00692486,0.27597,20.6174,-305.195,2.70722,0.0,0.0
720,179.75,41.145,43.3337,130.405,99.7104,73.6728,0.00679761,0.272877,20.6221,-305.245,2.66706,0.0,0.0
724,180.75,40.8681,43.8906,132.094,99.7032,72.5541,0.00662016,0.269818,20.6286,-305.295,2.80127,0.0,0.0
728,181.75,41.0016,43.6065,134.341,99.6992,73.3544,0.00644584,0.26651,20.6348,-305.345,2.70424,0.0,0.0
732,182.75,40.9728,43.6074,134.764,99.6756,74.0368,0.0062939,0.264144,20.6406,-305.385,2.62055,0.0,0.0
736,183.75,40.7488,43.5859,131.449,99.6632,74.3556,0.00619187,0.26118,20.6462,-305.425,2.58158,0.0,0.0
740,184.75,40.7761,43.5909,135.319,99.6604,74.2241,0.00612715,0.257794,20.6521,-305.455,2.59693,0.0,0.0
744,185.75,41.0197,43.4195,130.325,99.6448,74.6689,0.00608109,0.254675,20.6584,-305.505,2.54289,0.0,0.0
748,186.75,41.0605,43.4752,133.732,99.6395,75.1133,0.00603113,0.251661,20.6641,-305.545,2.49014,0.0,0.0
752,187.75,40.5676,43.8701,127.572,99.6195,75.6076,0.005981,0.248636,20.6702,-305.585,2.43057,0.0,0.0
756,188.75,40.4672,43.8175,131.959,99.6055,74.6144,0.00594285,0.24536,20.676,-305.635,2.54586,0.0,0.0
760,189.75,40.649,43.678,131.557,99.5903,76.006,0.00593484,0.241611,20.6816,-305.655,2.38166,0.0,0.0
764,190.75,40.5721,43.8136,137.885,99.5819,76.1993,0.00596296,0.237584,20.6874,-305.705,2.35854,0.0,0.0
768,191.75,40.5355,43.6241,135.419,99.5522,77.9667,0.00600127,0.233439,20.6945,-305.745,2.15384,0.0,0.0
772,192.75,40.87,43.34,131.27,99.5454,77.189,0.00600457,0.229451,20.7027,-305.775,2.24159,0.0,0.0
776,193.75,40.5928,43.3991,134.601,99.5226,77.6858,0.00594896,0.225185,20.7097,-305.816,2.18303,0.0,0.0
780,194.75,40.3293,43.2729,134.043,99.5018,78.6601,0.00588262,0.220794,20.7175,-305.846,2.07134,0.0,0.0
784,195.75,40.5085,43.2956,133.661,99.4777,78.7219,0.00576741,0.216746,20.7244,-305.876,2.06229,0.0,0.0
788,196.75,40.3787,43.1379,135.157,99.4573,78.9509,0.00571181,0.212194,20.7314,-305.906,2.03488,0.0,0.0
792,197.75,39.8073,43.29,136.732,99.4248,79.1318,0.00562889,0.207529,20.7382,-305.926,2.01184,0.0,0.0
796,198.75,39.9459,43.2737,131.859,99.4124,79.563,0.00555008,0.203401,20.7452,-305.946,1.96284,0.0,0.0
800,199.75,39.7725,43.2865,134.799,99.3956,79.0241,0.00548057,0.198717,20.7526,-305.986,2.02125,0.0,0.0
804,200.75,40.2294,42.5059,136.186,99.37,80.9746,0.00543099,0.194496,20.7596,-306.016,1.8041,0.0,0.0
808,201.75,39.4231,43.1685,134.323,99.3459,81.4935,0.00540021,0.189568,20.7682,-306.046,1.74567,0.0,0.0
812,202.75,39.7609,42.1494,135.285,99.3343,82.619,0.00536501,0.184925,20.7757,-306.076,1.62376,0.0,0.0
816,203.75,39.1569,42.7291,136.207,99.3143,82.4002,0.00528034,0.180734,20.7838,-306.106,1.64535,0.0,0.0
820,204.75,38.9935,42.7314,132.545,99.2726,84.7887,0.0051403,0.176116,20.7922,-306.126,1.38983,0.0,0.0
824,205.75,38.665,42.4894,134.839,99.2498,83.6487,0.00496675,0.171158,20.8017,-306.146,1.5071,0.0,0.0
828,206.75,39.3736,41.5193,137.542,99.2242,84.1234,0.00480608,0.166469,20.8118,-306.176,1.45496,0.0,0.0
832,207.75,39.2305,41.6903,140.701,99.1885,85.5384,0.0046897,0.161799,20.8209,-306.176,1.30479,0.0,0.0
836,208.75,38.5055,42.2644,134.866,99.1817,85.397,0.00465531,0.157304,20.8293,-306.186,1.31876,0.0,0.0
840,209.75,38.4942,41.3555,138.548,99.1713,86.3672,0.00467794,0.153074,20.8363,-306.216,1.21828,0.0,0.0
844,210.75,37.9768,41.5658,139.506,99.1869,87.1704,0.00473795,0.149221,20.8417,-306.236,1.13809,0.0,0.0
848,211.75,38.3173,41.056,139.509,99.1885,87.608,0.00477267,0.145401,20.8475,-306.236,1.0941,0.0,0.0
852,212.75,37.5853,41.42,136.873,99.1961,87.9192,0.00475629,0.14135,20.8553,-306.266,1.06353,0.0,0.0
856,213.75,37.5472,40.8708,136.924,99.2162,88.5479,0.0047131,0.137354,20.8628,-306.276,1.00251,0.0,0.0
860,214.75,37.8661,40.5256,139.853,99.2146,89.3155,0.00467195,0.1336,20.8696,-306.286,0.926309,0.0,0.0
864,215.75,37.2356,40.9643,138.201,99.2338,88.9426,0.00464808,0.129862,20.8757,-306.306,0.964887,0.0,0.0
868,216.75,36.8841,40.5812,139.217,99.2414,90.2686,0.00463764,0.126385,20.8819,-306.306,0.835148,0.0,0.0
872,217.75,37.7078,39.8448,137.06,99.2374,90.4865,0.00462001,0.122864,20.8882,-306.326,0.813541,0.0,0.0
876,218.75,37.3078,39.8002,136.956,99.251,90.6751,0.0045832,0.119628,20.8937,-306.346,0.796402,0.0,0.0
880,219.75,36.4033,40.0483,138.121,99.2618,91.4771,0.00452053,0.116121,20.8997,-306.356,0.719759,0.0,0.0
884,220.75,36.6452,39.2181,137.475,99.2814,91.6929,0.00444786,0.112721,20.9053,-306.366,0.700734,0.0,0.0
888,221.75,36.5243,39.178,141.148,99.2863,91.9807,0.0043642,0.109924,20.9102,-306.376,0.673546,0.0,0.0
892,222.75,36.1598,39.2273,138.279,99.3015,92.0215,0.00428064,0.107247,20.915,-306.376,0.670983,0.0,0.0
896,223.75,35.9187,39.2776,138.518,99.3135,92.3702,0.00423801,0.104538,20.9185,-306.376,0.638725,0.0,0.0
900,224.75,35.9884,38.5658,140.146,99.3247,92.6473,0.0042199,0.101936,20.9214,-306.396,0.613319,0.0,0.0
904,225.75,35.5364,38.5862,138.582,99.3431,92.875,0.0042411,0.09943,20.9252,-306.396,0.593318,0.0,0.0
908,226.75,35.7598,37.8437,142.771,99.3556,93.2769,0.00426022,0.0970829,20.9285,-306.396,0.556371,0.0,0.0
912,227.75,35.2524,37.809,143.19,99.3712,93.3263,0.00426896,0.0947913,20.932,-306.416,0.553093,0.0,0.0
916,228.75,34.9667,37.6463,137.853,99.3856,93.7196,0.00427676,0.0924779,20.9354,-306.416,0.517308,0.0,0.0
920,229.75,34.3674,37.8413,141.98,99.3976,93.7898,0.00429257,0.0902973,20.9382,-306.426,0.511771,0.0,0.0
924,230.75,34.7584,37.4565,139.31,99.4152,93.9205,0.00431085,0.0883032,20.9406,-306.426,0.501062,0.0,0.0
928,231.75,34.5381,37.1203,138.764,99.4232,94.1802,0.00434711,0.086645,20.9434,-306.446,0.47744,0.0,0.0
932,232.75,34.0923,37.161,135.88,99.4417,94.2445,0.00438308,0.0847686,20.9462,-306.446,0.473061,0.0,0.0
936,233.75,34.0209,36.6566,139.488,99.4549,94.5586,0.00442214,0.0830718,20.9491,-306.456,0.444904,0.0,0.0
940,234.75,33.3762,36.4932,137.26,99.4737,94.6046,0.00447019,0.0816331,20.9521,-306.456,0.44229,0.0,0.0
944,235.75,33.6234,36.3378,143.36,99.4881,94.88,0.00452951,0.0800862,20.9553,-306.456,0.417948,0.0,0.0
948,236.75,33.3304,36.2667,144.743,99.5005,94.6425,0.00457974,0.078671,20.9581,-306.466,0.441138,0.0,0.0
952,237.75,33.2762,35.8479,140.193,99.5182,94.651,0.00460511,0.0773391,20.96,-306.476,0.441906,0.0,0.0
956,238.75,33.0744,35.5703,141.38,99.5326,95.1788,0.00459403,0.076097,20.962,-306.486,0.394173,0.0,0.0
960,239.75,33.0707,35.5144,139.825,99.5486,94.7915,0.00457265,0.0750209,20.9633,-306.486,0.431532,0.0,0.0
964,240.75,32.4697,35.0891,139.033,99.5558,94.677,0.00456305,0.0739468,20.9648,-306.496,0.442822,0.0,0.0
968,241.75,32.6183,35.09,141.464,99.5827,95.1712,0.00458105,0.0729909,20.9665,-306.496,0.399314,0.0,0.0
972,242.75,32.2832,35.1656,142.038,99.5903,95.0107,0.00461275,0.072093,20.9678,-306.496,0.414861,0.0,0.0
976,243.75,32.3167,34.6753,135.692,99.6031,95.055,0.00462659,0.0711363,20.9691,-306.496,0.41189,0.0,0.0
980,244.75,32.2307,34.7242,136.238,99.6199,95.2648,0.0046162,0.0701547,20.9701,-306.516,0.393943,0.0,0.0
984,245.75,32.1088,34.3331,138.458,99.6271,95.0622,0.00455826,0.0692718,20.9718,-306.526,0.413345,0.0,0.0
988,246.75,32.1678,34.1794,138.988,99.6355,94.9579,0.00447903,0.0684842,20.9728,-306.516,0.423762,0.0,0.0
992,247.75,31.7645,33.9207,140.355,99.6588,95.1188,0.0044067,0.0679227,20.9736,-306.526,0.410897,0.0,0.0
996,248.75,31.2713,34.2,145.662,99.6692,95.2359,0.00435803,0.0671525,20.9743,-306.536,0.400979,0.0,0.0
1000,249.75,31.1698,33.9804,140.17,99.6872,95.3189,0.00432998,0.0664582,20.9753,-306.536,0.394894,0.0,0.0
1004,250.75,31.15,33.8423,138.867,99.7092,95.2763,0.00432259,0.0659042,20.976,-306.536,0.400778,0.0,0.0
1008,251.75,30.897,33.8058,141.087,99.7149,95.2887,0.00433495,0.0651739,20.9772,-306.546,0.400131,0.0,0.0
1012,252.75,31.5049,33.0261,143.313,99.7297,95.3189,0.00435524,0.064377,20.9786,-306.536,0.398646,0.0,0.0
1016,253.75,30.5149,33.2268,139.394,99.7441,95.4023,0.00438226,0.0635847,20.9801,-306.536,0.39221,0.0,0.0
1020,254.75,29.9461,33.5215,140.852,99.7521,95.2827,0.00440976,0.0628439,20.9815,-306.546,0.403975,0.0,0.0
1024,255.75,30.734,32.2203,143.274,99.7681,95.2538,0.00443837,0.0622376,20.9828,-306.556,0.408068,0.0,0.0
1028,256.75,29.8567,32.8792,140.39,99.7737,95.6313,0.00447167,0.0615957,20.9845,-306.556,0.373699,0.0,0.0
1032,257.75,29.9782,32.552,142.702,99.7886,95.407,0.00451266,0.0609549,20.9859,-306.556,0.395705,0.0,0.0
1036,258.75,29.6821,32.4651,137.992,99.8018,95.3074,0.00455241,0.0602093,20.9869,-306.556,0.406079,0.0,0.0
1040,259.75,29.8777,32.0137,140.835,99.8218,95.1405,0.00460944,0.0595817,20.9875,-306.556,0.42329,0.0,0.0
1044,260.75,29.1632,32.2132,141.761,99.8362,95.224,0.00465382,0.0589748,20.9879,-306.556,0.416838,0.0,0.0
1048,261.75,29.6528,31.3943,141.178,99.8462,95.0537,0.00467273,0.0584613,20.9882,-306.556,0.433494,0.0,0.0
1052,262.75,29.5155,31.484,142.034,99.851,94.9149,0.00466969,0.058026,20.9886,-306.566,0.446794,0.0,0.0
1056,263.75,29.0785,31.249,141.674,99.8675,95.6854,0.00466564,0.0576859,20.9891,-306.576,0.376993,0.0,0.0
1060,264.75,29.0369,31.1835,137.113,99.8731,95.1507,0.00467618,0.0572309,20.9895,-306.566,0.426869,0.0,0.0
1064,265.75,28.756,30.9633,143.047,99.8979,95.1814,0.004693,0.0568318,20.9897,-306.566,0.426222,0.0,0.0
1068,266.75,28.8791,30.8789,142.138,99.8955,95.4083,0.00473941,0.0565354,20.9898,-306.586,0.405027,0.0,0.0
1072,267.75,28.105,30.3415,141.422,99.9023,95.2584,0.00479641,0.0562191,20.9899,-306.576,0.41948,0.0,0.0
1076,268.75,27.9222,30.5654,141.96,99.9119,95.0673,0.00487587,0.0559348,20.9906,-306.586,0.438028,0.0,0.0
1080,269.75,28.1893,30.2278,140.799,99.9175,95.181,0.0049568,0.0556737,20.9912,-306.596,0.427994,0.0,0.0
1084,270.75,28.3623,30.4938,141.071,99.9219,95.1678,0.00502098,0.0554454,20.9916,-306.586,0.429603,0.0,0.0
1088,271.75,27.8912,30.2665,138.394,99.9352,95.2252,0.0050605,0.0552712,20.9919,-306.586,0.425449,0.0,0.0
1092,272.75,27.7701,30.4543,140.594,99.938,95.2444,0.00508015,0.055139,20.9927,-306.596,0.423923,0.0,0.0
1096,273.75,27.757,29.9407,142.186,99.9444,95.1482,0.00507897,0.0550349,20.9934,-306.586,0.433395,0.0,0.0
1100,274.75,27.7835,29.4756,140.277,99.9536,95.1984,0.00505239,0.055005,20.994,-306.596,0.429556,0.0,0.0
1104,275.75,27.0276,29.6048,138.384,99.954,95.3372,0.00499633,0.0550387,20.9944,-306.586,0.416754,0.0,0.0
1108,276.75,27.665,29.8611,140.155,99.9524,95.3257,0.00492439,0.0551654,20.9944,-306.586,0.417675,0.0,0.0
1112,277.75,27.4134,29.2169,141.172,99.9544,95.5871,0.00485623,0.0556384,20.9936,-306.596,0.393722,0.0,0.0
1116,278.75,27.4735,29.5677,138.736,99.96,95.4355,0.00481299,0.056412,20.9926,-306.596,0.408198,0.0,0.0
1120,279.75,27.3451,29.1988,140.388,99.9628,95.4764,0.0048003,0.057383,20.9919,-306.606,0.404673,0.0,0.0
1124,280.75,27.2211,29.1473,141.575,99.9696,95.4951,0.00482685,0.0581932,20.991,-306.616,0.403545,0.0,0.0
1128,281.75,27.3544,29.3135,138.862,99.9648,95.6139,0.0048833,0.0588867,20.99,-306.616,0.392168,0.0,0.0
1132,282.75,26.5985,28.8305,145.057,99.9656,95.3538,0.00495624,0.0593862,20.9894,-306.606,0.416244,0.0,0.0
1136,283.75,26.4258,28.2398,140.813,99.966,95.4892,0.00501946,0.0597036,20.9891,-306.616,0.403777,0.0,0.0
1140,284.75,26.167,28.141,140.642,99.9732,95.7744,0.00508919,0.0598102,20.9888,-306.616,0.37813,0.0,0.0
1144,285.75,26.0566,28.3485,138.846,99.9856,95.2997,0.00513135,0.059759,20.9894,-306.616,0.423007,0.0,0.0
1148,286.75,26.3042,28.278,140.311,99.9712,95.3065,0.00514644,0.0596172,20.9898,-306.616,0.421106,0.0,0.0
1152,287.75,26.1304,27.7521,142.11,99.9712,95.6543,0.0051319,0.059409,20.9901,-306.626,0.389006,0.0,0.0
1156,288.75,26.0934,27.6384,140.322,99.9736,95.679,0.00510705,0.0591172,20.9902,-306.626,0.386943,0.0,0.0
1160,289.75,26.0964,27.8311,145.469,99.9696,95.5287,0.00510063,0.0588328,20.9903,-306.626,0.400442,0.0,0.0
1164,290.75,25.7392,28.1131,143.839,99.9652,95.6599,0.00512588,0.0584724,20.9904,-306.616,0.387966,0.0,0.0
1168,291.75,25.6519,27.6329,138.236,99.9744,95.4394,0.00517745,0.0580998,20.9909,-306.626,0.409116,0.0,0.0
1172,292.75,25.2924,27.0556,144.024,99.9684,95.9268,0.00523978,0.0576776,20.9916,-306.626,0.363695,0.0,0.0
1176,293.75,25.8898,27.3462,139.618,99.9692,96.1039,0.00530471,0.0572339,20.992,-306.636,0.347511,0.0,0.0
1180,294.75,25.2217,27.104,140.449,99.9672,95.6135,0.0053622,0.0568595,20.9923,-306.636,0.392419,0.0,0.0
1184,295.75,25.6153,26.9726,143.109,99.9664,95.6126,0.00539117,0.0565793,20.9924,-306.636,0.392426,0.0,0.0
1188,296.75,25.5689,26.7694,138.737,99.962,95.4372,0.0053921,0.056298,20.9925,-306.646,0.408217,0.0,0.0
1192,297.75,25.4244,26.8859,140.67,99.9612,95.5722,0.00538357,0.0561063,20.9925,-306.646,0.395696,0.0,0.0
1196,298.75,24.8731,26.6655,140.547,99.96,95.7386,0.00537032,0.0559633,20.9928,-306.626,0.380255,0.0,0.0
1200,299.75,25.2586,26.5515,141.917,99.9576,95.4202,0.00535743,0.0558695,20.9935,-306.636,0.409402,0.0,0.0
1204,300.75,24.8764,26.8859,139.781,99.946,95.8225,0.00534798,0.0557592,20.994,-306.636,0.371303,0.0,0.0
1208,301.75,25.0192,26.6366,142.087,99.9456,95.3959,0.00535287,0.0556484,20.9943,-306.626,0.410584,0.0,0.0
1212,302.75,24.4921,26.0087,138.933,99.942,95.8782,0.00536051,0.0555654,20.9951,-306.666,0.365823,0.0,0.0
1216,303.75,25.0528,26.5931,141.577,99.95,95.7816,0.00534805,0.0554725,20.9959,-306.656,0.375415,0.0,0.0
1220,304.75,24.9044,25.976,140.905,99.934,95.8667,0.00529083,0.0553942,20.9957,-306.656,0.366172,0.0,0.0
1224,305.75,24.7024,26.3173,141.824,99.9384,95.8825,0.00520267,0.0553043,20.9954,-306.656,0.365114,0.0,0.0
1228,306.75,24.5565,25.9433,142.035,99.9175,95.665,0.00509458,0.0552147,20.9953,-306.636,0.383292,0.0,0.0
1232,307.75,24.8073,25.6873,140.213,99.9255,95.8182,0.00501317,0.0552078,20.9951,-306.636,0.369893,0.0,0.0
1236,308.75,24.8431,25.8891,138.545,99.9139,95.7378,0.00496977,0.0552032,20.9951,-306.636,0.376271,0.0,0.0
1240,309.75,24.5812,26.0409,145.033,99.9151,95.6756,0.00498887,0.0552002,20.995,-306.636,0.3821,0.0,0.0
1244,310.75,23.8874,25.7217,143.012,99.9067,95.5543,0.00504853,0.0551252,20.995,-306.646,0.39254,0.0,0.0
1248,311.75,24.5291,25.7701,139.858,99.9019,95.5602,0.00514531,0.05498,20.995,-306.646,0.391567,0.0,0.0
1252,312.75,24.1633,25.6129,141.772,99.9123,95.9072,0.00523543,0.0548992,20.9949,-306.646,0.360548,0.0,0.0
1256,313.75,24.38,25.7706,143.239,99.8803,95.6343,0.00527902,0.0549597,20.9949,-306.656,0.382831,0.0,0.0
1260,314.75,24.4373,25.5889,142.416,99.8771,95.5696,0.00529344,0.0550783,20.9949,-306.656,0.388511,0.0,0.0
1264,315.75,24.3918,26.1504,143.134,99.8867,95.4934,0.00526415,0.0551401,20.9949,-306.666,0.39639,0.0,0.0
1268,316.75,24.5598,25.7676,139.143,99.8695,95.5313,0.00525403,0.0551588,20.9949,-306.686,0.391374,0.0,0.0
1272,317.75,24.507,25.9352,146.178,99.8546,95.7033,0.00527284,0.0551224,20.9949,-306.686,0.374216,0.0,0.0
1276,318.75,24.3019,25.6216,138.782,99.8402,95.7246,0.00533253,0.0550984,20.9947,-306.686,0.370983,0.0,0.0
1280,319.75,24.208,25.5294,139.993,99.853,95.5011,0.00540188,0.0551097,20.9946,-306.686,0.392713,0.0,0.0
1284,320.75,24.1177,25.5176,143.991,99.8354,95.9791,0.00547839,0.0551389,20.9945,-306.686,0.347154,0.0,0.0
1288,321.75,23.8598,25.2329,144.227,99.8318,95.7033,0.00554277,0.0552554,20.9944,-306.686,0.3722,0.0,0.0
1292,322.75,24.3879,24.6523,141.935,99.8198,95.5066,0.00560252,0.0552832,20.9944,-306.686,0.389267,0.0,0.0
1296,323.75,24.1831,24.585,145.295,99.821,95.7339,0.00566044,0.0553258,20.9943,-306.686,0.368424,0.0,0.0
1300,324.75,23.6349,25.274,140.716,99.8066,95.4236,0.00570835,0.0554113,20.9943,-306.716,0.395763,0.0,0.0
1304,325.75,24.3759,25.2292,146.096,99.799,95.7216,0.00573985,0.055483,20.9943,-306.686,0.367615,0.0,0.0
1308,326.75,23.7342,24.958,143.692,99.8022,95.5615,0.00574749,0.0553838,20.9943,-306.696,0.382647,0.0,0.0
1312,327.75,24.1133,24.8264,145.581,99.7874,95.9102,0.00573405,0.055343,20.9951,-306.706,0.349244,0.0,0.0
1316,328.75,23.8383,24.7811,139.588,99.7725,95.9744,0.00569273,0.0554138,20.9956,-306.706,0.342031,0.0,0.0
1320,329.75,24.0773,24.8825,145.121,99.7681,95.679,0.00564968,0.0554602,20.9959,-306.706,0.368811,0.0,0.0
1324,330.75,23.5691,24.6391,142.844,99.7621,95.6582,0.00560728,0.0555111,20.9961,-306.706,0.370202,0.0,0.0
1328,331.75,23.5213,24.8797,139.177,99.7517,95.4151,0.00558216,0.0555799,20.9963,-306.716,0.391703,0.0,0.0
1332,332.75,24.0119,24.5558,140.237,99.7453,95.5539,0.00557511,0.0556423,20.9964,-306.716,0.378329,0.0,0.0
1336,333.75,23.9757,24.6571,144.105,99.7489,95.5488,0.00560219,0.0556832,20.9962,-306.726,0.379118,0.0,0.0
1340,334.75,24.0047,24.9821,140.887,99.7325,95.5381,0.00563675,0.0557344,20.9955,-306.716,0.378649,0.0,0.0
1344,335.75,23.279,24.6271,143.35,99.7397,95.5058,0.00566889,0.0557104,20.9943,-306.716,0.382272,0.0,0.0
1348,336.75,23.809,24.6884,143.803,99.7185,95.5717,0.00570749,0.0556792,20.9935,-306.716,0.374308,0.0,0.0
1352,337.75,23.3545,24.2312,144.014,99.7189,95.5407,0.00575227,0.0556971,20.993,-306.726,0.37721,0.0,0.0
1356,338.75,23.3232,24.5806,141.4,99.7064,95.6335,0.00580219,0.0557404,20.9929,-306.736,0.367556,0.0,0.0
1360,339.75,23.6003,24.3816,140.669,99.7016,95.6275,0.00584191,0.0558278,20.9933,-306.736,0.367681,0.0,0.0
1364,340.75,23.2035,24.307,143.929,99.7008,95.6765,0.00586797,0.0559024,20.9937,-306.736,0.3631,0.0,0.0
1368,341.75,23.5977,24.234,139.162,99.692,95.5279,0.00584504,0.0559026,20.9938,-306.746,0.376015,0.0,0.0
1372,342.75,22.6415,24.2695,140.844,99.6808,95.8548,0.00580999,0.0559515,20.9938,-306.746,0.344916,0.0,0.0
1376,343.75,23.3578,24.2904,143.492,99.666,95.6156,0.00578822,0.0559765,20.9939,-306.756,0.365628,0.0,0.0
1380,344.75,23.5632,24.2766,138.969,99.654,95.3636,0.00579828,0.0559827,20.9937,-306.756,0.387823,0.0,0.0
1384,345.75,23.1233,24.1861,141.072,99.6367,95.2661,0.0058393,0.056004,20.993,-306.766,0.395313,0.0,0.0
1388,346.75,22.5544,23.8758,143.379,99.6343,95.2265,0.00591185,0.056018,20.9925,-306.766,0.398764,0.0,0.0
1392,347.75,23.2955,23.6342,143.212,99.6259,95.4006,0.0059784,0.056104,20.9922,-306.766,0.38192,0.0,0.0
1396,348.75,23.1094,24.0724,139.929,99.6203,95.5211,0.00603765,0.0561811,20.992,-306.766,0.370303,0.0,0.0
1400,349.75,23.3643,24.3573,144.077,99.6011,95.4581,0.00609435,0.0561549,20.9919,-306.766,0.374417,0.0,0.0
1404,350.75,22.9685,23.6805,139.31,99.5943,95.4917,0.00614632,0.0560786,20.9918,-306.766,0.37071,0.0,0.0
1408,351.75,23.5495,24.0181,143.773,99.5827,95.4619,0.00619976,0.0560855,20.9917,-306.776,0.372433,0.0,0.0
1412,352.75,22.5546,24.0032,140.014,99.5883,95.301,0.00623276,0.0561304,20.9917,-306.776,0.387796,0.0,0.0
1416,353.75,22.7955,23.777,139.623,99.5598,95.596,0.0062647,0.0561253,20.9917,-306.786,0.358042,0.0,0.0
1420,354.75,22.6148,23.6596,144.582,99.5454,95.232,0.00628442,0.0561463,20.9917,-306.786,0.390382,0.0,0.0
1424,355.75,23.2033,23.4196,144.076,99.5366,95.3802,0.00629895,0.0561976,20.9917,-306.786,0.375903,0.0,0.0
1428,356.75,23.0734,23.8521,140.159,99.5202,95.3176,0.00631784,0.0563245,20.9916,-306.786,0.380233,0.0,0.0
1432,357.75,23.3375,23.6595,139.056,99.5142,95.3597,0.00634982,0.0564617,20.9916,-306.776,0.375806,0.0,0.0
1436,358.75,23.3373,24.2307,143.573,99.5054,95.2797,0.00639346,0.056562,20.9916,-306.786,0.382424,0.0,0.0
1440,359.75,22.9058,23.8812,141.399,99.4901,95.3197,0.00641885,0.0566404,20.9916,-306.786,0.377375,0.0,0.0
1444,360.75,22.9628,23.9835,138.467,99.4833,95.2929,0.0064301,0.0566498,20.9916,-306.786,0.379252,0.0,0.0
1448,361.75,23.1268,23.9176,137.703,99.4721,95.7314,0.0064295,0.0566123,20.9916,-306.806,0.337804,0.0,0.0
1452,362.75,23.3297,23.7832,143.497,99.4609,95.3074,0.00641492,0.0564171,20.9916,-306.806,0.375927,0.0,0.0
1456,363.75,23.0039,23.7539,144.286,99.4405,95.1724,0.00640205,0.0563622,20.9916,-306.816,0.386603,0.0,0.0
1460,364.75,23.1496,23.7469,147.023,99.4293,95.4955,0.00637603,0.0563992,20.9921,-306.826,0.355742,0.0,0.0
1464,365.75,22.8027,23.8295,136.657,99.4104,95.576,0.00635248,0.0564235,20.9927,-306.816,0.346652,0.0,0.0
1468,366.75,22.9585,23.6632,143.842,99.4052,95.2495,0.00633345,0.0564749,20.993,-306.826,0.376347,0.0,0.0
1472,367.75,23.1634,23.3646,140.797,99.3848,95.3189,0.00629272,0.0565951,20.9933,-306.816,0.368118,0.0,0.0
1476,368.75,22.6063,23.036,143.083,99.378,95.2755,0.00624388,0.0566739,20.9935,-306.826,0.371529,0.0,0.0
1480,369.75,22.5821,23.6559,144.608,99.3499,95.1265,0.00618066,0.0566379,20.9937,-306.826,0.382835,0.0,0.0
1484,370.75,22.4023,23.6971,139.83,99.3399,95.0716,0.00615476,0.0566314,20.9938,-306.836,0.387035,0.0,0.0
1488,371.75,22.873,23.2905,137.989,99.3275,95.4828,0.006171,0.0566874,20.9934,-306.836,0.347898,0.0,0.0
1492,372.75,22.7455,23.671,138.78,99.3103,95.4921,0.0062369,0.056748,20.9928,-306.836,0.345505,0.0,0.0
1496,373.75,22.4712,23.1641,140.469,99.2903,95.0418,0.00632281,0.0568128,20.9924,-306.846,0.38539,0.0,0.0
1500,374.75,22.8166,23.3793,142.09,99.2686,95.2593,0.00640131,0.0568899,20.9921,-306.846,0.363323,0.0,0.0
1504,375.75,22.8352,23.6503,142.723,99.259,95.2712,0.00645287,0.0570136,20.9922,-306.856,0.361368,0.0,0.0
1508,376.75,23.1444,23.8218,139.207,99.2402,95.2482,0.00647622,0.0569485,20.9928,-306.846,0.361823,0.0,0.0
1512,377.75,22.4616,23.2847,140.426,99.2274,95.1086,0.00647572,0.0568327,20.9932,-306.846,0.373612,0.0,0.0
1516,378.75,22.6552,22.6492,137.999,99.2146,95.1503,0.00646423,0.0567811,20.9934,-306.846,0.368609,0.0,0.0
1520,379.75,22.5923,22.904,141.969,99.2037,95.5449,0.00646021,0.0567959,20.9936,-306.856,0.331176,0.0,0.0
1524,380.75,22.7625,23.7562,139.165,99.1873,95.3764,0.00647083,0.0568865,20.9937,-306.856,0.345279,0.0,0.0
1528,381.75,22.7419,23.5315,144.775,99.1629,95.2959,0.00649341,0.0570249,20.9938,-306.876,0.350545,0.0,0.0
1532,382.75,22.6237,23.436,138.306,99.1537,95.1244,0.00651857,0.0571337,20.9938,-306.866,0.365604,0.0,0.0
1536,383.75,22.7538,23.6597,144.113,99.1268,94.8106,0.00653697,0.0572294,20.9939,-306.866,0.392332,0.0,0.0
1540,384.75,22.7512,23.0009,143.853,99.1064,95.0831,0.0065432,0.0573166,20.9939,-306.866,0.365229,0.0,0.0
1544,385.75,22.3393,23.1837,140.771,99.0972,94.8783,0.00653175,0.0573769,20.9939,-306.876,0.383407,0.0,0.0
1548,386.75,22.6652,23.6529,141.749,99.0744,94.7625,0.00652107,0.0573819,20.9939,-306.876,0.392138,0.0,0.0
1552,387.75,22.4557,23.2605,143.321,99.0667,95.1942,0.00651777,0.0574096,20.9937,-306.876,0.351411,0.0,0.0
1556,388.75,22.6345,23.5708,142.502,99.0443,95.1154,0.00651859,0.057447,20.993,-306.886,0.356708,0.0,0.0
1560,389.75,22.4607,23.0188,145.547,99.0295,95.1503,0.00651719,0.0574767,20.992,-306.876,0.352156,0.0,0.0
1564,390.75,22.5084,23.2437,141.999,99.0151,95.0877,,0.0576181,,-306.896,0.35667,0.0,0.0
1568,391.75,22.2996,23.1606,143.703,98.9986,94.8711,,0.0577108,,-306.896,0.375313,0.0,0.0
1572,392.75,22.5302,23.1672,138.404,98.9995,94.8834,,0.0577525,,-306.896,0.374237,0.0,0.0
1576,393.75,22.4783,23.2938,141.981,98.9814,95.158,,,,-306.906,0.347168,0.0,0.0
1580,394.75,22.7817,23.0616,139.646,98.9538,94.9762,,,,-306.906,0.361557,0.0,0.0
1584,395.75,22.4986,23.2687,143.044,98.9458,94.7008,,,,-306.917,0.386436,0.0,0.0
1588,396.75,23.0225,23.1042,141.445,98.9398,95.0103,,,,-306.917,0.357149,0.0,0.0
1592,397.75,22.4113,23.1361,142.586,98.9241,94.6037,,,,-306.917,0.393545,0.0,0.0
1596,398.75,22.8413,22.7384,142.357,98.9013,94.8064,,,,-306.937,0.372656,0.0,0.0
1600,399.75,22.2321,23.5407,142.481,98.8889,94.9609,,,,-306.937,0.357197,0.0,0.0
1604,400.75,22.3561,23.4483,140.332,98.8909,94.6897,,,,-306.937,0.382576,0.0,0.0
1605,401,22.2049,23.0478,137.707,98.8717,94.562,,,,-306.937,0.392756,0.0,0.0