File: 01_Data/Asphalt_Shingle/Cone/Asphalt_Shingle_Cone_HF75Scan_220415_R2.csv
Names,Time,Stack TC,Smoke TC,Exh Press,Smoke Comp,Smoke Meas,CO Meter,CO2 Meter,O2 Meter,Sample Mass,Ext Coeff,Start Test,Flame Verif
Chan Gain,,500,500,1,1,1,1,1,1,1,1,1.0,1.0
Offset,,0,0,0.134662,0,0,0,0,0,0,0,0.0,0.0
Gain,,1,1,25.011,14.0001,15.1165,1,1,1,1.00131,1.00941,1.0,1.0
Units,sec,C,C,Pa,%,%,%,%,%,g,/m,,
Baseline,,45.0921,46.6954,137.929,105.385,103.351,0.000280276,0.0435808,21.0143,-838.806,0.172578,,
2,0.25,42.7822,44.7673,139.729,105.249,103.717,0.000468074,0.045448,21.0132,-306.171,0.129843,0.0,0.0
4,0.75,43.2791,44.7495,135.272,105.27,103.391,0.000457011,0.0454003,21.0133,-306.101,0.159528,0.0,0.0
6,1.25,41.8653,44.2054,137.786,105.239,103.372,0.000449764,0.0454023,21.013,-306.231,0.158449,0.0,0.0
8,1.75,42.4607,43.8046,134.176,105.247,103.304,0.0004458,0.0454039,21.0128,-306.211,0.164981,0.0,0.0
10,2.25,42.4457,43.7228,136.632,105.233,103.349,0.000444304,0.0455135,21.0126,-306.141,0.159921,0.0,0.0
12,2.75,42.8534,43.8626,137.119,105.233,103.428,0.000444363,0.0456022,21.0124,-306.201,0.153201,0.0,0.0
14,3.25,42.2661,44.0054,136.536,105.217,103.119,0.000445554,0.0457824,21.0123,-306.201,0.178299,0.0,0.0
16,3.75,42.0087,43.8776,136.549,105.218,103.258,0.000446519,0.0459284,21.0122,-306.151,0.166532,0.0,0.0
18,4.25,42.3998,43.6947,136.277,105.22,103.042,0.000453337,0.0460965,21.0121,-306.181,0.185168,0.0,0.0
20,4.75,42.5256,43.5677,135.635,105.201,103.129,0.000458859,0.0462775,21.012,-306.201,0.176173,0.0,0.0
22,5.25,42.5455,43.7808,135.93,105.194,103.196,0.000465746,0.0464242,21.0119,-306.191,0.169781,0.0,0.0
24,5.75,42.2096,44.1243,139.078,105.196,102.587,0.000471324,0.046543,21.0119,-306.191,0.222367,0.0,0.0
26,6.25,42.3978,44.4162,135.85,105.179,102.88,0.000458944,0.0466036,21.0119,-306.191,0.195642,0.0,0.0
28,6.75,42.0856,43.6944,136.265,105.189,102.978,0.000448917,0.0466206,21.0118,-306.211,0.188127,0.0,0.0
30,7.25,42.209,43.7271,136.69,105.168,103.06,0.000440794,0.0466344,21.0118,-306.211,0.179275,0.0,0.0
32,7.75,42.5628,44.1814,136.517,105.174,102.706,0.000411294,0.0465643,21.0118,-306.231,0.210227,0.0,0.0
34,8.25,43.1802,43.785,136.05,105.151,102.796,0.000387398,0.0465076,21.0118,-306.251,0.200608,0.0,0.0
36,8.75,42.3603,43.5929,139.578,105.162,102.424,0.000372868,0.0464331,21.0117,-306.241,0.233558,0.0,0.0
38,9.25,42.7294,43.9139,136.356,105.147,102.598,0.000361098,0.0463471,21.0117,-306.221,0.217348,0.0,0.0
40,9.75,42.6924,43.8993,137.41,105.149,101.984,0.000385353,0.0462775,21.0117,-306.251,0.270566,0.0,0.0
42,10.25,42.2939,43.9812,135.765,105.138,101.687,0.000404999,0.0461805,21.0117,-306.251,0.295503,0.0,0.0
44,10.75,42.6622,43.7295,137.498,105.138,101.933,0.000452073,0.0461019,21.0108,-306.251,0.274077,0.0,0.0
46,11.25,42.1888,44.2357,137.989,105.106,101.808,0.000518247,0.0463361,21.0092,-306.211,0.282322,0.0,0.0
48,11.75,42.4581,44.6798,132.711,105.127,101.145,0.000649324,0.0465258,21.0061,-306.261,0.341924,0.0,0.0
50,12.25,42.6726,44.0697,139.371,105.109,101.541,0.000755496,0.0479133,21.0019,-306.271,0.305717,0.0,0.0
52,12.75,43.1519,43.8475,136.247,105.106,99.3308,0.000919137,0.0490372,20.995,-306.291,0.500401,0.0,0.0
54,13.25,42.6475,44.2169,133.551,105.085,101.109,0.00105169,0.051438,20.9864,-306.311,0.341516,0.0,0.0
56,13.75,42.954,44.3285,136.55,105.091,103.103,0.00115905,0.054724,20.9793,-306.171,0.16907,0.0,1.0
58,14.25,42.4347,44.5451,136.602,105.067,103.449,0.00135548,0.0595448,20.9697,-306.311,0.137428,0.0,1.0
60,14.75,42.0919,44.4405,130.207,105.075,103.931,0.00158242,0.0653927,20.9536,-306.351,0.0969858,0.0,1.0
62,15.25,42.7959,44.2285,134.5,105.069,103.12,0.00164347,0.0727359,20.9446,-306.351,0.16581,0.0,1.0
64,15.75,43.1937,44.516,133.08,105.062,102.553,0.00213586,0.0810296,20.9228,-306.381,0.214051,0.0,1.0
66,16.25,42.9831,44.4542,129.138,105.044,101.272,0.00226831,0.0877474,20.9113,-306.431,0.323801,0.0,1.0
68,16.75,43.1517,44.8319,133.747,105.049,98.2444,0.00282732,0.10038,20.8916,-306.441,0.592954,0.0,1.0
70,17.25,43.2593,45.107,132.945,105.034,94.8804,0.00347314,0.110613,20.8689,-306.461,0.900187,0.0,1.0
72,17.75,43.2906,44.9646,128.134,105.043,91.3163,0.00364687,0.129391,20.8628,-306.511,1.24,0.0,1.0
74,18.25,43.5219,45.5548,127.953,105.025,83.2944,0.00447899,0.138832,20.8287,-306.531,2.05261,0.0,1.0
76,18.75,44.0293,45.3552,130.026,105.027,82.459,0.00563454,0.168286,20.801,-306.571,2.14208,0.0,1.0
78,19.25,43.6676,45.038,124.556,105.03,73.8189,0.00699116,0.180265,20.76,-306.611,3.12233,0.0,1.0
80,19.75,43.936,45.3565,118.228,105.021,68.6826,0.00846861,0.200749,20.7103,-306.651,3.76015,0.0,1.0
82,20.25,44.1444,45.2769,121.67,105.006,64.4043,0.0101146,0.248026,20.6554,-306.741,4.32844,0.0,1.0
84,20.75,43.836,45.8558,112.729,105.005,63.2261,0.0110292,0.260744,20.6319,-306.761,4.49178,0.0,1.0
86,21.25,44.9359,46.2041,113.036,105.009,59.5369,0.012593,0.282491,20.5667,-306.832,5.02444,0.0,1.0
88,21.75,45.301,46.7882,110.278,104.996,54.7125,0.0145227,0.31827,20.4912,-306.872,5.77164,0.0,0.0
90,22.25,45.6719,47.1009,111.655,104.984,52.1028,0.0166824,0.363597,20.43,-306.942,6.20338,0.0,0.0
92,22.75,46.4289,47.5683,111.453,104.992,50.2893,0.0187533,0.419528,20.3322,-307.072,6.5177,0.0,0.0
94,23.25,47.0262,48.3856,104.429,104.956,48.5442,0.0207201,0.464831,20.253,-307.142,6.82741,0.0,0.0
96,23.75,47.9713,49.1273,109.89,104.955,46.2754,0.0225435,0.484145,20.1682,-307.182,7.25114,0.0,0.0
98,24.25,48.6134,49.7452,111.571,104.946,50.7437,0.0242278,0.532234,20.0995,-307.292,6.4342,0.0,0.0
100,24.75,49.6936,50.6576,107.161,104.941,51.3028,0.0257469,0.571186,20.0303,-307.342,6.3367,0.0,0.0
102,25.25,50.6057,51.8837,103.854,104.939,50.6699,0.0271168,0.606796,19.9742,-307.422,6.44648,0.0,0.0
104,25.75,51.284,52.5924,109.701,104.934,51.0108,0.0282264,0.639292,19.924,-307.522,6.3867,0.0,0.0
106,26.25,52.4428,54.0468,109.499,104.93,49.3335,0.0294483,0.667431,19.8789,-307.552,6.6824,0.0,0.0
108,26.75,52.4696,54.1666,108.459,104.926,49.8861,0.030438,0.691857,19.8378,-307.643,6.58339,0.0,0.0
110,27.25,54.157,55.4441,103.485,104.935,48.8777,0.0313697,0.713959,19.8005,-307.673,6.76498,0.0,0.0
112,27.75,54.9159,56.4352,110.075,104.918,48.6973,0.0322415,0.733947,19.7702,-307.813,6.79627,0.0,0.0
114,28.25,55.7944,57.6179,109.465,104.925,48.4722,0.0329476,0.750137,19.733,-307.883,6.83795,0.0,0.0
116,28.75,56.5719,58.5448,105.454,104.919,48.8634,0.0337395,0.772145,19.7029,-308.003,6.76623,0.0,0.0
118,29.25,57.3455,59.3441,102.165,104.912,44.5856,0.0345788,0.789971,19.6685,-308.103,7.57685,0.0,0.0
120,29.75,57.821,60.2487,104.522,104.923,46.214,0.0354325,0.812316,19.6318,-308.123,7.26019,0.0,0.0
122,30.25,58.8269,60.9537,106.742,104.934,42.6642,0.0362805,0.830415,19.5955,-308.223,7.96881,0.0,0.0
124,30.75,59.8889,62.003,100.808,104.927,40.2879,0.0371357,0.849232,19.5604,-308.313,8.47566,0.0,0.0
126,31.25,60.4632,63.0014,106.029,104.938,43.0734,0.0379798,0.868214,19.5256,-308.404,7.88458,0.0,0.0
128,31.75,61.3383,63.8861,102.591,104.935,39.3837,0.0388601,0.883589,19.4919,-308.504,8.6773,0.0,0.0
130,32.25,61.8212,64.7914,96.7821,104.936,39.9161,0.0397501,0.902823,19.4579,-308.554,8.55845,0.0,0.0
132,32.75,63.2441,65.9093,103.445,104.938,40.7746,0.0406699,0.918403,19.4243,-308.644,8.3702,0.0,0.0
134,33.25,63.8739,66.5445,99.9886,104.947,39.2513,0.041594,0.936764,19.3901,-308.744,8.70816,0.0,0.0
136,33.75,64.8177,67.8252,99.7764,104.935,41.992,0.0425746,0.951636,19.3562,-308.814,8.10945,0.0,0.0
138,34.25,65.6966,68.5246,96.4478,104.952,42.4188,0.0435779,0.971234,19.3288,-308.914,8.02137,0.0,0.0
140,34.75,66.6933,69.7525,96.4737,104.943,40.5859,0.0443905,0.987109,19.2873,-309.034,8.41171,0.0,0.0
142,35.25,67.7315,70.865,100.997,104.956,36.5134,0.04543,1.01019,19.2536,-309.115,9.34915,0.0,0.0
144,35.75,68.8743,71.9134,97.2851,104.943,36.2546,0.046615,1.02889,19.2264,-309.235,9.41098,0.0,0.0
146,36.25,69.4045,73.2192,101.329,104.964,39.3976,0.0475749,1.05019,19.1832,-309.315,8.6766,0.0,0.0
148,36.75,70.4222,73.9858,92.7764,104.95,36.3916,0.0490883,1.073,19.1483,-309.415,9.37819,0.0,0.0
150,37.25,71.6264,75.0828,99.5894,104.961,35.9155,0.0503141,1.09941,19.1084,-309.505,9.49573,0.0,0.0
152,37.75,72.7459,76.4588,100.741,104.95,37.5011,0.0517964,1.12794,19.0658,-309.645,9.11231,0.0,0.0
154,38.25,73.2954,77.3735,92.8924,104.968,33.591,0.052997,1.15105,19.0181,-309.735,10.0888,0.0,0.0
156,38.75,74.4864,78.3622,91.2109,104.958,32.4455,0.0543379,1.16977,18.9676,-309.845,10.3951,0.0,0.0
158,39.25,75.623,80.0022,89.6157,104.977,32.4653,0.055424,1.20408,18.9266,-309.966,10.3914,0.0,0.0
160,39.75,76.6975,81.1225,91.5193,104.969,33.8276,0.0565152,1.23186,18.8738,-310.046,10.0267,0.0,0.0
162,40.25,77.9855,82.4581,93.1504,104.979,33.2196,0.057484,1.26123,18.8309,-310.156,10.1881,0.0,0.0
164,40.75,79.2079,83.8824,97.4446,104.97,33.6726,0.0583452,1.28501,18.7962,-310.246,10.0674,0.0,0.0
166,41.25,80.4151,84.9731,88.5036,104.99,29.7749,0.0590429,1.30659,18.7674,-310.416,11.1584,0.0,0.0
168,41.75,81.0748,86.2002,90.0217,104.981,30.7474,0.059608,1.32407,18.7435,-310.526,10.8731,0.0,0.0
170,42.25,82.5309,87.8079,91.3949,104.994,31.1469,0.0600198,1.33878,18.7241,-310.626,10.7598,0.0,0.0
172,42.75,83.3359,89.0989,97.2416,104.979,32.9668,0.0603121,1.35069,18.7091,-310.677,10.2558,0.0,0.0
174,43.25,84.701,90.118,93.342,104.998,31.7129,0.0604474,1.3587,18.697,-310.877,10.6008,0.0,0.0
176,43.75,85.4961,91.357,97.7308,104.986,34.67,0.0604657,1.36519,18.6871,-310.947,9.81038,0.0,0.0
178,44.25,86.7156,92.6551,95.6852,105.003,32.9977,0.0604805,1.37045,18.6792,-311.057,10.2495,0.0,0.0
180,44.75,87.917,94.0223,97.0141,104.993,35.5774,0.0601155,1.37025,18.679,-311.197,9.58219,0.0,0.0
182,45.25,88.5721,95.3977,92.9474,105.003,35.0104,0.0595375,1.36607,18.6844,-311.287,9.72526,0.0,0.0
184,45.75,89.3368,95.7694,94.4487,104.997,34.8517,0.0588151,1.35575,18.7108,-311.367,9.76502,0.0,0.0
186,46.25,90.4808,97.1963,92.5917,105.005,36.005,0.0582299,1.34114,18.7518,-311.438,9.4774,0.0,0.0
188,46.75,91.3546,98.0061,100.576,104.998,38.5621,0.0571793,1.3293,18.7851,-311.548,8.86931,0.0,0.0
190,47.25,91.9948,99.172,104.693,105.023,37.7364,0.0558092,1.29887,18.8525,-311.628,9.06306,0.0,0.0
192,47.75,92.5543,99.9708,108.305,105,41.1598,0.054133,1.27422,18.907,-311.718,8.29224,0.0,0.0
194,48.25,93.4721,101.023,107.323,105.021,42.3989,0.0522655,1.22909,18.9979,-311.768,8.03135,0.0,0.0
196,48.75,93.9762,102.166,105.611,105.03,42.595,0.0507528,1.19253,19.0715,-311.858,7.99122,0.0,0.0
198,49.25,94.6872,102.443,115.057,105.027,44.4481,0.0486054,1.14689,19.1544,-311.868,7.61393,0.0,0.0
200,49.75,95.0951,103.324,110.501,105.022,45.511,0.0460362,1.09549,19.2426,-311.958,7.40425,0.0,0.0
202,50.25,95.4761,103.384,113.71,105.036,50.3364,0.0433296,1.03913,19.314,-312.048,6.51313,0.0,0.0
204,50.75,95.2058,103.737,118.049,105.037,56.304,0.0405744,0.980221,19.4228,-312.038,5.52117,0.0,0.0
206,51.25,95.4325,103.753,116.923,105.04,58.5672,0.0377806,0.932507,19.5109,-312.088,5.17247,0.0,0.0
208,51.75,95.3777,104.015,119.702,105.028,63.502,0.0350119,0.869898,19.6195,-312.128,4.45521,0.0,0.0
210,52.25,95.4016,104.083,122.75,105.043,67.5759,0.0323159,0.819185,19.7075,-312.148,3.9059,0.0,0.0
212,52.75,95.099,103.97,122.102,105.034,69.9821,0.0297243,0.767647,19.8166,-312.169,3.5953,0.0,0.0
214,53.25,94.5248,103.167,121.692,105.049,72.1171,0.0272519,0.716487,19.9176,-312.189,3.33047,0.0,0.0
216,53.75,94.7941,103.361,122.742,105.04,78.5931,0.0249134,0.668481,20.0109,-312.229,2.56829,0.0,0.0
218,54.25,94.0618,103.43,124.993,105.051,83.2603,0.0224527,0.623685,20.0864,-312.249,2.05847,0.0,0.0
220,54.75,93.8685,103.128,125.22,105.049,84.1368,0.0204594,0.581306,20.1678,-312.279,1.96556,0.0,0.0
222,55.25,94.1262,102.709,128.224,105.054,86.5103,0.0188449,0.541494,20.2337,-312.289,1.71967,0.0,0.0
224,55.75,93.5915,102.638,124.564,105.049,92.0359,0.0169093,0.50427,20.2954,-312.289,1.171,0.0,0.0
226,56.25,93.0077,102.288,127.955,105.067,93.5638,0.0153414,0.469641,20.3529,-312.299,1.02673,0.0,0.0
228,56.75,93.0623,101.644,130.504,105.067,96.6561,0.0139078,0.437208,20.3994,-312.309,0.738787,0.0,0.0
230,57.25,92.9678,101.586,129.489,105.064,98.9783,0.0132192,0.406992,20.4264,-312.309,0.528311,0.0,0.0
232,57.75,92.5971,100.95,128.717,105.081,100.148,0.0120416,0.382517,20.4726,-312.329,0.425783,0.0,0.0
234,58.25,91.5289,100.215,130.249,105.082,101.353,0.010901,0.354003,20.5166,-312.349,0.31995,0.0,0.0
236,58.75,91.0949,100.222,131.039,105.082,102.396,0.00997715,0.330906,20.5582,-312.359,0.229293,0.0,0.0
238,59.25,90.9514,99.9434,131.907,105.089,102.691,0.00916553,0.308714,20.5984,-312.389,0.204415,0.0,0.0
240,59.75,90.6436,99.0753,131.514,105.082,102.625,0.00850812,0.287602,20.6368,-312.379,0.209532,0.0,0.0
242,60.25,90.5445,98.7765,131.887,105.09,103.694,0.00798182,0.278602,20.6724,-312.369,0.118392,0.0,0.0
244,60.75,89.8754,98.2615,132.113,105.096,103.353,0.00755551,0.257992,20.7055,-312.389,0.148058,0.0,0.0
246,61.25,89.0645,97.8741,135.772,105.1,103.355,0.00725488,0.241298,20.7367,-312.409,0.148224,0.0,0.0
248,61.75,88.9262,97.3652,132.335,105.107,103.115,0.00701137,0.224884,20.7619,-312.399,0.169371,0.0,0.0
250,62.25,87.9067,97.2403,135.141,105.107,103.12,0.00685338,0.211589,20.7824,-312.429,0.169015,0.0,0.0
252,62.75,88.2089,96.3199,134.122,105.114,103.56,0.00676073,0.198802,20.8016,-312.409,0.131878,0.0,0.0
254,63.25,87.3552,96.1858,136.903,105.112,103.358,0.00670338,0.188445,20.8171,-312.429,0.148991,0.0,0.0
256,63.75,86.8488,95.3993,134.554,105.121,103.295,0.00667284,0.178811,20.8297,-312.429,0.155159,0.0,0.0
258,64.25,86.826,94.796,136.572,105.107,103.24,0.0066481,0.171007,20.8409,-312.449,0.158721,0.0,0.0
260,64.75,85.9311,94.7749,134.256,105.132,104.228,0.00662807,0.164197,20.8507,-312.469,0.0764226,0.0,0.0
262,65.25,85.6308,94.1777,133.779,105.142,103.489,0.00663924,0.158239,20.8582,-312.449,0.140332,0.0,0.0
264,65.75,85.1229,93.3107,136.817,105.133,103.455,0.0066483,0.153414,20.8638,-312.449,0.142459,0.0,0.0
266,66.25,84.0698,92.387,131.409,105.132,103.681,0.00666311,0.1489,20.8691,-312.449,0.123026,0.0,0.0
268,66.75,84.0949,91.7499,136.309,105.152,103.453,0.00667511,0.145244,20.874,-312.499,0.144236,0.0,0.0
270,67.25,83.5823,91.8806,135.924,105.143,103.942,0.00668151,0.142283,20.878,-312.519,0.101765,0.0,0.0
272,67.75,82.9786,91.0019,134.163,105.159,103.779,0.00668371,0.13928,20.8825,-312.539,0.116976,0.0,0.0
274,68.25,82.6984,90.7953,132.774,105.159,103.431,0.00668549,0.136848,20.8861,-312.529,0.146631,0.0,0.0
276,68.75,82.0183,89.9121,135.165,105.206,103.744,0.00667572,0.134583,20.8897,-312.519,0.123852,0.0,0.0
278,69.25,81.7719,89.9307,132.494,105.163,103.415,0.00666781,0.132749,20.893,-312.509,0.148373,0.0,0.0
280,69.75,81.495,89.5459,130.289,105.179,104.175,0.00665222,0.13113,20.8957,-312.519,0.0848887,0.0,0.0
282,70.25,80.9129,89.3008,129.092,105.163,103.619,0.00663133,0.1297,20.8983,-312.519,0.130969,0.0,0.0
284,70.75,81.1139,88.7642,132.844,105.189,103.528,0.00660655,0.128541,20.9005,-312.529,0.140896,0.0,0.0
286,71.25,80.7113,88.4035,133.954,105.177,103.707,0.0065794,0.127323,20.9026,-312.549,0.124633,0.0,0.0
288,71.75,80.1482,88.2538,134.45,105.19,103.548,0.00655741,0.126337,20.9044,-312.579,0.139311,0.0,0.0
290,72.25,79.4865,87.2182,132.719,105.185,103.709,0.00652341,0.125494,20.9058,-312.579,0.125158,0.0,0.0
292,72.75,79.142,87.0053,135.025,105.195,103.727,0.00649588,0.124771,20.9069,-312.579,0.124446,0.0,0.0
294,73.25,79.1551,86.6611,133.714,105.188,103.529,0.00646834,0.124185,20.9079,-312.569,0.140748,0.0,0.0
296,73.75,77.9392,86.3966,134.215,105.21,103.757,0.00644132,0.123627,20.9091,-312.579,0.123149,0.0,0.0
298,74.25,78.4172,86.2584,134.941,105.198,103.777,0.00641484,0.123175,20.91,-312.609,0.12045,0.0,0.0
300,74.75,77.6664,85.9897,135.608,105.217,103.717,0.00638928,0.122739,20.9113,-312.629,0.127185,0.0,0.0
302,75.25,77.2341,85.7551,136.416,105.213,103.722,0.0063581,0.122386,20.9122,-312.639,0.126429,0.0,0.0
304,75.75,77.1361,84.7216,135.022,105.216,103.72,0.00632342,0.122055,20.913,-312.659,0.126802,0.0,0.0
306,76.25,76.3679,84.0087,135.212,105.212,103.705,0.00629533,0.121748,20.9137,-312.659,0.127739,0.0,0.0
308,76.75,76.3075,83.8439,139.132,105.232,103.758,0.00623903,0.121411,20.9144,-312.679,0.124937,0.0,0.0
310,77.25,76.4839,83.9761,134.557,105.222,104.066,0.00619343,0.121058,20.9153,-312.689,0.0978179,0.0,0.0
312,77.75,75.7861,83.8794,137.401,105.234,103.546,0.00614673,0.12075,20.9159,-312.669,0.143132,0.0,0.0
314,78.25,75.657,83.194,129.656,105.236,103.773,0.00610011,0.120481,20.9165,-312.689,0.123964,0.0,0.0
316,78.75,75.0009,82.5564,133.93,105.251,103.74,0.00606235,0.120263,20.9169,-312.679,0.128057,0.0,0.0
318,79.25,75.0878,82.2178,132.805,105.241,103.95,0.0060268,0.12003,20.9172,-312.679,0.109332,0.0,0.0
320,79.75,74.7668,81.7967,132.451,105.268,103.824,0.005998,0.119842,20.9173,-312.689,0.122292,0.0,0.0
322,80.25,73.9589,81.7413,135.192,105.259,103.738,0.00596723,0.119682,20.9177,-312.729,0.128933,0.0,0.0
324,80.75,73.575,81.1253,135.639,105.272,103.857,0.00594231,0.119546,20.9181,-312.739,0.119858,0.0,0.0
326,81.25,73.7304,81.2777,136.026,105.265,103.979,0.00591928,0.119436,20.9184,-312.759,0.108831,0.0,0.0
328,81.75,73.6955,80.8392,133.574,105.287,103.875,0.00587989,0.119359,20.9187,-312.759,0.119544,0.0,0.0
330,82.25,73.6534,80.3072,133.009,105.275,104.007,0.00582973,0.119297,20.919,-312.769,0.107297,0.0,0.0
332,82.75,72.6822,80.4153,133.793,105.303,103.671,0.00577265,0.119177,20.9197,-312.799,0.138235,0.0,0.0
334,83.25,72.5655,79.7366,133.377,105.284,103.43,0.00572642,0.11908,20.9202,-312.789,0.157285,0.0,0.0
336,83.75,72.2131,79.2874,134.413,105.298,103.709,0.00567985,0.118974,20.9207,-312.819,0.134649,0.0,0.0
338,84.25,71.9073,79.7324,136.846,105.284,103.467,0.00563391,0.118928,20.921,-312.809,0.154202,0.0,0.0
340,84.75,72.0142,79.1515,133.796,105.313,103.455,0.00559669,0.118814,20.9213,-312.839,0.157556,0.0,0.0
342,85.25,71.7479,78.8572,135.873,105.316,103.943,0.00556655,0.118688,20.9215,-312.819,0.116171,0.0,0.0
344,85.75,71.515,78.5568,131.797,105.334,103.345,0.00554214,0.118586,20.9217,-312.809,0.168793,0.0,0.0
346,86.25,71.0741,78.7422,131.406,105.305,103.717,0.00552112,0.118475,20.9219,-312.839,0.134511,0.0,0.0
348,86.75,70.7579,78.5521,133.736,105.333,103.848,0.00550019,0.118386,20.922,-312.849,0.125708,0.0,0.0
350,87.25,70.0847,77.6531,136.762,105.311,103.558,0.00547972,0.118291,20.9221,-312.849,0.148615,0.0,0.0
352,87.75,70.0515,77.6228,135.35,105.334,104.048,0.00546313,0.118195,20.9224,-312.849,0.108761,0.0,0.0
354,88.25,70.1894,76.7561,134.828,105.335,103.924,0.0054497,0.118116,20.9229,-312.869,0.119403,0.0,0.0
356,88.75,69.3129,76.899,132.733,105.347,104.03,0.00542445,0.117927,20.9232,-312.869,0.111409,0.0,0.0
358,89.25,69.4365,76.0885,136.177,105.333,103.751,0.00539106,0.117774,20.9232,-312.889,0.134007,0.0,0.0
360,89.75,69.7973,76.1456,133.103,105.353,103.833,0.0053497,0.117678,20.9231,-312.899,0.12869,0.0,0.0
362,90.25,68.8854,76.4672,131.033,105.359,104.323,0.00530331,0.1176,20.9232,-312.909,0.08748,0.0,0.0
364,90.75,68.8546,76.0273,133.128,105.363,104.184,0.00526573,0.117537,20.9233,-312.869,0.099629,0.0,0.0
366,91.25,68.6914,75.5914,129.801,105.357,103.777,0.00520863,0.117431,20.9234,-312.849,0.133818,0.0,0.0
368,91.75,67.9059,75.3987,135.553,105.367,104.554,0.00513838,0.117344,20.9235,-312.879,0.0686031,0.0,0.0
370,92.25,68.2175,75.0577,134.144,105.367,103.984,0.0050581,0.117274,20.9235,-312.899,0.116948,0.0,0.0
372,92.75,68.1309,74.6191,132.466,105.372,103.698,0.00497203,0.11705,20.924,-312.869,0.141843,0.0,0.0
374,93.25,67.6583,74.6747,138.797,105.372,103.439,0.00488609,0.116869,20.9244,-312.919,0.163934,0.0,0.0
376,93.75,67.4132,74.2156,135.327,105.385,103.964,0.00480189,0.116686,20.9251,-312.94,0.120146,0.0,0.0
378,94.25,67.7876,73.9579,135.496,105.381,103.617,0.00472784,0.116505,20.9258,-312.899,0.149454,0.0,0.0
380,94.75,67.3181,73.8141,134.872,105.391,103.952,0.00466261,0.116358,20.9262,-312.909,0.121709,0.0,0.0
382,95.25,66.5447,73.9901,136.678,105.399,103.979,0.00461043,0.116239,20.9266,-312.94,0.120109,0.0,0.0
384,95.75,66.7463,73.5551,134.607,105.411,104.053,0.00456874,0.116142,20.927,-312.99,0.114827,0.0,0.0
386,96.25,66.3596,73.0045,134.773,105.39,103.814,0.00455097,0.11612,20.9271,-312.99,0.13343,0.0,0.0
388,96.75,66.4729,73.0253,137.048,105.414,103.431,0.00452058,0.116124,20.9273,-313.01,0.168123,0.0,0.0
390,97.25,66.3066,72.8415,138.77,105.407,103.524,0.00449596,0.116147,20.9275,-313.01,0.159575,0.0,0.0
392,97.75,66.1448,72.8104,134.22,105.424,103.616,0.00446947,0.116151,20.9277,-312.96,0.153201,0.0,0.0
394,98.25,66.3393,72.666,134.84,105.424,103.637,0.00446357,0.116141,20.9278,-313.04,0.151384,0.0,0.0
396,98.75,65.3699,72.6155,137.482,105.424,103.794,0.00445348,0.116184,20.9279,-313.08,0.137997,0.0,0.0
398,99.25,65.6759,71.9006,133.267,105.429,103.925,0.00444046,0.116227,20.928,-313.03,0.127293,0.0,0.0
400,99.75,65.3904,71.649,135.367,105.443,103.823,0.00442991,0.1163,20.9281,-313.03,0.137133,0.0,0.0
402,100.25,65.1738,71.5015,133.254,105.446,104.456,0.00441553,0.116404,20.9281,-313.03,0.0834897,0.0,0.0
404,100.75,65.0288,71.779,135.47,105.454,103.957,0.00439863,0.116527,20.9284,-313.03,0.126585,0.0,0.0
406,101.25,64.8593,70.9175,136.262,105.455,103.776,0.004383,0.116627,20.9287,-313.02,0.142112,0.0,0.0
408,101.75,64.9621,70.6008,139.052,105.453,103.558,0.00436859,0.116666,20.9285,-313.05,0.16053,0.0,0.0
410,102.25,64.6332,70.7841,135.093,105.463,103.897,0.00435368,0.116698,20.9283,-313.07,0.132451,0.0,0.0
412,102.75,64.1455,70.5976,134.164,105.461,104.003,0.00433868,0.116724,20.9286,-313.07,0.123194,0.0,0.0
414,103.25,63.9566,70.3987,133.952,105.475,103.89,0.00432653,0.116757,20.9288,-313.07,0.134005,0.0,0.0
416,103.75,63.5899,69.94,134.251,105.47,103.698,0.00430438,0.116785,20.929,-313.08,0.150096,0.0,0.0
418,104.25,64.0221,69.452,135.957,105.481,103.97,0.00428644,0.116988,20.9292,-313.11,0.127709,0.0,0.0
420,104.75,63.871,69.9465,134.341,105.482,104.341,0.00426738,0.117153,20.9293,-313.11,0.0962487,0.0,0.0
422,105.25,63.228,69.3058,132.471,105.494,103.631,0.00424786,0.117399,20.9294,-313.12,0.157707,0.0,0.0
424,105.75,62.839,69.2576,136.776,105.488,103.944,0.00422816,0.117598,20.9295,-313.12,0.130596,0.0,0.0
426,106.25,63.0059,68.908,131.803,105.497,104.684,0.0042087,0.117759,20.9295,-313.15,0.0684649,0.0,0.0
428,106.75,62.6823,69.6776,131.217,105.496,104.342,0.00418583,0.117889,20.9296,-313.16,0.0973899,0.0,0.0
430,107.25,62.6348,68.7731,135.1,105.517,104.094,0.00416088,0.117921,20.9296,-313.18,0.12027,0.0,0.0
432,107.75,62.1532,68.1601,137.513,105.514,103.765,0.00414068,0.117881,20.9297,-313.18,0.14793,0.0,0.0
434,108.25,62.4022,67.9985,134.054,105.522,103.924,0.00411571,0.117849,20.9297,-313.19,0.13512,0.0,0.0
436,108.75,62.2875,68.5676,136.989,105.51,104.004,0.00409549,0.117752,20.9297,-313.2,0.127315,0.0,0.0
438,109.25,62.3767,67.7016,135.066,105.534,104.228,0.00406927,0.117674,20.9297,-313.22,0.11022,0.0,0.0
440,109.75,61.7841,68.0679,132.003,105.523,104.18,0.00404803,0.117541,20.9302,-313.23,0.113401,0.0,0.0
442,110.25,61.9981,67.2458,131.923,105.551,103.828,0.00403083,0.117434,20.9306,-313.22,0.145772,0.0,0.0
444,110.75,61.3801,67.5091,135.727,105.535,104.001,0.00400338,0.117361,20.9308,-313.24,0.12967,0.0,0.0
446,111.25,61.2075,67.1675,135.194,105.546,103.646,0.00398114,0.117301,20.9311,-313.25,0.160816,0.0,0.0
448,111.75,61.5939,66.5599,137.871,105.533,103.643,0.00396313,0.117351,20.9313,-313.25,0.159981,0.0,0.0
450,112.25,60.9028,66.5335,135.455,105.554,104.525,0.00394854,0.117391,20.9314,-313.26,0.0867766,0.0,0.0
452,112.75,60.9706,67.0841,132.335,105.549,104.158,0.00396254,0.117424,20.9316,-313.29,0.117472,0.0,0.0
454,113.25,61.0609,66.5403,133.582,105.572,103.691,0.00397387,0.117464,20.9319,-313.3,0.159145,0.0,0.0
456,113.75,61.6322,66.2243,133.667,105.564,103.466,0.00401135,0.117497,20.932,-313.31,0.177749,0.0,0.0
458,114.25,60.8329,66.5123,136.985,105.578,103.776,0.0040417,0.117523,20.9322,-313.3,0.152401,0.0,0.0
460,114.75,60.3173,67.0086,133.68,105.566,103.86,0.00408229,0.117508,20.9323,-313.29,0.144313,0.0,0.0
462,115.25,60.3541,65.4804,134.446,105.585,103.99,0.00411516,0.117463,20.9324,-313.28,0.134801,0.0,0.0
464,115.75,59.9946,65.2022,137.354,105.576,104.166,0.00415164,0.117426,20.9324,-313.29,0.118986,0.0,0.0
466,116.25,60.3643,66.0606,136.136,105.594,104.374,0.00418119,0.11741,20.9325,-313.32,0.102933,0.0,0.0
468,116.75,60.2696,65.4156,135.395,105.591,103.89,0.00421374,0.117397,20.9326,-313.34,0.143796,0.0,0.0
470,117.25,59.7631,65.6176,132.758,105.593,103.76,0.00424011,0.117429,20.933,-313.35,0.154993,0.0,0.0
472,117.75,59.1874,65.7064,137.646,105.588,103.648,0.00427255,0.117454,20.9334,-313.33,0.164171,0.0,0.0
474,118.25,59.7113,65.0167,132.567,105.615,103.7,0.00429884,0.117482,20.9337,-313.33,0.162016,0.0,0.0
476,118.75,59.7641,64.9035,134.037,105.595,104.218,0.00432012,0.117511,20.934,-313.35,0.116243,0.0,0.0
478,119.25,58.7379,64.739,134.096,105.62,103.756,0.00435832,0.117542,20.9342,-313.39,0.157717,0.0,0.0
480,119.75,58.8974,64.4754,134.627,105.598,103.922,0.00438925,0.117574,20.9344,-313.41,0.141616,0.0,0.0
482,120.25,59.4511,64.9333,138.595,105.627,104.208,0.00441885,0.1176,20.9345,-313.44,0.119752,0.0,0.0
484,120.75,58.9748,64.4152,135.521,105.613,103.762,0.00444692,0.117621,20.9346,-313.43,0.15652,0.0,0.0
486,121.25,58.9966,64.0743,133.947,105.624,104.053,0.00445888,0.117704,20.9347,-313.41,0.132685,0.0,0.0
488,121.75,58.8895,64.4534,134.742,105.624,103.945,0.0044818,0.117831,20.9347,-313.46,0.141911,0.0,0.0
490,122.25,58.8741,63.8184,133.846,105.635,103.664,0.00450037,0.117934,20.9348,-313.45,0.166696,0.0,0.0
492,122.75,59.1237,63.9515,135.605,105.627,103.806,0.00452281,0.118039,20.9349,-313.45,0.153963,0.0,0.0
494,123.25,58.9608,64.2397,132.723,105.635,103.837,0.00454099,0.118144,20.9349,-313.48,0.151932,0.0,0.0
496,123.75,58.5549,63.3867,135.666,105.629,104.094,0.00456551,0.118259,20.9349,-313.48,0.129622,0.0,0.0
498,124.25,58.567,63.7116,135.974,105.637,104.231,0.0045721,0.118321,20.935,-313.51,0.118691,0.0,0.0
500,124.75,58.2634,63.4261,132.919,105.641,104.343,0.00456119,0.118429,20.935,-313.5,0.109421,0.0,0.0
502,125.25,58.2525,63.2096,135.634,105.655,104.052,0.00455234,0.118558,20.935,-313.52,0.135342,0.0,0.0
504,125.75,58.0131,63.0456,138.296,105.638,103.705,0.00454518,0.118662,20.935,-313.54,0.163512,0.0,0.0
506,126.25,57.9911,63.2601,132.38,105.649,104.496,0.00447534,0.118719,20.935,-313.53,0.097227,0.0,0.0
508,126.75,57.4873,62.9513,132.683,105.638,104.296,0.00441876,0.118765,20.935,-313.54,0.113163,0.0,0.0
510,127.25,57.6555,62.868,134.553,105.655,104.043,0.00432375,0.118748,20.935,-313.57,0.136163,0.0,0.0
512,127.75,57.6545,62.0956,132.886,105.656,103.832,0.00424679,0.118732,20.9351,-313.59,0.154231,0.0,0.0
514,128.25,57.3712,62.3844,136.108,105.675,103.935,0.00416699,0.118625,20.9353,-313.55,0.147002,0.0,0.0
516,128.75,57.4499,62.1853,135.654,105.664,104.109,0.00408664,0.118465,20.9357,-313.54,0.131338,0.0,0.0
518,129.25,57.3006,62.333,133.157,105.7,103.95,0.00399947,0.118335,20.936,-313.55,0.147892,0.0,0.0
520,129.75,57.0448,62.1807,133.871,105.676,103.83,0.00392886,0.118133,20.9363,-313.56,0.156039,0.0,0.0
522,130.25,57.4698,62.1434,136.824,105.679,104.102,0.00386715,0.117969,20.9365,-313.56,0.133144,0.0,0.0
524,130.75,56.9351,62.2709,133.912,105.672,104.174,0.00381309,0.117791,20.9367,-313.58,0.126413,0.0,0.0
526,131.25,57.0819,62.0428,136.104,105.681,104.047,0.0037693,0.117608,20.9368,-313.61,0.137919,0.0,0.0
528,131.75,56.6768,61.712,133.435,105.685,103.967,0.00375838,0.117431,20.9374,-313.61,0.14511,0.0,0.0
530,132.25,56.4431,62.0387,134.245,105.688,104.169,0.00374953,0.11726,20.9382,-313.61,0.128205,0.0,0.0
532,132.75,56.5335,61.6161,136.16,105.685,103.708,0.00374237,0.117093,20.939,-313.57,0.167178,0.0,0.0
534,133.25,56.8233,61.6466,134.75,105.693,103.826,0.00376112,0.116931,20.9395,-313.6,0.157821,0.0,0.0
536,133.75,56.608,61.6125,134.698,105.687,103.848,0.00377631,0.116799,20.94,-313.63,0.155467,0.0,0.0
538,134.25,56.773,61.3407,141.029,105.696,104.383,0.00378862,0.116581,20.9404,-313.63,0.110673,0.0,0.0
540,134.75,56.3832,61.2147,134.491,105.704,104.203,0.00379859,0.116405,20.9407,-313.65,0.126628,0.0,0.0
542,135.25,56.5124,61.5406,138.295,105.691,104.078,0.00380666,0.116262,20.9409,-313.66,0.136222,0.0,0.0
544,135.75,55.7378,60.9014,136.053,105.691,103.996,0.00380583,0.116048,20.9411,-313.65,0.143211,0.0,0.0
546,136.25,56.379,60.4947,135.509,105.699,104.051,0.00380516,0.115875,20.9411,-313.66,0.139069,0.0,0.0
548,136.75,56.1628,60.6008,134.944,105.702,103.868,0.00380093,0.115666,20.9412,-313.68,0.154992,0.0,0.0
550,137.25,56.2051,60.9782,135.532,105.705,104.051,0.0037975,0.115496,20.9412,-313.68,0.139645,0.0,0.0
552,137.75,56.405,60.6294,132.342,105.71,103.862,0.00378736,0.115358,20.9412,-313.69,0.156109,0.0,0.0
554,138.25,56.219,60.282,134.144,105.699,103.828,0.00377915,0.115195,20.9413,-313.741,0.158125,0.0,0.0
556,138.75,56.0489,60.0357,137.35,105.725,104.366,0.00376797,0.115017,20.9413,-313.751,0.114554,0.0,0.0
558,139.25,55.6488,60.5495,137.307,105.71,103.852,0.00375484,0.114887,20.9413,-313.731,0.156974,0.0,0.0
560,139.75,55.8952,60.0456,137.791,105.71,103.931,0.00374421,0.114795,20.9413,-313.731,0.150326,0.0,0.0
562,140.25,55.7142,59.6958,138.152,105.713,104.216,0.00373315,0.114728,20.9415,-313.721,0.126281,0.0,0.0
564,140.75,55.7216,59.8002,134.527,105.726,103.918,0.00372418,0.114681,20.9419,-313.741,0.15275,0.0,0.0
566,141.25,55.6391,59.69,133.644,105.715,104.149,0.00372036,0.114605,20.9421,-313.761,0.132146,0.0,0.0
568,141.75,55.1577,59.536,136.304,105.721,104.179,0.00371874,0.114511,20.9424,-313.721,0.130101,0.0,0.0
570,142.25,55.2968,59.6498,137.839,105.732,104.089,0.00371742,0.114391,20.9426,-313.771,0.138716,0.0,0.0
572,142.75,55.3008,59.5876,138.578,105.743,104.283,0.00369917,0.114254,20.9428,-313.771,0.123108,0.0,0.0
574,143.25,54.3719,59.1056,134.551,105.723,104.263,0.00368439,0.114143,20.943,-313.761,0.123143,0.0,0.0
576,143.75,55.0698,59.4432,134.044,105.739,104.125,0.00364543,0.114137,20.9431,-313.761,0.136229,0.0,0.0
578,144.25,54.6842,59.0061,133.68,105.737,104.019,0.00361388,0.114134,20.9432,-313.761,0.145001,0.0,0.0
580,144.75,54.9704,59.1593,134.408,105.739,103.95,0.00356013,0.11413,20.9431,-313.771,0.151073,0.0,0.0
582,145.25,54.921,58.7334,136.991,105.731,104.157,0.00351659,0.114148,20.9427,-313.811,0.132806,0.0,0.0
584,145.75,55.1423,59.3161,135.955,105.749,104.135,0.00346294,0.114183,20.9425,-313.831,0.136188,0.0,0.0
586,146.25,54.3031,58.6237,134.616,105.73,104.37,0.0034195,0.114183,20.9423,-313.831,0.114671,0.0,0.0
588,146.75,54.4645,58.77,135.654,105.757,104.563,0.0033843,0.114183,20.9421,-313.801,0.100544,0.0,0.0
590,147.25,54.3775,58.6617,133.496,105.737,104.347,0.00336192,0.114197,20.942,-313.781,0.117161,0.0,0.0
592,147.75,54.3773,58.7881,133.115,105.755,104.723,0.00334379,0.114209,20.9418,-313.821,0.0868915,0.0,0.0
594,148.25,54.7347,58.7607,134.666,105.752,104.067,0.00334503,0.11419,20.9417,-313.831,0.142246,0.0,0.0
596,148.75,54.2401,59.0999,133.74,105.763,104.088,0.00334603,0.114175,20.9417,-313.811,0.141295,0.0,0.0
598,149.25,54.1222,58.3776,137.252,105.752,104.172,0.00334685,0.114118,20.9416,-313.851,0.133301,0.0,0.0
600,149.75,54.2051,58.3013,136.642,105.77,103.895,0.00334751,0.114033,20.9416,-313.891,0.158326,0.0,0.0
602,150.25,54.1646,57.7822,132.327,105.761,104.191,0.00334559,0.113964,20.9415,-313.891,0.132441,0.0,0.0
604,150.75,54.0966,57.9924,134.973,105.799,104.028,0.00334404,0.113825,20.9415,-313.881,0.149478,0.0,0.0
606,151.25,53.6699,58.4443,132.461,105.751,104.25,0.00333665,0.113712,20.9415,-313.901,0.126605,0.0,0.0
608,151.75,54.1463,57.6658,135.434,105.777,104.419,0.00333067,0.113564,20.9414,-313.921,0.114422,0.0,0.0
610,152.25,54.3339,57.912,134.961,105.762,104.101,0.00332583,0.113445,20.9414,-313.891,0.140126,0.0,0.0
612,152.75,53.5488,57.857,133.606,105.795,103.91,0.00331325,0.113307,20.9416,-313.931,0.159214,0.0,0.0
614,153.25,54.0196,57.7218,138.961,105.774,104.331,0.00330306,0.113194,20.942,-313.921,0.121604,0.0,0.0
616,153.75,53.5109,57.3628,138.003,105.787,103.893,0.00329481,0.113104,20.9423,-313.921,0.159953,0.0,0.0
618,154.25,53.2706,57.7112,133.644,105.767,104.254,0.00328813,0.11303,20.9427,-313.931,0.127651,0.0,0.0
620,154.75,53.5188,57.195,135.123,105.79,104.225,0.003284,0.112912,20.9431,-313.961,0.13194,0.0,0.0
622,155.25,53.6898,57.4236,134.113,105.781,104.206,0.00328182,0.112765,20.9436,-313.991,0.132797,0.0,0.0
624,155.75,53.4335,57.4651,136.935,105.794,104.096,0.00328005,0.112645,20.9442,-313.971,0.143314,0.0,0.0
626,156.25,53.814,57.3341,138.889,105.827,104.302,0.0032725,0.112423,20.9447,-313.941,0.128544,0.0,0.0
628,156.75,53.3925,57.3993,137.821,105.801,104.184,0.00326638,0.112132,20.9451,-313.961,0.136394,0.0,0.0
630,157.25,53.6952,57.3465,137.813,105.789,104.153,0.00324183,0.111896,20.9454,-313.941,0.137984,0.0,0.0
632,157.75,52.8635,56.9877,137.224,105.808,104.095,0.00322195,0.111677,20.9457,-314.001,0.144534,0.0,0.0
634,158.25,53.4425,56.9412,136.814,105.815,103.89,0.00320584,0.111499,20.9459,-313.971,0.162588,0.0,0.0
636,158.75,53.2261,57.2449,133.996,105.806,103.652,0.0031561,0.111383,20.946,-314.001,0.182144,0.0,0.0
638,159.25,53.3294,56.952,136.647,105.822,104.43,0.0031158,0.111289,20.946,-314.061,0.117238,0.0,0.0
640,159.75,53.1288,56.7694,136.04,105.828,104.653,0.00305627,0.111171,20.946,-314.031,0.0987877,0.0,0.0
642,160.25,52.9645,56.4744,138.687,105.795,104.193,0.00300804,0.111076,20.946,-314.001,0.13511,0.0,0.0
644,160.75,52.7191,56.7582,134.096,105.811,104.558,0.00296898,0.110999,20.946,-314.021,0.105552,0.0,0.0
646,161.25,52.7839,56.8214,134.819,105.796,104.316,0.00292879,0.11088,20.946,-314.041,0.12472,0.0,0.0
648,161.75,53.0396,56.4904,138.16,105.814,104.325,0.00289624,0.110784,20.946,-314.021,0.125513,0.0,0.0
650,162.25,53.0758,56.6488,135.114,105.803,103.896,0.00287354,0.110707,20.9462,-314.011,0.161072,0.0,0.0
652,162.75,52.8033,56.3179,134.289,105.816,104.185,0.00285515,0.110644,20.9466,-314.041,0.137532,0.0,0.0
654,163.25,52.3971,56.5797,133.27,105.808,104.024,0.00284222,0.110622,20.9469,-314.021,0.150582,0.0,0.0
656,163.75,53.1841,56.6082,134.841,105.821,104.472,0.00283353,0.110631,20.9471,-314.051,0.113607,0.0,0.0
658,164.25,52.7876,56.5836,134.473,105.809,104.36,0.00282649,0.110638,20.9471,-314.041,0.122149,0.0,0.0
660,164.75,52.6821,56.6771,135.627,105.826,104.145,0.00282078,0.11063,20.9472,-314.081,0.141797,0.0,0.0
662,165.25,52.6604,56.218,138.016,105.816,104.348,0.00281616,0.110624,20.9472,-314.111,0.123699,0.0,0.0
664,165.75,52.6561,56.1283,131.489,105.816,104.647,0.00281242,0.110618,20.9473,-314.051,0.0983691,0.0,0.0
666,166.25,53.0496,56.873,135.253,105.808,103.898,0.00280939,0.110446,20.9473,-314.091,0.161269,0.0,0.0
668,166.75,52.3721,56.543,135.584,105.817,103.987,0.00280693,0.110307,20.9473,-314.071,0.154438,0.0,0.0
670,167.25,52.5174,56.3139,137.962,105.81,104.434,0.00280494,0.110138,20.9473,-314.111,0.115882,0.0,0.0
672,167.75,52.9159,55.9679,134.055,105.825,103.957,0.00280269,0.110001,20.9474,-314.141,0.157633,0.0,0.0
674,168.25,52.4481,55.956,135.467,105.819,104.056,0.00280029,0.109932,20.9474,-314.131,0.148763,0.0,0.0
676,168.75,51.9777,56.1525,137.091,105.82,104.541,0.00280348,0.109876,20.9474,-314.181,0.107673,0.0,0.0
678,169.25,52.729,55.9241,135.795,105.815,104.2,0.0028107,0.109859,20.9474,-314.161,0.136163,0.0,0.0
680,169.75,52.578,56.3081,137.359,105.821,104.277,0.00281913,0.109845,20.9474,-314.181,0.130162,0.0,0.0
682,170.25,52.3862,55.828,138.355,105.819,104.361,0.00282826,0.109834,20.9474,-314.181,0.122892,0.0,0.0
684,170.75,52.7026,55.8374,131.363,105.818,103.862,0.00283245,0.109824,20.9474,-314.181,0.165233,0.0,0.0
686,171.25,52.1727,55.6827,135.735,105.817,104.07,0.00283294,0.109868,20.9474,-314.141,0.147367,0.0,0.0
688,171.75,52.6464,56.1084,134.432,105.813,103.985,0.00282691,0.10995,20.9474,-314.151,0.154235,0.0,0.0
690,172.25,52.2282,55.5553,132.754,105.827,104.219,0.00281624,0.110016,20.9478,-314.161,0.13556,0.0,0.0
692,172.75,52.536,55.4559,134.825,105.822,104.256,0.0028076,0.110069,20.9482,-314.221,0.131996,0.0,0.0
694,173.25,52.1923,55.7406,134.87,105.82,103.9,0.00277373,0.110025,20.9485,-314.201,0.162149,0.0,0.0
696,173.75,52.2936,55.3686,134.745,105.817,103.818,0.00274629,0.10991,20.9487,-314.211,0.1689,0.0,0.0
698,174.25,51.8481,55.2644,136.847,105.821,104.398,,0.109721,,-314.231,0.119862,0.0,0.0
700,174.75,52.2904,55.2814,136.683,105.814,103.978,,0.109483,,-314.181,0.15497,0.0,0.0
702,175.25,51.8171,55.5533,137.062,105.822,104.143,,0.109261,,-314.211,0.141673,0.0,0.0
704,175.75,52.5223,55.5262,132.934,105.812,104.425,,0.109054,,-314.211,0.116842,0.0,0.0
706,176.25,51.8847,54.9531,134.049,105.817,104.296,,0.108887,,-314.261,0.128196,0.0,0.0
708,176.75,51.5319,55.1153,136.591,105.818,104.373,,0.108752,,-314.271,0.121728,0.0,0.0
710,177.25,51.9536,55.1973,132.827,105.822,104.247,,,,-314.271,0.132741,0.0,0.0
712,177.75,51.8485,55.1808,134.678,105.814,103.93,,,,-314.281,0.159021,0.0,0.0
714,178.25,51.9689,54.819,136.602,105.814,104.588,,,,-314.251,0.103113,0.0,0.0
716,178.75,52.0958,55.1594,135.588,105.819,104.035,,,,-314.251,0.150569,0.0,0.0
718,179.25,51.3481,54.9599,136.056,105.825,104.314,,,,-314.221,0.127311,0.0,0.0
720,179.75,51.6305,55.1135,134.607,105.82,104.134,,,,-314.251,0.142199,0.0,0.0
722,180.25,51.2451,54.3731,136.872,105.825,103.817,,,,-314.241,0.169661,0.0,0.0
724,180.75,50.9123,54.7057,137.132,105.807,104.227,,,,-314.251,0.133174,0.0,0.0
726,181.25,51.7506,54.9313,132.109,105.821,104.423,,,,-314.261,0.117714,0.0,0.0
728,181.75,51.5905,54.481,138.139,105.809,104.503,,,,-314.321,0.109987,0.0,0.0
730,182.25,51.2402,54.3849,133.304,105.821,104.46,,,,-314.351,0.114621,0.0,0.0
732,182.75,51.7764,54.7358,135.318,105.823,104.605,,,,-314.351,0.102533,0.0,0.0
734,183.25,51.595,54.2068,134.384,105.825,104.177,,,,-314.301,0.13902,0.0,0.0
736,183.75,51.3473,54.3754,133.975,105.811,104.22,,,,-314.311,0.134119,0.0,0.0
738,184.25,51.2321,54.1114,138.89,105.819,104.12,,,,-314.321,0.143309,0.0,0.0
740,184.75,51.5253,54.4041,136.478,105.817,104.169,,,,-314.341,0.139011,0.0,0.0
741,185,51.6539,54.2922,134.564,105.819,104.251,,,,-314.351,0.132214,0.0,0.0