File: 01_Data/Asphalt_Shingle/Cone/Asphalt_Shingle_Cone_HF50Scan_220415_R1.csv
Names,Time,Stack TC,Smoke TC,Exh Press,Smoke Comp,Smoke Meas,CO Meter,CO2 Meter,O2 Meter,Sample Mass,Ext Coeff,Start Test,Flame Verif
Chan Gain,,500,500,1,1,1,1,1,1,1,1,1.0,1.0
Offset,,0,0,0.134662,0,0,0,0,0,0,0,0.0,0.0
Gain,,1,1,25.011,14.0001,15.1165,1,1,1,1.00131,1.00941,1.0,1.0
Units,sec,C,C,Pa,%,%,%,%,%,g,/m,,
Baseline,,30.7903,32.0622,143.362,104.611,102.064,0.000665663,0.0446522,21.0111,-836.028,0.218208,,
2,0.25,29.408,30.6791,144.32,104.65,102.136,0.000450809,0.0472365,21.0116,-308.434,0.215312,0.0,0.0
4,0.75,29.4518,30.3424,143.338,104.66,102.024,0.00041235,0.0470506,21.0119,-308.354,0.225944,0.0,0.0
6,1.25,29.1918,30.2237,142.436,104.644,102.362,0.000381198,0.0469714,21.0121,-308.544,0.195235,0.0,0.0
8,1.75,28.9002,30.2723,147.316,104.658,102.008,0.000355965,0.0468358,21.0123,-308.534,0.227124,0.0,0.0
10,2.25,29.0769,30.4741,143.881,104.645,102.112,0.000341554,0.0467332,21.0124,-308.404,0.216997,0.0,0.0
12,2.75,28.9516,29.9987,143.49,104.663,101.951,0.000329882,0.0466564,21.0126,-308.474,0.232412,0.0,0.0
14,3.25,29.2542,29.5129,142.439,104.645,102.125,0.000334396,0.0465871,21.0127,-308.534,0.215797,0.0,0.0
16,3.75,28.4942,29.9685,141.979,104.658,102.209,0.000350623,0.0465246,21.0127,-308.464,0.209642,0.0,0.0
18,4.25,28.7012,29.7045,142.52,104.642,101.831,0.000363767,0.046474,21.0128,-308.474,0.241136,0.0,0.0
20,4.75,28.9768,29.6431,145.328,104.657,102.3,0.000394936,0.0463923,21.0129,-308.524,0.201705,0.0,0.0
22,5.25,29.1977,30.3242,143.998,104.644,102.089,0.000420183,0.0463262,21.0129,-308.514,0.218886,0.0,0.0
24,5.75,29.0888,29.8786,144.481,104.651,102.266,0.000455125,0.0462726,21.0129,-308.474,0.204154,0.0,0.0
26,6.25,29.1769,30.2493,143.188,104.648,102.081,0.000483429,0.0462292,21.013,-308.504,0.219891,0.0,0.0
28,6.75,29.3033,30.4057,142.538,104.659,101.975,0.000518436,0.0461727,21.013,-308.514,0.230044,0.0,0.0
30,7.25,28.7397,30.1522,142.388,104.655,101.931,0.000546792,0.0461077,21.013,-308.524,0.233485,0.0,0.0
32,7.75,29.1977,29.7633,142.151,104.666,102.532,0.000572178,0.0460551,21.013,-308.524,0.182366,0.0,0.0
34,8.25,28.9383,29.8017,143.852,104.651,102.155,0.00059274,0.0459583,21.013,-308.504,0.213781,0.0,0.0
36,8.75,28.6535,29.9154,142.453,104.679,102.225,0.000609395,0.0458799,21.013,-308.524,0.210019,0.0,0.0
38,9.25,28.5302,29.9084,143.993,104.655,102.022,0.000621677,0.0457893,21.013,-308.514,0.22567,0.0,0.0
40,9.75,28.6845,29.9842,143.23,104.67,101.904,0.000631626,0.045716,21.013,-308.534,0.237155,0.0,0.0
42,10.25,28.895,30.181,141.86,104.66,102.38,0.000642101,0.0456159,21.0131,-308.524,0.195048,0.0,0.0
44,10.75,28.7393,30.0074,143.432,104.674,102.07,0.000650586,0.0455349,21.0131,-308.524,0.223021,0.0,0.0
46,11.25,28.7623,30.3446,144.761,104.677,102.02,0.000668338,0.0454693,21.0131,-308.524,0.227637,0.0,0.0
48,11.75,28.6098,29.7443,144.872,104.678,101.62,0.000682716,0.0454161,21.0131,-308.524,0.262524,0.0,0.0
50,12.25,28.8829,30.1826,145.144,104.683,102.052,0.000716129,0.0453731,21.0131,-308.524,0.225417,0.0,0.0
52,12.75,29.0342,30.4162,144.277,104.698,101.939,0.000743193,0.0453382,21.0131,-308.554,0.236457,0.0,0.0
54,13.25,29.1778,30.3193,142.971,104.692,101.517,0.000785683,0.04531,21.0131,-308.554,0.272765,0.0,0.0
56,13.75,28.7003,30.1804,143.118,104.707,101.615,0.0008201,0.0453156,21.0131,-308.554,0.265422,0.0,0.0
58,14.25,28.6752,30.253,139.662,104.717,101.968,0.000853029,0.0453458,21.0131,-308.544,0.235596,0.0,0.0
60,14.75,29.3891,30.7272,142.537,104.714,101.49,0.000884248,0.0454272,21.0131,-308.534,0.276901,0.0,0.0
62,15.25,29.455,30.0385,142.803,104.718,101.472,0.000909535,0.0455444,21.0131,-308.534,0.278836,0.0,0.0
64,15.75,29.1871,30.6939,141.294,104.712,101.244,0.000931929,0.0457342,21.0131,-308.554,0.298203,0.0,0.0
66,16.25,29.1287,30.0762,141.151,104.718,101.369,0.000951789,0.0458878,21.0131,-308.554,0.287854,0.0,0.0
68,16.75,29.1591,29.7533,145.749,104.716,101.369,0.000967875,0.0460341,21.0132,-308.544,0.287673,0.0,0.0
70,17.25,28.9507,30.7777,141.406,104.729,101.05,0.000987279,0.0461721,21.0134,-308.544,0.316646,0.0,0.0
72,17.75,29.1476,30.3641,142.583,104.745,101.326,0.00100873,0.0462839,21.0136,-308.564,0.293842,0.0,0.0
74,18.25,29.7153,30.4475,143.406,104.734,101.2,0.00102802,0.0463339,21.0137,-308.564,0.303951,0.0,0.0
76,18.75,28.9157,30.6736,145.247,104.746,100.915,0.00104537,0.0463743,21.0138,-308.574,0.329901,0.0,0.0
78,19.25,29.4913,30.404,143.823,104.762,101.063,0.00105623,0.0464071,21.0139,-308.584,0.318331,0.0,0.0
80,19.75,29.344,29.893,146.109,104.763,100.907,0.00106216,0.046512,21.014,-308.594,0.332115,0.0,0.0
82,20.25,29.1373,30.3721,138.992,104.789,100.433,0.0010625,0.0466676,21.0141,-308.594,0.375876,0.0,0.0
84,20.75,29.237,30.6445,142.259,104.771,100.835,0.00105876,0.0468292,21.0137,-308.584,0.339042,0.0,0.0
86,21.25,29.1101,29.9434,143.127,104.783,100.197,0.00105573,0.0469922,21.0134,-308.594,0.396295,0.0,0.0
88,21.75,29.1585,30.3164,145.299,104.791,100.58,0.0010557,0.0471813,21.0131,-308.624,0.363173,0.0,0.0
90,22.25,29.197,30.6194,144.508,104.796,100.345,0.00105568,0.0473857,21.0129,-308.624,0.384301,0.0,0.0
92,22.75,29.094,30.389,145.863,104.823,100.641,0.0010767,0.0477796,21.0128,-308.614,0.360481,0.0,0.0
94,23.25,29.54,30.7142,141.806,104.803,99.9222,0.00111266,0.0483041,21.0118,-308.634,0.422282,0.0,0.0
96,23.75,29.2392,30.9368,142.551,104.799,99.9337,0.0011418,0.0487289,21.011,-308.614,0.420899,0.0,0.0
98,24.25,29.0277,30.706,144.983,104.818,99.8673,0.00121027,0.0498871,21.0094,-308.624,0.428376,0.0,0.0
100,24.75,29.9414,30.2993,144.531,104.812,98.9119,0.00126574,0.0508253,21.0073,-308.614,0.513057,0.0,0.0
102,25.25,28.9413,30.7414,141.064,104.83,99.7095,0.00135447,0.0524085,21.0043,-308.644,0.443457,0.0,0.0
104,25.75,30.1449,30.7416,145.151,104.829,99.0646,0.00142634,0.0544318,21.0008,-308.674,0.500807,0.0,0.0
106,26.25,29.638,30.8392,141.088,104.836,101.088,0.00151272,0.0560707,20.998,-308.664,0.322393,0.0,0.0
108,26.75,29.2721,30.5577,142.732,104.838,100.121,0.00160803,0.0595969,20.9913,-308.664,0.407681,0.0,1.0
110,27.25,30.0874,30.6511,139.107,104.847,99.6472,0.0017051,0.0624531,20.9829,-308.634,0.450397,0.0,1.0
112,27.75,29.461,30.715,140.659,104.85,101.885,0.0018016,0.068119,20.9734,-308.714,0.254037,0.0,1.0
114,28.25,29.9525,30.662,141.177,104.863,101.863,0.00192608,0.0727084,20.9613,-308.664,0.257004,0.0,0.0
116,28.75,29.8251,30.5589,136.25,104.855,102.705,0.00202692,0.0788581,20.9476,-308.704,0.183436,0.0,1.0
118,29.25,29.7302,30.9402,137.645,104.865,102.148,0.00210859,0.0860285,20.9365,-308.744,0.232401,0.0,1.0
120,29.75,30.2315,31.4891,136.582,104.867,101.779,0.00232263,0.0943214,20.9234,-308.704,0.26459,0.0,1.0
122,30.25,29.8783,31.0476,135.346,104.887,100.614,0.002496,0.103275,20.909,-308.724,0.368247,0.0,1.0
124,30.75,29.9688,31.7313,138.187,104.889,98.5756,0.00282796,0.113357,20.8923,-308.774,0.549672,0.0,1.0
126,31.25,30.1809,31.4386,131.422,104.893,95.4437,0.00309685,0.124069,20.8742,-308.784,0.835883,0.0,1.0
128,31.75,30.0014,31.1509,134.269,104.877,93.0029,0.00358395,0.136882,20.8531,-308.814,1.06397,0.0,1.0
130,32.25,29.9101,30.9723,135.057,104.904,89.0494,0.00397851,0.150983,20.8302,-308.844,1.45084,0.0,1.0
132,32.75,30.2855,31.3415,132.673,104.897,87.4384,0.00457307,0.162405,20.7902,-308.884,1.61191,0.0,1.0
134,33.25,30.9299,31.5666,132.465,104.91,84.6142,0.00505467,0.182861,20.7578,-308.894,1.90374,0.0,1.0
136,33.75,31.2526,32.0258,127.858,104.902,82.1499,0.00573054,0.19943,20.7215,-308.954,2.16477,0.0,1.0
138,34.25,31.11,31.7255,132.487,104.92,79.8271,0.00627799,0.222319,20.6829,-308.974,2.42021,0.0,1.0
140,34.75,30.496,31.9958,133.694,104.905,75.7938,0.00689631,0.240858,20.6445,-309.004,2.87806,0.0,1.0
142,35.25,30.4606,31.7167,122.908,104.936,74.7512,0.00755454,0.26448,20.607,-309.054,3.00327,0.0,1.0
144,35.75,31.2467,31.8078,126.84,104.918,72.7759,0.0080877,0.283613,20.5766,-309.105,3.23889,0.0,1.0
146,36.25,31.7202,32.7656,127.806,104.939,71.2798,0.00872894,0.305056,20.552,-309.135,3.42457,0.0,1.0
148,36.75,31.6762,33.0662,129.863,104.925,69.2763,0.00943678,0.322425,20.5222,-309.155,3.67586,0.0,1.0
150,37.25,32.1166,32.8917,127.541,104.945,70.5671,0.0101285,0.34097,20.498,-309.225,3.5141,0.0,0.0
152,37.75,33.5065,34.2688,123.882,104.935,67.8365,0.0107953,0.355992,20.4714,-309.265,3.86266,0.0,0.0
154,38.25,33.6109,34.5678,124.715,104.954,64.4288,0.0114702,0.368159,20.4499,-309.335,4.32064,0.0,0.0
156,38.75,33.7196,34.4352,127.27,104.946,65.7855,0.0121381,0.381844,20.4325,-309.335,4.13544,0.0,0.0
158,39.25,34.3323,35.2748,125.445,104.964,63.8397,0.0126791,0.392928,20.4149,-309.365,4.40284,0.0,0.0
160,39.75,34.6918,35.1046,121.435,104.955,66.4138,0.0131173,0.403885,20.3975,-309.425,4.05206,0.0,0.0
162,40.25,34.8524,35.7317,119.119,104.974,66.6565,0.0138358,0.414539,20.3806,-309.475,4.02136,0.0,0.0
164,40.75,35.5226,36.5165,121.022,104.966,61.6166,0.0144177,0.42317,20.3643,-309.545,4.71682,0.0,0.0
166,41.25,36.3948,37.0984,124.56,104.974,62.7708,0.0151661,0.433334,20.3477,-309.575,4.55321,0.0,0.0
168,41.75,36.7034,37.7636,122.306,104.967,63.5034,0.0157724,0.441567,20.3311,-309.635,4.44986,0.0,0.0
170,42.25,37.1056,38.2728,121.579,104.985,59.5171,0.01661,0.448236,20.3112,-309.685,5.02537,0.0,0.0
172,42.75,37.0858,38.2333,117.318,104.974,58.0132,0.0172885,0.461324,20.2893,-309.725,5.25108,0.0,0.0
174,43.25,37.4072,38.2738,121.305,104.99,54.5731,0.0178381,0.471925,20.2715,-309.795,5.79371,0.0,0.0
176,43.75,37.6928,38.9571,122.984,104.977,57.3761,0.0188315,0.484181,20.2484,-309.865,5.34915,0.0,0.0
178,44.25,38.7577,39.6042,116.91,104.999,56.024,0.0196362,0.497409,20.2218,-309.936,5.56211,0.0,0.0
180,44.75,39.1358,40.442,116.588,104.994,51.8301,0.0206869,0.511873,20.2002,-309.986,6.25067,0.0,0.0
182,45.25,39.7315,40.741,121.98,105.009,53.6625,0.021538,0.526963,20.1679,-310.066,5.9443,0.0,0.0
184,45.75,40.2635,41.3782,119.027,104.998,45.6328,0.0224798,0.539185,20.1417,-310.106,7.37857,0.0,0.0
186,46.25,40.6959,41.7954,110.557,105.021,47.0172,0.0234697,0.558321,20.1133,-310.206,7.11588,0.0,0.0
188,46.75,41.3624,42.5474,118.607,105.012,47.1284,0.0242716,0.57382,20.0839,-310.266,7.09421,0.0,0.0
190,47.25,41.5435,42.9437,109.733,105.016,47.7018,0.0253256,0.590063,20.0528,-310.346,6.98749,0.0,0.0
192,47.75,42.2596,43.8299,115.439,105.04,50.1606,0.0261793,0.606537,20.0212,-310.416,6.54443,0.0,0.0
194,48.25,42.8431,44.4718,115.345,105.035,48.7388,0.0271602,0.62308,19.9891,-310.476,6.79864,0.0,0.0
196,48.75,43.5633,44.9495,110.062,105.024,48.7845,0.0279547,0.639359,19.9573,-310.546,6.78944,0.0,0.0
198,49.25,43.9527,45.3281,111.136,105.035,43.9817,0.0288447,0.652545,19.9262,-310.586,7.70805,0.0,0.0
200,49.75,44.8901,46.5667,119.806,105.053,45.3343,0.0295655,0.668758,19.8963,-310.667,7.44132,0.0,0.0
202,50.25,45.2266,46.9901,108.001,105.05,46.1125,0.0301494,0.681892,19.8721,-310.787,7.29032,0.0,0.0
204,50.75,46.2868,47.8995,117.049,105.053,47.168,0.0308814,0.69706,19.8485,-310.817,7.09022,0.0,0.0
206,51.25,46.7826,48.8577,112.122,105.056,49.3072,0.0314744,0.709346,19.8259,-310.907,6.69778,0.0,0.0
208,51.75,47.4143,49.3113,108.209,105.063,47.0859,0.03215,0.7234,19.8041,-310.977,7.10651,0.0,0.0
210,52.25,47.6081,49.5342,109.593,105.072,43.8982,0.0326972,0.734783,19.7834,-311.087,7.72797,0.0,0.0
212,52.75,48.4139,50.1455,115.121,105.078,47.753,0.0333494,0.746795,19.7627,-311.107,6.98317,0.0,0.0
214,53.25,49.0088,51.5874,113.439,105.088,45.9552,0.0338777,0.759037,19.7424,-311.207,7.32378,0.0,0.0
216,53.75,50.0387,52.1065,108.611,105.096,47.7558,0.0345257,0.768952,19.7188,-311.247,6.98421,0.0,0.0
218,54.25,50.6744,52.8963,108.909,105.106,45.8731,0.0350505,0.783943,19.6933,-311.357,7.34113,0.0,0.0
220,54.75,51.2114,53.3559,107.258,105.12,48.0612,0.035727,0.796085,19.6652,-311.438,6.92978,0.0,0.0
222,55.25,51.7041,54.1501,108.624,105.108,46.96,0.0362749,0.812955,19.6358,-311.528,7.134,0.0,0.0
224,55.75,52.6792,54.9928,105.601,105.113,43.7026,0.036896,0.826619,19.6058,-311.608,7.77097,0.0,0.0
226,56.25,53.0475,55.6759,113.308,105.11,43.4535,0.0375586,0.844749,19.5759,-311.698,7.82133,0.0,0.0
228,56.75,53.7503,56.344,105.568,105.121,41.4537,0.0380953,0.859435,19.5517,-311.758,8.23937,0.0,0.0
230,57.25,54.6805,57.117,106.039,105.102,41.736,0.0387426,0.877311,19.5321,-311.868,8.17769,0.0,0.0
232,57.75,55.7169,58.3361,108.786,105.135,42.0663,0.0394581,0.89179,19.507,-311.948,8.11073,0.0,0.0
234,58.25,56.1695,58.935,107.982,105.131,42.6531,0.0401327,0.909311,19.4867,-312.028,7.98767,0.0,0.0
236,58.75,56.9252,59.6855,102.659,105.134,41.6853,0.0407645,0.923504,19.4588,-312.088,8.19116,0.0,0.0
238,59.25,58.1387,60.9139,104.419,105.117,38.934,0.0413313,0.934999,19.4363,-312.169,8.79435,0.0,0.0
240,59.75,58.7152,61.7086,102.468,105.149,41.241,0.0418399,0.952647,19.4066,-312.259,8.28732,0.0,0.0
242,60.25,59.4112,62.3847,102.765,105.135,41.8836,0.0422674,0.966941,19.3826,-312.389,8.14923,0.0,0.0
244,60.75,60.0508,63.2176,103.581,105.166,42.2102,0.0426276,0.980879,19.3553,-312.469,8.08304,0.0,0.0
246,61.25,60.6985,64.195,107.317,105.147,41.6331,0.0429194,0.994292,19.3331,-312.569,8.20335,0.0,0.0
248,61.75,62.136,65.6001,107.157,105.16,42.0802,0.0431218,1.00617,19.3152,-312.639,8.10987,0.0,0.0
250,62.25,62.8256,66.2026,101.256,105.147,42.1752,0.0432858,1.0167,19.3004,-312.749,8.08885,0.0,0.0
252,62.75,63.3477,66.8151,102.661,105.172,40.221,0.0434186,1.02524,19.2883,-312.869,8.51101,0.0,0.0
254,63.25,64.3643,68.0892,100.83,105.174,41.1294,0.0434144,1.03309,19.279,-312.94,8.31345,0.0,0.0
256,63.75,65.0841,68.9112,109.582,105.187,41.9514,0.043411,1.03945,19.272,-313.01,8.13926,0.0,0.0
258,64.25,65.8525,69.7318,99.3948,105.182,44.1727,0.0434082,1.04341,19.2663,-313.1,7.68203,0.0,0.0
260,64.75,66.5077,70.6256,110.525,105.187,45.6295,0.0432402,1.04663,19.2617,-313.17,7.39511,0.0,0.0
262,65.25,67.5241,71.3847,105.712,105.194,40.9841,0.0431041,1.04923,19.258,-313.26,8.34641,0.0,0.0
264,65.75,68.0196,72.4549,106.992,105.197,42.1129,0.0427806,1.04527,19.2596,-313.32,8.10611,0.0,0.0
266,66.25,68.8572,73.1631,112.219,105.191,43.3843,0.0425185,1.04206,19.265,-313.38,7.84228,0.0,0.0
268,66.75,69.7341,74.3227,98.9162,105.198,43.6671,0.0421131,1.03464,19.2786,-313.49,7.78529,0.0,0.0
270,67.25,70.3361,74.9378,109.276,105.201,44.127,0.0416107,1.02428,19.298,-313.55,7.6928,0.0,0.0
272,67.75,71.0497,75.798,104.992,105.209,46.9074,0.0409435,1.01589,19.3136,-313.66,7.15245,0.0,0.0
274,68.25,71.5648,76.5769,111.587,105.209,44.8485,0.0401689,0.995139,19.3541,-313.721,7.54985,0.0,0.0
276,68.75,72.2655,77.5093,109.583,105.225,50.3387,0.039255,0.978331,19.3868,-313.791,6.52867,0.0,0.0
278,69.25,73.0413,78.1445,110.89,105.216,50.508,0.038257,0.956376,19.4401,-313.851,6.49815,0.0,0.0
280,69.75,73.1039,78.4418,112.61,105.226,50.3082,0.0371114,0.931087,19.4832,-313.931,6.53406,0.0,0.0
282,70.25,72.9928,78.4569,112.71,105.221,54.2968,0.03588,0.902922,19.5488,-313.981,5.85813,0.0,0.0
284,70.75,73.6503,79.3551,109.711,105.237,51.4094,0.0348826,0.873197,19.602,-314.011,6.34328,0.0,0.0
286,71.25,74.4141,79.6834,117.745,105.229,56.1628,0.0336157,0.840228,19.645,-314.081,5.55959,0.0,0.0
288,71.75,74.8039,80.6353,117.695,105.238,59.6154,0.0321764,0.805519,19.7096,-314.141,5.03207,0.0,0.0
290,72.25,74.9412,80.7257,119.915,105.231,60.461,0.0306749,0.777405,19.762,-314.141,4.90678,0.0,0.0
292,72.75,74.9589,80.8359,119.442,105.247,63.7682,0.0291567,0.739713,19.8316,-314.201,4.43656,0.0,0.0
294,73.25,75.5932,81.3736,118,105.24,59.0982,0.027927,0.709182,19.8879,-314.231,5.10943,0.0,0.0
296,73.75,75.3913,81.3918,123.62,105.247,63.2362,0.0262208,0.667786,19.9467,-314.241,4.5108,0.0,0.0
298,74.25,75.7776,81.84,128.929,105.244,69.4193,0.0245405,0.634256,20.0061,-314.281,3.68453,0.0,0.0
300,74.75,75.4867,81.9187,125.647,105.262,67.3092,0.0229109,0.607096,20.0823,-314.341,3.95936,0.0,0.0
302,75.25,75.6395,81.6166,131.432,105.25,69.0318,0.0213306,0.570929,20.144,-314.361,3.73453,0.0,0.0
304,75.75,75.4598,81.5762,128.089,105.258,74.462,0.0198162,0.541634,20.2124,-314.391,3.06474,0.0,0.0
306,76.25,75.4306,81.9197,127.72,105.249,76.3622,0.0185896,0.50762,20.2678,-314.441,2.84086,0.0,0.0
308,76.75,75.2556,81.5524,135.263,105.262,80.7502,0.0171022,0.48007,20.3207,-314.421,2.34728,0.0,0.0
310,77.25,74.8271,81.2234,130.486,105.249,80.038,0.0158975,0.449243,20.3709,-314.462,2.42462,0.0,0.0
312,77.75,74.7937,81.3014,131.397,105.267,84.1815,0.0149216,0.424273,20.4115,-314.472,1.97916,0.0,0.0
314,78.25,74.2785,80.7332,130.497,105.254,87.014,0.0136712,0.397421,20.4506,-314.472,1.68506,0.0,0.0
316,78.75,74.0693,80.5356,131.38,105.274,88.3929,0.0126583,0.372645,20.4879,-314.512,1.54753,0.0,0.0
318,79.25,74.2852,80.7442,133.261,105.257,91.0123,0.0115762,0.349853,20.5181,-314.532,1.28752,0.0,0.0
320,79.75,73.8771,80.3476,136.618,105.273,94.4676,0.0106997,0.331392,20.5526,-314.532,0.958949,0.0,0.0
322,80.25,73.1696,79.7088,135.778,105.266,96.5278,0.00990251,0.316438,20.5806,-314.562,0.767342,0.0,0.0
324,80.75,72.7363,79.3414,137.186,105.271,97.3231,0.00917838,0.296941,20.6138,-314.542,0.695082,0.0,0.0
326,81.25,71.6101,78.2355,137.077,105.265,98.7887,0.00855264,0.281149,20.6406,-314.562,0.562231,0.0,0.0
328,81.75,72.6907,78.9936,138.039,105.281,99.7667,0.00801051,0.264935,20.6738,-314.582,0.47637,0.0,0.0
330,82.25,72.248,78.9307,136.041,105.261,101.039,0.00756551,0.248723,20.7006,-314.582,0.362438,0.0,0.0
332,82.75,71.1546,77.8547,138.973,105.276,101.493,0.00719978,0.233429,20.7303,-314.562,0.324,0.0,0.0
334,83.25,71.6484,78.221,136.358,105.26,102.005,0.0069205,0.219094,20.7543,-314.552,0.278113,0.0,0.0
336,83.75,71.1718,77.5111,138.126,105.278,102.4,0.00670957,0.205681,20.779,-314.552,0.245407,0.0,0.0
338,84.25,70.8071,77.3166,139.622,105.264,102.273,0.00653871,0.193195,20.799,-314.552,0.255277,0.0,0.0
340,84.75,70.6541,77.2134,139.902,105.275,102.175,0.00643953,0.183081,20.8152,-314.582,0.264647,0.0,0.0
342,85.25,70.15,76.7387,140.291,105.282,102.745,0.00639449,0.172003,20.8283,-314.562,0.215987,0.0,0.0
344,85.75,69.4854,75.9027,134.963,105.272,102.894,0.00635801,0.16303,20.8433,-314.552,0.202324,0.0,0.0
346,86.25,69.619,76.1683,136.708,105.275,102.548,0.00639269,0.153511,20.8555,-314.582,0.2324,0.0,0.0
348,86.75,68.5379,75.4686,138.083,105.268,102.566,0.00647858,0.145801,20.8659,-314.582,0.230195,0.0,0.0
350,87.25,68.5057,75.0538,140.449,105.262,102.298,0.00654814,0.138495,20.8743,-314.572,0.252825,0.0,0.0
352,87.75,68.4665,74.4237,138.699,105.268,102.03,0.00672948,0.131622,20.8828,-314.582,0.27667,0.0,0.0
354,88.25,67.1484,74.7091,143.451,105.257,102.417,0.00687636,0.126056,20.8911,-314.572,0.24221,0.0,0.0
356,88.75,67.3133,73.9089,142.46,105.262,102.413,0.00710308,0.12068,20.8978,-314.582,0.24296,0.0,0.0
358,89.25,67.2681,73.16,139.255,105.263,102.471,0.00728673,0.115546,20.9052,-314.592,0.238052,0.0,0.0
360,89.75,66.6612,72.5253,140.702,105.256,102.45,0.00748176,0.111387,20.9113,-314.602,0.239235,0.0,0.0
362,90.25,65.6433,71.6621,139.36,105.253,102.628,0.00768139,0.107604,20.9175,-314.612,0.223606,0.0,0.0
364,90.75,65.7329,72.0846,139.117,105.251,102.802,0.00785898,0.10454,20.9225,-314.602,0.208466,0.0,0.0
366,91.25,65.4889,71.2762,140.631,105.257,102.598,0.00801712,0.101941,20.927,-314.622,0.226514,0.0,0.0
368,91.75,64.6261,70.9655,143.259,105.253,102.556,0.00814522,0.099732,20.9307,-314.632,0.22989,0.0,0.0
370,92.25,64.6858,70.8405,139.425,105.251,102.577,0.00824898,0.0979208,20.9337,-314.632,0.227882,0.0,0.0
372,92.75,64.5192,70.3236,138.394,105.247,102.633,0.00833303,0.0964341,20.9361,-314.632,0.222698,0.0,0.0
374,93.25,64.1749,70.2743,140.534,105.247,102.705,0.0083925,0.0952299,20.938,-314.652,0.216531,0.0,0.0
376,93.75,63.7574,69.8968,135.964,105.241,102.682,0.00843292,0.0943097,20.94,-314.642,0.217905,0.0,0.0
378,94.25,62.623,68.6666,139.273,105.238,102.902,0.00845838,0.0935643,20.9416,-314.642,0.198774,0.0,0.0
380,94.75,62.061,68.4146,140.946,105.25,102.369,0.00847245,0.0930113,20.943,-314.662,0.245823,0.0,0.0
382,95.25,62.0932,68.5898,140.646,105.246,102.793,0.00848384,0.0926091,20.944,-314.662,0.208834,0.0,0.0
384,95.75,62.2263,68.3649,138.346,105.232,102.57,0.00849056,0.0923051,20.9449,-314.662,0.226857,0.0,0.0
386,96.25,62.0233,67.9994,141.566,105.233,102.441,0.008496,0.0920784,20.9456,-314.662,0.238083,0.0,0.0
388,96.75,61.7909,67.5942,142.069,105.23,102.527,0.00851047,0.0918948,20.9462,-314.662,0.230382,0.0,0.0
390,97.25,61.1701,67.2572,139.7,105.238,102.656,0.00852219,0.0917461,20.9466,-314.672,0.220032,0.0,0.0
392,97.75,60.9942,66.8501,141.921,105.227,102.602,0.00854174,0.0916257,20.947,-314.682,0.223639,0.0,0.0
394,98.25,60.1814,66.5441,140.148,105.226,102.565,0.00855758,0.0916522,20.9473,-314.692,0.226792,0.0,0.0
396,98.75,59.9505,65.6661,139.561,105.222,102.678,0.00857041,0.0916737,20.9475,-314.702,0.21668,0.0,0.0
398,99.25,59.7437,66.0813,141.986,105.219,102.686,0.008572,0.0918291,20.9477,-314.722,0.215788,0.0,0.0
400,99.75,59.752,65.4293,139.746,105.211,102.903,0.00857328,0.091955,20.9479,-314.722,0.19643,0.0,0.0
402,100.25,59.3327,65.5331,142.677,105.224,102.866,0.00855546,0.0922364,20.948,-314.732,0.20072,0.0,0.0
404,100.75,59.1903,64.9463,141.048,105.208,102.692,0.00854103,0.0924643,20.9481,-314.712,0.214301,0.0,0.0
406,101.25,58.8612,64.9936,143.657,105.209,102.569,0.00850671,0.0927143,20.9482,-314.722,0.225032,0.0,0.0
408,101.75,58.2459,64.8629,142.108,105.208,102.926,0.00847891,0.0929757,20.9483,-314.712,0.194117,0.0,0.0
410,102.25,58.5268,64.1052,140.505,105.206,103.11,0.00843253,0.0931874,20.9483,-314.712,0.178153,0.0,0.0
412,102.75,58.1858,63.4168,141.238,105.196,102.829,0.00839496,0.0933589,20.9484,-314.712,0.201485,0.0,0.0
414,103.25,58.0084,64.0413,141.861,105.206,102.732,0.00833692,0.0934978,20.9484,-314.722,0.210698,0.0,0.0
416,103.75,57.7378,63.0035,138.942,105.19,102.637,0.0082899,0.0936248,20.9485,-314.722,0.217565,0.0,0.0
418,104.25,57.7438,62.8624,141.577,105.206,102.735,0.00823663,0.0937408,20.9485,-314.742,0.210455,0.0,0.0
420,104.75,56.8655,63.2619,141.342,105.197,102.948,0.00817982,0.0938566,20.9485,-314.742,0.191393,0.0,0.0
422,105.25,56.3409,62.0364,141.852,105.192,102.727,0.0081338,0.09397,20.9485,-314.762,0.209908,0.0,0.0
424,105.75,56.4,61.64,140.034,105.192,102.717,0.00806269,0.0940618,20.9485,-314.772,0.21082,0.0,0.0
426,106.25,55.9129,61.92,136.498,105.185,102.59,0.00800508,0.0941362,20.9485,-314.782,0.221186,0.0,0.0
428,106.75,56.2098,61.3727,141.057,105.176,102.619,0.0079459,0.0942401,20.9483,-314.792,0.217931,0.0,0.0
430,107.25,55.3895,61.2759,139.724,105.179,102.356,0.00789796,0.0943635,20.9479,-314.792,0.240936,0.0,0.0
432,107.75,55.6426,61.2266,138.438,105.167,102.536,0.00785037,0.0944635,20.9476,-314.802,0.224339,0.0,0.0
434,108.25,54.9157,59.8506,140.324,105.173,102.737,0.00781181,0.0947517,20.9474,-314.822,0.207455,0.0,0.0
436,108.75,54.5183,60.2125,142.023,105.164,103.085,0.00778059,0.0949852,20.9472,-314.822,0.176811,0.0,0.0
438,109.25,54.3846,60.6172,138.476,105.162,102.485,0.00775529,0.0952761,20.947,-314.852,0.228294,0.0,0.0
440,109.75,54.5934,59.8845,142.521,105.146,102.811,0.00770345,0.0956035,20.9468,-314.822,0.19883,0.0,0.0
442,110.25,54.4545,60.1501,136.962,105.152,102.824,0.00766145,0.0959196,20.9466,-314.832,0.198221,0.0,0.0
444,110.75,53.7532,59.8153,140.553,105.147,102.282,0.00759243,0.0962216,20.9466,-314.812,0.244622,0.0,0.0
446,111.25,53.5427,59.1293,140.578,105.152,102.443,0.00753651,0.0964661,20.9466,-314.822,0.231131,0.0,0.0
448,111.75,53.2744,59.082,139.629,105.135,102.792,0.00747741,0.0966642,20.9466,-314.832,0.199635,0.0,0.0
450,112.25,53.4256,59.2344,140.256,105.141,102.553,0.00741711,0.0969916,20.9466,-314.832,0.220671,0.0,0.0
452,112.75,53.4007,58.1431,139.39,105.12,102.728,0.00736827,0.0972568,20.9466,-314.852,0.203825,0.0,0.0
454,113.25,52.9966,58.8151,138.574,105.132,102.778,0.00729624,0.0974577,20.9466,-314.842,0.200535,0.0,0.0
456,113.75,52.5459,58.6381,142.293,105.11,102.876,0.0072379,0.0976205,20.9467,-314.852,0.190282,0.0,0.0
458,114.25,52.9074,57.7321,141.021,105.126,102.534,0.00717318,0.0977232,20.9467,-314.862,0.221085,0.0,0.0
460,114.75,52.3489,57.9045,138.427,105.103,102.627,0.00712075,0.0977802,20.9467,-314.882,0.211133,0.0,0.0
462,115.25,52.3246,57.258,139.037,105.113,102.706,0.00707329,0.0978264,20.9467,-314.872,0.205118,0.0,0.0
464,115.75,51.715,57.3817,137.549,105.106,102.559,0.00703485,0.0978223,20.9467,-314.872,0.217165,0.0,0.0
466,116.25,51.7164,57.1709,137.257,105.128,102.952,0.00700372,0.0978189,20.9467,-314.892,0.185168,0.0,0.0
468,116.75,51.4938,57.0357,141.001,105.081,103.05,0.0069785,0.0978992,20.9467,-314.902,0.172763,0.0,0.0
470,117.25,51.7867,56.7937,141.121,105.113,102.438,0.00695059,0.0979643,20.9467,-314.902,0.228258,0.0,0.0
472,117.75,51.003,56.3448,138.063,105.087,102.546,0.00692798,0.0980862,20.9467,-314.902,0.216733,0.0,0.0
474,118.25,50.9013,56.8307,140.204,105.085,102.391,0.00689221,0.0981849,20.9467,-314.912,0.229911,0.0,0.0
476,118.75,51.0857,56.5625,139.998,105.075,102.351,0.00686324,0.0983064,20.9467,-314.912,0.232595,0.0,0.0
478,119.25,50.6999,56.0499,137.201,105.099,102.751,0.00683978,0.0984048,20.9467,-314.932,0.200037,0.0,0.0
480,119.75,50.5097,55.6439,143.654,105.059,102.308,0.00679965,0.0984568,20.9467,-314.932,0.234899,0.0,0.0
482,120.25,49.9362,55.8672,140.457,105.063,102.489,0.00676715,0.098499,20.9467,-314.942,0.219658,0.0,0.0
484,120.75,50.2348,55.196,137.765,105.06,102.669,0.00674148,0.0985054,20.9467,-314.942,0.203876,0.0,0.0
486,121.25,49.7394,55.1408,141.006,105.078,102.752,0.00672128,0.0985106,20.9465,-314.912,0.198194,0.0,0.0
488,121.75,49.7436,55.007,141.712,105.049,102.674,0.0067141,0.0985149,20.9464,-314.922,0.202427,0.0,0.0
490,122.25,49.5238,54.9039,137.623,105.055,102.67,0.00671759,0.0985589,20.9462,-314.952,0.203288,0.0,0.0
492,122.75,49.5791,54.9773,144.469,105.044,102.877,0.00671853,0.0985945,20.9462,-314.972,0.184543,0.0,0.0
494,123.25,49.0478,54.4146,140.121,105.041,102.605,0.00673384,0.0986817,20.9461,-314.942,0.207784,0.0,0.0
496,123.75,49.5856,53.8576,142.921,105.034,102.427,0.00674559,0.0988047,20.9461,-314.962,0.222551,0.0,0.0
498,124.25,49.0611,53.5409,140.276,105.033,102.748,0.00675452,0.0989919,20.946,-314.952,0.194734,0.0,0.0
500,124.75,48.6423,53.9948,141.449,105.022,102.182,0.00676175,0.0992222,20.946,-314.962,0.242708,0.0,0.0
502,125.25,48.5807,53.582,140.518,105.016,102.563,0.00675888,0.0995174,20.9455,-315.012,0.209282,0.0,0.0
504,125.75,48.9503,53.7913,136.714,105.012,102.449,0.00675656,0.0996152,20.9451,-315.002,0.218768,0.0,0.0
506,126.25,48.3015,53.6891,137.539,105.001,102.683,0.00674746,0.0997824,20.9448,-315.002,0.197712,0.0,0.0
508,126.75,48.4297,53.1487,139.063,104.994,102.336,0.0067336,0.0999456,20.9446,-314.982,0.227029,0.0,0.0
510,127.25,48.0719,52.7047,139.753,105,102.187,0.00671909,0.100078,20.9444,-314.982,0.240436,0.0,0.0
512,127.75,48.124,52.8735,142.908,104.992,102.425,0.00670439,0.10024,20.9442,-315.012,0.219184,0.0,0.0
514,128.25,48.2991,52.8682,141.19,104.987,102.596,0.00669051,0.100372,20.9441,-315.012,0.204005,0.0,0.0
516,128.75,48.0345,52.6027,143.179,104.991,102.531,0.0066775,0.100548,20.944,-315.042,0.209981,0.0,0.0
518,129.25,47.8334,52.398,142.714,104.981,102.695,0.00666431,0.10069,20.9439,-315.042,0.194948,0.0,0.0
520,129.75,47.4946,52.2241,137.396,104.978,102.387,0.00665123,0.100747,20.9438,-315.042,0.221266,0.0,0.0
522,130.25,47.2874,52.2108,142.763,104.971,102.328,0.00663539,0.100741,20.9438,-315.042,0.225761,0.0,0.0
524,130.75,46.96,51.976,142.162,104.965,102.499,0.00661783,0.100707,20.9437,-315.032,0.210571,0.0,0.0
526,131.25,46.2789,52.0746,142.456,104.966,102.751,0.00660362,0.100653,20.9438,-315.022,0.188832,0.0,0.0
528,131.75,46.9192,52.0046,140.141,104.969,103.012,0.0065921,0.100609,20.9439,-315.032,0.166652,0.0,0.0
530,132.25,46.8528,51.4389,139.899,104.954,102.422,0.00657033,0.100504,20.9438,-315.042,0.216253,0.0,0.0
532,132.75,46.9378,51.5226,140.297,104.951,102.479,0.00654149,0.10042,20.9437,-315.052,0.211096,0.0,0.0
534,133.25,46.6909,50.683,142.157,104.948,102.841,0.00651812,0.100241,20.9435,-315.062,0.179569,0.0,0.0
536,133.75,45.8636,50.2122,136.74,104.948,102.587,0.00648178,0.100096,20.9436,-315.072,0.201446,0.0,0.0
538,134.25,46.818,51.0904,142.863,104.932,102.488,0.00645234,0.0999793,20.9439,-315.082,0.20864,0.0,0.0
540,134.75,46.1555,51.0175,140.826,104.937,102.476,0.00642654,0.0998553,20.9442,-315.092,0.210145,0.0,0.0
542,135.25,45.8913,50.5254,139.178,104.925,102.575,0.00640386,0.0997286,20.9444,-315.112,0.200574,0.0,0.0
544,135.75,46.2582,50.3857,140.071,104.935,102.244,0.00639172,0.099626,20.9445,-315.102,0.229998,0.0,0.0
546,136.25,45.8172,50.6914,138.315,104.909,102.769,0.00638188,0.0995844,20.9446,-315.102,0.182526,0.0,0.0
548,136.75,45.5875,50.1124,137.001,104.923,102.375,0.00639009,0.0995507,20.9447,-315.092,0.21773,0.0,0.0
550,137.25,45.379,49.9329,140.613,104.912,102.646,0.00639674,0.0996182,20.9448,-315.112,0.193322,0.0,0.0
552,137.75,44.688,49.3415,142.972,104.92,102.461,0.00640834,0.0997581,20.9447,-315.102,0.209983,0.0,0.0
554,138.25,45.3569,49.9747,140.812,104.908,102.519,0.00641775,0.0999297,20.9443,-315.092,0.203948,0.0,0.0
556,138.75,45.6841,49.8638,136.841,104.896,102.22,0.00641665,0.100121,20.9441,-315.102,0.228834,0.0,0.0
558,139.25,45.4211,49.9116,136.301,104.89,102.71,0.00641576,0.100269,20.9438,-315.122,0.185956,0.0,0.0
560,139.75,44.8763,49.9143,142.917,104.896,102.677,0.00641504,0.100382,20.9437,-315.152,0.189322,0.0,0.0
562,140.25,44.9503,49.532,142.008,104.891,102.736,0.00638043,0.100467,20.9435,-315.162,0.183798,0.0,0.0
564,140.75,44.6241,49.2468,143.73,104.9,102.334,0.00632177,0.100529,20.9434,-315.172,0.219294,0.0,0.0
566,141.25,44.1664,48.7372,138.594,104.885,102.445,0.00624746,0.100506,20.9437,-315.182,0.208421,0.0,0.0
568,141.75,43.9062,48.6465,143.05,104.88,102.307,0.00620309,0.100422,20.9439,-315.172,0.219878,0.0,0.0
570,142.25,44.3671,49.3892,140.082,104.879,102.371,0.00612722,0.100353,20.9441,-315.182,0.214294,0.0,0.0
572,142.75,44.9646,48.3816,142.008,104.885,102.216,0.00604553,0.100035,20.9443,-315.192,0.22818,0.0,0.0
574,143.25,44.2853,48.8462,138.855,104.864,102.18,0.00596116,0.0997775,20.9445,-315.182,0.229566,0.0,0.0
576,143.75,44.1779,49.0246,141.184,104.872,102.187,0.00589021,0.0994667,20.9446,-315.182,0.229652,0.0,0.0
578,144.25,43.6811,48.5215,142.582,104.856,102.385,0.00583038,0.0991233,20.9447,-315.162,0.211154,0.0,0.0
580,144.75,43.8605,48.3232,142.84,104.864,102.283,0.00578845,0.0989769,20.9448,-315.182,0.22062,0.0,0.0
582,145.25,43.5471,47.8064,142.767,104.853,102.481,0.00576036,0.0986828,20.9449,-315.202,0.202678,0.0,0.0
584,145.75,43.5639,47.3837,141.985,104.861,102.238,0.00574283,0.0984053,20.9454,-315.192,0.224282,0.0,0.0
586,146.25,43.7263,48.3504,136.207,104.838,102.634,0.00573332,0.0981369,20.9458,-315.192,0.188116,0.0,0.0
588,146.75,43.6425,47.6605,140.525,104.851,102.512,0.00572562,0.0978802,20.9461,-315.202,0.199755,0.0,0.0
590,147.25,43.6042,47.8369,136.356,104.853,102.303,0.00571443,0.0976577,20.9464,-315.212,0.218077,0.0,0.0
592,147.75,43.1542,48.1295,141.107,104.867,102.51,0.00570536,0.0974643,20.9466,-315.223,0.201246,0.0,0.0
594,148.25,43.4161,47.59,138.751,104.833,102.24,0.00569214,0.0972932,20.9468,-315.233,0.2217,0.0,0.0
596,148.75,43.6459,47.2257,140.066,104.843,102.427,0.00567615,0.0971414,20.9469,-315.233,0.206401,0.0,0.0
598,149.25,43.1827,47.387,142.534,104.851,102.34,0.005657,0.0970622,20.947,-315.263,0.214591,0.0,0.0
600,149.75,42.796,47.203,140.525,104.845,102.5,0.00564149,0.0970373,20.9471,-315.253,0.200359,0.0,0.0
602,150.25,42.9106,47.1118,142.761,104.819,102.563,0.00562762,0.0970172,20.9472,-315.283,0.192664,0.0,0.0
604,150.75,43.1425,47.0847,139.921,104.826,102.626,0.00561521,0.0969317,20.9472,-315.313,0.187786,0.0,0.0
606,151.25,43.0776,46.896,140.352,104.823,102.262,0.00560516,0.0968625,20.9473,-315.313,0.21907,0.0,0.0
608,151.75,43.0218,47.0239,139.254,104.836,102.233,0.00559578,0.0966129,20.9473,-315.293,0.222593,0.0,0.0
610,152.25,42.9547,47.0178,143.721,104.809,102.399,0.00559178,0.0964107,20.9473,-315.263,0.205983,0.0,0.0
612,152.75,42.6103,46.6208,140.676,104.826,102.203,0.00557582,0.0962324,20.9474,-315.263,0.224396,0.0,0.0
614,153.25,42.4204,46.38,141.16,104.809,102.175,0.00555467,0.0960749,20.9474,-315.303,0.225391,0.0,0.0
616,153.75,42.2756,46.4101,137.078,104.817,102.096,0.00553754,0.0959837,20.9474,-315.303,0.232915,0.0,0.0
618,154.25,42.2244,46.6437,142.253,104.804,102.205,0.00552366,0.0959425,20.9474,-315.283,0.222359,0.0,0.0
620,154.75,42.8248,45.9045,144.675,104.809,102.569,0.00550265,0.0959456,20.9474,-315.293,0.19128,0.0,0.0
622,155.25,42.0841,45.8757,142.584,104.803,102.671,0.00547683,0.0959641,20.9474,-315.293,0.181938,0.0,0.0
624,155.75,42.2868,46.1239,139.557,104.814,102.158,0.00545461,0.0959958,20.9478,-315.293,0.227263,0.0,0.0
626,156.25,42.0209,46.3756,139.958,104.788,102.417,0.00543544,0.095985,20.948,-315.293,0.202659,0.0,0.0
628,156.75,41.814,45.6451,139.46,104.79,102.464,0.00541796,0.0959436,20.9482,-315.313,0.198736,0.0,0.0
630,157.25,41.9472,45.4901,140.445,104.798,102.321,0.00540204,0.0959101,20.9484,-315.343,0.211865,0.0,0.0
632,157.75,41.4728,45.7645,137.914,104.775,102.377,0.00538785,0.0958829,20.949,-315.323,0.205046,0.0,0.0
634,158.25,41.696,45.3526,141.461,104.747,102.215,0.00537517,0.0957664,20.9495,-315.363,0.216638,0.0,0.0
636,158.75,41.6009,44.8901,140.493,104.76,102.129,0.00536686,0.0955869,20.9503,-315.363,0.225198,0.0,0.0
638,159.25,42.0664,45.1213,140.531,104.727,102.229,0.00536189,0.0953979,20.9509,-315.353,0.213778,0.0,0.0
640,159.75,41.7664,45.0359,137.836,104.735,102.475,0.00535852,0.0952055,20.9515,-315.353,0.193156,0.0,0.0
642,160.25,41.7104,45.6204,138.443,104.73,102.332,0.00535637,0.0949988,20.9519,-315.323,0.205053,0.0,0.0
644,160.75,40.9549,45.1402,136.485,104.712,102.181,0.00535463,0.0947856,20.9523,-315.353,0.216638,0.0,0.0
646,161.25,40.8422,45.1358,139.204,104.701,102.402,0.00535322,0.0946347,20.9525,-315.363,0.196531,0.0,0.0
648,161.75,41.9453,45.3017,138.152,104.695,102.216,0.00534712,0.0945321,20.9528,-315.343,0.212155,0.0,0.0
650,162.25,41.7517,44.9502,140.802,104.683,101.929,0.00534219,0.0944708,20.953,-315.383,0.236035,0.0,0.0
652,162.75,41.074,44.5115,136.319,104.683,101.986,0.00533943,0.0944408,20.9531,-315.383,0.231066,0.0,0.0
654,163.25,41.2032,44.5707,142.84,104.688,102.243,0.00533825,0.0944165,20.9532,-315.403,0.20922,0.0,0.0
656,163.75,40.7138,44.6506,137.525,104.685,102.564,0.00533624,0.0943387,20.9533,-315.403,0.181203,0.0,0.0
658,164.25,40.9614,44.3162,143.223,104.687,102.131,0.00533956,0.0942233,20.9534,-315.413,0.218937,0.0,0.0
660,164.75,41.2651,44.3935,143.105,104.691,102.138,0.00534225,0.0941298,20.9534,-315.423,0.218586,0.0,0.0
662,165.25,41.1303,44.692,142.06,104.702,102.205,0.00533453,0.0939575,20.9535,-315.413,0.213764,0.0,0.0
664,165.75,40.8683,44.7574,138.851,104.689,102.106,0.00532827,0.0938179,20.9535,-315.393,0.221278,0.0,0.0
666,166.25,40.7375,44.1584,140.205,104.701,102.216,0.00530589,0.0937584,20.9536,-315.393,0.212657,0.0,0.0
668,166.75,40.9317,44.3901,139.195,104.694,102.409,0.00528775,0.093629,20.9538,-315.403,0.195394,0.0,0.0
670,167.25,40.8188,44.583,141.284,104.707,102.098,0.00526193,0.0934806,20.9543,-315.413,0.223399,0.0,0.0
672,167.75,40.5788,44.2745,138.778,104.701,102.15,0.00524102,0.0933212,20.9546,-315.423,0.218414,0.0,0.0
674,168.25,40.0649,44.1625,138.573,104.716,102.204,0.00522408,0.093134,20.9549,-315.423,0.215036,0.0,0.0
676,168.75,40.6726,43.7637,140.59,104.717,102.268,0.00521901,0.09293,20.9551,-315.413,0.209595,0.0,0.0
678,169.25,40.6986,44.2605,139.348,104.722,102.113,0.00521491,0.0927648,20.9553,-315.413,0.223383,0.0,0.0
680,169.75,40.5839,43.5745,141.618,104.733,102.528,0.00522272,0.0925897,20.9554,-315.433,0.18843,0.0,0.0
682,170.25,40.2125,43.4188,140.265,104.728,101.988,0.00522905,0.0924478,20.9555,-315.443,0.234733,0.0,0.0
684,170.75,40.8168,43.7727,141.217,104.728,102.217,0.00522922,0.0923328,20.9556,-315.453,0.214929,0.0,0.0
686,171.25,40.5852,43.5785,143.609,104.724,102.554,0.0052293,0.0922397,20.9557,-315.453,0.18548,0.0,0.0
688,171.75,39.7176,43.3919,141.402,104.725,102.085,0.00522943,0.0921643,20.9558,-315.463,0.226077,0.0,0.0
690,172.25,39.9869,43.2606,135.08,104.748,102.7,0.00520858,0.0920066,20.9558,-315.463,0.174886,0.0,0.0
692,172.75,39.3878,42.635,140.845,104.728,102.402,0.00519169,0.091879,20.9557,-315.453,0.198879,0.0,0.0
694,173.25,40.0686,43.8341,142.463,104.747,102.151,0.00516318,0.0916239,20.9556,-315.463,0.222194,0.0,0.0
696,173.75,40.0918,43.2512,140.712,104.748,102.106,0.00514009,0.0914172,20.9555,-315.473,0.22619,0.0,0.0
698,174.25,40.1606,42.935,140.96,104.762,102.172,0.00511644,0.0913074,20.9555,-315.473,0.221659,0.0,0.0
700,174.75,39.7041,43.6193,141.392,104.748,101.982,0.00509728,0.0911195,20.9554,-315.483,0.23695,0.0,0.0
702,175.25,39.9461,42.892,141.45,104.761,102.099,0.00508176,0.0910104,20.9554,-315.473,0.227907,0.0,0.0
704,175.75,39.849,42.7237,140.569,104.746,102.134,0.0050692,0.0909608,20.9553,-315.483,0.223602,0.0,0.0
706,176.25,39.1046,42.3413,140.335,104.771,102.493,0.00505902,0.0909278,20.9553,-315.503,0.194672,0.0,0.0
708,176.75,39.0624,42.3908,142.985,104.765,102.587,0.00504953,0.0909077,20.9553,-315.493,0.186079,0.0,0.0
710,177.25,40.0796,43.1483,141.516,104.785,102.202,0.00504185,0.0908914,20.9553,-315.513,0.221015,0.0,0.0
712,177.75,39.9419,42.6084,140.249,104.783,102.298,0.00503563,0.0908419,20.9553,-315.513,0.212517,0.0,0.0
714,178.25,39.6636,43.0427,138.342,104.787,102.351,0.00503677,0.0907692,20.9553,-315.523,0.208256,0.0,0.0
716,178.75,39.6328,42.731,138.231,104.78,102.159,0.0050377,0.0907102,20.9553,-315.533,0.224335,0.0,0.0
718,179.25,39.4733,42.5781,140.163,104.801,102.589,0.00504625,0.090566,20.9554,-315.533,0.188918,0.0,0.0
720,179.75,39.6369,42.4588,139.719,104.8,102.323,0.00506021,0.0904492,20.9554,-315.523,0.211809,0.0,0.0
722,180.25,38.8763,42.0672,141.41,104.803,102.408,0.00507893,0.0902719,20.9555,-315.503,0.20472,0.0,0.0
724,180.75,38.5071,41.8773,143.308,104.792,102.449,0.0050941,0.0901283,20.9555,-315.513,0.200196,0.0,0.0
726,181.25,39.4903,42.5531,141.068,104.816,102.591,0.00509525,0.0900119,20.9556,-315.503,0.189981,0.0,0.0
728,181.75,39.1121,42.091,140.385,104.809,102.448,0.00509619,0.089835,20.956,-315.503,0.20168,0.0,0.0
730,182.25,39.3128,42.2825,143.115,104.831,102.345,0.00509695,0.0896917,20.9564,-315.513,0.212567,0.0,0.0
732,182.75,39.2483,42.343,147.115,104.812,102.107,0.0050703,0.0895481,20.9567,-315.513,0.231519,0.0,0.0
734,183.25,39.5495,42.5666,139.873,104.834,102.543,0.00504872,0.0894318,20.957,-315.543,0.195598,0.0,0.0
736,183.75,39.0628,41.9602,141.984,104.826,102.255,0.00502213,0.0892549,20.9572,-315.553,0.219921,0.0,0.0
738,184.25,38.6224,41.5908,140.928,104.851,102.263,0.00499241,0.0891116,20.9574,-315.553,0.221332,0.0,0.0
740,184.75,39.534,41.7542,140.437,104.836,102.211,0.00496833,0.0889956,20.9577,-315.543,0.224546,0.0,0.0
742,185.25,38.9738,41.5786,140.499,104.851,102.327,0.00493895,0.0888198,20.9579,-315.573,0.215709,0.0,0.0
744,185.75,38.3652,41.6377,139.923,104.84,102.474,0.00491516,0.0886775,20.9581,-315.593,0.202081,0.0,0.0
746,186.25,38.6313,41.7514,143.994,104.862,102.602,0.00488971,0.0886129,20.9582,-315.593,0.192887,0.0,0.0
748,186.75,39.2101,41.7236,139.146,104.849,102.6,0.00486909,0.0886063,20.9584,-315.583,0.19204,0.0,0.0
750,187.25,38.3906,42.0243,141.125,104.873,102.383,0.00483636,0.0886009,20.9585,-315.593,0.212752,0.0,0.0
752,187.75,38.6396,41.7728,135.371,104.862,102.271,0.00480984,0.0885828,20.9585,-315.583,0.221554,0.0,0.0
754,188.25,38.6349,42.1517,141.018,104.891,102.51,0.00477602,0.0885681,20.9586,-315.603,0.203306,0.0,0.0
756,188.75,38.3554,41.4433,141.637,104.873,102.026,0.00474863,0.0885424,20.9586,-315.573,0.243686,0.0,0.0
758,189.25,39.2763,41.2649,143.991,104.881,102.484,0.00472644,0.0885216,20.9587,-315.583,0.204668,0.0,0.0
760,189.75,38.7699,41.5938,139.079,104.876,102.734,0.00470847,0.0884359,20.9587,-315.603,0.182699,0.0,0.0
762,190.25,39.0164,41.6555,143.077,104.897,102.525,0.00469392,0.0883665,20.9587,-315.623,0.202568,0.0,0.0
764,190.75,38.5989,41.4588,141.276,104.89,102.261,0.00468829,0.0882277,20.9588,-315.643,0.224774,0.0,0.0
766,191.25,38.9023,41.4703,141.187,104.903,102.446,0.00468374,0.0881152,20.9588,-315.623,0.209853,0.0,0.0
768,191.75,38.5781,41.6405,141.824,104.899,102.506,0.00468128,0.0879807,20.9588,-315.633,0.204345,0.0,0.0
770,192.25,38.5448,41.2935,145.698,104.908,102.634,0.00467929,0.0878325,20.9588,-315.643,0.193996,0.0,0.0
772,192.75,38.1437,41.182,139.829,104.891,102.462,0.00467512,0.0877125,20.9588,-315.643,0.207487,0.0,0.0
774,193.25,38.4225,40.6892,138.87,104.909,102.357,0.00466945,0.0876153,20.9588,-315.623,0.218059,0.0,0.0
776,193.75,38.2998,40.7857,141.138,104.9,102.55,0.00466095,0.0875366,20.9588,-315.613,0.200597,0.0,0.0
778,194.25,38.5459,41.024,138.004,104.931,102.526,0.00465057,0.0874866,20.9591,-315.623,0.205337,0.0,0.0
780,194.75,38.2276,40.8074,142.154,104.915,102.472,0.00464215,0.0874461,20.9593,-315.623,0.208666,0.0,0.0
782,195.25,38.38,40.8673,139.96,104.929,102.409,0.00463164,0.0874418,20.9595,-315.603,0.215242,0.0,0.0
784,195.75,38.1177,40.6097,142.268,104.928,102.544,0.00462313,0.087464,20.9597,-315.603,0.203494,0.0,0.0
786,196.25,38.5439,40.6217,137.998,104.93,102.24,0.00461623,0.0875037,20.9598,-315.623,0.230001,0.0,0.0
788,196.75,38.2127,40.4118,140.84,104.922,102.407,0.00462421,0.0875555,20.9599,-315.623,0.214828,0.0,0.0
790,197.25,37.6988,40.7905,142.467,104.932,102.394,,0.0876046,,-315.653,0.216775,0.0,0.0
792,197.75,37.7679,40.7256,140.273,104.94,102.631,,0.087651,,-315.653,0.197054,0.0,0.0
794,198.25,38.1477,40.7113,140.354,104.945,102.948,,0.0876885,,-315.663,0.170111,0.0,0.0
796,198.75,38.2635,40.4818,141.645,104.939,102.474,,0.0876537,,-315.663,0.210525,0.0,0.0
798,199.25,37.4559,40.6908,139.239,104.947,102.462,,0.0875668,,-315.653,0.212247,0.0,0.0
800,199.75,37.9841,40.859,138.441,104.952,102.418,,0.0874964,,-315.663,0.216355,0.0,0.0
802,200.25,37.795,40.4995,140.078,104.943,102.84,,,,-315.653,0.17918,0.0,0.0
804,200.75,38.0018,40.4183,139.402,104.948,102.356,,,,-315.683,0.221456,0.0,0.0
806,201.25,37.9362,40.405,141.251,104.951,102.729,,,,-315.723,0.189482,0.0,0.0
808,201.75,38.0539,40.8649,141.792,104.968,102.465,,,,-315.693,0.213773,0.0,0.0
810,202.25,37.6582,40.3969,143.07,104.97,102.254,,,,-315.693,0.232114,0.0,0.0
812,202.75,37.8174,41.0499,140.853,104.968,102.441,,,,-315.683,0.215731,0.0,0.0
814,203.25,37.9521,40.1249,140.426,104.974,102.011,,,,-315.683,0.253516,0.0,0.0
816,203.75,38.0445,39.8568,141.368,104.983,102.415,,,,-315.703,0.219229,0.0,0.0
818,204.25,37.3051,40.1699,140.321,104.988,102.796,,,,-315.703,0.186818,0.0,0.0
820,204.75,37.5768,40.0362,142.437,104.983,102.619,,,,-315.713,0.201654,0.0,0.0
822,205.25,37.8009,40.0632,143.969,104.991,102.301,,,,-315.713,0.22977,0.0,0.0
824,205.75,38.2263,40.0886,140.472,104.985,102.315,,,,-315.713,0.228068,0.0,0.0
826,206.25,37.84,39.8775,139.452,104.988,102.181,,,,-315.693,0.239983,0.0,0.0
828,206.75,37.9957,40.2311,143.378,104.994,102.731,,,,-315.713,0.192888,0.0,0.0
830,207.25,37.0173,39.2118,140.628,104.993,102.244,,,,-315.763,0.234899,0.0,0.0
832,207.75,36.9826,39.6032,139.061,105.007,102.344,,,,-315.753,0.227503,0.0,0.0
833,208,37.6463,39.4117,144.73,105.012,102.733,,,,-315.753,0.194353,0.0,0.0