File: 01_Data/Asphalt_Shingle/Cone/Asphalt_Shingle_Cone_HF50Scan_220415_R3.csv
Names,Time,Stack TC,Smoke TC,Exh Press,Smoke Comp,Smoke Meas,CO Meter,CO2 Meter,O2 Meter,Sample Mass,Ext Coeff,Start Test,Flame Verif
Chan Gain,,500,500,1,1,1,1,1,1,1,1,1.0,1.0
Offset,,0,0,0.134662,0,0,0,0,0,0,0,0.0,0.0
Gain,,1,1,25.011,14.0001,15.1165,1,1,1,1.00131,1.00941,1.0,1.0
Units,sec,C,C,Pa,%,%,%,%,%,g,/m,,
Baseline,,33.0838,33.9898,142.636,104.199,101.822,0.00034763,0.0452237,21.0149,-836.61,0.204362,,
2,0.25,31.8603,32.9787,142.143,104.519,102.304,0.000421943,0.0528641,21.0058,-304.138,0.189738,0.0,0.0
4,0.75,31.926,32.447,141.634,104.507,102.122,0.000402145,0.0527537,21.0057,-304.048,0.20447,0.0,0.0
6,1.25,31.2224,32.5825,141.742,104.519,102.214,0.000386108,0.052645,21.0057,-304.068,0.197455,0.0,0.0
8,1.75,31.2329,32.3498,144.61,104.503,102.313,0.000353825,0.0525284,21.0057,-304.118,0.187527,0.0,0.0
10,2.25,31.6693,32.1076,143.83,104.521,102.155,0.000327675,0.0524083,21.0057,-304.088,0.202708,0.0,0.0
12,2.75,31.5582,31.881,140.739,104.515,101.911,0.000300467,0.0522681,21.0059,-304.078,0.22338,0.0,0.0
14,3.25,31.1853,32.3714,141.354,104.516,102.337,0.000278428,0.0521161,21.0063,-304.118,0.186535,0.0,0.0
16,3.75,31.6366,32.5688,138.892,104.53,102.259,0.00025696,0.0519929,21.0068,-304.128,0.194512,0.0,0.0
18,4.25,31.4335,32.1857,143.037,104.52,102.144,0.000239572,0.0517304,21.0075,-304.098,0.203636,0.0,0.0
20,4.75,30.984,32.5184,141.894,104.513,102.062,0.000235686,0.0515177,21.008,-304.098,0.210138,0.0,0.0
22,5.25,31.6159,32.8931,145.805,104.538,101.982,0.000241717,0.0512385,21.0084,-304.098,0.219127,0.0,0.0
24,5.75,31.4929,32.5467,144.879,104.513,102.158,0.000246602,0.050916,21.0087,-304.108,0.201745,0.0,0.0
26,6.25,31.5351,32.0364,142.124,104.519,102.044,0.00029641,0.0506048,21.0092,-304.098,0.212174,0.0,0.0
28,6.75,31.6498,32.4169,142.326,104.521,102.168,0.000336754,0.0503078,21.0096,-304.108,0.201629,0.0,0.0
30,7.25,31.5658,32.5595,144.69,104.524,102.082,0.000404463,0.050017,21.01,-304.088,0.209286,0.0,0.0
32,7.75,31.707,32.7786,145.556,104.525,102.132,0.000459308,0.0497361,21.0103,-304.098,0.205038,0.0,0.0
34,8.25,31.5304,32.845,144.002,104.527,102.26,0.000503732,0.0495086,21.0106,-304.118,0.194144,0.0,0.0
36,8.75,31.516,31.8118,143.818,104.519,102.17,0.000545759,0.0491754,21.0108,-304.118,0.201325,0.0,0.0
38,9.25,31.6821,32.3696,141.675,104.51,101.899,0.000579801,0.0489054,21.011,-304.128,0.224063,0.0,0.0
40,9.75,31.4316,32.3294,141.369,104.509,102.044,0.000585624,0.0485242,21.0111,-304.158,0.211377,0.0,0.0
42,10.25,31.3943,32.3985,139.856,104.51,101.963,0.00059034,0.0482155,21.0112,-304.138,0.218494,0.0,0.0
44,10.75,31.5249,32.5409,140.393,104.501,101.847,0.000576045,0.0479369,21.0115,-304.138,0.227722,0.0,0.0
46,11.25,31.7481,32.242,139.807,104.519,102.189,0.000564466,0.0476856,21.012,-304.158,0.199686,0.0,0.0
48,11.75,31.9077,32.7586,144.899,104.516,102.378,0.000556295,0.0474821,21.0124,-304.138,0.182982,0.0,0.0
50,12.25,31.0806,32.5144,143.354,104.521,101.844,0.000549676,0.0472224,21.0127,-304.158,0.229781,0.0,0.0
52,12.75,31.5073,32.3524,141.713,104.519,101.701,0.000560015,0.0470121,21.0129,-304.158,0.241965,0.0,0.0
54,13.25,31.6439,32.5475,140.822,104.526,101.868,0.000568389,0.046799,21.0131,-304.158,0.22805,0.0,0.0
56,13.75,31.301,32.5287,142.601,104.504,101.623,0.000586046,0.046588,21.0133,-304.168,0.247601,0.0,0.0
58,14.25,31.461,32.2461,143.447,104.51,101.469,0.000600348,0.0464027,21.0134,-304.178,0.261391,0.0,0.0
60,14.75,31.8728,32.5647,139.612,104.51,101.21,0.000611933,0.0462399,21.0135,-304.188,0.284116,0.0,0.0
62,15.25,31.7429,32.2562,140.915,104.501,101.374,0.000609235,0.0460809,21.0136,-304.168,0.268927,0.0,0.0
64,15.75,31.8651,32.503,143.772,104.495,101.158,0.00060705,0.0459522,21.0137,-304.178,0.287415,0.0,0.0
66,16.25,32.017,32.7748,141.075,104.508,101.641,0.00060528,0.0458479,21.0137,-304.168,0.246283,0.0,0.0
68,16.75,31.2034,32.337,141.902,104.492,100.816,0.000587277,0.0457634,21.0138,-304.168,0.317134,0.0,0.0
70,17.25,32.2075,32.3336,140.564,104.504,101.159,0.000557783,0.0456949,21.0141,-304.178,0.288053,0.0,0.0
72,17.75,31.722,32.522,140.586,104.493,100.718,0.000523032,0.0456395,21.0144,-304.178,0.325841,0.0,0.0
74,18.25,31.9962,32.7195,143.246,104.479,101.074,0.000494883,0.0455946,21.0146,-304.188,0.293391,0.0,0.0
76,18.75,31.7231,32.1014,141.129,104.49,100.248,0.000484789,0.0455582,21.0147,-304.198,0.36693,0.0,0.0
78,19.25,31.4605,32.6554,141.828,104.476,100.635,0.000467526,0.0455933,21.0144,-304.208,0.331614,0.0,0.0
80,19.75,31.5866,32.7122,139.856,104.477,100.232,0.000470699,0.0456797,21.0141,-304.198,0.36731,0.0,0.0
82,20.25,31.8381,32.659,145.477,104.474,100.719,0.000488707,0.0459777,21.0135,-304.238,0.324089,0.0,0.0
84,20.75,31.807,32.5019,143.12,104.471,100.459,0.000529375,0.0464244,21.013,-304.228,0.346739,0.0,0.0
86,21.25,31.3143,32.7074,141.973,104.457,100.028,0.000585787,0.0470716,21.0117,-304.278,0.383562,0.0,0.0
88,21.75,31.7842,32.3126,140.468,104.452,100.064,0.000631481,0.0474827,21.0107,-304.238,0.380015,0.0,0.0
90,22.25,31.7623,32.4347,143.759,104.452,99.7104,0.00074719,0.0485999,21.0089,-304.228,0.411344,0.0,0.0
92,22.75,31.8425,32.8135,140.279,104.447,99.424,0.000840914,0.0498777,21.0067,-304.228,0.436422,0.0,0.0
94,23.25,31.634,32.467,143.065,104.457,99.0337,0.000968986,0.0516573,21.0048,-304.298,0.472081,0.0,0.0
96,23.75,32.0084,32.8052,142.57,104.452,99.8225,0.00107272,0.0537688,21.0007,-304.298,0.401395,0.0,0.0
98,24.25,31.4587,32.6279,142.12,104.441,99.7068,0.00120534,0.0554792,20.9958,-304.298,0.410767,0.0,0.0
100,24.75,31.7245,32.886,141.257,104.451,99.6814,0.00131275,0.0594191,20.9903,-304.278,0.413854,0.0,0.0
102,25.25,31.8892,33.1374,138.488,104.417,100.673,0.0014292,0.0626104,20.982,-304.308,0.323328,0.0,0.0
104,25.75,31.6333,32.3688,140.363,104.43,101.492,0.00155004,0.067296,20.9717,-304.328,0.252682,0.0,1.0
106,26.25,32.0155,32.9727,140.578,104.406,101.746,0.00168639,0.072982,20.9634,-304.348,0.228506,0.0,1.0
108,26.75,31.7346,32.5225,136.327,104.415,102.221,0.00183146,0.0796874,20.9505,-304.378,0.188013,0.0,1.0
110,27.25,32.2146,33.1057,139.734,104.398,102.786,0.00194897,0.0870084,20.9401,-304.338,0.137826,0.0,1.0
112,27.75,31.8243,32.5942,138.927,104.415,102.237,0.00218469,0.0954257,20.9242,-304.298,0.186654,0.0,1.0
114,28.25,32.0985,32.9222,139.711,104.397,101.152,0.00237561,0.104482,20.9113,-304.378,0.279646,0.0,1.0
116,28.75,31.8517,33.013,137.508,104.399,99.7603,0.0026745,0.115181,20.9009,-304.368,0.402465,0.0,1.0
118,29.25,31.9462,33.0084,137.413,104.381,97.0648,0.00304639,0.126873,20.8819,-304.418,0.64348,0.0,1.0
120,29.75,32.372,33.107,138.17,104.38,95.1106,0.00348573,0.140116,20.8665,-304.478,0.823415,0.0,1.0
122,30.25,32.45,33.5627,131.945,104.366,91.9451,0.00396588,0.154238,20.8472,-304.478,1.12198,0.0,1.0
124,30.75,32.4373,33.4077,134.163,104.376,88.3048,0.0045268,0.165678,20.8253,-304.518,1.4805,0.0,1.0
126,31.25,32.4655,33.5072,128.197,104.371,83.2003,0.00513594,0.181859,20.787,-304.539,2.00729,0.0,1.0
128,31.75,32.432,33.3749,132.643,104.371,80.7761,0.00580215,0.201189,20.7559,-304.559,2.26912,0.0,1.0
130,32.25,32.8825,33.494,127.192,104.347,79.2366,0.0064973,0.216847,20.7067,-304.569,2.43751,0.0,0.0
132,32.75,32.7976,33.9648,127.624,104.372,74.5626,0.00724738,0.241397,20.6668,-304.639,2.978,0.0,0.0
134,33.25,32.9997,34.2745,129.813,104.356,74.2198,0.00802325,0.261283,20.6205,-304.659,3.01742,0.0,0.0
136,33.75,32.9442,34.6022,119.329,104.369,73.7903,0.00835402,0.285489,20.6007,-304.739,3.06986,0.0,0.0
138,34.25,33.493,35.3912,122.693,104.355,72.4594,0.00928461,0.305097,20.5617,-304.779,3.2299,0.0,0.0
140,34.75,34.0097,35.1831,122.127,104.356,70.2248,0.0100384,0.326716,20.5252,-304.799,3.5073,0.0,0.0
142,35.25,35.424,35.3297,124.304,104.354,67.6829,0.0106489,0.346322,20.4957,-304.839,3.8336,0.0,0.0
144,35.75,35.3874,35.5938,124.323,104.351,63.9573,0.01153,0.364086,20.4719,-304.909,4.33471,0.0,0.0
146,36.25,35.6509,36.1577,125.953,104.34,66.859,0.0122437,0.378476,20.4442,-304.919,3.94089,0.0,0.0
148,36.75,35.9437,36.6894,122.688,104.352,65.5844,0.0130009,0.386414,20.4218,-304.949,4.1123,0.0,0.0
150,37.25,36.5943,37.0887,124.629,104.322,68.7163,0.0137755,0.399987,20.3975,-305.019,3.69668,0.0,0.0
152,37.75,36.9613,37.454,120.712,104.351,66.8461,0.0144029,0.413831,20.3778,-305.119,3.94354,0.0,0.0
154,38.25,37.5617,37.79,124.393,104.331,65.3223,0.0152293,0.42761,20.3619,-305.119,4.14601,0.0,0.0
156,38.75,37.6225,38.4252,114.965,104.348,61.4293,0.0158987,0.438771,20.3393,-305.149,4.69151,0.0,0.0
158,39.25,38.1199,39.1774,123.446,104.317,60.2178,0.0164409,0.452296,20.3211,-305.269,4.86522,0.0,0.0
160,39.75,39.1525,39.7115,120.111,104.329,56.6283,0.0174395,0.467289,20.2991,-305.259,5.41047,0.0,0.0
162,40.25,38.1022,40.1675,121.184,104.316,57.0693,0.0182483,0.48233,20.275,-305.31,5.34069,0.0,0.0
164,40.75,39.5898,40.5832,118.957,104.333,56.1776,0.0193311,0.497119,20.2496,-305.4,5.48151,0.0,0.0
166,41.25,39.7324,41.5117,119.867,104.313,53.4627,0.020208,0.509099,20.2239,-305.5,5.9184,0.0,0.0
168,41.75,41.2067,41.098,120.213,104.325,54.2498,0.0211702,0.518802,20.203,-305.54,5.79006,0.0,0.0
170,42.25,40.6647,41.7074,118.527,104.313,54.2147,0.022176,0.539738,20.1678,-305.58,5.79477,0.0,0.0
172,42.75,42.1788,41.6434,117.432,104.324,51.957,0.0229908,0.556695,20.1392,-305.66,6.1723,0.0,0.0
174,43.25,42.196,43.3359,122.339,104.313,51.7116,0.0239352,0.579791,20.1042,-305.73,6.21336,0.0,0.0
176,43.75,42.6958,43.7804,108.651,104.331,50.377,0.0249561,0.598498,20.0654,-305.77,6.4464,0.0,0.0
178,44.25,43.7427,44.1065,113.115,104.312,45.7629,0.0259548,0.617698,20.0339,-305.84,7.29534,0.0,0.0
180,44.75,44.362,44.8102,113.396,104.313,46.1056,0.0269184,0.636892,20.0003,-305.94,7.22934,0.0,0.0
182,45.25,44.8249,45.9566,111.753,104.313,45.3675,0.0276989,0.652439,19.9658,-306.01,7.37224,0.0,0.0
184,45.75,45.2869,46.3174,112.012,104.313,46.3884,0.0286347,0.672154,19.9333,-306.061,7.17517,0.0,0.0
186,46.25,45.7286,47.2105,106.442,104.305,52.4109,0.0293927,0.688122,19.9028,-306.151,6.09372,0.0,0.0
188,46.75,46.2853,48.0924,109.113,104.31,49.5807,0.0302657,0.704877,19.8698,-306.241,6.58562,0.0,0.0
190,47.25,46.9942,49.0091,109.257,104.296,45.7661,0.0309728,0.721887,19.8356,-306.291,7.29334,0.0,0.0
192,47.75,47.8307,49.1329,114.784,104.298,46.7838,0.0316596,0.735665,19.8078,-306.331,7.09875,0.0,0.0
194,48.25,48.7902,50.0296,110.758,104.293,45.8962,0.0323184,0.754158,19.7787,-306.401,7.26799,0.0,0.0
196,48.75,49.0338,51.0162,111.457,104.294,44.5062,0.0328521,0.769137,19.7491,-306.501,7.54036,0.0,0.0
198,49.25,50.1607,51.3694,109.365,104.296,45.8298,0.0335863,0.783743,19.7235,-306.601,7.281,0.0,0.0
200,49.75,50.8683,52.3052,104.663,104.303,45.7172,0.0341809,0.795573,19.7013,-306.451,7.30342,0.0,0.0
202,50.25,51.252,53.2329,98.2903,104.287,46.0004,0.0346626,0.80546,19.6833,-306.892,7.24735,0.0,0.0
204,50.75,52.414,53.8585,123.65,104.292,52.5027,0.0354848,0.813741,19.668,-306.671,6.0771,0.0,0.0
206,51.25,53.032,55.0185,106.375,104.29,43.5891,0.0361509,0.820448,19.6551,-306.852,7.7244,0.0,0.0
208,51.75,53.8093,55.5931,115.896,104.284,46.6352,0.0370016,0.834941,19.6353,-306.962,7.12579,0.0,0.0
210,52.25,54.8334,56.3938,107.32,104.286,41.9773,0.0376907,0.846681,19.611,-306.992,8.05767,0.0,0.0
212,52.75,55.1388,57.1819,110.565,104.299,44.9016,0.0385242,0.863198,19.5812,-307.062,7.46245,0.0,0.0
214,53.25,55.8449,57.8725,110.594,104.292,42.8741,0.0391994,0.882883,19.5479,-307.192,7.871,0.0,0.0
216,53.75,56.5616,58.5429,100.908,104.289,41.7065,0.0400233,0.898829,19.5144,-307.262,8.11523,0.0,0.0
218,54.25,56.9604,59.3548,107.184,104.284,42.7901,0.0406907,0.918081,19.4816,-307.312,7.88767,0.0,0.0
220,54.75,57.4879,60.2977,107.209,104.28,40.3428,0.0415249,0.933676,19.4521,-307.342,8.40878,0.0,0.0
222,55.25,58.3398,60.7725,109.539,104.292,43.0355,0.0422005,0.948766,19.4258,-307.653,7.83772,0.0,0.0
224,55.75,59.1898,61.7949,109.522,104.288,46.1711,0.0430314,0.960988,19.3985,-307.683,7.21467,0.0,0.0
226,56.25,60.1596,62.8051,107.463,104.296,38.6761,0.0437044,0.976098,19.371,-307.713,8.78375,0.0,0.0
228,56.75,60.9421,63.5604,108.959,104.269,39.8589,0.0444819,0.988337,19.3392,-307.803,8.51476,0.0,0.0
230,57.25,61.4219,64.7608,94.3449,104.284,39.0276,0.0448783,1.00155,19.3306,-307.843,8.70265,0.0,0.0
232,57.75,62.2521,65.2804,99.2085,104.293,37.6487,0.0455562,1.01225,19.3116,-308.043,9.02188,0.0,0.0
234,58.25,62.9101,66.2856,107.984,104.287,42.9221,0.04619,1.0236,19.2962,-308.123,7.8607,0.0,0.0
236,58.75,63.5892,67.3018,112.748,104.256,38.9792,0.0467795,1.03279,19.2801,-308.263,8.71126,0.0,0.0
238,59.25,64.5963,67.765,106.154,104.278,34.8098,0.047257,1.04023,19.2636,-308.303,9.71481,0.0,0.0
240,59.75,65.893,68.6385,103.014,104.257,36.0535,0.04768,1.05314,19.2503,-308.384,9.40215,0.0,0.0
242,60.25,66.0279,69.781,101.872,104.262,35.0077,0.0480226,1.05661,19.2396,-308.524,9.66327,0.0,0.0
244,60.75,67.2834,70.2644,108.648,104.266,38.0754,0.0481842,1.06092,19.2308,-308.614,8.9198,0.0,0.0
246,61.25,67.4468,71.1507,100.683,104.247,36.495,0.0483151,1.06295,19.2238,-308.664,9.29355,0.0,0.0
248,61.75,67.8256,72.4546,103.092,104.242,36.4142,0.0481214,1.06459,19.2181,-308.784,9.31276,0.0,0.0
250,62.25,68.7843,72.885,107.354,104.242,36.8308,0.0479645,1.05938,19.2197,-308.884,9.21204,0.0,0.0
252,62.75,69.4862,73.5852,102.525,104.232,39.929,0.0478374,1.05516,19.2265,-308.964,8.49604,0.0,0.0
254,63.25,70.3992,74.4291,112.868,104.249,37.0186,0.0473477,1.0401,19.2321,-308.944,9.16764,0.0,0.0
256,63.75,70.8481,74.828,109.253,104.246,35.9409,0.0466028,1.0279,19.2571,-309.034,9.42897,0.0,0.0
258,64.25,71.3781,75.6864,109.827,104.241,35.0427,0.0459995,1.01018,19.2774,-309.195,9.65259,0.0,0.0
260,64.75,72.4477,76.5961,115.261,104.215,39.3302,0.045036,0.988757,19.2938,-309.285,8.62835,0.0,0.0
262,65.25,72.2786,77.3582,110.677,104.224,38.4348,0.0438282,0.971408,19.3334,-309.315,8.83306,0.0,0.0
264,65.75,73.027,77.9733,117.613,104.207,43.8539,0.0424112,0.947029,19.3655,-309.405,7.6637,0.0,0.0
266,66.25,73.6468,77.8995,114.353,104.22,38.7194,0.0408686,0.917987,19.4164,-309.475,8.76737,0.0,0.0
268,66.75,74.2493,78.3187,117.79,104.202,41.784,0.0391857,0.894463,19.4577,-309.535,8.09135,0.0,0.0
270,67.25,74.1076,79.3225,116.187,104.205,42.004,0.0374323,0.862806,19.5055,-309.665,8.04513,0.0,0.0
272,67.75,74.3918,79.8091,117.938,104.193,44.0989,0.0360121,0.837164,19.557,-309.665,7.61314,0.0,0.0
274,68.25,74.6335,80.2138,120.172,104.197,46.4539,0.0339012,0.808874,19.6149,-309.705,7.15287,0.0,0.0
276,68.75,74.5461,80.4124,120.67,104.183,48.5571,0.0321913,0.779192,19.6763,-309.795,6.75961,0.0,0.0
278,69.25,74.8961,80.2037,117.709,104.179,50.4559,0.0303825,0.748443,19.7261,-309.815,6.41963,0.0,0.0
280,69.75,75.1225,80.967,120.95,104.17,52.9308,0.028536,0.717502,19.791,-309.876,5.99485,0.0,0.0
282,70.25,74.7355,80.8587,123.242,104.169,54.694,0.0267079,0.69244,19.8435,-309.926,5.70464,0.0,0.0
284,70.75,74.8206,80.3234,126.431,104.168,56.0554,0.024928,0.664731,19.9128,-309.956,5.48683,0.0,0.0
286,71.25,75.5988,80.8376,125.53,104.168,63.5472,0.0234863,0.635618,19.9689,-309.916,4.37606,0.0,0.0
288,71.75,75.1788,81.1335,127.9,104.158,65.6406,0.0219483,0.605949,20.0144,-309.956,4.0882,0.0,0.0
290,72.25,75.199,81.0304,126.653,104.156,66.865,0.0203693,0.576439,20.0722,-310.006,3.92442,0.0,0.0
292,72.75,75.057,80.8019,128.937,104.14,70.8886,0.0188637,0.552535,20.1191,-310.026,3.4057,0.0,0.0
294,73.25,75.1593,81.2122,131.004,104.143,73.6833,0.0174401,0.521354,20.1777,-310.096,3.06355,0.0,0.0
296,73.75,75.0667,80.7146,127.288,104.134,74.2687,0.0161053,0.496097,20.2251,-310.056,2.99272,0.0,0.0
298,74.25,74.5974,80.2952,133.132,104.131,78.589,0.0148606,0.470379,20.2723,-310.086,2.49182,0.0,0.0
300,74.75,73.9542,80.7212,129.996,104.126,81.7015,0.0137151,0.444815,20.3184,-310.096,2.14747,0.0,0.0
302,75.25,74.868,79.9423,132.555,104.121,84.7775,0.0126637,0.419373,20.3746,-310.156,1.81982,0.0,0.0
304,75.75,74.0761,79.8558,130.858,104.114,86.3082,0.0116988,0.394504,20.4201,-310.156,1.66076,0.0,0.0
306,76.25,73.6884,79.6879,132.269,104.121,90.1482,0.0108152,0.374361,20.4697,-310.166,1.2759,0.0,0.0
308,76.75,73.7773,79.4028,130.854,104.093,91.5626,0.0100995,0.351667,20.5099,-310.156,1.13572,0.0,0.0
310,77.25,73.2932,79.6754,136.911,104.093,93.741,0.00934165,0.333285,20.5473,-310.146,0.927537,0.0,0.0
312,77.75,73.325,79.1703,134.89,104.092,95.0926,0.00872781,0.312914,20.5819,-310.156,0.800628,0.0,0.0
314,78.25,72.3501,78.782,139.428,104.085,96.7515,0.0082306,0.296414,20.6148,-310.176,0.646948,0.0,0.0
316,78.75,72.5547,78.4747,135.598,104.06,98.5101,0.00777105,0.277754,20.6458,-310.166,0.48531,0.0,0.0
318,79.25,71.9958,78.5082,135.311,104.073,99.1509,0.00734767,0.262639,20.6709,-310.166,0.429027,0.0,0.0
320,79.75,72.0741,78.3475,131.521,104.053,100.143,0.00700474,0.245809,20.6954,-310.176,0.339149,0.0,0.0
322,80.25,72.343,77.4974,135.059,104.056,100.14,0.00675299,0.232177,20.719,-310.176,0.339684,0.0,0.0
324,80.75,71.5327,77.4995,137.156,104.049,100.544,0.00654907,0.221135,20.742,-310.176,0.30341,0.0,0.0
326,81.25,70.747,77.5498,138.333,104.037,100.496,0.00645216,0.206236,20.7642,-310.216,0.306613,0.0,0.0
328,81.75,71.4913,76.8027,137.765,104.03,100.934,0.00641488,0.194168,20.7822,-310.226,0.267543,0.0,0.0
330,82.25,70.1619,76.5043,136.424,104.031,101.091,0.0064218,0.182443,20.8024,-310.216,0.25383,0.0,0.0
332,82.75,70.302,75.9054,137.128,104.011,101.021,0.00648513,0.171192,20.8188,-310.206,0.258297,0.0,0.0
334,83.25,70.0547,75.7328,138.268,104.001,101.253,0.00658839,0.162079,20.8349,-310.216,0.23715,0.0,0.0
336,83.75,69.1481,75.6374,141.682,103.998,101.279,0.00673915,0.152072,20.8504,-310.226,0.234519,0.0,0.0
338,84.25,69.0334,75.4245,141.417,103.99,100.891,0.00692168,0.143967,20.866,-310.236,0.267812,0.0,0.0
340,84.75,68.753,74.9389,140.251,103.983,101.206,0.00706953,0.13593,20.8787,-310.226,0.239738,0.0,0.0
342,85.25,68.1141,74.6538,138.157,103.98,101.444,0.00727053,0.12942,20.8889,-310.246,0.218681,0.0,0.0
344,85.75,68.1893,73.8785,138.386,103.964,101.221,0.00750646,0.123137,20.8972,-310.226,0.236764,0.0,0.0
346,86.25,67.616,73.7908,140.594,103.958,101.193,0.00769756,0.118047,20.9061,-310.226,0.238685,0.0,0.0
348,86.75,67.2009,73.2968,135.498,103.939,101.579,0.00777902,0.113289,20.9099,-310.226,0.203397,0.0,0.0
350,87.25,67.1254,72.8591,140.269,103.937,101.697,0.00802032,0.109435,20.916,-310.246,0.192851,0.0,0.0
352,87.75,66.5731,72.4597,138.777,103.929,101.389,0.00821577,0.105858,20.9205,-310.276,0.219067,0.0,0.0
354,88.25,65.9778,72.4603,135.056,103.913,101.351,0.00840327,0.102961,20.9246,-310.266,0.221028,0.0,0.0
356,88.75,65.9348,71.5257,140.519,103.899,101.153,0.00858142,0.100614,20.9283,-310.256,0.237129,0.0,0.0
358,89.25,65.5244,71.8065,139.698,103.894,101.427,0.00876614,0.0984083,20.9313,-310.276,0.212856,0.0,0.0
360,89.75,65.4037,70.8924,137.036,103.882,101.526,0.00891576,0.0973238,20.9353,-310.286,0.203105,0.0,0.0
362,90.25,64.6877,71.1261,139.625,103.879,101.25,0.00906624,0.0954693,20.9385,-310.276,0.227019,0.0,0.0
364,90.75,64.521,70.4358,144.591,103.866,101.246,0.00921449,0.0938295,20.9415,-310.296,0.226213,0.0,0.0
366,91.25,64.3987,70.2698,143.533,103.848,101.478,0.00936458,0.0925013,20.9439,-310.316,0.204375,0.0,0.0
368,91.75,64.199,70.1861,139.266,103.856,101.296,0.00951314,0.0914404,20.9459,-310.296,0.221059,0.0,0.0
370,92.25,63.5155,69.543,140.141,103.839,101.557,0.00963348,0.0905945,20.9475,-310.296,0.19677,0.0,0.0
372,92.75,62.5657,68.2183,140.473,103.833,102.054,0.00976767,0.0899455,20.9488,-310.296,0.152967,0.0,0.0
374,93.25,62.5366,68.2905,135.179,103.819,101.42,0.00990943,0.0894525,20.9498,-310.306,0.207048,0.0,0.0
376,93.75,61.7825,68.0981,140.235,103.816,101.648,0.0100396,0.0890531,20.9507,-310.316,0.186919,0.0,0.0
378,94.25,62.0795,67.4586,138.793,103.818,101.261,0.0101589,0.0887159,20.9514,-310.336,0.220842,0.0,0.0
380,94.75,61.4566,67.5996,138.171,103.793,101.322,0.0102703,0.0884427,20.9519,-310.346,0.213368,0.0,0.0
382,95.25,60.8493,66.6059,138.848,103.781,101.182,0.0103737,0.0882352,20.9524,-310.346,0.224575,0.0,0.0
384,95.75,60.477,66.6522,139.198,103.771,101.141,0.0104695,0.0880671,20.9528,-310.346,0.22733,0.0,0.0
386,96.25,60.4229,66.6554,137.938,103.776,101.376,0.010558,0.087931,20.9531,-310.376,0.207191,0.0,0.0
388,96.75,60.3533,66.2075,139.405,103.769,101.483,0.0106404,0.0878207,20.9533,-310.386,0.197191,0.0,0.0
390,97.25,59.9273,65.8218,141.308,103.769,101.123,0.0107168,0.0877604,20.9535,-310.376,0.228683,0.0,0.0
392,97.75,59.3737,65.3042,143.224,103.756,101.252,0.010784,0.0877376,20.9537,-310.356,0.216363,0.0,0.0
394,98.25,59.2921,65.2215,142.395,103.745,101.344,0.0108433,0.0877698,20.9538,-310.346,0.207313,0.0,0.0
396,98.75,58.9272,64.1392,137.13,103.748,101.21,0.0108913,0.0878416,20.9539,-310.356,0.219342,0.0,0.0
398,99.25,59.288,64.52,142.415,103.735,101.24,0.0109443,0.0879288,20.954,-310.386,0.215588,0.0,0.0
400,99.75,57.96,64.6259,141.882,103.719,101.304,0.0109581,0.0880255,20.954,-310.366,0.208596,0.0,0.0
402,100.25,58.4262,64.4159,140.615,103.698,101.307,0.0109758,0.0881183,20.9541,-310.386,0.206563,0.0,0.0
404,100.75,57.9445,63.8617,142.104,103.705,101.326,0.0109847,0.0882065,20.9541,-310.376,0.205497,0.0,0.0
406,101.25,58.4566,63.4392,140.064,103.685,101.371,0.0109919,0.088278,20.9539,-310.376,0.199833,0.0,0.0
408,101.75,57.4854,63.1703,137.826,103.687,101.449,0.010985,0.0883359,20.9539,-310.356,0.193244,0.0,0.0
410,102.25,57.14,63.0561,140.495,103.679,101.457,0.0109794,0.0884028,20.9538,-310.356,0.191823,0.0,0.0
412,102.75,57.2203,62.474,141.997,103.684,101.158,0.010966,0.0884208,20.9537,-310.336,0.218392,0.0,0.0
414,103.25,56.9947,62.5883,139.251,103.657,101.531,0.0109551,0.0885608,20.9537,-310.356,0.183449,0.0,0.0
416,103.75,57.0153,62.2548,139.326,103.653,101.138,0.0109348,0.0886743,20.9534,-310.376,0.217465,0.0,0.0
418,104.25,56.282,61.9839,135.327,103.647,101.432,0.0109164,0.0888678,20.953,-310.386,0.191304,0.0,0.0
420,104.75,55.8387,61.6797,138.294,103.65,101.248,0.0108997,0.0891159,20.9526,-310.396,0.207639,0.0,0.0
422,105.25,55.7815,61.5499,142.514,103.631,101.569,0.0108861,0.0894271,20.9524,-310.396,0.177924,0.0,0.0
424,105.75,55.7903,61.4573,141.79,103.638,101.24,0.0108798,0.0896792,20.9521,-310.396,0.207303,0.0,0.0
426,106.25,54.8117,60.599,140.746,103.634,101.188,0.010879,0.0900213,20.952,-310.396,0.211502,0.0,0.0
428,106.75,55.4279,60.135,135.283,103.622,101.375,0.0108786,0.0902984,20.9519,-310.406,0.194101,0.0,0.0
430,107.25,55.0553,60.4606,143.451,103.606,101.184,0.0108792,0.0906608,20.9517,-310.406,0.209489,0.0,0.0
432,107.75,54.7091,60.4342,139.255,103.614,100.991,0.0108797,0.0909544,20.9516,-310.406,0.227072,0.0,0.0
434,108.25,54.7232,59.7966,141.893,103.59,101.466,0.0108636,0.091344,20.9515,-310.406,0.183392,0.0,0.0
436,108.75,54.6315,59.5861,143.634,103.605,101.314,0.0108506,0.0916595,20.9515,-310.416,0.197925,0.0,0.0
438,109.25,54.4245,59.6302,140.988,103.583,101.183,0.01084,0.0919151,20.9514,-310.436,0.20752,0.0,0.0
440,109.75,53.9046,59.266,141.784,103.582,101.497,0.0108047,0.0920677,20.9514,-310.456,0.180078,0.0,0.0
442,110.25,53.5142,58.8757,139.923,103.561,100.794,0.010752,0.0923286,20.9505,-310.456,0.239799,0.0,0.0
444,110.75,52.8559,58.6273,140.776,103.567,101.498,0.0106906,0.0925544,20.9497,-310.456,0.178716,0.0,0.0
446,111.25,53.534,58.6771,138.27,103.548,101.266,0.0106241,0.0927504,20.9491,-310.506,0.197342,0.0,0.0
448,111.75,53.0164,58.3252,137.662,103.57,101.247,0.0105702,0.0929092,20.9486,-310.516,0.200896,0.0,0.0
450,112.25,53.2074,58.0639,139.58,103.528,101.451,0.0105065,0.0929869,20.9482,-310.536,0.17942,0.0,0.0
452,112.75,52.9141,58.1318,139.109,103.535,100.84,0.0104369,0.0930041,20.9479,-310.546,0.233551,0.0,0.0
454,113.25,52.9595,58.1453,140.112,103.522,101.233,0.0103805,0.0930181,20.9477,-310.546,0.197974,0.0,0.0
456,113.75,52.6203,57.8851,140.499,103.55,101.352,0.0103196,0.0929879,20.9474,-310.516,0.189908,0.0,0.0
458,114.25,52.252,56.8044,138.513,103.503,101.432,0.0102703,0.0929635,20.9473,-310.556,0.178959,0.0,0.0
460,114.75,51.9752,56.4421,141.623,103.521,101.371,0.010238,0.0930164,20.9471,-310.526,0.185843,0.0,0.0
462,115.25,52.3574,57.6008,138.142,103.505,101.621,0.0102118,0.0931247,20.947,-310.556,0.162606,0.0,0.0
464,115.75,51.5525,56.673,140.399,103.512,101.29,0.010207,0.0932123,20.9469,-310.576,0.192171,0.0,0.0
466,116.25,51.1926,56.5957,143.22,103.496,101.112,0.0102032,0.0937392,20.9469,-310.556,0.206285,0.0,0.0
468,116.75,50.9306,56.4403,138.7,103.511,101.356,0.0102216,0.0941659,20.9466,-310.546,0.186336,0.0,0.0
470,117.25,51.222,56.5172,138.777,103.485,101.103,0.0102366,0.0946936,20.9461,-310.566,0.206219,0.0,0.0
472,117.75,51.2444,56.0978,136.488,103.497,101.098,0.0102652,0.0952847,20.9458,-310.576,0.207648,0.0,0.0
474,118.25,50.7812,55.8993,136.216,103.485,101.341,0.0102883,0.095805,20.9455,-310.576,0.185433,0.0,0.0
476,118.75,50.6296,55.7687,139.348,103.471,101.087,0.0103109,0.0962264,20.9452,-310.576,0.206424,0.0,0.0
478,119.25,50.6444,55.8028,138.885,103.467,100.996,0.0103292,0.0965817,20.9451,-310.576,0.214021,0.0,0.0
480,119.75,50.4811,56.0994,140.047,103.475,101.242,0.010344,0.0968694,20.9449,-310.586,0.193226,0.0,0.0
482,120.25,50.2117,55.6878,139.414,103.457,101.424,0.0103408,0.0971163,20.9445,-310.586,0.175728,0.0,0.0
484,120.75,49.8987,54.835,136.926,103.471,101.162,0.0103382,0.0973162,20.9441,-310.606,0.199803,0.0,0.0
486,121.25,50.338,54.7205,139.978,103.456,101.154,0.0103233,0.0974367,20.9439,-310.606,0.199172,0.0,0.0
488,121.75,49.811,54.5239,135.516,103.463,101.234,0.0103114,0.0975343,20.944,-310.606,0.192888,0.0,0.0
490,122.25,49.7654,54.9365,136.762,103.442,101.491,0.010303,0.0976425,20.944,-310.616,0.168574,0.0,0.0
492,122.75,49.6719,54.6191,140.742,103.451,100.973,0.0102974,0.0977563,20.9441,-310.616,0.214655,0.0,0.0
494,123.25,49.5516,54.3945,140.43,103.456,101.156,0.0102989,0.0978485,20.9441,-310.637,0.199125,0.0,0.0
496,123.75,49.1926,54.4584,137.803,103.443,101.119,0.0103055,0.0979305,20.9437,-310.626,0.201185,0.0,0.0
498,124.25,49.7192,54.2318,137.878,103.44,100.929,0.0103083,0.0980034,20.9434,-310.626,0.217585,0.0,0.0
500,124.75,49.4009,53.9425,141.799,103.45,100.956,0.0103233,0.0980625,20.9432,-310.626,0.216079,0.0,0.0
502,125.25,49.0574,53.312,142.268,103.458,101.012,0.0103361,0.0981519,20.943,-310.626,0.211842,0.0,0.0
504,125.75,48.7962,53.6693,137.161,103.441,101.275,0.010347,0.0982243,20.9428,-310.626,0.187319,0.0,0.0
506,126.25,48.7037,53.6793,135.435,103.434,101.249,0.0103559,0.0982691,20.9426,-310.657,0.188992,0.0,0.0
508,126.75,48.6606,52.8718,141.986,103.45,101.264,0.0103564,0.0983054,20.9425,-310.667,0.189169,0.0,0.0
510,127.25,48.4579,53.4888,140.983,103.458,101.268,0.0103508,0.098299,20.9424,-310.677,0.189423,0.0,0.0
512,127.75,47.9456,52.4493,141.499,103.443,101.236,0.0103436,0.0982881,20.9423,-310.677,0.190891,0.0,0.0
514,128.25,48.4439,52.9897,140.003,103.452,101.488,0.0103354,0.0982516,20.9422,-310.697,0.169692,0.0,0.0
516,128.75,48.1603,53.2393,138.117,103.458,101.223,0.0103254,0.098222,20.9422,-310.697,0.193381,0.0,0.0
518,129.25,48.1771,52.5386,138.845,103.446,100.735,0.0103143,0.0982126,20.9421,-310.677,0.235115,0.0,0.0
520,129.75,48.0154,52.9739,139.348,103.444,100.892,0.0103006,0.0982182,20.9421,-310.677,0.221189,0.0,0.0
522,130.25,47.9019,52.3098,139.794,103.458,101.539,0.0102853,0.0982372,20.9421,-310.687,0.165818,0.0,0.0
524,130.75,47.2632,52.2194,139.671,103.456,101.052,0.010273,0.0982657,20.942,-310.697,0.208138,0.0,0.0
526,131.25,47.2817,52.0885,139.712,103.46,101.05,0.0102604,0.0982888,20.942,-310.707,0.208706,0.0,0.0
528,131.75,46.9844,51.7555,136.9,103.456,101.259,0.0102502,0.0983767,20.942,-310.717,0.190087,0.0,0.0
530,132.25,47.6079,52.2472,140.239,103.471,101.391,0.010242,0.0984479,20.942,-310.717,0.179834,0.0,0.0
532,132.75,46.926,51.7265,141.002,103.457,101.028,0.0102353,0.0985748,20.942,-310.727,0.210354,0.0,0.0
534,133.25,46.8294,51.4668,142.054,103.484,101.294,0.0102121,0.0986776,20.9421,-310.727,0.189395,0.0,0.0
536,133.75,47.4055,51.7607,141.101,103.469,101.354,0.0101934,0.0987746,20.9422,-310.727,0.182915,0.0,0.0
538,134.25,47.187,51.4218,144.263,103.482,101.037,0.0101542,0.0988533,20.9424,-310.737,0.211739,0.0,0.0
540,134.75,46.558,51.4187,138.718,103.471,101.021,0.0101009,0.098917,20.9425,-310.737,0.212208,0.0,0.0
542,135.25,46.9304,50.847,136.88,103.486,100.985,0.0100403,0.0989394,20.9426,-310.767,0.216678,0.0,0.0
544,135.75,46.9123,50.7706,141.791,103.485,101.216,0.00997574,0.0989314,20.9426,-310.747,0.196286,0.0,0.0
546,136.25,46.356,50.6962,138.203,103.498,101.028,0.00992341,0.0989249,20.9427,-310.747,0.213864,0.0,0.0
548,136.75,46.1453,50.7517,141.523,103.496,101.197,0.00983049,0.0989051,20.9428,-310.747,0.198891,0.0,0.0
550,137.25,46.6417,50.7703,139.39,103.507,101.124,0.0098055,0.0988759,20.9428,-310.767,0.206226,0.0,0.0
552,137.75,46.5494,50.5538,140.691,103.506,101.201,0.00976276,0.0988522,20.9428,-310.777,0.19945,0.0,0.0
554,138.25,46.144,49.9896,136.499,103.512,101.144,0.00972814,0.0988884,20.9428,-310.797,0.204964,0.0,0.0
556,138.75,45.6991,50.0697,137.509,103.514,101.043,0.009714,0.0989178,20.9429,-310.807,0.213919,0.0,0.0
558,139.25,45.9483,50.2662,136.559,103.525,101.168,0.00970255,0.0989692,20.9429,-310.807,0.203925,0.0,0.0
560,139.75,46.2122,50.1558,133.438,103.509,101.174,0.00970213,0.0990287,20.9429,-310.817,0.202007,0.0,0.0
562,140.25,45.8241,49.5304,140.389,103.525,101.618,0.00970178,0.0990446,20.9429,-310.817,0.164565,0.0,0.0
564,140.75,46.4286,49.5173,135.855,103.52,101.046,0.00970151,0.099072,20.9429,-310.827,0.214188,0.0,0.0
566,141.25,45.6444,49.5177,137.858,103.535,100.956,0.00969749,0.0990504,20.9429,-310.827,0.223393,0.0,0.0
568,141.75,45.075,49.2854,139.267,103.518,101.65,0.00969423,0.0989936,20.9429,-310.837,0.161243,0.0,0.0
570,142.25,45.607,49.9602,139.219,103.528,101.147,0.00967962,0.0988893,20.9429,-310.837,0.205956,0.0,0.0
572,142.75,45.5294,48.6985,140.566,103.521,101.568,0.009657,0.0987524,20.9429,-310.827,0.168658,0.0,0.0
574,143.25,44.8508,49.2277,135,103.527,101.201,0.00961874,0.0986197,20.9429,-310.827,0.201237,0.0,0.0
576,143.75,45.0819,49.0057,139.143,103.515,101.347,0.00956979,0.0984925,20.9429,-310.847,0.187432,0.0,0.0
578,144.25,45.1613,49.1581,141.448,103.523,101.431,0.00951486,0.0983895,20.9429,-310.847,0.180794,0.0,0.0
580,144.75,45.2977,48.8445,142.077,103.508,101.224,0.00945662,0.0983206,20.9429,-310.867,0.197498,0.0,0.0
582,145.25,44.6682,48.334,140.629,103.538,101.334,0.00939816,0.0982779,20.9429,-310.867,0.19057,0.0,0.0
584,145.75,44.4985,48.9295,143.559,103.521,101.406,0.00934065,0.0982725,20.9434,-310.857,0.182822,0.0,0.0
586,146.25,44.7622,48.4776,138.61,103.537,101.183,0.00929473,0.0982943,20.9437,-310.857,0.203575,0.0,0.0
588,146.75,44.6909,48.8281,139.671,103.524,101.63,0.00925813,0.098312,20.944,-310.867,0.163527,0.0,0.0
590,147.25,44.1446,47.8153,143.398,103.542,101.255,0.00922848,0.0981879,20.9443,-310.877,0.197754,0.0,0.0
592,147.75,44.5842,48.2907,138.253,103.535,101.123,0.00922506,0.0980875,20.9444,-310.867,0.208755,0.0,0.0
594,148.25,44.5296,48.0813,139.47,103.547,101.541,0.00924081,0.0978401,20.945,-310.887,0.173216,0.0,0.0
596,148.75,44.6566,48.4019,141.871,103.542,101.389,0.00926952,0.0976398,20.9455,-310.897,0.186063,0.0,0.0
598,149.25,43.8416,47.9283,139.182,103.554,101.354,0.00930713,0.0974498,20.9459,-310.897,0.190112,0.0,0.0
600,149.75,43.8598,47.3664,139.991,103.553,101.374,0.00934159,0.097296,20.9462,-310.907,0.188302,0.0,0.0
602,150.25,44.5318,47.9043,143.197,103.568,101.788,0.00937309,0.0972682,20.9465,-310.897,0.153515,0.0,0.0
604,150.75,43.6417,47.9871,137.169,103.559,101.162,0.00939262,0.0972456,20.9467,-310.907,0.207372,0.0,0.0
606,151.25,43.4259,47.5292,139.725,103.578,101.248,0.00940305,0.0972565,20.9468,-310.937,0.201468,0.0,0.0
608,151.75,43.8622,47.649,138.581,103.559,101.098,0.00939954,0.0972915,20.947,-310.887,0.212983,0.0,0.0
610,152.25,43.7228,46.7731,136.309,103.592,101.521,0.00938592,0.0973854,20.9467,-310.907,0.178785,0.0,0.0
612,152.75,43.8159,46.8942,139.925,103.576,101.538,0.0093749,0.0975204,20.9464,-310.917,0.175986,0.0,0.0
614,153.25,43.0653,47.0345,137.693,103.596,101.379,0.00934457,0.0976662,20.9462,-310.917,0.191552,0.0,0.0
616,153.75,42.6751,46.6348,139.51,103.596,101.425,0.00932001,0.097817,20.946,-310.917,0.187487,0.0,0.0
618,154.25,43.3813,47.2617,138.6,103.614,101.552,0.00930011,0.0979246,20.9459,-310.917,0.178026,0.0,0.0
620,154.75,42.7732,47.1202,138.509,103.618,100.957,0.00929409,0.0979987,20.9457,-310.937,0.230318,0.0,0.0
622,155.25,43.7102,46.7621,140.065,103.625,100.99,0.00928921,0.0980587,20.9456,-310.957,0.22807,0.0,0.0
624,155.75,43.3848,46.6849,140.332,103.616,101.314,0.00928526,0.0981755,20.9453,-310.977,0.198914,0.0,0.0
626,156.25,43.0239,46.9379,142.053,103.645,101.479,0.0092808,0.0982702,20.9452,-310.967,0.187015,0.0,0.0
628,156.75,43.163,47.1005,138.941,103.639,101.556,0.00927718,0.0984343,20.9455,-310.967,0.179781,0.0,0.0
630,157.25,43.0458,46.5955,139.57,103.652,101.256,0.00923641,0.0986459,20.9458,-310.967,0.207058,0.0,0.0
632,157.75,43.0868,46.2406,138.166,103.649,101.463,0.00920339,0.0988173,20.946,-310.977,0.188749,0.0,0.0
634,158.25,43.0354,46.5778,136.75,103.668,101.349,0.00914135,0.0989561,20.9464,-310.997,0.20034,0.0,0.0
636,158.75,42.9396,46.6378,140.822,103.666,101.414,0.0090911,0.0989302,20.9469,-310.997,0.194477,0.0,0.0
638,159.25,42.7702,46.2491,138.484,103.648,101.677,0.00902018,0.0987846,20.9474,-310.997,0.170055,0.0,0.0
640,159.75,42.4858,46.1182,138.895,103.641,101.263,0.00896274,0.0985429,20.9477,-310.987,0.205541,0.0,0.0
642,160.25,42.8274,46.1358,136.297,103.62,101.253,0.00890362,0.0982357,20.948,-311.007,0.204639,0.0,0.0
644,160.75,42.5759,46.1966,137.826,103.615,101.014,0.00887842,0.0979651,20.9481,-311.027,0.225128,0.0,0.0
646,161.25,42.8639,46.269,143.056,103.608,100.992,0.00882887,0.0977263,20.9484,-311.017,0.226521,0.0,0.0
648,161.75,43.1864,45.7812,137.227,103.589,101.01,0.00881785,0.0975037,20.9485,-311.017,0.22326,0.0,0.0
650,162.25,42.5594,46.7284,138.658,103.591,101.211,0.00881314,0.0972972,20.9486,-311.017,0.205797,0.0,0.0
652,162.75,42.6218,46.2215,139.451,103.587,101.527,0.00882165,0.0970471,20.9487,-311.037,0.177824,0.0,0.0
654,163.25,42.3629,45.6815,138.774,103.585,101.624,0.00884342,0.0968444,20.9493,-311.037,0.169197,0.0,0.0
656,163.75,42.034,44.99,137.711,103.581,101.337,0.0088657,0.096758,20.9497,-311.047,0.193905,0.0,0.0
658,164.25,42.1083,45.6279,139.896,103.588,101.376,0.00888792,0.0963699,20.9502,-311.047,0.191104,0.0,0.0
660,164.75,41.3886,45.0343,139.858,103.596,101.035,0.00890592,0.0962655,20.9506,-311.037,0.221661,0.0,0.0
662,165.25,42.2532,45.1642,141.544,103.591,101.272,0.0089079,0.0960506,20.951,-311.057,0.200466,0.0,0.0
664,165.75,42.3922,45.6527,134.497,103.601,101.214,0.00890951,0.0958438,20.9512,-311.057,0.20639,0.0,0.0
666,166.25,42.4169,45.2033,141.955,103.6,101.638,0.00888688,0.0956405,20.9514,-311.067,0.169229,0.0,0.0
668,166.75,41.8366,45.4059,142.661,103.608,101.326,0.00886854,0.0954435,20.9516,-311.057,0.197286,0.0,0.0
670,167.25,41.9396,45.0322,143.365,103.624,101.131,0.00881217,0.0952839,20.952,-311.067,0.215629,0.0,0.0
672,167.75,41.5697,45.0565,140.603,103.624,101.274,0.0087665,0.0951684,20.9525,-311.087,0.203117,0.0,0.0
674,168.25,42.1189,45.0866,139.267,103.634,101.73,0.00870371,0.0950749,20.9529,-311.087,0.164193,0.0,0.0
676,168.75,41.5614,45.1715,137.797,103.633,101.646,0.00862962,0.0949992,20.9533,-311.097,0.17147,0.0,0.0
678,169.25,41.5355,44.9722,139.848,103.629,101.391,0.00855045,0.0949378,20.9535,-311.087,0.193352,0.0,0.0
680,169.75,41.0346,44.379,136.543,103.647,101.635,0.00846907,0.0948605,20.9537,-311.117,0.173599,0.0,0.0
682,170.25,41.1803,44.5522,137.171,103.646,101.256,0.00839391,0.0947979,20.9539,-311.107,0.206551,0.0,0.0
684,170.75,41.4742,44.9046,138.841,103.661,101.44,0.00832471,0.0946527,20.9541,-311.117,0.191744,0.0,0.0
686,171.25,41.6374,44.2401,143.12,103.656,101.313,0.00827064,0.09445,20.9542,-311.097,0.202463,0.0,0.0
688,171.75,41.0669,44.2105,139.639,103.678,101.588,0.00822862,0.0942859,20.9543,-311.127,0.18029,0.0,0.0
690,172.25,41.4972,44.5052,138.738,103.662,101.416,0.00820516,0.0941115,20.9544,-311.147,0.193951,0.0,0.0
692,172.75,41.0615,44.2199,140.21,103.687,101.514,0.00819566,0.0939702,20.9544,-311.127,0.187569,0.0,0.0
694,173.25,42.0827,44.554,140.647,103.692,101.77,0.00818797,0.0939525,20.9545,-311.137,0.165626,0.0,0.0
696,173.75,41.6283,44.3276,148.011,103.701,101.412,0.0081968,0.0939381,20.9543,-311.137,0.197633,0.0,0.0
698,174.25,41.1596,44.2499,137.82,103.689,101.768,0.00820396,0.0940645,20.9539,-311.097,0.165531,0.0,0.0
700,174.75,41.227,43.9865,139.666,103.717,101.602,0.00820976,0.0941669,20.9536,-311.117,0.18244,0.0,0.0
702,175.25,41.2096,44.1217,138.935,103.716,101.591,0.00819437,0.0945815,20.9529,-311.137,0.183256,0.0,0.0
704,175.75,40.5647,43.7216,139.902,103.735,101.005,0.0081819,0.0949174,20.9519,-311.117,0.236145,0.0,0.0
706,176.25,41.1809,44.2873,141.014,103.744,101.241,0.00815529,0.0954005,20.9512,-311.147,0.216273,0.0,0.0
708,176.75,40.3508,43.8139,139.889,103.749,101.716,0.00811889,0.0959818,20.9505,-311.147,0.175215,0.0,0.0
710,177.25,41.3094,43.5031,137.325,103.747,101.558,0.00808082,0.0964745,20.95,-311.157,0.188854,0.0,0.0
712,177.75,41.2026,44.0216,137.19,103.763,101.387,0.00804226,0.0968933,20.9496,-311.157,0.205093,0.0,0.0
714,178.25,40.6698,43.9969,141.07,103.767,101.443,0.00801103,0.0972325,20.9492,-311.177,0.200548,0.0,0.0
716,178.75,41.5168,44.1495,140.086,103.771,101.312,0.00797782,0.0974927,20.9489,-311.177,0.212319,0.0,0.0
718,179.25,40.1746,43.0384,136.493,103.774,101.462,0.0079438,0.0976904,20.9478,-311.187,0.199521,0.0,0.0
720,179.75,40.4254,43.6028,141.256,103.797,101.317,0.00791623,0.0979087,20.9469,-311.177,0.214136,0.0,0.0
722,180.25,40.783,43.5419,140.13,103.793,101.59,0.00788389,0.098138,20.9461,-311.157,0.190013,0.0,0.0
724,180.75,40.5794,43.8155,139.085,103.821,101.719,0.00785769,0.0983238,20.9455,-311.197,0.181094,0.0,0.0
726,181.25,40.9188,43.8452,139.367,103.826,101.9,0.00782895,0.0984378,20.945,-311.197,0.16584,0.0,0.0
728,181.75,40.5257,43.6222,141.183,103.832,101.363,0.00780567,0.0984974,20.9446,-311.207,0.213093,0.0,0.0
730,182.25,40.4512,43.8003,139.259,103.829,101.707,0.00778022,0.0985457,20.9443,-311.217,0.182791,0.0,0.0
732,182.75,40.8182,43.2801,137.899,103.858,101.648,0.00775368,0.0983773,20.9441,-311.197,0.190453,0.0,0.0
734,183.25,40.6774,43.071,140.654,103.854,101.721,0.00773218,0.0982408,20.9438,-311.187,0.183735,0.0,0.0
736,183.75,40.5312,43.8001,139.612,103.879,101.6,0.00770725,0.0978123,20.9439,-311.187,0.196455,0.0,0.0
738,184.25,40.7148,43.4086,140.16,103.869,101.534,0.00768706,0.0974651,20.9442,-311.197,0.201292,0.0,0.0
740,184.75,40.6229,43.8054,136.385,103.889,101.579,0.00766821,0.096944,20.9451,-311.217,0.199098,0.0,0.0
742,185.25,40.6811,43.749,137.984,103.892,101.836,0.00765293,0.096306,20.9464,-311.227,0.176947,0.0,0.0
744,185.75,40.6445,43.239,138.935,103.92,101.82,0.0076368,0.0957892,20.9475,-311.207,0.180717,0.0,0.0
746,186.25,40.9361,43.1482,141.338,103.913,101.369,0.00762374,0.0951222,20.9488,-311.227,0.219416,0.0,0.0
748,186.75,40.6302,43.1697,140.918,103.95,101.673,0.00760921,0.0945819,20.9499,-311.237,0.196104,0.0,0.0
750,187.25,40.1399,43.1286,140.949,103.934,101.409,0.00759388,0.0940716,20.9508,-311.247,0.217812,0.0,0.0
752,187.75,39.9611,42.903,142.03,103.96,101.777,0.00758146,0.093593,20.9515,-311.267,0.187906,0.0,0.0
754,188.25,40.4256,43.05,138.674,103.966,101.667,0.0075689,0.0931037,20.952,-311.277,0.197973,0.0,0.0
756,188.75,40.217,42.955,138.252,103.988,101.475,0.00755873,0.0926159,20.9525,-311.257,0.216558,0.0,0.0
758,189.25,40.4678,42.926,142.675,103.989,101.914,0.00754324,0.0922207,20.9529,-311.287,0.178472,0.0,0.0
760,189.75,40.4496,42.8899,141.081,104.008,101.63,0.00752418,0.091818,20.9536,-311.307,0.204717,0.0,0.0
762,190.25,39.7654,42.7702,142.366,104.014,101.551,0.00749756,0.0914917,20.9542,-311.287,0.212182,0.0,0.0
764,190.75,40.6355,42.8792,139.091,104.031,101.874,0.00746592,0.0911035,20.9547,-311.307,0.185517,0.0,0.0
766,191.25,40.2297,42.6125,140.449,104.035,102.115,0.00743174,0.0907889,20.9551,-311.307,0.164979,0.0,0.0
768,191.75,39.7355,42.3988,142.017,104.051,101.522,0.00739636,0.0904544,20.9559,-311.297,0.21784,0.0,0.0
770,192.25,40.2613,42.6455,139.813,104.061,101.531,0.0073677,0.0901117,20.9565,-311.277,0.217944,0.0,0.0
772,192.75,40.0992,42.5548,141.35,104.08,101.838,0.00734448,0.0898486,20.957,-311.257,0.192794,0.0,0.0
774,193.25,40.1887,42.7451,139.162,104.082,101.742,0.00733029,0.0896485,20.9574,-311.277,0.201398,0.0,0.0
776,193.75,39.2617,41.9599,138.912,104.101,101.961,0.00732293,0.0894864,20.9577,-311.307,0.183911,0.0,0.0
778,194.25,40.3088,42.4715,136.179,104.111,101.559,0.00731697,0.0893276,20.958,-311.297,0.219706,0.0,0.0
780,194.75,39.7892,42.2903,142.879,104.125,101.53,0.00732089,0.0891772,20.9582,-311.297,0.223516,0.0,0.0
782,195.25,39.9255,41.8865,140.515,104.127,101.886,0.00732407,0.0890358,20.9584,-311.307,0.192697,0.0,0.0
784,195.75,39.4709,42.3859,139.623,104.151,102.115,0.00732664,0.0888778,20.9585,-311.287,0.174788,0.0,0.0
786,196.25,39.7272,42.1553,136.859,104.153,102.082,0.00731748,0.0887107,20.9588,-311.297,0.17785,0.0,0.0
788,196.75,40.3131,42.0565,140.053,104.174,102.116,0.00731006,0.0885753,20.9593,-311.307,0.176669,0.0,0.0
790,197.25,39.7008,42.5306,140.943,104.181,102.374,0.00729747,0.0883142,20.9597,-311.307,0.154881,0.0,0.0
792,197.75,39.6954,41.8426,140.644,104.199,101.854,0.00728135,0.0881027,20.96,-311.297,0.201525,0.0,0.0
794,198.25,39.9721,42.3837,135.409,104.204,101.749,0.00726566,0.0879313,20.9603,-311.307,0.211073,0.0,0.0
796,198.75,39.7401,42.1683,140.924,104.234,101.719,0.00725059,0.0877926,20.9605,-311.327,0.216264,0.0,0.0
798,199.25,39.3972,42.1781,139.384,104.235,102.187,0.00723773,0.0876802,20.9607,-311.337,0.175706,0.0,0.0
800,199.75,39.6923,42.5055,138.248,104.257,101.873,0.00722671,0.0875746,20.9608,-311.337,0.204817,0.0,0.0
802,200.25,39.502,42.1952,138.985,104.259,101.873,,0.0874761,,-311.357,0.204998,0.0,0.0
804,200.75,39.3733,41.9211,142.786,104.282,101.795,,0.0873601,,-311.377,0.213777,0.0,0.0
806,201.25,39.218,42.0516,138.372,104.289,101.849,,0.0872335,,-311.388,0.209663,0.0,0.0
808,201.75,39.4399,41.9149,144.611,104.294,102.309,,0.0870731,,-311.397,0.170127,0.0,0.0
810,202.25,39.2357,41.6885,140.204,104.316,102.055,,0.0868909,,-311.367,0.194035,0.0,0.0
812,202.75,39.7049,41.4285,142.486,104.329,101.934,,0.0867,,-311.388,0.205659,0.0,0.0
814,203.25,39.3373,41.6313,142.035,104.345,101.875,,,,-311.418,0.212128,0.0,0.0
816,203.75,39.2088,41.8311,140.078,104.352,101.951,,,,-311.468,0.206096,0.0,0.0
818,204.25,39.2956,41.7542,137.145,104.366,102.125,,,,-311.488,0.192199,0.0,0.0
820,204.75,39.3399,41.2425,144.14,104.391,101.712,,,,-311.448,0.23025,0.0,0.0
822,205.25,39.0891,41.7595,140.431,104.395,101.945,,,,-311.408,0.210241,0.0,0.0
824,205.75,40.0671,41.4006,143.273,104.406,101.971,,,,-311.428,0.208899,0.0,0.0
826,206.25,39.2079,41.6268,140.998,104.416,102.299,,,,-311.458,0.181338,0.0,0.0
828,206.75,39.2688,41.3725,140.056,104.431,102.347,,,,-311.448,0.178527,0.0,0.0
830,207.25,38.514,40.7835,141.521,104.447,102.272,,,,-311.408,0.186375,0.0,0.0
832,207.75,38.4215,40.4333,140.86,104.453,102.141,,,,-311.377,0.198192,0.0,0.0
834,208.25,39.0601,40.8665,139.627,104.473,102.338,,,,-311.397,0.182798,0.0,0.0
836,208.75,39.0621,40.6658,139.723,104.481,101.966,,,,-311.367,0.215715,0.0,0.0
838,209.25,39.2294,41.291,141.759,104.483,102.135,,,,-311.388,0.201246,0.0,0.0
840,209.75,38.4115,41.3985,137.568,104.486,101.784,,,,-311.388,0.232028,0.0,0.0
842,210.25,39.0226,41.5844,141.255,104.519,102.286,,,,-311.418,0.191219,0.0,0.0
844,210.75,38.9187,41.267,139.239,104.533,102.186,,,,-311.418,0.20108,0.0,0.0
845,211,38.7359,41.4675,142.478,104.523,102.404,,,,-311.418,0.181327,0.0,0.0