File: 01_Data/Asphalt_Shingle/Cone/Asphalt_Shingle_Cone_HF75Scan_220415_R1.csv
Names,Time,Stack TC,Smoke TC,Exh Press,Smoke Comp,Smoke Meas,CO Meter,CO2 Meter,O2 Meter,Sample Mass,Ext Coeff,Start Test,Flame Verif
Chan Gain,,500,500,1,1,1,1,1,1,1,1,1.0,1.0
Offset,,0,0,0.134662,0,0,0,0,0,0,0,0.0,0.0
Gain,,1,1,25.011,14.0001,15.1165,1,1,1,1.00131,1.00941,1.0,1.0
Units,sec,C,C,Pa,%,%,%,%,%,g,/m,,
Baseline,,41.6048,43.5646,138.042,104.893,102.803,0.000611192,0.0444425,21.0105,-838.449,0.178206,,
2,0.25,40.7575,42.4061,141.784,104.846,102.447,0.000465375,0.0501694,21.005,-311.488,0.204938,0.0,0.0
4,0.75,41.0972,42.8749,141.215,104.877,102.712,0.000440853,0.0500237,21.0052,-311.508,0.184712,0.0,0.0
6,1.25,40.3234,42.3586,139.187,104.871,102.737,0.000420991,0.0499056,21.0054,-311.418,0.182028,0.0,0.0
8,1.75,40.5722,41.7589,140.564,104.874,102.407,0.000415761,0.0497558,21.0056,-311.418,0.210754,0.0,0.0
10,2.25,40.3544,41.8388,139.949,104.849,103.052,0.000411524,0.0496344,21.0057,-311.458,0.153069,0.0,0.0
12,2.75,40.36,41.7801,136.371,104.869,102.697,0.000427405,0.0494548,21.0058,-311.418,0.185264,0.0,0.0
14,3.25,40.308,42.1259,137.478,104.852,102.884,0.000440268,0.0493093,21.0059,-311.418,0.167726,0.0,0.0
16,3.75,40.2235,41.9806,140.026,104.875,102.703,0.0004634,0.0491772,21.006,-311.478,0.185366,0.0,0.0
18,4.25,40.2555,41.7818,135.928,104.856,102.595,0.000493579,0.0490574,21.006,-311.478,0.193019,0.0,0.0
20,4.75,40.1789,41.7678,140.321,104.874,102.912,0.000526291,0.0489603,21.0061,-311.458,0.167259,0.0,0.0
22,5.25,40.12,41.6881,138.59,104.854,102.714,0.00056023,0.0488139,21.0061,-311.458,0.182568,0.0,0.0
24,5.75,39.8254,41.9771,140.596,104.869,102.444,0.000590265,0.0486954,21.0061,-311.458,0.207162,0.0,0.0
26,6.25,40.6886,42.436,135.257,104.868,102.86,0.000616884,0.0485708,21.0062,-311.458,0.171165,0.0,0.0
28,6.75,40.2622,42.1084,137.065,104.883,102.178,0.000638446,0.0484443,21.0062,-311.478,0.231393,0.0,0.0
30,7.25,40.4116,42.3082,138.132,104.858,102.565,0.000649867,0.0483346,21.0066,-311.488,0.195824,0.0,0.0
32,7.75,40.871,42.3147,139.996,104.882,102.649,0.000659118,0.0482394,21.007,-311.498,0.190599,0.0,0.0
34,8.25,40.0942,42.1143,141.041,104.863,102.789,0.000659615,0.0481623,21.0073,-311.508,0.176922,0.0,0.0
36,8.75,40.3517,42.592,137.378,104.876,102.266,0.000653721,0.0480592,21.0075,-311.508,0.223147,0.0,0.0
38,9.25,40.1223,42.2304,139.664,104.862,102.083,0.000648947,0.0479757,21.0073,-311.508,0.237861,0.0,0.0
40,9.75,40.3066,42.19,139.784,104.88,101.916,0.000645081,0.0478945,21.0071,-311.488,0.253796,0.0,0.0
42,10.25,40.351,41.962,138.376,104.858,101.314,0.000672165,0.0478287,21.0075,-311.498,0.304416,0.0,0.0
44,10.75,40.19,42.0779,136.206,104.868,101.181,0.000694104,0.0478539,21.0083,-311.488,0.316868,0.0,0.0
46,11.25,40.4978,42.0402,137.794,104.854,101.477,0.000768751,0.0479448,21.0087,-311.538,0.28987,0.0,0.0
48,11.75,40.6681,41.9678,139.751,104.858,100.97,0.000829215,0.0480185,21.0089,-311.478,0.334547,0.0,0.0
50,12.25,40.2948,42.7165,135.244,104.86,101.514,0.000942435,0.0480782,21.0069,-311.528,0.287159,0.0,0.0
52,12.75,40.5446,42.4722,135.802,104.871,100.26,0.00103414,0.0500131,21.0035,-311.528,0.398106,0.0,0.0
54,13.25,40.4984,42.2684,134.885,104.855,100.956,0.00116306,0.0515804,20.9965,-311.588,0.335468,0.0,0.0
56,13.75,40.6521,42.6197,136.941,104.868,100.861,0.00126749,0.055509,20.9872,-311.578,0.345002,0.0,0.0
58,14.25,40.905,42.3457,134.471,104.859,102.842,0.00138151,0.0586913,20.9796,-311.608,0.172029,0.0,0.0
60,14.75,40.1486,43.0355,136.457,104.874,102.328,0.00150037,0.0651979,20.9656,-311.578,0.217572,0.0,1.0
62,15.25,40.2044,42.8941,135.145,104.856,103.277,0.00159664,0.0704683,20.9542,-311.638,0.134361,0.0,1.0
64,15.75,40.5908,42.5837,133.562,104.873,102.84,0.00179025,0.0799335,20.945,-311.648,0.173266,0.0,1.0
66,16.25,40.9044,42.5579,131.116,104.863,101.557,0.00205115,0.0876003,20.9279,-311.678,0.283707,0.0,1.0
68,16.75,41.1413,42.9252,128.946,104.883,100.163,0.00244241,0.0971679,20.9141,-311.618,0.407721,0.0,1.0
70,17.25,41.1411,42.7303,130.47,104.871,97.2142,0.00292129,0.107939,20.8897,-311.748,0.671256,0.0,1.0
72,17.75,41.1169,42.9292,133.133,104.877,94.2221,0.00357757,0.116664,20.87,-311.748,0.948644,0.0,1.0
74,18.25,41.3966,43.1727,133.275,104.863,90.1547,0.00435072,0.132582,20.8387,-311.758,1.33815,0.0,1.0
76,18.75,41.8623,43.4238,126.428,104.876,83.6944,0.00534871,0.145476,20.8133,-311.768,1.99761,0.0,1.0
78,19.25,41.948,43.3919,126.778,104.868,79.3515,0.00649166,0.164431,20.7516,-311.828,2.46873,0.0,1.0
80,19.75,40.873,43.2824,124.588,104.877,75.1429,0.0078445,0.187446,20.7016,-311.878,2.95209,0.0,1.0
82,20.25,41.495,43.3936,122.311,104.868,69.3686,0.00932466,0.214802,20.6234,-311.928,3.65932,0.0,1.0
84,20.75,41.8026,43.3784,113.265,104.88,66.3146,0.01093,0.244804,20.5601,-311.998,4.05895,0.0,1.0
86,21.25,42.9748,44.2909,115.126,104.869,63.5356,0.0125961,0.280359,20.4685,-312.068,4.43707,0.0,1.0
88,21.75,42.6251,44.525,111.128,104.883,56.2814,0.0139457,0.319287,20.3943,-312.148,5.51171,0.0,0.0
90,22.25,42.3711,44.6782,108.701,104.87,54.1995,0.0160667,0.350819,20.3155,-312.199,5.84442,0.0,0.0
92,22.75,44.2224,45.242,104.762,104.879,52.3809,0.0177848,0.400168,20.2349,-312.289,6.14733,0.0,0.0
94,23.25,44.9516,46.0344,113.047,104.872,49.9438,0.0194765,0.440141,20.1696,-312.329,6.56862,0.0,0.0
96,23.75,45.2271,46.772,102.87,104.883,49.4077,0.0211168,0.489227,20.0926,-312.429,6.66514,0.0,0.0
98,24.25,46.2392,47.4498,102.891,104.883,47.5048,0.0224456,0.528987,20.0303,-312.529,7.01292,0.0,0.0
100,24.75,46.8538,48.3718,110.542,104.88,48.7314,0.0240007,0.573491,19.9688,-312.569,6.78689,0.0,0.0
102,25.25,47.9293,49.3648,105.768,104.866,50.6307,0.0252604,0.609539,19.9191,-312.649,6.4472,0.0,0.0
104,25.75,48.8898,50.4618,107.972,104.881,50.8692,0.0259296,0.641768,19.8978,-312.719,6.40681,0.0,0.0
106,26.25,50.3072,51.6429,107.503,104.888,49.2034,0.027074,0.670601,19.8532,-312.779,6.70224,0.0,0.0
108,26.75,50.6094,51.7558,104.74,104.87,47.2114,0.0281762,0.693956,19.8171,-312.859,7.06665,0.0,0.0
110,27.25,51.4431,53.3813,105.777,104.869,47.3014,0.0292268,0.715812,19.7834,-312.94,7.04969,0.0,0.0
112,27.75,52.5103,54.2615,103.5,104.881,48.4367,0.0302423,0.733515,19.7562,-313.02,6.84069,0.0,0.0
114,28.25,53.125,55.3945,104.265,104.877,44.7129,0.0312131,0.750491,19.7292,-313.1,7.54864,0.0,0.0
116,28.75,54.5493,56.3311,109.668,104.879,45.5465,0.0319994,0.757729,19.7031,-313.11,7.38527,0.0,0.0
118,29.25,54.9791,57.0977,107.718,104.88,48.2591,0.0329199,0.770104,19.6819,-313.28,6.87318,0.0,0.0
120,29.75,55.6939,58.0281,99.3459,104.882,42.5322,0.0339206,0.786174,19.6489,-313.32,7.99183,0.0,0.0
122,30.25,56.2565,59.0815,108.669,104.872,42.0456,0.0349701,0.799191,19.6223,-313.37,8.09287,0.0,0.0
124,30.75,56.8208,59.633,100.338,104.878,44.4416,0.036035,0.818184,19.5823,-313.49,7.60267,0.0,0.0
126,31.25,57.8459,60.6908,95.4631,104.871,43.6666,0.037135,0.833569,19.5499,-313.58,7.75783,0.0,0.0
128,31.75,58.8301,61.3945,97.1942,104.874,36.9701,0.0382396,0.858559,19.5236,-313.66,9.23213,0.0,0.0
130,32.25,59.3789,62.2411,99.0368,104.874,38.7854,0.0391344,0.878801,19.4822,-313.831,8.80773,0.0,0.0
132,32.75,60.2531,63.0613,104.58,104.869,36.6573,0.0401543,0.901021,19.4486,-313.891,9.30692,0.0,0.0
134,33.25,61.7993,64.1292,102.304,104.868,37.7631,0.0412461,0.92426,19.4104,-314.001,9.04374,0.0,0.0
136,33.75,62.5297,65.6621,104.335,104.874,39.7685,0.0422637,0.945763,19.3794,-314.101,8.58603,0.0,0.0
138,34.25,63.5587,66.41,100.066,104.889,36.4691,0.0432079,0.965589,19.3464,-314.151,9.35416,0.0,0.0
140,34.75,64.313,67.5995,99.6359,104.877,37.9606,0.0439727,0.981649,19.3196,-314.281,8.99825,0.0,0.0
142,35.25,65.4115,68.6898,107.709,104.887,37.0121,0.0448393,0.997567,19.2943,-314.381,9.22316,0.0,0.0
144,35.75,66.3587,70.1895,100.444,104.863,35.4957,0.0455412,1.01308,19.2704,-314.472,9.59154,0.0,0.0
146,36.25,67.143,70.6799,97.2049,104.867,38.569,0.0461097,1.02711,19.2511,-314.532,8.85661,0.0,0.0
148,36.75,67.6018,71.2952,104.313,104.859,39.0484,0.0469184,1.03979,19.2293,-314.632,8.7466,0.0,0.0
150,37.25,69.1951,73.2752,100.572,104.866,40.4282,0.0475734,1.05006,19.2117,-314.762,8.43974,0.0,0.0
152,37.75,69.9889,74.2873,105.193,104.878,39.2707,0.0484852,1.06232,19.1916,-314.802,8.69795,0.0,0.0
154,38.25,71.1087,75.3643,93.3305,104.886,36.1564,0.0492238,1.07226,19.1701,-314.942,9.43021,0.0,0.0
156,38.75,72.0393,76.2654,96.2104,104.866,36.5231,0.050005,1.08555,19.1442,-315.052,9.33919,0.0,0.0
158,39.25,72.5605,76.9685,92.4627,104.87,34.1473,0.0508024,1.10104,19.1155,-315.132,9.93508,0.0,0.0
160,39.75,73.627,78.0908,90.7255,104.868,34.926,0.0516456,1.11358,19.0923,-315.212,9.73521,0.0,0.0
162,40.25,74.3777,78.9209,96.0035,104.89,35.051,0.0525063,1.12993,19.0524,-315.303,9.70545,0.0,0.0
164,40.75,75.6281,80.3066,98.9284,104.857,33.2237,0.0533637,1.14875,19.0201,-315.453,10.1768,0.0,0.0
166,41.25,76.3102,81.5273,94.5815,104.869,33.8341,0.0542026,1.16805,18.9795,-315.523,10.0166,0.0,0.0
168,41.75,77.8133,82.4619,87.5174,104.87,32.696,0.0550005,1.18733,18.9466,-315.663,10.3196,0.0,0.0
170,42.25,78.4007,83.54,100.252,104.874,34.6608,0.0557534,1.20638,18.9107,-315.763,9.80322,0.0,0.0
172,42.75,79.409,84.6681,106.554,104.874,33.083,0.0563633,1.2249,18.8816,-315.833,10.2157,0.0,0.0
174,43.25,79.9399,85.6786,93.4687,104.877,33.3746,0.056897,1.2424,18.856,-315.963,10.1384,0.0,0.0
176,43.75,81.1488,86.9799,95.0884,104.868,33.7723,0.0573648,1.25881,18.8334,-316.064,10.0327,0.0,0.0
178,44.25,82.363,88.4805,99.7459,104.868,33.0032,0.0576869,1.27378,18.8151,-316.164,10.2367,0.0,0.0
180,44.75,83.3203,89.4407,97.011,104.871,34.0504,0.0578965,1.28739,18.8002,-316.264,9.96031,0.0,0.0
182,45.25,84.3684,90.5303,93.616,104.873,32.672,0.0580663,1.29842,18.7882,-316.424,10.3264,0.0,0.0
184,45.75,85.2308,91.7901,92.0032,104.859,33.2671,0.0578809,1.30725,18.7785,-316.484,10.1653,0.0,0.0
186,46.25,86.4652,92.952,94.2495,104.872,32.1147,0.0577307,1.31439,18.7706,-316.604,10.4786,0.0,0.0
188,46.75,87.2813,94.4928,102.526,104.858,35.0349,0.0571032,1.31588,18.7778,-316.664,9.70686,0.0,0.0
190,47.25,88.2059,95.3152,94.9838,104.876,36.9295,0.056595,1.3132,18.7959,-316.775,9.242,0.0,0.0
192,47.75,89.2844,96.4216,95.1998,104.863,35.8639,0.0557032,1.30339,18.8106,-316.925,9.50018,0.0,0.0
194,48.25,90.0692,96.9257,98.0712,104.877,35.7938,0.0545486,1.28855,18.8572,-317.005,9.5187,0.0,0.0
196,48.75,91.1265,98.2128,105.82,104.854,39.2666,0.0530625,1.27653,18.8949,-317.075,8.69683,0.0,0.0
198,49.25,91.9207,99.2543,109.722,104.87,40.0582,0.0513629,1.24366,18.9728,-317.155,8.52143,0.0,0.0
200,49.75,92.1353,100.084,104.609,104.858,45.386,0.0499863,1.21704,19.0359,-317.215,7.4148,0.0,0.0
202,50.25,92.9357,100.928,105.774,104.872,45.4791,0.0480193,1.17033,19.087,-317.285,7.39779,0.0,0.0
204,50.75,93.3722,101.858,111.36,104.864,45.7776,0.0456593,1.13249,19.1723,-317.295,7.33922,0.0,0.0
206,51.25,93.7264,102.666,111.746,104.873,48.9736,0.0431567,1.0858,19.2414,-317.365,6.74238,0.0,0.0
208,51.75,94.0619,102.752,115.485,104.867,53.3949,0.0405975,1.03353,19.3486,-317.405,5.97659,0.0,0.0
210,52.25,94.0699,103.31,112.654,104.874,56.733,0.0385246,0.991191,19.4355,-317.485,5.44019,0.0,0.0
212,52.75,94.5405,103.305,120.223,104.853,60.2165,0.0357481,0.942056,19.5283,-317.526,4.91082,0.0,0.0
214,53.25,94.5038,103.436,118.63,104.874,65.4395,0.0334991,0.888898,19.6236,-317.536,4.17607,0.0,0.0
216,53.75,94.4351,103.714,119.87,104.862,67.8388,0.0306286,0.834098,19.7237,-317.596,3.85622,0.0,0.0
218,54.25,94.0857,103.122,126.067,104.872,73.18,0.0283035,0.779142,19.8253,-317.606,3.186,0.0,0.0
220,54.75,94.2155,103.167,123.981,104.849,77.2608,0.0256423,0.734628,19.9076,-317.626,2.7036,0.0,0.0
222,55.25,93.7107,103.243,124.223,104.859,78.5211,0.0234866,0.682496,19.9884,-317.646,2.56119,0.0,0.0
224,55.75,93.688,102.996,124.687,104.852,82.5175,0.0217406,0.64027,20.0665,-317.676,2.12097,0.0,0.0
226,56.25,93.5406,102.533,126.07,104.862,86.2173,0.019862,0.591096,20.1297,-317.686,1.73352,0.0,0.0
228,56.75,93.0144,102.443,128.146,104.848,90.974,0.0179223,0.551266,20.201,-317.716,1.25678,0.0,0.0
230,57.25,92.7286,102.128,130.206,104.863,92.7717,0.0163512,0.513007,20.2588,-317.736,1.08481,0.0,0.0
232,57.75,92.4325,101.652,126.257,104.848,95.5863,0.0148609,0.47662,20.3056,-317.746,0.818881,0.0,0.0
234,58.25,91.8185,101.135,130.121,104.861,97.2673,0.0134576,0.447147,20.3633,-317.746,0.665632,0.0,0.0
236,58.75,91.7396,100.762,129.717,104.852,98.5507,0.012321,0.416346,20.4099,-317.706,0.548808,0.0,0.0
238,59.25,91.2498,100.248,133.919,104.87,100.194,0.0112319,0.385162,20.4644,-317.746,0.403903,0.0,0.0
240,59.75,90.5277,99.7812,132.334,104.851,101.053,0.0103496,0.359903,20.5085,-317.766,0.326728,0.0,0.0
242,60.25,90.1818,99.5889,130.06,104.853,102.154,0.00957404,0.334953,20.5523,-317.796,0.230944,0.0,0.0
244,60.75,89.8118,99.2147,134.074,104.851,102.789,0.00894581,0.310702,20.5951,-317.786,0.175912,0.0,0.0
246,61.25,89.5805,98.5293,132.547,104.862,102.956,0.00842575,0.291058,20.6343,-317.786,0.162477,0.0,0.0
248,61.75,88.6839,98.1886,133.722,104.853,102.874,0.0080045,0.269306,20.6703,-317.806,0.168672,0.0,0.0
250,62.25,88.2305,97.6908,133.26,104.856,102.486,0.00767573,0.251687,20.7022,-317.816,0.202493,0.0,0.0
252,62.75,87.8369,97.1116,133.161,104.869,102.387,0.00740942,0.23437,20.7305,-317.846,0.212112,0.0,0.0
254,63.25,87.448,96.8407,132.79,104.855,102.881,0.00720117,0.220343,20.7553,-317.866,0.168332,0.0,0.0
256,63.75,86.8511,96.2683,129.253,104.859,103.138,0.00703249,0.206758,20.777,-317.836,0.146569,0.0,0.0
258,64.25,86.4059,95.7774,133.17,104.868,102.922,0.00689586,0.195755,20.7946,-317.836,0.165842,0.0,0.0
260,64.75,86.2456,95.0154,135.848,104.873,103.314,0.006774,0.186006,20.81,-317.846,0.132608,0.0,0.0
262,65.25,85.5851,94.8404,130.981,104.862,103.748,0.00667529,0.177358,20.8235,-317.856,0.0945038,0.0,0.0
264,65.75,84.9993,94.0556,131.452,104.879,103.147,0.00658539,0.169351,20.8354,-317.846,0.147398,0.0,0.0
266,66.25,84.7761,94.1821,134.404,104.853,103.061,0.00651257,0.162865,20.8459,-317.876,0.152677,0.0,0.0
268,66.75,84.5621,93.4007,133.676,104.853,103.067,0.00644443,0.157241,20.8543,-317.876,0.152123,0.0,0.0
270,67.25,83.8613,92.8939,135.089,104.867,103.172,0.00638099,0.152352,20.8621,-317.886,0.144285,0.0,0.0
272,67.75,83.1268,92.0555,136.536,104.861,103.293,0.00632307,0.148392,20.8683,-317.896,0.133377,0.0,0.0
274,68.25,82.2463,91.1781,133.036,104.86,103.401,0.00627026,0.144734,20.8743,-317.916,0.124092,0.0,0.0
276,68.75,81.9818,90.2897,132.678,104.859,103.667,0.00622749,0.141771,20.8791,-317.926,0.101224,0.0,0.0
278,69.25,81.5989,90.8266,132.627,104.857,103.349,0.00619285,0.138992,20.8839,-317.936,0.128265,0.0,0.0
280,69.75,80.8185,90.2326,134.25,104.87,103.075,0.00616479,0.136741,20.8877,-317.956,0.152859,0.0,0.0
282,70.25,80.3844,89.8562,137.332,104.856,103.077,0.00615448,0.134681,20.8918,-317.946,0.151547,0.0,0.0
284,70.75,80.6253,89.2246,138.026,104.87,103.284,0.00614613,0.1328,20.895,-317.976,0.134925,0.0,0.0
286,71.25,79.6665,88.4674,136.071,104.853,103.017,0.00614984,0.131144,20.8976,-317.956,0.156443,0.0,0.0
288,71.75,79.8937,87.8673,133.88,104.868,103.451,0.00616226,0.129683,20.8998,-317.996,0.12044,0.0,0.0
290,72.25,79.5401,88.165,135.926,104.852,103.166,0.00617755,0.128499,20.9015,-317.996,0.143501,0.0,0.0
292,72.75,78.4389,87.3939,134.121,104.842,103.304,0.00619466,0.127372,20.9033,-317.986,0.130804,0.0,0.0
294,73.25,78.5353,87.4565,134.44,104.848,103.356,0.00621244,0.12646,20.9048,-317.976,0.126954,0.0,0.0
296,73.75,78.1925,87.1381,138.7,104.845,103.145,0.00623037,0.125654,20.906,-317.996,0.144746,0.0,0.0
298,74.25,78.2825,86.3057,132.754,104.85,103.176,0.00624752,0.124942,20.907,-318.006,0.142486,0.0,0.0
300,74.75,77.1468,85.9292,134.895,104.85,103.4,0.00626377,0.124365,20.9082,-318.006,0.123309,0.0,0.0
302,75.25,76.8486,85.2756,135.568,104.849,103.781,0.00627693,0.123897,20.9092,-318.026,0.0906661,0.0,0.0
304,75.75,76.2628,84.707,134.592,104.855,103.53,0.00628634,0.123519,20.91,-318.016,0.112645,0.0,0.0
306,76.25,76.2167,85.1183,134.752,104.848,103.342,0.00629397,0.123212,20.9107,-318.036,0.128068,0.0,0.0
308,76.75,76.2183,84.2946,138.834,104.847,103.043,0.00629766,0.122964,20.9115,-318.026,0.153685,0.0,0.0
310,77.25,75.9951,83.9757,136.107,104.856,103.576,0.00630065,0.122609,20.9123,-318.056,0.108771,0.0,0.0
312,77.75,75.5686,83.6427,132.905,104.856,103.005,0.00630307,0.122321,20.913,-318.066,0.157727,0.0,0.0
314,78.25,75.4804,83.5941,135.482,104.842,103.302,0.00630503,0.121934,20.9135,-318.056,0.131035,0.0,0.0
316,78.75,74.9283,82.7142,133.943,104.851,102.986,0.00628437,0.121621,20.9139,-318.056,0.158923,0.0,0.0
318,79.25,74.3712,82.4474,133.921,104.851,103.061,0.00624761,0.121283,20.9143,-318.076,0.152461,0.0,0.0
320,79.75,73.7372,81.8277,135.697,104.854,103.515,0.00621784,0.12101,20.914,-318.116,0.113835,0.0,0.0
322,80.25,73.9188,81.9988,135.5,104.858,103.003,0.00617882,0.120788,20.9137,-318.096,0.158033,0.0,0.0
324,80.75,74.2256,81.9317,137.012,104.858,103.258,0.00614721,0.120539,20.9137,-318.106,0.13613,0.0,0.0
326,81.25,73.0553,81.0439,133.946,104.851,102.915,0.00611044,0.120337,20.9139,-318.126,0.164995,0.0,0.0
328,81.75,72.7256,80.9252,134.938,104.858,103.34,0.00608065,0.120173,20.9141,-318.166,0.129128,0.0,0.0
330,82.25,72.6864,80.638,137.082,104.85,103.328,0.00604534,0.119937,20.9142,-318.166,0.12947,0.0,0.0
332,82.75,72.5791,80.3151,136.773,104.859,103.583,0.00601675,0.119654,20.9152,-318.156,0.108433,0.0,0.0
334,83.25,71.8674,80.165,135.764,104.84,103.285,0.00598738,0.119387,20.916,-318.166,0.132357,0.0,0.0
336,83.75,71.3853,79.6548,135.124,104.855,102.919,0.00596359,0.119139,20.9167,-318.176,0.164998,0.0,0.0
338,84.25,71.467,79.4974,134.631,104.846,103.064,0.00593315,0.1189,20.9172,-318.206,0.15175,0.0,0.0
340,84.75,71.4569,79.3421,129.915,104.86,103.577,0.0059085,0.118674,20.9176,-318.206,0.108979,0.0,0.0
342,85.25,71.3418,78.8485,138.104,104.855,103.079,0.00588853,0.118447,20.918,-318.236,0.15124,0.0,0.0
344,85.75,70.2038,78.2767,136.891,104.865,103.058,0.00584507,0.118223,20.9183,-318.276,0.153925,0.0,0.0
346,86.25,70.2174,78.0747,134.35,104.865,103.331,0.00580987,0.118042,20.9185,-318.256,0.130532,0.0,0.0
348,86.75,70.2896,77.5983,135.876,104.862,103.261,0.00574665,0.117853,20.9187,-318.256,0.136218,0.0,0.0
350,87.25,69.87,77.5117,130.391,104.852,103.506,0.00569545,0.1177,20.9193,-318.267,0.114369,0.0,0.0
352,87.75,70.1012,77.0317,135.292,104.861,103.027,0.00561931,0.117492,20.9197,-318.307,0.156261,0.0,0.0
354,88.25,69.1436,77.1785,135.839,104.842,103.216,0.00555764,0.117324,20.9201,-318.287,0.138435,0.0,0.0
356,88.75,69.5229,76.3625,133.532,104.871,103.25,0.00547799,0.117188,20.9204,-318.297,0.137997,0.0,0.0
358,89.25,68.8453,76.3098,136.074,104.855,103.246,0.00541348,0.117078,20.9209,-318.287,0.136906,0.0,0.0
360,89.75,68.7194,75.8745,134.001,104.866,102.953,0.00535472,0.116988,20.9215,-318.267,0.163002,0.0,0.0
362,90.25,68.648,76.0408,132.742,104.862,103.15,0.00530126,0.116916,20.922,-318.287,0.145717,0.0,0.0
364,90.75,68.2402,75.6112,133.765,104.875,103.371,0.00525797,0.116857,20.9224,-318.307,0.127883,0.0,0.0
366,91.25,67.9617,75.3826,135.705,104.848,103.374,0.00522289,0.11674,20.9227,-318.317,0.125374,0.0,0.0
368,91.75,67.9814,75.4507,135.057,104.859,103.422,0.00519449,0.116645,20.923,-318.307,0.122243,0.0,0.0
370,92.25,67.5576,74.7177,137.662,104.856,103.324,0.00517148,0.116568,20.9232,-318.297,0.130371,0.0,0.0
372,92.75,67.289,74.703,130.739,104.877,103.752,0.00515284,0.116506,20.9234,-318.317,0.095523,0.0,0.0
374,93.25,67.5856,74.0727,136.266,104.844,103.388,0.00513189,0.116427,20.9235,-318.357,0.123867,0.0,0.0
376,93.75,66.8966,74.0484,135.911,104.862,102.85,0.00510965,0.116364,20.9236,-318.337,0.171494,0.0,0.0
378,94.25,66.5121,73.6156,135.241,104.844,103.107,0.00508253,0.116312,20.9237,-318.327,0.147924,0.0,0.0
380,94.75,66.4115,73.3379,134.113,104.86,102.976,0.00505237,0.116298,20.9238,-318.347,0.16055,0.0,0.0
382,95.25,65.9244,73.0095,128.721,104.835,103.018,0.00501559,0.116287,20.9238,-318.357,0.154816,0.0,0.0
384,95.75,66.2901,73.4086,135.146,104.862,103.051,0.00497469,0.116432,20.9239,-318.367,0.154267,0.0,0.0
386,96.25,65.9141,72.8982,133.722,104.855,103.076,0.00493117,0.116549,20.9239,-318.397,0.151514,0.0,0.0
388,96.75,65.7928,72.7989,136.959,104.858,103.281,0.00488656,0.116616,20.9239,-318.417,0.134192,0.0,0.0
390,97.25,65.1769,72.625,132.62,104.847,102.899,0.00484004,0.11667,20.9244,-318.407,0.166098,0.0,0.0
392,97.75,65.058,72.1558,136.992,104.854,103.125,0.00481529,0.116721,20.9246,-318.417,0.147281,0.0,0.0
394,98.25,64.7896,72.1663,134.047,104.843,103.407,0.00477296,0.11677,20.9249,-318.417,0.122096,0.0,0.0
396,98.75,64.5189,72.0059,137.055,104.849,103.539,0.00473868,0.116853,20.9252,-318.417,0.111311,0.0,0.0
398,99.25,64.4892,71.441,134.645,104.837,103.48,0.00468625,0.11696,20.9254,-318.447,0.115316,0.0,0.0
400,99.75,64.911,71.2889,132.185,104.858,103.367,0.00464379,0.117017,20.9256,-318.467,0.126796,0.0,0.0
402,100.25,64.1554,71.1868,136.645,104.84,103.232,0.00460323,0.117037,20.9258,-318.497,0.136831,0.0,0.0
404,100.75,64.0013,71.0212,136.733,104.839,103.094,0.00457038,0.117045,20.9259,-318.477,0.148598,0.0,0.0
406,101.25,63.9314,70.9646,134.917,104.833,103.475,0.00454377,0.116892,20.926,-318.487,0.115462,0.0,0.0
408,101.75,63.937,70.7957,135.492,104.844,103.144,0.00453207,0.116768,20.9261,-318.497,0.144717,0.0,0.0
410,102.25,63.3477,70.4814,135.832,104.827,103.069,0.0045226,0.116668,20.9265,-318.487,0.14973,0.0,0.0
412,102.75,63.3847,70.3306,133.702,104.836,103.458,0.00453218,0.116614,20.9273,-318.477,0.117102,0.0,0.0
414,103.25,63.0631,69.6648,131.507,104.853,103.468,0.00453995,0.116571,20.928,-318.477,0.117716,0.0,0.0
416,103.75,62.9305,69.5455,138.874,104.827,102.755,0.00455467,0.116466,20.9285,-318.487,0.176756,0.0,0.0
418,104.25,62.5192,69.3446,134.442,104.83,103.258,0.0045742,0.116381,20.9289,-318.517,0.133748,0.0,0.0
420,104.75,62.342,69.411,133.134,104.846,102.919,0.00459586,0.116313,20.9292,-318.497,0.164203,0.0,0.0
422,105.25,62.4633,68.5622,133.332,104.838,103.19,0.00460786,0.116257,20.9294,-318.557,0.140291,0.0,0.0
424,105.75,61.5525,68.6165,133.124,104.841,103.454,0.00463713,0.116212,20.9297,-318.567,0.117926,0.0,0.0
426,106.25,62.3598,68.5194,131.743,104.83,103.553,0.00464565,0.116259,20.9298,-318.567,0.108543,0.0,0.0
428,106.75,61.7181,68.6313,138.36,104.835,103.27,0.00466023,0.116297,20.93,-318.567,0.133189,0.0,0.0
430,107.25,61.7183,68.6095,132.644,104.827,103.318,0.00466684,0.116454,20.9301,-318.547,0.128315,0.0,0.0
432,107.75,61.2962,68.3745,138.15,104.83,104.162,0.00466752,0.116581,20.9302,-318.557,0.0566621,0.0,0.0
434,108.25,61.6645,67.922,136.231,104.834,103.289,0.00466807,0.116635,20.9303,-318.577,0.13146,0.0,0.0
436,108.75,61.2689,67.4066,138.7,104.838,102.77,0.00465618,0.116707,20.9303,-318.607,0.176383,0.0,0.0
438,109.25,61.4419,67.4885,131.493,104.845,103.461,0.00464655,0.116726,20.9304,-318.617,0.117659,0.0,0.0
440,109.75,60.5706,67.5812,136.314,104.827,103.446,0.00463135,0.11676,20.9304,-318.587,0.117371,0.0,0.0
442,110.25,60.5115,67.0454,137.317,104.828,103.597,0.00461904,0.116731,20.9305,-318.617,0.104616,0.0,0.0
444,110.75,61.027,66.907,133.39,104.83,103.121,0.00461647,0.116707,20.9305,-318.617,0.145538,0.0,0.0
446,111.25,60.6684,66.7895,135.075,104.839,103.04,0.00461438,0.116674,20.9305,-318.627,0.153234,0.0,0.0
448,111.75,60.2856,66.4473,136.36,104.826,103.09,0.0046127,0.116648,20.9306,-318.637,0.147874,0.0,0.0
450,112.25,60.1136,66.889,133.496,104.827,103.112,0.0046249,0.116633,20.9306,-318.637,0.146045,0.0,0.0
452,112.75,59.9494,66.6928,136.904,104.827,103.162,0.00463478,0.116628,20.9306,-318.647,0.1418,0.0,0.0
454,113.25,60.0612,66.3231,135.633,104.828,103.351,0.00464603,0.116638,20.9306,-318.657,0.125654,0.0,0.0
456,113.75,59.8724,65.5164,133.335,104.826,103.293,0.00465807,0.116646,20.9306,-318.667,0.130493,0.0,0.0
458,114.25,59.2919,65.8826,132.89,104.824,102.939,0.00466262,0.116653,20.9306,-318.637,0.160693,0.0,0.0
460,114.75,59.5391,65.5906,136.388,104.811,103.204,0.00466163,0.116644,20.9306,-318.677,0.136787,0.0,0.0
462,115.25,59.2551,65.3909,136.02,104.826,103.08,0.00466084,0.116637,20.9306,-318.687,0.148706,0.0,0.0
464,115.75,59.1917,65.3143,137.104,104.819,103.589,0.00465032,0.116624,20.9309,-318.717,0.104564,0.0,0.0
466,116.25,59.2368,65.3549,136.759,104.816,103.469,0.0046418,0.116607,20.9313,-318.747,0.11457,0.0,0.0
468,116.75,58.9923,65.1947,134.27,104.826,103.188,0.00462997,0.116593,20.9316,-318.727,0.139439,0.0,0.0
470,117.25,59.1706,64.853,135.534,104.815,103.488,0.00461585,0.116554,20.9318,-318.707,0.112768,0.0,0.0
472,117.75,58.641,64.5166,132.655,104.819,103.453,0.00460032,0.116522,20.932,-318.717,0.116169,0.0,0.0
474,118.25,58.6601,64.3315,135.989,104.817,103.119,0.00458774,0.116441,20.9322,-318.717,0.144618,0.0,0.0
476,118.75,58.5343,64.6158,135.643,104.809,103.417,0.00456892,0.116375,20.9324,-318.737,0.118343,0.0,0.0
478,119.25,58.3153,64.058,134.155,104.822,103.222,0.00455368,0.116279,20.9325,-318.757,0.136221,0.0,0.0
480,119.75,58.5946,63.952,135.785,104.815,103.235,0.00454133,0.116202,20.9326,-318.787,0.134424,0.0,0.0
482,120.25,57.8769,64.4208,134.087,104.815,103.809,0.00451901,0.116223,20.9326,-318.817,0.0854145,0.0,0.0
484,120.75,57.8598,64.1306,135.34,104.803,103.7,0.00450093,0.11624,20.9327,-318.807,0.0936955,0.0,0.0
486,121.25,58.0747,63.884,132.206,104.829,103.297,0.00448505,0.116338,20.9327,-318.807,0.130351,0.0,0.0
488,121.75,57.8468,63.6801,133.864,104.805,102.933,0.00447219,0.116417,20.9328,-318.837,0.159589,0.0,0.0
490,122.25,57.971,63.9538,132.696,104.81,103.222,0.00446177,0.116481,20.9328,-318.827,0.135251,0.0,0.0
492,122.75,57.3384,63.656,136.315,104.793,102.969,0.00444717,0.116533,20.9328,-318.827,0.15548,0.0,0.0
494,123.25,57.4335,63.0401,132.812,104.807,102.944,0.0044334,0.116575,20.9329,-318.827,0.158776,0.0,0.0
496,123.75,57.7486,63.2208,133.74,104.797,103.026,0.0044205,0.116565,20.9329,-318.847,0.150851,0.0,0.0
498,124.25,57.5909,63.2984,137.969,104.806,103.04,0.00441005,0.116517,20.9329,-318.817,0.150459,0.0,0.0
500,124.75,57.002,62.9091,134.948,104.795,103.131,0.00440158,0.116478,20.9329,-318.877,0.141675,0.0,0.0
502,125.25,56.878,62.8574,133.535,104.805,103.3,0.00440088,0.116419,20.9331,-318.867,0.128132,0.0,0.0
504,125.75,56.9817,62.6391,134.039,104.796,103.179,0.00440032,0.116371,20.9335,-318.897,0.137665,0.0,0.0
506,126.25,56.9283,62.4139,132.788,104.809,103.294,0.00441465,0.116346,20.9339,-318.907,0.128931,0.0,0.0
508,126.75,56.7864,62.5721,139.835,104.801,103.127,0.00442625,0.116326,20.9341,-318.937,0.142576,0.0,0.0
510,127.25,56.6118,61.6543,136.026,104.795,103.278,0.00443565,0.11631,20.9343,-318.947,0.129049,0.0,0.0
512,127.75,56.7291,61.6172,132.413,104.785,103.344,0.00447039,0.116254,20.9345,-318.947,0.12264,0.0,0.0
514,128.25,56.2276,62.2321,136.266,104.804,102.999,0.00449853,0.11621,20.9347,-318.937,0.153768,0.0,0.0
516,128.75,56.4524,61.9495,135.934,104.788,103.091,0.00452625,0.116048,20.935,-318.927,0.144584,0.0,0.0
518,129.25,56.5691,62.1068,134.979,104.791,103.344,0.00454871,0.115917,20.9355,-318.937,0.123106,0.0,0.0
520,129.75,55.9938,61.2654,133.208,104.78,102.873,0.00455456,0.115789,20.9359,-318.947,0.162619,0.0,0.0
522,130.25,56.1523,61.362,137.742,104.797,103.196,0.00455931,0.115665,20.9362,-318.967,0.136312,0.0,0.0
524,130.75,55.9349,61.442,137.156,104.777,103.061,0.00454629,0.115565,20.9365,-318.977,0.146252,0.0,0.0
526,131.25,56.1891,61.4693,135.258,104.778,102.794,0.00452056,0.115554,20.9367,-318.967,0.169263,0.0,0.0
528,131.75,56.0305,61.3022,133.894,104.763,103.234,0.00449972,0.115544,20.9368,-318.957,0.130175,0.0,0.0
530,132.25,55.5326,61.1833,137.526,104.785,102.974,0.00443605,0.115581,20.937,-318.977,0.154397,0.0,0.0
532,132.75,55.9006,61.0492,137.23,104.776,103.325,0.00438448,0.11565,20.9371,-318.957,0.123467,0.0,0.0
534,133.25,55.0931,60.5897,134.744,104.783,103.199,0.00430335,0.115743,20.9372,-319.017,0.134843,0.0,0.0
536,133.75,55.3833,60.6845,133.704,104.768,102.993,0.00423764,0.115852,20.9373,-319.048,0.15129,0.0,0.0
538,134.25,55.8075,59.7403,137.265,104.79,103.211,0.00416501,0.115939,20.9373,-319.078,0.134388,0.0,0.0
540,134.75,55.7542,60.3401,136.947,104.753,103.405,0.00408873,0.115871,20.9378,-319.068,0.114716,0.0,0.0
542,135.25,55.1452,61.0909,135.806,104.761,103.191,0.00402694,0.115815,20.9382,-319.068,0.133714,0.0,0.0
544,135.75,55.2125,60.5627,134.207,104.76,103.031,0.00395602,0.115603,20.9385,-319.038,0.147346,0.0,0.0
546,136.25,54.9875,60.2116,137.538,104.756,103.184,0.00389857,0.115431,20.9388,-319.048,0.133874,0.0,0.0
548,136.75,55.2299,59.6728,135.58,104.749,102.912,0.003841,0.11524,20.939,-319.058,0.15672,0.0,0.0
550,137.25,54.7453,59.7142,132.951,104.754,103.073,0.00379436,0.115039,20.9391,-319.078,0.143272,0.0,0.0
552,137.75,55.0092,59.8819,134.828,104.745,103.565,0.00375045,0.114877,20.9393,-319.078,0.100297,0.0,0.0
554,138.25,54.5596,60.0628,136.046,104.759,103.36,0.00371489,0.114773,20.9394,-319.088,0.11909,0.0,0.0
556,138.75,54.8687,59.4139,137.309,104.739,103.22,0.00368485,0.114689,20.9395,-319.068,0.129303,0.0,0.0
558,139.25,54.573,59.4983,136.037,104.744,102.943,0.00366052,0.11465,20.9396,-319.068,0.153548,0.0,0.0
560,139.75,53.7975,59.8513,136.398,104.739,103.149,0.0036494,0.114645,20.9396,-319.098,0.135472,0.0,0.0
562,140.25,54.3179,58.9451,134.167,104.745,103.309,0.0036404,0.114605,20.9397,-319.088,0.122211,0.0,0.0
564,140.75,54.1913,58.7334,133.831,104.732,103.101,0.0036331,0.114539,20.9397,-319.118,0.139017,0.0,0.0
566,141.25,54.1556,58.8671,134.095,104.734,103.124,0.00364437,0.114456,20.9397,-319.118,0.137217,0.0,0.0
568,141.75,53.8087,59.1123,135.734,104.724,103.041,0.0036535,0.114362,20.9398,-319.158,0.143483,0.0,0.0
570,142.25,54.0563,59.2593,134.972,104.753,103.24,0.00366413,0.11425,20.9398,-319.178,0.128833,0.0,0.0
572,142.75,54.0481,58.8536,133.735,104.719,103.072,0.00367565,0.114126,20.9398,-319.198,0.140394,0.0,0.0
574,143.25,53.5192,58.1853,133.792,104.736,103.13,0.00368562,0.113966,20.9398,-319.218,0.136811,0.0,0.0
576,143.75,53.9454,58.2503,135.124,104.717,102.933,0.00369428,0.113785,20.9398,-319.178,0.15215,0.0,0.0
578,144.25,53.8263,58.7355,134.574,104.721,102.734,0.00370129,0.113637,20.9398,-319.208,0.169631,0.0,0.0
580,144.75,53.714,57.9938,135.507,104.716,102.865,0.00370698,0.113511,20.9398,-319.188,0.157909,0.0,0.0
582,145.25,53.9491,58.5859,139.718,104.715,102.986,0.0037161,0.113402,20.9398,-319.188,0.147366,0.0,0.0
584,145.75,53.173,58.4208,135.462,104.71,103.312,0.00372757,0.113313,20.9398,-319.188,0.118975,0.0,0.0
586,146.25,53.1718,57.9443,134.125,104.695,103.234,0.00373685,0.113395,20.9399,-319.168,0.124356,0.0,0.0
588,146.75,53.5738,57.9937,137.781,104.698,103.487,0.00375297,0.113461,20.9399,-319.168,0.102988,0.0,0.0
590,147.25,53.7898,58.0104,133.859,104.707,103.368,0.00376603,0.113571,20.9399,-319.218,0.113973,0.0,0.0
592,147.75,53.2698,57.3208,134.205,104.708,102.982,0.0037766,0.113659,20.9399,-319.228,0.147145,0.0,0.0
594,148.25,53.0603,57.82,136.377,104.714,102.96,0.00378517,0.113689,20.9399,-319.228,0.149516,0.0,0.0
596,148.75,52.8487,57.9723,134.923,104.695,102.867,0.00378597,0.113713,20.9402,-319.228,0.155984,0.0,0.0
598,149.25,53.2684,57.9568,134.741,104.682,103.006,0.00378661,0.11358,20.9404,-319.238,0.142916,0.0,0.0
600,149.75,53.2923,57.5347,136.944,104.695,102.768,0.00377363,0.113471,20.9406,-319.238,0.164489,0.0,0.0
602,150.25,53.0241,57.8074,135.084,104.686,103.139,0.00376311,0.113384,20.9408,-319.238,0.131863,0.0,0.0
604,150.75,53.0383,57.1207,133.521,104.691,102.88,0.00374354,0.113261,20.9409,-319.238,0.15447,0.0,0.0
606,151.25,52.8228,57.6978,133.009,104.678,102.709,0.0037277,0.113116,20.9411,-319.248,0.168169,0.0,0.0
608,151.75,53.3748,56.9516,137.731,104.68,103.084,0.00371292,0.112998,20.9411,-319.268,0.13604,0.0,0.0
610,152.25,53.1637,57.2369,137.873,104.669,102.636,0.00369921,0.112847,20.9412,-319.278,0.173732,0.0,0.0
612,152.75,53.1622,57.2709,134.917,104.682,103.262,0.00368681,0.112725,20.9413,-319.288,0.120938,0.0,0.0
614,153.25,52.6582,57.5734,133.822,104.676,102.893,0.0036756,0.11264,20.9418,-319.298,0.152133,0.0,0.0
616,153.75,52.8366,56.6883,135.201,104.679,103.177,0.00366653,0.112571,20.9422,-319.318,0.128002,0.0,0.0
618,154.25,52.5269,57.2613,135.578,104.686,102.91,0.00365918,0.112487,20.9425,-319.318,0.151532,0.0,0.0
620,154.75,53.0402,56.8621,135.108,104.678,102.827,0.00365322,0.112419,20.9427,-319.338,0.157993,0.0,0.0
622,155.25,52.4872,57.0642,133.787,104.668,103.277,0.00364517,0.11232,20.9429,-319.358,0.118436,0.0,0.0
624,155.75,52.6177,57.115,135.891,104.674,103.075,0.00363574,0.1122,20.9431,-319.348,0.136322,0.0,0.0
626,156.25,52.4058,56.9446,132.985,104.671,103.247,0.00362552,0.112103,20.9432,-319.358,0.121296,0.0,0.0
628,156.75,52.5997,56.8997,131.042,104.68,103.018,0.00361492,0.111997,20.9434,-319.368,0.141743,0.0,0.0
630,157.25,52.2786,56.8149,136.626,104.652,103.098,0.00360633,0.111911,20.9434,-319.358,0.132461,0.0,0.0
632,157.75,52.0671,56.8538,133.363,104.668,102.998,0.00359937,0.111804,20.9435,-319.378,0.142472,0.0,0.0
634,158.25,52.5664,56.7324,132.251,104.648,102.841,0.00359374,0.111685,20.9436,-319.378,0.154192,0.0,0.0
636,158.75,52.3684,55.7247,136.069,104.67,102.503,0.00358304,0.111588,20.9436,-319.388,0.185273,0.0,0.0
638,159.25,51.9941,56.889,135.197,104.638,102.578,0.00357438,0.111468,20.9437,-319.408,0.176109,0.0,0.0
640,159.75,51.9346,56.1124,134.544,104.647,102.816,0.00356123,0.111371,20.9437,-319.418,0.156305,0.0,0.0
642,160.25,52.4515,55.8048,135.217,104.643,102.736,0.00355057,0.111293,20.9437,-319.398,0.162855,0.0,0.0
644,160.75,52.1965,56.4811,134.521,104.645,102.774,0.00354072,0.111229,20.9437,-319.408,0.159776,0.0,0.0
646,161.25,52.0324,55.7179,138.429,104.631,103.045,0.00353274,0.111219,20.9438,-319.408,0.135247,0.0,0.0
648,161.75,51.9597,56.0593,133.933,104.641,102.811,0.00352627,0.111211,20.9438,-319.418,0.15616,0.0,0.0
650,162.25,51.7731,56.3885,136.053,104.626,103.211,0.00352226,0.111218,20.9438,-319.468,0.120514,0.0,0.0
652,162.75,51.8526,55.8907,137.71,104.627,102.601,0.00351901,0.111224,20.9438,-319.448,0.173138,0.0,0.0
654,163.25,52.2916,55.6864,137.542,104.623,102.844,0.00351057,0.111201,20.9438,-319.478,0.15186,0.0,0.0
656,163.75,51.7719,55.3622,136.917,104.642,102.881,0.00349851,0.111183,20.9442,-319.458,0.150234,0.0,0.0
658,164.25,51.4023,55.9849,135.273,104.626,103.115,0.00347455,0.111138,20.9446,-319.478,0.128829,0.0,0.0
660,164.75,51.8204,55.4769,135.063,104.625,102.801,0.00344237,0.111076,20.9449,-319.498,0.155772,0.0,0.0
662,165.25,51.7542,55.346,134.35,104.616,102.806,0.00340083,0.111026,20.9451,-319.518,0.154463,0.0,0.0
664,165.75,51.6,55.0374,136.153,104.631,102.968,0.00335327,0.110919,20.9453,-319.508,0.14183,0.0,0.0
666,166.25,51.6163,55.3027,132.632,104.617,102.882,0.00330121,0.110773,20.9455,-319.508,0.148055,0.0,0.0
668,166.75,51.4148,55.4318,133.044,104.617,102.811,0.00324688,0.110582,20.9456,-319.518,0.154214,0.0,0.0
670,167.25,51.5867,55.5222,134.701,104.609,102.673,0.00319643,0.110361,20.9457,-319.518,0.165411,0.0,0.0
672,167.75,51.046,55.0535,136.694,104.622,102.666,0.00314977,0.110152,20.9458,-319.528,0.167169,0.0,0.0
674,168.25,51.235,55.0459,135.48,104.601,103.331,0.00311198,0.109957,20.9459,-319.568,0.108209,0.0,0.0
676,168.75,51.2716,55.1529,135.773,104.605,103.018,0.00308259,0.109785,20.9459,-319.558,0.135377,0.0,0.0
678,169.25,51.365,55.3312,135.872,104.586,102.988,0.00305879,0.109632,20.946,-319.528,0.136327,0.0,0.0
680,169.75,51.1193,54.8885,135.13,104.598,102.662,0.00304073,0.109486,20.946,-319.568,0.165501,0.0,0.0
682,170.25,51.2985,55.1167,136.237,104.592,103.121,0.0030261,0.109348,20.946,-319.558,0.125455,0.0,0.0
684,170.75,50.9023,54.8084,138.161,104.598,102.833,0.00301425,0.109236,20.946,-319.538,0.150676,0.0,0.0
686,171.25,51.1437,55.0463,135.735,104.583,102.797,0.00300208,0.109187,20.9461,-319.538,0.152473,0.0,0.0
688,171.75,51.2743,54.8406,134.441,104.59,103.06,0.00298991,0.109148,20.9462,-319.558,0.130467,0.0,0.0
690,172.25,51.0639,55.0534,135.522,104.577,102.64,0.0029794,0.109167,20.9463,-319.578,0.165487,0.0,0.0
692,172.75,51.0471,55.1753,136.798,104.582,102.834,0.00297031,0.109229,20.9464,-319.588,0.149222,0.0,0.0
694,173.25,50.9532,54.1524,135.998,104.588,102.656,0.00296295,0.109279,20.9465,-319.598,0.165151,0.0,0.0
696,173.75,51.0171,54.4743,135.983,104.579,102.728,0.0029631,0.109268,20.9465,-319.598,0.15807,0.0,0.0
698,174.25,51.1055,54.6516,135.405,104.556,102.884,0.00296322,0.109213,20.9466,-319.588,0.142763,0.0,0.0
700,174.75,51.1136,54.2424,133.145,104.575,103.08,0.00296006,0.109118,20.9466,-319.588,0.127421,0.0,0.0
702,175.25,50.8208,54.5975,138.004,104.563,102.523,0.00295464,0.108994,20.9471,-319.598,0.174407,0.0,0.0
704,175.75,50.9586,54.6877,136.161,104.558,102.983,,0.108894,,-319.628,0.134412,0.0,0.0
706,176.25,50.9342,54.4273,135.476,104.543,103.163,,0.108757,,-319.648,0.11769,0.0,0.0
708,176.75,50.8506,54.2053,133.37,104.562,102.673,,0.108646,,-319.668,0.161396,0.0,0.0
710,177.25,50.8988,54.2177,133.951,104.556,102.925,,0.108446,,-319.638,0.13923,0.0,0.0
712,177.75,50.6045,53.6791,135.805,104.551,102.976,,0.10836,,-319.648,0.134392,0.0,0.0
714,178.25,50.5603,54.5631,135.263,104.554,102.544,,0.108213,,-319.658,0.171887,0.0,0.0
716,178.75,50.672,54.2838,135.874,104.554,102.794,,,,-319.678,0.150288,0.0,0.0
718,179.25,50.386,54.485,136.325,104.545,102.671,,,,-319.678,0.160107,0.0,0.0
720,179.75,50.3284,54.172,136.183,104.544,102.642,,,,-319.678,0.162543,0.0,0.0
722,180.25,49.9789,53.0865,131.805,104.537,102.81,,,,-319.698,0.14749,0.0,0.0
724,180.75,49.8587,54.0923,136.627,104.545,103.334,,,,-319.708,0.103122,0.0,0.0
726,181.25,50.3106,54.2298,139.18,104.541,102.302,,,,-319.728,0.191743,0.0,0.0
728,181.75,50.4612,54.1117,133.885,104.538,102.551,,,,-319.728,0.169919,0.0,0.0
730,182.25,50.5759,54.2408,136.22,104.537,103.401,,,,-319.718,0.0967394,0.0,0.0
732,182.75,50.0675,53.8044,136.471,104.529,102.654,,,,-319.718,0.160317,0.0,0.0
734,183.25,50.4288,53.8169,132.332,104.533,102.807,,,,-319.748,0.147403,0.0,0.0
736,183.75,49.7117,53.8566,135.637,104.538,102.882,,,,-319.768,0.141401,0.0,0.0
738,184.25,50.266,53.5556,133.935,104.52,102.994,,,,-319.768,0.130243,0.0,0.0
740,184.75,50.3478,53.8526,133.61,104.545,103.238,,,,-319.758,0.111383,0.0,0.0
742,185.25,49.845,53.88,134.513,104.517,102.989,,,,-319.768,0.130423,0.0,0.0
744,185.75,50.7217,53.3301,134.801,104.531,102.834,,,,-319.778,0.144917,0.0,0.0
746,186.25,50.0622,54.0231,136.776,104.52,102.71,,,,-319.798,0.154704,0.0,0.0