File: 01_Data/Asphalt_Shingle/Cone/Asphalt_Shingle_Cone_HF25Scan_220415_R2.csv
Names,Time,Stack TC,Smoke TC,Exh Press,Smoke Comp,Smoke Meas,CO Meter,CO2 Meter,O2 Meter,Sample Mass,Ext Coeff,Start Test,Flame Verif
Chan Gain,,500,500,1,1,1,1,1,1,1,1,1.0,1.0
Offset,,0,0,0.133554,0,0,0,0,0,0,0,0.0,0.0
Gain,,1,1,25.011,13.1255,13.9488,1,1,1,1.0009,1.00465,1.0,1.0
Units,sec,C,C,Pa,%,%,%,%,%,g,/m,,
Baseline,,19.3623,19.8378,143.387,98.4382,94.4813,0.000844549,0.0430385,21.0135,-830.386,0.361567,,
6,1.25,18.3835,18.774,145.701,98.1435,94.2279,0.00128047,0.0499693,21.0057,-305.085,0.358805,0.0,0.0
12,2.75,17.9626,18.189,143.184,98.1391,94.2428,0.00130733,0.049732,21.0059,-305.045,0.357017,0.0,0.0
18,4.25,17.9271,18.8251,141.633,98.1322,94.3479,0.00134023,0.0490286,21.006,-305.015,0.346579,0.0,0.0
24,5.75,18.4971,19.1109,141.44,98.1399,94.1189,0.00136106,0.0486582,21.006,-305.005,0.368679,0.0,0.0
30,7.25,18.5315,19.0769,144.479,98.131,93.9742,0.00125697,0.0486781,21.0061,-305.015,0.381451,0.0,0.0
36,8.75,18.6082,19.1201,145.896,98.1339,94.1815,0.00113696,0.0485946,21.0065,-305.015,0.362283,0.0,0.0
42,10.25,17.7664,18.9502,145.12,98.1218,94.393,0.00105619,0.0480012,21.0074,-305.025,0.34143,0.0,0.0
48,11.75,18.7008,18.8937,143.673,98.129,94.158,0.0010585,0.0471515,21.0085,-305.025,0.364043,0.0,0.0
54,13.25,18.0294,19.1537,142.925,98.1451,94.1508,0.00109153,0.0461265,21.0091,-305.035,0.366158,0.0,0.0
60,14.75,18.1562,19.0207,141.935,98.1355,94.1717,0.00109805,0.0452593,21.0094,-305.035,0.363343,0.0,0.0
66,16.25,18.2704,18.7779,140.976,98.1266,94.0938,0.00104169,0.0446012,21.0096,-305.035,0.369845,0.0,0.0
72,17.75,18.3029,18.9699,144.805,98.123,94.2926,0.000981957,0.0442306,21.0107,-305.035,0.350921,0.0,0.0
78,19.25,19.0546,19.0682,144.587,98.1286,94.4731,0.000928022,0.0441266,21.0113,-305.045,0.334573,0.0,0.0
84,20.75,18.4086,19.1666,142.959,98.1258,94.4569,0.000852701,0.0441591,21.0117,-305.055,0.33583,0.0,0.0
90,22.25,18.7019,19.153,141.23,98.1202,94.4373,0.000736283,0.0445692,21.0113,-305.055,0.337153,0.0,0.0
96,23.75,18.4588,19.1272,140.639,98.1278,94.3517,0.000625859,0.0452744,21.0097,-305.065,0.345826,0.0,0.0
102,25.25,18.6721,19.105,146.213,98.1443,94.1287,0.000626969,0.0463328,21.0084,-305.075,0.36816,0.0,0.0
108,26.75,18.9682,19.3235,144.835,98.1451,94.1291,0.000734708,0.0475486,21.0069,-305.075,0.368192,0.0,0.0
114,28.25,18.6323,19.1381,140.224,98.1527,94.1853,0.000929649,0.0485565,21.0055,-305.085,0.363615,0.0,0.0
120,29.75,19.1969,19.0724,144.936,98.1511,93.9495,0.00102224,0.0490292,21.0053,-305.085,0.385565,0.0,0.0
126,31.25,18.8971,19.1826,141.59,98.1663,94.0184,0.000998833,0.0490155,21.0053,-305.095,0.380466,0.0,0.0
132,32.75,18.7396,19.4261,145.491,98.1807,94.3262,0.000911969,0.0486154,21.0059,-305.105,0.352959,0.0,0.0
138,34.25,18.6558,19.5169,140.845,98.1911,93.9652,0.000770996,0.0478315,21.0067,-305.105,0.387684,0.0,0.0
144,35.75,18.8041,19.0668,138.506,98.1863,93.5838,0.000690885,0.0469277,21.0073,-305.105,0.423097,0.0,0.0
150,37.25,18.5462,19.2085,143.46,98.2172,93.8371,0.000713167,0.0460808,21.0085,-305.105,0.402046,0.0,0.0
156,38.75,18.312,19.4787,145.735,98.2192,93.9026,0.000788186,0.04544,21.0101,-305.115,0.396071,0.0,0.0
162,40.25,18.5819,19.4841,143.486,98.242,93.7988,0.000860888,0.0449739,21.0116,-305.125,0.407872,0.0,0.0
168,41.75,18.7741,19.1857,139.709,98.2504,93.8524,0.000914493,0.0445796,21.0134,-305.125,0.403589,0.0,0.0
174,43.25,18.8599,19.4598,144.531,98.274,93.62,0.000954601,0.0441758,21.0134,-305.115,0.42756,0.0,0.0
180,44.75,19.613,19.5584,142.932,98.2716,93.7766,0.000980253,0.0438289,21.014,-305.125,0.41261,0.0,0.0
186,46.25,19.0819,19.5709,144.722,98.2965,93.5476,0.000985667,0.0435889,21.0148,-305.125,0.436386,0.0,0.0
192,47.75,19.0271,19.6315,141.635,98.2981,93.5348,0.000957936,0.0433756,21.0152,-305.135,0.437734,0.0,0.0
198,49.25,19.3583,19.2824,145.304,98.3269,93.4514,0.000883238,0.0433061,21.0155,-305.135,0.448183,0.0,0.0
204,50.75,19.1445,19.3663,144.294,98.3473,93.4599,0.000782171,0.0431913,21.0156,-305.135,0.44921,0.0,0.0
210,52.25,19.2157,19.2324,144.739,98.3505,93.9277,0.000696546,0.0431045,21.0156,-305.135,0.405494,0.0,0.0
216,53.75,18.9266,19.5492,142.227,98.363,93.5825,0.000643981,0.0429902,21.0157,-305.145,0.439058,0.0,0.0
222,55.25,19.0468,19.5691,142.539,98.3746,93.6843,0.00061359,0.0429048,21.0157,-305.155,0.430522,0.0,0.0
228,56.75,19.0397,19.981,143.843,98.3854,93.5319,0.000561957,0.0428468,21.0157,-305.155,0.445839,0.0,0.0
234,58.25,19.6377,19.457,142.193,98.4102,93.5472,0.000551986,0.0428548,21.0157,-305.155,0.446619,0.0,0.0
240,59.75,19.0995,19.6583,143.384,98.4239,93.3314,0.000618042,0.0428659,21.0157,-305.165,0.468194,0.0,0.0
246,61.25,19.1484,19.0573,143.648,98.4339,93.1428,0.000686274,0.0428649,21.0157,-305.165,0.486916,0.0,0.0
252,62.75,19.2296,19.6715,143.083,98.4407,93.3105,0.000762751,0.0428494,21.0149,-305.175,0.471669,0.0,0.0
258,64.25,19.2049,19.8259,143.863,98.4411,93.6408,0.000775762,0.0427885,21.0146,-305.175,0.440563,0.0,0.0
264,65.75,18.8879,19.509,139.268,98.4595,93.6106,0.000786352,0.0427097,21.0143,-305.185,0.445058,0.0,0.0
270,67.25,19.3363,19.772,143.628,98.4835,93.3884,0.000851951,0.0428632,21.0142,-305.195,0.468152,0.0,0.0
276,68.75,19.4237,19.7713,142.731,98.4996,93.2305,0.00094964,0.0431226,21.0137,-305.205,0.484502,0.0,0.0
282,70.25,19.4046,19.5746,143.441,98.514,93.3905,0.0010305,0.0432177,21.0128,-305.205,0.470675,0.0,0.0
288,71.75,19.2747,19.926,142.353,98.54,93.3182,0.00102437,0.0433513,21.0123,-305.205,0.479835,0.0,0.0
294,73.25,19.0454,19.7955,139.762,98.5464,93.3101,0.000933831,0.0435194,21.0121,-305.215,0.481172,0.0,0.0
300,74.75,19.6433,20.1472,144.825,98.5636,92.9806,0.000796848,0.043536,21.0123,-305.225,0.513885,0.0,0.0
306,76.25,19.1932,19.7915,141.856,98.5733,92.8567,0.000729666,0.0437155,21.0122,-305.235,0.526493,0.0,0.0
312,77.75,19.2495,20.4971,142.172,98.6121,93.2407,0.000780731,0.0444605,21.0113,-305.245,0.493601,0.0,0.0
318,79.25,19.2981,20.306,144.217,98.6045,93.0585,0.000909788,0.0453862,21.0109,-305.255,0.510158,0.0,0.0
324,80.75,19.5993,20.2717,140.922,98.6281,93.1858,0.00103697,0.046532,21.0085,-305.255,0.500224,0.0,0.0
330,82.25,19.4707,20.1568,140.187,98.6522,92.3655,0.00116495,0.0481855,21.006,-305.265,0.580292,0.0,0.0
336,83.75,19.9025,20.338,141.595,98.6594,93.159,0.00134317,0.0502651,21.0029,-305.285,0.505551,0.0,0.0
342,85.25,19.7983,20.5009,149.603,98.6826,92.6379,0.00151402,0.052774,20.9996,-305.315,0.557054,0.0,0.0
348,86.75,19.3668,20.2411,142.574,98.701,91.9283,0.00166696,0.0554341,20.9963,-305.355,0.626466,0.0,0.0
354,88.25,19.7367,20.3558,144.057,98.7135,92.9785,0.00183645,0.0615953,20.9855,-305.315,0.527472,0.0,0.0
360,89.75,19.393,20.6389,141.153,98.7283,94.8528,0.00199549,0.0691411,20.9697,-305.355,0.352912,0.0,1.0
366,91.25,20.0315,20.6809,137.233,98.7415,94.5761,0.00215702,0.0790133,20.9525,-305.385,0.379837,0.0,1.0
372,92.75,20.5311,20.5599,139.214,98.7523,94.1517,0.00228019,0.0905837,20.9367,-305.415,0.420438,0.0,1.0
378,94.25,19.8989,20.6952,139.829,98.7675,94.1768,0.00234285,0.100911,20.9214,-305.445,0.419446,0.0,1.0
384,95.75,20.3357,20.9209,136.189,98.7823,93.4838,0.00237503,0.109175,20.9078,-305.475,0.485857,0.0,1.0
390,97.25,20.2408,21.1096,139.493,98.8004,92.2591,0.00247988,0.118465,20.8937,-305.495,0.603681,0.0,1.0
396,98.75,20.9911,21.3518,133.915,98.8112,89.152,0.00266332,0.127879,20.8786,-305.515,0.906552,0.0,0.0
402,100.25,20.7773,21.5275,132.894,98.8292,84.4571,0.00305271,0.137698,20.8585,-305.555,1.38492,0.0,0.0
408,101.75,21.2673,22.0293,135.986,98.8328,81.5373,0.00350348,0.150529,20.8345,-305.585,1.6953,0.0,0.0
414,103.25,21.6893,22.3601,134.411,98.8416,81.482,0.00396006,0.16423,20.8126,-305.635,1.70206,0.0,0.0
420,104.75,21.8364,22.2996,132.83,98.8468,78.7121,0.00447747,0.177093,20.7919,-305.695,2.00732,0.0,0.0
426,106.25,22.3516,23.1598,132.474,98.8825,78.7793,0.00501449,0.189593,20.7714,-305.755,2.00297,0.0,0.0
432,107.75,23.2894,23.7114,130.299,98.8793,75.8051,0.005553,0.200655,20.752,-305.816,2.34185,0.0,0.0
438,109.25,22.9448,24.4328,132.89,98.9001,73.0245,0.00611962,0.21088,20.7329,-305.876,2.67304,0.0,0.0
444,110.75,24.2005,24.477,132.351,98.9045,71.6231,0.00656756,0.221266,20.7133,-305.946,2.84419,0.0,0.0
450,112.25,24.8062,24.983,130.353,98.9181,72.5567,0.00694297,0.230571,20.6948,-305.986,2.73129,0.0,0.0
456,113.75,25.2786,26.1087,134.862,98.9294,71.9245,0.00723875,0.236916,20.6827,-306.066,2.8094,0.0,0.0
462,115.25,25.6813,26.2275,125.968,98.9502,70.126,0.00751146,0.240785,20.6754,-306.126,3.03443,0.0,0.0
468,116.75,26.5326,27.1885,131.208,98.9674,70.6245,0.00772629,0.243174,20.67,-306.216,2.97354,0.0,0.0
474,118.25,27.1806,27.2078,130.808,98.9802,69.4751,0.00799715,0.246636,20.6636,-306.286,3.11928,0.0,0.0
480,119.75,26.8543,28.0146,133.027,98.9978,68.0712,0.00834594,0.251014,20.6545,-306.336,3.30075,0.0,0.0
486,121.25,27.3426,29.0276,133.084,99.0035,71.4103,0.00880466,0.256094,20.644,-306.426,2.87923,0.0,0.0
492,122.75,28.4073,29.3117,129.56,99.0211,66.6771,0.00929616,0.261293,20.6342,-306.496,3.48518,0.0,0.0
498,124.25,29.0913,29.7215,126.8,99.0359,67.1126,0.00977797,0.266636,20.6262,-306.586,3.42913,0.0,0.0
504,125.75,28.9447,29.8697,134.418,99.0455,67.5877,0.0101482,0.274321,20.6124,-306.676,3.36783,0.0,0.0
510,127.25,29.9261,30.8877,130.938,99.0583,66.7308,0.010509,0.285641,20.5906,-306.776,3.48141,0.0,0.0
516,128.75,30.3822,31.3464,132.116,99.0687,65.6631,0.0109166,0.2986,20.5628,-306.876,3.62447,0.0,0.0
522,130.25,30.9697,32.4915,129.309,99.0796,67.6864,0.011224,0.31525,20.5391,-306.987,3.35799,0.0,0.0
528,131.75,31.3834,32.3285,127.351,99.0768,65.1315,0.01184,0.329176,20.518,-307.067,3.69683,0.0,0.0
534,133.25,32.1552,33.449,126.439,99.084,65.5359,0.0124401,0.34027,20.4978,-307.177,3.64293,0.0,0.0
540,134.75,32.7226,34.0337,129.102,99.09,64.9097,0.0127783,0.348838,20.4816,-307.267,3.72807,0.0,0.0
546,136.25,33.7647,34.9653,130.045,99.1016,66.7193,0.0130455,0.355842,20.4708,-307.357,3.48678,0.0,0.0
552,137.75,34.2438,35.8774,127.366,99.1156,63.0882,0.0131458,0.360782,20.4651,-307.467,3.98119,0.0,0.0
558,139.25,35.0191,36.3869,128.133,99.0996,61.408,0.0131007,0.362115,20.4621,-307.567,4.21765,0.0,0.0
564,140.75,35.7796,37.3782,124.262,99.1184,64.9276,0.0130356,0.361595,20.4607,-307.677,3.72817,0.0,0.0
570,142.25,36.6125,38.2815,129.145,99.1156,64.5466,0.0130418,0.361263,20.4608,-307.777,3.77979,0.0,0.0
576,143.75,36.5703,38.4975,125.086,99.1212,59.9607,0.0130758,0.361136,20.4598,-307.897,4.42977,0.0,0.0
582,145.25,37.7116,39.0973,129.94,99.1296,65.2715,0.0130198,0.361597,20.4603,-307.967,3.68261,0.0,0.0
588,146.75,37.9904,39.6455,128.498,99.1404,62.1878,0.0128094,0.360737,20.4625,-308.068,4.11007,0.0,0.0
594,148.25,38.4609,40.1927,128.588,99.13,64.1962,0.0124235,0.35709,20.4699,-308.168,3.82903,0.0,0.0
600,149.75,38.6308,40.8016,123.221,99.1376,61.3901,0.0119403,0.353103,20.4762,-308.258,4.2236,0.0,0.0
606,151.25,39.1527,41.0651,128.152,99.134,64.8714,0.0114555,0.349299,20.4833,-308.358,3.73719,0.0,0.0
612,152.75,39.7482,41.6016,128.008,99.1336,65.7236,0.0110006,0.344989,20.4908,-308.438,3.62213,0.0,0.0
618,154.25,39.9287,42.1328,130.003,99.13,63.6905,0.0105483,0.339644,20.4992,-308.528,3.89873,0.0,0.0
624,155.75,40.0804,42.5175,128.438,99.1332,65.4345,0.0101309,0.333481,20.5131,-308.638,3.66094,0.0,0.0
630,157.25,40.4555,42.7462,132.92,99.1385,67.3374,0.00979329,0.326196,20.5268,-308.758,3.40879,0.0,0.0
636,158.75,40.682,43.0896,132.322,99.1441,67.0704,0.00950218,0.320909,20.5367,-308.818,3.44429,0.0,0.0
642,160.25,40.8935,43.2071,129.566,99.1453,66.3604,0.00918733,0.315975,20.5462,-308.898,3.53819,0.0,0.0
648,161.75,40.9092,43.5466,130.757,99.1481,65.9969,0.00887245,0.310474,20.5555,-308.988,3.58685,0.0,0.0
654,163.25,41.2778,43.6055,128.245,99.1477,66.414,0.00848607,0.305782,20.5647,-309.058,3.53128,0.0,0.0
660,164.75,41.4741,43.4629,129.261,99.1473,68.6961,0.00812419,0.300639,20.5747,-309.129,3.23351,0.0,0.0
666,166.25,41.4633,43.819,130.859,99.1497,68.6868,0.00773178,0.294597,20.585,-309.189,3.23493,0.0,0.0
672,167.75,41.1192,43.9203,127.748,99.1473,70.1911,0.0073868,0.289122,20.5949,-309.249,3.04378,0.0,0.0
678,169.25,41.5104,44.3721,131.117,99.1409,72.9734,0.00698135,0.283652,20.6071,-309.329,2.70063,0.0,0.0
684,170.75,41.1054,44.052,134.937,99.1404,74.68,0.0065453,0.276387,20.6231,-309.409,2.49687,0.0,0.0
690,172.25,41.4189,44.1383,133.094,99.1385,74.0776,0.00616271,0.268578,20.6369,-309.459,2.56806,0.0,0.0
696,173.75,41.6785,44.3854,131.94,99.1393,75.946,0.00577338,0.260212,20.6538,-309.539,2.34862,0.0,0.0
702,175.25,41.1408,44.2989,134.938,99.1385,76.3014,0.00544016,0.251083,20.6693,-309.599,2.3074,0.0,0.0
708,176.75,41.4002,44.4862,134.093,99.136,79.5383,0.00519907,0.240152,20.6868,-309.659,1.94104,0.0,0.0
714,178.25,41.117,44.0785,135.464,99.1533,78.8513,0.00498701,0.230269,20.7034,-309.679,2.01903,0.0,0.0
720,179.75,41.1895,44.3015,131.722,99.1485,79.2527,0.00484278,0.221128,20.7176,-309.739,1.97385,0.0,0.0
726,181.25,40.8822,43.8836,134.23,99.1545,80.6762,0.00474807,0.211904,20.7337,-309.789,1.8175,0.0,0.0
732,182.75,40.9157,43.6913,135.305,99.1441,81.7736,0.00471315,0.203104,20.7499,-309.839,1.69751,0.0,0.0
738,184.25,40.4133,43.6742,133.192,99.1685,80.4084,0.00470021,0.195098,20.7641,-309.869,1.84804,0.0,0.0
744,185.75,40.4592,43.3176,138.006,99.1677,81.0035,0.0046918,0.187825,20.7742,-309.919,1.78299,0.0,0.0
750,187.25,40.19,43.2005,135.214,99.1737,81.9311,0.00465461,0.18124,20.785,-309.949,1.68318,0.0,0.0
756,188.75,39.7107,42.6094,136.846,99.1837,82.3951,0.00459101,0.176095,20.7943,-309.989,1.6343,0.0,0.0
762,190.25,39.613,42.8062,133.925,99.1869,83.5913,0.00454307,0.170639,20.8037,-310.029,1.50757,0.0,0.0
768,191.75,39.2866,42.2443,132.92,99.2033,82.659,0.00450952,0.165467,20.8118,-310.069,1.60786,0.0,0.0
774,193.25,39.2066,42.6327,134.887,99.2081,83.6181,0.00445277,0.161083,20.818,-310.079,1.50663,0.0,0.0
780,194.75,38.7795,41.5689,135.446,99.213,85.0565,0.00434097,0.156508,20.8261,-310.129,1.35675,0.0,0.0
786,196.25,38.5994,41.6331,135.037,99.219,84.2307,0.00421017,0.151495,20.8354,-310.149,1.44326,0.0,0.0
792,197.75,38.2073,41.5545,133.453,99.2206,85.9338,0.0041502,0.146228,20.8459,-310.189,1.26699,0.0,0.0
798,199.25,38.5358,41.2499,139.378,99.2458,86.156,0.00416086,0.141608,20.8536,-310.219,1.24647,0.0,0.0
804,200.75,37.5961,40.6458,136.683,99.2402,87.7715,0.00428976,0.137213,20.8596,-310.239,1.08226,0.0,0.0
810,202.25,37.5455,40.4793,136.601,99.2554,87.4012,0.0043616,0.133512,20.8655,-310.26,1.12087,0.0,0.0
816,203.75,37.1666,40.0701,140.692,99.2614,88.1057,0.00431423,0.128985,20.8739,-310.28,1.05066,0.0,0.0
822,205.25,36.725,39.7705,137.368,99.2722,88.9064,0.00415325,0.124594,20.8835,-310.3,0.971888,0.0,0.0
828,206.75,36.8858,39.5413,143.779,99.2674,89.9944,0.00393787,0.119918,20.892,-310.34,0.864264,0.0,0.0
834,208.25,36.2174,39.0697,134.409,99.2694,90.7287,0.00373767,0.115918,20.8992,-310.35,0.792826,0.0,0.0
840,209.75,35.6267,38.6058,136.767,99.2686,90.7326,0.00370261,0.11243,20.9042,-310.36,0.792383,0.0,0.0
846,211.25,35.547,38.4966,142.582,99.2814,91.9504,0.00376656,0.108523,20.9111,-310.37,0.676016,0.0,0.0
852,212.75,35.4902,38.1908,139.952,99.285,91.8415,0.00387054,0.104975,20.9177,-310.38,0.686786,0.0,0.0
858,214.25,35.3103,37.892,136.309,99.279,92.3033,0.00401277,0.101732,20.9225,-310.39,0.642045,0.0,0.0
864,215.75,34.6762,37.8251,139.284,99.2967,92.3587,0.00414752,0.098843,20.9273,-310.41,0.638328,0.0,0.0
870,217.25,34.5671,37.2744,137.453,99.2814,93.4816,0.0042551,0.0957555,20.9324,-310.42,0.530473,0.0,0.0
876,218.75,34.2216,36.8253,140.407,99.2935,93.305,0.00431339,0.0931822,20.9355,-310.55,0.548209,0.0,0.0
882,220.25,34.2188,36.7358,139.925,99.2895,93.5702,0.0043515,0.0906348,20.9398,-310.49,0.52284,0.0,0.0
888,221.75,33.7696,36.7225,141.413,99.2887,93.7158,0.0043531,0.0888704,20.942,-310.46,0.509068,0.0,0.0
894,223.25,33.4115,36.331,139.694,99.2891,93.7639,0.00433041,0.0874051,20.9441,-310.46,0.504581,0.0,0.0
900,224.75,33.1496,35.817,138.391,99.285,93.9622,0.00428546,0.086749,20.9454,-310.47,0.485601,0.0,0.0
906,226.25,32.7728,35.6206,140.597,99.2834,94.2802,0.00424353,0.0866727,20.9456,-310.5,0.455685,0.0,0.0
912,227.75,32.8276,35.3612,141.677,99.2947,94.2585,0.00422642,0.0867667,20.9456,-310.5,0.45871,0.0,0.0
918,229.25,32.7324,35.2438,138.02,99.2859,94.2147,0.0042434,0.086657,20.9462,-310.49,0.462028,0.0,0.0
924,230.75,32.0328,35.0381,138.661,99.2939,94.2998,0.00424412,0.086163,20.948,-310.52,0.454779,0.0,0.0
930,232.25,31.8236,34.9329,138.238,99.2826,94.264,0.00422212,0.085145,20.9496,-310.53,0.457126,0.0,0.0
936,233.75,31.7819,33.9661,141.211,99.2891,94.2479,0.00422995,0.0837412,20.9518,-310.53,0.459207,0.0,0.0
942,235.25,31.8683,34.2559,137.996,99.2786,94.6037,0.00426296,0.0821265,20.9542,-310.54,0.425069,0.0,0.0
948,236.75,31.3137,33.7969,142.77,99.2971,94.4322,0.00427733,0.0804513,20.9567,-310.55,0.4427,0.0,0.0
954,238.25,30.505,33.4068,143.745,99.2907,94.7259,0.0042365,0.0783652,20.9607,-310.57,0.414763,0.0,0.0
960,239.75,30.6418,33.582,137.231,99.2734,94.3739,0.00420934,0.0763206,20.9637,-310.58,0.446047,0.0,0.0
966,241.25,30.116,32.8614,138.714,99.2734,94.4586,0.00423435,0.0748297,20.9653,-310.57,0.438139,0.0,0.0
972,242.75,30.0361,32.4153,139.749,99.271,94.327,0.00433086,0.0735633,20.9667,-310.58,0.450207,0.0,0.0
978,244.25,30.3873,32.3075,138.601,99.275,94.6259,0.0044037,0.0723573,20.9691,-310.58,0.422688,0.0,0.0
984,245.75,29.8975,31.9987,141.365,99.281,94.4679,0.0044057,0.0711487,20.971,-310.6,0.437941,0.0,0.0
990,247.25,29.4223,31.9912,141.177,99.2722,94.6229,0.00437883,0.0699103,20.9722,-310.61,0.422716,0.0,0.0
996,248.75,29.5726,31.7315,142.179,99.2626,94.5386,0.00436799,0.0688273,20.9729,-310.61,0.429717,0.0,0.0
1002,250.25,28.8883,31.068,142.771,99.2662,94.2027,0.00436314,0.0675378,20.9755,-310.62,0.4614,0.0,0.0
1008,251.75,29.4674,32.2521,140.874,99.2714,95.0724,0.00430283,0.0664016,20.9774,-310.62,0.380877,0.0,0.0
1014,253.25,29.008,31.2686,143.566,99.267,94.4688,0.0042155,0.0654092,20.9791,-310.64,0.436618,0.0,0.0
1020,254.75,28.5802,30.7847,140.571,99.2626,94.5024,0.00418095,0.0643769,20.9809,-310.64,0.43309,0.0,0.0
1026,256.25,28.847,30.8,143.386,99.2654,93.8971,0.00420347,0.0635338,20.9818,-310.65,0.489969,0.0,0.0
1032,257.75,28.4719,30.5684,140.266,99.2598,94.5552,0.0042779,0.062695,20.9823,-310.65,0.42792,0.0,0.0
1038,259.25,28.7492,30.7505,145.276,99.2614,94.0559,0.00439058,0.0619133,20.983,-310.66,0.474724,0.0,0.0
1044,260.75,28.3569,30.4386,140.283,99.255,94.1627,0.00451149,0.0611347,20.9841,-310.67,0.46415,0.0,0.0
1050,262.25,27.5059,29.6869,138.665,99.2538,94.2411,0.00460253,0.060384,20.9855,-310.67,0.456715,0.0,0.0
1056,263.75,28.0298,29.849,143.653,99.2406,94.2398,0.00459141,0.0598489,20.9864,-310.68,0.455661,0.0,0.0
1062,265.25,27.5694,29.7443,142.174,99.2526,94.0142,0.0044868,0.0594022,20.9869,-310.68,0.477851,0.0,0.0
1068,266.75,27.3802,29.4502,140.522,99.2482,94.4326,0.00438483,0.0590252,20.9878,-310.68,0.438322,0.0,0.0
1074,268.25,27.2954,28.8431,140.89,99.2434,94.1461,0.00432639,0.0586431,20.9887,-310.69,0.464672,0.0,0.0
1080,269.75,26.7361,28.3783,140.637,99.2306,94.3837,0.00429355,0.0581401,20.9892,-310.69,0.441327,0.0,0.0
1086,271.25,26.8868,29.0631,140.789,99.2358,94.2674,0.0043764,0.0576811,20.9902,-310.7,0.452647,0.0,0.0
1092,272.75,27.0428,28.7788,141.303,99.221,94.3356,0.00449703,0.0573914,20.9907,-310.7,0.444965,0.0,0.0
1098,274.25,26.5109,28.5148,139.072,99.2158,94.2227,0.00456753,0.0570529,20.9911,-310.71,0.455047,0.0,0.0
1104,275.75,26.666,28.3235,143.051,99.2057,94.3969,0.00457923,0.056753,20.9923,-310.71,0.437889,0.0,0.0
1110,277.25,26.2902,28.6723,142.333,99.2093,94.3688,0.00455093,0.0565469,20.993,-310.71,0.440832,0.0,0.0
1116,278.75,26.009,27.7323,139.92,99.2057,94.6838,0.00448471,0.0563513,20.9933,-310.71,0.411145,0.0,0.0
1122,280.25,26.1612,27.6252,139.914,99.1917,94.247,0.00443705,0.056073,20.9935,-310.71,0.450644,0.0,0.0
1128,281.75,26.3082,28.1169,141.906,99.1841,94.2577,0.00441971,0.0557053,20.9936,-310.74,0.448972,0.0,0.0
1134,283.25,26.0306,27.564,144.548,99.1765,94.4181,0.00444948,0.0554655,20.9929,-310.75,0.433304,0.0,0.0
1140,284.75,25.9357,27.3924,140.31,99.1669,94.2534,0.00449653,0.0552455,20.9922,-310.75,0.44784,0.0,0.0
1146,286.25,25.3262,27.1336,137.343,99.1633,94.3534,0.00455429,0.0551131,20.9921,-310.74,0.438171,0.0,0.0
1152,287.75,25.2295,27.0958,142.651,99.1493,94.2577,0.00458551,0.0549897,20.9928,-310.75,0.445875,0.0,0.0
1158,289.25,25.6208,27.1428,143.988,99.1453,94.5229,0.00457977,0.0549091,20.9932,-310.76,0.420758,0.0,0.0
1164,290.75,26.1247,27.5481,142.611,99.1324,94.5859,0.00456378,0.0548248,20.9935,-310.74,0.413747,0.0,0.0
1170,292.25,25.2622,26.9626,140.781,99.1216,94.382,0.00451832,0.0546783,20.9936,-310.74,0.431804,0.0,0.0
1176,293.75,24.7878,26.216,140.72,99.1172,94.6033,0.00449318,0.054489,20.9942,-310.75,0.410769,0.0,0.0
1182,295.25,25.1334,26.754,137.934,99.1064,94.3309,0.00450847,0.0542082,20.9954,-310.76,0.435222,0.0,0.0
1188,296.75,24.7004,26.4424,142.01,99.1004,94.6093,0.00453533,0.054104,20.996,-310.77,0.408717,0.0,0.0
1194,298.25,25.1934,27.1727,143.65,99.0888,94.5991,0.00456474,0.0540086,20.9963,-310.79,0.408636,0.0,0.0
1200,299.75,25.2186,26.7848,142.415,99.0836,94.2743,0.00462872,0.0539231,20.9965,-310.79,0.438482,0.0,0.0
1206,301.25,24.4739,26.005,139.142,99.0708,94.4943,0.00472633,0.0537996,20.9965,-310.79,0.416794,0.0,0.0
1212,302.75,24.5738,26.4291,139.752,99.072,94.3513,0.00483207,0.0538549,20.9966,-310.81,0.43025,0.0,0.0
1218,304.25,24.2764,26.1137,144.678,99.0599,94.4573,0.00491439,0.0539099,20.9966,-310.8,0.419286,0.0,0.0
1224,305.75,24.4573,26.1513,140.993,99.0591,94.6676,0.00491571,0.0538654,20.997,-310.8,0.399616,0.0,0.0
1230,307.25,23.8099,25.1544,137.476,99.0515,94.4688,0.00490281,0.0537522,20.9972,-310.79,0.417465,0.0,0.0
1236,308.75,24.826,25.433,138.44,99.0459,94.1976,0.00493918,0.0536648,20.9974,-310.79,0.442299,0.0,0.0
1242,310.25,23.9489,25.3886,138.895,99.0391,95.0618,0.00501752,0.0536184,20.9974,-310.81,0.361216,0.0,0.0
1248,311.75,23.9355,25.7221,139.487,99.0379,94.6923,0.00502934,0.0536206,20.9979,-310.82,0.39543,0.0,0.0
1254,313.25,23.9722,25.4708,138.772,99.0219,94.5058,0.00497591,0.0537586,20.998,-310.81,0.411373,0.0,0.0
1260,314.75,24.3243,25.5598,143.731,99.0231,94.3062,0.00493239,0.0538666,20.9978,-310.82,0.430117,0.0,0.0
1266,316.25,24.2519,25.5616,141.053,99.0175,94.5058,0.00494212,0.0541184,20.9975,-310.83,0.410981,0.0,0.0
1272,317.75,24.3332,25.3378,143.267,99.0151,94.2398,0.00501112,0.0545852,20.9968,-310.83,0.435612,0.0,0.0
1278,319.25,24.3491,25.3189,141.487,99.0087,94.4671,0.00508081,0.0551232,20.9965,-310.87,0.413809,0.0,0.0
1284,320.75,24.5708,25.3366,145.682,99.0263,94.505,0.00514279,0.0555685,20.9955,-310.86,0.411846,0.0,0.0
1290,322.25,23.5718,25.2523,142.763,98.9999,94.5969,0.0051982,0.0557777,20.9946,-310.85,0.400921,0.0,0.0
1296,323.75,24.24,24.6753,141.513,98.9922,94.6689,0.00523052,0.0559884,20.9942,-310.83,0.393544,0.0,0.0
1302,325.25,24.0848,25.0262,141.842,98.9967,94.4543,0.00522314,0.0559926,20.994,-310.85,0.413932,0.0,0.0
1308,326.75,23.8682,25.0725,143.666,98.9906,94.4296,0.00511692,0.055877,20.9944,-310.84,0.415701,0.0,0.0
1314,328.25,23.7732,25.0441,139.949,98.9918,94.4709,0.00493836,0.0555941,20.9948,-310.85,0.411955,0.0,0.0
1320,329.75,23.2435,24.5029,142.261,99.0027,94.622,0.00478386,0.0551099,20.9949,-310.87,0.398831,0.0,0.0
1326,331.25,23.8023,24.9266,140.191,98.9814,94.4526,0.00475005,0.0547583,20.995,-310.9,0.412735,0.0,0.0
1332,332.75,23.6881,24.6963,139.548,98.9718,94.5143,0.00481306,0.0545025,20.9951,-310.87,0.406122,0.0,0.0
1338,334.25,23.6821,24.6026,140.08,98.9806,94.8298,0.00495401,0.0543271,20.9951,-310.9,0.377544,0.0,0.0
1344,335.75,23.6124,24.4106,139.726,98.9878,94.5748,0.00509924,0.0542919,20.9951,-310.88,0.401914,0.0,0.0
1350,337.25,23.8022,24.7951,139.595,98.9702,94.5863,0.00518845,0.0543138,20.9951,-310.91,0.399275,0.0,0.0
1356,338.75,23.1985,24.2993,139.59,98.9654,94.8689,0.00520195,0.0542077,20.9951,-310.88,0.372551,0.0,0.0
1362,340.25,23.3627,23.9555,144.769,98.9714,94.3943,0.00517248,0.0541953,20.9954,-310.9,0.417286,0.0,0.0
1368,341.75,23.0393,23.7227,141.012,98.9654,94.6821,0.00514873,0.0542966,20.9961,-310.9,0.389928,0.0,0.0
1374,343.25,23.4071,24.3231,143.621,98.9866,94.6361,0.00518886,0.0542054,20.9963,-310.9,0.396098,0.0,0.0
1380,344.75,23.6074,24.398,139.053,98.9662,94.8694,0.00525625,0.0542952,20.9965,-310.9,0.372582,0.0,0.0
1386,346.25,23.3046,24.1136,140.88,98.9678,94.7174,0.00534555,0.0543671,20.9966,-310.9,0.386854,0.0,0.0
1392,347.75,23.3906,24.1013,141.715,98.9534,94.6706,0.00544628,0.054385,20.9969,-310.91,0.389927,0.0,0.0
1398,349.25,23.209,24.1873,140.439,98.963,94.5765,0.00553456,0.0542977,20.9981,-310.91,0.399545,0.0,0.0
1404,350.75,22.8742,23.5974,142.292,98.9554,94.8093,0.00559576,0.054173,20.9983,-310.91,0.377196,0.0,0.0
1410,352.25,23.3789,24.1289,142.017,98.9702,94.7038,0.00566252,0.0542424,20.9979,-310.92,0.388334,0.0,0.0
1416,353.75,23.5162,24.5351,143.409,98.9662,94.7676,0.00573083,0.0543425,20.9977,-310.92,0.382038,0.0,0.0
1422,355.25,23.2267,24.3229,139.462,98.9826,94.8757,0.00579637,0.0543435,20.9976,-310.94,0.373451,0.0,0.0
1428,356.75,23.0834,24.1405,144.695,98.9778,94.4999,0.00578275,0.054518,20.9968,-310.94,0.408007,0.0,0.0
1434,358.25,23.2889,24.0738,143.71,98.9894,94.5914,0.00572009,0.0551087,20.9956,-310.95,0.40051,0.0,0.0
1440,359.75,23.1295,24.0369,142.492,99.0007,94.7085,0.00567922,0.0556562,20.995,-310.95,0.390609,0.0,0.0
1446,361.25,22.9369,24.0002,142.228,99.0187,94.5446,0.00564466,0.0560824,20.9947,-310.96,0.407477,0.0,0.0
1452,362.75,23.0648,24.1854,140.875,99.0307,95.0422,0.0055911,0.056267,20.9946,-310.97,0.362283,0.0,0.0
1458,364.25,22.8419,23.624,140.094,99.0507,95.0656,0.00557759,0.0562068,20.9946,-310.97,0.361894,0.0,0.0
1464,365.75,23.0936,23.8393,142.412,99.0659,94.4994,0.00561681,0.0560554,20.9947,-310.97,0.415889,0.0,0.0
1470,367.25,23.07,23.9729,139.339,99.0924,94.7429,0.00565158,0.0558914,20.9947,-310.98,0.395562,0.0,0.0
1476,368.75,23.0725,24.1129,139.22,99.1132,94.7225,0.00561047,0.055702,20.9947,-310.99,0.399315,0.0,0.0
1482,370.25,22.7129,24.0137,141.816,99.1196,94.7442,0.00551785,0.0555889,20.9947,-310.99,0.397866,0.0,0.0
1488,371.75,22.7905,23.9008,139.699,99.1469,95.0894,0.00546498,0.0556066,20.9947,-310.99,0.368234,0.0,0.0
1494,373.25,22.7965,23.5424,141.065,99.1569,95.2193,0.00545091,0.055644,20.9947,-311,0.3571,0.0,0.0
1500,374.75,22.4505,23.1981,143.535,99.1825,95.1529,0.00545986,0.0556971,20.9947,-311,0.365525,0.0,0.0
1506,376.25,22.9448,23.7329,142.52,99.1893,95.1452,0.00552743,0.0556766,20.9947,-311,0.36684,0.0,0.0
1512,377.75,23.0213,23.6899,143.724,99.2077,94.8528,0.00570941,0.055648,20.9947,-311.02,0.395607,0.0,0.0
1518,379.25,22.7854,23.5781,141.85,99.2178,94.8621,0.00594295,0.0555727,20.9947,-311.02,0.395626,0.0,0.0
1524,380.75,22.4504,23.2977,144.672,99.2322,94.9617,0.00614837,0.0555316,20.9947,-311.02,0.387658,0.0,0.0
1530,382.25,22.7124,23.5037,140.82,99.223,94.9945,0.00622124,0.0556539,20.9947,-311.03,0.383797,0.0,0.0
1536,383.75,22.6547,23.6532,138.777,99.2462,95.0137,0.0061466,0.0558493,20.9947,-311.03,0.384084,0.0,0.0
1542,385.25,22.5906,23.1854,139.877,99.259,94.8306,0.0060482,0.0560458,20.9947,-311.04,0.402216,0.0,0.0
1548,386.75,22.9146,23.7572,140.173,99.2742,94.9562,0.00600361,0.0562582,20.9943,-311.04,0.391906,0.0,0.0
1554,388.25,22.481,23.1711,145.532,99.2863,94.9724,0.0060298,0.0565216,20.9937,-311.04,0.391471,0.0,0.0
1560,389.75,22.5356,23.6114,142.852,99.3103,95.2529,0.00612182,0.057001,20.9926,-311.05,0.367611,0.0,0.0
1566,391.25,22.7623,23.6126,146.177,99.3091,94.8834,0.0062321,0.0573823,20.9918,-311.05,0.401757,0.0,0.0
1572,392.75,22.7074,23.4926,143.002,99.3111,95.1465,0.0062837,0.0576261,20.9913,-311.06,0.377534,0.0,0.0
1578,394.25,22.6089,23.4834,142.491,99.3231,95.0937,0.00630664,0.0577136,20.9911,-311.07,0.383492,0.0,0.0
1584,395.75,22.4835,23.4868,143.035,99.3223,95.224,0.00633032,0.0575734,20.9909,-311.07,0.371356,0.0,0.0
1590,397.25,22.3181,23.3003,143.39,99.3263,95.1363,0.00633333,0.0574442,20.9909,-311.08,0.379831,0.0,0.0
1596,398.75,22.3206,23.1908,144.099,99.3491,95.0171,0.00627595,0.0572683,20.9908,-311.09,0.392905,0.0,0.0
1602,400.25,22.7611,23.268,142.931,99.3451,95.072,0.00618933,0.0571719,20.9912,-311.1,0.387458,0.0,0.0
1608,401.75,22.6885,23.1001,144.156,99.3535,95.1371,0.00612066,0.0571656,20.9914,-311.1,0.382169,0.0,0.0
1614,403.25,22.2151,23.3138,141.046,99.366,94.9634,0.00610239,0.0573269,20.9915,-311.1,0.399373,0.0,0.0
1620,404.75,22.2115,23.0985,143.744,99.3816,95.5585,0.00617089,0.05768,20.9913,-311.1,0.345703,0.0,0.0
1626,406.25,22.7336,23.2027,143.286,99.3932,95.5015,0.0062746,0.0582571,20.9904,-311.11,0.351996,0.0,0.0
1632,407.75,22.3508,23.0621,140.771,99.3852,95.218,0.00637208,0.0587977,20.9899,-311.11,0.377486,0.0,0.0
1638,409.25,22.2129,23.0044,141.723,99.412,95.2704,0.00642931,0.0593654,20.9888,-311.13,0.375021,0.0,0.0
1644,410.75,22.5306,22.7954,140.108,99.4272,95.3155,0.00641016,0.0596126,20.9883,-311.13,0.372197,0.0,0.0
1650,412.25,22.3694,22.8311,142.725,99.4585,95.3478,0.00633747,0.0596345,20.9881,-311.14,0.371976,0.0,0.0
1656,413.75,22.244,22.9794,139.931,99.4577,95.6731,0.00624144,0.059432,20.9886,-311.15,0.341896,0.0,0.0
1662,415.25,22.4409,23.2853,141.662,99.4713,95.1256,0.00617311,0.059167,20.9893,-311.15,0.393673,0.0,0.0
1668,416.75,22.6367,23.4462,140.918,99.4625,95.6722,0.0061684,0.0589564,20.9895,-311.16,0.342401,0.0,0.0
1674,418.25,22.5538,23.5252,147.129,99.4853,95.2767,0.00623311,0.058865,20.9891,-311.17,0.380926,0.0,0.0
1680,419.75,22.4638,23.3007,143.747,99.4994,95.7957,0.00627868,0.0588968,20.9896,-311.18,0.334301,0.0,0.0
1686,421.25,22.8252,23.1248,142.913,99.5178,95.3483,0.00632761,0.0590884,20.9889,-311.19,0.377187,0.0,0.0
1692,422.75,22.6507,23.2257,142.549,99.5314,95.5488,0.00641544,0.0594575,20.9884,-311.19,0.359881,0.0,0.0
1698,424.25,22.4516,22.718,142.994,99.5727,95.3657,0.00653025,0.0599722,20.9881,-311.19,0.380432,0.0,0.0
1704,425.75,22.92,23.2438,143.31,99.5662,95.5194,0.00667897,0.0605871,20.9871,-311.2,0.365676,0.0,0.0
1710,427.25,22.3782,23.4587,141.225,99.5855,95.427,0.00675478,0.061023,20.9863,-311.2,0.375904,0.0,0.0
1716,428.75,22.3385,22.8184,141.077,99.5911,95.4547,0.00673444,0.0611115,20.986,-311.2,0.373846,0.0,0.0
1722,430.25,22.3257,22.7481,144.531,99.6183,95.2614,0.00668748,0.0609425,20.9858,-311.21,0.394116,0.0,0.0
1728,431.75,22.3548,23.0555,141.316,99.6379,95.7476,0.00667357,0.0607132,20.9857,-311.21,0.350994,0.0,0.0
1734,433.25,22.3068,22.543,139.822,99.6592,95.5769,0.00668032,0.0606771,20.9856,-311.21,0.368597,0.0,0.0
1740,434.75,22.1664,22.6448,144.337,99.6764,95.6479,0.00670228,0.0607977,20.9861,-311.22,0.363568,0.0,0.0
1746,436.25,22.5914,22.997,139.714,99.6896,95.5266,0.00678055,0.0608972,20.9857,-311.22,0.375922,0.0,0.0
1752,437.75,21.5728,22.1756,141.787,99.71,95.7948,0.00689939,0.0610366,20.9854,-311.23,0.353021,0.0,0.0
1758,439.25,22.3108,22.8043,140.882,99.7213,96.0962,0.00703422,0.0614162,20.9853,-311.23,0.32633,0.0,0.0
1764,440.75,21.7894,22.4633,141.567,99.7313,95.748,0.0071072,0.0618561,20.9853,-311.24,0.359205,0.0,0.0
1770,442.25,21.788,22.5269,140.974,99.7449,95.6526,0.00710295,0.0620763,20.9852,-311.25,0.369189,0.0,0.0
1776,443.75,21.7429,22.6545,144.313,99.7657,95.8331,0.00708274,0.0618753,20.9852,-311.25,0.354417,0.0,0.0
1782,445.25,21.7163,22.1495,140.405,99.7589,95.7974,0.00707547,0.0616939,20.9858,-311.26,0.357104,0.0,0.0
1788,446.75,22.6769,23.2609,139.501,99.7741,95.8421,0.00705435,0.0615993,20.9866,-311.26,0.354337,0.0,0.0
1794,448.25,21.5625,22.2636,140.819,99.7641,95.6892,0.00698518,0.0615093,20.987,-311.27,0.367517,0.0,0.0
1800,449.75,21.7401,22.691,143.669,99.7749,95.9025,0.00687936,0.061344,20.9872,-311.28,0.348852,0.0,0.0
1806,451.25,22.6365,22.9498,146.154,99.7737,95.6267,0.00676932,0.0613476,20.9873,-311.28,0.37413,0.0,0.0
1812,452.75,22.5076,23.0886,142.882,99.7741,95.6837,0.00669373,0.0613646,20.9874,-311.29,0.36891,0.0,0.0
1818,454.25,23.0121,23.2541,140.814,99.7669,95.6684,0.00663333,0.0613648,20.9874,-311.3,0.369685,0.0,0.0
1824,455.75,22.6628,22.8051,141.044,99.7661,95.728,0.00658638,0.0615225,20.9875,-311.3,0.364126,0.0,0.0
1830,457.25,22.6128,22.7203,142.884,99.7601,95.6015,0.00660229,0.0621703,20.9865,-311.31,0.375243,0.0,0.0
1836,458.75,22.2985,22.9388,140.203,99.7509,95.7109,0.00660679,0.0630077,20.9855,-311.32,0.364349,0.0,0.0
1842,460.25,21.7497,22.1011,141.725,99.7265,95.9238,0.00654286,0.0640142,20.9843,-311.32,0.342614,0.0,0.0
1848,461.75,22.3016,22.5862,138.743,99.7289,95.7633,0.00641831,0.0649582,20.9836,-311.32,0.357583,0.0,0.0
1854,463.25,21.8457,22.4817,143.039,99.6996,96.1307,0.00635472,0.0658071,20.982,-311.32,0.321256,0.0,0.0
1860,464.75,22.3207,22.6023,138.642,99.682,95.4283,0.00638853,0.066396,20.9803,-311.34,0.384325,0.0,0.0
1866,466.25,21.8137,22.539,141.538,99.6648,95.5475,0.00646159,0.0669703,20.9794,-311.34,0.371801,0.0,0.0
1872,467.75,22.043,23.1405,140.331,99.6544,95.3036,0.00651111,0.0673664,20.9789,-311.35,0.393408,0.0,0.0
1878,469.25,22.4556,22.8537,143.944,99.6247,95.5471,0.00652852,0.0673654,20.9786,-311.36,0.368299,0.0,0.0
1884,470.75,22.3164,22.6252,144.365,99.6015,95.6198,0.00650422,0.067315,20.9785,-311.36,0.359532,0.0,0.0
1890,472.25,22.1589,22.5449,140.706,99.5783,95.7514,0.00647157,0.0672131,20.9784,-311.381,0.345361,0.0,0.0
1896,473.75,21.9059,22.4722,147.146,99.5622,95.3368,0.00647482,0.0668555,20.9785,-311.381,0.382187,0.0,0.0
1902,475.25,22.1738,22.7793,140.137,99.5274,95.7365,0.00653114,0.0662861,20.9791,-311.371,0.342229,0.0,0.0
1908,476.75,22.3518,22.824,140.095,99.4909,95.4896,0.00657655,0.0657542,20.9794,-311.381,0.361757,0.0,0.0
1914,478.25,22.276,23.1462,140.661,99.4621,95.3308,0.00658632,0.0653463,20.9796,-311.391,0.373869,0.0,0.0
1920,479.75,22.2151,22.9447,142.562,99.428,95.6526,0.00659141,0.0650527,20.9808,-311.381,0.34115,0.0,0.0
1926,481.25,21.65,22.1618,143.443,99.4056,95.3832,0.00658462,0.0648587,20.9817,-311.391,0.364024,0.0,0.0
1932,482.75,22.598,22.7494,140.872,99.3559,95.2933,0.00655486,0.0648248,20.9823,-311.391,0.367923,0.0,0.0
1938,484.25,22.0291,22.7029,140.857,99.3211,95.6654,0.00653362,0.0646389,20.984,-311.411,0.330491,0.0,0.0
1944,485.75,21.9065,22.7543,139.866,99.2859,95.0179,0.00648703,0.0641141,20.985,-311.421,0.387209,0.0,0.0
1950,487.25,22.2022,22.5579,140.497,99.2622,94.8621,0.00641423,0.0635604,20.9854,-311.421,0.399574,0.0,0.0
1956,488.75,22.4211,23.0326,140.032,99.2049,95.1976,0.00631314,0.0632016,20.9857,-311.431,0.36338,0.0,0.0
1962,490.25,22.4336,23.0995,146.343,99.2089,95.1346,0.00632474,0.0628858,20.9868,-311.431,0.369569,0.0,0.0
1968,491.75,21.7908,22.3752,144.287,99.1913,95.45,0.00640622,0.0624323,20.9875,-311.441,0.338833,0.0,0.0
1974,493.25,22.7563,22.6624,143.336,99.2113,95.0243,0.0065029,0.0620586,20.9879,-311.451,0.380002,0.0,0.0
1980,494.75,21.669,22.5974,142.949,99.2274,95.5705,0.00660138,0.061577,20.9878,-311.451,0.33092,0.0,0.0
1986,496.25,21.8156,23.0147,141.213,99.2398,95.4377,0.00672634,0.061057,20.9881,-311.451,0.344278,0.0,0.0
1992,497.75,21.3762,21.852,142.757,99.2474,95.2674,0.00679502,0.0606812,20.9889,-311.471,0.36069,0.0,0.0
1998,499.25,22.4085,22.4555,140.691,99.2662,94.8498,0.00675674,0.0605163,20.9893,-311.461,0.401077,0.0,0.0
2004,500.75,21.6043,22.5735,139.466,99.2935,95.1912,0.00666116,0.0606136,20.9895,-311.481,0.371831,0.0,0.0
2010,502.25,22.1283,22.5462,140.733,99.2971,95.4764,0.00658235,0.0608618,20.9892,-311.471,0.345786,0.0,0.0
2016,503.75,22.0529,22.5556,141.344,99.3167,95.3146,0.00659256,0.0612249,20.9888,-311.471,0.362472,0.0,0.0
2022,505.25,22.3197,22.9433,142.951,99.3327,95.4589,0.00662227,0.0615216,20.9888,-311.481,0.350561,0.0,0.0
2028,506.75,22.3557,22.7825,139.093,99.36,95.321,0.00659303,0.0614632,20.9888,-311.491,0.365719,0.0,0.0
2034,508.25,22.136,22.5629,141.808,99.3804,95.4743,0.00656035,0.0612489,20.9888,-311.491,0.353374,0.0,0.0
2040,509.75,22.4241,23.1611,143.728,99.3924,95.642,0.00658474,0.0612223,20.9888,-311.491,0.338971,0.0,0.0
2046,511.25,21.3551,22.1761,144.814,99.4228,95.636,0.00661581,0.0611209,20.9888,-311.511,0.34222,0.0,0.0
2052,512.75,22.2382,23.0041,141.516,99.4497,95.5879,0.00657164,0.0611248,20.9888,-311.511,0.349032,0.0,0.0
2058,514.25,22.4401,22.9789,140.332,99.4769,95.888,0.00650819,0.0609228,20.9892,-311.511,0.323821,0.0,0.0
2064,515.75,22.278,22.6519,140.62,99.4905,95.447,0.00646012,0.0605906,20.9901,-311.521,0.365652,0.0,0.0
2070,517.25,21.9758,22.4543,142.193,99.5174,95.9932,0.00645068,0.0602322,20.9906,-311.521,0.317745,0.0,0.0
2076,518.75,21.321,21.8133,142.641,99.539,95.6607,0.00643632,0.0599784,20.9908,-311.521,0.350235,0.0,0.0
2082,520.25,21.2701,22.1049,142.041,99.5554,95.6662,0.00640556,0.0599051,20.9909,-311.531,0.35118,0.0,0.0
2088,521.75,22.2314,22.9504,140.657,99.5799,95.6267,0.00640472,0.0597838,20.991,-311.541,0.35699,0.0,0.0
2094,523.25,22.6511,23.1763,144.063,99.6155,95.4338,0.00644261,0.0596356,20.991,-311.541,0.377933,0.0,0.0
2100,524.75,22.0141,22.7076,140.737,99.6291,95.6445,0.00649737,0.0595948,20.9911,-311.541,0.359701,0.0,0.0
2106,526.25,21.5073,22.3238,142.295,99.6484,95.7071,0.00652115,0.0593144,20.9909,-311.551,0.355638,0.0,0.0
2112,527.75,22.0527,22.4388,143.302,99.6716,95.8063,0.00644457,0.059085,20.9907,-311.561,0.348565,0.0,0.0
2118,529.25,22.1948,22.991,140.404,99.688,95.6548,0.00634437,0.0589927,20.9906,-311.571,0.363966,0.0,0.0
2124,530.75,22.1053,22.7003,140.99,99.7197,95.6586,0.00626999,0.0590204,20.9905,-311.571,0.366411,0.0,0.0
2130,532.25,22.0774,22.7496,139.599,99.7413,96.1788,0.00627256,0.0589735,20.9905,-311.571,0.320529,0.0,0.0
2136,533.75,22.3514,22.2545,145.24,99.7649,95.7727,0.00629112,0.0589156,20.9905,-311.571,0.359907,0.0,0.0
2142,535.25,21.8285,22.5978,143.805,99.785,95.974,0.0062771,0.0594701,20.9887,-311.581,0.343168,0.0,0.0
2148,536.75,22.0387,22.6731,140.394,99.803,95.7901,0.00612844,0.0604592,20.9877,-311.591,0.36166,0.0,0.0
2154,538.25,21.9715,22.4318,141.98,99.8182,95.7535,0.00600948,0.0613352,20.9872,-311.601,0.366374,0.0,0.0
2160,539.75,21.8326,22.7728,140.497,99.8422,95.6109,0.00595718,0.0618566,20.987,-311.601,0.38163,0.0,0.0
2166,541.25,22.0516,22.6148,138.386,99.857,96.1273,0.005893,0.0617647,20.9878,-311.611,0.335473,0.0,0.0
2172,542.75,22.3379,22.5574,143.315,99.8763,95.8936,0.0057967,0.0615286,20.9883,-311.611,0.35862,0.0,0.0
2178,544.25,21.907,22.5309,141.676,99.8839,95.8182,0.00567589,0.0613047,20.9887,-311.611,0.366219,0.0,0.0
2184,545.75,21.7341,22.1747,140.244,99.8975,95.9744,0.00562024,0.0612818,20.9886,-311.611,0.353063,0.0,0.0
2190,547.25,21.6881,22.0303,138.482,99.9155,96.0545,0.00560744,0.0619025,20.9877,-311.621,0.347307,0.0,0.0
2196,548.75,21.0329,21.6131,143.703,99.9271,95.9434,0.00556587,0.0628897,20.9871,-311.631,0.358531,0.0,0.0
2202,550.25,21.0339,22.0922,142.43,99.9368,96.1954,0.0054954,0.0633196,20.9865,-311.631,0.336262,0.0,0.0
2208,551.75,21.249,21.9275,144.347,99.9384,95.9957,0.00545186,0.0633149,20.9862,-311.641,0.354712,0.0,0.0
2214,553.25,21.3509,21.6508,139.41,99.956,96.2422,0.00547195,0.0625973,20.9869,-311.641,0.333668,0.0,0.0
2220,554.75,21.0771,21.9552,141.422,99.96,95.7429,0.0055721,0.0614715,20.9886,-311.651,0.379864,0.0,0.0
2226,556.25,21.3929,21.8745,142.857,99.9772,96.1592,0.00571525,0.0602596,20.9895,-311.651,0.343144,0.0,0.0
2232,557.75,21.588,22.1452,144.402,99.9868,96.3473,0.00581637,0.0592441,20.9901,-311.661,0.326765,0.0,0.0
2238,559.25,21.4417,21.9203,140.368,99.9864,95.9451,0.00583581,0.0583354,20.9913,-311.661,0.363602,0.0,0.0
2244,560.75,21.4057,22.3595,142.269,99.9816,96.1864,0.00569514,0.0577519,20.992,-311.671,0.341036,0.0,0.0
2250,562.25,21.4041,22.3611,144.688,99.9944,95.991,0.0054875,0.0571534,20.9928,-311.681,0.360086,0.0,0.0
2256,563.75,21.2773,22.0876,140.611,99.986,96.2482,0.00530741,0.0566578,20.9938,-311.681,0.335772,0.0,0.0
2262,565.25,21.1146,21.9552,143.318,99.9948,96.1281,0.00516739,0.0561993,20.9944,-311.681,0.347547,0.0,0.0
2268,566.75,21.1462,22.0458,140.721,99.9772,95.9029,0.00507784,0.0559277,20.9946,-311.681,0.366662,0.0,0.0
2274,568.25,21.3713,22.5175,145.854,99.9868,96.0966,0.00506166,0.0556408,20.995,-311.691,0.349729,0.0,0.0
2280,569.75,21.1666,21.8724,142.817,99.9868,96.1651,0.00508627,0.0553168,20.9957,-311.691,0.343446,0.0,0.0
2286,571.25,21.614,22.1273,142.508,99.9744,95.728,0.00511843,0.0551249,20.996,-311.701,0.382506,0.0,0.0
2292,572.75,21.2415,22.309,143.802,99.9612,95.8272,0.0051157,0.0550229,20.9967,-311.691,0.372214,0.0,0.0
2298,574.25,21.3948,22.0233,142.39,99.9528,95.8416,0.0050745,0.0549107,20.9973,-311.701,0.370142,0.0,0.0
2304,575.75,21.6651,21.7424,143.079,99.9384,95.9285,0.00503945,0.0548434,20.9976,-311.711,0.360889,0.0,0.0
2310,577.25,21.7898,22.0971,141.666,99.9263,95.9502,0.00500465,0.0546306,20.9978,-311.721,0.357835,0.0,0.0
2316,578.75,21.1496,22.2429,142.631,99.8987,96.0187,0.00497277,0.0543746,20.9983,-311.711,0.349105,0.0,0.0
2322,580.25,21.6062,21.9696,142.887,99.8743,95.8833,0.00495533,0.0542942,20.9985,-311.721,0.359382,0.0,0.0
2328,581.75,20.6113,21.7729,145.769,99.8578,95.5624,0.00493404,0.0542706,20.9986,-311.721,0.387483,0.0,0.0
2334,583.25,21.4792,21.72,142.091,99.8482,95.7501,0.00490978,0.0542477,20.9987,-311.731,0.369339,0.0,0.0
2340,584.75,21.5488,22.0076,141.992,99.815,95.871,0.00489944,0.0541335,20.9988,-311.731,0.355283,0.0,0.0
2346,586.25,21.4612,21.5611,139.594,99.7922,96.0672,0.00494794,0.0540717,20.9988,-311.731,0.335248,0.0,0.0
2352,587.75,21.3405,21.7479,139.439,99.7665,95.6739,0.00501417,0.0540285,20.9986,-311.741,0.369141,0.0,0.0
2358,589.25,20.7373,21.7383,141.355,99.7397,95.6271,0.00499456,0.0539563,20.9983,-311.741,0.371083,0.0,0.0
2364,590.75,21.6775,22.0045,142.103,99.7313,95.5981,0.00491471,0.0538769,20.9981,-311.751,0.373008,0.0,0.0
2370,592.25,21.2714,22.0013,140.151,99.7024,95.8369,0.00477242,0.053891,20.9983,-311.761,0.348472,0.0,0.0
2376,593.75,21.0669,21.6014,142.287,99.6672,95.6262,0.00467796,0.0537367,20.9992,-311.761,0.364753,0.0,0.0
2382,595.25,21.4979,21.8629,142.886,99.6259,95.8284,0.00463355,0.0535884,20.9997,-311.761,0.34249,0.0,0.0
2388,596.75,21.1309,22.1048,144.057,99.5995,95.5568,0.00465912,0.0535096,20.9999,-311.771,0.365163,0.0,0.0
2394,598.25,21.7341,22.0112,140.445,99.5674,95.5424,0.00473487,0.0534921,21.0001,-311.771,0.363662,0.0,0.0
2400,599.75,21.626,22.3618,140.149,99.5214,95.6305,0.00480632,0.0533921,21.0002,-311.771,0.351459,0.0,0.0
2406,601.25,21.9542,21.8467,139.887,99.4825,95.2112,0.00482778,0.0533177,21.0002,-311.781,0.386744,0.0,0.0
2412,602.75,21.0441,22.0044,140.105,99.4801,95.5262,0.00480495,0.0531999,21.0002,-311.791,0.357422,0.0,0.0
2418,604.25,21.2909,21.5908,142.299,99.422,95.5079,0.00476451,0.0531373,21.0002,-311.791,0.353963,0.0,0.0
2424,605.75,21.1484,21.8921,143.115,99.3996,95.6794,0.00472437,0.0530771,21.0002,-311.801,0.336159,0.0,0.0
2430,607.25,21.013,22.0005,144.687,99.3692,95.2129,0.00470441,0.0530057,21.0002,-311.811,0.376539,0.0,0.0
2436,608.75,20.9083,22.1139,142.826,99.3363,95.0039,0.00465308,0.0530257,21.0002,-311.801,0.392992,0.0,0.0
2442,610.25,21.2982,21.4905,143.229,99.3031,95.6164,0.00456262,0.0532447,21.0002,-311.791,0.333402,0.0,0.0
2448,611.75,21.1687,22.1091,142.488,99.2806,95.3836,0.00446012,0.0537275,21.0002,-311.791,0.352899,0.0,0.0
2454,613.25,21.1228,21.8846,147.842,99.2446,95.3925,0.00435298,0.0546613,20.9981,-311.821,0.348872,0.0,0.0
2460,614.75,21.2976,22.6087,141.092,99.2194,95.2512,0.00434944,0.0561399,20.9954,-311.821,0.359697,0.0,0.0
2466,616.25,21.4355,21.7157,145.245,99.1925,95.5862,0.00441549,0.0575569,20.9934,-311.831,0.32637,0.0,0.0
2472,617.75,20.6356,21.3763,142.686,99.1525,95.2052,0.00452607,0.0585057,20.9923,-311.821,0.358007,0.0,0.0
2478,619.25,21.2031,22.3175,140.08,99.1425,95.2895,0.00464472,0.05872,20.9926,-311.831,0.34932,0.0,0.0
2484,620.75,21.1537,21.7821,138.47,99.12,95.1652,0.0046904,0.0585594,20.993,-311.821,0.358828,0.0,0.0
2490,622.25,21.6383,22.0759,139.97,99.0832,94.9243,0.00465482,0.0578039,20.9949,-311.831,0.377891,0.0,0.0
2496,623.75,21.4095,21.67,147.113,99.0503,95.3695,0.00458054,0.0569019,20.9964,-311.831,0.333728,0.0,0.0
2502,625.25,21.0538,22.2699,145.002,99.0331,94.92,0.00451562,0.0558715,20.9978,-311.841,0.373832,0.0,0.0
2508,626.75,21.5964,21.7175,141.712,99.0059,94.8072,0.00446433,0.0549758,20.9991,-311.841,0.381887,0.0,0.0
2514,628.25,20.6321,21.9496,143.95,98.987,94.9783,0.00444633,0.0541867,21.0008,-311.841,0.364319,0.0,0.0
2520,629.75,21.3059,21.889,139.176,98.963,95.3844,0.00446491,0.0536684,21.0017,-311.841,0.324578,0.0,0.0
2526,631.25,21.4172,22.1683,142.597,98.957,95.3146,0.00448251,0.0532886,21.0022,-311.831,0.330496,0.0,0.0
2532,632.75,20.9197,21.6787,142.979,98.9197,95.1482,0.0044906,0.0530381,21.0024,-311.841,0.34258,0.0,0.0
2538,634.25,21.8248,21.8384,140.296,98.9061,95.1397,0.00449694,0.0527424,21.0026,-311.841,0.342155,0.0,0.0
2544,635.75,21.3434,21.4267,140.002,98.8813,94.7966,0.00447338,0.0525502,21.0027,-311.841,0.371781,0.0,0.0
2550,637.25,21.7729,21.7078,141.08,98.8693,95.318,0.0043912,0.052396,21.0027,-311.851,0.322365,0.0,0.0
2556,638.75,21.0034,21.8138,138.385,98.8484,94.8583,0.00430676,0.0522638,21.0027,-311.861,0.363116,0.0,0.0
2562,640.25,21.4866,21.9788,144.539,98.8396,95.1022,0.00417499,0.0520536,21.0027,-311.861,0.3397,0.0,0.0
2568,641.75,21.2161,22.1081,140.9,98.802,94.6812,0.00402463,0.0519,21.0032,-311.861,0.37544,0.0,0.0
2574,643.25,21.3449,21.5479,145.537,98.7683,94.7008,0.00390839,0.0518656,21.0046,-311.861,0.370617,0.0,0.0
2580,644.75,20.9941,22.3071,140.894,98.7475,95.075,0.0038623,0.0518837,21.0056,-311.861,0.334007,0.0,0.0
2586,646.25,20.6964,21.9582,140.281,98.7167,94.7204,0.00389378,0.051879,21.0061,-311.871,0.364183,0.0,0.0
2592,647.75,21.8038,21.7886,141.912,98.6798,95.1154,0.00394156,0.0517857,21.0064,-311.881,0.324216,0.0,0.0
2598,649.25,21.5408,21.6544,138.681,98.659,95.1444,0.00392448,0.0517749,21.0066,-311.881,0.319674,0.0,0.0
2604,650.75,21.4588,21.8919,142.292,98.6281,95.2129,0.00388822,0.0516129,21.0068,-311.891,0.310572,0.0,0.0
2610,652.25,21.5314,21.6026,143.1,98.6001,94.5782,0.00380211,0.0514848,21.0072,-311.891,0.36701,0.0,0.0
2616,653.75,21.4186,21.9471,140.843,98.566,94.7761,0.00373745,0.0514091,21.0074,-311.891,0.345541,0.0,0.0
2622,655.25,21.5671,21.4823,143.418,98.5332,94.6999,,0.0513875,,-311.891,0.349692,0.0,0.0
2628,656.75,21.2876,21.7042,141.98,98.498,94.8042,,0.051323,,-311.901,0.336838,0.0,0.0
2634,658.25,21.4219,22.0049,142.22,98.4819,94.4075,,,,-311.911,0.372362,0.0,0.0
2640,659.75,21.0442,22.1302,137.937,98.4603,94.7983,,,,-311.921,0.334023,0.0,0.0
2646,661.25,21.3085,22.1521,142.97,98.4391,94.5684,,,,-311.911,0.353517,0.0,0.0
2652,662.75,21.3389,21.9765,142.307,98.3954,94.542,,,,-311.921,0.352068,0.0,0.0
2658,664.25,20.916,21.4098,141.716,98.3858,94.4343,,,,-311.921,0.361252,0.0,0.0
2660,664.75,20.5845,21.6039,143.85,98.3742,94.4049,,,,-311.921,0.362953,0.0,0.0