File: 01_Data/Asphalt_Shingle/Cone/Asphalt_Shingle_Cone_HF75Scan_220415_R3.csv
Names,Time,Stack TC,Smoke TC,Exh Press,Smoke Comp,Smoke Meas,CO Meter,CO2 Meter,O2 Meter,Sample Mass,Ext Coeff,Start Test,Flame Verif
Chan Gain,,500,500,1,1,1,1,1,1,1,1,1.0,1.0
Offset,,0,0,0.134662,0,0,0,0,0,0,0,0.0,0.0
Gain,,1,1,25.011,14.0001,15.1165,1,1,1,1.00131,1.00941,1.0,1.0
Units,sec,C,C,Pa,%,%,%,%,%,g,/m,,
Baseline,,45.573,47.0067,137.836,104.371,102.3,0.000322996,0.0451989,21.0119,-839.046,0.17748,,
2,0.25,44.3052,46.0186,136.919,103.882,101.579,0.000166118,0.052888,21.0021,-305.42,0.198556,0.0,0.0
4,0.75,44.2231,45.8252,143.165,103.884,101.545,0.000150236,0.052741,21.0022,-305.52,0.201641,0.0,0.0
6,1.25,42.7736,44.2004,134.505,103.884,101.908,0.000137371,0.0526219,21.0025,-305.72,0.170112,0.0,0.0
8,1.75,42.5129,44.1272,138.087,103.874,102.04,0.00012695,0.0524983,21.0031,-305.65,0.157743,0.0,0.0
10,2.25,43.0879,44.2381,137.438,103.885,101.911,0.000147344,0.0523982,21.0035,-305.55,0.169904,0.0,0.0
12,2.75,42.4953,44.5998,136.111,103.884,101.589,0.000163864,0.0522493,21.0039,-305.62,0.197853,0.0,0.0
14,3.25,43.055,44.3553,136.083,103.89,101.445,0.000180862,0.0521286,21.0042,-305.65,0.210921,0.0,0.0
16,3.75,43.2731,44.2048,138.236,103.884,101.644,0.000187016,0.0520309,21.0045,-305.57,0.19307,0.0,0.0
18,4.25,42.4744,44.858,135.524,103.889,101.689,0.000185148,0.0517762,21.0047,-305.57,0.189533,0.0,0.0
20,4.75,42.663,44.5711,140.219,103.884,101.821,0.000172854,0.0515699,21.0052,-305.62,0.177578,0.0,0.0
22,5.25,43.1435,44.3293,133.928,103.895,101.81,0.000153192,0.0513172,21.0057,-305.66,0.179488,0.0,0.0
24,5.75,42.9156,44.0898,138.544,103.881,101.474,0.000126426,0.0510354,21.0061,-305.65,0.207584,0.0,0.0
26,6.25,42.7551,44.488,138.823,103.892,101.909,0.000104746,0.0508072,21.0064,-305.64,0.170688,0.0,0.0
28,6.75,43.1798,44.2705,136.907,103.886,101.792,8.02132e-05,0.0505274,21.0067,-305.64,0.180288,0.0,0.0
30,7.25,42.6527,44.2475,136.694,103.887,101.534,5.40673e-05,0.0502652,21.0069,-305.65,0.202858,0.0,0.0
32,7.75,43.0834,44.4193,136.024,103.882,101.458,3.28891e-05,0.0500206,21.0071,-305.61,0.209061,0.0,0.0
34,8.25,43.191,44.4109,138.701,103.893,101.081,1.45302e-05,0.0497655,21.0072,-305.67,0.243038,0.0,0.0
36,8.75,42.6019,44.684,138.117,103.883,100.738,-3.40545e-07,0.0495075,21.0073,-305.65,0.272241,0.0,0.0
38,9.25,43.1436,44.7542,135.408,103.887,100.88,-1.23858e-05,0.0492415,21.0074,-305.65,0.260089,0.0,0.0
40,9.75,42.9525,44.645,136.069,103.888,100.917,1.78162e-05,0.0489747,21.0075,-305.65,0.256922,0.0,0.0
42,10.25,42.754,44.5329,136.397,103.892,100.506,7.82426e-05,0.0487586,21.008,-305.69,0.293348,0.0,0.0
44,10.75,42.4843,44.7449,137.068,103.89,100.493,0.000127188,0.0487732,21.0084,-305.68,0.294345,0.0,0.0
46,11.25,42.614,44.3739,133.822,103.89,100.335,0.000330194,0.0487851,21.0085,-305.68,0.308298,0.0,0.0
48,11.75,42.7714,44.8902,136.598,103.889,99.5531,0.000384804,0.0487947,21.0084,-305.65,0.377496,0.0,0.0
50,12.25,43.0124,44.5057,138.41,103.891,99.2897,0.000592083,0.0496882,21.0065,-305.65,0.401138,0.0,0.0
52,12.75,42.8731,44.6296,134.544,103.878,99.8811,0.00075998,0.0512092,21.0032,-305.72,0.347387,0.0,0.0
54,13.25,42.9638,44.3028,134.892,103.895,100.235,0.000971295,0.0524412,20.9971,-305.73,0.317529,0.0,0.0
56,13.75,42.9837,44.4148,137.559,103.884,101.314,0.00114246,0.0565492,20.9891,-305.72,0.221776,0.0,0.0
58,14.25,43.289,44.1792,133.699,103.896,101.59,0.00135171,0.0612952,20.9777,-305.77,0.198792,0.0,1.0
60,14.75,43.4467,44.2506,136.418,103.882,101.802,0.00152119,0.0648525,20.9642,-305.73,0.179078,0.0,1.0
62,15.25,43.2079,44.5734,133.181,103.888,101.999,0.00165848,0.0709355,20.9532,-305.76,0.162547,0.0,1.0
64,15.75,43.1155,44.6979,132.177,103.882,102.014,0.00207842,0.0807748,20.9399,-305.77,0.16068,0.0,1.0
66,16.25,43.3543,44.0765,134.932,103.887,100.925,0.00219138,0.0887446,20.9252,-305.85,0.256158,0.0,1.0
68,16.75,43.5526,45.035,132.359,103.878,99.0402,0.00266109,0.100876,20.9075,-305.83,0.422293,0.0,1.0
70,17.25,43.4328,44.8723,127.612,103.893,95.0737,0.00304155,0.110702,20.8879,-305.85,0.785438,0.0,1.0
72,17.75,43.6871,45.3401,130.492,103.884,91.6337,0.00382518,0.123408,20.8638,-305.93,1.11099,0.0,1.0
74,18.25,43.8738,45.197,131.403,103.898,88.2822,0.00445992,0.137973,20.8368,-305.84,1.44216,0.0,1.0
76,18.75,43.7584,45.3178,123.871,103.881,81.9201,0.00562025,0.163017,20.8149,-305.95,2.10296,0.0,1.0
78,19.25,44.3925,45.3145,123.907,103.902,79.3511,0.00656011,0.174938,20.7625,-305.97,2.38684,0.0,1.0
80,19.75,44.2564,45.8268,125.016,103.879,73.6026,0.00775571,0.195325,20.7201,-306.01,3.05078,0.0,1.0
82,20.25,44.5104,45.2836,113.002,103.884,69.1024,0.00911503,0.230676,20.6453,-306.111,3.60989,0.0,1.0
84,20.75,44.9164,45.5663,118.293,103.885,62.0447,0.0106531,0.259311,20.5848,-306.171,4.56386,0.0,1.0
86,21.25,45.0372,46.071,112.145,103.896,62.6804,0.0122924,0.296006,20.4928,-306.231,4.47458,0.0,1.0
88,21.75,45.4588,46.8718,106.77,103.883,55.6715,0.0136202,0.337879,20.4182,-306.331,5.52338,0.0,0.0
90,22.25,45.7961,47.1362,111.951,103.897,56.9951,0.0146957,0.383439,20.3579,-306.351,5.31654,0.0,0.0
92,22.75,46.0632,47.646,107.024,103.872,57.7166,0.0165169,0.430823,20.2909,-306.431,5.20304,0.0,0.0
94,23.25,47.2281,48.3299,103.871,103.888,51.6101,0.0179921,0.476825,20.2205,-306.521,6.19456,0.0,0.0
96,23.75,48.3414,49.3432,112.835,103.885,56.6117,0.0196579,0.520945,20.1446,-306.621,5.37527,0.0,0.0
98,24.25,48.4407,50.0414,112.145,103.892,51.9104,0.0210072,0.556683,20.0832,-306.631,6.14351,0.0,0.0
100,24.75,50.1913,51.4712,108.933,103.879,53.1827,0.0225347,0.589974,20.028,-306.721,5.92798,0.0,0.0
102,25.25,50.6469,52.0518,111.712,103.895,50.1781,0.0237719,0.620851,19.9786,-306.792,6.44428,0.0,0.0
104,25.75,51.5108,52.2448,107.086,103.88,47.3277,0.0251991,0.64586,19.9328,-306.842,6.96086,0.0,0.0
106,26.25,52.1579,53.8507,109.009,103.899,52.2624,0.0263551,0.669858,19.8905,-306.852,6.08433,0.0,0.0
108,26.75,53.2589,55.2794,109.037,103.886,49.4142,0.0276798,0.689296,19.8498,-306.992,6.57936,0.0,0.0
110,27.25,54.0168,56.0438,102.679,103.895,46.4908,0.0287528,0.70934,19.811,-307.062,7.1201,0.0,0.0
112,27.75,54.9197,56.4391,107.091,103.883,46.7713,0.0300137,0.725576,19.772,-307.172,7.06582,0.0,0.0
114,28.25,55.7307,57.1772,102.788,103.902,42.5401,0.0310351,0.745622,19.7335,-307.252,7.9071,0.0,0.0
116,28.75,56.0857,58.2107,114.136,103.876,43.9734,0.032149,0.761859,19.7023,-307.312,7.61142,0.0,0.0
118,29.25,57.6148,59.2661,104.797,103.888,45.7227,0.0333092,0.784614,19.6582,-307.382,7.26703,0.0,0.0
120,29.75,57.7716,60.167,97.5721,103.885,39.178,0.034249,0.803046,19.6224,-307.492,8.63465,0.0,0.0
122,30.25,58.9112,60.8453,106.594,103.89,38.5003,0.0353335,0.827801,19.5849,-307.603,8.78952,0.0,0.0
124,30.75,59.3018,61.831,91.8589,103.896,41.2784,0.036212,0.847853,19.5469,-307.663,8.17319,0.0,0.0
126,31.25,60.6137,62.8581,97.9094,103.902,36.9876,0.0371719,0.869133,19.5161,-307.763,9.14544,0.0,0.0
128,31.75,61.6618,63.6791,99.9558,103.889,40.2732,0.0379495,0.890906,19.4911,-307.883,8.39086,0.0,0.0
130,32.25,62.6133,65.097,108.2,103.903,40.2778,0.0385793,0.908541,19.4599,-307.993,8.39101,0.0,0.0
132,32.75,63.1288,65.6385,100.937,103.89,41.4486,0.0392471,0.926681,19.4346,-308.033,8.13616,0.0,0.0
134,33.25,64.4451,67.0626,99.6901,103.909,40.4877,0.0399299,0.941375,19.4139,-308.093,8.34553,0.0,0.0
136,33.75,65.2354,68.0959,100.73,103.894,41.6322,0.0404829,0.95347,19.3972,-308.203,8.09739,0.0,0.0
138,34.25,66.3237,68.9107,104.668,103.903,42.1803,0.0411293,0.963266,19.3823,-308.273,7.98239,0.0,0.0
140,34.75,67.2757,70.0001,103.406,103.897,40.6579,0.0418006,0.971202,19.3692,-308.374,8.30736,0.0,0.0
142,35.25,67.8014,71.1167,102.875,103.903,38.1027,0.0424772,0.979498,19.3544,-308.444,8.88258,0.0,0.0
144,35.75,68.3678,71.4115,104.338,103.904,39.4506,0.0430253,0.9879,19.3387,-308.524,8.57481,0.0,0.0
146,36.25,69.241,72.1319,103.247,103.899,39.0843,0.0437856,0.994705,19.326,-308.624,8.65705,0.0,0.0
148,36.75,69.9351,73.7804,98.7368,103.908,39.3395,0.0446862,1.0086,19.2946,-308.744,8.6002,0.0,0.0
150,37.25,71.35,74.8856,97.3171,103.911,37.3327,0.0457091,1.01985,19.2691,-308.874,9.06406,0.0,0.0
152,37.75,71.5396,75.6984,94.6769,103.905,37.4559,0.0468016,1.03915,19.2296,-308.954,9.03435,0.0,0.0
154,38.25,72.5191,76.7775,102.968,103.932,36.6057,0.048028,1.05478,19.1976,-309.064,9.23998,0.0,0.0
156,38.75,73.6634,77.0859,91.2537,103.924,35.1073,0.0493288,1.07452,19.1511,-309.165,9.60932,0.0,0.0
158,39.25,74.9316,79.1741,93.355,103.921,33.2551,0.0506901,1.09689,19.1134,-309.275,10.089,0.0,0.0
160,39.75,75.3819,79.7478,95.1265,103.927,34.1422,0.0520697,1.12247,19.0569,-309.415,9.85642,0.0,0.0
162,40.25,76.7155,80.9997,91.9559,103.923,33.4216,0.0534721,1.14989,19.0112,-309.485,10.0449,0.0,0.0
164,40.75,77.2764,81.8733,90.7774,103.933,34.2603,0.0548646,1.17211,18.9561,-309.585,9.82632,0.0,0.0
166,41.25,78.4744,82.8856,96.5432,103.937,31.0966,0.0562371,1.20046,18.9115,-309.755,10.6846,0.0,0.0
168,41.75,79.1279,83.679,97.8552,103.941,32.5359,0.0575691,1.22343,18.8596,-309.896,10.2843,0.0,0.0
170,42.25,79.9594,84.5815,92.378,103.945,33.3866,0.0586479,1.25144,18.8175,-309.976,10.0561,0.0,0.0
172,42.75,81.6403,86.4608,92.6711,103.947,30.7681,0.0597224,1.27802,18.7834,-310.086,10.7795,0.0,0.0
174,43.25,82.1731,87.3997,91.2544,103.949,29.6268,0.0607732,1.30305,18.7488,-310.156,11.1143,0.0,0.0
176,43.75,82.9793,87.9776,93.6053,103.96,30.8793,0.0616244,1.32534,18.7207,-310.256,10.7486,0.0,0.0
178,44.25,84.1875,89.3975,92.7749,103.95,28.0722,0.0619391,1.3452,18.7088,-310.386,11.5917,0.0,0.0
180,44.75,84.7671,90.375,95.2318,103.972,32.3878,0.0624772,1.36129,18.6885,-310.506,10.3273,0.0,0.0
182,45.25,86.5638,92.0482,91.8047,103.956,30.3493,0.062677,1.37315,18.672,-310.626,10.9016,0.0,0.0
184,45.75,87.3618,93.3333,90.5171,103.972,30.2035,0.0626264,1.38171,18.6587,-310.757,10.9456,0.0,0.0
186,46.25,88.1268,94.549,95.7555,103.978,33.3137,0.0619509,1.38864,18.6616,-310.867,10.0782,0.0,0.0
188,46.75,88.9184,95.9245,99.9222,103.98,32.5022,0.0614038,1.38241,18.6762,-310.937,10.2968,0.0,0.0
190,47.25,90.1444,96.8102,102.417,103.977,34.6594,0.0601663,1.37975,18.7086,-311.027,9.72753,0.0,0.0
192,47.75,91.3956,97.5589,99.4077,103.993,35.8141,0.059164,1.36573,18.7533,-311.157,9.43874,0.0,0.0
194,48.25,91.6978,98.4887,101.293,103.996,35.2637,0.0574002,1.34583,18.8109,-311.247,9.57615,0.0,0.0
196,48.75,92.4178,99.6756,107.076,104.005,39.3542,0.0559716,1.31844,18.8766,-311.347,8.6051,0.0,0.0
198,49.25,93.1459,100.205,108.424,103.985,39.547,0.0548144,1.28611,18.9299,-311.397,8.56011,0.0,0.0
200,49.75,93.6362,100.605,113.744,104.017,41.9971,0.0522894,1.24836,18.9931,-311.468,8.03064,0.0,0.0
202,50.25,94.006,101.616,111.154,103.989,45.1336,0.0502442,1.20736,19.0625,-311.538,7.39048,0.0,0.0
204,50.75,94.0996,101.915,111.779,104.021,46.9162,0.0473054,1.16274,19.1383,-311.608,7.05019,0.0,0.0
206,51.25,94.8424,102.514,112.477,104.01,49.8677,0.044925,1.1163,19.2174,-311.708,6.50906,0.0,0.0
208,51.75,94.7439,102.858,115.42,104.022,52.5835,0.0418818,1.06495,19.3013,-311.748,6.04058,0.0,0.0
210,52.25,95.0542,103.011,117.768,104.011,54.0339,0.0394169,1.01098,19.3872,-311.788,5.79871,0.0,0.0
212,52.75,94.9785,103.217,119.82,104.036,61.2729,0.036807,0.967269,19.4568,-311.778,4.68754,0.0,0.0
214,53.25,95.0588,103.264,119.944,104.031,62.7777,0.0341412,0.907262,19.5632,-311.888,4.47227,0.0,0.0
216,53.75,95.5878,103.506,120.412,104.044,65.034,0.0315045,0.858656,19.6495,-311.898,4.16074,0.0,0.0
218,54.25,94.8565,103.23,120.812,104.037,70.0416,0.0301544,0.809417,19.7193,-311.918,3.50334,0.0,0.0
220,54.75,94.0691,102.918,120.126,104.043,70.7345,0.0278457,0.760653,19.7664,-311.968,3.41672,0.0,0.0
222,55.25,94.5287,102.822,124.47,104.04,76.2814,0.0247221,0.712171,19.8813,-312.028,2.74792,0.0,0.0
224,55.75,94.3014,102.71,119.488,104.054,76.2381,0.0225787,0.664815,19.9622,-312.078,2.75419,0.0,0.0
226,56.25,93.6145,102.643,125.039,104.038,80.6446,0.0208426,0.619683,20.0277,-312.008,2.25527,0.0,0.0
228,56.75,94.0132,102.142,125.248,104.069,81.8214,0.0201024,0.577029,20.0556,-311.968,2.12961,0.0,0.0
230,57.25,93.5305,102.117,126.847,104.055,84.742,0.0182602,0.54248,20.1179,-312.028,1.81793,0.0,0.0
232,57.75,93.1842,101.654,128.892,104.064,88.8358,0.016768,0.527751,20.1814,-312.098,1.40096,0.0,0.0
234,58.25,92.9054,101.368,129.327,104.061,88.9769,0.0153076,0.474769,20.2451,-312.068,1.38661,0.0,0.0
236,58.75,92.7309,100.965,127.308,104.08,90.2096,0.0141246,0.44259,20.3078,-312.078,1.26642,0.0,0.0
238,59.25,91.7207,100.68,131.756,104.068,92.5785,0.0129966,0.408106,20.3682,-312.098,1.03585,0.0,0.0
240,59.75,91.7171,100.246,128.946,104.091,94.3472,0.0120829,0.393405,20.4259,-312.118,0.870245,0.0,0.0
242,60.25,91.0635,99.9933,133.802,104.076,95.6121,0.0112728,0.368266,20.4726,-312.118,0.751047,0.0,0.0
244,60.75,91.163,99.6135,128.666,104.099,96.4194,0.0105538,0.340969,20.5236,-312.159,0.67856,0.0,0.0
246,61.25,90.3255,99.0918,133.601,104.084,97.8356,0.00993252,0.318859,20.565,-312.189,0.548175,0.0,0.0
248,61.75,90.2447,98.838,131.208,104.101,98.9562,0.00939438,0.296874,20.6059,-312.199,0.448793,0.0,0.0
250,62.25,90.1084,98.3237,132.287,104.091,99.1855,0.0089322,0.279066,20.6391,-312.209,0.427465,0.0,0.0
252,62.75,89.4499,97.8857,133.544,104.116,100.206,0.0085342,0.262518,20.6694,-312.199,0.338864,0.0,0.0
254,63.25,88.9254,96.8287,134.537,104.135,100.664,0.00821182,0.247201,20.6971,-312.239,0.300195,0.0,0.0
256,63.75,89.1506,97.3068,131.559,104.147,101.312,0.00795069,0.233248,20.7195,-312.249,0.24442,0.0,0.0
258,64.25,87.9895,96.3528,131.729,104.111,101.798,0.00768184,0.220553,20.7404,-312.219,0.198897,0.0,0.0
260,64.75,86.9822,95.9422,130.52,104.134,102.793,0.00746408,0.209155,20.7599,-312.209,0.114692,0.0,0.0
262,65.25,87.2735,95.5198,132.898,104.125,102.047,0.00728835,0.198921,20.7777,-312.209,0.17849,0.0,0.0
264,65.75,86.7032,94.9022,133.283,104.146,102.52,0.0071466,0.190632,20.794,-312.279,0.13934,0.0,0.0
266,66.25,86.9447,94.9175,132.106,104.144,102.819,0.00703768,0.182698,20.8086,-312.289,0.113414,0.0,0.0
268,66.75,86.0176,94.331,133.238,104.149,102.337,0.00695476,0.175175,20.8217,-312.299,0.155427,0.0,0.0
270,67.25,85.5076,93.9168,135.427,104.146,102.817,0.00689154,0.169081,20.8334,-312.289,0.113714,0.0,0.0
272,67.75,84.8898,93.3003,133.783,104.166,102.722,0.00684386,0.163409,20.844,-312.269,0.123573,0.0,0.0
274,68.25,84.8305,92.7434,133.374,104.16,102.272,0.00680132,0.158152,20.8525,-312.299,0.161961,0.0,0.0
276,68.75,84.2963,92.3418,132.737,104.176,103.153,0.00676331,0.153567,20.8612,-312.329,0.0873818,0.0,0.0
278,69.25,83.8798,92.0597,135.782,104.178,102.568,0.00672466,0.14956,20.8682,-312.349,0.137845,0.0,0.0
280,69.75,83.3236,91.3727,134.155,104.201,102.669,0.00668627,0.14607,20.8748,-312.359,0.131125,0.0,0.0
282,70.25,83.0299,91.3769,133.834,104.189,102.734,0.00665518,0.143023,20.8801,-312.349,0.124504,0.0,0.0
284,70.75,82.6111,90.8866,134.692,104.204,102.718,0.00661951,0.140318,20.8847,-312.389,0.127203,0.0,0.0
286,71.25,82.7135,90.4246,131.678,104.206,102.32,0.00658118,0.137915,20.8886,-312.379,0.161693,0.0,0.0
288,71.75,81.9473,89.5612,131.733,104.213,102.472,0.00654267,0.135835,20.8917,-312.369,0.149186,0.0,0.0
290,72.25,81.9099,89.3621,133.955,104.226,102.705,0.00651148,0.13403,20.8952,-312.359,0.130168,0.0,0.0
292,72.75,81.3528,88.9378,135.843,104.228,102.864,0.00648621,0.132568,20.8979,-312.349,0.116635,0.0,0.0
294,73.25,80.9731,88.8513,132.772,104.225,102.925,0.00646575,0.131188,20.9002,-312.349,0.111108,0.0,0.0
296,73.75,80.0587,87.9801,136.279,104.24,102.637,0.00644917,0.13007,20.902,-312.389,0.137214,0.0,0.0
298,74.25,79.5684,87.6639,132.767,104.245,103.235,0.00644826,0.129053,20.9037,-312.399,0.0862205,0.0,0.0
300,74.75,78.5004,86.8057,135.77,104.252,102.817,0.00644752,0.128131,20.9053,-312.399,0.122723,0.0,0.0
302,75.25,78.9525,86.4285,137.852,104.267,102.36,0.00645937,0.12728,20.9065,-312.429,0.16341,0.0,0.0
304,75.75,79.275,86.5194,138.043,104.258,102.999,0.00646896,0.126498,20.9074,-312.439,0.107551,0.0,0.0
306,76.25,78.1347,86.0311,131.827,104.271,102.804,0.00647425,0.125864,20.9084,-312.489,0.125431,0.0,0.0
308,76.75,77.8264,85.7562,133.654,104.271,102.913,0.00647853,0.12528,20.9093,-312.439,0.116059,0.0,0.0
310,77.25,77.4538,84.9353,130.513,104.272,103.001,0.006482,0.124807,20.9101,-312.469,0.108627,0.0,0.0
312,77.75,77.3025,84.9218,132.681,104.276,102.861,0.0064736,0.12441,20.9108,-312.419,0.120981,0.0,0.0
314,78.25,76.7715,84.5296,131.938,104.28,102.712,0.0064668,0.124088,20.9115,-312.499,0.134143,0.0,0.0
316,78.75,76.207,84.0159,133.656,104.287,102.97,0.00646129,0.123783,20.9124,-312.549,0.112553,0.0,0.0
318,79.25,76.4158,83.6216,141.473,104.293,102.72,0.00644716,0.123496,20.9126,-312.479,0.134588,0.0,0.0
320,79.75,75.456,83.5636,131.5,104.295,103.398,0.00641268,0.123264,20.9125,-312.459,0.0765095,0.0,0.0
322,80.25,75.7759,82.5453,137.605,104.306,102.728,0.0064034,0.122908,20.9124,-312.509,0.135,0.0,0.0
324,80.75,75.4108,82.7097,133.631,104.302,103.066,0.00633645,0.122619,20.9122,-312.529,0.105616,0.0,0.0
326,81.25,74.8855,82.1283,134.811,104.311,102.65,0.00631844,0.122386,20.9122,-312.539,0.142122,0.0,0.0
328,81.75,74.4394,81.965,133.636,104.31,102.806,0.00625285,0.122042,20.9121,-312.539,0.128573,0.0,0.0
330,82.25,74.279,81.5903,137.171,104.356,102.623,0.00617686,0.121624,20.9121,-312.559,0.148274,0.0,0.0
332,82.75,74.3448,81.279,137.743,104.335,102.895,0.00609474,0.121212,20.9133,-312.519,0.123008,0.0,0.0
334,83.25,73.5188,81.3593,133.36,104.335,103.017,0.00602822,0.121002,20.9144,-312.499,0.11257,0.0,0.0
336,83.75,73.6771,81.5895,133.828,104.33,102.552,0.00593839,0.120452,20.9152,-312.549,0.152234,0.0,0.0
338,84.25,72.5448,80.1679,137.151,104.346,102.716,0.00586562,0.12028,20.9159,-312.549,0.139367,0.0,0.0
340,84.75,73.0317,79.8144,136.831,104.346,103.191,0.00580668,0.119988,20.9164,-312.569,0.0985403,0.0,0.0
342,85.25,72.8384,80.0873,134.629,104.356,102.593,0.0057255,0.119764,20.9168,-312.589,0.150825,0.0,0.0
344,85.75,72.7147,79.8551,135.127,104.345,102.841,0.00565974,0.119584,20.9172,-312.569,0.128488,0.0,0.0
346,86.25,71.7498,78.9867,137.71,104.375,102.719,0.00560583,0.119437,20.9175,-312.549,0.141669,0.0,0.0
348,86.75,71.7263,79.3916,134.021,104.354,103.878,0.00556157,0.119319,20.9177,-312.579,0.0405599,0.0,0.0
350,87.25,71.6229,78.9552,135.769,104.369,102.96,0.00552963,0.119223,20.9179,-312.619,0.120388,0.0,0.0
352,87.75,71.2922,78.7081,136.53,104.354,102.751,0.00550727,0.119145,20.9181,-312.629,0.137033,0.0,0.0
354,88.25,70.8171,78.1288,134.55,104.367,102.526,0.00549112,0.119082,20.9182,-312.639,0.157582,0.0,0.0
356,88.75,71.2439,78.0247,136.167,104.374,102.98,0.0054798,0.118987,20.9183,-312.669,0.119042,0.0,0.0
358,89.25,70.797,78.0603,133.251,104.368,103.366,0.00546868,0.11887,20.9184,-312.639,0.0853988,0.0,0.0
360,89.75,70.3954,77.3698,135.073,104.367,102.646,0.00545791,0.118716,20.9189,-312.649,0.14719,0.0,0.0
362,90.25,69.9328,76.702,132.106,104.387,102.938,0.00544332,0.118539,20.9193,-312.639,0.123816,0.0,0.0
364,90.75,70.1331,76.7307,137.843,104.394,102.867,0.00542622,0.118315,20.9196,-312.639,0.130509,0.0,0.0
366,91.25,69.6937,76.5143,132.834,104.392,102.705,0.00541237,0.11806,20.9199,-312.659,0.144201,0.0,0.0
368,91.75,69.2074,76.185,135.023,104.387,102.543,0.00538383,0.117802,20.9203,-312.669,0.157736,0.0,0.0
370,92.25,69.5244,76.2351,132.425,104.401,103.098,0.00536071,0.117547,20.9209,-312.679,0.111253,0.0,0.0
372,92.75,68.5301,75.4787,135.869,104.402,102.787,0.00533209,0.117311,20.9214,-312.689,0.138033,0.0,0.0
374,93.25,68.4037,75.2525,132.135,104.411,102.636,0.0053089,0.117094,20.9218,-312.709,0.151799,0.0,0.0
376,93.75,68.1705,74.9153,135.817,104.399,103.733,0.00528426,0.116918,20.9221,-312.739,0.0566454,0.0,0.0
378,94.25,68.45,75.0232,134.55,104.416,103.082,0.00525903,0.116831,20.9223,-312.729,0.113832,0.0,0.0
380,94.75,68.4182,74.6087,133.352,104.397,103.115,0.00523859,0.11676,20.9225,-312.769,0.109427,0.0,0.0
382,95.25,67.852,74.6836,133.483,104.414,103.704,0.00521207,0.116747,20.9227,-312.789,0.0604706,0.0,0.0
384,95.75,67.6407,73.9284,135.824,104.425,102.741,0.00519059,0.116777,20.9228,-312.769,0.143961,0.0,0.0
386,96.25,67.4204,74.3945,137.865,104.415,102.96,0.00516825,0.116844,20.923,-312.769,0.124227,0.0,0.0
388,96.75,67.3619,73.8243,133.811,104.403,103.288,0.00515015,0.116939,20.9232,-312.779,0.0950928,0.0,0.0
390,97.25,67.2597,73.6327,133.986,104.422,103.029,0.00512684,0.117016,20.9234,-312.789,0.118937,0.0,0.0
392,97.75,67.0176,73.6195,134.154,104.398,102.971,0.00510795,0.117064,20.9236,-312.779,0.121901,0.0,0.0
394,98.25,66.6497,73.2944,137.283,104.407,102.833,0.00508225,0.117103,20.9237,-312.799,0.134534,0.0,0.0
396,98.75,66.4524,73.203,135.926,104.401,103.189,0.00505207,0.117024,20.9242,-312.729,0.103378,0.0,0.0
398,99.25,66.456,72.9118,134.096,104.41,102.534,0.00502763,0.116959,20.9247,-312.749,0.160602,0.0,0.0
400,99.75,66.2308,72.7645,135.392,104.407,102.853,0.00499547,0.116885,20.925,-312.789,0.132783,0.0,0.0
402,100.25,65.9139,72.3071,135.361,104.423,103.26,0.00496943,0.116806,20.9253,-312.809,0.099129,0.0,0.0
404,100.75,65.4539,72.22,134.489,104.416,103.223,0.0049434,0.116756,20.9255,-312.829,0.10179,0.0,0.0
406,101.25,65.4436,71.4046,136.032,104.425,103.124,0.00492231,0.116728,20.9257,-312.809,0.110988,0.0,0.0
408,101.75,64.8634,72.0408,133.753,104.406,102.997,0.00490523,0.116706,20.9259,-312.819,0.120256,0.0,0.0
410,102.25,65.1197,71.436,132.525,104.414,102.936,0.00489016,0.116591,20.9263,-312.879,0.126218,0.0,0.0
412,102.75,65.2288,71.3557,135.826,104.403,102.68,0.00487795,0.116497,20.9269,-312.93,0.147291,0.0,0.0
414,103.25,64.881,71.2503,131.457,104.407,103.028,0.00486683,0.11638,20.9274,-312.909,0.117748,0.0,0.0
416,103.75,64.7636,70.9131,136.207,104.404,102.969,0.00485912,0.116284,20.9279,-312.93,0.122571,0.0,0.0
418,104.25,64.4888,70.6415,134.412,104.407,103.06,0.00485404,0.116207,20.9284,-312.889,0.114937,0.0,0.0
420,104.75,64.9014,70.6928,134.746,104.401,103.356,0.00484993,0.1162,20.9291,-312.899,0.0890967,0.0,0.0
422,105.25,64.184,70.7946,132.245,104.417,102.862,0.0048466,0.116195,20.9296,-312.93,0.132826,0.0,0.0
424,105.75,64.165,69.8135,133.67,104.387,102.777,0.00483411,0.116163,20.9301,-312.93,0.137675,0.0,0.0
426,106.25,63.8418,70.0774,137.034,104.395,102.87,0.00482398,0.116136,20.9304,-312.97,0.130267,0.0,0.0
428,106.75,64.2135,70.0057,136.239,104.39,102.765,0.004795,0.116087,20.9307,-312.94,0.13885,0.0,0.0
430,107.25,63.6765,69.6996,132.335,104.379,102.787,0.00475283,0.116047,20.9308,-312.94,0.136152,0.0,0.0
432,107.75,63.5952,69.7241,134.802,104.382,103.189,0.00469857,0.115993,20.9308,-312.96,0.101819,0.0,0.0
434,108.25,63.2946,69.6102,136.416,104.384,102.686,0.00463651,0.115929,20.9309,-312.98,0.145254,0.0,0.0
436,108.75,62.7516,69.2718,132.738,104.365,102.459,0.00457458,0.115878,20.9309,-312.98,0.16322,0.0,0.0
438,109.25,63.2164,68.6474,133.687,104.408,102.513,0.00451392,0.115813,20.9309,-312.98,0.162177,0.0,0.0
440,109.75,63.3263,68.7132,137.711,104.382,102.587,0.00446025,0.115741,20.931,-312.95,0.15359,0.0,0.0
442,110.25,62.1328,68.4911,134.038,104.387,102.912,0.0044127,0.115682,20.931,-312.95,0.126042,0.0,0.0
444,110.75,62.489,68.2731,134.371,104.385,102.787,0.00437288,0.115704,20.931,-312.97,0.13658,0.0,0.0
446,111.25,62.2675,68.3233,134.068,104.371,102.839,0.00433947,0.115737,20.9315,-312.99,0.130934,0.0,0.0
448,111.75,62.0499,67.8053,133.841,104.359,103.07,0.0043124,0.115777,20.9318,-312.99,0.110045,0.0,0.0
450,112.25,61.9635,67.8555,137.832,104.369,102.579,0.00429436,0.115824,20.9321,-313.05,0.153182,0.0,0.0
452,112.75,62.059,67.5033,134.167,104.357,103.248,0.00428325,0.115875,20.9324,-312.99,0.0946156,0.0,0.0
454,113.25,61.4384,67.2358,133.031,104.372,102.95,0.00428073,0.115931,20.9326,-313.02,0.121475,0.0,0.0
456,113.75,61.1739,67.3225,133.099,104.369,103.156,0.00428452,0.11599,20.9327,-313.05,0.103583,0.0,0.0
458,114.25,61.3722,67.4221,136.414,104.357,103.017,0.00428613,0.116037,20.9328,-313.05,0.114422,0.0,0.0
460,114.75,61.2228,66.5099,134.5,104.363,102.947,0.00430367,0.115978,20.9329,-313.09,0.120959,0.0,0.0
462,115.25,61.2053,67.0075,133.474,104.357,102.882,0.00431788,0.11593,20.933,-313.11,0.126048,0.0,0.0
464,115.75,60.8591,66.5753,132.813,104.354,102.411,0.00434171,0.115891,20.9333,-313.12,0.166381,0.0,0.0
466,116.25,60.6677,66.1127,137.159,104.346,102.334,0.00436101,0.115664,20.9338,-313.13,0.172355,0.0,0.0
468,116.75,60.3264,66.7612,133.239,104.355,102.454,0.00437665,0.115459,20.9341,-313.1,0.16278,0.0,0.0
470,117.25,59.9152,66.2701,133.411,104.345,102.954,0.00438931,0.115361,20.9344,-313.06,0.118874,0.0,0.0
472,117.75,60.1981,65.9375,134.915,104.352,102.352,0.00439114,0.115193,20.9347,-313.11,0.171306,0.0,0.0
474,118.25,60.1418,65.9298,135.8,104.335,102.913,0.00438503,0.115154,20.9349,-313.09,0.121496,0.0,0.0
476,118.75,60.2678,65.9264,134.509,104.34,102.726,0.00438009,0.115123,20.935,-313.09,0.138028,0.0,0.0
478,119.25,60.1426,65.2124,137.63,104.331,102.925,0.00436312,0.115157,20.9351,-313.11,0.120101,0.0,0.0
480,119.75,60.0424,64.7982,135.21,104.333,102.574,0.00433771,0.115237,20.9353,-313.13,0.150536,0.0,0.0
482,120.25,59.7133,64.6696,136.251,104.324,102.645,0.00431001,0.115339,20.9353,-313.17,0.143644,0.0,0.0
484,120.75,59.5099,64.9173,133.476,104.334,102.341,0.00428115,0.115454,20.935,-313.16,0.170705,0.0,0.0
486,121.25,59.5274,65.0522,136.947,104.323,102.51,0.00425584,0.115548,20.9347,-313.15,0.155203,0.0,0.0
488,121.75,59.4485,64.602,134.63,104.323,102.769,0.00423359,0.115735,20.9344,-313.17,0.132916,0.0,0.0
490,122.25,59.4001,64.9473,137.836,104.311,103.266,0.00422269,0.115887,20.9342,-313.18,0.0891176,0.0,0.0
492,122.75,59.1371,64.4072,132.343,104.315,103.055,0.00421924,0.116127,20.934,-313.15,0.107539,0.0,0.0
494,123.25,59.0958,64.1086,129.508,104.31,102.805,0.00423581,0.116428,20.9339,-313.2,0.128765,0.0,0.0
496,123.75,58.8799,63.6787,132.975,104.321,103.134,0.00426414,0.116672,20.9338,-313.19,0.101311,0.0,0.0
498,124.25,59.0256,64.1328,138.679,104.307,102.667,0.00428709,0.116953,20.9337,-313.19,0.140359,0.0,0.0
500,124.75,59.1272,64.1784,135.351,104.328,102.421,0.00430569,0.11718,20.9337,-313.19,0.163335,0.0,0.0
502,125.25,58.931,64.0868,137.43,104.303,103.054,0.00435525,0.117295,20.9337,-313.22,0.106682,0.0,0.0
504,125.75,58.4847,63.9248,132.507,104.307,103.244,0.0043954,0.117368,20.9338,-313.21,0.0906933,0.0,0.0
506,126.25,58.6149,63.5997,136.27,104.281,102.628,0.00442792,0.117351,20.9339,-313.24,0.141417,0.0,0.0
508,126.75,58.6496,63.3655,136.127,104.303,102.9,0.00444193,0.117322,20.9344,-313.24,0.119891,0.0,0.0
510,127.25,58.7965,63.6409,134.306,104.293,102.515,0.00445328,0.117298,20.9348,-313.23,0.152226,0.0,0.0
512,127.75,58.3224,63.319,137.278,104.289,102.717,0.00441936,0.117194,20.9351,-313.25,0.134504,0.0,0.0
514,128.25,58.6001,63.0338,136.083,104.281,102.868,0.00439189,0.117111,20.9354,-313.28,0.120781,0.0,0.0
516,128.75,58.1249,63.0237,135.405,104.285,102.816,0.0043489,0.117015,20.9356,-313.31,0.125632,0.0,0.0
518,129.25,57.7994,62.4402,136.665,104.272,102.858,0.00429544,0.116938,20.9358,-313.28,0.120895,0.0,0.0
520,129.75,57.5865,63.1608,135.007,104.287,102.56,0.00424113,0.116875,20.9359,-313.28,0.14789,0.0,0.0
522,130.25,57.8829,62.2868,133.759,104.277,102.256,0.00418724,0.116768,20.9361,-313.32,0.173305,0.0,0.0
524,130.75,57.3878,62.489,136.719,104.278,102.555,0.00413971,0.116682,20.9362,-313.33,0.147567,0.0,0.0
526,131.25,57.6586,62.5584,132.607,104.268,102.534,0.00409771,0.116663,20.9362,-313.35,0.148489,0.0,0.0
528,131.75,56.8647,62.6904,135.411,104.267,102.433,0.00405723,0.116694,20.9363,-313.36,0.157108,0.0,0.0
530,132.25,57.2449,62.482,135.363,104.252,102.78,0.00401862,0.116734,20.9363,-313.37,0.125937,0.0,0.0
532,132.75,57.6621,61.767,135.761,104.272,102.628,0.00398734,0.11678,20.9364,-313.39,0.140656,0.0,0.0
534,133.25,57.6764,62.228,135.163,104.27,102.827,0.00395038,0.116744,20.9366,-313.39,0.123448,0.0,0.0
536,133.75,57.3242,61.6501,137.336,104.264,102.778,0.00390996,0.116648,20.9371,-313.41,0.127112,0.0,0.0
538,134.25,56.7096,61.7656,135.624,104.257,102.679,0.00387464,0.11657,20.9374,-313.39,0.135048,0.0,0.0
540,134.75,57.3487,61.8524,136.692,104.251,102.897,0.0038437,0.116354,20.9381,-313.39,0.115815,0.0,0.0
542,135.25,56.8783,61.402,138.389,104.244,102.381,0.00382963,0.116179,20.9387,-313.37,0.159616,0.0,0.0
544,135.75,56.376,61.4872,135.774,104.25,102.58,0.00382812,0.115967,20.9392,-313.38,0.142945,0.0,0.0
546,136.25,56.463,61.1315,134.793,104.234,102.963,0.00383789,0.115796,20.9396,-313.39,0.108616,0.0,0.0
548,136.75,56.7428,61.2858,135.882,104.251,102.566,0.0038557,0.115642,20.9399,-313.37,0.144324,0.0,0.0
550,137.25,56.9895,61.3572,132.099,104.228,102.636,0.0038753,0.115504,20.9401,-313.38,0.136241,0.0,0.0
552,137.75,56.1527,61.1923,137.041,104.238,102.827,0.00389583,0.115386,20.9403,-313.39,0.12069,0.0,0.0
554,138.25,57.0133,61.4,134.351,104.22,102.553,0.00391247,0.115283,20.9405,-313.39,0.142754,0.0,0.0
556,138.75,56.7994,61.0351,132.156,104.233,102.424,0.00390627,0.115192,20.9406,-313.4,0.154963,0.0,0.0
558,139.25,56.4742,60.4959,138.33,104.224,102.657,0.00390126,0.115112,20.9407,-313.46,0.134119,0.0,0.0
560,139.75,56.4171,60.533,133.377,104.219,102.388,0.0038972,0.115047,20.9408,-313.47,0.156989,0.0,0.0
562,140.25,56.1401,60.3476,133.803,104.202,102.465,0.00385952,0.114967,20.9409,-313.47,0.14888,0.0,0.0
564,140.75,56.1407,60.5629,135.147,104.213,102.36,0.003829,0.114902,20.9409,-313.47,0.158878,0.0,0.0
566,141.25,55.9227,59.6424,129.345,104.204,102.447,0.0037871,0.114891,20.941,-313.45,0.150616,0.0,0.0
568,141.75,55.7401,60.1646,134.172,104.203,102.776,0.00375316,0.114882,20.941,-313.48,0.122084,0.0,0.0
570,142.25,55.4706,59.9544,136.682,104.2,103.091,0.00372114,0.114853,20.941,-313.52,0.0947231,0.0,0.0
572,142.75,55.5219,59.9483,134.499,104.207,103.159,0.00369115,0.114809,20.9411,-313.52,0.0895575,0.0,0.0
574,143.25,55.6339,59.8541,136.285,104.202,102.799,0.00366298,0.114774,20.9411,-313.57,0.120101,0.0,0.0
576,143.75,55.5527,59.8143,134.103,104.203,102.679,0.00363667,0.114665,20.9411,-313.47,0.130431,0.0,0.0
578,144.25,55.6318,60.0461,133.051,104.183,102.459,0.00361536,0.114504,20.9411,-313.5,0.147725,0.0,0.0
580,144.75,55.4291,59.9585,135.799,104.189,102.494,0.0035981,0.114388,20.9411,-313.48,0.145243,0.0,0.0
582,145.25,55.7548,59.4232,134.94,104.188,102.952,0.00359762,0.114307,20.9411,-313.53,0.105644,0.0,0.0
584,145.75,55.0774,59.228,132.983,104.189,102.674,0.00359722,0.114279,20.9411,-313.48,0.129671,0.0,0.0
586,146.25,55.2159,59.7428,135.512,104.177,102.899,0.00359691,0.114289,20.9412,-313.53,0.10934,0.0,0.0
588,146.75,55.331,59.1516,136.26,104.189,102.341,0.00362119,0.11423,20.9412,-313.55,0.15844,0.0,0.0
590,147.25,54.7146,59.5323,134.859,104.167,102.552,0.00364087,0.114124,20.9414,-313.56,0.138331,0.0,0.0
592,147.75,54.9147,59.382,131.691,104.176,102.843,0.0036568,0.113994,20.9418,-313.57,0.114073,0.0,0.0
594,148.25,55.1092,59.1583,134.545,104.176,102.385,0.00366971,0.113849,20.9421,-313.56,0.153561,0.0,0.0
596,148.75,55.1611,58.7276,135.83,104.177,102.354,0.00369851,0.113731,20.9421,-313.57,0.156306,0.0,0.0
598,149.25,54.6985,58.5909,132.643,104.178,102.733,0.00372183,0.113566,20.9418,-313.56,0.123672,0.0,0.0
600,149.75,54.3649,58.8363,135.897,104.168,102.226,0.00374073,0.113433,20.9419,-313.57,0.166569,0.0,0.0
602,150.25,54.2916,58.2673,134.473,104.158,102.352,0.00375603,0.113324,20.9422,-313.57,0.154912,0.0,0.0
604,150.75,54.5148,58.7328,134.986,104.153,102.345,0.00376352,0.113237,20.9425,-313.59,0.155035,0.0,0.0
606,151.25,54.6757,58.3814,134.039,104.154,102.546,0.00376958,0.113096,20.9427,-313.62,0.13776,0.0,0.0
608,151.75,54.0766,58.3058,136.32,104.147,102.519,0.00376221,0.112982,20.9429,-313.63,0.139532,0.0,0.0
610,152.25,54.4759,58.0082,134.959,104.137,102.743,0.00375624,0.112933,20.9431,-313.64,0.11935,0.0,0.0
612,152.75,54.0585,58.0464,136.578,104.139,102.445,0.00374035,0.112892,20.9432,-313.66,0.145256,0.0,0.0
614,153.25,54.5066,58.6069,132.84,104.144,102.414,0.00372749,0.112916,20.9433,-313.671,0.148323,0.0,0.0
616,153.75,54.3443,57.8798,137.655,104.142,102.63,0.00371707,0.112935,20.9433,-313.68,0.129535,0.0,0.0
618,154.25,54.2579,57.826,133.846,104.136,102.341,0.00370003,0.112894,20.9434,-313.66,0.153978,0.0,0.0
620,154.75,54.0123,57.9092,133.351,104.133,102.686,0.00368624,0.112861,20.9435,-313.65,0.123879,0.0,0.0
622,155.25,54.5295,57.4889,135.189,104.131,102.423,0.0036812,0.112779,20.9435,-313.68,0.146443,0.0,0.0
624,155.75,53.3669,57.6075,136.282,104.13,101.998,0.00367712,0.112712,20.9435,-313.721,0.183215,0.0,0.0
626,156.25,54.2697,57.7289,134.326,104.136,102.348,0.0036824,0.112622,20.9436,-313.741,0.153339,0.0,0.0
628,156.75,53.7723,57.4987,137.234,104.121,102.31,0.00368669,0.112515,20.9436,-313.731,0.155384,0.0,0.0
630,157.25,53.7369,57.2396,135.577,104.118,102.857,0.00368951,0.112429,20.9436,-313.741,0.107901,0.0,0.0
632,157.75,53.8808,57.9413,135.553,104.112,102.372,0.00369121,0.112262,20.9436,-313.731,0.149229,0.0,0.0
634,158.25,53.4836,57.3074,134.591,104.112,102.321,0.00369259,0.112126,20.9436,-313.731,0.153659,0.0,0.0
636,158.75,53.3616,57.3873,134.877,104.096,102.338,0.00368397,0.111877,20.9436,-313.731,0.150841,0.0,0.0
638,159.25,53.547,57.1709,135.738,104.113,102.699,0.00367699,0.111675,20.9437,-313.721,0.121133,0.0,0.0
640,159.75,53.9823,57.604,135.484,104.089,103.21,0.00365783,0.111432,20.9436,-313.721,0.075105,0.0,0.0
642,160.25,53.956,57.3701,134.248,104.095,102.388,0.00364232,0.111161,20.9434,-313.731,0.146382,0.0,0.0
644,160.75,53.3888,57.3235,134.144,104.093,102.244,0.00362975,0.110921,20.9433,-313.761,0.158696,0.0,0.0
646,161.25,53.2846,57.5463,132.623,104.113,102.376,0.00360363,0.110706,20.9432,-313.771,0.148979,0.0,0.0
648,161.75,53.7928,57.3235,134.312,104.077,102.427,0.00358247,0.110532,20.9432,-313.761,0.141502,0.0,0.0
650,162.25,53.1967,56.915,132.896,104.09,102.433,0.00356287,0.110493,20.9431,-313.721,0.142038,0.0,0.0
652,162.75,52.9921,57.0069,134.421,104.077,102.322,0.003547,0.110553,20.943,-313.701,0.150603,0.0,0.0
654,163.25,52.6045,57.3643,136.475,104.096,102.185,0.00353905,0.110602,20.943,-313.771,0.164023,0.0,0.0
656,163.75,53.4099,56.6144,134.86,104.066,102.574,0.00353261,0.110767,20.943,-313.781,0.127809,0.0,0.0
658,164.25,53.6226,56.619,132.488,104.085,102.449,0.00353108,0.110901,20.9429,-313.791,0.140242,0.0,0.0
660,164.75,52.7387,56.4465,133.58,104.058,102.203,0.00352983,0.111053,20.9429,-313.791,0.159266,0.0,0.0
662,165.25,53.2769,56.8879,134.757,104.075,103.091,0.00352515,0.111216,20.9429,-313.811,0.0841192,0.0,0.0
664,165.75,53.3371,56.4696,136.315,104.052,102.536,0.00352315,0.111347,20.9429,-313.841,0.129875,0.0,0.0
666,166.25,52.9732,56.505,133.589,104.056,102.447,0.00351586,0.111454,20.9429,-313.841,0.138046,0.0,0.0
668,166.75,53.214,56.6202,133.865,104.047,102.215,0.00350647,0.111416,20.9429,-313.851,0.15732,0.0,0.0
670,167.25,53.6571,56.25,135.79,104.059,102.793,0.00349886,0.111384,20.9429,-313.881,0.108411,0.0,0.0
672,167.75,52.9342,56.5181,132.851,104.044,102.828,0.00347064,0.111178,20.9429,-313.901,0.104116,0.0,0.0
674,168.25,52.9025,56.3863,135.29,104.052,102.595,0.00344778,0.11101,20.9429,-313.931,0.124817,0.0,0.0
676,168.75,52.885,55.9637,131.524,104.032,102.179,0.00341314,0.11091,20.9429,-313.911,0.159206,0.0,0.0
678,169.25,52.3177,56.8396,135.885,104.04,102.143,0.00337059,0.110738,20.9429,-313.931,0.162943,0.0,0.0
680,169.75,53.2558,56.5151,133.847,104.041,102.091,0.00331932,0.110599,20.9428,-313.911,0.167532,0.0,0.0
682,170.25,52.5988,56.4146,133.863,104.028,102.374,0.00326269,0.110625,20.9428,-313.921,0.141949,0.0,0.0
684,170.75,52.9108,56.1117,131.161,104.014,102.351,0.00321682,0.110646,20.9429,-313.971,0.142668,0.0,0.0
686,171.25,52.7121,55.8559,134.602,104.041,102.681,0.00317966,0.110751,20.9431,-313.921,0.116542,0.0,0.0
688,171.75,52.8574,56.0791,136.57,104.012,102.201,0.00313,0.110916,20.9432,-313.911,0.155542,0.0,0.0
690,172.25,52.617,55.9997,129.04,104.021,102.194,0.00308977,0.111086,20.9434,-313.891,0.156902,0.0,0.0
692,172.75,52.4463,55.9589,131.783,104.001,101.958,0.0030633,0.111258,20.9435,-313.901,0.175721,0.0,0.0
694,173.25,52.0455,55.7151,135.147,104.02,102.066,0.00304765,0.111396,20.9437,-313.991,0.167908,0.0,0.0
696,173.75,52.3524,55.4674,136.975,104,102.75,0.00304372,0.111509,20.9437,-314.001,0.107125,0.0,0.0
698,174.25,52.354,55.8741,135.33,104.011,102.381,0.00303701,0.111544,20.9438,-313.921,0.139931,0.0,0.0
700,174.75,52.4725,56.1045,134.76,103.998,102.334,0.00303157,0.111573,20.9439,-313.891,0.142835,0.0,0.0
702,175.25,52.3541,55.889,137.594,104.002,102.136,0.00302961,0.111513,20.9439,-313.951,0.160343,0.0,0.0
704,175.75,51.784,55.6856,136.517,103.986,102.225,0.00302802,0.111464,20.9439,-313.961,0.151244,0.0,0.0
706,176.25,52.1915,54.9235,135.396,104.007,102.447,0.0030145,0.111257,20.9442,-314.001,0.133824,0.0,0.0
708,176.75,52.4426,55.4558,134.486,103.981,102.075,0.00300356,0.111169,20.9446,-314.011,0.163877,0.0,0.0
710,177.25,51.8794,55.2546,136.001,103.988,102.316,0.00298246,0.110864,20.945,-314.031,0.143479,0.0,0.0
712,177.75,52.2805,55.4692,134.167,103.973,102.411,0.00296537,0.110479,20.9453,-314.041,0.133988,0.0,0.0
714,178.25,51.6011,55.3512,136.891,103.981,102.24,0.00293687,0.110168,20.9455,-314.071,0.149522,0.0,0.0
716,178.75,52.1207,55.292,136.032,103.976,102.311,0.00291377,0.10979,20.9457,-314.041,0.142936,0.0,0.0
718,179.25,51.7569,55.3961,137.825,103.972,102.167,0.00288482,0.109484,20.9458,-314.051,0.155037,0.0,0.0
720,179.75,51.8556,55.2058,138.767,103.964,102.075,0.00285216,0.10918,20.9464,-314.081,0.162349,0.0,0.0
722,180.25,51.6846,54.9702,135.202,103.973,102.133,0.00281477,0.108935,20.9468,-314.081,0.158072,0.0,0.0
724,180.75,51.3965,54.6591,138.159,103.971,101.922,0.00277465,0.108763,20.9471,-314.021,0.176219,0.0,0.0
726,181.25,52.299,54.5768,134.951,103.975,103.061,0.00274216,0.108625,20.9473,-314.041,0.0781889,0.0,0.0
728,181.75,51.2245,54.9326,136.043,103.954,102.261,,0.108582,,-314.051,0.145396,0.0,0.0
730,182.25,51.8416,54.5431,131.835,103.952,102.393,,0.108547,,-314.061,0.133797,0.0,0.0
732,182.75,51.2555,54.8825,136.311,103.951,102.267,,0.108453,,-314.111,0.144621,0.0,0.0
734,183.25,51.4249,54.7243,136.195,103.955,102.544,,0.108316,,-314.131,0.120977,0.0,0.0
736,183.75,51.7556,54.6342,135.328,103.945,102.904,,0.108206,,-314.131,0.0891239,0.0,0.0
738,184.25,51.7717,54.7402,134.273,103.943,102.17,,0.108036,,-314.111,0.152286,0.0,0.0
740,184.75,51.3259,54.2435,136.128,103.931,101.849,,,,-314.121,0.179212,0.0,0.0
742,185.25,51.3861,54.6177,134.368,103.935,102.363,,,,-314.151,0.134971,0.0,0.0
744,185.75,51.6405,54.3202,136.831,103.926,102.143,,,,-314.161,0.153265,0.0,0.0
746,186.25,51.4117,54.3764,135.307,103.94,102.077,,,,-314.091,0.160187,0.0,0.0
748,186.75,51.2274,54.5728,137.391,103.931,102.418,,,,-314.101,0.129857,0.0,0.0
750,187.25,51.4928,54.1492,135.58,103.926,101.96,,,,-314.081,0.169152,0.0,0.0
752,187.75,51.061,54.395,133.618,103.923,102.179,,,,-314.141,0.149812,0.0,0.0
754,188.25,51.3913,54.2233,133.858,103.917,102.716,,,,-314.151,0.102895,0.0,0.0
756,188.75,51.3107,54.1576,136.144,103.917,102.163,,,,-314.181,0.150701,0.0,0.0
758,189.25,51.4406,54.3595,133.704,103.908,102.162,,,,-314.131,0.150054,0.0,0.0
760,189.75,51.5845,54.1435,137.765,103.905,102.252,,,,-314.131,0.141973,0.0,0.0
762,190.25,51.2596,54.1789,134.736,103.915,102.119,,,,-314.171,0.154358,0.0,0.0
764,190.75,51.537,54.0179,132.309,103.923,102.264,,,,-314.291,0.142459,0.0,0.0
766,191.25,51.2264,53.7107,136.193,103.91,101.907,,,,-314.231,0.172337,0.0,0.0
768,191.75,50.9958,54.237,131.198,103.9,102.336,,,,-314.161,0.134305,0.0,0.0
770,192.25,51.0667,54.178,134.858,103.906,102.3,,,,-314.151,0.137889,0.0,0.0