File: 01_Data/Asphalt_Shingle/Cone/Asphalt_Shingle_Cone_HF50Scan_220415_R2.csv
Names,Time,Stack TC,Smoke TC,Exh Press,Smoke Comp,Smoke Meas,CO Meter,CO2 Meter,O2 Meter,Sample Mass,Ext Coeff,Start Test,Flame Verif
Chan Gain,,500,500,1,1,1,1,1,1,1,1,1.0,1.0
Offset,,0,0,0.134662,0,0,0,0,0,0,0,0.0,0.0
Gain,,1,1,25.011,14.0001,15.1165,1,1,1,1.00131,1.00941,1.0,1.0
Units,sec,C,C,Pa,%,%,%,%,%,g,/m,,
Baseline,,32.7739,33.6618,142.873,105.4,102.84,0.000421789,0.0448984,21.0141,-836.367,0.217706,,
2,0.25,31.5103,32.3978,142.28,105.174,102.566,0.000480508,0.0523412,21.0063,-302.946,0.222322,0.0,0.0
4,0.75,31.5347,32.5078,146.493,105.147,102.457,0.000472507,0.0520425,21.0067,-302.806,0.229467,0.0,0.0
6,1.25,31.3122,32.4488,142.201,105.16,102.73,0.000459674,0.0517299,21.007,-302.846,0.207047,0.0,0.0
8,1.75,31.2767,32.2768,143.439,105.156,102.849,0.000443564,0.0514767,21.0072,-302.916,0.196396,0.0,0.0
10,2.25,31.0608,31.7052,139.74,105.155,102.495,0.000430515,0.0511767,21.0074,-302.846,0.226918,0.0,0.0
12,2.75,31.314,31.9777,147.33,105.146,102.945,0.000419945,0.0509337,21.0076,-302.866,0.18735,0.0,0.0
14,3.25,31.2437,32.2992,142.578,105.152,102.551,0.000408208,0.0506962,21.0077,-302.886,0.221729,0.0,0.0
16,3.75,31.3579,31.7469,145.358,105.139,102.523,0.000395844,0.0505038,21.0082,-302.886,0.223081,0.0,0.0
18,4.25,31.0824,32.2056,146.339,105.143,102.749,0.000385829,0.0502667,21.0086,-302.826,0.203938,0.0,0.0
20,4.75,31.1112,32.0288,143.43,105.136,102.403,0.000386252,0.0500746,21.0088,-302.876,0.23323,0.0,0.0
22,5.25,30.8834,32.2155,145.621,105.137,102.378,0.000386594,0.049919,21.0089,-302.866,0.235459,0.0,0.0
24,5.75,31.3307,32.3051,143.224,105.121,102.462,0.000382426,0.0497117,21.009,-302.876,0.226829,0.0,0.0
26,6.25,31.1285,31.8614,141.57,105.129,102.681,0.000375049,0.0495438,21.0095,-302.886,0.208636,0.0,0.0
28,6.75,31.6687,31.8714,141.546,105.118,102.325,0.000361457,0.0494078,21.01,-302.896,0.238465,0.0,0.0
30,7.25,31.2826,31.9313,143.582,105.145,102.528,0.000343591,0.0491478,21.0103,-302.896,0.223145,0.0,0.0
32,7.75,30.9853,32.0261,142.945,105.119,102.757,0.000323409,0.0489373,21.0106,-302.876,0.201288,0.0,0.0
34,8.25,30.9823,32.1777,140.992,105.126,102.69,0.000301922,0.0487667,21.0108,-302.896,0.207554,0.0,0.0
36,8.75,31.0463,32.1096,140.755,105.112,102.375,0.000284518,0.0484932,21.011,-302.926,0.233687,0.0,0.0
38,9.25,31.1238,32.4646,145.71,105.113,102.627,0.000268009,0.0482716,21.0111,-302.936,0.211962,0.0,0.0
40,9.75,31.1847,31.9371,144.189,105.107,102.493,0.000258444,0.0480785,21.0112,-302.946,0.223048,0.0,0.0
42,10.25,31.1435,32.2351,142.922,105.115,102.547,0.000254122,0.0479222,21.0116,-302.926,0.218993,0.0,0.0
44,10.75,31.1521,32.1642,142.81,105.104,102.565,0.000250622,0.0477143,21.012,-302.926,0.21658,0.0,0.0
46,11.25,31.1267,32.0111,142.968,105.105,102.195,0.000252229,0.0475459,21.0124,-302.926,0.248651,0.0,0.0
48,11.75,31.2769,32.0981,142.463,105.097,102.554,0.000257528,0.0473283,21.0127,-302.916,0.216884,0.0,0.0
50,12.25,31.21,32.3031,138.342,105.111,102.671,0.00026436,0.047152,21.013,-302.916,0.207925,0.0,0.0
52,12.75,31.611,32.2746,145.397,105.103,102.315,0.000272179,0.0469957,21.0132,-302.906,0.238048,0.0,0.0
54,13.25,31.3381,31.8817,143.553,105.094,102.217,0.000278513,0.0468691,21.0133,-302.906,0.245756,0.0,0.0
56,13.75,31.4004,32.2112,140.064,105.105,102.255,0.00028476,0.046738,21.0135,-302.906,0.243419,0.0,0.0
58,14.25,31.1774,32.1774,140.989,105.098,102.577,0.000289819,0.0466062,21.0136,-302.926,0.215001,0.0,0.0
60,14.75,31.1929,32.0924,142.35,105.081,102.393,0.000298742,0.0464994,21.014,-302.926,0.229504,0.0,0.0
62,15.25,31.2491,31.8497,148.574,105.076,102.144,0.00030597,0.0463318,21.0146,-302.926,0.250565,0.0,0.0
64,15.75,31.4906,31.9741,137.463,105.084,101.694,0.000320715,0.0461959,21.0151,-302.926,0.29036,0.0,0.0
66,16.25,31.1806,31.2437,144.281,105.072,101.6,0.00034066,0.0460318,21.0155,-302.936,0.297555,0.0,0.0
68,16.75,31.117,32.1997,147.366,105.076,101.883,0.000367617,0.0458988,21.0158,-302.936,0.273263,0.0,0.0
70,17.25,31.1055,31.7904,144.485,105.065,101.798,0.000399174,0.0457107,21.0161,-302.956,0.279704,0.0,0.0
72,17.75,31.4282,31.9928,144.108,105.072,101.228,0.000424734,0.0455582,21.0163,-302.966,0.330018,0.0,0.0
74,18.25,31.6583,32.4074,139.736,105.061,101.239,0.000454974,0.0454063,21.0165,-302.976,0.328074,0.0,0.0
76,18.75,31.2472,32.2652,141.646,105.065,101.123,0.00048805,0.0452576,21.0166,-302.986,0.338567,0.0,0.0
78,19.25,31.2333,32.3518,147.829,105.054,101.135,0.000512934,0.0451371,21.0167,-302.976,0.336617,0.0,0.0
80,19.75,31.3155,31.7825,143.077,105.05,100.957,0.000531374,0.045026,21.0168,-302.966,0.35186,0.0,0.0
82,20.25,31.1474,32.5452,142.335,105.049,101.004,0.00054631,0.0449361,21.0169,-302.976,0.347667,0.0,0.0
84,20.75,31.0943,32.0975,141.528,105.046,101.024,0.000548745,0.0449486,21.0165,-302.986,0.345675,0.0,0.0
86,21.25,31.4511,32.4869,140.848,105.045,101.283,0.000555804,0.0450357,21.0162,-303.017,0.322945,0.0,0.0
88,21.75,31.4133,32.2316,140.811,105.052,100.26,0.000566098,0.0451063,21.0155,-302.986,0.413392,0.0,0.0
90,22.25,31.3323,31.8954,140.544,105.05,100.43,0.000597339,0.0455018,21.015,-302.997,0.398232,0.0,0.0
92,22.75,31.0672,31.9397,145.423,105.04,99.9729,0.000643257,0.0458222,21.0136,-302.966,0.437798,0.0,0.0
94,23.25,31.2267,32.5089,141.78,105.04,100.342,0.00068045,0.0466915,21.0117,-302.976,0.405135,0.0,0.0
96,23.75,31.7274,32.2783,138.456,105.035,100.674,0.000774737,0.0473956,21.0101,-302.986,0.375478,0.0,0.0
98,24.25,31.3636,31.6625,143.64,105.047,99.7723,0.000851109,0.0493778,21.0066,-303.007,0.456201,0.0,0.0
100,24.75,31.4588,32.4857,137.394,105.034,100.387,0.000912971,0.0509835,21.0038,-303.017,0.400683,0.0,0.0
102,25.25,31.6431,32.3742,139.303,105.036,101.654,0.0010001,0.0546283,21.0015,-303.017,0.289827,0.0,0.0
104,25.75,31.2893,31.7864,139.623,105.047,102.049,0.001104,0.0575806,20.9997,-303.057,0.256393,0.0,1.0
106,26.25,30.9819,31.8741,142.096,105.037,102.293,0.00118815,0.0629333,20.9943,-303.067,0.234416,0.0,1.0
108,26.75,31.7184,32.2318,140.875,105.039,102.396,0.00125632,0.0672689,20.9899,-303.057,0.225619,0.0,1.0
110,27.25,31.2541,32.2256,142.16,105.033,102.043,0.00135405,0.0707808,20.9847,-303.077,0.255721,0.0,1.0
112,27.75,31.9807,32.4175,137.001,105.036,102.496,0.00143321,0.0781488,20.9789,-303.147,0.216715,0.0,1.0
114,28.25,31.9807,32.3334,137.332,105.035,102.006,0.00160446,0.084117,20.9658,-303.177,0.259105,0.0,1.0
116,28.75,31.7179,32.8569,139.596,105.041,101.397,0.00165053,0.0889512,20.9612,-303.137,0.312553,0.0,1.0
118,29.25,32.6512,32.1981,138.797,105.024,100.095,0.00184147,0.0970191,20.9476,-303.167,0.425649,0.0,1.0
120,29.75,31.4639,32.3796,135.153,105.039,98.8851,0.00199613,0.107291,20.9314,-303.137,0.534562,0.0,1.0
122,30.25,31.4644,33.3356,134.865,105.012,97.5404,0.00229642,0.115611,20.9091,-303.187,0.653496,0.0,1.0
124,30.75,32.2145,33.0307,133.466,105.026,94.3379,0.00253965,0.129976,20.8827,-303.157,0.950276,0.0,1.0
126,31.25,32.1825,32.55,135.154,105.013,92.6015,0.00297295,0.150504,20.8544,-303.237,1.11369,0.0,1.0
128,31.75,32.0814,32.8298,134.172,105.018,90.6631,0.00332393,0.158508,20.8253,-303.287,1.30148,0.0,1.0
130,32.25,32.1683,33.209,135.219,105.015,85.9811,0.0038179,0.172194,20.8017,-303.267,1.77064,0.0,1.0
132,32.75,31.9884,33.3186,126.916,105.018,84.4625,0.00440671,0.190623,20.7698,-303.307,1.92876,0.0,0.0
134,33.25,32.7004,33.3016,134.542,105.009,83.7091,0.00505643,0.205551,20.7441,-303.367,2.0073,0.0,0.0
136,33.75,32.7055,33.1598,130.882,105.022,80.67,0.00573819,0.224223,20.717,-303.377,2.33587,0.0,0.0
138,34.25,32.858,33.6509,128.509,105,78.5733,0.00629042,0.239347,20.6894,-303.397,2.56717,0.0,0.0
140,34.75,33.4136,34.2255,131.647,105.012,78.1488,0.00672484,0.255473,20.6777,-303.447,2.61618,0.0,0.0
142,35.25,33.9672,33.8968,124.904,104.999,75.2518,0.0074677,0.272025,20.6462,-303.537,2.94955,0.0,0.0
144,35.75,34.235,34.6857,125.068,105.017,72.9516,0.00824131,0.285431,20.6207,-303.537,3.22593,0.0,0.0
146,36.25,34.0492,34.7769,129.673,104.996,73.8858,0.00902262,0.302702,20.5868,-303.557,3.1115,0.0,0.0
148,36.75,34.3973,35.4089,126.278,105.01,70.0951,0.00997056,0.316691,20.5593,-303.607,3.57903,0.0,0.0
150,37.25,34.6178,35.6382,122.179,104.996,70.222,0.0107384,0.332738,20.5282,-303.657,3.56183,0.0,0.0
152,37.75,35.2243,35.6461,124.27,105.004,72.1411,0.0115796,0.339578,20.5031,-303.707,3.32374,0.0,0.0
154,38.25,35.2217,36.4762,119.495,104.98,68.8606,0.0124583,0.355224,20.4692,-303.737,3.73376,0.0,0.0
156,38.75,36.0109,36.5489,128.203,105.014,66.4392,0.01317,0.37145,20.4417,-303.788,4.05362,0.0,0.0
158,39.25,36.0121,37.3673,118.725,104.982,64.9616,0.0140132,0.387483,20.4194,-303.868,4.25006,0.0,0.0
160,39.75,36.9229,37.144,121.379,105.003,64.8809,0.0149361,0.40307,20.3909,-303.868,4.26287,0.0,0.0
162,40.25,36.9151,38.0274,122.708,104.976,66.7773,0.0158644,0.418465,20.3678,-303.938,4.00546,0.0,0.0
164,40.75,36.952,38.1464,117.283,104.998,60.0033,0.016779,0.433427,20.3385,-303.998,4.95448,0.0,0.0
166,41.25,38.115,39.159,119.873,104.975,59.6721,0.0175199,0.445546,20.3148,-304.038,5.00155,0.0,0.0
168,41.75,38.8424,39.151,120.894,104.989,60.3728,0.0184461,0.458674,20.286,-304.088,4.89929,0.0,0.0
170,42.25,39.2042,39.5664,122.337,104.996,61.4569,0.0191964,0.472287,20.2627,-304.178,4.74231,0.0,0.0
172,42.75,39.4508,40.1124,120.411,104.998,56.3077,0.0200814,0.486828,20.2297,-304.188,5.51731,0.0,0.0
174,43.25,39.6523,40.6532,119.999,104.981,58.9815,0.0209423,0.501768,20.2031,-304.248,5.10509,0.0,0.0
176,43.75,40.5861,41.1786,114.569,104.989,55.7739,0.0217693,0.513869,20.1688,-304.308,5.60085,0.0,0.0
178,44.25,40.8667,41.1659,121.841,104.979,59.2537,0.0225727,0.530236,20.141,-304.378,5.06414,0.0,0.0
180,44.75,41.3204,42.8447,118.869,104.991,57.3526,0.0233435,0.543493,20.1118,-304.418,5.35397,0.0,0.0
182,45.25,41.6503,43.0954,114.075,104.972,59.471,0.0239679,0.561434,20.0822,-304.478,5.03115,0.0,0.0
184,45.75,42.5188,43.4832,118.547,104.987,56.4927,0.0244737,0.575966,20.0581,-304.569,5.48737,0.0,0.0
186,46.25,42.9588,43.5976,111.49,104.982,53.627,0.0251976,0.595014,20.0322,-304.619,5.94789,0.0,0.0
188,46.75,43.6459,44.7192,111.614,104.991,55.7274,0.025784,0.610444,20.0054,-304.699,5.60843,0.0,0.0
190,47.25,43.688,44.5267,111.498,104.977,53.3299,0.0264287,0.629205,19.9837,-304.749,5.99669,0.0,0.0
192,47.75,44.9389,45.504,119.434,104.976,55.0234,0.026951,0.644402,19.9561,-304.829,5.71974,0.0,0.0
194,48.25,45.5286,46.667,112.411,104.976,52.0267,0.0274988,0.65923,19.9337,-304.939,6.21564,0.0,0.0
196,48.75,46.1623,47.2099,109.667,104.978,54.7314,0.0280548,0.673508,19.9155,-304.999,5.76707,0.0,0.0
198,49.25,46.9395,48.1819,114.88,104.973,52.7657,0.0285052,0.685073,19.8934,-305.059,6.09046,0.0,0.0
200,49.75,47.4668,48.7103,114.257,104.979,54.2557,0.0290235,0.698246,19.8754,-305.119,5.84439,0.0,0.0
202,50.25,47.4708,49.4195,112.773,104.971,51.9367,0.0295814,0.708916,19.8557,-305.149,6.23053,0.0,0.0
204,50.75,48.4959,50.1728,114.936,104.972,49.3934,0.0301138,0.720382,19.8397,-305.249,6.67521,0.0,0.0
206,51.25,49.121,50.9866,111.709,104.971,49.2693,0.0306174,0.73221,19.817,-305.29,6.69741,0.0,0.0
208,51.75,50.2133,51.5224,112.897,104.969,49.8571,0.031109,0.741792,19.7987,-305.36,6.59223,0.0,0.0
210,52.25,50.7029,53.0285,111.638,104.967,49.3367,0.0315825,0.749552,19.7734,-305.47,6.68495,0.0,0.0
212,52.75,51.6685,53.3615,106.838,104.968,50.1592,0.031966,0.763537,19.7528,-305.51,6.53866,0.0,0.0
214,53.25,52.0957,54.4416,105.169,104.968,51.3767,0.0324129,0.774865,19.7362,-305.63,6.32631,0.0,0.0
216,53.75,53.1589,54.8195,110.561,104.96,49.613,0.0328974,0.78725,19.7157,-305.65,6.63492,0.0,0.0
218,54.25,53.1963,55.4254,111.721,104.963,50.7133,0.0333758,0.797281,19.6991,-305.73,6.44096,0.0,0.0
220,54.75,54.2586,56.1845,103.852,104.959,48.8786,0.0338407,0.809538,19.6778,-305.83,6.76686,0.0,0.0
222,55.25,55.036,56.9688,109.847,104.967,45.3864,0.0342173,0.819467,19.6605,-305.9,7.4239,0.0,0.0
224,55.75,55.8423,57.8244,105.402,104.959,43.8249,0.0346964,0.830365,19.6419,-305.96,7.73319,0.0,0.0
226,56.25,56.4554,58.7312,108.273,104.961,49.9461,0.0350844,0.841764,19.6227,-306.04,6.57575,0.0,0.0
228,56.75,57.3147,59.4985,103.121,104.961,45.8298,0.0355303,0.850997,19.6021,-306.091,7.33729,0.0,0.0
230,57.25,57.8622,60.5101,108.905,104.97,48.85,0.0358915,0.863366,19.5809,-306.261,6.77298,0.0,0.0
232,57.75,58.1909,60.5737,108.046,104.956,46.9669,0.0363032,0.873385,19.5638,-306.281,7.11984,0.0,0.0
234,58.25,58.6122,61.597,107.436,104.975,45.0077,0.0366367,0.884551,19.5451,-306.391,7.49879,0.0,0.0
236,58.75,59.0619,62.2063,110.582,104.957,45.3454,0.0369886,0.893595,19.53,-306.451,7.43109,0.0,0.0
238,59.25,60.5519,63.0899,108.911,104.954,44.9643,0.0373473,0.902628,19.5111,-306.541,7.50556,0.0,0.0
240,59.75,60.9118,64.3966,104.805,104.956,44.4043,0.0375002,0.911483,19.5031,-306.631,7.61668,0.0,0.0
242,60.25,62.2224,64.897,102.494,104.964,42.1097,0.0378362,0.919592,19.4894,-306.701,8.08717,0.0,0.0
244,60.75,62.6494,65.8154,106.173,104.957,44.0495,0.0383199,0.926161,19.4735,-306.771,7.68781,0.0,0.0
246,61.25,63.6737,66.9855,103.524,104.968,43.8636,0.0384798,0.931161,19.4692,-306.902,7.72613,0.0,0.0
248,61.75,63.9545,67.2588,107.056,104.959,41.9957,0.0387531,0.934922,19.4619,-306.952,8.11073,0.0,0.0
250,62.25,65.092,69.1935,102.859,104.97,42.5599,0.0389638,0.937969,19.456,-307.002,7.9935,0.0,0.0
252,62.75,65.9932,69.0981,109.895,104.963,42.249,0.0391249,0.938639,19.4517,-307.122,8.05785,0.0,0.0
254,63.25,66.5416,69.8588,101.974,104.972,42.0986,0.0391976,0.939787,19.4481,-307.192,8.09014,0.0,0.0
256,63.75,67.2221,70.2016,109.726,104.97,43.6962,0.0392044,0.940314,19.4479,-307.252,7.76021,0.0,0.0
258,64.25,67.8396,71.4671,102.562,104.984,39.3897,0.0392099,0.939953,19.4477,-307.352,8.68006,0.0,0.0
260,64.75,68.3939,72.3218,110.646,104.977,42.6019,0.0390054,0.939336,19.451,-307.372,7.98538,0.0,0.0
262,65.25,68.9021,72.9045,109.306,104.979,40.9204,0.0388399,0.935917,19.4568,-307.573,8.3421,0.0,0.0
264,65.75,69.3195,73.5652,104.914,104.977,47.0057,0.0384535,0.933147,19.4662,-307.603,7.11434,0.0,0.0
266,66.25,70.1822,74.3573,105.621,104.988,43.3119,0.0381405,0.925909,19.4778,-307.663,7.8399,0.0,0.0
268,66.75,70.8239,74.8669,109.718,104.998,44.2765,0.037887,0.920046,19.4873,-307.743,7.64573,0.0,0.0
270,67.25,71.178,75.7092,106.439,104.99,43.1569,0.0371814,0.909028,19.5012,-307.813,7.87186,0.0,0.0
272,67.75,72.4353,76.6159,105.59,104.983,41.9888,0.0366099,0.900103,19.5181,-307.883,8.11424,0.0,0.0
274,68.25,72.3047,76.8124,102.629,105.003,42.9142,0.0357894,0.884265,19.5317,-307.963,7.92283,0.0,0.0
276,68.75,72.9523,77.9689,117.81,104.989,43.1698,0.0351249,0.871437,19.5573,-307.963,7.86914,0.0,0.0
278,69.25,72.9719,77.421,110.438,105.007,46.8225,0.0343283,0.861046,19.5895,-308.053,7.15146,0.0,0.0
280,69.75,73.8501,78.4957,113.456,104.992,44.0675,0.0334507,0.838984,19.6259,-308.103,7.68711,0.0,0.0
282,70.25,74.5429,79.1755,116.794,105.014,46.5697,0.0324766,0.821115,19.6555,-308.133,7.19994,0.0,0.0
284,70.75,74.2111,79.3159,118.99,104.996,45.6941,0.0314505,0.794232,19.704,-308.243,7.36653,0.0,0.0
286,71.25,75.1664,79.8432,114.832,105.007,50.9928,0.0303286,0.772457,19.7432,-308.263,6.39595,0.0,0.0
288,71.75,75.3911,80.2367,114.977,105.013,52.7283,0.0291579,0.74791,19.775,-308.323,6.10016,0.0,0.0
290,72.25,75.8349,80.5413,119.381,105.024,50.3973,0.0282097,0.721808,19.8249,-308.384,6.50146,0.0,0.0
292,72.75,75.3119,80.979,118.365,105.026,55.7195,0.0274417,0.695101,19.8653,-308.424,5.61267,0.0,0.0
294,73.25,75.224,80.7032,118.364,105.032,57.5657,0.0260051,0.668459,19.9068,-308.444,5.32455,0.0,0.0
296,73.75,75.4965,81.3061,122.573,105.024,59.7478,0.0248415,0.641292,19.9482,-308.514,4.99447,0.0,0.0
298,74.25,75.6222,81.2191,122.277,105.041,59.9498,0.0238989,0.61426,19.9818,-308.524,4.96602,0.0,0.0
300,74.75,76.1374,81.5893,124.379,105.031,59.7782,0.0224395,0.592363,20.0196,-308.564,4.9905,0.0,0.0
302,75.25,75.66,81.5591,120.752,105.071,64.0532,0.0212574,0.574627,20.0598,-308.614,4.38224,0.0,0.0
304,75.75,75.7502,81.5539,124.237,105.049,66.6846,0.0198007,0.544883,20.1038,-308.684,4.02392,0.0,0.0
306,76.25,75.7193,81.3441,127.515,105.059,70.4093,0.0186208,0.520791,20.1499,-308.704,3.54354,0.0,0.0
308,76.75,75.7791,81.1633,130.35,105.054,73.6325,0.0174438,0.495652,20.1872,-308.694,3.1468,0.0,0.0
310,77.25,75.7812,81.5733,127.39,105.067,73.7114,0.0162914,0.470229,20.2398,-308.754,3.1384,0.0,0.0
312,77.75,75.0882,81.3787,132.455,105.064,79.4779,0.0151901,0.449636,20.2824,-308.814,2.47118,0.0,0.0
314,78.25,75.3473,81.3489,129.281,105.08,80.4864,0.0141471,0.424307,20.336,-308.814,2.36087,0.0,0.0
316,78.75,75.2256,81.0526,130.858,105.08,80.8443,0.0133023,0.40379,20.3794,-308.794,2.32161,0.0,0.0
318,79.25,75.0637,81.0432,128.464,105.095,83.1219,0.0122993,0.379474,20.4218,-308.794,2.07687,0.0,0.0
320,79.75,74.9245,80.6531,132.889,105.095,86.9038,0.0114869,0.359778,20.4625,-308.814,1.68294,0.0,0.0
322,80.25,74.6119,80.5911,135.516,105.097,88.3855,0.0106062,0.34059,20.5014,-308.844,1.53335,0.0,0.0
324,80.75,74.0738,80.4416,137.172,105.097,89.0738,0.00989282,0.322136,20.5384,-308.864,1.4647,0.0,0.0
326,81.25,73.5833,79.9788,133.406,105.109,91.5502,0.009315,0.304698,20.5684,-308.864,1.22293,0.0,0.0
328,81.75,73.8856,79.3571,133.201,105.092,92.268,0.00864918,0.288333,20.5972,-308.884,1.15234,0.0,0.0
330,82.25,73.0803,79.3245,136.472,105.122,94.5958,0.00810986,0.275076,20.6248,-308.914,0.934206,0.0,0.0
332,82.75,73.3043,79.2626,135.475,105.121,95.1605,0.00759865,0.258777,20.6514,-308.924,0.881475,0.0,0.0
334,83.25,72.6366,78.6446,135.315,105.131,96.4867,0.00718457,0.245575,20.677,-308.894,0.759709,0.0,0.0
336,83.75,72.3998,78.1482,136.299,105.118,97.2945,0.00683059,0.232578,20.7016,-308.924,0.684846,0.0,0.0
338,84.25,71.8162,77.764,138.258,105.13,98.0645,0.00654387,0.219978,20.7251,-308.944,0.61606,0.0,0.0
340,84.75,71.7044,78.1758,136.313,105.128,99.1292,0.0063302,0.209772,20.7478,-308.994,0.52026,0.0,0.0
342,85.25,71.2121,77.4297,139.883,105.154,100.233,0.00615712,0.197484,20.7695,-308.974,0.424358,0.0,0.0
344,85.75,70.7255,76.5765,139.014,105.146,100.158,0.00605781,0.187531,20.7896,-308.994,0.430356,0.0,0.0
346,86.25,70.4327,76.8528,138.799,105.159,100.566,0.00597737,0.178197,20.8082,-308.994,0.395415,0.0,0.0
348,86.75,70.0726,76.4884,139.587,105.155,100.542,0.00596804,0.169493,20.8232,-308.994,0.397244,0.0,0.0
350,87.25,69.6206,76.0892,136.865,105.165,101.246,0.00596048,0.161335,20.8389,-309.004,0.336214,0.0,0.0
352,87.75,69.7186,75.9189,141.302,105.167,101.461,0.00595436,0.153729,20.8516,-309.024,0.31769,0.0,0.0
354,88.25,69.1348,75.1564,142.057,105.188,101.805,0.00600236,0.146709,20.8619,-309.014,0.289434,0.0,0.0
356,88.75,68.7453,74.7861,140.402,105.179,101.848,0.0060889,0.140248,20.8729,-309.024,0.284948,0.0,0.0
358,89.25,68.5724,74.2188,140.451,105.187,101.932,0.00618981,0.134356,20.8818,-309.024,0.278334,0.0,0.0
360,89.75,68.2526,74.0708,141.618,105.189,102.699,0.00629928,0.128991,20.8909,-309.024,0.212118,0.0,0.0
362,90.25,68.1552,74.1934,140.468,105.198,102.352,0.00641881,0.124645,20.8983,-309.004,0.242874,0.0,0.0
364,90.75,67.1783,73.3871,141.151,105.196,102.584,0.00654341,0.119891,20.906,-308.984,0.222567,0.0,0.0
366,91.25,67.5108,73.3323,137.298,105.202,102.901,0.00667854,0.116041,20.9123,-309.014,0.195833,0.0,0.0
368,91.75,67.3604,72.5397,140.212,105.203,102.504,0.00681877,0.1125,20.9191,-309.034,0.230113,0.0,0.0
370,92.25,66.8032,72.6706,139.754,105.218,102.482,0.00693235,0.109251,20.9246,-309.054,0.233357,0.0,0.0
372,92.75,66.2906,71.7669,141.866,105.223,102.653,0.0070882,0.10662,20.93,-309.024,0.218977,0.0,0.0
374,93.25,65.2514,71.4223,138.35,105.218,102.661,0.0072428,0.10395,20.9343,-309.044,0.217865,0.0,0.0
376,93.75,65.7075,71.2665,140.498,105.227,102.739,0.00739357,0.101788,20.9387,-309.044,0.211899,0.0,0.0
378,94.25,65.0688,70.4171,141.795,105.224,102.514,0.00751568,0.0997053,20.9423,-309.054,0.231031,0.0,0.0
380,94.75,64.621,70.2601,137.957,105.234,102.542,0.00764896,0.0980183,20.9452,-309.064,0.229427,0.0,0.0
382,95.25,64.2294,69.8074,141.725,105.235,102.269,0.00778784,0.0964589,20.9475,-309.064,0.253189,0.0,0.0
384,95.75,63.2095,68.7706,139.386,105.242,102.384,0.00790034,0.0951958,20.9494,-309.084,0.243824,0.0,0.0
386,96.25,63.0141,69.0669,137.504,105.255,102.664,0.00802389,0.0941451,20.9509,-309.044,0.220718,0.0,0.0
388,96.75,63.0168,68.8158,141.751,105.252,102.636,0.00815316,0.093294,20.9515,-309.054,0.222858,0.0,0.0
390,97.25,61.9158,68.0288,142.79,105.248,102.503,0.00825787,0.0926481,20.9514,-309.044,0.23404,0.0,0.0
392,97.75,62.3002,67.5412,139.516,105.265,102.736,0.00835533,0.0921642,20.9513,-309.074,0.215336,0.0,0.0
394,98.25,61.8878,67.6443,143.212,105.262,102.88,0.00843428,0.0917722,20.9512,-309.064,0.202617,0.0,0.0
396,98.75,61.5002,67.2866,139.324,105.274,102.675,0.00849067,0.0914764,20.9512,-309.064,0.221305,0.0,0.0
398,99.25,60.821,66.8228,140.88,105.267,102.984,0.00853635,0.0912564,20.951,-309.105,0.19423,0.0,0.0
400,99.75,61.2159,66.9764,138.808,105.273,102.677,0.00856275,0.0910782,20.9508,-309.054,0.221149,0.0,0.0
402,100.25,60.5636,66.3809,141.115,105.273,102.842,0.0085746,0.0909477,20.9511,-309.064,0.206883,0.0,0.0
404,100.75,59.9204,66.3229,141.352,105.285,102.661,0.00857691,0.0908419,20.9513,-309.105,0.223509,0.0,0.0
406,101.25,60.1772,65.7398,137.43,105.276,102.642,0.00857223,0.0908657,20.9515,-309.084,0.224314,0.0,0.0
408,101.75,59.8622,65.6352,140.662,105.304,102.839,0.00856844,0.090885,20.9517,-309.084,0.209709,0.0,0.0
410,102.25,59.4121,65.5998,136.646,105.288,102.893,0.00854903,0.0909514,20.9518,-309.105,0.203734,0.0,0.0
412,102.75,59.3645,65.1018,135.75,105.297,102.668,0.0085333,0.0910509,20.9519,-309.084,0.223806,0.0,0.0
414,103.25,58.8875,64.6124,142.193,105.3,102.579,0.00851679,0.0911605,20.9518,-309.125,0.23178,0.0,0.0
416,103.75,58.5946,64.2789,139.214,105.299,102.784,0.00850342,0.0912754,20.9515,-309.135,0.214041,0.0,0.0
418,104.25,58.7268,64.198,141.576,105.289,102.882,0.00848881,0.0913685,20.9512,-309.145,0.204758,0.0,0.0
420,104.75,58.5644,64.0668,138.174,105.313,102.792,0.00847698,0.0916233,20.951,-309.165,0.214516,0.0,0.0
422,105.25,57.574,64.0432,138.653,105.298,102.969,0.00845861,0.0918297,20.9508,-309.135,0.198048,0.0,0.0
424,105.75,57.7715,63.0183,138.197,105.316,102.88,0.00844372,0.0921763,20.9507,-309.125,0.207221,0.0,0.0
426,106.25,57.6911,62.9705,139.761,105.312,103.2,0.00841407,0.092457,20.9506,-309.115,0.179349,0.0,0.0
428,106.75,56.7661,62.7936,138.834,105.323,103.073,0.00839006,0.0926917,20.9505,-309.135,0.191174,0.0,0.0
430,107.25,57.1057,62.6286,139.205,105.343,102.869,0.00834424,0.0928883,20.9504,-309.145,0.210436,0.0,0.0
432,107.75,56.5738,62.4138,140.333,105.334,102.685,0.00830713,0.0930476,20.9503,-309.135,0.225539,0.0,0.0
434,108.25,56.2969,62.0508,140.187,105.321,102.936,0.00827706,0.0931766,20.9503,-309.155,0.202804,0.0,0.0
436,108.75,56.2459,61.581,139.806,105.337,102.534,0.00819245,0.093364,20.9502,-309.185,0.238808,0.0,0.0
438,109.25,55.5814,60.816,140.422,105.318,102.837,0.00812391,0.0935157,20.9502,-309.155,0.211129,0.0,0.0
440,109.75,55.3743,60.9605,141.696,105.345,102.919,0.00802956,0.0936459,20.9502,-309.225,0.206248,0.0,0.0
442,110.25,55.367,60.6955,141.682,105.329,102.802,0.00795314,0.0937579,20.9503,-309.225,0.215006,0.0,0.0
444,110.75,55.4821,60.8602,139.654,105.345,103.015,0.00787543,0.0938413,20.9504,-309.245,0.198033,0.0,0.0
446,111.25,55.3372,60.2159,139.778,105.344,102.791,0.00779826,0.0939024,20.9505,-309.235,0.217181,0.0,0.0
448,111.75,55.1573,60.5377,136.2,105.362,103.059,0.0077318,0.0939518,20.9506,-309.215,0.195667,0.0,0.0
450,112.25,54.5395,59.8935,140.217,105.352,102.965,0.00767441,0.0940069,20.9507,-309.205,0.202934,0.0,0.0
452,112.75,54.566,60.0346,140.002,105.372,102.703,0.00762793,0.094065,20.9507,-309.215,0.22718,0.0,0.0
454,113.25,54.3491,59.7609,144.078,105.343,102.629,0.00759028,0.0941121,20.9508,-309.245,0.231144,0.0,0.0
456,113.75,53.9351,58.7419,141.623,105.37,102.539,0.00756241,0.0943022,20.9508,-309.255,0.241167,0.0,0.0
458,114.25,53.7385,58.9136,141.032,105.359,102.947,0.00754221,0.0944562,20.9508,-309.265,0.205128,0.0,0.0
460,114.75,53.3673,58.942,141.254,105.376,102.909,0.00752585,0.0947052,20.9508,-309.215,0.209818,0.0,0.0
462,115.25,53.4358,59.0765,143.843,105.369,102.859,0.00751259,0.094907,20.9508,-309.225,0.21346,0.0,0.0
464,115.75,53.0794,58.5283,136.065,105.383,102.698,0.00750186,0.0951948,20.9504,-309.255,0.228514,0.0,0.0
466,116.25,52.9009,58.6284,141.299,105.367,102.824,0.00748658,0.0954279,20.9501,-309.245,0.216295,0.0,0.0
468,116.75,52.7997,57.88,141.791,105.388,102.757,0.00746828,0.095755,20.9498,-309.255,0.223896,0.0,0.0
470,117.25,52.5493,57.8084,142.275,105.373,102.748,0.00743833,0.09602,20.9496,-309.255,0.223354,0.0,0.0
472,117.75,53.0982,57.6789,136.179,105.399,102.998,0.00740044,0.0962761,20.9494,-309.305,0.204028,0.0,0.0
474,118.25,52.0825,57.4371,138.092,105.39,103.142,0.00736976,0.0964835,20.9492,-309.275,0.190905,0.0,0.0
476,118.75,52.3286,57.4853,135.901,105.396,102.827,0.0073449,0.0966152,20.9491,-309.275,0.218498,0.0,0.0
478,119.25,52.1666,57.2237,140.959,105.387,102.944,0.0072699,0.0966891,20.9489,-309.265,0.207664,0.0,0.0
480,119.75,52.1764,56.8565,144.182,105.402,102.825,0.00720914,0.0967198,20.9487,-309.265,0.219159,0.0,0.0
482,120.25,51.6035,56.5502,142.981,105.391,102.696,0.0071275,0.0967185,20.9484,-309.235,0.22936,0.0,0.0
484,120.75,51.7167,56.3538,139.664,105.413,102.741,0.00706137,0.0967174,20.9481,-309.295,0.227329,0.0,0.0
486,121.25,51.2234,55.6865,139.7,105.41,102.8,0.00699666,0.0967893,20.9478,-309.285,0.222027,0.0,0.0
488,121.75,50.9066,56.0893,137.637,105.42,102.84,0.0069342,0.0969131,20.9472,-309.275,0.219396,0.0,0.0
490,122.25,50.402,55.3642,140.673,105.408,103.082,0.00688361,0.0970133,20.9467,-309.285,0.197602,0.0,0.0
492,122.75,50.1537,55.3036,137.994,105.421,102.729,0.00684395,0.0972458,20.9462,-309.305,0.229081,0.0,0.0
494,123.25,50.6374,55.2479,137.598,105.406,102.861,0.006813,0.0974341,20.9459,-309.315,0.21646,0.0,0.0
496,123.75,50.404,55.1344,140.881,105.416,102.984,0.00679383,0.097674,20.9456,-309.345,0.206613,0.0,0.0
498,124.25,50.3405,55.3113,139.177,105.414,102.988,0.00678362,0.097947,20.9454,-309.325,0.206152,0.0,0.0
500,124.75,49.8907,55.0839,137.757,105.437,102.956,0.00678657,0.0981681,20.9452,-309.345,0.210791,0.0,0.0
502,125.25,49.6654,54.7501,145.229,105.423,103.063,0.00678896,0.0984026,20.9451,-309.355,0.200519,0.0,0.0
504,125.75,49.8947,54.5735,136.971,105.429,102.7,0.00679339,0.0985925,20.945,-309.335,0.232228,0.0,0.0
506,126.25,49.5794,53.9877,136.637,105.429,103.11,0.00679698,0.0986735,20.9449,-309.345,0.196904,0.0,0.0
508,126.75,49.1415,54.2956,139.996,105.439,102.772,0.00679857,0.0986736,20.9448,-309.335,0.226851,0.0,0.0
510,127.25,49.366,53.7765,147.067,105.436,102.958,0.00679868,0.0986153,20.9447,-309.345,0.210597,0.0,0.0
512,127.75,48.5357,53.7538,140.103,105.441,102.554,0.00678755,0.0985157,20.9447,-309.345,0.245779,0.0,0.0
514,128.25,49.5615,53.8519,138.539,105.435,102.904,0.00677853,0.0984569,20.9446,-309.355,0.215132,0.0,0.0
516,128.75,48.8927,53.8781,139.917,105.441,102.742,0.00677123,0.0984289,20.9446,-309.375,0.229578,0.0,0.0
518,129.25,48.8249,53.3991,139.155,105.455,102.984,0.00675285,0.0984572,20.9446,-309.375,0.209958,0.0,0.0
520,129.75,48.5565,52.8806,143.169,105.455,102.872,0.00673796,0.098526,20.9445,-309.385,0.219522,0.0,0.0
522,130.25,48.5074,53.0795,135.491,105.463,103.069,0.00672193,0.0985818,20.9445,-309.405,0.203264,0.0,0.0
524,130.75,49.1633,52.5948,138.343,105.464,103.113,0.00670538,0.0986269,20.9445,-309.445,0.199609,0.0,0.0
526,131.25,48.0437,52.6467,140.757,105.473,102.935,0.00669197,0.0986635,20.9445,-309.405,0.215741,0.0,0.0
528,131.75,47.5246,52.7002,139.101,105.468,102.967,0.00667114,0.0987208,20.9446,-309.405,0.212533,0.0,0.0
530,132.25,48.3341,52.315,138.745,105.478,103.001,0.00665427,0.0987672,20.9447,-309.425,0.210388,0.0,0.0
532,132.75,48.0902,52.082,142.2,105.487,102.696,0.00664185,0.0988053,20.9448,-309.405,0.237432,0.0,0.0
534,133.25,47.9019,52.2277,141.811,105.482,102.97,0.00662881,0.0988366,20.945,-309.435,0.213439,0.0,0.0
536,133.75,47.4695,52.3236,141.042,105.486,102.943,0.00662613,0.0988692,20.945,-309.425,0.216027,0.0,0.0
538,134.25,47.0848,51.9121,140.554,105.494,102.987,0.00662155,0.0989022,20.9451,-309.435,0.212944,0.0,0.0
540,134.75,47.4582,51.9286,137.914,105.479,102.901,0.00660538,0.0989289,20.9451,-309.425,0.219029,0.0,0.0
542,135.25,46.9461,51.6985,142.262,105.495,102.832,0.00659229,0.0990336,20.9451,-309.445,0.226388,0.0,0.0
544,135.75,46.7064,51.7608,145.992,105.486,103.113,0.00658168,0.0991184,20.9452,-309.465,0.201437,0.0,0.0
546,136.25,47.2089,51.7317,142.161,105.498,103.206,0.00653077,0.0990585,20.9452,-309.475,0.194443,0.0,0.0
548,136.75,46.8733,51.124,137.44,105.486,103.04,0.00648954,0.0990423,20.9452,-309.495,0.207734,0.0,0.0
550,137.25,46.467,51.094,140.017,105.512,103.143,0.0064176,0.0988348,20.9452,-309.475,0.20109,0.0,0.0
552,137.75,46.8885,50.7077,139.505,105.49,103.278,0.00635933,0.0986668,20.9452,-309.455,0.187664,0.0,0.0
554,138.25,46.6695,50.9325,138.337,105.502,102.998,0.00629226,0.0984579,20.9455,-309.485,0.212669,0.0,0.0
556,138.75,46.6418,50.7114,138.863,105.514,102.9,0.00623793,0.0982231,20.9459,-309.485,0.222121,0.0,0.0
558,139.25,46.0563,50.9446,137.227,105.502,103.105,0.00619143,0.098033,20.9462,-309.485,0.203474,0.0,0.0
560,139.75,46.0977,50.5752,138.704,105.511,103.092,0.00615378,0.0977821,20.9465,-309.505,0.2053,0.0,0.0
562,140.25,46.2609,50.2917,142.573,105.523,103.258,0.00612458,0.097579,20.9467,-309.485,0.192163,0.0,0.0
564,140.75,46.1344,49.9394,138.508,105.505,102.835,0.00610211,0.0974072,20.9469,-309.475,0.226931,0.0,0.0
566,141.25,45.8144,50.0711,137.579,105.512,103.102,0.0060839,0.0972614,20.947,-309.485,0.204612,0.0,0.0
568,141.75,45.7092,49.8775,137.975,105.518,103.025,0.00606916,0.0972816,20.9471,-309.505,0.211656,0.0,0.0
570,142.25,45.5178,50.1021,140.293,105.53,103.125,0.00604728,0.097298,20.9475,-309.495,0.20414,0.0,0.0
572,142.75,45.9213,49.579,142.809,105.52,102.83,0.00602956,0.0973841,20.9479,-309.495,0.228622,0.0,0.0
574,143.25,45.2229,49.4489,138.133,105.535,103.2,0.00601521,0.0975194,20.9483,-309.515,0.19808,0.0,0.0
576,143.75,45.2726,49.3683,138.17,105.52,102.964,0.00599489,0.0976289,20.9486,-309.505,0.217186,0.0,0.0
578,144.25,45.441,49.6559,138.613,105.54,103.272,0.00597844,0.0977177,20.9489,-309.515,0.192334,0.0,0.0
580,144.75,45.5513,49.2514,139.629,105.52,102.997,0.00598125,0.0977895,20.9491,-309.515,0.214255,0.0,0.0
582,145.25,45.0907,49.1411,142.053,105.542,102.878,0.00598352,0.0978478,20.9492,-309.525,0.22636,0.0,0.0
584,145.75,45.4483,49.057,141.025,105.529,102.849,0.00601394,0.0978585,20.9494,-309.535,0.227747,0.0,0.0
586,146.25,45.0438,49.0189,137.916,105.537,103.197,0.00603858,0.0978345,20.9495,-309.545,0.198497,0.0,0.0
588,146.75,44.8131,48.3938,139.318,105.531,103.118,0.00607843,0.097815,20.9496,-309.545,0.204806,0.0,0.0
590,147.25,44.9121,48.3712,138.41,105.533,102.859,0.0061107,0.0978283,20.9496,-309.535,0.227196,0.0,0.0
592,147.75,44.7643,48.786,140.355,105.529,103.17,0.00614182,0.0978653,20.9497,-309.555,0.200223,0.0,0.0
594,148.25,43.8428,48.0747,136.698,105.541,103.346,0.00616703,0.0979026,20.9497,-309.565,0.18608,0.0,0.0
596,148.75,44.2986,48.2523,138.707,105.521,103.494,0.00618247,0.0979393,20.9498,-309.575,0.171757,0.0,0.0
598,149.25,44.3846,48.073,137.111,105.536,103.501,0.00619498,0.0979109,20.9498,-309.565,0.172415,0.0,0.0
600,149.75,44.6606,48.1515,141.311,105.532,103.323,0.00620511,0.0978354,20.9498,-309.555,0.187343,0.0,0.0
602,150.25,44.6303,47.9347,139.139,105.547,103.455,0.00620585,0.0977233,20.9498,-309.555,0.177334,0.0,0.0
604,150.75,44.2132,48.1211,138.635,105.537,103.425,0.00620646,0.0975866,20.9499,-309.565,0.178926,0.0,0.0
606,151.25,44.088,47.8452,138.784,105.553,103.018,0.00621677,0.0974468,20.9499,-309.595,0.215231,0.0,0.0
608,151.75,43.7336,47.7806,141.081,105.54,103.473,0.00623395,0.0973074,20.9499,-309.605,0.175186,0.0,0.0
610,152.25,43.3125,47.1892,141.408,105.558,102.911,0.00624787,0.0972017,20.9499,-309.615,0.224828,0.0,0.0
612,152.75,43.2748,47.1637,141.705,105.541,103.001,0.00626288,0.0971226,20.9499,-309.615,0.215734,0.0,0.0
614,153.25,43.4834,47.9397,139.423,105.55,103.172,0.00627503,0.0970586,20.9499,-309.615,0.201782,0.0,0.0
616,153.75,43.6963,46.7838,141.418,105.545,103.55,0.00626622,0.0971159,20.9499,-309.635,0.168949,0.0,0.0
618,154.25,43.3684,47.3543,141.828,105.548,103.206,0.00625909,0.0972606,20.9499,-309.615,0.198677,0.0,0.0
620,154.75,43.2798,46.8957,137.436,105.538,103.209,0.00624349,0.0973851,20.9499,-309.605,0.197615,0.0,0.0
622,155.25,43.6464,47.0377,140.881,105.564,103.311,0.00622203,0.0974925,20.9499,-309.605,0.191055,0.0,0.0
624,155.75,43.2734,46.8997,143.574,105.54,103.324,0.00619745,0.0975795,20.9499,-309.635,0.187906,0.0,0.0
626,156.25,42.6469,46.4649,138.724,105.554,102.845,0.00617107,0.0974978,20.9499,-309.645,0.230259,0.0,0.0
628,156.75,42.8701,46.381,143.712,105.541,103.125,0.0061497,0.0974316,20.9504,-309.665,0.205108,0.0,0.0
630,157.25,42.9122,46.781,142.544,105.555,102.815,0.00611802,0.0973366,20.9507,-309.655,0.232838,0.0,0.0
632,157.75,43.0805,46.1161,139.416,105.544,103.183,0.00607941,0.0972595,20.951,-309.655,0.200259,0.0,0.0
634,158.25,42.647,46.7432,142.803,105.559,103.196,0.00602331,0.0971418,20.9512,-309.635,0.20048,0.0,0.0
636,158.75,42.7475,46.4656,142.835,105.552,103,0.00597788,0.0970465,20.9514,-309.645,0.216745,0.0,0.0
638,159.25,42.6976,45.8409,137.762,105.571,103.367,0.00591876,0.0969766,20.9516,-309.685,0.186846,0.0,0.0
640,159.75,42.8114,46.396,142.202,105.546,102.829,0.00587086,0.0969265,20.9517,-309.695,0.230853,0.0,0.0
642,160.25,42.7018,45.6234,141.101,105.56,102.896,0.0058172,0.0968859,20.9518,-309.695,0.226317,0.0,0.0
644,160.75,41.7709,45.2032,138.17,105.549,103.176,0.00577373,0.0967839,20.9519,-309.695,0.201358,0.0,0.0
646,161.25,42.7022,45.924,140.125,105.558,103.036,0.00573138,0.0967013,20.9519,-309.695,0.21415,0.0,0.0
648,161.75,42.0531,45.8014,139.903,105.565,103.193,0.00569066,0.0964961,20.952,-309.695,0.201215,0.0,0.0
650,162.25,41.969,45.7428,138.242,105.567,103.367,0.00564855,0.09633,20.952,-309.715,0.186524,0.0,0.0
652,162.75,42.6779,45.9962,137.412,105.547,103.25,0.00560622,0.0961125,20.9521,-309.695,0.194843,0.0,0.0
654,163.25,42.3449,45.1421,139.979,105.561,103.151,0.00557194,0.0959363,20.952,-309.715,0.204424,0.0,0.0
656,163.75,41.8323,45.685,138.64,105.556,103.169,0.00554417,0.0957383,20.9519,-309.705,0.202486,0.0,0.0
658,164.25,42.0156,45.6914,145.397,105.544,102.875,0.00548331,0.095578,20.9518,-309.695,0.226782,0.0,0.0
660,164.75,41.8812,45.2149,139.799,105.547,102.802,0.00543401,0.0954404,20.9517,-309.705,0.233341,0.0,0.0
662,165.25,41.762,44.8082,139.045,105.552,103.144,0.00539408,0.0953219,20.9519,-309.695,0.204377,0.0,0.0
664,165.75,41.8605,45.3573,138.008,105.548,103.193,0.0053605,0.095226,20.9522,-309.695,0.199785,0.0,0.0
666,166.25,41.4698,45.0953,141.548,105.541,103.343,0.0053333,0.0950101,20.9525,-309.705,0.186353,0.0,0.0
668,166.75,41.4209,44.9635,137.249,105.55,103.364,0.00532364,0.0948353,20.9528,-309.715,0.185291,0.0,0.0
670,167.25,41.5937,45.1342,142.512,105.549,102.836,0.00532168,0.0946791,20.953,-309.725,0.230584,0.0,0.0
672,167.75,42.0779,45.1857,139.877,105.556,103.169,0.00532536,0.0945396,20.9532,-309.715,0.202486,0.0,0.0
674,168.25,41.8482,44.4418,141.082,105.55,103.183,0.00533291,0.0944265,20.9533,-309.775,0.200796,0.0,0.0
676,168.75,41.8619,44.5281,139.349,105.546,103.296,0.00534313,0.094335,20.9536,-309.755,0.190745,0.0,0.0
678,169.25,42.0627,43.988,140.075,105.549,103.227,0.0053514,0.0942194,20.9541,-309.775,0.196964,0.0,0.0
680,169.75,41.3337,45.0026,142.057,105.55,103.041,0.00535439,0.0941257,20.9545,-309.755,0.212997,0.0,0.0
682,170.25,40.8331,44.3773,138.236,105.538,103.088,0.00535681,0.0939257,20.9548,-309.795,0.207991,0.0,0.0
684,170.75,41.1005,44.2522,140.557,105.552,103.079,0.00534575,0.0937636,20.9551,-309.785,0.209923,0.0,0.0
686,171.25,41.3126,44.4371,143.739,105.53,103.141,0.00532506,0.0935771,20.9553,-309.805,0.202754,0.0,0.0
688,171.75,41.2035,44.2808,142.832,105.55,102.935,0.00530831,0.0934261,20.9555,-309.755,0.222195,0.0,0.0
690,172.25,41.4061,44.0095,138.681,105.544,102.846,0.00529526,0.0932761,20.9555,-309.795,0.229205,0.0,0.0
692,172.75,41.3939,43.984,138.722,105.535,103.105,0.00527296,0.0931547,20.9557,-309.795,0.206238,0.0,0.0
694,173.25,41.1266,44.0007,138.976,105.52,103.182,0.00525861,0.0929597,20.9558,-309.795,0.198369,0.0,0.0
696,173.75,41.0788,44.4503,137.555,105.542,103.028,0.00524698,0.0928018,20.956,-309.805,0.213466,0.0,0.0
698,174.25,40.8519,43.841,139.142,105.528,103.177,0.00523757,0.0926738,20.9562,-309.815,0.199447,0.0,0.0
700,174.75,41.0874,44.1249,139.49,105.527,102.911,0.00524231,0.0924461,20.9564,-309.785,0.222287,0.0,0.0
702,175.25,40.6857,43.883,143.28,105.529,103.062,0.00524615,0.092349,20.9565,-309.815,0.209493,0.0,0.0
704,175.75,40.9334,43.8703,142.581,105.526,103.377,0.00524803,0.0922124,20.9566,-309.805,0.182174,0.0,0.0
706,176.25,40.7996,43.5037,139.731,105.514,103.411,0.00524955,0.0921284,20.9567,-309.805,0.17825,0.0,0.0
708,176.75,40.4507,43.7956,136.669,105.527,103.107,0.00524335,0.0920603,20.9567,-309.815,0.205435,0.0,0.0
710,177.25,40.4936,43.3915,136.42,105.508,103.073,0.00523834,0.0920052,20.9568,-309.845,0.206784,0.0,0.0
712,177.75,40.088,43.5156,141.076,105.519,103.077,0.00523428,0.0919606,20.9568,-309.876,0.207325,0.0,0.0
714,178.25,40.3139,43.6177,140.738,105.505,102.942,0.00522356,0.0918278,20.9569,-309.876,0.217836,0.0,0.0
716,178.75,40.6851,43.2721,140.771,105.517,103.231,0.00521489,0.0917203,20.9569,-309.896,0.193959,0.0,0.0
718,179.25,41.1009,43.3411,137.722,105.51,102.967,0.00521033,0.0915781,20.9572,-309.855,0.216012,0.0,0.0
720,179.75,40.1138,43.3899,140.37,105.515,102.736,0.00520664,0.0914629,20.9576,-309.876,0.236336,0.0,0.0
722,180.25,41.075,43.5989,137.251,105.499,103.008,0.005195,0.0913333,20.9579,-309.845,0.211546,0.0,0.0
724,180.75,40.285,43.078,139.491,105.511,103.031,0.00518556,0.0911956,20.9582,-309.845,0.210682,0.0,0.0
726,181.25,40.4482,43.1145,143.64,105.499,103.15,0.00515938,0.0910841,20.9584,-309.845,0.199416,0.0,0.0
728,181.75,40.375,43.5954,139.699,105.51,103.033,0.00513817,0.0909111,20.9586,-309.845,0.210301,0.0,0.0
730,182.25,40.4329,42.6461,138.392,105.493,102.819,0.00510473,0.090771,20.9587,-309.835,0.227282,0.0,0.0
732,182.75,40.0103,43.3818,141.544,105.506,103.277,0.00506302,0.0906357,20.9593,-309.845,0.189107,0.0,0.0
734,183.25,40.1667,43.5615,138.433,105.49,103.217,0.00501689,0.0905065,20.9597,-309.845,0.192848,0.0,0.0
736,183.75,40.256,42.844,140.841,105.503,103.156,0.00496841,0.0903054,20.9601,-309.886,0.199189,0.0,0.0
738,184.25,39.4004,43.0378,139.844,105.487,103.1,0.00492914,0.0901426,20.9604,-309.886,0.202619,0.0,0.0
740,184.75,40.0266,42.7695,143.282,105.496,103.032,0.00488369,0.0899831,20.9606,-309.906,0.209273,0.0,0.0
742,185.25,39.7411,42.6949,138.639,105.486,103.101,0.00483461,0.0898539,20.9608,-309.906,0.202542,0.0,0.0
744,185.75,38.9024,42.1051,143.678,105.504,103.264,0.00479226,0.089742,20.961,-309.896,0.190039,0.0,0.0
746,186.25,39.4597,42.43,143.88,105.485,103.098,0.00475562,0.0896448,20.9611,-309.896,0.202637,0.0,0.0
748,186.75,39.9447,42.8335,139.169,105.497,103.051,0.00472594,0.0895661,20.9612,-309.876,0.207716,0.0,0.0
750,187.25,39.7112,42.8641,139.568,105.476,102.963,0.00470683,0.0894748,20.9613,-309.896,0.213501,0.0,0.0
752,187.75,39.4261,42.2825,140.396,105.485,103.019,0.00469135,0.0894008,20.9614,-309.896,0.209455,0.0,0.0
754,188.25,40.0223,42.7118,141.458,105.47,102.989,0.00469115,0.0893409,20.9614,-309.896,0.210773,0.0,0.0
756,188.75,39.4639,42.232,142.437,105.484,103.025,0.00469099,0.0892511,20.9615,-309.896,0.208867,0.0,0.0
758,189.25,39.5461,42.534,137.32,105.463,102.924,0.00469086,0.0891783,20.9615,-309.916,0.215717,0.0,0.0
760,189.75,39.7156,41.8379,139.419,105.478,103.392,0.00470556,0.0890505,20.9616,-309.946,0.176861,0.0,0.0
762,190.25,39.7717,42.5911,143.231,105.465,103.147,0.00471746,0.0889469,20.9618,-309.956,0.196789,0.0,0.0
764,190.75,38.9087,41.4624,138.288,105.481,103.287,0.00474192,0.0887804,20.962,-309.946,0.186161,0.0,0.0
766,191.25,39.3527,41.6043,140.767,105.458,102.95,0.00476173,0.0886455,20.9622,-309.916,0.213065,0.0,0.0
768,191.75,38.6382,41.7479,142.181,105.475,103.044,0.00477778,0.0885363,20.9623,-309.926,0.206485,0.0,0.0
770,192.25,39.5924,41.6792,141.605,105.467,103.023,0.00482042,0.0884891,20.9624,-309.916,0.207624,0.0,0.0
772,192.75,39.5783,41.6503,141.845,105.475,103.023,0.00485497,0.0884509,20.9624,-309.956,0.208308,0.0,0.0
774,193.25,39.4246,42.0977,137.331,105.455,103.129,0.0048862,0.0884475,20.9625,-309.946,0.197508,0.0,0.0
776,193.75,39.5918,41.9582,140.56,105.464,103.188,0.00491442,0.0884448,20.9625,-309.946,0.193192,0.0,0.0
778,194.25,39.7259,41.6177,139.566,105.451,102.824,0.00493338,0.088515,20.9626,-309.966,0.223365,0.0,0.0
780,194.75,39.4397,41.4167,138.474,105.464,103.003,0.00494522,0.0886372,20.9626,-309.966,0.209117,0.0,0.0
782,195.25,38.8202,40.7546,140.344,105.447,102.905,0.00494831,0.0887362,20.9626,-309.966,0.216097,0.0,0.0
784,195.75,39.0974,41.1294,142.473,105.455,103.402,0.00494496,0.0887656,20.9627,-309.936,0.174056,0.0,0.0
786,196.25,39.462,41.4122,138.164,105.435,102.77,0.00493575,0.0887437,20.9627,-309.956,0.226654,0.0,0.0
788,196.75,38.9088,41.6172,145.11,105.448,103.009,0.00492244,0.0886318,20.9627,-309.966,0.207163,0.0,0.0
790,197.25,39.6017,41.7882,144.136,105.431,103.356,0.00490321,0.0884563,20.9627,-309.986,0.176033,0.0,0.0
792,197.75,39.2269,41.5434,142.946,105.443,102.909,0.00488003,0.088278,20.9632,-309.976,0.215377,0.0,0.0
794,198.25,38.9265,41.5814,142.05,105.426,103.022,0.00486126,0.0881009,20.9635,-310.006,0.204259,0.0,0.0
796,198.75,39.1335,41.6065,138.44,105.442,102.713,0.00483306,0.0879574,20.9638,-310.006,0.23223,0.0,0.0
798,199.25,38.6923,41.7136,141.064,105.42,102.813,0.00479853,0.0877724,20.964,-309.986,0.221664,0.0,0.0
800,199.75,38.5535,41.3996,140.632,105.427,102.691,0.00476407,0.0876225,20.9642,-310.006,0.232805,0.0,0.0
802,200.25,39.0798,41.7298,143.737,105.413,103.011,0.00473032,0.0875012,20.9644,-309.986,0.204062,0.0,0.0
804,200.75,38.9779,41.0524,139.469,105.422,103.214,0.00470298,0.0874028,20.9645,-310.006,0.187422,0.0,0.0
806,201.25,38.674,40.831,137.912,105.408,103.009,0.00465988,0.0873594,20.9646,-309.996,0.20379,0.0,0.0
808,201.75,39.1945,41.3609,139.253,105.416,102.982,0.00461265,0.0873569,20.9647,-309.986,0.206888,0.0,0.0
810,202.25,38.8111,41.2372,143.412,105.411,103.232,0.0045633,0.0873838,20.9648,-309.996,0.18502,0.0,0.0
812,202.75,38.8093,40.9572,141.16,105.405,103.382,0.0045149,0.0874316,20.9648,-310.006,0.171556,0.0,0.0
814,203.25,38.551,41.0996,139.419,105.412,103.468,0.00446812,0.0874704,20.9649,-310.026,0.164816,0.0,0.0
816,203.75,38.9088,40.9299,138.939,105.399,103.187,,0.0874743,,-310.046,0.187779,0.0,0.0
818,204.25,38.8242,40.6728,137.517,105.416,103.158,,0.0874775,,-310.046,0.191749,0.0,0.0
820,204.75,38.5732,40.9715,140.847,105.393,102.961,,0.0874112,,-310.066,0.206734,0.0,0.0
822,205.25,38.4923,40.8624,142.234,105.389,102.914,,0.0873575,,-310.066,0.210459,0.0,0.0
824,205.75,38.7764,40.7144,139.386,105.391,102.892,,0.0872727,,-310.056,0.212508,0.0,0.0
826,206.25,38.5196,41.2126,140.699,105.382,103.24,,0.087204,,-310.086,0.181867,0.0,0.0
828,206.75,38.4105,40.5829,141.402,105.374,103.118,,,,-310.096,0.191601,0.0,0.0
830,207.25,38.883,40.6824,144.973,105.379,102.907,,,,-310.086,0.210228,0.0,0.0
832,207.75,38.732,40.7907,138.406,105.371,102.998,,,,-310.086,0.201655,0.0,0.0
834,208.25,38.3575,40.9511,141.692,105.373,103.086,,,,-310.046,0.194299,0.0,0.0
836,208.75,38.5073,40.0362,139.277,105.362,102.864,,,,-310.066,0.212445,0.0,0.0
838,209.25,38.5544,40.8053,143.531,105.371,103.079,,,,-310.046,0.194757,0.0,0.0
840,209.75,38.579,40.751,140.238,105.347,102.971,,,,-310.086,0.201984,0.0,0.0
842,210.25,38.7668,40.7703,139.079,105.36,102.978,,,,-310.076,0.202427,0.0,0.0
844,210.75,38.6826,40.32,139.916,105.347,102.753,,,,-310.076,0.220767,0.0,0.0
846,211.25,38.7308,40.7507,141.767,105.342,103.072,,,,-310.066,0.19291,0.0,0.0
848,211.75,38.6132,40.7629,138.51,105.344,102.69,,,,-310.056,0.225924,0.0,0.0
850,212.25,38.2601,40.7081,141.163,105.34,102.905,,,,-310.066,0.207084,0.0,0.0
852,212.75,37.804,40.7398,142.215,105.336,102.71,,,,-310.066,0.223492,0.0,0.0
854,213.25,38.6475,40.681,142.876,105.332,102.852,,,,-310.096,0.211043,0.0,0.0
856,213.75,38.3314,40.4488,142.188,105.309,102.566,,,,-310.076,0.23361,0.0,0.0
858,214.25,38.5097,40.4214,141.391,105.322,102.772,,,,-310.096,0.217015,0.0,0.0