File: 01_Data/Gypsum_Wallboard_Paper/STA/N2/30K_min/Gypsum_Wallboard_Paper_STA_N2_30KData_220217_R2.csv
##Temp./Â°C,Time/min,Mass loss(subtr.2)/mg,DSC(subtr.2)/(mW/mg),Sensit./(uV/mW)
48.715,10.00917,-0.06702,0.03215669,1.08896
49.315,10.52858,-0.06995278,0.06062521,1.08845
49.915,10.64661,-0.06894319,0.08810038,1.08795
50.515,10.73141,-0.07211512,0.11719,1.08744
51.115,10.7995,-0.07538918,0.14196,1.08694
51.715,10.8588,-0.076336,0.16213,1.08643
52.315,10.91145,-0.07579774,0.18392,1.08593
52.915,10.95958,-0.07585955,0.20574,1.08543
53.515,11.00417,-0.07452343,0.22564,1.08492
54.115,11.04598,-0.07357782,0.24326,1.08442
54.715,11.08516,-0.07333921,0.26234,1.08392
55.315,11.12236,-0.07242721,0.27678,1.08342
55.915,11.15828,-0.07231643,0.29364,1.08292
56.515,11.19305,-0.07170748,0.30972,1.08242
57.115,11.22659,-0.07230725,0.32385,1.08192
57.715,11.25877,-0.07230416,0.33724,1.08143
58.315,11.29013,-0.07208424,0.35161,1.08093
58.915,11.32054,-0.07230218,0.36343,1.08043
59.515,11.35045,-0.07338737,0.37984,1.07994
60.115,11.37947,-0.07238906,0.38921,1.07944
60.715,11.40765,-0.07269613,0.40239,1.07894
61.315,11.43539,-0.07282166,0.41654,1.07845
61.915,11.46278,-0.07314769,0.4263,1.07796
62.515,11.49014,-0.07326653,0.44082,1.07746
63.115,11.5166,-0.075202,0.4514,1.07697
63.715,11.54292,-0.07607771,0.46181,1.07648
64.315,11.56869,-0.07676178,0.47144,1.07599
64.915,11.59441,-0.07676965,0.48461,1.0755
65.515,11.61963,-0.07687223,0.49479,1.07501
66.115,11.64456,-0.07633028,0.50591,1.07452
66.715,11.66927,-0.07600548,0.51477,1.07403
67.315,11.69369,-0.07553731,0.52461,1.07354
67.915,11.71798,-0.07431025,0.53694,1.07305
68.515,11.74195,-0.07438638,0.54646,1.07257
69.115,11.76571,-0.07432836,0.55377,1.07208
69.715,11.78947,-0.07347121,0.56494,1.0716
70.315,11.81296,-0.074418,0.57416,1.07111
70.915,11.83635,-0.07569276,0.58188,1.07063
71.515,11.85956,-0.07514355,0.59241,1.07014
72.115,11.88263,-0.07529215,0.60044,1.06966
72.715,11.90552,-0.0765075,0.61051,1.06918
73.315,11.92828,-0.07786962,0.6185,1.0687
73.915,11.9511,-0.07943259,0.62834,1.06821
74.515,11.97384,-0.08004725,0.63535,1.06773
75.115,11.99643,-0.07948084,0.64603,1.06725
75.715,12.01895,-0.07943235,0.65475,1.06677
76.315,12.0412,-0.07859806,0.66321,1.0663
76.915,12.06329,-0.07872479,0.67111,1.06582
77.515,12.0855,-0.07863224,0.68001,1.06534
78.115,12.1075,-0.07990165,0.68754,1.06486
78.715,12.1294,-0.08031047,0.69794,1.06439
79.315,12.15135,-0.08123103,0.70697,1.06391
79.915,12.17309,-0.08094699,0.71505,1.06344
80.515,12.19485,-0.08186358,0.72334,1.06296
81.115,12.2165,-0.08219257,0.73188,1.06249
81.715,12.23816,-0.08313475,0.74067,1.06202
82.315,12.25972,-0.08269232,0.74703,1.06154
82.915,12.2813,-0.08393111,0.75844,1.06107
83.515,12.30275,-0.0854065,0.76609,1.0606
84.115,12.3241,-0.08398818,0.77457,1.06013
84.715,12.3454,-0.08540234,0.78194,1.05966
85.315,12.36665,-0.08538135,0.79043,1.05919
85.915,12.3878,-0.08430312,0.79967,1.05872
86.515,12.40895,-0.08533768,0.80722,1.05825
87.115,12.43008,-0.0866408,0.81556,1.05778
87.715,12.45106,-0.08629524,0.82532,1.05732
88.315,12.47207,-0.08711717,0.83265,1.05685
88.915,12.49301,-0.08701902,0.84177,1.05639
89.515,12.51393,-0.08832707,0.84602,1.05592
90.115,12.53482,-0.08839842,0.8558,1.05546
90.715,12.5556,-0.08840044,0.86281,1.05499
91.315,12.57644,-0.08840695,0.8709,1.05453
91.915,12.59721,-0.08723571,0.87867,1.05407
92.515,12.61788,-0.08711171,0.88422,1.0536
93.115,12.6385,-0.08802534,0.89267,1.05314
93.715,12.6591,-0.08841005,0.90129,1.05268
94.315,12.6797,-0.08878651,0.90838,1.05222
94.915,12.7003,-0.08970877,0.91446,1.05176
95.515,12.72086,-0.08977458,0.92228,1.0513
96.115,12.74135,-0.08968197,0.92964,1.05084
96.715,12.76193,-0.08971313,0.93816,1.05038
97.315,12.78245,-0.0903816,0.9447,1.04993
97.915,12.80288,-0.0910136,0.95107,1.04947
98.515,12.82343,-0.09103244,0.96165,1.04901
99.115,12.8439,-0.09095407,0.96669,1.04856
99.715,12.86438,-0.09228487,0.97434,1.0481
100.315,12.8848,-0.09334859,0.98168,1.04765
100.915,12.9053,-0.09379673,0.98524,1.0472
101.515,12.92567,-0.09477838,0.99127,1.04674
102.115,12.946,-0.09644819,0.99822,1.04629
102.715,12.9663,-0.09642558,1.00038,1.04584
103.315,12.98662,-0.0968601,1.00465,1.04539
103.915,13.00695,-0.09773643,1.01057,1.04494
104.515,13.0272,-0.09764552,1.01492,1.04449
105.115,13.04745,-0.09902703,1.01689,1.04404
105.715,13.0677,-0.09900523,1.01912,1.04359
106.315,13.08793,-0.10031,1.02305,1.04314
106.915,13.10821,-0.10036,1.02543,1.04269
107.515,13.12846,-0.10034,1.03055,1.04225
108.115,13.14872,-0.10166,1.02996,1.0418
108.715,13.16889,-0.10297,1.03287,1.04135
109.315,13.1891,-0.10298,1.0359,1.04091
109.915,13.20931,-0.1043,1.03562,1.04046
110.515,13.2296,-0.10431,1.03815,1.04002
111.115,13.2498,-0.10563,1.03775,1.03958
111.715,13.27,-0.10597,1.03938,1.03913
112.315,13.29018,-0.10595,1.03965,1.03869
112.915,13.3103,-0.10595,1.04157,1.03825
113.515,13.3304,-0.10595,1.04032,1.03781
114.115,13.3504,-0.10595,1.04003,1.03737
114.715,13.37065,-0.10602,1.04118,1.03693
115.315,13.39069,-0.10707,1.04129,1.03649
115.915,13.41073,-0.10788,1.04052,1.03605
116.515,13.43077,-0.10903,1.03944,1.03561
117.115,13.45067,-0.10923,1.04104,1.03517
117.715,13.4707,-0.11003,1.0402,1.03474
118.315,13.49071,-0.11055,1.03939,1.0343
118.915,13.51074,-0.11055,1.04082,1.03387
119.515,13.53082,-0.11092,1.03929,1.03343
120.115,13.55075,-0.11089,1.03891,1.033
120.715,13.57071,-0.11089,1.03834,1.03256
121.315,13.5906,-0.11089,1.03468,1.03213
121.915,13.6105,-0.11089,1.03444,1.0317
122.515,13.63044,-0.11089,1.03152,1.03126
123.115,13.65037,-0.11089,1.0279,1.03083
123.715,13.67022,-0.11089,1.02719,1.0304
124.315,13.69,-0.11088,1.02565,1.02997
124.915,13.70979,-0.11159,1.02565,1.02954
125.515,13.7295,-0.1122,1.02074,1.02911
126.115,13.74921,-0.1122,1.01799,1.02868
126.715,13.769,-0.1122,1.01975,1.02825
127.315,13.7887,-0.11358,1.01478,1.02783
127.915,13.80839,-0.11461,1.01281,1.0274
128.515,13.8281,-0.11517,1.01262,1.02697
129.115,13.8477,-0.11629,1.00929,1.02655
129.715,13.8674,-0.11627,1.00556,1.02612
130.315,13.887,-0.11627,1.00654,1.0257
130.915,13.90665,-0.11631,1.00476,1.02527
131.515,13.9263,-0.11739,1.00129,1.02485
132.115,13.9459,-0.11893,0.99702,1.02443
132.715,13.96543,-0.119,0.99535,1.024
133.315,13.985,-0.1213,0.99315,1.02358
133.915,14.0045,-0.12156,0.99181,1.02316
134.515,14.024,-0.12259,0.99004,1.02274
135.115,14.0435,-0.12417,0.98536,1.02232
135.715,14.06298,-0.12427,0.9837,1.0219
136.315,14.0824,-0.12427,0.98165,1.02148
136.915,14.10191,-0.12427,0.9787,1.02106
137.515,14.1214,-0.12427,0.97354,1.02064
138.115,14.14081,-0.12424,0.97065,1.02023
138.715,14.1601,-0.1253,0.96532,1.01981
139.315,14.17944,-0.12525,0.96306,1.01939
139.915,14.19863,-0.12525,0.9576,1.01898
140.515,14.21791,-0.12525,0.95303,1.01856
141.115,14.23715,-0.12525,0.94698,1.01815
141.715,14.25637,-0.12525,0.94524,1.01774
142.315,14.27556,-0.12525,0.94113,1.01732
142.915,14.2948,-0.12525,0.93645,1.01691
143.515,14.31395,-0.12526,0.93224,1.0165
144.115,14.3332,-0.12545,0.92992,1.01609
144.715,14.35244,-0.12662,0.92413,1.01567
145.315,14.3717,-0.12656,0.92072,1.01526
145.915,14.39086,-0.12693,0.91741,1.01485
146.515,14.41,-0.12695,0.91539,1.01444
147.115,14.4291,-0.12822,0.91328,1.01404
147.715,14.4482,-0.12912,0.90834,1.01363
148.315,14.4673,-0.12954,0.90445,1.01322
148.915,14.48651,-0.12932,0.90514,1.01281
149.515,14.5057,-0.1292,0.89981,1.01241
150.115,14.5249,-0.12825,0.89792,1.012
150.715,14.54393,-0.12785,0.89685,1.01159
151.315,14.56303,-0.12678,0.89338,1.01119
151.915,14.58201,-0.12638,0.89184,1.01078
152.515,14.60104,-0.12643,0.89029,1.01038
153.115,14.6201,-0.12769,0.88808,1.00998
153.715,14.63916,-0.12767,0.88708,1.00957
154.315,14.6582,-0.12767,0.88529,1.00917
154.915,14.67728,-0.12767,0.88476,1.00877
155.515,14.6963,-0.12767,0.88525,1.00837
156.115,14.71527,-0.12767,0.88309,1.00797
156.715,14.73426,-0.12767,0.88333,1.00757
157.315,14.75324,-0.12767,0.88293,1.00717
157.915,14.7722,-0.12767,0.88398,1.00677
158.515,14.79115,-0.12767,0.88334,1.00637
159.115,14.81013,-0.12765,0.88152,1.00597
159.715,14.82906,-0.12865,0.8832,1.00557
160.315,14.84785,-0.12777,0.88126,1.00518
160.915,14.86675,-0.12769,0.8842,1.00478
161.515,14.88565,-0.12768,0.88418,1.00439
162.115,14.9045,-0.12768,0.88322,1.00399
162.715,14.92336,-0.12767,0.88207,1.00359
163.315,14.94235,-0.12832,0.88245,1.0032
163.915,14.9612,-0.12897,0.88452,1.00281
164.515,14.98008,-0.12899,0.88719,1.00241
165.115,14.999,-0.12899,0.88576,1.00202
165.715,15.0179,-0.12899,0.88705,1.00163
166.315,15.0367,-0.12894,0.88997,1.00124
166.915,15.0556,-0.13013,0.88837,1.00085
167.515,15.07436,-0.13029,0.89027,1.00046
168.115,15.0932,-0.1303,0.891,1.00006
168.715,15.112,-0.1303,0.89296,0.99968
169.315,15.13085,-0.1303,0.89295,0.99929
169.915,15.14966,-0.1303,0.89336,0.9989
170.515,15.1685,-0.1303,0.89326,0.99851
171.115,15.1872,-0.1303,0.89637,0.99812
171.715,15.20595,-0.13029,0.89525,0.99774
172.315,15.2247,-0.1302,0.90086,0.99735
172.915,15.24341,-0.13153,0.89857,0.99696
173.515,15.26216,-0.13164,0.90082,0.99658
174.115,15.28082,-0.13301,0.90331,0.99619
174.715,15.2996,-0.13294,0.90499,0.99581
175.315,15.3183,-0.13294,0.908,0.99542
175.915,15.33699,-0.13294,0.90814,0.99504
176.515,15.35566,-0.13294,0.91029,0.99466
177.115,15.3744,-0.13287,0.91066,0.99427
177.715,15.3931,-0.13152,0.91114,0.99389
178.315,15.4118,-0.13161,0.91374,0.99351
178.915,15.43045,-0.1316,0.9155,0.99313
179.515,15.449,-0.13259,0.91763,0.99275
180.115,15.4676,-0.13293,0.91892,0.99237
180.715,15.4862,-0.13274,0.9188,0.99199
181.315,15.5048,-0.13264,0.92161,0.99161
181.915,15.52335,-0.13292,0.92059,0.99123
182.515,15.54207,-0.13294,0.92384,0.99086
183.115,15.56064,-0.13294,0.92453,0.99048
183.715,15.5792,-0.13294,0.92606,0.9901
184.315,15.5978,-0.13294,0.92426,0.98972
184.915,15.6163,-0.13185,0.9294,0.98935
185.515,15.6348,-0.13164,0.92719,0.98897
186.115,15.6533,-0.13162,0.92847,0.9886
186.715,15.67165,-0.13164,0.93398,0.98822
187.315,15.69004,-0.13128,0.93412,0.98785
187.915,15.7085,-0.1313,0.93382,0.98748
188.515,15.727,-0.1313,0.93658,0.9871
189.115,15.7454,-0.1313,0.93817,0.98673
189.715,15.764,-0.1313,0.938,0.98636
190.315,15.7824,-0.13131,0.93902,0.98599
190.915,15.80074,-0.13136,0.94229,0.98562
191.515,15.81923,-0.13261,0.94395,0.98524
192.115,15.83765,-0.13261,0.9444,0.98487
192.715,15.8561,-0.13261,0.94709,0.9845
193.315,15.8746,-0.13262,0.95007,0.98414
193.915,15.8931,-0.13354,0.95042,0.98377
194.515,15.9114,-0.13573,0.95402,0.9834
195.115,15.9299,-0.13568,0.95329,0.98303
195.715,15.9482,-0.13568,0.95509,0.98266
196.315,15.96645,-0.13568,0.95601,0.9823
196.915,15.9849,-0.13568,0.9604,0.98193
197.515,16.0033,-0.13568,0.96259,0.98156
198.115,16.02169,-0.13568,0.96093,0.9812
198.715,16.04015,-0.13569,0.9627,0.98083
199.315,16.05865,-0.13506,0.96584,0.98047
199.915,16.07699,-0.13434,0.9658,0.9801
200.515,16.09533,-0.13436,0.96699,0.97974
201.115,16.11366,-0.13437,0.97066,0.97938
201.715,16.13203,-0.13448,0.97145,0.97901
202.315,16.1504,-0.13582,0.97339,0.97865
202.915,16.16863,-0.13576,0.9745,0.97829
203.515,16.18693,-0.13701,0.97697,0.97793
204.115,16.2053,-0.13708,0.97827,0.97757
204.715,16.22364,-0.13703,0.97785,0.97721
205.315,16.242,-0.13842,0.98135,0.97685
205.915,16.2604,-0.13942,0.98426,0.97649
206.515,16.2788,-0.13941,0.98376,0.97613
207.115,16.29707,-0.1394,0.98387,0.97577
207.715,16.3154,-0.13931,0.98589,0.97541
208.315,16.33374,-0.14065,0.98743,0.97505
208.915,16.35206,-0.14073,0.99058,0.9747
209.515,16.3704,-0.14073,0.9917,0.97434
210.115,16.38867,-0.14073,0.9953,0.97398
210.715,16.40699,-0.14073,0.99359,0.97363
211.315,16.42522,-0.14073,0.99473,0.97327
211.915,16.4435,-0.14074,0.99729,0.97292
212.515,16.46174,-0.14081,0.9993,0.97256
213.115,16.48003,-0.14106,1.00157,0.97221
213.715,16.49837,-0.14047,1.00247,0.97185
214.315,16.51663,-0.13971,1.0021,0.9715
214.915,16.53494,-0.13973,1.00504,0.97115
215.515,16.55321,-0.14049,1.00774,0.97079
216.115,16.5715,-0.14103,1.00709,0.97044
216.715,16.58967,-0.14105,1.00823,0.97009
217.315,16.608,-0.14105,1.00981,0.96974
217.915,16.62613,-0.14105,1.01063,0.96939
218.515,16.6444,-0.14105,1.0123,0.96904
219.115,16.66258,-0.14105,1.01559,0.96869
219.715,16.68078,-0.14153,1.01707,0.96834
220.315,16.69899,-0.14237,1.01592,0.96799
220.915,16.71726,-0.14237,1.01794,0.96764
221.515,16.73549,-0.14337,1.02065,0.96729
222.115,16.75375,-0.14366,1.01989,0.96694
222.715,16.77202,-0.14368,1.02192,0.9666
223.315,16.79027,-0.14369,1.02297,0.96625
223.915,16.8085,-0.14493,1.02606,0.9659
224.515,16.82674,-0.14629,1.02888,0.96555
225.115,16.84496,-0.14632,1.02726,0.96521
225.715,16.86315,-0.14632,1.02903,0.96486
226.315,16.88133,-0.14632,1.03062,0.96452
226.915,16.89943,-0.14632,1.02968,0.96417
227.515,16.91759,-0.14632,1.02954,0.96383
228.115,16.93572,-0.14632,1.0343,0.96348
228.715,16.9539,-0.14632,1.03529,0.96314
229.315,16.97202,-0.14632,1.03616,0.9628
229.915,16.99025,-0.14632,1.03876,0.96246
230.515,17.00846,-0.14632,1.03952,0.96211
231.115,17.02665,-0.14632,1.04028,0.96177
231.715,17.0448,-0.14632,1.04061,0.96143
232.315,17.06299,-0.14632,1.0454,0.96109
232.915,17.08115,-0.14687,1.04532,0.96075
233.515,17.09927,-0.14786,1.04841,0.96041
234.115,17.11739,-0.14868,1.04854,0.96007
234.715,17.13554,-0.14919,1.05,0.95973
235.315,17.1537,-0.1494,1.05216,0.95939
235.915,17.1719,-0.15054,1.0534,0.95905
236.515,17.19002,-0.15049,1.05577,0.95871
237.115,17.20821,-0.15049,1.05505,0.95837
237.715,17.2263,-0.15064,1.05637,0.95803
238.315,17.24446,-0.15189,1.05869,0.9577
238.915,17.2626,-0.15175,1.05888,0.95736
239.515,17.28071,-0.15303,1.06349,0.95702
240.115,17.2988,-0.15334,1.06272,0.95669
240.715,17.317,-0.1545,1.06436,0.95635
241.315,17.33512,-0.15466,1.0673,0.95601
241.915,17.35324,-0.15501,1.06839,0.95568
242.515,17.37135,-0.15597,1.06811,0.95534
243.115,17.38948,-0.15633,1.0703,0.95501
243.715,17.40759,-0.15732,1.07039,0.95468
244.315,17.4257,-0.15729,1.07388,0.95434
244.915,17.44383,-0.15811,1.07425,0.95401
245.515,17.46201,-0.15858,1.07388,0.95368
246.115,17.48011,-0.15861,1.07492,0.95334
246.715,17.49822,-0.15913,1.07772,0.95301
247.315,17.51632,-0.16137,1.07789,0.95268
247.915,17.53442,-0.16161,1.07987,0.95235
248.515,17.55247,-0.16284,1.08273,0.95202
249.115,17.57054,-0.16282,1.08256,0.95168
249.715,17.5886,-0.16406,1.08501,0.95135
250.315,17.60666,-0.1641,1.08565,0.95102
250.915,17.62474,-0.16461,1.08485,0.95069
251.515,17.6428,-0.16541,1.09148,0.95036
252.115,17.66093,-0.1654,1.08584,0.95003
252.715,17.67907,-0.1654,1.08719,0.94971
253.315,17.69717,-0.16589,1.08976,0.94938
253.915,17.71523,-0.16676,1.09048,0.94905
254.515,17.73338,-0.16754,1.09289,0.94872
255.115,17.75146,-0.16821,1.09269,0.94839
255.715,17.7696,-0.17003,1.09116,0.94807
256.315,17.7877,-0.17245,1.09244,0.94774
256.915,17.80583,-0.17492,1.09434,0.94741
257.515,17.8239,-0.17643,1.09353,0.94709
258.115,17.84205,-0.17795,1.0963,0.94676
258.715,17.8601,-0.17903,1.09348,0.94643
259.315,17.87821,-0.1806,1.09535,0.94611
259.915,17.89629,-0.18063,1.09522,0.94578
260.515,17.9143,-0.18056,1.09409,0.94546
261.115,17.93232,-0.18183,1.09666,0.94514
261.715,17.95042,-0.18195,1.0967,0.94481
262.315,17.96847,-0.18289,1.0994,0.94449
262.915,17.98656,-0.18328,1.09722,0.94416
263.515,18.00464,-0.18433,1.09895,0.94384
264.115,18.02272,-0.18498,1.09964,0.94352
264.715,18.0408,-0.18579,1.09986,0.9432
265.315,18.05886,-0.18708,1.10103,0.94287
265.915,18.07689,-0.18925,1.10312,0.94255
266.515,18.09498,-0.191,1.1025,0.94223
267.115,18.11307,-0.19228,1.10486,0.94191
267.715,18.13114,-0.1933,1.10443,0.94159
268.315,18.14924,-0.19491,1.10608,0.94127
268.915,18.1674,-0.19655,1.10745,0.94095
269.515,18.18542,-0.19801,1.10767,0.94063
270.115,18.20345,-0.19955,1.10955,0.94031
270.715,18.2215,-0.20123,1.11059,0.93999
271.315,18.23955,-0.20418,1.11389,0.93967
271.915,18.2576,-0.20621,1.11433,0.93935
272.515,18.2757,-0.20813,1.1153,0.93903
273.115,18.2938,-0.20988,1.11511,0.93871
273.715,18.31184,-0.21134,1.11756,0.93839
274.315,18.32996,-0.21296,1.11784,0.93808
274.915,18.34806,-0.21464,1.11905,0.93776
275.515,18.36618,-0.21626,1.12266,0.93744
276.115,18.38431,-0.21797,1.12139,0.93712
276.715,18.40241,-0.21975,1.12389,0.93681
277.315,18.42052,-0.22185,1.12405,0.93649
277.915,18.4386,-0.22381,1.12583,0.93618
278.515,18.4567,-0.22604,1.12776,0.93586
279.115,18.47472,-0.22861,1.12969,0.93554
279.715,18.49286,-0.23239,1.13193,0.93523
280.315,18.511,-0.23534,1.13404,0.93491
280.915,18.52917,-0.23802,1.13763,0.9346
281.515,18.5473,-0.24063,1.13951,0.93428
282.115,18.5654,-0.24327,1.14077,0.93397
282.715,18.58349,-0.24702,1.14348,0.93366
283.315,18.60155,-0.25055,1.14628,0.93334
283.915,18.61962,-0.25421,1.14884,0.93303
284.515,18.63767,-0.25759,1.15249,0.93272
285.115,18.65581,-0.25963,1.15613,0.9324
285.715,18.6739,-0.26205,1.15903,0.93209
286.315,18.69204,-0.26505,1.16137,0.93178
286.915,18.7102,-0.26787,1.16417,0.93147
287.515,18.7283,-0.27126,1.16804,0.93115
288.115,18.74635,-0.27525,1.17074,0.93084
288.715,18.7644,-0.27834,1.1744,0.93053
289.315,18.78252,-0.28076,1.1757,0.93022
289.915,18.8006,-0.2841,1.18153,0.92991
290.515,18.81878,-0.2884,1.18515,0.9296
291.115,18.83695,-0.29253,1.18704,0.92929
291.715,18.85511,-0.29533,1.18997,0.92898
292.315,18.87323,-0.29906,1.19565,0.92867
292.915,18.8914,-0.30403,1.19977,0.92836
293.515,18.90954,-0.30743,1.20273,0.92805
294.115,18.92764,-0.31214,1.20719,0.92774
294.715,18.94581,-0.315,1.21138,0.92743
295.315,18.96395,-0.31958,1.21543,0.92712
295.915,18.982,-0.32315,1.22167,0.92681
296.515,19.00007,-0.32818,1.22643,0.9265
297.115,19.01817,-0.33221,1.22817,0.92619
297.715,19.0364,-0.33744,1.23429,0.92589
298.315,19.0545,-0.34174,1.2386,0.92558
298.915,19.0727,-0.34716,1.24158,0.92527
299.515,19.091,-0.35196,1.24681,0.92496
300.115,19.1092,-0.35681,1.25437,0.92466
300.715,19.12728,-0.3615,1.25986,0.92435
301.315,19.14547,-0.36556,1.26268,0.92404
301.915,19.1636,-0.37103,1.26838,0.92373
302.515,19.18169,-0.37655,1.27455,0.92343
303.115,19.19983,-0.38302,1.2826,0.92312
303.715,19.21801,-0.38853,1.28571,0.92282
304.315,19.23622,-0.39592,1.28924,0.92251
304.915,19.2544,-0.39993,1.29697,0.9222
305.515,19.27253,-0.40596,1.30153,0.9219
306.115,19.2907,-0.41151,1.30565,0.92159
306.715,19.30878,-0.41775,1.314,0.92129
307.315,19.32687,-0.4234,1.3196,0.92098
307.915,19.34502,-0.42975,1.32498,0.92068
308.515,19.3632,-0.43768,1.33261,0.92038
309.115,19.38139,-0.44399,1.33741,0.92007
309.715,19.3996,-0.4523,1.34359,0.91977
310.315,19.41786,-0.45941,1.35102,0.91946
310.915,19.43609,-0.46751,1.36051,0.91916
311.515,19.4543,-0.47371,1.36392,0.91886
312.115,19.47256,-0.48094,1.37124,0.91855
312.715,19.49073,-0.48872,1.37665,0.91825
313.315,19.50891,-0.49576,1.38644,0.91795
313.915,19.5271,-0.50341,1.39192,0.91764
314.515,19.5453,-0.51073,1.39944,0.91734
315.115,19.5635,-0.51989,1.40705,0.91704
315.715,19.58173,-0.52716,1.41059,0.91674
316.315,19.59986,-0.53646,1.41809,0.91643
316.915,19.61804,-0.54353,1.42439,0.91613
317.515,19.63626,-0.55281,1.43432,0.91583
318.115,19.65448,-0.55997,1.43849,0.91553
318.715,19.67267,-0.5687,1.44524,0.91523
319.315,19.691,-0.57691,1.45415,0.91493
319.915,19.70932,-0.5857,1.46092,0.91463
320.515,19.7275,-0.59475,1.46961,0.91432
321.115,19.74576,-0.60326,1.47361,0.91402
321.715,19.764,-0.61379,1.48205,0.91372
322.315,19.78225,-0.62286,1.48836,0.91342
322.915,19.80047,-0.63446,1.49611,0.91312
323.515,19.81873,-0.64307,1.50312,0.91282
324.115,19.83694,-0.65366,1.5091,0.91252
324.715,19.85519,-0.66228,1.51774,0.91222
325.315,19.8734,-0.67323,1.52317,0.91192
325.915,19.89161,-0.68339,1.52991,0.91162
326.515,19.9099,-0.69412,1.53815,0.91132
327.115,19.92819,-0.70484,1.54611,0.91102
327.715,19.94642,-0.71408,1.55311,0.91072
328.315,19.9648,-0.72627,1.55698,0.91043
328.915,19.98311,-0.73698,1.56587,0.91013
329.515,20.00144,-0.75006,1.57457,0.90983
330.115,20.01967,-0.75988,1.58142,0.90953
330.715,20.03792,-0.77228,1.589,0.90923
331.315,20.05613,-0.78211,1.5962,0.90893
331.915,20.07439,-0.79609,1.60346,0.90863
332.515,20.09264,-0.80721,1.61086,0.90834
333.115,20.1109,-0.81972,1.61558,0.90804
333.715,20.12923,-0.83144,1.62519,0.90774
334.315,20.1476,-0.84263,1.63054,0.90744
334.915,20.16583,-0.85533,1.63932,0.90714
335.515,20.1841,-0.86606,1.64646,0.90685
336.115,20.20243,-0.88046,1.6533,0.90655
336.715,20.22069,-0.89168,1.66159,0.90625
337.315,20.23899,-0.90578,1.66976,0.90595
337.915,20.25732,-0.91691,1.67489,0.90566
338.515,20.27565,-0.93145,1.68389,0.90536
339.115,20.29397,-0.94333,1.69169,0.90506
339.715,20.31232,-0.95729,1.69735,0.90477
340.315,20.33067,-0.97001,1.70591,0.90447
340.915,20.34901,-0.9831,1.71367,0.90417
341.515,20.36736,-0.99655,1.71948,0.90388
342.115,20.38565,-1.00901,1.72823,0.90358
342.715,20.40397,-1.02388,1.73559,0.90328
343.315,20.42224,-1.03734,1.74424,0.90299
343.915,20.44053,-1.05289,1.75019,0.90269
344.515,20.45886,-1.06546,1.76126,0.90239
345.115,20.47725,-1.08167,1.76873,0.9021
345.715,20.49555,-1.09428,1.77612,0.9018
346.315,20.51396,-1.11049,1.78414,0.90151
346.915,20.5323,-1.124,1.79303,0.90121
347.515,20.5507,-1.14062,1.80288,0.90092
348.115,20.56905,-1.15622,1.81323,0.90062
348.715,20.58744,-1.17133,1.82129,0.90032
349.315,20.60582,-1.18776,1.83152,0.90003
349.915,20.62418,-1.20193,1.83992,0.89973
350.515,20.6426,-1.21954,1.85024,0.89944
351.115,20.66095,-1.23493,1.85977,0.89914
351.715,20.67936,-1.2541,1.8681,0.89885
352.315,20.6978,-1.26882,1.87829,0.89855
352.915,20.71619,-1.28717,1.89168,0.89826
353.515,20.7346,-1.3023,1.90014,0.89796
354.115,20.75301,-1.32076,1.91142,0.89767
354.715,20.77144,-1.33739,1.91992,0.89737
355.315,20.7898,-1.355,1.93177,0.89708
355.915,20.8082,-1.37285,1.94349,0.89678
356.515,20.82669,-1.3898,1.95521,0.89649
357.115,20.8451,-1.40858,1.96657,0.89619
357.715,20.86355,-1.42503,1.97965,0.8959
358.315,20.88208,-1.44623,1.99112,0.8956
358.915,20.90052,-1.46388,2.00264,0.89531
359.515,20.91899,-1.48573,2.01488,0.89502
360.115,20.93742,-1.50292,2.02747,0.89472
360.715,20.95588,-1.52534,2.0392,0.89443
361.315,20.97431,-1.54326,2.05277,0.89413
361.915,20.99284,-1.56441,2.06392,0.89384
362.515,21.01126,-1.58302,2.07642,0.89354
363.115,21.02976,-1.60305,2.08873,0.89325
363.715,21.04825,-1.62341,2.1007,0.89296
364.315,21.0667,-1.64299,2.1157,0.89266
364.915,21.08513,-1.66601,2.1243,0.89237
365.515,21.10369,-1.68611,2.13807,0.89207
366.115,21.12219,-1.70996,2.15065,0.89178
366.715,21.14068,-1.72735,2.16094,0.89149
367.315,21.15919,-1.75116,2.17184,0.89119
367.915,21.17771,-1.76891,2.18408,0.8909
368.515,21.19616,-1.79323,2.19114,0.8906
369.115,21.21465,-1.81337,2.198,0.89031
369.715,21.23315,-1.83735,2.20634,0.89002
370.315,21.25166,-1.85886,2.21654,0.88972
370.915,21.27017,-1.88223,2.21959,0.88943
371.515,21.28867,-1.90495,2.22632,0.88913
372.115,21.30723,-1.92732,2.22536,0.88884
372.715,21.3258,-1.95146,2.22746,0.88855
373.315,21.34433,-1.97209,2.22903,0.88825
373.915,21.36286,-1.99709,2.22586,0.88796
374.515,21.38146,-2.01739,2.2208,0.88766
375.115,21.39987,-2.04298,2.21734,0.88737
375.715,21.41822,-2.0626,2.20831,0.88708
376.315,21.43674,-2.08802,2.19626,0.88678
376.915,21.4553,-2.10896,2.18345,0.88649
377.515,21.4739,-2.13318,2.16882,0.8862
378.115,21.4926,-2.15473,2.15079,0.8859
378.715,21.51137,-2.1786,2.1281,0.88561
379.315,21.5299,-2.20148,2.10634,0.88531
379.915,21.54842,-2.22351,2.08264,0.88502
380.515,21.56693,-2.24639,2.04978,0.88473
381.115,21.58545,-2.26625,2.01852,0.88443
381.715,21.604,-2.28945,1.98281,0.88414
382.315,21.62258,-2.30826,1.94024,0.88384
382.915,21.6412,-2.33145,1.899,0.88355
383.515,21.65977,-2.34958,1.85427,0.88326
384.115,21.67825,-2.37257,1.80674,0.88296
384.715,21.69683,-2.39012,1.75753,0.88267
385.315,21.71538,-2.4117,1.70243,0.88237
385.915,21.73391,-2.42856,1.64809,0.88208
386.515,21.7525,-2.44766,1.58812,0.88179
387.115,21.7711,-2.465,1.52755,0.88149
387.715,21.78964,-2.48147,1.46766,0.8812
388.315,21.80819,-2.49819,1.40323,0.8809
388.915,21.82665,-2.5114,1.33673,0.88061
389.515,21.84508,-2.52626,1.27054,0.88032
390.115,21.86355,-2.53809,1.20239,0.88002
390.715,21.88196,-2.55183,1.13732,0.87973
391.315,21.90046,-2.56267,1.06925,0.87943
391.915,21.91899,-2.57629,1.00401,0.87914
392.515,21.93753,-2.5862,0.93782,0.87884
393.115,21.956,-2.59808,0.87387,0.87855
393.715,21.97458,-2.60707,0.81326,0.87825
394.315,21.99306,-2.61688,0.75043,0.87796
394.915,22.0116,-2.62405,0.69189,0.87767
395.515,22.03012,-2.63063,0.63597,0.87737
396.115,22.0487,-2.6364,0.58665,0.87708
396.715,22.06721,-2.64189,0.53672,0.87678
397.315,22.0858,-2.64766,0.49217,0.87649
397.915,22.10431,-2.65286,0.44904,0.87619
398.515,22.1229,-2.6586,0.40691,0.8759
399.115,22.14145,-2.66274,0.3721,0.8756
399.715,22.16007,-2.66777,0.33555,0.87531
400.315,22.17858,-2.67129,0.30738,0.87501
400.915,22.197,-2.67506,0.28251,0.87472
401.515,22.2154,-2.67806,0.2519,0.87442
402.115,22.2338,-2.68019,0.23204,0.87413
402.715,22.25233,-2.68289,0.20799,0.87383
403.315,22.271,-2.6858,0.1872,0.87353
403.915,22.28976,-2.68802,0.17063,0.87324
404.515,22.30856,-2.68987,0.15651,0.87294
405.115,22.3274,-2.69167,0.14123,0.87265
405.715,22.34599,-2.69376,0.12904,0.87235
406.315,22.36465,-2.69573,0.11461,0.87206
406.915,22.38328,-2.6965,0.10474,0.87176
407.515,22.40188,-2.69675,0.09587928,0.87146
408.115,22.42053,-2.69834,0.08719153,0.87117
408.715,22.4392,-2.70014,0.07456529,0.87087
409.315,22.4578,-2.70166,0.06737421,0.87057
409.915,22.47642,-2.70256,0.05963411,0.87028
410.515,22.49491,-2.70362,0.05428388,0.86998
411.115,22.51351,-2.70523,0.04732544,0.86969
411.715,22.53216,-2.70668,0.04029728,0.86939
412.315,22.5508,-2.70855,0.03773993,0.86909
412.915,22.56975,-2.70963,0.0282159,0.86879
413.515,22.5887,-2.7103,0.02233214,0.8685
414.115,22.6075,-2.71162,0.01635177,0.8682
414.715,22.62632,-2.71315,0.01396594,0.8679
415.315,22.645,-2.71427,0.008927906,0.86761
415.915,22.6637,-2.7147,0.00414695,0.86731
416.515,22.68245,-2.71662,-0.00188217,0.86701
417.115,22.70125,-2.71834,-0.0040679,0.86671
417.715,22.71999,-2.72073,-0.009743511,0.86642
418.315,22.73878,-2.72269,-0.01316529,0.86612
418.915,22.75756,-2.72383,-0.01598844,0.86582
419.515,22.77627,-2.72507,-0.02272425,0.86552
420.115,22.79502,-2.72712,-0.0226431,0.86522
420.715,22.81373,-2.72939,-0.02464051,0.86493
421.315,22.83247,-2.73145,-0.03110219,0.86463
421.915,22.85125,-2.73363,-0.03539585,0.86433
422.515,22.87,-2.73549,-0.03796629,0.86403
423.115,22.8887,-2.73728,-0.03957311,0.86373
423.715,22.90757,-2.73843,-0.04227214,0.86343
424.315,22.92633,-2.73962,-0.04721087,0.86313
424.915,22.94492,-2.74183,-0.04995742,0.86283
425.515,22.96368,-2.74383,-0.05201141,0.86253
426.115,22.98252,-2.74444,-0.053236,0.86224
426.715,23.00131,-2.74527,-0.05566093,0.86194
427.315,23.02018,-2.74695,-0.06022225,0.86164
427.915,23.03922,-2.74862,-0.0606486,0.86134
428.515,23.0581,-2.75011,-0.0625009,0.86104
429.115,23.07695,-2.75195,-0.06779595,0.86074
429.715,23.09573,-2.75311,-0.07005031,0.86044
430.315,23.11458,-2.7546,-0.07047923,0.86013
430.915,23.13342,-2.75577,-0.07350051,0.85983
431.515,23.1523,-2.75619,-0.07566766,0.85953
432.115,23.17109,-2.75784,-0.07867898,0.85923
432.715,23.18995,-2.7578,-0.08047878,0.85893
433.315,23.2087,-2.76074,-0.08035348,0.85863
433.915,23.22758,-2.7625,-0.08123423,0.85833
434.515,23.24642,-2.76424,-0.08350837,0.85803
435.115,23.26531,-2.76604,-0.08430106,0.85773
435.715,23.28435,-2.7683,-0.08314804,0.85742
436.315,23.30334,-2.77027,-0.0849064,0.85712
436.915,23.32224,-2.77212,-0.08736612,0.85682
437.515,23.3412,-2.77343,-0.08669114,0.85652
438.115,23.36009,-2.77457,-0.0866531,0.85622
438.715,23.37904,-2.77647,-0.0891403,0.85591
439.315,23.39797,-2.77833,-0.08707875,0.85561
439.915,23.4169,-2.78069,-0.08967017,0.85531
440.515,23.43585,-2.78261,-0.08823175,0.855
441.115,23.4548,-2.78396,-0.08692581,0.8547
441.715,23.47374,-2.78446,-0.08785116,0.8544
442.315,23.49271,-2.78584,-0.08861926,0.85409
442.915,23.51175,-2.78674,-0.08933444,0.85379
443.515,23.53071,-2.78746,-0.09022638,0.85349
444.115,23.5497,-2.78911,-0.08845739,0.85318
444.715,23.56867,-2.79082,-0.08899563,0.85288
445.315,23.58764,-2.79245,-0.08737576,0.85257
445.915,23.60654,-2.7934,-0.08713879,0.85227
446.515,23.6255,-2.79455,-0.08629392,0.85196
447.115,23.64452,-2.79599,-0.0852541,0.85166
447.715,23.6635,-2.79769,-0.08852538,0.85135
448.315,23.68241,-2.79927,-0.08433631,0.85105
448.915,23.70123,-2.80065,-0.07918992,0.85074
449.515,23.72017,-2.80156,-0.07932109,0.85044
450.115,23.7392,-2.80324,-0.0810035,0.85013
450.715,23.75826,-2.8046,-0.07767629,0.84982
451.315,23.7775,-2.80458,-0.07779367,0.84952
451.915,23.79672,-2.80612,-0.07579893,0.84921
452.515,23.8158,-2.80754,-0.0760444,0.8489
453.115,23.8349,-2.80931,-0.07490982,0.8486
453.715,23.85393,-2.81134,-0.07446984,0.84829
454.315,23.873,-2.8128,-0.07347081,0.84798
454.915,23.89205,-2.81373,-0.06973992,0.84768
455.515,23.91104,-2.8155,-0.06891135,0.84737
456.115,23.93,-2.81617,-0.06714056,0.84706
456.715,23.94904,-2.81694,-0.06652443,0.84675
457.315,23.96807,-2.81869,-0.06726518,0.84644
457.915,23.98714,-2.81995,-0.06627682,0.84614
458.515,24.00623,-2.82003,-0.06330126,0.84583
459.115,24.02535,-2.82151,-0.06308956,0.84552
459.715,24.0444,-2.82215,-0.05941978,0.84521
460.315,24.06352,-2.8239,-0.05692152,0.8449
460.915,24.0826,-2.8249,-0.05794632,0.84459
461.515,24.1017,-2.8256,-0.05594942,0.84428
462.115,24.1208,-2.82692,-0.05193477,0.84397
462.715,24.13991,-2.8281,-0.05438792,0.84366
463.315,24.15897,-2.82878,-0.05398077,0.84335
463.915,24.17803,-2.8302,-0.05060684,0.84304
464.515,24.19717,-2.83174,-0.05199515,0.84273
465.115,24.21621,-2.83317,-0.04830025,0.84241
465.715,24.23537,-2.83381,-0.04620367,0.8421
466.315,24.25445,-2.83501,-0.04426965,0.84179
466.915,24.2735,-2.83664,-0.04418885,0.84148
467.515,24.29262,-2.83768,-0.04417129,0.84117
468.115,24.3117,-2.8389,-0.0406997,0.84086
468.715,24.33084,-2.84073,-0.04074104,0.84054
469.315,24.34996,-2.8422,-0.03738222,0.84023
469.915,24.36907,-2.84294,-0.04049237,0.83992
470.515,24.38815,-2.84419,-0.03529957,0.8396
471.115,24.4072,-2.84493,-0.03517621,0.83929
471.715,24.42632,-2.84562,-0.03544863,0.83898
472.315,24.4454,-2.84684,-0.03423687,0.83866
472.915,24.4646,-2.84748,-0.03149637,0.83835
473.515,24.48368,-2.84872,-0.02828796,0.83803
474.115,24.50282,-2.84883,-0.03137516,0.83772
474.715,24.52196,-2.85003,-0.02840769,0.8374
475.315,24.5411,-2.85009,-0.02703544,0.83709
475.915,24.56024,-2.85257,-0.027412,0.83677
476.515,24.57938,-2.85405,-0.02714317,0.83646
477.115,24.5985,-2.85475,-0.02457493,0.83614
477.715,24.61763,-2.85469,-0.02648174,0.83582
478.315,24.6368,-2.85589,-0.02641297,0.83551
478.915,24.6559,-2.85595,-0.02509535,0.83519
479.515,24.67514,-2.85564,-0.02477957,0.83487
480.115,24.69431,-2.85653,-0.02335477,0.83456
480.715,24.71341,-2.85761,-0.0242513,0.83424
481.315,24.7325,-2.8581,-0.02441014,0.83392
481.915,24.7515,-2.85941,-0.02235437,0.8336
482.515,24.77064,-2.86077,-0.02233473,0.83329
483.115,24.78977,-2.86119,-0.02230568,0.83297
483.715,24.80894,-2.86259,-0.01984442,0.83265
484.315,24.8281,-2.86283,-0.02351784,0.83233
484.915,24.8473,-2.86417,-0.01815047,0.83201
485.515,24.8663,-2.86454,-0.02054071,0.83169
486.115,24.8855,-2.86559,-0.02107886,0.83137
486.715,24.90455,-2.8655,-0.020956,0.83105
487.315,24.92364,-2.86736,-0.02130765,0.83073
487.915,24.94274,-2.86814,-0.022693,0.83041
488.515,24.96196,-2.86812,-0.01948322,0.83009
489.115,24.98105,-2.86927,-0.02031218,0.82977
489.715,25.00021,-2.87024,-0.02133631,0.82944
490.315,25.0194,-2.87116,-0.01934846,0.82912
490.915,25.03846,-2.87237,-0.02169385,0.8288
491.515,25.0576,-2.87385,-0.02305667,0.82848
492.115,25.0767,-2.87441,-0.02210386,0.82815
492.715,25.09581,-2.87568,-0.02015671,0.82783
493.315,25.11484,-2.87712,-0.0196605,0.82751
493.915,25.13393,-2.87816,-0.02237275,0.82718
494.515,25.153,-2.87844,-0.02150827,0.82686
495.115,25.17204,-2.87941,-0.02187777,0.82654
495.715,25.19117,-2.8799,-0.01980101,0.82621
496.315,25.21029,-2.88034,-0.02102117,0.82589
496.915,25.22945,-2.87989,-0.02207415,0.82556
497.515,25.24863,-2.88096,-0.0230907,0.82524
498.115,25.26784,-2.88138,-0.02322217,0.82491
498.715,25.287,-2.88306,-0.02310428,0.82458
499.315,25.30623,-2.883,-0.02343222,0.82426
499.915,25.32539,-2.88438,-0.02162814,0.82393
500.515,25.3446,-2.88468,-0.02189268,0.8236
501.115,25.36381,-2.88602,-0.02245033,0.82328
501.715,25.383,-2.88776,-0.0244735,0.82295
502.315,25.4023,-2.88918,-0.02182442,0.82262
502.915,25.42134,-2.89036,-0.02337211,0.82229
503.515,25.44053,-2.89118,-0.02502164,0.82197
504.115,25.4597,-2.89253,-0.02298969,0.82164
504.715,25.47885,-2.89253,-0.02471945,0.82131
505.315,25.49804,-2.89341,-0.02362047,0.82098
505.915,25.5174,-2.89384,-0.02287188,0.82065
506.515,25.53654,-2.89383,-0.02350164,0.82032
507.115,25.55572,-2.89363,-0.02459011,0.81999
507.715,25.5749,-2.89637,-0.02120505,0.81966
508.315,25.59393,-2.89628,-0.02386946,0.81933
508.915,25.61309,-2.89758,-0.02571287,0.819
509.515,25.63233,-2.89759,-0.02371336,0.81866
510.115,25.65161,-2.8992,-0.02190213,0.81833
510.715,25.67083,-2.89931,-0.0234054,0.818
511.315,25.69023,-2.90009,-0.02478507,0.81767
511.915,25.70944,-2.90076,-0.0244147,0.81734
512.515,25.7287,-2.90224,-0.02560145,0.817
513.115,25.7479,-2.90325,-0.02797895,0.81667
513.715,25.76717,-2.90453,-0.02966157,0.81634
514.315,25.78644,-2.9046,-0.02969753,0.816
514.915,25.80568,-2.90617,-0.02569629,0.81567
515.515,25.82495,-2.90605,-0.02687188,0.81533
516.115,25.8442,-2.90608,-0.02541977,0.815
516.715,25.86344,-2.90623,-0.0287675,0.81466
517.315,25.88266,-2.90627,-0.02698368,0.81433
517.915,25.90192,-2.90765,-0.027784,0.81399
518.515,25.92114,-2.90756,-0.03057741,0.81365
519.115,25.9404,-2.90754,-0.02683602,0.81332
519.715,25.95962,-2.90858,-0.02715931,0.81298
520.315,25.97881,-2.90887,-0.0302864,0.81264
520.915,25.9981,-2.90884,-0.03158724,0.8123
521.515,26.0173,-2.91012,-0.03008778,0.81197
522.115,26.03664,-2.91035,-0.03245986,0.81163
522.715,26.05593,-2.91158,-0.0303823,0.81129
523.315,26.07525,-2.91184,-0.03097417,0.81095
523.915,26.09458,-2.91313,-0.03098378,0.81061
524.515,26.1139,-2.91346,-0.0312184,0.81027
525.115,26.13319,-2.91441,-0.02977714,0.80993
525.715,26.15258,-2.91585,-0.03179182,0.80959
526.315,26.17194,-2.91625,-0.03239079,0.80925
526.915,26.19136,-2.91756,-0.03113716,0.80891
527.515,26.2108,-2.9176,-0.03363738,0.80857
528.115,26.2302,-2.91889,-0.0344456,0.80822
528.715,26.24949,-2.91886,-0.0314195,0.80788
529.315,26.26884,-2.91884,-0.0338784,0.80754
529.915,26.28817,-2.92021,-0.03406791,0.8072
530.515,26.30746,-2.91886,-0.03407307,0.80685
531.115,26.3268,-2.9188,-0.03541519,0.80651
531.715,26.3461,-2.92003,-0.03567228,0.80617
532.315,26.3654,-2.92006,-0.0355641,0.80582
532.915,26.38472,-2.92144,-0.0354156,0.80548
533.515,26.404,-2.9215,-0.04053142,0.80513
534.115,26.42329,-2.92169,-0.03680974,0.80479
534.715,26.44267,-2.92285,-0.03876474,0.80444
535.315,26.462,-2.9228,-0.03569505,0.80409
535.915,26.4814,-2.9228,-0.04041881,0.80375
536.515,26.50075,-2.92278,-0.0395554,0.8034
537.115,26.5201,-2.92354,-0.03971768,0.80305
537.715,26.5394,-2.92412,-0.03972261,0.8027
538.315,26.55882,-2.92442,-0.0409096,0.80236
538.915,26.57815,-2.92545,-0.04101932,0.80201
539.515,26.59755,-2.92544,-0.04233368,0.80166
540.115,26.61703,-2.92591,-0.04353644,0.80131
540.715,26.63648,-2.92678,-0.04386918,0.80096
541.315,26.6559,-2.92675,-0.04112183,0.80061
541.915,26.67535,-2.92774,-0.04180414,0.80026
542.515,26.69472,-2.92805,-0.04429203,0.79991
543.115,26.7141,-2.92806,-0.04395255,0.79956
543.715,26.73344,-2.92889,-0.04349271,0.79921
544.315,26.7527,-2.93074,-0.0417288,0.79886
544.915,26.7721,-2.93166,-0.04125619,0.7985
545.515,26.79141,-2.93285,-0.03771431,0.79815
546.115,26.81079,-2.934,-0.03882575,0.7978
546.715,26.83019,-2.93587,-0.03391717,0.79745
547.315,26.8497,-2.93754,-0.03450256,0.79709
547.915,26.86907,-2.9375,-0.03509077,0.79674
548.515,26.88846,-2.93898,-0.03355606,0.79638
549.115,26.90788,-2.93926,-0.03064763,0.79603
549.715,26.9273,-2.94051,-0.03190022,0.79567
550.315,26.9467,-2.94047,-0.02935194,0.79532
550.915,26.96612,-2.94047,-0.02947339,0.79496
551.515,26.9856,-2.94046,-0.02370492,0.79461
552.115,27.0051,-2.94031,-0.02351418,0.79425
552.715,27.0245,-2.93979,-0.02139274,0.79389
553.315,27.04395,-2.93981,-0.01990462,0.79353
553.915,27.0634,-2.93981,-0.0199779,0.79318
554.515,27.08277,-2.93981,-0.01899022,0.79282
555.115,27.10218,-2.93985,-0.0191461,0.79246
555.715,27.12162,-2.94284,-0.01658859,0.7921
556.315,27.1411,-2.94267,-0.01739801,0.79174
556.915,27.16052,-2.94275,-0.01693486,0.79138
557.515,27.18001,-2.94397,-0.01564277,0.79102
558.115,27.19947,-2.94397,-0.01633253,0.79066
558.715,27.21896,-2.94427,-0.01708284,0.7903
559.315,27.2384,-2.94692,-0.0163612,0.78994
559.915,27.25787,-2.94686,-0.01570084,0.78958
560.515,27.2774,-2.94733,-0.01595615,0.78921
561.115,27.29693,-2.94671,-0.01353125,0.78885
561.715,27.31642,-2.94562,-0.01379089,0.78849
562.315,27.3359,-2.94541,-0.01558232,0.78812
562.915,27.35537,-2.94639,-0.01413687,0.78776
563.515,27.37485,-2.94665,-0.01549152,0.7874
564.115,27.39433,-2.9479,-0.01551703,0.78703
564.715,27.4139,-2.94833,-0.01467738,0.78667
565.315,27.43338,-2.94918,-0.01452335,0.7863
565.915,27.4528,-2.94917,-0.01503172,0.78594
566.515,27.4723,-2.95055,-0.01560023,0.78557
567.115,27.49178,-2.95046,-0.01672958,0.7852
567.715,27.51128,-2.95045,-0.01503745,0.78484
568.315,27.53075,-2.95045,-0.01658867,0.78447
568.915,27.5503,-2.95088,-0.01464608,0.7841
569.515,27.5698,-2.95175,-0.01583186,0.78373
570.115,27.58932,-2.95176,-0.01651693,0.78336
570.715,27.60884,-2.95176,-0.01302584,0.78299
571.315,27.62837,-2.95174,-0.01253565,0.78262
571.915,27.64783,-2.95304,-0.01548791,0.78225
572.515,27.66722,-2.95387,-0.01451137,0.78188
573.115,27.68675,-2.95439,-0.0155776,0.78151
573.715,27.7063,-2.95548,-0.01620922,0.78114
574.315,27.7259,-2.95569,-0.01774699,0.78077
574.915,27.7456,-2.95571,-0.01535108,0.7804
575.515,27.7652,-2.95571,-0.01787733,0.78003
576.115,27.7848,-2.95579,-0.01726216,0.77965
576.715,27.8043,-2.95711,-0.01758822,0.77928
577.315,27.82385,-2.95702,-0.02051787,0.77891
577.915,27.8434,-2.95694,-0.02231631,0.77853
578.515,27.86298,-2.95824,-0.02196541,0.77816
579.115,27.8826,-2.95836,-0.02341096,0.77778
579.715,27.9022,-2.95861,-0.02422505,0.77741
580.315,27.92165,-2.95991,-0.02807147,0.77703
580.915,27.94115,-2.96002,-0.02693031,0.77666
581.515,27.96074,-2.96132,-0.02609558,0.77628
582.115,27.98033,-2.96138,-0.02853604,0.7759
582.715,27.99989,-2.96274,-0.02823692,0.77552
583.315,28.01966,-2.96275,-0.03023937,0.77515
583.915,28.03935,-2.96405,-0.03281019,0.77477
584.515,28.05893,-2.96403,-0.03358136,0.77439
585.115,28.0786,-2.96536,-0.03060906,0.77401
585.715,28.0982,-2.96562,-0.03318309,0.77363
586.315,28.11785,-2.9667,-0.03248639,0.77325
586.915,28.1375,-2.96668,-0.03225019,0.77287
587.515,28.15718,-2.9666,-0.03412349,0.77249
588.115,28.17687,-2.96798,-0.0343728,0.77211
588.715,28.1964,-2.968,-0.03613482,0.77173
589.315,28.21613,-2.96814,-0.03487753,0.77134
589.915,28.23582,-2.96925,-0.03511029,0.77096
590.515,28.2555,-2.96793,-0.03573155,0.77058
591.115,28.2752,-2.96808,-0.03894052,0.77019
591.715,28.29495,-2.96939,-0.03893233,0.76981
592.315,28.31464,-2.96931,-0.03925832,0.76943
592.915,28.33431,-2.96922,-0.04085969,0.76904
593.515,28.3541,-2.97056,-0.03878896,0.76866
594.115,28.37378,-2.97062,-0.04319705,0.76827
594.715,28.3935,-2.97062,-0.04199372,0.76788
595.315,28.41318,-2.97062,-0.04288473,0.7675
595.915,28.4329,-2.97061,-0.04390243,0.76711
596.515,28.45262,-2.97055,-0.04340788,0.76672
597.115,28.4724,-2.97181,-0.04285139,0.76634
597.715,28.49206,-2.97194,-0.04706573,0.76595
598.315,28.51182,-2.97256,-0.04586187,0.76556
598.915,28.5316,-2.97334,-0.0434731,0.76517
599.515,28.5514,-2.97391,-0.0484257,0.76478
600.115,28.57108,-2.97465,-0.04856225,0.76439
600.715,28.59089,-2.97508,-0.04456815,0.764
601.315,28.61063,-2.97534,-0.04807812,0.76361
601.915,28.6303,-2.97534,-0.04893884,0.76322
602.515,28.6501,-2.97534,-0.04735266,0.76282
603.115,28.6698,-2.97534,-0.04788196,0.76243
603.715,28.68947,-2.97533,-0.05014905,0.76204
604.315,28.70921,-2.97633,-0.05032681,0.76165
604.915,28.72893,-2.97666,-0.05237135,0.76125
605.515,28.74861,-2.97727,-0.05128231,0.76086
606.115,28.76835,-2.97801,-0.05358835,0.76046
606.715,28.78805,-2.97727,-0.05017876,0.76007
607.315,28.80776,-2.97858,-0.05192822,0.75967
607.915,28.82746,-2.97862,-0.04894524,0.75928
608.515,28.8472,-2.9798,-0.05074998,0.75888
609.115,28.8669,-2.97995,-0.05024997,0.75849
609.715,28.8867,-2.98062,-0.05145101,0.75809
610.315,28.90642,-2.98196,-0.05392106,0.75769
610.915,28.92616,-2.98193,-0.05189151,0.75729
611.515,28.94592,-2.98205,-0.04948746,0.75689
612.115,28.96568,-2.98331,-0.05283455,0.75649
612.715,28.98535,-2.98324,-0.05310889,0.7561
613.315,29.00512,-2.98314,-0.05058447,0.7557
613.915,29.02485,-2.9845,-0.05606297,0.7553
614.515,29.04458,-2.98455,-0.05368925,0.75489
615.115,29.0643,-2.98449,-0.05471168,0.75449
615.715,29.0841,-2.98303,-0.05342389,0.75409
616.315,29.1039,-2.9831,-0.05422819,0.75369
616.915,29.1237,-2.98269,-0.05355045,0.75329
617.515,29.1434,-2.98217,-0.0523168,0.75288
618.115,29.1632,-2.98214,-0.05465255,0.75248
618.715,29.183,-2.9821,-0.05184551,0.75208
619.315,29.2027,-2.98067,-0.0528605,0.75167
619.915,29.2225,-2.9821,-0.05240714,0.75127
620.515,29.2423,-2.98147,-0.05600492,0.75086
621.115,29.26203,-2.9824,-0.05295145,0.75046
621.715,29.2818,-2.98341,-0.0544689,0.75005
622.315,29.30163,-2.98401,-0.05511233,0.74964
622.915,29.32137,-2.9854,-0.05352525,0.74924
623.515,29.3411,-2.98531,-0.05456472,0.74883
624.115,29.3608,-2.98612,-0.05130451,0.74842
624.715,29.3805,-2.98663,-0.05201911,0.74801
625.315,29.4003,-2.98668,-0.05037018,0.7476
625.915,29.4201,-2.98798,-0.05250209,0.74719
626.515,29.4399,-2.98796,-0.04774729,0.74678
627.115,29.45976,-2.98796,-0.0507392,0.74637
627.715,29.4795,-2.98796,-0.04699477,0.74596
628.315,29.49928,-2.98796,-0.0498178,0.74555
628.915,29.5191,-2.98928,-0.04909605,0.74514
629.515,29.53885,-2.9893,-0.04231727,0.74473
630.115,29.5586,-2.98889,-0.04744469,0.74431
630.715,29.57834,-2.98927,-0.04486844,0.7439
631.315,29.59812,-2.98951,-0.0429056,0.74349
631.915,29.61777,-2.99072,-0.04606971,0.74307
632.515,29.6375,-2.99083,-0.04380482,0.74266
633.115,29.65738,-2.99359,-0.04074009,0.74224
633.715,29.6772,-2.99404,-0.04379422,0.74183
634.315,29.697,-2.99501,-0.0414689,0.74141
634.915,29.717,-2.99498,-0.04206856,0.741
635.515,29.7368,-2.995,-0.03739618,0.74058
636.115,29.7566,-2.99571,-0.03953759,0.74016
636.715,29.7764,-2.9963,-0.03805547,0.73974
637.315,29.79617,-2.9963,-0.0401986,0.73933
637.915,29.8158,-2.9963,-0.0353978,0.73891
638.515,29.83545,-2.9963,-0.03679205,0.73849
639.115,29.8552,-2.9963,-0.03553069,0.73807
639.715,29.875,-2.99631,-0.03580434,0.73765
640.315,29.89485,-2.9966,-0.03606093,0.73723
640.915,29.91483,-2.99858,-0.03412716,0.73681
641.515,29.9348,-2.9989,-0.03156462,0.73639
642.115,29.9546,-2.99892,-0.03262749,0.73596
642.715,29.97433,-2.99892,-0.03200815,0.73554
643.315,29.99408,-2.99892,-0.03136624,0.73512
643.915,30.0139,-2.99893,-0.02945476,0.7347
644.515,30.0337,-2.99914,-0.02906805,0.73427
645.115,30.0535,-3.00042,-0.0262288,0.73385
645.715,30.0734,-3.00057,-0.02547736,0.73342
646.315,30.09317,-3.00171,-0.02565558,0.733
646.915,30.113,-3.00169,-0.02319665,0.73257
647.515,30.13277,-3.0032,-0.02188289,0.73215
648.115,30.1526,-3.00309,-0.02195286,0.73172
648.715,30.1724,-3.00375,-0.02021585,0.73129
649.315,30.19221,-3.0044,-0.01761965,0.73087
649.915,30.21208,-3.00458,-0.02004206,0.73044
650.515,30.23195,-3.00505,-0.0174033,0.73001
651.115,30.25174,-3.00504,-0.01185398,0.72958
651.715,30.27157,-3.00585,-0.01595104,0.72915
652.315,30.29137,-3.00605,-0.01536444,0.72872
652.915,30.31118,-3.0061,-0.01294265,0.72829
653.515,30.33097,-3.00637,-0.014076,0.72786
654.115,30.35081,-3.00635,-0.01211961,0.72743
654.715,30.3706,-3.00748,-0.00988686,0.727
655.315,30.39045,-3.00774,-0.00809136,0.72657
655.915,30.41034,-3.00926,-0.009066857,0.72613
656.515,30.4302,-3.01001,-0.007100937,0.7257
657.115,30.4501,-3.00962,-0.00728894,0.72527
657.715,30.47,-3.00972,-0.005405361,0.72483
658.315,30.4898,-3.01099,-0.000999554,0.7244
658.915,30.5096,-3.01099,-0.001855704,0.72396
659.515,30.52945,-3.01099,0.001323428,0.72353
660.115,30.5492,-3.01099,0.0008139308,0.72309
660.715,30.5691,-3.0113,0.004303058,0.72265
661.315,30.5889,-3.01197,0.00979581,0.72222
661.915,30.60877,-3.01197,0.00802855,0.72178
662.515,30.62864,-3.01197,0.0118161,0.72134
663.115,30.6485,-3.01197,0.01408418,0.7209
663.715,30.6684,-3.01197,0.01482545,0.72047
664.315,30.688,-3.01321,0.01740929,0.72003
664.915,30.70784,-3.01328,0.01935648,0.71959
665.515,30.7277,-3.01329,0.02336978,0.71915
666.115,30.7475,-3.0147,0.02429845,0.71871
666.715,30.76748,-3.01595,0.02534813,0.71827
667.315,30.7874,-3.01593,0.0312688,0.71782
667.915,30.80735,-3.01593,0.03205476,0.71738
668.515,30.8272,-3.01592,0.03552254,0.71694
669.115,30.84706,-3.01568,0.03728858,0.7165
669.715,30.8668,-3.01574,0.03941974,0.71605
670.315,30.88668,-3.01581,0.04307022,0.71561
670.915,30.90655,-3.01582,0.04633148,0.71517
671.515,30.92642,-3.01582,0.04586727,0.71472
672.115,30.9462,-3.01581,0.05019915,0.71428
672.715,30.9661,-3.01573,0.0546091,0.71383
673.315,30.986,-3.0171,0.05640603,0.71338
673.915,31.00582,-3.01713,0.05672197,0.71294
674.515,31.02563,-3.01713,0.06351138,0.71249
675.115,31.0456,-3.01713,0.06468737,0.71204
675.715,31.06542,-3.01712,0.06436461,0.71159
676.315,31.0853,-3.01811,0.07154053,0.71115
676.915,31.1051,-3.01843,0.07216091,0.7107
677.515,31.12492,-3.01845,0.07523378,0.71025
678.115,31.1448,-3.01844,0.0785788,0.7098
678.715,31.1646,-3.01835,0.08191821,0.70935
679.315,31.1844,-3.01962,0.08519616,0.7089
679.915,31.2042,-3.02101,0.08645329,0.70844
680.515,31.2241,-3.02191,0.08886273,0.70799
681.115,31.2439,-3.02226,0.09579574,0.70754
681.715,31.2637,-3.02397,0.09910278,0.70709
682.315,31.28355,-3.02503,0.09993765,0.70663
682.915,31.3034,-3.02588,0.10668,0.70618
683.515,31.3232,-3.0273,0.10414,0.70573
684.115,31.34308,-3.02896,0.10953,0.70527
684.715,31.3629,-3.03023,0.11378,0.70482
685.315,31.3828,-3.03149,0.11621,0.70436
685.915,31.40263,-3.03237,0.11465,0.70391
686.515,31.4224,-3.0338,0.11789,0.70345
687.115,31.44224,-3.0353,0.12103,0.70299
687.715,31.4621,-3.03626,0.12253,0.70253
688.315,31.48197,-3.03718,0.12236,0.70208
688.915,31.50184,-3.03741,0.12729,0.70162
689.515,31.52174,-3.03853,0.12632,0.70116
690.115,31.54165,-3.03851,0.1257,0.7007
690.715,31.56154,-3.03834,0.12741,0.70024
691.315,31.58144,-3.03709,0.13054,0.69978
691.915,31.6013,-3.03656,0.12604,0.69932
692.515,31.6212,-3.03578,0.12676,0.69886
693.115,31.6411,-3.03659,0.12608,0.6984
693.715,31.66098,-3.03708,0.12445,0.69794
694.315,31.6809,-3.03709,0.12439,0.69747
694.915,31.70073,-3.0371,0.13004,0.69701
695.515,31.7207,-3.03848,0.12372,0.69655
696.115,31.7405,-3.03842,0.12402,0.69608
696.715,31.76035,-3.03977,0.12325,0.69562
697.315,31.78023,-3.04085,0.12199,0.69515
697.915,31.8002,-3.04261,0.12184,0.69469
698.515,31.8201,-3.04259,0.1165,0.69422
699.115,31.84,-3.04264,0.11633,0.69376
699.715,31.85995,-3.04391,0.11603,0.69329
700.315,31.87978,-3.04394,0.11148,0.69282
700.915,31.89968,-3.04521,0.11256,0.69236
701.515,31.91955,-3.0452,0.10288,0.69189
702.115,31.93941,-3.04522,0.10126,0.69142
702.715,31.95931,-3.04521,0.09539379,0.69095
703.315,31.97921,-3.04521,0.09347502,0.69048
703.915,31.99917,-3.04653,0.08618726,0.69001
704.515,32.01914,-3.04653,0.08198928,0.68954
705.115,32.0391,-3.0475,0.07752539,0.68907
705.715,32.05912,-3.04718,0.07188413,0.6886
706.315,32.07907,-3.04685,0.06370014,0.68813
706.915,32.09902,-3.04817,0.05927041,0.68765
707.515,32.11893,-3.04817,0.05018178,0.68718
708.115,32.13889,-3.04946,0.04504794,0.68671
708.715,32.15885,-3.04948,0.03920587,0.68623
709.315,32.17881,-3.04946,0.03092494,0.68576
709.915,32.19874,-3.0508,0.02136243,0.68529
710.515,32.2187,-3.05142,0.0142446,0.68481
711.115,32.2387,-3.05212,0.002128259,0.68434
711.715,32.25863,-3.05212,-0.005421768,0.68386
712.315,32.2787,-3.05212,-0.0148257,0.68338
712.915,32.2986,-3.0534,-0.0209174,0.68291
713.515,32.3185,-3.05344,-0.02958812,0.68243
714.115,32.33855,-3.05345,-0.03407132,0.68195
714.715,32.35853,-3.05436,-0.04449921,0.68147
715.315,32.37852,-3.05486,-0.05249533,0.681
715.915,32.3985,-3.05486,-0.06440403,0.68052
716.515,32.41854,-3.05486,-0.06657824,0.68004
717.115,32.4385,-3.05487,-0.07282376,0.67956
717.715,32.45852,-3.0542,-0.08127867,0.67908
718.315,32.47852,-3.05485,-0.09053016,0.6786
718.915,32.4985,-3.05486,-0.09254269,0.67812
719.515,32.51854,-3.05486,-0.09685212,0.67763
720.115,32.53852,-3.05624,-0.10273,0.67715
720.715,32.55847,-3.05625,-0.10196,0.67667
721.315,32.57846,-3.0577,-0.1082,0.67619
721.915,32.5985,-3.05798,-0.10859,0.6757
722.515,32.61851,-3.05904,-0.11403,0.67522
723.115,32.63856,-3.059,-0.11174,0.67473
723.715,32.65862,-3.06034,-0.11495,0.67425
724.315,32.67864,-3.06034,-0.11689,0.67376
724.915,32.6987,-3.06034,-0.11959,0.67328
725.515,32.7187,-3.06163,-0.11721,0.67279
726.115,32.7388,-3.06166,-0.12223,0.67231
726.715,32.75887,-3.06166,-0.12725,0.67182
727.315,32.77887,-3.06166,-0.12312,0.67133
727.915,32.79895,-3.06166,-0.12518,0.67084
728.515,32.819,-3.06166,-0.12724,0.67035
729.115,32.839,-3.06308,-0.12584,0.66987
729.715,32.859,-3.06309,-0.12685,0.66938
730.315,32.87892,-3.06461,-0.12986,0.66889
730.915,32.89895,-3.06332,-0.12879,0.6684
731.515,32.91897,-3.06331,-0.13116,0.66791
732.115,32.93906,-3.06331,-0.12987,0.66741
732.715,32.9592,-3.06331,-0.1279,0.66692
733.315,32.97926,-3.06496,-0.1318,0.66643
733.915,32.99933,-3.06594,-0.12866,0.66594
734.515,33.01939,-3.06594,-0.12963,0.66545
735.115,33.03935,-3.06594,-0.13213,0.66495
735.715,33.05948,-3.06596,-0.13041,0.66446
736.315,33.07956,-3.06725,-0.13145,0.66396
736.915,33.09966,-3.06725,-0.12904,0.66347
737.515,33.11981,-3.06725,-0.13319,0.66297
738.115,33.13985,-3.0686,-0.13132,0.66248
738.715,33.15992,-3.06857,-0.13329,0.66198
739.315,33.18002,-3.0686,-0.1335,0.66149
739.915,33.2001,-3.06991,-0.13185,0.66099
740.515,33.2202,-3.06989,-0.13236,0.66049
741.115,33.24027,-3.06989,-0.13389,0.66
741.715,33.26039,-3.07036,-0.13599,0.6595
742.315,33.2805,-3.07151,-0.13509,0.659
742.915,33.30146,-3.07153,-0.13607,0.6585
743.515,33.32261,-3.07153,-0.13482,0.658
743.815,33.3316,-3.07153,-0.13627,0.65775