File: 01_Data/Gypsum_Wallboard_Paper/STA/N2/30K_min/Gypsum_Wallboard_Paper_STA_N2_30KData_220217_R3.csv
##Temp./Â°C,Time/min,Mass loss(subtr.2)/mg,DSC(subtr.2)/(mW/mg),Sensit./(uV/mW)
48.688,10.01,-0.03751,0.02453931,1.08898
49.288,10.53122,-0.0374422,0.0539266,1.08848
49.888,10.64902,-0.03949154,0.08398865,1.08797
50.488,10.7324,-0.04061254,0.11205,1.08746
51.088,10.801,-0.03923712,0.13615,1.08696
51.688,10.86036,-0.03784369,0.15966,1.08646
52.288,10.91257,-0.037453,0.18065,1.08595
52.888,10.9603,-0.03542173,0.2005,1.08545
53.488,11.00498,-0.03479225,0.22119,1.08495
54.088,11.04664,-0.03461654,0.24036,1.08444
54.688,11.0859,-0.03489522,0.25783,1.08394
55.288,11.1235,-0.03609165,0.27711,1.08344
55.888,11.15928,-0.0368078,0.29223,1.08294
56.488,11.19382,-0.03865505,0.30759,1.08244
57.088,11.227,-0.03824481,0.32374,1.08195
57.688,11.25935,-0.03727524,0.33805,1.08145
58.288,11.2906,-0.03905759,0.35404,1.08095
58.888,11.3211,-0.03883544,0.36762,1.08045
59.488,11.3507,-0.03975586,0.38206,1.07996
60.088,11.37989,-0.04024626,0.39655,1.07946
60.688,11.4084,-0.04115572,0.40803,1.07897
61.288,11.43639,-0.04079207,0.42296,1.07847
61.888,11.4637,-0.04044658,0.4357,1.07798
62.488,11.4906,-0.04104117,0.44646,1.07749
63.088,11.51717,-0.04137982,0.45883,1.07699
63.688,11.54331,-0.04128716,0.47111,1.0765
64.288,11.56906,-0.04204633,0.48352,1.07601
64.888,11.59468,-0.04234134,0.49409,1.07552
65.488,11.61991,-0.04222184,0.50736,1.07503
66.088,11.645,-0.04105572,0.51596,1.07454
66.688,11.66972,-0.04046654,0.52658,1.07405
67.288,11.69415,-0.03934883,0.53757,1.07356
67.888,11.71836,-0.03884195,0.54576,1.07308
68.488,11.7423,-0.03852496,0.55832,1.07259
69.088,11.7661,-0.04008353,0.56834,1.0721
69.688,11.7898,-0.0405612,0.57835,1.07162
70.288,11.81344,-0.0420518,0.58614,1.07113
70.888,11.8368,-0.04300495,0.59712,1.07065
71.488,11.85999,-0.04243993,0.60724,1.07017
72.088,11.88313,-0.04167549,0.6171,1.06968
72.688,11.90606,-0.04192372,0.62615,1.0692
73.288,11.929,-0.04189045,0.63357,1.06872
73.888,11.95171,-0.04258966,0.6435,1.06824
74.488,11.97432,-0.04302901,0.65234,1.06776
75.088,11.99681,-0.04283457,0.66273,1.06728
75.688,12.0191,-0.0441338,0.67194,1.0668
76.288,12.04135,-0.04464038,0.68212,1.06632
76.888,12.06351,-0.0458375,0.69126,1.06584
77.488,12.08553,-0.0459726,0.70009,1.06536
78.088,12.10737,-0.04666593,0.70996,1.06489
78.688,12.12907,-0.04762228,0.71934,1.06441
79.288,12.151,-0.04907634,0.72831,1.06393
79.888,12.1727,-0.04954827,0.73685,1.06346
80.488,12.1945,-0.04963513,0.74551,1.06298
81.088,12.2164,-0.04968791,0.75436,1.06251
81.688,12.23755,-0.05027421,0.76467,1.06204
82.288,12.25882,-0.04955006,0.77248,1.06156
82.888,12.28018,-0.04837331,0.78317,1.06109
83.488,12.30158,-0.0488208,0.79014,1.06062
84.088,12.3232,-0.04788566,0.80015,1.06015
84.688,12.3447,-0.04839449,0.80996,1.05968
85.288,12.36577,-0.04816543,0.81722,1.05921
85.888,12.38691,-0.04917034,0.82664,1.05874
86.488,12.40795,-0.05039942,0.83748,1.05827
87.088,12.42895,-0.0507967,0.84575,1.05781
87.688,12.45002,-0.05209879,0.85252,1.05734
88.288,12.47105,-0.05249382,0.86477,1.05687
88.888,12.49191,-0.05244577,0.87204,1.05641
89.488,12.5128,-0.05263539,0.88097,1.05594
90.088,12.5335,-0.05345029,0.88705,1.05548
90.688,12.55419,-0.05241369,0.89847,1.05501
91.288,12.57489,-0.05241957,0.90741,1.05455
91.888,12.59552,-0.05241994,0.91606,1.05409
92.488,12.61621,-0.05241952,0.9254,1.05362
93.088,12.6369,-0.05241347,0.9313,1.05316
93.688,12.65755,-0.0521946,0.94138,1.0527
94.288,12.67809,-0.05181086,0.94862,1.05224
94.888,12.6986,-0.05231452,0.95738,1.05178
95.488,12.71901,-0.05243809,0.96528,1.05132
96.088,12.73943,-0.05347072,0.97278,1.05086
96.688,12.7599,-0.05395697,0.97923,1.05041
97.288,12.78035,-0.05553312,0.98408,1.04995
97.888,12.80077,-0.05754573,0.99279,1.04949
98.488,12.82117,-0.05822964,0.99814,1.04904
99.088,12.8415,-0.05869852,1.0045,1.04858
99.688,12.86186,-0.05953037,1.00935,1.04812
100.288,12.88219,-0.05956303,1.01518,1.04767
100.888,12.90247,-0.06095645,1.0199,1.04722
101.488,12.9229,-0.06087647,1.0253,1.04676
102.088,12.94313,-0.06086813,1.02992,1.04631
102.688,12.9634,-0.06083456,1.033,1.04586
103.288,12.98365,-0.06182712,1.03571,1.04541
103.888,13.00383,-0.06217599,1.03891,1.04496
104.488,13.02398,-0.0621886,1.04172,1.04451
105.088,13.04423,-0.06218416,1.04441,1.04406
105.688,13.06437,-0.06210658,1.04639,1.04361
106.288,13.08457,-0.06343189,1.05119,1.04316
106.888,13.10473,-0.0635082,1.05193,1.04271
107.488,13.12483,-0.06350986,1.05455,1.04227
108.088,13.14509,-0.06350977,1.05455,1.04182
108.688,13.16528,-0.06350684,1.05937,1.04137
109.288,13.18556,-0.06346502,1.05995,1.04093
109.888,13.20594,-0.06476958,1.06244,1.04048
110.488,13.2261,-0.06534534,1.06249,1.04004
111.088,13.2463,-0.06664683,1.06452,1.0396
111.688,13.26626,-0.06800412,1.06555,1.03915
112.288,13.28636,-0.06933876,1.06598,1.03871
112.888,13.3065,-0.06943068,1.06745,1.03827
113.488,13.32654,-0.07069681,1.06885,1.03783
114.088,13.3469,-0.07063429,1.07136,1.03739
114.688,13.36691,-0.07062983,1.07018,1.03695
115.288,13.38695,-0.07062332,1.07068,1.03651
115.888,13.40705,-0.07053815,1.07241,1.03607
116.488,13.427,-0.07192457,1.07232,1.03563
117.088,13.4469,-0.07194902,1.07435,1.03519
117.688,13.4669,-0.07195285,1.0714,1.03476
118.288,13.4868,-0.0720954,1.07142,1.03432
118.888,13.5067,-0.07371608,1.07049,1.03389
119.488,13.5267,-0.07461923,1.07207,1.03345
120.088,13.54665,-0.07458283,1.07159,1.03302
120.688,13.56659,-0.07458022,1.06831,1.03258
121.288,13.5865,-0.07458014,1.06783,1.03215
121.888,13.6064,-0.07458182,1.06711,1.03171
122.488,13.62629,-0.07460555,1.06828,1.03128
123.088,13.64611,-0.07401103,1.06558,1.03085
123.688,13.66598,-0.07496167,1.06466,1.03042
124.288,13.68581,-0.07533978,1.06587,1.02999
124.888,13.70558,-0.07565066,1.06584,1.02956
125.488,13.7254,-0.07666777,1.06652,1.02913
126.088,13.7453,-0.07780072,1.06245,1.0287
126.688,13.765,-0.07800697,1.06344,1.02827
127.288,13.78475,-0.07957733,1.0621,1.02785
127.888,13.80442,-0.08078,1.06245,1.02742
128.488,13.824,-0.08090102,1.06008,1.02699
129.088,13.8436,-0.08233249,1.06051,1.02657
129.688,13.8632,-0.08295036,1.05925,1.02614
130.288,13.88286,-0.08366067,1.05738,1.02572
130.888,13.90241,-0.08378042,1.05682,1.02529
131.488,13.92206,-0.08504169,1.05324,1.02487
132.088,13.94165,-0.08499447,1.05184,1.02445
132.688,13.96125,-0.0849147,1.05104,1.02402
133.288,13.9808,-0.08367717,1.0488,1.0236
133.888,14.00034,-0.08367989,1.0452,1.02318
134.488,14.0198,-0.08368006,1.04269,1.02276
135.088,14.0393,-0.08368278,1.0396,1.02234
135.688,14.0587,-0.08374236,1.03682,1.02192
136.288,14.07816,-0.08120522,1.03129,1.0215
136.888,14.09765,-0.08107292,1.03071,1.02108
137.488,14.11711,-0.08106125,1.02546,1.02066
138.088,14.13655,-0.08106145,1.02125,1.02025
138.688,14.156,-0.0810789,1.01748,1.01983
139.288,14.17539,-0.0814204,1.01434,1.01941
139.888,14.1947,-0.08170149,1.01078,1.019
140.488,14.21401,-0.08171862,1.00655,1.01858
141.088,14.2333,-0.0817199,1.00406,1.01817
141.688,14.2525,-0.08172,0.9995,1.01775
142.288,14.27178,-0.08172005,0.99517,1.01734
142.888,14.291,-0.08172035,0.99142,1.01693
143.488,14.3103,-0.08172108,0.99048,1.01652
144.088,14.3295,-0.08169432,0.98711,1.0161
144.688,14.34864,-0.0830225,0.9886,1.01569
145.288,14.3679,-0.08302918,0.9863,1.01528
145.888,14.3871,-0.08302945,0.98397,1.01487
146.488,14.4063,-0.08302299,0.98152,1.01446
147.088,14.42542,-0.08293563,0.97953,1.01405
147.688,14.44452,-0.08426699,0.97832,1.01365
148.288,14.4636,-0.08429777,0.9789,1.01324
148.888,14.4827,-0.0850646,0.97914,1.01283
149.488,14.50177,-0.08500374,0.97935,1.01242
150.088,14.5209,-0.08500032,0.97666,1.01202
150.688,14.54005,-0.08500012,0.9768,1.01161
151.288,14.5592,-0.08497804,0.97665,1.01121
151.888,14.57826,-0.08625152,0.97455,1.0108
152.488,14.5973,-0.08631237,0.97683,1.0104
153.088,14.61634,-0.08631926,0.97659,1.00999
153.688,14.6354,-0.0863199,0.97613,1.00959
154.288,14.65434,-0.08631957,0.97638,1.00919
154.888,14.67332,-0.08631537,0.97749,1.00879
155.488,14.6923,-0.08687454,0.978,1.00839
156.088,14.71122,-0.08763086,0.97909,1.00799
156.688,14.7302,-0.08765128,0.98086,1.00759
157.288,14.74915,-0.08894587,0.98033,1.00719
157.888,14.76818,-0.08895074,0.98156,1.00679
158.488,14.78705,-0.08897488,0.98121,1.00639
159.088,14.8059,-0.0895106,0.98204,1.00599
159.688,14.8247,-0.09027261,0.98636,1.00559
160.288,14.8436,-0.0910061,0.98599,1.0052
160.888,14.8625,-0.09166093,0.98776,1.0048
161.488,14.8814,-0.09215136,0.98935,1.0044
162.088,14.90042,-0.09300387,0.991,1.00401
162.688,14.91942,-0.09301067,0.99169,1.00361
163.288,14.93829,-0.09300863,0.9954,1.00322
163.888,14.95721,-0.09285891,0.99526,1.00282
164.488,14.9761,-0.09157711,0.99772,1.00243
165.088,14.99491,-0.09100021,0.99999,1.00204
165.688,15.0138,-0.08876007,0.9998,1.00165
166.288,15.03256,-0.08887076,1.00042,1.00125
166.888,15.0512,-0.08813962,1.00233,1.00086
167.488,15.07,-0.08817999,1.00567,1.00047
168.088,15.08889,-0.08817656,1.0067,1.00008
168.688,15.10769,-0.08794581,1.00964,0.99969
169.288,15.1266,-0.08750243,1.01072,0.9993
169.888,15.14551,-0.08751847,1.01069,0.99892
170.488,15.1643,-0.08752097,1.01454,0.99853
171.088,15.1831,-0.08753116,1.01542,0.99814
171.688,15.20188,-0.08761587,1.018,0.99775
172.288,15.22054,-0.08828718,1.02008,0.99737
172.888,15.23925,-0.08830031,1.02134,0.99698
173.488,15.25796,-0.08908426,1.025,0.99659
174.088,15.27665,-0.08960447,1.02725,0.99621
174.688,15.2953,-0.08960694,1.02599,0.99582
175.288,15.3141,-0.08967666,1.03119,0.99544
175.888,15.3327,-0.08843768,1.0328,0.99506
176.488,15.3514,-0.08826611,1.03646,0.99467
177.088,15.37006,-0.0892846,1.03511,0.99429
177.688,15.3887,-0.08961171,1.0388,0.99391
178.288,15.40736,-0.08961033,1.04059,0.99353
178.888,15.426,-0.089611,1.03928,0.99315
179.488,15.44457,-0.08962201,1.04543,0.99277
180.088,15.4632,-0.08975224,1.04591,0.99239
180.688,15.4818,-0.09092479,1.05065,0.99201
181.288,15.5004,-0.09194141,1.05333,0.99163
181.888,15.51901,-0.09224091,1.05279,0.99125
182.488,15.53764,-0.09223576,1.05754,0.99087
183.088,15.5562,-0.09216911,1.05799,0.99049
183.688,15.5748,-0.09296836,1.0626,0.99012
184.288,15.59325,-0.09290503,1.06066,0.98974
184.888,15.6118,-0.09290028,1.06464,0.98937
185.488,15.6303,-0.09290001,1.06706,0.98899
186.088,15.6488,-0.09289996,1.06901,0.98861
186.688,15.6673,-0.09289907,1.07167,0.98824
187.288,15.6858,-0.09288594,1.07272,0.98787
187.888,15.7043,-0.09268081,1.07552,0.98749
188.488,15.7228,-0.09154273,1.07679,0.98712
189.088,15.7412,-0.09158787,1.07933,0.98675
189.688,15.7597,-0.09159023,1.08202,0.98637
190.288,15.7782,-0.09160022,1.08344,0.986
190.888,15.7966,-0.09196293,1.08774,0.98563
191.488,15.81487,-0.09294982,1.0864,0.98526
192.088,15.83319,-0.0929036,1.08991,0.98489
192.688,15.85157,-0.09289993,1.09355,0.98452
193.288,15.86992,-0.09290015,1.09496,0.98415
193.888,15.8884,-0.09165971,1.097,0.98378
194.488,15.9069,-0.09277471,1.09999,0.98341
195.088,15.9254,-0.09288921,1.10068,0.98305
195.688,15.9438,-0.09289951,1.10415,0.98268
196.288,15.96225,-0.09290306,1.10462,0.98231
196.888,15.9806,-0.09291046,1.10722,0.98195
197.488,15.9991,-0.09199264,1.11066,0.98158
198.088,16.01745,-0.09154433,1.11274,0.98121
198.688,16.0358,-0.09193872,1.11434,0.98085
199.288,16.05416,-0.09191249,1.11382,0.98048
199.888,16.07255,-0.09191009,1.1185,0.98012
200.488,16.0909,-0.09190968,1.11962,0.97976
201.088,16.10924,-0.09191298,1.12312,0.97939
201.688,16.1276,-0.09200392,1.12402,0.97903
202.288,16.14593,-0.09084645,1.1271,0.97867
202.888,16.1643,-0.09093626,1.12801,0.97831
203.488,16.18261,-0.09106081,1.13146,0.97795
204.088,16.20095,-0.09192781,1.13377,0.97758
204.688,16.21929,-0.09191945,1.13782,0.97722
205.288,16.2376,-0.09191982,1.13793,0.97686
205.888,16.25584,-0.09191949,1.13994,0.9765
206.488,16.2741,-0.09191441,1.14174,0.97614
207.088,16.29232,-0.09187567,1.14448,0.97579
207.688,16.31063,-0.09294913,1.1472,0.97543
208.288,16.3289,-0.0932314,1.1474,0.97507
208.888,16.3472,-0.0932274,1.15006,0.97471
209.488,16.36554,-0.0931884,1.15281,0.97436
210.088,16.38387,-0.09429522,1.15475,0.974
210.688,16.40213,-0.0949197,1.15622,0.97364
211.288,16.42051,-0.09630407,1.15925,0.97329
211.888,16.43877,-0.09629911,1.16028,0.97293
212.488,16.45702,-0.09629989,1.16463,0.97258
213.088,16.47529,-0.09630089,1.16479,0.97222
213.688,16.49355,-0.09630931,1.16907,0.97187
214.288,16.51181,-0.09636787,1.16959,0.97152
214.888,16.5301,-0.09773315,1.17501,0.97116
215.488,16.54836,-0.09774323,1.17483,0.97081
216.088,16.56661,-0.09837457,1.17603,0.97046
216.688,16.58482,-0.09905043,1.17849,0.97011
217.288,16.6029,-0.09899691,1.18145,0.96975
217.888,16.62106,-0.10012,1.184,0.9694
218.488,16.63928,-0.10045,1.18543,0.96905
219.088,16.6575,-0.10168,1.18901,0.9687
219.688,16.67579,-0.10178,1.19018,0.96835
220.288,16.6942,-0.10179,1.19426,0.968
220.888,16.71242,-0.10179,1.19456,0.96765
221.488,16.73065,-0.10179,1.19727,0.96731
222.088,16.74888,-0.10179,1.2011,0.96696
222.688,16.76703,-0.10184,1.20097,0.96661
223.288,16.7852,-0.10072,1.2041,0.96626
223.888,16.80339,-0.10048,1.20492,0.96592
224.488,16.82154,-0.10047,1.20764,0.96557
225.088,16.8397,-0.10047,1.2091,0.96522
225.688,16.85793,-0.10047,1.20991,0.96488
226.288,16.8761,-0.10155,1.21422,0.96453
226.888,16.89433,-0.10317,1.21528,0.96419
227.488,16.91255,-0.10312,1.21883,0.96384
228.088,16.93072,-0.10317,1.22175,0.9635
228.688,16.94895,-0.10569,1.2218,0.96316
229.288,16.96714,-0.10572,1.22376,0.96281
229.888,16.98526,-0.10573,1.22729,0.96247
230.488,17.0034,-0.10573,1.22801,0.96213
231.088,17.0216,-0.10575,1.231,0.96179
231.688,17.03976,-0.10508,1.22997,0.96144
232.288,17.05797,-0.10564,1.23484,0.9611
232.888,17.07612,-0.10573,1.23345,0.96076
233.488,17.09429,-0.10574,1.23627,0.96042
234.088,17.11241,-0.10574,1.23909,0.96008
234.688,17.1306,-0.10574,1.24071,0.95974
235.288,17.14869,-0.10576,1.2446,0.9594
235.888,17.1669,-0.10641,1.24595,0.95906
236.488,17.18509,-0.10708,1.24696,0.95873
237.088,17.2033,-0.1073,1.25054,0.95839
237.688,17.2214,-0.10839,1.25126,0.95805
238.288,17.23959,-0.10746,1.25484,0.95771
238.888,17.2577,-0.10851,1.25606,0.95737
239.488,17.27582,-0.10838,1.25632,0.95704
240.088,17.29395,-0.10969,1.26024,0.9567
240.688,17.31211,-0.10979,1.26334,0.95637
241.288,17.33032,-0.10979,1.26495,0.95603
241.888,17.34846,-0.11057,1.26741,0.95569
242.488,17.36659,-0.1124,1.27021,0.95536
243.088,17.38475,-0.11238,1.27094,0.95503
243.688,17.40289,-0.11333,1.27265,0.95469
244.288,17.42091,-0.11375,1.27527,0.95436
244.888,17.43909,-0.11467,1.28031,0.95402
245.488,17.45722,-0.11521,1.28125,0.95369
246.088,17.47537,-0.11646,1.28039,0.95336
246.688,17.4935,-0.11637,1.28514,0.95303
247.288,17.51173,-0.11686,1.28781,0.95269
247.888,17.52982,-0.11769,1.28684,0.95236
248.488,17.54792,-0.11602,1.29012,0.95203
249.088,17.566,-0.11637,1.29165,0.9517
249.688,17.5841,-0.11561,1.29464,0.95137
250.288,17.60216,-0.11544,1.29353,0.95104
250.888,17.6203,-0.11619,1.29891,0.95071
251.488,17.63839,-0.11693,1.29711,0.95038
252.088,17.6565,-0.11795,1.29819,0.95005
252.688,17.67461,-0.11821,1.30253,0.94972
253.288,17.69272,-0.11884,1.30468,0.94939
253.888,17.71087,-0.11955,1.30484,0.94906
254.488,17.72906,-0.11957,1.30653,0.94874
255.088,17.7472,-0.12121,1.30801,0.94841
255.688,17.76529,-0.12258,1.30993,0.94808
256.288,17.78339,-0.12426,1.31121,0.94775
256.888,17.80145,-0.12597,1.31218,0.94743
257.488,17.81953,-0.12702,1.31401,0.9471
258.088,17.8376,-0.12877,1.31517,0.94678
258.688,17.85575,-0.13007,1.3163,0.94645
259.288,17.87386,-0.13218,1.31937,0.94612
259.888,17.892,-0.13404,1.32059,0.9458
260.488,17.91006,-0.13568,1.31998,0.94547
261.088,17.92817,-0.13751,1.32454,0.94515
261.688,17.94629,-0.13909,1.32622,0.94483
262.288,17.96434,-0.14095,1.32662,0.9445
262.888,17.98241,-0.14294,1.32593,0.94418
263.488,18.00057,-0.14418,1.32911,0.94386
264.088,18.01859,-0.14527,1.32959,0.94353
264.688,18.03661,-0.14542,1.33157,0.94321
265.288,18.05469,-0.14669,1.3318,0.94289
265.888,18.07273,-0.1466,1.33471,0.94257
266.488,18.09079,-0.14783,1.33652,0.94224
267.088,18.10892,-0.14907,1.33714,0.94192
267.688,18.12702,-0.15071,1.33845,0.9416
268.288,18.14511,-0.15215,1.34048,0.94128
268.888,18.16305,-0.15303,1.34261,0.94096
269.488,18.18093,-0.15413,1.34252,0.94064
270.088,18.19881,-0.15718,1.34634,0.94032
270.688,18.21671,-0.15898,1.34712,0.94
271.288,18.2347,-0.16126,1.34871,0.93968
271.888,18.25289,-0.1631,1.34992,0.93936
272.488,18.2712,-0.16495,1.35426,0.93904
273.088,18.28949,-0.16667,1.35369,0.93873
273.688,18.3078,-0.16833,1.35765,0.93841
274.288,18.32601,-0.16994,1.3595,0.93809
274.888,18.34412,-0.17174,1.36139,0.93777
275.488,18.3622,-0.17422,1.3649,0.93746
276.088,18.38029,-0.1765,1.36977,0.93714
276.688,18.39838,-0.1771,1.36996,0.93682
277.288,18.4165,-0.17896,1.37484,0.93651
277.888,18.43458,-0.18108,1.37551,0.93619
278.488,18.45265,-0.18337,1.379,0.93587
279.088,18.4708,-0.18683,1.37942,0.93556
279.688,18.4888,-0.19021,1.38406,0.93524
280.288,18.50685,-0.19263,1.38833,0.93493
280.888,18.52499,-0.19454,1.39027,0.93461
281.488,18.5431,-0.19724,1.39301,0.9343
282.088,18.56123,-0.20083,1.39788,0.93398
282.688,18.57934,-0.20323,1.39996,0.93367
283.288,18.59745,-0.20616,1.40396,0.93336
283.888,18.61554,-0.20932,1.41018,0.93304
284.488,18.6336,-0.21171,1.41207,0.93273
285.088,18.65155,-0.21468,1.41592,0.93242
285.688,18.6695,-0.21789,1.42123,0.9321
286.288,18.68755,-0.22126,1.42382,0.93179
286.888,18.70557,-0.22438,1.43092,0.93148
287.488,18.7236,-0.22664,1.43283,0.93117
288.088,18.7417,-0.22966,1.43844,0.93086
288.688,18.75982,-0.23316,1.44103,0.93054
289.288,18.77802,-0.2359,1.44509,0.93023
289.888,18.79622,-0.23952,1.45055,0.92992
290.488,18.81445,-0.24371,1.45436,0.92961
291.088,18.83274,-0.24702,1.45922,0.9293
291.688,18.85096,-0.25044,1.46471,0.92899
292.288,18.86908,-0.25435,1.46745,0.92868
292.888,18.88727,-0.25812,1.47199,0.92837
293.488,18.90543,-0.26203,1.47807,0.92806
294.088,18.92354,-0.26619,1.48338,0.92775
294.688,18.94166,-0.27063,1.48763,0.92744
295.288,18.95983,-0.27668,1.49371,0.92713
295.888,18.9779,-0.28015,1.4998,0.92682
296.488,18.99599,-0.28561,1.50468,0.92652
297.088,19.0141,-0.29074,1.51059,0.92621
297.688,19.0322,-0.29636,1.5144,0.9259
298.288,19.05031,-0.30116,1.52192,0.92559
298.888,19.06845,-0.30702,1.52679,0.92528
299.488,19.08661,-0.31265,1.53503,0.92498
300.088,19.1048,-0.31779,1.53992,0.92467
300.688,19.12292,-0.32366,1.54715,0.92436
301.288,19.141,-0.32814,1.55337,0.92406
301.888,19.15912,-0.33446,1.56004,0.92375
302.488,19.17724,-0.33942,1.56672,0.92344
303.088,19.19537,-0.34455,1.57097,0.92314
303.688,19.2135,-0.34907,1.57802,0.92283
304.288,19.23169,-0.35421,1.58677,0.92252
304.888,19.24987,-0.3595,1.5911,0.92222
305.488,19.26793,-0.36494,1.59621,0.92191
306.088,19.28589,-0.37068,1.60392,0.92161
306.688,19.3038,-0.37601,1.61204,0.9213
307.288,19.32193,-0.383,1.61711,0.921
307.888,19.34004,-0.38863,1.62243,0.92069
308.488,19.35827,-0.39636,1.62861,0.92039
309.088,19.37657,-0.40251,1.63756,0.92009
309.688,19.39475,-0.41131,1.64339,0.91978
310.288,19.41293,-0.41851,1.65209,0.91948
310.888,19.43113,-0.42679,1.65887,0.91917
311.488,19.44931,-0.43555,1.66686,0.91887
312.088,19.46748,-0.4428,1.67088,0.91857
312.688,19.48583,-0.45123,1.67831,0.91826
313.288,19.504,-0.45919,1.68842,0.91796
313.888,19.52219,-0.46842,1.6965,0.91766
314.488,19.54036,-0.47632,1.70149,0.91736
315.088,19.5586,-0.48513,1.70886,0.91705
315.688,19.57676,-0.48878,1.71857,0.91675
316.288,19.59498,-0.4944,1.72522,0.91645
316.888,19.61316,-0.50057,1.73164,0.91615
317.488,19.63138,-0.51429,1.73928,0.91584
318.088,19.64961,-0.52804,1.74854,0.91554
318.688,19.66788,-0.53755,1.7548,0.91524
319.288,19.68608,-0.54287,1.76125,0.91494
319.888,19.70427,-0.54778,1.7684,0.91464
320.488,19.72249,-0.55628,1.77424,0.91434
321.088,19.74061,-0.56407,1.78332,0.91404
321.688,19.75872,-0.57395,1.7897,0.91374
322.288,19.77685,-0.58156,1.79973,0.91344
322.888,19.79508,-0.59136,1.8073,0.91314
323.488,19.81333,-0.6006,1.81409,0.91284
324.088,19.8316,-0.61215,1.82138,0.91254
324.688,19.84985,-0.62238,1.82929,0.91224
325.288,19.86816,-0.63388,1.83719,0.91194
325.888,19.8864,-0.64458,1.84578,0.91164
326.488,19.90461,-0.65393,1.85193,0.91134
327.088,19.92289,-0.66595,1.85974,0.91104
327.688,19.9411,-0.67558,1.86714,0.91074
328.288,19.95932,-0.68849,1.87408,0.91044
328.888,19.97747,-0.69842,1.88125,0.91014
329.488,19.99569,-0.71139,1.88995,0.90984
330.088,20.0138,-0.72226,1.89858,0.90954
330.688,20.032,-0.73462,1.90882,0.90924
331.288,20.05026,-0.74644,1.91533,0.90895
331.888,20.0686,-0.75846,1.92362,0.90865
332.488,20.08679,-0.77155,1.92974,0.90835
333.088,20.10509,-0.78302,1.9372,0.90805
333.688,20.12339,-0.7965,1.94687,0.90775
334.288,20.14179,-0.80699,1.95446,0.90746
334.888,20.16017,-0.82045,1.96068,0.90716
335.488,20.17865,-0.8311,1.96931,0.90686
336.088,20.19712,-0.84481,1.97782,0.90656
336.688,20.21557,-0.85612,1.98431,0.90626
337.288,20.23391,-0.87003,1.99168,0.90597
337.888,20.2522,-0.88296,2.00126,0.90567
338.488,20.27048,-0.89589,2.00872,0.90537
339.088,20.2888,-0.90979,2.01607,0.90508
339.688,20.30709,-0.92296,2.02481,0.90478
340.288,20.32538,-0.93767,2.0321,0.90448
340.888,20.34372,-0.94983,2.04259,0.90419
341.488,20.36206,-0.9648,2.04829,0.90389
342.088,20.38035,-0.97581,2.05702,0.90359
342.688,20.39876,-0.99175,2.06557,0.9033
343.288,20.41712,-1.00444,2.07305,0.903
343.888,20.43548,-1.02058,2.08132,0.9027
344.488,20.45385,-1.03495,2.09181,0.90241
345.088,20.47222,-1.052,2.1006,0.90211
345.688,20.4906,-1.06797,2.11023,0.90182
346.288,20.50899,-1.08345,2.11921,0.90152
346.888,20.52735,-1.09992,2.12854,0.90122
347.488,20.54575,-1.11459,2.13769,0.90093
348.088,20.56421,-1.13233,2.14778,0.90063
348.688,20.5826,-1.14647,2.15907,0.90034
349.288,20.601,-1.16401,2.16579,0.90004
349.888,20.61944,-1.1769,2.17732,0.89975
350.488,20.63781,-1.19428,2.18723,0.89945
351.088,20.6562,-1.20825,2.19634,0.89916
351.688,20.67463,-1.22515,2.21031,0.89886
352.288,20.69308,-1.23994,2.21945,0.89857
352.888,20.71155,-1.25583,2.23211,0.89827
353.488,20.73006,-1.2724,2.24183,0.89798
354.088,20.7485,-1.28885,2.25484,0.89768
354.688,20.76695,-1.30773,2.26877,0.89739
355.288,20.7853,-1.32515,2.28142,0.89709
355.888,20.80376,-1.34644,2.29133,0.8968
356.488,20.8221,-1.36323,2.30577,0.8965
357.088,20.84055,-1.38456,2.31941,0.89621
357.688,20.85898,-1.40066,2.32972,0.89591
358.288,20.8775,-1.42175,2.34303,0.89562
358.888,20.89599,-1.43885,2.35874,0.89532
359.488,20.9145,-1.45953,2.37148,0.89503
360.088,20.93294,-1.47838,2.38719,0.89473
360.688,20.95139,-1.49838,2.40038,0.89444
361.288,20.9698,-1.51759,2.41325,0.89415
361.888,20.9883,-1.53643,2.42768,0.89385
362.488,21.0068,-1.55606,2.44156,0.89356
363.088,21.0253,-1.57463,2.45641,0.89326
363.688,21.0438,-1.59618,2.46737,0.89297
364.288,21.0623,-1.61525,2.48301,0.89267
364.888,21.08077,-1.63973,2.49369,0.89238
365.488,21.0991,-1.65884,2.51088,0.89209
366.088,21.1176,-1.68253,2.52251,0.89179
366.688,21.1361,-1.70211,2.53757,0.8915
367.288,21.1546,-1.72586,2.54981,0.8912
367.888,21.17313,-1.74679,2.56314,0.89091
368.488,21.19187,-1.77072,2.57367,0.89062
369.088,21.2104,-1.79323,2.58432,0.89032
369.688,21.2289,-1.81584,2.59294,0.89003
370.288,21.24747,-1.83972,2.60124,0.88973
370.888,21.26602,-1.86099,2.60964,0.88944
371.488,21.2845,-1.88609,2.61653,0.88915
372.088,21.303,-1.90694,2.62422,0.88885
372.688,21.3215,-1.93314,2.62704,0.88856
373.288,21.33999,-1.95438,2.62818,0.88827
373.888,21.3585,-1.98091,2.62803,0.88797
374.488,21.37712,-2.00201,2.62662,0.88768
375.088,21.39572,-2.02949,2.62407,0.88738
375.688,21.41424,-2.05044,2.61819,0.88709
376.288,21.43281,-2.07534,2.61196,0.8868
376.888,21.45135,-2.098,2.60119,0.8865
377.488,21.46985,-2.12337,2.58787,0.88621
378.088,21.4884,-2.15002,2.57342,0.88591
378.688,21.507,-2.17294,2.55309,0.88562
379.288,21.52554,-2.19837,2.53509,0.88533
379.888,21.54411,-2.21839,2.50996,0.88503
380.488,21.56268,-2.24435,2.48274,0.88474
381.088,21.5812,-2.2636,2.4562,0.88445
381.688,21.59977,-2.28929,2.42049,0.88415
382.288,21.61828,-2.30864,2.38346,0.88386
382.888,21.63685,-2.33236,2.34514,0.88356
383.488,21.65541,-2.3509,2.30193,0.88327
384.088,21.67398,-2.37204,2.25407,0.88298
384.688,21.6925,-2.3888,2.20515,0.88268
385.288,21.71109,-2.40656,2.15395,0.88239
385.888,21.7296,-2.42396,2.09914,0.88209
386.488,21.7481,-2.44111,2.04124,0.8818
387.088,21.76661,-2.46029,1.98072,0.88151
387.688,21.7851,-2.47521,1.91831,0.88121
388.288,21.8036,-2.49348,1.85429,0.88092
388.888,21.8221,-2.5068,1.79126,0.88062
389.488,21.8407,-2.52308,1.72421,0.88033
390.088,21.85923,-2.53685,1.65573,0.88003
390.688,21.87782,-2.5531,1.58542,0.87974
391.288,21.89629,-2.56506,1.51962,0.87945
391.888,21.9148,-2.57863,1.45047,0.87915
392.488,21.9333,-2.58802,1.38391,0.87886
393.088,21.95179,-2.59871,1.32061,0.87856
393.688,21.97032,-2.60757,1.25407,0.87827
394.288,21.9889,-2.61539,1.1917,0.87797
394.888,22.00735,-2.62309,1.12998,0.87768
395.488,22.0259,-2.62991,1.07422,0.87738
396.088,22.04435,-2.63724,1.01735,0.87709
396.688,22.0628,-2.64231,0.96394,0.87679
397.288,22.0813,-2.64865,0.91375,0.8765
397.888,22.09985,-2.65337,0.86953,0.8762
398.488,22.11835,-2.65871,0.82684,0.87591
399.088,22.1369,-2.66251,0.78595,0.87561
399.688,22.15544,-2.66862,0.749,0.87532
400.288,22.174,-2.67242,0.71502,0.87502
400.888,22.1925,-2.67623,0.68715,0.87473
401.488,22.21108,-2.68045,0.65884,0.87443
402.088,22.22964,-2.68267,0.63245,0.87414
402.688,22.24821,-2.68499,0.61227,0.87384
403.288,22.26683,-2.68878,0.59211,0.87355
403.888,22.28546,-2.69082,0.57259,0.87325
404.488,22.30407,-2.69296,0.55544,0.87296
405.088,22.32266,-2.69507,0.53995,0.87266
405.688,22.3413,-2.69714,0.52378,0.87236
406.288,22.35989,-2.69891,0.51342,0.87207
406.888,22.37847,-2.70078,0.50288,0.87177
407.488,22.3971,-2.70308,0.49443,0.87148
408.088,22.41581,-2.70565,0.48556,0.87118
408.688,22.43444,-2.70639,0.47579,0.87088
409.288,22.4531,-2.70906,0.4653,0.87059
409.888,22.47172,-2.71099,0.45929,0.87029
410.488,22.49036,-2.71235,0.45201,0.87
411.088,22.509,-2.71344,0.44367,0.8697
411.688,22.5276,-2.7161,0.43773,0.8694
412.288,22.5463,-2.71783,0.43245,0.86911
412.888,22.565,-2.71955,0.42589,0.86881
413.488,22.58364,-2.72038,0.42349,0.86851
414.088,22.60235,-2.72108,0.4144,0.86821
414.688,22.621,-2.72113,0.41086,0.86792
415.288,22.63972,-2.72217,0.40763,0.86762
415.888,22.65844,-2.72295,0.40419,0.86732
416.488,22.6771,-2.72333,0.39843,0.86702
417.088,22.69584,-2.72369,0.39284,0.86673
417.688,22.7146,-2.72485,0.38876,0.86643
418.288,22.73331,-2.72558,0.38552,0.86613
418.888,22.75209,-2.72633,0.38358,0.86583
419.488,22.77088,-2.72807,0.37989,0.86554
420.088,22.78956,-2.72983,0.37547,0.86524
420.688,22.80829,-2.73163,0.37394,0.86494
421.288,22.82701,-2.73342,0.3721,0.86464
421.888,22.84573,-2.73429,0.36566,0.86434
422.488,22.86444,-2.7357,0.36261,0.86404
423.088,22.8832,-2.73719,0.36158,0.86374
423.688,22.90192,-2.73897,0.3589,0.86345
424.288,22.9207,-2.74065,0.35577,0.86315
424.888,22.9394,-2.74387,0.35552,0.86285
425.488,22.95826,-2.74614,0.35354,0.86255
426.088,22.97705,-2.74869,0.34952,0.86225
426.688,22.99585,-2.75082,0.34866,0.86195
427.288,23.01464,-2.75175,0.34739,0.86165
427.888,23.03346,-2.75344,0.34409,0.86135
428.488,23.05224,-2.75539,0.34369,0.86105
429.088,23.07105,-2.75811,0.34479,0.86075
429.688,23.08981,-2.7597,0.34006,0.86045
430.288,23.10865,-2.7608,0.33792,0.86015
430.888,23.1274,-2.76059,0.33631,0.85985
431.488,23.14622,-2.76218,0.33521,0.85955
432.088,23.165,-2.76379,0.33281,0.85925
432.688,23.18384,-2.76574,0.33221,0.85895
433.288,23.2026,-2.7677,0.33187,0.85864
433.888,23.22145,-2.76941,0.33077,0.85834
434.488,23.24024,-2.77123,0.3292,0.85804
435.088,23.2591,-2.77308,0.3277,0.85774
435.688,23.27796,-2.77509,0.32924,0.85744
436.288,23.29681,-2.77741,0.32921,0.85714
436.888,23.3157,-2.7787,0.33011,0.85683
437.488,23.3346,-2.78017,0.32766,0.85653
438.088,23.3535,-2.78215,0.32658,0.85623
438.688,23.3724,-2.78344,0.32692,0.85593
439.288,23.3913,-2.78246,0.32701,0.85562
439.888,23.41021,-2.78337,0.3254,0.85532
440.488,23.42915,-2.78205,0.32531,0.85502
441.088,23.4481,-2.78315,0.32588,0.85471
441.688,23.467,-2.78249,0.32471,0.85441
442.288,23.48603,-2.78381,0.32528,0.85411
442.888,23.505,-2.78558,0.32656,0.8538
443.488,23.52394,-2.78828,0.3284,0.8535
444.088,23.5429,-2.78906,0.3298,0.8532
444.688,23.56188,-2.79104,0.32738,0.85289
445.288,23.58084,-2.79319,0.33009,0.85259
445.888,23.59982,-2.79501,0.32965,0.85228
446.488,23.61886,-2.79501,0.33017,0.85198
447.088,23.63789,-2.79497,0.33199,0.85167
447.688,23.65692,-2.79649,0.3347,0.85137
448.288,23.6759,-2.79861,0.33424,0.85106
448.888,23.69495,-2.80217,0.33413,0.85076
449.488,23.7139,-2.80501,0.3351,0.85045
450.088,23.73289,-2.8069,0.33728,0.85014
450.688,23.7519,-2.80897,0.3366,0.84984
451.288,23.771,-2.81132,0.33976,0.84953
451.888,23.79,-2.81301,0.33975,0.84923
452.488,23.8091,-2.814,0.34418,0.84892
453.088,23.82818,-2.81512,0.34158,0.84861
453.688,23.8473,-2.81698,0.34332,0.8483
454.288,23.86638,-2.81772,0.3444,0.848
454.888,23.8855,-2.81935,0.34573,0.84769
455.488,23.9046,-2.82078,0.34562,0.84738
456.088,23.92374,-2.82256,0.34661,0.84707
456.688,23.9428,-2.82337,0.34772,0.84677
457.288,23.9619,-2.82391,0.35001,0.84646
457.888,23.98099,-2.82543,0.35083,0.84615
458.488,24.0001,-2.82607,0.35073,0.84584
459.088,24.01913,-2.82688,0.35712,0.84553
459.688,24.0383,-2.82763,0.35483,0.84522
460.288,24.05738,-2.8285,0.35658,0.84491
460.888,24.07639,-2.8285,0.35643,0.8446
461.488,24.09544,-2.8291,0.35735,0.84429
462.088,24.11458,-2.82942,0.35522,0.84398
462.688,24.1337,-2.83039,0.35927,0.84367
463.288,24.1528,-2.83338,0.35983,0.84336
463.888,24.17209,-2.83488,0.36156,0.84305
464.488,24.1912,-2.83676,0.36203,0.84274
465.088,24.21032,-2.83894,0.36477,0.84243
465.688,24.22942,-2.84019,0.3663,0.84212
466.288,24.24858,-2.84184,0.36525,0.84181
466.888,24.26773,-2.84351,0.36526,0.84149
467.488,24.2869,-2.8453,0.36635,0.84118
468.088,24.30605,-2.8448,0.36978,0.84087
468.688,24.3252,-2.84489,0.36728,0.84056
469.288,24.3444,-2.84489,0.37085,0.84024
469.888,24.36356,-2.8442,0.37261,0.83993
470.488,24.38271,-2.84531,0.36941,0.83962
471.088,24.40182,-2.8458,0.37405,0.8393
471.688,24.42103,-2.84848,0.37239,0.83899
472.288,24.4402,-2.85033,0.37569,0.83868
472.888,24.45936,-2.85157,0.37543,0.83836
473.488,24.47853,-2.8533,0.37555,0.83805
474.088,24.49768,-2.85606,0.37759,0.83773
474.688,24.51677,-2.85865,0.3765,0.83742
475.288,24.5359,-2.8594,0.37692,0.8371
475.888,24.55505,-2.86194,0.37785,0.83679
476.488,24.5742,-2.86216,0.37835,0.83647
477.088,24.59331,-2.86273,0.37885,0.83616
477.688,24.6125,-2.86217,0.37753,0.83584
478.288,24.6316,-2.86303,0.37633,0.83552
478.888,24.65079,-2.8622,0.37732,0.83521
479.488,24.66994,-2.86346,0.37783,0.83489
480.088,24.68918,-2.86448,0.37642,0.83457
480.688,24.7084,-2.86552,0.37954,0.83425
481.288,24.72762,-2.86588,0.37763,0.83394
481.888,24.74681,-2.86728,0.37897,0.83362
482.488,24.76608,-2.86685,0.37838,0.8333
483.088,24.78533,-2.86841,0.37881,0.83298
483.688,24.80452,-2.86942,0.37502,0.83266
484.288,24.8237,-2.87018,0.37483,0.83234
484.888,24.84289,-2.87166,0.37963,0.83202
485.488,24.86205,-2.87173,0.37696,0.8317
486.088,24.88119,-2.87299,0.37759,0.83138
486.688,24.90041,-2.87483,0.37945,0.83106
487.288,24.91968,-2.87584,0.37717,0.83074
487.888,24.9389,-2.87727,0.37809,0.83042
488.488,24.95806,-2.87775,0.37872,0.8301
489.088,24.97724,-2.87877,0.37784,0.82978
489.688,24.99641,-2.88032,0.37389,0.82946
490.288,25.0156,-2.88088,0.37529,0.82914
490.888,25.03482,-2.8817,0.37738,0.82881
491.488,25.05398,-2.882,0.37703,0.82849
492.088,25.07315,-2.88273,0.37565,0.82817
492.688,25.09236,-2.88176,0.37636,0.82785
493.288,25.11156,-2.88303,0.37397,0.82752
493.888,25.13079,-2.88299,0.37564,0.8272
494.488,25.15007,-2.88333,0.37587,0.82687
495.088,25.16936,-2.88443,0.37305,0.82655
495.688,25.1886,-2.88713,0.37294,0.82623
496.288,25.20784,-2.8873,0.37681,0.8259
496.888,25.22706,-2.88856,0.37695,0.82558
497.488,25.24629,-2.88869,0.37434,0.82525
498.088,25.2655,-2.88899,0.37449,0.82493
498.688,25.28471,-2.89006,0.37436,0.8246
499.288,25.3039,-2.89019,0.37366,0.82427
499.888,25.32309,-2.89138,0.37249,0.82395
500.488,25.34224,-2.89142,0.37422,0.82362
501.088,25.36146,-2.89267,0.37326,0.82329
501.688,25.38071,-2.89263,0.37268,0.82297
502.288,25.39994,-2.89362,0.3726,0.82264
502.888,25.4192,-2.89396,0.36772,0.82231
503.488,25.43848,-2.89447,0.36986,0.82198
504.088,25.4577,-2.8957,0.3704,0.82165
504.688,25.47689,-2.89808,0.37162,0.82132
505.288,25.49611,-2.89823,0.36839,0.82099
505.888,25.51531,-2.89966,0.36693,0.82066
506.488,25.5345,-2.90065,0.36836,0.82033
507.088,25.55369,-2.90112,0.36769,0.82
507.688,25.57295,-2.90159,0.37005,0.81967
508.288,25.5922,-2.90216,0.36809,0.81934
508.888,25.61145,-2.90337,0.36667,0.81901
509.488,25.63058,-2.90504,0.36677,0.81868
510.088,25.64986,-2.90655,0.36397,0.81835
510.688,25.6691,-2.90756,0.36468,0.81802
511.288,25.68833,-2.90838,0.36593,0.81768
511.888,25.70757,-2.90887,0.36183,0.81735
512.488,25.72694,-2.90887,0.36464,0.81702
513.088,25.74614,-2.90887,0.36166,0.81668
513.688,25.76541,-2.90886,0.36233,0.81635
514.288,25.78461,-2.90968,0.36292,0.81602
514.888,25.8038,-2.91012,0.36254,0.81568
515.488,25.82304,-2.90941,0.36154,0.81535
516.088,25.8423,-2.91015,0.36094,0.81501
516.688,25.8615,-2.91018,0.36142,0.81468
517.288,25.88081,-2.91058,0.36098,0.81434
517.888,25.90011,-2.91184,0.36204,0.814
518.488,25.91931,-2.91283,0.35908,0.81367
519.088,25.9386,-2.91304,0.35838,0.81333
519.688,25.95784,-2.91533,0.3568,0.81299
520.288,25.97715,-2.9154,0.3597,0.81266
520.888,25.99646,-2.9166,0.3564,0.81232
521.488,26.01579,-2.91676,0.35534,0.81198
522.088,26.03506,-2.91682,0.35338,0.81164
522.688,26.05432,-2.91577,0.35438,0.8113
523.288,26.07364,-2.91539,0.35515,0.81096
523.888,26.09291,-2.9169,0.35457,0.81063
524.488,26.11224,-2.9183,0.35336,0.81029
525.088,26.13156,-2.91847,0.35328,0.80995
525.688,26.15085,-2.91938,0.35276,0.80961
526.288,26.17015,-2.9194,0.35414,0.80926
526.888,26.1894,-2.92043,0.35116,0.80892
527.488,26.20869,-2.92088,0.35415,0.80858
528.088,26.228,-2.92233,0.3514,0.80824
528.688,26.2474,-2.92236,0.35013,0.8079
529.288,26.26663,-2.92236,0.34998,0.80755
529.888,26.286,-2.92241,0.34907,0.80721
530.488,26.3053,-2.92335,0.34737,0.80687
531.088,26.32463,-2.92502,0.34711,0.80652
531.688,26.34398,-2.92504,0.34644,0.80618
532.288,26.3633,-2.92641,0.34737,0.80584
532.888,26.38265,-2.92697,0.34455,0.80549
533.488,26.402,-2.9279,0.34451,0.80515
534.088,26.4214,-2.92942,0.34546,0.8048
534.688,26.44071,-2.92977,0.34152,0.80446
535.288,26.4601,-2.9307,0.34341,0.80411
535.888,26.47948,-2.9307,0.34146,0.80376
536.488,26.4988,-2.9307,0.34193,0.80342
537.088,26.51815,-2.9309,0.33937,0.80307
537.688,26.5375,-2.93207,0.34272,0.80272
538.288,26.5568,-2.93214,0.34001,0.80237
538.888,26.57623,-2.93353,0.33829,0.80202
539.488,26.59563,-2.93356,0.34153,0.80168
540.088,26.615,-2.93531,0.34293,0.80133
540.688,26.63441,-2.93609,0.34169,0.80098
541.288,26.6538,-2.93608,0.34293,0.80063
541.888,26.6731,-2.93608,0.34527,0.80028
542.488,26.69254,-2.93605,0.34926,0.79993
543.088,26.71195,-2.9369,0.34778,0.79958
543.688,26.73133,-2.93738,0.34823,0.79922
544.288,26.7507,-2.93739,0.35118,0.79887
544.888,26.77014,-2.93739,0.35089,0.79852
545.488,26.7895,-2.93736,0.35054,0.79817
546.088,26.80892,-2.9387,0.35382,0.79781
546.688,26.82834,-2.93872,0.35267,0.79746
547.288,26.8478,-2.93919,0.34918,0.79711
547.888,26.86723,-2.94005,0.35197,0.79675
548.488,26.88666,-2.93994,0.35283,0.7964
549.088,26.9061,-2.9412,0.35442,0.79604
549.688,26.92555,-2.93994,0.35242,0.79569
550.288,26.945,-2.94008,0.34823,0.79533
550.888,26.96449,-2.94143,0.34772,0.79498
551.488,26.984,-2.94135,0.34881,0.79462
552.088,27.00345,-2.94134,0.34478,0.79426
552.688,27.0229,-2.94134,0.34719,0.79391
553.288,27.04235,-2.94134,0.34623,0.79355
553.888,27.0618,-2.94131,0.34622,0.79319
554.488,27.08137,-2.94245,0.3471,0.79283
555.088,27.10083,-2.94278,0.34658,0.79248
555.688,27.12035,-2.94431,0.34608,0.79212
556.288,27.13979,-2.94461,0.34561,0.79176
556.888,27.1593,-2.94586,0.34668,0.7914
557.488,27.17882,-2.94664,0.34442,0.79104
558.088,27.1984,-2.94852,0.34423,0.79068
558.688,27.21787,-2.94847,0.34267,0.79032
559.288,27.2374,-2.94842,0.34194,0.78995
559.888,27.25692,-2.94965,0.3398,0.78959
560.488,27.27641,-2.94981,0.34188,0.78923
561.088,27.29593,-2.95037,0.33934,0.78887
561.688,27.3155,-2.9512,0.34042,0.7885
562.288,27.335,-2.9498,0.3391,0.78814
562.888,27.35456,-2.95081,0.33998,0.78778
563.488,27.3741,-2.9511,0.34075,0.78741
564.088,27.39364,-2.95134,0.33884,0.78705
564.688,27.4132,-2.95362,0.33648,0.78668
565.288,27.4326,-2.95374,0.3386,0.78632
565.888,27.4522,-2.95374,0.33727,0.78595
566.488,27.4718,-2.95373,0.33747,0.78559
567.088,27.4914,-2.95369,0.33717,0.78522
567.688,27.5109,-2.95281,0.33441,0.78485
568.288,27.5305,-2.95372,0.3332,0.78448
568.888,27.55005,-2.95373,0.32918,0.78412
569.488,27.5696,-2.95372,0.33123,0.78375
570.088,27.5892,-2.95502,0.32993,0.78338
570.688,27.60881,-2.95504,0.33017,0.78301
571.288,27.6284,-2.95449,0.33041,0.78264
571.888,27.648,-2.95495,0.3254,0.78227
572.488,27.66763,-2.95504,0.32628,0.7819
573.088,27.6872,-2.95622,0.32367,0.78153
573.688,27.70686,-2.95641,0.32591,0.78116
574.288,27.7265,-2.95782,0.3206,0.78079
574.888,27.7461,-2.95678,0.32058,0.78042
575.488,27.76575,-2.95804,0.31745,0.78004
576.088,27.78541,-2.9582,0.31656,0.77967
576.688,27.805,-2.95958,0.31733,0.7793
577.288,27.8247,-2.95932,0.31622,0.77892
577.888,27.8444,-2.96048,0.31577,0.77855
578.488,27.86405,-2.96043,0.3133,0.77817
579.088,27.88376,-2.96043,0.31392,0.7778
579.688,27.90345,-2.96043,0.31055,0.77742
580.288,27.9231,-2.96044,0.30681,0.77705
580.888,27.9427,-2.96059,0.31102,0.77667
581.488,27.96237,-2.96292,0.30745,0.7763
582.088,27.98193,-2.96322,0.30747,0.77592
582.688,28.0015,-2.96474,0.30632,0.77554
583.288,28.0213,-2.96548,0.30537,0.77516
583.888,28.04097,-2.96612,0.30384,0.77478
584.488,28.06072,-2.96651,0.30274,0.77441
585.088,28.0804,-2.96743,0.29842,0.77403
585.688,28.10013,-2.96743,0.29934,0.77365
586.288,28.1198,-2.96688,0.29752,0.77327
586.888,28.1395,-2.96722,0.2969,0.77289
587.488,28.1592,-2.96632,0.297,0.77251
588.088,28.17887,-2.96615,0.2958,0.77212
588.688,28.19857,-2.96725,0.2915,0.77174
589.288,28.2183,-2.96742,0.29529,0.77136
589.888,28.23801,-2.96861,0.2925,0.77098
590.488,28.25775,-2.97128,0.29285,0.77059
591.088,28.27745,-2.97149,0.28791,0.77021
591.688,28.2972,-2.97259,0.28566,0.76983
592.288,28.31689,-2.97267,0.28824,0.76944
592.888,28.3366,-2.97143,0.28658,0.76906
593.488,28.3563,-2.97149,0.28644,0.76867
594.088,28.37606,-2.97248,0.28354,0.76829
594.688,28.3958,-2.9728,0.28431,0.7679
595.288,28.41555,-2.97282,0.28284,0.76751
595.888,28.4353,-2.97282,0.28024,0.76713
596.488,28.45502,-2.97275,0.28336,0.76674
597.088,28.47474,-2.97141,0.27951,0.76635
597.688,28.4945,-2.97151,0.27916,0.76596
598.288,28.5143,-2.97176,0.2791,0.76558
598.888,28.53395,-2.97427,0.28005,0.76519
599.488,28.55351,-2.97403,0.27897,0.7648
600.088,28.5731,-2.97623,0.27273,0.76441
600.688,28.59277,-2.97676,0.27311,0.76402
601.288,28.6125,-2.97679,0.27365,0.76363
601.888,28.6323,-2.97817,0.2729,0.76323
602.488,28.6522,-2.97807,0.27386,0.76284
603.088,28.672,-2.97892,0.27015,0.76245
603.688,28.69173,-2.97939,0.26522,0.76206
604.288,28.7115,-2.9794,0.26743,0.76166
604.888,28.7312,-2.9794,0.26475,0.76127
605.488,28.75096,-2.97939,0.26456,0.76088
606.088,28.7707,-2.97876,0.26183,0.76048
606.688,28.7905,-2.98007,0.2667,0.76009
607.288,28.81018,-2.98006,0.26151,0.75969
607.888,28.82992,-2.98006,0.26244,0.7593
608.488,28.8497,-2.98007,0.26514,0.7589
609.088,28.86948,-2.98068,0.26289,0.7585
609.688,28.88918,-2.98071,0.26289,0.75811
610.288,28.909,-2.98067,0.26,0.75771
610.888,28.9287,-2.98201,0.26223,0.75731
611.488,28.9484,-2.98119,0.26165,0.75691
612.088,28.96808,-2.98188,0.25559,0.75651
612.688,28.9878,-2.98201,0.25919,0.75611
613.288,29.0076,-2.98315,0.25948,0.75571
613.888,29.02735,-2.98331,0.25812,0.75531
614.488,29.04712,-2.98292,0.25589,0.75491
615.088,29.06686,-2.982,0.25394,0.75451
615.688,29.08659,-2.98316,0.2579,0.75411
616.288,29.10632,-2.98205,0.25352,0.75371
616.888,29.126,-2.98213,0.25584,0.7533
617.488,29.1458,-2.98343,0.25772,0.7529
618.088,29.1655,-2.98336,0.25424,0.7525
618.688,29.1852,-2.98335,0.25691,0.75209
619.288,29.2049,-2.98335,0.25631,0.75169
619.888,29.2246,-2.98341,0.25638,0.75129
620.488,29.2443,-2.98475,0.25808,0.75088
621.088,29.2641,-2.98461,0.25491,0.75047
621.688,29.28381,-2.98539,0.25541,0.75007
622.288,29.30351,-2.98533,0.25481,0.74966
622.888,29.32327,-2.98532,0.25616,0.74925
623.488,29.3429,-2.98532,0.25546,0.74885
624.088,29.36269,-2.98592,0.25628,0.74844
624.688,29.38239,-2.98663,0.25302,0.74803
625.288,29.40213,-2.9868,0.25387,0.74762
625.888,29.4218,-2.98796,0.25533,0.74721
626.488,29.4416,-2.98843,0.25523,0.7468
627.088,29.46139,-2.98926,0.25594,0.74639
627.688,29.48118,-2.98935,0.25828,0.74598
628.288,29.5009,-2.99059,0.25849,0.74557
628.888,29.5207,-2.99098,0.25828,0.74516
629.488,29.5405,-2.99189,0.25632,0.74475
630.088,29.56025,-2.9919,0.25759,0.74433
630.688,29.58,-2.9919,0.25848,0.74392
631.288,29.5998,-2.9919,0.25762,0.74351
631.888,29.61965,-2.9919,0.25738,0.74309
632.488,29.63945,-2.99251,0.2594,0.74268
633.088,29.6592,-2.99323,0.26115,0.74226
633.688,29.679,-2.99322,0.26024,0.74185
634.288,29.69874,-2.99322,0.26123,0.74143
634.888,29.7185,-2.99322,0.26346,0.74102
635.488,29.73824,-2.99318,0.25985,0.7406
636.088,29.75798,-2.99446,0.26236,0.74018
636.688,29.77777,-2.99452,0.26368,0.73976
637.288,29.7975,-2.99559,0.26189,0.73935
637.888,29.81721,-2.99654,0.26281,0.73893
638.488,29.83695,-2.99651,0.26699,0.73851
639.088,29.85677,-2.99651,0.26392,0.73809
639.688,29.8765,-2.99651,0.26295,0.73767
640.288,29.8963,-2.99651,0.26325,0.73725
640.888,29.91613,-2.99646,0.26199,0.73683
641.488,29.93593,-2.99763,0.26508,0.73641
642.088,29.9556,-2.99781,0.26117,0.73598
642.688,29.97536,-2.99774,0.2635,0.73556
643.288,29.99512,-2.99909,0.26401,0.73514
643.888,30.01485,-2.99915,0.265,0.73472
644.488,30.03458,-2.99916,0.26216,0.73429
645.088,30.0545,-2.99934,0.26286,0.73387
645.688,30.07435,-3.00056,0.26202,0.73344
646.288,30.0942,-2.9994,0.26146,0.73302
646.888,30.11396,-3.00069,0.26229,0.73259
647.488,30.13382,-2.99932,0.26218,0.73217
648.088,30.1536,-3.00021,0.26459,0.73174
648.688,30.17339,-3.00055,0.26385,0.73131
649.288,30.19322,-3.00053,0.26187,0.73088
649.888,30.213,-3.00142,0.26359,0.73046
650.488,30.23283,-3.00304,0.26573,0.73003
651.088,30.25262,-3.00379,0.26441,0.7296
651.688,30.2724,-3.0045,0.26695,0.72917
652.288,30.29226,-3.00452,0.26771,0.72874
652.888,30.3121,-3.00504,0.26392,0.72831
653.488,30.33192,-3.00581,0.26575,0.72788
654.088,30.3518,-3.00584,0.26993,0.72745
654.688,30.37159,-3.00722,0.2684,0.72702
655.288,30.3914,-3.00715,0.27174,0.72658
655.888,30.4112,-3.00715,0.26662,0.72615
656.488,30.4309,-3.00715,0.27095,0.72572
657.088,30.45075,-3.00715,0.26891,0.72529
657.688,30.4706,-3.00849,0.2713,0.72485
658.288,30.4905,-3.00846,0.27346,0.72442
658.888,30.51029,-3.00846,0.27819,0.72398
659.488,30.5302,-3.00914,0.27782,0.72355
660.088,30.55003,-3.01044,0.28064,0.72311
660.688,30.5698,-3.0111,0.28077,0.72267
661.288,30.5897,-3.01241,0.28372,0.72224
661.888,30.6095,-3.01242,0.28707,0.7218
662.488,30.62933,-3.01239,0.28551,0.72136
663.088,30.64916,-3.01373,0.28772,0.72092
663.688,30.669,-3.01373,0.28788,0.72049
664.288,30.68889,-3.01398,0.28837,0.72005
664.888,30.7087,-3.01506,0.29453,0.71961
665.488,30.72865,-3.01598,0.29833,0.71917
666.088,30.74853,-3.01604,0.30024,0.71873
666.688,30.76845,-3.01606,0.30054,0.71829
667.288,30.78831,-3.01687,0.30099,0.71784
667.888,30.80817,-3.01738,0.30141,0.7174
668.488,30.82801,-3.01815,0.30347,0.71696
669.088,30.8479,-3.01867,0.30681,0.71652
669.688,30.8677,-3.01981,0.30849,0.71607
670.288,30.88758,-3.01998,0.31398,0.71563
670.888,30.9075,-3.02,0.31322,0.71519
671.488,30.9274,-3.02044,0.3151,0.71474
672.088,30.94728,-3.02131,0.31934,0.7143
672.688,30.9672,-3.02087,0.3209,0.71385
673.288,30.9871,-3.01994,0.32318,0.7134
673.888,31.0069,-3.02104,0.32418,0.71296
674.488,31.0268,-3.02128,0.32713,0.71251
675.088,31.04668,-3.0212,0.32679,0.71206
675.688,31.0666,-3.02257,0.33187,0.71161
676.288,31.08643,-3.02218,0.33139,0.71117
676.888,31.10636,-3.02198,0.33256,0.71072
677.488,31.12623,-3.02203,0.33684,0.71027
678.088,31.1461,-3.02115,0.33653,0.70982
678.688,31.166,-3.02256,0.34273,0.70937
679.288,31.1859,-3.02252,0.34203,0.70892
679.888,31.2058,-3.02304,0.34281,0.70846
680.488,31.2256,-3.02332,0.34261,0.70801
681.088,31.2455,-3.02401,0.34408,0.70756
681.688,31.26533,-3.02477,0.346,0.70711
682.288,31.28523,-3.02543,0.3465,0.70666
682.888,31.30511,-3.02484,0.34827,0.7062
683.488,31.32501,-3.02576,0.34707,0.70575
684.088,31.34495,-3.02626,0.34852,0.70529
684.688,31.36494,-3.02755,0.34852,0.70484
685.288,31.38488,-3.02881,0.34831,0.70438
685.888,31.40482,-3.02887,0.34678,0.70393
686.488,31.4247,-3.02893,0.34992,0.70347
687.088,31.4446,-3.03028,0.34884,0.70301
687.688,31.4645,-3.03041,0.3461,0.70256
688.288,31.48439,-3.03147,0.34843,0.7021
688.888,31.5043,-3.03273,0.34702,0.70164
689.488,31.52423,-3.03277,0.34741,0.70118
690.088,31.54413,-3.03381,0.34741,0.70072
690.688,31.5641,-3.03405,0.3446,0.70026
691.288,31.58405,-3.03535,0.34362,0.6998
691.888,31.60394,-3.03548,0.34132,0.69934
692.488,31.6239,-3.03701,0.33546,0.69888
693.088,31.6438,-3.03725,0.33626,0.69842
693.688,31.66371,-3.03708,0.33176,0.69796
694.288,31.6836,-3.03822,0.32745,0.69749
694.888,31.7036,-3.03868,0.32521,0.69703
695.488,31.72345,-3.03968,0.31601,0.69657
696.088,31.7432,-3.04004,0.314,0.6961
696.688,31.76302,-3.04071,0.31132,0.69564
697.288,31.7828,-3.04144,0.30667,0.69517
697.888,31.80268,-3.04389,0.30141,0.69471
698.488,31.8226,-3.0449,0.29588,0.69424
699.088,31.8425,-3.04721,0.29224,0.69378
699.688,31.8623,-3.04804,0.28295,0.69331
700.288,31.88223,-3.04849,0.27618,0.69284
700.888,31.90216,-3.0485,0.27138,0.69238
701.488,31.9221,-3.04846,0.26312,0.69191
702.088,31.9421,-3.04964,0.25688,0.69144
702.688,31.96221,-3.04982,0.24934,0.69097
703.288,31.98221,-3.04982,0.24135,0.6905
703.888,32.00225,-3.0498,0.23784,0.69003
704.488,32.02219,-3.05066,0.22589,0.68956
705.088,32.0421,-3.05113,0.21443,0.68909
705.688,32.06199,-3.05114,0.2094,0.68862
706.288,32.08188,-3.0511,0.19853,0.68815
706.888,32.10179,-3.05275,0.18909,0.68768
707.488,32.12171,-3.05375,0.17988,0.6872
708.088,32.14165,-3.05377,0.16893,0.68673
708.688,32.1616,-3.05377,0.16339,0.68626
709.288,32.18145,-3.05377,0.15334,0.68578
709.888,32.20142,-3.05377,0.14172,0.68531
710.488,32.22136,-3.05377,0.13681,0.68483
711.088,32.24132,-3.05377,0.12874,0.68436
711.688,32.2613,-3.05378,0.12058,0.68388
712.288,32.2812,-3.05301,0.11377,0.68341
712.888,32.30115,-3.05254,0.10459,0.68293
713.488,32.3211,-3.054,0.10204,0.68245
714.088,32.341,-3.05396,0.09513859,0.68197
714.688,32.36098,-3.05479,0.09088283,0.6815
715.288,32.38088,-3.05462,0.08507121,0.68102
715.888,32.40084,-3.05573,0.08112992,0.68054
716.488,32.42073,-3.05732,0.08060513,0.68006
717.088,32.4407,-3.05728,0.07437708,0.67958
717.688,32.46045,-3.05728,0.0682661,0.6791
718.288,32.4803,-3.05726,0.06469237,0.67862
718.888,32.50033,-3.05662,0.06438805,0.67814
719.488,32.52029,-3.05662,0.06199246,0.67766
720.088,32.54034,-3.05698,0.0545709,0.67717
720.688,32.56051,-3.05793,0.05324555,0.67669
721.288,32.58052,-3.05794,0.04882706,0.67621
721.888,32.60038,-3.05794,0.05136997,0.67572
722.488,32.6203,-3.05861,0.04742249,0.67524
723.088,32.6402,-3.05925,0.04484103,0.67476
723.688,32.66018,-3.0596,0.04104774,0.67427
724.288,32.68011,-3.06068,0.04164957,0.67379
724.888,32.70021,-3.06222,0.03909144,0.6733
725.488,32.7202,-3.06289,0.0403007,0.67281
726.088,32.7401,-3.06364,0.03423843,0.67233
726.688,32.76013,-3.06364,0.03573258,0.67184
727.288,32.7801,-3.06364,0.03403105,0.67135
727.888,32.80008,-3.06496,0.0331983,0.67086
728.488,32.82006,-3.06496,0.03146973,0.67038
729.088,32.8401,-3.06496,0.02890896,0.66989
729.688,32.86012,-3.06496,0.02574003,0.6694
730.288,32.88017,-3.06495,0.02803436,0.66891
730.888,32.90013,-3.06364,0.0211239,0.66842
731.488,32.92013,-3.06496,0.01827207,0.66793
732.088,32.9401,-3.06364,0.01825287,0.66744
732.688,32.96012,-3.06364,0.0171373,0.66694
733.288,32.9801,-3.06265,0.01043411,0.66645
733.888,33.0001,-3.06233,0.0107513,0.66596
734.488,33.02008,-3.06332,0.0104723,0.66547
735.088,33.04013,-3.06231,0.006407899,0.66497
735.688,33.06013,-3.06232,0.005241198,0.66448
736.288,33.08007,-3.06298,0.00290267,0.66399
736.888,33.10011,-3.06232,0.00349019,0.66349
737.488,33.1201,-3.06232,-0.00264308,0.663
738.088,33.14002,-3.06232,-0.003803791,0.6625
738.688,33.16003,-3.06101,-0.005567891,0.66201
739.288,33.18,-3.06101,-0.004095764,0.66151
739.888,33.20002,-3.06101,-0.01171504,0.66101
740.488,33.22007,-3.06243,-0.01087519,0.66052
741.088,33.24009,-3.06277,-0.01790428,0.66002
741.688,33.26019,-3.06518,-0.01910057,0.65952
742.288,33.28025,-3.06517,-0.01825741,0.65902
742.888,33.30117,-3.06655,-0.02090013,0.65852
743.488,33.32213,-3.06702,-0.02199203,0.65802
743.788,33.33187,-3.06787,-0.02350387,0.65777