File: 01_Data/Gypsum_Wallboard_Paper/STA/N2/30K_min/Gypsum_Wallboard_Paper_STA_N2_30KData_220217_R1.csv
##Temp./Â°C,Time/min,Mass loss(subtr.2)/mg,DSC(subtr.2)/(mW/mg),Sensit./(uV/mW)
48.755,10.01,-0.01052,0.02746905,1.08893
49.355,10.52636,-0.01039566,0.05914731,1.08842
49.955,10.64446,-0.00884344,0.08835408,1.08791
50.555,10.72891,-0.01059779,0.11876,1.08741
51.155,10.79815,-0.009242185,0.14339,1.0869
51.755,10.85742,-0.009742783,0.16837,1.0864
52.355,10.91023,-0.008410524,0.19343,1.0859
52.955,10.95785,-0.008198757,0.21338,1.08539
53.555,11.00186,-0.008346318,0.23421,1.08489
54.155,11.04373,-0.007770489,0.25272,1.08439
54.755,11.08347,-0.007317108,0.27293,1.08389
55.355,11.12123,-0.007093753,0.2909,1.08339
55.955,11.15724,-0.008471095,0.31117,1.08289
56.555,11.1918,-0.008614979,0.32533,1.08239
57.155,11.22507,-0.00965092,0.34205,1.08189
57.755,11.25715,-0.00908206,0.35794,1.08139
58.355,11.28837,-0.00885435,0.37295,1.08089
58.955,11.3193,-0.008347537,0.38915,1.0804
59.555,11.34959,-0.007886614,0.40219,1.0799
60.155,11.3791,-0.009267484,0.41845,1.07941
60.755,11.4076,-0.009462847,0.43079,1.07891
61.355,11.43556,-0.009571072,0.44296,1.07842
61.955,11.46292,-0.009005759,0.45541,1.07792
62.555,11.4899,-0.008770551,0.47087,1.07743
63.155,11.51631,-0.008445843,0.48251,1.07694
63.755,11.54217,-0.00880732,0.49402,1.07645
64.355,11.56794,-0.008989689,0.50481,1.07596
64.955,11.59347,-0.008971655,0.5168,1.07547
65.555,11.61898,-0.00922564,0.52902,1.07498
66.155,11.644,-0.00940603,0.5397,1.07449
66.755,11.66883,-0.01015804,0.55409,1.074
67.355,11.69328,-0.00967685,0.56208,1.07351
67.955,11.71757,-0.009319421,0.57201,1.07302
68.555,11.7416,-0.009211907,0.58163,1.07254
69.155,11.76532,-0.008988046,0.59349,1.07205
69.755,11.789,-0.00896251,0.60451,1.07156
70.355,11.8124,-0.00939035,0.61455,1.07108
70.955,11.83569,-0.01020239,0.62333,1.07059
71.555,11.85881,-0.01020779,0.63456,1.07011
72.155,11.8818,-0.01001639,0.64346,1.06963
72.755,11.90475,-0.01099654,0.65391,1.06915
73.355,11.92756,-0.01147951,0.66261,1.06866
73.955,11.9503,-0.01144469,0.672,1.06818
74.555,11.97298,-0.01070906,0.68351,1.0677
75.155,11.99543,-0.01178079,0.69154,1.06722
75.755,12.01779,-0.01222963,0.69985,1.06674
76.355,12.04005,-0.01162572,0.71004,1.06626
76.955,12.0621,-0.0109274,0.71839,1.06579
77.555,12.08414,-0.01237351,0.72808,1.06531
78.155,12.1061,-0.01141365,0.73781,1.06483
78.755,12.1279,-0.01228252,0.74776,1.06436
79.355,12.14977,-0.01203275,0.75654,1.06388
79.955,12.17154,-0.01257242,0.7659,1.06341
80.555,12.19332,-0.01279163,0.77353,1.06293
81.155,12.21499,-0.01289327,0.78315,1.06246
81.755,12.23653,-0.01421847,0.7917,1.06198
82.355,12.2579,-0.01291058,0.8012,1.06151
82.955,12.27928,-0.01415863,0.81057,1.06104
83.555,12.30064,-0.01479552,0.81857,1.06057
84.155,12.32192,-0.01423521,0.82609,1.0601
84.755,12.34318,-0.01571101,0.83476,1.05963
85.355,12.36443,-0.01478332,0.84528,1.05916
85.955,12.3855,-0.01577865,0.85413,1.05869
86.555,12.40653,-0.01514823,0.86119,1.05822
87.155,12.4274,-0.01558874,0.87279,1.05775
87.755,12.44838,-0.01581832,0.88149,1.05729
88.355,12.46924,-0.01449682,0.88804,1.05682
88.955,12.49018,-0.01446685,0.89706,1.05635
89.555,12.51115,-0.01555917,0.90598,1.05589
90.155,12.53198,-0.01596953,0.91088,1.05542
90.755,12.5528,-0.01736217,0.92172,1.05496
91.355,12.57348,-0.01594798,0.93175,1.0545
91.955,12.59414,-0.01741406,0.93826,1.05403
92.555,12.6149,-0.01723936,0.94768,1.05357
93.155,12.63546,-0.01876544,0.95615,1.05311
93.755,12.656,-0.01875853,0.96376,1.05265
94.355,12.67661,-0.02014692,0.97339,1.05219
94.955,12.69711,-0.02013222,0.98152,1.05173
95.555,12.71757,-0.02148042,0.9899,1.05127
96.155,12.73802,-0.02156225,0.99681,1.05081
96.755,12.7585,-0.02286212,1.00686,1.05035
97.355,12.7789,-0.02291724,1.01401,1.0499
97.955,12.79932,-0.02291979,1.01988,1.04944
98.555,12.81969,-0.02291935,1.02675,1.04898
99.155,12.84004,-0.02292127,1.03223,1.04853
99.755,12.86031,-0.02424906,1.03907,1.04807
100.355,12.88061,-0.0242412,1.0453,1.04762
100.955,12.90092,-0.02424012,1.04806,1.04717
101.555,12.92123,-0.02424,1.05612,1.04671
102.155,12.9415,-0.02423985,1.05933,1.04626
102.755,12.96181,-0.02423743,1.06463,1.04581
103.355,12.98206,-0.02476628,1.06964,1.04536
103.955,13.00228,-0.02552587,1.0713,1.04491
104.555,13.02247,-0.0255193,1.07663,1.04446
105.155,13.0427,-0.02637764,1.07922,1.04401
105.755,13.06286,-0.02802149,1.08397,1.04356
106.355,13.08303,-0.02817493,1.08524,1.04311
106.955,13.10327,-0.02814583,1.08804,1.04266
107.555,13.12345,-0.02912169,1.09169,1.04222
108.155,13.14366,-0.02948734,1.09303,1.04177
108.755,13.1638,-0.02951985,1.09458,1.04132
109.355,13.18402,-0.02987122,1.09763,1.04088
109.955,13.20408,-0.03118286,1.09969,1.04043
110.555,13.22415,-0.03213734,1.10044,1.03999
111.155,13.24433,-0.03213053,1.10278,1.03955
111.755,13.26438,-0.03213004,1.10516,1.0391
112.355,13.2845,-0.03213001,1.1074,1.03866
112.955,13.30451,-0.03213018,1.10719,1.03822
113.555,13.32443,-0.03213245,1.10924,1.03778
114.155,13.3446,-0.03216393,1.10912,1.03734
114.755,13.36466,-0.03278059,1.10891,1.0369
115.355,13.38476,-0.03490028,1.11072,1.03646
115.955,13.405,-0.03593015,1.11222,1.03602
116.555,13.42516,-0.03617735,1.11071,1.03558
117.155,13.44503,-0.03619089,1.11281,1.03515
117.755,13.46495,-0.03621492,1.11263,1.03471
118.355,13.485,-0.03666047,1.11183,1.03427
118.955,13.50494,-0.03777603,1.11396,1.03384
119.555,13.5249,-0.03887949,1.11255,1.0334
120.155,13.54486,-0.03883523,1.11273,1.03297
120.755,13.56476,-0.03888902,1.11079,1.03253
121.355,13.5846,-0.04024449,1.11075,1.0321
121.955,13.60436,-0.04015686,1.10912,1.03167
122.555,13.6242,-0.04015016,1.10792,1.03123
123.155,13.644,-0.04014548,1.10643,1.0308
123.755,13.6638,-0.04085894,1.10433,1.03037
124.355,13.6836,-0.04143395,1.10598,1.02994
124.955,13.7035,-0.04145779,1.10343,1.02951
125.555,13.7233,-0.04145537,1.10082,1.02908
126.155,13.7431,-0.04140053,1.09989,1.02865
126.755,13.7628,-0.04262094,1.09984,1.02823
127.355,13.7826,-0.04273191,1.0974,1.0278
127.955,13.8022,-0.0434898,1.09569,1.02737
128.555,13.8218,-0.04343384,1.09419,1.02694
129.155,13.8414,-0.04343024,1.09267,1.02652
129.755,13.86104,-0.04343002,1.09124,1.02609
130.355,13.88071,-0.04343017,1.08921,1.02567
130.955,13.9003,-0.04510683,1.08741,1.02524
131.555,13.9199,-0.04541,1.08455,1.02482
132.155,13.9395,-0.04541002,1.08342,1.0244
132.755,13.959,-0.04541038,1.08294,1.02398
133.355,13.97851,-0.04562014,1.07864,1.02355
133.955,13.998,-0.04766226,1.07922,1.02313
134.555,14.0175,-0.0479571,1.07685,1.02271
135.155,14.037,-0.04802397,1.07327,1.02229
135.755,14.0564,-0.04802949,1.07127,1.02187
136.355,14.07584,-0.04803009,1.06832,1.02145
136.955,14.09503,-0.04803176,1.06504,1.02103
137.555,14.11445,-0.04805239,1.05888,1.02062
138.155,14.13383,-0.0483626,1.05609,1.0202
138.755,14.1533,-0.04935713,1.05445,1.01978
139.355,14.17266,-0.04935045,1.04931,1.01937
139.955,14.1921,-0.04934988,1.04537,1.01895
140.555,14.2114,-0.04934868,1.04459,1.01854
141.155,14.2307,-0.04934072,1.03803,1.01812
141.755,14.25004,-0.0500115,1.03557,1.01771
142.355,14.26919,-0.05000676,1.03063,1.01729
142.955,14.28845,-0.04999871,1.02659,1.01688
143.555,14.30763,-0.0508896,1.02401,1.01647
144.155,14.32685,-0.0511905,1.02063,1.01606
144.755,14.34596,-0.05167953,1.01831,1.01565
145.355,14.3652,-0.0516616,1.01389,1.01524
145.955,14.38444,-0.05166012,1.01122,1.01483
146.555,14.40363,-0.05166001,1.01067,1.01442
147.155,14.4228,-0.05166,1.00804,1.01401
147.755,14.44201,-0.05166,1.005,1.0136
148.355,14.4612,-0.05166,1.00437,1.01319
148.955,14.4803,-0.05166,1.00298,1.01278
149.555,14.49937,-0.05166,1.00062,1.01238
150.155,14.51845,-0.05166,0.99945,1.01197
150.755,14.5374,-0.05166,0.99932,1.01157
151.355,14.5565,-0.05166,0.9966,1.01116
151.955,14.57549,-0.05165997,0.99782,1.01076
152.555,14.5945,-0.05165955,0.99695,1.01035
153.155,14.61348,-0.05165495,0.99551,1.00995
153.755,14.6325,-0.05223747,0.99524,1.00955
154.355,14.6515,-0.05296274,0.99751,1.00914
154.955,14.6705,-0.05297948,0.99541,1.00874
155.555,14.68953,-0.05298004,0.99409,1.00834
156.155,14.70856,-0.05298001,0.99312,1.00794
156.755,14.72758,-0.05298,0.99518,1.00754
157.355,14.7465,-0.05298,0.99616,1.00714
157.955,14.76549,-0.05297998,0.9944,1.00674
158.555,14.78444,-0.05297977,0.99596,1.00634
159.155,14.8034,-0.05297741,0.9975,1.00595
159.755,14.82226,-0.05295643,0.9951,1.00555
160.355,14.84123,-0.05374132,0.99571,1.00515
160.955,14.8601,-0.05428923,0.99939,1.00475
161.555,14.87907,-0.05429061,0.99778,1.00436
162.155,14.89794,-0.05428999,0.99892,1.00396
162.755,14.91685,-0.0542881,1.00062,1.00357
163.355,14.93573,-0.054201,1.00037,1.00317
163.955,14.95461,-0.05288642,1.00059,1.00278
164.555,14.9735,-0.05297313,1.00203,1.00239
165.155,14.9924,-0.05297956,1.00419,1.00199
165.755,15.01123,-0.05297998,1.00391,1.0016
166.355,15.0301,-0.05298,1.00593,1.00121
166.955,15.049,-0.05298,1.00828,1.00082
167.555,15.06781,-0.05298,1.0097,1.00043
168.155,15.08665,-0.05297999,1.01062,1.00004
168.755,15.10544,-0.05297987,1.01108,0.99965
169.355,15.12425,-0.05297844,1.01055,0.99926
169.955,15.1431,-0.05296389,1.01444,0.99887
170.555,15.16192,-0.05283809,1.01679,0.99848
171.155,15.18074,-0.05165736,1.0159,0.9981
171.755,15.19955,-0.05166001,1.01988,0.99771
172.355,15.21832,-0.05165453,1.01867,0.99732
172.955,15.2371,-0.05155853,1.02172,0.99694
173.555,15.25574,-0.05273877,1.02108,0.99655
174.155,15.2744,-0.05265747,1.02317,0.99617
174.755,15.29313,-0.05265054,1.02606,0.99578
175.355,15.31185,-0.05265003,1.02546,0.9954
175.955,15.33055,-0.05265001,1.02852,0.99501
176.555,15.34922,-0.0526498,1.03198,0.99463
177.155,15.3679,-0.05264431,1.03071,0.99425
177.755,15.38664,-0.05255523,1.03295,0.99387
178.355,15.40535,-0.05390253,1.03493,0.99349
178.955,15.42404,-0.05395805,1.03535,0.99311
179.555,15.44276,-0.05395987,1.03813,0.99272
180.155,15.46142,-0.05395999,1.03981,0.99234
180.755,15.4801,-0.05396,1.04167,0.99197
181.355,15.4987,-0.05396,1.04235,0.99159
181.955,15.51726,-0.05396,1.04621,0.99121
182.555,15.5358,-0.05396,1.04761,0.99083
183.155,15.55441,-0.05396,1.04885,0.99045
183.755,15.5729,-0.05395999,1.05098,0.99008
184.355,15.5914,-0.05395995,1.05221,0.9897
184.955,15.6099,-0.05396003,1.05609,0.98932
185.555,15.62844,-0.05396655,1.05796,0.98895
186.155,15.64696,-0.05419986,1.05699,0.98857
186.755,15.6656,-0.05428181,1.06086,0.9882
187.355,15.68411,-0.05428932,1.06201,0.98782
187.955,15.7027,-0.05428995,1.06281,0.98745
188.555,15.7212,-0.05429,1.0652,0.98708
189.155,15.7397,-0.05429,1.0687,0.98671
189.755,15.75811,-0.05429,1.06928,0.98633
190.355,15.7766,-0.05429,1.07129,0.98596
190.955,15.7951,-0.05428997,1.07346,0.98559
191.555,15.81352,-0.05428963,1.07422,0.98522
192.155,15.83199,-0.0542872,1.07771,0.98485
192.755,15.85043,-0.05428271,1.0814,0.98448
193.355,15.8688,-0.05517057,1.08098,0.98411
193.955,15.8872,-0.05606893,1.083,0.98374
194.555,15.90567,-0.05660462,1.08384,0.98337
195.155,15.92404,-0.05659123,1.08644,0.98301
195.755,15.94244,-0.05659008,1.08756,0.98264
196.355,15.96081,-0.05659,1.09079,0.98227
196.955,15.97916,-0.05659,1.08976,0.98191
197.555,15.99756,-0.05659,1.0936,0.98154
198.155,16.016,-0.05659,1.09664,0.98117
198.755,16.03438,-0.05659,1.09812,0.98081
199.355,16.05282,-0.05659,1.10073,0.98044
199.955,16.07124,-0.05659,1.10133,0.98008
200.555,16.0896,-0.05659,1.10281,0.97972
201.155,16.10793,-0.05659,1.10431,0.97935
201.755,16.1263,-0.05659007,1.10495,0.97899
202.355,16.1447,-0.05659091,1.10828,0.97863
202.955,16.1631,-0.05659869,1.10916,0.97827
203.555,16.18151,-0.05664796,1.1119,0.9779
204.155,16.19991,-0.05790721,1.11531,0.97754
204.755,16.21823,-0.05791573,1.1149,0.97718
205.355,16.23655,-0.05828841,1.11662,0.97682
205.955,16.25485,-0.05927829,1.11893,0.97646
206.555,16.27315,-0.05922476,1.11921,0.9761
207.155,16.29138,-0.05917797,1.12179,0.97575
207.755,16.30975,-0.05791793,1.12143,0.97539
208.355,16.3281,-0.05791513,1.12352,0.97503
208.955,16.34649,-0.0579117,1.12583,0.97467
209.555,16.3648,-0.05792276,1.12773,0.97432
210.155,16.38326,-0.05805979,1.12922,0.97396
210.755,16.40161,-0.05926657,1.13093,0.9736
211.355,16.41988,-0.05922972,1.13402,0.97325
211.955,16.43819,-0.05922772,1.13548,0.97289
212.555,16.4565,-0.05919456,1.13817,0.97254
213.155,16.47482,-0.05959402,1.13818,0.97218
213.755,16.4931,-0.05956374,1.1402,0.97183
214.355,16.51142,-0.05956764,1.14023,0.97148
214.955,16.52971,-0.05954333,1.14336,0.97112
215.555,16.54799,-0.06058917,1.14582,0.97077
216.155,16.56628,-0.06076013,1.14582,0.97042
216.755,16.58455,-0.06086119,1.14618,0.97007
217.355,16.60279,-0.06086937,1.14774,0.96972
217.955,16.62106,-0.06086988,1.14925,0.96936
218.555,16.63932,-0.06087067,1.15391,0.96901
219.155,16.65755,-0.0608933,1.15356,0.96866
219.755,16.67577,-0.06142043,1.15669,0.96831
220.355,16.694,-0.0621969,1.15655,0.96796
220.955,16.7122,-0.06219042,1.16014,0.96762
221.555,16.73041,-0.06219001,1.16227,0.96727
222.155,16.74865,-0.06218983,1.16156,0.96692
222.755,16.76696,-0.06218636,1.16323,0.96657
223.355,16.7853,-0.06213958,1.16574,0.96622
223.955,16.80365,-0.06314316,1.16633,0.96588
224.555,16.82195,-0.06348901,1.16931,0.96553
225.155,16.8401,-0.06349981,1.17217,0.96519
225.755,16.85837,-0.06351359,1.17358,0.96484
226.355,16.87655,-0.06395042,1.17336,0.9645
226.955,16.89469,-0.06415884,1.17651,0.96415
227.555,16.91296,-0.0643327,1.17799,0.96381
228.155,16.9312,-0.06480757,1.17928,0.96346
228.755,16.94944,-0.06482819,1.17888,0.96312
229.355,16.96764,-0.06557917,1.17999,0.96278
229.955,16.98582,-0.06614517,1.18376,0.96243
230.555,17.00401,-0.06613522,1.18638,0.96209
231.155,17.02228,-0.06609836,1.18637,0.96175
231.755,17.04042,-0.06715676,1.19008,0.96141
232.355,17.05852,-0.06756595,1.19074,0.96107
232.955,17.0766,-0.06757471,1.1918,0.96072
233.555,17.09458,-0.06779446,1.19483,0.96038
234.155,17.1126,-0.06892759,1.19828,0.96004
234.755,17.13062,-0.06888118,1.1994,0.9597
235.355,17.14876,-0.06888035,1.19946,0.95936
235.955,17.16692,-0.0688935,1.20158,0.95903
236.555,17.18514,-0.06915251,1.20245,0.95869
237.155,17.20328,-0.07024679,1.20437,0.95835
237.755,17.22146,-0.07017625,1.20481,0.95801
238.355,17.2396,-0.07114772,1.20609,0.95767
238.955,17.2578,-0.07151319,1.2093,0.95734
239.555,17.27597,-0.0715123,1.20869,0.957
240.155,17.29411,-0.07155443,1.2118,0.95666
240.755,17.31222,-0.07291042,1.21387,0.95633
241.355,17.33033,-0.07282734,1.21517,0.95599
241.955,17.34842,-0.0734085,1.21703,0.95566
242.555,17.36654,-0.07359497,1.21778,0.95532
243.155,17.38465,-0.07488569,1.21847,0.95499
243.755,17.40277,-0.07475286,1.22148,0.95465
244.355,17.42088,-0.07585814,1.22404,0.95432
244.955,17.439,-0.0761222,1.22181,0.95399
245.555,17.4571,-0.07614537,1.22723,0.95365
246.155,17.47525,-0.07661048,1.22926,0.95332
246.755,17.49341,-0.07744617,1.22803,0.95299
247.355,17.51156,-0.07794166,1.23099,0.95266
247.955,17.52972,-0.07823304,1.23328,0.95232
248.555,17.54782,-0.07837706,1.23507,0.95199
249.155,17.56581,-0.07904055,1.23621,0.95166
249.755,17.5839,-0.08008856,1.23908,0.95133
250.355,17.60194,-0.08046819,1.24071,0.951
250.955,17.62005,-0.08116423,1.24262,0.95067
251.555,17.63821,-0.08195243,1.24184,0.95034
252.155,17.65621,-0.08201433,1.24487,0.95001
252.755,17.6742,-0.08358888,1.24436,0.94968
253.355,17.69229,-0.0840753,1.24482,0.94936
253.955,17.7104,-0.08500092,1.245,0.94903
254.555,17.7284,-0.08697787,1.24625,0.9487
255.155,17.74667,-0.08835856,1.24921,0.94837
255.755,17.76485,-0.0894777,1.25077,0.94804
256.355,17.78294,-0.09083628,1.25147,0.94772
256.955,17.80099,-0.09148121,1.25375,0.94739
257.555,17.81912,-0.0927019,1.25233,0.94706
258.155,17.83717,-0.094022,1.2525,0.94674
258.755,17.85528,-0.0942519,1.25435,0.94641
259.355,17.87341,-0.09530611,1.25645,0.94609
259.955,17.89149,-0.09578874,1.25858,0.94576
260.555,17.9097,-0.09727664,1.26006,0.94544
261.155,17.9279,-0.09881609,1.25964,0.94511
261.755,17.94611,-0.09932819,1.26189,0.94479
262.355,17.9643,-0.10059,1.26253,0.94447
262.955,17.98251,-0.10153,1.26401,0.94414
263.555,18.00058,-0.10175,1.26562,0.94382
264.155,18.01868,-0.10356,1.26427,0.9435
264.755,18.03675,-0.10505,1.26639,0.94317
265.355,18.05489,-0.10675,1.26596,0.94285
265.955,18.073,-0.10804,1.26645,0.94253
266.555,18.09112,-0.10967,1.26928,0.94221
267.155,18.10923,-0.11126,1.26711,0.94189
267.755,18.12734,-0.11297,1.26975,0.94157
268.355,18.14538,-0.1145,1.27206,0.94125
268.955,18.16347,-0.11739,1.27287,0.94093
269.555,18.18155,-0.11937,1.2716,0.94061
270.155,18.19967,-0.12117,1.27444,0.94029
270.755,18.2178,-0.12291,1.27683,0.93997
271.355,18.2359,-0.12501,1.27982,0.93965
271.955,18.254,-0.12715,1.27976,0.93933
272.555,18.27196,-0.12899,1.27914,0.93901
273.155,18.29008,-0.13065,1.28349,0.93869
273.755,18.30827,-0.13169,1.28296,0.93837
274.355,18.32641,-0.13354,1.28764,0.93806
274.955,18.34456,-0.13419,1.2889,0.93774
275.555,18.36286,-0.13651,1.29062,0.93742
276.155,18.38101,-0.13827,1.29122,0.9371
276.755,18.3991,-0.14038,1.29486,0.93679
277.355,18.41723,-0.14226,1.29792,0.93647
277.955,18.4354,-0.14422,1.30076,0.93615
278.555,18.45355,-0.14706,1.30109,0.93584
279.155,18.47162,-0.15052,1.30526,0.93552
279.755,18.4898,-0.15298,1.30709,0.93521
280.355,18.50796,-0.15616,1.31102,0.93489
280.955,18.52605,-0.15927,1.31142,0.93458
281.555,18.54419,-0.16184,1.31557,0.93426
282.155,18.5624,-0.16435,1.31955,0.93395
282.755,18.58055,-0.16688,1.32241,0.93364
283.355,18.59871,-0.16973,1.32482,0.93332
283.955,18.617,-0.17271,1.32664,0.93301
284.555,18.63514,-0.1749,1.33046,0.93269
285.155,18.65328,-0.17808,1.33201,0.93238
285.755,18.67146,-0.18166,1.33531,0.93207
286.355,18.68949,-0.18427,1.33895,0.93176
286.955,18.7074,-0.18738,1.34271,0.93144
287.555,18.72551,-0.19133,1.34579,0.93113
288.155,18.74369,-0.19417,1.34938,0.93082
288.755,18.76185,-0.19683,1.3515,0.93051
289.355,18.78011,-0.19975,1.35831,0.9302
289.955,18.79845,-0.20329,1.36084,0.92989
290.555,18.8167,-0.20756,1.3622,0.92958
291.155,18.83482,-0.2115,1.36886,0.92927
291.755,18.85296,-0.21644,1.37211,0.92896
292.355,18.87106,-0.22068,1.37604,0.92864
292.955,18.88924,-0.22437,1.37884,0.92834
293.555,18.90739,-0.22814,1.38389,0.92803
294.155,18.92557,-0.23179,1.38825,0.92772
294.755,18.94376,-0.23612,1.39426,0.92741
295.355,18.96203,-0.23969,1.40094,0.9271
295.955,18.9802,-0.2441,1.40333,0.92679
296.555,18.99845,-0.24834,1.40623,0.92648
297.155,19.01663,-0.25385,1.41409,0.92617
297.755,19.0349,-0.25876,1.41963,0.92586
298.355,19.05304,-0.26455,1.42419,0.92556
298.955,19.07124,-0.26934,1.42793,0.92525
299.555,19.08936,-0.27413,1.43624,0.92494
300.155,19.1076,-0.27927,1.43931,0.92463
300.755,19.1258,-0.28413,1.44414,0.92433
301.355,19.14396,-0.29009,1.45074,0.92402
301.955,19.16218,-0.29502,1.45519,0.92371
302.555,19.18037,-0.30119,1.4647,0.92341
303.155,19.1985,-0.30622,1.47121,0.9231
303.755,19.2167,-0.31315,1.47289,0.9228
304.355,19.23493,-0.31898,1.48168,0.92249
304.955,19.25311,-0.32562,1.48698,0.92218
305.555,19.27137,-0.33128,1.49315,0.92188
306.155,19.2896,-0.33723,1.49955,0.92157
306.755,19.30784,-0.34392,1.50724,0.92127
307.355,19.32607,-0.34991,1.51229,0.92096
307.955,19.34435,-0.35751,1.51911,0.92066
308.555,19.36252,-0.36396,1.52522,0.92036
309.155,19.38072,-0.37222,1.53174,0.92005
309.755,19.39891,-0.37832,1.5402,0.91975
310.355,19.41711,-0.38625,1.54683,0.91944
310.955,19.43532,-0.39276,1.55323,0.91914
311.555,19.45355,-0.40087,1.56205,0.91884
312.155,19.47162,-0.40817,1.56737,0.91853
312.755,19.48978,-0.41603,1.57444,0.91823
313.355,19.508,-0.42475,1.58072,0.91793
313.955,19.52616,-0.43226,1.58726,0.91762
314.555,19.5444,-0.44076,1.59353,0.91732
315.155,19.56277,-0.44737,1.59953,0.91702
315.755,19.58107,-0.45667,1.60981,0.91672
316.355,19.5993,-0.46397,1.61654,0.91641
316.955,19.61758,-0.47518,1.62235,0.91611
317.555,19.6358,-0.4829,1.63241,0.91581
318.155,19.6541,-0.49222,1.64019,0.91551
318.755,19.6723,-0.50095,1.64666,0.91521
319.355,19.69053,-0.51036,1.65272,0.91491
319.955,19.7088,-0.51995,1.66137,0.91461
320.555,19.72704,-0.52894,1.66836,0.9143
321.155,19.74527,-0.53935,1.67523,0.914
321.755,19.7636,-0.54794,1.6842,0.9137
322.355,19.78174,-0.55864,1.69042,0.9134
322.955,19.8,-0.56718,1.69887,0.9131
323.555,19.81825,-0.57821,1.70406,0.9128
324.155,19.83652,-0.58724,1.71064,0.9125
324.755,19.85481,-0.59846,1.72012,0.9122
325.355,19.8732,-0.60866,1.72681,0.9119
325.955,19.89145,-0.62004,1.73581,0.9116
326.555,19.9098,-0.63134,1.74247,0.9113
327.155,19.92809,-0.64134,1.74908,0.911
327.755,19.94637,-0.65206,1.75764,0.9107
328.355,19.96461,-0.66181,1.76283,0.91041
328.955,19.983,-0.67367,1.77195,0.91011
329.555,20.00127,-0.68344,1.78164,0.90981
330.155,20.01955,-0.69642,1.78729,0.90951
330.755,20.0379,-0.70688,1.79539,0.90921
331.355,20.0562,-0.72184,1.80212,0.90891
331.955,20.07443,-0.73298,1.80973,0.90861
332.555,20.09269,-0.74571,1.81992,0.90832
333.155,20.11099,-0.75722,1.82658,0.90802
333.755,20.1293,-0.7678,1.83294,0.90772
334.355,20.14757,-0.78093,1.84079,0.90742
334.955,20.1659,-0.79316,1.84882,0.90712
335.555,20.18421,-0.80739,1.85825,0.90683
336.155,20.20261,-0.81902,1.86538,0.90653
336.755,20.22103,-0.8339,1.873,0.90623
337.355,20.2394,-0.8457,1.87888,0.90593
337.955,20.25785,-0.86053,1.88857,0.90564
338.555,20.27626,-0.87251,1.8955,0.90534
339.155,20.29455,-0.88703,1.90328,0.90504
339.755,20.31286,-0.89973,1.90877,0.90475
340.355,20.3312,-0.91354,1.91624,0.90445
340.955,20.34954,-0.92744,1.92628,0.90415
341.555,20.3679,-0.94083,1.9331,0.90386
342.155,20.3863,-0.95602,1.94208,0.90356
342.755,20.40479,-0.96968,1.94877,0.90326
343.355,20.4232,-0.98644,1.95839,0.90297
343.955,20.44156,-1.00007,1.96602,0.90267
344.555,20.46,-1.01686,1.97417,0.90237
345.155,20.47831,-1.02952,1.98239,0.90208
345.755,20.4967,-1.04591,1.99076,0.90178
346.355,20.51511,-1.06126,2.0008,0.90149
346.955,20.53355,-1.07827,2.00959,0.90119
347.555,20.552,-1.09323,2.01976,0.9009
348.155,20.57039,-1.10911,2.02813,0.9006
348.755,20.58878,-1.12551,2.03969,0.9003
349.355,20.60717,-1.1407,2.04975,0.90001
349.955,20.62561,-1.15804,2.05799,0.89971
350.555,20.64396,-1.17259,2.06768,0.89942
351.155,20.66235,-1.19089,2.07824,0.89912
351.755,20.6807,-1.20551,2.09064,0.89883
352.355,20.699,-1.22496,2.09974,0.89853
352.955,20.71732,-1.24029,2.10762,0.89824
353.555,20.73575,-1.25888,2.12174,0.89794
354.155,20.75423,-1.27494,2.1303,0.89765
354.755,20.77282,-1.29365,2.14361,0.89735
355.355,20.79136,-1.31134,2.15631,0.89706
355.955,20.80994,-1.32944,2.16552,0.89676
356.555,20.8285,-1.34829,2.17897,0.89647
357.155,20.8471,-1.36563,2.18968,0.89617
357.755,20.86554,-1.38573,2.20551,0.89588
358.355,20.8841,-1.40319,2.215,0.89558
358.955,20.90256,-1.42544,2.22835,0.89529
359.555,20.921,-1.44291,2.24337,0.895
360.155,20.93954,-1.46511,2.25533,0.8947
360.755,20.95808,-1.48285,2.26981,0.89441
361.355,20.97653,-1.50541,2.28117,0.89411
361.955,20.995,-1.52396,2.29661,0.89382
362.555,21.0135,-1.54553,2.31025,0.89352
363.155,21.03201,-1.56517,2.32247,0.89323
363.755,21.05046,-1.58613,2.33603,0.89294
364.355,21.069,-1.60814,2.34959,0.89264
364.955,21.08757,-1.62915,2.36131,0.89235
365.555,21.10609,-1.65182,2.37528,0.89205
366.155,21.1246,-1.67173,2.3874,0.89176
366.755,21.14315,-1.69652,2.40024,0.89147
367.355,21.16168,-1.71677,2.41107,0.89117
367.955,21.18019,-1.74237,2.42285,0.89088
368.555,21.19872,-1.76211,2.43221,0.89058
369.155,21.21726,-1.78746,2.44135,0.89029
369.755,21.23582,-1.80819,2.45091,0.89
370.355,21.2544,-1.83332,2.45937,0.8897
370.955,21.2729,-1.85524,2.46543,0.88941
371.555,21.29147,-1.87913,2.47173,0.88911
372.155,21.31002,-1.90219,2.47396,0.88882
372.755,21.32859,-1.92541,2.47806,0.88853
373.355,21.34714,-1.95096,2.47832,0.88823
373.955,21.36574,-1.97373,2.47777,0.88794
374.555,21.38417,-2.00102,2.47489,0.88764
375.155,21.40265,-2.02278,2.47071,0.88735
375.755,21.42116,-2.04951,2.46604,0.88706
376.355,21.4398,-2.07047,2.45699,0.88676
376.955,21.45836,-2.09765,2.44587,0.88647
377.555,21.4771,-2.11928,2.431,0.88618
378.155,21.49577,-2.14513,2.415,0.88588
378.755,21.51436,-2.16641,2.39736,0.88559
379.355,21.53295,-2.1909,2.37586,0.88529
379.955,21.55154,-2.21358,2.35207,0.885
380.555,21.5701,-2.23646,2.32411,0.88471
381.155,21.5887,-2.25929,2.29506,0.88441
381.755,21.60729,-2.28019,2.26187,0.88412
382.355,21.62579,-2.30359,2.22781,0.88382
382.955,21.6444,-2.32336,2.18597,0.88353
383.555,21.663,-2.34711,2.14646,0.88324
384.155,21.68153,-2.36516,2.1009,0.88294
384.755,21.7001,-2.38733,2.05101,0.88265
385.355,21.71871,-2.40442,2.00129,0.88235
385.955,21.73719,-2.42556,1.94724,0.88206
386.555,21.75575,-2.44178,1.88953,0.88177
387.155,21.7743,-2.46045,1.83512,0.88147
387.755,21.79281,-2.47603,1.77465,0.88118
388.355,21.81137,-2.49296,1.71592,0.88088
388.955,21.82994,-2.50881,1.65068,0.88059
389.555,21.84851,-2.52343,1.58573,0.8803
390.155,21.8671,-2.53831,1.52236,0.88
390.755,21.88561,-2.55077,1.45346,0.87971
391.355,21.90417,-2.56489,1.38935,0.87941
391.955,21.9228,-2.57551,1.32359,0.87912
392.555,21.94134,-2.58815,1.25842,0.87882
393.155,21.95986,-2.5974,1.19431,0.87853
393.755,21.97843,-2.6085,1.13316,0.87824
394.355,21.99693,-2.61627,1.07687,0.87794
394.955,22.01537,-2.62491,1.01636,0.87765
395.555,22.03386,-2.63171,0.95851,0.87735
396.155,22.05239,-2.63869,0.90519,0.87706
396.755,22.0709,-2.64431,0.85498,0.87676
397.355,22.0894,-2.6495,0.80639,0.87647
397.955,22.10795,-2.65471,0.76173,0.87617
398.555,22.12651,-2.65962,0.72016,0.87588
399.155,22.145,-2.66441,0.68492,0.87558
399.755,22.16356,-2.6692,0.6498,0.87529
400.355,22.18209,-2.67278,0.61823,0.87499
400.955,22.20062,-2.67655,0.58975,0.8747
401.555,22.21914,-2.67921,0.56228,0.8744
402.155,22.23769,-2.68221,0.53913,0.87411
402.755,22.25623,-2.68538,0.51774,0.87381
403.355,22.2748,-2.68696,0.4975,0.87351
403.955,22.29338,-2.68918,0.48155,0.87322
404.555,22.31198,-2.69125,0.4614,0.87292
405.155,22.33061,-2.69336,0.44956,0.87263
405.755,22.34929,-2.69491,0.43501,0.87233
406.355,22.3678,-2.69599,0.42325,0.87204
406.955,22.3864,-2.69716,0.41257,0.87174
407.555,22.405,-2.69919,0.40226,0.87144
408.155,22.42363,-2.70116,0.39309,0.87115
408.755,22.44214,-2.70348,0.38292,0.87085
409.355,22.46085,-2.70537,0.37805,0.87056
409.955,22.47948,-2.70722,0.36771,0.87026
410.555,22.49814,-2.70834,0.3607,0.86996
411.155,22.51681,-2.70958,0.35519,0.86967
411.755,22.5355,-2.71153,0.35004,0.86937
412.355,22.55421,-2.71349,0.34504,0.86907
412.955,22.57292,-2.71538,0.33953,0.86878
413.555,22.59158,-2.71712,0.33342,0.86848
414.155,22.61027,-2.71783,0.32829,0.86818
414.755,22.62895,-2.71968,0.32258,0.86788
415.355,22.6477,-2.72171,0.3178,0.86759
415.955,22.6663,-2.72378,0.31404,0.86729
416.555,22.68506,-2.72555,0.309,0.86699
417.155,22.70382,-2.72719,0.30582,0.86669
417.755,22.72254,-2.72872,0.30441,0.8664
418.355,22.74121,-2.73071,0.29813,0.8661
418.955,22.75989,-2.73194,0.29609,0.8658
419.555,22.7787,-2.73312,0.29324,0.8655
420.155,22.7974,-2.73452,0.29007,0.8652
420.755,22.8161,-2.7361,0.28428,0.86491
421.355,22.83486,-2.73773,0.28502,0.86461
421.955,22.85359,-2.73942,0.28204,0.86431
422.555,22.87227,-2.74099,0.27672,0.86401
423.155,22.89095,-2.74268,0.27523,0.86371
423.755,22.90973,-2.74377,0.27274,0.86341
424.355,22.92855,-2.74489,0.27098,0.86311
424.955,22.94734,-2.74626,0.26392,0.86281
425.555,22.9662,-2.74882,0.2658,0.86251
426.155,22.98495,-2.75048,0.2617,0.86222
426.755,23.00376,-2.75177,0.2608,0.86192
427.355,23.02254,-2.75332,0.25719,0.86162
427.955,23.0413,-2.75492,0.25407,0.86132
428.555,23.06008,-2.75674,0.25482,0.86102
429.155,23.07882,-2.75835,0.2509,0.86072
429.755,23.09757,-2.76027,0.25131,0.86042
430.355,23.11637,-2.76049,0.24881,0.86011
430.955,23.1352,-2.76236,0.24488,0.85981
431.555,23.15403,-2.76378,0.24489,0.85951
432.155,23.17288,-2.76498,0.24537,0.85921
432.755,23.1917,-2.76598,0.23836,0.85891
433.355,23.21048,-2.76773,0.24009,0.85861
433.955,23.22929,-2.76942,0.23872,0.85831
434.555,23.24811,-2.77112,0.2361,0.85801
435.155,23.26696,-2.77205,0.23711,0.85771
435.755,23.28582,-2.77294,0.23634,0.8574
436.355,23.30473,-2.77458,0.23499,0.8571
436.955,23.32364,-2.7761,0.23327,0.8568
437.555,23.34252,-2.77748,0.23332,0.8565
438.155,23.36139,-2.77972,0.23356,0.8562
438.755,23.38022,-2.78074,0.23403,0.85589
439.355,23.3991,-2.78175,0.23236,0.85559
439.955,23.4179,-2.78221,0.23091,0.85529
440.555,23.43675,-2.78373,0.23094,0.85498
441.155,23.4555,-2.78522,0.23234,0.85468
441.755,23.4744,-2.78677,0.23183,0.85438
442.355,23.49328,-2.78887,0.23055,0.85407
442.955,23.51217,-2.79044,0.23155,0.85377
443.555,23.5311,-2.79159,0.23237,0.85347
444.155,23.55011,-2.79349,0.23297,0.85316
444.755,23.5689,-2.79518,0.23253,0.85286
445.355,23.5878,-2.79686,0.23406,0.85255
445.955,23.6067,-2.79812,0.23429,0.85225
446.555,23.62564,-2.80005,0.23502,0.85194
447.155,23.64457,-2.80183,0.23671,0.85164
447.755,23.66355,-2.80371,0.2363,0.85133
448.355,23.68251,-2.80514,0.23687,0.85103
448.955,23.70143,-2.80677,0.23769,0.85072
449.555,23.72033,-2.80799,0.24337,0.85042
450.155,23.7393,-2.80865,0.2381,0.85011
450.755,23.7582,-2.80918,0.24078,0.8498
451.355,23.77713,-2.81018,0.24349,0.8495
451.955,23.79607,-2.81174,0.24301,0.84919
452.555,23.81498,-2.8125,0.24446,0.84888
453.155,23.83393,-2.81359,0.24611,0.84858
453.755,23.85286,-2.81533,0.24405,0.84827
454.355,23.8718,-2.8152,0.2473,0.84796
454.955,23.89079,-2.81519,0.24827,0.84766
455.555,23.90979,-2.81617,0.2491,0.84735
456.155,23.92876,-2.81732,0.25168,0.84704
456.755,23.9478,-2.82077,0.25301,0.84673
457.355,23.9668,-2.82343,0.25252,0.84642
457.955,23.98573,-2.82541,0.25383,0.84611
458.555,24.00466,-2.82761,0.25672,0.84581
459.155,24.0236,-2.82907,0.25527,0.8455
459.755,24.04255,-2.83007,0.25814,0.84519
460.355,24.06152,-2.83147,0.25977,0.84488
460.955,24.08055,-2.83181,0.26145,0.84457
461.555,24.09959,-2.83287,0.26453,0.84426
462.155,24.11864,-2.83371,0.2633,0.84395
462.755,24.13769,-2.83431,0.26542,0.84364
463.355,24.15673,-2.83492,0.2626,0.84333
463.955,24.17576,-2.83562,0.26658,0.84302
464.555,24.19474,-2.83713,0.26443,0.84271
465.155,24.21377,-2.83858,0.26824,0.84239
465.755,24.2328,-2.83982,0.27098,0.84208
466.355,24.25181,-2.84059,0.26952,0.84177
466.955,24.27085,-2.84175,0.27102,0.84146
467.555,24.2899,-2.84272,0.27118,0.84115
468.155,24.30894,-2.84444,0.27586,0.84083
468.755,24.328,-2.84613,0.27678,0.84052
469.355,24.34706,-2.84706,0.27712,0.84021
469.955,24.3661,-2.84795,0.27461,0.8399
470.555,24.3852,-2.84906,0.2791,0.83958
471.155,24.40429,-2.84922,0.2767,0.83927
471.755,24.42334,-2.85053,0.27811,0.83896
472.355,24.44241,-2.85122,0.28359,0.83864
472.955,24.4615,-2.85127,0.28305,0.83833
473.555,24.48057,-2.85295,0.28332,0.83801
474.155,24.4997,-2.85444,0.28519,0.8377
474.755,24.5188,-2.85467,0.28526,0.83738
475.355,24.53794,-2.85619,0.28657,0.83707
475.955,24.55702,-2.85784,0.28332,0.83675
476.555,24.57611,-2.85959,0.28886,0.83644
477.155,24.59528,-2.86067,0.28796,0.83612
477.755,24.61435,-2.86082,0.28796,0.8358
478.355,24.63351,-2.86201,0.29005,0.83549
478.955,24.65263,-2.86347,0.28787,0.83517
479.555,24.67175,-2.86464,0.29096,0.83485
480.155,24.69086,-2.86585,0.29056,0.83454
480.755,24.71,-2.86719,0.28843,0.83422
481.355,24.72909,-2.86865,0.29343,0.8339
481.955,24.7483,-2.8689,0.29042,0.83358
482.555,24.7674,-2.87027,0.28945,0.83326
483.155,24.78656,-2.87169,0.29118,0.83295
483.755,24.80571,-2.8718,0.29208,0.83263
484.355,24.82488,-2.87314,0.29265,0.83231
484.955,24.84396,-2.87313,0.29207,0.83199
485.555,24.8631,-2.87452,0.28964,0.83167
486.155,24.88229,-2.87609,0.29041,0.83135
486.755,24.90148,-2.87761,0.29042,0.83103
487.355,24.9206,-2.87832,0.28852,0.83071
487.955,24.93976,-2.87904,0.28951,0.83039
488.555,24.95894,-2.88048,0.28976,0.83007
489.155,24.97808,-2.88074,0.28889,0.82974
489.755,24.9972,-2.8822,0.28769,0.82942
490.355,25.0165,-2.88273,0.28929,0.8291
490.955,25.03567,-2.88358,0.28684,0.82878
491.555,25.05486,-2.88398,0.2881,0.82846
492.155,25.07404,-2.88488,0.28642,0.82813
492.755,25.09321,-2.88512,0.28839,0.82781
493.355,25.11234,-2.88617,0.28811,0.82749
493.955,25.13147,-2.88665,0.28518,0.82716
494.555,25.1506,-2.88757,0.28674,0.82684
495.155,25.16979,-2.88856,0.2868,0.82651
495.755,25.18903,-2.88891,0.28398,0.82619
496.355,25.20822,-2.88884,0.2854,0.82587
496.955,25.22746,-2.89021,0.28583,0.82554
497.555,25.24667,-2.89033,0.28635,0.82521
498.155,25.26587,-2.89181,0.28368,0.82489
498.755,25.2851,-2.89289,0.28359,0.82456
499.355,25.30428,-2.8932,0.28396,0.82424
499.955,25.3234,-2.89552,0.28145,0.82391
500.555,25.3425,-2.89612,0.28252,0.82358
501.155,25.3616,-2.89738,0.27916,0.82326
501.755,25.3807,-2.89734,0.28276,0.82293
502.355,25.39979,-2.89832,0.28121,0.8226
502.955,25.41903,-2.89867,0.28103,0.82227
503.555,25.4383,-2.89842,0.27967,0.82194
504.155,25.45751,-2.89851,0.28014,0.82162
504.755,25.4767,-2.89855,0.27719,0.82129
505.355,25.49595,-2.90015,0.27919,0.82096
505.955,25.51519,-2.90047,0.27732,0.82063
506.555,25.53443,-2.90169,0.27754,0.8203
507.155,25.5537,-2.90238,0.2765,0.81997
507.755,25.57295,-2.90297,0.2752,0.81964
508.355,25.59215,-2.90419,0.27473,0.81931
508.955,25.61141,-2.90437,0.27731,0.81897
509.555,25.6306,-2.90508,0.27433,0.81864
510.155,25.6498,-2.90569,0.2737,0.81831
510.755,25.66911,-2.9066,0.27229,0.81798
511.355,25.68831,-2.90701,0.27376,0.81765
511.955,25.7075,-2.90696,0.27362,0.81731
512.555,25.72683,-2.90818,0.27356,0.81698
513.155,25.7461,-2.90827,0.27056,0.81665
513.755,25.7654,-2.9094,0.27343,0.81631
514.355,25.7847,-2.90963,0.2693,0.81598
514.955,25.80401,-2.90968,0.27092,0.81564
515.555,25.82331,-2.91105,0.27129,0.81531
516.155,25.84271,-2.91092,0.26675,0.81497
516.755,25.86206,-2.9121,0.26945,0.81464
517.355,25.88147,-2.91235,0.2682,0.8143
517.955,25.90087,-2.91344,0.26891,0.81397
518.555,25.92018,-2.9137,0.27059,0.81363
519.155,25.93947,-2.91431,0.2695,0.81329
519.755,25.95859,-2.91555,0.27016,0.81296
520.355,25.97775,-2.91685,0.2693,0.81262
520.955,25.99696,-2.91745,0.26769,0.81228
521.555,26.0163,-2.91779,0.26727,0.81194
522.155,26.03562,-2.9188,0.26743,0.81161
522.755,26.05507,-2.91882,0.26905,0.81127
523.355,26.07444,-2.92015,0.26893,0.81093
523.955,26.0938,-2.92006,0.26785,0.81059
524.555,26.113,-2.92069,0.2709,0.81025
525.155,26.13235,-2.92136,0.26797,0.80991
525.755,26.15161,-2.92144,0.26669,0.80957
526.355,26.17089,-2.92272,0.268,0.80923
526.955,26.19014,-2.9227,0.26845,0.80888
527.555,26.20945,-2.923,0.26603,0.80854
528.155,26.2288,-2.9239,0.26562,0.8082
528.755,26.2481,-2.92468,0.26819,0.80786
529.355,26.26742,-2.92481,0.26697,0.80752
529.955,26.2868,-2.92617,0.26779,0.80717
530.555,26.30612,-2.92642,0.26661,0.80683
531.155,26.32545,-2.9277,0.26698,0.80649
531.755,26.3448,-2.92787,0.26587,0.80614
532.355,26.3641,-2.92899,0.26578,0.8058
532.955,26.38352,-2.92891,0.26567,0.80545
533.555,26.40287,-2.92984,0.26722,0.80511
534.155,26.42225,-2.93025,0.2623,0.80476
534.755,26.44156,-2.93074,0.26465,0.80442
535.355,26.4608,-2.93165,0.26332,0.80407
535.955,26.4802,-2.9328,0.26241,0.80372
536.555,26.49953,-2.93322,0.26139,0.80338
537.155,26.51885,-2.93445,0.26533,0.80303
537.755,26.5382,-2.93454,0.25879,0.80268
538.355,26.55762,-2.93536,0.25889,0.80233
538.955,26.577,-2.93603,0.25958,0.80199
539.555,26.5963,-2.93721,0.2598,0.80164
540.155,26.61566,-2.93739,0.25977,0.80129
540.755,26.63502,-2.93764,0.26,0.80094
541.355,26.65438,-2.93888,0.25984,0.80059
541.955,26.6738,-2.93899,0.25699,0.80024
542.555,26.69313,-2.94018,0.26112,0.79989
543.155,26.7125,-2.94013,0.25993,0.79954
543.755,26.73195,-2.94014,0.2583,0.79918
544.355,26.75127,-2.94018,0.26286,0.79883
544.955,26.77078,-2.94146,0.26202,0.79848
545.555,26.79011,-2.94144,0.26402,0.79813
546.155,26.8095,-2.94144,0.2634,0.79778
546.755,26.8289,-2.94144,0.26623,0.79742
547.355,26.84818,-2.94263,0.26698,0.79707
547.955,26.8674,-2.94275,0.26963,0.79671
548.555,26.8867,-2.94287,0.2692,0.79636
549.155,26.90604,-2.94427,0.27182,0.796
549.755,26.9255,-2.9441,0.26985,0.79565
550.355,26.94499,-2.94543,0.27101,0.79529
550.955,26.9646,-2.9455,0.2726,0.79494
551.555,26.98412,-2.9455,0.27264,0.79458
552.155,27.0036,-2.94553,0.27449,0.79423
552.755,27.0231,-2.94691,0.2749,0.79387
553.355,27.0425,-2.94683,0.27785,0.79351
553.955,27.062,-2.94682,0.2741,0.79315
554.555,27.0815,-2.9468,0.27803,0.79279
555.155,27.101,-2.94622,0.27924,0.79244
555.755,27.12043,-2.94759,0.278,0.79208
556.355,27.13989,-2.94791,0.28096,0.79172
556.955,27.15932,-2.94892,0.2774,0.79136
557.555,27.17877,-2.94915,0.27704,0.791
558.155,27.1982,-2.95026,0.28021,0.79064
558.755,27.21772,-2.95015,0.279,0.79028
559.355,27.2372,-2.95151,0.27882,0.78991
559.955,27.25667,-2.95149,0.2774,0.78955
560.555,27.27618,-2.95275,0.27935,0.78919
561.155,27.2957,-2.95296,0.27652,0.78883
561.755,27.3152,-2.95297,0.27999,0.78846
562.355,27.3347,-2.95298,0.27921,0.7881
562.955,27.3543,-2.95318,0.27951,0.78774
563.555,27.3738,-2.95434,0.27896,0.78737
564.155,27.3933,-2.95431,0.27837,0.78701
564.755,27.41287,-2.95452,0.27938,0.78664
565.355,27.43238,-2.9556,0.27698,0.78628
565.955,27.45188,-2.95558,0.28027,0.78591
566.555,27.47138,-2.95637,0.28121,0.78554
567.155,27.4909,-2.95691,0.27711,0.78518
567.755,27.5104,-2.95728,0.27565,0.78481
568.355,27.52988,-2.95823,0.27655,0.78444
568.955,27.5494,-2.95823,0.27457,0.78408
569.555,27.56891,-2.95823,0.27467,0.78371
570.155,27.58847,-2.95823,0.27482,0.78334
570.755,27.608,-2.95819,0.27237,0.78297
571.355,27.62759,-2.95945,0.27341,0.7826
571.955,27.6471,-2.95954,0.27285,0.78223
572.555,27.66671,-2.96067,0.27181,0.78186
573.155,27.68621,-2.96098,0.27002,0.78149
573.755,27.7058,-2.96143,0.26993,0.78112
574.355,27.72529,-2.96355,0.26948,0.78075
574.955,27.74478,-2.9636,0.26969,0.78037
575.555,27.76435,-2.96361,0.26933,0.78
576.155,27.7839,-2.96379,0.27003,0.77963
576.755,27.8034,-2.96499,0.26643,0.77926
577.355,27.82293,-2.96519,0.26708,0.77888
577.955,27.8425,-2.96652,0.26492,0.77851
578.555,27.8621,-2.96537,0.26495,0.77813
579.155,27.88172,-2.96542,0.26794,0.77776
579.755,27.90135,-2.96653,0.26504,0.77738
580.355,27.92095,-2.96646,0.26453,0.77701
580.955,27.94057,-2.96646,0.26377,0.77663
581.555,27.96017,-2.9668,0.26292,0.77625
582.155,27.97966,-2.96779,0.2595,0.77588
582.755,27.99925,-2.96778,0.25848,0.7755
583.355,28.0189,-2.96902,0.25902,0.77512
583.955,28.0384,-2.96908,0.26074,0.77474
584.555,28.05808,-2.96909,0.26084,0.77436
585.155,28.07775,-2.97044,0.2623,0.77398
585.755,28.0973,-2.97141,0.25852,0.7736
586.355,28.11693,-2.97139,0.25898,0.77322
586.955,28.1366,-2.97139,0.25805,0.77284
587.555,28.1562,-2.97139,0.25394,0.77246
588.155,28.17587,-2.97139,0.25687,0.77208
588.755,28.19544,-2.97138,0.25585,0.7717
589.355,28.2151,-2.97226,0.25462,0.77132
589.955,28.2348,-2.97269,0.25221,0.77094
590.555,28.2544,-2.97272,0.25656,0.77055
591.155,28.274,-2.9729,0.25419,0.77017
591.755,28.2936,-2.97407,0.25251,0.76978
592.355,28.3132,-2.97404,0.25424,0.7694
592.955,28.33274,-2.97424,0.25271,0.76902
593.555,28.3524,-2.97534,0.25332,0.76863
594.155,28.3721,-2.97532,0.25258,0.76824
594.755,28.39173,-2.97616,0.25184,0.76786
595.355,28.4113,-2.97674,0.24981,0.76747
595.955,28.4309,-2.9775,0.24885,0.76708
596.555,28.4505,-2.97808,0.25016,0.7667
597.155,28.47011,-2.97808,0.25124,0.76631
597.755,28.48984,-2.97808,0.2499,0.76592
598.355,28.5095,-2.97809,0.24708,0.76553
598.955,28.52924,-2.97809,0.24756,0.76514
599.555,28.5489,-2.9781,0.24863,0.76475
600.155,28.5686,-2.97893,0.25014,0.76436
600.755,28.58822,-2.97933,0.24769,0.76397
601.355,28.6079,-2.9807,0.24901,0.76358
601.955,28.62749,-2.98071,0.24875,0.76319
602.555,28.64715,-2.98086,0.24954,0.7628
603.155,28.6668,-2.98209,0.24924,0.76241
603.755,28.68644,-2.98204,0.24882,0.76201
604.355,28.7061,-2.98203,0.24885,0.76162
604.955,28.72578,-2.98207,0.25034,0.76123
605.555,28.7454,-2.98284,0.24821,0.76083
606.155,28.765,-2.98473,0.25076,0.76044
606.755,28.7847,-2.9847,0.24868,0.76004
607.355,28.8044,-2.98506,0.24919,0.75965
607.955,28.824,-2.98598,0.24979,0.75925
608.555,28.84368,-2.98581,0.25038,0.75886
609.155,28.8634,-2.98464,0.25046,0.75846
609.755,28.8831,-2.98607,0.25179,0.75806
610.355,28.9028,-2.98599,0.25193,0.75766
610.955,28.9226,-2.98599,0.25167,0.75727
611.555,28.9423,-2.98616,0.25549,0.75687
612.155,28.962,-2.9873,0.25771,0.75647
612.755,28.98175,-2.9873,0.25274,0.75607
613.355,29.0015,-2.98739,0.25541,0.75567
613.955,29.02116,-2.98861,0.25642,0.75527
614.555,29.0409,-2.9886,0.25445,0.75487
615.155,29.06065,-2.98932,0.25895,0.75447
615.755,29.0804,-2.98993,0.25858,0.75406
616.355,29.1001,-2.98993,0.25699,0.75366
616.955,29.11983,-2.98993,0.26062,0.75326
617.555,29.1396,-2.99087,0.2556,0.75286
618.155,29.1593,-2.99124,0.25932,0.75245
618.755,29.17902,-2.99124,0.25892,0.75205
619.355,29.1987,-2.99094,0.25886,0.75164
619.955,29.2184,-2.99093,0.25995,0.75124
620.555,29.2382,-2.99173,0.26036,0.75083
621.155,29.25797,-2.99223,0.25935,0.75043
621.755,29.27777,-2.99223,0.26462,0.75002
622.355,29.2976,-2.99223,0.2603,0.74962
622.955,29.31731,-2.99226,0.25974,0.74921
623.555,29.3371,-2.99295,0.26275,0.7488
624.155,29.3568,-2.99404,0.26108,0.74839
624.755,29.37658,-2.99457,0.26247,0.74798
625.355,29.39635,-2.99556,0.26067,0.74758
625.955,29.41617,-2.99555,0.26264,0.74717
626.555,29.4359,-2.99609,0.26143,0.74676
627.155,29.4557,-2.99685,0.26236,0.74635
627.755,29.47547,-2.99687,0.26049,0.74593
628.355,29.49519,-2.99732,0.26155,0.74552
628.955,29.51492,-2.99816,0.2643,0.74511
629.555,29.5347,-2.99817,0.26695,0.7447
630.155,29.55446,-2.99855,0.26379,0.74429
630.755,29.5742,-2.99947,0.26202,0.74387
631.355,29.594,-2.99936,0.26655,0.74346
631.955,29.6138,-2.99939,0.26444,0.74305
632.555,29.6336,-2.99978,0.26623,0.74263
633.155,29.65338,-2.99973,0.26862,0.74222
633.755,29.6732,-3.00098,0.26971,0.7418
634.355,29.69303,-3.00111,0.26989,0.74139
634.955,29.71289,-3.00112,0.27093,0.74097
635.555,29.73269,-3.00132,0.27083,0.74055
636.155,29.7525,-3.00244,0.27109,0.74013
636.755,29.77228,-3.00243,0.27219,0.73972
637.355,29.79205,-3.00243,0.27498,0.7393
637.955,29.81185,-3.0024,0.27518,0.73888
638.555,29.83165,-3.00354,0.27366,0.73846
639.155,29.8514,-3.00372,0.27359,0.73804
639.755,29.87122,-3.00482,0.27521,0.73762
640.355,29.891,-3.00506,0.27588,0.7372
640.955,29.9108,-3.00506,0.27713,0.73678
641.555,29.9307,-3.00506,0.27786,0.73636
642.155,29.9505,-3.00506,0.27617,0.73594
642.755,29.97036,-3.00506,0.28005,0.73551
643.355,29.9901,-3.00506,0.2799,0.73509
643.955,30.01,-3.00638,0.28423,0.73467
644.555,30.0298,-3.00638,0.28567,0.73424
645.155,30.0496,-3.00733,0.28099,0.73382
645.755,30.0694,-3.00769,0.28341,0.7334
646.355,30.0892,-3.00767,0.28294,0.73297
646.955,30.10912,-3.00898,0.28274,0.73254
647.555,30.1289,-3.00902,0.28461,0.73212
648.155,30.1488,-3.00868,0.28806,0.73169
648.755,30.16862,-3.00991,0.28824,0.73126
649.355,30.18849,-3.01,0.2886,0.73084
649.955,30.20829,-3.01002,0.28961,0.73041
650.555,30.2282,-3.01051,0.29217,0.72998
651.155,30.2481,-3.01134,0.29297,0.72955
651.755,30.268,-3.01132,0.29608,0.72912
652.355,30.2878,-3.01128,0.29263,0.72869
652.955,30.3077,-3.01255,0.29646,0.72826
653.555,30.32759,-3.01266,0.29851,0.72783
654.155,30.3474,-3.01338,0.30016,0.7274
654.755,30.3673,-3.01395,0.30197,0.72697
655.355,30.3871,-3.01396,0.30192,0.72654
655.955,30.40693,-3.01436,0.30024,0.7261
656.555,30.42683,-3.0153,0.30498,0.72567
657.155,30.4467,-3.01527,0.30524,0.72524
657.755,30.4665,-3.01629,0.30787,0.7248
658.355,30.4863,-3.01657,0.30798,0.72437
658.955,30.50615,-3.01664,0.31084,0.72393
659.555,30.52603,-3.01541,0.31228,0.7235
660.155,30.54593,-3.01639,0.31566,0.72306
660.755,30.56583,-3.01657,0.31712,0.72263
661.355,30.5857,-3.01667,0.31985,0.72219
661.955,30.6056,-3.01799,0.32017,0.72175
662.555,30.6254,-3.01793,0.32195,0.72131
663.155,30.64525,-3.01839,0.32503,0.72088
663.755,30.6651,-3.01922,0.33024,0.72044
664.355,30.68494,-3.01913,0.32746,0.72
664.955,30.70477,-3.02045,0.33263,0.71956
665.555,30.72465,-3.02048,0.33242,0.71912
666.155,30.74451,-3.02155,0.338,0.71868
666.755,30.76434,-3.02184,0.3388,0.71824
667.355,30.7842,-3.02186,0.34187,0.71779
667.955,30.80407,-3.02205,0.34731,0.71735
668.555,30.8239,-3.02321,0.3466,0.71691
669.155,30.84383,-3.02316,0.3502,0.71647
669.755,30.86378,-3.02388,0.35443,0.71602
670.355,30.8836,-3.02445,0.35788,0.71558
670.955,30.90348,-3.02444,0.35858,0.71514
671.555,30.92335,-3.02541,0.36265,0.71469
672.155,30.9432,-3.02578,0.36429,0.71425
672.755,30.963,-3.02574,0.37035,0.7138
673.355,30.98295,-3.02697,0.37342,0.71335
673.955,31.0028,-3.02713,0.3756,0.71291
674.555,31.0228,-3.02851,0.37845,0.71246
675.155,31.0427,-3.02829,0.3825,0.71201
675.755,31.06261,-3.02799,0.38681,0.71156
676.355,31.0825,-3.02909,0.38608,0.71112
676.955,31.1023,-3.02905,0.38899,0.71067
677.555,31.12215,-3.03023,0.39594,0.71022
678.155,31.142,-3.03047,0.39705,0.70977
678.755,31.1619,-3.03163,0.40181,0.70932
679.355,31.18185,-3.03183,0.40157,0.70887
679.955,31.2018,-3.03183,0.40394,0.70841
680.555,31.22168,-3.03232,0.41162,0.70796
681.155,31.2415,-3.03312,0.40993,0.70751
681.755,31.2613,-3.03311,0.41243,0.70706
682.355,31.2813,-3.03423,0.41747,0.7066
682.955,31.30118,-3.0345,0.41667,0.70615
683.555,31.32109,-3.0374,0.41901,0.7057
684.155,31.34112,-3.03809,0.41941,0.70524
684.755,31.36105,-3.03884,0.42706,0.70479
685.355,31.381,-3.03926,0.42281,0.70433
685.955,31.4009,-3.04013,0.4254,0.70388
686.555,31.42083,-3.03883,0.42927,0.70342
687.155,31.4407,-3.03887,0.42968,0.70296
687.755,31.4607,-3.04018,0.43262,0.7025
688.355,31.48058,-3.04016,0.43119,0.70205
688.955,31.5005,-3.0415,0.43221,0.70159
689.555,31.52035,-3.04148,0.43391,0.70113
690.155,31.5403,-3.04282,0.43501,0.70067
690.755,31.56017,-3.0428,0.43394,0.70021
691.355,31.5801,-3.04379,0.43124,0.69975
691.955,31.6,-3.04422,0.43234,0.69929
692.555,31.61986,-3.04422,0.42776,0.69883
693.155,31.63978,-3.04421,0.4327,0.69837
693.755,31.6597,-3.04553,0.43026,0.6979
694.355,31.67967,-3.04552,0.42757,0.69744
694.955,31.6996,-3.04695,0.42645,0.69698
695.555,31.71963,-3.04694,0.42249,0.69652
696.155,31.7397,-3.04828,0.42407,0.69605
696.755,31.7597,-3.04858,0.4215,0.69559
697.355,31.77965,-3.04983,0.41549,0.69512
697.955,31.79962,-3.05077,0.41674,0.69466
698.555,31.81952,-3.05113,0.4097,0.69419
699.155,31.83945,-3.05114,0.41073,0.69373
699.755,31.8594,-3.05207,0.40322,0.69326
700.355,31.87937,-3.05246,0.4009,0.69279
700.955,31.89932,-3.05305,0.39096,0.69232
701.555,31.91928,-3.05388,0.38849,0.69186
702.155,31.9393,-3.05384,0.38098,0.69139
702.755,31.9593,-3.05519,0.37659,0.69092
703.355,31.9793,-3.05519,0.37105,0.69045
703.955,31.99925,-3.05515,0.36582,0.68998
704.555,32.01923,-3.0565,0.35909,0.68951
705.155,32.03915,-3.05647,0.35259,0.68904
705.755,32.05911,-3.05752,0.34648,0.68857
706.355,32.07904,-3.05715,0.34312,0.68809
706.955,32.0991,-3.05842,0.33445,0.68762
707.555,32.11908,-3.05849,0.32912,0.68715
708.155,32.13912,-3.05939,0.31955,0.68668
708.755,32.15909,-3.0598,0.31053,0.6862
709.355,32.1791,-3.05981,0.30148,0.68573
709.955,32.199,-3.06069,0.29499,0.68525
710.555,32.21906,-3.0605,0.28653,0.68478
711.155,32.23911,-3.06173,0.28036,0.6843
711.755,32.2591,-3.06179,0.2702,0.68383
712.355,32.2791,-3.06269,0.26447,0.68335
712.955,32.29915,-3.06309,0.25673,0.68288
713.555,32.3191,-3.06307,0.24923,0.6824
714.155,32.33907,-3.06443,0.24457,0.68192
714.755,32.35907,-3.0634,0.24107,0.68144
715.355,32.3791,-3.06337,0.23395,0.68096
715.955,32.399,-3.06473,0.22513,0.68049
716.555,32.41902,-3.06474,0.22443,0.68001
717.155,32.439,-3.06474,0.21923,0.67953
717.755,32.45902,-3.06474,0.21513,0.67905
718.355,32.47905,-3.06474,0.21028,0.67856
718.955,32.49904,-3.06474,0.20524,0.67808
719.555,32.5191,-3.06475,0.20225,0.6776
720.155,32.53903,-3.06563,0.19853,0.67712
720.755,32.55907,-3.06605,0.19388,0.67664
721.355,32.57908,-3.06605,0.19683,0.67615
721.955,32.5991,-3.06605,0.19341,0.67567
722.555,32.61902,-3.06731,0.19525,0.67519
723.155,32.63906,-3.06737,0.19035,0.6747
723.755,32.6591,-3.06737,0.19012,0.67422
724.355,32.6791,-3.06735,0.19159,0.67373
724.955,32.69915,-3.06866,0.18168,0.67325
725.555,32.71913,-3.06869,0.1877,0.67276
726.155,32.73919,-3.06927,0.18568,0.67227
726.755,32.7592,-3.07,0.18204,0.67179
727.355,32.77926,-3.06996,0.18279,0.6713
727.955,32.79932,-3.07132,0.18238,0.67081
728.555,32.81933,-3.07132,0.18806,0.67032
729.155,32.83931,-3.07132,0.1835,0.66983
729.755,32.85934,-3.07128,0.18338,0.66934
730.355,32.87937,-3.07231,0.18423,0.66885
730.955,32.8994,-3.07258,0.18247,0.66836
731.555,32.91946,-3.07363,0.18149,0.66787
732.155,32.93954,-3.07362,0.18053,0.66738
732.755,32.9596,-3.07362,0.18029,0.66689
733.355,32.9797,-3.07362,0.17789,0.6664
733.955,32.99977,-3.07361,0.17902,0.66591
734.555,33.01964,-3.07493,0.17583,0.66541
735.155,33.0396,-3.07463,0.17627,0.66492
735.755,33.05972,-3.07425,0.17583,0.66443
736.355,33.0798,-3.07526,0.1754,0.66393
736.955,33.0999,-3.07526,0.17405,0.66344
737.555,33.12018,-3.07526,0.1756,0.66294
738.155,33.1402,-3.0756,0.17514,0.66245
738.755,33.16024,-3.07625,0.17562,0.66195
739.355,33.18031,-3.07625,0.17637,0.66145
739.955,33.2004,-3.07625,0.17239,0.66096
740.555,33.22036,-3.07625,0.17334,0.66046
741.155,33.24041,-3.07694,0.17672,0.65996
741.755,33.26044,-3.07757,0.17161,0.65946
742.355,33.28049,-3.07757,0.17655,0.65897
742.955,33.30141,-3.07757,0.17389,0.65847
743.555,33.32235,-3.07811,0.17301,0.65797
743.855,33.33202,-3.07893,0.17297,0.65772