File: 01_Data/Lightweight_Gypsum_Wallboard_Painted_Paper/STA/N2/3K_min/Lightweight_Gypsum_Wallboard_Painted_Paper_STA_N2_3KData_222302_R1.csv
##Temp./Â°C,Time/min,Mass loss(subtr.2)/mg,DSC(subtr.2)/(mW/mg),Sensit./(uV/mW)
50.14,10.01667,-0.03587,0.01352253,1.048
50.84,11.1457,-0.04106564,0.03764701,1.04769
51.54,11.54243,-0.03958545,0.05037073,1.04738
52.24,11.8674,-0.03931769,0.06076664,1.04707
52.94,12.16228,-0.04376609,0.06756552,1.04676
53.64,12.4408,-0.04036072,0.06775086,1.04646
54.34,12.71011,-0.04185882,0.07536706,1.04615
55.04,12.97382,-0.04062758,0.07635653,1.04584
55.74,13.23301,-0.04452926,0.0779999,1.04553
56.44,13.489,-0.0458871,0.07883261,1.04522
57.14,13.74221,-0.04321593,0.0817489,1.04491
57.84,13.99424,-0.04876092,0.08361222,1.04461
58.54,14.2444,-0.04596013,0.08446757,1.0443
59.24,14.4923,-0.04741619,0.08649111,1.04399
59.94,14.73656,-0.04727995,0.0866212,1.04369
60.64,14.98,-0.04844962,0.08854672,1.04338
61.34,15.2222,-0.0486255,0.09181324,1.04307
62.04,15.4658,-0.05089904,0.09218378,1.04277
62.74,15.70711,-0.05219991,0.09268706,1.04246
63.44,15.9497,-0.05219662,0.09634738,1.04216
64.14,16.19145,-0.05221392,0.09292636,1.04185
64.84,16.43226,-0.05357701,0.09612363,1.04155
65.54,16.67093,-0.05064631,0.09779729,1.04124
66.24,16.9082,-0.05581615,0.09905788,1.04094
66.94,17.14496,-0.05452499,0.10199,1.04064
67.64,17.38113,-0.05544571,0.10372,1.04033
68.34,17.61721,-0.05200017,0.10247,1.04003
69.04,17.8527,-0.05487198,0.10235,1.03972
69.74,18.08764,-0.05596749,0.10327,1.03942
70.44,18.32329,-0.05834768,0.10309,1.03912
71.14,18.55973,-0.05891007,0.10422,1.03882
71.84,18.79672,-0.06152486,0.10425,1.03851
72.54,19.03219,-0.06057122,0.10331,1.03821
73.24,19.2669,-0.05977697,0.10379,1.03791
73.94,19.50001,-0.05890999,0.10533,1.03761
74.64,19.7329,-0.06066827,0.10649,1.03731
75.34,19.966,-0.061066,0.10445,1.03701
76.04,20.19898,-0.06109124,0.1068,1.03671
76.74,20.43202,-0.0646109,0.10643,1.0364
77.44,20.66469,-0.06315899,0.10838,1.0361
78.14,20.89856,-0.06437209,0.10611,1.0358
78.84,21.1325,-0.06548847,0.10524,1.0355
79.54,21.36636,-0.06715473,0.10371,1.0352
80.24,21.59969,-0.06581282,0.10409,1.0349
80.94,21.83322,-0.06844599,0.10528,1.03461
81.64,22.0692,-0.07010612,0.10298,1.03431
82.34,22.30489,-0.06999001,0.10156,1.03401
83.04,22.53993,-0.06876927,0.10179,1.03371
83.74,22.77375,-0.06875049,0.1007,1.03341
84.44,23.0079,-0.06747151,0.10033,1.03311
85.14,23.24126,-0.06798212,0.09877657,1.03281
85.84,23.47418,-0.071988,0.10089,1.03252
86.54,23.70685,-0.07189407,0.09876988,1.03222
87.24,23.9397,-0.06942197,0.09842167,1.03192
87.94,24.17332,-0.06994277,0.09592426,1.03162
88.64,24.40681,-0.06880224,0.09578244,1.03133
89.34,24.6418,-0.06943908,0.09565953,1.03103
90.04,24.87555,-0.07020324,0.09397613,1.03073
90.74,25.10979,-0.0714031,0.09414079,1.03044
91.44,25.3436,-0.07271181,0.09364196,1.03014
92.14,25.5782,-0.07266071,0.09375863,1.02985
92.84,25.81224,-0.07404115,0.09263896,1.02955
93.54,26.0448,-0.07166842,0.09291645,1.02925
94.24,26.2772,-0.07332197,0.09508379,1.02896
94.94,26.50863,-0.07602168,0.09516545,1.02866
95.64,26.7408,-0.07533947,0.09483202,1.02837
96.34,26.97205,-0.07577154,0.0941453,1.02807
97.04,27.20315,-0.07472831,0.09460333,1.02778
97.74,27.4371,-0.07602594,0.09139348,1.02749
98.44,27.67207,-0.0746984,0.09090165,1.02719
99.14,27.907,-0.07338523,0.09063435,1.0269
99.84,28.1394,-0.07672545,0.09116963,1.0266
100.54,28.37156,-0.07734,0.09080497,1.02631
101.24,28.6045,-0.07733987,0.09211653,1.02602
101.94,28.83693,-0.07602158,0.09600767,1.02572
102.64,29.0688,-0.07667022,0.09296927,1.02543
103.34,29.29781,-0.07865623,0.09433336,1.02514
104.04,29.52747,-0.07872738,0.09341222,1.02485
104.74,29.7596,-0.07930737,0.09362678,1.02455
105.44,29.99343,-0.07796173,0.09289978,1.02426
106.14,30.2265,-0.07799514,0.09192454,1.02397
106.84,30.45764,-0.07951671,0.09052455,1.02368
107.54,30.6893,-0.07941803,0.0917717,1.02338
108.24,30.92189,-0.07942849,0.08906866,1.02309
108.94,31.15467,-0.08218074,0.0904753,1.0228
109.64,31.38555,-0.08050033,0.09045017,1.02251
110.34,31.6156,-0.0781572,0.09004858,1.02222
111.04,31.84505,-0.08172935,0.09296498,1.02193
111.74,32.07479,-0.07910314,0.0930946,1.02164
112.44,32.30373,-0.08171296,0.09385642,1.02135
113.14,32.53293,-0.08041076,0.09488112,1.02106
113.84,32.7629,-0.08041607,0.09248359,1.02077
114.54,32.9931,-0.08159357,0.0945448,1.02048
115.24,33.22408,-0.08433556,0.09400772,1.02019
115.94,33.4553,-0.08088972,0.09168301,1.0199
116.64,33.68778,-0.08135579,0.09126299,1.01961
117.34,33.91945,-0.08449146,0.09032055,1.01932
118.04,34.1516,-0.0840267,0.09228469,1.01903
118.74,34.38387,-0.08270999,0.09180385,1.01874
119.44,34.61696,-0.08206484,0.09014814,1.01845
120.14,34.84875,-0.08271075,0.08836372,1.01816
120.84,35.07993,-0.08568277,0.08934012,1.01787
121.54,35.311,-0.08349663,0.09161398,1.01758
122.24,35.5425,-0.08487435,0.09219273,1.0173
122.94,35.77365,-0.082592,0.09295937,1.01701
123.64,36.00293,-0.08479034,0.08947728,1.01672
124.34,36.23138,-0.08215578,0.09374836,1.01643
125.04,36.45913,-0.08445761,0.09379176,1.01614
125.74,36.68983,-0.08404023,0.0929403,1.01585
126.44,36.92272,-0.08509878,0.0936425,1.01557
127.14,37.15632,-0.08609342,0.09295953,1.01528
127.84,37.3884,-0.08515493,0.09314899,1.01499
128.54,37.61943,-0.08641239,0.09491115,1.01471
129.24,37.84977,-0.0851188,0.09373935,1.01442
129.94,38.0796,-0.08546,0.09198686,1.01413
130.64,38.3086,-0.08599457,0.09365918,1.01384
131.34,38.53779,-0.08628544,0.09328499,1.01356
132.04,38.76592,-0.08819854,0.09241495,1.01327
132.74,38.99552,-0.08811232,0.09496816,1.01298
133.44,39.22575,-0.0871078,0.09215138,1.0127
134.14,39.45707,-0.0881085,0.09099015,1.01241
134.84,39.6888,-0.09030171,0.09065522,1.01213
135.54,39.91995,-0.08983755,0.09002453,1.01184
136.24,40.152,-0.08918049,0.09007813,1.01155
136.94,40.38262,-0.09181956,0.09125467,1.01127
137.64,40.6136,-0.08984048,0.08859888,1.01098
138.34,40.84408,-0.08766903,0.09188306,1.0107
139.04,41.0751,-0.08984747,0.09127746,1.01041
139.74,41.30588,-0.09127731,0.0927764,1.01013
140.44,41.53629,-0.09376176,0.09450719,1.00984
141.14,41.76686,-0.09247019,0.09500131,1.00956
141.84,41.99627,-0.09141231,0.09550856,1.00927
142.54,42.22575,-0.0954057,0.09415568,1.00899
143.24,42.45483,-0.09217553,0.09648689,1.0087
143.94,42.68381,-0.09509912,0.09703088,1.00842
144.64,42.9127,-0.0924016,0.09788793,1.00813
145.34,43.14091,-0.0925933,0.09602063,1.00785
146.04,43.36826,-0.09256622,0.09660583,1.00756
146.74,43.59467,-0.09575409,0.09622612,1.00728
147.44,43.8219,-0.09336736,0.09521815,1.00699
148.14,44.05064,-0.09608199,0.09600903,1.00671
148.84,44.28167,-0.09475079,0.097461,1.00642
149.54,44.51175,-0.09609825,0.09967405,1.00614
150.24,44.74225,-0.0960901,0.09910669,1.00586
150.94,44.97027,-0.09641838,0.10168,1.00557
151.64,45.19947,-0.09643153,0.09990917,1.00529
152.34,45.42799,-0.09517233,0.09947169,1.005
153.04,45.6578,-0.09642653,0.10291,1.00472
153.74,45.88677,-0.09641999,0.10069,1.00444
154.44,46.11663,-0.09816742,0.0984017,1.00415
155.14,46.34649,-0.10226,0.09693005,1.00387
155.84,46.57677,-0.09983104,0.09831763,1.00359
156.54,46.80594,-0.09948744,0.09988799,1.0033
157.24,47.0349,-0.10191,0.09958866,1.00302
157.94,47.26363,-0.09949131,0.1013,1.00274
158.64,47.49215,-0.10058,0.10195,1.00245
159.34,47.71938,-0.1019,0.10162,1.00217
160.04,47.94697,-0.09795497,0.10278,1.00189
160.74,48.17409,-0.10059,0.10413,1.0016
161.44,48.4026,-0.10453,0.10362,1.00132
162.14,48.63024,-0.107,0.10557,1.00104
162.84,48.8587,-0.10442,0.10503,1.00076
163.54,49.08695,-0.10268,0.10428,1.00047
164.24,49.31643,-0.1019,0.10425,1.00019
164.94,49.54537,-0.10032,0.10257,0.99991
165.64,49.77472,-0.10649,0.10428,0.99962
166.34,50.0032,-0.10387,0.10362,0.99934
167.04,50.231,-0.10519,0.10572,0.99906
167.74,50.45933,-0.10392,0.10322,0.99878
168.44,50.68701,-0.10536,0.10676,0.99849
169.14,50.91511,-0.10702,0.10651,0.99821
169.84,51.14246,-0.10385,0.10705,0.99793
170.54,51.37044,-0.10312,0.10424,0.99765
171.24,51.59876,-0.10789,0.10787,0.99736
171.94,51.82699,-0.10849,0.106,0.99708
172.64,52.05532,-0.10854,0.10569,0.9968
173.34,52.28346,-0.10838,0.10266,0.99652
174.04,52.51076,-0.10922,0.10449,0.99624
174.74,52.73822,-0.10838,0.10805,0.99595
175.44,52.9662,-0.11101,0.10703,0.99567
176.14,53.1948,-0.10959,0.1088,0.99539
176.84,53.42417,-0.11352,0.10697,0.99511
177.54,53.65367,-0.10986,0.10691,0.99482
178.24,53.88329,-0.11221,0.10795,0.99454
178.94,54.11265,-0.11228,0.10804,0.99426
179.64,54.34185,-0.11426,0.10486,0.99398
180.34,54.57119,-0.11485,0.10814,0.99369
181.04,54.80106,-0.11484,0.10633,0.99341
181.74,55.0309,-0.11583,0.10685,0.99313
182.44,55.26086,-0.11583,0.10744,0.99285
183.14,55.49,-0.11725,0.10778,0.99257
183.84,55.71869,-0.11715,0.10753,0.99228
184.54,55.9466,-0.1176,0.1077,0.992
185.24,56.1736,-0.11846,0.10846,0.99172
185.94,56.40074,-0.12013,0.10613,0.99144
186.64,56.628,-0.11879,0.10898,0.99116
187.34,56.8551,-0.12216,0.10867,0.99087
188.04,57.08203,-0.12044,0.1085,0.99059
188.74,57.30834,-0.12043,0.10891,0.99031
189.44,57.5351,-0.12147,0.10939,0.99003
190.14,57.7615,-0.12308,0.10821,0.98974
190.84,57.98856,-0.12461,0.11208,0.98946
191.54,58.2154,-0.12597,0.11084,0.98918
192.24,58.4423,-0.12735,0.11149,0.9889
192.94,58.66947,-0.12867,0.11013,0.98861
193.64,58.89702,-0.12436,0.11057,0.98833
194.34,59.12478,-0.12911,0.11125,0.98805
195.04,59.3521,-0.12971,0.10761,0.98777
195.74,59.5798,-0.1308,0.10844,0.98748
196.44,59.808,-0.12944,0.10795,0.9872
197.14,60.0375,-0.13255,0.1057,0.98692
197.84,60.2657,-0.13444,0.10664,0.98664
198.54,60.4945,-0.13185,0.1094,0.98635
199.24,60.7228,-0.13515,0.10835,0.98607
199.94,60.9524,-0.13513,0.1073,0.98579
200.64,61.1811,-0.13513,0.11053,0.98551
201.34,61.4099,-0.13776,0.11013,0.98522
202.04,61.6379,-0.13908,0.10926,0.98494
202.74,61.8652,-0.13778,0.11076,0.98466
203.44,62.0916,-0.13802,0.11207,0.98437
204.14,62.3178,-0.14129,0.11583,0.98409
204.84,62.54419,-0.1426,0.11366,0.98381
205.54,62.77078,-0.14391,0.11265,0.98353
206.24,62.99781,-0.14458,0.11203,0.98324
206.94,63.2251,-0.14554,0.11161,0.98296
207.64,63.4522,-0.14687,0.1114,0.98268
208.34,63.68,-0.14533,0.10901,0.98239
209.04,63.9072,-0.15091,0.10915,0.98211
209.74,64.13453,-0.14984,0.10798,0.98183
210.44,64.36071,-0.14924,0.11029,0.98154
211.14,64.58725,-0.15186,0.11105,0.98126
211.84,64.81283,-0.1514,0.11302,0.98097
212.54,65.0381,-0.15247,0.11334,0.98069
213.24,65.26522,-0.15116,0.11022,0.98041
213.94,65.49436,-0.1535,0.11059,0.98012
214.64,65.7243,-0.15559,0.11016,0.97984
215.34,65.9528,-0.15667,0.11132,0.97955
216.04,66.18055,-0.16172,0.11409,0.97927
216.74,66.40834,-0.1608,0.11211,0.97899
217.44,66.63668,-0.15965,0.11298,0.9787
218.14,66.86532,-0.16218,0.11078,0.97842
218.84,67.0932,-0.16194,0.11332,0.97813
219.54,67.32053,-0.16738,0.11193,0.97785
220.24,67.54849,-0.16882,0.11142,0.97756
220.94,67.7773,-0.16665,0.11243,0.97728
221.64,68.00364,-0.16847,0.11308,0.97699
222.34,68.2289,-0.1695,0.11334,0.97671
223.04,68.4526,-0.17013,0.1161,0.97642
223.74,68.6802,-0.17506,0.11476,0.97614
224.44,68.9077,-0.17369,0.11343,0.97585
225.14,69.1362,-0.17506,0.11185,0.97557
225.84,69.36231,-0.17786,0.11573,0.97528
226.54,69.58744,-0.17771,0.11351,0.975
227.24,69.81401,-0.17771,0.11383,0.97471
227.94,70.04045,-0.17898,0.11231,0.97442
228.64,70.26853,-0.18428,0.11416,0.97414
229.34,70.4962,-0.18039,0.11259,0.97385
230.04,70.72491,-0.18292,0.11258,0.97357
230.74,70.95416,-0.18679,0.11341,0.97328
231.44,71.18212,-0.18661,0.11354,0.97299
232.14,71.40977,-0.1895,0.11579,0.97271
232.84,71.6365,-0.1902,0.11697,0.97242
233.54,71.86315,-0.19152,0.1183,0.97213
234.24,72.08964,-0.19395,0.11938,0.97185
234.94,72.31626,-0.19284,0.11707,0.97156
235.64,72.54259,-0.19678,0.11774,0.97127
236.34,72.76951,-0.19818,0.11628,0.97098
237.04,72.9971,-0.19954,0.11793,0.9707
237.74,73.2243,-0.19953,0.11735,0.97041
238.44,73.45081,-0.20089,0.11759,0.97012
239.14,73.6772,-0.20249,0.11528,0.96983
239.84,73.90597,-0.2054,0.11395,0.96954
240.54,74.13546,-0.20938,0.118,0.96926
241.24,74.3647,-0.20803,0.11685,0.96897
241.94,74.59151,-0.21288,0.11824,0.96868
242.64,74.81883,-0.21574,0.11812,0.96839
243.34,75.0454,-0.21779,0.11887,0.9681
244.04,75.2731,-0.21837,0.11836,0.96781
244.74,75.50055,-0.22037,0.11933,0.96752
245.44,75.72932,-0.22434,0.11948,0.96723
246.14,75.95861,-0.22563,0.11573,0.96694
246.84,76.18777,-0.22995,0.11708,0.96665
247.54,76.41679,-0.2309,0.11894,0.96636
248.24,76.64602,-0.23157,0.11671,0.96607
248.94,76.87476,-0.23682,0.11433,0.96578
249.64,77.10269,-0.23584,0.11581,0.96549
250.34,77.32944,-0.24032,0.11623,0.9652
251.04,77.5556,-0.24299,0.11687,0.96491
251.74,77.78125,-0.24296,0.11613,0.96462
252.44,78.0072,-0.25091,0.11825,0.96433
253.14,78.2341,-0.25327,0.11577,0.96404
253.84,78.46152,-0.25707,0.11406,0.96375
254.54,78.6891,-0.25589,0.11122,0.96345
255.24,78.91723,-0.25978,0.11248,0.96316
255.94,79.14536,-0.26597,0.10995,0.96287
256.64,79.37321,-0.26936,0.10875,0.96258
257.34,79.6002,-0.27324,0.11136,0.96229
258.04,79.82727,-0.27367,0.11075,0.96199
258.74,80.0545,-0.27752,0.11144,0.9617
259.44,80.28116,-0.28277,0.1133,0.96141
260.14,80.50798,-0.2854,0.11197,0.96111
260.84,80.73521,-0.28815,0.11174,0.96082
261.54,80.96341,-0.28942,0.10986,0.96053
262.24,81.1914,-0.29619,0.109,0.96023
262.94,81.419,-0.30011,0.11126,0.95994
263.64,81.64678,-0.30672,0.1161,0.95964
264.34,81.8745,-0.30976,0.11354,0.95935
265.04,82.10325,-0.31192,0.11522,0.95906
265.74,82.3317,-0.31724,0.11582,0.95876
266.44,82.56023,-0.32258,0.11474,0.95847
267.14,82.7878,-0.3276,0.11546,0.95817
267.84,83.01564,-0.33416,0.11475,0.95787
268.54,83.24249,-0.3368,0.11738,0.95758
269.24,83.47021,-0.3422,0.11444,0.95728
269.94,83.69773,-0.34534,0.11548,0.95699
270.64,83.92628,-0.35346,0.11725,0.95669
271.34,84.15375,-0.35778,0.11773,0.95639
272.04,84.38113,-0.36352,0.11979,0.9561
272.74,84.60961,-0.36959,0.12047,0.9558
273.44,84.8391,-0.37417,0.12394,0.9555
274.14,85.06829,-0.38047,0.12377,0.9552
274.84,85.2957,-0.38489,0.12549,0.95491
275.54,85.52248,-0.38912,0.12519,0.95461
276.24,85.74927,-0.3942,0.12841,0.95431
276.94,85.97582,-0.40134,0.12773,0.95401
277.64,86.2022,-0.40952,0.12897,0.95371
278.34,86.42917,-0.41889,0.13127,0.95341
279.04,86.6558,-0.42317,0.13067,0.95311
279.74,86.88418,-0.42928,0.13128,0.95281
280.44,87.1126,-0.43563,0.12983,0.95251
281.14,87.34291,-0.44248,0.12913,0.95221
281.84,87.57151,-0.44963,0.13271,0.95191
282.54,87.79893,-0.45498,0.13458,0.95161
283.24,88.02587,-0.4647,0.13588,0.95131
283.94,88.25281,-0.46726,0.13392,0.95101
284.64,88.48079,-0.47855,0.13663,0.95071
285.34,88.70873,-0.48735,0.13843,0.95041
286.04,88.93804,-0.49401,0.14157,0.95011
286.74,89.16683,-0.50019,0.13816,0.9498
287.44,89.39646,-0.50971,0.13892,0.9495
288.14,89.62594,-0.51732,0.1389,0.9492
288.84,89.8559,-0.5258,0.13851,0.9489
289.54,90.08504,-0.53413,0.14043,0.94859
290.24,90.31342,-0.54181,0.13952,0.94829
290.94,90.54156,-0.55456,0.14418,0.94799
291.64,90.76931,-0.5605,0.14704,0.94768
292.34,90.99685,-0.56682,0.14396,0.94738
293.04,91.2241,-0.57904,0.14832,0.94707
293.74,91.45006,-0.58836,0.14681,0.94677
294.44,91.67534,-0.59562,0.14941,0.94646
295.14,91.90139,-0.60508,0.15113,0.94616
295.84,92.12943,-0.61524,0.14991,0.94585
296.54,92.35769,-0.62672,0.14977,0.94554
297.24,92.5876,-0.63503,0.15382,0.94524
297.94,92.81693,-0.64518,0.15373,0.94493
298.64,93.04706,-0.65142,0.15329,0.94462
299.34,93.2744,-0.66543,0.15516,0.94432
300.04,93.50227,-0.68017,0.15872,0.94401
300.74,93.73015,-0.68782,0.15643,0.9437
301.44,93.95923,-0.69834,0.15826,0.94339
302.14,94.18896,-0.70919,0.15756,0.94308
302.84,94.41875,-0.72229,0.15962,0.94278
303.54,94.6489,-0.7336,0.15902,0.94247
304.24,94.878,-0.74593,0.16266,0.94216
304.94,95.10749,-0.75573,0.16391,0.94185
305.64,95.3364,-0.76523,0.16494,0.94154
306.34,95.5645,-0.78083,0.16741,0.94123
307.04,95.7919,-0.79224,0.16878,0.94092
307.74,96.01831,-0.80273,0.16889,0.9406
308.44,96.24511,-0.81672,0.17395,0.94029
309.14,96.47125,-0.83335,0.17486,0.93998
309.84,96.6987,-0.8391,0.17585,0.93967
310.54,96.92687,-0.85714,0.17727,0.93936
311.24,97.155,-0.87193,0.17618,0.93904
311.94,97.38485,-0.88306,0.17987,0.93873
312.64,97.615,-0.89738,0.18211,0.93842
313.34,97.84657,-0.91352,0.18342,0.9381
314.04,98.0761,-0.92797,0.1885,0.93779
314.74,98.30543,-0.9442,0.19106,0.93748
315.44,98.5341,-0.9582,0.19291,0.93716
316.14,98.76225,-0.97313,0.19764,0.93685
316.84,98.98966,-0.99076,0.1999,0.93653
317.54,99.21679,-1.00847,0.20487,0.93621
318.24,99.44396,-1.02492,0.2046,0.9359
318.94,99.67177,-1.03959,0.20746,0.93558
319.64,99.89997,-1.06001,0.21193,0.93527
320.34,100.1283,-1.07435,0.21595,0.93495
321.04,100.357,-1.09301,0.21819,0.93463
321.74,100.585,-1.11465,0.22159,0.93431
322.44,100.813,-1.13091,0.22363,0.93399
323.14,101.0411,-1.15046,0.22819,0.93368
323.84,101.272,-1.17384,0.23175,0.93336
324.54,101.503,-1.18922,0.2349,0.93304
325.24,101.735,-1.21047,0.23548,0.93272
325.94,101.966,-1.23159,0.24043,0.9324
326.64,102.196,-1.25173,0.24369,0.93208
327.34,102.425,-1.27507,0.24724,0.93176
328.04,102.652,-1.29817,0.24752,0.93144
328.74,102.879,-1.31875,0.25144,0.93111
329.44,103.11,-1.34185,0.25575,0.93079
330.14,103.34,-1.36476,0.25488,0.93047
330.84,103.57,-1.38749,0.25668,0.93015
331.54,103.798,-1.40873,0.25855,0.92982
332.24,104.026,-1.43071,0.25475,0.9295
332.94,104.254,-1.45571,0.25436,0.92918
333.64,104.482,-1.47738,0.25534,0.92885
334.34,104.71,-1.49997,0.25399,0.92853
335.04,104.939,-1.52414,0.25429,0.9282
335.74,105.167,-1.54759,0.25188,0.92788
336.44,105.395,-1.56726,0.25114,0.92755
337.14,105.623,-1.59039,0.24758,0.92723
337.84,105.851,-1.613,0.24433,0.9269
338.54,106.078,-1.63383,0.23921,0.92657
339.24,106.305,-1.65738,0.23278,0.92625
339.94,106.533,-1.67787,0.22515,0.92592
340.64,106.762,-1.69828,0.21973,0.92559
341.34,106.991,-1.71798,0.21403,0.92526
342.04,107.22,-1.73536,0.20586,0.92493
342.74,107.45,-1.75037,0.20177,0.9246
343.44,107.68,-1.7736,0.19016,0.92427
344.14,107.91,-1.79209,0.18416,0.92394
344.84,108.14,-1.80368,0.17263,0.92361
345.54,108.37,-1.81954,0.16582,0.92328
346.24,108.6,-1.83426,0.15652,0.92295
346.94,108.828,-1.84896,0.14824,0.92262
347.64,109.057,-1.86431,0.13985,0.92229
348.34,109.287,-1.87183,0.13188,0.92195
349.04,109.515,-1.88403,0.12581,0.92162
349.74,109.744,-1.89552,0.11487,0.92129
350.44,109.972,-1.90333,0.11038,0.92095
351.14,110.199,-1.91378,0.10315,0.92062
351.84,110.426,-1.92561,0.0996942,0.92029
352.54,110.654,-1.93148,0.09645459,0.91995
353.24,110.883,-1.93948,0.08771708,0.91961
353.94,111.112,-1.94515,0.08108481,0.91928
354.64,111.341,-1.95357,0.07755678,0.91894
355.34,111.57,-1.95958,0.07508741,0.91861
356.04,111.799,-1.96613,0.07367538,0.91827
356.74,112.028,-1.97269,0.07475081,0.91793
357.44,112.257,-1.97607,0.07181631,0.91759
358.14,112.4867,-1.983,0.07251986,0.91725
358.84,112.716,-1.98752,0.06988625,0.91691
359.54,112.947,-1.99433,0.06858551,0.91658
360.24,113.177,-1.99969,0.06970539,0.91624
360.94,113.406,-2.00349,0.06989964,0.91589
361.64,113.6352,-2.00987,0.06836173,0.91555
362.34,113.865,-2.01552,0.06821821,0.91521
363.04,114.095,-2.02407,0.07182997,0.91487
363.74,114.325,-2.02877,0.07352292,0.91453
364.44,114.555,-2.03073,0.07307533,0.91419
365.14,114.784,-2.03866,0.07505349,0.91384
365.84,115.013,-2.04409,0.07553172,0.9135
366.54,115.241,-2.05211,0.0763129,0.91316
367.24,115.469,-2.0558,0.07595226,0.91281
367.94,115.697,-2.06225,0.08032926,0.91247
368.64,115.925,-2.07187,0.08020617,0.91212
369.34,116.153,-2.07893,0.08032885,0.91178
370.04,116.382,-2.0855,0.08186675,0.91143
370.74,116.611,-2.09214,0.08318291,0.91108
371.44,116.843,-2.09928,0.08423895,0.91074
372.14,117.073,-2.10745,0.08188494,0.91039
372.84,117.305,-2.11331,0.08341165,0.91004
373.54,117.535,-2.12173,0.08498497,0.90969
374.24,117.766,-2.13284,0.08522098,0.90934
374.94,117.996,-2.13991,0.08590318,0.90899
375.64,118.227,-2.1462,0.08568136,0.90864
376.34,118.457,-2.15594,0.08329229,0.90829
377.04,118.687,-2.16396,0.08406088,0.90794
377.74,118.918,-2.17031,0.08490861,0.90759
378.44,119.15,-2.18056,0.08302411,0.90724
379.14,119.382,-2.19007,0.08196028,0.90689
379.84,119.614,-2.19945,0.08340315,0.90653
380.54,119.846,-2.20918,0.08004728,0.90618
381.24,120.077,-2.21455,0.08078689,0.90583
381.94,120.308,-2.22292,0.07856479,0.90547
382.64,120.538,-2.23278,0.07627541,0.90512
383.34,120.768,-2.24134,0.07727778,0.90476
384.04,120.996,-2.25026,0.07143815,0.9044
384.74,121.225,-2.25831,0.06813504,0.90405
385.44,121.455,-2.26483,0.06610598,0.90369
386.14,121.687,-2.27467,0.06306936,0.90333
386.84,121.919,-2.2826,0.0577113,0.90298
387.54,122.1505,-2.2871,0.05439047,0.90262
388.24,122.381,-2.29514,0.05040843,0.90226
388.94,122.611,-2.30172,0.04848094,0.9019
389.64,122.841,-2.30867,0.04565361,0.90154
390.34,123.069,-2.31207,0.04535617,0.90118
391.04,123.298,-2.31867,0.0404963,0.90082
391.74,123.526,-2.32348,0.03857919,0.90046
392.44,123.755,-2.32551,0.03393987,0.9001
393.14,123.9851,-2.33048,0.03316409,0.89973
393.84,124.215,-2.33315,0.02989824,0.89937
394.54,124.445,-2.33982,0.03133147,0.89901
395.24,124.674,-2.34334,0.02919154,0.89864
395.94,124.904,-2.34725,0.02687692,0.89828
396.64,125.134,-2.34961,0.02570198,0.89791
397.34,125.366,-2.35223,0.02294569,0.89755
398.04,125.598,-2.35389,0.02085915,0.89718
398.74,125.83,-2.35865,0.02279917,0.89682
399.44,126.061,-2.36045,0.02359713,0.89645
400.14,126.292,-2.36307,0.02126579,0.89608
400.84,126.524,-2.36479,0.02247195,0.89571
401.54,126.756,-2.36691,0.01937779,0.89535
402.24,126.989,-2.36963,0.01922517,0.89498
402.94,127.221,-2.37231,0.02051505,0.89461
403.64,127.4522,-2.37499,0.01811439,0.89424
404.34,127.683,-2.37625,0.01785773,0.89387
405.04,127.913,-2.3777,0.0145176,0.8935
405.74,128.1416,-2.38023,0.01936693,0.89312
406.44,128.37,-2.38165,0.01878567,0.89275
407.14,128.596,-2.38545,0.01911034,0.89238
407.84,128.826,-2.38546,0.0180703,0.89201
408.54,129.056,-2.38933,0.01730577,0.89163
409.24,129.2874,-2.39107,0.01793701,0.89126
409.94,129.518,-2.39237,0.01832576,0.89088
410.64,129.748,-2.39621,0.01591703,0.89051
411.34,129.98,-2.39632,0.01589089,0.89013
412.04,130.212,-2.39869,0.01474938,0.88975
412.74,130.4457,-2.40027,0.0165562,0.88938
413.44,130.679,-2.39961,0.01361333,0.889
414.14,130.912,-2.40092,0.01252921,0.88862
414.84,131.144,-2.40356,0.01476774,0.88824
415.54,131.375,-2.40489,0.01558211,0.88786
416.24,131.6069,-2.40749,0.01476328,0.88748
416.94,131.838,-2.4101,0.01718608,0.8871
417.64,132.068,-2.41014,0.01753266,0.88672
418.34,132.297,-2.41018,0.01705078,0.88634
419.04,132.526,-2.41276,0.01935661,0.88596
419.74,132.756,-2.41518,0.01821575,0.88558
420.44,132.987,-2.4164,0.01645772,0.88519
421.14,133.218,-2.41803,0.0180453,0.88481
421.84,133.449,-2.41803,0.02167928,0.88443
422.54,133.681,-2.41973,0.02339136,0.88404
423.24,133.913,-2.42228,0.02427192,0.88366
423.94,134.144,-2.42231,0.02323818,0.88327
424.64,134.375,-2.4223,0.02044895,0.88288
425.34,134.605,-2.42458,0.02309845,0.8825
426.04,134.836,-2.42757,0.02135369,0.88211
426.74,135.067,-2.42888,0.02289964,0.88172
427.44,135.297,-2.42902,0.02002552,0.88133
428.14,135.528,-2.42952,0.01959819,0.88094
428.84,135.758,-2.42954,0.01637481,0.88055
429.54,135.989,-2.4337,0.01694957,0.88016
430.24,136.221,-2.43241,0.01868513,0.87977
430.94,136.454,-2.43754,0.01984912,0.87938
431.64,136.687,-2.43745,0.01867666,0.87899
432.34,136.92,-2.43712,0.01692569,0.87859
433.04,137.153,-2.43844,0.0158595,0.8782
433.74,137.385,-2.43975,0.01685964,0.87781
434.44,137.617,-2.44239,0.01695005,0.87741
435.14,137.849,-2.4424,0.01541458,0.87702
435.84,138.082,-2.44248,0.01444232,0.87662
436.54,138.315,-2.44372,0.01683945,0.87623
437.24,138.546,-2.44576,0.01924582,0.87583
437.94,138.777,-2.44563,0.01856657,0.87543
438.64,139.008,-2.44968,0.02128914,0.87503
439.34,139.239,-2.44831,0.02150414,0.87464
440.04,139.469,-2.44966,0.02173532,0.87424
440.74,139.7,-2.45094,0.02358682,0.87384
441.44,139.931,-2.45094,0.02034254,0.87344
442.14,140.163,-2.45358,0.02001038,0.87304
442.84,140.395,-2.45061,0.01892688,0.87263
443.54,140.628,-2.45456,0.0193632,0.87223
444.24,140.861,-2.45585,0.01954227,0.87183
444.94,141.093,-2.45599,0.0159063,0.87143
445.64,141.325,-2.45488,0.01813804,0.87102
446.34,141.557,-2.45719,0.01684831,0.87062
447.04,141.788,-2.45847,0.01808954,0.87021
447.74,142.02,-2.46114,0.01660059,0.86981
448.44,142.252,-2.45722,0.01661573,0.8694
449.14,142.484,-2.46113,0.01687125,0.86899
449.84,142.715,-2.46006,0.018605,0.86859
450.54,142.946,-2.46149,0.01792771,0.86818
451.24,143.176,-2.46212,0.01950415,0.86777
451.94,143.406,-2.46366,0.02149008,0.86736
452.64,143.637,-2.46301,0.02375694,0.86695
453.34,143.868,-2.4669,0.02446981,0.86654
454.04,144.098,-2.46566,0.02197741,0.86613
454.74,144.33,-2.46614,0.02429731,0.86572
455.44,144.5623,-2.46694,0.02045323,0.86531
456.14,144.796,-2.46776,0.02147643,0.86489
456.84,145.0287,-2.47014,0.02117294,0.86448
457.54,145.263,-2.4679,0.01889339,0.86407
458.24,145.496,-2.46893,0.02186229,0.86365
458.94,145.729,-2.47127,0.01948349,0.86324
459.64,145.962,-2.47026,0.02080051,0.86282
460.34,146.195,-2.47156,0.0245048,0.8624
461.04,146.428,-2.47415,0.02016506,0.86199
461.74,146.659,-2.47288,0.02089305,0.86157
462.44,146.891,-2.4728,0.02383934,0.86115
463.14,147.124,-2.47558,0.02553549,0.86073
463.84,147.357,-2.47644,0.02338876,0.86031
464.54,147.59,-2.47653,0.02499634,0.85989
465.24,147.823,-2.47551,0.02449504,0.85947
465.94,148.055,-2.47705,0.02489747,0.85905
466.64,148.286,-2.47762,0.02457936,0.85863
467.34,148.517,-2.47781,0.02214831,0.85821
468.04,148.749,-2.47974,0.02329344,0.85778
468.74,148.981,-2.48012,0.02378404,0.85736
469.44,149.213,-2.47913,0.02127277,0.85693
470.14,149.444,-2.4804,0.01838533,0.85651
470.84,149.675,-2.48241,0.0190329,0.85608
471.54,149.905,-2.48145,0.01954742,0.85566
472.24,150.137,-2.48143,0.02186273,0.85523
472.94,150.369,-2.48438,0.02303306,0.8548
473.64,150.602,-2.48482,0.0250515,0.85437
474.34,150.836,-2.47821,0.01680508,0.85395
475.04,151.069,-2.48362,0.01783051,0.85352
475.74,151.303,-2.48494,0.0174153,0.85309
476.44,151.536,-2.48626,0.01827156,0.85265
477.14,151.769,-2.48897,0.01426313,0.85222
477.84,152.002,-2.48538,0.01115379,0.85179
478.54,152.2334,-2.48571,0.01140235,0.85136
479.24,152.464,-2.48728,0.01150235,0.85093
479.94,152.695,-2.48966,0.008989666,0.85049
480.64,152.927,-2.48825,0.006082006,0.85006
481.34,153.161,-2.48854,0.006610052,0.84962
482.04,153.3939,-2.48766,0.001351999,0.84919
482.74,153.628,-2.49124,0.004790573,0.84875
483.44,153.8611,-2.49035,0.00290971,0.84831
484.14,154.094,-2.49065,0.00330328,0.84788
484.84,154.325,-2.49233,0.002686042,0.84744
485.54,154.557,-2.49229,0.000377212,0.847
486.24,154.789,-2.49361,0.00318883,0.84656
486.94,155.022,-2.49361,-8.07557e-05,0.84612
487.64,155.255,-2.49263,-0.000449809,0.84568
488.34,155.489,-2.49631,-0.006887585,0.84524
489.04,155.723,-2.49263,-0.009566514,0.84479
489.74,155.956,-2.49705,-0.009294748,0.84435
490.44,156.189,-2.49635,-0.01041793,0.84391
491.14,156.424,-2.49639,-0.0112268,0.84346
491.84,156.659,-2.49803,-0.01234781,0.84302
492.54,156.895,-2.49965,-0.01448586,0.84257
493.24,157.13,-2.5008,-0.01700618,0.84213
493.94,157.3641,-2.49833,-0.01826392,0.84168
494.64,157.598,-2.49964,-0.01787882,0.84123
495.34,157.831,-2.50095,-0.02214412,0.84079
496.04,158.064,-2.50227,-0.0202638,0.84034
496.74,158.2965,-2.50227,-0.02217673,0.83989
497.44,158.53,-2.50359,-0.02210063,0.83944
498.14,158.763,-2.50482,-0.02488264,0.83899
498.84,158.997,-2.5049,-0.02263297,0.83854
499.54,159.23,-2.5026,-0.02106303,0.83809
500.24,159.4625,-2.50589,-0.02397265,0.83763
500.94,159.694,-2.50655,-0.02349483,0.83718
501.64,159.926,-2.50526,-0.02465691,0.83673
502.34,160.157,-2.50687,-0.02234358,0.83627
503.04,160.3889,-2.50688,-0.02551736,0.83582
503.74,160.62,-2.50787,-0.02452657,0.83536
504.44,160.853,-2.50645,-0.02501222,0.83491
505.14,161.0873,-2.50691,-0.02562134,0.83445
505.84,161.322,-2.50693,-0.02436621,0.83399
506.54,161.5563,-2.50658,-0.02413101,0.83353
507.24,161.79,-2.50875,-0.02587498,0.83307
507.94,162.025,-2.50933,-0.02400349,0.83261
508.64,162.257,-2.51157,-0.02769953,0.83215
509.34,162.49,-2.50929,-0.02929178,0.83169
510.04,162.721,-2.51063,-0.0267335,0.83123
510.74,162.953,-2.51061,-0.02716533,0.83077
511.44,163.187,-2.50786,-0.02620785,0.83031
512.14,163.422,-2.51322,-0.0241835,0.82984
512.84,163.656,-2.5138,-0.02307037,0.82938
513.54,163.89,-2.5149,-0.02371674,0.82891
514.24,164.124,-2.51169,-0.02526313,0.82845
514.94,164.358,-2.51446,-0.02464857,0.82798
515.64,164.592,-2.51313,-0.02335368,0.82752
516.34,164.826,-2.51257,-0.02511958,0.82705
517.04,165.061,-2.516,-0.02086957,0.82658
517.74,165.295,-2.51723,-0.02265693,0.82611
518.44,165.528,-2.51518,-0.02523042,0.82564
519.14,165.76,-2.51533,-0.02335133,0.82517
519.84,165.993,-2.51701,-0.02224998,0.8247
520.54,166.226,-2.51993,-0.01651527,0.82423
521.24,166.46,-2.51862,-0.01870902,0.82376
521.94,166.6932,-2.51862,-0.02082598,0.82329
522.64,166.926,-2.51994,-0.02049214,0.82281
523.34,167.16,-2.51903,-0.02031621,0.82234
524.04,167.393,-2.51716,-0.01849029,0.82187
524.74,167.627,-2.52093,-0.02050014,0.82139
525.44,167.861,-2.5191,-0.02006634,0.82091
526.14,168.096,-2.52085,-0.02285588,0.82044
526.84,168.33,-2.52125,-0.01987903,0.81996
527.54,168.565,-2.52211,-0.02247181,0.81948
528.24,168.799,-2.52086,-0.02472693,0.819
528.94,169.033,-2.52081,-0.02530767,0.81852
529.64,169.266,-2.5182,-0.0230632,0.81804
530.34,169.499,-2.52215,-0.02415085,0.81756
531.04,169.734,-2.52355,-0.01545004,0.81708
531.74,169.9691,-2.52487,-0.01664981,0.8166
532.44,170.204,-2.52317,-0.01864025,0.81612
533.14,170.437,-2.52458,-0.01693779,0.81564
533.84,170.67,-2.52486,-0.01494626,0.81515
534.54,170.903,-2.52066,-0.01583972,0.81467
535.24,171.137,-2.52482,-0.01363769,0.81418
535.94,171.371,-2.52504,-0.01437656,0.8137
536.64,171.606,-2.52143,-0.01902875,0.81321
537.34,171.841,-2.52399,-0.0162382,0.81272
538.04,172.076,-2.52531,-0.01849598,0.81224
538.74,172.3111,-2.52531,-0.01740724,0.81175
539.44,172.545,-2.52576,-0.01599552,0.81126
540.14,172.778,-2.52641,-0.01602325,0.81077
540.84,173.01,-2.52535,-0.0161545,0.81028
541.54,173.242,-2.52619,-0.01518566,0.80979
542.24,173.476,-2.5253,-0.01848397,0.80929
542.94,173.709,-2.52535,-0.02040261,0.8088
543.64,173.943,-2.52679,-0.01641275,0.80831
544.34,174.178,-2.52761,-0.01784821,0.80782
545.04,174.413,-2.52728,-0.01801335,0.80732
545.74,174.6485,-2.52918,-0.02067665,0.80683
546.44,174.883,-2.52728,-0.01588437,0.80633
547.14,175.116,-2.53321,-0.01927883,0.80583
547.84,175.347,-2.52936,-0.01697215,0.80534
548.54,175.578,-2.53149,-0.01706134,0.80484
549.24,175.809,-2.53206,-0.01835624,0.80434
549.94,176.042,-2.52936,-0.01750605,0.80384
550.64,176.2742,-2.53042,-0.0185429,0.80334
551.34,176.507,-2.53093,-0.01683774,0.80284
552.04,176.74,-2.53467,-0.01719682,0.80234
552.74,176.974,-2.52851,-0.01500334,0.80184
553.44,177.208,-2.53105,-0.01723612,0.80134
554.14,177.444,-2.53267,-0.01777291,0.80083
554.84,177.681,-2.53397,-0.01840167,0.80033
555.54,177.916,-2.53255,-0.02014394,0.79982
556.24,178.153,-2.53628,-0.01726782,0.79932
556.94,178.388,-2.5317,-0.01899781,0.79881
557.64,178.625,-2.53221,-0.01802171,0.79831
558.34,178.858,-2.53398,-0.01774786,0.7978
559.04,179.092,-2.53411,-0.01694621,0.79729
559.74,179.326,-2.53365,-0.01695352,0.79678
560.44,179.56,-2.53287,-0.0137589,0.79628
561.14,179.7933,-2.53474,-0.0149983,0.79577
561.84,180.027,-2.53599,-0.01731977,0.79526
562.54,180.261,-2.5354,-0.01328785,0.79474
563.24,180.494,-2.53609,-0.01131848,0.79423
563.94,180.727,-2.5341,-0.01258468,0.79372
564.64,180.961,-2.53638,-0.009941634,0.79321
565.34,181.194,-2.53375,-0.01102025,0.79269
566.04,181.428,-2.53648,-0.01204634,0.79218
566.74,181.6629,-2.53638,-0.01224846,0.79166
567.44,181.899,-2.53867,-0.01208207,0.79115
568.14,182.1361,-2.53484,-0.01214817,0.79063
568.84,182.374,-2.53848,-0.01134541,0.79012
569.54,182.61,-2.53663,-0.01000394,0.7896
570.24,182.845,-2.54052,-0.01095937,0.78908
570.94,183.079,-2.53913,-0.009615273,0.78856
571.64,183.313,-2.53849,-0.01109347,0.78804
572.34,183.547,-2.54177,-0.009188392,0.78752
573.04,183.78,-2.53963,-0.009403876,0.787
573.74,184.014,-2.53935,-0.009305707,0.78648
574.44,184.248,-2.54557,-0.008947994,0.78596
575.14,184.482,-2.54147,-0.0100329,0.78543
575.84,184.716,-2.53595,-0.009319218,0.78491
576.54,184.949,-2.54129,-0.005323276,0.78439
577.24,185.184,-2.54396,-0.00576341,0.78386
577.94,185.419,-2.54133,-0.0100128,0.78334
578.64,185.655,-2.54376,-0.005776552,0.78281
579.34,185.888,-2.54374,-0.00139038,0.78228
580.04,186.122,-2.54421,-0.00400028,0.78176
580.74,186.359,-2.54408,-0.001152877,0.78123
581.44,186.597,-2.54279,-0.003491965,0.7807
582.14,186.834,-2.54231,-0.002179584,0.78017
582.84,187.071,-2.54395,-0.00165184,0.77964
583.54,187.309,-2.54584,-0.00147983,0.77911
584.24,187.545,-2.54454,-0.0002767695,0.77858
584.94,187.781,-2.54643,-0.00185208,0.77804
585.64,188.015,-2.54516,0.000933747,0.77751
586.34,188.249,-2.54516,0.001912431,0.77698
587.04,188.482,-2.54779,0.004118078,0.77644
587.74,188.715,-2.54912,0.00413617,0.77591
588.44,188.949,-2.5465,0.0008467864,0.77537
589.14,189.182,-2.54845,0.005108858,0.77484
589.84,189.416,-2.54911,0.00376773,0.7743
590.54,189.652,-2.54779,0.00367016,0.77376
591.24,189.8887,-2.54911,0.00697469,0.77323
591.94,190.124,-2.54779,0.0066009,0.77269
592.64,190.361,-2.54909,0.009442337,0.77215
593.34,190.599,-2.55043,0.01010856,0.77161
594.04,190.838,-2.55043,0.00922533,0.77107
594.74,191.074,-2.5508,0.006976629,0.77053
595.44,191.309,-2.55109,0.0087695,0.76998
596.14,191.543,-2.55087,0.008492728,0.76944
596.84,191.777,-2.55076,0.009782976,0.7689
597.54,192.01,-2.55306,0.0109378,0.76835
598.24,192.242,-2.55339,0.01241614,0.76781
598.94,192.474,-2.55488,0.01230466,0.76726
599.64,192.707,-2.55481,0.01551236,0.76672
600.34,192.941,-2.55482,0.01554369,0.76617
601.04,193.175,-2.55064,0.01773438,0.76563
601.74,193.411,-2.55592,0.01786435,0.76508
602.44,193.647,-2.55734,0.01899377,0.76453
603.14,193.885,-2.55418,0.01826859,0.76398
603.84,194.123,-2.55605,0.01642658,0.76343
604.54,194.36,-2.5542,0.01844115,0.76288
605.24,194.595,-2.55727,0.01815879,0.76233
605.94,194.83,-2.55671,0.01564062,0.76178
606.64,195.064,-2.55998,0.01822955,0.76123
607.34,195.298,-2.56046,0.02113665,0.76067
608.04,195.532,-2.55876,0.02164743,0.76012
608.74,195.767,-2.55876,0.02120586,0.75956
609.44,196.002,-2.56325,0.02148408,0.75901
610.14,196.237,-2.55946,0.02321631,0.75845
610.84,196.474,-2.56211,0.02540173,0.7579
611.54,196.711,-2.56476,0.02304212,0.75734
612.24,196.948,-2.56238,0.02140978,0.75678
612.94,197.186,-2.56356,0.02256055,0.75623
613.64,197.423,-2.56476,0.02157088,0.75567
614.34,197.66,-2.56589,0.02333314,0.75511
615.04,197.896,-2.56827,0.02493709,0.75455
615.74,198.1317,-2.56719,0.02517186,0.75399
616.44,198.367,-2.56951,0.02420667,0.75343
617.14,198.601,-2.56886,0.024428,0.75286
617.84,198.834,-2.57017,0.02517384,0.7523
618.54,199.068,-2.57283,0.02403394,0.75174
619.24,199.3016,-2.5684,0.02509286,0.75117
619.94,199.536,-2.57152,0.02448805,0.75061
620.64,199.77,-2.5727,0.02188196,0.75005
621.34,200.0044,-2.5715,0.02089957,0.74948
622.04,200.2406,-2.57292,0.02329455,0.74891
622.74,200.478,-2.57163,0.02068542,0.74835
623.44,200.7147,-2.57061,0.01939725,0.74778
624.14,200.95,-2.57456,0.0184843,0.74721
624.84,201.186,-2.57597,0.02119332,0.74664
625.54,201.421,-2.57458,0.02291492,0.74607
626.24,201.657,-2.57601,0.02106486,0.7455
626.94,201.893,-2.57744,0.02426971,0.74493
627.64,202.1303,-2.5772,0.01839378,0.74436
628.34,202.366,-2.5785,0.0185544,0.74379
629.04,202.603,-2.5776,0.0214573,0.74322
629.74,202.84,-2.58016,0.01988542,0.74264
630.44,203.078,-2.58048,0.01861003,0.74207
631.14,203.314,-2.57717,0.01861421,0.74149
631.84,203.548,-2.58356,0.01680192,0.74092
632.54,203.782,-2.58567,0.01995435,0.74034
633.24,204.017,-2.58435,0.0173151,0.73977
633.94,204.254,-2.5835,0.01713044,0.73919
634.64,204.491,-2.58626,0.01556376,0.73861
635.34,204.726,-2.58223,0.01266479,0.73803
636.04,204.96,-2.58651,0.01758497,0.73746
636.74,205.192,-2.58366,0.01167341,0.73688
637.44,205.425,-2.58644,0.01255427,0.7363
638.14,205.658,-2.5857,0.01315607,0.73572
638.84,205.891,-2.58801,0.01336283,0.73513
639.54,206.1251,-2.58707,0.01085876,0.73455
640.24,206.3601,-2.58771,0.009927798,0.73397
640.94,206.597,-2.5916,0.008855659,0.73339
641.64,206.834,-2.58728,0.002078769,0.7328
642.34,207.0707,-2.58596,-0.0003012452,0.73222
643.04,207.307,-2.59086,-0.003881683,0.73163
643.74,207.545,-2.5874,-0.01000613,0.73105
644.44,207.783,-2.58838,-0.01089641,0.73046
645.14,208.02,-2.59168,-0.01182465,0.72988
645.84,208.255,-2.59103,-0.01182907,0.72929
646.54,208.489,-2.58521,-0.01233244,0.7287
647.24,208.724,-2.58913,-0.006486571,0.72811
647.94,208.96,-2.5877,-0.009994304,0.72752
648.64,209.197,-2.59177,-0.00539595,0.72693
649.34,209.433,-2.59112,-0.00828768,0.72634
650.04,209.671,-2.59122,-0.007648907,0.72575
650.74,209.908,-2.58837,-0.01155773,0.72516
651.44,210.144,-2.59269,-0.01193858,0.72457
652.14,210.3778,-2.58986,-0.008546681,0.72398
652.84,210.612,-2.5891,-0.01454776,0.72338
653.54,210.846,-2.5878,-0.01156561,0.72279
654.24,211.0807,-2.59179,-0.01358905,0.72219
654.94,211.316,-2.58915,-0.01884862,0.7216
655.64,211.553,-2.58932,-0.01235857,0.721
656.34,211.79,-2.59177,-0.01702205,0.72041
657.04,212.026,-2.59318,-0.01714836,0.71981
657.74,212.264,-2.59178,-0.01604148,0.71921
658.44,212.501,-2.58988,-0.01177753,0.71861
659.14,212.74,-2.59041,-0.01389272,0.71801
659.84,212.9771,-2.59057,-0.01296502,0.71742
660.54,213.212,-2.59079,-0.01294857,0.71682
661.24,213.446,-2.59313,-0.008396656,0.71621
661.94,213.679,-2.59013,-0.01267024,0.71561
662.64,213.9124,-2.5898,-0.01124938,0.71501
663.34,214.147,-2.5898,-0.00999653,0.71441
664.04,214.384,-2.5898,-0.0087195,0.71381
664.74,214.621,-2.59142,-0.01136981,0.7132
665.44,214.858,-2.59434,-0.00973204,0.7126
666.14,215.092,-2.5906,-0.007877167,0.712
666.84,215.326,-2.59349,-0.005081497,0.71139
667.54,215.559,-2.59126,-0.00263413,0.71078
668.24,215.793,-2.59392,-0.001589441,0.71018
668.94,216.029,-2.58951,-0.00634436,0.70957
669.64,216.265,-2.58959,-0.003571952,0.70896
670.34,216.502,-2.59358,-0.003211549,0.70836
671.04,216.739,-2.59181,-0.00332055,0.70775
671.74,216.975,-2.59387,-0.00223961,0.70714
672.44,217.211,-2.59232,-0.00553003,0.70653
673.14,217.4466,-2.58943,-0.006522708,0.70592
673.84,217.683,-2.59242,-0.004399636,0.70531
674.54,217.921,-2.59134,-0.00566877,0.7047
675.24,218.158,-2.59428,-0.004637756,0.70408
675.94,218.395,-2.59371,-0.00306172,0.70347
676.64,218.632,-2.59244,-0.002276787,0.70286
677.34,218.869,-2.59242,-0.00153082,0.70224
678.04,219.106,-2.5928,-0.00238162,0.70163
678.74,219.343,-2.59123,-0.00187121,0.70101
679.44,219.579,-2.59407,-0.001606403,0.7004
680.14,219.815,-2.59474,-0.00173743,0.69978
680.84,220.05,-2.59475,-0.00164107,0.69917
681.54,220.285,-2.59606,-0.0005241047,0.69855
682.24,220.52,-2.59487,0.00157706,0.69793
682.94,220.755,-2.59342,-0.00350603,0.69731
683.64,220.99,-2.59068,0.00181027,0.69669
684.34,221.226,-2.59457,0.003467563,0.69608
685.04,221.462,-2.59729,0.004857475,0.69546
685.74,221.699,-2.5946,0.00143828,0.69484
686.44,221.935,-2.59312,0.001361883,0.69421
687.14,222.171,-2.59686,0.00707415,0.69359
687.84,222.408,-2.59954,0.002037431,0.69297
688.54,222.643,-2.59683,0.000801071,0.69235
689.24,222.879,-2.59699,0.003804278,0.69173
689.94,223.116,-2.59662,0.00332862,0.6911
690.64,223.352,-2.59791,0.005381269,0.69048
691.34,223.587,-2.59724,0.00433584,0.68985
692.04,223.823,-2.5965,0.004252507,0.68923
692.74,224.061,-2.59991,0.00594951,0.6886
693.44,224.2979,-2.59623,0.00671904,0.68797
694.14,224.534,-2.59781,0.009294455,0.68735
694.84,224.767,-2.59913,0.00927942,0.68672
695.54,225.002,-2.59769,0.01379025,0.68609
696.24,225.235,-2.59888,0.0106028,0.68546
696.94,225.469,-2.60152,0.01182345,0.68483
697.64,225.705,-2.60135,0.01605622,0.68421
698.34,225.943,-2.59842,0.0148183,0.68357
699.04,226.182,-2.59976,0.01247168,0.68294
699.74,226.42,-2.59955,0.01071596,0.68231
700.44,226.66,-2.60122,0.01337705,0.68168
701.14,226.899,-2.59948,0.01433349,0.68105
701.84,227.138,-2.60118,0.01617982,0.68042
702.54,227.374,-2.60076,0.02012246,0.67978
703.24,227.607,-2.6035,0.02584644,0.67915
703.94,227.841,-2.60027,0.02037709,0.67852
704.64,228.074,-2.60152,0.02343099,0.67788
705.34,228.311,-2.60639,0.02889784,0.67724
706.04,228.5493,-2.60194,0.02695094,0.67661
706.74,228.79,-2.60278,0.03057436,0.67597
707.44,229.03,-2.59632,0.0311375,0.67534
708.14,229.269,-2.60484,0.03078225,0.6747
708.84,229.508,-2.60193,0.03257563,0.67406
709.54,229.745,-2.60755,0.0325746,0.67342
710.24,229.981,-2.60389,0.03627872,0.67278
710.94,230.2149,-2.60277,0.0360952,0.67214
711.64,230.448,-2.60439,0.03915763,0.6715
712.34,230.682,-2.60331,0.04392944,0.67086
713.04,230.915,-2.60578,0.04343152,0.67022
713.74,231.148,-2.60458,0.05022692,0.66958
714.44,231.384,-2.60791,0.05023081,0.66894
715.14,231.622,-2.60494,0.04665148,0.6683
715.84,231.863,-2.60822,0.0476622,0.66765
716.54,232.102,-2.60692,0.05078493,0.66701
717.24,232.341,-2.60748,0.05065095,0.66637
717.94,232.578,-2.60758,0.05591743,0.66572
718.64,232.816,-2.60691,0.0542987,0.66508
719.34,233.053,-2.60694,0.05236625,0.66443
720.04,233.29,-2.60937,0.05612126,0.66378
720.74,233.527,-2.60823,0.05510345,0.66314
721.44,233.763,-2.60917,0.05673802,0.66249
722.14,234,-2.60725,0.05777806,0.66184
722.84,234.237,-2.60659,0.06187096,0.6612
723.54,234.474,-2.60919,0.0642012,0.66055
724.24,234.71,-2.60615,0.06165606,0.6599
724.94,234.946,-2.61037,0.06493507,0.65925
725.64,235.181,-2.60866,0.0647606,0.6586
726.34,235.416,-2.60768,0.06612077,0.65795
727.04,235.653,-2.60637,0.06115892,0.6573
727.74,235.89,-2.60782,0.06785831,0.65665
728.44,236.127,-2.60768,0.06350368,0.656
729.14,236.3652,-2.61131,0.06573789,0.65534
729.84,236.602,-2.61001,0.06700633,0.65469
730.54,236.838,-2.60924,0.06759955,0.65404
731.24,237.072,-2.6077,0.06794729,0.65338
731.94,237.309,-2.60975,0.07474992,0.65273
732.64,237.5473,-2.60803,0.07241948,0.65208
733.34,237.788,-2.60788,0.07614437,0.65142
734.04,238.026,-2.60814,0.07854475,0.65077
734.74,238.263,-2.61201,0.07964414,0.65011
735.44,238.499,-2.60933,0.08017279,0.64945
736.14,238.7322,-2.61028,0.08170645,0.6488
736.84,238.966,-2.61031,0.08115391,0.64814
737.54,239.201,-2.61263,0.08277682,0.64748
738.24,239.438,-2.60994,0.07842065,0.64682
738.94,239.677,-2.61357,0.08399945,0.64616
739.64,239.9175,-2.61226,0.08356302,0.64551
740.34,240.158,-2.61259,0.08127844,0.64485
741.04,240.397,-2.61169,0.0827584,0.64419
741.74,240.634,-2.61425,0.07923169,0.64353
742.44,240.87,-2.61426,0.0790261,0.64287
743.14,241.105,-2.61281,0.0815712,0.6422
743.84,241.342,-2.61567,0.08116816,0.64154
744.54,241.579,-2.61428,0.08260333,0.64088
745.24,241.816,-2.61569,0.08096822,0.64022
745.94,242.053,-2.61976,0.08329966,0.63955
746.64,242.29,-2.61404,0.07805672,0.63889
747.34,242.528,-2.61273,0.08043795,0.63823
748.04,242.765,-2.61405,0.08072346,0.63756
748.74,243.003,-2.61749,0.07942401,0.6369
749.44,243.239,-2.61531,0.07772654,0.63623
750.14,243.476,-2.6194,0.08247522,0.63557
750.84,243.714,-2.61695,0.08313921,0.6349
751.54,243.953,-2.61683,0.07885776,0.63423
752.24,244.19,-2.61545,0.08114401,0.63357
752.94,244.427,-2.6183,0.08403882,0.6329
753.64,244.6637,-2.61539,0.08300729,0.63223
754.34,244.899,-2.61443,0.08403268,0.63156
755.04,245.132,-2.61942,0.08284425,0.6309
755.74,245.366,-2.62008,0.09150077,0.63023
756.44,245.601,-2.61799,0.09301229,0.62956
757.14,245.837,-2.61984,0.09395265,0.62889
757.84,246.0737,-2.61979,0.09173391,0.62822
758.54,246.31,-2.62088,0.09454924,0.62755
759.24,246.548,-2.61816,0.08810382,0.62688
759.94,246.787,-2.62085,0.08867364,0.6262
760.64,247.026,-2.62275,0.08779768,0.62553
761.34,247.265,-2.6215,0.08683035,0.62486
762.04,247.504,-2.62276,0.08697795,0.62419
762.74,247.743,-2.62105,0.08584856,0.62351
763.44,247.982,-2.62358,0.08249965,0.62284
764.14,248.221,-2.62273,0.08495936,0.62217
764.84,248.46,-2.62162,0.08394586,0.62149
765.54,248.697,-2.62282,0.09534668,0.62082
766.24,248.932,-2.62298,0.09043801,0.62014
766.94,249.167,-2.62423,0.09319293,0.61947
767.64,249.403,-2.6231,0.09712907,0.61879
768.34,249.639,-2.62495,0.10036,0.61812
769.04,249.875,-2.62492,0.10371,0.61744
769.74,250.111,-2.62587,0.10974,0.61676
770.44,250.349,-2.62754,0.11166,0.61608
771.14,250.588,-2.62849,0.10804,0.61541
771.84,250.827,-2.62721,0.10688,0.61473
772.54,251.064,-2.6259,0.11191,0.61405
773.24,251.3,-2.6272,0.11363,0.61337
773.94,251.538,-2.62706,0.11398,0.61269
774.64,251.777,-2.62848,0.11802,0.61201
775.34,252.016,-2.62918,0.12328,0.61133
776.04,252.254,-2.63077,0.12681,0.61065
776.74,252.491,-2.62759,0.12376,0.60997
777.44,252.727,-2.62749,0.12879,0.60929
778.14,252.961,-2.62966,0.12972,0.60861
778.84,253.196,-2.63204,0.13004,0.60793
779.54,253.432,-2.63104,0.13511,0.60725
780.24,253.67,-2.63335,0.13444,0.60656
780.94,253.9089,-2.63205,0.13369,0.60588
781.64,254.1464,-2.63333,0.13406,0.6052
782.34,254.384,-2.63269,0.13578,0.60451
783.04,254.6201,-2.6327,0.13684,0.60383
783.74,254.857,-2.63474,0.13978,0.60315
784.44,255.093,-2.63566,0.13533,0.60246
785.14,255.329,-2.62995,0.13929,0.60178
785.84,255.566,-2.6339,0.14102,0.60109
786.54,255.803,-2.63896,0.14384,0.60041
787.24,256.04,-2.63313,0.14281,0.59972
787.94,256.279,-2.63433,0.14745,0.59903
788.64,256.518,-2.6384,0.15045,0.59835
789.34,256.759,-2.63579,0.14754,0.59766
790.04,256.998,-2.63496,0.14962,0.59697
790.74,257.235,-2.63631,0.14967,0.59628
791.44,257.469,-2.63959,0.14762,0.5956
792.14,257.703,-2.63678,0.14918,0.59491
792.84,257.937,-2.63675,0.15042,0.59422
793.54,258.172,-2.63874,0.1515,0.59353
794.24,258.4086,-2.63939,0.15416,0.59284
794.94,258.646,-2.63677,0.15328,0.59215
795.64,258.884,-2.64048,0.15888,0.59146
796.34,259.122,-2.63843,0.15604,0.59077
797.04,259.36,-2.63725,0.15447,0.59008
797.74,259.6,-2.63673,0.15946,0.58939
798.44,259.84,-2.64113,0.15555,0.5887
798.84,259.977,-2.63902,0.15767,0.5883