File: 01_Data/PVC/STA/N2/3K_min/PVC_STA_N2_3KData_211007_R1.csv
Temp/C,Time/min,DSC/mW,Mass loss/mg,Sensit./(uV/mW)
50.2,10.0326,-0.0218393,-0.011257,0.997841
50.8,12.1708,0.014649,-0.011553,0.998301
51.4,12.8452,0.04555251,-0.0133811,0.998761
52,13.3612,0.0715673,-0.0128323,0.999221
52.6,13.8069,0.0908182,-0.0131836,0.999671
53.2,14.2102,0.0992454,-0.0150498,1.00012
53.8,14.5874,0.114863,-0.01518106,1.00056
54.4,14.9422,0.11981,-0.0147703,1.001
55,15.2775,0.133538,-0.015193,1.00144
55.6,15.5977,0.150881,-0.0172322,1.00187
56.2,15.9052,0.145638,-0.0155305,1.0023
56.8,16.2008,0.160075,-0.015909,1.00272
57.4,16.4879,0.163515,-0.0170673,1.00314
58,16.766,0.172092,-0.016589,1.00356
58.6,17.0372,0.179216,-0.0165318,1.00397
59.2,17.3028,0.191133,-0.0170963,1.00438
59.8,17.5629,0.18256,-0.0172424,1.00478
60.4,17.8173,0.184655,-0.0184196,1.00518
61,18.0688,0.182738,-0.01842085,1.00558
61.6,18.3167,0.179597,-0.018274,1.00597
62.2,18.5606,0.181712,-0.0190289,1.00636
62.8,18.8009,0.190378,-0.0188151,1.00675
63.4,19.0386,0.19729,-0.0192567,1.00713
64,19.2742,0.194122,-0.01929367,1.00751
64.6,19.5064,0.208721,-0.0208804,1.00788
65.2,19.7369,0.213457,-0.01969207,1.00825
65.8,19.9655,0.213664,-0.0192212,1.00862
66.4,20.193,0.219997,-0.0197467,1.00898
67,20.4191,0.228748,-0.0204373,1.00934
67.6,20.6439,0.223937,-0.0218061,1.00969
68.2,20.8661,0.223118,-0.0210354,1.01004
68.8,21.0866,0.232358,-0.0211065,1.01039
69.4,21.305,0.236271,-0.0233048,1.01073
70,21.523,0.241057,-0.0232066,1.01107
70.6,21.7398,0.245877,-0.0221851,1.01141
71.2,21.956,0.24542,-0.02265,1.01174
71.8,22.1709,0.245959,-0.0237223,1.01207
72.4,22.3847,0.256915,-0.0238142,1.01239
73,22.5982,0.256629,-0.0244852,1.01271
73.6,22.8117,0.2566059,-0.023609,1.01303
74.2,23.0249,0.259388,-0.0228818,1.01334
74.8,23.2374,0.259551,-0.0249573,1.01365
75.4,23.448,0.26013,-0.0256893,1.01396
76,23.6572,0.272432,-0.0259233,1.01426
76.6,23.8673,0.278432,-0.0251708,1.01456
77.2,24.0769,0.2854,-0.0256466,1.01485
77.8,24.2862,0.286134,-0.0247006,1.01514
78.4,24.4945,0.293338,-0.0259914,1.01543
79,24.7022,0.286183,-0.0256169,1.01571
79.6,24.9092,0.289991,-0.02597182,1.01599
80.2,25.1171,0.30344,-0.0254682,1.01627
80.8,25.3242,0.293514,-0.0269439,1.01654
81.4,25.5305,0.302133,-0.0269554,1.0168
82,25.7368,0.300841,-0.0272227,1.01707
82.6,25.942,0.297182,-0.0269026,1.01733
83.2,26.1467,0.300021,-0.0271189,1.01759
83.8,26.3513,0.287492,-0.0279552,1.01784
84.4,26.5557,0.289778,-0.0272765,1.01809
85,26.7595,0.288369,-0.0266394,1.01833
85.6,26.9624,0.279982,-0.0279679,1.01858
86.2,27.164,0.297084,-0.0272268,1.01881
86.8,27.3661,0.284396,-0.0270146,1.01905
87.4,27.5686,0.300574,-0.0282872,1.01928
88,27.7711,0.300554,-0.0294093,1.01951
88.6,27.9727,0.297773,-0.0291263,1.01973
89.2,28.1734,0.301894,-0.029414,1.01995
89.8,28.3735,0.306779,-0.0292938,1.02017
90.4,28.5734,0.310251,-0.0293626,1.02038
91,28.7735,0.316193,-0.029959,1.02059
91.6,28.974,0.314557,-0.0305629,1.02079
92.2,29.1734,0.314414,-0.0310428,1.021
92.8,29.3724,0.312872,-0.0306052,1.02119
93.4,29.5716,0.320707,-0.0312084,1.02139
94,29.7717,0.321209,-0.031012,1.02158
94.6,29.9714,0.320363,-0.0306411,1.02177
95.2,30.1701,0.325531,-0.0319584,1.02195
95.8,30.3688,0.321039,-0.0322508,1.02213
96.4,30.5663,0.326426,-0.0309252,1.02231
97,30.7645,0.339171,-0.0335012,1.02248
97.6,30.9617,0.335013,-0.0327676,1.02265
98.2,31.1595,0.334341,-0.0323022,1.02281
98.8,31.3567,0.339923,-0.0335581,1.02298
99.4,31.5542,0.343518,-0.0329658,1.02313
100,31.751,0.341776,-0.0322383,1.02329
100.6,31.9473,0.341364,-0.0325535,1.02344
101.2,32.1433,0.35297,-0.03396752,1.02359
101.8,32.3388,0.35169,-0.0294982,1.02373
102.4,32.5344,0.344275,-0.0332941,1.02387
103,32.7303,0.358842,-0.0348072,1.02401
103.6,32.9261,0.36091,-0.0347792,1.02414
104.2,33.1216,0.358919,-0.0357703,1.02427
104.8,33.3169,0.353279,-0.034411,1.0244
105.4,33.5124,0.363293,-0.0354695,1.02452
106,33.7082,0.369161,-0.0371195,1.02464
106.6,33.9035,0.35512,-0.0358743,1.02476
107.2,34.0985,0.360561,-0.036071,1.02487
107.8,34.293,0.365095,-0.0373678,1.02498
108.4,34.488,0.374434,-0.0358571,1.02508
109,34.6833,0.368895,-0.0364125,1.02519
109.6,34.8792,0.370914,-0.0353799,1.02528
110.2,35.0745,0.38063,-0.0371513,1.02538
110.8,35.2693,0.368151,-0.036412,1.02547
111.4,35.4644,0.3656,-0.0364481,1.02556
112,35.6591,0.36941,-0.0366265,1.02564
112.6,35.8548,0.371732,-0.0373996,1.02572
113.2,36.0493,0.372388,-0.03630651,1.0258
113.8,36.2435,0.37916,-0.0385671,1.02588
114.4,36.4378,0.385111,-0.0388079,1.02595
115,36.6326,0.387813,-0.0390397,1.02601
115.6,36.8269,0.384458,-0.0373919,1.02608
116.2,37.0214,0.391691,-0.03925128,1.02614
116.8,37.2158,0.390204,-0.0394008,1.0262
117.4,37.4099,0.391435,-0.0392178,1.02625
118,37.6038,0.390604,-0.039257,1.0263
118.6,37.7979,0.396495,-0.0389307,1.02635
119.2,37.9926,0.388588,-0.0400881,1.02639
119.8,38.187,0.395799,-0.0385985,1.02643
120.4,38.381,0.390723,-0.0398867,1.02647
121,38.5756,0.402632,-0.03955698,1.0265
121.6,38.7693,0.391822,-0.0400969,1.02653
122.2,38.9633,0.390082,-0.0399521,1.02656
122.8,39.1578,0.399534,-0.0410399,1.02658
123.4,39.3515,0.392002,-0.0431882,1.0266
124,39.5461,0.395924,-0.0430967,1.02661
124.6,39.7406,0.398891,-0.0414258,1.02663
125.2,39.9346,0.395291,-0.0371822,1.02664
125.8,40.1284,0.397947,-0.0423522,1.02664
126.4,40.321,0.404944,-0.04559,1.02665
127,40.5147,0.3967,-0.0409659,1.02665
127.6,40.7076,0.398458,-0.04375831,1.02664
128.2,40.9014,0.389665,-0.0373782,1.02664
128.8,41.0937,0.403341,-0.04373028,1.02663
129.4,41.2861,0.399759,-0.0437499,1.02661
130,41.4788,0.403013,-0.0437773,1.0266
130.6,41.6718,0.40358,-0.0444055,1.02658
131.2,41.8645,0.41041,-0.0448454,1.02655
131.8,42.0571,0.412666,-0.04408289,1.02653
132.4,42.2491,0.405512,-0.045382,1.0265
133,42.4408,0.410105,-0.0468972,1.02646
133.6,42.6328,0.406974,-0.0453998,1.02643
134.2,42.8255,0.411012,-0.0467209,1.02639
134.8,43.0178,0.408314,-0.04672,1.02634
135.4,43.2109,0.399451,-0.0453923,1.0263
136,43.4039,0.404134,-0.04551187,1.02625
136.6,43.5971,0.404788,-0.0460825,1.0262
137.2,43.7899,0.402725,-0.0467779,1.02614
137.8,43.9822,0.401611,-0.0467772,1.02608
138.4,44.1753,0.415136,-0.04671975,1.02602
139,44.3678,0.411628,-0.0477554,1.02595
139.6,44.5607,0.405798,-0.0480126,1.02588
140.2,44.7528,0.411188,-0.0476982,1.02581
140.8,44.9448,0.408553,-0.0471415,1.02574
141.4,45.1367,0.399452,-0.0477104,1.02566
142,45.3282,0.406222,-0.0493937,1.02558
142.6,45.5201,0.402131,-0.0482794,1.02549
143.2,45.7115,0.407075,-0.04803224,1.02541
143.8,45.9031,0.407787,-0.0479185,1.02532
144.4,46.0945,0.409154,-0.0492388,1.02522
145,46.2863,0.411829,-0.0493576,1.02512
145.6,46.4774,0.405834,-0.05029,1.02502
146.2,46.6685,0.413231,-0.0500004,1.02492
146.8,46.8592,0.418511,-0.0513485,1.02481
147.4,47.0494,0.415598,-0.0501707,1.02471
148,47.2392,0.41974,-0.0508289,1.02459
148.6,47.4292,0.418512,-0.0509765,1.02448
149.2,47.6196,0.423979,-0.052184,1.02436
149.8,47.8105,0.424136,-0.0518722,1.02424
150.4,48.0011,0.42543,-0.0526381,1.02411
151,48.1921,0.420087,-0.0509998,1.02398
151.6,48.3821,0.41276,-0.0522314,1.02385
152.2,48.5727,0.420887,-0.05229732,1.02372
152.8,48.7628,0.428129,-0.0522185,1.02358
153.4,48.9527,0.421833,-0.0520737,1.02344
154,49.1433,0.42436,-0.0533892,1.0233
154.6,49.3337,0.413689,-0.0535152,1.02315
155.2,49.5246,0.429344,-0.0520822,1.023
155.8,49.7156,0.43172,-0.0535202,1.02285
156.4,49.9066,0.428198,-0.0548157,1.02269
157,50.0975,0.424469,-0.0551049,1.02254
157.6,50.2887,0.427705,-0.0548118,1.02237
158.2,50.4797,0.426829,-0.05351864,1.02221
158.8,50.6698,0.430071,-0.0556518,1.02204
159.4,50.8603,0.423195,-0.0544252,1.02187
160,51.0508,0.421955,-0.0549574,1.0217
160.6,51.242,0.423161,-0.05656181,1.02152
161.2,51.4327,0.425761,-0.0568129,1.02134
161.8,51.6239,0.420473,-0.057581,1.02116
162.4,51.8145,0.422514,-0.0569264,1.02098
163,52.0051,0.418534,-0.055168,1.02079
163.6,52.195,0.413801,-0.0574626,1.0206
164.2,52.3853,0.4209605,-0.0559268,1.0204
164.8,52.5757,0.419825,-0.05855191,1.02021
165.4,52.7659,0.410945,-0.0585548,1.02001
166,52.9559,0.415571,-0.0558239,1.0198
166.6,53.1452,0.411154,-0.0572707,1.0196
167.2,53.3352,0.423225,-0.0581423,1.01939
167.8,53.5251,0.41556,-0.0585604,1.01918
168.4,53.7161,0.422116,-0.05681723,1.01897
169,53.9068,0.419759,-0.0566785,1.01875
169.6,54.0973,0.412086,-0.057557,1.01853
170.2,54.2878,0.417952,-0.05827,1.01831
170.8,54.4773,0.418705,-0.0581464,1.01808
171.4,54.6677,0.407307,-0.0580388,1.01785
172,54.8584,0.415202,-0.0580187,1.01762
172.6,55.0487,0.41263,-0.0589828,1.01739
173.2,55.2396,0.422308,-0.0579234,1.01715
173.8,55.4301,0.412238,-0.060419,1.01691
174.4,55.621,0.411949,-0.0588906,1.01667
175,55.8118,0.411405,-0.0606734,1.01642
175.6,56.0027,0.413771,-0.0612019,1.01617
176.2,56.1932,0.409762,-0.0592165,1.01592
176.8,56.3834,0.409831,-0.0590858,1.01567
177.4,56.5738,0.415626,-0.0605408,1.01541
178,56.7638,0.418409,-0.0611708,1.01515
178.6,56.9546,0.420773,-0.05921924,1.01489
179.2,57.1449,0.420527,-0.06130994,1.01463
179.8,57.3361,0.421489,-0.0608581,1.01436
180.4,57.5271,0.419878,-0.0608778,1.01409
181,57.7179,0.419205,-0.0620172,1.01382
181.6,57.9088,0.419483,-0.0628847,1.01354
182.2,58.099,0.418828,-0.0635077,1.01326
182.8,58.2896,0.423887,-0.0635171,1.01298
183.4,58.4799,0.42256,-0.0630241,1.0127
184,58.6697,0.420522,-0.0634691,1.01241
184.6,58.8596,0.412422,-0.0635,1.01212
185.2,59.0491,0.420187,-0.0634996,1.01183
185.8,59.2393,0.410597,-0.0642949,1.01154
186.4,59.4299,0.416133,-0.0643589,1.01124
187,59.6205,0.418669,-0.0637558,1.01094
187.6,59.8112,0.418114,-0.0627233,1.01064
188.2,60.0013,0.408728,-0.0640503,1.01034
188.8,60.1915,0.414387,-0.0653383,1.01003
189.4,60.3816,0.411712,-0.0640612,1.00972
190,60.5709,0.418985,-0.0651068,1.0094
190.6,60.7606,0.412904,-0.06525621,1.00909
191.2,60.9504,0.415557,-0.0661065,1.00877
191.8,61.1401,0.416648,-0.0665778,1.00845
192.4,61.3306,0.413385,-0.0665771,1.00813
193,61.5208,0.411026,-0.0675657,1.0078
193.6,61.7109,0.420378,-0.0662248,1.00747
194.2,61.9011,0.415056,-0.06759,1.00714
194.8,62.0915,0.416553,-0.06607875,1.00681
195.4,62.2816,0.414779,-0.0665,1.00647
196,62.4717,0.407867,-0.0685509,1.00614
196.6,62.6612,0.420484,-0.0678792,1.00579
197.2,62.8503,0.416301,-0.0678727,1.00545
197.8,63.0397,0.411652,-0.0698781,1.0051
198.4,63.2292,0.41527,-0.0691336,1.00476
199,63.419,0.41893,-0.06986,1.0044
199.6,63.609,0.414804,-0.06986,1.00405
200.2,63.7991,0.423884,-0.0701199,1.0037
200.8,63.9888,0.409153,-0.0707133,1.00334
201.4,64.1783,0.417111,-0.0708489,1.00298
202,64.3683,0.409823,-0.0710701,1.00261
202.6,64.5577,0.410716,-0.0725,1.00225
203.2,64.7481,0.407658,-0.0715215,1.00188
203.8,64.9379,0.413922,-0.0733382,1.00151
204.4,65.1279,0.405415,-0.0721707,1.00113
205,65.3175,0.408469,-0.0741329,1.00076
205.6,65.5071,0.411668,-0.0733884,1.00038
206.2,65.6968,0.405512,-0.0742923,0.999999
206.8,65.8868,0.409175,-0.076016,0.999619
207.4,66.0769,0.417049,-0.0760121,0.999229
208,66.2669,0.412955,-0.0752507,0.998839
208.6,66.4569,0.424337,-0.0760041,0.998449
209.2,66.6467,0.409448,-0.0767822,0.998059
209.8,66.8373,0.411363,-0.0765961,0.997669
210.4,67.0269,0.418136,-0.0794121,0.997269
211,67.2171,0.414084,-0.0784012,0.996869
211.6,67.4071,0.422145,-0.0776506,0.996469
212.2,67.5969,0.415366,-0.0790783,0.996059
212.8,67.7868,0.410381,-0.0803571,0.995659
213.4,67.976,0.405792,-0.07908,0.995249
214,68.1657,0.410873,-0.0803881,0.994839
214.6,68.3553,0.406831,-0.0794002,0.994419
215.2,68.5455,0.403805,-0.0807659,0.9940093
215.8,68.7358,0.410106,-0.0800291,0.9935893
216.4,68.9258,0.403828,-0.0821445,0.9931693
217,69.116,0.405083,-0.0828924,0.992749
217.6,69.3054,0.403818,-0.0840623,0.992319
218.2,69.495,0.40332,-0.0843406,0.991899
218.8,69.6847,0.403503,-0.0844597,0.991469
219.4,69.8744,0.405629,-0.08588,0.991039
220,70.0644,0.403501,-0.0871907,0.990599
220.6,70.2546,0.403526,-0.0871917,0.990169
221.2,70.4449,0.41146,-0.08847994,0.989729
221.8,70.635,0.418359,-0.08882148,0.989289
222.4,70.8253,0.402036,-0.0897001,0.988839
223,71.0155,0.407671,-0.0914692,0.988399
223.6,71.2061,0.4112189,-0.0942298,0.987949
224.2,71.3968,0.406155,-0.0927937,0.987499
224.8,71.5874,0.399842,-0.0941387,0.987049
225.4,71.7769,0.386457,-0.0952799,0.986599
226,71.9666,0.379447,-0.0968519,0.986139
226.6,72.1556,0.367763,-0.0977126,0.985679
227.2,72.3449,0.363196,-0.100506,0.985219
227.8,72.5346,0.37267,-0.101458,0.984759
228.4,72.7242,0.406685,-0.102447,0.984299
229,72.9143,0.444998,-0.104977,0.983829
229.6,73.1049,0.457776,-0.108105,0.983359
230.2,73.2949,0.480377,-0.111559,0.982889
230.8,73.4853,0.48001,-0.116016,0.9824192
231.4,73.6756,0.488542,-0.11789,0.981949
232,73.8657,0.48706,-0.120565,0.9814692
232.6,74.056,0.497386,-0.123649,0.9809892
233.2,74.2468,0.492828,-0.129098,0.9805092
233.8,74.4373,0.500625,-0.129238,0.980029
234.4,74.6283,0.500847,-0.13321,0.9795392
235,74.8185,0.517316,-0.137539,0.979049
235.6,75.008,0.519928,-0.140764,0.978559
236.2,75.1987,0.52414,-0.142183,0.978069
236.8,75.3892,0.530289,-0.148371,0.977579
237.4,75.5798,0.525268,-0.149662,0.977089
238,75.7699,0.536962,-0.152895,0.976589
238.6,75.9606,0.534679,-0.158034,0.976089
239.2,76.1509,0.557784,-0.160004,0.975589
239.8,76.3412,0.543383,-0.162471,0.975079
240.4,76.5317,0.548804,-0.166885,0.974579
241,76.7208,0.550189,-0.171466,0.974069
241.6,76.9107,0.558933,-0.172818,0.973559
242.2,77.1006,0.547405,-0.176505,0.973049
242.8,77.2909,0.55957,-0.182546,0.972539
243.4,77.4808,0.566787,-0.184324,0.972029
244,77.6706,0.574705,-0.189737,0.971509
244.6,77.861,0.572817,-0.19353,0.970989
245.2,78.0523,0.57745,-0.19562,0.970469
245.8,78.2432,0.576112,-0.199208,0.969949
246.4,78.4341,0.578602,-0.204475,0.969419
247,78.6244,0.58845,-0.209104,0.968899
247.6,78.8145,0.587076,-0.213081,0.968369
248.2,79.0042,0.593189,-0.218237,0.967839
248.8,79.1944,0.592822,-0.221134,0.967309
249.4,79.3847,0.607142,-0.226275,0.966769
250,79.5754,0.610968,-0.230399,0.9662391
250.6,79.766,0.621815,-0.236281,0.9656991
251.2,79.9563,0.62861,-0.241163,0.9651591
251.8,80.1468,0.624367,-0.247951,0.9646191
252.4,80.3375,0.637195,-0.253061,0.9640791
253,80.5283,0.648671,-0.258059,0.963529
253.6,80.719,0.661772,-0.263906,0.962989
254.2,80.9095,0.659284,-0.267454,0.962439
254.8,81.0996,0.667412,-0.274734,0.961889
255.4,81.2901,0.67484,-0.280636,0.961339
256,81.4801,0.675234,-0.289302,0.960789
256.6,81.6711,0.690003,-0.296284,0.960229
257.2,81.8621,0.693231,-0.299924,0.959669
257.8,82.0533,0.707558,-0.307782,0.959119
258.4,82.2441,0.718724,-0.317075,0.958559
259,82.4353,0.714861,-0.322271,0.957989
259.6,82.6263,0.73844,-0.332363,0.957429
260.2,82.8174,0.747685,-0.340401,0.956859
260.8,83.0088,0.756793,-0.350097,0.956299
261.4,83.1988,0.759618,-0.359835,0.955729
262,83.3889,0.77418,-0.366048,0.955159
262.6,83.5788,0.777783,-0.375981,0.954589
263.2,83.769,0.796582,-0.387687,0.954009
263.8,83.9596,0.80422,-0.394867,0.953439
264.4,84.1504,0.81804,-0.406386,0.952859
265,84.3411,0.82807,-0.417531,0.952279
265.6,84.5316,0.839439,-0.429079,0.951699
266.2,84.7219,0.848585,-0.439802,0.951119
266.8,84.9123,0.858929,-0.453,0.950539
267.4,85.1031,0.878945,-0.464192,0.949949
268,85.294,0.893581,-0.476066,0.949359
268.6,85.4849,0.905246,-0.489921,0.948779
269.2,85.6754,0.920981,-0.50302,0.948189
269.8,85.8655,0.942261,-0.518549,0.947589
270.4,86.0556,0.948235,-0.531661,0.946999
271,86.2454,0.962419,-0.548152,0.946409
271.6,86.4359,0.992607,-0.563954,0.945809
272.2,86.6265,0.99572,-0.577032,0.945209
272.8,86.817,1.01228,-0.59528,0.944609
273.4,87.0085,1.02692,-0.61215,0.944009
274,87.1994,1.04928,-0.629583,0.943409
274.6,87.3907,1.07225,-0.646151,0.942809
275.2,87.5819,1.08692,-0.6656623,0.942199
275.8,87.7731,1.10782,-0.686452,0.941589
276.4,87.9642,1.12429,-0.703721,0.940989
277,88.1556,1.14253,-0.725018,0.940379
277.6,88.3471,1.16215,-0.745524,0.939769
278.2,88.5382,1.1822,-0.767117,0.939149
278.8,88.7295,1.2106,-0.789713,0.938539
279.4,88.9209,1.23261,-0.813331,0.937919
280,89.112,1.23305,-0.834488,0.937309
280.6,89.3033,1.24243,-0.857009,0.936689
281.2,89.4944,1.2344,-0.880318,0.936069
281.8,89.6856,1.24268,-0.901485,0.935449
282.4,89.8767,1.25372,-0.927769,0.934819
283,90.0679,1.26373,-0.949524,0.934199
283.6,90.2586,1.26685,-0.975605,0.933579
284.2,90.4496,1.2784,-0.998951,0.932949
284.8,90.641,1.28632,-1.02413,0.932319
285.4,90.8328,1.27718,-1.04842,0.931689
286,91.0251,1.28334,-1.07124,0.931059
286.6,91.2168,1.29042,-1.09691,0.930429
287.2,91.4076,1.28355,-1.12355,0.929789
287.8,91.599,1.28338,-1.1498,0.929159
288.4,91.7899,1.28112,-1.17245,0.928519
289,91.9811,1.27697,-1.19672,0.927889
289.6,92.1718,1.27951,-1.22449,0.927249
290.2,92.3623,1.28179,-1.24853,0.926609
290.8,92.5526,1.27439,-1.27347,0.925969
291.4,92.7429,1.28264,-1.29953,0.925319
292,92.9333,1.27087,-1.32258,0.924679
292.6,93.1238,1.26068,-1.3477,0.924029
293.2,93.3146,1.25538,-1.37335,0.923389
293.8,93.5056,1.25271,-1.39707,0.922739
294.4,93.6968,1.23564,-1.41905,0.922089
295,93.8889,1.2326,-1.44415,0.921439
295.6,94.0805,1.2134,-1.46556,0.920789
296.2,94.2723,1.19202,-1.49096,0.920139
296.8,94.4636,1.19239,-1.51485,0.919479
297.4,94.6552,1.17223,-1.53649,0.9188289
298,94.847,1.15825,-1.55922,0.918169
298.6,95.0388,1.16099,-1.58118,0.917519
299.2,95.2311,1.13877,-1.60385,0.9168589
299.8,95.4232,1.12915,-1.62424,0.9161989
300.4,95.6152,1.12582,-1.64452,0.9155389
301,95.8068,1.11765,-1.66331,0.914869
301.6,95.9986,1.10211,-1.68711,0.9142089
302.2,96.1905,1.10384,-1.70651,0.913549
302.8,96.3829,1.09105,-1.72785,0.912879
303.4,96.575,1.07957,-1.74511,0.912219
304,96.7669,1.06962,-1.76502,0.911549
304.6,96.9587,1.06092,-1.78363,0.910879
305.2,97.1507,1.04331,-1.80669,0.910209
305.8,97.3433,1.02632,-1.81839,0.909539
306.4,97.5354,1.00854,-1.83801,0.908869
307,97.7282,0.997616,-1.85484,0.908189
307.6,97.921,0.987367,-1.87111,0.907519
308.2,98.1138,0.968469,-1.88898,0.906839
308.8,98.3066,0.949989,-1.90352,0.906169
309.4,98.4988,0.946017,-1.92375,0.905489
310,98.6914,0.917697,-1.93678,0.904809
310.6,98.8841,0.908384,-1.9573,0.904129
311.2,99.0768,0.880506,-1.96985,0.903449
311.8,99.2698,0.857814,-1.98443,0.902769
312.4,99.463,0.836049,-2.00225,0.902089
313,99.6565,0.826235,-2.01761,0.901409
313.6,99.8499,0.800841,-2.02852,0.900719
314.2,100.043,0.784382,-2.0426,0.900039
314.8,100.236,0.750388,-2.05506,0.899349
315.4,100.428,0.740725,-2.07154,0.898659
316,100.621,0.712389,-2.08299,0.897979
316.6,100.812,0.696629,-2.09689,0.897289
317.2,101.004,0.672561,-2.10641,0.896599
317.8,101.196,0.655448,-2.11993,0.895909
318.4,101.387,0.632781,-2.12959,0.895209
319,101.579,0.618554,-2.14188,0.894519
319.6,101.771,0.579601,-2.15228,0.893829
320.2,101.962,0.554501,-2.16137,0.893129
320.8,102.154,0.542411,-2.17056,0.892439
321.4,102.345,0.509872,-2.18228,0.891739
322,102.537,0.477854,-2.19069,0.891039
322.6,102.729,0.463108,-2.20125,0.890349
323.2,102.921,0.435549,-2.20861,0.889649
323.8,103.113,0.416554,-2.21696,0.888949
324.4,103.306,0.402616,-2.22416,0.888249
325,103.499,0.373517,-2.23136,0.887539
325.6,103.691,0.358666,-2.23932,0.886839
326.2,103.883,0.335703,-2.24471,0.886139
326.8,104.075,0.323814,-2.25306,0.885439
327.4,104.266,0.319067,-2.25768,0.884729
328,104.458,0.29662,-2.26402,0.884029
328.6,104.649,0.275381,-2.269,0.883319
329.2,104.841,0.269227,-2.27485,0.882609
329.8,105.033,0.251475,-2.27947,0.881899
330.4,105.225,0.235237,-2.2857,0.881199
331,105.417,0.224834,-2.29002,0.880489
331.6,105.609,0.204138,-2.29254,0.879779
332.2,105.801,0.202312,-2.29761,0.879069
332.8,105.994,0.179263,-2.30055,0.878349
333.4,106.187,0.173887,-2.30248,0.877639
334,106.38,0.170435,-2.30859,0.876929
334.6,106.573,0.168199,-2.31103,0.876209
335.2,106.765,0.166995,-2.31446,0.8754988
335.8,106.958,0.155744,-2.31792,0.874789
336.4,107.149,0.159395,-2.31989,0.8740688
337,107.341,0.148226,-2.32186,0.873349
337.6,107.533,0.157489,-2.32544,0.872639
338.2,107.726,0.144802,-2.32816,0.8719188
338.8,107.918,0.149761,-2.32713,0.8711988
339.4,108.111,0.141277,-2.33215,0.8704788
340,108.303,0.13905,-2.33224,0.8697588
340.6,108.495,0.144866,-2.33429,0.8690388
341.2,108.688,0.147494,-2.33801,0.8683188
341.8,108.88,0.145809,-2.33927,0.8675988
342.4,109.073,0.143253,-2.34058,0.866879
343,109.266,0.142671,-2.34254,0.866149
343.6,109.459,0.139545,-2.34518,0.8654288
344.2,109.652,0.146109,-2.34755,0.864709
344.8,109.845,0.145845,-2.34749,0.8639788
345.4,110.038,0.155969,-2.3501,0.863259
346,110.231,0.144521,-2.35144,0.8625288
346.6,110.424,0.150207,-2.35276,0.861799
347.2,110.617,0.143241,-2.35407,0.861079
347.8,110.81,0.142836,-2.35668,0.860349
348.4,111.004,0.142549,-2.35582,0.859619
349,111.198,0.147342,-2.35864,0.858889
349.6,111.392,0.147749,-2.35868,0.858169
350.2,111.587,0.141319,-2.36008,0.857439
350.8,111.781,0.142552,-2.36164,0.856709
351.4,111.975,0.150742,-2.36059,0.855979
352,112.17,0.13546,-2.36317,0.855249
352.6,112.364,0.139298,-2.36371,0.854509
353.2,112.559,0.139737,-2.36569,0.853779
353.8,112.754,0.143908,-2.36559,0.853049
354.4,112.949,0.140092,-2.36799,0.852319
355,113.146,0.134488,-2.36713,0.851579
355.6,113.344,0.147112,-2.3685,0.850849
356.2,113.542,0.136689,-2.36916,0.850119
356.8,113.741,0.13563,-2.37105,0.849379
357.4,113.938,0.138125,-2.371,0.848649
358,114.135,0.127556,-2.37284,0.847909
358.6,114.33,0.127556,-2.37349,0.847179
359.2,114.524,0.126408,-2.37389,0.846439
359.8,114.718,0.120909,-2.37589,0.845699
360.4,114.912,0.136041,-2.37611,0.844969
361,115.107,0.137091,-2.37685,0.844229
361.6,115.301,0.125741,-2.37745,0.843489
362.2,115.493,0.11996,-2.38007,0.842749
362.8,115.685,0.125269,-2.38011,0.842019
363.4,115.875,0.125704,-2.38176,0.841279
364,116.066,0.1184,-2.38307,0.840539
364.6,116.257,0.129857,-2.38288,0.839799
365.2,116.449,0.132313,-2.38391,0.839059
365.8,116.641,0.132528,-2.38415,0.838319
366.4,116.834,0.141476,-2.387,0.837579
367,117.028,0.140284,-2.38712,0.836839
367.6,117.224,0.138355,-2.38834,0.836099
368.2,117.421,0.146947,-2.39188,0.835359
368.8,117.62,0.159535,-2.38964,0.834619
369.4,117.819,0.155761,-2.38837,0.833869
370,118.018,0.160956,-2.39029,0.833129
370.6,118.215,0.167925,-2.39261,0.832389
371.2,118.412,0.165521,-2.39403,0.831649
371.8,118.61,0.166168,-2.394,0.830909
372.4,118.808,0.167221,-2.39426,0.830159
373,119.008,0.169267,-2.39495,0.829419
373.6,119.21,0.15813,-2.3975,0.828679
374.2,119.413,0.166624,-2.39754,0.827929
374.8,119.615,0.176877,-2.39886,0.827189
375.4,119.816,0.17196,-2.40029,0.826439
376,120.015,0.173723,-2.40123,0.825699
376.6,120.213,0.154314,-2.40188,0.824959
377.2,120.409,0.152633,-2.40392,0.824209
377.8,120.603,0.144612,-2.40409,0.823469
378.4,120.799,0.139398,-2.4062,0.822719
379,120.993,0.130866,-2.40748,0.821979
379.6,121.188,0.122944,-2.40679,0.821229
380.2,121.381,0.132893,-2.41089,0.820489
380.8,121.574,0.120462,-2.41086,0.819739
381.4,121.764,0.112063,-2.41226,0.818999
382,121.954,0.104486,-2.41254,0.818249
382.6,122.144,0.0910839,-2.41386,0.817499
383.2,122.336,0.0896747,-2.41675,0.816759
383.8,122.53,0.0803513,-2.4142,0.816009
384.4,122.727,0.087973,-2.41597,0.815269
385,122.927,0.103484,-2.4194,0.814519
385.6,123.126,0.113871,-2.4187,0.813769
386.2,123.325,0.118687,-2.42053,0.813029
386.8,123.523,0.123924,-2.42292,0.812279
387.4,123.721,0.124544,-2.42417,0.811539
388,123.922,0.116261,-2.42796,0.810789
388.6,124.124,0.12396,-2.4278,0.810039
389.2,124.33,0.129518,-2.42764,0.809299
389.8,124.535,0.128351,-2.43054,0.808549
390.4,124.739,0.121135,-2.43271,0.807799
391,124.939,0.130029,-2.4347,0.807059
391.6,125.137,0.105215,-2.43604,0.806309
392.2,125.333,0.101457,-2.43732,0.805559
392.8,125.528,0.0979784,-2.43861,0.804819
393.4,125.722,0.0837303,-2.43946,0.804069
394,125.917,0.07608234,-2.44104,0.803319
394.6,126.113,0.0822605,-2.44514,0.802579
395.2,126.309,0.0784605,-2.44538,0.801829
395.8,126.502,0.0712717,-2.44796,0.801089
396.4,126.696,0.0665217,-2.44936,0.800339
397,126.888,0.064559,-2.45106,0.799589
397.6,127.08,0.0602879,-2.45322,0.798849
398.2,127.274,0.0430515,-2.45587,0.798099
398.8,127.468,0.0404537,-2.45719,0.797349
399.4,127.665,0.0452763,-2.45964,0.796609
400,127.862,0.0485319,-2.46184,0.795859
400.6,128.06,0.032183,-2.46377,0.795119
401.2,128.257,0.0417377,-2.46518,0.794369
401.8,128.453,0.0344881,-2.46762,0.793629
402.4,128.648,0.0395913,-2.47115,0.792879
403,128.842,0.03490504,-2.47372,0.792129
403.6,129.037,0.0223175,-2.47256,0.791389
404.2,129.234,0.017325,-2.47715,0.790639
404.8,129.429,0.0318183,-2.47928,0.789899
405.4,129.623,0.0247953,-2.48402,0.789149
406,129.813,0.0229471,-2.48553,0.788409
406.6,130.003,0.0198803,-2.48977,0.787669
407.2,130.195,0.0201213,-2.49235,0.786919
407.8,130.389,0.0257847,-2.49462,0.786179
408.4,130.587,0.0246995,-2.498,0.785429
409,130.787,0.0364784,-2.50032,0.784689
409.6,130.989,0.0414213,-2.50593,0.783949
410.2,131.19,0.0577371,-2.50842,0.783199
410.8,131.392,0.0608164,-2.51169,0.782459
411.4,131.592,0.071081,-2.51678,0.781719
412,131.789,0.0574997,-2.52036,0.780969
412.6,131.982,0.0537883,-2.52352,0.780229
413.2,132.173,0.0484875,-2.52721,0.779489
413.8,132.362,0.0332025,-2.5306,0.778749
414.4,132.553,0.01862971,-2.53076,0.778009
415,132.746,0.0289658,-2.54096,0.777259
415.6,132.944,0.0257966,-2.54386,0.776519
416.2,133.143,0.0324562,-2.55004,0.775779
416.8,133.342,0.0408897,-2.55456,0.775039
417.4,133.541,0.0442632,-2.55858,0.774299
418,133.741,0.0520851,-2.56619,0.773559
418.6,133.94,0.0570973,-2.5717,0.772819
419.2,134.139,0.0632961,-2.57576,0.772079
419.8,134.335,0.06006877,-2.58112,0.771339
420.4,134.527,0.0625862,-2.59007,0.770599
421,134.717,0.0555121,-2.59152,0.769859
421.6,134.908,0.0589509,-2.60108,0.769129
422.2,135.101,0.0532841,-2.61086,0.768389
422.8,135.297,0.0768269,-2.61447,0.767649
423.4,135.495,0.0878,-2.62285,0.766909
424,135.691,0.101573,-2.62862,0.766179
424.6,135.888,0.127525,-2.63982,0.765439
425.2,136.084,0.119063,-2.64663,0.764699
425.8,136.281,0.137364,-2.65915,0.763969
426.4,136.479,0.142068,-2.66371,0.763229
427,136.676,0.154462,-2.66982,0.762499
427.6,136.873,0.169978,-2.6837,0.761759
428.2,137.069,0.184172,-2.69724,0.761029
428.8,137.265,0.19434,-2.69738,0.760299
429.4,137.461,0.195441,-2.70668,0.759559
430,137.657,0.193906,-2.7124,0.758829
430.6,137.853,0.207013,-2.72266,0.758099
431.2,138.051,0.220661,-2.73421,0.757359
431.8,138.249,0.232216,-2.74566,0.756629
432.4,138.448,0.241484,-2.75616,0.755899
433,138.648,0.253221,-2.76357,0.755169
433.6,138.848,0.265755,-2.77259,0.754439
434.2,139.048,0.263929,-2.78586,0.753709
434.8,139.247,0.283051,-2.79568,0.752979
435.4,139.442,0.279514,-2.8053,0.752249
436,139.637,0.282547,-2.81559,0.751519
436.6,139.832,0.296524,-2.82476,0.750789
437.2,140.028,0.297522,-2.83559,0.750069
437.8,140.225,0.309624,-2.84384,0.749339
438.4,140.42,0.311423,-2.85492,0.748609
439,140.615,0.315276,-2.86481,0.747889
439.6,140.81,0.327695,-2.87381,0.7471588
440.2,141.003,0.320365,-2.88403,0.746439
440.8,141.195,0.322695,-2.89281,0.7457088
441.4,141.386,0.317327,-2.90422,0.744989
442,141.577,0.330643,-2.91189,0.744259
442.6,141.771,0.338417,-2.92298,0.7435388
443.2,141.968,0.3445,-2.93355,0.7428188
443.8,142.168,0.337023,-2.94227,0.7420988
444.4,142.37,0.339831,-2.95308,0.741369
445,142.571,0.356707,-2.96321,0.7406488
445.6,142.771,0.355173,-2.97273,0.7399288
446.2,142.971,0.365242,-2.98204,0.7392088
446.8,143.17,0.355473,-2.99105,0.738489
447.4,143.369,0.358371,-3.00066,0.7377788
448,143.566,0.346529,-3.00646,0.7370588
448.6,143.763,0.356936,-3.01743,0.7363388
449.2,143.96,0.361335,-3.02694,0.735619
449.8,144.157,0.360595,-3.03477,0.7349088
450.4,144.354,0.361661,-3.04291,0.734189
451,144.554,0.345184,-3.05053,0.733479
451.6,144.753,0.33833,-3.06031,0.732759
452.2,144.952,0.335876,-3.06939,0.732049
452.8,145.149,0.316152,-3.07731,0.731339
453.4,145.346,0.317674,-3.08344,0.730619
454,145.542,0.331071,-3.09251,0.729909
454.6,145.741,0.342381,-3.10104,0.729199
455.2,145.939,0.322914,-3.10779,0.728489
455.8,146.135,0.283382,-3.11601,0.727779
456.4,146.331,0.281464,-3.11917,0.727069
457,146.528,0.28621,-3.12667,0.726359
457.6,146.726,0.30805,-3.13409,0.725659
458.2,146.926,0.2927,-3.14007,0.724949
458.8,147.124,0.273058,-3.14672,0.724239
459.4,147.321,0.270314,-3.15225,0.723539
460,147.518,0.291811,-3.15829,0.722829
460.6,147.716,0.299338,-3.16597,0.722129
461.2,147.915,0.302271,-3.17084,0.721419
461.8,148.114,0.261483,-3.17907,0.720719
462.4,148.313,0.230631,-3.18151,0.720019
463,148.51,0.286143,-3.18725,0.719319
463.6,148.706,0.293261,-3.19393,0.718619
464.2,148.904,0.283804,-3.19915,0.717919
464.8,149.104,0.2980011,-3.20519,0.717219
465.4,149.306,0.286876,-3.20949,0.716519
466,149.51,0.272353,-3.2149,0.715819
466.6,149.712,0.258467,-3.21936,0.715119
467.2,149.91,0.252752,-3.22164,0.714429
467.8,150.106,0.242609,-3.22916,0.713729
468.4,150.299,0.215785,-3.2309,0.713039
469,150.493,0.212028,-3.23721,0.712339
469.6,150.689,0.215213,-3.24012,0.711649
470.2,150.889,0.21963,-3.24355,0.710959
470.8,151.091,0.205003,-3.2469,0.710269
471.4,151.292,0.231688,-3.24998,0.709579
472,151.492,0.224041,-3.25428,0.708889
472.6,151.69,0.216121,-3.25868,0.708199
473.2,151.889,0.209497,-3.26153,0.707509
473.8,152.09,0.217761,-3.26437,0.706819
474.4,152.293,0.217199,-3.26702,0.706129
475,152.493,0.230863,-3.27121,0.705449
475.6,152.692,0.202878,-3.27226,0.704759
476.2,152.888,0.195946,-3.27696,0.704079
476.8,153.084,0.186596,-3.27825,0.703389
477.4,153.282,0.196537,-3.28019,0.702709
478,153.48,0.199899,-3.28136,0.702029
478.6,153.679,0.195855,-3.28464,0.701349
479.2,153.878,0.184833,-3.28683,0.700669
479.8,154.079,0.194403,-3.28797,0.699989
480.4,154.282,0.189976,-3.29358,0.699309
481,154.485,0.212612,-3.29391,0.698629
481.6,154.684,0.205152,-3.29609,0.697959
482.2,154.881,0.190271,-3.29783,0.697279
482.8,155.076,0.182405,-3.29923,0.696609
483.4,155.27,0.175976,-3.30077,0.695929
484,155.466,0.164915,-3.30187,0.695259
484.6,155.665,0.16323,-3.30267,0.694589
485.2,155.866,0.168896,-3.30511,0.693919
485.8,156.067,0.18741,-3.30727,0.693249
486.4,156.267,0.182869,-3.30723,0.692579
487,156.463,0.171909,-3.30815,0.691909
487.6,156.657,0.175621,-3.30939,0.691239
488.2,156.852,0.17014,-3.3111,0.690579
488.8,157.05,0.162657,-3.31385,0.6899089
489.4,157.25,0.171689,-3.31519,0.689249
490,157.454,0.175334,-3.31593,0.6885789
490.6,157.662,0.198877,-3.31395,0.6879189
491.2,157.868,0.198303,-3.3184,0.6872589
491.8,158.073,0.1872383,-3.31964,0.6865989
492.4,158.273,0.170322,-3.31907,0.6859389
493,158.472,0.174672,-3.32051,0.6852789
493.6,158.67,0.155403,-3.32327,0.6846189
494.2,158.87,0.159836,-3.32318,0.6839589
494.8,159.074,0.183081,-3.32585,0.683309
495.4,159.28,0.191937,-3.32469,0.682649
496,159.483,0.184438,-3.32853,0.681999
496.6,159.681,0.176837,-3.32856,0.681339
497.2,159.875,0.168896,-3.32939,0.680689
497.8,160.069,0.156026,-3.32917,0.680039
498.4,160.265,0.146311,-3.32994,0.679389
499,160.462,0.169067,-3.32875,0.678739
499.6,160.662,0.147951,-3.33105,0.678089
500.2,160.864,0.134655,-3.33242,0.677449
500.8,161.067,0.158764,-3.33295,0.676799
501.4,161.269,0.182422,-3.33339,0.676159
502,161.469,0.173859,-3.335,0.675509
502.6,161.668,0.165542,-3.33545,0.674869
503.2,161.865,0.15417,-3.33467,0.674229
503.8,162.061,0.146198,-3.33599,0.673589
504.4,162.259,0.136743,-3.33577,0.672949
505,162.459,0.149631,-3.33657,0.672309
505.6,162.661,0.139602,-3.33763,0.671669
506.2,162.864,0.145971,-3.33774,0.671029
506.8,163.067,0.129919,-3.33906,0.670399
507.4,163.268,0.133801,-3.34037,0.669759
508,163.466,0.123037,-3.33908,0.669129
508.6,163.659,0.111285,-3.34065,0.668499
509.2,163.848,0.0845626,-3.34115,0.667869
509.8,164.035,0.0702567,-3.34307,0.667239
510.4,164.226,0.0789516,-3.34313,0.666609
511,164.423,0.0891646,-3.34349,0.665979
511.6,164.628,0.105764,-3.34466,0.665349
512.2,164.838,0.134305,-3.344,0.664729
512.8,165.049,0.148122,-3.34353,0.664099
513.4,165.26,0.167853,-3.34471,0.663479
514,165.469,0.172887,-3.34529,0.662859
514.6,165.678,0.159586,-3.34477,0.662229
515.2,165.883,0.14114,-3.34736,0.661609
515.8,166.08,0.13534,-3.34647,0.660989
516.4,166.272,0.101934,-3.34884,0.660379
517,166.459,0.0831943,-3.35012,0.659759
517.6,166.646,0.0531484,-3.34877,0.659139
518.2,166.834,0.0420347,-3.34718,0.658529
518.8,167.025,0.0498827,-3.34813,0.657919
519.4,167.222,0.0576791,-3.3482,0.657299
520,167.424,0.0777682,-3.34856,0.656689
520.6,167.629,0.103489,-3.34948,0.656079
521.2,167.834,0.101805,-3.34948,0.655469
521.8,168.039,0.12539,-3.35025,0.654869
522.4,168.244,0.112804,-3.35063,0.654259
523,168.451,0.11009,-3.34981,0.653649
523.6,168.657,0.107892,-3.35311,0.653049
524.2,168.862,0.111626,-3.35167,0.652449
524.8,169.062,0.0921765,-3.35167,0.651839
525.4,169.26,0.0863267,-3.35168,0.651239
526,169.458,0.0940906,-3.35332,0.650639
526.6,169.655,0.0899812,-3.3546,0.650049
527.2,169.855,0.0859706,-3.35331,0.649449
527.8,170.055,0.08950991,-3.35476,0.648849
528.4,170.258,0.0886864,-3.35404,0.648259
529,170.464,0.0942231,-3.35527,0.647659
529.6,170.673,0.114111,-3.3543,0.647069
530.2,170.879,0.123961,-3.35484,0.646479
530.8,171.083,0.124423,-3.35536,0.645889
531.4,171.28,0.10677,-3.35726,0.645299
532,171.474,0.0843162,-3.35528,0.644719
532.6,171.665,0.0817302,-3.35662,0.644129
533.2,171.854,0.0480464,-3.3563,0.643539
533.8,172.044,0.0162952,-3.35562,0.642959
534.4,172.238,0.0215942,-3.35796,0.642379
535,172.438,0.05457519,-3.35758,0.641799
535.6,172.642,0.0690038,-3.35887,0.641219
536.2,172.848,0.104912,-3.35759,0.640639
536.8,173.053,0.101712,-3.35816,0.640059
537.4,173.258,0.102439,-3.35991,0.639479
538,173.464,0.0981316,-3.35825,0.638909
538.6,173.669,0.103705,-3.35751,0.638329
539.2,173.873,0.0986045,-3.35891,0.637759
539.8,174.076,0.0933685,-3.35892,0.637189
540.4,174.277,0.0834104,-3.35831,0.636619
541,174.478,0.08048108,-3.36151,0.636049
541.6,174.679,0.0670289,-3.36001,0.635479
542.2,174.881,0.08091584,-3.35902,0.634919
542.8,175.084,0.0784511,-3.35967,0.634349
543.4,175.288,0.0751768,-3.36064,0.633789
544,175.492,0.0828507,-3.36067,0.633229
544.6,175.695,0.0709657,-3.36158,0.632659
545.2,175.897,0.0664763,-3.3607,0.632099
545.8,176.099,0.0486302,-3.36122,0.631549
546.4,176.301,0.0826895,-3.3622,0.630989
547,176.501,0.0671145,-3.36188,0.630429
547.6,176.699,0.0666011,-3.36348,0.629879
548.2,176.894,0.0658051,-3.36251,0.629319
548.8,177.09,0.0648504,-3.36155,0.628769
549.4,177.289,0.0814797,-3.365,0.628219
550,177.491,0.0900071,-3.3629,0.627669
550.6,177.697,0.0958435,-3.36276,0.627119
551.2,177.903,0.118933,-3.36404,0.626579
551.8,178.11,0.118801,-3.36346,0.6260291
552.4,178.319,0.133721,-3.36202,0.625489
553,178.529,0.140752,-3.36366,0.6249391
553.6,178.732,0.150745,-3.36493,0.6243991
554.2,178.927,0.116778,-3.36421,0.6238591
554.8,179.114,0.105669,-3.36569,0.6233191
555.4,179.3,0.0755337,-3.36629,0.622779
556,179.487,0.0790161,-3.36623,0.622249
556.6,179.679,0.0916159,-3.36483,0.621709
557.2,179.876,0.0900535,-3.36483,0.621179
557.8,180.079,0.118732,-3.36616,0.620649
558.4,180.285,0.154706,-3.36495,0.620119
559,180.494,0.167658,-3.36497,0.619589
559.6,180.7,0.186505,-3.36616,0.619059
560.2,180.905,0.171359,-3.36647,0.618529
560.8,181.109,0.195516,-3.36645,0.617999
561.4,181.313,0.154847,-3.3677,0.617479
562,181.517,0.158458,-3.36842,0.616959
562.6,181.72,0.178723,-3.36616,0.616439
563.2,181.924,0.184348,-3.36736,0.615919
563.8,182.131,0.200108,-3.36832,0.615399
564.4,182.339,0.218281,-3.36876,0.614879
565,182.547,0.214295,-3.36789,0.614359
565.6,182.753,0.221203,-3.3696,0.613849
566.2,182.958,0.218858,-3.36985,0.613339
566.8,183.158,0.225132,-3.36987,0.612819
567.4,183.357,0.201042,-3.36991,0.612309
568,183.555,0.204893,-3.37102,0.611799
568.6,183.755,0.199141,-3.37113,0.611299
569.2,183.958,0.2061253,-3.36976,0.610789
569.8,184.161,0.221036,-3.37125,0.610279
570.4,184.364,0.221236,-3.37125,0.609779
571,184.565,0.23891,-3.3712,0.609279
571.6,184.767,0.259642,-3.3712,0.608779
572.2,184.969,0.278199,-3.37119,0.608279
572.8,185.173,0.303058,-3.37116,0.607779
573.4,185.378,0.321692,-3.37375,0.607279
574,185.582,0.340614,-3.37044,0.606789
574.6,185.784,0.339771,-3.37154,0.606289
575.2,185.982,0.336892,-3.37426,0.605799
575.8,186.179,0.341044,-3.3734,0.605309
576.4,186.379,0.35177,-3.37313,0.604819
577,186.582,0.362889,-3.37426,0.604329
577.6,186.786,0.383681,-3.37294,0.603849
578.2,186.988,0.381128,-3.36999,0.6033592
578.8,187.19,0.387704,-3.37425,0.602879
579.4,187.391,0.406383,-3.37371,0.6023892
580,187.593,0.408329,-3.37471,0.6019092
580.6,187.796,0.433078,-3.37495,0.6014292
581.2,188,0.461321,-3.37335,0.600949
581.8,188.204,0.473838,-3.3752,0.600479
582.4,188.408,0.482058,-3.37451,0.599999
583,188.609,0.494022,-3.37435,0.599529
583.6,188.81,0.505716,-3.37503,0.599049
584.2,189.012,0.496465,-3.375,0.598579
584.8,189.215,0.524384,-3.37444,0.598109
585.4,189.418,0.523231,-3.37361,0.597649
586,189.621,0.538849,-3.37504,0.597179
586.6,189.823,0.536676,-3.37574,0.596709
587.2,190.025,0.550941,-3.37656,0.596249
587.8,190.227,0.555197,-3.37433,0.595789
588.4,190.429,0.596399,-3.37473,0.595329
589,190.631,0.573132,-3.37489,0.594869
589.6,190.832,0.593979,-3.37496,0.594409
590.2,191.033,0.604229,-3.37601,0.593949
590.8,191.235,0.594586,-3.37624,0.593499
591.4,191.438,0.619251,-3.37475,0.593039
592,191.642,0.602243,-3.37484,0.592589
592.6,191.847,0.622563,-3.37612,0.592139
593.2,192.054,0.636448,-3.37691,0.591689
593.8,192.26,0.632191,-3.37556,0.591239
594.4,192.467,0.660948,-3.37689,0.590789
595,192.672,0.653654,-3.3774,0.590349
595.6,192.875,0.663328,-3.37766,0.589899
596.2,193.077,0.669153,-3.37604,0.589459
596.8,193.28,0.665946,-3.37683,0.589019
597.4,193.482,0.695249,-3.37869,0.588579
598,193.684,0.712159,-3.37866,0.588139
598.6,193.886,0.688707,-3.37784,0.587709
599.2,194.089,0.712955,-3.37775,0.587269
599.8,194.291,0.695259,-3.37845,0.586839
600.4,194.494,0.691424,-3.3775,0.586409
601,194.695,0.71198,-3.37789,0.585979
601.6,194.897,0.715976,-3.37714,0.585549
602.2,195.099,0.720089,-3.37901,0.585119
602.8,195.303,0.714255,-3.37786,0.584699
603.4,195.507,0.732835,-3.37917,0.5842693
604,195.711,0.741239,-3.37928,0.5838493
604.6,195.914,0.739319,-3.37912,0.5834293
605.2,196.118,0.728353,-3.38009,0.5830093
605.8,196.322,0.708034,-3.37889,0.5825893
606.4,196.526,0.734971,-3.38062,0.5821693
607,196.728,0.718767,-3.37953,0.581749
607.6,196.929,0.71771,-3.38068,0.5813393
608.2,197.128,0.715353,-3.38082,0.580929
608.8,197.327,0.725561,-3.38019,0.580519
609.4,197.528,0.731414,-3.3815,0.580109
610,197.73,0.724611,-3.38039,0.579699
610.6,197.933,0.756902,-3.38007,0.579289
611.2,198.137,0.758113,-3.3815,0.578889
611.8,198.341,0.782523,-3.38151,0.578479
612.4,198.546,0.78623,-3.38151,0.578079
613,198.75,0.790931,-3.38184,0.577679
613.6,198.955,0.800784,-3.38127,0.577279
614.2,199.16,0.811768,-3.38168,0.576879
614.8,199.365,0.816482,-3.38137,0.576489
615.4,199.57,0.823321,-3.38198,0.576089
616,199.774,0.828611,-3.38182,0.575699
616.6,199.978,0.831755,-3.3833,0.575309
617.2,200.182,0.846452,-3.38187,0.574919
617.8,200.385,0.829768,-3.38155,0.574529
618.4,200.588,0.802433,-3.38348,0.574139
619,200.79,0.809196,-3.38266,0.573749
619.6,200.993,0.803542,-3.38286,0.573369
620.2,201.197,0.835816,-3.38214,0.572989
620.8,201.401,0.855683,-3.38176,0.572609
621.4,201.605,0.850409,-3.38148,0.572229
622,201.809,0.868374,-3.38217,0.571849
622.6,202.013,0.900201,-3.38345,0.571469
623.2,202.218,0.888585,-3.38349,0.571099
623.8,202.423,0.887343,-3.38464,0.570719
624.4,202.628,0.896528,-3.38357,0.570349
625,202.834,0.890666,-3.38359,0.569979
625.6,203.039,0.911148,-3.38096,0.569609
626.2,203.243,0.90775,-3.38228,0.569239
626.8,203.447,0.925658,-3.38379,0.568879
627.4,203.649,0.929814,-3.38369,0.5685094
628,203.851,0.941943,-3.3836,0.5681494
628.6,204.054,0.924745,-3.38345,0.5677894
629.2,204.256,0.945638,-3.38319,0.5674294
629.8,204.46,0.934835,-3.38414,0.5670694
630.4,204.664,0.950246,-3.38375,0.5667094
631,204.868,0.963489,-3.3837,0.566349
631.6,205.074,0.959463,-3.38413,0.565999
632.2,205.28,0.931857,-3.38466,0.565649
632.8,205.488,0.967702,-3.38466,0.565299
633.4,205.696,0.963111,-3.38508,0.564949
634,205.904,0.982896,-3.38503,0.564599
634.6,206.111,0.98498,-3.38424,0.564249
635.2,206.316,0.967563,-3.38586,0.563909
635.8,206.519,0.9734,-3.38515,0.563559
636.4,206.72,0.949325,-3.38853,0.563219
637,206.921,0.943275,-3.38633,0.562879
637.6,207.123,0.948451,-3.38765,0.562539
638.2,207.326,0.954783,-3.38889,0.562209
638.8,207.528,0.967024,-3.38765,0.561869
639.4,207.728,0.971627,-3.38812,0.561529
640,207.928,0.964945,-3.38792,0.561199
640.6,208.13,0.994563,-3.38767,0.560869
641.2,208.333,1.0027,-3.38764,0.560539
641.8,208.538,1.02096,-3.38914,0.560209
642.4,208.743,1.02209,-3.38783,0.559889
643,208.949,1.01682,-3.39014,0.55956
643.6,209.156,1.02176,-3.39043,0.559239
644.2,209.361,1.02562,-3.38802,0.558909
644.8,209.567,1.03744,-3.39001,0.558589
645.4,209.773,1.03794,-3.38895,0.558269
646,,,,
646.6,,,,
647.2,,,,
647.8,,,,
648.4,,,,
649,,,,
649.6,,,,
650.2,,,,
650.8,,,,
651.4,,,,
652,,,,
652.6,,,,
653.2,,,,
653.8,,,,
654.4,,,,
655,,,,
655.6,,,,
656.2,,,,
656.8,,,,
657.4,,,,
658,,,,
658.6,,,,
659.2,,,,
659.8,,,,
660.4,,,,
661,,,,
661.6,,,,
662.2,,,,
662.8,,,,
663.4,,,,
664,,,,
664.6,,,,
665.2,,,,
665.8,,,,
666.4,,,,
667,,,,
667.6,,,,
668.2,,,,
668.8,,,,
669.4,,,,
670,,,,
670.6,,,,
671.2,,,,
671.8,,,,
672.4,,,,
673,,,,
673.6,,,,
674.2,,,,
674.8,,,,
675.4,,,,
676,,,,
676.6,,,,
677.2,,,,
677.8,,,,
678.4,,,,
679,,,,
679.6,,,,
680.2,,,,
680.8,,,,
681.4,,,,
682,,,,
682.6,,,,
683.2,,,,
683.8,,,,
684.4,,,,
685,,,,
685.6,,,,
686.2,,,,
686.8,,,,
687.4,,,,
688,,,,
688.6,,,,
689.2,,,,
689.8,,,,
690.4,,,,
691,,,,
691.6,,,,
692.2,,,,
692.8,,,,
693.4,,,,
694,,,,
694.6,,,,
695.2,,,,
695.8,,,,
696.4,,,,
697,,,,
697.6,,,,
698.2,,,,
698.8,,,,
699.4,,,,
700,,,,
700.6,,,,
701.2,,,,
701.8,,,,
702.4,,,,
703,,,,
703.6,,,,
704.2,,,,
704.8,,,,
705.4,,,,
706,,,,
706.6,,,,
707.2,,,,
707.8,,,,
708.4,,,,
709,,,,
709.6,,,,
710.2,,,,
710.8,,,,
711.4,,,,
712,,,,
712.6,,,,
713.2,,,,
713.8,,,,
714.4,,,,
715,,,,
715.6,,,,
716.2,,,,
716.8,,,,
717.4,,,,
718,,,,
718.6,,,,
719.2,,,,
719.8,,,,
720.4,,,,
721,,,,
721.6,,,,
722.2,,,,
722.8,,,,
723.4,,,,
724,,,,
724.6,,,,
725.2,,,,
725.8,,,,
726.4,,,,
727,,,,
727.6,,,,
728.2,,,,
728.8,,,,
729.4,,,,
730,,,,
730.6,,,,
731.2,,,,
731.8,,,,
732.4,,,,
733,,,,
733.6,,,,
734.2,,,,
734.8,,,,
735.4,,,,
736,,,,
736.6,,,,
737.2,,,,
737.8,,,,
738.4,,,,
739,,,,
739.6,,,,
740.2,,,,
740.8,,,,
741.4,,,,
742,,,,
742.6,,,,
743.2,,,,
743.8,,,,
744.4,,,,
745,,,,
745.6,,,,
746.2,,,,
746.8,,,,
747.4,,,,
748,,,,
748.6,,,,
749.2,,,,
749.8,,,,
750,,,,