File: 01_Data/Pine_Siding/MCC/Pine_Siding_30K_min_210608_R2.txt
Sample ID:	C:\MCC\MCC Cal\Test\Pine_Siding\Pine_Siding_30_2.txt
Sample Weight (mg):	4.47
Heating Rate (C/s):	0.5
Combustor Temp (C):	900
N2 Flow Rate (cc/min):	80
O2 Flow Rate (cc/min):	20
Calibration File:	C:\MCC\MCC Cal\Coeff1 JN10440_30_210304.txt.txt
T Correction Coefficients:	0	1.024463	0
Time Shift (s):	14
*
Time (s)	Temperature (C)	N2 flow rate (cc/min)	O2 flow rate (cc/min)	Flow Rate (cc/min)	Oxygen (%)	HRR (W/g)	Heating rate (C/s)
0.000	112.783	79.983	19.992	99.913	19.963	-0.064	0.010
1.500	112.797	79.983	19.992	99.912	19.963	-0.068	-0.012
3.000	112.778	79.983	19.993	99.912	19.967	-0.293	0.002
4.500	112.774	79.982	19.992	99.910	19.964	-0.122	-0.006
6.000	112.794	79.982	19.993	99.911	19.964	-0.103	-0.001
7.500	112.833	79.982	19.993	99.919	19.968	-0.367	0.017
9.001	112.806	79.983	19.993	99.925	19.963	-0.062	-0.028
10.500	112.794	79.981	19.993	99.917	19.963	-0.075	0.003
12.001	112.792	79.982	19.992	99.935	19.963	-0.043	-0.002
13.500	112.784	79.980	19.992	99.951	19.960	0.196	-0.008
15.000	112.753	79.981	19.993	99.953	19.959	0.213	-0.047
16.500	112.789	79.983	19.993	99.970	19.951	0.802	0.019
18.000	112.818	79.983	19.992	100.012	19.949	0.936	0.016
19.500	112.829	79.982	19.994	100.038	19.944	1.258	0.003
21.000	112.927	79.983	19.993	100.048	19.944	1.298	0.066
22.500	112.980	79.982	19.992	100.044	19.940	1.586	0.041
24.000	113.066	79.981	19.993	100.049	19.937	1.770	0.040
25.500	113.158	79.983	19.996	100.063	19.939	1.648	0.077
27.000	113.299	79.984	19.993	100.096	19.936	1.812	0.095
28.500	113.392	79.983	19.993	100.108	19.933	2.051	0.058
30.000	113.568	79.983	19.993	100.115	19.931	2.202	0.100
31.500	113.771	79.982	19.993	100.131	19.926	2.545	0.135
33.000	113.970	79.980	19.992	100.142	19.929	2.334	0.138
34.500	114.188	79.980	19.993	100.137	19.924	2.710	0.163
36.001	114.413	79.982	19.993	100.141	19.923	2.782	0.163
37.500	114.646	79.983	19.993	100.133	19.924	2.708	0.163
39.000	114.926	79.982	19.992	100.132	19.922	2.810	0.198
40.500	115.214	79.981	19.992	100.138	19.923	2.720	0.192
42.001	115.537	80.003	19.997	100.147	19.924	2.684	0.216
43.500	115.849	79.983	19.996	100.149	19.924	2.707	0.233
45.001	116.172	79.984	19.993	100.147	19.918	3.112	0.222
46.501	116.560	79.985	19.991	100.144	19.920	2.948	0.245
48.000	116.920	79.983	19.992	100.142	19.921	2.884	0.252
49.500	117.240	79.984	19.992	100.148	19.918	3.095	0.211
51.000	117.671	79.986	19.993	100.149	19.918	3.122	0.259
52.501	118.040	79.985	19.992	100.144	19.917	3.203	0.225
54.000	118.501	79.985	19.992	100.143	19.917	3.198	0.289
55.500	118.916	79.984	19.992	100.144	19.918	3.100	0.277
57.000	119.336	79.984	19.991	100.145	19.916	3.239	0.276
58.501	119.710	79.984	19.992	100.146	19.919	3.063	0.255
60.001	120.199	79.982	19.992	100.145	19.916	3.227	0.330
61.500	120.696	79.983	19.992	100.156	19.914	3.375	0.330
63.001	121.155	79.984	19.992	100.172	19.913	3.465	0.328
64.500	121.665	79.983	19.992	100.179	19.914	3.381	0.348
66.000	122.163	79.982	19.993	100.184	19.911	3.562	0.320
67.500	122.687	79.983	19.992	100.170	19.910	3.654	0.352
69.000	123.211	79.982	19.992	100.164	19.913	3.448	0.338
70.500	123.778	79.982	19.991	100.172	19.908	3.769	0.375
72.000	124.290	79.983	19.991	100.186	19.913	3.462	0.336
73.500	124.825	79.983	19.992	100.123	19.910	3.654	0.354
75.001	125.395	79.983	19.991	100.103	19.912	3.552	0.397
76.500	125.951	79.982	19.991	100.224	19.911	3.571	0.374
78.000	126.575	79.983	19.991	100.257	19.912	3.512	0.395
79.500	127.155	79.984	19.990	100.192	19.910	3.669	0.363
81.000	127.715	79.983	19.991	100.188	19.908	3.829	0.380
82.500	128.342	79.982	19.991	100.189	19.910	3.644	0.434
84.000	128.991	79.982	19.991	100.189	19.912	3.533	0.441
85.500	129.614	79.982	19.991	100.190	19.915	3.290	0.423
87.000	130.265	79.982	19.991	100.188	19.915	3.343	0.429
88.500	130.909	79.982	19.992	100.189	19.911	3.578	0.422
90.000	131.555	79.982	19.992	100.189	19.910	3.643	0.419
91.500	132.193	79.982	19.992	100.189	19.910	3.674	0.411
93.000	132.851	79.982	19.992	100.190	19.912	3.534	0.437
94.500	133.525	79.981	19.991	100.190	19.909	3.712	0.467
96.000	134.245	79.981	19.992	100.191	19.909	3.700	0.472
97.501	134.896	79.982	19.992	100.188	19.909	3.697	0.447
99.000	135.610	79.983	19.992	100.200	19.906	3.919	0.475
100.500	136.302	79.982	19.992	100.118	19.910	3.665	0.464
102.000	137.044	79.983	19.991	100.169	19.910	3.672	0.477
103.501	137.729	79.984	19.993	100.257	19.909	3.736	0.451
105.000	138.421	79.983	19.991	100.191	19.908	3.821	0.464
106.500	139.141	79.982	19.992	100.177	19.909	3.734	0.454
108.000	139.841	79.984	19.991	100.185	19.910	3.657	0.471
109.501	140.612	79.984	19.992	100.185	19.911	3.619	0.518
111.000	141.308	79.983	19.991	100.176	19.910	3.638	0.479
112.500	142.070	79.983	19.992	100.176	19.908	3.807	0.494
114.000	142.823	79.982	19.993	100.183	19.913	3.476	0.513
115.500	143.591	79.983	19.992	100.179	19.910	3.683	0.502
117.001	144.325	79.983	19.993	100.167	19.910	3.649	0.477
118.501	145.026	79.982	19.993	100.167	19.912	3.548	0.463
120.001	145.776	79.982	19.992	100.166	19.913	3.474	0.486
121.501	146.536	79.981	19.993	100.169	19.914	3.381	0.521
123.000	147.309	79.982	19.993	100.167	19.910	3.627	0.506
124.501	148.093	79.983	19.993	100.158	19.912	3.487	0.520
126.000	148.868	79.983	19.993	100.164	19.912	3.541	0.509
127.500	149.621	79.985	19.993	100.161	19.911	3.564	0.502
129.000	150.391	79.984	19.992	100.166	19.910	3.650	0.502
130.500	151.121	79.984	19.991	100.160	19.912	3.505	0.479
132.000	151.928	79.985	19.992	100.146	19.912	3.543	0.559
133.500	152.668	79.985	19.991	100.154	19.913	3.455	0.476
135.000	153.441	79.987	19.991	100.175	19.911	3.575	0.492
136.500	154.177	79.984	19.990	100.162	19.910	3.694	0.495
138.000	154.951	79.985	19.991	100.141	19.912	3.553	0.507
139.500	155.691	79.983	19.991	100.147	19.913	3.455	0.495
141.000	156.418	79.982	19.991	100.147	19.912	3.509	0.484
142.500	157.193	79.982	19.992	100.152	19.911	3.590	0.517
144.000	157.958	79.983	19.991	100.153	19.908	3.835	0.519
145.500	158.751	79.983	19.992	100.149	19.911	3.568	0.512
147.000	159.501	79.982	19.990	100.150	19.914	3.396	0.484
148.500	160.275	79.982	19.992	100.149	19.911	3.622	0.513
150.000	161.013	79.982	19.991	100.149	19.916	3.249	0.506
151.500	161.738	79.984	19.991	100.149	19.914	3.356	0.484
153.000	162.513	79.981	19.993	100.149	19.913	3.481	0.487
154.500	163.327	79.983	19.992	100.149	19.913	3.484	0.524
156.000	164.067	79.982	19.992	100.150	19.913	3.464	0.503
157.500	164.864	79.983	19.992	100.150	19.910	3.673	0.524
159.000	165.603	79.984	19.993	100.146	19.912	3.550	0.488
160.500	166.425	79.983	19.992	100.143	19.911	3.558	0.540
162.000	167.146	79.983	19.992	100.143	19.913	3.431	0.494
163.500	167.941	79.983	19.992	100.144	19.913	3.415	0.538
165.000	168.675	79.984	19.992	100.140	19.913	3.453	0.496
166.500	169.432	79.982	19.991	100.140	19.914	3.375	0.497
168.000	170.213	79.982	19.993	100.146	19.910	3.673	0.490
169.500	171.027	79.981	19.992	100.138	19.911	3.621	0.552
171.000	171.702	79.982	19.992	100.134	19.912	3.504	0.468
172.500	172.462	79.982	19.992	100.131	19.911	3.557	0.525
174.000	173.255	79.982	19.991	100.115	19.910	3.648	0.543
175.500	174.003	79.980	19.991	100.108	19.911	3.597	0.481
177.000	174.760	79.983	19.992	100.134	19.913	3.433	0.500
178.500	175.486	79.982	19.992	100.144	19.909	3.702	0.478
180.000	176.242	79.981	19.993	100.133	19.907	3.835	0.513
181.500	177.003	79.983	19.993	100.113	19.910	3.638	0.504
183.000	177.679	79.983	19.992	100.120	19.912	3.525	0.442
184.500	178.490	79.984	19.993	100.127	19.909	3.758	0.526
186.000	179.209	79.984	19.992	100.126	19.911	3.574	0.481
187.500	179.973	79.985	19.993	100.110	19.912	3.496	0.503
189.000	180.706	79.984	19.993	100.111	19.910	3.632	0.491
190.500	181.428	79.984	19.992	100.111	19.911	3.561	0.504
192.000	182.190	79.983	19.992	100.109	19.907	3.896	0.508
193.500	182.920	79.984	19.993	100.108	19.910	3.630	0.497
195.000	183.657	79.984	19.992	100.110	19.910	3.677	0.477
196.500	184.430	79.982	19.992	100.110	19.909	3.736	0.493
198.000	185.165	79.982	19.993	100.109	19.907	3.837	0.496
199.500	185.935	79.983	19.993	100.108	19.910	3.679	0.503
201.000	186.670	79.983	19.992	100.112	19.909	3.707	0.501
202.500	187.410	79.984	19.993	100.112	19.913	3.447	0.499
204.000	188.160	79.984	19.993	100.110	19.912	3.543	0.493
205.500	188.891	79.983	19.993	100.112	19.911	3.611	0.496
207.000	189.603	79.983	19.993	100.110	19.910	3.690	0.515
208.500	190.374	79.983	19.992	100.106	19.911	3.568	0.499
210.000	191.120	79.985	19.992	100.106	19.913	3.482	0.470
211.500	191.852	79.984	19.992	100.107	19.909	3.741	0.489
213.000	192.571	79.984	19.993	100.104	19.908	3.794	0.477
214.500	193.325	79.984	19.993	100.102	19.912	3.536	0.502
216.000	194.065	79.983	19.993	100.105	19.906	3.922	0.504
217.500	194.790	79.982	19.993	100.086	19.910	3.649	0.465
219.000	195.530	79.983	19.992	100.097	19.906	3.956	0.481
220.500	196.271	79.983	19.992	100.117	19.907	3.892	0.474
222.000	197.005	79.981	19.993	100.113	19.907	3.873	0.510
223.500	197.756	79.982	19.992	100.110	19.907	3.903	0.500
225.000	198.478	79.982	19.991	100.108	19.906	3.931	0.475
226.500	199.234	79.982	19.992	100.107	19.907	3.897	0.502
228.000	199.949	79.982	19.991	100.110	19.906	3.912	0.481
229.500	200.667	79.982	19.992	100.110	19.905	4.016	0.474
231.000	201.408	79.982	19.992	100.108	19.902	4.185	0.515
232.500	202.172	79.982	19.993	100.107	19.906	3.973	0.494
234.000	202.857	79.983	19.992	100.102	19.900	4.370	0.437
235.500	203.608	79.983	19.991	100.096	19.902	4.225	0.525
237.000	204.371	79.982	19.992	100.100	19.900	4.376	0.494
238.500	205.110	79.984	19.992	100.102	19.901	4.312	0.488
240.000	205.817	79.983	19.992	100.100	19.901	4.314	0.467
241.500	206.552	79.983	19.992	100.106	19.900	4.377	0.468
243.000	207.288	79.983	19.993	100.105	19.898	4.483	0.495
244.500	208.017	79.981	19.993	100.104	19.898	4.521	0.487
246.000	208.795	79.983	19.992	100.106	19.900	4.383	0.525
247.500	209.499	79.984	19.993	100.104	19.894	4.773	0.464
249.000	210.226	79.984	19.993	100.104	19.896	4.639	0.483
250.501	210.994	79.983	19.992	100.106	19.900	4.389	0.502
252.000	211.734	79.983	19.992	100.103	19.898	4.528	0.477
253.500	212.423	79.983	19.992	100.104	19.895	4.688	0.485
255.000	213.222	79.983	19.992	100.107	19.893	4.816	0.511
256.500	213.941	79.982	19.992	100.100	19.895	4.675	0.483
258.000	214.667	79.981	19.992	100.097	19.898	4.530	0.472
259.500	215.428	79.983	19.992	100.106	19.892	4.889	0.515
261.000	216.131	79.982	19.992	100.106	19.895	4.737	0.466
262.500	216.824	79.983	19.992	100.108	19.894	4.771	0.474
264.000	217.662	79.984	19.991	100.105	19.891	4.984	0.551
265.500	218.391	79.984	19.992	100.104	19.891	4.965	0.485
267.000	219.132	79.983	19.992	100.106	19.893	4.865	0.500
268.500	219.859	79.984	19.992	100.102	19.890	5.023	0.481
270.000	220.637	79.984	19.992	100.102	19.891	4.985	0.503
271.500	221.337	79.985	19.992	100.108	19.894	4.805	0.464
273.000	222.094	79.984	19.993	100.108	19.892	4.888	0.497
274.500	222.830	79.983	19.993	100.107	19.891	5.019	0.489
276.000	223.556	79.982	19.992	100.104	19.890	5.053	0.469
277.500	224.315	79.984	19.993	100.106	19.890	5.023	0.495
279.000	225.056	79.983	19.993	100.102	19.887	5.276	0.512
280.500	225.816	79.983	19.993	100.104	19.887	5.259	0.507
282.000	226.557	79.983	19.992	100.099	19.889	5.160	0.492
283.500	227.292	79.982	19.992	100.102	19.893	4.868	0.494
285.000	228.059	79.983	19.992	100.102	19.889	5.099	0.517
286.500	228.841	79.985	19.992	100.108	19.887	5.273	0.543
288.000	229.596	79.985	19.993	100.104	19.887	5.266	0.515
289.500	230.326	79.985	19.993	100.106	19.884	5.443	0.472
291.000	231.047	79.985	19.992	100.106	19.880	5.727	0.496
292.500	231.834	79.986	19.991	100.098	19.883	5.579	0.527
294.000	232.548	79.985	19.993	100.092	19.883	5.541	0.497
295.500	233.278	79.984	19.995	100.102	19.878	5.874	0.495
297.000	234.066	79.984	19.993	100.097	19.880	5.737	0.522
298.500	234.786	79.983	19.994	100.097	19.881	5.682	0.476
300.000	235.548	79.982	19.994	100.102	19.880	5.727	0.500
301.500	236.301	79.982	19.994	100.100	19.883	5.554	0.499
303.000	237.016	79.983	19.993	100.101	19.878	5.910	0.500
304.500	237.714	79.983	19.994	100.099	19.875	6.082	0.449
306.000	238.477	79.982	19.993	100.091	19.873	6.230	0.489
307.500	239.196	79.983	19.993	100.094	19.872	6.285	0.470
309.000	239.978	79.983	19.993	100.102	19.873	6.258	0.526
310.500	240.702	79.983	19.992	100.104	19.870	6.449	0.476
312.000	241.462	79.983	19.992	100.097	19.869	6.494	0.521
313.500	242.206	79.984	19.992	100.102	19.867	6.656	0.479
315.000	242.942	79.983	19.992	100.106	19.868	6.569	0.520
316.500	243.711	79.982	19.992	100.107	19.865	6.803	0.515
318.000	244.434	79.984	19.992	100.107	19.864	6.893	0.492
319.500	245.182	79.984	19.991	100.102	19.864	6.839	0.495
321.000	245.921	79.983	19.992	100.105	19.861	7.076	0.519
322.500	246.666	79.983	19.992	100.102	19.862	7.042	0.502
324.000	247.425	79.984	19.992	100.102	19.856	7.419	0.507
325.500	248.177	79.983	19.992	100.108	19.858	7.311	0.506
327.000	248.948	79.984	19.993	100.107	19.857	7.358	0.508
328.500	249.731	79.983	19.992	100.109	19.857	7.386	0.497
330.000	250.455	79.983	19.993	100.110	19.853	7.650	0.507
331.500	251.225	79.983	19.993	100.110	19.850	7.839	0.529
333.000	252.000	79.983	19.993	100.111	19.846	8.146	0.515
334.500	252.761	79.983	19.993	100.111	19.847	8.093	0.523
336.001	253.510	79.983	19.992	100.111	19.843	8.358	0.497
337.500	254.260	79.982	19.991	100.110	19.846	8.160	0.496
339.000	255.015	79.983	19.992	100.108	19.840	8.539	0.498
340.500	255.765	79.983	19.992	100.109	19.844	8.240	0.488
342.000	256.533	79.985	19.992	100.111	19.841	8.499	0.517
343.500	257.258	79.984	19.992	100.112	19.838	8.658	0.490
345.000	258.038	79.984	19.992	100.111	19.837	8.729	0.505
346.500	258.788	79.985	19.992	100.111	19.840	8.516	0.513
348.000	259.527	79.984	19.992	100.109	19.837	8.726	0.499
349.500	260.258	79.986	19.992	100.111	19.834	8.949	0.464
351.001	261.033	79.983	19.991	100.113	19.833	9.072	0.527
352.500	261.763	79.984	19.992	100.111	19.830	9.282	0.486
354.000	262.500	79.984	19.992	100.111	19.828	9.422	0.501
355.500	263.290	79.983	19.993	100.110	19.828	9.380	0.510
357.000	264.038	79.983	19.993	100.110	19.826	9.501	0.531
358.500	264.799	79.984	19.993	100.114	19.820	9.947	0.499
360.001	265.578	79.985	19.993	100.113	19.814	10.335	0.518
361.500	266.343	79.984	19.992	100.108	19.816	10.225	0.527
363.000	267.068	79.984	19.992	100.106	19.815	10.300	0.477
364.500	267.838	79.985	19.993	100.108	19.815	10.313	0.488
366.000	268.572	79.984	19.992	100.109	19.810	10.653	0.481
367.500	269.291	79.984	19.992	100.108	19.806	10.904	0.502
369.000	270.097	79.984	19.992	100.110	19.804	11.093	0.527
370.500	270.830	79.985	19.992	100.108	19.796	11.618	0.485
372.000	271.617	79.985	19.992	100.116	19.797	11.569	0.538
373.500	272.297	79.985	19.992	100.113	19.796	11.643	0.474
375.000	273.078	79.984	19.991	100.111	19.792	11.892	0.511
376.500	273.831	79.983	19.992	100.111	19.786	12.324	0.478
378.000	274.597	79.983	19.993	100.113	19.785	12.364	0.503
379.500	275.339	79.983	19.992	100.115	19.779	12.810	0.500
381.000	276.074	79.982	19.992	100.112	19.783	12.565	0.510
382.500	276.853	79.982	19.993	100.110	19.777	12.990	0.505
384.000	277.587	79.982	19.992	100.117	19.776	13.052	0.499
385.500	278.309	79.982	19.993	100.114	19.769	13.479	0.470
387.000	279.095	79.981	19.993	100.108	19.764	13.839	0.519
388.500	279.837	79.982	19.993	100.110	19.759	14.235	0.474
390.000	280.588	79.982	19.994	100.115	19.765	13.792	0.494
391.500	281.295	79.982	19.993	100.113	19.753	14.669	0.499
393.000	282.066	79.982	19.993	100.131	19.753	14.637	0.519
394.500	282.821	79.984	19.993	100.141	19.750	14.875	0.486
396.000	283.565	79.983	19.992	100.127	19.741	15.504	0.510
397.500	284.319	79.982	19.992	100.127	19.736	15.796	0.502
399.000	285.112	79.981	19.992	100.139	19.735	15.922	0.526
400.500	285.839	79.982	19.993	100.134	19.730	16.237	0.484
402.000	286.589	79.983	19.992	100.141	19.719	17.008	0.509
403.500	287.345	79.983	19.991	100.137	19.718	17.068	0.500
405.000	288.063	79.982	19.992	100.131	19.713	17.443	0.460
406.500	288.838	79.981	19.992	100.144	19.707	17.881	0.504
408.000	289.571	79.982	19.992	100.149	19.705	17.957	0.506
409.500	290.345	79.981	19.992	100.149	19.697	18.545	0.517
411.000	291.093	79.982	19.991	100.147	19.693	18.848	0.506
412.500	291.853	79.981	19.991	100.150	19.683	19.552	0.493
414.000	292.634	79.981	19.992	100.152	19.681	19.637	0.522
415.500	293.362	79.983	19.992	100.153	19.675	20.088	0.505
417.000	294.083	79.982	19.992	100.151	19.671	20.377	0.488
418.500	294.858	79.981	19.992	100.149	19.667	20.639	0.520
420.000	295.584	79.983	19.991	100.153	19.659	21.201	0.490
421.500	296.350	79.984	19.992	100.153	19.656	21.433	0.512
423.000	297.122	79.983	19.991	100.156	19.647	22.045	0.521
424.500	297.851	79.984	19.993	100.162	19.642	22.416	0.469
426.000	298.601	79.984	19.993	100.157	19.636	22.797	0.504
427.500	299.356	79.985	19.992	100.155	19.630	23.265	0.506
429.000	300.140	79.985	19.992	100.163	19.623	23.697	0.548
430.500	300.847	79.986	19.992	100.175	19.619	23.989	0.483
432.001	301.639	79.985	19.992	100.179	19.613	24.415	0.546
433.500	302.352	79.984	19.991	100.182	19.602	25.216	0.456
435.000	303.097	79.985	19.991	100.179	19.598	25.465	0.501
436.500	303.845	79.984	19.991	100.180	19.589	26.083	0.496
438.000	304.625	79.983	19.992	100.182	19.578	26.880	0.515
439.500	305.351	79.983	19.991	100.185	19.576	27.017	0.487
441.000	306.131	79.984	19.992	100.186	19.563	27.895	0.517
442.500	306.853	79.985	19.993	100.186	19.558	28.300	0.484
444.000	307.653	79.984	19.992	100.187	19.553	28.641	0.508
445.500	308.385	79.983	19.992	100.186	19.542	29.386	0.500
447.000	309.141	79.983	19.992	100.185	19.534	29.958	0.495
448.500	309.917	79.984	19.992	100.199	19.529	30.307	0.535
450.000	310.635	79.984	19.992	100.200	19.522	30.812	0.491
451.500	311.419	79.984	19.992	100.189	19.514	31.384	0.506
453.000	312.164	79.985	19.992	100.191	19.506	31.940	0.517
454.500	312.920	79.984	19.992	100.205	19.494	32.761	0.495
456.000	313.702	79.985	19.991	100.212	19.485	33.399	0.509
457.500	314.450	79.983	19.992	100.219	19.475	34.099	0.484
459.000	315.228	79.982	19.991	100.216	19.467	34.655	0.507
460.500	315.977	79.982	19.992	100.218	19.461	35.049	0.491
462.000	316.711	79.983	19.991	100.224	19.452	35.677	0.503
463.500	317.486	79.982	19.992	100.223	19.443	36.337	0.524
465.000	318.218	79.983	19.993	100.226	19.436	36.851	0.496
466.500	318.976	79.983	19.992	100.223	19.431	37.165	0.509
468.000	319.741	79.981	19.992	100.224	19.421	37.903	0.498
469.500	320.475	79.981	19.991	100.229	19.411	38.549	0.505
471.000	321.209	79.981	19.992	100.230	19.407	38.852	0.487
472.500	321.991	79.981	19.993	100.229	19.399	39.413	0.511
474.000	322.722	79.980	19.993	100.241	19.387	40.281	0.480
475.500	323.473	79.981	19.991	100.248	19.377	40.935	0.497
477.001	324.236	79.982	19.993	100.243	19.371	41.399	0.517
478.500	325.014	79.981	19.993	100.231	19.362	42.027	0.499
480.000	325.747	79.981	19.992	100.229	19.354	42.555	0.493
481.500	326.534	79.982	19.992	100.236	19.345	43.213	0.540
483.000	327.246	79.982	19.991	100.245	19.338	43.679	0.468
484.500	328.021	79.982	19.992	100.240	19.331	44.210	0.517
486.000	328.742	79.982	19.991	100.254	19.324	44.662	0.495
487.500	329.480	79.984	19.992	100.256	19.314	45.345	0.494
489.000	330.296	79.983	19.992	100.256	19.308	45.799	0.525
490.500	331.008	79.982	19.992	100.255	19.303	46.155	0.495
492.000	331.779	79.982	19.992	100.248	19.298	46.496	0.514
493.500	332.555	79.982	19.992	100.260	19.283	47.576	0.524
495.000	333.320	79.982	19.992	100.263	19.278	47.906	0.507
496.500	334.046	79.982	19.992	100.263	19.271	48.413	0.484
498.000	334.834	79.981	19.992	100.262	19.260	49.159	0.512
499.500	335.593	79.983	19.993	100.264	19.259	49.251	0.480
501.000	336.364	79.982	19.992	100.266	19.258	49.309	0.518
502.500	337.115	79.983	19.991	100.265	19.249	49.909	0.489
504.000	337.878	79.981	19.991	100.263	19.246	50.133	0.511
505.500	338.598	79.983	19.991	100.263	19.234	51.010	0.494
507.000	339.360	79.986	19.992	100.262	19.225	51.586	0.500
508.500	340.110	79.985	19.993	100.264	19.217	52.149	0.492
510.000	340.859	79.984	19.991	100.268	19.215	52.294	0.501
511.500	341.570	79.982	19.991	100.274	19.202	53.237	0.488
513.000	342.364	79.982	19.991	100.217	19.201	53.268	0.531
514.500	343.133	79.984	19.992	100.231	19.195	53.726	0.492
516.000	343.868	79.983	19.992	100.340	19.187	54.289	0.486
517.500	344.613	79.984	19.991	100.292	19.184	54.524	0.489
519.000	345.328	79.984	19.993	100.271	19.177	54.980	0.468
520.500	346.130	79.982	19.992	100.280	19.173	55.230	0.537
522.000	346.812	79.984	19.991	100.291	19.167	55.692	0.465
523.500	347.586	79.983	19.992	100.298	19.158	56.307	0.502
525.000	348.361	79.982	19.991	100.294	19.152	56.714	0.505
526.500	349.127	79.983	19.991	100.298	19.145	57.248	0.501
528.000	349.868	79.985	19.991	100.299	19.142	57.413	0.505
529.500	350.615	79.985	19.992	100.301	19.130	58.293	0.520
531.000	351.354	79.985	19.992	100.301	19.124	58.733	0.490
532.500	352.121	79.984	19.991	100.301	19.116	59.251	0.499
534.000	352.888	79.984	19.992	100.304	19.110	59.706	0.510
535.500	353.616	79.984	19.992	100.305	19.101	60.362	0.495
537.000	354.399	79.984	19.991	100.311	19.092	60.952	0.509
538.500	355.184	79.984	19.992	100.309	19.083	61.555	0.522
540.000	355.897	79.983	19.992	100.312	19.075	62.191	0.470
541.500	356.652	79.981	19.992	100.317	19.062	63.095	0.521
543.000	357.471	79.982	19.993	100.332	19.052	63.804	0.541
544.500	358.214	79.982	19.992	100.339	19.044	64.336	0.503
546.000	358.955	79.983	19.992	100.335	19.029	65.351	0.498
547.500	359.699	79.982	19.991	100.299	19.018	66.137	0.495
549.000	360.470	79.981	19.992	100.258	19.011	66.676	0.515
550.500	361.222	79.982	19.993	100.329	19.004	67.175	0.513
552.000	361.970	79.982	19.992	100.420	18.987	68.335	0.484
553.500	362.709	79.980	19.991	100.392	18.976	69.070	0.484
555.000	363.464	79.983	19.993	100.359	18.963	70.014	0.480
556.500	364.227	79.983	19.994	100.349	18.951	70.879	0.479
558.000	365.023	79.982	19.992	100.353	18.945	71.267	0.530
559.500	365.722	79.982	19.993	100.363	18.929	72.418	0.473
561.000	366.463	79.983	19.993	100.371	18.914	73.423	0.498
562.500	367.228	79.983	19.992	100.370	18.903	74.227	0.514
564.000	367.973	79.981	19.993	100.368	18.892	75.018	0.493
565.500	368.748	79.981	19.993	100.378	18.881	75.767	0.510
567.000	369.521	79.983	19.993	100.380	18.874	76.279	0.496
568.500	370.285	79.982	19.993	100.381	18.867	76.738	0.502
570.000	371.040	79.982	19.991	100.379	18.848	78.063	0.502
571.500	371.792	79.983	19.994	100.377	18.839	78.685	0.482
573.000	372.578	79.982	19.993	100.379	18.831	79.252	0.553
574.500	373.297	79.983	19.992	100.382	18.825	79.693	0.468
576.000	374.082	79.982	19.993	100.384	18.817	80.214	0.505
577.500	374.843	79.982	19.991	100.381	18.816	80.263	0.505
579.000	375.565	79.983	19.992	100.380	18.812	80.581	0.491
580.500	376.332	79.984	19.993	100.379	18.810	80.676	0.515
582.000	377.131	79.982	19.991	100.382	18.813	80.463	0.527
583.500	377.860	79.983	19.991	100.368	18.812	80.519	0.507
585.000	378.591	79.985	19.992	100.359	18.815	80.315	0.500
586.500	379.375	79.983	19.992	100.354	18.825	79.576	0.496
588.000	380.097	79.984	19.992	100.341	18.838	78.679	0.500
589.500	380.891	79.985	19.991	100.337	18.844	78.233	0.515
591.000	381.629	79.984	19.992	100.321	18.862	76.936	0.485
592.500	382.390	79.984	19.991	100.306	18.876	76.009	0.508
594.000	383.164	79.982	19.992	100.295	18.895	74.647	0.521
595.500	383.956	79.982	19.991	100.287	18.917	73.059	0.514
597.000	384.683	79.983	19.991	100.276	18.940	71.500	0.495
598.500	385.443	79.982	19.992	100.257	18.968	69.488	0.513
600.000	386.189	79.982	19.991	100.234	18.998	67.400	0.485
601.500	386.977	79.984	19.992	100.217	19.029	65.228	0.517
603.000	387.729	79.984	19.992	100.199	19.063	62.845	0.499
604.500	388.534	79.983	19.991	100.190	19.099	60.283	0.538
606.000	389.233	79.983	19.992	100.176	19.139	57.534	0.449
607.500	390.013	79.986	19.992	100.151	19.176	54.959	0.520
609.000	390.787	79.986	19.991	100.140	19.217	52.071	0.520
610.500	391.570	79.986	19.991	100.128	19.254	49.442	0.512
612.000	392.321	79.986	19.991	100.115	19.294	46.705	0.502
613.500	393.088	79.985	19.991	100.105	19.337	43.695	0.501
615.000	393.878	79.985	19.990	100.094	19.372	41.229	0.523
616.500	394.662	79.985	19.991	100.082	19.414	38.324	0.505
618.000	395.393	79.985	19.992	100.068	19.449	35.854	0.491
619.500	396.199	79.982	19.992	100.063	19.484	33.426	0.535
621.000	396.977	79.984	19.993	100.058	19.521	30.823	0.505
622.501	397.690	79.982	19.993	100.062	19.554	28.494	0.483
624.000	398.513	79.982	19.993	100.061	19.584	26.415	0.544
625.500	399.273	79.983	19.993	100.055	19.615	24.248	0.520
627.000	400.055	79.982	19.992	100.050	19.638	22.643	0.528
628.500	400.746	79.982	19.993	100.040	19.667	20.603	0.443
630.000	401.538	79.983	19.994	100.043	19.686	19.274	0.543
631.500	402.308	79.982	19.992	100.044	19.706	17.927	0.500
633.000	403.087	79.983	19.992	100.040	19.725	16.566	0.509
634.500	403.848	79.982	19.991	100.039	19.738	15.654	0.529
636.000	404.591	79.984	19.993	100.037	19.753	14.599	0.492
637.500	405.419	79.983	19.992	100.039	19.765	13.797	0.533
639.000	406.138	79.983	19.993	100.043	19.772	13.313	0.487
640.500	406.908	79.985	19.993	100.036	19.781	12.654	0.511
642.000	407.650	79.983	19.992	100.043	19.789	12.098	0.484
643.500	408.433	79.983	19.991	100.055	19.795	11.682	0.543
645.000	409.202	79.981	19.992	100.046	19.804	11.065	0.478
646.500	409.938	79.982	19.993	100.036	19.809	10.708	0.484
648.000	410.705	79.981	19.992	100.046	19.815	10.259	0.556
649.500	411.477	79.980	19.994	100.054	19.818	10.084	0.503
651.000	412.253	79.981	19.992	100.048	19.819	10.036	0.499
652.500	413.010	79.981	19.993	100.033	19.820	9.908	0.520
654.000	413.746	79.981	19.992	100.046	19.828	9.404	0.439
655.500	414.416	79.982	19.994	100.043	19.827	9.438	0.450
657.000	415.190	79.983	19.995	100.036	19.825	9.586	0.605
658.500	416.179	79.982	19.993	100.048	19.831	9.197	0.556
660.000	416.939	79.982	19.992	100.042	19.834	8.995	0.660
661.500	417.592	79.983	19.991	100.032	19.832	9.134	0.202
663.000	418.266	79.983	19.992	100.038	19.831	9.164	0.402
664.500	418.989	79.984	19.991	100.039	19.834	8.942	0.404
666.000	419.766	79.985	19.992	100.038	19.835	8.867	0.563
667.500	420.470	79.984	19.992	100.039	19.836	8.805	0.570
669.000	421.263	79.983	19.991	100.036	19.840	8.511	0.477
670.500	422.009	79.986	19.992	100.034	19.838	8.681	0.513
672.000	422.803	79.984	19.991	100.031	19.841	8.457	0.506
673.500	423.542	79.983	19.992	100.030	19.841	8.462	0.489
675.000	424.317	79.984	19.993	100.030	19.839	8.590	0.516
676.500	425.000	79.984	19.992	100.029	19.843	8.331	0.497
678.000	425.776	79.983	19.992	100.030	19.849	7.911	0.504
679.500	426.541	79.984	19.992	100.028	19.845	8.216	0.500
681.000	427.269	79.983	19.993	100.028	19.845	8.204	0.465
682.500	428.041	79.983	19.992	100.029	19.851	7.770	0.521
684.000	428.860	79.983	19.993	100.029	19.849	7.917	0.535
685.501	429.599	79.983	19.991	100.029	19.849	7.883	0.470
687.000	430.327	79.985	19.993	100.028	19.850	7.857	0.512
688.500	431.124	79.985	19.992	100.027	19.853	7.646	0.488
690.000	431.850	79.986	19.992	100.028	19.854	7.600	0.488
691.500	432.683	79.987	19.992	100.028	19.853	7.666	0.547
693.000	433.454	79.986	19.989	100.028	19.859	7.211	0.486
694.500	434.225	79.986	19.991	100.030	19.857	7.335	0.521
696.000	434.997	79.985	19.991	100.028	19.855	7.495	0.498
697.500	435.740	79.985	19.992	100.027	19.857	7.356	0.483
699.000	436.512	79.985	19.992	100.029	19.860	7.129	0.506
700.500	437.249	79.984	19.992	100.028	19.858	7.313	0.477
702.000	438.034	79.984	19.992	100.020	19.853	7.610	0.534
703.500	438.784	79.983	19.992	100.025	19.858	7.294	0.525
705.000	439.574	79.983	19.992	100.027	19.857	7.343	0.535
706.500	440.312	79.983	19.992	100.025	19.864	6.837	0.489
708.000	441.055	79.983	19.992	100.028	19.864	6.856	0.513
709.500	441.829	79.983	19.992	100.030	19.863	6.933	0.510
711.000	442.589	79.983	19.993	100.031	19.862	7.014	0.489
712.500	443.356	79.984	19.993	100.030	19.865	6.786	0.524
714.000	444.094	79.982	19.993	100.031	19.867	6.654	0.480
715.500	444.837	79.982	19.992	100.034	19.865	6.829	0.487
717.000	445.549	79.983	19.992	100.034	19.865	6.808	0.478
718.500	446.344	79.982	19.993	100.031	19.870	6.419	0.523
720.000	447.112	79.984	19.993	100.027	19.871	6.408	0.499
721.500	447.891	79.982	19.992	100.028	19.872	6.312	0.509
723.000	448.606	79.982	19.992	100.031	19.872	6.344	0.494
724.500	449.390	79.982	19.991	100.031	19.872	6.284	0.513
726.000	450.198	79.983	19.991	100.029	19.870	6.477	0.539
727.500	450.956	79.983	19.993	100.019	19.875	6.090	0.510
729.000	451.609	79.983	19.992	100.023	19.875	6.070	0.456
730.500	452.435	79.981	19.992	100.028	19.876	6.012	0.515
732.000	453.158	79.982	19.992	100.025	19.876	5.995	0.462
733.500	453.958	79.982	19.992	100.030	19.878	5.885	0.541
735.000	454.717	79.983	19.993	100.026	19.877	5.965	0.513
736.500	455.482	79.982	19.991	100.024	19.886	5.359	0.497
738.000	456.221	79.982	19.994	100.026	19.881	5.687	0.516
739.500	457.039	79.983	19.993	100.022	19.880	5.761	0.529
741.000	457.766	79.983	19.993	100.010	19.887	5.232	0.520
742.500	458.566	79.983	19.993	100.013	19.887	5.277	0.536
744.000	459.322	79.984	19.994	100.022	19.888	5.185	0.519
745.500	460.101	79.984	19.994	100.022	19.888	5.202	0.517
747.000	460.856	79.984	19.993	100.015	19.891	4.955	0.517
748.500	461.642	79.985	19.993	100.021	19.890	5.068	0.519
750.000	462.439	79.986	19.993	100.026	19.890	5.085	0.518
751.500	463.208	79.987	19.991	100.022	19.894	4.776	0.511
753.000	463.928	79.985	19.992	100.017	19.892	4.886	0.498
754.500	464.700	79.985	19.992	100.017	19.897	4.530	0.530
756.000	465.435	79.985	19.991	100.025	19.896	4.632	0.517
757.500	466.263	79.986	19.992	100.026	19.895	4.675	0.562
759.000	467.043	79.985	19.993	100.024	19.898	4.464	0.493
760.500	467.780	79.984	19.990	100.020	19.902	4.242	0.489
762.000	468.520	79.985	19.991	100.020	19.900	4.368	0.493
763.500	469.322	79.985	19.992	100.026	19.900	4.321	0.526
765.000	470.047	79.985	19.991	100.023	19.901	4.274	0.504
766.500	470.837	79.986	19.991	100.022	19.902	4.184	0.510
768.000	471.574	79.986	19.991	100.016	19.901	4.257	0.483
769.500	472.344	79.987	19.993	100.018	19.904	4.080	0.520
771.000	473.131	79.986	19.992	100.021	19.900	4.319	0.507
772.500	473.908	79.986	19.992	100.023	19.903	4.139	0.519
774.000	474.657	79.987	19.991	100.021	19.906	3.926	0.508
775.500	475.424	79.987	19.991	100.024	19.902	4.204	0.492
777.000	476.154	79.986	19.992	100.018	19.907	3.856	0.486
778.500	476.957	79.984	19.992	100.021	19.906	3.922	0.516
780.000	477.693	79.985	19.992	100.025	19.907	3.900	0.492
781.501	478.485	79.985	19.992	100.022	19.912	3.544	0.511
783.000	479.266	79.983	19.991	100.026	19.910	3.655	0.526
784.500	480.004	79.983	19.992	100.029	19.907	3.890	0.485
786.000	480.797	79.983	19.992	100.025	19.909	3.734	0.528
787.500	481.550	79.983	19.992	100.013	19.911	3.578	0.505
789.000	482.344	79.983	19.990	100.022	19.916	3.232	0.525
790.500	483.084	79.983	19.991	100.027	19.909	3.710	0.518
792.000	483.839	79.983	19.991	100.024	19.913	3.424	0.495
793.500	484.642	79.983	19.992	100.025	19.912	3.550	0.510
795.000	485.402	79.984	19.991	100.024	19.914	3.392	0.520
796.500	486.195	79.983	19.993	100.023	19.913	3.478	0.530
798.000	486.945	79.983	19.992	100.024	19.911	3.557	0.494
799.500	487.724	79.984	19.992	100.025	19.913	3.446	0.515
801.000	488.477	79.984	19.991	100.025	19.913	3.461	0.500
802.500	489.251	79.983	19.992	100.025	19.915	3.319	0.535
804.000	489.977	79.983	19.993	100.021	19.914	3.381	0.505
805.500	490.752	79.983	19.993	100.019	19.914	3.368	0.513
807.000	491.543	79.982	19.991	100.020	19.912	3.548	0.510
808.500	492.281	79.983	19.992	100.020	19.917	3.185	0.479
810.000	493.084	79.983	19.992	100.012	19.917	3.164	0.533
811.500	493.818	79.982	19.992	100.008	19.920	2.963	0.479
813.000	494.646	79.982	19.993	100.020	19.921	2.869	0.549
814.500	495.406	79.984	19.992	100.028	19.914	3.358	0.518
816.000	496.147	79.983	19.992	100.024	19.917	3.166	0.486
817.500	496.917	79.984	19.992	100.023	19.918	3.130	0.516
819.000	497.728	79.983	19.993	100.025	19.921	2.904	0.528
820.500	498.467	79.984	19.993	100.024	19.919	2.995	0.499
822.000	499.268	79.984	19.993	100.020	19.924	2.694	0.528
823.500	500.020	79.984	19.993	100.022	19.916	3.258	0.512
825.000	500.825	79.984	19.992	100.022	19.923	2.741	0.536
826.500	501.539	79.985	19.992	100.022	19.920	2.946	0.487
828.000	502.287	79.985	19.993	100.019	19.923	2.761	0.501
829.500	503.039	79.985	19.993	100.013	19.921	2.867	0.506
831.000	503.806	79.985	19.993	100.020	19.919	3.023	0.507
832.500	504.615	79.984	19.993	99.987	19.926	2.511	0.533
834.000	505.328	79.983	19.993	99.952	19.921	2.921	0.490
835.500	506.180	79.984	19.992	100.065	19.922	2.810	0.547
837.000	506.909	79.983	19.992	100.072	19.925	2.622	0.474
838.500	507.696	79.983	19.992	100.006	19.924	2.713	0.542
840.000	508.459	79.984	19.993	100.019	19.923	2.777	0.521
841.500	509.206	79.983	19.991	100.023	19.925	2.632	0.511
843.000	509.977	79.984	19.992	100.014	19.925	2.605	0.524
844.500	510.725	79.984	19.992	100.015	19.922	2.852	0.507
846.000	511.497	79.985	19.992	100.016	19.923	2.726	0.499
847.500	512.265	79.985	19.991	100.017	19.925	2.602	0.501
849.000	512.992	79.984	19.991	100.023	19.925	2.592	0.496
850.500	513.781	79.985	19.991	100.027	19.925	2.630	0.550
852.000	514.562	79.984	19.991	100.017	19.925	2.607	0.499
853.500	515.329	79.984	19.992	100.010	19.923	2.739	0.490
855.000	516.112	79.984	19.991	100.016	19.928	2.378	0.502
856.500	516.874	79.984	19.992	100.015	19.926	2.564	0.517
858.000	517.665	79.984	19.991	100.016	19.926	2.526	0.529
859.500	518.396	79.983	19.992	100.016	19.928	2.427	0.474
861.000	519.186	79.982	19.992	100.020	19.925	2.592	0.510
862.500	519.951	79.982	19.991	100.010	19.930	2.252	0.533
864.000	520.726	79.983	19.993	100.009	19.934	1.953	0.507
865.500	521.494	79.981	19.991	100.006	19.928	2.413	0.515
867.000	522.256	79.984	19.993	100.016	19.927	2.485	0.490
868.501	523.057	79.985	19.991	100.018	19.927	2.477	0.541
870.000	523.784	79.983	19.992	100.016	19.928	2.376	0.489
871.500	524.578	79.983	19.992	100.015	19.924	2.647	0.516
873.000	525.296	79.982	19.991	100.019	19.928	2.387	0.480
874.500	526.042	79.982	19.991	100.018	19.934	2.007	0.496
876.000	526.856	79.984	19.991	100.007	19.930	2.235	0.537
877.500	527.650	79.982	19.992	100.003	19.926	2.522	0.536
879.000	528.393	79.983	19.991	100.012	19.934	1.985	0.482
880.500	529.189	79.983	19.991	100.007	19.933	2.069	0.518
882.000	529.935	79.982	19.991	100.008	19.929	2.323	0.509
883.500	530.650	79.984	19.992	100.016	19.934	1.949	0.494
885.000	531.464	79.982	19.991	100.020	19.928	2.426	0.522
886.500	532.217	79.983	19.993	100.023	19.934	1.986	0.500
888.000	532.957	79.983	19.993	100.005	19.933	2.030	0.497
889.500	533.766	79.983	19.992	100.014	19.927	2.498	0.540
891.000	534.557	79.983	19.993	100.017	19.934	2.009	0.509
892.500	535.320	79.982	19.993	100.016	19.929	2.332	0.511
894.000	536.093	79.982	19.991	100.017	19.932	2.120	0.511
895.500	536.868	79.982	19.993	100.012	19.930	2.228	0.529
897.000	537.589	79.983	19.992	100.010	19.930	2.229	0.483
898.500	538.441	79.982	19.992	100.023	19.934	1.994	0.563
900.000	539.146	79.983	19.993	100.027	19.928	2.421	0.488
901.500	539.934	79.984	19.992	100.017	19.932	2.124	0.503
903.000	540.702	79.984	19.992	100.007	19.929	2.323	0.529
904.500	541.479	79.984	19.992	100.020	19.930	2.250	0.515
906.000	542.269	79.984	19.991	100.026	19.927	2.491	0.525
907.500	542.992	79.985	19.994	100.028	19.929	2.295	0.475
909.000	543.767	79.984	19.993	100.020	19.926	2.568	0.501
910.500	544.511	79.984	19.992	100.020	19.925	2.600	0.532
912.000	545.278	79.985	19.992	100.024	19.932	2.103	0.519
913.500	546.041	79.983	19.993	100.023	19.927	2.498	0.508
915.000	546.813	79.982	19.993	100.018	19.926	2.545	0.549
916.500	547.560	79.982	19.993	100.021	19.935	1.926	0.496
918.000	548.369	79.982	19.993	100.022	19.932	2.117	0.529
919.500	549.121	79.982	19.993	100.022	19.927	2.493	0.511
921.000	549.858	79.982	19.992	100.025	19.926	2.535	0.495
922.500	550.669	79.982	19.991	100.025	19.927	2.485	0.530
924.000	551.404	79.984	19.992	100.025	19.925	2.586	0.500
925.500	552.147	79.986	19.993	100.025	19.928	2.421	0.511
927.000	552.938	79.984	19.992	100.019	19.922	2.848	0.519
928.500	553.715	79.986	19.992	99.995	19.923	2.740	0.531
930.000	554.487	79.985	19.992	99.941	19.925	2.619	0.504
931.500	555.260	79.987	19.993	100.007	19.930	2.274	0.527
933.000	556.051	79.985	19.991	100.086	19.922	2.842	0.515
934.500	556.807	79.986	19.991	100.029	19.928	2.396	0.510
936.000	557.564	79.986	19.992	100.005	19.928	2.406	0.520
937.500	558.356	79.985	19.992	100.001	19.927	2.494	0.516
939.000	559.131	79.985	19.992	100.002	19.928	2.389	0.519
940.500	559.814	79.984	19.992	100.011	19.925	2.643	0.464
942.000	560.590	79.983	19.992	100.023	19.927	2.434	0.521
943.500	561.401	79.985	19.992	100.009	19.922	2.784	0.533
945.000	562.219	79.983	19.991	100.009	19.923	2.773	0.532
946.500	563.003	79.986	19.993	100.013	19.934	1.998	0.535
948.000	563.747	79.983	19.993	100.005	19.933	2.030	0.499
949.500	564.480	79.984	19.992	100.010	19.932	2.122	0.498
951.000	565.277	79.983	19.991	100.025	19.935	1.913	0.528
952.500	566.092	79.983	19.993	100.016	19.933	2.041	0.523
954.000	566.821	79.984	19.992	100.019	19.928	2.416	0.497
955.500	567.579	79.985	19.991	100.016	19.927	2.496	0.515
957.000	568.354	79.984	19.992	100.016	19.930	2.240	0.514
958.500	569.165	79.983	19.992	100.023	19.930	2.231	0.534
960.000	569.969	79.985	19.992	100.024	19.934	1.979	0.526
961.500	570.745	79.981	19.992	100.021	19.926	2.519	0.544
963.000	571.521	79.984	19.990	100.019	19.928	2.404	0.526
964.500	572.252	79.983	19.991	100.020	19.926	2.511	0.496
966.000	573.082	79.985	19.993	100.020	19.928	2.415	0.538
967.500	573.855	79.985	19.992	100.012	19.929	2.296	0.519
969.000	574.658	79.984	19.993	100.007	19.927	2.436	0.519
970.500	575.429	79.982	19.992	100.009	19.933	2.039	0.507
972.000	576.217	79.983	19.992	100.015	19.929	2.295	0.508
973.500	576.967	79.983	19.991	100.008	19.933	2.048	0.501
975.000	577.706	79.981	19.992	100.006	19.929	2.323	0.505
976.500	578.499	79.984	19.993	99.997	19.930	2.280	0.543
978.000	579.244	79.984	19.993	99.998	19.931	2.224	0.497
979.500	580.019	79.982	19.990	100.001	19.929	2.355	0.513
981.000	580.785	79.984	19.992	100.009	19.928	2.428	0.511
982.500	581.588	79.983	19.992	100.015	19.929	2.363	0.522
984.000	582.319	79.986	19.993	100.005	19.929	2.306	0.498
985.500	583.109	79.986	19.992	100.000	19.930	2.270	0.529
987.000	583.913	79.985	19.991	100.019	19.930	2.244	0.539
988.500	584.667	79.986	19.992	100.028	19.933	2.064	0.519
990.000	585.417	79.984	19.992	100.013	19.925	2.611	0.502
991.500	586.198	79.984	19.992	99.996	19.923	2.731	0.534
993.000	586.938	79.985	19.993	100.012	19.929	2.310	0.491
994.500	587.707	79.984	19.992	100.016	19.926	2.513	0.510
996.000	588.492	79.985	19.992	100.015	19.932	2.135	0.503
997.500	589.282	79.984	19.992	100.003	19.929	2.327	0.519
999.000	590.019	79.983	19.992	100.014	19.929	2.297	0.517
1000.500	590.789	79.982	19.992	100.021	19.928	2.415	0.522
1002.000	591.593	79.984	19.994	100.017	19.927	2.496	0.524
1003.500	592.347	79.981	19.993	100.008	19.928	2.395	0.515
1005.000	593.125	79.984	19.994	100.002	19.929	2.304	0.530
1006.500	593.876	79.983	19.993	100.010	19.929	2.312	0.496
1008.000	594.658	79.985	19.992	100.004	19.934	2.013	0.543
1009.500	595.449	79.986	19.992	100.000	19.932	2.142	0.506
1011.000	596.226	79.985	19.992	100.005	19.933	2.020	0.536
1012.501	596.965	79.986	19.993	100.012	19.934	1.986	0.488
1014.000	597.749	79.984	19.992	100.017	19.932	2.092	0.521
1015.500	598.504	79.986	19.992	100.019	19.935	1.919	0.508
1017.000	599.312	79.987	19.992	100.012	19.931	2.197	0.545
1018.500	600.041	79.986	19.993	100.004	19.932	2.100	0.516
1020.000	600.849	79.983	19.991	100.008	19.930	2.256	0.539
1021.500	601.611	79.981	19.990	100.014	19.933	2.033	0.502
1023.000	602.389	79.984	19.992	100.016	19.932	2.099	0.502
1024.500	603.143	79.982	19.991	100.014	19.932	2.147	0.512
1026.000	603.887	79.983	19.991	100.010	19.930	2.248	0.487
1027.500	604.729	79.983	19.993	100.009	19.934	1.970	0.537
1029.000	605.462	79.983	19.992	100.022	19.928	2.427	0.490
1030.500	606.196	79.982	19.992	100.018	19.929	2.327	0.508
1032.000	606.987	79.983	19.991	100.010	19.935	1.889	0.524
1033.500	607.767	79.984	19.992	100.014	19.929	2.308	0.511
1035.000	608.549	79.984	19.992	100.022	19.931	2.188	0.531
1036.500	609.305	79.985	19.992	100.026	19.931	2.161	0.496
1038.000	610.089	79.985	19.993	100.026	19.933	2.022	0.512
1039.500	610.833	79.982	19.991	100.015	19.935	1.938	0.499
1041.000	611.618	79.984	19.992	100.015	19.932	2.099	0.517
1042.500	612.366	79.982	19.991	100.020	19.931	2.182	0.511
1044.000	613.116	79.983	19.992	100.019	19.927	2.466	0.501
1045.500	613.922	79.984	19.991	100.015	19.928	2.427	0.510
1047.000	614.706	79.982	19.990	100.016	19.927	2.440	0.548
1048.500	615.490	79.984	19.990	100.016	19.931	2.220	0.498
1050.000	616.257	79.983	19.991	100.017	19.929	2.327	0.505
1051.500	617.049	79.984	19.990	100.023	19.924	2.693	0.524
1053.000	617.809	79.984	19.992	100.014	19.930	2.244	0.485
1054.500	618.581	79.982	19.990	100.012	19.930	2.236	0.511
1056.001	619.346	79.983	19.993	100.018	19.924	2.652	0.500
1057.500	620.120	79.984	19.992	100.008	19.926	2.519	0.520
1059.000	620.838	79.983	19.993	100.019	19.927	2.464	0.491
1060.501	621.619	79.983	19.991	100.018	19.931	2.221	0.513
1062.001	622.382	79.983	19.992	100.004	19.926	2.521	0.521
1063.500	623.180	79.983	19.993	100.004	19.929	2.302	0.515
1065.000	623.917	79.983	19.992	99.998	19.930	2.265	0.507
1066.501	624.685	79.984	19.992	100.005	19.925	2.633	0.532
1068.001	625.426	79.984	19.992	100.010	19.930	2.287	0.477
1069.500	626.196	79.986	19.992	100.005	19.925	2.639	0.493
1071.000	626.964	79.984	19.992	100.006	19.925	2.605	0.526
1072.500	627.713	79.986	19.991	100.006	19.928	2.378	0.475
1074.000	628.481	79.984	19.992	100.009	19.928	2.394	0.513
1075.500	629.194	79.983	19.992	100.007	19.928	2.378	0.474
1077.000	630.022	79.985	19.993	99.998	19.927	2.457	0.528
1078.501	630.775	79.983	19.992	100.000	19.927	2.455	0.493
1080.000	631.536	79.984	19.992	99.999	19.934	2.002	0.496
1081.500	632.273	79.983	19.992	100.001	19.933	2.037	0.516
1083.000	633.052	79.984	19.993	100.014	19.931	2.214	0.505
1084.501	633.802	79.986	19.993	100.010	19.930	2.246	0.506
1086.000	634.565	79.984	19.993	100.004	19.933	2.065	0.521
1087.500	635.387	79.983	19.992	100.012	19.927	2.466	0.537
1089.000	636.145	79.984	19.993	100.020	19.935	1.921	0.492
1090.501	636.893	79.985	19.992	100.023	19.930	2.261	0.504
1092.000	637.663	79.984	19.992	100.012	19.931	2.156	0.522
1093.501	638.397	79.983	19.992	100.004	19.928	2.378	0.488
1095.000	639.170	79.984	19.992	100.008	19.927	2.474	0.532
1096.500	639.874	79.984	19.992	100.016	19.931	2.190	0.458
1098.000	640.698	79.984	19.993	100.015	19.926	2.509	0.526
1099.500	641.440	79.983	19.992	100.013	19.930	2.286	0.508
1101.001	642.220	79.982	19.993	100.019	19.928	2.383	0.524
1102.501	642.973	79.981	19.992	100.025	19.928	2.417	0.496
1104.001	643.713	79.983	19.993	100.027	19.929	2.312	0.499
1105.500	644.458	79.983	19.992	100.024	19.927	2.494	0.497
1107.000	645.249	79.983	19.991	100.017	19.929	2.316	0.525
1108.500	645.976	79.983	19.992	100.010	19.930	2.257	0.469
1110.000	646.758	79.982	19.992	100.012	19.931	2.174	0.526
1111.501	647.493	79.983	19.992	100.015	19.928	2.406	0.502
1113.000	648.219	79.982	19.992	100.022	19.932	2.105	0.465
1114.500	649.006	79.984	19.993	100.025	19.930	2.281	0.501
1116.000	649.779	79.984	19.993	100.023	19.931	2.193	0.504
1117.500	650.544	79.984	19.991	100.013	19.928	2.376	0.505
1119.000	651.274	79.983	19.993	100.004	19.927	2.445	0.507
1120.501	652.085	79.982	19.993	100.007	19.926	2.554	0.548
1122.000	652.861	79.983	19.991	100.018	19.923	2.754	0.510
1123.500	653.657	79.984	19.992	100.006	19.925	2.581	0.524
1125.000	654.423	79.982	19.992	99.994	19.927	2.477	0.487
1126.500	655.243	79.985	19.992	100.002	19.927	2.504	0.540
1128.000	655.949	79.983	19.992	100.008	19.927	2.474	0.486
1129.500	656.700	79.985	19.991	100.008	19.925	2.629	0.493
1131.001	657.470	79.983	19.992	99.999	19.924	2.691	0.513
1132.501	658.209	79.984	19.993	100.004	19.929	2.329	0.502
1134.000	659.004	79.981	19.991	100.010	19.922	2.840	0.522
1135.500	659.745	79.983	19.992	100.014	19.927	2.481	0.498
1137.001	660.526	79.984	19.992	100.013	19.925	2.590	0.515
1138.500	661.281	79.984	19.992	100.015	19.926	2.573	0.513
1140.001	661.978	79.983	19.992	100.007	19.929	2.334	0.456
1141.500	662.817	79.985	19.992	99.998	19.926	2.511	0.536
1143.000	663.422	79.984	19.991	100.002	19.931	2.159	0.374
1144.500	664.364	79.983	19.992	100.011	19.925	2.575	0.682
1146.000	665.052	79.984	19.993	100.010	19.929	2.304	0.485
1147.500	665.792	79.985	19.992	100.010	19.927	2.441	0.527
1149.000	666.592	79.984	19.992	100.012	19.924	2.667	0.521
1150.500	667.348	79.987	19.993	100.000	19.927	2.500	0.498
1152.000	668.112	79.983	19.992	100.011	19.925	2.630	0.534
1153.501	668.851	79.982	19.992	100.004	19.927	2.479	0.506
1155.000	669.630	79.984	19.992	99.999	19.926	2.543	0.511
1156.501	670.412	79.984	19.992	100.003	19.927	2.500	0.528
1158.000	671.158	79.982	19.992	100.001	19.930	2.255	0.501
1159.501	671.892	79.983	19.992	100.004	19.924	2.703	0.483
1161.001	672.658	79.983	19.994	100.003	19.927	2.477	0.517
1162.500	673.445	79.983	19.992	100.006	19.926	2.530	0.523
1164.000	674.148	79.985	19.992	100.009	19.925	2.622	0.477
1165.500	674.966	79.984	19.991	100.013	19.932	2.118	0.525
1167.001	675.723	79.983	19.991	100.004	19.926	2.549	0.507
1168.500	676.506	79.983	19.991	100.001	19.925	2.637	0.522
1170.000	677.231	79.983	19.992	99.996	19.930	2.280	0.512
1171.500	678.037	79.984	19.991	100.009	19.931	2.191	0.533
1173.000	678.794	79.987	19.992	100.007	19.934	2.014	0.508
1174.500	679.544	79.985	19.993	100.015	19.927	2.464	0.510
1176.000	680.281	79.984	19.992	100.021	19.932	2.120	0.501
1177.500	681.030	79.984	19.992	100.012	19.927	2.477	0.504
1179.000	681.814	79.984	19.992	100.007	19.928	2.389	0.517
1180.500	682.572	79.983	19.992	100.010	19.926	2.526	0.494
1182.000	683.326	79.983	19.993	100.015	19.929	2.338	0.513
1183.500	684.119	79.982	19.994	100.009	19.933	2.030	0.544
1185.000	684.911	79.982	19.993	100.003	19.934	1.958	0.512
1186.501	685.664	79.983	19.994	99.997	19.934	2.009	0.502
1188.000	686.442	79.983	19.993	100.000	19.930	2.239	0.515
1189.500	687.208	79.982	19.993	100.013	19.931	2.161	0.495
1191.000	687.941	79.982	19.993	99.999	19.928	2.376	0.484
1192.501	688.673	79.983	19.992	99.991	19.932	2.097	0.490
1194.000	689.471	79.982	19.992	100.000	19.927	2.440	0.536
1195.500	690.217	79.982	19.991	100.010	19.924	2.703	0.509
1197.000	691.030	79.983	19.992	100.008	19.929	2.301	0.529
1198.500	691.784	79.984	19.991	100.018	19.930	2.227	0.526
1200.000	692.539	79.982	19.992	100.019	19.927	2.487	0.502
1201.500	693.258	79.984	19.992	100.008	19.928	2.427	0.491
1203.001	694.035	79.981	19.990	100.011	19.928	2.364	0.506
1204.500	694.805	79.983	19.992	100.007	19.929	2.334	0.518
1206.001	695.554	79.983	19.991	99.991	19.927	2.479	0.484
1207.501	696.328	79.983	19.992	100.006	19.927	2.443	0.503
1209.001	697.123	79.984	19.992	100.012	19.924	2.690	0.523
1210.500	697.872	79.981	19.993	100.011	19.929	2.355	0.499
1212.000	698.613	79.984	19.993	100.019	19.929	2.306	0.491
1213.501	699.387	79.982	19.992	100.006	19.930	2.240	0.517
1215.000	700.140	79.982	19.992	100.003	19.927	2.481	0.495
1216.500	700.915	79.982	19.991	100.006	19.928	2.370	0.498
1218.000	701.681	79.981	19.991	100.006	19.924	2.652	0.511
1219.500	702.438	79.980	19.991	100.008	19.927	2.457	0.504
1221.001	703.196	79.983	19.990	100.004	19.924	2.680	0.486
1222.501	703.970	79.985	19.991	100.000	19.925	2.630	0.532
1224.001	704.732	79.985	19.991	100.000	19.921	2.872	0.501
1225.500	705.525	79.983	19.992	99.996	19.925	2.618	0.534
1227.000	706.265	79.983	19.991	100.009	19.922	2.838	0.485
1228.501	706.998	79.983	19.992	100.001	19.923	2.731	0.494
1230.000	707.752	79.984	19.992	100.013	19.930	2.238	0.498
1231.500	708.532	79.984	19.991	100.013	19.924	2.675	0.503
1233.001	709.243	79.983	19.990	100.010	19.928	2.391	0.481
1234.501	709.997	79.982	19.991	100.018	19.924	2.656	0.512
1236.000	710.737	79.984	19.991	100.010	19.922	2.816	0.509
1237.500	711.468	79.982	19.991	100.002	19.926	2.533	0.490
1239.001	712.272	79.984	19.992	100.002	19.925	2.614	0.527
1240.501	712.985	79.984	19.992	100.004	19.924	2.712	0.473
1242.000	713.772	79.983	19.992	99.994	19.926	2.513	0.529
1243.501	714.552	79.983	19.992	100.010	19.926	2.509	0.512
1245.000	715.277	79.983	19.993	100.006	19.926	2.571	0.483
1246.500	716.097	79.984	19.992	100.005	19.926	2.507	0.539
1248.000	716.888	79.986	19.993	99.998	19.918	3.077	0.520
1249.501	717.609	79.986	19.992	100.005	19.925	2.642	0.473
1251.000	718.435	79.985	19.991	99.997	19.927	2.434	0.567
1252.500	719.192	79.985	19.992	100.002	19.922	2.816	0.504
1254.000	719.924	79.988	19.991	100.004	19.923	2.718	0.510
1255.500	720.693	79.985	19.991	100.002	19.922	2.836	0.509
1257.001	721.453	79.988	19.991	100.004	19.923	2.744	0.493
1258.500	722.219	79.986	19.991	100.007	19.922	2.821	0.504
1260.000	722.975	79.984	19.992	99.992	19.922	2.793	0.500
1261.500	723.751	79.983	19.991	100.002	19.925	2.628	0.520
1263.000	724.463	79.984	19.992	100.018	19.925	2.583	0.495
1264.500	725.246	79.983	19.993	100.012	19.930	2.278	0.540
1266.000	726.009	79.982	19.993	100.001	19.925	2.620	0.513
1267.500	726.756	79.982	19.992	100.014	19.926	2.549	0.503
1269.001	727.544	79.983	19.994	100.000	19.922	2.833	0.531
1270.501	728.306	79.983	19.992	100.001	19.926	2.510	0.505
1272.000	729.039	79.983	19.994	100.003	19.923	2.735	0.498
1273.501	729.811	79.981	19.992	100.007	19.929	2.306	0.577
1275.000	730.604	79.982	19.993	100.005	19.928	2.378	0.494
1276.500	731.325	79.979	19.994	100.013	19.925	2.633	0.478
1278.000	732.096	79.982	19.993	100.011	19.924	2.656	0.524
1279.501	732.871	79.982	19.991	100.019	19.930	2.260	0.513
1281.001	733.610	79.983	19.992	100.025	19.930	2.287	0.506
1282.501	734.358	79.984	19.992	100.018	19.928	2.415	0.494
1284.000	735.080	79.984	19.993	100.018	19.925	2.599	0.464
1285.501	735.872	79.983	19.991	100.018	19.925	2.586	0.511
1287.000	736.591	79.982	19.991	100.008	19.926	2.535	0.487
1288.501	737.373	79.984	19.991	99.949	19.925	2.583	0.509
1290.000	738.124	79.983	19.991	100.023	19.925	2.589	0.489
1291.500	738.885	79.984	19.991	100.064	19.930	2.257	0.512
1293.000	739.582	79.982	19.992	100.020	19.929	2.346	0.478
1294.500	740.347	79.983	19.992	100.013	19.927	2.479	0.514
1296.000	741.135	79.983	19.991	100.000	19.928	2.409	0.522
1297.500	741.873	79.983	19.991	100.006	19.925	2.601	0.519
1299.000	742.621	79.981	19.991	100.014	19.928	2.407	0.514
1300.500	743.411	79.982	19.992	100.021	19.926	2.505	0.508
1301.000	743.640	79.982	19.993	100.020	19.923	2.719	0.499