File: 01_Data/Pine_Siding/MCC/Pine_Siding_30K_min_210608_R3.txt
Sample ID:	C:\MCC\MCC Cal\Test\Pine_Siding\Pine_Siding_30_3.txt
Sample Weight (mg):	4.46
Heating Rate (C/s):	0.5
Combustor Temp (C):	900
N2 Flow Rate (cc/min):	80
O2 Flow Rate (cc/min):	20
Calibration File:	C:\MCC\MCC Cal\Coeff1 JN10440_30_210304.txt.txt
T Correction Coefficients:	0	1.024463	0
Time Shift (s):	14
*
Time (s)	Temperature (C)	N2 flow rate (cc/min)	O2 flow rate (cc/min)	Flow Rate (cc/min)	Oxygen (%)	HRR (W/g)	Heating rate (C/s)
0.000	112.473	79.986	19.991	99.952	19.961	-0.168	-0.026
2.000	112.484	79.982	19.990	99.952	19.958	-0.013	0.000
4.000	112.449	79.983	19.991	99.951	19.963	-0.305	0.033
6.000	112.436	79.982	19.992	99.953	19.960	-0.151	0.018
8.000	112.427	79.984	19.991	99.950	19.961	-0.185	-0.015
10.000	112.457	79.984	19.992	99.953	19.960	-0.130	-0.022
12.001	112.430	79.984	19.993	99.954	19.960	-0.104	-0.009
14.001	112.401	79.984	19.993	99.954	19.952	0.430	-0.038
16.000	112.394	79.985	19.992	99.968	19.952	0.441	-0.041
18.000	112.408	79.984	19.992	99.987	19.954	0.315	0.008
20.000	112.419	79.985	19.992	99.988	19.955	0.185	-0.027
22.000	112.438	79.984	19.991	99.992	19.951	0.466	0.002
24.000	112.482	79.985	19.992	100.013	19.953	0.332	0.051
26.000	112.472	79.984	19.993	100.022	19.947	0.753	0.005
28.000	112.538	79.984	19.993	100.025	19.949	0.664	0.041
30.000	112.615	79.983	19.993	100.031	19.941	1.168	0.011
32.001	112.706	79.983	19.992	100.026	19.940	1.289	0.045
34.000	112.811	79.981	19.993	100.049	19.947	0.747	0.050
36.001	112.934	79.983	19.994	100.055	19.937	1.476	0.070
38.001	113.083	79.983	19.994	100.062	19.931	1.929	0.087
40.001	113.255	79.983	19.993	100.082	19.935	1.652	0.095
42.000	113.458	79.983	19.994	100.103	19.934	1.671	0.094
44.001	113.711	79.981	19.992	100.113	19.931	1.899	0.150
46.000	113.970	79.985	19.993	100.119	19.931	1.867	0.160
48.001	114.201	79.985	19.994	100.126	19.931	1.905	0.124
50.000	114.535	79.983	19.991	100.133	19.926	2.260	0.147
52.001	114.814	79.983	19.991	100.144	19.921	2.571	0.147
54.000	115.178	79.981	19.990	100.124	19.924	2.386	0.179
56.001	115.555	79.983	19.992	100.132	19.924	2.418	0.181
58.000	115.892	79.982	19.992	100.146	19.919	2.756	0.182
60.001	116.312	79.983	19.992	100.143	19.924	2.401	0.198
62.000	116.746	79.982	19.991	100.144	19.922	2.528	0.218
64.001	117.180	79.982	19.992	100.147	19.915	2.996	0.219
66.001	117.626	79.983	19.993	100.148	19.920	2.675	0.262
68.001	118.134	79.981	19.990	100.149	19.922	2.566	0.268
70.001	118.645	79.984	19.991	100.146	19.919	2.730	0.270
72.000	119.118	79.982	19.991	100.140	19.921	2.603	0.275
74.000	119.639	79.983	19.992	100.148	19.924	2.407	0.267
76.000	120.169	79.984	19.992	100.149	19.919	2.749	0.259
78.000	120.687	79.984	19.992	100.147	19.924	2.397	0.265
80.000	121.291	79.984	19.992	100.146	19.918	2.837	0.308
82.001	121.809	79.985	19.992	100.137	19.917	2.888	0.293
84.001	122.419	79.985	19.992	100.134	19.921	2.587	0.288
86.000	122.978	79.985	19.991	100.143	19.918	2.800	0.306
88.000	123.568	79.984	19.992	100.142	19.928	2.124	0.306
90.000	124.144	79.985	19.992	100.142	19.915	3.016	0.275
92.000	124.764	79.986	19.992	100.143	19.919	2.715	0.299
94.000	125.406	79.982	19.990	100.149	19.920	2.642	0.308
96.000	126.024	79.985	19.991	100.158	19.914	3.067	0.302
98.000	126.642	79.986	19.991	100.158	19.917	2.867	0.305
100.000	127.324	79.986	19.993	100.168	19.913	3.141	0.330
102.000	128.039	79.985	19.992	100.172	19.917	2.887	0.348
104.000	128.700	79.986	19.993	100.175	19.911	3.305	0.330
106.000	129.433	79.984	19.994	100.178	19.910	3.375	0.360
108.000	130.101	79.984	19.993	100.181	19.907	3.581	0.351
110.000	130.838	79.982	19.993	100.183	19.909	3.469	0.353
112.000	131.550	79.983	19.994	100.183	19.910	3.339	0.354
114.000	132.329	79.984	19.992	100.175	19.906	3.633	0.372
116.000	133.058	79.984	19.993	100.185	19.911	3.318	0.381
118.000	133.831	79.983	19.993	100.185	19.904	3.785	0.374
120.001	134.609	79.982	19.993	100.185	19.912	3.205	0.382
122.000	135.413	79.985	19.992	100.187	19.908	3.480	0.399
124.000	136.197	79.982	19.993	100.186	19.907	3.609	0.408
126.000	137.021	79.982	19.993	100.182	19.907	3.586	0.431
128.000	137.842	79.983	19.994	100.187	19.910	3.363	0.374
130.000	138.684	79.982	19.994	100.187	19.907	3.558	0.373
132.000	139.477	79.981	19.995	100.182	19.904	3.783	0.419
134.000	140.360	79.982	19.994	100.187	19.906	3.628	0.420
136.000	141.208	79.983	19.993	100.188	19.911	3.311	0.415
138.000	142.062	79.981	19.992	100.187	19.912	3.239	0.461
140.000	142.945	79.980	19.992	100.187	19.904	3.798	0.462
142.000	143.832	79.983	19.993	100.186	19.904	3.819	0.416
144.000	144.679	79.985	19.993	100.188	19.909	3.462	0.408
146.000	145.554	79.984	19.991	100.188	19.907	3.567	0.429
148.000	146.497	79.982	19.993	100.178	19.906	3.671	0.467
150.001	147.372	79.985	19.993	100.183	19.906	3.635	0.434
152.000	148.272	79.985	19.992	100.186	19.901	4.003	0.479
154.000	149.258	79.983	19.992	100.185	19.903	3.862	0.508
156.000	150.128	79.985	19.992	100.183	19.900	4.043	0.439
158.000	151.049	79.985	19.993	100.181	19.911	3.320	0.457
160.000	151.966	79.984	19.992	100.179	19.897	4.276	0.440
162.000	152.913	79.985	19.993	100.178	19.908	3.503	0.442
164.000	153.880	79.986	19.993	100.181	19.905	3.690	0.482
166.000	154.810	79.983	19.991	100.183	19.906	3.686	0.506
168.000	155.723	79.985	19.993	100.184	19.903	3.885	0.479
170.000	156.684	79.985	19.993	100.184	19.904	3.826	0.462
172.000	157.657	79.986	19.992	100.184	19.904	3.760	0.492
174.000	158.580	79.984	19.991	100.183	19.905	3.749	0.466
176.000	159.546	79.985	19.991	100.183	19.906	3.626	0.456
178.000	160.541	79.986	19.991	100.181	19.907	3.550	0.487
180.000	161.514	79.984	19.991	100.181	19.903	3.832	0.481
182.000	162.456	79.985	19.992	100.175	19.901	4.030	0.478
184.000	163.455	79.984	19.992	100.178	19.900	4.081	0.473
186.000	164.440	79.985	19.992	100.177	19.908	3.533	0.493
188.000	165.415	79.984	19.992	100.179	19.906	3.666	0.499
190.000	166.399	79.983	19.993	100.182	19.905	3.733	0.474
192.000	167.411	79.983	19.993	100.178	19.903	3.848	0.504
194.000	168.372	79.983	19.992	100.182	19.902	3.912	0.484
196.000	169.353	79.984	19.993	100.174	19.902	3.914	0.463
198.000	170.364	79.982	19.991	100.180	19.901	3.969	0.478
200.000	171.409	79.984	19.992	100.180	19.901	3.981	0.510
202.000	172.392	79.985	19.992	100.167	19.904	3.783	0.535
204.000	173.390	79.984	19.993	100.158	19.900	4.050	0.493
206.000	174.371	79.983	19.992	100.163	19.900	4.048	0.496
208.000	175.387	79.983	19.992	100.167	19.898	4.229	0.497
210.000	176.402	79.984	19.991	100.150	19.896	4.349	0.481
212.000	177.394	79.984	19.993	100.148	19.899	4.127	0.503
214.000	178.408	79.983	19.992	100.150	19.899	4.149	0.503
216.000	179.404	79.983	19.993	100.158	19.896	4.340	0.491
218.000	180.452	79.984	19.993	100.152	19.897	4.280	0.494
220.000	181.433	79.983	19.994	100.149	19.892	4.601	0.480
222.000	182.477	79.982	19.992	100.145	19.895	4.408	0.508
224.000	183.483	79.982	19.994	100.145	19.895	4.414	0.483
226.000	184.474	79.982	19.995	100.147	19.893	4.595	0.513
228.000	185.501	79.983	19.993	100.148	19.892	4.629	0.509
230.000	186.511	79.984	19.993	100.148	19.891	4.725	0.510
232.000	187.560	79.983	19.992	100.146	19.892	4.663	0.550
234.000	188.500	79.985	19.992	100.145	19.898	4.219	0.502
236.000	189.492	79.984	19.991	100.144	19.895	4.421	0.501
238.000	190.518	79.985	19.993	100.145	19.894	4.523	0.506
240.000	191.508	79.985	19.990	100.144	19.892	4.663	0.497
242.000	192.487	79.983	19.992	100.143	19.891	4.708	0.521
244.000	193.500	79.984	19.992	100.144	19.892	4.610	0.553
246.000	194.539	79.984	19.992	100.146	19.888	4.940	0.498
248.000	195.498	79.982	19.992	100.147	19.890	4.753	0.503
250.000	196.503	79.983	19.992	100.145	19.887	5.016	0.517
252.000	197.477	79.984	19.991	100.145	19.889	4.829	0.484
254.000	198.527	79.985	19.992	100.146	19.887	4.974	0.545
256.000	199.520	79.984	19.991	100.139	19.894	4.464	0.525
258.000	200.481	79.985	19.991	100.145	19.887	4.995	0.494
260.000	201.489	79.985	19.990	100.145	19.885	5.137	0.484
262.000	202.498	79.986	19.992	100.147	19.884	5.199	0.506
264.000	203.514	79.986	19.992	100.146	19.886	5.078	0.491
266.000	204.549	79.983	19.990	100.138	19.887	4.997	0.518
268.000	205.544	79.986	19.991	100.145	19.883	5.291	0.497
270.000	206.537	79.983	19.992	100.147	19.887	4.980	0.517
272.000	207.541	79.983	19.992	100.145	19.883	5.240	0.469
274.000	208.544	79.982	19.992	100.142	19.884	5.194	0.478
276.000	209.521	79.982	19.992	100.145	19.885	5.132	0.529
278.000	210.527	79.983	19.993	100.140	19.882	5.302	0.514
280.000	211.515	79.981	19.993	100.135	19.885	5.094	0.500
282.000	212.496	79.984	19.992	100.137	19.883	5.286	0.472
284.000	213.486	79.984	19.993	100.128	19.885	5.111	0.507
286.000	214.465	79.984	19.992	100.131	19.880	5.451	0.482
288.000	215.512	79.984	19.992	100.133	19.884	5.207	0.507
290.000	216.453	79.983	19.993	100.132	19.887	5.016	0.482
292.000	217.447	79.984	19.991	100.125	19.884	5.175	0.462
294.000	218.479	79.984	19.992	100.120	19.882	5.338	0.482
296.000	219.455	79.984	19.992	100.132	19.876	5.743	0.530
298.000	220.452	79.982	19.992	100.127	19.877	5.715	0.487
300.000	221.410	79.982	19.992	100.121	19.876	5.724	0.498
302.000	222.395	79.982	19.993	100.120	19.873	5.944	0.487
304.000	223.411	79.981	19.992	100.124	19.876	5.738	0.480
306.001	224.369	79.982	19.994	100.133	19.872	6.024	0.469
308.000	225.388	79.980	19.993	100.119	19.872	6.021	0.508
310.000	226.326	79.981	19.993	100.119	19.869	6.268	0.465
312.000	227.291	79.984	19.994	100.122	19.868	6.298	0.473
314.000	228.350	79.983	19.992	100.138	19.866	6.448	0.528
316.000	229.299	79.985	19.992	100.122	19.869	6.244	0.475
318.000	230.330	79.983	19.992	100.129	19.868	6.289	0.512
320.000	231.282	79.985	19.991	100.136	19.869	6.222	0.463
322.000	232.267	79.985	19.991	100.127	19.863	6.692	0.496
324.000	233.269	79.986	19.992	100.119	19.862	6.758	0.488
326.000	234.247	79.985	19.992	100.136	19.862	6.724	0.511
328.001	235.246	79.985	19.991	100.122	19.860	6.876	0.519
330.000	236.222	79.985	19.990	100.136	19.859	6.951	0.499
332.000	237.206	79.985	19.992	100.134	19.861	6.827	0.517
334.000	238.215	79.984	19.992	100.139	19.859	6.978	0.485
336.000	239.200	79.986	19.992	100.143	19.855	7.229	0.493
338.000	240.208	79.985	19.991	100.144	19.859	6.919	0.515
340.000	241.155	79.988	19.992	100.125	19.852	7.407	0.495
342.000	242.108	79.987	19.992	100.123	19.853	7.377	0.458
344.000	243.134	79.987	19.991	100.136	19.849	7.647	0.501
346.000	244.185	79.986	19.991	100.123	19.848	7.699	0.537
348.000	245.162	79.986	19.992	100.131	19.845	7.894	0.505
350.000	246.111	79.985	19.992	100.122	19.844	8.012	0.486
352.000	247.105	79.985	19.993	100.134	19.847	7.816	0.477
354.000	248.134	79.985	19.992	100.135	19.848	7.725	0.508
356.000	249.129	79.985	19.991	100.145	19.845	7.901	0.520
358.000	250.168	79.985	19.993	100.130	19.833	8.788	0.520
360.000	251.157	79.985	19.992	100.128	19.834	8.705	0.511
362.000	252.153	79.983	19.991	100.129	19.833	8.743	0.475
364.000	253.168	79.984	19.992	100.120	19.829	9.032	0.504
366.000	254.220	79.984	19.993	100.134	19.827	9.218	0.542
368.000	255.191	79.983	19.991	100.133	19.824	9.425	0.564
370.000	256.122	79.984	19.993	100.122	19.824	9.416	0.398
372.000	257.178	79.983	19.993	100.141	19.816	9.973	0.526
374.000	258.164	79.984	19.992	100.134	19.815	10.024	0.476
376.000	259.113	79.983	19.992	100.145	19.815	10.023	0.566
378.000	260.113	79.984	19.992	100.138	19.816	9.987	0.543
380.000	261.087	79.983	19.993	100.138	19.812	10.222	0.473
382.000	262.086	79.985	19.993	100.145	19.812	10.258	0.491
384.000	263.151	79.980	19.993	100.145	19.815	10.021	0.500
386.000	264.099	79.982	19.992	100.148	19.807	10.557	0.526
388.000	265.191	79.983	19.991	100.148	19.807	10.623	0.600
390.000	266.133	79.984	19.991	100.149	19.802	10.917	0.456
392.000	267.180	79.982	19.993	100.145	19.798	11.238	0.535
394.000	268.136	79.982	19.992	100.148	19.797	11.265	0.459
396.000	269.184	79.986	19.993	100.147	19.793	11.540	0.529
398.000	270.210	79.983	19.993	100.149	19.790	11.750	0.501
400.000	271.431	79.985	19.993	100.147	19.785	12.148	0.609
402.000	272.384	79.985	19.994	100.145	19.784	12.211	0.518
404.000	273.376	79.986	19.994	100.147	19.778	12.626	0.459
406.000	274.340	79.984	19.992	100.148	19.768	13.286	0.484
408.000	275.386	79.985	19.993	100.150	19.767	13.363	0.504
410.001	276.413	79.984	19.991	100.147	19.762	13.715	0.523
412.000	277.422	79.984	19.992	100.148	19.756	14.171	0.498
414.000	278.437	79.986	19.992	100.149	19.752	14.419	0.525
416.000	279.450	79.985	19.992	100.146	19.744	15.034	0.506
418.000	280.443	79.984	19.991	100.151	19.746	14.888	0.519
420.000	281.449	79.988	19.992	100.152	19.739	15.383	0.511
422.000	282.467	79.986	19.991	100.165	19.727	16.168	0.530
424.000	283.525	79.987	19.992	100.171	19.723	16.499	0.536
426.000	284.495	79.987	19.992	100.161	19.719	16.724	0.492
428.000	285.545	79.986	19.993	100.158	19.715	17.043	0.493
430.000	286.545	79.984	19.992	100.163	19.705	17.748	0.508
432.000	287.589	79.984	19.992	100.172	19.699	18.192	0.513
434.000	288.637	79.983	19.991	100.178	19.695	18.426	0.496
436.000	289.589	79.983	19.992	100.180	19.687	19.002	0.492
438.000	290.611	79.983	19.991	100.168	19.673	20.013	0.518
440.000	291.700	79.982	19.991	100.173	19.668	20.355	0.544
442.000	292.725	79.982	19.991	100.184	19.664	20.635	0.534
444.000	293.733	79.985	19.991	100.183	19.655	21.238	0.530
446.000	294.745	79.983	19.992	100.190	19.649	21.671	0.501
448.000	295.748	79.982	19.991	100.187	19.640	22.302	0.509
450.000	296.778	79.984	19.992	100.187	19.634	22.754	0.509
452.000	297.767	79.982	19.991	100.192	19.620	23.678	0.492
454.000	298.819	79.985	19.993	100.190	19.613	24.214	0.540
456.000	299.828	79.984	19.993	100.193	19.606	24.703	0.543
458.000	300.864	79.982	19.992	100.195	19.596	25.368	0.516
460.000	301.827	79.985	19.993	100.201	19.588	25.974	0.515
462.000	302.832	79.984	19.992	100.203	19.574	26.947	0.479
464.000	303.849	79.981	19.994	100.211	19.570	27.196	0.493
466.000	304.835	79.983	19.993	100.210	19.558	28.086	0.492
468.000	305.847	79.985	19.992	100.218	19.552	28.484	0.512
470.000	306.857	79.984	19.994	100.207	19.542	29.147	0.477
472.000	307.822	79.984	19.993	100.211	19.531	29.956	0.484
474.000	308.893	79.983	19.993	100.223	19.522	30.600	0.513
476.000	309.856	79.985	19.994	100.226	19.507	31.655	0.511
478.000	310.868	79.984	19.993	100.224	19.504	31.838	0.506
480.000	311.948	79.983	19.992	100.222	19.489	32.900	0.511
482.000	312.964	79.984	19.992	100.223	19.484	33.271	0.521
484.000	313.996	79.984	19.992	100.224	19.469	34.316	0.526
486.000	315.000	79.981	19.992	100.224	19.463	34.693	0.493
488.000	315.952	79.984	19.992	100.235	19.451	35.563	0.499
490.000	316.944	79.985	19.993	100.230	19.439	36.437	0.503
492.000	318.002	79.985	19.993	100.228	19.430	37.035	0.513
494.000	318.964	79.983	19.993	100.237	19.418	37.869	0.506
496.000	320.002	79.985	19.992	100.246	19.407	38.644	0.509
498.000	320.987	79.985	19.992	100.244	19.399	39.220	0.554
500.000	322.025	79.985	19.991	100.261	19.391	39.808	0.531
502.000	322.994	79.986	19.991	100.259	19.380	40.530	0.477
504.000	323.992	79.986	19.991	100.264	19.374	40.974	0.500
506.000	324.986	79.986	19.991	100.260	19.352	42.534	0.474
508.000	326.000	79.986	19.992	100.265	19.347	42.869	0.464
510.000	327.073	79.986	19.991	100.265	19.334	43.805	0.494
512.000	328.005	79.983	19.991	100.265	19.334	43.802	0.483
514.001	329.067	79.982	19.991	100.265	19.322	44.599	0.521
516.000	330.091	79.982	19.993	100.266	19.317	44.978	0.561
518.000	331.150	79.981	19.991	100.267	19.303	45.948	0.475
520.000	331.875	79.984	19.993	100.268	19.294	46.559	0.581
522.000	333.160	79.983	19.991	100.269	19.291	46.806	0.552
524.000	333.834	79.981	19.991	100.269	19.281	47.528	0.218
526.000	335.094	79.983	19.991	100.269	19.273	48.095	0.521
528.000	336.163	79.985	19.992	100.269	19.266	48.544	0.511
530.000	337.164	79.987	19.992	100.269	19.260	48.953	0.557
532.000	338.136	79.985	19.991	100.266	19.252	49.550	0.497
534.000	339.115	79.984	19.991	100.265	19.246	49.929	0.483
536.000	340.166	79.984	19.992	100.279	19.236	50.698	0.519
538.000	341.174	79.986	19.991	100.283	19.233	50.898	0.511
540.000	342.055	79.985	19.992	100.287	19.227	51.290	0.464
542.000	343.129	79.984	19.991	100.272	19.220	51.758	0.491
544.000	344.140	79.983	19.992	100.275	19.210	52.497	0.529
546.000	345.131	79.983	19.991	100.286	19.205	52.871	0.525
548.000	346.053	79.983	19.991	100.302	19.198	53.361	0.489
550.000	347.066	79.983	19.991	100.301	19.191	53.842	0.497
552.000	348.056	79.983	19.992	100.301	19.187	54.104	0.511
554.000	349.067	79.985	19.992	100.297	19.175	54.940	0.512
556.000	350.008	79.983	19.994	100.301	19.166	55.578	0.493
558.000	351.005	79.984	19.991	100.305	19.159	56.110	0.480
560.000	352.019	79.985	19.993	100.302	19.145	57.081	0.519
562.000	353.016	79.984	19.991	100.301	19.138	57.591	0.493
564.000	354.032	79.984	19.991	100.310	19.128	58.264	0.486
566.000	355.040	79.983	19.992	100.312	19.116	59.134	0.498
568.000	356.035	79.983	19.992	100.316	19.103	60.056	0.510
570.000	357.021	79.985	19.992	100.324	19.090	60.963	0.497
572.000	358.028	79.982	19.992	100.334	19.078	61.768	0.502
574.000	359.012	79.984	19.993	100.342	19.058	63.215	0.476
576.000	359.977	79.984	19.993	100.341	19.046	64.072	0.471
578.000	361.011	79.982	19.993	100.345	19.034	64.900	0.551
580.000	362.005	79.984	19.993	100.352	19.012	66.438	0.501
582.000	362.998	79.984	19.992	100.351	18.998	67.402	0.524
584.000	364.023	79.984	19.992	100.373	18.981	68.618	0.509
586.000	365.037	79.986	19.990	100.379	18.971	69.284	0.527
588.000	365.970	79.985	19.992	100.381	18.954	70.505	0.475
590.000	367.015	79.986	19.992	100.381	18.940	71.471	0.502
592.000	368.051	79.985	19.993	100.382	18.926	72.509	0.506
594.000	368.999	79.985	19.992	100.383	18.909	73.669	0.467
596.000	370.023	79.982	19.992	100.380	18.900	74.272	0.490
598.000	371.011	79.984	19.991	100.379	18.890	75.005	0.495
600.000	372.071	79.984	19.991	100.380	18.877	75.861	0.518
602.000	373.111	79.986	19.992	100.381	18.869	76.471	0.501
604.000	374.148	79.984	19.993	100.383	18.863	76.838	0.521
606.000	375.162	79.983	19.992	100.365	18.860	77.050	0.513
608.000	376.197	79.983	19.992	100.364	18.859	77.104	0.553
610.000	377.208	79.981	19.992	100.354	18.866	76.603	0.514
612.000	378.226	79.983	19.992	100.342	18.873	76.112	0.528
614.000	379.232	79.984	19.992	100.337	18.890	74.926	0.484
616.000	380.278	79.985	19.992	100.321	18.904	73.907	0.496
618.000	381.294	79.984	19.991	100.306	18.921	72.670	0.492
620.000	382.308	79.985	19.992	100.291	18.948	70.792	0.532
622.000	383.351	79.984	19.992	100.267	18.978	68.702	0.494
624.000	384.367	79.986	19.992	100.250	19.013	66.188	0.532
626.000	385.396	79.984	19.992	100.230	19.052	63.459	0.548
628.000	386.415	79.980	19.992	100.208	19.091	60.703	0.515
630.000	387.448	79.984	19.993	100.188	19.139	57.340	0.528
632.000	388.440	79.984	19.992	100.180	19.186	54.071	0.494
634.000	389.502	79.983	19.992	100.158	19.233	50.795	0.528
636.000	390.532	79.983	19.992	100.132	19.281	47.439	0.483
638.000	391.578	79.985	19.992	100.112	19.333	43.794	0.502
640.000	392.599	79.984	19.992	100.108	19.386	40.038	0.496
642.000	393.671	79.986	19.993	100.106	19.430	36.945	0.528
644.000	394.716	79.984	19.993	100.087	19.478	33.644	0.521
646.000	395.746	79.984	19.993	100.073	19.520	30.676	0.528
648.000	396.785	79.985	19.992	100.072	19.558	28.015	0.507
650.000	397.791	79.984	19.992	100.069	19.597	25.247	0.528
652.000	398.844	79.983	19.992	100.070	19.630	22.997	0.513
654.000	399.867	79.982	19.993	100.065	19.658	21.013	0.513
656.000	400.903	79.982	19.992	100.070	19.685	19.110	0.502
658.000	401.938	79.984	19.992	100.068	19.706	17.680	0.506
660.000	402.972	79.985	19.993	100.062	19.730	15.997	0.517
662.000	403.985	79.983	19.993	100.061	19.745	14.914	0.494
664.001	404.996	79.985	19.993	100.064	19.757	14.078	0.477
666.001	406.012	79.985	19.994	100.065	19.774	12.917	0.506
668.000	407.010	79.986	19.993	100.065	19.781	12.425	0.507
670.000	408.042	79.985	19.992	100.060	19.780	12.437	0.479
672.000	409.037	79.984	19.991	100.062	19.795	11.438	0.477
674.000	410.051	79.984	19.993	100.063	19.795	11.430	0.484
676.000	411.089	79.982	19.992	100.057	19.798	11.187	0.498
678.000	412.081	79.983	19.993	100.065	19.802	10.949	0.508
680.000	413.111	79.984	19.993	100.059	19.804	10.791	0.526
682.000	414.045	79.984	19.992	100.058	19.812	10.214	0.473
684.000	415.038	79.984	19.991	100.065	19.812	10.200	0.511
686.000	416.052	79.983	19.992	100.062	19.813	10.176	0.512
688.000	417.016	79.982	19.992	100.058	19.817	9.896	0.476
690.000	418.039	79.984	19.992	100.065	19.817	9.864	0.486
692.000	419.050	79.983	19.992	100.065	19.820	9.682	0.532
694.000	420.054	79.984	19.992	100.058	19.820	9.640	0.524
696.000	421.055	79.984	19.992	100.064	19.822	9.514	0.534
698.000	422.101	79.983	19.992	100.068	19.824	9.420	0.509
700.000	423.059	79.984	19.991	100.068	19.823	9.467	0.483
702.000	424.032	79.983	19.992	100.069	19.826	9.231	0.526
704.000	425.071	79.982	19.991	100.056	19.823	9.468	0.514
706.000	426.052	79.984	19.993	100.057	19.828	9.096	0.509
708.000	427.061	79.982	19.991	100.063	19.829	9.015	0.493
710.000	428.057	79.982	19.991	100.063	19.828	9.103	0.511
712.000	429.069	79.983	19.991	100.067	19.830	8.937	0.502
714.000	430.040	79.983	19.992	100.058	19.831	8.901	0.500
716.000	431.034	79.982	19.991	100.065	19.834	8.700	0.475
718.000	432.073	79.984	19.991	100.070	19.833	8.737	0.499
720.000	433.103	79.984	19.991	100.068	19.834	8.673	0.522
722.000	434.096	79.984	19.992	100.065	19.835	8.633	0.500
724.000	435.073	79.984	19.992	100.062	19.834	8.678	0.475
726.000	436.135	79.986	19.992	100.058	19.833	8.746	0.528
728.000	437.173	79.985	19.992	100.059	19.836	8.563	0.519
730.000	438.158	79.984	19.992	100.061	19.840	8.252	0.520
732.001	439.149	79.984	19.992	100.063	19.838	8.393	0.521
734.000	440.124	79.985	19.991	100.062	19.837	8.489	0.496
736.000	441.114	79.983	19.992	100.060	19.844	8.009	0.481
738.000	442.141	79.984	19.993	100.063	19.840	8.280	0.505
740.000	443.127	79.984	19.992	100.059	19.845	7.954	0.487
742.000	444.129	79.984	19.992	100.058	19.845	7.927	0.495
744.000	445.126	79.986	19.992	100.054	19.847	7.785	0.498
746.000	446.159	79.985	19.992	100.058	19.848	7.673	0.507
748.000	447.164	79.986	19.993	100.057	19.850	7.574	0.512
750.000	448.189	79.984	19.991	100.055	19.851	7.465	0.495
752.000	449.197	79.985	19.992	100.049	19.854	7.322	0.498
754.000	450.195	79.983	19.993	100.054	19.852	7.438	0.514
756.000	451.250	79.983	19.992	100.037	19.853	7.349	0.525
758.000	452.204	79.983	19.993	100.043	19.853	7.327	0.510
760.000	453.241	79.983	19.993	100.041	19.855	7.231	0.509
762.000	454.243	79.984	19.993	100.031	19.857	7.087	0.535
764.001	455.287	79.983	19.992	100.042	19.857	7.074	0.515
766.000	456.318	79.983	19.992	100.037	19.861	6.810	0.526
768.000	457.307	79.983	19.992	100.047	19.860	6.897	0.537
770.000	458.331	79.983	19.992	100.058	19.861	6.777	0.520
772.000	459.327	79.984	19.991	100.044	19.864	6.588	0.490
774.001	460.332	79.984	19.992	100.041	19.867	6.346	0.502
776.000	461.323	79.983	19.991	100.042	19.867	6.350	0.505
778.000	462.334	79.984	19.991	100.043	19.869	6.241	0.506
780.000	463.292	79.983	19.991	100.057	19.869	6.212	0.488
782.000	464.363	79.984	19.992	100.053	19.872	6.031	0.493
784.000	465.335	79.983	19.992	100.052	19.871	6.068	0.513
786.000	466.371	79.983	19.993	100.043	19.875	5.828	0.503
788.000	467.362	79.982	19.993	100.059	19.877	5.703	0.499
790.000	468.379	79.982	19.992	100.055	19.879	5.556	0.510
792.000	469.402	79.982	19.992	100.043	19.879	5.510	0.520
794.000	470.447	79.983	19.993	100.036	19.881	5.418	0.521
796.000	471.478	79.984	19.991	100.048	19.883	5.283	0.527
798.000	472.477	79.984	19.991	100.056	19.884	5.172	0.525
800.000	473.548	79.985	19.991	100.038	19.883	5.233	0.519
802.000	474.598	79.985	19.991	100.049	19.885	5.105	0.523
804.000	475.644	79.986	19.992	100.030	19.885	5.152	0.530
806.000	476.678	79.986	19.991	100.050	19.886	5.044	0.497
808.000	477.682	79.985	19.992	100.045	19.890	4.758	0.498
810.000	478.717	79.985	19.991	100.027	19.888	4.927	0.495
812.000	479.759	79.985	19.992	100.036	19.890	4.765	0.522
814.000	480.782	79.985	19.993	100.040	19.891	4.696	0.513
816.000	481.805	79.984	19.993	100.038	19.892	4.621	0.498
818.000	482.832	79.984	19.992	100.032	19.894	4.488	0.532
820.000	483.874	79.985	19.992	100.038	19.890	4.766	0.540
822.000	484.931	79.984	19.993	100.032	19.893	4.536	0.511
824.000	485.977	79.987	19.993	100.048	19.895	4.399	0.506
826.000	487.012	79.987	19.992	100.057	19.896	4.333	0.528
828.000	488.054	79.987	19.991	100.043	19.891	4.701	0.518
830.000	489.118	79.986	19.990	100.051	19.890	4.746	0.524
832.000	490.138	79.985	19.992	100.046	19.894	4.503	0.513
834.000	491.172	79.985	19.991	100.043	19.895	4.435	0.507
836.000	492.176	79.987	19.992	100.029	19.895	4.386	0.510
838.000	493.261	79.984	19.992	100.035	19.896	4.316	0.536
840.001	494.308	79.984	19.992	100.036	19.894	4.473	0.557
842.000	495.323	79.982	19.992	100.035	19.892	4.607	0.527
844.000	496.361	79.982	19.993	100.033	19.896	4.334	0.511
846.000	497.422	79.983	19.994	100.031	19.894	4.475	0.519
848.000	498.413	79.984	19.993	100.032	19.894	4.473	0.534
850.000	499.479	79.984	19.994	100.039	19.895	4.388	0.524
852.000	500.507	79.984	19.993	100.048	19.895	4.411	0.520
854.000	501.544	79.984	19.992	100.042	19.895	4.393	0.494
856.000	502.540	79.983	19.992	100.039	19.899	4.137	0.531
858.000	503.567	79.984	19.991	100.035	19.898	4.181	0.550
860.000	504.599	79.985	19.992	100.042	19.898	4.195	0.508
862.001	505.626	79.985	19.991	100.033	19.899	4.169	0.461
864.000	506.653	79.985	19.992	100.035	19.902	3.907	0.530
866.000	507.687	79.984	19.992	100.031	19.901	4.009	0.503
868.000	508.699	79.985	19.992	100.035	19.899	4.124	0.519
870.000	509.745	79.984	19.992	100.029	19.900	4.082	0.525
872.000	510.758	79.984	19.992	100.030	19.903	3.871	0.498
874.000	511.777	79.983	19.992	100.038	19.899	4.149	0.483
876.000	512.835	79.983	19.992	100.028	19.900	4.053	0.529
878.000	513.872	79.984	19.992	100.029	19.901	3.983	0.487
880.000	514.913	79.984	19.992	100.030	19.898	4.187	0.506
882.000	515.933	79.985	19.992	100.031	19.900	4.101	0.518
884.000	517.012	79.985	19.992	100.035	19.901	3.979	0.540
886.000	518.053	79.985	19.991	100.049	19.905	3.751	0.530
888.000	519.059	79.985	19.992	100.042	19.901	4.028	0.530
890.000	520.073	79.986	19.993	100.037	19.904	3.779	0.511
892.000	521.093	79.985	19.991	100.041	19.906	3.622	0.542
894.000	522.107	79.986	19.991	100.030	19.904	3.805	0.503
896.000	523.135	79.984	19.992	100.042	19.910	3.381	0.499
898.000	524.184	79.984	19.992	100.053	19.909	3.462	0.518
900.000	525.205	79.985	19.991	100.039	19.905	3.718	0.501
902.000	526.229	79.985	19.991	100.038	19.905	3.700	0.505
904.000	527.231	79.984	19.993	100.035	19.906	3.641	0.478
906.000	528.281	79.985	19.992	100.038	19.906	3.669	0.522
908.000	529.308	79.985	19.992	100.031	19.906	3.662	0.499
910.000	530.344	79.985	19.992	100.032	19.903	3.852	0.537
912.000	531.356	79.985	19.992	100.032	19.903	3.877	0.505
914.000	532.352	79.988	19.993	100.035	19.902	3.946	0.524
916.001	533.345	79.986	19.993	100.033	19.904	3.754	0.520
918.000	534.401	79.985	19.992	100.025	19.904	3.781	0.508
920.000	535.406	79.984	19.992	100.028	19.901	3.995	0.526
922.000	536.429	79.982	19.991	100.025	19.906	3.664	0.507
924.000	537.423	79.983	19.993	100.026	19.904	3.801	0.507
926.000	538.431	79.984	19.992	100.027	19.902	3.929	0.528
928.000	539.444	79.984	19.993	100.028	19.902	3.954	0.517
930.000	540.438	79.983	19.993	100.029	19.903	3.865	0.495
932.000	541.505	79.983	19.992	100.025	19.901	3.967	0.510
934.000	542.527	79.983	19.993	100.027	19.904	3.798	0.537
936.000	543.549	79.982	19.993	100.025	19.905	3.728	0.496
938.000	544.531	79.984	19.993	100.031	19.903	3.877	0.517
940.000	545.562	79.984	19.994	100.034	19.904	3.813	0.513
942.000	546.604	79.983	19.993	100.026	19.906	3.628	0.522
944.000	547.621	79.983	19.993	100.031	19.905	3.685	0.513
946.000	548.679	79.984	19.993	100.027	19.905	3.720	0.521
948.000	549.680	79.983	19.993	100.025	19.907	3.547	0.519
950.000	550.708	79.982	19.993	100.027	19.908	3.532	0.485
952.000	551.741	79.985	19.991	100.031	19.907	3.553	0.512
954.000	552.794	79.984	19.992	100.031	19.908	3.485	0.517
956.000	553.827	79.983	19.992	100.034	19.904	3.777	0.526
958.000	554.846	79.983	19.992	100.031	19.905	3.752	0.492
960.000	555.855	79.984	19.992	100.030	19.907	3.579	0.498
962.000	556.901	79.984	19.991	100.029	19.907	3.598	0.520
964.000	557.985	79.985	19.992	100.033	19.909	3.468	0.557
966.000	558.982	79.985	19.992	100.033	19.907	3.611	0.524
968.000	560.001	79.985	19.992	100.029	19.907	3.579	0.530
970.000	561.032	79.985	19.991	100.035	19.908	3.475	0.501
972.000	562.048	79.986	19.991	100.029	19.907	3.607	0.500
974.000	563.055	79.984	19.991	100.028	19.907	3.577	0.525
976.000	564.101	79.985	19.992	100.030	19.911	3.315	0.522
978.001	565.096	79.983	19.992	100.036	19.906	3.649	0.509
980.000	566.130	79.985	19.991	100.029	19.902	3.903	0.509
982.000	567.144	79.986	19.992	100.027	19.908	3.534	0.511
984.000	568.173	79.987	19.991	100.026	19.907	3.584	0.507
986.000	569.204	79.985	19.992	100.026	19.906	3.624	0.546
988.001	570.205	79.986	19.991	100.027	19.906	3.660	0.531
990.000	571.233	79.987	19.993	100.026	19.907	3.554	0.498
992.000	572.258	79.987	19.992	100.028	19.910	3.398	0.504
994.000	573.296	79.985	19.992	100.029	19.907	3.547	0.510
996.000	574.355	79.985	19.992	100.028	19.906	3.648	0.550
998.000	575.379	79.986	19.991	100.026	19.909	3.411	0.500
1000.000	576.368	79.985	19.992	100.024	19.909	3.473	0.492
1002.001	577.373	79.984	19.993	100.029	19.908	3.486	0.483
1004.000	578.427	79.984	19.992	100.024	19.907	3.545	0.522
1006.000	579.449	79.982	19.992	100.025	19.909	3.413	0.516
1008.000	580.455	79.984	19.992	100.026	19.911	3.313	0.518
1010.000	581.446	79.985	19.993	100.027	19.910	3.337	0.493
1012.000	582.454	79.985	19.992	100.027	19.908	3.539	0.506
1014.000	583.489	79.985	19.992	100.028	19.907	3.560	0.496
1016.000	584.491	79.983	19.993	100.032	19.910	3.345	0.513
1018.000	585.556	79.984	19.992	100.029	19.908	3.492	0.507
1020.000	586.569	79.983	19.992	100.030	19.908	3.541	0.493
1022.000	587.620	79.984	19.994	100.027	19.908	3.477	0.518
1024.000	588.609	79.983	19.993	100.028	19.909	3.409	0.503
1026.000	589.601	79.984	19.993	100.027	19.907	3.603	0.495
1028.000	590.603	79.984	19.993	100.027	19.904	3.771	0.503
1030.001	591.632	79.983	19.993	100.025	19.905	3.703	0.523
1032.001	592.673	79.983	19.993	100.033	19.906	3.660	0.539
1034.000	593.690	79.981	19.992	100.030	19.903	3.837	0.496
1036.001	594.750	79.981	19.992	100.030	19.908	3.541	0.522
1038.000	595.753	79.983	19.991	100.030	19.906	3.631	0.506
1040.001	596.753	79.983	19.991	100.031	19.907	3.594	0.505
1042.000	597.766	79.984	19.991	100.033	19.905	3.750	0.520
1044.000	598.785	79.985	19.992	100.031	19.904	3.803	0.509
1046.000	599.793	79.986	19.991	100.029	19.906	3.658	0.515
1048.000	600.780	79.986	19.991	100.025	19.904	3.760	0.496
1050.000	601.833	79.986	19.992	100.025	19.904	3.762	0.508
1052.000	602.844	79.986	19.992	100.025	19.907	3.573	0.504
1054.001	603.883	79.986	19.991	100.025	19.908	3.530	0.517
1056.000	604.890	79.984	19.991	100.025	19.906	3.671	0.502
1058.001	605.934	79.984	19.991	100.025	19.908	3.486	0.507
1060.000	606.948	79.986	19.992	100.028	19.905	3.694	0.481
1062.000	607.963	79.985	19.992	100.021	19.907	3.599	0.499
1064.000	608.997	79.986	19.992	100.026	19.910	3.335	0.522
1066.001	610.017	79.986	19.990	100.028	19.914	3.092	0.503
1068.000	611.036	79.987	19.993	100.026	19.907	3.560	0.527
1070.001	612.054	79.988	19.991	100.026	19.906	3.652	0.511
1072.000	613.061	79.988	19.992	100.025	19.904	3.756	0.501
1074.000	614.107	79.987	19.991	100.023	19.906	3.667	0.525
1076.000	615.169	79.989	19.992	100.024	19.906	3.615	0.523
1078.001	616.172	79.988	19.990	100.025	19.904	3.756	0.527
1080.000	617.188	79.986	19.991	100.022	19.906	3.632	0.520
1082.000	618.189	79.985	19.993	100.019	19.909	3.471	0.487
1084.000	619.226	79.984	19.993	100.026	19.908	3.515	0.542
1086.000	620.240	79.984	19.992	100.029	19.908	3.477	0.529
1088.001	621.246	79.984	19.992	100.027	19.905	3.717	0.517
1090.000	622.236	79.982	19.992	100.028	19.907	3.547	0.487
1092.001	623.263	79.982	19.992	100.027	19.904	3.760	0.518
1094.000	624.320	79.983	19.992	100.021	19.909	3.410	0.535
1096.001	625.343	79.984	19.992	100.026	19.909	3.458	0.531
1098.000	626.363	79.984	19.992	100.028	19.909	3.411	0.544
1100.001	627.372	79.985	19.991	100.027	19.910	3.377	0.544
1102.001	628.384	79.984	19.992	100.025	19.908	3.535	0.514
1104.000	629.402	79.985	19.991	100.020	19.910	3.375	0.504
1106.000	630.430	79.984	19.991	100.013	19.907	3.559	0.519
1108.001	631.505	79.984	19.992	100.015	19.909	3.445	0.548
1110.000	632.497	79.985	19.992	100.019	19.910	3.339	0.526
1112.000	633.508	79.984	19.993	100.023	19.911	3.292	0.505
1114.000	634.564	79.984	19.993	100.021	19.909	3.473	0.523
1116.001	635.592	79.982	19.994	100.015	19.908	3.484	0.505
1118.001	636.634	79.983	19.993	100.019	19.910	3.377	0.522
1120.001	637.702	79.982	19.993	100.021	19.911	3.269	0.519
1122.000	638.685	79.983	19.993	100.010	19.910	3.401	0.524
1124.000	639.693	79.983	19.993	100.023	19.908	3.505	0.508
1126.000	640.733	79.986	19.992	100.016	19.909	3.413	0.528
1128.000	641.773	79.987	19.991	100.021	19.908	3.484	0.509
1130.000	642.827	79.986	19.991	100.008	19.910	3.341	0.523
1132.000	643.854	79.986	19.993	100.013	19.913	3.144	0.525
1134.000	644.871	79.985	19.992	100.020	19.914	3.122	0.479
1136.001	645.864	79.985	19.992	100.021	19.915	3.045	0.520
1138.001	646.949	79.985	19.991	100.020	19.916	2.945	0.517
1140.000	648.003	79.985	19.992	100.006	19.912	3.233	0.516
1142.000	649.045	79.985	19.992	100.005	19.912	3.194	0.563
1144.000	650.093	79.984	19.992	99.996	19.912	3.241	0.516
1146.000	651.113	79.985	19.992	100.007	19.913	3.153	0.504
1148.001	652.156	79.985	19.991	100.019	19.910	3.397	0.508
1150.000	653.228	79.986	19.993	100.019	19.911	3.265	0.513
1152.000	654.253	79.985	19.992	100.012	19.914	3.115	0.524
1154.001	655.286	79.988	19.992	100.009	19.912	3.245	0.518
1156.000	656.286	79.986	19.991	100.014	19.912	3.220	0.510
1158.000	657.296	79.987	19.991	100.023	19.913	3.186	0.496
1160.000	658.296	79.987	19.991	100.012	19.913	3.175	0.526
1162.001	659.291	79.985	19.991	100.015	19.914	3.091	0.471
1164.000	660.307	79.983	19.991	100.011	19.913	3.169	0.493
1166.000	661.323	79.985	19.991	100.013	19.914	3.058	0.489
1168.000	662.352	79.987	19.991	100.018	19.917	2.905	0.493
1170.000	663.296	79.985	19.992	100.013	19.917	2.854	0.506
1172.000	664.374	79.985	19.993	100.005	19.914	3.084	0.522
1174.000	665.364	79.985	19.993	99.995	19.917	2.860	0.502
1176.000	666.342	79.984	19.992	99.998	19.920	2.702	0.480
1178.000	667.341	79.983	19.992	100.006	19.914	3.099	0.483
1180.001	668.356	79.985	19.993	100.004	19.916	2.952	0.495
1182.000	669.333	79.983	19.994	100.005	19.915	2.990	0.492
1184.000	670.375	79.985	19.993	100.010	19.916	2.980	0.491
1186.000	671.386	79.985	19.992	100.017	19.918	2.816	0.497
1188.001	672.347	79.985	19.991	100.010	19.915	3.022	0.474
1190.000	673.342	79.985	19.992	100.012	19.914	3.103	0.477
1192.001	674.375	79.983	19.992	100.001	19.913	3.142	0.528
1194.000	675.372	79.984	19.992	100.011	19.917	2.905	0.490
1196.000	676.368	79.984	19.993	99.998	19.917	2.858	0.472
1198.001	677.398	79.983	19.993	100.007	19.914	3.054	0.520
1200.000	678.355	79.984	19.993	100.011	19.912	3.229	0.516
1202.000	679.315	79.985	19.994	99.995	19.914	3.063	0.468
1204.000	680.359	79.984	19.993	99.994	19.914	3.099	0.492
1206.001	681.343	79.986	19.993	99.991	19.916	2.952	0.481
1208.000	682.360	79.982	19.993	100.003	19.916	2.972	0.520
1210.000	683.396	79.987	19.993	99.996	19.910	3.342	0.539
1212.000	684.370	79.983	19.992	100.004	19.913	3.129	0.495
1214.000	685.364	79.984	19.992	99.991	19.915	3.033	0.529
1216.000	686.382	79.985	19.992	100.008	19.913	3.129	0.493
1218.000	687.394	79.982	19.993	100.001	19.914	3.060	0.513
1220.000	688.375	79.985	19.991	99.992	19.915	3.040	0.448
1222.000	689.384	79.986	19.991	99.989	19.915	3.012	0.491
1224.000	690.396	79.982	19.992	99.996	19.911	3.278	0.502
1226.000	691.418	79.986	19.992	100.009	19.913	3.174	0.517
1228.000	692.419	79.982	19.993	99.999	19.913	3.167	0.537
1230.001	693.415	79.985	19.992	100.001	19.917	2.909	0.527
1232.000	694.428	79.986	19.992	99.997	19.914	3.118	0.490
1234.001	695.450	79.987	19.992	99.997	19.915	3.018	0.502
1236.000	696.450	79.985	19.992	99.992	19.915	2.988	0.487
1238.000	697.458	79.987	19.993	99.991	19.913	3.138	0.501
1240.001	698.439	79.989	19.991	100.006	19.912	3.225	0.477
1242.000	699.441	79.986	19.992	100.003	19.914	3.061	0.513
1244.000	700.443	79.984	19.991	99.993	19.912	3.227	0.482
1246.000	701.435	79.984	19.992	99.996	19.913	3.152	0.483
1248.000	702.459	79.985	19.991	99.988	19.916	2.978	0.477
1250.000	703.451	79.983	19.992	99.996	19.914	3.091	0.499
1252.001	704.440	79.984	19.992	99.992	19.914	3.099	0.506
1254.000	705.422	79.984	19.991	100.001	19.910	3.355	0.516
1256.000	706.434	79.985	19.992	100.009	19.912	3.248	0.522
1258.000	707.413	79.984	19.991	99.990	19.912	3.221	0.514
1260.001	708.424	79.984	19.992	99.990	19.911	3.283	0.513
1262.000	709.431	79.983	19.993	99.992	19.910	3.372	0.500
1264.000	710.440	79.986	19.992	99.989	19.912	3.221	0.523
1266.000	711.397	79.983	19.992	99.987	19.916	2.975	0.502
1268.000	712.412	79.983	19.993	99.997	19.913	3.127	0.499
1270.000	713.391	79.982	19.993	99.990	19.914	3.067	0.495
1272.000	714.413	79.986	19.992	99.992	19.914	3.065	0.516
1274.001	715.422	79.983	19.992	99.998	19.913	3.167	0.497
1276.000	716.456	79.983	19.992	100.001	19.914	3.059	0.515
1278.000	717.406	79.984	19.993	100.006	19.912	3.223	0.524
1280.001	718.422	79.983	19.992	99.995	19.909	3.408	0.481
1282.000	719.437	79.984	19.993	99.996	19.910	3.400	0.519
1284.000	720.382	79.982	19.993	99.996	19.911	3.270	0.463
1286.000	721.379	79.984	19.993	99.991	19.912	3.216	0.477
1288.001	722.376	79.986	19.993	99.999	19.911	3.317	0.487
1290.000	723.386	79.985	19.992	99.991	19.909	3.410	0.513
1292.002	724.359	79.984	19.993	99.990	19.909	3.436	0.505
1294.000	725.321	79.981	19.992	99.993	19.914	3.080	0.492
1296.000	726.303	79.983	19.993	99.996	19.912	3.203	0.469
1298.000	727.295	79.985	19.993	99.996	19.906	3.681	0.502
1300.000	728.330	79.987	19.993	99.990	19.910	3.400	0.513
1302.000	729.337	79.982	19.992	99.999	19.909	3.425	0.497
1304.000	730.350	79.987	19.992	99.987	19.911	3.278	0.498
1306.001	731.380	79.984	19.992	100.012	19.908	3.538	0.504
1308.001	732.348	79.986	19.992	99.999	19.913	3.164	0.473
1310.000	733.378	79.983	19.993	99.989	19.912	3.251	0.494
1312.000	734.395	79.989	19.992	99.987	19.912	3.215	0.489
1314.000	735.418	79.985	19.992	99.985	19.910	3.362	0.505
1316.000	736.426	79.987	19.993	99.984	19.907	3.570	0.505
1318.001	737.436	79.987	19.992	99.983	19.909	3.432	0.502
1320.000	738.451	79.987	19.992	99.984	19.910	3.338	0.489
1322.000	739.501	79.986	19.992	99.984	19.911	3.304	0.538
1324.000	740.501	79.986	19.992	99.985	19.913	3.178	0.527
1326.000	741.509	79.986	19.992	99.986	19.908	3.510	0.485
1328.000	742.525	79.984	19.993	99.986	19.908	3.513	0.476
1330.001	743.571	79.983	19.992	99.988	19.913	3.157	0.509