File: 01_Data/Pine_Siding/MCC/Pine_Siding_30K_min_210608_R1.txt
Sample ID:	C:\MCC\MCC Cal\Test\Pine_Siding\Pine_Siding_30_1.txt
Sample Weight (mg):	3.88
Heating Rate (C/s):	0.5
Combustor Temp (C):	900
N2 Flow Rate (cc/min):	80
O2 Flow Rate (cc/min):	20
Calibration File:	C:\MCC\MCC Cal\Coeff1 JN10440_30_210304.txt.txt
T Correction Coefficients:	0	1.024463	0
Time Shift (s):	14
*
Time (s)	Temperature (C)	N2 flow rate (cc/min)	O2 flow rate (cc/min)	Flow Rate (cc/min)	Oxygen (%)	HRR (W/g)	Heating rate (C/s)
0.000	108.507	79.981	19.993	99.917	19.957	0.448	-0.018
2.000	108.496	79.981	19.992	99.917	19.959	0.308	-0.023
4.000	108.512	79.981	19.993	99.915	19.959	0.288	-0.011
6.000	108.527	79.981	19.996	99.912	19.958	0.377	0.017
8.000	108.473	79.981	19.994	99.913	19.962	0.043	-0.042
10.000	108.483	79.981	19.993	99.921	19.960	0.212	0.001
12.000	108.466	79.980	19.992	99.947	19.958	0.407	-0.021
14.001	108.470	79.980	19.993	99.938	19.956	0.559	-0.005
16.001	108.498	79.980	19.992	99.960	19.952	0.906	-0.003
18.000	108.553	79.980	19.992	99.985	19.947	1.305	0.023
20.001	108.565	79.981	19.992	99.990	19.945	1.450	0.027
22.001	108.590	79.980	19.993	100.016	19.942	1.674	0.027
24.000	108.710	79.980	19.992	100.028	19.939	1.962	0.062
26.000	108.809	79.980	19.991	100.032	19.935	2.258	0.028
28.000	108.925	79.981	19.991	100.037	19.937	2.106	0.033
30.000	109.057	79.982	19.990	100.047	19.938	1.991	0.071
32.001	109.188	79.983	19.992	100.056	19.934	2.351	0.076
34.000	109.427	79.982	19.992	100.066	19.935	2.244	0.109
36.001	109.609	79.981	19.992	100.085	19.932	2.507	0.127
38.000	109.822	79.981	19.991	100.077	19.930	2.633	0.107
40.000	110.109	79.983	19.990	100.072	19.926	2.954	0.161
42.000	110.345	79.984	19.992	100.076	19.926	2.985	0.125
44.001	110.709	79.984	19.993	100.070	19.927	2.912	0.166
46.000	110.984	79.984	19.993	100.094	19.924	3.155	0.164
48.000	111.325	79.983	19.991	100.107	19.920	3.450	0.175
50.000	111.665	79.982	19.991	100.110	19.921	3.411	0.164
52.001	112.018	79.984	19.991	100.114	19.921	3.398	0.153
54.000	112.432	79.984	19.992	100.135	19.916	3.784	0.195
56.000	112.886	79.984	19.991	100.147	19.914	3.936	0.207
58.000	113.313	79.984	19.991	100.147	19.911	4.147	0.208
60.001	113.786	79.985	19.992	100.147	19.909	4.369	0.200
62.000	114.283	79.984	19.992	100.147	19.909	4.378	0.250
64.001	114.785	79.983	19.992	100.147	19.909	4.365	0.243
66.000	115.348	79.987	19.994	100.146	19.912	4.133	0.271
68.000	115.907	79.985	19.991	100.155	19.910	4.298	0.281
70.000	116.519	79.981	19.992	100.162	19.910	4.239	0.310
72.000	117.105	79.980	19.994	100.167	19.910	4.280	0.279
74.001	117.726	79.980	19.991	100.170	19.909	4.323	0.317
76.000	118.379	79.983	19.993	100.174	19.911	4.209	0.360
78.000	119.050	79.982	19.993	100.168	19.907	4.528	0.326
80.000	119.724	79.981	19.994	100.181	19.910	4.230	0.342
82.000	120.430	79.983	19.993	100.172	19.907	4.522	0.351
84.000	121.196	79.982	19.992	100.165	19.905	4.689	0.338
86.001	121.928	79.981	19.993	100.170	19.902	4.880	0.374
88.000	122.722	79.981	19.993	100.174	19.903	4.795	0.393
90.000	123.509	79.980	19.993	100.157	19.904	4.737	0.417
92.001	124.248	79.979	19.993	100.177	19.902	4.915	0.401
94.001	125.075	79.982	19.994	100.184	19.901	5.003	0.422
96.001	125.889	79.980	19.993	100.178	19.907	4.510	0.420
98.000	126.691	79.979	19.993	100.180	19.904	4.712	0.412
100.000	127.499	79.980	19.992	100.183	19.905	4.656	0.430
102.001	128.361	79.979	19.991	100.183	19.900	5.101	0.439
104.000	129.254	79.981	19.992	100.171	19.903	4.868	0.416
106.000	130.131	79.980	19.992	100.166	19.903	4.826	0.458
108.000	130.981	79.982	19.992	100.165	19.900	5.105	0.417
110.000	131.885	79.983	19.991	100.176	19.904	4.753	0.432
112.000	132.770	79.986	19.989	100.180	19.900	5.048	0.473
114.001	133.710	79.982	19.997	100.165	19.902	4.895	0.485
116.000	134.573	79.982	19.992	100.180	19.897	5.309	0.464
118.001	135.488	79.985	19.989	100.178	19.900	5.064	0.477
120.000	136.470	79.983	19.992	100.172	19.899	5.157	0.446
122.000	137.422	79.984	19.992	100.167	19.899	5.172	0.489
124.000	138.319	79.986	19.990	100.168	19.897	5.337	0.461
126.000	139.314	79.984	19.994	100.171	19.897	5.326	0.496
128.000	140.234	79.982	19.996	100.163	19.900	5.087	0.466
130.000	141.152	79.983	19.991	100.175	19.906	4.559	0.459
132.000	142.175	79.982	19.991	100.156	19.903	4.835	0.492
134.000	143.139	79.980	19.996	100.171	19.900	5.030	0.486
136.000	144.130	79.989	19.990	100.150	19.904	4.735	0.465
138.000	145.173	79.982	19.996	100.161	19.905	4.662	0.515
140.000	146.165	79.981	19.990	100.150	19.905	4.648	0.520
142.000	147.160	79.986	19.992	100.153	19.902	4.944	0.496
144.000	148.211	79.986	19.993	100.152	19.906	4.603	0.527
146.000	149.225	79.982	19.991	100.155	19.902	4.913	0.510
148.000	150.232	79.982	19.993	100.156	19.899	5.126	0.511
150.000	151.246	79.984	19.991	100.152	19.901	4.963	0.530
152.000	152.297	79.982	19.991	100.149	19.905	4.672	0.515
154.000	153.275	79.984	19.988	100.152	19.905	4.630	0.512
156.000	154.227	79.977	19.993	100.154	19.904	4.759	0.481
158.000	155.263	79.979	19.995	100.150	19.905	4.648	0.537
160.000	156.265	79.981	19.992	100.148	19.903	4.811	0.493
162.000	157.266	79.979	19.990	100.152	19.904	4.780	0.500
164.000	158.287	79.979	19.991	100.150	19.904	4.730	0.500
166.000	159.342	79.981	19.988	100.129	19.907	4.478	0.521
168.000	160.368	79.983	19.994	100.150	19.905	4.670	0.519
170.000	161.351	79.985	19.991	100.148	19.907	4.515	0.487
172.000	162.368	79.983	19.991	100.146	19.905	4.697	0.492
174.000	163.363	79.980	19.993	100.136	19.905	4.673	0.499
176.000	164.410	79.987	19.991	100.135	19.902	4.868	0.516
178.000	165.471	79.981	19.993	100.119	19.904	4.762	0.520
180.000	166.508	79.982	19.993	100.122	19.908	4.441	0.516
182.000	167.445	79.979	19.995	100.134	19.904	4.711	0.484
184.000	168.516	79.982	19.993	100.124	19.904	4.777	0.496
186.000	169.509	79.982	19.996	100.116	19.905	4.656	0.477
188.000	170.533	79.987	19.987	100.109	19.899	5.131	0.528
190.000	171.481	79.982	19.996	100.114	19.900	5.059	0.510
192.000	172.554	79.984	19.989	100.130	19.906	4.621	0.513
194.000	173.560	79.981	19.995	100.139	19.905	4.645	0.498
196.000	174.530	79.981	19.992	100.114	19.903	4.831	0.492
198.000	175.539	79.988	19.993	100.125	19.905	4.647	0.506
200.000	176.554	79.988	19.993	100.110	19.907	4.506	0.486
202.000	177.573	79.979	19.989	100.112	19.906	4.566	0.524
204.000	178.554	79.985	19.986	100.114	19.906	4.570	0.513
206.000	179.568	79.982	19.989	100.117	19.903	4.805	0.513
208.000	180.532	79.982	19.993	100.115	19.904	4.720	0.498
210.000	181.533	79.982	19.994	100.113	19.904	4.709	0.478
212.000	182.532	79.985	19.986	100.111	19.904	4.718	0.500
214.001	183.545	79.979	19.993	100.108	19.905	4.653	0.480
216.000	184.537	79.983	19.989	100.111	19.903	4.853	0.526
218.000	185.555	79.982	19.990	100.105	19.902	4.898	0.506
220.000	186.556	79.978	19.997	100.113	19.901	4.959	0.495
222.000	187.533	79.983	19.992	100.109	19.900	5.034	0.465
224.000	188.535	79.983	19.992	100.109	19.905	4.642	0.505
226.000	189.526	79.983	19.992	100.111	19.904	4.744	0.497
228.000	190.505	79.984	19.991	100.112	19.903	4.811	0.501
230.000	191.496	79.983	19.992	100.113	19.902	4.924	0.487
232.000	192.478	79.977	19.991	100.105	19.904	4.783	0.509
234.000	193.484	79.981	19.993	100.105	19.905	4.666	0.480
236.000	194.452	79.982	19.990	100.102	19.902	4.921	0.483
238.000	195.473	79.979	19.994	100.112	19.902	4.902	0.507
240.000	196.417	79.980	19.994	100.109	19.898	5.238	0.484
242.000	197.422	79.981	19.992	100.110	19.901	4.950	0.504
244.000	198.425	79.980	19.992	100.109	19.900	5.102	0.541
246.000	199.394	79.979	19.995	100.103	19.900	5.054	0.473
248.000	200.406	79.983	19.990	100.103	19.896	5.379	0.518
250.001	201.379	79.983	19.998	100.106	19.894	5.516	0.547
252.000	202.360	79.984	19.991	100.104	19.898	5.258	0.497
254.000	203.329	79.985	19.988	100.105	19.893	5.592	0.508
256.000	204.292	79.982	19.992	100.101	19.896	5.361	0.516
258.000	205.272	79.981	19.994	100.108	19.894	5.585	0.479
260.000	206.269	79.981	19.993	100.102	19.893	5.644	0.485
262.000	207.260	79.979	19.994	100.107	19.891	5.767	0.479
264.000	208.248	79.980	19.996	100.104	19.889	5.965	0.502
266.000	209.253	79.977	19.996	100.098	19.892	5.741	0.488
268.000	210.234	79.979	19.992	100.100	19.890	5.834	0.486
270.000	211.199	79.982	19.994	100.104	19.891	5.774	0.466
272.000	212.175	79.976	19.996	100.100	19.891	5.780	0.466
274.000	213.186	79.984	19.989	100.098	19.890	5.882	0.478
276.000	214.178	79.980	19.994	100.089	19.890	5.892	0.522
278.000	215.144	79.985	19.993	100.094	19.887	6.101	0.490
280.000	216.155	79.982	19.993	100.102	19.891	5.828	0.490
282.000	217.143	79.981	19.995	100.103	19.891	5.823	0.467
284.000	218.102	79.984	19.994	100.090	19.891	5.814	0.498
286.000	219.124	79.983	19.988	100.089	19.888	6.044	0.483
288.000	220.114	79.982	19.992	100.088	19.886	6.203	0.495
290.000	221.108	79.979	19.992	100.101	19.882	6.541	0.513
292.000	222.087	79.982	19.990	100.095	19.882	6.503	0.481
294.000	223.112	79.983	19.991	100.098	19.884	6.341	0.502
296.000	224.053	79.982	19.992	100.079	19.885	6.296	0.458
298.000	225.058	79.982	19.993	100.087	19.881	6.633	0.488
300.000	226.055	79.983	19.992	100.084	19.882	6.555	0.451
302.000	227.030	79.983	19.993	100.096	19.880	6.658	0.470
304.000	228.044	79.984	19.992	100.100	19.876	6.977	0.480
306.000	229.072	79.982	19.993	100.087	19.876	6.960	0.506
308.000	230.085	79.985	19.993	100.102	19.876	6.960	0.497
310.000	231.072	79.984	19.994	100.085	19.876	6.998	0.502
312.000	232.060	79.982	19.990	100.080	19.876	6.981	0.489
314.000	233.073	79.984	19.992	100.091	19.872	7.309	0.512
316.000	234.058	79.981	19.992	100.090	19.875	7.086	0.502
318.000	235.043	79.981	19.993	100.097	19.873	7.247	0.505
320.000	236.020	79.982	19.992	100.099	19.870	7.445	0.503
322.000	237.046	79.982	19.993	100.086	19.863	8.031	0.503
324.001	238.058	79.983	19.992	100.097	19.867	7.726	0.533
326.000	239.048	79.983	19.992	100.087	19.867	7.685	0.491
328.000	240.028	79.982	19.992	100.103	19.864	7.933	0.500
330.000	241.051	79.984	19.990	100.092	19.861	8.175	0.507
332.000	242.049	79.985	19.990	100.085	19.860	8.250	0.526
334.000	243.049	79.982	19.993	100.098	19.861	8.227	0.510
336.000	244.056	79.978	19.993	100.110	19.861	8.228	0.502
338.000	245.036	79.986	19.993	100.088	19.858	8.435	0.498
340.001	246.063	79.980	19.991	100.096	19.857	8.513	0.503
342.000	247.059	79.983	19.992	100.096	19.855	8.688	0.506
344.000	248.064	79.982	19.991	100.096	19.856	8.572	0.502
346.000	249.118	79.979	19.993	100.091	19.851	9.026	0.523
348.000	250.162	79.981	19.993	100.099	19.851	9.014	0.511
350.000	251.168	79.981	19.994	100.095	19.847	9.328	0.496
352.000	252.171	79.980	19.991	100.091	19.850	9.113	0.502
354.000	253.183	79.981	19.993	100.093	19.845	9.472	0.507
356.000	254.212	79.983	19.992	100.091	19.845	9.495	0.508
358.000	255.222	79.982	19.993	100.086	19.841	9.786	0.545
360.000	256.195	79.984	19.993	100.088	19.841	9.818	0.493
362.000	257.195	79.982	19.993	100.085	19.839	9.979	0.505
364.000	258.223	79.983	19.991	100.088	19.834	10.382	0.528
366.000	259.214	79.981	19.993	100.099	19.834	10.415	0.495
368.000	260.207	79.982	19.993	100.037	19.831	10.589	0.484
370.000	261.239	79.982	19.992	100.067	19.832	10.581	0.542
372.000	262.226	79.981	19.994	100.167	19.828	10.845	0.507
374.000	263.211	79.985	19.991	100.094	19.826	11.053	0.506
376.000	264.246	79.980	19.996	100.094	19.820	11.470	0.516
378.000	265.252	79.983	19.992	100.098	19.819	11.576	0.470
380.000	266.233	79.984	19.993	100.103	19.818	11.671	0.498
382.000	267.256	79.982	19.991	100.099	19.814	11.993	0.523
384.000	268.266	79.986	19.990	100.100	19.811	12.250	0.507
386.000	269.275	79.980	19.996	100.108	19.807	12.536	0.517
388.000	270.248	79.984	19.994	100.106	19.806	12.640	0.481
390.000	271.303	79.984	19.991	100.098	19.802	12.924	0.519
392.000	272.294	79.983	19.992	100.104	19.800	13.128	0.511
394.000	273.295	79.982	19.992	100.108	19.795	13.538	0.509
396.000	274.265	79.980	19.994	100.112	19.792	13.766	0.476
398.000	275.280	79.981	19.992	100.111	19.790	13.892	0.447
400.000	276.299	79.984	19.992	100.112	19.786	14.235	0.490
402.000	277.262	79.983	19.992	100.110	19.782	14.559	0.493
404.000	278.288	79.983	19.991	100.111	19.781	14.684	0.503
406.000	279.303	79.982	19.992	100.114	19.775	15.136	0.505
408.000	280.292	79.983	19.991	100.114	19.770	15.573	0.497
410.000	281.278	79.982	19.993	100.114	19.765	15.970	0.497
412.000	282.277	79.980	19.994	100.115	19.763	16.124	0.505
414.000	283.314	79.981	19.995	100.115	19.758	16.524	0.509
416.000	284.291	79.978	19.992	100.116	19.753	16.942	0.507
418.000	285.249	79.981	19.992	100.117	19.745	17.571	0.474
420.000	286.289	79.984	19.988	100.113	19.745	17.548	0.503
422.000	287.309	79.982	19.992	100.112	19.735	18.383	0.518
424.000	288.259	79.982	19.993	100.113	19.730	18.760	0.519
426.000	289.221	79.982	19.992	100.117	19.723	19.294	0.505
428.000	290.274	79.979	19.992	100.119	19.715	19.968	0.530
430.000	291.242	79.983	19.989	100.124	19.709	20.467	0.475
432.000	292.261	79.980	19.993	100.134	19.703	20.966	0.490
434.000	293.213	79.980	19.993	100.124	19.697	21.388	0.511
436.000	294.247	79.982	19.993	100.123	19.690	21.992	0.497
438.000	295.226	79.983	19.994	100.137	19.684	22.469	0.484
440.000	296.229	79.984	19.992	100.140	19.680	22.814	0.498
442.000	297.183	79.983	19.993	100.148	19.669	23.653	0.506
444.000	298.181	79.984	19.993	100.142	19.664	24.068	0.471
446.000	299.197	79.983	19.991	100.140	19.654	24.870	0.514
448.000	300.213	79.980	19.996	100.145	19.649	25.260	0.494
450.000	301.206	79.982	19.992	100.147	19.644	25.717	0.490
452.000	302.190	79.983	19.994	100.148	19.635	26.393	0.493
454.000	303.190	79.983	19.995	100.150	19.628	26.979	0.520
456.000	304.202	79.981	19.994	100.149	19.620	27.662	0.505
458.000	305.183	79.982	19.992	100.159	19.612	28.252	0.520
460.000	306.207	79.983	19.991	100.158	19.605	28.810	0.499
462.000	307.209	79.983	19.993	100.164	19.595	29.619	0.495
464.000	308.208	79.984	19.992	100.169	19.585	30.409	0.476
466.000	309.230	79.986	19.990	100.170	19.580	30.890	0.532
468.000	310.238	79.985	19.992	100.168	19.566	31.959	0.501
470.000	311.292	79.983	19.992	100.184	19.560	32.442	0.523
472.000	312.316	79.983	19.991	100.186	19.550	33.262	0.501
474.000	313.319	79.982	19.992	100.175	19.540	34.084	0.520
476.000	314.287	79.981	19.993	100.187	19.534	34.596	0.522
478.000	315.316	79.983	19.991	100.187	19.527	35.135	0.504
480.000	316.326	79.981	19.992	100.188	19.516	36.030	0.517
482.000	317.349	79.980	19.993	100.190	19.505	36.896	0.521
484.000	318.296	79.980	19.992	100.188	19.497	37.535	0.499
486.000	319.316	79.983	19.993	100.193	19.489	38.178	0.507
488.000	320.309	79.982	19.992	100.188	19.477	39.130	0.494
490.000	321.320	79.982	19.992	100.194	19.471	39.665	0.525
492.000	322.378	79.982	19.992	100.192	19.461	40.477	0.537
494.000	323.338	79.982	19.992	100.192	19.455	40.895	0.485
496.000	324.358	79.982	19.992	100.198	19.446	41.622	0.522
498.000	325.376	79.983	19.992	100.187	19.437	42.415	0.536
500.000	326.413	79.982	19.992	100.200	19.432	42.814	0.537
502.000	327.376	79.983	19.993	100.223	19.421	43.651	0.516
504.000	328.407	79.982	19.992	100.205	19.415	44.140	0.525
506.000	329.415	79.981	19.991	100.194	19.408	44.729	0.507
508.000	330.408	79.981	19.992	100.201	19.400	45.383	0.493
510.000	331.445	79.983	19.993	100.212	19.390	46.154	0.533
512.000	332.464	79.983	19.992	100.212	19.384	46.623	0.521
514.000	333.520	79.982	19.993	100.206	19.380	47.008	0.541
516.000	334.487	79.982	19.993	100.208	19.372	47.592	0.471
518.000	335.530	79.983	19.993	100.222	19.365	48.203	0.528
520.000	336.504	79.983	19.993	100.213	19.359	48.711	0.485
522.000	337.552	79.984	19.993	100.213	19.354	49.052	0.531
524.000	338.542	79.983	19.992	100.220	19.346	49.752	0.508
526.000	339.528	79.982	19.993	100.217	19.340	50.245	0.511
528.000	340.559	79.984	19.993	100.223	19.333	50.791	0.518
530.001	341.559	79.984	19.993	100.227	19.324	51.489	0.488
532.000	342.542	79.983	19.993	100.229	19.320	51.852	0.477
534.000	343.568	79.983	19.993	100.228	19.314	52.300	0.515
536.000	344.574	79.982	19.992	100.226	19.305	53.002	0.527
538.000	345.528	79.982	19.993	100.227	19.303	53.233	0.502
540.000	346.578	79.982	19.993	100.229	19.294	53.951	0.511
542.000	347.594	79.982	19.993	100.229	19.288	54.434	0.497
544.000	348.604	79.981	19.992	100.232	19.281	54.950	0.504
546.000	349.625	79.982	19.993	100.236	19.272	55.677	0.502
548.000	350.611	79.982	19.992	100.241	19.262	56.486	0.503
550.000	351.629	79.983	19.992	100.239	19.256	56.975	0.494
552.000	352.626	79.983	19.992	100.242	19.249	57.599	0.488
554.000	353.722	79.982	19.991	100.252	19.239	58.352	0.534
556.000	354.684	79.982	19.991	100.257	19.231	59.039	0.507
558.000	355.715	79.982	19.991	100.255	19.217	60.116	0.537
560.000	356.717	79.982	19.991	100.260	19.207	60.952	0.492
562.000	357.753	79.980	19.992	100.260	19.199	61.598	0.485
564.000	358.725	79.981	19.992	100.265	19.189	62.442	0.489
566.000	359.757	79.982	19.992	100.281	19.176	63.439	0.510
568.000	360.781	79.982	19.992	100.271	19.168	64.124	0.505
570.000	361.781	79.982	19.991	100.275	19.158	64.932	0.494
572.000	362.745	79.982	19.992	100.277	19.144	66.068	0.480
574.000	363.742	79.982	19.992	100.294	19.132	66.988	0.505
576.000	364.849	79.981	19.994	100.301	19.117	68.268	0.542
578.000	365.825	79.983	19.992	100.302	19.102	69.483	0.495
580.000	366.827	79.983	19.992	100.301	19.092	70.220	0.514
582.000	367.875	79.982	19.991	100.304	19.080	71.248	0.534
584.000	368.891	79.982	19.992	100.298	19.065	72.452	0.536
586.000	369.906	79.981	19.992	100.237	19.056	73.174	0.488
588.000	370.950	79.981	19.991	100.370	19.043	74.175	0.507
590.000	371.911	79.981	19.992	100.311	19.034	74.884	0.488
592.000	372.958	79.981	19.992	100.309	19.028	75.432	0.490
594.000	374.005	79.982	19.991	100.308	19.022	75.860	0.512
596.000	375.026	79.982	19.992	100.305	19.018	76.220	0.504
598.000	376.074	79.983	19.992	100.306	19.017	76.259	0.511
600.000	376.983	79.983	19.993	100.299	19.017	76.209	0.494
602.000	378.049	79.983	19.992	100.291	19.022	75.845	0.523
604.000	379.057	79.983	19.992	100.270	19.028	75.371	0.520
606.000	380.095	79.983	19.992	100.267	19.036	74.654	0.543
608.000	381.085	79.983	19.992	100.254	19.055	73.128	0.507
610.000	382.084	79.983	19.992	100.245	19.071	71.833	0.508
612.000	383.103	79.984	19.992	100.226	19.093	70.037	0.527
614.000	384.154	79.982	19.992	100.214	19.120	67.898	0.545
616.000	385.131	79.981	19.993	100.191	19.150	65.420	0.500
618.000	386.105	79.982	19.992	100.183	19.179	63.132	0.486
620.000	387.140	79.983	19.992	100.168	19.214	60.253	0.492
622.000	388.194	79.983	19.993	100.146	19.255	56.975	0.535
624.000	389.188	79.982	19.993	100.134	19.293	53.933	0.517
626.000	390.217	79.984	19.992	100.111	19.333	50.667	0.546
628.000	391.187	79.983	19.992	100.093	19.377	47.145	0.516
630.000	392.261	79.982	19.994	100.084	19.421	43.615	0.543
632.000	393.267	79.984	19.993	100.070	19.464	40.155	0.527
634.000	394.294	79.983	19.993	100.062	19.503	36.986	0.503
636.000	395.371	79.982	19.992	100.059	19.544	33.661	0.548
638.000	396.320	79.981	19.993	100.049	19.584	30.462	0.509
640.000	397.353	79.980	19.992	100.043	19.611	28.344	0.493
642.000	398.373	79.981	19.993	100.032	19.647	25.441	0.531
644.000	399.430	79.981	19.991	100.031	19.673	23.359	0.529
646.000	400.381	79.981	19.993	100.031	19.699	21.196	0.495
648.000	401.453	79.983	19.992	100.031	19.725	19.131	0.538
650.000	402.429	79.983	19.992	100.032	19.743	17.715	0.505
652.000	403.444	79.981	19.993	100.038	19.761	16.270	0.511
654.000	404.394	79.982	19.993	100.032	19.775	15.102	0.459
656.000	405.453	79.982	19.992	100.032	19.787	14.178	0.537
658.000	406.437	79.981	19.992	100.033	19.798	13.246	0.527
660.000	407.424	79.981	19.992	100.032	19.803	12.836	0.486
662.000	408.452	79.981	19.992	100.033	19.811	12.210	0.488
664.000	409.499	79.981	19.992	100.035	19.816	11.794	0.517
666.000	410.497	79.981	19.992	100.034	19.821	11.436	0.510
668.000	411.518	79.981	19.992	100.034	19.825	11.059	0.525
670.000	412.501	79.983	19.992	100.034	19.826	10.989	0.530
672.000	413.484	79.981	19.992	100.034	19.829	10.805	0.495
674.000	414.456	79.979	19.992	100.035	19.829	10.774	0.488
676.000	415.488	79.982	19.992	100.033	19.832	10.503	0.496
678.000	416.491	79.983	19.992	100.036	19.837	10.165	0.511
680.000	417.505	79.984	19.992	100.030	19.838	10.079	0.549
682.000	418.451	79.984	19.992	100.031	19.840	9.908	0.464
684.000	419.502	79.985	19.992	100.030	19.839	9.955	0.498
686.000	420.490	79.984	19.992	100.028	19.843	9.660	0.499
688.000	421.492	79.983	19.991	100.029	19.842	9.732	0.474
690.000	422.471	79.983	19.992	100.030	19.845	9.511	0.464
692.000	423.522	79.984	19.992	100.030	19.842	9.690	0.500
694.000	424.588	79.982	19.992	100.030	19.842	9.753	0.500
696.000	425.594	79.983	19.992	100.027	19.847	9.317	0.509
698.000	426.542	79.983	19.993	100.030	19.854	8.744	0.449
700.000	427.623	79.983	19.993	100.029	19.854	8.772	0.532
702.000	428.649	79.985	19.993	100.029	19.846	9.387	0.517
704.000	429.725	79.986	19.992	100.024	19.845	9.483	0.539
706.000	430.631	79.985	19.992	100.022	19.854	8.744	0.480
708.000	431.737	79.986	19.992	100.025	19.856	8.624	0.540
710.000	432.681	79.985	19.992	100.030	19.854	8.750	0.459
712.000	433.933	79.984	19.993	100.031	19.858	8.451	0.637
714.000	434.972	79.985	19.993	100.031	19.857	8.527	0.564
716.000	435.409	79.982	19.993	100.029	19.859	8.334	0.455
718.000	436.456	79.981	19.994	100.030	19.858	8.442	0.377
720.000	437.802	79.981	19.993	100.028	19.863	8.078	0.488
722.000	438.887	79.981	19.993	100.029	19.862	8.100	0.476
724.000	439.813	79.981	19.994	100.030	19.866	7.838	0.478
726.000	440.858	79.980	19.993	100.031	19.865	7.874	0.479
728.000	441.940	79.980	19.993	100.032	19.865	7.900	0.424
730.000	442.936	79.981	19.993	100.033	19.870	7.495	0.511
732.000	443.994	79.981	19.993	100.031	19.867	7.751	0.485
734.000	444.991	79.982	19.992	100.033	19.864	7.957	0.534
736.000	446.047	79.981	19.992	100.030	19.866	7.798	0.489
738.000	447.085	79.981	19.993	100.027	19.871	7.430	0.528
740.000	448.086	79.982	19.992	100.023	19.869	7.560	0.515
742.000	449.213	79.982	19.992	100.031	19.867	7.753	0.538
744.000	450.183	79.982	19.992	100.030	19.869	7.571	0.536
746.000	451.236	79.980	19.992	100.025	19.869	7.580	0.553
748.001	452.244	79.981	19.992	100.028	19.874	7.128	0.503
750.000	453.229	79.980	19.992	100.030	19.874	7.146	0.491
752.000	454.301	79.982	19.993	100.030	19.876	7.005	0.494
754.000	455.306	79.982	19.991	100.031	19.878	6.833	0.528
756.000	456.305	79.981	19.992	100.030	19.877	6.913	0.474
758.000	457.355	79.982	19.993	100.028	19.878	6.816	0.541
760.000	458.386	79.984	19.992	100.026	19.879	6.786	0.504
762.000	459.431	79.984	19.992	100.031	19.880	6.691	0.491
764.000	460.451	79.984	19.992	100.016	19.881	6.608	0.513
766.000	461.486	79.983	19.992	100.015	19.882	6.550	0.530
768.000	462.506	79.984	19.992	100.008	19.883	6.426	0.512
770.000	463.512	79.984	19.992	100.021	19.888	5.993	0.519
772.000	464.534	79.982	19.992	100.025	19.887	6.075	0.493
774.000	465.542	79.983	19.992	100.023	19.889	5.987	0.485
776.000	466.571	79.982	19.993	100.025	19.886	6.156	0.540
778.000	467.606	79.981	19.992	100.026	19.888	6.016	0.501
780.000	468.610	79.984	19.993	100.022	19.890	5.869	0.498
782.000	469.683	79.984	19.993	100.026	19.891	5.798	0.526
784.000	470.723	79.984	19.992	100.031	19.890	5.858	0.536
786.000	471.731	79.983	19.993	100.030	19.892	5.676	0.498
788.000	472.785	79.984	19.992	100.023	19.896	5.422	0.518
790.000	473.848	79.986	19.993	100.021	19.893	5.657	0.549
792.000	474.880	79.985	19.993	100.023	19.893	5.605	0.513
794.000	475.865	79.984	19.992	100.021	19.900	5.059	0.497
796.000	476.889	79.981	19.992	100.025	19.900	5.033	0.503
798.000	477.919	79.981	19.992	100.014	19.899	5.119	0.530
800.000	478.933	79.982	19.993	100.022	19.899	5.156	0.529
802.000	479.962	79.981	19.993	100.026	19.895	5.485	0.496
804.000	481.030	79.981	19.993	100.032	19.900	5.074	0.534
806.000	482.032	79.981	19.993	100.024	19.900	5.041	0.516
808.000	483.065	79.982	19.994	100.023	19.901	4.987	0.537
810.000	484.113	79.981	19.994	100.024	19.902	4.911	0.516
812.000	485.098	79.981	19.994	100.024	19.907	4.531	0.507
814.000	486.146	79.980	19.994	100.018	19.906	4.562	0.536
816.000	487.131	79.982	19.993	100.024	19.906	4.606	0.504
818.000	488.228	79.982	19.992	100.012	19.905	4.637	0.543
820.000	489.234	79.982	19.992	100.017	19.907	4.463	0.527
822.000	490.283	79.980	19.992	100.011	19.907	4.529	0.515
824.000	491.268	79.982	19.992	100.010	19.905	4.644	0.508
826.000	492.320	79.982	19.992	99.975	19.905	4.654	0.526
828.000	493.364	79.981	19.992	99.984	19.908	4.432	0.519
830.000	494.412	79.982	19.993	100.075	19.908	4.419	0.540
832.000	495.418	79.981	19.992	100.011	19.910	4.245	0.529
834.000	496.472	79.980	19.992	100.012	19.909	4.303	0.528
836.000	497.446	79.981	19.992	100.011	19.912	4.079	0.489
838.000	498.468	79.982	19.993	100.012	19.914	3.973	0.516
840.000	499.504	79.982	19.992	100.017	19.913	4.031	0.522
842.000	500.534	79.982	19.992	100.010	19.911	4.217	0.505
844.000	501.508	79.983	19.993	100.007	19.914	3.970	0.508
846.000	502.584	79.983	19.993	100.005	19.914	3.977	0.536
848.000	503.558	79.984	19.993	100.021	19.917	3.727	0.510
850.000	504.595	79.982	19.993	100.015	19.918	3.639	0.512
852.000	505.603	79.983	19.992	100.011	19.914	3.912	0.488
854.000	506.609	79.982	19.993	100.016	19.918	3.576	0.501
856.000	507.619	79.982	19.992	100.023	19.920	3.463	0.478
858.000	508.632	79.982	19.991	100.014	19.913	4.015	0.537
860.000	509.648	79.983	19.993	100.010	19.914	3.925	0.502
862.000	510.647	79.983	19.992	100.027	19.913	4.006	0.510
864.000	511.667	79.984	19.992	100.012	19.917	3.716	0.521
866.000	512.666	79.983	19.993	100.019	19.919	3.545	0.510
868.000	513.666	79.984	19.992	100.006	19.918	3.641	0.511
870.000	514.695	79.984	19.993	100.019	19.918	3.595	0.490
872.000	515.689	79.984	19.993	100.001	19.917	3.669	0.492
874.000	516.725	79.983	19.993	99.998	19.915	3.836	0.523
876.000	517.784	79.983	19.993	100.002	19.920	3.476	0.510
878.000	518.843	79.983	19.992	100.017	19.919	3.550	0.544
880.000	519.838	79.982	19.994	100.010	19.919	3.552	0.508
882.000	520.870	79.981	19.993	100.003	19.913	4.039	0.532
884.000	521.892	79.983	19.993	100.018	19.919	3.573	0.522
886.000	522.905	79.983	19.993	100.020	19.917	3.730	0.519
888.000	523.946	79.981	19.993	100.019	19.918	3.630	0.507
890.000	524.958	79.982	19.993	100.004	19.915	3.855	0.503
892.000	525.997	79.980	19.993	100.014	19.914	3.902	0.524
894.000	527.044	79.982	19.993	100.004	19.917	3.708	0.524
896.000	528.063	79.980	19.994	100.008	19.916	3.784	0.534
898.000	529.095	79.983	19.993	100.009	19.917	3.707	0.536
900.000	530.129	79.981	19.993	99.996	19.917	3.723	0.519
902.000	531.170	79.981	19.994	100.000	19.917	3.699	0.531
904.000	532.162	79.981	19.992	100.007	19.919	3.495	0.489
906.000	533.191	79.980	19.992	100.013	19.916	3.784	0.513
908.000	534.223	79.982	19.993	100.009	19.917	3.702	0.525
910.000	535.322	79.981	19.992	100.002	19.918	3.617	0.560
912.000	536.305	79.982	19.992	100.010	19.918	3.599	0.479
914.000	537.302	79.982	19.993	100.006	19.919	3.559	0.512
916.000	538.333	79.980	19.992	100.003	19.919	3.571	0.460
918.000	539.418	79.982	19.993	100.008	19.920	3.424	0.520
920.000	540.437	79.982	19.993	100.009	19.921	3.402	0.529
922.000	541.448	79.982	19.993	100.001	19.915	3.831	0.503
924.000	542.458	79.982	19.992	100.007	19.920	3.419	0.492
926.000	543.543	79.984	19.993	100.012	19.922	3.293	0.541
928.000	544.551	79.983	19.992	100.010	19.921	3.359	0.528
930.000	545.529	79.984	19.993	100.007	19.922	3.298	0.495
932.000	546.598	79.983	19.992	100.005	19.922	3.315	0.540
934.000	547.619	79.982	19.992	99.999	19.919	3.567	0.528
936.000	548.672	79.983	19.992	99.998	19.922	3.261	0.521
938.000	549.685	79.984	19.992	99.999	19.916	3.753	0.501
940.000	550.727	79.984	19.992	99.999	19.916	3.790	0.537
942.000	551.776	79.983	19.993	99.994	19.920	3.493	0.530
944.000	552.791	79.983	19.991	99.996	19.920	3.415	0.526
946.000	553.823	79.983	19.992	100.004	19.917	3.734	0.504
948.000	554.885	79.983	19.991	100.002	19.914	3.902	0.518
950.000	555.876	79.984	19.992	100.009	19.921	3.389	0.477
952.000	556.921	79.984	19.992	99.997	19.923	3.218	0.507
954.000	557.918	79.983	19.993	99.998	19.922	3.255	0.485
956.000	558.992	79.983	19.992	100.001	19.922	3.291	0.527
958.000	560.058	79.983	19.993	100.007	19.922	3.268	0.523
960.000	561.027	79.981	19.993	99.995	19.923	3.209	0.464
962.000	562.092	79.981	19.993	100.002	19.926	2.966	0.530
964.000	563.108	79.981	19.994	100.011	19.927	2.893	0.511
966.000	564.151	79.982	19.992	100.001	19.926	2.975	0.485
968.000	565.181	79.981	19.992	99.998	19.925	3.057	0.501
970.000	566.237	79.982	19.993	100.005	19.927	2.867	0.533
972.001	567.227	79.983	19.992	100.006	19.925	3.055	0.505
974.000	568.310	79.982	19.992	100.000	19.926	2.992	0.533
976.000	569.325	79.981	19.994	100.018	19.925	3.060	0.519
978.000	570.349	79.981	19.994	99.998	19.925	3.064	0.518
980.000	571.381	79.981	19.993	99.995	19.929	2.765	0.519
982.000	572.407	79.982	19.994	99.992	19.926	2.953	0.489
984.000	573.462	79.982	19.993	99.993	19.923	3.183	0.529
986.000	574.527	79.981	19.993	100.005	19.927	2.904	0.548
988.000	575.556	79.980	19.994	100.000	19.925	3.014	0.501
990.000	576.563	79.979	19.993	99.997	19.926	2.966	0.499
992.000	577.554	79.981	19.993	100.000	19.932	2.498	0.496
994.000	578.620	79.980	19.993	100.000	19.927	2.901	0.507
996.000	579.632	79.981	19.992	99.994	19.925	3.070	0.512
998.000	580.673	79.981	19.992	100.004	19.926	2.990	0.513
1000.000	581.682	79.982	19.992	99.996	19.927	2.890	0.520
1002.000	582.685	79.984	19.994	100.000	19.925	3.055	0.512
1004.000	583.708	79.985	19.993	99.996	19.927	2.860	0.506
1006.000	584.719	79.984	19.994	99.993	19.926	2.995	0.505
1008.000	585.760	79.983	19.992	99.992	19.927	2.899	0.520
1010.000	586.756	79.983	19.991	99.997	19.927	2.876	0.524
1012.000	587.750	79.982	19.993	99.993	19.927	2.895	0.494
1014.000	588.769	79.982	19.993	99.992	19.928	2.827	0.475
1016.000	589.803	79.983	19.993	100.002	19.927	2.877	0.512
1018.000	590.824	79.981	19.993	99.996	19.926	2.979	0.505
1020.000	591.838	79.983	19.992	100.003	19.924	3.144	0.513
1022.000	592.835	79.983	19.992	100.005	19.932	2.524	0.498
1024.000	593.934	79.982	19.992	99.991	19.926	2.958	0.547
1026.000	594.946	79.984	19.992	99.993	19.928	2.830	0.502
1028.000	595.949	79.985	19.993	99.994	19.930	2.676	0.497
1030.000	596.938	79.987	19.992	99.998	19.929	2.726	0.499
1032.000	597.984	79.984	19.991	99.999	19.926	2.981	0.526
1034.000	599.000	79.983	19.991	99.996	19.925	3.053	0.512
1036.000	600.034	79.983	19.993	99.994	19.927	2.873	0.523
1038.000	601.064	79.982	19.992	99.996	19.923	3.187	0.530
1040.000	602.044	79.984	19.994	100.005	19.928	2.795	0.466
1042.000	603.132	79.982	19.993	99.993	19.927	2.856	0.532
1044.000	604.111	79.981	19.994	99.996	19.928	2.847	0.511
1046.000	605.152	79.983	19.993	99.995	19.925	3.079	0.528
1048.000	606.158	79.982	19.994	100.007	19.928	2.834	0.501
1050.001	607.127	79.982	19.993	99.994	19.931	2.596	0.486
1052.000	608.156	79.982	19.992	99.997	19.932	2.463	0.496
1054.001	609.181	79.980	19.993	99.994	19.925	3.042	0.494
1056.000	610.226	79.981	19.992	99.995	19.933	2.409	0.525
1058.000	611.233	79.983	19.994	99.993	19.930	2.630	0.487
1060.000	612.253	79.981	19.994	99.992	19.933	2.411	0.507
1062.000	613.281	79.983	19.993	99.990	19.933	2.398	0.529
1064.000	614.295	79.982	19.993	99.990	19.934	2.329	0.518
1066.000	615.325	79.982	19.994	99.996	19.928	2.773	0.513
1068.000	616.303	79.980	19.992	99.997	19.928	2.778	0.465
1070.000	617.378	79.980	19.993	99.991	19.926	3.007	0.543
1072.000	618.388	79.981	19.994	99.991	19.930	2.665	0.511
1074.001	619.384	79.980	19.994	99.992	19.928	2.791	0.499
1076.001	620.405	79.981	19.995	99.990	19.927	2.893	0.495
1078.000	621.421	79.983	19.995	99.989	19.929	2.708	0.488
1080.001	622.444	79.981	19.994	99.990	19.928	2.775	0.523
1082.000	623.456	79.983	19.992	99.990	19.928	2.782	0.512
1084.000	624.459	79.983	19.993	99.995	19.930	2.667	0.508
1086.000	625.513	79.983	19.993	99.992	19.932	2.487	0.529
1088.000	626.514	79.983	19.991	99.998	19.930	2.682	0.525
1090.000	627.531	79.983	19.993	99.991	19.929	2.719	0.508
1092.000	628.544	79.983	19.993	99.993	19.934	2.292	0.499
1094.000	629.589	79.983	19.993	99.992	19.933	2.383	0.506
1096.000	630.603	79.983	19.993	99.993	19.927	2.901	0.525
1098.001	631.609	79.983	19.993	99.992	19.931	2.581	0.464
1100.000	632.656	79.983	19.993	99.995	19.930	2.667	0.547
1102.000	633.743	79.983	19.991	99.994	19.929	2.767	0.527
1104.001	634.732	79.984	19.992	99.991	19.934	2.295	0.512
1106.001	635.780	79.985	19.991	99.990	19.930	2.639	0.496
1108.000	636.785	79.984	19.992	99.998	19.931	2.542	0.487
1110.000	637.797	79.984	19.992	99.994	19.930	2.656	0.479
1112.000	638.862	79.984	19.992	99.989	19.933	2.414	0.507
1114.001	639.829	79.984	19.991	99.993	19.930	2.689	0.477
1116.001	640.885	79.984	19.992	99.994	19.931	2.568	0.507
1118.000	641.892	79.983	19.993	99.995	19.930	2.678	0.507
1120.001	642.898	79.981	19.993	99.992	19.928	2.849	0.525
1122.001	643.896	79.983	19.993	99.992	19.931	2.537	0.508
1124.000	644.892	79.983	19.993	99.993	19.928	2.795	0.502
1126.000	645.930	79.981	19.993	99.994	19.929	2.762	0.530
1128.001	646.920	79.982	19.993	99.991	19.933	2.370	0.522
1130.001	647.954	79.983	19.993	99.999	19.931	2.570	0.514
1132.000	648.930	79.982	19.993	99.998	19.932	2.515	0.481
1134.001	649.988	79.982	19.992	99.991	19.931	2.574	0.500
1136.000	651.050	79.982	19.993	99.991	19.929	2.691	0.559
1138.000	651.953	79.982	19.993	99.995	19.929	2.695	0.497
1140.000	652.990	79.982	19.994	99.997	19.933	2.372	0.506
1142.001	654.065	79.983	19.993	99.989	19.932	2.481	0.501
1144.000	655.096	79.981	19.993	99.990	19.933	2.401	0.526
1146.000	656.077	79.983	19.993	99.989	19.933	2.414	0.480
1148.000	657.121	79.982	19.992	99.982	19.931	2.578	0.512
1150.000	658.122	79.981	19.993	99.984	19.933	2.431	0.498
1152.001	659.169	79.981	19.993	99.987	19.930	2.689	0.530
1154.001	660.188	79.982	19.993	99.993	19.931	2.531	0.493
1156.000	661.184	79.981	19.993	99.993	19.931	2.550	0.457
1158.000	662.241	79.982	19.994	99.991	19.930	2.611	0.522
1160.000	663.260	79.982	19.993	99.993	19.929	2.717	0.509
1162.000	664.319	79.983	19.992	99.992	19.933	2.373	0.546
1164.001	665.364	79.982	19.993	99.991	19.934	2.351	0.541
1166.001	666.359	79.983	19.993	99.989	19.932	2.500	0.514
1168.000	667.348	79.983	19.995	99.991	19.929	2.743	0.503
1170.000	668.400	79.983	19.994	99.993	19.933	2.422	0.542
1172.000	669.437	79.983	19.993	99.994	19.929	2.747	0.498
1174.000	670.434	79.981	19.991	99.992	19.931	2.583	0.528
1176.000	671.476	79.981	19.992	99.993	19.926	2.944	0.518
1178.000	672.525	79.982	19.993	99.993	19.927	2.886	0.508
1180.000	673.520	79.983	19.991	99.994	19.929	2.765	0.500
1182.000	674.596	79.983	19.992	99.992	19.930	2.684	0.538
1184.000	675.689	79.984	19.992	99.988	19.928	2.773	0.556
1186.000	676.646	79.985	19.991	99.987	19.932	2.468	0.500
1188.000	677.672	79.985	19.991	99.988	19.931	2.608	0.537
1190.000	678.716	79.985	19.991	99.989	19.930	2.684	0.530
1192.000	679.702	79.986	19.991	99.988	19.931	2.567	0.518
1194.000	680.768	79.984	19.991	99.985	19.931	2.571	0.538
1196.000	681.785	79.982	19.992	99.984	19.933	2.385	0.503
1198.000	682.793	79.982	19.992	99.987	19.934	2.368	0.535
1200.000	683.804	79.982	19.993	99.987	19.930	2.669	0.515
1202.000	684.844	79.982	19.993	99.971	19.929	2.715	0.499
1204.000	685.883	79.981	19.992	99.977	19.929	2.704	0.535
1206.000	686.880	79.982	19.992	99.982	19.930	2.680	0.481
1208.000	687.901	79.982	19.991	99.991	19.930	2.626	0.517
1210.000	688.913	79.983	19.993	99.987	19.926	2.962	0.499
1212.000	689.958	79.983	19.992	99.991	19.929	2.767	0.509
1214.000	690.988	79.982	19.992	99.991	19.930	2.632	0.487
1216.000	691.987	79.982	19.992	99.989	19.927	2.886	0.485
1218.000	693.017	79.982	19.993	99.990	19.929	2.739	0.501
1220.000	694.025	79.982	19.993	99.985	19.925	3.061	0.496
1222.000	695.058	79.983	19.993	99.992	19.920	3.445	0.514
1224.000	696.064	79.983	19.993	99.982	19.926	2.946	0.500
1226.001	697.057	79.984	19.994	99.987	19.929	2.719	0.502
1228.001	698.086	79.982	19.992	99.993	19.925	3.055	0.515
1230.000	699.086	79.981	19.992	99.986	19.920	3.434	0.525
1232.001	700.046	79.983	19.992	99.991	19.924	3.105	0.470
1234.000	701.069	79.982	19.993	99.985	19.929	2.752	0.540
1236.001	702.035	79.982	19.992	99.983	19.926	3.007	0.484
1238.000	703.026	79.982	19.993	99.991	19.930	2.628	0.491
1240.000	704.065	79.982	19.992	99.985	19.927	2.924	0.516
1242.000	705.027	79.983	19.993	99.983	19.928	2.797	0.471
1244.000	706.018	79.983	19.992	99.992	19.928	2.834	0.482
1246.000	707.057	79.982	19.991	99.985	19.922	3.256	0.508
1248.000	708.082	79.982	19.993	99.986	19.928	2.780	0.523
1250.000	709.067	79.981	19.994	99.977	19.927	2.858	0.511
1252.000	710.067	79.984	19.994	99.980	19.929	2.710	0.480
1254.000	711.082	79.981	19.992	99.983	19.927	2.871	0.482
1256.001	712.136	79.983	19.993	99.980	19.930	2.687	0.515
1258.000	713.137	79.983	19.993	99.988	19.930	2.676	0.518
1260.001	714.151	79.983	19.992	99.987	19.926	2.973	0.479
1262.000	715.207	79.984	19.991	99.983	19.928	2.823	0.521
1264.000	716.252	79.984	19.991	99.988	19.933	2.435	0.518
1266.000	717.327	79.985	19.992	99.990	19.931	2.541	0.542
1268.000	718.349	79.985	19.991	99.990	19.927	2.881	0.534
1270.000	719.358	79.985	19.990	99.992	19.927	2.879	0.513
1272.000	720.437	79.984	19.991	99.987	19.927	2.901	0.525
1274.000	721.467	79.984	19.992	99.988	19.927	2.897	0.562
1276.000	722.472	79.984	19.993	99.989	19.924	3.170	0.504
1278.000	723.451	79.983	19.992	99.984	19.928	2.845	0.496
1280.000	724.505	79.982	19.992	99.968	19.929	2.699	0.494
1282.000	725.515	79.982	19.993	99.989	19.930	2.626	0.511
1284.000	726.488	79.983	19.992	99.991	19.931	2.561	0.509
1286.000	727.507	79.983	19.994	99.993	19.929	2.699	0.516
1288.000	728.516	79.982	19.991	99.988	19.923	3.240	0.485
1290.000	729.538	79.982	19.991	99.988	19.929	2.725	0.518
1292.000	730.559	79.982	19.991	99.981	19.929	2.745	0.502
1294.000	731.557	79.981	19.992	99.981	19.920	3.462	0.512
1296.000	732.595	79.982	19.993	99.991	19.931	2.602	0.503
1298.001	733.601	79.982	19.992	99.971	19.924	3.102	0.521
1300.000	734.601	79.983	19.991	99.975	19.926	2.968	0.493
1302.001	735.600	79.981	19.991	99.981	19.926	2.949	0.499
1304.000	736.605	79.981	19.991	99.991	19.925	3.014	0.499
1306.000	737.584	79.981	19.992	99.992	19.925	3.046	0.501
1308.001	738.564	79.981	19.992	99.990	19.925	3.080	0.497
1310.001	739.617	79.983	19.993	99.986	19.924	3.128	0.516
1312.000	740.592	79.981	19.994	99.992	19.927	2.914	0.475
1314.000	741.590	79.982	19.994	99.988	19.934	2.325	0.506
1316.000	742.579	79.983	19.995	99.982	19.924	3.161	0.489
1318.000	743.582	79.981	19.993	99.969	19.922	3.308	0.510