File: 01_Data/LW_GypBoard_Gypsum_Core/STA/N2/30K_min/Lw_Gypsum_Core_STA_N2_30KData_222502_R1.csv
##Temp./Â°C,Time/min,Mass loss(subtr.2)/mg,DSC(subtr.2)/(mW/mg),Sensit./(uV/mW)
48.686,10.00583,-0.03784,0.0131148,1.08898
49.386,10.54898,-0.04454231,0.05687336,1.08839
50.086,10.67683,-0.04513186,0.0953247,1.0878
50.786,10.7661,-0.044873,0.13005,1.08721
51.486,10.83897,-0.04421116,0.16023,1.08663
52.186,10.90133,-0.04286261,0.19066,1.08604
52.886,10.95867,-0.04388434,0.2161,1.08545
53.586,11.00985,-0.0432228,0.24044,1.08486
54.286,11.0572,-0.04410472,0.26393,1.08428
54.986,11.10246,-0.04145567,0.28553,1.0837
55.686,11.14586,-0.04048133,0.30693,1.08311
56.386,11.1866,-0.04379691,0.3284,1.08253
57.086,11.22558,-0.04537779,0.3478,1.08195
57.786,11.26293,-0.04626849,0.36643,1.08137
58.486,11.299,-0.04539937,0.38339,1.08079
59.186,11.33416,-0.04554639,0.40098,1.08021
59.886,11.36825,-0.04581408,0.41744,1.07963
60.586,11.40155,-0.04478695,0.4332,1.07905
61.286,11.43417,-0.04361422,0.44816,1.07847
61.986,11.46622,-0.04432663,0.46153,1.0779
62.686,11.49756,-0.04718632,0.47568,1.07732
63.386,11.52822,-0.04759571,0.48972,1.07675
64.086,11.55862,-0.04870265,0.50435,1.07618
64.786,11.5886,-0.04963969,0.51601,1.0756
65.486,11.61783,-0.04865478,0.52976,1.07503
66.186,11.64685,-0.04908559,0.54482,1.07446
66.886,11.67566,-0.0475986,0.55549,1.07389
67.586,11.70415,-0.04624751,0.56766,1.07332
68.286,11.7323,-0.04652809,0.57848,1.07275
68.986,11.76016,-0.04679392,0.58842,1.07219
69.686,11.78766,-0.0480125,0.60034,1.07162
70.386,11.81494,-0.04945413,0.61159,1.07105
71.086,11.84206,-0.04931144,0.62241,1.07049
71.786,11.8691,-0.04868877,0.63279,1.06993
72.486,11.89593,-0.04777145,0.64405,1.06936
73.186,11.92264,-0.04608509,0.65465,1.0688
73.886,11.9491,-0.04578718,0.66641,1.06824
74.586,11.97547,-0.04592943,0.67523,1.06768
75.286,12.00152,-0.0458157,0.68429,1.06712
75.986,12.0276,-0.04576567,0.69386,1.06656
76.686,12.0535,-0.04580533,0.70297,1.066
77.386,12.0794,-0.04489246,0.71351,1.06544
78.086,12.10501,-0.04602707,0.72255,1.06489
78.786,12.13066,-0.04587808,0.73367,1.06433
79.486,12.15623,-0.04723028,0.74467,1.06378
80.186,12.18174,-0.04688282,0.7549,1.06322
80.886,12.20693,-0.04782928,0.76454,1.06267
81.586,12.23206,-0.04891904,0.77341,1.06212
82.286,12.25714,-0.04886917,0.7872,1.06157
82.986,12.28218,-0.0502263,0.79984,1.06102
83.686,12.30707,-0.05022213,0.81061,1.06047
84.386,12.33186,-0.05167331,0.82119,1.05992
85.086,12.3566,-0.05297508,0.83185,1.05937
85.786,12.38138,-0.05407657,0.84609,1.05882
86.486,12.40602,-0.05397928,0.85808,1.05827
87.186,12.4305,-0.05524544,0.86926,1.05773
87.886,12.45491,-0.05619692,0.88073,1.05718
88.586,12.47938,-0.05627406,0.89416,1.05664
89.286,12.50376,-0.0562846,0.90787,1.0561
89.986,12.5281,-0.05709538,0.92117,1.05556
90.686,12.55222,-0.0562723,0.93542,1.05501
91.386,12.5764,-0.0564059,0.95014,1.05447
92.086,12.60052,-0.05635651,0.96329,1.05393
92.786,12.62457,-0.05769779,0.98085,1.05339
93.486,12.64865,-0.05893002,0.99549,1.05286
94.186,12.67267,-0.05947438,1.01333,1.05232
94.886,12.69675,-0.06054289,1.02959,1.05178
95.586,12.72073,-0.0610259,1.0494,1.05125
96.286,12.74467,-0.06186133,1.06714,1.05071
96.986,12.7685,-0.06154954,1.08724,1.05018
97.686,12.79222,-0.06153998,1.10953,1.04965
98.386,12.8159,-0.06153646,1.13249,1.04911
99.086,12.83971,-0.06226836,1.15537,1.04858
99.786,12.8636,-0.06281147,1.18052,1.04805
100.486,12.88752,-0.06426739,1.20714,1.04752
101.186,12.91134,-0.06547551,1.23292,1.04699
101.886,12.93506,-0.06547993,1.26454,1.04646
102.586,12.9587,-0.06548,1.29945,1.04594
103.286,12.98235,-0.06548,1.33091,1.04541
103.986,13.00595,-0.06548,1.36376,1.04488
104.686,13.02962,-0.06547633,1.40049,1.04436
105.386,13.05332,-0.06624215,1.43821,1.04384
106.086,13.07709,-0.06680759,1.47502,1.04331
106.786,13.10089,-0.06794734,1.51494,1.04279
107.486,13.12459,-0.06926138,1.55539,1.04227
108.186,13.1482,-0.07136639,1.5956,1.04175
108.886,13.1718,-0.07396822,1.63666,1.04123
109.586,13.19539,-0.07642317,1.68088,1.04071
110.286,13.219,-0.0795148,1.72175,1.04019
110.986,13.24235,-0.08248946,1.76411,1.03967
111.686,13.26591,-0.08602256,1.80871,1.03916
112.386,13.28948,-0.08912536,1.85178,1.03864
113.086,13.31335,-0.09258917,1.89875,1.03812
113.786,13.3371,-0.09498345,1.9431,1.03761
114.486,13.36059,-0.09881949,1.98975,1.0371
115.186,13.3842,-0.10173,2.04,1.03658
115.886,13.4077,-0.10599,2.09442,1.03607
116.586,13.4313,-0.10899,2.15254,1.03556
117.286,13.4548,-0.11391,2.22141,1.03505
117.986,13.47836,-0.11813,2.30931,1.03454
118.686,13.5017,-0.12065,2.42065,1.03403
119.386,13.525,-0.12401,2.57455,1.03352
120.086,13.54851,-0.1282,2.74546,1.03302
120.786,13.57223,-0.13321,2.92194,1.03251
121.486,13.5961,-0.13851,3.11174,1.032
122.186,13.6196,-0.14388,3.3045,1.0315
122.886,13.64321,-0.15023,3.50611,1.031
123.586,13.6669,-0.15676,3.71839,1.03049
124.286,13.69051,-0.16352,3.93561,1.02999
124.986,13.7142,-0.17118,4.16559,1.02949
125.686,13.73776,-0.17909,4.40139,1.02899
126.386,13.7615,-0.18684,4.65053,1.02849
127.086,13.7851,-0.19687,4.90578,1.02799
127.786,13.8088,-0.20643,5.17272,1.02749
128.486,13.83249,-0.21619,5.44616,1.02699
129.186,13.8562,-0.22589,5.73238,1.0265
129.886,13.87996,-0.23608,6.02241,1.026
130.586,13.90373,-0.24656,6.31749,1.02551
131.286,13.92746,-0.25964,6.62031,1.02501
131.986,13.9512,-0.27285,6.92111,1.02452
132.686,13.97502,-0.28461,7.2195,1.02402
133.386,13.99886,-0.29829,7.51515,1.02353
134.086,14.02275,-0.31309,7.79985,1.02304
134.786,14.04665,-0.32898,8.06862,1.02255
135.486,14.0705,-0.34425,8.31216,1.02206
136.186,14.09433,-0.35873,8.52764,1.02157
136.886,14.11803,-0.37459,8.70945,1.02108
137.586,14.1418,-0.39199,8.85189,1.0206
138.286,14.16565,-0.40879,8.94566,1.02011
138.986,14.18949,-0.42388,8.99489,1.01962
139.686,14.21314,-0.43866,8.99304,1.01914
140.386,14.23676,-0.45418,8.935,1.01865
141.086,14.2602,-0.46927,8.82487,1.01817
141.786,14.28364,-0.48472,8.66346,1.01769
142.486,14.3069,-0.49832,8.45562,1.0172
143.186,14.3302,-0.51189,8.20436,1.01672
143.886,14.3531,-0.52331,7.94367,1.01624
144.586,14.37605,-0.53296,7.71827,1.01576
145.286,14.39891,-0.54296,7.55696,1.01528
145.986,14.4219,-0.55301,7.44912,1.01481
146.686,14.44459,-0.56202,7.38711,1.01433
147.386,14.4671,-0.56985,7.36108,1.01385
148.086,14.4895,-0.5787,7.35968,1.01337
148.786,14.51193,-0.58832,7.37842,1.0129
149.486,14.53444,-0.5971,7.41438,1.01242
150.186,14.55703,-0.60717,7.46287,1.01195
150.886,14.5796,-0.61816,7.51576,1.01148
151.586,14.6022,-0.62804,7.57777,1.01101
152.286,14.6248,-0.63851,7.63431,1.01053
152.986,14.6473,-0.65024,7.68706,1.01006
153.686,14.6698,-0.66059,7.71478,1.00959
154.386,14.69231,-0.67042,7.71499,1.00912
155.086,14.7148,-0.68171,7.65409,1.00866
155.786,14.7373,-0.6934,7.49095,1.00819
156.486,14.7597,-0.70303,7.162,1.00772
157.186,14.78209,-0.7145,6.70342,1.00725
157.886,14.8045,-0.72274,6.19206,1.00679
158.586,14.8267,-0.7292,5.68823,1.00632
159.286,14.84869,-0.7342,5.21342,1.00586
159.986,14.87055,-0.73834,4.77998,1.0054
160.686,14.89233,-0.74091,4.38243,1.00493
161.386,14.91402,-0.74344,4.02674,1.00447
162.086,14.93555,-0.74433,3.70378,1.00401
162.786,14.95703,-0.74557,3.41517,1.00355
163.486,14.9785,-0.74656,3.15664,1.00309
164.186,14.9999,-0.74797,2.92631,1.00263
164.886,15.02118,-0.74882,2.717,1.00217
165.586,15.04253,-0.7502,2.53359,1.00171
166.286,15.0638,-0.75015,2.36849,1.00126
166.986,15.08508,-0.75012,2.2204,1.0008
167.686,15.10638,-0.75146,2.08805,1.00034
168.386,15.1277,-0.75158,1.97119,0.99989
169.086,15.14895,-0.75289,1.86393,0.99943
169.786,15.17022,-0.7518,1.77201,0.99898
170.486,15.1915,-0.7529,1.68833,0.99853
171.186,15.21269,-0.75289,1.61349,0.99808
171.886,15.2339,-0.75423,1.54708,0.99762
172.586,15.25515,-0.75428,1.48628,0.99717
173.286,15.27648,-0.75576,1.43317,0.99672
173.986,15.29774,-0.75572,1.38641,0.99627
174.686,15.31892,-0.75706,1.34277,0.99583
175.386,15.34015,-0.75706,1.30278,0.99538
176.086,15.36149,-0.75706,1.26821,0.99493
176.786,15.38277,-0.75735,1.23796,0.99448
177.486,15.4042,-0.75838,1.21066,0.99404
178.186,15.42542,-0.75706,1.18216,0.99359
178.886,15.4466,-0.75705,1.15875,0.99315
179.586,15.46785,-0.75704,1.13746,0.99271
180.286,15.48904,-0.75826,1.11818,0.99226
180.986,15.5103,-0.75837,1.10154,0.99182
181.686,15.5316,-0.75837,1.08808,0.99138
182.386,15.55286,-0.75837,1.07155,0.99094
183.086,15.57409,-0.76034,1.0602,0.9905
183.786,15.5953,-0.76103,1.04847,0.99006
184.486,15.61648,-0.76213,1.03761,0.98962
185.186,15.63771,-0.76232,1.03001,0.98918
185.886,15.65895,-0.76232,1.01921,0.98874
186.586,15.68016,-0.76339,1.01085,0.9883
187.286,15.7013,-0.76364,1.00335,0.98787
187.986,15.7224,-0.76364,0.99764,0.98743
188.686,15.7436,-0.76364,0.98983,0.987
189.386,15.76485,-0.76363,0.98304,0.98656
190.086,15.78605,-0.76496,0.97789,0.98613
190.786,15.80732,-0.76496,0.97275,0.98569
191.486,15.82846,-0.76546,0.96635,0.98526
192.186,15.8496,-0.76617,0.96333,0.98483
192.886,15.87075,-0.76626,0.95874,0.9844
193.586,15.8919,-0.76758,0.95619,0.98397
194.286,15.9131,-0.76759,0.95196,0.98354
194.986,15.93435,-0.76767,0.94805,0.98311
195.686,15.95554,-0.76791,0.94389,0.98268
196.386,15.9767,-0.76789,0.94016,0.98225
197.086,15.99794,-0.76893,0.93918,0.98183
197.786,16.0192,-0.76923,0.93614,0.9814
198.486,16.04034,-0.76923,0.93271,0.98097
199.186,16.06149,-0.76923,0.9313,0.98055
199.886,16.08268,-0.76923,0.92639,0.98012
200.586,16.10386,-0.76923,0.92445,0.9797
201.286,16.12506,-0.76923,0.92214,0.97927
201.986,16.14626,-0.76923,0.92,0.97885
202.686,16.16744,-0.76923,0.92139,0.97843
203.386,16.18861,-0.76924,0.91626,0.97801
204.086,16.2098,-0.76813,0.91597,0.97759
204.786,16.23101,-0.7689,0.91488,0.97716
205.486,16.25216,-0.76891,0.91196,0.97674
206.186,16.2733,-0.76891,0.90869,0.97633
206.886,16.29445,-0.76891,0.90885,0.97591
207.586,16.31563,-0.76885,0.9097,0.97549
208.286,16.3367,-0.76953,0.90883,0.97507
208.986,16.3579,-0.77023,0.90474,0.97465
209.686,16.37902,-0.77022,0.90363,0.97424
210.386,16.40025,-0.77154,0.90348,0.97382
211.086,16.42146,-0.77153,0.90071,0.97341
211.786,16.4426,-0.77181,0.90097,0.97299
212.486,16.46376,-0.77284,0.89917,0.97258
213.186,16.48486,-0.77285,0.89764,0.97217
213.886,16.506,-0.77217,0.89419,0.97175
214.586,16.52712,-0.77154,0.89529,0.97134
215.286,16.5482,-0.77154,0.89459,0.97093
215.986,16.56941,-0.77154,0.89395,0.97052
216.686,16.59064,-0.77172,0.89257,0.97011
217.386,16.61194,-0.77285,0.89262,0.9697
218.086,16.63305,-0.77285,0.89171,0.96929
218.786,16.65421,-0.77285,0.89146,0.96888
219.486,16.67537,-0.77281,0.88882,0.96847
220.186,16.69651,-0.77421,0.88955,0.96806
220.886,16.7177,-0.77417,0.89054,0.96766
221.586,16.73883,-0.77416,0.88774,0.96725
222.286,16.76,-0.77552,0.88729,0.96684
222.986,16.7811,-0.77684,0.88651,0.96644
223.686,16.8022,-0.77814,0.88633,0.96603
224.386,16.82331,-0.77812,0.886,0.96563
225.086,16.84446,-0.7779,0.88339,0.96523
225.786,16.86564,-0.7768,0.88112,0.96482
226.486,16.8868,-0.7768,0.88456,0.96442
227.186,16.90793,-0.77666,0.88132,0.96402
227.886,16.92908,-0.77549,0.87988,0.96362
228.586,16.95014,-0.77548,0.87686,0.96322
229.286,16.97128,-0.77548,0.87993,0.96281
229.986,16.99241,-0.77548,0.87942,0.96241
230.686,17.01373,-0.77679,0.87921,0.96202
231.386,17.03489,-0.77673,0.87626,0.96162
232.086,17.05601,-0.77549,0.87454,0.96122
232.786,17.07711,-0.77422,0.877,0.96082
233.486,17.0982,-0.77417,0.87579,0.96042
234.186,17.11938,-0.77417,0.87552,0.96003
234.886,17.1405,-0.77417,0.87245,0.95963
235.586,17.1617,-0.77423,0.8716,0.95923
236.286,17.18274,-0.77672,0.8718,0.95884
236.986,17.20384,-0.7768,0.87086,0.95844
237.686,17.22495,-0.77679,0.87101,0.95805
238.386,17.24609,-0.77824,0.86982,0.95766
239.086,17.2672,-0.77906,0.86908,0.95726
239.786,17.2883,-0.77954,0.86753,0.95687
240.486,17.30947,-0.78077,0.86695,0.95648
241.186,17.33055,-0.78086,0.866,0.95609
241.886,17.3517,-0.78086,0.86525,0.9557
242.586,17.37282,-0.78086,0.86454,0.95531
243.286,17.394,-0.78086,0.86483,0.95491
243.986,17.4151,-0.78087,0.86227,0.95453
244.686,17.4362,-0.77963,0.86021,0.95414
245.386,17.45736,-0.77955,0.86099,0.95375
246.086,17.47849,-0.77982,0.86496,0.95336
246.786,17.4996,-0.78097,0.86057,0.95297
247.486,17.5207,-0.78144,0.86027,0.95258
248.186,17.54177,-0.78228,0.86032,0.9522
248.886,17.5628,-0.78229,0.85897,0.95181
249.586,17.58394,-0.78228,0.85941,0.95143
250.286,17.6051,-0.78422,0.85855,0.95104
250.986,17.6263,-0.78426,0.85779,0.95065
251.686,17.64742,-0.78426,0.85471,0.95027
252.386,17.66863,-0.78426,0.85226,0.94989
253.086,17.6898,-0.78442,0.85435,0.9495
253.786,17.71071,-0.78491,0.85413,0.94912
254.486,17.7318,-0.78491,0.85155,0.94874
255.186,17.75297,-0.78491,0.8499,0.94835
255.886,17.77427,-0.78603,0.85146,0.94797
256.586,17.79559,-0.78623,0.84937,0.94759
257.286,17.81674,-0.78623,0.84874,0.94721
257.986,17.83781,-0.78623,0.84794,0.94683
258.686,17.859,-0.78623,0.84784,0.94645
259.386,17.88005,-0.78623,0.84716,0.94607
260.086,17.90108,-0.78533,0.84475,0.94569
260.786,17.92217,-0.78491,0.84397,0.94531
261.486,17.94332,-0.78491,0.84327,0.94494
262.186,17.96445,-0.78491,0.84065,0.94456
262.886,17.98558,-0.78491,0.83936,0.94418
263.586,18.00664,-0.78491,0.8393,0.9438
264.286,18.02771,-0.78486,0.83569,0.94343
264.986,18.04873,-0.78358,0.837,0.94305
265.686,18.06985,-0.7836,0.83751,0.94267
266.386,18.09093,-0.7836,0.83377,0.9423
267.086,18.11201,-0.7836,0.83372,0.94192
267.786,18.13317,-0.7836,0.8301,0.94155
268.486,18.15419,-0.78349,0.83111,0.94118
269.186,18.17535,-0.78229,0.82923,0.9408
269.886,18.19651,-0.78228,0.82728,0.94043
270.586,18.21769,-0.78228,0.82789,0.94006
271.286,18.2389,-0.78228,0.82592,0.93968
271.986,18.26,-0.78333,0.82529,0.93931
272.686,18.28104,-0.7836,0.82365,0.93894
273.386,18.30215,-0.7836,0.82042,0.93857
274.086,18.32323,-0.7836,0.81929,0.9382
274.786,18.34437,-0.78358,0.8206,0.93783
275.486,18.36554,-0.78491,0.81806,0.93746
276.186,18.3867,-0.78493,0.81722,0.93709
276.886,18.40786,-0.7846,0.81596,0.93672
277.586,18.42902,-0.78459,0.81272,0.93635
278.286,18.4502,-0.78457,0.81222,0.93598
278.986,18.47138,-0.78589,0.80982,0.93561
279.686,18.49249,-0.78591,0.80813,0.93524
280.386,18.51365,-0.78721,0.80549,0.93488
281.086,18.53474,-0.78776,0.80461,0.93451
281.786,18.5559,-0.78853,0.80452,0.93414
282.486,18.57708,-0.78854,0.8005,0.93378
283.186,18.5983,-0.78944,0.80056,0.93341
283.886,18.61948,-0.78985,0.80038,0.93304
284.586,18.64068,-0.78986,0.80014,0.93268
285.286,18.6618,-0.79083,0.7987,0.93231
285.986,18.68286,-0.79117,0.79726,0.93195
286.686,18.704,-0.79117,0.79521,0.93158
287.386,18.7252,-0.79117,0.79342,0.93122
288.086,18.74646,-0.79117,0.79585,0.93086
288.786,18.7678,-0.79112,0.79147,0.93049
289.486,18.78894,-0.78983,0.79161,0.93013
290.186,18.81005,-0.79028,0.7885,0.92977
290.886,18.83118,-0.79106,0.7886,0.9294
291.586,18.8524,-0.79182,0.78985,0.92904
292.286,18.87365,-0.79249,0.78854,0.92868
292.986,18.89485,-0.79249,0.78683,0.92832
293.686,18.91606,-0.79249,0.78509,0.92796
294.386,18.93722,-0.79249,0.7845,0.9276
295.086,18.9584,-0.79249,0.78339,0.92724
295.786,18.97952,-0.79249,0.78033,0.92688
296.486,19.00062,-0.79246,0.78135,0.92652
297.186,19.02175,-0.79115,0.78101,0.92616
297.886,19.04296,-0.79117,0.77816,0.9258
298.586,19.0642,-0.79117,0.77888,0.92544
299.286,19.08543,-0.79117,0.77835,0.92508
299.986,19.10664,-0.79112,0.7787,0.92472
300.686,19.12772,-0.79018,0.77618,0.92436
301.386,19.149,-0.79018,0.77475,0.924
302.086,19.1702,-0.79018,0.77587,0.92365
302.786,19.19153,-0.79018,0.77606,0.92329
303.486,19.21278,-0.79018,0.7729,0.92293
304.186,19.234,-0.79018,0.77139,0.92258
304.886,19.2552,-0.79038,0.77324,0.92222
305.586,19.2764,-0.79149,0.77358,0.92186
306.286,19.2976,-0.7915,0.77148,0.92151
306.986,19.31885,-0.79246,0.77026,0.92115
307.686,19.34003,-0.79282,0.77397,0.9208
308.386,19.3612,-0.79282,0.77213,0.92044
309.086,19.38239,-0.79282,0.77038,0.92009
309.786,19.4036,-0.79299,0.76949,0.91973
310.486,19.4249,-0.79413,0.76901,0.91938
311.186,19.44612,-0.79413,0.77025,0.91902
311.886,19.46735,-0.79524,0.76744,0.91867
312.586,19.48858,-0.79545,0.77151,0.91832
313.286,19.50978,-0.79545,0.76865,0.91796
313.986,19.53111,-0.79545,0.76633,0.91761
314.686,19.55236,-0.79545,0.76703,0.91726
315.386,19.5736,-0.79538,0.76593,0.9169
316.086,19.5948,-0.79413,0.76672,0.91655
316.786,19.61606,-0.79305,0.76503,0.9162
317.486,19.63733,-0.79281,0.76338,0.91585
318.186,19.65861,-0.79281,0.76604,0.91549
318.886,19.6799,-0.79281,0.7667,0.91514
319.586,19.70127,-0.79281,0.76376,0.91479
320.286,19.72254,-0.79281,0.76394,0.91444
320.986,19.74381,-0.79281,0.76108,0.91409
321.686,19.7651,-0.79278,0.76006,0.91374
322.386,19.78632,-0.79412,0.76013,0.91339
323.086,19.80762,-0.79413,0.75921,0.91304
323.786,19.82892,-0.79437,0.7588,0.91269
324.486,19.8502,-0.79544,0.75593,0.91234
325.186,19.87144,-0.79545,0.75773,0.91199
325.886,19.89271,-0.79545,0.75692,0.91164
326.586,19.914,-0.79556,0.7542,0.91129
327.286,19.9352,-0.79639,0.75311,0.91094
327.986,19.95649,-0.79803,0.75279,0.91059
328.686,19.9777,-0.79793,0.75097,0.91024
329.386,19.99899,-0.79928,0.75239,0.90989
330.086,20.02015,-0.79928,0.75263,0.90954
330.786,20.04139,-0.79928,0.75048,0.9092
331.486,20.06277,-0.79928,0.75036,0.90885
332.186,20.08417,-0.79929,0.75071,0.9085
332.886,20.1057,-0.80059,0.75152,0.90815
333.586,20.12706,-0.8006,0.75101,0.9078
334.286,20.14835,-0.8006,0.75008,0.90746
334.986,20.1697,-0.8006,0.75134,0.90711
335.686,20.191,-0.8006,0.74892,0.90676
336.386,20.21236,-0.8006,0.74925,0.90641
337.086,20.23375,-0.8006,0.74728,0.90607
337.786,20.25516,-0.80052,0.74925,0.90572
338.486,20.27656,-0.79927,0.75149,0.90537
339.186,20.29794,-0.79928,0.75011,0.90503
339.886,20.31936,-0.79928,0.75148,0.90468
340.586,20.34079,-0.79928,0.7513,0.90434
341.286,20.36216,-0.79928,0.75052,0.90399
341.986,20.38355,-0.79928,0.75151,0.90364
342.686,20.40491,-0.79928,0.75299,0.9033
343.386,20.4264,-0.79928,0.75153,0.90295
344.086,20.4478,-0.79928,0.75272,0.90261
344.786,20.4692,-0.79928,0.75281,0.90226
345.486,20.49067,-0.8001,0.75219,0.90192
346.186,20.51212,-0.8006,0.75587,0.90157
346.886,20.5335,-0.8006,0.7546,0.90123
347.586,20.55497,-0.8006,0.75527,0.90088
348.286,20.57637,-0.8006,0.75545,0.90054
348.986,20.5978,-0.80061,0.75796,0.90019
349.686,20.61928,-0.80093,0.75805,0.89985
350.386,20.64066,-0.80094,0.76072,0.8995
351.086,20.6621,-0.80194,0.75952,0.89916
351.786,20.6836,-0.80224,0.75894,0.89881
352.486,20.70513,-0.80224,0.76212,0.89847
353.186,20.72658,-0.80225,0.76161,0.89812
353.886,20.74805,-0.80358,0.76189,0.89778
354.586,20.76944,-0.80356,0.76307,0.89744
355.286,20.79095,-0.80356,0.76194,0.89709
355.986,20.81239,-0.80356,0.76071,0.89675
356.686,20.8339,-0.80273,0.7626,0.8964
357.386,20.85539,-0.80224,0.7627,0.89606
358.086,20.8769,-0.80224,0.76276,0.89572
358.786,20.89838,-0.80224,0.7629,0.89537
359.486,20.91977,-0.80224,0.76258,0.89503
360.186,20.94119,-0.80111,0.76455,0.89469
360.886,20.96269,-0.80093,0.76474,0.89434
361.586,20.98424,-0.80114,0.76326,0.894
362.286,21.00592,-0.80225,0.76393,0.89366
362.986,21.02746,-0.80225,0.76581,0.89331
363.686,21.04901,-0.80225,0.76489,0.89297
364.386,21.07056,-0.80225,0.76386,0.89263
365.086,21.09211,-0.80225,0.76465,0.89228
365.786,21.1137,-0.80269,0.76888,0.89194
366.486,21.13524,-0.80357,0.76578,0.8916
367.186,21.15682,-0.80352,0.76564,0.89125
367.886,21.17834,-0.80489,0.76564,0.89091
368.586,21.1998,-0.80488,0.76674,0.89057
369.286,21.2214,-0.80488,0.76692,0.89023
369.986,21.24297,-0.80488,0.7657,0.88988
370.686,21.2646,-0.80488,0.76582,0.88954
371.386,21.28621,-0.80488,0.76623,0.8892
372.086,21.3079,-0.80474,0.76782,0.88885
372.786,21.32948,-0.80358,0.76738,0.88851
373.486,21.351,-0.80357,0.76599,0.88817
374.186,21.3725,-0.80357,0.76875,0.88783
374.886,21.39387,-0.8049,0.77045,0.88748
375.586,21.41541,-0.80489,0.76898,0.88714
376.286,21.4371,-0.80605,0.77055,0.8868
376.986,21.45886,-0.80619,0.77159,0.88645
377.686,21.48059,-0.80619,0.77413,0.88611
378.386,21.50197,-0.80619,0.77323,0.88577
379.086,21.52338,-0.80619,0.77279,0.88543
379.786,21.54502,-0.80618,0.77505,0.88508
380.486,21.5668,-0.80752,0.77768,0.88474
381.186,21.58867,-0.80751,0.77837,0.8844
381.886,21.61039,-0.80751,0.77721,0.88405
382.586,21.63196,-0.8078,0.77546,0.88371
383.286,21.65361,-0.80883,0.78277,0.88337
383.986,21.67525,-0.80883,0.78304,0.88303
384.686,21.69696,-0.80883,0.78366,0.88268
385.386,21.71864,-0.80884,0.78206,0.88234
386.086,21.7403,-0.80785,0.78511,0.882
386.786,21.76197,-0.80787,0.78427,0.88165
387.486,21.78363,-0.80751,0.78816,0.88131
388.186,21.8054,-0.80844,0.78728,0.88097
388.886,21.8271,-0.80883,0.79041,0.88062
389.586,21.8489,-0.80883,0.78873,0.88028
390.286,21.87057,-0.80883,0.79164,0.87994
390.986,21.89225,-0.80883,0.79127,0.87959
391.686,21.9139,-0.80892,0.79054,0.87925
392.386,21.9356,-0.81014,0.79198,0.87891
393.086,21.95712,-0.81033,0.79399,0.87856
393.786,21.97888,-0.81147,0.79087,0.87822
394.486,22.0006,-0.81147,0.79108,0.87788
395.186,22.02242,-0.81147,0.79082,0.87753
395.886,22.04423,-0.81147,0.7909,0.87719
396.586,22.06598,-0.81146,0.78952,0.87684
397.286,22.08773,-0.81016,0.78708,0.8765
397.986,22.10952,-0.81045,0.78763,0.87616
398.686,22.13131,-0.81094,0.78389,0.87581
399.386,22.15308,-0.81014,0.78336,0.87547
400.086,22.17485,-0.81014,0.7837,0.87512
400.786,22.19663,-0.81014,0.78102,0.87478
401.486,22.2184,-0.81014,0.77877,0.87443
402.186,22.24022,-0.8102,0.77544,0.87409
402.886,22.26197,-0.81155,0.77446,0.87375
403.586,22.28377,-0.81193,0.77188,0.8734
404.286,22.30558,-0.81421,0.76802,0.87306
404.986,22.32739,-0.8142,0.76468,0.87271
405.686,22.34917,-0.81542,0.76145,0.87237
406.386,22.37089,-0.81552,0.75735,0.87202
407.086,22.39266,-0.81552,0.75604,0.87168
407.786,22.41449,-0.81552,0.75005,0.87133
408.486,22.43635,-0.81552,0.74764,0.87098
409.186,22.45824,-0.81551,0.74402,0.87064
409.886,22.4801,-0.81417,0.73886,0.87029
410.586,22.5019,-0.81421,0.7364,0.86995
411.286,22.52368,-0.81498,0.72947,0.8696
411.986,22.54549,-0.81552,0.7254,0.86925
412.686,22.5673,-0.81599,0.71959,0.86891
413.386,22.58922,-0.81684,0.71591,0.86856
414.086,22.6111,-0.81684,0.71198,0.86822
414.786,22.6329,-0.81684,0.70494,0.86787
415.486,22.65472,-0.81685,0.69917,0.86752
416.186,22.67649,-0.81559,0.69466,0.86717
416.886,22.6983,-0.81611,0.68989,0.86683
417.586,22.72017,-0.81617,0.68292,0.86648
418.286,22.74204,-0.81628,0.67769,0.86613
418.986,22.76393,-0.81683,0.67303,0.86578
419.686,22.78584,-0.81683,0.66487,0.86544
420.386,22.80772,-0.81683,0.66008,0.86509
421.086,22.82958,-0.81683,0.65397,0.86474
421.786,22.85142,-0.81684,0.6477,0.86439
422.486,22.8733,-0.81551,0.64277,0.86404
423.186,22.89519,-0.81552,0.63527,0.8637
423.886,22.91702,-0.81552,0.63014,0.86335
424.586,22.93892,-0.81552,0.62678,0.863
425.286,22.96079,-0.81552,0.62043,0.86265
425.986,22.98262,-0.8158,0.61387,0.8623
426.686,23.00444,-0.81683,0.60218,0.86195
427.386,23.0263,-0.81684,0.59625,0.8616
428.086,23.04823,-0.8173,0.58915,0.86125
428.786,23.0701,-0.81751,0.58187,0.8609
429.486,23.092,-0.81878,0.57211,0.86055
430.186,23.1139,-0.81772,0.56228,0.8602
430.886,23.13581,-0.8175,0.55455,0.85985
431.586,23.15772,-0.8175,0.54423,0.8595
432.286,23.17961,-0.81787,0.5361,0.85915
432.986,23.2016,-0.8188,0.52409,0.8588
433.686,23.22364,-0.81881,0.51598,0.85844
434.386,23.24567,-0.81881,0.50481,0.85809
435.086,23.2677,-0.81881,0.4981,0.85774
435.786,23.28961,-0.819,0.48633,0.85739
436.486,23.3115,-0.81914,0.47447,0.85704
437.186,23.3335,-0.81914,0.46646,0.85668
437.886,23.3554,-0.82001,0.456,0.85633
438.586,23.3774,-0.82014,0.44353,0.85598
439.286,23.39932,-0.82113,0.43217,0.85562
439.986,23.42138,-0.82145,0.42306,0.85527
440.686,23.4434,-0.82145,0.41198,0.85492
441.386,23.4654,-0.82145,0.40311,0.85456
442.086,23.48742,-0.82193,0.39127,0.85421
442.786,23.50949,-0.82276,0.38343,0.85386
443.486,23.53152,-0.82276,0.37557,0.8535
444.186,23.5535,-0.82278,0.36721,0.85315
444.886,23.57552,-0.8241,0.3581,0.85279
445.586,23.59753,-0.82407,0.3519,0.85244
446.286,23.61954,-0.82274,0.34272,0.85208
446.986,23.64164,-0.82276,0.33887,0.85172
447.686,23.66366,-0.82194,0.33055,0.85137
448.386,23.6857,-0.82177,0.32633,0.85101
449.086,23.70777,-0.82177,0.32163,0.85066
449.786,23.72981,-0.82172,0.31857,0.8503
450.486,23.7519,-0.82321,0.31847,0.84994
451.186,23.774,-0.8232,0.3138,0.84958
451.886,23.7961,-0.82251,0.31533,0.84923
452.586,23.8183,-0.82188,0.31388,0.84887
453.286,23.84042,-0.82188,0.31528,0.84851
453.986,23.8626,-0.82188,0.31792,0.84815
454.686,23.88474,-0.82188,0.32436,0.84779
455.386,23.90685,-0.82188,0.32488,0.84743
456.086,23.9289,-0.8232,0.3313,0.84708
456.786,23.95107,-0.82461,0.33863,0.84672
457.486,23.9732,-0.82537,0.34104,0.84636
458.186,23.99541,-0.82594,0.34887,0.846
458.886,24.01755,-0.82595,0.35445,0.84564
459.586,24.03963,-0.8244,0.36374,0.84527
460.286,24.06175,-0.82394,0.37035,0.84491
460.986,24.08386,-0.82417,0.3803,0.84455
461.686,24.10603,-0.82286,0.38812,0.84419
462.386,24.1282,-0.82284,0.39808,0.84383
463.086,24.15045,-0.82446,0.40838,0.84347
463.786,24.1725,-0.82551,0.41883,0.8431
464.486,24.19458,-0.82595,0.42959,0.84274
465.186,24.21665,-0.82669,0.44105,0.84238
465.886,24.2388,-0.82726,0.45183,0.84201
466.586,24.26093,-0.82726,0.46149,0.84165
467.286,24.28311,-0.82784,0.47189,0.84129
467.986,24.30534,-0.82704,0.48531,0.84092
468.686,24.3275,-0.82547,0.49408,0.84056
469.386,24.34964,-0.82427,0.50638,0.84019
470.086,24.3718,-0.82489,0.51669,0.83983
470.786,24.39405,-0.82528,0.52667,0.83946
471.486,24.4163,-0.82528,0.53749,0.8391
472.186,24.4387,-0.82528,0.54611,0.83873
472.886,24.46089,-0.82528,0.55591,0.83836
473.586,24.48311,-0.82528,0.56439,0.838
474.286,24.50534,-0.82528,0.57672,0.83763
474.986,24.52759,-0.82528,0.58615,0.83726
475.686,24.54984,-0.82607,0.59363,0.83689
476.386,24.57216,-0.8268,0.60121,0.83652
477.086,24.59447,-0.82852,0.61088,0.83616
477.786,24.61688,-0.83004,0.61851,0.83579
478.486,24.63925,-0.83034,0.6247,0.83542
479.186,24.66161,-0.83114,0.63564,0.83505
479.886,24.6839,-0.82993,0.64171,0.83468
480.586,24.70619,-0.82838,0.64716,0.83431
481.286,24.72845,-0.82804,0.65426,0.83394
481.986,24.75074,-0.82813,0.65863,0.83357
482.686,24.77305,-0.82813,0.66431,0.83319
483.386,24.7954,-0.82813,0.66995,0.83282
484.086,24.81768,-0.82813,0.6783,0.83245
484.786,24.8401,-0.82813,0.68264,0.83208
485.486,24.86257,-0.82919,0.68661,0.8317
486.186,24.88511,-0.82945,0.69382,0.83133
486.886,24.90752,-0.82945,0.69764,0.83096
487.586,24.92981,-0.82945,0.70251,0.83058
488.286,24.95209,-0.82945,0.70988,0.83021
488.986,24.9744,-0.8294,0.71086,0.82983
489.686,24.99677,-0.82812,0.72198,0.82946
490.386,25.01912,-0.82813,0.72461,0.82908
491.086,25.04128,-0.8281,0.73218,0.82871
491.786,25.06341,-0.82961,0.73862,0.82833
492.486,25.08575,-0.82956,0.74306,0.82795
493.186,25.10816,-0.83102,0.75012,0.82758
493.886,25.13074,-0.83141,0.7564,0.8272
494.586,25.1531,-0.83357,0.7599,0.82682
495.286,25.1756,-0.83488,0.76233,0.82644
495.986,25.19809,-0.83516,0.76347,0.82606
496.686,25.22051,-0.83513,0.76931,0.82569
497.386,25.24289,-0.83428,0.76861,0.82531
498.086,25.2653,-0.83344,0.77194,0.82493
498.786,25.28772,-0.83432,0.7711,0.82455
499.486,25.31015,-0.83482,0.77086,0.82417
500.186,25.33261,-0.83351,0.76962,0.82378
500.886,25.35507,-0.83353,0.76439,0.8234
501.586,25.3774,-0.83223,0.75776,0.82302
502.286,25.3998,-0.83219,0.75711,0.82264
502.986,25.42225,-0.83219,0.7576,0.82226
503.686,25.4448,-0.83219,0.75104,0.82187
504.386,25.46732,-0.83266,0.74696,0.82149
505.086,25.48956,-0.83351,0.74536,0.8211
505.786,25.51195,-0.8335,0.73939,0.82072
506.486,25.53442,-0.83214,0.7389,0.82034
507.186,25.55707,-0.83214,0.73576,0.81995
507.886,25.57976,-0.8335,0.73477,0.81956
508.586,25.6023,-0.83351,0.72962,0.81918
509.286,25.62481,-0.83441,0.72794,0.81879
509.986,25.64719,-0.83483,0.729,0.8184
510.686,25.66965,-0.83483,0.72697,0.81802
511.386,25.69206,-0.83484,0.7221,0.81763
512.086,25.71459,-0.83349,0.72184,0.81724
512.786,25.73714,-0.83351,0.72004,0.81685
513.486,25.7597,-0.83313,0.71596,0.81646
514.186,25.7822,-0.83252,0.7156,0.81607
514.886,25.80477,-0.83252,0.71469,0.81568
515.586,25.82714,-0.83252,0.71566,0.81529
516.286,25.84968,-0.83323,0.71039,0.8149
516.986,25.8722,-0.83384,0.70822,0.81451
517.686,25.89473,-0.83384,0.70477,0.81412
518.386,25.9173,-0.83384,0.70176,0.81373
519.086,25.9398,-0.83457,0.70176,0.81333
519.786,25.9624,-0.83515,0.70159,0.81294
520.486,25.98488,-0.83515,0.69843,0.81255
521.186,26.00743,-0.83551,0.69812,0.81215
521.886,26.02998,-0.83548,0.69673,0.81176
522.586,26.0525,-0.83548,0.69898,0.81136
523.286,26.07509,-0.83415,0.70051,0.81097
523.986,26.09764,-0.83417,0.6993,0.81057
524.686,26.12021,-0.83419,0.70167,0.81017
525.386,26.1428,-0.8328,0.70288,0.80978
526.086,26.16528,-0.83285,0.70001,0.80938
526.786,26.18777,-0.83285,0.69939,0.80898
527.486,26.21033,-0.83285,0.69967,0.80858
528.186,26.23285,-0.83285,0.70072,0.80818
528.886,26.25535,-0.83285,0.7006,0.80778
529.586,26.27785,-0.83285,0.699,0.80738
530.286,26.30037,-0.83287,0.69751,0.80698
530.986,26.3229,-0.83265,0.69892,0.80658
531.686,26.3455,-0.83296,0.69883,0.80618
532.386,26.3681,-0.83311,0.69846,0.80578
533.086,26.39065,-0.83426,0.70434,0.80538
533.786,26.4132,-0.83427,0.70349,0.80497
534.486,26.4358,-0.83527,0.70659,0.80457
535.186,26.4584,-0.83692,0.70157,0.80417
535.886,26.4809,-0.83691,0.70337,0.80376
536.586,26.5034,-0.83691,0.70283,0.80336
537.286,26.5259,-0.83691,0.70258,0.80295
537.986,26.5485,-0.83691,0.70217,0.80255
538.686,26.57112,-0.83606,0.70227,0.80214
539.386,26.5937,-0.83549,0.70502,0.80173
540.086,26.61638,-0.83389,0.70192,0.80133
540.786,26.63898,-0.83396,0.70342,0.80092
541.486,26.6614,-0.83264,0.7065,0.80051
542.186,26.6839,-0.83263,0.70447,0.8001
542.886,26.70652,-0.83264,0.70588,0.79969
543.586,26.7292,-0.83397,0.70907,0.79928
544.286,26.752,-0.83394,0.70654,0.79887
544.986,26.77463,-0.83528,0.70548,0.79846
545.686,26.7971,-0.83526,0.70848,0.79805
546.386,26.81952,-0.83526,0.70804,0.79764
547.086,26.8421,-0.83526,0.70692,0.79723
547.786,26.86491,-0.83526,0.70632,0.79681
548.486,26.8878,-0.83526,0.70781,0.7964
549.186,26.91055,-0.83526,0.70578,0.79599
549.886,26.93323,-0.83526,0.70705,0.79557
550.586,26.95583,-0.83629,0.70671,0.79516
551.286,26.9785,-0.83756,0.70599,0.79474
551.986,27.0012,-0.83757,0.70301,0.79433
552.686,27.02386,-0.83757,0.70541,0.79391
553.386,27.04655,-0.83757,0.70533,0.79349
554.086,27.0693,-0.83757,0.70635,0.79307
554.786,27.09201,-0.83757,0.71003,0.79266
555.486,27.11461,-0.83757,0.70719,0.79224
556.186,27.1372,-0.83757,0.70819,0.79182
556.886,27.15983,-0.83717,0.70787,0.7914
557.586,27.18253,-0.83658,0.70875,0.79098
558.286,27.2052,-0.83658,0.71014,0.79056
558.986,27.2279,-0.83658,0.70989,0.79014
559.686,27.25067,-0.83658,0.70994,0.78971
560.386,27.2734,-0.83692,0.70824,0.78929
561.086,27.2961,-0.83984,0.71227,0.78887
561.786,27.31878,-0.84146,0.71081,0.78845
562.486,27.3415,-0.84336,0.71145,0.78802
563.186,27.36423,-0.84393,0.71273,0.7876
563.886,27.38702,-0.84393,0.70938,0.78717
564.586,27.4098,-0.84393,0.71241,0.78675
565.286,27.4326,-0.84393,0.71312,0.78632
565.986,27.45532,-0.84159,0.71129,0.78589
566.686,27.47802,-0.83995,0.71101,0.78546
567.386,27.5008,-0.83839,0.71545,0.78504
568.086,27.52355,-0.83807,0.7108,0.78461
568.786,27.5463,-0.83713,0.71382,0.78418
569.486,27.569,-0.83714,0.71294,0.78375
570.186,27.5917,-0.83851,0.7145,0.78332
570.886,27.61447,-0.8391,0.71657,0.78289
571.586,27.6373,-0.84025,0.71556,0.78246
572.286,27.6601,-0.84295,0.71515,0.78203
572.986,27.6829,-0.84294,0.71477,0.78159
573.686,27.7056,-0.84294,0.71786,0.78116
574.386,27.72843,-0.84297,0.71667,0.78073
575.086,27.75119,-0.84289,0.71568,0.78029
575.786,27.77396,-0.84294,0.71658,0.77986
576.486,27.79673,-0.84294,0.71889,0.77942
577.186,27.8195,-0.84294,0.71912,0.77899
577.886,27.84233,-0.8404,0.71696,0.77855
578.586,27.8652,-0.84032,0.71633,0.77811
579.286,27.8881,-0.839,0.7169,0.77768
579.986,27.91092,-0.83899,0.71614,0.77724
580.686,27.9337,-0.83899,0.7179,0.7768
581.386,27.9566,-0.83901,0.71674,0.77636
582.086,27.97937,-0.83768,0.71733,0.77592
582.786,28.00215,-0.83768,0.71949,0.77548
583.486,28.025,-0.83768,0.71692,0.77504
584.186,28.04781,-0.83768,0.7187,0.7746
584.886,28.0708,-0.83768,0.71988,0.77415
585.586,28.09354,-0.83875,0.72041,0.77371
586.286,28.1164,-0.839,0.71946,0.77327
586.986,28.1392,-0.83998,0.72144,0.77282
587.686,28.1622,-0.84032,0.72433,0.77238
588.386,28.18507,-0.84123,0.7229,0.77193
589.086,28.208,-0.84148,0.72564,0.77149
589.786,28.23087,-0.84029,0.7301,0.77104
590.486,28.2538,-0.84096,0.72862,0.7706
591.186,28.27673,-0.84097,0.72974,0.77015
591.886,28.2996,-0.84097,0.72948,0.7697
592.586,28.3225,-0.84097,0.73032,0.76925
593.286,28.34532,-0.84097,0.72901,0.7688
593.986,28.3683,-0.84013,0.73009,0.76835
594.686,28.3912,-0.83998,0.73139,0.7679
595.386,28.4141,-0.84109,0.73126,0.76745
596.086,28.43702,-0.84095,0.73283,0.767
596.786,28.45993,-0.84097,0.73531,0.76655
597.486,28.48282,-0.84097,0.73212,0.7661
598.186,28.5056,-0.84097,0.73604,0.76564
598.886,28.52845,-0.84214,0.73545,0.76519
599.586,28.55143,-0.84228,0.73506,0.76473
600.286,28.57445,-0.8423,0.73327,0.76428
600.986,28.59753,-0.84195,0.73676,0.76382
601.686,28.62037,-0.84194,0.73959,0.76337
602.386,28.64327,-0.8432,0.73589,0.76291
603.086,28.6662,-0.84327,0.73764,0.76245
603.786,28.68924,-0.84327,0.73962,0.76199
604.486,28.71224,-0.84327,0.73758,0.76153
605.186,28.73522,-0.84387,0.74417,0.76107
605.886,28.75815,-0.84459,0.74365,0.76061
606.586,28.7811,-0.84459,0.7407,0.76015
607.286,28.80407,-0.84503,0.74329,0.75969
607.986,28.827,-0.8467,0.74518,0.75923
608.686,28.85,-0.84722,0.74323,0.75877
609.386,28.873,-0.84722,0.74719,0.75831
610.086,28.89603,-0.84722,0.7448,0.75784
610.786,28.91896,-0.84722,0.74634,0.75738
611.486,28.9419,-0.84722,0.746,0.75691
612.186,28.96487,-0.84719,0.74583,0.75645
612.886,28.9879,-0.848,0.74722,0.75598
613.586,29.0109,-0.84722,0.75073,0.75551
614.286,29.03394,-0.84722,0.74878,0.75505
614.986,29.05694,-0.84722,0.75041,0.75458
615.686,29.07998,-0.84722,0.74736,0.75411
616.386,29.1029,-0.84613,0.74874,0.75364
617.086,29.1259,-0.84755,0.74676,0.75317
617.786,29.1488,-0.84719,0.75247,0.7527
618.486,29.17183,-0.84721,0.74856,0.75223
619.186,29.1948,-0.84575,0.74926,0.75176
619.886,29.21793,-0.84451,0.75103,0.75129
620.586,29.24105,-0.84443,0.75258,0.75081
621.286,29.2641,-0.84359,0.75027,0.75034
621.986,29.28697,-0.84448,0.75221,0.74987
622.686,29.3099,-0.84482,0.75202,0.74939
623.386,29.3329,-0.84579,0.75734,0.74892
624.086,29.3559,-0.84576,0.75696,0.74844
624.786,29.37903,-0.84678,0.75601,0.74796
625.486,29.40199,-0.84654,0.75404,0.74749
626.186,29.425,-0.8458,0.7563,0.74701
626.886,29.448,-0.8458,0.76063,0.74653
627.586,29.4711,-0.8458,0.75952,0.74605
628.286,29.4942,-0.84579,0.75904,0.74557
628.986,29.5173,-0.8446,0.75905,0.74509
629.686,29.5404,-0.84448,0.76511,0.74461
630.386,29.56338,-0.84448,0.76185,0.74413
631.086,29.5864,-0.84448,0.76288,0.74365
631.786,29.6094,-0.84448,0.76639,0.74316
632.486,29.6325,-0.84547,0.76514,0.74268
633.186,29.6556,-0.84733,0.76965,0.7422
633.886,29.6786,-0.84826,0.76942,0.74171
634.586,29.7017,-0.8486,0.77344,0.74122
635.286,29.7248,-0.84998,0.77538,0.74074
635.986,29.7479,-0.84996,0.77639,0.74025
636.686,29.77096,-0.8508,0.78036,0.73977
637.386,29.79409,-0.85016,0.78022,0.73928
638.086,29.8171,-0.85123,0.78162,0.73879
638.786,29.8403,-0.85128,0.7871,0.7383
639.486,29.86331,-0.85163,0.78539,0.73781
640.186,29.8864,-0.85259,0.79082,0.73732
640.886,29.90952,-0.85259,0.78981,0.73683
641.586,29.93267,-0.8526,0.79169,0.73634
642.286,29.95573,-0.85415,0.79533,0.73584
642.986,29.97883,-0.85523,0.79885,0.73535
643.686,30.0017,-0.85523,0.80191,0.73486
644.386,30.0247,-0.85612,0.80538,0.73436
645.086,30.04787,-0.85791,0.80957,0.73387
645.786,30.07112,-0.85808,0.8118,0.73337
646.486,30.0943,-0.85918,0.81432,0.73288
647.186,30.1173,-0.85918,0.82136,0.73238
647.886,30.14041,-0.85918,0.82535,0.73188
648.586,30.1635,-0.85918,0.82368,0.73138
649.286,30.1867,-0.85957,0.83129,0.73089
649.986,30.2097,-0.86081,0.83223,0.73039
650.686,30.23265,-0.86181,0.83904,0.72989
651.386,30.25555,-0.86181,0.84341,0.72939
652.086,30.27863,-0.86276,0.84674,0.72889
652.786,30.3019,-0.86179,0.85275,0.72838
653.486,30.3252,-0.86153,0.85387,0.72788
654.186,30.34843,-0.86154,0.85703,0.72738
654.886,30.37153,-0.86034,0.86056,0.72687
655.586,30.3947,-0.86027,0.86574,0.72637
656.286,30.41778,-0.86023,0.87011,0.72586
656.986,30.4409,-0.86146,0.87173,0.72536
657.686,30.46405,-0.86028,0.87705,0.72485
658.386,30.4872,-0.86036,0.88122,0.72435
659.086,30.51023,-0.86033,0.88451,0.72384
659.786,30.5333,-0.86134,0.88793,0.72333
660.486,30.55643,-0.8617,0.8935,0.72282
661.186,30.57958,-0.86277,0.90015,0.72231
661.886,30.6027,-0.86433,0.90321,0.7218
662.586,30.6258,-0.86433,0.9095,0.72129
663.286,30.64895,-0.86428,0.91092,0.72078
663.986,30.67212,-0.86564,0.91651,0.72027
664.686,30.69525,-0.86564,0.92485,0.71976
665.386,30.71823,-0.86589,0.92481,0.71924
666.086,30.7412,-0.86696,0.93417,0.71873
666.786,30.76417,-0.86726,0.93579,0.71821
667.486,30.78732,-0.8686,0.94187,0.7177
668.186,30.8104,-0.86986,0.94194,0.71718
668.886,30.83362,-0.87045,0.94528,0.71667
669.586,30.85678,-0.87219,0.94883,0.71615
670.286,30.8799,-0.87366,0.94916,0.71563
670.986,30.90307,-0.87394,0.95468,0.71511
671.686,30.9262,-0.8753,0.95919,0.71459
672.386,30.94939,-0.87603,0.95768,0.71407
673.086,30.9725,-0.87683,0.95993,0.71355
673.786,30.9957,-0.87941,0.96289,0.71303
674.486,31.0189,-0.87947,0.96631,0.71251
675.186,31.04202,-0.88202,0.96998,0.71199
675.886,31.06516,-0.88145,0.9715,0.71147
676.586,31.08832,-0.88036,0.96777,0.71094
677.286,31.1115,-0.87885,0.97426,0.71042
677.986,31.13468,-0.87936,0.9726,0.70989
678.686,31.15783,-0.88058,0.97779,0.70937
679.386,31.18106,-0.87962,0.97434,0.70884
680.086,31.2043,-0.87917,0.9775,0.70832
680.786,31.2275,-0.87807,0.97884,0.70779
681.486,31.25067,-0.8786,0.98044,0.70726
682.186,31.27392,-0.88019,0.98177,0.70673
682.886,31.2972,-0.88313,0.9796,0.7062
683.586,31.32045,-0.88387,0.97953,0.70567
684.286,31.34364,-0.88495,0.98235,0.70514
684.986,31.36678,-0.88495,0.98305,0.70461
685.686,31.39,-0.88616,0.98504,0.70408
686.386,31.41318,-0.88646,0.99135,0.70355
687.086,31.4364,-0.88927,0.99154,0.70301
687.786,31.4596,-0.89087,0.98975,0.70248
688.486,31.48279,-0.89249,0.99256,0.70195
689.186,31.50603,-0.89419,0.99635,0.70141
689.886,31.5292,-0.89465,0.99719,0.70088
690.586,31.55241,-0.89504,1.00193,0.70034
691.286,31.57558,-0.895,1.00201,0.6998
691.986,31.5988,-0.89742,1.00666,0.69927
692.686,31.622,-0.89796,1.00819,0.69873
693.386,31.64524,-0.90052,1.01128,0.69819
694.086,31.6685,-0.9006,1.01321,0.69765
694.786,31.69169,-0.90193,1.01541,0.69711
695.486,31.71497,-0.90392,1.01737,0.69657
696.186,31.7382,-0.90479,1.02057,0.69603
696.886,31.7614,-0.90773,1.02647,0.69549
697.586,31.78458,-0.90938,1.02844,0.69494
698.286,31.80773,-0.91118,1.03429,0.6944
698.986,31.8309,-0.91272,1.03765,0.69386
699.686,31.8541,-0.9143,1.04073,0.69331
700.386,31.87728,-0.91422,1.04453,0.69277
701.086,31.90055,-0.91405,1.0473,0.69222
701.786,31.92383,-0.91224,1.05414,0.69168
702.486,31.9471,-0.91185,1.05912,0.69113
703.186,31.97035,-0.91057,1.05671,0.69058
703.886,31.9936,-0.91158,1.06523,0.69003
704.586,32.01683,-0.91182,1.06962,0.68948
705.286,32.04006,-0.91187,1.07275,0.68894
705.986,32.06335,-0.91313,1.0803,0.68839
706.686,32.08655,-0.91471,1.084,0.68783
707.386,32.1098,-0.91651,1.08723,0.68728
708.086,32.1331,-0.9178,1.09076,0.68673
708.786,32.15636,-0.91883,1.09654,0.68618
709.486,32.17969,-0.92039,1.10016,0.68563
710.186,32.20304,-0.92212,1.10777,0.68507
710.886,32.22632,-0.92548,1.1093,0.68452
711.586,32.24964,-0.92784,1.11588,0.68396
712.286,32.27295,-0.92894,1.12026,0.68341
712.986,32.29629,-0.93053,1.12022,0.68285
713.686,32.31962,-0.93049,1.12276,0.68229
714.386,32.34288,-0.9318,1.1238,0.68174
715.086,32.36615,-0.93113,1.12523,0.68118
715.786,32.38933,-0.93261,1.12668,0.68062
716.486,32.41272,-0.93359,1.12515,0.68006
717.186,32.43609,-0.93563,1.12711,0.6795
717.886,32.4595,-0.93705,1.12137,0.67894
718.586,32.48281,-0.93745,1.12157,0.67838
719.286,32.50609,-0.93783,1.11776,0.67782
719.986,32.5294,-0.93729,1.11386,0.67726
720.686,32.55279,-0.93858,1.11024,0.67669
721.386,32.57614,-0.94002,1.10314,0.67613
722.086,32.5995,-0.94169,1.09494,0.67556
722.786,32.6228,-0.94297,1.08871,0.675
723.486,32.6461,-0.94338,1.07879,0.67443
724.186,32.6695,-0.94445,1.0709,0.67387
724.886,32.6928,-0.94441,1.05799,0.6733
725.586,32.71627,-0.94584,1.04742,0.67273
726.286,32.73961,-0.94655,1.03908,0.67217
726.986,32.76295,-0.94731,1.02247,0.6716
727.686,32.78627,-0.94867,1.01435,0.67103
728.386,32.80961,-0.95067,0.99596,0.67046
729.086,32.833,-0.95154,0.9818,0.66989
729.786,32.85641,-0.95149,0.96184,0.66932
730.486,32.87977,-0.95295,0.94403,0.66875
731.186,32.90303,-0.95354,0.92275,0.66817
731.886,32.92628,-0.95284,0.90996,0.6676
732.586,32.9495,-0.95264,0.89082,0.66703
733.286,32.97289,-0.95226,0.87148,0.66645
733.986,32.99624,-0.95268,0.853,0.66588
734.686,33.01965,-0.953,0.83826,0.6653
735.386,33.04307,-0.95317,0.82151,0.66473
736.086,33.06649,-0.95275,0.80778,0.66415
736.786,33.09004,-0.95219,0.79334,0.66358
737.486,33.1136,-0.95154,0.78283,0.663
738.186,33.1372,-0.95286,0.77096,0.66242
738.886,33.1607,-0.95284,0.76452,0.66184
739.586,33.18407,-0.95432,0.75459,0.66126
740.286,33.20732,-0.95577,0.75101,0.66068
740.986,33.23041,-0.95614,0.74491,0.6601
741.686,33.25345,-0.95614,0.74375,0.65952
742.386,33.27681,-0.95614,0.73486,0.65894
743.086,33.3003,-0.95614,0.73591,0.65836
743.786,33.324,-0.95614,0.73334,0.65777
744.486,33.34762,-0.95614,0.73058,0.65719
745.186,33.37103,-0.95636,0.7304,0.65661
745.886,33.39414,-0.95658,0.72809,0.65602
746.586,33.4174,-0.95613,0.73106,0.65544
747.286,33.44079,-0.95661,0.72639,0.65485
747.986,33.4645,-0.95745,0.72705,0.65427
748.686,33.48816,-0.958,0.72583,0.65368
749.386,33.5115,-0.95877,0.72593,0.65309
750.086,33.5349,-0.95877,0.72631,0.6525
750.786,33.55829,-0.95822,0.72946,0.65191
751.486,33.58175,-0.95745,0.72477,0.65132
752.186,33.60523,-0.95745,0.72798,0.65073
752.886,33.6286,-0.95742,0.73073,0.65014
753.586,33.65201,-0.95703,0.72952,0.64955
754.286,33.67542,-0.95575,0.73227,0.64896
754.986,33.69893,-0.95618,0.73272,0.64837
755.686,33.72234,-0.95524,0.73414,0.64778
756.386,33.74581,-0.95428,0.7352,0.64718
757.086,33.76918,-0.95428,0.73774,0.64659
757.786,33.7926,-0.95495,0.73888,0.646
758.486,33.816,-0.95714,0.73742,0.6454
759.186,33.83943,-0.95855,0.74053,0.64481
759.886,33.86285,-0.95963,0.74098,0.64421
760.586,33.88629,-0.96058,0.74052,0.64361
761.286,33.90977,-0.96242,0.74019,0.64302
761.986,33.93322,-0.9625,0.74254,0.64242
762.686,33.95668,-0.96251,0.74159,0.64182
763.386,33.9801,-0.96357,0.74368,0.64122
764.086,34.0034,-0.96382,0.74129,0.64062
764.786,34.02688,-0.96384,0.74576,0.64002
765.486,34.0503,-0.96317,0.74906,0.63942
766.186,34.07394,-0.96316,0.751,0.63882
766.886,34.09744,-0.96316,0.75003,0.63822
767.586,34.12088,-0.96243,0.75119,0.63761
768.286,34.14437,-0.96254,0.75359,0.63701
768.986,34.16782,-0.96028,0.75711,0.63641
769.686,34.19115,-0.96009,0.75635,0.6358
770.386,34.21468,-0.96009,0.75863,0.6352
771.086,34.23827,-0.96035,0.75712,0.63459
771.786,34.262,-0.9614,0.76128,0.63399
772.486,34.28557,-0.96247,0.76506,0.63338
773.186,34.30905,-0.96291,0.76224,0.63278
773.886,34.3326,-0.96316,0.76277,0.63217
774.586,34.35614,-0.96425,0.76516,0.63156
775.286,34.3797,-0.96448,0.76664,0.63095
775.986,34.4032,-0.96449,0.7661,0.63034
776.686,34.42669,-0.96553,0.76741,0.62973
777.386,34.4501,-0.96542,0.77019,0.62912
778.086,34.47351,-0.96445,0.77014,0.62851
778.786,34.497,-0.96566,0.76802,0.6279
779.486,34.52041,-0.96448,0.77035,0.62729
780.186,34.54387,-0.96448,0.77553,0.62668
780.886,34.56728,-0.96448,0.77468,0.62607
781.586,34.5907,-0.96448,0.77522,0.62545
782.286,34.6143,-0.96448,0.77305,0.62484
782.986,34.6378,-0.96534,0.77457,0.62423
783.686,34.66127,-0.96693,0.78038,0.62361
784.386,34.6847,-0.9671,0.78487,0.623
785.086,34.70817,-0.96826,0.78474,0.62238
785.786,34.73171,-0.96842,0.78991,0.62176
786.486,34.75521,-0.9685,0.78589,0.62115
787.186,34.77875,-0.96974,0.79155,0.62053
787.886,34.80223,-0.96974,0.79079,0.61991
788.586,34.8257,-0.96974,0.79159,0.61929
789.286,34.84919,-0.96971,0.79355,0.61867
789.986,34.87262,-0.96974,0.79025,0.61805
790.686,34.8961,-0.96974,0.79808,0.61744
791.386,34.91961,-0.96974,0.7954,0.61681
792.086,34.9431,-0.97007,0.79777,0.61619
792.786,34.96652,-0.97105,0.79945,0.61557
793.486,34.98997,-0.97031,0.79969,0.61495
794.186,35.0134,-0.96976,0.80355,0.61433
794.886,35.03692,-0.97055,0.80343,0.6137
795.586,35.06042,-0.9694,0.80569,0.61308
796.286,35.08396,-0.96973,0.80934,0.61246
796.986,35.1074,-0.97022,0.80582,0.61183
797.686,35.13081,-0.97106,0.80882,0.61121
798.386,35.15426,-0.97106,0.81029,0.61058
799.086,35.17775,-0.97106,0.80967,0.60996
799.786,35.20115,-0.97106,0.81098,0.60933
800.486,35.22446,-0.97106,0.81291,0.6087
801.186,35.24797,-0.97106,0.812,0.60807
801.886,35.27158,-0.97198,0.81393,0.60745
802.586,35.29534,-0.97374,0.81591,0.60682
803.286,35.31881,-0.97369,0.81435,0.60619
803.986,35.3422,-0.97369,0.81923,0.60556
804.686,35.36565,-0.97369,0.81611,0.60493
805.386,35.38915,-0.97369,0.82695,0.6043
806.086,35.41263,-0.97336,0.82587,0.60367
806.786,35.43612,-0.97336,0.82512,0.60304
807.486,35.45963,-0.97336,0.82164,0.6024
808.186,35.48317,-0.97455,0.82995,0.60177
808.886,35.50671,-0.97436,0.83124,0.60114
809.586,35.53021,-0.97514,0.83465,0.60051
810.286,35.55372,-0.97467,0.83465,0.59987
810.986,35.57721,-0.97375,0.83638,0.59924
811.686,35.6007,-0.9752,0.83956,0.5986
812.386,35.62426,-0.97566,0.84219,0.59797
813.086,35.64784,-0.97676,0.84394,0.59733
813.786,35.6714,-0.97699,0.84735,0.59669
814.486,35.69492,-0.97806,0.84581,0.59606
815.186,35.71845,-0.97807,0.85086,0.59542
815.886,35.742,-0.97828,0.85274,0.59478
816.586,35.76552,-0.97939,0.85578,0.59415
817.286,35.78902,-0.97939,0.8513,0.59351
817.986,35.81231,-0.97939,0.85574,0.59287
818.686,35.83567,-0.97939,0.8561,0.59223
819.386,35.85926,-0.97939,0.85734,0.59159
820.086,35.88301,-0.98037,0.86451,0.59095
820.786,35.9068,-0.98038,0.86387,0.59031
821.486,35.93033,-0.98038,0.86755,0.58967
822.186,35.9539,-0.98038,0.87072,0.58902
822.886,35.97752,-0.98062,0.87475,0.58838
823.586,36.00111,-0.98168,0.87307,0.58774
824.286,36.0247,-0.98258,0.87805,0.5871
824.986,36.04823,-0.98301,0.88076,0.58645
825.686,36.07183,-0.98301,0.87931,0.58581
826.386,36.09537,-0.98301,0.88246,0.58516
827.086,36.11895,-0.98301,0.88561,0.58452
827.786,36.14247,-0.98434,0.88651,0.58387
828.486,36.1661,-0.98331,0.88984,0.58323
829.186,36.18976,-0.9829,0.89544,0.58258
829.886,36.2134,-0.98251,0.8943,0.58193
830.586,36.23707,-0.98324,0.90062,0.58129
831.286,36.2607,-0.98323,0.90388,0.58064
831.986,36.2843,-0.98363,0.90278,0.57999
832.686,36.3079,-0.98613,0.90688,0.57934
833.386,36.3315,-0.98752,0.91422,0.57869
834.086,36.35512,-0.98848,0.91938,0.57805
834.786,36.37876,-0.98882,0.91686,0.5774
835.486,36.40232,-0.98837,0.91919,0.57675
836.186,36.42576,-0.98685,0.92928,0.5761
836.886,36.44917,-0.98807,0.93275,0.57544
837.586,36.47278,-0.98983,0.9357,0.57479
838.286,36.49649,-0.99093,0.93862,0.57414
838.986,36.52028,-0.99113,0.93866,0.57349
839.686,36.5438,-0.99107,0.94207,0.57284
840.386,36.5674,-0.99106,0.94884,0.57218
841.086,36.5909,-0.99117,0.9536,0.57153
841.786,36.6145,-0.99089,0.95702,0.57088
842.486,36.6381,-0.98926,0.96249,0.57022
843.186,36.66175,-0.98907,0.96251,0.56957
843.886,36.68528,-0.98905,0.9681,0.56891
844.586,36.7089,-0.98904,0.97335,0.56826
845.286,36.7325,-0.98904,0.9793,0.5676
845.986,36.75598,-0.98972,0.98363,0.56695
846.686,36.77948,-0.99036,0.98817,0.56629
847.386,36.80311,-0.99031,0.99454,0.56563
848.086,36.82678,-0.99167,0.9986,0.56497
848.786,36.85052,-0.99208,1.00648,0.56432
849.486,36.8742,-0.99443,1.01226,0.56366
850.186,36.89782,-0.99606,1.02063,0.563
850.886,36.9214,-0.99841,1.02275,0.56234
851.586,36.94505,-0.9988,1.03166,0.56168
852.286,36.9687,-1.00026,1.02984,0.56102
852.986,36.9924,-1.00023,1.04254,0.56036
853.686,37.01607,-1.00157,1.04507,0.5597
854.386,37.03973,-1.00155,1.05352,0.55904
855.086,37.0634,-1.00155,1.05867,0.55838
855.786,37.08705,-1.00152,1.06418,0.55772
856.486,37.11073,-1.00011,1.06992,0.55706
857.186,37.13442,-0.99961,1.08002,0.55639
857.886,37.1581,-0.99878,1.08686,0.55573
858.586,37.1818,-0.99953,1.09077,0.55507
859.286,37.20543,-0.99881,1.09916,0.5544
859.986,37.22905,-0.99916,1.10464,0.55374
860.686,37.25274,-1.00144,1.11147,0.55308
861.386,37.27635,-1.00255,1.12155,0.55241
862.086,37.30003,-1.00199,1.12897,0.55175
862.786,37.3236,-1.0022,1.13553,0.55108
863.486,37.34728,-1.00284,1.14297,0.55042
864.186,37.37093,-1.00443,1.14819,0.54975
864.886,37.39461,-1.00541,1.1551,0.54908
865.586,37.4183,-1.00713,1.16443,0.54842
866.286,37.44195,-1.00855,1.17298,0.54775
866.986,37.4657,-1.00857,1.17634,0.54708
867.686,37.48936,-1.01002,1.18542,0.54642
868.386,37.5131,-1.01073,1.1934,0.54575
869.086,37.53672,-1.01131,1.19815,0.54508
869.786,37.56042,-1.01213,1.20602,0.54441
870.486,37.58408,-1.01259,1.21395,0.54374
871.186,37.60771,-1.01405,1.22162,0.54307
871.886,37.63135,-1.0154,1.2302,0.5424
872.586,37.655,-1.01557,1.23749,0.54173
873.286,37.67856,-1.01669,1.24411,0.54106
873.986,37.70219,-1.01776,1.25377,0.54039
874.686,37.72588,-1.01811,1.26354,0.53972
875.386,37.74957,-1.01953,1.2688,0.53905
876.086,37.77325,-1.02072,1.27591,0.53838
876.786,37.7969,-1.02108,1.28168,0.53771
877.486,37.82055,-1.02145,1.29212,0.53703
878.186,37.84421,-1.01959,1.29918,0.53636
878.886,37.8679,-1.01895,1.3048,0.53569
879.586,37.89154,-1.01896,1.31499,0.53502
880.286,37.91514,-1.01906,1.32674,0.53434
880.986,37.93878,-1.01918,1.33995,0.53367
881.686,37.96244,-1.0213,1.34758,0.53299
882.386,37.98614,-1.02393,1.35834,0.53232
883.086,38.00976,-1.0271,1.36364,0.53164
883.786,38.03338,-1.0284,1.3721,0.53097
884.486,38.05696,-1.02872,1.38545,0.53029
885.186,38.0806,-1.03163,1.40018,0.52962
885.886,38.10418,-1.03309,1.40859,0.52894
886.586,38.1278,-1.03423,1.41408,0.52827
887.286,38.15135,-1.0358,1.42587,0.52759
887.986,38.17497,-1.03715,1.43715,0.52691
888.686,38.1986,-1.03858,1.45027,0.52624
889.386,38.2223,-1.0403,1.45652,0.52556
890.086,38.24586,-1.04202,1.46681,0.52488
890.786,38.2695,-1.04145,1.47919,0.5242
891.486,38.29312,-1.04201,1.49529,0.52353
892.186,38.317,-1.04348,1.50912,0.52285
892.586,38.33064,-1.04355,1.51404,0.52246