File: 01_Data/LW_GypBoard_Gypsum_Core/STA/N2/30K_min/Lw_Gypsum_Core_STA_N2_30KData_222802_R3.csv
##Temp./Â°C,Time/min,Mass loss(subtr.2)/mg,DSC(subtr.2)/(mW/mg),Sensit./(uV/mW)
48.788,10.00667,0.00044,0.0138423,1.0889
49.588,10.57128,0.000489987,0.05241485,1.08822
50.388,10.7035,4.13208e-05,0.08661579,1.08755
51.188,10.79824,0.0001620966,0.11687,1.08688
51.988,10.8754,-2.829022e-05,0.14646,1.0862
52.788,10.94262,9.001525e-06,0.16753,1.08553
53.588,11.00249,0.001739809,0.19,1.08486
54.388,11.0573,0.00141961,0.21236,1.08419
55.188,11.10887,0.002891307,0.23394,1.08353
55.988,11.157,0.0008779191,0.25109,1.08286
56.788,11.20249,0.0002797668,0.27065,1.08219
57.588,11.24616,0.000124557,0.28878,1.08153
58.388,11.28787,-0.0004972601,0.30513,1.08087
59.188,11.3284,0.000409962,0.32113,1.08021
59.988,11.36767,0.0003566376,0.3351,1.07954
60.788,11.4057,0.000934006,0.35112,1.07888
61.588,11.4427,0.000383742,0.36304,1.07823
62.388,11.47894,-0.0005555838,0.37571,1.07757
63.188,11.51443,0.0009251111,0.38896,1.07691
63.988,11.54911,0.00143424,0.40054,1.07626
64.788,11.5831,-0.0003564922,0.41446,1.0756
65.588,11.61682,-0.0003025412,0.42569,1.07495
66.388,11.65011,-0.0003909934,0.43636,1.0743
67.188,11.68285,-0.002028251,0.44927,1.07365
67.988,11.71514,-0.00158517,0.45976,1.073
68.788,11.747,-0.00189375,0.47195,1.07235
69.588,11.77858,-0.002593462,0.47963,1.0717
70.388,11.81015,-0.002342518,0.48993,1.07105
71.188,11.8412,-0.00167429,0.49976,1.07041
71.988,11.87188,-0.0007175708,0.51118,1.06976
72.788,11.90231,0.000311576,0.52108,1.06912
73.588,11.93257,0.0002910444,0.532,1.06848
74.388,11.96291,-0.0002459077,0.5386,1.06784
75.188,11.993,-0.0006414878,0.54889,1.0672
75.988,12.02275,-0.0007099221,0.55946,1.06656
76.788,12.05222,-0.0008544942,0.56905,1.06592
77.588,12.08163,-0.0004943196,0.5787,1.06528
78.388,12.11096,0.000849869,0.58572,1.06465
79.188,12.1401,0.000126177,0.59765,1.06401
79.988,12.16901,-0.00080801,0.60932,1.06338
80.788,12.19787,-0.00156283,0.61816,1.06275
81.588,12.22672,-0.0009820737,0.62672,1.06212
82.388,12.2555,-0.001248393,0.63823,1.06149
83.188,12.28412,-0.002486101,0.64887,1.06086
83.988,12.31246,-0.00265008,0.65822,1.06023
84.788,12.34075,-0.002845995,0.66997,1.0596
85.588,12.36892,-0.00433597,0.68152,1.05898
86.388,12.39703,-0.00578671,0.69103,1.05835
87.188,12.42505,-0.005746091,0.70334,1.05773
87.988,12.45309,-0.005809907,0.71629,1.0571
88.788,12.48097,-0.005865552,0.72567,1.05648
89.588,12.50882,-0.007133641,0.73749,1.05586
90.388,12.53662,-0.00712683,0.74962,1.05524
91.188,12.56426,-0.00832281,0.76334,1.05463
91.988,12.59188,-0.00712518,0.77522,1.05401
92.788,12.6195,-0.00682409,0.79273,1.05339
93.588,12.647,-0.0071287,0.80598,1.05278
94.388,12.67437,-0.008216113,0.81948,1.05216
95.188,12.7019,-0.008605573,0.83753,1.05155
95.988,12.72938,-0.009864952,0.85562,1.05094
96.788,12.75672,-0.009868685,0.87156,1.05033
97.588,12.78394,-0.01059409,0.89238,1.04972
98.388,12.81124,-0.01119086,0.91409,1.04911
99.188,12.83847,-0.01118715,0.93387,1.0485
99.988,12.86576,-0.01270509,0.95877,1.0479
100.788,12.89299,-0.01380947,0.98511,1.04729
101.588,12.9201,-0.0138105,1.01081,1.04669
102.388,12.9472,-0.01630053,1.04045,1.04609
103.188,12.97435,-0.01654504,1.07307,1.04548
103.988,13.0014,-0.0178685,1.10348,1.04488
104.788,13.02853,-0.01792856,1.1407,1.04428
105.588,13.0556,-0.01929086,1.17734,1.04368
106.388,13.08275,-0.02088248,1.2191,1.04309
107.188,13.1099,-0.02357681,1.26036,1.04249
107.988,13.13691,-0.02487674,1.30195,1.04189
108.788,13.164,-0.02647491,1.34419,1.0413
109.588,13.1911,-0.02837506,1.39084,1.04071
110.388,13.2182,-0.03057667,1.43425,1.04011
111.188,13.24518,-0.03237276,1.47651,1.03952
111.988,13.27225,-0.03470838,1.52111,1.03893
112.788,13.29936,-0.03778647,1.56459,1.03834
113.588,13.32639,-0.0398046,1.61101,1.03775
114.388,13.35329,-0.04189603,1.66112,1.03717
115.188,13.3801,-0.04521266,1.70891,1.03658
115.988,13.407,-0.04861896,1.76155,1.036
116.788,13.434,-0.05038243,1.82319,1.03541
117.588,13.461,-0.05258336,1.90162,1.03483
118.388,13.4879,-0.05620295,2.01143,1.03425
119.188,13.51482,-0.05967832,2.17862,1.03367
119.988,13.54161,-0.06366886,2.36373,1.03309
120.788,13.56835,-0.06826264,2.55513,1.03251
121.588,13.5953,-0.07661439,2.7556,1.03193
122.388,13.62238,-0.08230132,2.96922,1.03135
123.188,13.64926,-0.08681555,3.19072,1.03078
123.988,13.6762,-0.09347957,3.42477,1.0302
124.788,13.70324,-0.10137,3.67165,1.02963
125.588,13.7303,-0.11015,3.93219,1.02906
126.388,13.7572,-0.11958,4.20189,1.02849
127.188,13.7842,-0.13022,4.48872,1.02792
127.988,13.81139,-0.14078,4.79063,1.02735
128.788,13.83859,-0.15226,5.10296,1.02678
129.588,13.8657,-0.16449,5.42624,1.02621
130.388,13.8929,-0.17673,5.76061,1.02565
131.188,13.9201,-0.1898,6.10819,1.02508
131.988,13.9472,-0.20489,6.4503,1.02452
132.788,13.97436,-0.2197,6.79219,1.02395
133.588,14.0016,-0.23504,7.13338,1.02339
134.388,14.02891,-0.25084,7.463,1.02283
135.188,14.05618,-0.26734,7.77726,1.02227
135.988,14.08349,-0.2855,8.06615,1.02171
136.788,14.1107,-0.30428,8.32759,1.02115
137.588,14.13776,-0.32354,8.55205,1.02059
138.388,14.1648,-0.34104,8.73523,1.02004
139.188,14.1921,-0.35957,8.87007,1.01948
139.988,14.21919,-0.37637,8.94641,1.01893
140.788,14.24608,-0.39453,8.95758,1.01838
141.588,14.27295,-0.41237,8.8957,1.01782
142.388,14.29986,-0.42888,8.76249,1.01727
143.188,14.32691,-0.44645,8.55375,1.01672
143.988,14.3535,-0.46173,8.27572,1.01617
144.788,14.37982,-0.47485,7.94768,1.01562
145.588,14.406,-0.48802,7.61911,1.01508
146.388,14.43211,-0.49675,7.36175,1.01453
147.188,14.4582,-0.50506,7.17843,1.01399
147.988,14.4842,-0.51782,7.05222,1.01344
148.788,14.51,-0.52998,6.97871,1.0129
149.588,14.5357,-0.54021,6.94216,1.01236
150.388,14.56136,-0.5503,6.94151,1.01181
151.188,14.58699,-0.56074,6.9632,1.01127
151.988,14.6125,-0.57129,7.00049,1.01073
152.788,14.63807,-0.58191,7.04389,1.0102
153.588,14.66365,-0.59322,7.07529,1.00966
154.388,14.68929,-0.60532,7.08268,1.00912
155.188,14.7149,-0.61687,7.0468,1.00859
155.988,14.7404,-0.62788,6.98704,1.00805
156.788,14.7659,-0.63876,6.91089,1.00752
157.588,14.79134,-0.64921,6.80555,1.00699
158.388,14.81674,-0.65864,6.63496,1.00645
159.188,14.8421,-0.66814,6.34897,1.00592
159.988,14.8673,-0.67745,5.90581,1.00539
160.788,14.89255,-0.68592,5.38994,1.00486
161.588,14.9176,-0.69147,4.88696,1.00434
162.388,14.94241,-0.69609,4.42072,1.00381
163.188,14.9672,-0.69941,3.99925,1.00328
163.988,14.99196,-0.70091,3.6155,1.00276
164.788,15.0166,-0.70267,3.27662,1.00223
165.588,15.041,-0.7042,2.97515,1.00171
166.388,15.0654,-0.70552,2.71131,1.00119
167.188,15.08971,-0.70582,2.47445,1.00067
167.988,15.11404,-0.70822,2.2676,1.00015
168.788,15.13835,-0.71464,2.08452,0.99963
169.588,15.1625,-0.72103,1.92685,0.99911
170.388,15.1867,-0.71097,1.7835,0.99859
171.188,15.2108,-0.69527,1.66146,0.99808
171.988,15.2351,-0.70183,1.54935,0.99756
172.788,15.25941,-0.71921,1.45465,0.99704
173.588,15.2836,-0.7203,1.36879,0.99653
174.388,15.3078,-0.71501,1.29357,0.99602
175.188,15.33195,-0.71404,1.22559,0.9955
175.988,15.35604,-0.71414,1.16812,0.99499
176.788,15.38035,-0.7157,1.11613,0.99448
177.588,15.4046,-0.71782,1.071,0.99397
178.388,15.4289,-0.71852,1.02849,0.99347
179.188,15.4531,-0.71987,0.99266,0.99296
179.988,15.47735,-0.71988,0.96092,0.99245
180.788,15.5016,-0.72124,0.9311,0.99194
181.588,15.52576,-0.72119,0.90439,0.99144
182.388,15.5498,-0.72119,0.88096,0.99094
183.188,15.5738,-0.72016,0.85832,0.99043
183.988,15.5978,-0.71987,0.84017,0.98993
184.788,15.62204,-0.71987,0.82186,0.98943
185.588,15.64652,-0.71987,0.80788,0.98893
186.388,15.67092,-0.71987,0.79149,0.98843
187.188,15.6952,-0.71999,0.78233,0.98793
187.988,15.71924,-0.72118,0.76728,0.98743
188.788,15.74341,-0.72118,0.75788,0.98693
189.588,15.7677,-0.72117,0.74904,0.98644
190.388,15.79195,-0.72252,0.73912,0.98594
191.188,15.8162,-0.72311,0.73065,0.98545
191.988,15.8403,-0.72382,0.72237,0.98495
192.788,15.86447,-0.72382,0.71593,0.98446
193.588,15.8887,-0.72382,0.70803,0.98397
194.388,15.91291,-0.72382,0.69982,0.98348
195.188,15.93718,-0.72369,0.6955,0.98299
195.988,15.96134,-0.72248,0.68981,0.9825
196.788,15.98554,-0.72425,0.6842,0.98201
197.588,16.00969,-0.72617,0.67928,0.98152
198.388,16.03389,-0.72776,0.67526,0.98103
199.188,16.0581,-0.727,0.67044,0.98055
199.988,16.0824,-0.72776,0.66715,0.98006
200.788,16.1066,-0.72776,0.66567,0.97958
201.588,16.13081,-0.72776,0.66043,0.97909
202.388,16.15501,-0.72776,0.65418,0.97861
203.188,16.17918,-0.72776,0.6516,0.97813
203.988,16.20344,-0.72744,0.64856,0.97764
204.788,16.2277,-0.72776,0.64592,0.97716
205.588,16.25195,-0.72777,0.64369,0.97668
206.388,16.27608,-0.72777,0.63907,0.9762
207.188,16.30033,-0.72777,0.63299,0.97573
207.988,16.32461,-0.72778,0.6309,0.97525
208.788,16.34887,-0.72913,0.63104,0.97477
209.588,16.37306,-0.72908,0.62861,0.9743
210.388,16.3973,-0.72908,0.62729,0.97382
211.188,16.42152,-0.72908,0.62391,0.97335
211.988,16.44567,-0.72908,0.62103,0.97287
212.788,16.46985,-0.72908,0.6182,0.9724
213.588,16.49404,-0.72908,0.61747,0.97193
214.388,16.51825,-0.72908,0.61551,0.97146
215.188,16.5425,-0.72908,0.61319,0.97099
215.988,16.56674,-0.72908,0.61084,0.97052
216.788,16.59098,-0.72908,0.60912,0.97005
217.588,16.61523,-0.72908,0.60548,0.96958
218.388,16.6394,-0.72908,0.60375,0.96911
219.188,16.6636,-0.72879,0.60138,0.96864
219.988,16.68779,-0.72819,0.59974,0.96818
220.788,16.71194,-0.72908,0.59867,0.96771
221.588,16.73615,-0.72908,0.59738,0.96725
222.388,16.7603,-0.72909,0.59515,0.96678
223.188,16.7845,-0.73039,0.5939,0.96632
223.988,16.8087,-0.7304,0.59146,0.96586
224.788,16.8329,-0.72979,0.58924,0.9654
225.588,16.857,-0.72908,0.58728,0.96494
226.388,16.88125,-0.72908,0.58427,0.96448
227.188,16.9054,-0.72908,0.58196,0.96402
227.988,16.92955,-0.72909,0.58487,0.96356
228.788,16.95365,-0.73041,0.57987,0.9631
229.588,16.97782,-0.7304,0.58003,0.96264
230.388,17.002,-0.73039,0.57924,0.96219
231.188,17.02621,-0.7317,0.57811,0.96173
231.988,17.05041,-0.7317,0.57567,0.96127
232.788,17.07466,-0.73062,0.5723,0.96082
233.588,17.09885,-0.7304,0.5727,0.96037
234.388,17.12303,-0.73176,0.56972,0.95991
235.188,17.14711,-0.7317,0.56727,0.95946
235.988,17.17124,-0.73306,0.56714,0.95901
236.788,17.19538,-0.73303,0.56488,0.95856
237.588,17.21957,-0.73398,0.56292,0.95811
238.388,17.24377,-0.73435,0.56242,0.95766
239.188,17.268,-0.73435,0.5631,0.95721
239.988,17.29214,-0.73435,0.56129,0.95676
240.788,17.3162,-0.73444,0.56012,0.95631
241.588,17.3403,-0.73567,0.55931,0.95586
242.388,17.3644,-0.73567,0.5562,0.95542
243.188,17.3886,-0.73572,0.55167,0.95497
243.988,17.4127,-0.73698,0.55065,0.95452
244.788,17.43679,-0.73698,0.54876,0.95408
245.588,17.46097,-0.73698,0.54897,0.95364
246.388,17.48515,-0.73698,0.54713,0.95319
247.188,17.5093,-0.73698,0.54493,0.95275
247.988,17.5335,-0.73731,0.54318,0.95231
248.788,17.5577,-0.7384,0.54213,0.95186
249.588,17.5819,-0.73953,0.53982,0.95142
250.388,17.60595,-0.73945,0.53658,0.95098
251.188,17.62999,-0.73842,0.53451,0.95054
251.988,17.65409,-0.73845,0.53568,0.9501
252.788,17.6783,-0.73774,0.53203,0.94967
253.588,17.7025,-0.73775,0.53012,0.94923
254.388,17.7266,-0.73775,0.52759,0.94879
255.188,17.75065,-0.73775,0.52405,0.94835
255.988,17.77476,-0.73775,0.52454,0.94792
256.788,17.79889,-0.73775,0.5218,0.94748
257.588,17.82297,-0.73775,0.51974,0.94705
258.388,17.8472,-0.73775,0.51846,0.94661
259.188,17.8713,-0.73775,0.51539,0.94618
259.988,17.89546,-0.73775,0.51432,0.94575
260.788,17.9195,-0.73775,0.50992,0.94531
261.588,17.94369,-0.73775,0.50859,0.94488
262.388,17.96784,-0.73775,0.50626,0.94445
263.188,17.992,-0.73836,0.50349,0.94402
263.988,18.01612,-0.7384,0.49938,0.94359
264.788,18.04025,-0.7384,0.5011,0.94316
265.588,18.06438,-0.7384,0.49669,0.94273
266.388,18.08849,-0.7384,0.49194,0.9423
267.188,18.1126,-0.7384,0.49146,0.94187
267.988,18.13671,-0.7384,0.48798,0.94144
268.788,18.16086,-0.7384,0.48573,0.94101
269.588,18.185,-0.7384,0.48488,0.94059
270.388,18.20918,-0.73839,0.48429,0.94016
271.188,18.23336,-0.73972,0.48078,0.93974
271.988,18.2575,-0.73972,0.47667,0.93931
272.788,18.28163,-0.73972,0.47383,0.93889
273.588,18.30568,-0.73973,0.47075,0.93846
274.388,18.32979,-0.74109,0.46812,0.93804
275.188,18.35398,-0.74104,0.46621,0.93761
275.988,18.37818,-0.74104,0.4646,0.93719
276.788,18.4024,-0.74104,0.4598,0.93677
277.588,18.42649,-0.74104,0.4583,0.93635
278.388,18.4506,-0.74196,0.45732,0.93593
279.188,18.47478,-0.74312,0.45117,0.93551
279.988,18.49897,-0.74334,0.45148,0.93509
280.788,18.52316,-0.74334,0.44852,0.93467
281.588,18.54736,-0.74334,0.44608,0.93425
282.388,18.57159,-0.74334,0.44404,0.93383
283.188,18.5958,-0.74334,0.43989,0.93341
283.988,18.6199,-0.74334,0.43499,0.93299
284.788,18.64405,-0.74465,0.43398,0.93257
285.588,18.66824,-0.74466,0.43079,0.93216
286.388,18.69246,-0.74466,0.42775,0.93174
287.188,18.71656,-0.74466,0.42371,0.93132
287.988,18.74071,-0.74466,0.42129,0.93091
288.788,18.76484,-0.74466,0.41836,0.93049
289.588,18.78904,-0.7446,0.41542,0.93008
290.388,18.81324,-0.74367,0.41256,0.92966
291.188,18.83746,-0.74367,0.4113,0.92925
291.988,18.86165,-0.74367,0.40768,0.92883
292.788,18.88588,-0.74367,0.40559,0.92842
293.588,18.91007,-0.74367,0.40141,0.92801
294.388,18.93436,-0.74367,0.40121,0.9276
295.188,18.95849,-0.74455,0.39935,0.92718
295.988,18.98274,-0.74466,0.39892,0.92677
296.788,19.00691,-0.74466,0.39652,0.92636
297.588,19.03114,-0.74466,0.39263,0.92595
298.388,19.0553,-0.74465,0.39199,0.92554
299.188,19.07957,-0.74597,0.39001,0.92513
299.988,19.10385,-0.74598,0.38703,0.92472
300.788,19.12804,-0.74598,0.38374,0.92431
301.588,19.15223,-0.74598,0.38122,0.9239
302.388,19.17642,-0.74598,0.38015,0.92349
303.188,19.20066,-0.74671,0.37635,0.92309
303.988,19.225,-0.74729,0.37735,0.92268
304.788,19.2492,-0.74729,0.375,0.92227
305.588,19.27352,-0.74729,0.37199,0.92186
306.388,19.2977,-0.74729,0.36975,0.92146
307.188,19.322,-0.74729,0.36502,0.92105
307.988,19.34628,-0.74729,0.36362,0.92064
308.788,19.37057,-0.74729,0.36303,0.92024
309.588,19.3948,-0.74729,0.35959,0.91983
310.388,19.41907,-0.74729,0.3572,0.91943
311.188,19.44339,-0.7473,0.35319,0.91902
311.988,19.4677,-0.74865,0.35273,0.91862
312.788,19.49205,-0.74861,0.34887,0.91821
313.588,19.51628,-0.74861,0.34455,0.91781
314.388,19.54045,-0.74789,0.34352,0.91741
315.188,19.56466,-0.74729,0.33792,0.917
315.988,19.589,-0.74729,0.33604,0.9166
316.788,19.61338,-0.74729,0.33105,0.9162
317.588,19.6377,-0.74729,0.32539,0.91579
318.388,19.6619,-0.74729,0.32325,0.91539
319.188,19.68618,-0.74729,0.31906,0.91499
319.988,19.71041,-0.74729,0.31324,0.91459
320.788,19.7348,-0.74729,0.30975,0.91419
321.588,19.75889,-0.74729,0.30255,0.91379
322.388,19.78327,-0.74755,0.29695,0.91339
323.188,19.80753,-0.7486,0.29735,0.91299
323.988,19.83211,-0.7486,0.2879,0.91259
324.788,19.85642,-0.74824,0.28126,0.91219
325.588,19.88079,-0.74827,0.27838,0.91179
326.388,19.90504,-0.74827,0.26887,0.91139
327.188,19.92938,-0.74827,0.26297,0.91099
327.988,19.95371,-0.74827,0.2582,0.91059
328.788,19.97813,-0.74954,0.25641,0.91019
329.588,20.00251,-0.74959,0.24452,0.90979
330.388,20.02688,-0.7496,0.23876,0.90939
331.188,20.05124,-0.75088,0.23625,0.909
331.988,20.07562,-0.75225,0.22708,0.9086
332.788,20.09998,-0.75223,0.2217,0.9082
333.588,20.1244,-0.75221,0.21679,0.9078
334.388,20.14874,-0.75379,0.20948,0.90741
335.188,20.17318,-0.75539,0.20441,0.90701
335.988,20.19762,-0.75641,0.20006,0.90661
336.788,20.222,-0.75493,0.19514,0.90622
337.588,20.24634,-0.75401,0.19432,0.90582
338.388,20.27073,-0.75365,0.18911,0.90542
339.188,20.2951,-0.75365,0.18633,0.90503
339.988,20.3195,-0.75365,0.18549,0.90463
340.788,20.34393,-0.75365,0.18231,0.90424
341.588,20.3685,-0.75365,0.17911,0.90384
342.388,20.39295,-0.75365,0.17993,0.90344
343.188,20.41742,-0.7538,0.17685,0.90305
343.988,20.44189,-0.75497,0.17714,0.90265
344.788,20.4663,-0.75497,0.17368,0.90226
345.588,20.49074,-0.75483,0.17553,0.90187
346.388,20.51524,-0.75389,0.17414,0.90147
347.188,20.53975,-0.75365,0.17265,0.90108
347.988,20.56426,-0.75365,0.17374,0.90068
348.788,20.5888,-0.75365,0.17102,0.90029
349.588,20.61328,-0.75365,0.17392,0.89989
350.388,20.63777,-0.75382,0.17355,0.8995
351.188,20.66222,-0.75497,0.17302,0.89911
351.988,20.68679,-0.75498,0.17474,0.89871
352.788,20.71138,-0.75627,0.17254,0.89832
353.588,20.73594,-0.75628,0.17643,0.89793
354.388,20.76054,-0.75628,0.17726,0.89753
355.188,20.78517,-0.75628,0.17721,0.89714
355.988,20.80979,-0.75731,0.17651,0.89675
356.788,20.83444,-0.7576,0.17886,0.89635
357.588,20.85901,-0.7576,0.17482,0.89596
358.388,20.8837,-0.75869,0.17966,0.89557
359.188,20.90822,-0.75891,0.1765,0.89518
359.988,20.93287,-0.75891,0.17796,0.89478
360.788,20.95748,-0.75891,0.17427,0.89439
361.588,20.9821,-0.75891,0.17473,0.894
362.388,21.0067,-0.75891,0.17512,0.89361
363.188,21.0313,-0.75932,0.17224,0.89321
363.988,21.05591,-0.76042,0.17257,0.89282
364.788,21.08054,-0.76155,0.17121,0.89243
365.588,21.1052,-0.76155,0.16647,0.89204
366.388,21.1299,-0.76155,0.16396,0.89165
367.188,21.15465,-0.76157,0.16388,0.89125
367.988,21.17934,-0.76022,0.15987,0.89086
368.788,21.20397,-0.76023,0.15966,0.89047
369.588,21.2286,-0.76023,0.15708,0.89008
370.388,21.2533,-0.76023,0.15353,0.88969
371.188,21.27797,-0.76023,0.15154,0.88929
371.988,21.30268,-0.75965,0.14931,0.8889
372.788,21.3274,-0.75892,0.1462,0.88851
373.588,21.35211,-0.7602,0.14582,0.88812
374.388,21.37689,-0.76023,0.14532,0.88773
375.188,21.40168,-0.76023,0.14277,0.88733
375.988,21.42644,-0.76023,0.13909,0.88694
376.788,21.45115,-0.75888,0.1387,0.88655
377.588,21.47588,-0.75891,0.13513,0.88616
378.388,21.50061,-0.7593,0.13523,0.88577
379.188,21.52535,-0.7599,0.13322,0.88538
379.988,21.55005,-0.7602,0.13318,0.88498
380.788,21.57477,-0.76125,0.13178,0.88459
381.588,21.59948,-0.76122,0.13058,0.8842
382.388,21.62428,-0.76122,0.12831,0.88381
383.188,21.64905,-0.76121,0.12997,0.88342
383.988,21.67386,-0.76255,0.12919,0.88302
384.788,21.69858,-0.76251,0.12884,0.88263
385.588,21.7233,-0.76285,0.128,0.88224
386.388,21.7481,-0.76419,0.12926,0.88185
387.188,21.77286,-0.76418,0.13033,0.88146
387.988,21.79766,-0.76418,0.13382,0.88106
388.788,21.82248,-0.76436,0.1335,0.88067
389.588,21.84734,-0.76549,0.13613,0.88028
390.388,21.87219,-0.76549,0.13536,0.87989
391.188,21.897,-0.76549,0.14025,0.87949
391.988,21.9218,-0.76552,0.1391,0.8791
392.788,21.94666,-0.76418,0.14443,0.87871
393.588,21.9715,-0.76418,0.14537,0.87832
394.388,21.9965,-0.76418,0.14817,0.87792
395.188,22.02136,-0.76418,0.14974,0.87753
395.988,22.04627,-0.76419,0.15381,0.87714
396.788,22.07111,-0.76518,0.15636,0.87675
397.588,22.09599,-0.76515,0.15911,0.87635
398.388,22.12077,-0.76696,0.16248,0.87596
399.188,22.14559,-0.76692,0.1642,0.87557
399.988,22.1705,-0.76803,0.16715,0.87517
400.788,22.19539,-0.76824,0.16598,0.87478
401.588,22.2202,-0.76824,0.16688,0.87438
402.388,22.2451,-0.76824,0.165,0.87399
403.188,22.26998,-0.76829,0.16507,0.8736
403.988,22.295,-0.76693,0.16084,0.8732
404.788,22.31985,-0.76692,0.15971,0.87281
405.588,22.3448,-0.76692,0.15767,0.87241
406.388,22.36978,-0.76692,0.15312,0.87202
407.188,22.39486,-0.76689,0.15013,0.87162
407.988,22.4197,-0.76791,0.14367,0.87123
408.788,22.44465,-0.76792,0.13795,0.87084
409.588,22.46954,-0.76928,0.13172,0.87044
410.388,22.4945,-0.76923,0.12472,0.87004
411.188,22.5195,-0.76923,0.11959,0.86965
411.988,22.54441,-0.76923,0.10953,0.86925
412.788,22.56939,-0.76915,0.10036,0.86886
413.588,22.59436,-0.76791,0.09245306,0.86846
414.388,22.61935,-0.76791,0.08307468,0.86807
415.188,22.6443,-0.76791,0.0708908,0.86767
415.988,22.66925,-0.76788,0.06164663,0.86727
416.788,22.69421,-0.76823,0.049429,0.86688
417.588,22.71919,-0.76823,0.03852901,0.86648
418.388,22.7442,-0.76747,0.02407643,0.86608
419.188,22.7691,-0.76789,0.01222264,0.86568
419.988,22.79411,-0.76791,-0.0008552986,0.86529
420.788,22.8191,-0.76791,-0.01300477,0.86489
421.588,22.84415,-0.76791,-0.02645135,0.86449
422.388,22.86918,-0.76791,-0.04168795,0.86409
423.188,22.89421,-0.76791,-0.05979658,0.86369
423.988,22.91926,-0.76791,-0.07256104,0.8633
424.788,22.94429,-0.76867,-0.08891696,0.8629
425.588,22.9693,-0.76923,-0.10442,0.8625
426.388,22.99439,-0.76954,-0.11966,0.8621
427.188,23.01945,-0.76955,-0.13848,0.8617
427.988,23.0445,-0.76955,-0.15486,0.8613
428.788,23.06958,-0.77017,-0.17073,0.8609
429.588,23.09459,-0.77087,-0.18517,0.8605
430.388,23.11954,-0.77087,-0.20288,0.8601
431.188,23.14459,-0.77087,-0.21677,0.8597
431.988,23.1696,-0.77085,-0.23415,0.8593
432.788,23.1947,-0.77221,-0.24833,0.8589
433.588,23.21965,-0.77219,-0.26512,0.85849
434.388,23.24465,-0.77218,-0.27866,0.85809
435.188,23.26976,-0.77082,-0.29138,0.85769
435.988,23.29486,-0.77087,-0.30589,0.85729
436.788,23.31994,-0.77087,-0.31919,0.85688
437.588,23.34502,-0.76953,-0.3332,0.85648
438.388,23.3701,-0.76956,-0.34242,0.85608
439.188,23.3952,-0.77069,-0.3552,0.85567
439.988,23.4203,-0.77087,-0.36591,0.85527
440.788,23.44538,-0.77087,-0.36961,0.85487
441.588,23.4705,-0.77088,-0.37581,0.85446
442.388,23.49566,-0.77224,-0.38412,0.85406
443.188,23.52086,-0.77219,-0.3897,0.85365
443.988,23.546,-0.77312,-0.39111,0.85325
444.788,23.57116,-0.77351,-0.39391,0.85284
445.588,23.5963,-0.77353,-0.39807,0.85243
446.388,23.62145,-0.77217,-0.39729,0.85203
447.188,23.64658,-0.77219,-0.4003,0.85162
447.988,23.67172,-0.77219,-0.39462,0.85121
448.788,23.6968,-0.77219,-0.39132,0.85081
449.588,23.72195,-0.77219,-0.3908,0.8504
450.388,23.74711,-0.7722,-0.38282,0.84999
451.188,23.77233,-0.77374,-0.37732,0.84958
451.988,23.79755,-0.77448,-0.3677,0.84917
452.788,23.8228,-0.77449,-0.3578,0.84877
453.588,23.84809,-0.77449,-0.34881,0.84836
454.388,23.87341,-0.77449,-0.33816,0.84795
455.188,23.89869,-0.77449,-0.32716,0.84754
455.988,23.92398,-0.77448,-0.31377,0.84713
456.788,23.94926,-0.77333,-0.2983,0.84671
457.588,23.97459,-0.77313,-0.28322,0.8463
458.388,23.99993,-0.77285,-0.27107,0.84589
459.188,24.0252,-0.77418,-0.2557,0.84548
459.988,24.05021,-0.77416,-0.24171,0.84507
460.788,24.0755,-0.77416,-0.22639,0.84465
461.588,24.1008,-0.77416,-0.21449,0.84424
462.388,24.12643,-0.77416,-0.19843,0.84383
463.188,24.15176,-0.77416,-0.18122,0.84341
463.988,24.17719,-0.77416,-0.17067,0.843
464.788,24.20259,-0.77416,-0.15467,0.84258
465.588,24.22798,-0.77416,-0.14044,0.84217
466.388,24.25331,-0.77416,-0.12293,0.84175
467.188,24.27864,-0.77549,-0.11342,0.84134
467.988,24.30408,-0.77548,-0.09875845,0.84092
468.788,24.32946,-0.77485,-0.0829422,0.8405
469.588,24.3549,-0.77364,-0.07303416,0.84009
470.388,24.38031,-0.77317,-0.05955894,0.83967
471.188,24.40576,-0.77318,-0.04788659,0.83925
471.988,24.43117,-0.77452,-0.03542344,0.83883
472.788,24.45654,-0.77449,-0.02302694,0.83841
473.588,24.48201,-0.77449,-0.01306499,0.83799
474.388,24.50757,-0.77484,-0.00245439,0.83758
475.188,24.5331,-0.77481,0.009743101,0.83716
475.988,24.55857,-0.77581,0.01903262,0.83673
476.788,24.58399,-0.77637,0.02944527,0.83631
477.588,24.60949,-0.7766,0.03944721,0.83589
478.388,24.6349,-0.7768,0.05052677,0.83547
479.188,24.6604,-0.7768,0.05999049,0.83505
479.988,24.68582,-0.77679,0.06308918,0.83462
480.788,24.7114,-0.77777,0.07516111,0.8342
481.588,24.73691,-0.77778,0.08144766,0.83378
482.388,24.76245,-0.77789,0.08848651,0.83335
483.188,24.7879,-0.77811,0.09707329,0.83293
483.988,24.81346,-0.77811,0.10154,0.8325
484.788,24.83898,-0.77811,0.10934,0.83208
485.588,24.8645,-0.77811,0.11583,0.83165
486.388,24.89004,-0.77811,0.12241,0.83122
487.188,24.91562,-0.77811,0.12851,0.8308
487.988,24.9412,-0.77703,0.13694,0.83037
488.788,24.96669,-0.77679,0.13655,0.82994
489.588,24.99215,-0.77679,0.14348,0.82951
490.388,25.01763,-0.77679,0.14731,0.82908
491.188,25.0432,-0.77679,0.15393,0.82865
491.988,25.0688,-0.77679,0.15483,0.82822
492.788,25.09441,-0.77679,0.15901,0.82779
493.588,25.12,-0.77811,0.16194,0.82736
494.388,25.14556,-0.77811,0.16434,0.82693
495.188,25.17116,-0.77811,0.16995,0.8265
495.988,25.19676,-0.77811,0.17139,0.82606
496.788,25.22235,-0.77811,0.17493,0.82563
497.588,25.248,-0.77847,0.17163,0.8252
498.388,25.27358,-0.77879,0.17288,0.82476
499.188,25.2992,-0.77976,0.17557,0.82433
499.988,25.32477,-0.77976,0.18115,0.82389
500.788,25.35043,-0.77976,0.17913,0.82346
501.588,25.37603,-0.77976,0.18057,0.82302
502.388,25.40165,-0.77976,0.18061,0.82258
503.188,25.42727,-0.77976,0.18271,0.82215
503.988,25.45291,-0.77976,0.18486,0.82171
504.788,25.47855,-0.77976,0.1853,0.82127
505.588,25.50415,-0.77976,0.18679,0.82083
506.388,25.52975,-0.77976,0.18645,0.82039
507.188,25.55536,-0.77976,0.1884,0.81995
507.988,25.58105,-0.77976,0.18682,0.81951
508.788,25.6067,-0.77976,0.18515,0.81907
509.588,25.6324,-0.77878,0.18694,0.81862
510.388,25.65802,-0.77877,0.18653,0.81818
511.188,25.68369,-0.77877,0.18423,0.81774
511.988,25.7093,-0.77872,0.18602,0.8173
512.788,25.7349,-0.77975,0.18738,0.81685
513.588,25.76057,-0.77975,0.18585,0.81641
514.388,25.7863,-0.77975,0.18502,0.81596
515.188,25.812,-0.77975,0.18562,0.81551
515.988,25.8377,-0.77975,0.18686,0.81507
516.788,25.86342,-0.77975,0.18522,0.81462
517.588,25.88906,-0.77975,0.18758,0.81417
518.388,25.91469,-0.77975,0.18186,0.81372
519.188,25.94041,-0.77975,0.18637,0.81328
519.988,25.96615,-0.77975,0.18295,0.81283
520.788,25.99188,-0.77975,0.18433,0.81238
521.588,26.01758,-0.78032,0.18489,0.81192
522.388,26.04328,-0.78041,0.18671,0.81147
523.188,26.069,-0.78041,0.18415,0.81102
523.988,26.09471,-0.78042,0.18637,0.81057
524.788,26.12036,-0.77909,0.1855,0.81012
525.588,26.1461,-0.7791,0.1903,0.80966
526.388,26.17185,-0.77996,0.18785,0.80921
527.188,26.1978,-0.78177,0.19008,0.80875
527.988,26.22363,-0.78173,0.19125,0.8083
528.788,26.24933,-0.78173,0.19141,0.80784
529.588,26.2751,-0.78173,0.19626,0.80738
530.388,26.30085,-0.78173,0.19494,0.80693
531.188,26.3267,-0.78173,0.19613,0.80647
531.988,26.35248,-0.78173,0.19783,0.80601
532.788,26.3783,-0.78173,0.2,0.80555
533.588,26.40408,-0.78173,0.19993,0.80509
534.388,26.42987,-0.78168,0.19982,0.80463
535.188,26.45569,-0.78304,0.19996,0.80417
535.988,26.48163,-0.78305,0.19833,0.8037
536.788,26.5075,-0.78305,0.19816,0.80324
537.588,26.5333,-0.78305,0.19865,0.80278
538.388,26.5591,-0.78206,0.20046,0.80231
539.188,26.585,-0.78206,0.19976,0.80185
539.988,26.6109,-0.78207,0.1985,0.80138
540.788,26.63682,-0.78274,0.19884,0.80092
541.588,26.66263,-0.78272,0.1995,0.80045
542.388,26.6885,-0.78272,0.1979,0.79998
543.188,26.71432,-0.78272,0.19824,0.79952
543.988,26.74,-0.78272,0.20167,0.79905
544.788,26.76582,-0.78405,0.20008,0.79858
545.588,26.79164,-0.78404,0.19846,0.79811
546.388,26.8177,-0.78404,0.19897,0.79764
547.188,26.84364,-0.78406,0.19829,0.79717
547.988,26.8696,-0.7827,0.19751,0.79669
548.788,26.8955,-0.78272,0.19912,0.79622
549.588,26.9214,-0.78272,0.2006,0.79575
550.388,26.94728,-0.78273,0.19961,0.79527
551.188,26.97317,-0.7814,0.20039,0.7948
551.988,26.99897,-0.7814,0.19725,0.79432
552.788,27.02488,-0.7814,0.20104,0.79385
553.588,27.05078,-0.78314,0.20153,0.79337
554.388,27.0768,-0.78304,0.20374,0.79289
555.188,27.1027,-0.78304,0.20199,0.79242
555.988,27.1286,-0.78304,0.20383,0.79194
556.788,27.1546,-0.78311,0.20358,0.79146
557.588,27.18055,-0.78436,0.20614,0.79098
558.388,27.20655,-0.78436,0.20882,0.7905
559.188,27.2325,-0.78436,0.20557,0.79001
559.988,27.25848,-0.78436,0.20679,0.78953
560.788,27.2844,-0.78436,0.20908,0.78905
561.588,27.3104,-0.78436,0.2121,0.78856
562.388,27.3363,-0.78436,0.20885,0.78808
563.188,27.36233,-0.78436,0.21104,0.7876
563.988,27.38842,-0.78439,0.21216,0.78711
564.788,27.41435,-0.78306,0.21173,0.78662
565.588,27.44023,-0.78305,0.21232,0.78613
566.388,27.46616,-0.78306,0.21469,0.78565
567.188,27.49216,-0.78438,0.21639,0.78516
567.988,27.5182,-0.78436,0.2183,0.78467
568.788,27.5442,-0.78436,0.22015,0.78418
569.588,27.5703,-0.78436,0.2176,0.78369
570.388,27.5964,-0.78436,0.21866,0.7832
571.188,27.6224,-0.78436,0.21865,0.7827
571.988,27.6484,-0.78436,0.22349,0.78221
572.788,27.6744,-0.78436,0.22354,0.78172
573.588,27.70048,-0.78436,0.22675,0.78122
574.388,27.7265,-0.78404,0.22667,0.78073
575.188,27.7525,-0.78337,0.22725,0.78023
575.988,27.7786,-0.78337,0.22777,0.77973
576.788,27.8047,-0.78337,0.22949,0.77923
577.588,27.83083,-0.78332,0.23226,0.77874
578.388,27.857,-0.78468,0.23338,0.77824
579.188,27.88301,-0.78469,0.23178,0.77774
579.988,27.9091,-0.78468,0.23581,0.77724
580.788,27.93517,-0.78603,0.23585,0.77673
581.588,27.96132,-0.78601,0.23988,0.77623
582.388,27.98743,-0.78601,0.24305,0.77573
583.188,28.0135,-0.78601,0.24511,0.77523
583.988,28.0396,-0.78601,0.24181,0.77472
584.788,28.06574,-0.78601,0.24509,0.77422
585.588,28.09191,-0.78601,0.24491,0.77371
586.388,28.11798,-0.78598,0.25041,0.7732
587.188,28.1441,-0.78665,0.24967,0.7727
587.988,28.1702,-0.78665,0.25127,0.77219
588.788,28.19642,-0.78795,0.25375,0.77168
589.588,28.2226,-0.78798,0.25689,0.77117
590.388,28.24877,-0.78798,0.25759,0.77066
591.188,28.27494,-0.78798,0.25915,0.77015
591.988,28.301,-0.78798,0.26501,0.76964
592.788,28.3271,-0.78798,0.2634,0.76912
593.588,28.35336,-0.78798,0.26656,0.76861
594.388,28.37965,-0.78798,0.26946,0.76809
595.188,28.4059,-0.78798,0.27046,0.76758
595.988,28.43204,-0.78798,0.27355,0.76706
596.788,28.45829,-0.78798,0.27365,0.76655
597.588,28.48443,-0.78798,0.27573,0.76603
598.388,28.5106,-0.78798,0.28073,0.76551
599.188,28.5368,-0.78798,0.27976,0.76499
599.988,28.5631,-0.78798,0.28218,0.76447
600.788,28.58928,-0.78798,0.28676,0.76395
601.588,28.61549,-0.78798,0.28685,0.76343
602.388,28.64172,-0.78801,0.28894,0.76291
603.188,28.668,-0.78803,0.29188,0.76238
603.988,28.69427,-0.78798,0.29583,0.76186
604.788,28.7205,-0.78798,0.29872,0.76134
605.588,28.74676,-0.78798,0.30189,0.76081
606.388,28.77297,-0.78798,0.30595,0.76028
607.188,28.7992,-0.78798,0.30913,0.75976
607.988,28.82538,-0.78798,0.3121,0.75923
608.788,28.85159,-0.78798,0.31912,0.7587
609.588,28.87792,-0.78798,0.324,0.75817
610.388,28.9042,-0.78798,0.32487,0.75764
611.188,28.93048,-0.78798,0.33035,0.75711
611.988,28.95672,-0.78798,0.33404,0.75658
612.788,28.98299,-0.78798,0.34159,0.75605
613.588,29.0093,-0.78798,0.34511,0.75551
614.388,29.03558,-0.78798,0.34901,0.75498
615.188,29.06193,-0.78807,0.35352,0.75444
615.988,29.0882,-0.78942,0.36075,0.75391
616.788,29.11451,-0.78963,0.36499,0.75337
617.588,29.1408,-0.78963,0.37183,0.75283
618.388,29.167,-0.78963,0.37329,0.7523
619.188,29.1933,-0.78963,0.3802,0.75176
619.988,29.21958,-0.78963,0.38139,0.75122
620.788,29.24597,-0.78963,0.38425,0.75068
621.588,29.27222,-0.78963,0.39162,0.75014
622.388,29.2985,-0.79048,0.39275,0.74959
623.188,29.32477,-0.79095,0.39565,0.74905
623.988,29.35111,-0.79095,0.40078,0.74851
624.788,29.3775,-0.79095,0.40203,0.74796
625.588,29.4038,-0.79125,0.40782,0.74742
626.388,29.4302,-0.79323,0.40772,0.74687
627.188,29.4565,-0.79324,0.41226,0.74632
627.988,29.48285,-0.79324,0.41445,0.74578
628.788,29.50917,-0.7932,0.41589,0.74523
629.588,29.53547,-0.79455,0.4147,0.74468
630.388,29.5618,-0.79455,0.41754,0.74413
631.188,29.58819,-0.79324,0.41851,0.74358
631.988,29.61451,-0.79457,0.42115,0.74302
632.788,29.6408,-0.79457,0.42706,0.74247
633.588,29.6672,-0.79457,0.42744,0.74192
634.388,29.69357,-0.79457,0.42997,0.74136
635.188,29.72,-0.79457,0.4343,0.74081
635.988,29.74635,-0.79456,0.43594,0.74025
636.788,29.7727,-0.7953,0.43687,0.73969
637.588,29.7991,-0.79456,0.43994,0.73914
638.388,29.8255,-0.79456,0.4445,0.73858
639.188,29.8518,-0.79456,0.44832,0.73802
639.988,29.87815,-0.79454,0.44923,0.73746
640.788,29.9045,-0.79589,0.45403,0.7369
641.588,29.93086,-0.79588,0.45849,0.73634
642.388,29.9573,-0.79588,0.46106,0.73577
643.188,29.98367,-0.79606,0.46478,0.73521
643.988,30.0101,-0.79728,0.46852,0.73464
644.788,30.03653,-0.79753,0.47344,0.73408
645.588,30.0629,-0.79853,0.47671,0.73351
646.388,30.0892,-0.79909,0.47895,0.73295
647.188,30.1156,-0.79983,0.48397,0.73238
647.988,30.1421,-0.79868,0.48903,0.73181
648.788,30.16858,-0.79851,0.49135,0.73124
649.588,30.19497,-0.79956,0.49469,0.73067
650.388,30.2212,-0.79815,0.50141,0.7301
651.188,30.24762,-0.79851,0.50545,0.72953
651.988,30.2741,-0.79851,0.50926,0.72896
652.788,30.3006,-0.79984,0.51575,0.72838
653.588,30.32702,-0.79982,0.52352,0.72781
654.388,30.35345,-0.79982,0.52764,0.72723
655.188,30.37985,-0.80081,0.53215,0.72666
655.988,30.4062,-0.80114,0.53825,0.72608
656.788,30.43259,-0.80114,0.54491,0.7255
657.588,30.45904,-0.80139,0.5509,0.72492
658.388,30.4855,-0.80246,0.55663,0.72434
659.188,30.5119,-0.80246,0.56664,0.72376
659.988,30.53833,-0.80246,0.57205,0.72318
660.788,30.5648,-0.80364,0.57915,0.7226
661.588,30.59115,-0.80377,0.58198,0.72202
662.388,30.61761,-0.80378,0.58911,0.72144
663.188,30.6441,-0.80513,0.59766,0.72085
663.988,30.6705,-0.80508,0.60487,0.72027
664.788,30.6969,-0.80439,0.60946,0.71968
665.588,30.72325,-0.80484,0.61847,0.71909
666.388,30.74966,-0.80509,0.62875,0.71851
667.188,30.77611,-0.80505,0.63245,0.71792
667.988,30.8026,-0.8064,0.63447,0.71733
668.788,30.82902,-0.8064,0.6492,0.71674
669.588,30.85541,-0.80775,0.65451,0.71615
670.388,30.8819,-0.80773,0.65869,0.71556
671.188,30.90837,-0.8086,0.66789,0.71496
671.988,30.93484,-0.80904,0.67512,0.71437
672.788,30.96123,-0.80985,0.68031,0.71378
673.588,30.98775,-0.81035,0.6871,0.71318
674.388,31.0143,-0.81169,0.69622,0.71258
675.188,31.04086,-0.81168,0.70399,0.71199
675.988,31.06735,-0.81168,0.70756,0.71139
676.788,31.0938,-0.81202,0.71617,0.71079
677.588,31.12027,-0.81167,0.72225,0.71019
678.388,31.1468,-0.81299,0.72825,0.70959
679.188,31.17328,-0.81299,0.73124,0.70899
679.988,31.1998,-0.8143,0.73734,0.70839
680.788,31.2263,-0.81536,0.73875,0.70779
681.588,31.2528,-0.81582,0.74704,0.70718
682.388,31.2794,-0.81727,0.7514,0.70658
683.188,31.30596,-0.81867,0.75353,0.70597
683.988,31.33257,-0.81925,0.76209,0.70537
684.788,31.3591,-0.82001,0.76344,0.70476
685.588,31.3856,-0.82054,0.76805,0.70415
686.388,31.4121,-0.82132,0.76948,0.70355
687.188,31.4386,-0.82218,0.773,0.70294
687.988,31.4651,-0.82262,0.77549,0.70233
688.788,31.4916,-0.82408,0.78054,0.70172
689.588,31.51805,-0.82525,0.78612,0.7011
690.388,31.5446,-0.82539,0.78307,0.70049
691.188,31.57106,-0.82674,0.78697,0.69988
691.988,31.59774,-0.82665,0.79106,0.69926
692.788,31.62433,-0.82809,0.78889,0.69865
693.588,31.6509,-0.82969,0.79183,0.69803
694.388,31.67748,-0.83102,0.78978,0.69742
695.188,31.704,-0.83098,0.79309,0.6968
695.988,31.73067,-0.8321,0.794,0.69618
696.788,31.75723,-0.83149,0.79463,0.69556
697.588,31.7837,-0.83242,0.79619,0.69494
698.388,31.8102,-0.83363,0.79561,0.69432
699.188,31.83682,-0.83383,0.7941,0.6937
699.988,31.8635,-0.83525,0.79517,0.69308
700.788,31.89,-0.83632,0.79055,0.69245
701.588,31.91661,-0.83656,0.78849,0.69183
702.388,31.9432,-0.83814,0.78827,0.69121
703.188,31.9698,-0.83949,0.78698,0.69058
703.988,31.99646,-0.83989,0.78494,0.68995
704.788,32.02309,-0.84097,0.78721,0.68933
705.588,32.0497,-0.84216,0.78084,0.6887
706.388,32.07628,-0.84228,0.78303,0.68807
707.188,32.10293,-0.84329,0.78158,0.68744
707.988,32.1295,-0.84356,0.78067,0.68681
708.788,32.15615,-0.84496,0.78142,0.68618
709.588,32.1826,-0.84672,0.77496,0.68555
710.388,32.2093,-0.84807,0.77384,0.68491
711.188,32.2359,-0.84914,0.7693,0.68428
711.988,32.2626,-0.8502,0.77097,0.68364
712.788,32.2892,-0.85106,0.76826,0.68301
713.588,32.31588,-0.85113,0.7615,0.68237
714.388,32.3425,-0.8518,0.75667,0.68174
715.188,32.3692,-0.85238,0.74865,0.6811
715.988,32.3958,-0.85256,0.74127,0.68046
716.788,32.42243,-0.85255,0.72914,0.67982
717.588,32.44905,-0.85258,0.71589,0.67918
718.388,32.47572,-0.85353,0.69852,0.67854
719.188,32.50243,-0.85446,0.68485,0.6779
719.988,32.5291,-0.85539,0.66566,0.67725
720.788,32.55578,-0.85654,0.63926,0.67661
721.588,32.5824,-0.8565,0.6188,0.67597
722.388,32.609,-0.85784,0.5955,0.67532
723.188,32.63558,-0.85786,0.57038,0.67467
723.988,32.6623,-0.85922,0.54762,0.67403
724.788,32.6889,-0.85916,0.527,0.67338
725.588,32.71564,-0.8605,0.50055,0.67273
726.388,32.7423,-0.86048,0.47896,0.67208
727.188,32.769,-0.86164,0.46176,0.67143
727.988,32.79567,-0.8618,0.44548,0.67078
728.788,32.8223,-0.8618,0.42753,0.67013
729.588,32.84902,-0.8618,0.41272,0.66948
730.388,32.87573,-0.86296,0.40071,0.66883
731.188,32.90245,-0.86312,0.38796,0.66817
731.988,32.92913,-0.86312,0.3765,0.66752
732.788,32.95581,-0.86312,0.36864,0.66686
733.588,32.9825,-0.86312,0.36273,0.66621
734.388,33.0092,-0.86195,0.35415,0.66555
735.188,33.0359,-0.8618,0.35038,0.66489
735.988,33.06259,-0.86187,0.34994,0.66423
736.788,33.08927,-0.8631,0.34315,0.66357
737.588,33.11596,-0.8637,0.34152,0.66291
738.388,33.14266,-0.86443,0.33778,0.66225
739.188,33.1693,-0.86443,0.33667,0.66159
739.988,33.19593,-0.86441,0.33924,0.66093
740.788,33.2226,-0.86577,0.33448,0.66027
741.588,33.24928,-0.86575,0.33142,0.6596
742.388,33.27601,-0.86575,0.33338,0.65894
743.188,33.30274,-0.86575,0.33202,0.65827
743.988,33.32945,-0.86575,0.32959,0.65761
744.788,33.35613,-0.86573,0.32992,0.65694
745.588,33.38283,-0.8664,0.32976,0.65627
746.388,33.40961,-0.8666,0.3343,0.6556
747.188,33.43639,-0.8654,0.33396,0.65493
747.988,33.46311,-0.8658,0.32982,0.65426
748.788,33.4898,-0.86445,0.33209,0.65359
749.588,33.5165,-0.86444,0.32972,0.65292
750.388,33.5432,-0.86444,0.33116,0.65225
751.188,33.56995,-0.86538,0.33064,0.65158
751.988,33.59668,-0.86443,0.33375,0.6509
752.788,33.62343,-0.86443,0.3362,0.65023
753.588,33.65011,-0.86443,0.3339,0.64955
754.388,33.6768,-0.86443,0.33631,0.64888
755.188,33.70353,-0.86441,0.33435,0.6482
755.988,33.73028,-0.86577,0.33501,0.64752
756.788,33.75699,-0.86466,0.33275,0.64684
757.588,33.78372,-0.86443,0.33549,0.64616
758.388,33.81043,-0.86443,0.33635,0.64548
759.188,33.83722,-0.86443,0.33698,0.6448
759.988,33.86401,-0.86443,0.33526,0.64412
760.788,33.89078,-0.86443,0.33866,0.64344
761.588,33.91747,-0.86443,0.3385,0.64276
762.388,33.94421,-0.86443,0.33891,0.64207
763.188,33.97103,-0.86459,0.34372,0.64139
763.988,33.9979,-0.86574,0.34258,0.6407
764.788,34.02459,-0.86574,0.34204,0.64002
765.588,34.05138,-0.86574,0.34157,0.63933
766.388,34.07808,-0.86574,0.33817,0.63865
767.188,34.10494,-0.86619,0.34013,0.63796
767.988,34.13174,-0.86706,0.34167,0.63727
768.788,34.1586,-0.86706,0.34278,0.63658
769.588,34.18533,-0.86606,0.34094,0.63589
770.388,34.21208,-0.86608,0.33917,0.6352
771.188,34.23892,-0.86579,0.33686,0.63451
771.988,34.26573,-0.86575,0.34173,0.63381
772.788,34.2926,-0.86575,0.3397,0.63312
773.588,34.31937,-0.86668,0.33915,0.63243
774.388,34.34621,-0.86707,0.33897,0.63173
775.188,34.37303,-0.86707,0.34045,0.63104
775.988,34.3999,-0.86707,0.34158,0.63034
776.788,34.42678,-0.86707,0.34081,0.62965
777.588,34.4535,-0.86707,0.34045,0.62895
778.388,34.48018,-0.86639,0.34475,0.62825
779.188,34.50696,-0.86575,0.34852,0.62755
779.988,34.53385,-0.86575,0.34411,0.62685
780.788,34.56068,-0.86575,0.34398,0.62615
781.588,34.58762,-0.86575,0.34436,0.62545
782.388,34.61456,-0.86575,0.3444,0.62475
783.188,34.64145,-0.86575,0.34184,0.62405
783.988,34.6683,-0.86575,0.34376,0.62335
784.788,34.6952,-0.86575,0.34626,0.62264
785.588,34.7222,-0.86581,0.34741,0.62194
786.388,34.74912,-0.86705,0.34616,0.62123
787.188,34.776,-0.86706,0.34494,0.62053
787.988,34.80287,-0.86706,0.34133,0.61982
788.788,34.82969,-0.8664,0.34539,0.61911
789.588,34.85646,-0.86553,0.34453,0.61841
790.388,34.88335,-0.86553,0.34566,0.6177
791.188,34.91019,-0.86565,0.34646,0.61699
791.988,34.93707,-0.86684,0.34842,0.61628
792.788,34.96391,-0.86717,0.34823,0.61557
793.588,34.9908,-0.86816,0.34607,0.61486
794.388,35.0176,-0.86816,0.3462,0.61415
795.188,35.04443,-0.86816,0.34539,0.61344
795.988,35.07108,-0.86816,0.34297,0.61272
796.788,35.09778,-0.8682,0.34844,0.61201
797.588,35.12455,-0.86784,0.34682,0.61129
798.388,35.1517,-0.86784,0.34517,0.61058
799.188,35.17866,-0.86819,0.34601,0.60986
799.988,35.2055,-0.86692,0.34662,0.60915
800.788,35.23237,-0.86685,0.34716,0.60843
801.588,35.2592,-0.86814,0.34806,0.60771
802.388,35.286,-0.86816,0.3475,0.607
803.188,35.31285,-0.86816,0.34599,0.60628
803.988,35.33967,-0.86816,0.34982,0.60556
804.788,35.3664,-0.86816,0.34951,0.60484
805.588,35.3932,-0.86816,0.35122,0.60412
806.388,35.42006,-0.86816,0.34725,0.6034
807.188,35.44697,-0.86816,0.34836,0.60267
807.988,35.47382,-0.86815,0.35046,0.60195
808.788,35.50059,-0.86684,0.34755,0.60123
809.588,35.52737,-0.86684,0.34979,0.6005
810.388,35.5541,-0.86784,0.34942,0.59978
811.188,35.58098,-0.86783,0.34313,0.59905
811.988,35.60785,-0.86783,0.35077,0.59833
812.788,35.63466,-0.86782,0.35071,0.5976
813.588,35.66153,-0.86953,0.34874,0.59687
814.388,35.6884,-0.86948,0.34913,0.59615
815.188,35.7151,-0.86948,0.35623,0.59542
815.988,35.74201,-0.86948,0.35048,0.59469
816.788,35.76889,-0.86948,0.35296,0.59396
817.588,35.79591,-0.86948,0.35415,0.59323
818.388,35.8227,-0.86948,0.35865,0.5925
819.188,35.8496,-0.86948,0.35506,0.59177
819.988,35.87648,-0.86948,0.35828,0.59104
820.788,35.9034,-0.86946,0.35759,0.5903
821.588,35.93027,-0.86848,0.35821,0.58957
822.388,35.95708,-0.86849,0.35562,0.58884
823.188,35.98385,-0.86829,0.35978,0.5881
823.988,36.01076,-0.86814,0.35577,0.58737
824.788,36.03774,-0.86914,0.36085,0.58663
825.588,36.0647,-0.86915,0.35902,0.5859
826.388,36.0916,-0.8692,0.35816,0.58516
827.188,36.11828,-0.86785,0.3627,0.58442
827.988,36.14521,-0.86811,0.36051,0.58369
828.788,36.17215,-0.86729,0.36176,0.58295
829.588,36.19913,-0.86685,0.366,0.58221
830.388,36.22603,-0.86712,0.36435,0.58147
831.188,36.2529,-0.86816,0.36596,0.58073
831.988,36.2797,-0.86816,0.36315,0.57999
832.788,36.30661,-0.86816,0.3675,0.57925
833.588,36.33354,-0.86948,0.36669,0.57851
834.388,36.3605,-0.86848,0.36759,0.57777
835.188,36.38742,-0.86849,0.369,0.57702
835.988,36.41435,-0.86849,0.36883,0.57628
836.788,36.44133,-0.86849,0.36694,0.57554
837.588,36.46828,-0.86758,0.36928,0.57479
838.388,36.49522,-0.86695,0.37028,0.57405
839.188,36.5221,-0.86708,0.37307,0.5733
839.988,36.549,-0.86864,0.37319,0.57255
840.788,36.57598,-0.87,0.37026,0.57181
841.588,36.60298,-0.8727,0.37382,0.57106
842.388,36.62992,-0.87266,0.37514,0.57031
843.188,36.6569,-0.87266,0.37268,0.56957
843.988,36.68387,-0.87266,0.37406,0.56882
844.788,36.71075,-0.8726,0.37527,0.56807
845.588,36.73772,-0.87403,0.37961,0.56732
846.388,36.76468,-0.87497,0.37827,0.56657
847.188,36.79166,-0.87497,0.37939,0.56582
847.988,36.81865,-0.87448,0.38366,0.56507
848.788,36.84565,-0.87365,0.38177,0.56431
849.588,36.87267,-0.87365,0.38554,0.56356
850.388,36.8996,-0.87235,0.38594,0.56281
851.188,36.9266,-0.87233,0.38672,0.56206
851.988,36.95355,-0.87101,0.38687,0.5613
852.788,36.9805,-0.87102,0.38542,0.56055
853.588,37.0075,-0.87026,0.38856,0.55979
854.388,37.03435,-0.8697,0.39154,0.55904
855.188,37.06131,-0.8697,0.38982,0.55828
855.988,37.08835,-0.8697,0.39389,0.55753
856.788,37.1154,-0.8697,0.39927,0.55677
857.588,37.14236,-0.86971,0.39813,0.55601
858.388,37.16933,-0.87106,0.40153,0.55526
859.188,37.19635,-0.87101,0.40069,0.5545
859.988,37.22337,-0.87101,0.40362,0.55374
860.788,37.25022,-0.87102,0.40558,0.55298
861.588,37.27708,-0.87238,0.40045,0.55222
862.388,37.30417,-0.87238,0.40508,0.55146
863.188,37.3313,-0.87103,0.40972,0.5507
863.988,37.35846,-0.87102,0.4132,0.54994
864.788,37.38558,-0.86972,0.41614,0.54918
865.588,37.4128,-0.8697,0.41439,0.54842
866.388,37.4399,-0.8697,0.41764,0.54765
867.188,37.46699,-0.8697,0.41954,0.54689
867.988,37.49406,-0.8697,0.42123,0.54613
868.788,37.52108,-0.86834,0.42614,0.54536
869.588,37.54806,-0.86838,0.42829,0.5446
870.388,37.5751,-0.86838,0.42856,0.54384
871.188,37.60224,-0.86838,0.43406,0.54307
871.988,37.62936,-0.86838,0.43902,0.5423
872.788,37.6564,-0.86838,0.44023,0.54154
873.588,37.68334,-0.86838,0.44345,0.54077
874.388,37.7104,-0.86838,0.44596,0.54001
875.188,37.7374,-0.86838,0.44795,0.53924
875.988,37.76446,-0.86838,0.44551,0.53847
876.788,37.79144,-0.86838,0.45177,0.5377
877.588,37.8185,-0.86859,0.45106,0.53694
878.388,37.84555,-0.86969,0.45445,0.53617
879.188,37.87259,-0.86969,0.45792,0.5354
879.988,37.8996,-0.86969,0.46131,0.53463
880.788,37.92657,-0.86969,0.46468,0.53386
881.588,37.95357,-0.86969,0.47141,0.53309
882.388,37.9806,-0.86972,0.46953,0.53232
883.188,38.0077,-0.87101,0.47331,0.53155
883.988,38.03471,-0.871,0.47798,0.53077
884.788,38.0618,-0.87133,0.47879,0.53
885.588,38.0889,-0.87268,0.48368,0.52923
886.388,38.11595,-0.8727,0.48475,0.52846
887.188,38.14294,-0.87135,0.48619,0.52769
887.988,38.16995,-0.87145,0.48961,0.52691
888.788,38.19696,-0.87265,0.49115,0.52614
889.588,38.22399,-0.87339,0.49752,0.52536
890.388,38.251,-0.87398,0.50178,0.52459
891.188,38.27802,-0.87398,0.50323,0.52381
891.988,38.305,-0.87398,0.51135,0.52304
892.788,38.33185,-0.87398,0.50828,0.52226