File: 01_Data/LW_GypBoard_Gypsum_Core/STA/N2/30K_min/Lw_Gypsum_Core_STA_N2_30KData_222802_R2.csv
##Temp./Â°C,Time/min,Mass loss(subtr.2)/mg,DSC(subtr.2)/(mW/mg),Sensit./(uV/mW)
48.881,10.00667,-0.01119,0.005164929,1.08882
49.681,10.57497,-0.01244761,0.04694116,1.08814
50.481,10.70492,-0.01210827,0.08138516,1.08747
51.281,10.79922,-0.01229075,0.10807,1.0868
52.081,10.87726,-0.01188028,0.13473,1.08613
52.881,10.94404,-0.010638,0.16082,1.08545
53.681,11.00395,-0.0115611,0.18294,1.08479
54.481,11.0586,-0.01187271,0.20413,1.08412
55.281,11.10953,-0.01146532,0.22539,1.08345
56.081,11.1576,-0.01012146,0.24232,1.08278
56.881,11.20303,-0.01001835,0.26171,1.08212
57.681,11.24669,-0.01020117,0.2789,1.08145
58.481,11.28865,-0.01252479,0.2961,1.08079
59.281,11.3291,-0.01283633,0.31341,1.08013
60.081,11.36819,-0.01188208,0.32578,1.07947
60.881,11.4061,-0.01265073,0.34034,1.07881
61.681,11.44308,-0.01176629,0.35614,1.07815
62.481,11.47921,-0.01101394,0.36829,1.07749
63.281,11.51469,-0.01082892,0.38606,1.07684
64.081,11.54942,-0.01101149,0.39673,1.07618
64.881,11.58357,-0.01196853,0.41122,1.07553
65.681,11.6173,-0.0123722,0.42257,1.07487
66.481,11.65012,-0.01286084,0.43593,1.07422
67.281,11.68211,-0.01271357,0.44684,1.07357
68.081,11.7145,-0.01225997,0.45864,1.07292
68.881,11.747,-0.01285826,0.46877,1.07227
69.681,11.77866,-0.01274551,0.48091,1.07162
70.481,11.8099,-0.01302022,0.49138,1.07098
71.281,11.84105,-0.01382641,0.50179,1.07033
72.081,11.87188,-0.01410546,0.51223,1.06969
72.881,11.90227,-0.01407278,0.52334,1.06904
73.681,11.93252,-0.01380575,0.53361,1.0684
74.481,11.9627,-0.01441089,0.54367,1.06776
75.281,11.99266,-0.0142939,0.55375,1.06712
76.081,12.02241,-0.01432211,0.56427,1.06648
76.881,12.05216,-0.01339323,0.57507,1.06585
77.681,12.08158,-0.01315581,0.58689,1.06521
78.481,12.1108,-0.01348078,0.59502,1.06457
79.281,12.13986,-0.01449884,0.60609,1.06394
80.081,12.16888,-0.01521994,0.61667,1.06331
80.881,12.19776,-0.01470082,0.63029,1.06267
81.681,12.22654,-0.0143658,0.6387,1.06204
82.481,12.25525,-0.01544546,0.65143,1.06141
83.281,12.28377,-0.01578719,0.66487,1.06078
84.081,12.31232,-0.01687057,0.67547,1.06016
84.881,12.34065,-0.01557982,0.68781,1.05953
85.681,12.36886,-0.0168901,0.70092,1.0589
86.481,12.397,-0.01562078,0.71455,1.05828
87.281,12.42497,-0.01689015,0.7273,1.05766
88.081,12.4529,-0.01839973,0.74066,1.05703
88.881,12.48066,-0.0191889,0.75442,1.05641
89.681,12.5085,-0.01998636,0.76965,1.05579
90.481,12.53631,-0.01999268,0.78489,1.05517
91.281,12.56396,-0.01990803,0.80232,1.05455
92.081,12.59145,-0.02127246,0.81844,1.05394
92.881,12.619,-0.0215299,0.83364,1.05332
93.681,12.64657,-0.02259988,0.85163,1.05271
94.481,12.67406,-0.02259995,0.87099,1.05209
95.281,12.70143,-0.0225786,0.88811,1.05148
96.081,12.7287,-0.02389708,0.90886,1.05087
96.881,12.75596,-0.02410272,0.9305,1.05026
97.681,12.78319,-0.0252466,0.95382,1.04965
98.481,12.81052,-0.02659815,0.97482,1.04904
99.281,12.8377,-0.0278002,1.00104,1.04843
100.081,12.86501,-0.02786918,1.02706,1.04783
100.881,12.89204,-0.03043441,1.0512,1.04722
101.681,12.91876,-0.0304898,1.08184,1.04662
102.481,12.946,-0.03049608,1.11312,1.04602
103.281,12.97333,-0.03279978,1.14794,1.04541
104.081,13.0008,-0.03313102,1.18443,1.04481
104.881,13.02776,-0.03427106,1.22262,1.04421
105.681,13.05488,-0.03579998,1.26217,1.04361
106.481,13.0819,-0.03703914,1.30489,1.04302
107.281,13.1089,-0.03871361,1.3474,1.04242
108.081,13.13591,-0.04182048,1.39018,1.04182
108.881,13.16298,-0.04388603,1.43792,1.04123
109.681,13.19014,-0.04625128,1.48487,1.04064
110.481,13.2172,-0.04919288,1.53289,1.04005
111.281,13.24417,-0.05185658,1.58109,1.03945
112.081,13.2711,-0.05519871,1.63044,1.03886
112.881,13.29814,-0.05726828,1.68182,1.03827
113.681,13.32514,-0.06058911,1.73446,1.03769
114.481,13.3521,-0.06296614,1.7924,1.0371
115.281,13.3788,-0.06566632,1.85451,1.03651
116.081,13.40562,-0.06839829,1.92475,1.03593
116.881,13.43261,-0.07115014,2.00537,1.03535
117.681,13.45977,-0.07465673,2.10143,1.03476
118.481,13.4867,-0.07832027,2.21591,1.03418
119.281,13.5136,-0.08286587,2.35828,1.0336
120.081,13.5405,-0.08682975,2.52724,1.03302
120.881,13.56751,-0.09346103,2.71418,1.03244
121.681,13.59446,-0.09857205,2.9151,1.03186
122.481,13.62147,-0.10421,3.129,1.03129
123.281,13.6484,-0.11109,3.35535,1.03071
124.081,13.6754,-0.11772,3.59762,1.03014
124.881,13.7024,-0.12631,3.85027,1.02956
125.681,13.7294,-0.13619,4.11825,1.02899
126.481,13.7561,-0.14524,4.39779,1.02842
127.281,13.7831,-0.15583,4.69576,1.02785
128.081,13.8103,-0.16678,5.00771,1.02728
128.881,13.8378,-0.17788,5.3375,1.02671
129.681,13.86496,-0.19033,5.67673,1.02615
130.481,13.89214,-0.20311,6.02655,1.02558
131.281,13.91932,-0.21683,6.38977,1.02501
132.081,13.94665,-0.23143,6.75723,1.02445
132.881,13.974,-0.2473,7.12955,1.02389
133.681,14.00136,-0.26523,7.50034,1.02332
134.481,14.0285,-0.28245,7.85872,1.02276
135.281,14.05577,-0.30046,8.20557,1.0222
136.081,14.08325,-0.3192,8.52487,1.02164
136.881,14.1107,-0.33745,8.80084,1.02109
137.681,14.1381,-0.35611,9.02101,1.02053
138.481,14.16549,-0.37582,9.17324,1.01997
139.281,14.19275,-0.39481,9.24255,1.01942
140.081,14.2199,-0.413,9.22118,1.01886
140.881,14.2469,-0.43213,9.11048,1.01831
141.681,14.27396,-0.45,8.90847,1.01776
142.481,14.30075,-0.46527,8.62794,1.01721
143.281,14.32741,-0.48059,8.28416,1.01666
144.081,14.35392,-0.49399,7.91975,1.01611
144.881,14.3803,-0.50599,7.60162,1.01556
145.681,14.4065,-0.51657,7.37784,1.01501
146.481,14.43265,-0.52603,7.24056,1.01447
147.281,14.45861,-0.53528,7.16712,1.01392
148.081,14.4845,-0.54524,7.14307,1.01338
148.881,14.51022,-0.55583,7.14971,1.01284
149.681,14.536,-0.56682,7.19097,1.01229
150.481,14.5618,-0.5775,7.25272,1.01175
151.281,14.5876,-0.58831,7.32867,1.01121
152.081,14.6133,-0.59986,7.418,1.01067
152.881,14.63902,-0.61213,7.50446,1.01013
153.681,14.66474,-0.62526,7.57403,1.0096
154.481,14.69041,-0.63819,7.60409,1.00906
155.281,14.71606,-0.65034,7.56532,1.00852
156.081,14.7416,-0.66177,7.40626,1.00799
156.881,14.76711,-0.67313,7.01101,1.00746
157.681,14.79253,-0.68329,6.42787,1.00692
158.481,14.8178,-0.6912,5.8325,1.00639
159.281,14.843,-0.69655,5.26754,1.00586
160.081,14.868,-0.70281,4.75269,1.00533
160.881,14.8929,-0.70592,4.28789,1.0048
161.681,14.9176,-0.70943,3.87628,1.00428
162.481,14.94231,-0.71163,3.51376,1.00375
163.281,14.96689,-0.71309,3.19058,1.00322
164.081,14.9914,-0.71349,2.90582,1.0027
164.881,15.0158,-0.71438,2.65746,1.00217
165.681,15.04016,-0.71593,2.43787,1.00165
166.481,15.06451,-0.71633,2.24515,1.00113
167.281,15.08879,-0.71724,2.07608,1.00061
168.081,15.1131,-0.71755,1.92629,1.00009
168.881,15.1374,-0.71878,1.79746,0.99957
169.681,15.1616,-0.71989,1.68194,0.99905
170.481,15.18586,-0.7201,1.58046,0.99853
171.281,15.21016,-0.72038,1.4909,0.99801
172.081,15.23436,-0.72141,1.41411,0.9975
172.881,15.2586,-0.72141,1.34399,0.99698
173.681,15.28287,-0.72264,1.284,0.99647
174.481,15.3071,-0.72284,1.23397,0.99596
175.281,15.3313,-0.72411,1.18429,0.99545
176.081,15.3556,-0.72416,1.14186,0.99493
176.881,15.3799,-0.72447,1.10664,0.99442
177.681,15.4043,-0.72644,1.07433,0.99391
178.481,15.4285,-0.72644,1.04844,0.99341
179.281,15.45275,-0.72776,1.01812,0.9929
180.081,15.477,-0.72777,0.99321,0.99239
180.881,15.50128,-0.72777,0.97212,0.99189
181.681,15.52556,-0.72777,0.95097,0.99138
182.481,15.54982,-0.72777,0.93651,0.99088
183.281,15.574,-0.72777,0.92315,0.99037
184.081,15.59816,-0.72777,0.90895,0.98987
184.881,15.6224,-0.72777,0.89727,0.98937
185.681,15.64662,-0.72841,0.88643,0.98887
186.481,15.67084,-0.73044,0.87541,0.98837
187.281,15.69493,-0.73041,0.86444,0.98787
188.081,15.71897,-0.73166,0.8568,0.98737
188.881,15.74324,-0.73172,0.85092,0.98688
189.681,15.76765,-0.73136,0.84194,0.98638
190.481,15.7921,-0.73172,0.83418,0.98588
191.281,15.8164,-0.73172,0.82914,0.98539
192.081,15.84065,-0.73172,0.82247,0.9849
192.881,15.86484,-0.73298,0.81705,0.9844
193.681,15.889,-0.73303,0.81466,0.98391
194.481,15.9132,-0.73303,0.80918,0.98342
195.281,15.9374,-0.73436,0.80516,0.98293
196.081,15.9616,-0.73435,0.80148,0.98244
196.881,15.98594,-0.73435,0.798,0.98195
197.681,16.01024,-0.73464,0.79485,0.98146
198.481,16.03448,-0.73566,0.79207,0.98098
199.281,16.05871,-0.73566,0.78869,0.98049
200.081,16.08294,-0.73575,0.78507,0.98
200.881,16.10716,-0.73698,0.78304,0.97952
201.681,16.13136,-0.73698,0.78044,0.97904
202.481,16.15555,-0.73698,0.77986,0.97855
203.281,16.17974,-0.73698,0.77736,0.97807
204.081,16.20397,-0.73694,0.7741,0.97759
204.881,16.2282,-0.73731,0.7735,0.97711
205.681,16.25245,-0.7373,0.77102,0.97663
206.481,16.27672,-0.73865,0.76995,0.97615
207.281,16.30098,-0.73863,0.76749,0.97567
208.081,16.3252,-0.73863,0.76608,0.97519
208.881,16.34939,-0.73863,0.76265,0.97472
209.681,16.37359,-0.73962,0.76117,0.97424
210.481,16.39775,-0.73961,0.76089,0.97377
211.281,16.42201,-0.7397,0.75891,0.97329
212.081,16.44622,-0.73994,0.75677,0.97282
212.881,16.4705,-0.73994,0.75847,0.97235
213.681,16.49471,-0.73993,0.75615,0.97187
214.481,16.5189,-0.73869,0.75469,0.9714
215.281,16.543,-0.73872,0.75299,0.97093
216.081,16.56729,-0.73995,0.75464,0.97046
216.881,16.59153,-0.74114,0.75263,0.96999
217.681,16.61581,-0.74124,0.75383,0.96952
218.481,16.63999,-0.74258,0.7519,0.96906
219.281,16.66421,-0.74258,0.75242,0.96859
220.081,16.68841,-0.74259,0.75204,0.96812
220.881,16.71258,-0.74128,0.75044,0.96766
221.681,16.73677,-0.74127,0.75183,0.96719
222.481,16.7609,-0.74127,0.7513,0.96673
223.281,16.78513,-0.74127,0.75039,0.96627
224.081,16.80933,-0.74134,0.7498,0.96581
224.881,16.8335,-0.74258,0.74873,0.96534
225.681,16.85773,-0.74253,0.74805,0.96488
226.481,16.88188,-0.74388,0.74769,0.96442
227.281,16.90608,-0.74389,0.74538,0.96396
228.081,16.93025,-0.74389,0.74505,0.9635
228.881,16.95443,-0.74389,0.74398,0.96305
229.681,16.97864,-0.74389,0.743,0.96259
230.481,17.00282,-0.74389,0.74216,0.96213
231.281,17.0271,-0.74389,0.74362,0.96168
232.081,17.05123,-0.74389,0.74298,0.96122
232.881,17.07538,-0.74389,0.74027,0.96077
233.681,17.09949,-0.74389,0.73951,0.96031
234.481,17.12363,-0.74387,0.73925,0.95986
235.281,17.14779,-0.74522,0.73864,0.95941
236.081,17.172,-0.74588,0.7395,0.95895
236.881,17.19613,-0.74587,0.73831,0.9585
237.681,17.22025,-0.74587,0.7396,0.95805
238.481,17.2444,-0.74587,0.73586,0.9576
239.281,17.2686,-0.74587,0.73816,0.95715
240.081,17.2928,-0.74588,0.73402,0.95671
240.881,17.317,-0.74728,0.73338,0.95626
241.681,17.34113,-0.74619,0.73337,0.95581
242.481,17.36531,-0.74619,0.73371,0.95536
243.281,17.38941,-0.74619,0.73483,0.95492
244.081,17.4135,-0.74619,0.73052,0.95447
244.881,17.4376,-0.74587,0.73164,0.95403
245.681,17.46183,-0.74636,0.73008,0.95358
246.481,17.486,-0.74718,0.73094,0.95314
247.281,17.51022,-0.74718,0.72844,0.9527
248.081,17.5343,-0.74718,0.72855,0.95226
248.881,17.55858,-0.74718,0.72559,0.95181
249.681,17.58257,-0.74718,0.7245,0.95137
250.481,17.60647,-0.74718,0.72468,0.95093
251.281,17.63052,-0.74718,0.7227,0.95049
252.081,17.65478,-0.74717,0.72126,0.95005
252.881,17.6792,-0.74848,0.71947,0.94961
253.681,17.7033,-0.7485,0.71942,0.94918
254.481,17.72738,-0.7485,0.71753,0.94874
255.281,17.75153,-0.74931,0.71689,0.9483
256.081,17.7757,-0.74981,0.71484,0.94787
256.881,17.79992,-0.74981,0.71624,0.94743
257.681,17.824,-0.74981,0.71027,0.947
258.481,17.8481,-0.74981,0.71126,0.94656
259.281,17.87218,-0.74981,0.71085,0.94613
260.081,17.8963,-0.74981,0.70839,0.94569
260.881,17.92035,-0.74981,0.70711,0.94526
261.681,17.94448,-0.74981,0.70405,0.94483
262.481,17.9686,-0.74981,0.70367,0.9444
263.281,17.99285,-0.74981,0.70141,0.94397
264.081,18.01697,-0.74981,0.69581,0.94354
264.881,18.04103,-0.74983,0.69502,0.94311
265.681,18.06512,-0.74848,0.69561,0.94268
266.481,18.08916,-0.74868,0.69535,0.94225
267.281,18.11336,-0.74982,0.69145,0.94182
268.081,18.1375,-0.74997,0.68805,0.94139
268.881,18.1617,-0.75113,0.68683,0.94097
269.681,18.18584,-0.75113,0.6859,0.94054
270.481,18.21001,-0.75113,0.68267,0.94011
271.281,18.23411,-0.75113,0.67963,0.93969
272.081,18.2582,-0.75113,0.67926,0.93926
272.881,18.28237,-0.75119,0.6764,0.93884
273.681,18.30651,-0.75245,0.6738,0.93841
274.481,18.33067,-0.75245,0.67263,0.93799
275.281,18.3548,-0.75245,0.67022,0.93757
276.081,18.37882,-0.75245,0.6681,0.93714
276.881,18.4029,-0.75245,0.66651,0.93672
277.681,18.427,-0.75245,0.66337,0.9363
278.481,18.45124,-0.75347,0.66208,0.93588
279.281,18.47542,-0.75341,0.65932,0.93546
280.081,18.4996,-0.75376,0.65729,0.93504
280.881,18.52355,-0.75376,0.65371,0.93462
281.681,18.54755,-0.75375,0.65132,0.9342
282.481,18.57164,-0.75409,0.64855,0.93378
283.281,18.59596,-0.75409,0.64574,0.93336
284.081,18.62029,-0.75409,0.64208,0.93294
284.881,18.6445,-0.75409,0.64025,0.93252
285.681,18.66863,-0.75409,0.63806,0.93211
286.481,18.69274,-0.75409,0.63433,0.93169
287.281,18.71686,-0.75409,0.63232,0.93127
288.081,18.74107,-0.75409,0.62859,0.93086
288.881,18.7653,-0.75409,0.6277,0.93044
289.681,18.78952,-0.754,0.62151,0.93003
290.481,18.8137,-0.75278,0.61976,0.92961
291.281,18.83778,-0.7528,0.61897,0.9292
292.081,18.86196,-0.75379,0.61802,0.92879
292.881,18.88622,-0.75377,0.61293,0.92837
293.681,18.9104,-0.75377,0.61275,0.92796
294.481,18.93466,-0.75377,0.61207,0.92755
295.281,18.95883,-0.75377,0.60726,0.92714
296.081,18.98303,-0.75377,0.60477,0.92672
296.881,19.00723,-0.75377,0.60451,0.92631
297.681,19.0314,-0.75375,0.60167,0.9259
298.481,19.05564,-0.75474,0.60208,0.92549
299.281,19.0798,-0.75508,0.5965,0.92508
300.081,19.10408,-0.75506,0.59712,0.92467
300.881,19.12829,-0.75641,0.59464,0.92426
301.681,19.1525,-0.75639,0.5918,0.92385
302.481,19.17676,-0.75639,0.59015,0.92345
303.281,19.201,-0.75639,0.58923,0.92304
304.081,19.2253,-0.75639,0.58406,0.92263
304.881,19.24943,-0.75639,0.58343,0.92222
305.681,19.2737,-0.75639,0.58415,0.92182
306.481,19.29788,-0.75679,0.58044,0.92141
307.281,19.3221,-0.75771,0.57911,0.921
308.081,19.3463,-0.75801,0.576,0.9206
308.881,19.37053,-0.7589,0.57344,0.92019
309.681,19.39472,-0.75805,0.57129,0.91978
310.481,19.41903,-0.75805,0.56757,0.91938
311.281,19.44335,-0.75805,0.56475,0.91897
312.081,19.46771,-0.75805,0.56309,0.91857
312.881,19.49201,-0.75928,0.56063,0.91817
313.681,19.51625,-0.75936,0.55538,0.91776
314.481,19.54046,-0.75936,0.55323,0.91736
315.281,19.56472,-0.76005,0.55204,0.91696
316.081,19.58902,-0.76001,0.5485,0.91655
316.881,19.61338,-0.76001,0.54568,0.91615
317.681,19.6377,-0.76001,0.54049,0.91575
318.481,19.662,-0.76001,0.53312,0.91535
319.281,19.6862,-0.76001,0.53004,0.91494
320.081,19.7105,-0.76002,0.52835,0.91454
320.881,19.73481,-0.76111,0.52608,0.91414
321.681,19.75914,-0.76133,0.51959,0.91374
322.481,19.7835,-0.76133,0.51679,0.91334
323.281,19.80782,-0.76133,0.51273,0.91294
324.081,19.83214,-0.76133,0.50521,0.91254
324.881,19.8565,-0.76145,0.505,0.91214
325.681,19.88087,-0.76199,0.50284,0.91174
326.481,19.90533,-0.76328,0.49586,0.91134
327.281,19.9297,-0.76331,0.49101,0.91094
328.081,19.954,-0.76331,0.48891,0.91054
328.881,19.97834,-0.76331,0.4871,0.91014
329.681,20.0027,-0.76331,0.48111,0.90975
330.481,20.0271,-0.7633,0.47529,0.90935
331.281,20.05136,-0.76465,0.47481,0.90895
332.081,20.07584,-0.76462,0.47227,0.90855
332.881,20.10025,-0.76462,0.46801,0.90815
333.681,20.1247,-0.76462,0.46314,0.90776
334.481,20.14914,-0.76562,0.45932,0.90736
335.281,20.1736,-0.76463,0.45634,0.90696
336.081,20.198,-0.76463,0.45754,0.90657
336.881,20.22229,-0.76463,0.45329,0.90617
337.681,20.24665,-0.76463,0.45158,0.90577
338.481,20.2711,-0.76593,0.45166,0.90538
339.281,20.29551,-0.76594,0.44685,0.90498
340.081,20.31997,-0.76693,0.44781,0.90458
340.881,20.34439,-0.76726,0.44423,0.90419
341.681,20.36889,-0.76726,0.44601,0.90379
342.481,20.39334,-0.76726,0.4428,0.9034
343.281,20.41786,-0.76726,0.44502,0.903
344.081,20.4423,-0.76726,0.44379,0.90261
344.881,20.4668,-0.76726,0.44631,0.90221
345.681,20.4913,-0.76858,0.44604,0.90182
346.481,20.51582,-0.76857,0.44675,0.90142
347.281,20.5402,-0.76857,0.44355,0.90103
348.081,20.56476,-0.76992,0.4464,0.90064
348.881,20.58926,-0.76989,0.44457,0.90024
349.681,20.61381,-0.76989,0.44687,0.89985
350.481,20.6383,-0.76989,0.44587,0.89945
351.281,20.6628,-0.76989,0.44671,0.89906
352.081,20.68734,-0.76989,0.44655,0.89867
352.881,20.71186,-0.76989,0.44562,0.89827
353.681,20.73635,-0.77012,0.4483,0.89788
354.481,20.7608,-0.7712,0.44944,0.89749
355.281,20.78535,-0.77121,0.44703,0.89709
356.081,20.80997,-0.77257,0.44751,0.8967
356.881,20.83459,-0.77252,0.44711,0.89631
357.681,20.8592,-0.77252,0.4489,0.89592
358.481,20.88374,-0.77252,0.44455,0.89552
359.281,20.9083,-0.77252,0.44349,0.89513
360.081,20.93287,-0.77252,0.44168,0.89474
360.881,20.95743,-0.77254,0.44427,0.89435
361.681,20.982,-0.77353,0.44065,0.89395
362.481,21.00664,-0.77285,0.43908,0.89356
363.281,21.03122,-0.7722,0.43809,0.89317
364.081,21.05578,-0.77217,0.43556,0.89278
364.881,21.08036,-0.77253,0.43364,0.89238
365.681,21.10497,-0.77254,0.43047,0.89199
366.481,21.1296,-0.77389,0.4267,0.8916
367.281,21.1542,-0.77384,0.42515,0.89121
368.081,21.1788,-0.77384,0.42394,0.89082
368.881,21.20348,-0.77384,0.4192,0.89042
369.681,21.22814,-0.77432,0.41665,0.89003
370.481,21.25282,-0.77482,0.41415,0.88964
371.281,21.27745,-0.77482,0.41011,0.88925
372.081,21.30208,-0.77483,0.40734,0.88886
372.881,21.32679,-0.77647,0.40376,0.88846
373.681,21.35144,-0.77647,0.40067,0.88807
374.481,21.3762,-0.77647,0.39786,0.88768
375.281,21.40077,-0.77647,0.39391,0.88729
376.081,21.42541,-0.77647,0.39188,0.8869
376.881,21.45,-0.77647,0.38942,0.88651
377.681,21.4747,-0.77647,0.38551,0.88611
378.481,21.4994,-0.77706,0.38432,0.88572
379.281,21.52405,-0.77778,0.38188,0.88533
380.081,21.54877,-0.77778,0.38118,0.88494
380.881,21.57346,-0.77778,0.38,0.88455
381.681,21.59826,-0.77778,0.3796,0.88415
382.481,21.62302,-0.77778,0.37813,0.88376
383.281,21.64776,-0.77886,0.37781,0.88337
384.081,21.67248,-0.7791,0.37902,0.88298
384.881,21.69719,-0.7791,0.37581,0.88259
385.681,21.7219,-0.7791,0.37846,0.8822
386.481,21.7466,-0.7791,0.37415,0.8818
387.281,21.7714,-0.78037,0.37667,0.88141
388.081,21.79629,-0.78041,0.37851,0.88102
388.881,21.8212,-0.78011,0.37881,0.88063
389.681,21.84595,-0.77976,0.38244,0.88023
390.481,21.87076,-0.77976,0.3835,0.87984
391.281,21.89558,-0.78013,0.38622,0.87945
392.081,21.9205,-0.7801,0.38964,0.87906
392.881,21.9453,-0.78074,0.38874,0.87866
393.681,21.9701,-0.78101,0.3923,0.87827
394.481,21.99492,-0.78238,0.39489,0.87788
395.281,22.01974,-0.78239,0.39486,0.87749
396.081,22.04465,-0.78239,0.39933,0.87709
396.881,22.06952,-0.78239,0.4007,0.8767
397.681,22.09439,-0.78239,0.40184,0.87631
398.481,22.11919,-0.78239,0.40337,0.87591
399.281,22.14404,-0.78239,0.40277,0.87552
400.081,22.1689,-0.78239,0.40274,0.87513
400.881,22.19376,-0.78239,0.40213,0.87473
401.681,22.21868,-0.78233,0.39947,0.87434
402.481,22.24362,-0.78317,0.40099,0.87395
403.281,22.26857,-0.78404,0.39957,0.87355
404.081,22.2934,-0.78404,0.39673,0.87316
404.881,22.3183,-0.78404,0.39248,0.87276
405.681,22.34321,-0.78403,0.38465,0.87237
406.481,22.36815,-0.78189,0.38095,0.87197
407.281,22.39311,-0.78173,0.37393,0.87158
408.081,22.41808,-0.78173,0.36974,0.87118
408.881,22.44304,-0.78173,0.36403,0.87079
409.681,22.468,-0.78173,0.36209,0.87039
410.481,22.49287,-0.78173,0.35388,0.87
411.281,22.5179,-0.78173,0.34731,0.8696
412.081,22.54289,-0.78169,0.33866,0.86921
412.881,22.5679,-0.78304,0.33343,0.86881
413.681,22.5929,-0.78305,0.32645,0.86842
414.481,22.61785,-0.78305,0.31853,0.86802
415.281,22.64285,-0.78314,0.30829,0.86762
416.081,22.6678,-0.78437,0.29851,0.86723
416.881,22.69289,-0.78437,0.287,0.86683
417.681,22.71794,-0.78437,0.26757,0.86643
418.481,22.74289,-0.78437,0.2553,0.86604
419.281,22.7679,-0.78435,0.23654,0.86564
420.081,22.79291,-0.7857,0.22667,0.86524
420.881,22.818,-0.78569,0.21597,0.86484
421.681,22.84307,-0.78569,0.202,0.86445
422.481,22.86811,-0.78578,0.18772,0.86405
423.281,22.89313,-0.78701,0.17462,0.86365
424.081,22.9181,-0.78701,0.16409,0.86325
424.881,22.9432,-0.7871,0.15056,0.86285
425.681,22.96827,-0.78832,0.13909,0.86245
426.481,22.99331,-0.78832,0.12395,0.86205
427.281,23.0183,-0.78837,0.11156,0.86165
428.081,23.04327,-0.78822,0.09860139,0.86125
428.881,23.06834,-0.78832,0.08108382,0.86085
429.681,23.0933,-0.78832,0.06644565,0.86045
430.481,23.11842,-0.78745,0.05218896,0.86005
431.281,23.14355,-0.78733,0.03508044,0.85965
432.081,23.16876,-0.78733,0.02153123,0.85925
432.881,23.19387,-0.78733,0.00859541,0.85885
433.681,23.21901,-0.78733,-0.007220843,0.85845
434.481,23.24418,-0.78808,-0.02324458,0.85804
435.281,23.26931,-0.78865,-0.03466528,0.85764
436.081,23.29445,-0.78865,-0.04704659,0.85724
436.881,23.3196,-0.78865,-0.05953754,0.85684
437.681,23.3447,-0.7873,-0.07023905,0.85643
438.481,23.36986,-0.78722,-0.08263663,0.85603
439.281,23.39494,-0.78725,-0.09147957,0.85563
440.081,23.42015,-0.78876,-0.10177,0.85522
440.881,23.4453,-0.78876,-0.1126,0.85482
441.681,23.47052,-0.78874,-0.12071,0.85441
442.481,23.49567,-0.79009,-0.12619,0.85401
443.281,23.52085,-0.79007,-0.13036,0.8536
444.081,23.5458,-0.79007,-0.13175,0.8532
444.881,23.57079,-0.79007,-0.13394,0.85279
445.681,23.59597,-0.79007,-0.1371,0.85239
446.481,23.62141,-0.79008,-0.13275,0.85198
447.281,23.6467,-0.79106,-0.13076,0.85157
448.081,23.6719,-0.79106,-0.12556,0.85117
448.881,23.69707,-0.79106,-0.11983,0.85076
449.681,23.72237,-0.79106,-0.11353,0.85035
450.481,23.74768,-0.79106,-0.10686,0.84994
451.281,23.77299,-0.79106,-0.09257505,0.84954
452.081,23.7982,-0.79106,-0.08429656,0.84913
452.881,23.82348,-0.79106,-0.07058134,0.84872
453.681,23.84873,-0.79106,-0.05602575,0.84831
454.481,23.87404,-0.79106,-0.0435321,0.8479
455.281,23.89937,-0.79106,-0.0260233,0.84749
456.081,23.92463,-0.79106,-0.01155538,0.84708
456.881,23.94997,-0.79106,0.00373326,0.84667
457.681,23.9753,-0.79106,0.01780433,0.84626
458.481,24.0007,-0.79106,0.03823589,0.84584
459.281,24.02606,-0.79106,0.05289509,0.84543
460.081,24.05142,-0.79106,0.06906657,0.84502
460.881,24.07676,-0.79106,0.08542736,0.84461
461.681,24.1021,-0.79106,0.10387,0.84419
462.481,24.12744,-0.79106,0.11856,0.84378
463.281,24.1528,-0.79106,0.13362,0.84337
464.081,24.17819,-0.79151,0.15313,0.84295
464.881,24.20365,-0.79271,0.16759,0.84254
465.681,24.22901,-0.79271,0.17899,0.84212
466.481,24.25439,-0.79271,0.19658,0.84171
467.281,24.2797,-0.793,0.20941,0.84129
468.081,24.30519,-0.79289,0.22197,0.84087
468.881,24.3306,-0.79311,0.23338,0.84046
469.681,24.35603,-0.79283,0.25016,0.84004
470.481,24.38145,-0.79357,0.25694,0.83962
471.281,24.40691,-0.79282,0.27079,0.8392
472.081,24.43243,-0.79282,0.28188,0.83878
472.881,24.45785,-0.79282,0.29149,0.83837
473.681,24.48329,-0.79282,0.3027,0.83795
474.481,24.5087,-0.79333,0.31391,0.83753
475.281,24.53419,-0.79413,0.32136,0.83711
476.081,24.55968,-0.79413,0.32892,0.83669
476.881,24.5852,-0.79413,0.33839,0.83626
477.681,24.61066,-0.79447,0.3441,0.83584
478.481,24.6361,-0.79545,0.35302,0.83542
479.281,24.66154,-0.79545,0.36269,0.835
480.081,24.68701,-0.79545,0.36836,0.83457
480.881,24.71251,-0.79545,0.37429,0.83415
481.681,24.73805,-0.79545,0.37928,0.83373
482.481,24.7635,-0.79547,0.38391,0.8333
483.281,24.78899,-0.79411,0.38874,0.83288
484.081,24.81448,-0.79413,0.39651,0.83245
484.881,24.84006,-0.79413,0.39882,0.83203
485.681,24.86553,-0.79413,0.40191,0.8316
486.481,24.89106,-0.79413,0.40829,0.83117
487.281,24.9165,-0.79413,0.41122,0.83075
488.081,24.94196,-0.79413,0.41833,0.83032
488.881,24.96743,-0.79413,0.42142,0.82989
489.681,24.99298,-0.79543,0.42547,0.82946
490.481,25.0185,-0.79545,0.42458,0.82903
491.281,25.04405,-0.79545,0.42979,0.8286
492.081,25.0696,-0.79545,0.42983,0.82817
492.881,25.0951,-0.79545,0.43232,0.82774
493.681,25.12068,-0.79545,0.43475,0.82731
494.481,25.14619,-0.79545,0.43645,0.82688
495.281,25.17175,-0.7954,0.4384,0.82645
496.081,25.19729,-0.79676,0.4402,0.82601
496.881,25.22273,-0.79677,0.44178,0.82558
497.681,25.24829,-0.79691,0.44301,0.82515
498.481,25.27384,-0.7974,0.44427,0.82471
499.281,25.29932,-0.79611,0.4421,0.82428
500.081,25.32489,-0.79661,0.44499,0.82384
500.881,25.3505,-0.79676,0.44635,0.82341
501.681,25.3763,-0.79676,0.44636,0.82297
502.481,25.4018,-0.79569,0.44815,0.82253
503.281,25.42727,-0.79373,0.45125,0.82209
504.081,25.45283,-0.79336,0.44962,0.82166
504.881,25.47855,-0.79376,0.45152,0.82122
505.681,25.50429,-0.79551,0.45134,0.82078
506.481,25.52998,-0.79771,0.45176,0.82034
507.281,25.55561,-0.7983,0.45152,0.8199
508.081,25.58126,-0.7983,0.45335,0.81946
508.881,25.60686,-0.7983,0.453,0.81902
509.681,25.63255,-0.7983,0.45457,0.81857
510.481,25.6582,-0.7983,0.45161,0.81813
511.281,25.6839,-0.7983,0.45252,0.81769
512.081,25.70956,-0.7983,0.45309,0.81724
512.881,25.73529,-0.7983,0.45348,0.8168
513.681,25.76101,-0.7983,0.4511,0.81635
514.481,25.7867,-0.7983,0.45167,0.81591
515.281,25.81244,-0.7983,0.45227,0.81546
516.081,25.83814,-0.7983,0.45062,0.81502
516.881,25.8639,-0.7983,0.44804,0.81457
517.681,25.88964,-0.79838,0.45257,0.81412
518.481,25.91541,-0.79939,0.44975,0.81367
519.281,25.94118,-0.79962,0.45309,0.81322
520.081,25.96694,-0.79962,0.44917,0.81277
520.881,25.99269,-0.79962,0.44943,0.81232
521.681,26.01823,-0.79962,0.45146,0.81187
522.481,26.0438,-0.79962,0.45061,0.81142
523.281,26.06952,-0.79962,0.44999,0.81097
524.081,26.0956,-0.79889,0.45244,0.81052
524.881,26.1214,-0.79896,0.4549,0.81006
525.681,26.1472,-0.79896,0.4592,0.80961
526.481,26.17289,-0.79896,0.46229,0.80915
527.281,26.1986,-0.79896,0.46381,0.8087
528.081,26.2244,-0.79896,0.47111,0.80824
528.881,26.2502,-0.79896,0.47191,0.80779
529.681,26.27598,-0.79896,0.47573,0.80733
530.481,26.30177,-0.79907,0.48033,0.80687
531.281,26.3276,-0.80041,0.48309,0.80641
532.081,26.3535,-0.8017,0.48562,0.80596
532.881,26.37932,-0.80114,0.48238,0.8055
533.681,26.4052,-0.80018,0.4878,0.80504
534.481,26.43106,-0.7996,0.48826,0.80457
535.281,26.4569,-0.80016,0.49209,0.80411
536.081,26.48279,-0.80016,0.49304,0.80365
536.881,26.50862,-0.80016,0.49158,0.80319
537.681,26.5345,-0.80016,0.49455,0.80272
538.481,26.5603,-0.80016,0.49575,0.80226
539.281,26.5861,-0.80016,0.49672,0.8018
540.081,26.6119,-0.80016,0.49714,0.80133
540.881,26.6378,-0.80014,0.49619,0.80086
541.681,26.66377,-0.8015,0.49323,0.8004
542.481,26.68965,-0.80148,0.49358,0.79993
543.281,26.71552,-0.80148,0.4933,0.79946
544.081,26.74137,-0.80148,0.48976,0.79899
544.881,26.76725,-0.80148,0.48922,0.79852
545.681,26.79314,-0.80148,0.48927,0.79805
546.481,26.81908,-0.80149,0.48763,0.79758
547.281,26.84494,-0.80213,0.48661,0.79711
548.081,26.8709,-0.80214,0.48601,0.79664
548.881,26.8968,-0.80214,0.48455,0.79617
549.681,26.92271,-0.80214,0.485,0.79569
550.481,26.9486,-0.80214,0.4829,0.79522
551.281,26.97455,-0.80284,0.48435,0.79474
552.081,27.00057,-0.80279,0.48366,0.79427
552.881,27.02655,-0.80279,0.48628,0.79379
553.681,27.05255,-0.80306,0.48601,0.79332
554.481,27.0785,-0.80411,0.4859,0.79284
555.281,27.10455,-0.80411,0.4848,0.79236
556.081,27.13056,-0.80411,0.48681,0.79188
556.881,27.15656,-0.80411,0.48789,0.7914
557.681,27.18253,-0.80411,0.48568,0.79092
558.481,27.20846,-0.80411,0.48626,0.79044
559.281,27.2345,-0.80411,0.48625,0.78996
560.081,27.26046,-0.80411,0.48874,0.78948
560.881,27.2864,-0.80411,0.48515,0.78899
561.681,27.31235,-0.80411,0.48546,0.78851
562.481,27.33837,-0.80411,0.48827,0.78802
563.281,27.3645,-0.80411,0.4884,0.78754
564.081,27.39053,-0.80411,0.49048,0.78705
564.881,27.41658,-0.805,0.48788,0.78657
565.681,27.44262,-0.8051,0.48729,0.78608
566.481,27.4686,-0.8051,0.48785,0.78559
567.281,27.49462,-0.80438,0.48885,0.7851
568.081,27.5206,-0.80444,0.48938,0.78461
568.881,27.5466,-0.80378,0.49174,0.78412
569.681,27.5726,-0.80078,0.49057,0.78363
570.481,27.5987,-0.80022,0.49133,0.78314
571.281,27.6247,-0.7994,0.49006,0.78265
572.081,27.65073,-0.79941,0.49108,0.78215
572.881,27.67669,-0.80075,0.49139,0.78166
573.681,27.7027,-0.8017,0.49344,0.78116
574.481,27.7289,-0.80203,0.49174,0.78067
575.281,27.75494,-0.80316,0.49307,0.78017
576.081,27.781,-0.80204,0.49191,0.77967
576.881,27.8069,-0.80204,0.49199,0.77918
577.681,27.833,-0.80335,0.49045,0.77868
578.481,27.8592,-0.80577,0.49403,0.77818
579.281,27.8855,-0.80818,0.48894,0.77768
580.081,27.9116,-0.80981,0.49365,0.77718
580.881,27.9378,-0.81116,0.48976,0.77668
581.681,27.96392,-0.8108,0.4901,0.77617
582.481,27.9901,-0.80982,0.49138,0.77567
583.281,28.01625,-0.80957,0.48872,0.77517
584.081,28.04242,-0.80882,0.48672,0.77466
584.881,28.06855,-0.80851,0.48861,0.77416
585.681,28.0946,-0.8085,0.48809,0.77365
586.481,28.12077,-0.8081,0.4841,0.77314
587.281,28.1469,-0.80719,0.48225,0.77264
588.081,28.173,-0.80719,0.48171,0.77213
588.881,28.1993,-0.80719,0.48092,0.77162
589.681,28.22549,-0.80719,0.48243,0.77111
590.481,28.2517,-0.80719,0.48042,0.7706
591.281,28.2778,-0.80719,0.48057,0.77009
592.081,28.304,-0.80719,0.47781,0.76958
592.881,28.3302,-0.80719,0.4755,0.76906
593.681,28.35635,-0.80719,0.47427,0.76855
594.481,28.3824,-0.80719,0.47276,0.76803
595.281,28.4085,-0.80722,0.47177,0.76752
596.081,28.4347,-0.80588,0.47103,0.767
596.881,28.46108,-0.80587,0.46776,0.76649
597.681,28.4873,-0.80587,0.46904,0.76597
598.481,28.5135,-0.80587,0.46962,0.76545
599.281,28.5397,-0.80587,0.46827,0.76493
600.081,28.56588,-0.80717,0.46664,0.76441
600.881,28.5921,-0.80719,0.46677,0.76389
601.681,28.61832,-0.80719,0.46744,0.76337
602.481,28.64456,-0.80843,0.46544,0.76285
603.281,28.6708,-0.80714,0.46607,0.76232
604.081,28.69707,-0.80718,0.46717,0.7618
604.881,28.72328,-0.80718,0.4663,0.76128
605.681,28.7495,-0.80718,0.4659,0.76075
606.481,28.77572,-0.80718,0.46691,0.76022
607.281,28.80207,-0.80773,0.46579,0.7597
608.081,28.8284,-0.80817,0.46495,0.75917
608.881,28.8547,-0.80817,0.46383,0.75864
609.681,28.88097,-0.80817,0.46412,0.75811
610.481,28.90721,-0.80819,0.46687,0.75758
611.281,28.93344,-0.8085,0.46475,0.75705
612.081,28.9597,-0.80788,0.46686,0.75652
612.881,28.98596,-0.80717,0.46519,0.75598
613.681,29.0122,-0.80851,0.46404,0.75545
614.481,29.0384,-0.8085,0.46003,0.75492
615.281,29.06467,-0.8085,0.45774,0.75438
616.081,29.09106,-0.8085,0.45583,0.75385
616.881,29.1174,-0.8085,0.45294,0.75331
617.681,29.1438,-0.8085,0.45154,0.75277
618.481,29.17,-0.80866,0.44735,0.75223
619.281,29.1963,-0.80981,0.44288,0.75169
620.081,29.2225,-0.81079,0.44023,0.75115
620.881,29.24875,-0.8108,0.43585,0.75061
621.681,29.27502,-0.8108,0.4339,0.75007
622.481,29.3014,-0.8108,0.43037,0.74953
623.281,29.32773,-0.81086,0.42284,0.74899
624.081,29.354,-0.81212,0.42292,0.74844
624.881,29.3804,-0.81212,0.41825,0.7479
625.681,29.40675,-0.81212,0.41641,0.74735
626.481,29.4331,-0.81343,0.4095,0.74681
627.281,29.45944,-0.81343,0.40615,0.74626
628.081,29.48576,-0.81346,0.40382,0.74571
628.881,29.51209,-0.81212,0.39778,0.74516
629.681,29.5384,-0.81211,0.39643,0.74461
630.481,29.56472,-0.81211,0.39305,0.74406
631.281,29.59105,-0.81209,0.38767,0.74351
632.081,29.6174,-0.81344,0.3865,0.74296
632.881,29.64381,-0.81343,0.38256,0.74241
633.681,29.67023,-0.81343,0.37954,0.74185
634.481,29.6966,-0.81464,0.37705,0.7413
635.281,29.72294,-0.81414,0.37718,0.74074
636.081,29.74928,-0.81344,0.37514,0.74019
636.881,29.7756,-0.81344,0.37232,0.73963
637.681,29.8018,-0.81344,0.37131,0.73907
638.481,29.82827,-0.81348,0.37065,0.73851
639.281,29.85472,-0.81475,0.36887,0.73795
640.081,29.88128,-0.81475,0.3692,0.73739
640.881,29.90764,-0.81475,0.36936,0.73683
641.681,29.93398,-0.81514,0.36665,0.73627
642.481,29.9604,-0.81607,0.36753,0.73571
643.281,29.98684,-0.81607,0.36535,0.73514
644.081,30.0133,-0.8164,0.36517,0.73458
644.881,30.0397,-0.81739,0.36682,0.73401
645.681,30.06612,-0.81739,0.36559,0.73345
646.481,30.09252,-0.81739,0.3689,0.73288
647.281,30.119,-0.81739,0.36927,0.73231
648.081,30.14542,-0.81739,0.37133,0.73174
648.881,30.17182,-0.8186,0.36906,0.73117
649.681,30.1982,-0.8187,0.374,0.7306
650.481,30.2246,-0.8187,0.37495,0.73003
651.281,30.251,-0.81871,0.37867,0.72946
652.081,30.2774,-0.82006,0.37976,0.72889
652.881,30.3038,-0.82,0.37942,0.72832
653.681,30.33019,-0.82135,0.384,0.72774
654.481,30.3567,-0.82133,0.38748,0.72717
655.281,30.38312,-0.82133,0.38788,0.72659
656.081,30.40952,-0.82252,0.39311,0.72601
656.881,30.436,-0.82265,0.39819,0.72544
657.681,30.4624,-0.82265,0.39963,0.72486
658.481,30.48889,-0.82275,0.40351,0.72428
659.281,30.5153,-0.82298,0.40505,0.7237
660.081,30.5416,-0.82298,0.41259,0.72312
660.881,30.568,-0.82298,0.41402,0.72253
661.681,30.59442,-0.82298,0.41918,0.72195
662.481,30.62085,-0.82299,0.42559,0.72137
663.281,30.64729,-0.82228,0.42695,0.72078
664.081,30.6738,-0.82199,0.43427,0.7202
664.881,30.7002,-0.82386,0.43772,0.71961
665.681,30.7266,-0.82583,0.43955,0.71903
666.481,30.75305,-0.82747,0.44858,0.71844
667.281,30.7794,-0.82747,0.45077,0.71785
668.081,30.80592,-0.82868,0.45736,0.71726
668.881,30.83243,-0.83101,0.45985,0.71667
669.681,30.8589,-0.83197,0.46415,0.71608
670.481,30.88536,-0.83251,0.46896,0.71549
671.281,30.91183,-0.83384,0.47543,0.71489
672.081,30.93825,-0.83378,0.47878,0.7143
672.881,30.96477,-0.83514,0.48735,0.71371
673.681,30.99125,-0.83515,0.48895,0.71311
674.481,31.01775,-0.83641,0.49169,0.71252
675.281,31.0443,-0.83645,0.49695,0.71192
676.081,31.07078,-0.83779,0.49806,0.71132
676.881,31.09729,-0.83779,0.50486,0.71072
677.681,31.12378,-0.83914,0.5093,0.71012
678.481,31.15025,-0.83978,0.51297,0.70952
679.281,31.17685,-0.84064,0.51838,0.70892
680.081,31.2034,-0.84185,0.52166,0.70832
680.881,31.2299,-0.84321,0.52147,0.70772
681.681,31.25641,-0.8434,0.52606,0.70711
682.481,31.28293,-0.84449,0.53222,0.70651
683.281,31.30943,-0.84577,0.53282,0.7059
684.081,31.33598,-0.84499,0.53722,0.7053
684.881,31.36249,-0.84613,0.53759,0.70469
685.681,31.38908,-0.84748,0.53547,0.70408
686.481,31.41562,-0.84749,0.54099,0.70348
687.281,31.44221,-0.84875,0.54174,0.70287
688.081,31.4687,-0.8488,0.54319,0.70226
688.881,31.49523,-0.85007,0.54004,0.70164
689.681,31.5219,-0.85134,0.53967,0.70103
690.481,31.5485,-0.85254,0.53942,0.70042
691.281,31.57495,-0.85311,0.54181,0.69981
692.081,31.6014,-0.85438,0.54011,0.69919
692.881,31.628,-0.85411,0.5389,0.69858
693.681,31.6546,-0.85544,0.53503,0.69796
694.481,31.6812,-0.85629,0.53433,0.69735
695.281,31.70778,-0.85696,0.53414,0.69673
696.081,31.7343,-0.85851,0.52876,0.69611
696.881,31.76084,-0.85959,0.52578,0.69549
697.681,31.7874,-0.85995,0.52391,0.69487
698.481,31.8139,-0.85995,0.51928,0.69425
699.281,31.84045,-0.85995,0.51949,0.69363
700.081,31.86705,-0.86152,0.51532,0.69301
700.881,31.89361,-0.86359,0.51029,0.69238
701.681,31.9203,-0.86392,0.50508,0.69176
702.481,31.94685,-0.86532,0.50087,0.69113
703.281,31.97348,-0.86621,0.4962,0.69051
704.081,32.00013,-0.86664,0.49473,0.68988
704.881,32.0268,-0.86795,0.48573,0.68925
705.681,32.05338,-0.86663,0.48397,0.68862
706.481,32.07989,-0.86795,0.48009,0.688
707.281,32.1065,-0.86826,0.47262,0.68737
708.081,32.1331,-0.86936,0.46541,0.68674
708.881,32.15974,-0.87223,0.4577,0.6861
709.681,32.18634,-0.87223,0.44498,0.68547
710.481,32.21294,-0.87284,0.43266,0.68484
711.281,32.2395,-0.87394,0.41936,0.6842
712.081,32.26608,-0.87506,0.4048,0.68357
712.881,32.29266,-0.8764,0.38734,0.68293
713.681,32.3194,-0.87639,0.36671,0.6823
714.481,32.34612,-0.87771,0.3433,0.68166
715.281,32.37278,-0.879,0.31606,0.68102
716.081,32.39933,-0.87904,0.29046,0.68038
716.881,32.42575,-0.88035,0.2685,0.67974
717.681,32.45232,-0.87981,0.24045,0.6791
718.481,32.47903,-0.87902,0.21283,0.67846
719.281,32.5058,-0.87902,0.18658,0.67782
720.081,32.53257,-0.87903,0.15962,0.67718
720.881,32.55922,-0.87804,0.13951,0.67654
721.681,32.5859,-0.87866,0.1176,0.67589
722.481,32.6126,-0.88159,0.09656902,0.67525
723.281,32.6393,-0.88303,0.07940896,0.6746
724.081,32.66602,-0.88305,0.0610186,0.67395
724.881,32.69263,-0.88374,0.04879451,0.67331
725.681,32.7192,-0.88372,0.03290807,0.67266
726.481,32.74593,-0.88474,0.02332991,0.67201
727.281,32.77264,-0.88474,0.01148463,0.67136
728.081,32.79933,-0.88441,0.00452914,0.67071
728.881,32.82593,-0.88441,-0.001190569,0.67006
729.681,32.8526,-0.88441,-0.01091371,0.6694
730.481,32.87927,-0.88441,-0.01699168,0.66875
731.281,32.90612,-0.88441,-0.02155475,0.6681
732.081,32.93286,-0.88441,-0.0275424,0.66744
732.881,32.9596,-0.88441,-0.0292089,0.66679
733.681,32.98623,-0.88441,-0.03060115,0.66613
734.481,33.01297,-0.88442,-0.03635722,0.66547
735.281,33.03971,-0.88408,-0.03933196,0.66482
736.081,33.0663,-0.88408,-0.04210608,0.66416
736.881,33.0929,-0.88407,-0.0439901,0.6635
737.681,33.11963,-0.8844,-0.04973944,0.66284
738.481,33.14634,-0.88406,-0.05218555,0.66218
739.281,33.17303,-0.88539,-0.04916441,0.66151
740.081,33.19977,-0.88539,-0.05188828,0.66085
740.881,33.22631,-0.88539,-0.05711885,0.66019
741.681,33.2528,-0.88539,-0.05823776,0.65953
742.481,33.27952,-0.88538,-0.05969844,0.65886
743.281,33.30653,-0.8844,-0.0594671,0.65819
744.081,33.33345,-0.8844,-0.06531486,0.65753
744.881,33.36009,-0.8844,-0.06849731,0.65686
745.681,33.3869,-0.8844,-0.06859885,0.65619
746.481,33.41359,-0.88672,-0.07135824,0.65553
747.281,33.44038,-0.88671,-0.07218817,0.65486
748.081,33.46703,-0.8867,-0.07445119,0.65419
748.881,33.4938,-0.88769,-0.07475276,0.65351
749.681,33.52064,-0.88769,-0.07594072,0.65284
750.481,33.54745,-0.88667,-0.07703231,0.65217
751.281,33.5743,-0.8867,-0.0765033,0.6515
752.081,33.60098,-0.8867,-0.07974547,0.65082
752.881,33.62771,-0.8867,-0.08232821,0.65015
753.681,33.65448,-0.88638,-0.08230944,0.64947
754.481,33.6812,-0.88637,-0.0841778,0.6488
755.281,33.70794,-0.88628,-0.08267308,0.64812
756.081,33.73471,-0.88538,-0.08206794,0.64744
756.881,33.7616,-0.88538,-0.08861842,0.64676
757.681,33.78835,-0.88545,-0.08408647,0.64608
758.481,33.81514,-0.88571,-0.08239903,0.6454
759.281,33.8419,-0.88571,-0.08796377,0.64472
760.081,33.86864,-0.88571,-0.08880599,0.64404
760.881,33.89541,-0.88571,-0.09136888,0.64336
761.681,33.92216,-0.88572,-0.0898977,0.64268
762.481,33.94899,-0.88672,-0.09144068,0.64199
763.281,33.9758,-0.88667,-0.09142923,0.64131
764.081,34.00268,-0.88703,-0.09268635,0.64062
764.881,34.02942,-0.88667,-0.09323804,0.63994
765.681,34.0563,-0.88733,-0.09803368,0.63925
766.481,34.083,-0.88803,-0.09566105,0.63857
767.281,34.1098,-0.88803,-0.09833879,0.63788
768.081,34.13658,-0.88803,-0.10139,0.63719
768.881,34.1634,-0.88809,-0.10377,0.6365
769.681,34.19019,-0.88704,-0.10303,0.63581
770.481,34.217,-0.88704,-0.10548,0.63512
771.281,34.2438,-0.88704,-0.10641,0.63443
772.081,34.27066,-0.88679,-0.10635,0.63373
772.881,34.29749,-0.88801,-0.10945,0.63304
773.681,34.32427,-0.88802,-0.11227,0.63235
774.481,34.35107,-0.88802,-0.10851,0.63165
775.281,34.37795,-0.88802,-0.11258,0.63096
776.081,34.40477,-0.88808,-0.10885,0.63026
776.881,34.43157,-0.88703,-0.11421,0.62957
777.681,34.4583,-0.88703,-0.11212,0.62887
778.481,34.48519,-0.88703,-0.11541,0.62817
779.281,34.51202,-0.88703,-0.11631,0.62747
780.081,34.53884,-0.88703,-0.11342,0.62677
780.881,34.56563,-0.88703,-0.1173,0.62607
781.681,34.59245,-0.88703,-0.11438,0.62537
782.481,34.61927,-0.88703,-0.1171,0.62467
783.281,34.64609,-0.88703,-0.11769,0.62397
784.081,34.67295,-0.88703,-0.11897,0.62326
784.881,34.69983,-0.88703,-0.11716,0.62256
785.681,34.72677,-0.88835,-0.11935,0.62186
786.481,34.75355,-0.88835,-0.12042,0.62115
787.281,34.7804,-0.88835,-0.11972,0.62045
788.081,34.8071,-0.88835,-0.11793,0.61974
788.881,34.83403,-0.88835,-0.12634,0.61903
789.681,34.86084,-0.88835,-0.12341,0.61832
790.481,34.88769,-0.888,-0.12481,0.61762
791.281,34.91458,-0.88802,-0.12784,0.61691
792.081,34.94147,-0.88754,-0.12521,0.6162
792.881,34.9683,-0.88704,-0.12223,0.61549
793.681,34.99508,-0.88816,-0.12274,0.61478
794.481,35.0219,-0.88835,-0.12306,0.61406
795.281,35.0487,-0.88826,-0.12239,0.61335
796.081,35.0755,-0.88802,-0.12402,0.61264
796.881,35.10235,-0.88801,-0.13272,0.61193
797.681,35.1291,-0.88771,-0.13314,0.61121
798.481,35.15594,-0.8877,-0.13472,0.6105
799.281,35.18282,-0.8877,-0.13511,0.60978
800.081,35.2097,-0.8877,-0.13362,0.60906
800.881,35.2366,-0.8877,-0.13211,0.60835
801.681,35.26338,-0.88891,-0.13336,0.60763
802.481,35.29023,-0.88901,-0.13478,0.60691
803.281,35.3172,-0.88829,-0.13531,0.60619
804.081,35.34424,-0.88769,-0.13814,0.60547
804.881,35.37113,-0.88769,-0.13627,0.60475
805.681,35.39796,-0.88769,-0.13443,0.60403
806.481,35.4248,-0.88767,-0.1367,0.60331
807.281,35.45166,-0.88902,-0.13689,0.60259
808.081,35.47855,-0.88901,-0.14179,0.60187
808.881,35.50541,-0.88901,-0.14086,0.60114
809.681,35.53239,-0.88901,-0.14003,0.60042
810.481,35.55934,-0.88867,-0.14215,0.59969
811.281,35.58616,-0.88868,-0.13907,0.59897
812.081,35.613,-0.88997,-0.14451,0.59824
812.881,35.63971,-0.88932,-0.14404,0.59752
813.681,35.66664,-0.88933,-0.13947,0.59679
814.481,35.69359,-0.88933,-0.14053,0.59606
815.281,35.72068,-0.88933,-0.14472,0.59533
816.081,35.74759,-0.88933,-0.14384,0.59461
816.881,35.77445,-0.88933,-0.14412,0.59388
817.681,35.80137,-0.88935,-0.14512,0.59315
818.481,35.82829,-0.89011,-0.14762,0.59242
819.281,35.85521,-0.89032,-0.14584,0.59168
820.081,35.88212,-0.89032,-0.14567,0.59095
820.881,35.90903,-0.89032,-0.15114,0.59022
821.681,35.936,-0.89032,-0.1431,0.58949
822.481,35.9629,-0.89032,-0.14687,0.58875
823.281,35.98982,-0.89032,-0.14531,0.58802
824.081,36.01648,-0.89032,-0.14788,0.58728
824.881,36.04336,-0.88927,-0.14787,0.58655
825.681,36.07032,-0.88901,-0.14792,0.58581
826.481,36.0976,-0.88901,-0.14937,0.58508
827.281,36.1245,-0.89018,-0.15257,0.58434
828.081,36.15142,-0.89033,-0.15338,0.5836
828.881,36.1785,-0.89033,-0.15122,0.58286
829.681,36.20547,-0.89033,-0.15204,0.58212
830.481,36.2324,-0.89033,-0.15273,0.58138
831.281,36.25931,-0.88902,-0.15193,0.58064
832.081,36.28629,-0.8884,-0.15314,0.5799
832.881,36.3133,-0.88835,-0.15181,0.57916
833.681,36.34028,-0.88901,-0.15247,0.57842
834.481,36.36718,-0.88901,-0.15264,0.57768
835.281,36.3941,-0.88901,-0.15269,0.57694
836.081,36.42095,-0.88901,-0.15212,0.57619
836.881,36.44763,-0.88903,-0.15358,0.57545
837.681,36.4747,-0.89032,-0.14988,0.5747
838.481,36.5019,-0.89035,-0.15189,0.57396
839.281,36.52908,-0.88902,-0.15157,0.57321
840.081,36.55611,-0.88901,-0.15395,0.57247
840.881,36.5831,-0.88901,-0.1539,0.57172
841.681,36.61015,-0.88901,-0.15079,0.57097
842.481,36.63714,-0.88901,-0.15216,0.57023
843.281,36.66407,-0.88901,-0.15709,0.56948
844.081,36.69103,-0.88959,-0.1512,0.56873
844.881,36.71808,-0.88967,-0.15294,0.56798
845.681,36.74511,-0.88967,-0.156,0.56723
846.481,36.77214,-0.88967,-0.15772,0.56648
847.281,36.7992,-0.88967,-0.1545,0.56573
848.081,36.82631,-0.89003,-0.15646,0.56498
848.881,36.85335,-0.88901,-0.15316,0.56423
849.681,36.8804,-0.88901,-0.15663,0.56347
850.481,36.90741,-0.88941,-0.15362,0.56272
851.281,36.93448,-0.89033,-0.15666,0.56197
852.081,36.96154,-0.89033,-0.15734,0.56121
852.881,36.98851,-0.89037,-0.1566,0.56046
853.681,37.01553,-0.89163,-0.15565,0.55971
854.481,37.0426,-0.89164,-0.15718,0.55895
855.281,37.06969,-0.89164,-0.15733,0.55819
856.081,37.09672,-0.89164,-0.15264,0.55744
856.881,37.12379,-0.89163,-0.15241,0.55668
857.681,37.15081,-0.89028,-0.15454,0.55592
858.481,37.17791,-0.89032,-0.15564,0.55517
859.281,37.20499,-0.89032,-0.15485,0.55441
860.081,37.23214,-0.89056,-0.15768,0.55365
860.881,37.25918,-0.89164,-0.15318,0.55289
861.681,37.28633,-0.89164,-0.15142,0.55213
862.481,37.31333,-0.89164,-0.15095,0.55137
863.281,37.34029,-0.89164,-0.15111,0.55061
864.081,37.3673,-0.89073,-0.14951,0.54985
864.881,37.39461,-0.89164,-0.14932,0.54909
865.681,37.42187,-0.89164,-0.14726,0.54833
866.481,37.44893,-0.89164,-0.14843,0.54756
867.281,37.476,-0.89164,-0.14432,0.5468
868.081,37.503,-0.89164,-0.14264,0.54604
868.881,37.5301,-0.89164,-0.14644,0.54527
869.681,37.55717,-0.89164,-0.14117,0.54451
870.481,37.58425,-0.89164,-0.13879,0.54375
871.281,37.61138,-0.89166,-0.14116,0.54298
872.081,37.63848,-0.89229,-0.14049,0.54222
872.881,37.66558,-0.8923,-0.13616,0.54145
873.681,37.6926,-0.8913,-0.14102,0.54068
874.481,37.71963,-0.89131,-0.13974,0.53992
875.281,37.74664,-0.89131,-0.13697,0.53915
876.081,37.77373,-0.89131,-0.13993,0.53838
876.881,37.80083,-0.89131,-0.13735,0.53761
877.681,37.82788,-0.89131,-0.13537,0.53685
878.481,37.85488,-0.89095,-0.13574,0.53608
879.281,37.88192,-0.89099,-0.13275,0.53531
880.081,37.909,-0.89162,-0.13198,0.53454
880.881,37.93606,-0.89164,-0.13292,0.53377
881.681,37.96302,-0.89141,-0.132,0.533
882.481,37.99003,-0.89032,-0.13676,0.53223
883.281,38.01703,-0.89032,-0.13234,0.53146
884.081,38.04403,-0.89032,-0.13159,0.53069
884.881,38.07096,-0.89032,-0.12951,0.52991
885.681,38.09785,-0.89012,-0.12587,0.52914
886.481,38.12475,-0.89086,-0.12867,0.52837
887.281,38.1517,-0.89099,-0.13091,0.5276
888.081,38.17872,-0.89099,-0.13026,0.52682
888.881,38.2057,-0.891,-0.12808,0.52605
889.681,38.23276,-0.89231,-0.1304,0.52527
890.481,38.25979,-0.8923,-0.13015,0.5245
891.281,38.28673,-0.8923,-0.13209,0.52372
892.081,38.3136,-0.89162,-0.13268,0.52295
892.581,38.33052,-0.89163,-0.13029,0.52246