File: 01_Data/PET/STA/N2/10K_min/PET_STA_N2_10KData_210830_R2.csv
##Temp./Â°C,Time/min,Mass loss(subtr.2)/mg,DSC(subtr.2)/(mW/mg),Sensit./(uV/mW)
49.763,10.01,-0.0023,-0.01379932,1.03585
50.363,11.4761,-0.00349301,0.009117027,1.03582
50.963,11.8416,-0.001464633,0.02199918,1.03579
51.563,12.10725,-0.002900051,0.03463855,1.03575
52.163,12.32659,-0.002832641,0.04326794,1.03572
52.763,12.51633,-0.002068377,0.04810532,1.03569
53.363,12.68941,-0.00333844,0.0562442,1.03565
53.963,12.84822,-0.00378883,0.0631118,1.03561
54.563,12.9976,-0.003872453,0.06764504,1.03557
55.163,13.13919,-0.002440126,0.07312306,1.03553
55.763,13.2752,-0.003666312,0.07832274,1.03549
56.363,13.40559,-0.002176407,0.08236996,1.03544
56.963,13.5313,-0.004247204,0.0850721,1.0354
57.563,13.6524,-0.00447501,0.0898335,1.03535
58.163,13.76971,-0.003605894,0.09266706,1.0353
58.763,13.8842,-0.00350321,0.09423091,1.03525
59.363,13.9956,-0.002487149,0.09869327,1.0352
59.963,14.10415,-0.002534411,0.10227,1.03515
60.563,14.21039,-0.002858266,0.10495,1.03509
61.163,14.314,-0.00353436,0.10924,1.03503
61.763,14.41608,-0.003579718,0.11073,1.03498
62.363,14.51687,-0.003577404,0.11408,1.03492
62.963,14.61517,-0.002235101,0.11773,1.03486
63.563,14.71084,-0.003845725,0.12136,1.03479
64.163,14.8048,-0.00374217,0.12276,1.03473
64.763,14.89905,-0.00318585,0.12637,1.03466
65.363,14.99206,-0.001008715,0.12928,1.03459
65.963,15.08247,-0.00252433,0.13123,1.03453
66.563,15.17189,-0.004013452,0.13586,1.03446
67.163,15.2596,-0.004172737,0.13969,1.03438
67.763,15.3467,-0.00379715,0.14094,1.03431
68.363,15.4335,-0.003941415,0.14725,1.03424
68.963,15.51893,-0.00258572,0.14869,1.03416
69.563,15.60276,-0.00390186,0.15043,1.03408
70.163,15.6859,-0.0033843,0.15359,1.034
70.763,15.76746,-0.005215063,0.15608,1.03392
71.363,15.84866,-0.005147108,0.15808,1.03384
71.963,15.92924,-0.005494476,0.15682,1.03375
72.563,16.00939,-0.00548036,0.15814,1.03367
73.163,16.08906,-0.006202956,0.15809,1.03358
73.763,16.16756,-0.005252321,0.15856,1.03349
74.363,16.2449,-0.002955213,0.1592,1.0334
74.963,16.32208,-0.00440001,0.16013,1.03331
75.563,16.39818,-0.003583297,0.16252,1.03322
76.163,16.4746,-0.003285974,0.16233,1.03312
76.763,16.5499,-0.002960209,0.165,1.03303
77.363,16.62519,-0.002973667,0.16922,1.03293
77.963,16.69949,-0.002969189,0.17143,1.03283
78.563,16.77345,-0.00306515,0.17612,1.03273
79.163,16.84672,-0.002841268,0.17955,1.03263
79.763,16.9188,-0.0041569,0.18625,1.03253
80.363,16.99079,-0.004167437,0.191,1.03242
80.963,17.0625,-0.00342969,0.19487,1.03232
81.563,17.1345,-0.004078675,0.19973,1.03221
82.163,17.20587,-0.004222249,0.20325,1.0321
82.763,17.27669,-0.00350231,0.20888,1.03199
83.363,17.34692,-0.00290229,0.21073,1.03188
83.963,17.4167,-0.001233616,0.21409,1.03176
84.563,17.4857,-0.00130861,0.21545,1.03165
85.163,17.55446,-0.00353628,0.21772,1.03153
85.763,17.62271,-0.00274969,0.21801,1.03141
86.363,17.69085,-0.002518952,0.22078,1.03129
86.963,17.7588,-0.003827,0.22195,1.03117
87.563,17.82614,-0.00466686,0.22451,1.03105
88.163,17.89319,-0.003846045,0.22682,1.03093
88.763,17.95991,-0.003834812,0.22844,1.0308
89.363,18.0266,-0.003823589,0.22967,1.03068
89.963,18.093,-0.004153705,0.23164,1.03055
90.563,18.15888,-0.00358465,0.23243,1.03042
91.163,18.2243,-0.003813893,0.23425,1.03029
91.763,18.28951,-0.005159563,0.23468,1.03015
92.363,18.35436,-0.003811485,0.23581,1.03002
92.963,18.4192,-0.003829767,0.23678,1.02989
93.563,18.48375,-0.00264889,0.23766,1.02975
94.163,18.54813,-0.003798184,0.23966,1.02961
94.763,18.61202,-0.003837135,0.24018,1.02947
95.363,18.6758,-0.003763914,0.24138,1.02933
95.963,18.73958,-0.00284183,0.24342,1.02919
96.563,18.8034,-0.004566949,0.24467,1.02904
97.163,18.86681,-0.00386448,0.2458,1.0289
97.763,18.92962,-0.003843693,0.24799,1.02875
98.363,18.9924,-0.002515276,0.24867,1.02861
98.963,19.05481,-0.002506165,0.24933,1.02846
99.563,19.1174,-0.00263154,0.25185,1.02831
100.163,19.1797,-0.002503023,0.25181,1.02815
100.763,19.2418,-0.002644915,0.25371,1.028
101.363,19.30389,-0.004231877,0.25323,1.02784
101.963,19.36577,-0.003965525,0.25589,1.02769
102.563,19.42751,-0.003995778,0.25646,1.02753
103.163,19.48905,-0.00369374,0.25741,1.02737
103.763,19.55044,-0.00263106,0.25943,1.02721
104.363,19.6118,-0.003931362,0.25909,1.02705
104.963,19.6729,-0.002645346,0.26099,1.02689
105.563,19.7338,-0.002627564,0.26081,1.02672
106.163,19.79488,-0.00404718,0.26182,1.02656
106.763,19.85582,-0.004024196,0.26334,1.02639
107.363,19.91658,-0.005152587,0.26457,1.02622
107.963,19.977,-0.0039492,0.26539,1.02605
108.563,20.03729,-0.005217599,0.26588,1.02588
109.163,20.09763,-0.00394064,0.26654,1.02571
109.763,20.158,-0.005280641,0.26886,1.02553
110.363,20.21808,-0.005357751,0.26894,1.02536
110.963,20.27807,-0.005259371,0.27078,1.02518
111.563,20.338,-0.004432852,0.2716,1.025
112.163,20.398,-0.00526051,0.27334,1.02482
112.763,20.45796,-0.00395178,0.27333,1.02464
113.363,20.51792,-0.004481489,0.2756,1.02446
113.963,20.57759,-0.003949485,0.27628,1.02428
114.563,20.637,-0.00484214,0.27683,1.02409
115.163,20.6963,-0.00394792,0.27879,1.0239
115.763,20.75527,-0.002623892,0.27898,1.02372
116.363,20.81382,-0.0024096,0.27983,1.02353
116.963,20.87293,-0.00262443,0.28104,1.02334
117.563,20.93195,-0.003948529,0.28205,1.02315
118.163,20.9913,-0.003973494,0.28278,1.02295
118.763,21.05044,-0.003933053,0.28267,1.02276
119.363,21.1092,-0.00363941,0.28398,1.02256
119.963,21.16799,-0.004290502,0.28662,1.02237
120.563,21.2266,-0.003998087,0.28608,1.02217
121.163,21.285,-0.00421339,0.28695,1.02197
121.763,21.3434,-0.002543876,0.28784,1.02177
122.363,21.40172,-0.003932469,0.28787,1.02157
122.963,21.45971,-0.002630007,0.28991,1.02136
123.563,21.5178,-0.00393877,0.29105,1.02116
124.163,21.57564,-0.003950483,0.29067,1.02095
124.763,21.6336,-0.002744095,0.2922,1.02074
125.363,21.69163,-0.00261391,0.29435,1.02054
125.963,21.74932,-0.003968857,0.29387,1.02033
126.563,21.8068,-0.00263163,0.29407,1.02011
127.163,21.86415,-0.003992632,0.29475,1.0199
127.763,21.92149,-0.002851904,0.29497,1.01969
128.363,21.97885,-0.002630955,0.29568,1.01947
128.963,22.03631,-0.003344307,0.29504,1.01926
129.563,22.09362,-0.00293622,0.29815,1.01904
130.163,22.1504,-0.00394027,0.29866,1.01882
130.763,22.20726,-0.002552915,0.30028,1.0186
131.363,22.2641,-0.003941839,0.30101,1.01838
131.963,22.32065,-0.00394705,0.30164,1.01816
132.563,22.37729,-0.003950008,0.30132,1.01793
133.163,22.4338,-0.003953758,0.30223,1.01771
133.763,22.48976,-0.0039616,0.30448,1.01748
134.363,22.54634,-0.003939507,0.30482,1.01725
134.963,22.60291,-0.003995954,0.30625,1.01702
135.563,22.65961,-0.003257475,0.30611,1.01679
136.163,22.71591,-0.003950465,0.30739,1.01656
136.763,22.7719,-0.00365952,0.30698,1.01633
137.363,22.82807,-0.00400807,0.30974,1.0161
137.963,22.88428,-0.003996532,0.30756,1.01586
138.563,22.94046,-0.004049995,0.31037,1.01562
139.163,22.99635,-0.004050016,0.31299,1.01539
139.763,23.0521,-0.004068385,0.31431,1.01515
140.363,23.1079,-0.00406296,0.31296,1.01491
140.963,23.1634,-0.0053794,0.31459,1.01467
141.563,23.219,-0.004040457,0.31442,1.01442
142.163,23.27447,-0.004049972,0.31447,1.01418
142.763,23.33001,-0.004049942,0.31543,1.01393
143.363,23.38563,-0.00327289,0.31474,1.01369
143.963,23.4409,-0.004060095,0.31618,1.01344
144.563,23.49646,-0.00345857,0.31767,1.01319
145.163,23.5518,-0.004060355,0.31906,1.01294
145.763,23.60705,-0.004060264,0.31954,1.01269
146.363,23.66242,-0.003206028,0.31908,1.01244
146.963,23.7176,-0.004043197,0.32119,1.01219
147.563,23.77267,-0.004050188,0.32234,1.01193
148.163,23.8279,-0.003511243,0.32157,1.01167
148.763,23.88298,-0.003521716,0.3251,1.01142
149.363,23.9381,-0.004058117,0.32318,1.01116
149.963,23.9932,-0.002871305,0.32512,1.0109
150.563,24.0482,-0.00275078,0.32591,1.01064
151.163,24.10323,-0.003130483,0.32599,1.01038
151.763,24.15812,-0.003759008,0.32877,1.01011
152.363,24.213,-0.00372003,0.32738,1.00985
152.963,24.26766,-0.003726024,0.32904,1.00958
153.563,24.32234,-0.002415933,0.32974,1.00932
154.163,24.37716,-0.00166367,0.33256,1.00905
154.763,24.43192,-0.00274302,0.33266,1.00878
155.363,24.48666,-0.002740999,0.33305,1.00851
155.963,24.54143,-0.004081841,0.33434,1.00824
156.563,24.59614,-0.0027598,0.33508,1.00797
157.163,24.65073,-0.00274,0.33562,1.00769
157.763,24.7051,-0.00273983,0.33643,1.00742
158.363,24.7596,-0.003061238,0.3367,1.00714
158.963,24.81413,-0.002704813,0.33812,1.00687
159.563,24.8688,-0.00274003,0.33777,1.00659
160.163,24.92344,-0.002058514,0.33927,1.00631
160.763,24.9781,-0.001417968,0.3398,1.00603
161.363,25.0328,-0.001273585,0.34139,1.00575
161.963,25.08747,-0.001430024,0.34136,1.00546
162.563,25.1419,-0.00143,0.34126,1.00518
163.163,25.19637,-0.001423977,0.34474,1.0049
163.763,25.25074,-0.002739355,0.34591,1.00461
164.363,25.30518,-0.00133169,0.34406,1.00432
164.963,25.35965,-0.0014193,0.34611,1.00403
165.563,25.41394,-0.002722718,0.34557,1.00374
166.163,25.4684,-0.001755843,0.34713,1.00345
166.763,25.52294,-0.002744778,0.34699,1.00316
167.363,25.57713,-0.002730047,0.34834,1.00287
167.963,25.63171,-0.00278875,0.34945,1.00258
168.563,25.68603,-0.00274081,0.34911,1.00228
169.163,25.74042,-0.00273997,0.34883,1.00198
169.763,25.79484,-0.00315961,0.3532,1.00169
170.363,25.84913,-0.00274027,0.3513,1.00139
170.963,25.9034,-0.00274,0.35183,1.00109
171.563,25.95766,-0.00274,0.35224,1.00079
172.163,26.0121,-0.00274,0.3552,1.00049
172.763,26.06629,-0.002732605,0.35205,1.00018
173.363,26.1206,-0.00276285,0.35541,0.99988
173.963,26.175,-0.0027402,0.35382,0.99958
174.563,26.22908,-0.00369115,0.35451,0.99927
175.163,26.28347,-0.00235849,0.3544,0.99896
175.763,26.3377,-0.002385215,0.35374,0.99865
176.363,26.3918,-0.00142159,0.35696,0.99835
176.963,26.4461,-0.00141996,0.35805,0.99804
177.563,26.5,-0.001420215,0.35745,0.99772
178.163,26.5539,-0.002166707,0.3582,0.99741
178.763,26.6079,-0.001731074,0.35745,0.9971
179.363,26.66191,-0.002099635,0.35865,0.99678
179.963,26.71593,-0.00339837,0.35918,0.99647
180.563,26.76991,-0.00339964,0.35998,0.99615
181.163,26.82371,-0.00273813,0.36095,0.99583
181.763,26.87762,-0.00273965,0.36019,0.99552
182.363,26.93147,-0.002139973,0.36148,0.9952
182.963,26.9854,-0.00274036,0.36094,0.99487
183.563,27.03936,-0.00274,0.36179,0.99455
184.163,27.0932,-0.00273999,0.36191,0.99423
184.763,27.14715,-0.002746824,0.36192,0.99391
185.363,27.20096,-0.002775979,0.36319,0.99358
185.963,27.2548,-0.002731695,0.36263,0.99326
186.563,27.3086,-0.00404557,0.36487,0.99293
187.163,27.3624,-0.00275242,0.36432,0.9926
187.763,27.4162,-0.002739906,0.36581,0.99227
188.363,27.4701,-0.00273811,0.36476,0.99194
188.963,27.52393,-0.0007558319,0.36607,0.99161
189.563,27.57757,-0.000772429,0.3674,0.99128
190.163,27.63133,-0.00208229,0.36517,0.99095
190.763,27.6851,-0.002079996,0.36562,0.99061
191.363,27.73868,-0.002079706,0.36555,0.99028
191.963,27.79225,-0.003244815,0.36725,0.98994
192.563,27.8459,-0.002076999,0.36841,0.9896
193.163,27.8994,-0.002365597,0.36978,0.98927
193.763,27.95318,-0.00340049,0.36724,0.98893
194.363,28.00678,-0.003398205,0.36922,0.98859
194.963,28.06042,-0.002078397,0.36812,0.98825
195.563,28.114,-0.002069142,0.36966,0.9879
196.163,28.16743,-0.00188549,0.37032,0.98756
196.763,28.2211,-0.002079932,0.36932,0.98722
197.363,28.2746,-0.002079983,0.3691,0.98687
197.963,28.3283,-0.002090294,0.3695,0.98653
198.563,28.38177,-0.003392863,0.37019,0.98618
199.163,28.4351,-0.00312287,0.37057,0.98583
199.763,28.48863,-0.002079953,0.37033,0.98548
200.363,28.542,-0.00337931,0.37196,0.98513
200.963,28.59563,-0.00340003,0.37385,0.98478
201.563,28.64927,-0.0034,0.37312,0.98443
202.163,28.7029,-0.00339606,0.3715,0.98408
202.763,28.75657,-0.004724802,0.37267,0.98372
203.363,28.81015,-0.00471521,0.37355,0.98337
203.963,28.86385,-0.003401049,0.37483,0.98301
204.563,28.9176,-0.00323182,0.37576,0.98266
205.163,28.9711,-0.002089716,0.37479,0.9823
205.763,29.02458,-0.002191386,0.37459,0.98194
206.363,29.0779,-0.002077678,0.37662,0.98158
206.963,29.1312,-0.002079999,0.37593,0.98122
207.563,29.18461,-0.00208,0.37683,0.98086
208.163,29.2381,-0.002080181,0.37808,0.9805
208.763,29.29172,-0.001769138,0.37748,0.98014
209.363,29.3453,-0.00208021,0.37696,0.97977
209.963,29.39885,-0.00208,0.37795,0.97941
210.563,29.45243,-0.002080942,0.37975,0.97904
211.163,29.50599,-0.0033695,0.38121,0.97868
211.763,29.5597,-0.003692086,0.37988,0.97831
212.363,29.61324,-0.00477279,0.38101,0.97794
212.963,29.66688,-0.002687899,0.38025,0.97757
213.563,29.72045,-0.002408981,0.38048,0.9772
214.163,29.7737,-0.001103547,0.38031,0.97683
214.763,29.82725,-0.001836467,0.38335,0.97646
215.363,29.88083,-0.00339405,0.38247,0.97609
215.963,29.9343,-0.003399905,0.38348,0.97571
216.563,29.98825,-0.003472593,0.38216,0.97534
217.163,30.04178,-0.00340524,0.38203,0.97496
217.763,30.09538,-0.003407113,0.38347,0.97459
218.363,30.1492,-0.001456869,0.38486,0.97421
218.963,30.2028,-0.00142076,0.38539,0.97383
219.563,30.2565,-0.002352558,0.38657,0.97345
220.163,30.3101,-0.002409999,0.38872,0.97307
220.763,30.3635,-0.002410051,0.38705,0.97269
221.363,30.41692,-0.002359264,0.38747,0.97231
221.963,30.47043,-0.003720343,0.38755,0.97193
222.563,30.52409,-0.002632443,0.38766,0.97155
223.163,30.57794,-0.002409943,0.38809,0.97116
223.763,30.6317,-0.002441318,0.39022,0.97078
224.363,30.68539,-0.002386688,0.38966,0.97039
224.963,30.73902,-0.002410007,0.39167,0.97
225.563,30.7927,-0.002410733,0.3903,0.96962
226.163,30.8464,-0.003121867,0.39215,0.96923
226.763,30.9002,-0.001752971,0.39079,0.96884
227.363,30.9538,-0.001841537,0.39049,0.96845
227.963,31.0076,-0.002409756,0.39297,0.96806
228.563,31.0614,-0.002409991,0.39213,0.96767
229.163,31.11498,-0.002432378,0.39503,0.96728
229.763,31.1689,-0.002414981,0.39642,0.96688
230.363,31.2225,-0.002410008,0.39525,0.96649
230.963,31.27618,-0.00241,0.39481,0.96609
231.563,31.32992,-0.00241,0.39594,0.9657
232.163,31.38358,-0.00240999,0.39637,0.9653
232.763,31.4373,-0.002423176,0.39626,0.9649
233.363,31.49101,-0.00298752,0.39462,0.96451
233.963,31.54477,-0.002409739,0.39634,0.96411
234.563,31.59862,-0.002409947,0.39522,0.96371
235.163,31.6523,-0.00290057,0.39571,0.96331
235.763,31.70608,-0.003398376,0.39625,0.96291
236.363,31.7597,-0.002081526,0.39777,0.9625
236.963,31.81338,-0.00208001,0.39916,0.9621
237.563,31.8674,-0.00208,0.39857,0.9617
238.163,31.9212,-0.002080104,0.39755,0.96129
238.763,31.97516,-0.001605799,0.39879,0.96089
239.363,32.0289,-0.000770028,0.39735,0.96048
239.963,32.08269,-0.000769993,0.4001,0.96008
240.563,32.13657,-0.000779442,0.39975,0.95967
241.163,32.1905,-0.001100975,0.39804,0.95926
241.763,32.2444,-0.00239623,0.4017,0.95885
242.363,32.29829,-0.002410006,0.40146,0.95844
242.963,32.35201,-0.002409992,0.40143,0.95803
243.563,32.4058,-0.00242377,0.40131,0.95762
244.163,32.45949,-0.00372879,0.40184,0.95721
244.763,32.51324,-0.003729948,0.40313,0.95679
245.363,32.56711,-0.00377975,0.40308,0.95638
245.963,32.621,-0.002409246,0.4032,0.95597
246.563,32.67488,-0.003736558,0.4022,0.95555
247.163,32.72871,-0.003728891,0.4059,0.95514
247.763,32.78237,-0.002404062,0.40211,0.95472
248.363,32.836,-0.002424008,0.404,0.9543
248.963,32.89,-0.00372001,0.40385,0.95388
249.563,32.9439,-0.00372028,0.40325,0.95347
250.163,32.9981,-0.00316203,0.40478,0.95305
250.763,33.0521,-0.002388355,0.40459,0.95263
251.363,33.10587,-0.00241003,0.4042,0.95221
251.963,33.1597,-0.00241,0.40434,0.95178
252.563,33.2134,-0.002409653,0.40527,0.95136
253.163,33.26716,-0.00181337,0.40497,0.95094
253.763,33.3211,-0.001824191,0.40655,0.95052
254.363,33.37512,-0.002731392,0.40609,0.95009
254.963,33.4291,-0.002409942,0.4051,0.94967
255.563,33.48314,-0.00241,0.40688,0.94924
256.163,33.53706,-0.002410034,0.40575,0.94881
256.763,33.59095,-0.002426385,0.4071,0.94839
257.363,33.6448,-0.002500998,0.40698,0.94796
257.963,33.69871,-0.00240997,0.40519,0.94753
258.563,33.75269,-0.00240973,0.40522,0.9471
259.163,33.8067,-0.003064876,0.40666,0.94667
259.763,33.86072,-0.00373973,0.40629,0.94624
260.363,33.91462,-0.003714426,0.40576,0.94581
260.963,33.96857,-0.003720002,0.40881,0.94538
261.563,34.0225,-0.00372,0.40832,0.94495
262.163,34.07646,-0.003720003,0.40824,0.94451
262.763,34.13046,-0.003720559,0.40787,0.94408
263.363,34.1843,-0.002419292,0.4075,0.94364
263.963,34.23822,-0.003071763,0.40871,0.94321
264.563,34.29204,-0.0030672,0.40617,0.94277
265.163,34.34602,-0.00241552,0.40833,0.94234
265.763,34.4,-0.002410001,0.40975,0.9419
266.363,34.45402,-0.00370391,0.40825,0.94146
266.963,34.50822,-0.003768821,0.41159,0.94102
267.563,34.56224,-0.002395105,0.41018,0.94059
268.163,34.61632,-0.002739497,0.40937,0.94015
268.763,34.67041,-0.00274,0.41168,0.93971
269.363,34.72429,-0.00274,0.41098,0.93926
269.963,34.77823,-0.0027399,0.4122,0.93882
270.563,34.8322,-0.001346489,0.41209,0.93838
271.163,34.88613,-0.002441418,0.41304,0.93794
271.763,34.94021,-0.002410002,0.41168,0.93749
272.363,34.99425,-0.002410972,0.41168,0.93705
272.963,35.04837,-0.003369097,0.41226,0.93661
273.563,35.10248,-0.00338991,0.41388,0.93616
274.163,35.15668,-0.003484406,0.41356,0.93572
274.763,35.21079,-0.00208003,0.41418,0.93527
275.363,35.26488,-0.002240374,0.41466,0.93482
275.963,35.31909,-0.002410028,0.41439,0.93437
276.563,35.3733,-0.002405187,0.41366,0.93393
277.163,35.42755,-0.003828624,0.41394,0.93348
277.763,35.48185,-0.002739606,0.41428,0.93303
278.363,35.53605,-0.00268761,0.41498,0.93258
278.963,35.5903,-0.00404981,0.41756,0.93213
279.563,35.64458,-0.004134141,0.41467,0.93168
280.163,35.69878,-0.002739885,0.4149,0.93122
280.763,35.75245,-0.00274,0.41488,0.93077
281.363,35.80666,-0.00274,0.41548,0.93032
281.963,35.86102,-0.00274,0.41481,0.92987
282.563,35.9152,-0.00273947,0.41586,0.92941
283.163,35.97011,-0.00373646,0.41563,0.92896
283.763,36.0246,-0.00339795,0.41638,0.9285
284.363,36.0788,-0.00372731,0.41484,0.92805
284.963,36.13333,-0.00368896,0.41662,0.92759
285.563,36.18777,-0.00241082,0.41679,0.92713
286.163,36.24222,-0.002410003,0.4165,0.92668
286.763,36.29684,-0.002405694,0.41595,0.92622
287.363,36.35134,-0.00339717,0.4176,0.92576
287.963,36.4058,-0.003400005,0.41868,0.9253
288.563,36.4602,-0.0034,0.41673,0.92484
289.163,36.51433,-0.0034,0.41887,0.92438
289.763,36.5688,-0.0034,0.4188,0.92392
290.363,36.62316,-0.003400023,0.4183,0.92346
290.963,36.67768,-0.00322823,0.41718,0.923
291.563,36.73233,-0.002401109,0.41818,0.92253
292.163,36.7868,-0.002573668,0.41946,0.92207
292.763,36.84142,-0.003753075,0.41954,0.92161
293.363,36.896,-0.00372996,0.41803,0.92115
293.963,36.95045,-0.00373,0.41825,0.92068
294.563,37.00497,-0.00373,0.42079,0.92022
295.163,37.0593,-0.00373,0.42058,0.91975
295.763,37.11377,-0.003732811,0.41926,0.91928
296.363,37.16833,-0.00239351,0.42031,0.91882
296.963,37.22299,-0.00237902,0.41935,0.91835
297.563,37.27778,-0.00372163,0.42213,0.91788
298.163,37.33248,-0.00372,0.42138,0.91742
298.763,37.3872,-0.00372,0.42212,0.91695
299.363,37.44164,-0.00372,0.42324,0.91648
299.963,37.49626,-0.00372,0.42493,0.91601
300.563,37.55086,-0.00372,0.42343,0.91554
301.163,37.60535,-0.00372,0.42303,0.91507
301.763,37.66012,-0.00372,0.42393,0.9146
302.363,37.7147,-0.00372,0.4245,0.91413
302.963,37.76939,-0.00372032,0.4245,0.91366
303.563,37.8241,-0.00509787,0.42549,0.91319
304.163,37.87859,-0.003728088,0.42456,0.91271
304.763,37.93329,-0.003729997,0.42336,0.91224
305.363,37.98805,-0.00373,0.42439,0.91177
305.963,38.0428,-0.003730186,0.42463,0.91129
306.563,38.09772,-0.004607084,0.42514,0.91082
307.163,38.1524,-0.004719926,0.42617,0.91034
307.763,38.20705,-0.004720022,0.42526,0.90987
308.363,38.26174,-0.004740581,0.42538,0.90939
308.963,38.31622,-0.003730969,0.42548,0.90892
309.563,38.37097,-0.00307216,0.42733,0.90844
310.163,38.42583,-0.00439559,0.42875,0.90796
310.763,38.48075,-0.004337227,0.42896,0.90748
311.363,38.5359,-0.003399558,0.42863,0.90701
311.963,38.59082,-0.003400269,0.42767,0.90653
312.563,38.64557,-0.004687975,0.42781,0.90605
313.163,38.7004,-0.004709998,0.42776,0.90557
313.763,38.75517,-0.004710074,0.42657,0.90509
314.363,38.80996,-0.004392426,0.42821,0.90461
314.963,38.86489,-0.003729063,0.42788,0.90413
315.563,38.91968,-0.00339812,0.4283,0.90365
316.163,38.97449,-0.00380058,0.42944,0.90317
316.763,39.02942,-0.00470999,0.42851,0.90269
317.363,39.08433,-0.004715823,0.42886,0.9022
317.963,39.13921,-0.003389015,0.42719,0.90172
318.563,39.19395,-0.003389607,0.42999,0.90124
319.163,39.24866,-0.004256465,0.4308,0.90076
319.763,39.30311,-0.004710354,0.43022,0.90027
320.363,39.35808,-0.00390293,0.42983,0.89979
320.963,39.41305,-0.003389966,0.43117,0.8993
321.563,39.46815,-0.00339,0.43189,0.89882
322.163,39.52348,-0.003391297,0.43016,0.89833
322.763,39.57825,-0.00470046,0.43333,0.89785
323.363,39.63321,-0.00571642,0.432,0.89736
323.963,39.68817,-0.004884745,0.43487,0.89688
324.563,39.74309,-0.004379852,0.43347,0.89639
325.163,39.79822,-0.004662281,0.43311,0.8959
325.763,39.8532,-0.004709952,0.43574,0.89541
326.363,39.90829,-0.00471,0.43593,0.89493
326.963,39.9634,-0.004710336,0.43527,0.89444
327.563,40.01843,-0.005339688,0.43726,0.89395
328.163,40.0734,-0.005368677,0.43666,0.89346
328.763,40.12845,-0.006037686,0.43708,0.89297
329.363,40.1835,-0.00603001,0.4364,0.89248
329.963,40.23857,-0.00603165,0.43779,0.89199
330.563,40.29377,-0.005697455,0.44003,0.8915
331.163,40.34898,-0.0057006,0.43778,0.89101
331.763,40.40422,-0.004736087,0.43979,0.89052
332.363,40.45943,-0.00472,0.44083,0.89003
332.963,40.51463,-0.004737206,0.44233,0.88954
333.563,40.5698,-0.005370977,0.44272,0.88904
334.163,40.6249,-0.00668987,0.44107,0.88855
334.763,40.68,-0.006690014,0.44303,0.88806
335.363,40.73522,-0.00540333,0.44343,0.88757
335.963,40.79052,-0.005380003,0.44268,0.88707
336.563,40.84585,-0.00538,0.44433,0.88658
337.163,40.90126,-0.00537998,0.44433,0.88609
337.763,40.9565,-0.00552597,0.44613,0.88559
338.363,41.01181,-0.00636024,0.44683,0.8851
338.963,41.06702,-0.00636011,0.44813,0.8846
339.563,41.12236,-0.007754901,0.44688,0.88411
340.163,41.1776,-0.00766992,0.44869,0.88361
340.763,41.23294,-0.00762452,0.44982,0.88312
341.363,41.28829,-0.006690361,0.44716,0.88262
341.963,41.34363,-0.00738119,0.4494,0.88212
342.563,41.399,-0.00800009,0.44989,0.88163
343.163,41.45445,-0.008000001,0.45057,0.88113
343.763,41.50969,-0.008,0.45142,0.88063
344.363,41.56511,-0.008,0.45129,0.88013
344.963,41.62059,-0.008,0.45251,0.87964
345.563,41.67606,-0.00799997,0.45348,0.87914
346.163,41.73169,-0.00848906,0.45455,0.87864
346.763,41.78718,-0.009323316,0.45561,0.87814
347.363,41.8427,-0.007328648,0.45719,0.87764
347.963,41.89795,-0.007340007,0.45663,0.87714
348.563,41.9532,-0.00733998,0.45673,0.87664
349.163,42.00873,-0.007355426,0.45864,0.87614
349.763,42.06419,-0.008660464,0.45915,0.87564
350.363,42.1197,-0.00866229,0.46141,0.87514
350.963,42.17524,-0.009983417,0.46051,0.87464
351.563,42.23066,-0.00998,0.46301,0.87414
352.163,42.28622,-0.009979635,0.46396,0.87364
352.763,42.3418,-0.01069346,0.46452,0.87314
353.363,42.39755,-0.01063995,0.46543,0.87264
353.963,42.45315,-0.01064,0.46847,0.87214
354.563,42.50878,-0.01064,0.46766,0.87164
355.163,42.56457,-0.01063981,0.46853,0.87113
355.763,42.62021,-0.01097088,0.47017,0.87063
356.363,42.67592,-0.01229037,0.46981,0.87013
356.963,42.73154,-0.01229,0.47367,0.86963
357.563,42.78703,-0.01229,0.47588,0.86912
358.163,42.84259,-0.01229,0.47584,0.86862
358.763,42.89817,-0.01229,0.47922,0.86812
359.363,42.95385,-0.01229846,0.48013,0.86761
359.963,43.00974,-0.01391897,0.48199,0.86711
360.563,43.06561,-0.01391999,0.48406,0.8666
361.163,43.12151,-0.0139199,0.48741,0.8661
361.763,43.17733,-0.01504653,0.48696,0.8656
362.363,43.23298,-0.01492008,0.48994,0.86509
362.963,43.28867,-0.01492,0.49346,0.86459
363.563,43.34434,-0.01492,0.49564,0.86408
364.163,43.40011,-0.01492002,0.49657,0.86357
364.763,43.45581,-0.0160322,0.4987,0.86307
365.363,43.51169,-0.01623995,0.50282,0.86256
365.963,43.56758,-0.01623535,0.50247,0.86206
366.563,43.6233,-0.01895409,0.50475,0.86155
367.163,43.67931,-0.01885998,0.51193,0.86104
367.763,43.73516,-0.01885334,0.51174,0.86054
368.363,43.7913,-0.0201791,0.51549,0.86003
368.963,43.84732,-0.02108207,0.51796,0.85952
369.563,43.90317,-0.02247462,0.51844,0.85902
370.163,43.95895,-0.02380006,0.52279,0.85851
370.763,44.01461,-0.02413247,0.52521,0.858
371.363,44.0704,-0.02412988,0.52862,0.8575
371.963,44.12635,-0.0228291,0.53184,0.85699
372.563,44.18249,-0.02300489,0.53544,0.85648
373.163,44.23858,-0.02534081,0.53474,0.85597
373.763,44.2946,-0.0268353,0.53953,0.85546
374.363,44.35072,-0.02817934,0.5413,0.85495
374.963,44.4069,-0.02955979,0.54342,0.85445
375.563,44.4632,-0.03015186,0.54657,0.85394
376.163,44.51954,-0.03221264,0.55021,0.85343
376.763,44.57567,-0.03548455,0.55248,0.85292
377.363,44.63197,-0.03674901,0.55623,0.85241
377.963,44.68833,-0.03971525,0.56214,0.8519
378.563,44.74478,-0.04137402,0.56779,0.85139
379.163,44.80108,-0.04283125,0.57358,0.85088
379.763,44.85747,-0.04408189,0.58006,0.85037
380.363,44.91388,-0.04576203,0.5885,0.84986
380.963,44.97035,-0.04871347,0.59582,0.84935
381.563,45.02667,-0.05328284,0.60285,0.84884
382.163,45.0831,-0.05614506,0.61104,0.84833
382.763,45.13944,-0.05778764,0.61738,0.84782
383.363,45.19578,-0.06224092,0.62749,0.84731
383.963,45.25223,-0.06613784,0.63637,0.8468
384.563,45.30863,-0.07081689,0.64545,0.84629
385.163,45.36481,-0.07438975,0.65293,0.84578
385.763,45.42105,-0.07827373,0.6598,0.84527
386.363,45.47735,-0.08309877,0.66913,0.84476
386.963,45.53368,-0.087533,0.67648,0.84425
387.563,45.5903,-0.09249178,0.68338,0.84374
388.163,45.64685,-0.0968206,0.69237,0.84322
388.763,45.70315,-0.10122,0.70055,0.84271
389.363,45.75942,-0.10579,0.71165,0.8422
389.963,45.81576,-0.11118,0.71662,0.84169
390.563,45.87211,-0.11759,0.72755,0.84118
391.163,45.92861,-0.12324,0.73707,0.84067
391.763,45.985,-0.13039,0.74642,0.84015
392.363,46.04166,-0.13658,0.7564,0.83964
392.963,46.09819,-0.14387,0.77038,0.83913
393.563,46.1547,-0.15131,0.78198,0.83862
394.163,46.2112,-0.15901,0.79588,0.83811
394.763,46.2677,-0.16853,0.8058,0.83759
395.363,46.32428,-0.17639,0.8201,0.83708
395.963,46.38089,-0.1845,0.83336,0.83657
396.563,46.4375,-0.193,0.84725,0.83606
397.163,46.4942,-0.20258,0.86148,0.83554
397.763,46.55097,-0.21159,0.87661,0.83503
398.363,46.60777,-0.2222,0.89102,0.83452
398.963,46.6646,-0.23335,0.90817,0.83401
399.563,46.72143,-0.24511,0.92272,0.83349
400.163,46.778,-0.25672,0.94079,0.83298
400.763,46.83464,-0.27073,0.96163,0.83247
401.363,46.89135,-0.28427,0.98247,0.83196
401.963,46.94828,-0.29749,1.00961,0.83144
402.563,47.0053,-0.31263,1.03617,0.83093
403.163,47.0623,-0.32783,1.06513,0.83042
403.763,47.11919,-0.34309,1.08498,0.8299
404.363,47.176,-0.35956,1.11372,0.82939
404.963,47.23288,-0.37957,1.1323,0.82888
405.563,47.28965,-0.39793,1.15493,0.82836
406.163,47.34623,-0.4184,1.18773,0.82785
406.763,47.40317,-0.43869,1.24426,0.82734
407.363,47.46014,-0.46152,1.27158,0.82682
407.963,47.51721,-0.48512,1.29191,0.82631
408.563,47.5745,-0.50842,1.32464,0.8258
409.163,47.63133,-0.53424,1.35951,0.82528
409.763,47.68801,-0.56104,1.38191,0.82477
410.363,47.74487,-0.58981,1.4092,0.82426
410.963,47.80161,-0.61934,1.43473,0.82374
411.563,47.85845,-0.65052,1.46298,0.82323
412.163,47.91556,-0.68335,1.49249,0.82272
412.763,47.97253,-0.71489,1.52359,0.8222
413.363,48.02957,-0.75063,1.54659,0.82169
413.963,48.0867,-0.7858,1.56948,0.82118
414.563,48.1438,-0.82416,1.58981,0.82066
415.163,48.20095,-0.8619,1.61625,0.82015
415.763,48.25795,-0.90098,1.64082,0.81964
416.363,48.3148,-0.94276,1.65679,0.81912
416.963,48.3719,-0.98288,1.6735,0.81861
417.563,48.42877,-1.02848,1.68458,0.8181
418.163,48.4857,-1.07175,1.7057,0.81758
418.763,48.54287,-1.11908,1.72173,0.81707
419.363,48.59987,-1.16697,1.73387,0.81656
419.963,48.65716,-1.21498,1.73771,0.81604
420.563,48.7144,-1.26637,1.74996,0.81553
421.163,48.77126,-1.31617,1.75843,0.81502
421.763,48.82839,-1.36815,1.76436,0.8145
422.363,48.88527,-1.41893,1.76708,0.81399
422.963,48.94238,-1.47265,1.76641,0.81348
423.563,48.9996,-1.52693,1.76421,0.81297
424.163,49.0568,-1.58257,1.75549,0.81245
424.763,49.11398,-1.63998,1.74723,0.81194
425.363,49.17067,-1.69455,1.73497,0.81143
425.963,49.22797,-1.75454,1.71742,0.81091
426.563,49.28512,-1.80928,1.70233,0.8104
427.163,49.34257,-1.86706,1.68295,0.80989
427.763,49.39995,-1.92494,1.6804,0.80937
428.363,49.45726,-1.98322,1.6746,0.80886
428.963,49.51453,-2.04278,1.66559,0.80835
429.563,49.5719,-2.09918,1.63963,0.80784
430.163,49.62907,-2.15887,1.58728,0.80732
430.763,49.6862,-2.21051,1.54644,0.80681
431.363,49.74303,-2.26455,1.47855,0.8063
431.963,49.80003,-2.31702,1.43951,0.80579
432.563,49.857,-2.36837,1.41171,0.80527
433.163,49.91409,-2.42024,1.39457,0.80476
433.763,49.97125,-2.46814,1.35258,0.80425
434.363,50.02819,-2.52037,1.30157,0.80374
434.963,50.08512,-2.56708,1.24811,0.80323
435.563,50.1419,-2.61361,1.20077,0.80271
436.163,50.1986,-2.6565,1.1555,0.8022
436.763,50.2555,-2.69915,1.11821,0.80169
437.363,50.3125,-2.74391,1.08531,0.80118
437.963,50.36965,-2.78261,1.05261,0.80067
438.563,50.4268,-2.82301,1.02076,0.80016
439.163,50.48393,-2.86231,0.99432,0.79964
439.763,50.54101,-2.90009,0.96426,0.79913
440.363,50.59809,-2.93661,0.93321,0.79862
440.963,50.6551,-2.97239,0.90332,0.79811
441.563,50.7121,-3.00925,0.87402,0.7976
442.163,50.76928,-3.04077,0.84255,0.79709
442.763,50.8264,-3.07449,0.81607,0.79658
443.363,50.88354,-3.10404,0.78547,0.79607
443.963,50.94068,-3.13438,0.75669,0.79556
444.563,50.99762,-3.16414,0.73032,0.79505
445.163,51.0548,-3.19199,0.70496,0.79454
445.763,51.11177,-3.22002,0.6786,0.79403
446.363,51.16877,-3.24562,0.65366,0.79351
446.963,51.22592,-3.27178,0.62638,0.793
447.563,51.2831,-3.29484,0.60212,0.7925
448.163,51.34032,-3.31749,0.57745,0.79199
448.763,51.39737,-3.33943,0.55411,0.79148
449.363,51.4546,-3.35843,0.53176,0.79097
449.963,51.512,-3.37758,0.50796,0.79046
450.563,51.56944,-3.39516,0.48627,0.78995
451.163,51.62705,-3.41249,0.46416,0.78944
451.763,51.6843,-3.42783,0.44251,0.78893
452.363,51.7416,-3.4418,0.42007,0.78842
452.963,51.79883,-3.45596,0.40201,0.78791
453.563,51.85604,-3.46906,0.38194,0.7874
454.163,51.9133,-3.48139,0.36553,0.78689
454.763,51.97078,-3.49266,0.34917,0.78639
455.363,52.02815,-3.50263,0.33561,0.78588
455.963,52.08556,-3.51323,0.31958,0.78537
456.563,52.1434,-3.52394,0.30823,0.78486
457.163,52.20066,-3.53243,0.29516,0.78435
457.763,52.25817,-3.54072,0.28201,0.78385
458.363,52.31547,-3.54791,0.26999,0.78334
458.963,52.37276,-3.55507,0.26169,0.78283
459.563,52.43017,-3.56239,0.2489,0.78232
460.163,52.4877,-3.56814,0.23788,0.78182
460.763,52.5453,-3.57509,0.22738,0.78131
461.363,52.6029,-3.58062,0.22061,0.7808
461.963,52.6604,-3.58556,0.20904,0.7803
462.563,52.7179,-3.5923,0.19934,0.77979
463.163,52.7753,-3.59749,0.19256,0.77928
463.763,52.8328,-3.60113,0.18148,0.77878
464.363,52.89031,-3.6064,0.17233,0.77827
464.963,52.94775,-3.61242,0.16516,0.77777
465.563,53.00521,-3.617,0.15445,0.77726
466.163,53.0627,-3.62055,0.14919,0.77676
466.763,53.1204,-3.62592,0.14105,0.77625
467.363,53.1779,-3.62867,0.12987,0.77575
467.963,53.23554,-3.63214,0.12403,0.77524
468.563,53.2932,-3.63532,0.11718,0.77474
469.163,53.3508,-3.63821,0.11031,0.77423
469.763,53.4083,-3.64123,0.10495,0.77373
470.363,53.4658,-3.64428,0.09719269,0.77322
470.963,53.52355,-3.64694,0.09240969,0.77272
471.563,53.5813,-3.64969,0.08671067,0.77222
472.163,53.63906,-3.65254,0.08217141,0.77171
472.763,53.6972,-3.65467,0.07769311,0.77121
473.363,53.7548,-3.65834,0.07177651,0.77071
473.963,53.81247,-3.66121,0.0715449,0.7702
474.563,53.8703,-3.66365,0.06592927,0.7697
475.163,53.92808,-3.66418,0.06153491,0.7692
475.763,53.98574,-3.66736,0.06062437,0.7687
476.363,54.0435,-3.66978,0.05623206,0.76819
476.963,54.1012,-3.67047,0.05324107,0.76769
477.563,54.15902,-3.67309,0.05283755,0.76719
478.163,54.21683,-3.67475,0.05159791,0.76669
478.763,54.2748,-3.67633,0.04829328,0.76619
479.363,54.3328,-3.67822,0.04710239,0.76569
479.963,54.3909,-3.67971,0.04823507,0.76518
480.563,54.4491,-3.68128,0.04749286,0.76468
481.163,54.507,-3.68384,0.0455394,0.76418
481.763,54.5648,-3.68496,0.04564784,0.76368
482.363,54.6227,-3.68524,0.04538794,0.76318
482.963,54.68079,-3.68654,0.04729395,0.76268
483.563,54.73896,-3.68843,0.04679661,0.76218
484.163,54.7972,-3.69048,0.04516072,0.76169
484.763,54.8552,-3.69055,0.04592881,0.76119
485.363,54.9132,-3.6926,0.0464352,0.76069
485.963,54.9709,-3.69465,0.0472806,0.76019
486.563,55.0289,-3.696,0.04362742,0.75969
487.163,55.087,-3.69729,0.04098834,0.75919
487.763,55.1452,-3.69814,0.03844243,0.7587
488.363,55.2033,-3.69904,0.03820138,0.7582
488.963,55.2613,-3.70034,0.03875067,0.7577
489.563,55.3193,-3.70168,0.03716943,0.7572
490.163,55.3773,-3.70274,0.03834965,0.75671
490.763,55.43505,-3.70464,0.03746562,0.75621
491.363,55.4931,-3.70438,0.03788026,0.75571
491.963,55.5512,-3.70537,0.03612075,0.75522
492.563,55.6093,-3.70692,0.03719797,0.75472
493.163,55.6676,-3.7077,0.03684758,0.75423
493.763,55.72583,-3.70825,0.03860533,0.75373
494.363,55.78406,-3.70957,0.03667867,0.75324
494.963,55.8422,-3.71088,0.03715892,0.75274
495.563,55.9003,-3.71221,0.0392274,0.75225
496.163,55.95839,-3.71345,0.03825253,0.75175
496.763,56.0165,-3.71221,0.03747801,0.75126
497.363,56.0748,-3.7122,0.03447849,0.75076
497.963,56.13321,-3.71367,0.03325253,0.75027
498.563,56.19152,-3.71485,0.03561805,0.74978
499.163,56.24986,-3.71616,0.03766812,0.74928
499.763,56.30795,-3.71649,0.03719103,0.74879
500.363,56.3661,-3.71648,0.0415439,0.7483
500.963,56.4244,-3.71781,0.0417965,0.74781
501.563,56.4825,-3.71913,0.04175638,0.74732
502.163,56.54075,-3.71984,0.04297507,0.74682
502.763,56.59901,-3.72039,0.04689924,0.74633
503.363,56.65746,-3.72176,0.04358732,0.74584
503.963,56.71572,-3.72176,0.03963199,0.74535
504.563,56.77403,-3.72176,0.04223422,0.74486
505.163,56.83251,-3.72176,0.04284932,0.74437
505.763,56.89096,-3.72045,0.04263705,0.74388
506.363,56.94927,-3.72045,0.04478615,0.74339
506.963,57.00764,-3.72238,0.04381563,0.7429
507.563,57.06598,-3.72439,0.04447172,0.74241
508.163,57.12435,-3.72439,0.04152748,0.74192
508.763,57.1828,-3.72439,0.04431197,0.74144
509.363,57.2412,-3.72437,0.04564218,0.74095
509.963,57.2996,-3.72506,0.04439176,0.74046
510.563,57.3578,-3.72636,0.04536466,0.73997
511.163,57.4162,-3.72636,0.04656926,0.73948
511.763,57.4746,-3.72636,0.04758267,0.739
512.363,57.5332,-3.72636,0.04621054,0.73851
512.963,57.59175,-3.72769,0.04986121,0.73802
513.563,57.6504,-3.72768,0.05084544,0.73754
514.163,57.709,-3.72899,0.05241684,0.73705
514.763,57.7676,-3.72945,0.0495217,0.73657
515.363,57.8259,-3.73028,0.05005258,0.73608
515.963,57.88425,-3.72899,0.04941635,0.7356
516.563,57.94274,-3.72899,0.05105365,0.73511
517.163,58.0013,-3.73031,0.05012356,0.73463
517.763,58.06001,-3.73064,0.04964776,0.73415
518.363,58.1184,-3.73163,0.04846227,0.73366
518.963,58.1769,-3.73163,0.04867731,0.73318
519.563,58.2355,-3.73163,0.04853125,0.7327
520.163,58.294,-3.73299,0.04846133,0.73221
520.763,58.3527,-3.73294,0.04704934,0.73173
521.363,58.4111,-3.73294,0.04712266,0.73125
521.963,58.4695,-3.73296,0.0471634,0.73077
522.563,58.52769,-3.73361,0.05005281,0.73029
523.163,58.5863,-3.73492,0.04822618,0.72981
523.763,58.64495,-3.73497,0.04872429,0.72932
524.363,58.7037,-3.73361,0.04805228,0.72884
524.963,58.76255,-3.73361,0.05019667,0.72836
525.563,58.82121,-3.73361,0.04885888,0.72788
526.163,58.8799,-3.73361,0.05207564,0.72741
526.763,58.93861,-3.73361,0.04905508,0.72693
527.363,58.9972,-3.73224,0.0518729,0.72645
527.963,59.05588,-3.73229,0.05162611,0.72597
528.563,59.11467,-3.73363,0.05440804,0.72549
529.163,59.17344,-3.73492,0.05262539,0.72501
529.763,59.2323,-3.73492,0.05332073,0.72454
530.363,59.291,-3.73425,0.05432268,0.72406
530.963,59.35001,-3.73558,0.05160795,0.72358
531.563,59.40883,-3.73558,0.05222566,0.72311
532.163,59.4676,-3.73555,0.0535231,0.72263
532.763,59.5265,-3.73658,0.05439131,0.72216
533.363,59.58529,-3.73584,0.05546027,0.72168
533.963,59.64416,-3.73591,0.05520465,0.72121
534.563,59.7031,-3.73623,0.05472843,0.72073
535.163,59.762,-3.73756,0.05369338,0.72026
535.763,59.82088,-3.73854,0.05582769,0.71978
536.363,59.8795,-3.73916,0.05540073,0.71931
536.963,59.93826,-3.73986,0.0567925,0.71884
537.563,59.9971,-3.73986,0.05741415,0.71836
538.163,60.05591,-3.73894,0.05949905,0.71789
538.763,60.1149,-3.73887,0.05778836,0.71742
539.363,60.17386,-3.73887,0.05724019,0.71695
539.963,60.2326,-3.74016,0.05594984,0.71648
540.563,60.2912,-3.74018,0.05493538,0.71601
541.163,60.34969,-3.74048,0.05197139,0.71554
541.763,60.40829,-3.7415,0.05697468,0.71507
542.363,60.4671,-3.7415,0.05588375,0.7146
542.963,60.5262,-3.7415,0.05523504,0.71413
543.563,60.58523,-3.74153,0.05345674,0.71366
544.163,60.6441,-3.74117,0.05669557,0.71319
544.763,60.7029,-3.74117,0.05553604,0.71272
545.363,60.7615,-3.73987,0.05229858,0.71225
545.963,60.8203,-3.74119,0.05395015,0.71179
546.563,60.87924,-3.7434,0.05379805,0.71132
547.163,60.9381,-3.7438,0.05409916,0.71085
547.763,60.99717,-3.74296,0.05471134,0.71039
548.363,61.05614,-3.74281,0.05282348,0.70992
548.963,61.1152,-3.74281,0.05363205,0.70945
549.563,61.17431,-3.7432,0.05540306,0.70899
550.163,61.23319,-3.74347,0.05355661,0.70852
550.763,61.29205,-3.74483,0.05359435,0.70806
551.363,61.3509,-3.74479,0.05346664,0.7076
551.963,61.40973,-3.74479,0.05334222,0.70713
552.563,61.46869,-3.74479,0.05202877,0.70667
553.163,61.52774,-3.7461,0.05645953,0.70621
553.763,61.5869,-3.74748,0.0562003,0.70574
554.363,61.6462,-3.74742,0.05721234,0.70528
554.963,61.7053,-3.74742,0.05797908,0.70482
555.563,61.76435,-3.74742,0.05585795,0.70436
556.163,61.82346,-3.74741,0.05733261,0.7039
556.763,61.8825,-3.74842,0.06249805,0.70344
557.363,61.9417,-3.74877,0.06693359,0.70298
557.963,62.0009,-3.74876,0.06840076,0.70252
558.563,62.0601,-3.75005,0.07024413,0.70206
559.163,62.1194,-3.75005,0.07283316,0.7016
559.763,62.1786,-3.75005,0.07340147,0.70114
560.363,62.23769,-3.75005,0.07075233,0.70068
560.963,62.29681,-3.74995,0.07129405,0.70022
561.563,62.3561,-3.75104,0.07177518,0.69977
562.163,62.41535,-3.75104,0.07096331,0.69931
562.763,62.47461,-3.75101,0.06609517,0.69885
563.363,62.53376,-3.75124,0.06054141,0.6984
563.963,62.59295,-3.75203,0.05610716,0.69794
564.563,62.65201,-3.75203,0.05532326,0.69748
565.163,62.7111,-3.75203,0.05447239,0.69703
565.763,62.77012,-3.75104,0.05335093,0.69658
566.363,62.82909,-3.75104,0.05194699,0.69612
566.963,62.88833,-3.75156,0.04969962,0.69567
567.563,62.94755,-3.75231,0.04540182,0.69521
568.163,63.0068,-3.75367,0.04464917,0.69476
568.763,63.06605,-3.75363,0.04469023,0.69431
569.363,63.12523,-3.75368,0.04520032,0.69386
569.963,63.18453,-3.75508,0.04483984,0.69341
570.563,63.2437,-3.75499,0.04752752,0.69295
571.163,63.3029,-3.75499,0.04900721,0.6925
571.763,63.36221,-3.75564,0.04690917,0.69205
572.363,63.4214,-3.75565,0.04778516,0.6916
572.963,63.4808,-3.75565,0.04797297,0.69115
573.563,63.53994,-3.75565,0.04940463,0.6907
574.163,63.5992,-3.75499,0.05105705,0.69026
574.763,63.6584,-3.75601,0.04815739,0.68981
575.363,63.7177,-3.75598,0.04865092,0.68936
575.963,63.77695,-3.75598,0.04888348,0.68891
576.563,63.8361,-3.75598,0.04721771,0.68847
577.163,63.8952,-3.75581,0.04981248,0.68802
577.763,63.9541,-3.7563,0.04910157,0.68757
578.363,64.0133,-3.75631,0.04997823,0.68713
578.963,64.0726,-3.75631,0.05360407,0.68668
579.563,64.13185,-3.75631,0.0515989,0.68624
580.163,64.19116,-3.75701,0.05313776,0.68579
580.763,64.2504,-3.75828,0.04979842,0.68535
581.363,64.30966,-3.75861,0.04982927,0.68491
581.963,64.36891,-3.75861,0.04607884,0.68446
582.563,64.42818,-3.7586,0.04573792,0.68402
583.163,64.48739,-3.75992,0.04454391,0.68358
583.763,64.54665,-3.76057,0.04803083,0.68314
584.363,64.606,-3.76058,0.04772567,0.68269
584.963,64.66548,-3.76061,0.0508945,0.68225
585.563,64.72506,-3.7619,0.05040312,0.68181
586.163,64.78445,-3.76161,0.05185172,0.68137
586.763,64.84391,-3.76124,0.05286997,0.68093
587.363,64.9033,-3.76264,0.05485384,0.68049
587.963,64.96268,-3.76335,0.0532059,0.68006
588.563,65.02206,-3.76198,0.05171803,0.67962
589.163,65.08156,-3.76266,0.05491788,0.67918
589.763,65.14102,-3.76398,0.05336839,0.67874
590.363,65.2006,-3.7653,0.05131724,0.6783
590.963,65.2603,-3.76266,0.05006109,0.67787
591.563,65.31994,-3.76266,0.0495885,0.67743
592.163,65.37947,-3.76266,0.04960816,0.677
592.763,65.43897,-3.76356,0.04915262,0.67656
593.363,65.4985,-3.76391,0.05090038,0.67613
593.963,65.55795,-3.7666,0.04718675,0.67569
594.563,65.61759,-3.76661,0.04829899,0.67526
595.163,65.67718,-3.76682,0.04661885,0.67483
595.763,65.73683,-3.76727,0.04918398,0.67439
596.363,65.79645,-3.76727,0.04883401,0.67396
596.963,65.85596,-3.76727,0.04940529,0.67353
597.563,65.9153,-3.76727,0.04538571,0.6731
598.163,65.97474,-3.76727,0.04668266,0.67267
598.763,66.0342,-3.76794,0.0440253,0.67224
599.363,66.09384,-3.76821,0.04670879,0.67181
599.963,66.15337,-3.76789,0.04691119,0.67138
600.563,66.21298,-3.76859,0.04315738,0.67095
601.163,66.27257,-3.76859,0.04495014,0.67052
601.763,66.3321,-3.76859,0.04310196,0.67009
602.363,66.39164,-3.76859,0.04490844,0.66966
602.963,66.4511,-3.76859,0.046383,0.66923
603.563,66.5107,-3.76858,0.04692327,0.66881
604.163,66.5705,-3.76925,0.04460848,0.66838
604.763,66.62994,-3.76925,0.04546442,0.66795
605.363,66.68964,-3.76925,0.04363572,0.66753
605.963,66.7492,-3.76925,0.04386687,0.6671
606.563,66.8087,-3.77059,0.04506653,0.66668
607.163,66.86839,-3.77057,0.0445117,0.66626
607.763,66.92814,-3.77057,0.04380677,0.66583
608.363,66.98772,-3.77134,0.04559681,0.66541
608.963,67.0473,-3.77188,0.04806685,0.66499
609.563,67.10676,-3.77188,0.04901468,0.66456
610.163,67.16623,-3.77196,0.05256757,0.66414
610.763,67.22582,-3.77419,0.05499853,0.66372
611.363,67.28556,-3.77427,0.05822017,0.6633
611.963,67.34552,-3.77551,0.05758581,0.66288
612.563,67.40534,-3.77557,0.05748392,0.66246
613.163,67.46522,-3.7758,0.06077647,0.66204
613.763,67.52496,-3.77419,0.05960347,0.66162
614.363,67.58479,-3.77286,0.06032873,0.6612
614.963,67.64453,-3.77287,0.06050679,0.66078
615.563,67.70435,-3.77281,0.06541719,0.66037
616.163,67.76414,-3.77353,0.06134476,0.65995
616.763,67.82404,-3.77485,0.06061685,0.65953
617.363,67.88391,-3.77485,0.06121361,0.65912
617.963,67.94376,-3.77353,0.06237642,0.6587
618.563,68.0036,-3.774,0.061881,0.65829
619.163,68.06354,-3.77485,0.0609452,0.65787
619.763,68.12343,-3.77621,0.06255241,0.65746
620.363,68.18342,-3.77614,0.06299251,0.65704
620.963,68.2433,-3.77485,0.06335835,0.65663
621.563,68.30319,-3.77481,0.06290255,0.65622
622.163,68.36307,-3.77647,0.06030955,0.6558
622.763,68.42286,-3.77715,0.06069406,0.65539
623.363,68.48272,-3.77715,0.0630836,0.65498
623.963,68.54254,-3.77772,0.06319453,0.65457
624.563,68.60243,-3.77846,0.06154299,0.65416
625.163,68.66225,-3.77846,0.06202866,0.65375
625.763,68.7222,-3.77846,0.06262,0.65334
626.363,68.78214,-3.77748,0.05942974,0.65293
626.963,68.8421,-3.77748,0.06058145,0.65252
627.563,68.90228,-3.77748,0.05956387,0.65212
628.163,68.96228,-3.77748,0.05857923,0.65171
628.763,69.02224,-3.77748,0.05792579,0.6513
629.363,69.0822,-3.77764,0.05779372,0.65089
629.963,69.14215,-3.7788,0.05731919,0.65049
630.563,69.2021,-3.77848,0.0553394,0.65008
631.163,69.262,-3.77847,0.05562144,0.64968
631.763,69.3219,-3.77977,0.05417345,0.64927
632.363,69.38186,-3.77847,0.05546011,0.64887
632.963,69.4418,-3.77846,0.05760993,0.64847
633.563,69.50171,-3.77846,0.05774459,0.64806
634.163,69.56145,-3.77846,0.05622898,0.64766
634.763,69.62136,-3.77846,0.05667098,0.64726
635.363,69.68138,-3.77944,0.05650888,0.64686
635.963,69.74152,-3.77945,0.05747375,0.64645
636.563,69.80161,-3.77815,0.05965495,0.64605
637.163,69.86171,-3.77945,0.05850579,0.64565
637.763,69.9216,-3.77943,0.05921085,0.64525
638.363,69.98151,-3.78011,0.05961292,0.64485
638.463,69.99181,-3.78011,0.06007529,0.64479