File: 01_Data/PET/STA/N2/10K_min/PET_STA_N2_10KData_210831_R3.csv
##Temp./Â°C,Time/min,Mass loss(subtr.2)/mg,DSC(subtr.2)/(mW/mg),Sensit./(uV/mW)
49.199,10.01,-0.02566,0.0266212,1.03587
49.799,11.39824,-0.0280022,0.04578366,1.03584
50.399,11.77913,-0.02767579,0.05890859,1.03582
50.999,12.0482,-0.02780196,0.0713499,1.03578
51.599,12.27065,-0.02885372,0.08029686,1.03575
52.199,12.46529,-0.02964328,0.09119223,1.03572
52.799,12.63972,-0.02829862,0.09708647,1.03568
53.399,12.79921,-0.02892408,0.10378,1.03565
53.999,12.94863,-0.03063001,0.11032,1.03561
54.599,13.0906,-0.02956125,0.11401,1.03557
55.199,13.22654,-0.03094011,0.11863,1.03553
55.799,13.3562,-0.03070967,0.12239,1.03549
56.399,13.4814,-0.02945031,0.12475,1.03544
56.999,13.6035,-0.03021242,0.1312,1.0354
57.599,13.7216,-0.03200019,0.13336,1.03535
58.199,13.83513,-0.03188394,0.13698,1.0353
58.799,13.9466,-0.03071332,0.13979,1.03525
59.399,14.0554,-0.03172738,0.14217,1.0352
59.999,14.16208,-0.03154096,0.14633,1.03514
60.599,14.2668,-0.03222536,0.14927,1.03509
61.199,14.36854,-0.0307797,0.15121,1.03503
61.799,14.46827,-0.03168939,0.15399,1.03497
62.399,14.56661,-0.03172957,0.15875,1.03491
62.999,14.6635,-0.03202707,0.16151,1.03485
63.599,14.7592,-0.03191888,0.16609,1.03479
64.199,14.853,-0.03179875,0.16943,1.03472
64.799,14.9452,-0.03177967,0.17159,1.03466
65.399,15.03592,-0.03167835,0.17382,1.03459
65.999,15.12466,-0.03220544,0.17704,1.03452
66.599,15.21168,-0.03180817,0.17961,1.03445
67.199,15.29941,-0.03162037,0.18235,1.03438
67.799,15.38691,-0.02697273,0.1855,1.03431
68.399,15.4723,-0.02663609,0.18913,1.03423
68.999,15.55666,-0.0251015,0.19236,1.03415
69.599,15.6397,-0.02918281,0.19413,1.03408
70.199,15.72199,-0.0304937,0.19573,1.034
70.799,15.8034,-0.03177569,0.19816,1.03392
71.399,15.8842,-0.03321559,0.19801,1.03383
71.999,15.9647,-0.03314064,0.20094,1.03375
72.599,16.04409,-0.03310781,0.20139,1.03366
73.199,16.123,-0.03457146,0.2018,1.03358
73.799,16.2007,-0.03426013,0.20313,1.03349
74.399,16.27767,-0.03446691,0.20257,1.0334
74.999,16.3538,-0.03461835,0.20302,1.03331
75.599,16.42977,-0.03566771,0.2035,1.03321
76.199,16.50519,-0.03460784,0.20676,1.03312
76.799,16.58015,-0.03465017,0.20893,1.03302
77.399,16.65417,-0.03333178,0.21387,1.03293
77.999,16.72803,-0.03334357,0.21614,1.03283
78.599,16.8015,-0.03334027,0.21934,1.03273
79.199,16.87441,-0.03465215,0.22361,1.03262
79.799,16.94687,-0.03473597,0.22968,1.03252
80.399,17.01829,-0.03465812,0.23568,1.03242
80.999,17.08986,-0.03465905,0.24165,1.03231
81.599,17.1605,-0.03466295,0.24474,1.0322
82.199,17.23154,-0.03466066,0.24848,1.03209
82.799,17.30177,-0.03473616,0.25264,1.03198
83.399,17.37184,-0.03478852,0.25355,1.03187
83.999,17.44116,-0.03347051,0.25605,1.03176
84.599,17.5102,-0.03344695,0.2577,1.03164
85.199,17.57899,-0.03370208,0.26006,1.03152
85.799,17.6473,-0.03476992,0.26168,1.03141
86.399,17.71546,-0.03476683,0.26262,1.03129
86.999,17.78279,-0.03433111,0.26509,1.03117
87.599,17.84989,-0.03344936,0.26693,1.03104
88.199,17.91657,-0.03345316,0.2681,1.03092
88.799,17.98304,-0.03385884,0.26899,1.03079
89.399,18.04924,-0.03476958,0.27229,1.03067
89.999,18.11485,-0.03475269,0.27185,1.03054
90.599,18.1804,-0.03478128,0.27499,1.03041
91.199,18.24558,-0.03468147,0.27657,1.03028
91.799,18.31064,-0.03482095,0.27703,1.03015
92.399,18.3756,-0.03485522,0.27983,1.03001
92.999,18.44033,-0.03476744,0.27954,1.02988
93.599,18.50488,-0.03467991,0.28093,1.02974
94.199,18.56888,-0.03471634,0.2823,1.0296
94.799,18.6328,-0.0347113,0.28249,1.02946
95.399,18.69642,-0.0361825,0.28647,1.02932
95.999,18.76008,-0.03543316,0.28616,1.02918
96.599,18.82343,-0.03494932,0.28681,1.02904
97.199,18.88663,-0.03431911,0.28653,1.02889
97.799,18.94965,-0.03476628,0.29002,1.02874
98.399,19.01238,-0.03492702,0.2919,1.0286
98.999,19.07462,-0.03573068,0.29331,1.02845
99.599,19.1369,-0.03570208,0.29434,1.0283
100.199,19.19894,-0.03607908,0.29458,1.02814
100.799,19.26129,-0.03477115,0.29668,1.02799
101.399,19.32326,-0.03542901,0.29615,1.02784
101.999,19.385,-0.03680894,0.29816,1.02768
102.599,19.44649,-0.03762024,0.29975,1.02752
103.199,19.50777,-0.03762583,0.29989,1.02736
103.799,19.5691,-0.0363004,0.30035,1.0272
104.399,19.63051,-0.03631211,0.30232,1.02704
104.999,19.69153,-0.03626806,0.30249,1.02688
105.599,19.75239,-0.03629839,0.30301,1.02671
106.199,19.81295,-0.03641616,0.30507,1.02655
106.799,19.8734,-0.03771596,0.30652,1.02638
107.399,19.93372,-0.03762003,0.30653,1.02621
107.999,19.9942,-0.03757394,0.30931,1.02604
108.599,20.05452,-0.03767652,0.30942,1.02587
109.199,20.11476,-0.03673715,0.30952,1.0257
109.799,20.1749,-0.03758628,0.31104,1.02552
110.399,20.235,-0.03629904,0.3137,1.02535
110.999,20.29489,-0.03755084,0.31329,1.02517
111.599,20.3548,-0.03841406,0.3124,1.02499
112.199,20.41456,-0.0377035,0.31407,1.02481
112.799,20.4741,-0.03629453,0.31732,1.02463
113.399,20.53375,-0.03760717,0.31849,1.02445
113.999,20.59318,-0.03775679,0.31864,1.02426
114.599,20.65241,-0.03783999,0.32009,1.02408
115.199,20.71163,-0.03735714,0.32082,1.02389
115.799,20.77093,-0.03652002,0.32234,1.02371
116.399,20.83036,-0.03721031,0.32275,1.02352
116.999,20.88926,-0.03693512,0.32271,1.02333
117.599,20.94803,-0.03734371,0.32548,1.02313
118.199,21.00675,-0.03718026,0.32609,1.02294
118.799,21.06537,-0.03643517,0.32624,1.02275
119.399,21.12418,-0.03651694,0.3264,1.02255
119.999,21.18272,-0.03781658,0.32723,1.02235
120.599,21.24126,-0.03648927,0.32843,1.02216
121.199,21.29966,-0.03715263,0.33041,1.02196
121.799,21.35805,-0.03652082,0.32952,1.02176
122.399,21.4162,-0.0366255,0.3317,1.02155
122.999,21.4742,-0.03642412,0.331,1.02135
123.599,21.53194,-0.03652509,0.33266,1.02115
124.199,21.58982,-0.03783029,0.33369,1.02094
124.799,21.64755,-0.03652047,0.33365,1.02073
125.399,21.70512,-0.03777736,0.3342,1.02052
125.999,21.76299,-0.03759611,0.3353,1.02031
126.599,21.8205,-0.03783254,0.33579,1.0201
127.199,21.878,-0.03791715,0.33738,1.01989
127.799,21.9354,-0.03652997,0.33811,1.01968
128.399,21.9925,-0.03507218,0.34116,1.01946
128.999,22.04961,-0.03652004,0.34252,1.01924
129.599,22.10635,-0.03652007,0.34247,1.01903
130.199,22.16327,-0.03667129,0.34334,1.01881
130.799,22.2201,-0.03783421,0.34347,1.01859
131.399,22.27694,-0.03786173,0.34447,1.01837
131.999,22.33364,-0.03782929,0.34567,1.01814
132.599,22.39029,-0.03650904,0.34805,1.01792
133.199,22.44706,-0.03784213,0.34722,1.01769
133.799,22.5034,-0.03754978,0.3502,1.01747
134.399,22.55997,-0.03652,0.3497,1.01724
134.999,22.6163,-0.03642423,0.35142,1.01701
135.599,22.67249,-0.03782699,0.35085,1.01678
136.199,22.72898,-0.03652012,0.35149,1.01655
136.799,22.78511,-0.03780679,0.35376,1.01632
137.399,22.8411,-0.03782632,0.35338,1.01608
137.999,22.89715,-0.03668568,0.35355,1.01585
138.599,22.95279,-0.03784671,0.3551,1.01561
139.199,23.00854,-0.03790318,0.35746,1.01537
139.799,23.06431,-0.03652017,0.35793,1.01513
140.399,23.12,-0.03651959,0.35866,1.01489
140.999,23.176,-0.03685708,0.3598,1.01465
141.599,23.23171,-0.03685,0.35989,1.01441
142.199,23.2874,-0.03684949,0.35977,1.01417
142.799,23.34285,-0.03806202,0.35994,1.01392
143.399,23.39848,-0.03663706,0.36006,1.01367
143.999,23.4539,-0.03784932,0.36094,1.01343
144.599,23.5091,-0.03651884,0.36327,1.01318
145.199,23.56418,-0.03687876,0.36215,1.01293
145.799,23.6192,-0.03816084,0.36287,1.01268
146.399,23.67417,-0.03915487,0.36359,1.01242
146.999,23.7291,-0.03817452,0.366,1.01217
147.599,23.784,-0.03816999,0.36654,1.01192
148.199,23.83894,-0.03817719,0.36789,1.01166
148.799,23.89402,-0.0394938,0.36764,1.0114
149.399,23.94892,-0.03948264,0.36844,1.01114
149.999,24.00346,-0.03816628,0.36945,1.01088
150.599,24.05779,-0.03816999,0.37072,1.01062
151.199,24.11265,-0.03815491,0.37167,1.01036
151.799,24.16761,-0.03719914,0.37143,1.0101
152.399,24.223,-0.03816731,0.37476,1.00983
152.999,24.27828,-0.0383125,0.37432,1.00957
153.599,24.33301,-0.03815432,0.37635,1.0093
154.199,24.38772,-0.03685079,0.376,1.00903
154.799,24.44229,-0.03680548,0.37737,1.00877
155.399,24.49686,-0.03816026,0.37846,1.0085
155.999,24.55153,-0.03816,0.37874,1.00822
156.599,24.60625,-0.03816013,0.38066,1.00795
157.199,24.66077,-0.03820811,0.38192,1.00768
157.799,24.7153,-0.03818208,0.38114,1.0074
158.399,24.76975,-0.03816999,0.38131,1.00713
158.999,24.824,-0.03811062,0.38285,1.00685
159.599,24.8785,-0.03784426,0.38274,1.00657
160.199,24.93303,-0.03792993,0.38319,1.00629
160.799,24.98786,-0.03816391,0.38448,1.00601
161.399,25.0424,-0.03946258,0.38438,1.00573
161.999,25.0968,-0.03816121,0.38722,1.00545
162.599,25.1512,-0.03816586,0.38605,1.00516
163.199,25.2055,-0.03947843,0.38505,1.00488
163.799,25.25995,-0.03948012,0.38705,1.00459
164.399,25.31439,-0.03819079,0.38813,1.0043
164.999,25.36883,-0.03816244,0.38728,1.00402
165.599,25.42333,-0.03816999,0.38772,1.00373
166.199,25.4776,-0.0381712,0.38758,1.00344
166.799,25.53182,-0.03881569,0.38916,1.00314
167.399,25.58604,-0.03883004,0.39158,1.00285
167.999,25.64036,-0.03883271,0.39133,1.00256
168.599,25.69463,-0.03882364,0.39076,1.00226
169.199,25.7489,-0.03882362,0.39167,1.00197
169.799,25.80326,-0.03751197,0.39131,1.00167
170.399,25.85752,-0.03750987,0.3923,1.00137
170.999,25.91189,-0.03735793,0.39429,1.00107
171.599,25.96625,-0.03651904,0.39282,1.00077
172.199,26.02036,-0.03753024,0.39393,1.00047
172.799,26.07435,-0.03620366,0.39406,1.00017
173.399,26.12855,-0.03619004,0.39527,0.99986
173.999,26.18253,-0.03629945,0.39549,0.99956
174.599,26.2366,-0.03749934,0.39618,0.99925
175.199,26.29073,-0.03749978,0.39566,0.99894
175.799,26.34463,-0.03617953,0.3957,0.99864
176.399,26.39889,-0.03751009,0.39794,0.99833
176.999,26.453,-0.03749306,0.39728,0.99802
177.599,26.50705,-0.03471101,0.39668,0.99771
178.199,26.561,-0.03617844,0.39778,0.99739
178.799,26.6148,-0.03552523,0.40011,0.99708
179.399,26.66869,-0.03549891,0.40098,0.99676
179.999,26.72267,-0.03684906,0.39986,0.99645
180.599,26.77654,-0.03685699,0.3994,0.99613
181.199,26.83046,-0.03553045,0.39974,0.99581
181.799,26.8843,-0.03548602,0.4018,0.9955
182.399,26.93807,-0.0368514,0.40043,0.99518
182.999,26.99173,-0.03685062,0.4025,0.99486
183.599,27.0453,-0.0381003,0.40348,0.99453
184.199,27.0989,-0.03816001,0.40138,0.99421
184.799,27.1526,-0.0381619,0.40225,0.99389
185.399,27.2063,-0.03681065,0.40392,0.99356
185.999,27.26,-0.03816755,0.40313,0.99324
186.599,27.31353,-0.03679769,0.40533,0.99291
187.199,27.3672,-0.03685004,0.40549,0.99258
187.799,27.4209,-0.03685001,0.40461,0.99225
188.399,27.4744,-0.03682787,0.40548,0.99192
188.999,27.528,-0.03751612,0.40365,0.99159
189.599,27.58137,-0.0365428,0.40646,0.99126
190.199,27.63472,-0.03651994,0.4065,0.99093
190.799,27.68832,-0.03652688,0.40696,0.99059
191.399,27.74189,-0.03684945,0.40621,0.99026
191.999,27.79552,-0.03694599,0.40753,0.98992
192.599,27.8492,-0.03684368,0.40664,0.98958
193.199,27.9028,-0.03684972,0.40934,0.98925
193.799,27.9563,-0.03824244,0.41025,0.98891
194.399,28.0098,-0.03817003,0.40764,0.98857
194.999,28.0633,-0.03744122,0.4124,0.98823
195.599,28.11679,-0.03820545,0.40946,0.98788
196.199,28.1702,-0.03816,0.41012,0.98754
196.799,28.2236,-0.0381649,0.41122,0.9872
197.399,28.2771,-0.03684549,0.41176,0.98685
197.999,28.33062,-0.03685,0.41192,0.98651
198.599,28.3843,-0.03685159,0.41182,0.98616
199.199,28.438,-0.03815739,0.41265,0.98581
199.799,28.49157,-0.03816999,0.41332,0.98546
200.399,28.5449,-0.03816523,0.41309,0.98511
200.999,28.5983,-0.03882383,0.41223,0.98476
201.599,28.6517,-0.03882967,0.41281,0.98441
202.199,28.705,-0.03777029,0.41203,0.98406
202.799,28.75853,-0.03750655,0.4125,0.9837
203.399,28.812,-0.03817413,0.41333,0.98335
203.999,28.86536,-0.03816999,0.41381,0.98299
204.599,28.91885,-0.03817206,0.414,0.98264
205.199,28.97226,-0.03687166,0.41434,0.98228
205.799,29.02567,-0.03696143,0.41348,0.98192
206.399,29.0792,-0.03652173,0.41501,0.98156
206.999,29.1327,-0.03652003,0.41366,0.9812
207.599,29.1863,-0.03648845,0.41482,0.98084
208.199,29.2397,-0.03540133,0.41402,0.98048
208.799,29.29308,-0.03849769,0.41391,0.98012
209.399,29.3467,-0.0385,0.41594,0.97975
209.999,29.40028,-0.0385,0.41446,0.97939
210.599,29.4538,-0.03850537,0.4147,0.97902
211.199,29.5074,-0.03717174,0.4165,0.97866
211.799,29.5608,-0.0378422,0.41489,0.97829
212.399,29.61425,-0.03855937,0.41713,0.97792
212.999,29.66784,-0.03848996,0.41698,0.97755
213.599,29.72125,-0.03849013,0.41906,0.97718
214.199,29.77467,-0.03708602,0.41766,0.97681
214.799,29.8281,-0.0385352,0.4174,0.97644
215.399,29.8818,-0.03850003,0.42081,0.97606
215.999,29.93549,-0.03849904,0.41864,0.97569
216.599,29.9891,-0.03721136,0.42022,0.97532
217.199,30.0427,-0.03716082,0.41754,0.97494
217.799,30.09618,-0.03750949,0.42046,0.97456
218.399,30.14967,-0.03750998,0.42014,0.97419
218.999,30.2033,-0.03609375,0.42103,0.97381
219.599,30.25672,-0.03631179,0.41913,0.97343
220.199,30.31025,-0.03620008,0.42075,0.97305
220.799,30.36389,-0.0362,0.42008,0.97267
221.399,30.41733,-0.03620001,0.42074,0.97229
221.999,30.47092,-0.03620228,0.42108,0.97191
222.599,30.52455,-0.03749635,0.42208,0.97152
223.199,30.578,-0.03751001,0.42198,0.97114
223.799,30.63167,-0.03751217,0.4212,0.97075
224.399,30.6852,-0.03618369,0.42275,0.97037
224.999,30.7388,-0.03619,0.42457,0.96998
225.599,30.7926,-0.03619,0.42256,0.96959
226.199,30.8462,-0.03618999,0.42393,0.96921
226.799,30.89988,-0.03619031,0.42336,0.96882
227.399,30.9537,-0.03520405,0.4235,0.96843
227.999,31.00739,-0.0359321,0.42541,0.96804
228.599,31.0611,-0.03652002,0.4256,0.96764
229.199,31.11478,-0.03651956,0.42434,0.96725
229.799,31.1682,-0.03787484,0.42613,0.96686
230.399,31.2219,-0.03750802,0.42667,0.96646
230.999,31.2756,-0.03751,0.42646,0.96607
231.599,31.3294,-0.03750996,0.42698,0.96567
232.199,31.3831,-0.03726193,0.42863,0.96528
232.799,31.43651,-0.03620144,0.42915,0.96488
233.399,31.48992,-0.03685095,0.42754,0.96448
233.999,31.54335,-0.03684978,0.42738,0.96408
234.599,31.59695,-0.03732919,0.42894,0.96368
235.199,31.6508,-0.03750997,0.42817,0.96328
235.799,31.7046,-0.03745457,0.43032,0.96288
236.399,31.75845,-0.03619992,0.42752,0.96248
236.999,31.81198,-0.03751228,0.42949,0.96208
237.599,31.86559,-0.03623754,0.42765,0.96167
238.199,31.91915,-0.03609806,0.42802,0.96127
238.799,31.9726,-0.03652376,0.43101,0.96086
239.399,32.02633,-0.03519494,0.42891,0.96046
239.999,32.08012,-0.0352,0.42893,0.96005
240.599,32.13389,-0.0352,0.43045,0.95964
241.199,32.1877,-0.03520313,0.42981,0.95924
241.799,32.24151,-0.03437095,0.42984,0.95883
242.399,32.29522,-0.03521044,0.43181,0.95842
242.999,32.34895,-0.03521,0.43041,0.95801
243.599,32.40273,-0.03520998,0.43095,0.95759
244.199,32.45625,-0.03523643,0.43374,0.95718
244.799,32.51001,-0.0352002,0.43272,0.95677
245.399,32.56375,-0.03552329,0.43276,0.95636
245.999,32.61752,-0.03650742,0.43353,0.95594
246.599,32.67158,-0.0351974,0.43238,0.95553
247.199,32.72537,-0.0352,0.43312,0.95511
247.799,32.77906,-0.0352,0.4334,0.95469
248.399,32.8328,-0.03522219,0.43309,0.95428
248.999,32.88663,-0.03661301,0.43469,0.95386
249.599,32.94044,-0.03521004,0.4344,0.95344
250.199,32.99439,-0.03509917,0.43504,0.95302
250.799,33.04823,-0.03455017,0.43296,0.9526
251.399,33.10198,-0.03454997,0.43452,0.95218
251.999,33.15586,-0.03460235,0.43505,0.95176
252.599,33.20965,-0.03323503,0.43632,0.95134
253.199,33.26347,-0.03487097,0.43436,0.95091
253.799,33.31736,-0.03488001,0.43572,0.95049
254.399,33.37117,-0.03487999,0.43603,0.95007
254.999,33.42505,-0.03495457,0.4371,0.94964
255.599,33.479,-0.03486835,0.43486,0.94922
256.199,33.53268,-0.03487,0.43566,0.94879
256.799,33.5864,-0.03487,0.43728,0.94836
257.399,33.64,-0.03487,0.43733,0.94793
257.999,33.69383,-0.03487,0.43814,0.94751
258.599,33.7478,-0.03487,0.43783,0.94708
259.199,33.80178,-0.03487,0.43846,0.94665
259.799,33.85575,-0.03487,0.43846,0.94622
260.399,33.90957,-0.03487006,0.4383,0.94578
260.999,33.96348,-0.03393027,0.44002,0.94535
261.599,34.01757,-0.03347412,0.43785,0.94492
262.199,34.0717,-0.0348799,0.43961,0.94449
262.799,34.1258,-0.03488,0.43779,0.94405
263.399,34.1798,-0.03488,0.43932,0.94362
263.999,34.23366,-0.03488,0.43909,0.94318
264.599,34.28759,-0.03488,0.43878,0.94275
265.199,34.34156,-0.03488,0.43968,0.94231
265.799,34.39555,-0.03488,0.43887,0.94187
266.399,34.44952,-0.03487997,0.43847,0.94144
266.999,34.5036,-0.03456841,0.43974,0.941
267.599,34.55762,-0.03421114,0.43848,0.94056
268.199,34.61172,-0.03421999,0.44004,0.94012
268.799,34.66572,-0.03422,0.43973,0.93968
269.399,34.71979,-0.03422,0.43884,0.93924
269.999,34.77387,-0.03421998,0.44099,0.9388
270.599,34.8279,-0.03423342,0.44141,0.93835
271.199,34.88203,-0.03322896,0.44088,0.93791
271.799,34.93591,-0.03387471,0.43911,0.93747
272.399,34.98988,-0.03389011,0.44065,0.93702
272.999,35.0439,-0.03520695,0.43982,0.93658
273.599,35.0979,-0.03522962,0.44036,0.93613
274.199,35.15191,-0.03486985,0.43984,0.93569
274.799,35.20599,-0.03487,0.44005,0.93524
275.399,35.26016,-0.03487,0.44111,0.93479
275.999,35.3142,-0.03486999,0.43972,0.93435
276.599,35.3686,-0.03487232,0.4425,0.9339
277.199,35.42284,-0.03357337,0.44291,0.93345
277.799,35.4771,-0.03352663,0.44156,0.933
278.399,35.53143,-0.03419983,0.44278,0.93255
278.999,35.58546,-0.03554001,0.44207,0.9321
279.599,35.6397,-0.03422264,0.44162,0.93165
280.199,35.69389,-0.03487863,0.44367,0.9312
280.799,35.74795,-0.03488587,0.44424,0.93074
281.399,35.8022,-0.03373076,0.44304,0.93029
281.999,35.85649,-0.0348759,0.44366,0.92984
282.599,35.91069,-0.03356067,0.44308,0.92938
283.199,35.96487,-0.03355358,0.44335,0.92893
283.799,36.019,-0.03488106,0.44347,0.92847
284.399,36.0733,-0.03584051,0.44367,0.92802
284.999,36.12765,-0.03486837,0.44306,0.92756
285.599,36.18201,-0.03487302,0.44545,0.92711
286.199,36.23641,-0.03390058,0.44382,0.92665
286.799,36.29074,-0.03388,0.44403,0.92619
287.399,36.34506,-0.03388025,0.44382,0.92573
287.999,36.39955,-0.03326714,0.44486,0.92527
288.599,36.45386,-0.03260966,0.44392,0.92481
289.199,36.50817,-0.03387934,0.44253,0.92435
289.799,36.5625,-0.03388,0.44478,0.92389
290.399,36.617,-0.03388,0.44434,0.92343
290.999,36.67137,-0.03388,0.44593,0.92297
291.599,36.72595,-0.03387992,0.44643,0.92251
292.199,36.78031,-0.03422959,0.44444,0.92204
292.799,36.83482,-0.03487046,0.44561,0.92158
293.399,36.8893,-0.03456578,0.44609,0.92112
293.999,36.94392,-0.03357313,0.44638,0.92065
294.599,36.9985,-0.03322992,0.44595,0.92019
295.199,37.05299,-0.03323,0.44662,0.91972
295.799,37.10739,-0.03323,0.44723,0.91926
296.399,37.16174,-0.03323023,0.448,0.91879
296.999,37.21622,-0.03358775,0.44722,0.91832
297.599,37.27087,-0.03490316,0.44768,0.91786
298.199,37.3254,-0.03437247,0.44707,0.91739
298.799,37.37997,-0.03356002,0.44771,0.91692
299.399,37.43455,-0.03382759,0.44895,0.91645
299.999,37.48895,-0.03389,0.44854,0.91598
300.599,37.5435,-0.03389,0.44644,0.91551
301.199,37.59806,-0.03389,0.44704,0.91504
301.799,37.65251,-0.03389013,0.44737,0.91457
302.399,37.7072,-0.03345756,0.44863,0.9141
302.999,37.762,-0.03251579,0.44814,0.91363
303.599,37.81649,-0.03339821,0.44856,0.91316
304.199,37.87115,-0.03225754,0.44942,0.91268
304.799,37.92579,-0.03224998,0.44875,0.91221
305.399,37.98021,-0.03224998,0.44824,0.91174
305.999,38.03519,-0.03272836,0.44918,0.91126
306.599,38.08981,-0.03356,0.44911,0.91079
307.199,38.14445,-0.03356,0.44892,0.91031
307.799,38.1993,-0.03356,0.45014,0.90984
308.399,38.2538,-0.03356076,0.45039,0.90936
308.999,38.30875,-0.03482355,0.44934,0.90889
309.599,38.36354,-0.03486993,0.45256,0.90841
310.199,38.41822,-0.03486994,0.45034,0.90793
310.799,38.473,-0.03473478,0.4511,0.90746
311.399,38.5276,-0.03356047,0.44914,0.90698
311.999,38.58222,-0.03356,0.45222,0.9065
312.599,38.637,-0.03356,0.45067,0.90602
313.199,38.69178,-0.03356,0.4518,0.90554
313.799,38.7466,-0.03356373,0.45194,0.90506
314.399,38.80149,-0.03224859,0.45195,0.90458
314.999,38.8562,-0.03258192,0.45301,0.9041
315.599,38.91095,-0.03322935,0.45273,0.90362
316.199,38.96581,-0.03323,0.4549,0.90314
316.799,39.02067,-0.03323,0.45195,0.90266
317.399,39.07545,-0.03323,0.45232,0.90218
317.999,39.13029,-0.03323,0.45446,0.90169
318.599,39.18517,-0.03323,0.45468,0.90121
319.199,39.23988,-0.03323004,0.45413,0.90073
319.799,39.29448,-0.0321357,0.45454,0.90024
320.399,39.3489,-0.0316715,0.4551,0.89976
320.999,39.4035,-0.03091974,0.45531,0.89927
321.599,39.45854,-0.03091999,0.45338,0.89879
322.199,39.51345,-0.0308772,0.45428,0.8983
322.799,39.56875,-0.03191027,0.45467,0.89782
323.399,39.62375,-0.03189022,0.45596,0.89733
323.999,39.67881,-0.03257041,0.45648,0.89685
324.599,39.73388,-0.03257001,0.45716,0.89636
325.199,39.7887,-0.03256703,0.45719,0.89587
325.799,39.8437,-0.03323503,0.45572,0.89538
326.399,39.89863,-0.03323234,0.45815,0.8949
326.999,39.95363,-0.03192392,0.45774,0.89441
327.599,40.00873,-0.03190999,0.45783,0.89392
328.199,40.06374,-0.03190962,0.45998,0.89343
328.799,40.11898,-0.03324829,0.4582,0.89294
329.399,40.17407,-0.03355062,0.45799,0.89245
329.999,40.2292,-0.03296691,0.45928,0.89196
330.599,40.28427,-0.03223973,0.45696,0.89147
331.199,40.3393,-0.03224,0.45847,0.89098
331.799,40.39458,-0.03224,0.45666,0.89049
332.399,40.44956,-0.03223988,0.45882,0.89
332.999,40.50462,-0.03348285,0.45944,0.88951
333.599,40.5595,-0.03355247,0.46059,0.88901
334.199,40.6145,-0.03223951,0.46276,0.88852
334.799,40.6696,-0.03224,0.46227,0.88803
335.399,40.72462,-0.03224,0.46096,0.88754
335.999,40.7798,-0.03224,0.46318,0.88704
336.599,40.83488,-0.03224163,0.46249,0.88655
337.199,40.8899,-0.03355967,0.46331,0.88606
337.799,40.94514,-0.03355787,0.46504,0.88556
338.399,41.00019,-0.03180114,0.4632,0.88507
338.999,41.05547,-0.03067854,0.46232,0.88457
339.599,41.1106,-0.03405908,0.46586,0.88408
340.199,41.16583,-0.0349904,0.4644,0.88358
340.799,41.22105,-0.03499001,0.46669,0.88309
341.399,41.27623,-0.03497603,0.46893,0.88259
341.999,41.33153,-0.03365993,0.46771,0.88209
342.599,41.38692,-0.03235213,0.4664,0.8816
343.199,41.44229,-0.03371517,0.46903,0.8811
343.799,41.4977,-0.03366997,0.46987,0.8806
344.399,41.55307,-0.03367,0.46822,0.8801
344.999,41.60824,-0.03366976,0.47102,0.87961
345.599,41.66352,-0.03449734,0.47155,0.87911
346.199,41.71882,-0.03367098,0.47193,0.87861
346.799,41.77418,-0.03366997,0.47144,0.87811
347.399,41.82967,-0.03397317,0.47192,0.87761
347.999,41.88497,-0.03498046,0.47269,0.87711
348.599,41.9403,-0.03498,0.47521,0.87661
349.199,41.99577,-0.03498,0.47533,0.87611
349.799,42.05129,-0.03498,0.47559,0.87561
350.399,42.10672,-0.03498,0.47769,0.87511
350.999,42.16212,-0.03498,0.47691,0.87461
351.599,42.21778,-0.03498,0.47762,0.87411
352.199,42.27336,-0.03498,0.48242,0.87361
352.799,42.32897,-0.03498,0.48113,0.87311
353.399,42.3844,-0.03498004,0.48205,0.87261
353.999,42.43996,-0.03497927,0.48443,0.87211
354.599,42.49548,-0.03530696,0.48403,0.87161
355.199,42.5512,-0.0372969,0.48557,0.8711
355.799,42.60641,-0.0372186,0.48508,0.8706
356.399,42.66191,-0.03718326,0.48775,0.8701
356.999,42.7175,-0.03695996,0.48758,0.8696
357.599,42.77296,-0.03696,0.48868,0.86909
358.199,42.82917,-0.03696,0.48996,0.86859
358.799,42.88479,-0.03696,0.49274,0.86809
359.399,42.94043,-0.03695991,0.49266,0.86758
359.999,42.99623,-0.03798583,0.49689,0.86708
360.599,43.0518,-0.03793992,0.49634,0.86657
361.199,43.10735,-0.03839012,0.4982,0.86607
361.799,43.16292,-0.03955906,0.50078,0.86557
362.399,43.21863,-0.04091101,0.50214,0.86506
362.999,43.27428,-0.0411851,0.50413,0.86456
363.599,43.3301,-0.04156999,0.50575,0.86405
364.199,43.38582,-0.04156812,0.50534,0.86354
364.799,43.44149,-0.04221539,0.5106,0.86304
365.399,43.49723,-0.04359478,0.51317,0.86253
365.999,43.5529,-0.04354976,0.515,0.86203
366.599,43.60869,-0.0425501,0.51659,0.86152
367.199,43.66467,-0.04387836,0.51762,0.86101
367.799,43.7207,-0.0451926,0.52328,0.86051
368.399,43.7767,-0.04521556,0.52473,0.86
368.999,43.83267,-0.04650055,0.52799,0.85949
369.599,43.8885,-0.04643522,0.5293,0.85899
370.199,43.94428,-0.04781412,0.53115,0.85848
370.799,44.00016,-0.04913982,0.53399,0.85797
371.399,44.05607,-0.04916507,0.53494,0.85746
371.999,44.1121,-0.05065451,0.53644,0.85696
372.599,44.1682,-0.05254153,0.53984,0.85645
373.199,44.22412,-0.05394654,0.54245,0.85594
373.799,44.28004,-0.05517123,0.54436,0.85543
374.399,44.33571,-0.05511853,0.54821,0.85492
374.999,44.3919,-0.05648958,0.55103,0.85442
375.599,44.44812,-0.05772587,0.55557,0.85391
376.199,44.50437,-0.05935443,0.56211,0.8534
376.799,44.5608,-0.06159616,0.56532,0.85289
377.399,44.61681,-0.06258907,0.56886,0.85238
377.999,44.67309,-0.06352073,0.57477,0.85187
378.599,44.72927,-0.06575271,0.57934,0.85136
379.199,44.78521,-0.06706793,0.58464,0.85085
379.799,44.84106,-0.06956681,0.58989,0.85034
380.399,44.89713,-0.07086941,0.59214,0.84983
380.999,44.9533,-0.07214129,0.60011,0.84932
381.599,45.01012,-0.07525104,0.60622,0.84881
382.199,45.06653,-0.07827154,0.61363,0.8483
382.799,45.123,-0.08083018,0.62008,0.84779
383.399,45.17946,-0.08341657,0.627,0.84728
383.999,45.23568,-0.08723058,0.63225,0.84677
384.599,45.29207,-0.09010669,0.63905,0.84626
385.199,45.3485,-0.09323967,0.64681,0.84575
385.799,45.40495,-0.09624508,0.65481,0.84524
386.399,45.46158,-0.10159,0.66568,0.84473
386.999,45.5181,-0.10544,0.67499,0.84422
387.599,45.5745,-0.10876,0.68177,0.84371
388.199,45.63075,-0.11489,0.69043,0.84319
388.799,45.687,-0.12114,0.70421,0.84268
389.399,45.74343,-0.12733,0.71184,0.84217
389.999,45.7998,-0.13259,0.71902,0.84166
390.599,45.85633,-0.13907,0.72904,0.84115
391.199,45.91282,-0.14534,0.7406,0.84064
391.799,45.96931,-0.15021,0.75284,0.84012
392.399,46.02574,-0.15573,0.76371,0.83961
392.999,46.0822,-0.16294,0.77653,0.8391
393.599,46.1387,-0.16933,0.7893,0.83859
394.199,46.1952,-0.17667,0.79799,0.83808
394.799,46.25147,-0.18236,0.81422,0.83756
395.399,46.3078,-0.19158,0.82506,0.83705
395.999,46.3643,-0.20046,0.84321,0.83654
396.599,46.42085,-0.20785,0.85951,0.83603
397.199,46.47767,-0.21653,0.87499,0.83551
397.799,46.53435,-0.2263,0.89352,0.835
398.399,46.59077,-0.23671,0.9111,0.83449
398.999,46.64741,-0.2476,0.93231,0.83398
399.599,46.70375,-0.25792,0.95678,0.83346
400.199,46.76027,-0.26821,0.97703,0.83295
400.799,46.81689,-0.27868,1.00046,0.83244
401.399,46.8735,-0.29101,1.02119,0.83192
401.999,46.93016,-0.30497,1.03686,0.83141
402.599,46.98687,-0.31964,1.06239,0.8309
403.199,47.04318,-0.33306,1.09258,0.83039
403.799,47.09981,-0.3507,1.11886,0.82987
404.399,47.1565,-0.36718,1.15392,0.82936
404.999,47.21334,-0.38484,1.18861,0.82885
405.599,47.27044,-0.40599,1.22392,0.82833
406.199,47.32734,-0.42637,1.26479,0.82782
406.799,47.3842,-0.44793,1.30163,0.82731
407.399,47.44088,-0.46919,1.33085,0.82679
407.999,47.49763,-0.49247,1.35279,0.82628
408.599,47.5544,-0.51877,1.37842,0.82577
409.199,47.6113,-0.54373,1.40392,0.82525
409.799,47.66843,-0.5719,1.42628,0.82474
410.399,47.7254,-0.59782,1.45005,0.82423
410.999,47.78247,-0.62679,1.47844,0.82371
411.599,47.83947,-0.65495,1.49781,0.8232
412.199,47.89642,-0.68697,1.52464,0.82269
412.799,47.95357,-0.71994,1.54431,0.82217
413.399,48.0107,-0.75405,1.572,0.82166
413.999,48.0678,-0.78925,1.59729,0.82115
414.599,48.1248,-0.82466,1.62099,0.82063
415.199,48.18176,-0.8624,1.64036,0.82012
415.799,48.23873,-0.9018,1.66157,0.81961
416.399,48.2958,-0.94086,1.67961,0.81909
416.999,48.35286,-0.98431,1.70093,0.81858
417.599,48.40975,-1.02451,1.71885,0.81807
418.199,48.4668,-1.06986,1.73458,0.81755
418.799,48.52385,-1.11429,1.74897,0.81704
419.399,48.58075,-1.16165,1.76246,0.81653
419.999,48.6379,-1.21072,1.77533,0.81601
420.599,48.69481,-1.25852,1.78337,0.8155
421.199,48.75202,-1.31156,1.79251,0.81499
421.799,48.80928,-1.36198,1.79603,0.81447
422.399,48.86651,-1.41358,1.8001,0.81396
422.999,48.92354,-1.4649,1.79904,0.81345
423.599,48.98061,-1.51907,1.79642,0.81293
424.199,49.03754,-1.57363,1.79008,0.81242
424.799,49.09445,-1.62798,1.78015,0.81191
425.399,49.15166,-1.68509,1.76673,0.8114
425.999,49.2087,-1.73814,1.75674,0.81088
426.599,49.26577,-1.79543,1.74055,0.81037
427.199,49.3228,-1.84968,1.72683,0.80986
427.799,49.37962,-1.90361,1.70269,0.80934
428.399,49.43659,-1.9594,1.69183,0.80883
428.999,49.49358,-2.01279,1.68103,0.80832
429.599,49.55062,-2.07138,1.64964,0.80781
430.199,49.60751,-2.1235,1.60871,0.80729
430.799,49.66422,-2.17781,1.54875,0.80678
431.399,49.7209,-2.2304,1.48598,0.80627
431.999,49.77754,-2.27966,1.45238,0.80576
432.599,49.83435,-2.32991,1.40669,0.80524
433.199,49.89116,-2.37742,1.3669,0.80473
433.799,49.948,-2.42621,1.32506,0.80422
434.399,50.00465,-2.47063,1.28643,0.80371
434.999,50.0615,-2.51653,1.24864,0.8032
435.599,50.11824,-2.56131,1.2155,0.80268
436.199,50.17494,-2.60308,1.18477,0.80217
436.799,50.23193,-2.64697,1.15427,0.80166
437.399,50.2888,-2.6866,1.12558,0.80115
437.999,50.34583,-2.72935,1.09479,0.80064
438.599,50.40285,-2.76721,1.06148,0.80013
439.199,50.45993,-2.80417,1.03327,0.79961
439.799,50.51701,-2.84186,0.99787,0.7991
440.399,50.574,-2.87722,0.96653,0.79859
440.999,50.63106,-2.91319,0.93391,0.79808
441.599,50.68792,-2.94493,0.90358,0.79757
442.199,50.74484,-2.9779,0.87332,0.79706
442.799,50.80192,-3.00991,0.84318,0.79655
443.399,50.85902,-3.04026,0.81324,0.79604
443.999,50.91622,-3.06922,0.78183,0.79553
444.599,50.97343,-3.0972,0.75396,0.79502
445.199,51.0306,-3.12577,0.7286,0.7945
445.799,51.08784,-3.15065,0.70094,0.79399
446.399,51.1451,-3.17555,0.67543,0.79348
446.999,51.20234,-3.19792,0.64945,0.79297
447.599,51.2596,-3.22204,0.62609,0.79246
448.199,51.31688,-3.24308,0.60146,0.79195
448.799,51.37378,-3.26249,0.57814,0.79144
449.399,51.43115,-3.28227,0.55415,0.79094
449.999,51.4883,-3.29968,0.53073,0.79043
450.599,51.5458,-3.31745,0.50733,0.78992
451.199,51.60301,-3.3329,0.48773,0.78941
451.799,51.66024,-3.348,0.46549,0.7889
452.399,51.7175,-3.36228,0.44799,0.78839
452.999,51.7749,-3.37494,0.42812,0.78788
453.599,51.83217,-3.38765,0.40854,0.78737
454.199,51.88964,-3.39876,0.3938,0.78686
454.799,51.94699,-3.40936,0.37274,0.78635
455.399,52.00418,-3.4197,0.36088,0.78585
455.999,52.06174,-3.42867,0.34416,0.78534
456.599,52.11915,-3.43741,0.33019,0.78483
457.199,52.17649,-3.44554,0.31826,0.78432
457.799,52.23384,-3.45348,0.30502,0.78382
458.399,52.29115,-3.46046,0.2962,0.78331
458.999,52.34845,-3.46744,0.2841,0.7828
459.599,52.4063,-3.47446,0.27242,0.78229
460.199,52.46365,-3.48193,0.26266,0.78179
460.799,52.5211,-3.48779,0.25005,0.78128
461.399,52.57858,-3.49401,0.23983,0.78077
461.999,52.63592,-3.49971,0.23065,0.78027
462.599,52.6932,-3.5052,0.22209,0.77976
463.199,52.7507,-3.50924,0.21412,0.77925
463.799,52.8081,-3.51359,0.2033,0.77875
464.399,52.86537,-3.51887,0.1932,0.77824
464.999,52.9228,-3.52302,0.18718,0.77774
465.599,52.98041,-3.52717,0.17804,0.77723
466.199,53.0379,-3.53062,0.16857,0.77672
466.799,53.0955,-3.53478,0.15919,0.77622
467.399,53.1529,-3.5381,0.15206,0.77571
467.999,53.21049,-3.54132,0.14485,0.77521
468.599,53.26817,-3.54512,0.13814,0.77471
469.199,53.32574,-3.54955,0.12994,0.7742
469.799,53.3833,-3.5525,0.12589,0.7737
470.399,53.4409,-3.55413,0.1195,0.77319
470.999,53.4985,-3.55621,0.11367,0.77269
471.599,53.5563,-3.55941,0.10866,0.77219
472.199,53.614,-3.56266,0.1043,0.77168
472.799,53.6717,-3.56495,0.09921267,0.77118
473.399,53.7295,-3.56927,0.09760844,0.77068
473.999,53.7873,-3.57074,0.09218995,0.77017
474.599,53.84499,-3.57256,0.08867323,0.76967
475.199,53.90269,-3.57361,0.08708796,0.76917
475.799,53.96043,-3.57633,0.08348285,0.76866
476.399,54.01823,-3.57805,0.0793488,0.76816
476.999,54.076,-3.5798,0.0784188,0.76766
477.599,54.13378,-3.58225,0.0749162,0.76716
478.199,54.1915,-3.5847,0.07424744,0.76666
478.799,54.24935,-3.58598,0.07421848,0.76616
479.399,54.3073,-3.58818,0.07043771,0.76566
479.999,54.3652,-3.58925,0.0689513,0.76515
480.599,54.42329,-3.58995,0.06804067,0.76465
481.199,54.48117,-3.59178,0.06754603,0.76415
481.799,54.5391,-3.59374,0.06778809,0.76365
482.399,54.59711,-3.59577,0.0666057,0.76315
482.999,54.655,-3.59835,0.06391297,0.76265
483.599,54.7131,-3.59835,0.06468008,0.76215
484.199,54.7712,-3.59967,0.06397569,0.76166
484.799,54.8292,-3.601,0.06706162,0.76116
485.399,54.88725,-3.60144,0.06241749,0.76066
485.999,54.9452,-3.6023,0.06276043,0.76016
486.599,55.00329,-3.60362,0.0643992,0.75966
487.199,55.0614,-3.60471,0.06564566,0.75916
487.799,55.1197,-3.60557,0.06370835,0.75867
488.399,55.1779,-3.60627,0.06426092,0.75817
488.999,55.2361,-3.60898,0.06026795,0.75767
489.599,55.29419,-3.60975,0.06105587,0.75717
490.199,55.3523,-3.61021,0.06166443,0.75668
490.799,55.4104,-3.61122,0.06179299,0.75618
491.399,55.4684,-3.61152,0.0633493,0.75568
491.999,55.52658,-3.61284,0.06431646,0.75519
492.599,55.58455,-3.61307,0.06160958,0.75469
493.199,55.6425,-3.61415,0.06178387,0.7542
493.799,55.7007,-3.61547,0.06091532,0.7537
494.399,55.7588,-3.6168,0.06060314,0.75321
494.999,55.817,-3.61796,0.05981503,0.75271
495.599,55.875,-3.6181,0.06139576,0.75222
496.199,55.9332,-3.61813,0.06125174,0.75172
496.799,55.99109,-3.61941,0.06052141,0.75123
497.399,56.04923,-3.62074,0.05780237,0.75073
497.999,56.10745,-3.62185,0.06167064,0.75024
498.599,56.16581,-3.62205,0.06312719,0.74975
499.199,56.2241,-3.62333,0.06079455,0.74925
499.799,56.28229,-3.62205,0.06054317,0.74876
500.399,56.3406,-3.62205,0.06064572,0.74827
500.999,56.39878,-3.62435,0.0590375,0.74778
501.599,56.457,-3.62543,0.06261952,0.74729
502.199,56.5153,-3.62566,0.06222774,0.74679
502.799,56.57348,-3.62699,0.06170179,0.7463
503.399,56.6318,-3.62699,0.06145795,0.74581
503.999,56.69031,-3.62699,0.0626447,0.74532
504.599,56.74864,-3.62698,0.0629759,0.74483
505.199,56.80698,-3.62708,0.06438289,0.74434
505.799,56.8653,-3.62741,0.06390592,0.74385
506.399,56.92366,-3.62828,0.06341969,0.74336
506.999,56.98211,-3.62864,0.06395798,0.74287
507.599,57.04073,-3.62903,0.06430238,0.74238
508.199,57.09935,-3.63022,0.0651988,0.74189
508.799,57.15775,-3.63126,0.06506612,0.74141
509.399,57.21629,-3.63126,0.063779,0.74092
509.999,57.27477,-3.63118,0.06561691,0.74043
510.599,57.3332,-3.63127,0.06739158,0.73994
511.199,57.3917,-3.63224,0.06670647,0.73946
511.799,57.45009,-3.63258,0.0644319,0.73897
512.399,57.50838,-3.63357,0.06621808,0.73848
512.999,57.56677,-3.63494,0.06809252,0.738
513.599,57.6253,-3.63382,0.06946459,0.73751
514.199,57.6838,-3.63478,0.06897895,0.73702
514.799,57.74245,-3.63546,0.06672388,0.73654
515.399,57.80109,-3.63619,0.0670218,0.73605
515.999,57.8599,-3.63489,0.0667372,0.73557
516.599,57.91815,-3.63491,0.06814927,0.73508
517.199,57.9766,-3.63619,0.06819743,0.7346
517.799,58.03513,-3.63719,0.06813835,0.73412
518.399,58.09386,-3.63737,0.06844154,0.73363
518.999,58.15294,-3.6385,0.07240336,0.73315
519.599,58.2115,-3.63716,0.06912093,0.73267
520.199,58.2699,-3.63719,0.07431799,0.73218
520.799,58.32841,-3.63719,0.07053,0.7317
521.399,58.3871,-3.63719,0.07393188,0.73122
521.999,58.44616,-3.63827,0.07453438,0.73074
522.599,58.50505,-3.63857,0.07781094,0.73026
523.199,58.56375,-3.63851,0.07623354,0.72978
523.799,58.62245,-3.63991,0.07688212,0.7293
524.399,58.6812,-3.63982,0.07566399,0.72882
524.999,58.7399,-3.64113,0.07571995,0.72834
525.599,58.79871,-3.64026,0.07748697,0.72786
526.199,58.8576,-3.64114,0.0761849,0.72738
526.799,58.9163,-3.64119,0.07759474,0.7269
527.399,58.9753,-3.63973,0.07960425,0.72642
527.999,59.0342,-3.6411,0.07900453,0.72594
528.599,59.09313,-3.64245,0.07944166,0.72546
529.199,59.1518,-3.64169,0.07817085,0.72499
529.799,59.2104,-3.64146,0.07816959,0.72451
530.399,59.269,-3.64247,0.0793725,0.72403
530.999,59.32776,-3.64245,0.08113956,0.72355
531.599,59.38645,-3.64245,0.08209849,0.72308
532.199,59.4452,-3.64281,0.07949203,0.7226
532.799,59.50399,-3.64277,0.08058708,0.72213
533.399,59.5628,-3.64378,0.08054317,0.72165
533.999,59.6218,-3.64377,0.07949483,0.72118
534.599,59.68068,-3.64377,0.08130402,0.7207
535.199,59.7394,-3.64376,0.07890735,0.72023
535.799,59.79824,-3.6443,0.08005747,0.71976
536.399,59.8567,-3.64541,0.07896685,0.71928
536.999,59.91525,-3.64541,0.07838257,0.71881
537.599,59.9741,-3.64673,0.07888066,0.71834
538.199,60.0327,-3.6464,0.07746133,0.71786
538.799,60.09196,-3.6464,0.07959058,0.71739
539.399,60.15076,-3.64572,0.0759566,0.71692
539.999,60.20969,-3.64706,0.0769596,0.71645
540.599,60.26862,-3.64706,0.07693114,0.71598
541.199,60.3275,-3.64706,0.07632196,0.71551
541.799,60.38632,-3.64841,0.07797653,0.71504
542.399,60.445,-3.64837,0.07709233,0.71457
542.999,60.50379,-3.6477,0.07859432,0.7141
543.599,60.5625,-3.64772,0.07839926,0.71363
544.199,60.62145,-3.64903,0.07682994,0.71316
544.799,60.68051,-3.64904,0.07897966,0.71269
545.399,60.7397,-3.65035,0.07848415,0.71223
545.999,60.7988,-3.65039,0.0724187,0.71176
546.599,60.8578,-3.64988,0.07773718,0.71129
547.199,60.9169,-3.64904,0.07850536,0.71082
547.799,60.976,-3.65038,0.07922256,0.71036
548.399,61.0352,-3.6517,0.07795798,0.70989
548.999,61.09426,-3.65134,0.07499636,0.70943
549.599,61.1535,-3.65102,0.07522362,0.70896
550.199,61.21238,-3.65101,0.07672667,0.7085
550.799,61.2714,-3.65101,0.07453709,0.70803
551.399,61.3303,-3.65101,0.07427166,0.70757
551.999,61.38926,-3.65102,0.07585279,0.7071
552.599,61.44789,-3.65233,0.07858049,0.70664
553.199,61.50636,-3.65236,0.08002944,0.70618
553.799,61.56528,-3.65364,0.07847679,0.70571
554.399,61.6242,-3.65364,0.07823899,0.70525
554.999,61.6835,-3.65364,0.07799638,0.70479
555.599,61.74256,-3.65364,0.07566562,0.70433
556.199,61.80137,-3.65496,0.07506135,0.70387
556.799,61.8603,-3.65466,0.07215892,0.70341
557.399,61.9193,-3.65561,0.07421692,0.70295
557.999,61.97838,-3.65568,0.07365679,0.70249
558.599,62.0375,-3.65429,0.07448346,0.70203
559.199,62.09666,-3.65428,0.07346979,0.70157
559.799,62.1559,-3.65528,0.07299684,0.70111
560.399,62.2151,-3.6566,0.07366051,0.70065
560.999,62.27431,-3.65659,0.07482724,0.7002
561.599,62.33351,-3.65792,0.07369975,0.69974
562.199,62.39275,-3.65792,0.07088265,0.69928
562.799,62.45202,-3.65792,0.07269497,0.69882
563.399,62.51118,-3.65923,0.0716652,0.69837
563.999,62.57042,-3.65923,0.06955183,0.69791
564.599,62.6295,-3.65923,0.07281466,0.69746
565.199,62.68866,-3.65796,0.0715006,0.697
565.799,62.74801,-3.65922,0.07079676,0.69655
566.399,62.8072,-3.65923,0.07146346,0.69609
566.999,62.8664,-3.65923,0.06951153,0.69564
567.599,62.9257,-3.65916,0.06825753,0.69519
568.199,62.98497,-3.65989,0.06854092,0.69473
568.799,63.04436,-3.65845,0.06713877,0.69428
569.399,63.1036,-3.66019,0.06704075,0.69383
569.999,63.16261,-3.66119,0.06620862,0.69338
570.599,63.2218,-3.66187,0.06691917,0.69293
571.199,63.28085,-3.66187,0.06621823,0.69248
571.799,63.34012,-3.66187,0.06879625,0.69203
572.399,63.3994,-3.66189,0.0683006,0.69158
572.999,63.45853,-3.66121,0.068206,0.69113
573.599,63.518,-3.66252,0.06833105,0.69068
574.199,63.57736,-3.66083,0.06677252,0.69023
574.799,63.6367,-3.65957,0.0675229,0.68978
575.399,63.69607,-3.66234,0.06932159,0.68933
575.999,63.75546,-3.66322,0.06670324,0.68889
576.599,63.81485,-3.66495,0.06577345,0.68844
577.199,63.87429,-3.66363,0.06345533,0.68799
577.799,63.9336,-3.66493,0.0656603,0.68755
578.399,63.99296,-3.66494,0.06486424,0.6871
578.999,64.0522,-3.66627,0.06424287,0.68666
579.599,64.1114,-3.66631,0.06722285,0.68621
580.199,64.1706,-3.66756,0.06494827,0.68577
580.799,64.23001,-3.66691,0.06491886,0.68532
581.399,64.28953,-3.66691,0.06312352,0.68488
581.999,64.34904,-3.66691,0.06513605,0.68444
582.599,64.40815,-3.66625,0.06323158,0.68399
583.199,64.46736,-3.66757,0.06224872,0.68355
583.799,64.52655,-3.66757,0.06086218,0.68311
584.399,64.5862,-3.66622,0.06092569,0.68267
584.999,64.64569,-3.66719,0.06080654,0.68223
585.599,64.70521,-3.66758,0.06150664,0.68179
586.199,64.76455,-3.66985,0.06409562,0.68135
586.799,64.82347,-3.66987,0.05984286,0.68091
587.399,64.88285,-3.66987,0.05969569,0.68047
587.999,64.9422,-3.66987,0.05880813,0.68003
588.599,65.00183,-3.66974,0.05400726,0.67959
589.199,65.0616,-3.66992,0.05023117,0.67915
589.799,65.12116,-3.66996,0.05165674,0.67872
590.399,65.18074,-3.67119,0.05065793,0.67828
590.999,65.24025,-3.67119,0.05075255,0.67784
591.599,65.2996,-3.67119,0.04828203,0.67741
592.199,65.359,-3.6725,0.04894395,0.67697
592.799,65.4187,-3.67251,0.04750534,0.67654
593.399,65.47808,-3.67189,0.04862578,0.6761
593.999,65.5377,-3.67319,0.04858235,0.67567
594.599,65.59716,-3.67282,0.04891667,0.67523
595.199,65.65647,-3.67284,0.04702477,0.6748
595.799,65.7162,-3.67283,0.04651558,0.67437
596.399,65.77547,-3.67415,0.04693964,0.67393
596.999,65.83495,-3.67415,0.04598007,0.6735
597.599,65.89437,-3.67283,0.04552129,0.67307
598.199,65.95339,-3.67287,0.04725846,0.67264
598.799,66.0128,-3.67379,0.04462108,0.67221
599.399,66.07217,-3.67522,0.04516045,0.67178
599.999,66.1318,-3.67516,0.04492819,0.67135
600.599,66.1918,-3.67382,0.04436223,0.67092
601.199,66.25143,-3.67383,0.04389406,0.67049
601.799,66.31104,-3.67514,0.04485844,0.67006
602.399,66.3707,-3.67514,0.04582887,0.66964
602.999,66.43024,-3.67643,0.04593309,0.66921
603.599,66.48989,-3.67546,0.04287019,0.66878
604.199,66.54956,-3.67676,0.04408289,0.66836
604.799,66.60903,-3.67678,0.04074435,0.66793
605.399,66.6687,-3.67678,0.04074707,0.6675
605.999,66.72828,-3.67677,0.04133853,0.66708
606.599,66.78803,-3.6781,0.03864738,0.66665
607.199,66.84791,-3.67777,0.03820377,0.66623
607.799,66.90774,-3.67839,0.03895427,0.66581
608.399,66.96757,-3.67843,0.04093304,0.66538
608.999,67.0274,-3.67843,0.04075724,0.66496
609.599,67.08719,-3.67974,0.04003503,0.66454
610.199,67.14689,-3.67975,0.04123458,0.66412
610.799,67.20658,-3.67975,0.03920572,0.6637
611.399,67.26632,-3.67975,0.0375267,0.66327
611.999,67.3257,-3.67975,0.03428284,0.66285
612.599,67.3854,-3.67902,0.03615039,0.66243
613.199,67.4452,-3.68041,0.03363219,0.66201
613.799,67.5051,-3.68041,0.03336636,0.6616
614.399,67.56498,-3.68041,0.03595725,0.66118
614.999,67.62475,-3.68041,0.03608898,0.66076
615.599,67.68468,-3.68041,0.03688834,0.66034
616.199,67.7445,-3.68042,0.04175397,0.65992
616.799,67.8043,-3.6804,0.03947219,0.65951
617.399,67.86403,-3.68139,0.0428893,0.65909
617.999,67.92384,-3.68172,0.0484913,0.65868
618.599,67.9837,-3.68172,0.04762556,0.65826
619.199,68.04352,-3.68172,0.04778031,0.65785
619.799,68.1035,-3.68292,0.05029581,0.65743
620.399,68.1635,-3.68303,0.05223917,0.65702
620.999,68.22346,-3.68303,0.05128943,0.65661
621.599,68.2833,-3.68303,0.05239875,0.65619
622.199,68.34302,-3.68174,0.05290964,0.65578
622.799,68.40265,-3.68444,0.05572917,0.65537
623.399,68.46229,-3.68435,0.05701774,0.65496
623.999,68.5219,-3.68437,0.059792,0.65455
624.599,68.5816,-3.68326,0.06074548,0.65414
625.199,68.64146,-3.68435,0.0577739,0.65373
625.799,68.70129,-3.68429,0.05484785,0.65332
626.399,68.76123,-3.68436,0.05369277,0.65291
626.999,68.82131,-3.68436,0.0534693,0.6525
627.599,68.88125,-3.68517,0.05405428,0.65209
628.199,68.941,-3.68632,0.05142017,0.65168
628.799,69.00078,-3.68766,0.0536545,0.65128
629.399,69.06065,-3.68764,0.05082268,0.65087
629.999,69.12069,-3.68633,0.04887761,0.65046
630.599,69.1806,-3.68633,0.04969194,0.65006
631.199,69.24032,-3.68633,0.05408402,0.64965
631.799,69.29996,-3.68633,0.05351301,0.64925
632.399,69.3597,-3.68633,0.05381189,0.64884
632.999,69.41973,-3.68631,0.05672788,0.64844
633.599,69.47965,-3.68633,0.05813609,0.64804
634.199,69.53981,-3.6873,0.05560856,0.64764
634.799,69.59975,-3.68895,0.05825054,0.64723
635.399,69.65991,-3.68896,0.05429276,0.64683
635.999,69.71998,-3.68896,0.05574366,0.64643
636.599,69.78015,-3.68764,0.0520879,0.64603
637.199,69.84014,-3.68764,0.0552501,0.64563
637.799,69.90029,-3.68764,0.05668344,0.64523
638.399,69.96053,-3.6883,0.05502647,0.64483
638.699,69.9905,-3.6883,0.05619399,0.64463