File: 01_Data/PET/STA/N2/10K_min/PET_STA_N2_10KData_210830_R1.csv
##Temp./Â°C,Time/min,Mass loss(subtr.2)/mg,DSC(subtr.2)/(mW/mg),Sensit./(uV/mW)
49.729,10.01,-0.01546,-0.00153445,1.03585
50.329,11.45389,-0.01929282,0.01669613,1.03582
50.929,11.82218,-0.01888278,0.02981078,1.03579
51.529,12.0899,-0.01963763,0.04238832,1.03576
52.129,12.3071,-0.02100536,0.05140398,1.03572
52.729,12.49657,-0.02103739,0.0561469,1.03569
53.329,12.67052,-0.02101193,0.06416637,1.03565
53.929,12.8301,-0.02269519,0.07040874,1.03561
54.529,12.97891,-0.02239317,0.07363782,1.03557
55.129,13.1204,-0.02165224,0.08021708,1.03553
55.729,13.2544,-0.02306432,0.0856367,1.03549
56.329,13.3839,-0.02133756,0.08907521,1.03545
56.929,13.5085,-0.02240719,0.09428643,1.0354
57.529,13.62851,-0.02252441,0.0994451,1.03535
58.129,13.7454,-0.0228885,0.10014,1.0353
58.729,13.8599,-0.02304732,0.10228,1.03525
59.329,13.9722,-0.02322084,0.10499,1.0352
59.929,14.0816,-0.02254293,0.10888,1.03515
60.529,14.1866,-0.02638437,0.11245,1.03509
61.129,14.29055,-0.01881122,0.11793,1.03504
61.729,14.3935,-0.02296381,0.12035,1.03498
62.329,14.4935,-0.02237821,0.12415,1.03492
62.929,14.5914,-0.02304377,0.12666,1.03486
63.529,14.68815,-0.02335807,0.13064,1.0348
64.129,14.78394,-0.02401861,0.13314,1.03473
64.729,14.87795,-0.02488703,0.13618,1.03467
65.329,14.96994,-0.02357705,0.13961,1.0346
65.929,15.06047,-0.02492593,0.14117,1.03453
66.529,15.14966,-0.02357018,0.14632,1.03446
67.129,15.23792,-0.02148219,0.15177,1.03439
67.729,15.32564,-0.02202235,0.15149,1.03431
68.329,15.41141,-0.02353829,0.1554,1.03424
68.929,15.4963,-0.02325935,0.1568,1.03416
69.529,15.5807,-0.02325551,0.16045,1.03409
70.129,15.66409,-0.02323899,0.16321,1.03401
70.729,15.7469,-0.02344803,0.16569,1.03393
71.329,15.8284,-0.02340206,0.16826,1.03384
71.929,15.90875,-0.02443136,0.17094,1.03376
72.529,15.98809,-0.02319043,0.17148,1.03367
73.129,16.0671,-0.02115438,0.17343,1.03359
73.729,16.14534,-0.02116111,0.17338,1.0335
74.329,16.22312,-0.02121002,0.17332,1.03341
74.929,16.3,-0.02127889,0.1717,1.03332
75.529,16.37675,-0.02376315,0.17465,1.03322
76.129,16.45231,-0.02266719,0.17398,1.03313
76.729,16.52763,-0.0237943,0.17649,1.03303
77.329,16.60243,-0.02379317,0.18024,1.03294
77.929,16.67706,-0.02392458,0.18161,1.03284
78.529,16.751,-0.02244745,0.18792,1.03274
79.129,16.82431,-0.02521679,0.19279,1.03264
79.729,16.8974,-0.02383053,0.19541,1.03253
80.329,16.96963,-0.02367059,0.20089,1.03243
80.929,17.0415,-0.02500789,0.20543,1.03232
81.529,17.11266,-0.02490403,0.2089,1.03221
82.129,17.18378,-0.02391586,0.21451,1.0321
82.729,17.25445,-0.02471351,0.21919,1.03199
83.329,17.32457,-0.0247023,0.22155,1.03188
83.929,17.39414,-0.02368801,0.2223,1.03177
84.529,17.4635,-0.02500702,0.22593,1.03165
85.129,17.53281,-0.02490593,0.22816,1.03154
85.729,17.6017,-0.0249522,0.23074,1.03142
86.329,17.6699,-0.02621927,0.23176,1.0313
86.929,17.73789,-0.0246978,0.23276,1.03118
87.529,17.80546,-0.02586483,0.23456,1.03106
88.129,17.87254,-0.02497727,0.23537,1.03093
88.729,17.93921,-0.02611346,0.23842,1.03081
89.329,18.00595,-0.02460685,0.23972,1.03068
89.929,18.07217,-0.02530933,0.24071,1.03055
90.529,18.13812,-0.02598597,0.24333,1.03042
91.129,18.20356,-0.02593538,0.24589,1.03029
91.729,18.2686,-0.02555044,0.24592,1.03016
92.329,18.3338,-0.02632068,0.24463,1.03003
92.929,18.39849,-0.02598718,0.24523,1.02989
93.529,18.46335,-0.02606594,0.24772,1.02976
94.129,18.52756,-0.02599827,0.24775,1.02962
94.729,18.59177,-0.02607455,0.25288,1.02948
95.329,18.65573,-0.02600335,0.25158,1.02934
95.929,18.71933,-0.02598873,0.25269,1.0292
96.529,18.7831,-0.02531737,0.25457,1.02905
97.129,18.84621,-0.02603036,0.25466,1.02891
97.729,18.90899,-0.0259374,0.2565,1.02876
98.329,18.97148,-0.02600848,0.25782,1.02861
98.929,19.03398,-0.02712502,0.25849,1.02846
99.529,19.09631,-0.02601418,0.25965,1.02831
100.129,19.1591,-0.02599573,0.26156,1.02816
100.729,19.22126,-0.02730846,0.26264,1.02801
101.329,19.28325,-0.02593009,0.26354,1.02785
101.929,19.34479,-0.02731976,0.26577,1.0277
102.529,19.40644,-0.02680189,0.2653,1.02754
103.129,19.46753,-0.02731363,0.26513,1.02738
103.729,19.52908,-0.0259932,0.26589,1.02722
104.329,19.59042,-0.02730969,0.26737,1.02706
104.929,19.6517,-0.02849561,0.26787,1.0269
105.529,19.71266,-0.02685325,0.26869,1.02673
106.129,19.77356,-0.02750343,0.26891,1.02657
106.729,19.83456,-0.02664122,0.27053,1.0264
107.329,19.8952,-0.02556791,0.27205,1.02623
107.929,19.95566,-0.02556763,0.27254,1.02606
108.529,20.01623,-0.02694453,0.27413,1.02589
109.129,20.076,-0.02783732,0.27362,1.02572
109.729,20.13652,-0.02819014,0.27643,1.02554
110.329,20.1968,-0.0269197,0.27446,1.02537
110.929,20.25751,-0.02820235,0.2786,1.02519
111.529,20.31779,-0.02904248,0.28005,1.02501
112.129,20.37755,-0.02686374,0.28122,1.02483
112.729,20.43722,-0.02795799,0.28325,1.02465
113.329,20.49687,-0.02817403,0.28312,1.02447
113.929,20.55659,-0.02675804,0.28289,1.02429
114.529,20.61608,-0.02676082,0.28329,1.0241
115.129,20.67526,-0.02543397,0.284,1.02391
115.729,20.73462,-0.02547367,0.28659,1.02373
116.329,20.7938,-0.02675683,0.28823,1.02354
116.929,20.85272,-0.02367217,0.28864,1.02335
117.529,20.9117,-0.02226316,0.29019,1.02316
118.129,20.9705,-0.03173117,0.2892,1.02296
118.729,21.02928,-0.02763331,0.29099,1.02277
119.329,21.0879,-0.028382,0.29179,1.02257
119.929,21.1466,-0.02698012,0.29176,1.02238
120.529,21.20497,-0.02704399,0.2929,1.02218
121.129,21.2633,-0.025841,0.29553,1.02198
121.729,21.32156,-0.02698004,0.29418,1.02178
122.329,21.37976,-0.02830382,0.29662,1.02158
122.929,21.438,-0.02828972,0.29664,1.02137
123.529,21.49599,-0.02834175,0.29742,1.02117
124.129,21.5538,-0.02700348,0.29873,1.02096
124.729,21.6117,-0.02715486,0.29935,1.02076
125.329,21.66956,-0.02554946,0.3002,1.02055
125.929,21.7269,-0.02555,0.30103,1.02034
126.529,21.78435,-0.02554998,0.30013,1.02013
127.129,21.84159,-0.02553446,0.30096,1.01991
127.729,21.89896,-0.02687037,0.30262,1.0197
128.329,21.9566,-0.02678264,0.30317,1.01949
128.929,22.0137,-0.02686097,0.3038,1.01927
129.529,22.07101,-0.02555971,0.30471,1.01905
130.129,22.12801,-0.02603534,0.30386,1.01883
130.729,22.185,-0.02555683,0.3066,1.01861
131.329,22.2421,-0.02555705,0.3066,1.01839
131.929,22.29876,-0.02688178,0.30687,1.01817
132.529,22.35548,-0.02608927,0.30682,1.01795
133.129,22.41209,-0.02573591,0.30716,1.01772
133.729,22.46854,-0.026815,0.31021,1.01749
134.329,22.52514,-0.02723263,0.31072,1.01727
134.929,22.58163,-0.02719993,0.31332,1.01704
135.529,22.63811,-0.02770314,0.31365,1.01681
136.129,22.69439,-0.02821778,0.31559,1.01658
136.729,22.75047,-0.0285199,0.31536,1.01634
137.329,22.80651,-0.02850606,0.31684,1.01611
137.929,22.8624,-0.02719677,0.31656,1.01587
138.529,22.91851,-0.0271479,0.31662,1.01564
139.129,22.97433,-0.02753077,0.31681,1.0154
139.729,23.0302,-0.02820241,0.31746,1.01516
140.329,23.0861,-0.02856501,0.3192,1.01492
140.929,23.14189,-0.02838202,0.32062,1.01468
141.529,23.1976,-0.02775464,0.31996,1.01444
142.129,23.2532,-0.02861675,0.32054,1.01419
142.729,23.30878,-0.02851997,0.3205,1.01395
143.329,23.36425,-0.02852,0.3227,1.0137
143.929,23.41974,-0.02852,0.32505,1.01345
144.529,23.47524,-0.02852665,0.32433,1.01321
145.129,23.53049,-0.02719612,0.32506,1.01296
145.729,23.5858,-0.02851283,0.32526,1.01271
146.329,23.64123,-0.02886066,0.32627,1.01245
146.929,23.6964,-0.02870096,0.32808,1.0122
147.529,23.75168,-0.02760563,0.32708,1.01195
148.129,23.80696,-0.02852646,0.32848,1.01169
148.729,23.8619,-0.02720144,0.32954,1.01143
149.329,23.917,-0.02720724,0.33175,1.01117
149.929,23.972,-0.02604468,0.32995,1.01091
150.529,24.02693,-0.02851142,0.33198,1.01065
151.129,24.08201,-0.02852037,0.33176,1.01039
151.729,24.13685,-0.03000771,0.33397,1.01013
152.329,24.19162,-0.02983892,0.33377,1.00987
152.929,24.2465,-0.02984,0.33452,1.0096
153.529,24.30125,-0.02984,0.33447,1.00933
154.129,24.35608,-0.02984187,0.33586,1.00907
154.729,24.41091,-0.03117174,0.33777,1.0088
155.329,24.4657,-0.02983685,0.33781,1.00853
155.929,24.52058,-0.02983516,0.33933,1.00826
156.529,24.57534,-0.03067869,0.3393,1.00798
157.129,24.62998,-0.02982994,0.33852,1.00771
157.729,24.6846,-0.03060252,0.33875,1.00744
158.329,24.73938,-0.02912805,0.34004,1.00716
158.929,24.7942,-0.02829973,0.34118,1.00688
159.529,24.84889,-0.02827725,0.34106,1.0066
160.129,24.90331,-0.02993843,0.34146,1.00633
160.729,24.95778,-0.02984931,0.34352,1.00604
161.329,25.01228,-0.03096234,0.34363,1.00576
161.929,25.0668,-0.03226846,0.34241,1.00548
162.529,25.1217,-0.03307119,0.34167,1.0052
163.129,25.17611,-0.03224965,0.34228,1.00491
163.729,25.2306,-0.03225576,0.34312,1.00463
164.329,25.28528,-0.0309364,0.34653,1.00434
164.929,25.33973,-0.0315671,0.34687,1.00405
165.529,25.39418,-0.03092175,0.34784,1.00376
166.129,25.4485,-0.0296265,0.34798,1.00347
166.729,25.50296,-0.02824537,0.34891,1.00318
167.329,25.55741,-0.02961381,0.34877,1.00289
167.929,25.61175,-0.02960873,0.35165,1.00259
168.529,25.66619,-0.03096956,0.35075,1.0023
169.129,25.72053,-0.03093005,0.3519,1.002
169.729,25.7748,-0.03049264,0.35319,1.0017
170.329,25.82927,-0.02961998,0.35177,1.00141
170.929,25.88365,-0.02939483,0.35423,1.00111
171.529,25.93781,-0.02896069,0.35471,1.00081
172.129,25.99224,-0.03032477,0.35369,1.0005
172.729,26.0466,-0.03027631,0.3555,1.0002
173.329,26.10099,-0.03158318,0.35481,0.9999
173.929,26.15527,-0.0316152,0.35582,0.99959
174.529,26.20934,-0.03094779,0.35563,0.99929
175.129,26.26353,-0.02961183,0.35659,0.99898
175.729,26.3171,-0.03055752,0.35561,0.99867
176.329,26.37153,-0.03060016,0.35714,0.99836
176.929,26.4259,-0.03101944,0.35882,0.99805
177.529,26.4799,-0.02994802,0.35903,0.99774
178.129,26.5344,-0.03102881,0.35871,0.99743
178.729,26.5883,-0.02938963,0.35872,0.99712
179.329,26.64221,-0.02997491,0.35872,0.9968
179.929,26.69632,-0.03093045,0.35915,0.99649
180.529,26.7503,-0.03092999,0.35962,0.99617
181.129,26.8043,-0.03101256,0.36048,0.99585
181.729,26.85802,-0.02960981,0.3614,0.99553
182.329,26.91183,-0.02961005,0.36273,0.99521
182.929,26.96582,-0.03049652,0.36328,0.99489
183.529,27.01973,-0.02440222,0.361,0.99457
184.129,27.0737,-0.02648869,0.36494,0.99425
184.729,27.1274,-0.03657215,0.3636,0.99392
185.329,27.18125,-0.03081033,0.36608,0.9936
185.929,27.2351,-0.03038986,0.36547,0.99327
186.529,27.28892,-0.0303936,0.36721,0.99295
187.129,27.3426,-0.02905316,0.36597,0.99262
187.729,27.3962,-0.02999449,0.36638,0.99229
188.329,27.44983,-0.02939072,0.36533,0.99196
188.929,27.50364,-0.02959043,0.36807,0.99163
189.529,27.55739,-0.03168397,0.36746,0.9913
190.129,27.61102,-0.03202998,0.36473,0.99096
190.729,27.6647,-0.03335495,0.36676,0.99063
191.329,27.7182,-0.03204085,0.36838,0.9903
191.929,27.7717,-0.03210858,0.3676,0.98996
192.529,27.82524,-0.03273444,0.37048,0.98962
193.129,27.87865,-0.03170056,0.37015,0.98928
193.729,27.93226,-0.03055569,0.36839,0.98895
194.329,27.9859,-0.03037997,0.36998,0.98861
194.929,28.03933,-0.03037869,0.36941,0.98827
195.529,28.0929,-0.0316861,0.37064,0.98792
196.129,28.1463,-0.03055579,0.37057,0.98758
196.729,28.1999,-0.03070952,0.3697,0.98724
197.329,28.25347,-0.03173266,0.37204,0.98689
197.929,28.30707,-0.03072007,0.37206,0.98655
198.529,28.3606,-0.03072,0.37105,0.9862
199.129,28.414,-0.03074072,0.37122,0.98585
199.729,28.4676,-0.03202923,0.37157,0.9855
200.329,28.5212,-0.03211721,0.37214,0.98515
200.929,28.5747,-0.03302053,0.37348,0.9848
201.529,28.6282,-0.03301999,0.37173,0.98445
202.129,28.6817,-0.03300825,0.37391,0.9841
202.729,28.73521,-0.03363462,0.3756,0.98374
203.329,28.78878,-0.03335036,0.37464,0.98339
203.929,28.8423,-0.03204303,0.37509,0.98304
204.529,28.89579,-0.03327779,0.37361,0.98268
205.129,28.94933,-0.03203023,0.37561,0.98232
205.729,29.0029,-0.03203,0.37617,0.98196
206.329,29.0564,-0.03202968,0.37669,0.9816
206.929,29.1101,-0.03104772,0.3756,0.98124
207.529,29.16347,-0.03241177,0.37653,0.98088
208.129,29.217,-0.03235328,0.37782,0.98052
208.729,29.2708,-0.03367925,0.3783,0.98016
209.329,29.3243,-0.03368,0.38011,0.9798
209.929,29.378,-0.03368,0.37906,0.97943
210.529,29.43147,-0.03368005,0.38026,0.97906
211.129,29.48493,-0.03351807,0.38054,0.9787
211.729,29.5385,-0.03334994,0.3799,0.97833
212.329,29.59198,-0.03334737,0.3809,0.97796
212.929,29.6454,-0.03449554,0.38094,0.97759
213.529,29.69892,-0.03434023,0.38238,0.97722
214.129,29.75238,-0.03304296,0.38249,0.97685
214.729,29.80595,-0.03302179,0.38218,0.97648
215.329,29.8594,-0.03432735,0.38264,0.97611
215.929,29.91307,-0.03408057,0.38301,0.97573
216.529,29.9667,-0.03302008,0.38381,0.97536
217.129,30.0203,-0.03301858,0.38537,0.97498
217.729,30.07405,-0.03204527,0.38517,0.97461
218.329,30.12756,-0.03301398,0.38576,0.97423
218.929,30.18122,-0.03302881,0.38558,0.97385
219.529,30.2349,-0.03366813,0.38588,0.97347
220.129,30.2886,-0.03371505,0.38504,0.9731
220.729,30.3422,-0.02652498,0.38311,0.97271
221.329,30.39573,-0.03678893,0.3861,0.97233
221.929,30.4494,-0.04046538,0.38659,0.97195
222.529,30.50276,-0.03682752,0.38763,0.97157
223.129,30.55615,-0.03408515,0.3877,0.97118
223.729,30.60983,-0.03389999,0.3866,0.9708
224.329,30.66334,-0.0339062,0.38742,0.97041
224.929,30.71691,-0.03422104,0.38855,0.97003
225.529,30.77088,-0.0352782,0.38765,0.96964
226.129,30.82467,-0.03553961,0.38926,0.96925
226.729,30.87844,-0.03636724,0.388,0.96886
227.329,30.93233,-0.0355427,0.38947,0.96847
227.929,30.98579,-0.03420738,0.38853,0.96808
228.529,31.0393,-0.03356088,0.38988,0.96769
229.129,31.0928,-0.03355601,0.38926,0.9673
229.729,31.14648,-0.03488478,0.38932,0.9669
230.329,31.20021,-0.03488,0.38664,0.96651
230.929,31.254,-0.03488,0.38753,0.96612
231.529,31.30759,-0.03487999,0.38927,0.96572
232.129,31.36113,-0.03487467,0.39003,0.96532
232.729,31.4147,-0.03553897,0.39189,0.96493
233.329,31.46834,-0.0355261,0.38982,0.96453
233.929,31.52212,-0.03555078,0.39199,0.96413
234.529,31.57585,-0.03685854,0.39114,0.96373
235.129,31.62953,-0.03685517,0.39161,0.96333
235.729,31.68323,-0.03422132,0.39222,0.96293
236.329,31.7369,-0.03422,0.39147,0.96253
236.929,31.7906,-0.03422,0.39164,0.96212
237.529,31.8443,-0.03422,0.39331,0.96172
238.129,31.89797,-0.03422,0.39174,0.96132
238.729,31.95171,-0.03422,0.39494,0.96091
239.329,32.00542,-0.03421999,0.39203,0.96051
239.929,32.0591,-0.03422306,0.39337,0.9601
240.529,32.1128,-0.03290184,0.39269,0.95969
241.129,32.16664,-0.03281066,0.39282,0.95928
241.729,32.22053,-0.03323781,0.39517,0.95887
242.329,32.2742,-0.0332396,0.39373,0.95846
242.929,32.32798,-0.03402961,0.39423,0.95805
243.529,32.38163,-0.03587499,0.39443,0.95764
244.129,32.4354,-0.03587364,0.39384,0.95723
244.729,32.4893,-0.03455305,0.39413,0.95682
245.329,32.54288,-0.03323343,0.39246,0.9564
245.929,32.59663,-0.03427619,0.3937,0.95599
246.529,32.65045,-0.03455997,0.39551,0.95558
247.129,32.7042,-0.03456,0.3946,0.95516
247.729,32.7579,-0.03331589,0.39426,0.95474
248.329,32.8117,-0.03454989,0.39394,0.95433
248.929,32.86545,-0.03382354,0.39475,0.95391
249.529,32.9192,-0.03355996,0.3953,0.95349
250.129,32.97317,-0.03356,0.39427,0.95307
250.729,33.02702,-0.03356018,0.39535,0.95265
251.329,33.08076,-0.03321608,0.39537,0.95223
251.929,33.1347,-0.03321774,0.39492,0.95181
252.529,33.1886,-0.03390361,0.39562,0.95139
253.129,33.24237,-0.03390001,0.39564,0.95096
253.729,33.29607,-0.03389301,0.39816,0.95054
254.329,33.35,-0.03324001,0.39481,0.95012
254.929,33.40401,-0.03322495,0.3928,0.94969
255.529,33.4581,-0.03257807,0.39622,0.94927
256.129,33.51213,-0.03258,0.39717,0.94884
256.729,33.56592,-0.032581,0.3968,0.94841
257.329,33.61962,-0.03387771,0.39592,0.94798
257.929,33.67345,-0.03389949,0.39589,0.94756
258.529,33.72717,-0.03520214,0.39561,0.94713
259.129,33.781,-0.03483837,0.39504,0.9467
259.729,33.83487,-0.03454975,0.3963,0.94627
260.329,33.88863,-0.03461096,0.39674,0.94584
260.929,33.9426,-0.03323013,0.39524,0.9454
261.529,33.99642,-0.03322999,0.39702,0.94497
262.129,34.05022,-0.03322874,0.39861,0.94454
262.729,34.10409,-0.03355891,0.39993,0.9441
263.329,34.15806,-0.03491657,0.39781,0.94367
263.929,34.21218,-0.03495555,0.39826,0.94323
264.529,34.26625,-0.03486646,0.40025,0.9428
265.129,34.3202,-0.03355956,0.39784,0.94236
265.729,34.37409,-0.03357534,0.39904,0.94193
266.329,34.4281,-0.03421648,0.39952,0.94149
266.929,34.48211,-0.03553848,0.40173,0.94105
267.529,34.53589,-0.03555228,0.40309,0.94061
268.129,34.58972,-0.03554039,0.40219,0.94017
268.729,34.64348,-0.03554,0.40085,0.93973
269.329,34.69742,-0.03554,0.40029,0.93929
269.929,34.7515,-0.03554,0.39877,0.93885
270.529,34.8055,-0.03554703,0.40135,0.93841
271.129,34.85951,-0.03423315,0.401,0.93796
271.729,34.91343,-0.032901,0.39989,0.93752
272.329,34.96741,-0.0328966,0.40073,0.93708
272.929,35.02138,-0.03421121,0.40157,0.93663
273.529,35.07542,-0.03422001,0.39986,0.93619
274.129,35.12956,-0.03422036,0.4014,0.93574
274.729,35.18377,-0.03429881,0.40174,0.93529
275.329,35.23793,-0.03421995,0.39878,0.93485
275.929,35.2921,-0.03421979,0.40155,0.9344
276.529,35.34629,-0.03561152,0.40277,0.93395
277.129,35.40037,-0.03554004,0.4008,0.9335
277.729,35.45454,-0.03605168,0.40028,0.93305
278.329,35.50861,-0.03620004,0.40293,0.9326
278.929,35.5627,-0.0362,0.40214,0.93215
279.529,35.61692,-0.0362,0.40366,0.9317
280.129,35.67106,-0.0362,0.40392,0.93125
280.729,35.72527,-0.0362,0.40274,0.9308
281.329,35.77943,-0.0362,0.40381,0.93034
281.929,35.8335,-0.0362,0.40318,0.92989
282.529,35.88759,-0.03620017,0.40367,0.92944
283.129,35.9417,-0.03584392,0.40396,0.92898
283.729,35.99575,-0.03587707,0.40297,0.92853
284.329,36.04984,-0.03454983,0.40483,0.92807
284.929,36.10398,-0.03670494,0.40373,0.92762
285.529,36.15815,-0.03718018,0.40447,0.92716
286.129,36.21242,-0.03728143,0.40563,0.9267
286.729,36.2667,-0.03720909,0.40779,0.92624
287.329,36.3208,-0.03718,0.40492,0.92578
287.929,36.37509,-0.03717648,0.40784,0.92533
288.529,36.42928,-0.03850649,0.40461,0.92487
289.129,36.48359,-0.03850002,0.40884,0.92441
289.729,36.5379,-0.0385,0.40727,0.92395
290.329,36.5923,-0.0385,0.40532,0.92348
290.929,36.64673,-0.0385,0.40715,0.92302
291.529,36.7012,-0.0385,0.40707,0.92256
292.129,36.75565,-0.0385,0.40692,0.9221
292.729,36.81007,-0.03849999,0.40615,0.92164
293.329,36.86441,-0.03813496,0.40716,0.92117
293.929,36.91875,-0.03817001,0.40612,0.92071
294.529,36.9733,-0.03817242,0.40626,0.92024
295.129,37.0278,-0.03683692,0.40631,0.91978
295.729,37.08228,-0.03685998,0.40779,0.91931
296.329,37.1368,-0.03686099,0.40692,0.91885
296.929,37.19106,-0.0381961,0.40801,0.91838
297.529,37.2455,-0.0380952,0.4077,0.91791
298.129,37.29987,-0.03686012,0.40781,0.91744
298.729,37.35399,-0.03822054,0.40794,0.91698
299.329,37.40885,-0.03822319,0.40798,0.91651
299.929,37.46352,-0.03779512,0.40809,0.91604
300.529,37.51804,-0.03950938,0.40946,0.91557
301.129,37.57291,-0.04077439,0.41086,0.9151
301.729,37.62729,-0.03960963,0.40844,0.91463
302.329,37.68185,-0.03941686,0.40869,0.91416
302.929,37.7365,-0.03817044,0.40797,0.91368
303.529,37.7911,-0.03892423,0.4082,0.91321
304.129,37.8456,-0.03949022,0.41094,0.91274
304.729,37.90032,-0.03949,0.41034,0.91227
305.329,37.95498,-0.03949,0.41154,0.91179
305.929,38.00967,-0.03949002,0.40854,0.91132
306.529,38.0644,-0.03988049,0.41071,0.91084
307.129,38.11892,-0.04080997,0.41159,0.91037
307.729,38.17354,-0.04081264,0.41021,0.90989
308.329,38.22826,-0.03947248,0.41056,0.90942
308.929,38.28297,-0.03948996,0.40911,0.90894
309.529,38.33769,-0.03966266,0.41151,0.90847
310.129,38.39237,-0.040811,0.4117,0.90799
310.729,38.44699,-0.03978274,0.41164,0.90751
311.329,38.50145,-0.03982017,0.41284,0.90703
311.929,38.55623,-0.03819687,0.41228,0.90656
312.529,38.6109,-0.03817574,0.40971,0.90608
313.129,38.66565,-0.03799614,0.41061,0.9056
313.729,38.72043,-0.03748484,0.41072,0.90512
314.329,38.77496,-0.03751671,0.41058,0.90464
314.929,38.8298,-0.03816979,0.4116,0.90416
315.529,38.88458,-0.03817006,0.41406,0.90368
316.129,38.93947,-0.03815515,0.41294,0.9032
316.729,38.99439,-0.03947904,0.41186,0.90271
317.329,39.04905,-0.03948,0.41246,0.90223
317.929,39.10387,-0.03946907,0.41283,0.90175
318.529,39.15862,-0.03903688,0.41415,0.90127
319.129,39.21362,-0.03976561,0.41626,0.90078
319.729,39.26843,-0.03982005,0.41559,0.9003
320.329,39.3232,-0.03916838,0.41562,0.89982
320.929,39.37798,-0.03980961,0.41816,0.89933
321.529,39.43294,-0.03981889,0.41824,0.89885
322.129,39.48806,-0.03851231,0.41726,0.89836
322.729,39.54306,-0.03863563,0.41718,0.89787
323.329,39.59795,-0.03980958,0.42175,0.89739
323.929,39.65272,-0.03978173,0.41802,0.8969
324.529,39.7074,-0.04113192,0.41895,0.89642
325.129,39.76225,-0.04113,0.41912,0.89593
325.729,39.81728,-0.04113,0.42101,0.89544
326.329,39.87229,-0.04112997,0.42074,0.89495
326.929,39.92747,-0.0411773,0.42053,0.89447
327.529,39.9825,-0.03982088,0.42006,0.89398
328.129,40.0375,-0.03982,0.42224,0.89349
328.729,40.09245,-0.03982,0.42044,0.893
329.329,40.14735,-0.03982,0.41991,0.89251
329.929,40.2021,-0.03982,0.42173,0.89202
330.529,40.25693,-0.03982,0.42211,0.89153
331.129,40.31191,-0.03982076,0.42388,0.89104
331.729,40.36699,-0.04094251,0.42317,0.89055
332.329,40.42222,-0.04015114,0.4238,0.89006
332.929,40.47743,-0.04145903,0.42447,0.88956
333.529,40.53268,-0.04145132,0.42506,0.88907
334.129,40.58785,-0.04218117,0.42603,0.88858
334.729,40.643,-0.04212005,0.4261,0.88809
335.329,40.69807,-0.04211994,0.42837,0.88759
335.929,40.75302,-0.04198397,0.42708,0.8871
336.529,40.80818,-0.04079996,0.42776,0.88661
337.129,40.86333,-0.04208298,0.42643,0.88611
337.729,40.91878,-0.04114054,0.42647,0.88562
338.329,40.97397,-0.04014118,0.43112,0.88512
338.929,41.0293,-0.0401407,0.43053,0.88463
339.529,41.08448,-0.04146693,0.4321,0.88413
340.129,41.13973,-0.04113584,0.43126,0.88364
340.729,41.195,-0.04113004,0.4334,0.88314
341.329,41.2502,-0.04113,0.43509,0.88265
341.929,41.3056,-0.04113,0.43383,0.88215
342.529,41.36096,-0.04112973,0.43571,0.88165
343.129,41.41635,-0.03983848,0.43526,0.88116
343.729,41.47166,-0.04087503,0.43493,0.88066
344.329,41.52695,-0.04110613,0.43928,0.88016
344.929,41.5822,-0.04145991,0.44075,0.87967
345.529,41.6376,-0.04224379,0.44092,0.87917
346.129,41.69314,-0.04343728,0.44024,0.87867
346.729,41.74872,-0.04343,0.44195,0.87817
347.329,41.80427,-0.04343,0.44388,0.87767
347.929,41.8598,-0.04343,0.44649,0.87717
348.529,41.91533,-0.04339567,0.44774,0.87667
349.129,41.9708,-0.04376008,0.44651,0.87617
349.729,42.02621,-0.04376,0.44837,0.87567
350.329,42.0815,-0.04376,0.44868,0.87517
350.929,42.13704,-0.04376,0.44915,0.87467
351.529,42.19256,-0.04376,0.45207,0.87417
352.129,42.24819,-0.04376,0.4511,0.87367
352.729,42.3038,-0.04376077,0.4509,0.87317
353.329,42.3594,-0.04505823,0.45424,0.87267
353.929,42.41494,-0.04482049,0.4548,0.87217
354.529,42.47052,-0.04375994,0.45634,0.87166
355.129,42.52615,-0.04364883,0.45624,0.87116
355.729,42.5818,-0.04376668,0.46034,0.87066
356.329,42.63735,-0.0458842,0.45873,0.87016
356.929,42.6931,-0.04605991,0.46151,0.86965
357.529,42.74884,-0.04582672,0.46553,0.86915
358.129,42.8045,-0.04467252,0.46569,0.86865
358.729,42.86018,-0.04639069,0.46526,0.86814
359.329,42.91574,-0.04770594,0.46796,0.86764
359.929,42.97137,-0.04849596,0.4697,0.86714
360.529,43.02695,-0.0506746,0.47013,0.86663
361.129,43.08258,-0.05066993,0.4719,0.86613
361.729,43.13831,-0.04947979,0.47318,0.86562
362.329,43.19409,-0.04936013,0.4761,0.86512
362.929,43.25,-0.04936007,0.47498,0.86461
363.529,43.3058,-0.04806136,0.47947,0.86411
364.129,43.36144,-0.04944693,0.48092,0.8636
364.729,43.41721,-0.05198211,0.48553,0.8631
365.329,43.47286,-0.05186337,0.48525,0.86259
365.929,43.52857,-0.04525774,0.48694,0.86209
366.529,43.58433,-0.05673108,0.49012,0.86158
367.129,43.64,-0.05626989,0.49401,0.86107
367.729,43.69574,-0.05516463,0.49767,0.86057
368.329,43.75162,-0.05627487,0.5018,0.86006
368.929,43.8075,-0.05626956,0.50178,0.85955
369.529,43.86347,-0.05758194,0.50594,0.85905
370.129,43.91944,-0.05889982,0.50956,0.85854
370.729,43.97531,-0.05892505,0.51429,0.85803
371.329,44.03143,-0.06022349,0.51502,0.85752
371.929,44.08732,-0.06222425,0.52073,0.85702
372.529,44.14335,-0.06233551,0.5256,0.85651
373.129,44.19917,-0.06284957,0.52782,0.856
373.729,44.25521,-0.06411125,0.5333,0.85549
374.329,44.31136,-0.06426461,0.53602,0.85498
374.929,44.3674,-0.06548985,0.54042,0.85448
375.529,44.42355,-0.06695287,0.54582,0.85397
376.129,44.4796,-0.068755,0.55239,0.85346
376.729,44.5356,-0.0720509,0.55384,0.85295
377.329,44.5916,-0.0740074,0.5603,0.85244
377.929,44.6476,-0.07528306,0.56574,0.85193
378.529,44.70374,-0.07548877,0.56811,0.85142
379.129,44.75999,-0.07700001,0.57088,0.85091
379.729,44.8164,-0.07915714,0.5737,0.8504
380.329,44.87257,-0.08239198,0.57497,0.84989
380.929,44.92884,-0.08521384,0.57806,0.84938
381.529,44.985,-0.08666382,0.5824,0.84887
382.129,45.04123,-0.08956273,0.59011,0.84836
382.729,45.0974,-0.09156508,0.59681,0.84785
383.329,45.1539,-0.09481486,0.60698,0.84734
383.929,45.2104,-0.09690546,0.61575,0.84683
384.529,45.26682,-0.1013,0.62324,0.84632
385.129,45.32308,-0.10523,0.63289,0.84581
385.729,45.3794,-0.10864,0.64225,0.8453
386.329,45.43566,-0.11224,0.65248,0.84479
386.929,45.49184,-0.11581,0.65913,0.84428
387.529,45.54809,-0.1199,0.66976,0.84376
388.129,45.60447,-0.12311,0.67826,0.84325
388.729,45.6608,-0.13204,0.68858,0.84274
389.329,45.71734,-0.13678,0.69967,0.84223
389.929,45.77367,-0.13301,0.70828,0.84172
390.529,45.83005,-0.14117,0.71944,0.84121
391.129,45.8865,-0.146,0.73206,0.8407
391.729,45.9431,-0.15329,0.74489,0.84018
392.329,45.99943,-0.16006,0.75777,0.83967
392.929,46.0559,-0.16893,0.76768,0.83916
393.529,46.11238,-0.17465,0.78257,0.83865
394.129,46.1689,-0.18111,0.79362,0.83814
394.729,46.22549,-0.18863,0.80981,0.83762
395.329,46.2819,-0.19711,0.82515,0.83711
395.929,46.3384,-0.20493,0.83972,0.8366
396.529,46.39497,-0.2162,0.85182,0.83609
397.129,46.4516,-0.22465,0.87081,0.83557
397.729,46.50817,-0.23276,0.88739,0.83506
398.329,46.56472,-0.24213,0.90493,0.83455
398.929,46.62129,-0.25302,0.92176,0.83404
399.529,46.6777,-0.26146,0.94013,0.83352
400.129,46.73435,-0.2726,0.95806,0.83301
400.729,46.79092,-0.28336,0.97348,0.8325
401.329,46.84755,-0.29547,0.9949,0.83198
401.929,46.90436,-0.30576,1.01767,0.83147
402.529,46.96093,-0.31667,1.03863,0.83096
403.129,47.01774,-0.33368,1.05965,0.83045
403.729,47.0747,-0.35135,1.08668,0.82993
404.329,47.13156,-0.36541,1.11268,0.82942
404.929,47.1886,-0.37914,1.14429,0.82891
405.529,47.2455,-0.3946,1.16646,0.82839
406.129,47.30253,-0.41099,1.19721,0.82788
406.729,47.3596,-0.42928,1.22547,0.82737
407.329,47.41677,-0.45043,1.257,0.82685
407.929,47.47381,-0.47017,1.29046,0.82634
408.529,47.53076,-0.49305,1.31927,0.82583
409.129,47.58784,-0.51986,1.34975,0.82531
409.729,47.6448,-0.53913,1.37865,0.8248
410.329,47.70207,-0.56633,1.40546,0.82429
410.929,47.75913,-0.58929,1.43498,0.82377
411.529,47.81612,-0.61618,1.45561,0.82326
412.129,47.8733,-0.6482,1.48224,0.82275
412.729,47.93026,-0.67889,1.49337,0.82223
413.329,47.98746,-0.70871,1.49541,0.82172
413.929,48.0443,-0.73887,1.50313,0.82121
414.529,48.10115,-0.77038,1.51613,0.82069
415.129,48.1582,-0.8021,1.54596,0.82018
415.729,48.2152,-0.8355,1.57525,0.81967
416.329,48.27243,-0.87046,1.61156,0.81915
416.929,48.32945,-0.90508,1.6357,0.81864
417.529,48.3866,-0.94354,1.62673,0.81813
418.129,48.4437,-0.98259,1.63127,0.81761
418.729,48.50074,-1.02094,1.64082,0.8171
419.329,48.55773,-1.05838,1.66205,0.81659
419.929,48.61465,-1.1023,1.7391,0.81607
420.529,48.6716,-1.14512,1.76403,0.81556
421.129,48.7288,-1.19177,1.79322,0.81505
421.729,48.78593,-1.24048,1.81359,0.81453
422.329,48.84317,-1.28634,1.83587,0.81402
422.929,48.90028,-1.33843,1.84247,0.81351
423.529,48.9574,-1.38686,1.84623,0.81299
424.129,49.0144,-1.44038,1.83345,0.81248
424.729,49.07127,-1.4906,1.81088,0.81197
425.329,49.12834,-1.54026,1.7961,0.81146
425.929,49.18537,-1.59422,1.7721,0.81094
426.529,49.2425,-1.64383,1.7452,0.81043
427.129,49.2996,-1.69671,1.7194,0.80992
427.729,49.3566,-1.74648,1.68822,0.8094
428.329,49.41375,-1.79906,1.663,0.80889
428.929,49.47075,-1.84834,1.649,0.80838
429.529,49.52791,-1.89968,1.61883,0.80787
430.129,49.58502,-1.95249,1.58386,0.80735
430.729,49.64196,-2.00085,1.5545,0.80684
431.329,49.699,-2.05289,1.50274,0.80633
431.929,49.7559,-2.09725,1.43026,0.80582
432.529,49.81285,-2.14507,1.37472,0.8053
433.129,49.86998,-2.18834,1.34474,0.80479
433.729,49.927,-2.23286,1.31008,0.80428
434.329,49.98424,-2.27921,1.28144,0.80377
434.929,50.04121,-2.32112,1.25816,0.80326
435.529,50.0983,-2.36361,1.24356,0.80274
436.129,50.15555,-2.40398,1.21346,0.80223
436.729,50.21268,-2.44552,1.16708,0.80172
437.329,50.26985,-2.48617,1.12817,0.80121
437.929,50.32689,-2.52328,1.08843,0.8007
438.529,50.3838,-2.55944,1.04696,0.80018
439.129,50.44084,-2.59516,1.00945,0.79967
439.729,50.498,-2.63233,0.97653,0.79916
440.329,50.55525,-2.66517,0.93727,0.79865
440.929,50.6124,-2.69649,0.9062,0.79814
441.529,50.66964,-2.7286,0.87679,0.79763
442.129,50.72667,-2.76077,0.84568,0.79712
442.729,50.78386,-2.79148,0.81531,0.79661
443.329,50.8412,-2.81731,0.78789,0.7961
443.929,50.8983,-2.84637,0.75798,0.79559
444.529,50.95554,-2.87315,0.73442,0.79507
445.129,51.01253,-2.89964,0.70574,0.79456
445.729,51.06962,-2.92422,0.68083,0.79405
446.329,51.1266,-2.94599,0.65531,0.79354
446.929,51.1836,-2.96989,0.63368,0.79303
447.529,51.24067,-2.99028,0.60709,0.79252
448.129,51.2978,-3.01186,0.58673,0.79201
448.729,51.35488,-3.03268,0.56408,0.7915
449.329,51.41196,-3.05044,0.53758,0.79099
449.929,51.46893,-3.06789,0.51567,0.79049
450.529,51.5261,-3.08346,0.49163,0.78998
451.129,51.58348,-3.09931,0.47026,0.78947
451.729,51.64074,-3.11384,0.45298,0.78896
452.329,51.698,-3.12783,0.42877,0.78845
452.929,51.75527,-3.14182,0.40983,0.78794
453.529,51.81239,-3.15485,0.39314,0.78743
454.129,51.86976,-3.16496,0.37121,0.78692
454.729,51.92707,-3.17512,0.35463,0.78641
455.329,51.9842,-3.18265,0.33685,0.78591
455.929,52.04143,-3.19316,0.32482,0.7854
456.529,52.0987,-3.20128,0.31096,0.78489
457.129,52.15589,-3.21032,0.29298,0.78438
457.729,52.21334,-3.21838,0.28223,0.78387
458.329,52.27066,-3.22529,0.26773,0.78337
458.929,52.32798,-3.23249,0.25708,0.78286
459.529,52.3855,-3.2388,0.2432,0.78235
460.129,52.4428,-3.24337,0.23315,0.78185
460.729,52.5001,-3.25025,0.22374,0.78134
461.329,52.5577,-3.25719,0.21295,0.78083
461.929,52.6152,-3.26179,0.20287,0.78033
462.529,52.67304,-3.26656,0.19278,0.77982
463.129,52.73075,-3.27089,0.18483,0.77931
463.729,52.78836,-3.27621,0.17242,0.77881
464.329,52.84595,-3.28003,0.1633,0.7783
464.929,52.9035,-3.28685,0.15681,0.77779
465.529,52.96111,-3.29218,0.14316,0.77729
466.129,53.01886,-3.29496,0.13634,0.77678
466.729,53.0765,-3.29716,0.13007,0.77628
467.329,53.1341,-3.30135,0.1199,0.77577
467.929,53.19171,-3.30713,0.11453,0.77527
468.529,53.2495,-3.30896,0.10803,0.77476
469.129,53.30726,-3.31262,0.09764392,0.77426
469.729,53.3651,-3.3155,0.09497255,0.77376
470.329,53.4229,-3.31886,0.0888909,0.77325
470.929,53.4807,-3.32007,0.08343198,0.77275
471.529,53.53839,-3.32408,0.07747837,0.77224
472.129,53.596,-3.32537,0.07214836,0.77174
472.729,53.65336,-3.32681,0.06842546,0.77124
473.329,53.711,-3.33092,0.06361476,0.77073
473.929,53.7688,-3.33113,0.06200839,0.77023
474.529,53.82659,-3.33245,0.05840323,0.76973
475.129,53.8846,-3.33553,0.05605948,0.76923
475.729,53.9424,-3.33745,0.05355779,0.76872
476.329,54.00025,-3.33972,0.0498859,0.76822
476.929,54.05823,-3.34104,0.04791446,0.76772
477.529,54.11623,-3.34234,0.04523836,0.76722
478.129,54.174,-3.34325,0.04457139,0.76672
478.729,54.23177,-3.34517,0.04238536,0.76622
479.329,54.28945,-3.34785,0.0412486,0.76571
479.929,54.34729,-3.34917,0.04066696,0.76521
480.529,54.40512,-3.35151,0.04048867,0.76471
481.129,54.4632,-3.35199,0.03960272,0.76421
481.729,54.5213,-3.35234,0.03993094,0.76371
482.329,54.57934,-3.35365,0.04064065,0.76321
482.929,54.63743,-3.35497,0.03807355,0.76271
483.529,54.6954,-3.35841,0.03674868,0.76221
484.129,54.75339,-3.3607,0.03816613,0.76171
484.729,54.81145,-3.36342,0.03725942,0.76121
485.329,54.86959,-3.36493,0.03702511,0.76072
485.929,54.9277,-3.3656,0.03628063,0.76022
486.529,54.98579,-3.36541,0.03537728,0.75972
487.129,55.04368,-3.36601,0.03326391,0.75922
487.729,55.10148,-3.36605,0.03229048,0.75872
488.329,55.1595,-3.36869,0.03252393,0.75823
488.929,55.21755,-3.37,0.03124351,0.75773
489.529,55.2757,-3.369,0.03086868,0.75723
490.129,55.3339,-3.37056,0.0319582,0.75673
490.729,55.39196,-3.37186,0.03447523,0.75624
491.329,55.44979,-3.37186,0.0349493,0.75574
491.929,55.50786,-3.37309,0.03172072,0.75525
492.529,55.56595,-3.37313,0.03191686,0.75475
493.129,55.62445,-3.37497,0.03526338,0.75425
493.729,55.6825,-3.37459,0.03021343,0.75376
494.329,55.74054,-3.37603,0.0318756,0.75326
494.929,55.7987,-3.37603,0.03336877,0.75277
495.529,55.85711,-3.37722,0.03608842,0.75227
496.129,55.91539,-3.37843,0.03484502,0.75178
496.729,55.97391,-3.3786,0.03271025,0.75129
497.329,56.0321,-3.37998,0.03513477,0.75079
497.929,56.09035,-3.37998,0.03576715,0.7503
498.529,56.1487,-3.37998,0.03670191,0.74981
499.129,56.2071,-3.37998,0.03462204,0.74931
499.729,56.26563,-3.38131,0.03489374,0.74882
500.329,56.32405,-3.38253,0.03705573,0.74833
500.929,56.3823,-3.38359,0.03651657,0.74784
501.529,56.44056,-3.3836,0.03588096,0.74734
502.129,56.4988,-3.38261,0.03441079,0.74685
502.729,56.55721,-3.3826,0.03585013,0.74636
503.329,56.61557,-3.38392,0.03795684,0.74587
503.929,56.67397,-3.38525,0.03816215,0.74538
504.529,56.73235,-3.38525,0.04082186,0.74489
505.129,56.7907,-3.38527,0.04140584,0.7444
505.729,56.8491,-3.38656,0.04289378,0.74391
506.329,56.90744,-3.38656,0.0436323,0.74342
506.929,56.9657,-3.38665,0.04189292,0.74293
507.529,57.02404,-3.38863,0.04070428,0.74244
508.129,57.08254,-3.3892,0.04069448,0.74195
508.729,57.14136,-3.3892,0.04182312,0.74146
509.329,57.19993,-3.38548,0.04155897,0.74097
509.929,57.2584,-3.38512,0.04137491,0.74049
510.529,57.3169,-3.39129,0.04703957,0.74
511.129,57.3753,-3.3956,0.04533216,0.73951
511.729,57.4339,-3.39319,0.0467723,0.73903
512.329,57.4924,-3.39194,0.04331098,0.73854
512.929,57.5507,-3.39266,0.04573704,0.73805
513.529,57.6091,-3.39725,0.0460891,0.73757
514.129,57.6677,-3.3936,0.04474863,0.73708
514.729,57.7262,-3.39083,0.04419164,0.7366
515.329,57.7848,-3.39074,0.04314666,0.73611
515.929,57.8434,-3.39208,0.04507858,0.73563
516.529,57.9019,-3.3948,0.04580775,0.73514
517.129,57.96031,-3.39581,0.04382308,0.73466
517.729,58.01882,-3.39734,0.04499534,0.73417
518.329,58.07708,-3.39871,0.04477518,0.73369
518.929,58.13545,-3.39843,0.04865396,0.73321
519.529,58.19395,-3.39879,0.04859255,0.73272
520.129,58.25246,-3.39874,0.0504058,0.73224
520.729,58.311,-3.39874,0.04846697,0.73176
521.329,58.3696,-3.39874,0.0477863,0.73128
521.929,58.4281,-3.39874,0.05029086,0.73079
522.529,58.4868,-3.39745,0.05013549,0.73031
523.129,58.54544,-3.39742,0.04821703,0.72983
523.729,58.60403,-3.39797,0.04704009,0.72935
524.329,58.6626,-3.40005,0.04857714,0.72887
524.929,58.72101,-3.40004,0.05001165,0.72839
525.529,58.77955,-3.40137,0.04946526,0.72791
526.129,58.8383,-3.40262,0.04865317,0.72743
526.729,58.8971,-3.40269,0.04759988,0.72695
527.329,58.9559,-3.40269,0.04987425,0.72647
527.929,59.01444,-3.40048,0.04709331,0.726
528.529,59.07301,-3.40002,0.04675549,0.72552
529.129,59.13169,-3.40606,0.04976859,0.72504
529.729,59.19045,-3.40088,0.04913655,0.72456
530.329,59.24935,-3.39983,0.04832196,0.72409
530.929,59.3081,-3.40165,0.04884925,0.72361
531.529,59.36676,-3.40362,0.05167329,0.72313
532.129,59.42553,-3.40389,0.04882287,0.72266
532.729,59.48434,-3.40522,0.04757137,0.72218
533.329,59.54308,-3.40404,0.05145898,0.72171
533.929,59.60194,-3.40519,0.05242803,0.72123
534.529,59.6609,-3.40653,0.05120396,0.72076
535.129,59.7197,-3.40521,0.05041047,0.72028
535.729,59.77853,-3.40389,0.05021245,0.71981
536.329,59.8373,-3.40526,0.05019594,0.71934
536.929,59.89614,-3.4066,0.05270416,0.71886
537.529,59.95494,-3.40644,0.05457466,0.71839
538.129,60.01359,-3.40655,0.05173501,0.71792
538.729,60.07212,-3.40649,0.05120678,0.71745
539.329,60.13077,-3.40753,0.05211976,0.71698
539.929,60.18959,-3.40652,0.05322403,0.7165
540.529,60.24855,-3.40652,0.05317809,0.71603
541.129,60.3077,-3.40927,0.05169426,0.71556
541.729,60.3666,-3.40984,0.04828509,0.71509
542.329,60.4255,-3.40561,0.04947195,0.71462
542.929,60.4843,-3.40694,0.05271538,0.71415
543.529,60.5429,-3.4121,0.05309019,0.71368
544.129,60.60196,-3.41083,0.05251413,0.71322
544.729,60.66106,-3.40948,0.05185453,0.71275
545.329,60.7202,-3.41091,0.05494619,0.71228
545.929,60.7792,-3.41091,0.05228939,0.71181
546.529,60.8381,-3.4096,0.05168832,0.71134
547.129,60.89702,-3.40958,0.0507412,0.71088
547.729,60.9558,-3.41091,0.05114345,0.71041
548.329,61.0147,-3.41091,0.05002772,0.70995
548.929,61.07365,-3.41087,0.05054382,0.70948
549.529,61.1327,-3.40961,0.05196942,0.70901
550.129,61.1918,-3.41091,0.05253525,0.70855
550.729,61.25062,-3.41091,0.05435143,0.70809
551.329,61.3096,-3.41189,0.05219354,0.70762
551.929,61.36849,-3.41321,0.05300454,0.70716
552.529,61.4273,-3.41321,0.05089816,0.70669
553.129,61.4863,-3.41449,0.05199795,0.70623
553.729,61.54532,-3.41452,0.05121651,0.70577
554.329,61.60431,-3.41473,0.05118335,0.70531
554.929,61.6632,-3.41438,0.05125429,0.70484
555.529,61.72215,-3.41322,0.05370723,0.70438
556.129,61.78115,-3.41449,0.05052548,0.70392
556.729,61.84025,-3.41323,0.05197193,0.70346
557.329,61.89934,-3.41322,0.04891616,0.703
557.929,61.95831,-3.41595,0.04866439,0.70254
558.529,62.0175,-3.41607,0.04835726,0.70208
559.129,62.0766,-3.41607,0.04890217,0.70162
559.729,62.1357,-3.41597,0.05016515,0.70116
560.329,62.19466,-3.41605,0.05337513,0.70071
560.929,62.2538,-3.41606,0.04965213,0.70025
561.529,62.31298,-3.41721,0.04983989,0.69979
562.129,62.37206,-3.41885,0.04891682,0.69933
562.729,62.4313,-3.42001,0.04808723,0.69888
563.329,62.49052,-3.42001,0.04970255,0.69842
563.929,62.54962,-3.42036,0.05067572,0.69797
564.529,62.6087,-3.42132,0.04790986,0.69751
565.129,62.66769,-3.421,0.05006112,0.69706
565.729,62.7264,-3.4212,0.04832913,0.6966
566.329,62.78547,-3.42219,0.04973519,0.69615
566.929,62.8446,-3.42361,0.05091693,0.69569
567.529,62.9041,-3.42222,0.0482609,0.69524
568.129,62.9633,-3.42188,0.04945129,0.69479
568.729,63.0224,-3.42188,0.05120491,0.69433
569.329,63.0816,-3.42187,0.0477122,0.69388
569.929,63.14095,-3.42219,0.05306623,0.69343
570.529,63.2002,-3.4222,0.04960618,0.69298
571.129,63.25956,-3.4222,0.04878733,0.69253
571.729,63.3189,-3.42352,0.04898731,0.69208
572.329,63.37835,-3.42351,0.04760735,0.69163
572.929,63.43772,-3.42186,0.04851823,0.69118
573.529,63.49695,-3.42174,0.04587751,0.69073
574.129,63.55607,-3.42198,0.04604876,0.69028
574.729,63.6153,-3.42454,0.04860221,0.68983
575.329,63.6738,-3.42593,0.04642828,0.68939
575.929,63.7331,-3.42593,0.04642899,0.68894
576.529,63.79234,-3.42593,0.04816574,0.68849
577.129,63.85165,-3.42596,0.04686192,0.68804
577.729,63.91106,-3.42462,0.04175294,0.6876
578.329,63.96999,-3.42725,0.04336876,0.68715
578.929,64.02935,-3.42725,0.0431486,0.68671
579.529,64.08878,-3.42727,0.04052635,0.68626
580.129,64.14836,-3.42693,0.0424477,0.68582
580.729,64.20784,-3.42693,0.04097052,0.68537
581.329,64.26723,-3.42725,0.04080888,0.68493
581.929,64.32651,-3.42725,0.04038635,0.68449
582.529,64.3858,-3.42715,0.03988861,0.68404
583.129,64.44497,-3.42857,0.04193074,0.6836
583.729,64.50429,-3.42856,0.04163917,0.68316
584.329,64.56365,-3.42957,0.04021138,0.68272
584.929,64.6231,-3.43089,0.03861082,0.68228
585.529,64.68258,-3.43088,0.03939713,0.68184
586.129,64.74209,-3.432,0.03863612,0.6814
586.729,64.80145,-3.43219,0.04011643,0.68096
587.329,64.86077,-3.43219,0.04204466,0.68052
587.929,64.92027,-3.43219,0.04235864,0.68008
588.529,64.97969,-3.43352,0.04156942,0.67964
589.129,65.03908,-3.43351,0.04391494,0.6792
589.729,65.09869,-3.43351,0.0419869,0.67877
590.329,65.15819,-3.4335,0.04472939,0.67833
590.929,65.21765,-3.43474,0.04540793,0.67789
591.529,65.27724,-3.43629,0.04702549,0.67746
592.129,65.3366,-3.43688,0.05039496,0.67702
592.729,65.3961,-3.4368,0.04736125,0.67659
593.329,65.4555,-3.4368,0.0490576,0.67615
593.929,65.515,-3.4368,0.04751361,0.67572
594.529,65.5745,-3.43629,0.05189926,0.67528
595.129,65.63391,-3.43614,0.05545093,0.67485
595.729,65.69351,-3.43614,0.05555786,0.67442
596.329,65.75299,-3.43614,0.05741913,0.67399
596.929,65.8125,-3.43615,0.05691087,0.67355
597.529,65.87206,-3.43748,0.05948261,0.67312
598.129,65.93164,-3.43746,0.06416231,0.67269
598.729,65.99122,-3.43877,0.06372731,0.67226
599.329,66.0509,-3.43877,0.0637067,0.67183
599.929,66.1103,-3.43745,0.06237321,0.6714
600.529,66.16975,-3.43745,0.06276971,0.67097
601.129,66.22932,-3.43873,0.0627821,0.67054
601.729,66.289,-3.43877,0.06041028,0.67011
602.329,66.34873,-3.43877,0.06242158,0.66969
602.929,66.40859,-3.43877,0.05912412,0.66926
603.529,66.4683,-3.43877,0.05886203,0.66883
604.129,66.5279,-3.44008,0.06213379,0.6684
604.729,66.58744,-3.44033,0.06147094,0.66798
605.329,66.64705,-3.44151,0.06162874,0.66755
605.929,66.70662,-3.4428,0.06105845,0.66713
606.529,66.76637,-3.44283,0.06147987,0.6667
607.129,66.82606,-3.44284,0.06220902,0.66628
607.729,66.88583,-3.44284,0.05852623,0.66586
608.329,66.94575,-3.44283,0.06108901,0.66543
608.929,67.00556,-3.44298,0.06017013,0.66501
609.529,67.06534,-3.44348,0.05814662,0.66459
610.129,67.1251,-3.44348,0.05860795,0.66417
610.729,67.18468,-3.44348,0.05520774,0.66374
611.329,67.24446,-3.44349,0.05549661,0.66332
611.929,67.30416,-3.4425,0.05371783,0.6629
612.529,67.36374,-3.44383,0.05254427,0.66248
613.129,67.42349,-3.44392,0.05209108,0.66206
613.729,67.48334,-3.44644,0.05095255,0.66164
614.329,67.54294,-3.44644,0.05232704,0.66123
614.929,67.60262,-3.44703,0.05296514,0.66081
615.529,67.66239,-3.44776,0.05100982,0.66039
616.129,67.72198,-3.44735,0.04849831,0.65997
616.729,67.78157,-3.44542,0.04912313,0.65956
617.329,67.8412,-3.44621,0.04776725,0.65914
617.929,67.90075,-3.44645,0.05142984,0.65872
618.529,67.96045,-3.44513,0.05009477,0.65831
619.129,68.0201,-3.44513,0.05136031,0.65789
619.729,68.07995,-3.44513,0.051068,0.65748
620.329,68.1399,-3.44645,0.0517031,0.65707
620.929,68.19974,-3.44777,0.05144831,0.65665
621.529,68.2596,-3.44777,0.05294914,0.65624
622.129,68.3193,-3.44908,0.05157483,0.65583
622.729,68.379,-3.44908,0.0532619,0.65542
623.329,68.43874,-3.44781,0.05092504,0.655
623.929,68.4984,-3.44776,0.04847213,0.65459
624.529,68.55838,-3.44776,0.04917027,0.65418
625.129,68.61829,-3.44776,0.04985416,0.65377
625.729,68.6782,-3.44776,0.05271905,0.65336
626.329,68.73804,-3.449,0.05160143,0.65296
626.929,68.79782,-3.44908,0.05161802,0.65255
627.529,68.85768,-3.44908,0.05164786,0.65214
628.129,68.91766,-3.45042,0.05299647,0.65173
628.729,68.97755,-3.4504,0.05308592,0.65132
629.329,69.0377,-3.4504,0.04987083,0.65092
629.929,69.0976,-3.4504,0.04906448,0.65051
630.529,69.15756,-3.45038,0.05155778,0.65011
631.129,69.21755,-3.45171,0.05348626,0.6497
631.729,69.2774,-3.45171,0.05225477,0.6493
632.329,69.3372,-3.45171,0.0528254,0.64889
632.929,69.3969,-3.45171,0.05024855,0.64849
633.529,69.45674,-3.45171,0.05235717,0.64808
634.129,69.5166,-3.45171,0.05424676,0.64768
634.729,69.57679,-3.45233,0.05333042,0.64728
635.329,69.63691,-3.45164,0.05239039,0.64688
635.929,69.69695,-3.45269,0.05639676,0.64648
636.529,69.75697,-3.4527,0.0576499,0.64608
637.129,69.81691,-3.4527,0.05796216,0.64568
637.729,69.87714,-3.4527,0.05576601,0.64528
638.329,69.93695,-3.4527,0.05407766,0.64488
638.929,69.99656,-3.45379,0.05492531,0.64448