File: 01_Data/Masonite_Board/MCC/Masonite_Board_30K_min_211025_R3.txt
Sample ID:	C:\MCC\MCC Cal\Test\Masonite_Board_30K_min_211023_R3.txt
Sample Weight (mg):	4.63
Heating Rate (C/s):	0.5
Combustor Temp (C):	900
N2 Flow Rate (cc/min):	80
O2 Flow Rate (cc/min):	20
Calibration File:	C:\MCC\MCC Cal\Coeff1 JN10440_30_210304.txt.txt
T Correction Coefficients:	0	1.024463	0
Time Shift (s):	14
*
Time (s)	Temperature (C)	N2 flow rate (cc/min)	O2 flow rate (cc/min)	Flow Rate (cc/min)	Oxygen (%)	HRR (W/g)	Heating rate (C/s)
0.000	107.751	80.000	19.995	103.006	20.064	-0.105	-0.009
2.000	107.757	80.000	19.995	103.003	20.068	-0.358	0.033
4.000	107.747	80.001	19.996	103.004	20.065	-0.158	0.029
6.000	107.722	80.002	19.996	103.003	20.063	-0.038	0.016
8.001	107.726	80.000	19.994	103.010	20.061	0.141	-0.015
10.000	107.764	80.001	19.996	103.003	20.064	-0.086	0.009
12.000	107.728	79.999	19.996	103.001	20.066	-0.208	-0.009
14.000	107.759	79.998	19.996	103.001	20.063	0.011	0.006
16.000	107.751	79.998	19.996	103.001	20.064	-0.040	-0.003
18.000	107.732	79.999	19.995	103.002	20.064	-0.067	0.012
20.000	107.725	79.999	19.996	103.001	20.062	0.072	0.016
22.000	107.761	79.999	19.995	103.003	20.065	-0.147	0.000
24.000	107.714	79.999	19.996	103.002	20.064	-0.042	-0.006
26.000	107.714	79.997	19.997	103.002	20.064	-0.071	-0.005
28.000	107.724	79.997	19.996	103.002	20.064	-0.107	0.008
30.000	107.716	79.998	19.996	103.005	20.065	-0.151	-0.007
32.000	107.724	79.997	19.996	103.004	20.063	-0.017	-0.024
34.000	107.746	79.998	19.996	103.004	20.061	0.141	0.007
36.001	107.702	79.997	19.996	103.008	20.059	0.246	-0.003
38.001	107.695	79.997	19.996	103.105	20.047	1.134	-0.021
40.001	107.759	79.998	19.996	103.187	20.038	1.707	0.041
42.000	107.828	79.997	19.996	103.211	20.035	1.927	0.045
44.000	108.005	79.997	19.996	103.213	20.031	2.202	0.100
46.000	108.161	79.997	19.994	103.218	20.026	2.551	0.081
48.000	108.343	79.995	19.996	103.219	20.031	2.221	0.083
50.000	108.573	79.997	19.995	103.219	20.031	2.214	0.122
52.000	108.848	79.997	19.995	103.210	20.030	2.282	0.133
54.000	109.117	79.998	19.995	103.209	20.028	2.403	0.155
56.001	109.456	79.998	19.996	103.215	20.027	2.523	0.161
58.000	109.773	79.999	19.996	103.219	20.025	2.640	0.188
60.001	110.166	79.998	19.994	103.238	20.022	2.844	0.196
62.001	110.579	79.999	19.995	103.235	20.021	2.884	0.189
64.000	110.998	80.000	19.996	103.223	20.020	2.997	0.208
66.000	111.421	79.999	19.996	103.235	20.025	2.610	0.211
68.000	111.892	79.998	19.996	103.234	20.021	2.923	0.238
70.000	112.369	80.000	19.995	103.240	20.023	2.764	0.241
72.000	112.873	79.998	19.995	103.238	20.022	2.829	0.271
74.000	113.380	79.998	19.994	103.249	20.023	2.784	0.290
76.001	113.913	79.999	19.995	103.253	20.020	2.965	0.286
78.000	114.490	79.999	19.995	103.254	20.016	3.271	0.279
80.000	115.094	79.998	19.994	103.252	20.020	2.973	0.294
82.000	115.699	80.000	19.995	103.250	20.015	3.350	0.312
84.000	116.292	80.000	19.995	103.262	20.016	3.267	0.317
86.001	116.924	80.001	19.994	103.273	20.018	3.149	0.323
88.000	117.632	79.999	19.995	103.269	20.019	3.044	0.332
90.000	118.273	80.001	19.995	103.228	20.028	2.427	0.314
92.000	118.881	79.999	19.996	103.063	20.043	1.354	0.286
94.000	119.500	79.999	19.995	102.983	20.051	0.829	0.293
96.000	120.029	79.998	19.996	102.967	20.056	0.497	0.270
98.000	120.525	79.997	19.996	102.964	20.064	-0.082	0.257
100.000	120.994	79.996	19.997	102.964	20.069	-0.400	0.229
102.000	121.365	79.997	19.997	102.967	20.070	-0.486	0.168
104.001	121.740	79.998	19.996	102.966	20.076	-0.932	0.177
106.000	122.057	79.999	19.996	102.964	20.073	-0.669	0.144
108.000	122.385	79.999	19.996	102.964	20.076	-0.929	0.129
110.000	122.637	79.998	19.995	102.964	20.078	-1.050	0.117
112.000	122.895	79.998	19.996	102.959	20.079	-1.100	0.129
114.000	123.082	79.999	19.995	102.966	20.076	-0.924	0.100
116.000	123.230	79.999	19.996	102.966	20.072	-0.656	0.098
118.000	123.382	79.999	19.995	102.998	20.057	0.432	0.064
120.000	123.553	79.998	19.996	103.251	20.041	1.530	0.083
122.000	123.795	79.998	19.996	103.355	20.025	2.646	0.108
124.001	124.136	79.998	19.997	103.367	20.017	3.170	0.175
126.000	124.561	79.998	19.996	103.373	20.011	3.601	0.231
128.000	125.006	79.999	19.998	103.359	20.007	3.871	0.231
130.000	125.534	79.997	19.997	103.352	20.004	4.079	0.307
132.000	126.115	79.998	19.996	103.352	20.006	3.940	0.267
134.000	126.769	79.998	19.997	103.347	20.006	3.994	0.316
136.000	127.418	79.999	19.995	103.327	20.007	3.923	0.348
138.000	128.145	79.999	19.996	103.315	20.004	4.104	0.347
140.000	128.907	80.000	19.995	103.315	20.005	4.043	0.375
142.000	129.674	80.000	19.996	103.314	20.006	3.978	0.407
144.000	130.453	80.000	19.996	103.319	20.003	4.169	0.389
146.000	131.285	80.000	19.995	103.326	20.007	3.896	0.426
148.000	132.115	80.000	19.995	103.319	20.007	3.919	0.404
150.000	133.020	80.000	19.996	103.312	20.008	3.828	0.412
152.000	133.908	79.998	19.996	103.314	20.006	3.964	0.434
154.001	134.839	79.999	19.996	103.307	20.005	4.026	0.448
156.000	135.793	80.000	19.996	103.307	20.008	3.824	0.475
158.001	136.781	80.000	19.996	103.315	20.013	3.485	0.494
160.000	137.710	79.998	19.996	103.303	20.009	3.766	0.475
162.000	138.757	79.999	19.996	103.305	20.008	3.819	0.499
164.000	139.722	80.001	19.995	103.318	20.006	3.942	0.536
166.000	140.754	80.001	19.996	103.329	20.007	3.884	0.505
168.000	141.846	80.001	19.995	103.335	20.002	4.209	0.538
170.000	142.897	80.001	19.994	103.330	20.002	4.255	0.542
172.001	144.069	80.001	19.995	103.329	20.003	4.179	0.572
174.000	145.191	80.000	19.994	103.319	20.003	4.180	0.576
176.000	146.284	80.001	19.995	103.324	20.001	4.328	0.555
178.000	147.432	79.999	19.994	103.316	20.003	4.189	0.597
180.000	148.609	79.999	19.994	103.318	20.002	4.249	0.593
182.000	149.762	79.998	19.994	103.319	20.006	3.964	0.586
184.000	150.901	79.998	19.994	103.312	20.007	3.880	0.573
186.000	152.102	79.998	19.995	103.313	20.008	3.858	0.600
188.000	153.306	79.998	19.995	103.307	20.007	3.917	0.582
190.000	154.479	79.998	19.996	103.302	20.010	3.680	0.582
192.000	155.697	79.998	19.996	103.310	20.011	3.650	0.630
194.000	156.838	79.997	19.996	103.306	20.011	3.623	0.612
196.000	158.054	79.998	19.996	103.295	20.013	3.477	0.627
198.000	159.227	79.998	19.996	103.294	20.014	3.433	0.612
200.000	160.422	79.998	19.995	103.279	20.014	3.374	0.585
202.000	161.627	79.998	19.996	103.275	20.017	3.190	0.595
204.000	162.860	79.999	19.996	103.274	20.016	3.250	0.608
206.000	164.071	79.999	19.996	103.270	20.015	3.330	0.597
208.000	165.253	79.998	19.995	103.261	20.018	3.114	0.593
210.000	166.393	79.998	19.995	103.259	20.017	3.184	0.585
212.000	167.590	79.997	19.996	103.264	20.019	3.079	0.567
214.000	168.816	79.997	19.996	103.257	20.018	3.144	0.591
216.000	169.957	79.998	19.995	103.254	20.019	3.060	0.600
218.000	171.122	79.997	19.997	103.249	20.019	3.035	0.572
220.000	172.306	79.998	19.997	103.245	20.018	3.108	0.597
222.000	173.467	79.999	19.998	103.240	20.019	3.058	0.594
224.000	174.591	80.000	19.995	103.238	20.021	2.905	0.576
226.000	175.722	80.000	19.997	103.234	20.018	3.117	0.566
228.000	176.877	80.001	19.996	103.236	20.019	3.090	0.583
230.000	177.981	80.000	19.995	103.236	20.021	2.951	0.588
232.000	179.127	80.001	19.994	103.232	20.023	2.810	0.533
234.000	180.224	80.000	19.994	103.238	20.022	2.834	0.563
236.000	181.296	79.999	19.995	103.239	20.024	2.705	0.576
238.000	182.405	79.998	19.995	103.237	20.021	2.899	0.578
240.000	183.487	79.999	19.994	103.238	20.022	2.859	0.528
242.000	184.575	79.999	19.995	103.237	20.021	2.887	0.527
244.000	185.724	80.000	19.995	103.236	20.020	2.975	0.589
246.000	186.772	79.999	19.994	103.234	20.023	2.753	0.533
248.000	187.827	80.000	19.995	103.231	20.021	2.885	0.536
250.000	188.906	80.000	19.995	103.214	20.022	2.815	0.527
252.000	189.915	80.000	19.996	103.208	20.021	2.927	0.538
254.000	190.991	80.002	19.994	103.215	20.019	3.036	0.554
256.000	191.977	80.000	19.995	103.199	20.023	2.771	0.500
258.000	193.042	79.998	19.995	103.205	20.024	2.698	0.528
260.000	194.058	79.998	19.995	103.215	20.025	2.664	0.509
262.000	195.066	79.999	19.995	103.203	20.017	3.162	0.521
264.000	196.094	79.998	19.995	103.203	20.018	3.099	0.505
266.000	197.075	79.999	19.994	103.201	20.020	3.017	0.493
268.000	198.048	79.999	19.996	103.204	20.021	2.944	0.502
270.000	199.038	79.997	19.996	103.206	20.020	2.958	0.482
272.000	200.041	79.999	19.996	103.201	20.018	3.122	0.488
274.000	200.985	79.998	19.994	103.202	20.024	2.702	0.464
276.001	201.977	79.999	19.995	103.207	20.021	2.924	0.492
278.000	202.922	79.998	19.996	103.215	20.022	2.841	0.467
280.000	203.902	79.998	19.996	103.200	20.022	2.859	0.507
282.000	204.862	79.999	19.996	103.220	20.020	2.994	0.512
284.000	205.870	79.998	19.996	103.213	20.019	3.063	0.509
286.000	206.816	79.998	19.995	103.207	20.018	3.107	0.472
288.000	207.782	79.997	19.996	103.208	20.018	3.154	0.492
290.000	208.803	79.998	19.996	103.208	20.018	3.122	0.471
292.000	209.723	79.997	19.995	103.209	20.020	2.989	0.501
294.000	210.672	79.997	19.997	103.207	20.019	3.076	0.493
296.000	211.649	79.998	19.996	103.211	20.018	3.160	0.481
298.000	212.587	79.998	19.996	103.208	20.016	3.237	0.474
300.000	213.563	79.998	19.995	103.201	20.016	3.238	0.492
302.000	214.546	79.999	19.996	103.215	20.015	3.357	0.467
304.001	215.510	80.000	19.995	103.202	20.012	3.565	0.483
306.000	216.459	80.000	19.997	103.202	20.013	3.495	0.480
308.000	217.449	79.999	19.996	103.203	20.012	3.540	0.487
310.000	218.418	79.999	19.996	103.205	20.012	3.563	0.451
312.000	219.402	79.998	19.996	103.201	20.011	3.632	0.501
314.000	220.328	79.998	19.997	103.213	20.007	3.882	0.495
316.000	221.320	79.999	19.996	103.214	20.009	3.760	0.514
318.000	222.262	79.998	19.996	103.204	20.008	3.815	0.491
320.000	223.258	79.998	19.996	103.199	20.005	4.027	0.495
322.000	224.191	79.997	19.996	103.203	20.009	3.775	0.494
324.000	225.165	79.999	19.995	103.205	20.005	4.060	0.489
326.000	226.163	79.999	19.995	103.206	20.001	4.310	0.510
328.000	227.074	80.000	19.995	103.207	20.000	4.346	0.456
330.000	228.099	80.001	19.995	103.214	19.999	4.445	0.492
332.000	229.065	80.000	19.994	103.200	20.000	4.360	0.475
334.000	230.055	80.001	19.995	103.202	20.002	4.268	0.477
336.000	231.040	80.001	19.996	103.208	19.999	4.474	0.508
338.000	232.014	80.001	19.994	103.221	19.997	4.568	0.507
340.000	232.979	79.998	19.995	103.210	19.993	4.849	0.471
342.000	233.923	79.998	19.994	103.207	19.991	5.015	0.492
344.000	234.915	79.999	19.996	103.223	19.987	5.290	0.504
346.000	235.903	79.999	19.997	103.211	19.986	5.347	0.493
348.000	236.884	79.998	19.996	103.220	19.984	5.470	0.486
350.000	237.867	79.998	19.996	103.227	19.981	5.713	0.466
352.000	238.815	79.999	19.995	103.229	19.981	5.681	0.467
354.000	239.758	79.999	19.996	103.229	19.979	5.829	0.468
356.000	240.740	79.998	19.995	103.218	19.977	6.005	0.488
358.000	241.701	79.998	19.995	103.226	19.976	6.051	0.463
360.000	242.691	79.999	19.995	103.218	19.973	6.280	0.484
362.000	243.703	79.998	19.995	103.212	19.968	6.618	0.506
364.000	244.644	79.999	19.995	103.224	19.968	6.618	0.474
366.000	245.654	79.998	19.995	103.228	19.966	6.719	0.480
368.000	246.666	79.998	19.996	103.226	19.966	6.769	0.499
370.000	247.614	79.998	19.994	103.234	19.959	7.212	0.475
372.000	248.566	79.997	19.996	103.229	19.961	7.061	0.488
374.000	249.583	79.997	19.996	103.234	19.956	7.411	0.487
376.000	250.574	79.997	19.995	103.234	19.951	7.806	0.489
378.000	251.594	79.998	19.996	103.236	19.947	8.100	0.527
380.000	252.564	79.998	19.996	103.236	19.946	8.143	0.454
382.000	253.591	79.998	19.995	103.234	19.940	8.550	0.515
384.000	254.477	80.001	19.995	103.231	19.939	8.607	0.451
386.000	255.529	80.000	19.996	103.229	19.933	9.050	0.481
388.000	256.491	80.001	19.995	103.232	19.927	9.468	0.467
390.000	257.481	80.000	19.995	103.236	19.924	9.656	0.468
392.001	258.474	80.000	19.995	103.238	19.921	9.905	0.495
394.000	259.481	80.000	19.996	103.237	19.915	10.296	0.489
396.000	260.424	79.999	19.996	103.238	19.908	10.781	0.473
398.000	261.416	80.000	19.996	103.237	19.903	11.125	0.496
400.000	262.364	80.000	19.997	103.244	19.896	11.639	0.475
402.000	263.368	79.999	19.997	103.249	19.889	12.094	0.494
404.000	264.387	80.000	19.996	103.249	19.885	12.358	0.478
406.000	265.397	79.999	19.997	103.247	19.874	13.144	0.497
408.000	266.347	80.000	19.996	103.245	19.869	13.528	0.482
410.000	267.357	80.000	19.997	103.251	19.860	14.093	0.475
412.000	268.326	80.000	19.995	103.254	19.851	14.766	0.499
414.000	269.325	80.002	19.995	103.250	19.843	15.291	0.496
416.000	270.299	80.001	19.996	103.258	19.837	15.709	0.490
418.000	271.363	80.000	19.995	103.262	19.826	16.462	0.521
420.000	272.312	79.999	19.995	103.264	19.822	16.794	0.467
422.000	273.308	79.998	19.995	103.270	19.812	17.441	0.472
424.000	274.301	79.998	19.995	103.278	19.804	18.036	0.485
426.000	275.249	79.998	19.995	103.279	19.795	18.646	0.479
428.000	276.287	79.998	19.994	103.278	19.782	19.530	0.530
430.000	277.284	79.998	19.994	103.289	19.777	19.901	0.486
432.000	278.278	79.997	19.995	103.292	19.769	20.462	0.522
434.000	279.281	79.998	19.996	103.300	19.759	21.127	0.493
436.000	280.302	79.997	19.994	103.309	19.751	21.720	0.481
438.000	281.283	79.998	19.994	103.310	19.742	22.356	0.503
440.000	282.262	79.998	19.995	103.314	19.733	22.973	0.478
442.000	283.261	79.997	19.995	103.311	19.721	23.792	0.492
444.000	284.258	79.999	19.994	103.308	19.718	24.006	0.476
446.000	285.287	79.997	19.994	103.311	19.710	24.582	0.506
448.000	286.292	79.999	19.995	103.291	19.703	25.073	0.484
450.000	287.255	79.998	19.996	103.303	19.693	25.771	0.469
452.000	288.270	79.997	19.996	103.311	19.687	26.139	0.520
454.000	289.261	79.999	19.996	103.311	19.684	26.400	0.514
456.000	290.228	79.998	19.995	103.313	19.679	26.732	0.521
458.000	291.303	79.998	19.996	103.314	19.671	27.305	0.550
460.000	292.299	79.999	19.995	103.314	19.666	27.640	0.506
462.000	293.332	79.998	19.997	103.314	19.657	28.236	0.522
464.000	294.316	79.999	19.995	103.313	19.654	28.474	0.501
466.000	295.381	79.999	19.995	103.314	19.651	28.662	0.507
468.000	296.382	79.999	19.996	103.313	19.645	29.078	0.507
470.001	297.363	79.999	19.996	103.315	19.641	29.382	0.472
472.000	298.404	80.000	19.996	103.309	19.641	29.344	0.511
474.000	299.436	79.999	19.996	103.306	19.637	29.627	0.535
476.000	300.427	79.999	19.996	103.314	19.631	30.085	0.470
478.000	301.444	79.998	19.996	103.316	19.631	30.050	0.477
480.000	302.488	79.999	19.996	103.314	19.626	30.451	0.511
482.000	303.483	79.998	19.994	103.315	19.624	30.588	0.489
484.000	304.516	79.999	19.995	103.317	19.620	30.856	0.488
486.000	305.534	79.999	19.996	103.320	19.617	31.059	0.498
488.000	306.566	79.999	19.996	103.331	19.616	31.150	0.515
490.000	307.555	79.999	19.995	103.316	19.610	31.534	0.507
492.000	308.603	80.000	19.996	103.316	19.606	31.826	0.519
494.000	309.558	79.999	19.996	103.322	19.604	31.921	0.528
496.000	310.678	80.001	19.996	103.318	19.601	32.153	0.495
498.000	311.819	79.999	19.996	103.320	19.596	32.520	0.587
500.000	312.582	79.998	19.995	103.320	19.591	32.875	0.625
502.000	313.634	79.999	19.996	103.321	19.588	33.085	0.425
504.000	314.654	79.997	19.995	103.316	19.583	33.443	0.451
506.000	315.698	79.998	19.996	103.326	19.579	33.711	0.426
508.000	316.728	79.998	19.995	103.338	19.572	34.170	0.508
510.000	317.727	79.996	19.995	103.325	19.568	34.461	0.485
512.000	318.721	79.998	19.994	103.317	19.565	34.652	0.501
514.000	319.725	79.998	19.995	103.331	19.557	35.218	0.510
516.000	320.714	79.999	19.995	103.335	19.547	35.909	0.497
518.000	321.737	79.999	19.996	103.339	19.542	36.259	0.507
520.000	322.729	79.998	19.995	103.342	19.534	36.835	0.490
522.000	323.725	79.999	19.995	103.339	19.525	37.448	0.488
524.000	324.688	79.997	19.996	103.342	19.515	38.132	0.479
526.000	325.692	80.000	19.995	103.341	19.503	38.974	0.497
528.000	326.690	79.998	19.996	103.333	19.494	39.621	0.505
530.000	327.659	79.999	19.996	103.362	19.485	40.252	0.497
532.000	328.658	80.000	19.996	103.357	19.473	41.081	0.507
534.000	329.646	79.999	19.996	103.361	19.463	41.810	0.501
536.000	330.613	79.996	19.996	103.366	19.450	42.688	0.499
538.000	331.584	79.997	19.996	103.383	19.435	43.778	0.531
540.000	332.567	79.997	19.996	103.384	19.421	44.729	0.495
542.000	333.508	79.997	19.995	103.392	19.407	45.708	0.473
544.000	334.505	79.998	19.996	103.394	19.393	46.692	0.489
546.000	335.493	79.997	19.995	103.394	19.376	47.876	0.491
548.000	336.473	80.000	19.994	103.401	19.359	49.062	0.526
550.001	337.413	79.999	19.995	103.415	19.342	50.260	0.496
552.000	338.369	80.000	19.996	103.414	19.328	51.232	0.464
554.000	339.308	80.000	19.995	103.421	19.311	52.443	0.480
556.000	340.289	79.998	19.994	103.429	19.289	53.937	0.466
558.000	341.260	79.999	19.995	103.433	19.271	55.196	0.505
560.000	342.218	79.999	19.996	103.432	19.255	56.337	0.483
562.001	343.108	79.999	19.996	103.441	19.234	57.798	0.466
564.000	344.107	79.999	19.995	103.445	19.214	59.230	0.500
566.000	345.065	80.000	19.996	103.458	19.198	60.357	0.502
568.000	346.022	79.999	19.995	103.474	19.174	61.972	0.523
570.000	346.977	79.999	19.996	103.474	19.156	63.263	0.489
572.000	347.900	79.999	19.995	103.478	19.136	64.645	0.473
574.000	348.871	80.001	19.995	103.477	19.120	65.797	0.467
576.000	349.837	80.002	19.996	103.489	19.098	67.289	0.464
578.000	350.774	80.000	19.995	103.497	19.079	68.631	0.472
580.000	351.701	80.000	19.995	103.510	19.057	70.165	0.438
582.000	352.724	80.001	19.996	103.507	19.041	71.304	0.490
584.001	353.713	79.998	19.996	103.510	19.022	72.604	0.484
586.000	354.688	79.997	19.995	103.514	19.002	74.002	0.483
588.000	355.634	79.997	19.996	103.516	18.987	75.057	0.448
590.000	356.647	79.997	19.995	103.519	18.973	76.033	0.477
592.000	357.626	79.996	19.997	103.533	18.956	77.262	0.469
594.000	358.661	79.997	19.997	103.530	18.943	78.148	0.511
596.000	359.604	79.997	19.998	103.538	18.930	79.040	0.507
598.000	360.620	79.997	19.996	103.543	18.923	79.540	0.528
600.000	361.632	79.996	19.996	103.545	18.911	80.337	0.507
602.000	362.644	79.997	19.996	103.531	18.910	80.401	0.510
604.000	363.656	80.000	19.995	103.540	18.908	80.571	0.519
606.000	364.676	80.000	19.995	103.533	18.906	80.684	0.505
608.000	365.671	79.999	19.996	103.525	18.905	80.725	0.509
610.000	366.613	79.999	19.996	103.509	18.916	79.927	0.494
612.000	367.669	79.999	19.996	103.498	18.922	79.502	0.515
614.000	368.700	79.999	19.995	103.492	18.936	78.571	0.500
616.000	369.797	79.998	19.996	103.492	18.952	77.443	0.557
618.000	370.804	79.998	19.996	103.477	18.966	76.413	0.534
620.000	371.801	79.998	19.996	103.466	18.990	74.713	0.533
622.000	372.823	79.997	19.995	103.449	19.015	73.011	0.543
624.000	373.872	79.999	19.995	103.435	19.045	70.844	0.562
626.000	374.986	79.998	19.996	103.417	19.079	68.486	0.554
628.000	375.995	79.999	19.994	103.387	19.114	66.071	0.538
630.000	377.027	79.999	19.996	103.379	19.157	63.055	0.512
632.000	378.088	79.998	19.995	103.354	19.201	59.974	0.507
634.000	379.081	79.999	19.994	103.338	19.249	56.649	0.499
636.000	380.119	80.001	19.995	103.319	19.294	53.514	0.495
638.000	381.181	80.001	19.995	103.312	19.343	50.093	0.483
640.000	382.211	79.999	19.995	103.293	19.396	46.402	0.523
642.000	383.296	80.000	19.995	103.277	19.448	42.769	0.545
644.000	384.331	80.000	19.995	103.250	19.499	39.189	0.522
646.001	385.335	79.999	19.996	103.239	19.547	35.872	0.510
648.000	386.404	80.000	19.996	103.236	19.599	32.279	0.540
650.000	387.449	80.000	19.996	103.224	19.643	29.236	0.532
652.000	388.505	79.999	19.995	103.206	19.682	26.476	0.558
654.000	389.492	80.001	19.995	103.200	19.720	23.823	0.481
656.000	390.572	79.999	19.996	103.197	19.760	21.073	0.517
658.000	391.589	80.001	19.996	103.193	19.790	19.003	0.530
660.000	392.626	80.001	19.996	103.191	19.818	17.044	0.520
662.000	393.720	80.001	19.997	103.192	19.843	15.267	0.566
664.000	394.781	80.000	19.996	103.176	19.861	14.005	0.498
666.000	395.777	80.000	19.995	103.176	19.878	12.855	0.510
668.000	396.854	79.998	19.995	103.166	19.892	11.872	0.520
670.000	397.872	79.999	19.996	103.164	19.908	10.796	0.513
672.000	398.898	79.999	19.996	103.158	19.915	10.310	0.507
674.000	399.929	79.998	19.996	103.158	19.925	9.597	0.512
676.000	400.983	79.997	19.996	103.159	19.931	9.165	0.489
678.000	401.958	79.997	19.996	103.159	19.931	9.171	0.504
680.000	403.028	79.997	19.996	103.163	19.936	8.791	0.523
682.000	404.048	79.997	19.996	103.162	19.937	8.724	0.509
684.000	405.087	79.998	19.997	103.156	19.939	8.642	0.517
686.000	406.083	79.997	19.996	103.159	19.942	8.432	0.495
688.000	407.143	79.998	19.997	103.158	19.942	8.406	0.516
690.000	408.173	79.998	19.996	103.159	19.943	8.356	0.525
692.000	409.159	79.997	19.997	103.160	19.946	8.163	0.482
694.000	410.217	79.999	19.996	103.160	19.951	7.782	0.522
696.000	411.202	79.998	19.996	103.160	19.950	7.858	0.494
698.000	412.208	79.998	19.995	103.161	19.949	7.909	0.515
700.000	413.237	79.996	19.994	103.162	19.952	7.680	0.522
702.000	414.194	79.996	19.995	103.162	19.954	7.560	0.490
704.000	415.177	79.997	19.995	103.162	19.955	7.503	0.501
706.000	416.219	79.997	19.996	103.161	19.955	7.522	0.493
708.000	417.233	79.998	19.995	103.160	19.956	7.440	0.516
710.000	418.253	79.998	19.995	103.160	19.955	7.474	0.518
712.000	419.251	79.999	19.996	103.160	19.957	7.390	0.503
714.000	420.253	79.999	19.995	103.158	19.961	7.119	0.515
716.000	421.258	80.000	19.995	103.158	19.958	7.289	0.475
718.000	422.281	79.999	19.996	103.157	19.960	7.163	0.516
720.000	423.265	80.001	19.995	103.157	19.958	7.302	0.501
722.000	424.221	79.999	19.996	103.157	19.963	6.953	0.493
724.000	425.262	79.999	19.996	103.159	19.957	7.348	0.516
726.000	426.265	80.000	19.995	103.155	19.961	7.115	0.480
728.000	427.295	79.999	19.996	103.158	19.963	6.961	0.545
730.000	428.243	80.000	19.996	103.158	19.967	6.676	0.496
732.000	429.260	80.001	19.995	103.157	19.965	6.815	0.495
734.000	430.308	80.001	19.996	103.157	19.967	6.697	0.507
736.000	431.288	80.001	19.995	103.159	19.966	6.726	0.495
738.000	432.345	80.001	19.995	103.159	19.968	6.598	0.508
740.000	433.373	80.001	19.995	103.159	19.967	6.690	0.535
742.000	434.380	80.002	19.994	103.157	19.970	6.463	0.532
744.000	435.395	80.000	19.995	103.156	19.970	6.455	0.500
746.000	436.383	79.998	19.994	103.159	19.975	6.100	0.507
748.000	437.372	79.998	19.996	103.158	19.974	6.194	0.477
750.000	438.379	79.997	19.995	103.161	19.977	5.953	0.485
752.000	439.372	79.997	19.995	103.161	19.976	6.043	0.478
754.000	440.418	79.996	19.996	103.158	19.978	5.873	0.512
756.000	441.431	79.997	19.996	103.160	19.982	5.613	0.521
758.000	442.432	79.998	19.996	103.159	19.981	5.697	0.487
760.000	443.463	79.998	19.996	103.164	19.986	5.363	0.523
762.000	444.501	79.999	19.996	103.164	19.985	5.401	0.506
764.000	445.529	79.997	19.995	103.161	19.986	5.338	0.534
766.000	446.567	79.998	19.996	103.161	19.987	5.278	0.510
768.000	447.622	79.998	19.996	103.162	19.987	5.297	0.505
770.000	448.663	79.999	19.996	103.161	19.986	5.320	0.524
772.000	449.735	79.998	19.995	103.151	19.989	5.138	0.533
774.000	450.790	79.998	19.996	103.147	19.990	5.096	0.514
776.000	451.870	79.998	19.995	103.152	19.987	5.252	0.563
778.000	452.928	79.997	19.996	103.128	19.993	4.851	0.507
780.000	453.996	79.998	19.997	103.135	19.991	4.974	0.532
782.000	455.035	79.998	19.997	103.154	19.994	4.783	0.510
784.000	456.115	79.998	19.997	103.158	19.995	4.724	0.514
786.000	457.209	79.998	19.997	103.151	19.995	4.710	0.562
788.000	458.252	79.998	19.996	103.153	20.000	4.399	0.515
790.000	459.343	80.000	19.996	103.155	19.997	4.571	0.566
792.000	460.406	80.000	19.995	103.152	20.002	4.243	0.513
794.000	461.450	80.000	19.995	103.155	20.005	4.061	0.551
796.000	462.492	80.000	19.995	103.153	20.000	4.370	0.510
798.000	463.547	80.001	19.995	103.150	20.005	4.050	0.534
800.000	464.632	79.999	19.995	103.150	20.006	3.956	0.535
802.000	465.641	80.001	19.995	103.156	20.007	3.893	0.518
804.000	466.753	80.000	19.995	103.155	20.004	4.104	0.543
806.000	467.807	79.999	19.995	103.141	20.007	3.920	0.534
808.000	468.833	80.000	19.996	103.153	20.006	3.991	0.512
810.000	469.889	79.999	19.996	103.152	20.012	3.571	0.490
812.000	470.980	80.000	19.995	103.152	20.009	3.727	0.531
814.000	472.031	79.999	19.995	103.157	20.012	3.542	0.513
816.000	473.079	79.999	19.996	103.160	20.012	3.539	0.516
818.000	474.158	80.000	19.995	103.159	20.014	3.399	0.552
820.000	475.203	80.001	19.995	103.154	20.014	3.399	0.510
822.000	476.293	80.000	19.994	103.153	20.012	3.546	0.550
824.000	477.308	80.002	19.995	103.158	20.014	3.425	0.524
826.000	478.350	80.000	19.994	103.158	20.016	3.237	0.518
828.000	479.401	79.999	19.995	103.154	20.017	3.165	0.508
830.000	480.430	80.000	19.995	103.143	20.014	3.410	0.523
832.000	481.449	79.999	19.994	103.143	20.012	3.557	0.486
834.000	482.420	79.998	19.995	103.132	20.016	3.255	0.475
836.000	483.456	80.000	19.996	103.146	20.015	3.325	0.504
838.000	484.453	79.999	19.995	103.140	20.015	3.320	0.520
840.000	485.456	79.999	19.996	103.125	20.017	3.168	0.517
842.000	486.436	79.998	19.997	103.134	20.016	3.255	0.462
844.000	487.435	79.998	19.996	103.133	20.013	3.500	0.498
846.000	488.397	79.999	19.996	103.143	20.016	3.263	0.511
848.000	489.363	79.999	19.997	103.143	20.021	2.899	0.483
850.000	490.390	79.999	19.996	103.139	20.020	3.019	0.509
852.000	491.316	80.000	19.995	103.141	20.018	3.111	0.479
854.000	492.322	80.000	19.996	103.136	20.017	3.164	0.495
856.000	493.328	80.000	19.995	103.145	20.017	3.202	0.500
858.000	494.280	79.999	19.996	103.149	20.020	3.006	0.492
860.000	495.285	79.998	19.995	103.142	20.019	3.048	0.489
862.000	496.271	79.998	19.997	103.146	20.022	2.866	0.483
864.000	497.257	79.999	19.995	103.148	20.021	2.933	0.493
866.000	498.251	79.999	19.997	103.134	20.020	3.013	0.470
868.000	499.243	79.997	19.997	103.147	20.019	3.038	0.483
870.000	500.233	79.998	19.996	103.141	20.020	2.984	0.502
872.000	501.218	79.998	19.998	103.147	20.020	2.985	0.488
874.000	502.178	79.999	19.996	103.148	20.024	2.734	0.486
876.000	503.193	79.999	19.996	103.142	20.021	2.898	0.481
878.000	504.168	79.999	19.997	103.130	20.021	2.900	0.493
880.000	505.150	80.000	19.997	103.126	20.023	2.748	0.501
882.000	506.133	79.999	19.995	103.133	20.026	2.586	0.508
884.000	507.083	80.000	19.996	103.135	20.022	2.851	0.459
886.000	508.116	79.998	19.994	103.123	20.023	2.798	0.509
888.000	509.081	79.999	19.996	103.127	20.020	2.962	0.514
890.000	510.105	79.999	19.994	103.146	20.020	3.005	0.535
892.000	511.108	79.998	19.995	103.151	20.023	2.801	0.490
894.000	512.147	80.000	19.996	103.147	20.017	3.185	0.517
896.000	513.165	79.999	19.995	103.143	20.022	2.839	0.517
898.000	514.172	79.999	19.995	103.144	20.022	2.841	0.511
900.000	515.227	80.000	19.996	103.132	20.017	3.162	0.528
902.000	516.267	80.001	19.996	103.130	20.017	3.177	0.491
904.000	517.305	80.002	19.996	103.136	20.019	3.059	0.530
906.000	518.366	80.001	19.995	103.129	20.022	2.868	0.498
908.000	519.392	80.001	19.995	103.121	20.020	2.988	0.512
910.000	520.461	79.998	19.995	103.124	20.021	2.923	0.534
912.000	521.510	79.999	19.995	103.124	20.018	3.118	0.551
914.000	522.540	79.997	19.994	103.130	20.020	2.955	0.517
916.000	523.572	79.999	19.995	103.122	20.020	2.971	0.537
918.000	524.597	79.998	19.996	103.128	20.021	2.919	0.498
920.000	525.631	79.999	19.996	103.122	20.021	2.919	0.531
922.000	526.664	79.998	19.995	103.121	20.016	3.234	0.533
924.001	527.673	79.997	19.995	103.122	20.018	3.141	0.505
926.000	528.652	79.999	19.994	103.123	20.017	3.166	0.491
928.000	529.666	79.998	19.995	103.129	20.019	3.084	0.492
930.001	530.654	79.998	19.996	103.124	20.021	2.892	0.490
932.000	531.695	80.000	19.996	103.126	20.020	2.977	0.508
934.000	532.711	79.999	19.996	103.123	20.017	3.219	0.515
936.000	533.686	79.998	19.996	103.133	20.019	3.046	0.512
938.000	534.696	79.998	19.995	103.146	20.016	3.256	0.522
940.000	535.703	79.998	19.996	103.133	20.018	3.151	0.492
942.000	536.726	79.998	19.996	103.127	20.016	3.256	0.521
944.000	537.759	79.999	19.997	103.139	20.016	3.294	0.516
946.000	538.751	79.998	19.997	103.144	20.022	2.876	0.511
948.000	539.770	79.996	19.995	103.149	20.017	3.214	0.475
950.000	540.800	79.998	19.996	103.144	20.017	3.187	0.511
952.000	541.896	79.997	19.995	103.147	20.017	3.166	0.580
954.000	542.919	79.998	19.996	103.158	20.014	3.389	0.495
956.000	543.990	80.000	19.996	103.153	20.014	3.416	0.513
958.000	545.060	79.998	19.997	103.155	20.018	3.137	0.528
960.000	546.130	79.999	19.996	103.151	20.013	3.488	0.551
962.000	547.199	79.999	19.996	103.140	20.015	3.366	0.534
964.000	548.292	80.001	19.997	103.155	20.017	3.189	0.586
966.000	549.386	80.000	19.997	103.141	20.019	3.070	0.595
968.000	550.425	79.997	19.997	103.135	20.015	3.301	0.544
970.000	551.506	79.999	19.997	103.132	20.013	3.446	0.519
972.000	552.607	79.999	19.996	103.133	20.017	3.212	0.522
974.000	553.718	79.999	19.996	103.138	20.018	3.091	0.545
976.000	554.826	79.999	19.996	103.139	20.019	3.074	0.582
978.000	555.922	80.000	19.996	103.131	20.013	3.442	0.532
980.000	556.967	80.001	19.996	103.141	20.013	3.439	0.512
982.000	558.029	80.000	19.996	103.143	20.014	3.402	0.548
984.000	559.144	80.001	19.996	103.139	20.018	3.147	0.544
986.000	560.255	80.001	19.995	103.131	20.015	3.323	0.531
988.000	561.321	80.001	19.995	103.141	20.016	3.296	0.548
990.000	562.440	80.000	19.995	103.134	20.015	3.334	0.562
992.000	563.498	80.000	19.995	103.144	20.016	3.234	0.526
994.000	564.586	79.998	19.994	103.144	20.014	3.435	0.521
996.000	565.606	79.998	19.996	103.155	20.016	3.256	0.532
998.000	566.679	79.999	19.998	103.148	20.015	3.344	0.521
1000.000	567.816	79.999	19.997	103.153	20.018	3.107	0.555
1002.000	568.868	79.998	19.996	103.138	20.016	3.267	0.566
1004.000	569.930	79.998	19.996	103.147	20.016	3.292	0.544
1006.000	571.008	79.998	19.995	103.144	20.015	3.321	0.531
1008.000	572.042	79.999	19.995	103.153	20.014	3.418	0.524
1010.000	573.122	79.999	19.995	103.153	20.014	3.433	0.531
1012.000	574.207	79.998	19.995	103.153	20.015	3.345	0.521
1014.000	575.315	80.000	19.996	103.140	20.013	3.502	0.547
1016.000	576.331	79.997	19.995	103.149	20.018	3.152	0.537
1018.000	577.350	79.998	19.995	103.143	20.017	3.175	0.511
1020.000	578.416	79.998	19.996	103.150	20.015	3.356	0.550
1022.000	579.486	79.998	19.995	103.137	20.015	3.330	0.529
1024.000	580.538	79.997	19.996	103.132	20.013	3.463	0.536
1026.000	581.560	79.996	19.996	103.135	20.016	3.298	0.502
1028.000	582.620	79.998	19.995	103.134	20.017	3.226	0.532
1030.000	583.615	79.997	19.996	103.133	20.015	3.341	0.505
1032.000	584.652	79.998	19.996	103.129	20.016	3.271	0.497
1034.001	585.692	79.998	19.995	103.133	20.017	3.213	0.496
1036.000	586.689	79.998	19.997	103.138	20.015	3.348	0.524
1038.000	587.704	79.998	19.996	103.134	20.013	3.488	0.482
1040.000	588.747	80.000	19.997	103.130	20.014	3.408	0.532
1042.000	589.800	79.999	19.996	103.131	20.014	3.385	0.519
1044.001	590.813	80.000	19.996	103.136	20.011	3.623	0.525
1046.001	591.813	80.001	19.996	103.129	20.012	3.512	0.486
1048.000	592.833	80.000	19.997	103.122	20.014	3.406	0.510
1050.001	593.879	79.999	19.996	103.132	20.015	3.301	0.515
1052.000	594.896	79.998	19.997	103.130	20.015	3.338	0.535
1054.001	595.904	79.999	19.997	103.120	20.013	3.467	0.529
1056.000	596.923	79.999	19.997	103.119	20.010	3.662	0.499
1058.000	597.931	79.999	19.997	103.119	20.015	3.342	0.519
1060.000	598.897	79.998	19.996	103.119	20.010	3.649	0.471
1062.000	599.895	79.999	19.997	103.140	20.007	3.912	0.489
1064.000	600.946	80.001	19.998	103.141	20.010	3.666	0.496
1066.000	601.901	80.000	19.997	103.141	20.014	3.414	0.496
1068.000	602.945	80.000	19.995	103.155	20.009	3.747	0.473
1070.001	603.938	80.001	19.995	103.142	20.012	3.568	0.484
1072.000	604.891	80.000	19.996	103.141	20.011	3.621	0.473
1074.000	605.900	79.999	19.996	103.139	20.016	3.286	0.476
1076.000	606.853	79.998	19.994	103.142	20.014	3.404	0.492
1078.000	607.878	79.997	19.995	103.130	20.014	3.381	0.519
1080.000	608.871	79.996	19.995	103.121	20.010	3.648	0.499
1082.000	609.893	79.997	19.996	103.125	20.012	3.572	0.515
1084.001	610.861	79.995	19.996	103.127	20.013	3.451	0.486
1086.001	611.857	79.996	19.996	103.125	20.011	3.633	0.496
1088.001	612.858	79.998	19.995	103.125	20.015	3.327	0.493
1090.000	613.863	79.996	19.995	103.125	20.014	3.427	0.481
1092.000	614.883	79.998	19.995	103.124	20.015	3.318	0.502
1094.000	615.922	79.997	19.994	103.124	20.013	3.476	0.518
1096.001	616.872	79.999	19.997	103.118	20.012	3.541	0.488
1098.000	617.890	80.000	19.996	103.122	20.013	3.440	0.493
1100.000	618.894	79.999	19.995	103.120	20.013	3.459	0.510
1102.001	619.849	79.999	19.996	103.119	20.011	3.620	0.485
1104.000	620.825	79.999	19.995	103.121	20.010	3.691	0.506
1106.000	621.813	79.997	19.995	103.119	20.012	3.536	0.486
1108.000	622.771	79.998	19.996	103.121	20.014	3.421	0.480
1110.001	623.702	79.998	19.997	103.120	20.015	3.329	0.497
1112.000	624.691	80.000	19.995	103.132	20.013	3.503	0.471
1114.000	625.628	79.998	19.996	103.145	20.011	3.579	0.490
1116.000	626.593	79.997	19.995	103.146	20.013	3.441	0.482
1118.001	627.553	80.000	19.995	103.123	20.013	3.475	0.481
1120.000	628.543	79.999	19.996	103.116	20.012	3.517	0.487
1122.001	629.524	79.998	19.996	103.122	20.016	3.292	0.470
1124.000	630.490	79.999	19.997	103.123	20.014	3.392	0.526
1126.000	631.377	80.000	19.997	103.127	20.012	3.547	0.486
1128.000	632.368	79.999	19.996	103.147	20.014	3.385	0.513
1130.000	633.363	80.000	19.996	103.141	20.012	3.514	0.489
1132.000	634.299	79.999	19.997	103.142	20.010	3.711	0.464
1134.001	635.342	79.998	19.995	103.123	20.008	3.787	0.510
1136.000	636.294	79.998	19.996	103.123	20.011	3.627	0.470
1138.000	637.232	80.000	19.997	103.122	20.016	3.295	0.468
1140.000	638.237	79.998	19.996	103.122	20.014	3.425	0.494
1142.000	639.222	79.998	19.996	103.121	20.014	3.415	0.486
1144.000	640.212	80.000	19.996	103.111	20.013	3.488	0.512
1146.001	641.208	80.000	19.995	103.116	20.011	3.578	0.483
1148.000	642.155	79.999	19.995	103.120	20.010	3.696	0.494
1150.001	643.139	80.000	19.996	103.124	20.011	3.596	0.519
1152.000	644.127	79.999	19.996	103.124	20.013	3.442	0.494
1154.000	645.120	80.001	19.995	103.125	20.007	3.890	0.485
1156.000	646.114	79.999	19.996	103.121	20.009	3.724	0.523
1158.001	647.125	79.999	19.997	103.134	20.007	3.854	0.502
1160.000	648.101	80.000	19.995	103.124	20.010	3.688	0.493
1162.000	649.214	79.998	19.995	103.119	20.007	3.902	0.529
1164.000	650.218	79.998	19.996	103.120	20.010	3.671	0.534
1166.000	651.262	79.999	19.996	103.119	20.011	3.619	0.533
1168.000	652.308	79.999	19.994	103.119	20.013	3.436	0.525
1170.001	653.365	80.000	19.995	103.120	20.008	3.783	0.548
1172.000	654.403	80.000	19.996	103.122	20.008	3.843	0.516
1174.000	655.504	79.998	19.995	103.122	20.011	3.642	0.538
1176.000	656.545	79.999	19.995	103.122	20.009	3.762	0.504
1178.000	657.617	80.000	19.996	103.122	20.010	3.680	0.543
1180.000	658.652	80.000	19.996	103.115	20.007	3.854	0.516
1182.000	659.768	80.000	19.997	103.123	20.005	3.999	0.533
1184.000	660.794	79.999	19.997	103.129	20.007	3.898	0.519
1186.000	661.813	79.999	19.997	103.120	20.009	3.762	0.502
1188.001	662.877	79.998	19.996	103.118	20.008	3.816	0.508
1190.000	663.882	79.999	19.997	103.117	20.004	4.125	0.501
1192.001	664.919	80.000	19.996	103.116	20.010	3.690	0.513
1194.000	665.903	79.999	19.996	103.119	20.011	3.617	0.477
1196.000	666.913	79.997	19.995	103.118	20.011	3.634	0.535
1198.000	667.923	80.000	19.995	103.118	20.010	3.699	0.502
1200.000	668.928	79.999	19.994	103.121	20.009	3.775	0.548
1202.000	669.925	80.001	19.995	103.115	20.008	3.850	0.487
1204.000	670.799	80.001	19.995	103.118	20.007	3.859	0.425
1206.000	671.882	80.001	19.995	103.119	20.007	3.909	0.487
1208.000	672.875	80.000	19.995	103.108	20.011	3.577	0.497
1210.000	673.833	80.000	19.995	103.105	20.011	3.591	0.479
1212.000	674.857	80.000	19.996	103.120	20.010	3.689	0.494
1214.000	675.819	79.998	19.996	103.117	20.003	4.161	0.487
1216.000	676.797	80.001	19.995	103.099	20.013	3.501	0.502
1218.001	677.769	79.998	19.996	103.115	20.010	3.655	0.500
1220.000	678.748	80.000	19.996	103.116	20.007	3.869	0.475
1222.000	679.692	80.000	19.996	103.118	20.011	3.636	0.484
1224.000	680.620	80.000	19.996	103.101	20.012	3.567	0.453
1226.001	681.571	80.000	19.995	103.115	20.010	3.665	0.487
1228.000	682.532	80.002	19.995	103.108	20.010	3.691	0.489
1230.000	683.463	80.002	19.996	103.108	20.012	3.506	0.492
1232.000	684.411	80.003	19.997	103.115	20.010	3.659	0.446
1234.000	685.336	80.002	19.996	103.109	20.011	3.605	0.485
1236.000	686.274	80.000	19.996	103.115	20.013	3.443	0.493
1238.000	687.289	80.000	19.997	103.106	20.013	3.473	0.481
1240.000	688.199	79.999	19.996	103.109	20.012	3.534	0.475
1242.000	689.116	79.998	19.997	103.103	20.007	3.899	0.480
1244.000	690.081	79.999	19.996	103.099	20.013	3.462	0.461
1246.000	691.021	79.999	19.996	103.083	20.011	3.590	0.472
1248.000	691.955	79.997	19.997	103.096	20.012	3.520	0.462
1250.000	692.914	79.999	19.996	103.086	20.013	3.451	0.468
1252.000	693.886	80.000	19.996	103.093	20.014	3.390	0.499
1254.001	694.859	80.000	19.995	103.106	20.009	3.768	0.489
1256.001	695.829	80.000	19.996	103.107	20.007	3.879	0.495
1258.001	696.898	80.000	19.995	103.119	20.009	3.732	0.496
1260.000	697.955	79.998	19.994	103.115	20.007	3.858	0.528
1262.000	699.016	79.998	19.995	103.120	20.010	3.688	0.512
1264.001	700.121	79.999	19.997	103.124	20.008	3.839	0.521
1266.000	701.256	79.998	19.995	103.125	20.010	3.654	0.569
1268.000	702.326	79.998	19.994	103.122	20.008	3.799	0.569
1270.000	703.470	79.998	19.996	103.122	20.003	4.155	0.596
1272.001	704.632	79.998	19.997	103.125	20.004	4.123	0.591
1274.001	705.779	79.996	19.995	103.123	20.009	3.740	0.606
1276.000	706.953	79.999	19.995	103.124	20.010	3.699	0.585
1278.000	708.145	79.998	19.996	103.124	20.009	3.715	0.606
1280.000	709.339	79.999	19.996	103.119	20.011	3.632	0.596
1282.000	710.540	79.999	19.994	103.122	20.008	3.842	0.634
1284.000	711.701	79.999	19.994	103.121	20.007	3.884	0.610
1286.001	712.890	80.000	19.994	103.118	20.005	4.026	0.594
1288.001	714.077	80.002	19.995	103.114	20.004	4.120	0.582
1290.000	715.304	80.003	19.995	103.114	20.008	3.804	0.631
1292.000	716.489	79.999	19.996	103.105	20.011	3.586	0.560
1294.000	717.708	80.000	19.995	103.115	20.004	4.109	0.599
1296.000	718.927	80.001	19.996	103.112	20.010	3.661	0.617
1298.000	720.013	80.001	19.994	103.117	20.006	3.983	0.568
1300.000	721.161	80.001	19.996	103.102	20.007	3.889	0.539
1302.000	722.345	80.001	19.997	103.101	20.004	4.084	0.608
1304.001	723.506	80.001	19.996	103.113	20.005	4.006	0.562
1306.000	724.666	80.001	19.996	103.108	20.000	4.395	0.571
1308.000	725.769	80.001	19.996	103.113	20.003	4.189	0.546
1310.000	726.908	80.002	19.996	103.092	20.004	4.086	0.551
1312.000	728.052	80.001	19.996	103.088	20.006	3.954	0.573
1314.001	729.147	80.002	19.998	103.094	20.009	3.779	0.541
1316.000	730.236	80.001	19.996	103.106	20.003	4.190	0.550
1318.001	731.393	80.000	19.995	103.098	20.008	3.798	0.592
1320.000	732.414	80.002	19.995	103.093	20.007	3.870	0.541
1322.000	733.530	79.999	19.994	103.100	20.009	3.727	0.529
1324.000	734.643	80.000	19.994	103.103	20.003	4.181	0.567
1326.000	735.662	79.999	19.996	103.091	20.008	3.798	0.516
1328.001	736.755	80.000	19.996	103.092	20.009	3.759	0.503
1330.000	737.821	79.998	19.994	103.096	20.007	3.866	0.548
1332.001	738.907	79.999	19.996	103.100	20.011	3.641	0.590
1334.001	739.951	79.999	19.997	103.091	20.005	4.043	0.535
1336.001	741.021	80.000	19.995	103.096	20.004	4.091	0.511
1338.001	742.104	79.999	19.997	103.087	20.002	4.242	0.525
1340.001	743.105	80.001	19.996	103.090	20.005	3.997	0.499
1340.501	743.426	79.998	19.996	103.091	20.008	3.850	0.550