File: 01_Data/Masonite_Board/MCC/Masonite_Board_30K_min_211022_R1.txt
Sample ID:	C:\MCC\MCC Cal\Test\Masonite_Board_30K_min_211022_R1.txt
Sample Weight (mg):	4.92
Heating Rate (C/s):	0.5
Combustor Temp (C):	900
N2 Flow Rate (cc/min):	80
O2 Flow Rate (cc/min):	20
Calibration File:	C:\MCC\MCC Cal\Coeff1 JN10440_30_210304.txt.txt
T Correction Coefficients:	0	1.024463	0
Time Shift (s):	14
*
Time (s)	Temperature (C)	N2 flow rate (cc/min)	O2 flow rate (cc/min)	Flow Rate (cc/min)	Oxygen (%)	HRR (W/g)	Heating rate (C/s)
0.000	107.979	80.000	19.995	103.036	20.109	-0.038	-0.034
2.000	107.964	79.998	19.996	103.038	20.111	-0.161	-0.010
4.000	107.985	79.999	19.995	103.035	20.108	-0.016	-0.019
6.000	107.959	79.999	19.994	103.037	20.108	0.041	-0.006
8.000	107.946	80.001	19.996	103.035	20.105	0.175	-0.014
10.000	107.922	80.000	19.994	103.041	20.106	0.154	-0.011
12.000	107.924	80.000	19.995	103.046	20.106	0.147	0.006
14.000	107.947	80.002	19.994	103.041	20.106	0.111	0.018
16.000	107.959	80.002	19.995	103.060	20.107	0.091	0.023
18.000	107.936	80.003	19.994	103.048	20.107	0.047	0.013
20.000	107.913	80.002	19.993	103.042	20.107	0.055	-0.017
22.000	107.915	79.999	19.995	103.047	20.107	0.052	-0.009
24.000	107.919	80.000	19.996	103.039	20.110	-0.116	-0.008
26.000	107.909	80.000	19.996	103.035	20.109	-0.088	-0.026
28.000	107.907	80.000	19.996	103.037	20.106	0.131	0.003
30.000	107.917	80.001	19.994	103.037	20.107	0.088	0.021
32.000	107.952	80.000	19.996	103.042	20.106	0.113	0.017
34.000	107.924	80.003	19.995	103.039	20.110	-0.140	-0.002
36.000	107.921	80.001	19.996	103.042	20.108	0.039	0.001
38.000	107.918	80.002	19.996	103.042	20.107	0.063	0.028
40.000	107.898	80.003	19.996	103.030	20.105	0.186	-0.017
42.000	107.904	80.001	19.995	103.029	20.104	0.258	0.001
44.000	107.907	80.002	19.995	103.030	20.109	-0.032	0.018
46.000	107.906	80.002	19.995	103.033	20.110	-0.099	0.000
48.000	107.871	80.001	19.996	103.033	20.107	0.095	-0.010
50.000	107.900	80.000	19.996	103.033	20.112	-0.271	-0.007
52.000	107.845	80.000	19.995	103.036	20.105	0.198	-0.007
54.000	107.850	80.000	19.996	103.031	20.097	0.725	-0.031
56.000	107.878	79.999	19.996	103.190	20.082	1.688	0.016
58.000	107.959	80.000	19.996	103.378	20.066	2.750	0.079
60.000	108.136	80.000	19.995	103.415	20.055	3.459	0.108
62.000	108.362	79.999	19.997	103.419	20.051	3.757	0.118
64.001	108.672	79.999	19.996	103.417	20.046	4.075	0.172
66.000	109.076	79.999	19.997	103.415	20.041	4.416	0.188
68.000	109.502	79.998	19.996	103.411	20.038	4.618	0.253
70.000	110.001	79.998	19.997	103.398	20.037	4.637	0.251
72.000	110.496	79.999	19.996	103.395	20.037	4.686	0.294
74.000	111.074	79.999	19.996	103.381	20.037	4.640	0.276
76.000	111.740	80.000	19.995	103.383	20.041	4.420	0.318
78.000	112.384	80.000	19.995	103.382	20.040	4.468	0.312
80.000	113.056	79.998	19.995	103.368	20.046	4.070	0.331
82.000	113.787	80.000	19.995	103.364	20.046	4.054	0.356
84.000	114.528	79.999	19.996	103.367	20.048	3.911	0.380
86.000	115.288	79.999	19.996	103.372	20.048	3.949	0.353
88.000	116.092	79.999	19.995	103.357	20.050	3.808	0.392
90.001	116.925	80.000	19.994	103.361	20.046	4.104	0.431
92.000	117.827	80.000	19.995	103.357	20.049	3.851	0.439
94.001	118.691	80.001	19.995	103.353	20.045	4.127	0.468
96.000	119.602	80.001	19.996	103.377	20.044	4.187	0.478
98.000	120.501	80.000	19.996	103.374	20.042	4.332	0.476
100.001	121.440	80.002	19.996	103.359	20.046	4.048	0.471
102.000	122.388	80.002	19.996	103.350	20.048	3.953	0.500
104.001	123.355	80.002	19.995	103.351	20.047	3.982	0.487
106.000	124.326	80.002	19.997	103.349	20.049	3.858	0.495
108.000	125.342	80.001	19.995	103.366	20.045	4.150	0.532
110.000	126.269	80.001	19.995	103.349	20.046	4.098	0.497
112.000	127.261	80.001	19.996	103.349	20.049	3.883	0.476
114.000	128.337	80.001	19.995	103.357	20.051	3.766	0.527
116.000	129.392	80.002	19.996	103.344	20.047	4.024	0.527
118.000	130.440	80.002	19.997	103.342	20.051	3.746	0.537
120.000	131.472	80.003	19.995	103.340	20.052	3.699	0.536
122.000	132.534	80.004	19.996	103.338	20.050	3.820	0.509
124.000	133.573	80.002	19.997	103.340	20.050	3.837	0.528
126.000	134.631	80.002	19.996	103.329	20.050	3.812	0.519
128.000	135.730	80.001	19.996	103.335	20.055	3.492	0.538
130.000	136.821	80.001	19.997	103.323	20.051	3.724	0.556
132.000	137.887	79.999	19.996	103.331	20.051	3.715	0.540
134.000	138.974	80.000	19.995	103.331	20.054	3.537	0.530
136.000	140.038	79.999	19.996	103.316	20.056	3.402	0.517
138.000	141.071	79.999	19.997	103.310	20.056	3.390	0.534
140.000	142.192	80.000	19.997	103.318	20.053	3.607	0.553
142.000	143.320	79.999	19.995	103.318	20.055	3.463	0.574
144.000	144.372	79.998	19.998	103.308	20.058	3.310	0.543
146.000	145.466	79.999	19.994	103.304	20.056	3.432	0.529
148.000	146.519	80.000	19.997	103.301	20.055	3.466	0.522
150.000	147.610	79.998	19.997	103.298	20.057	3.331	0.552
152.000	148.686	79.999	19.995	103.297	20.057	3.379	0.570
154.000	149.711	79.999	19.996	103.285	20.062	3.012	0.493
156.000	150.745	79.998	19.996	103.280	20.058	3.303	0.525
158.000	151.825	79.998	19.996	103.288	20.063	2.969	0.509
160.000	152.870	79.998	19.997	103.273	20.061	3.059	0.535
162.000	153.919	79.997	19.997	103.283	20.061	3.055	0.535
164.000	154.953	79.999	19.997	103.273	20.064	2.885	0.517
166.000	155.963	80.000	19.997	103.264	20.060	3.127	0.508
168.000	156.979	79.999	19.997	103.268	20.065	2.810	0.520
170.000	157.981	80.000	19.996	103.264	20.064	2.890	0.518
172.000	159.033	80.000	19.995	103.263	20.066	2.788	0.531
174.000	160.004	80.002	19.995	103.266	20.063	2.926	0.520
176.000	160.995	80.002	19.994	103.265	20.063	2.976	0.500
178.000	162.019	80.001	19.995	103.277	20.061	3.111	0.495
180.000	162.987	80.002	19.995	103.269	20.061	3.116	0.471
182.000	163.987	80.002	19.996	103.264	20.062	3.009	0.491
184.000	165.031	80.002	19.996	103.265	20.064	2.912	0.527
186.000	166.033	79.999	19.997	103.266	20.065	2.844	0.491
188.000	167.005	80.001	19.996	103.263	20.060	3.154	0.496
190.000	167.965	80.002	19.996	103.262	20.061	3.098	0.485
192.000	168.945	80.001	19.996	103.263	20.060	3.163	0.470
194.000	169.908	80.001	19.996	103.264	20.060	3.141	0.508
196.000	170.917	80.001	19.996	103.266	20.063	2.948	0.506
198.000	171.884	80.001	19.996	103.265	20.062	2.994	0.501
200.000	172.826	80.002	19.995	103.265	20.062	3.037	0.459
202.000	173.847	80.001	19.995	103.265	20.062	3.050	0.516
204.000	174.791	80.002	19.996	103.264	20.064	2.881	0.497
206.000	175.754	80.003	19.994	103.265	20.062	2.998	0.466
208.000	176.717	80.001	19.996	103.266	20.063	2.924	0.465
210.000	177.705	80.001	19.995	103.266	20.066	2.788	0.484
212.000	178.659	79.999	19.996	103.264	20.064	2.890	0.475
214.000	179.638	79.998	19.995	103.265	20.062	2.996	0.491
216.000	180.579	80.000	19.996	103.264	20.065	2.850	0.494
218.000	181.593	79.999	19.996	103.262	20.063	2.953	0.496
220.000	182.543	79.998	19.996	103.256	20.063	2.974	0.478
222.000	183.492	79.999	19.996	103.259	20.061	3.085	0.501
224.000	184.463	80.001	19.997	103.263	20.062	3.021	0.473
226.000	185.464	80.000	19.995	103.254	20.060	3.121	0.496
228.000	186.419	80.000	19.996	103.258	20.065	2.843	0.504
230.000	187.407	79.999	19.996	103.261	20.061	3.060	0.476
232.000	188.412	80.001	19.996	103.252	20.062	3.046	0.484
234.000	189.324	80.001	19.997	103.252	20.064	2.867	0.425
236.000	190.383	80.000	19.997	103.262	20.066	2.759	0.507
238.000	191.292	80.001	19.995	103.258	20.065	2.797	0.472
240.000	192.305	79.999	19.997	103.263	20.061	3.098	0.491
242.000	193.281	80.000	19.996	103.258	20.063	2.969	0.508
244.000	194.215	79.998	19.997	103.256	20.064	2.904	0.490
246.000	195.177	80.000	19.996	103.260	20.060	3.134	0.469
248.000	196.202	80.000	19.996	103.255	20.062	3.030	0.505
250.000	197.154	79.999	19.998	103.256	20.062	3.036	0.479
252.000	198.118	80.000	19.996	103.259	20.059	3.221	0.500
254.000	199.090	80.000	19.997	103.253	20.058	3.301	0.481
256.000	200.099	80.001	19.996	103.252	20.057	3.328	0.489
258.000	201.039	80.002	19.995	103.256	20.058	3.313	0.483
260.000	202.025	80.001	19.997	103.245	20.061	3.114	0.497
262.000	202.987	80.001	19.995	103.246	20.059	3.248	0.511
264.000	203.964	80.002	19.996	103.256	20.057	3.356	0.512
266.000	204.918	80.001	19.997	103.263	20.056	3.408	0.479
268.000	205.879	80.000	19.996	103.263	20.058	3.273	0.479
270.000	206.866	80.001	19.996	103.247	20.057	3.358	0.472
272.000	207.892	80.001	19.995	103.251	20.056	3.415	0.511
274.000	208.859	80.000	19.995	103.240	20.054	3.568	0.483
276.000	209.876	80.000	19.996	103.246	20.055	3.468	0.515
278.000	210.813	80.001	19.995	103.262	20.053	3.616	0.491
280.000	211.784	80.003	19.994	103.246	20.053	3.616	0.484
282.000	212.762	80.002	19.995	103.246	20.053	3.636	0.495
284.000	213.753	80.002	19.995	103.251	20.055	3.498	0.458
286.000	214.717	80.002	19.994	103.243	20.050	3.802	0.466
288.000	215.717	80.003	19.995	103.234	20.051	3.746	0.513
290.000	216.685	80.001	19.996	103.253	20.051	3.770	0.491
292.000	217.663	80.001	19.994	103.253	20.048	3.915	0.477
294.000	218.715	80.001	19.996	103.253	20.046	4.044	0.516
296.000	219.680	80.001	19.995	103.249	20.047	4.010	0.515
298.000	220.632	80.001	19.996	103.232	20.044	4.180	0.477
300.000	221.631	80.001	19.995	103.247	20.042	4.340	0.492
302.000	222.640	80.000	19.996	103.255	20.044	4.227	0.506
304.000	223.563	80.001	19.995	103.251	20.040	4.443	0.470
306.000	224.586	80.000	19.996	103.247	20.042	4.339	0.476
308.000	225.552	80.000	19.997	103.238	20.039	4.537	0.492
310.000	226.577	80.000	19.996	103.248	20.039	4.528	0.510
312.000	227.528	80.000	19.996	103.247	20.038	4.605	0.473
314.000	228.497	79.999	19.996	103.242	20.035	4.802	0.458
316.000	229.505	80.001	19.997	103.232	20.036	4.706	0.478
318.000	230.533	79.999	19.997	103.237	20.038	4.616	0.480
320.000	231.517	80.000	19.996	103.254	20.034	4.860	0.485
322.000	232.487	79.999	19.996	103.237	20.032	4.976	0.501
324.000	233.500	80.001	19.995	103.236	20.031	5.038	0.487
326.000	234.485	79.999	19.996	103.245	20.029	5.183	0.535
328.000	235.474	80.000	19.997	103.245	20.029	5.213	0.517
330.000	236.463	80.000	19.995	103.261	20.025	5.440	0.504
332.000	237.460	80.000	19.997	103.248	20.022	5.663	0.482
334.000	238.424	80.001	19.995	103.248	20.019	5.813	0.464
336.000	239.450	80.001	19.996	103.257	20.019	5.868	0.502
338.000	240.386	80.001	19.997	103.255	20.014	6.181	0.516
340.000	241.347	80.001	19.996	103.232	20.011	6.337	0.481
342.000	242.340	79.999	19.997	103.243	20.011	6.343	0.510
344.000	243.350	80.001	19.997	103.244	20.009	6.490	0.466
346.000	244.335	80.001	19.996	103.248	20.005	6.756	0.490
348.000	245.296	80.000	19.996	103.254	20.003	6.857	0.462
350.000	246.293	80.001	19.997	103.256	20.000	7.083	0.509
352.000	247.321	80.001	19.995	103.252	19.997	7.281	0.507
354.000	248.287	80.001	19.995	103.260	19.991	7.666	0.495
356.000	249.266	80.002	19.995	103.263	19.988	7.887	0.519
358.000	250.295	80.002	19.994	103.256	19.985	8.043	0.514
360.000	251.258	80.003	19.994	103.256	19.982	8.233	0.457
362.000	252.253	80.003	19.995	103.260	19.979	8.482	0.506
364.000	253.275	80.003	19.996	103.263	19.975	8.747	0.509
366.000	254.261	80.002	19.995	103.258	19.970	9.075	0.539
368.000	255.219	80.003	19.995	103.264	19.962	9.601	0.502
370.000	256.195	80.003	19.996	103.263	19.958	9.810	0.486
372.000	257.175	80.003	19.996	103.266	19.958	9.862	0.510
374.000	258.163	80.001	19.996	103.270	19.955	10.027	0.482
376.000	259.170	80.001	19.995	103.271	19.948	10.492	0.498
378.000	260.145	80.002	19.995	103.267	19.941	10.916	0.464
380.000	261.141	80.000	19.996	103.269	19.936	11.271	0.479
382.000	262.113	79.999	19.995	103.271	19.929	11.730	0.469
384.000	263.147	80.001	19.997	103.277	19.922	12.223	0.508
386.000	264.150	79.999	19.996	103.275	19.913	12.765	0.501
388.000	265.163	80.000	19.995	103.288	19.908	13.143	0.492
390.000	266.145	80.001	19.995	103.288	19.898	13.773	0.485
392.000	267.144	79.999	19.996	103.299	19.892	14.141	0.492
394.000	268.156	80.000	19.995	103.303	19.883	14.775	0.499
396.000	269.149	80.001	19.995	103.303	19.876	15.234	0.460
398.000	270.204	80.000	19.995	103.302	19.864	16.020	0.556
400.000	271.234	79.999	19.996	103.306	19.856	16.495	0.517
402.000	272.239	80.000	19.996	103.307	19.849	16.953	0.522
404.000	273.239	79.999	19.996	103.310	19.841	17.508	0.492
406.000	274.242	79.999	19.996	103.312	19.831	18.134	0.534
408.000	275.209	79.998	19.996	103.309	19.820	18.881	0.508
410.000	276.246	79.999	19.995	103.311	19.811	19.442	0.533
412.001	277.221	79.998	19.996	103.313	19.802	20.085	0.497
414.000	278.237	80.001	19.995	103.314	19.793	20.630	0.505
416.000	279.250	80.001	19.996	103.318	19.781	21.431	0.493
418.000	280.250	80.002	19.997	103.322	19.776	21.747	0.509
420.000	281.245	80.001	19.994	103.319	19.764	22.532	0.487
422.000	282.236	80.005	19.996	103.342	19.755	23.116	0.493
424.000	283.230	80.001	19.995	103.340	19.749	23.564	0.493
426.000	284.267	80.002	19.995	103.340	19.740	24.150	0.478
428.000	285.241	79.999	19.996	103.343	19.730	24.789	0.513
430.000	286.273	80.001	19.997	103.343	19.721	25.366	0.530
432.000	287.289	80.000	19.996	103.334	19.715	25.795	0.515
434.000	288.288	80.001	19.997	103.333	19.708	26.235	0.502
436.000	289.313	80.000	19.998	103.334	19.702	26.609	0.511
438.000	290.304	80.001	19.997	103.332	19.697	26.923	0.488
440.000	291.320	80.002	19.997	103.326	19.692	27.270	0.498
442.000	292.368	80.002	19.994	103.332	19.683	27.875	0.519
444.000	293.328	80.002	19.996	103.336	19.680	28.066	0.515
446.000	294.337	80.005	19.996	103.339	19.676	28.347	0.482
448.000	295.315	80.004	19.995	103.341	19.672	28.585	0.451
450.000	296.407	80.003	19.994	103.340	19.667	28.934	0.557
452.000	297.366	80.000	19.995	103.334	19.660	29.362	0.508
454.000	298.361	80.001	19.994	103.336	19.657	29.548	0.521
456.000	299.334	80.000	19.995	103.341	19.654	29.750	0.485
458.000	300.353	79.999	19.994	103.332	19.652	29.925	0.512
460.000	301.314	79.999	19.996	103.343	19.652	29.892	0.475
462.000	302.346	80.000	19.995	103.342	19.650	30.006	0.509
464.000	303.317	80.000	19.995	103.340	19.648	30.186	0.494
466.000	304.319	80.001	19.995	103.336	19.644	30.399	0.486
468.000	305.286	80.000	19.994	103.343	19.640	30.709	0.488
470.000	306.283	79.999	19.995	103.343	19.635	31.034	0.514
472.000	307.261	80.000	19.995	103.345	19.633	31.130	0.475
474.000	308.304	80.000	19.995	103.344	19.632	31.176	0.511
476.000	309.242	80.001	19.995	103.346	19.629	31.431	0.480
478.000	310.271	80.000	19.996	103.343	19.624	31.753	0.532
480.000	311.230	80.001	19.994	103.343	19.624	31.702	0.514
482.000	312.203	80.000	19.995	103.342	19.621	31.955	0.479
484.000	313.198	80.000	19.994	103.343	19.616	32.286	0.458
486.000	314.193	80.001	19.996	103.344	19.615	32.342	0.501
488.000	315.151	80.000	19.996	103.344	19.605	32.993	0.452
490.000	316.151	80.000	19.995	103.341	19.598	33.454	0.497
492.000	317.114	80.000	19.995	103.344	19.598	33.426	0.462
494.000	318.097	80.001	19.996	103.346	19.589	34.006	0.482
496.000	319.109	80.000	19.995	103.348	19.584	34.383	0.514
498.000	320.032	80.000	19.996	103.347	19.578	34.727	0.457
500.000	321.025	80.002	19.996	103.348	19.568	35.424	0.499
502.000	322.032	80.002	19.995	103.353	19.558	36.041	0.494
504.000	322.956	80.002	19.996	103.369	19.554	36.307	0.454
506.000	323.961	80.003	19.996	103.379	19.540	37.280	0.517
508.000	324.946	80.000	19.995	103.379	19.530	37.923	0.498
510.000	325.893	80.002	19.996	103.381	19.519	38.662	0.481
512.000	326.896	80.001	19.996	103.382	19.512	39.119	0.506
514.000	327.860	80.001	19.996	103.383	19.497	40.091	0.475
516.000	328.838	80.002	19.995	103.387	19.487	40.728	0.504
518.000	329.884	80.001	19.996	103.409	19.475	41.531	0.518
520.000	330.874	80.001	19.995	103.411	19.461	42.449	0.499
522.000	331.832	80.002	19.996	103.408	19.444	43.561	0.491
524.000	332.865	80.002	19.995	103.418	19.429	44.584	0.510
526.000	333.849	80.001	19.995	103.423	19.413	45.591	0.506
528.000	334.907	80.002	19.996	103.429	19.394	46.888	0.515
530.000	335.897	80.000	19.996	103.444	19.375	48.096	0.507
532.000	336.894	80.001	19.996	103.454	19.356	49.353	0.491
534.000	337.950	80.001	19.995	103.459	19.340	50.412	0.527
536.000	338.940	80.000	19.996	103.463	19.320	51.740	0.518
538.000	339.988	80.000	19.994	103.468	19.298	53.151	0.522
540.000	341.006	80.001	19.995	103.482	19.279	54.449	0.524
542.000	342.047	80.001	19.995	103.490	19.257	55.904	0.499
544.000	343.030	80.000	19.994	103.497	19.231	57.608	0.470
546.000	344.075	80.000	19.994	103.498	19.210	58.948	0.516
548.000	345.087	80.000	19.995	103.497	19.187	60.467	0.521
550.000	346.159	80.000	19.996	103.513	19.158	62.366	0.524
552.000	347.147	80.001	19.995	103.517	19.138	63.736	0.502
554.000	348.192	80.001	19.995	103.538	19.116	65.168	0.494
556.000	349.242	80.000	19.996	103.539	19.093	66.692	0.529
558.000	350.254	80.001	19.995	103.542	19.066	68.484	0.489
560.000	351.287	80.001	19.995	103.555	19.043	69.966	0.508
562.000	352.302	80.000	19.995	103.554	19.021	71.404	0.507
564.000	353.359	79.999	19.995	103.572	18.996	73.037	0.535
566.000	354.383	80.001	19.995	103.577	18.974	74.466	0.551
568.000	355.443	79.999	19.996	103.578	18.956	75.647	0.507
570.000	356.442	80.000	19.995	103.580	18.936	76.963	0.521
572.000	357.456	79.999	19.995	103.579	18.917	78.273	0.500
574.000	358.524	80.001	19.994	103.582	18.902	79.258	0.518
576.000	359.512	80.001	19.995	103.580	18.891	79.977	0.517
578.000	360.561	80.001	19.995	103.580	18.873	81.127	0.510
580.000	361.564	80.001	19.995	103.582	18.864	81.689	0.504
582.000	362.634	80.001	19.994	103.582	18.859	82.018	0.540
584.000	363.660	80.001	19.994	103.583	18.852	82.449	0.515
586.000	364.638	80.001	19.995	103.581	18.852	82.468	0.453
588.000	365.720	80.001	19.994	103.571	18.849	82.617	0.534
590.000	366.706	80.001	19.996	103.569	18.857	82.098	0.515
592.000	367.726	80.000	19.995	103.555	18.865	81.592	0.519
594.000	368.760	80.001	19.995	103.540	18.880	80.604	0.469
596.000	369.801	80.000	19.996	103.540	18.899	79.304	0.514
598.000	370.799	80.001	19.995	103.516	18.916	78.209	0.483
600.000	371.873	80.001	19.996	103.504	18.941	76.527	0.491
602.000	372.896	80.002	19.994	103.491	18.969	74.639	0.522
604.000	373.968	80.003	19.995	103.467	19.005	72.295	0.539
606.000	374.946	80.003	19.995	103.448	19.043	69.807	0.492
608.000	376.007	80.001	19.996	103.423	19.084	67.117	0.533
610.000	377.020	80.003	19.995	103.406	19.127	64.270	0.521
612.000	378.030	80.004	19.995	103.369	19.176	61.066	0.496
614.000	379.032	80.002	19.995	103.357	19.226	57.749	0.502
616.000	380.058	80.000	19.996	103.346	19.278	54.355	0.527
618.000	381.082	80.000	19.997	103.321	19.332	50.786	0.521
620.000	382.092	79.999	19.996	103.300	19.392	46.883	0.515
622.000	383.064	79.999	19.995	103.292	19.449	43.170	0.487
624.000	384.104	80.000	19.996	103.278	19.502	39.674	0.514
626.000	385.092	80.001	19.997	103.261	19.553	36.312	0.481
628.000	386.106	80.002	19.996	103.240	19.604	32.980	0.524
630.000	387.162	80.001	19.995	103.229	19.652	29.843	0.515
632.000	388.176	80.001	19.995	103.229	19.702	26.585	0.475
634.000	389.235	80.002	19.994	103.224	19.745	23.759	0.528
636.000	390.204	80.000	19.994	103.209	19.786	21.097	0.502
638.000	391.266	80.002	19.995	103.210	19.825	18.531	0.499
640.000	392.318	80.001	19.997	103.200	19.848	17.055	0.505
642.000	393.294	80.002	19.996	103.198	19.877	15.146	0.502
644.000	394.377	80.001	19.996	103.196	19.893	14.071	0.491
646.000	395.363	80.001	19.995	103.202	19.916	12.568	0.470
648.000	396.339	80.001	19.995	103.196	19.928	11.801	0.552
650.000	397.512	80.001	19.997	103.194	19.939	11.058	0.568
652.000	398.447	80.000	19.995	103.191	19.949	10.425	0.406
654.000	399.587	80.001	19.995	103.188	19.957	9.878	0.316
656.000	400.458	80.001	19.997	103.189	19.967	9.247	0.611
658.000	401.440	80.002	19.996	103.188	19.971	8.962	0.473
660.000	402.520	80.001	19.994	103.188	19.977	8.591	0.515
662.000	403.530	80.003	19.994	103.189	19.984	8.146	0.491
664.000	404.501	80.002	19.994	103.185	19.982	8.245	0.515
666.000	405.479	80.003	19.996	103.174	19.983	8.166	0.522
668.000	406.446	80.002	19.995	103.188	19.988	7.892	0.522
670.000	407.447	80.002	19.995	103.188	19.987	7.897	0.488
672.000	408.459	80.003	19.995	103.189	19.992	7.596	0.553
674.000	409.463	80.001	19.996	103.185	19.994	7.498	0.488
676.000	410.449	80.002	19.996	103.187	19.997	7.284	0.541
678.000	411.426	80.002	19.995	103.183	19.997	7.290	0.487
680.000	412.434	80.001	19.996	103.182	19.999	7.134	0.495
682.000	413.395	80.002	19.995	103.181	20.000	7.048	0.475
684.000	414.387	80.002	19.996	103.186	19.998	7.204	0.506
686.000	415.323	80.003	19.995	103.184	20.001	6.989	0.457
688.000	416.363	80.004	19.995	103.184	20.003	6.862	0.460
690.000	417.348	80.003	19.996	103.183	20.004	6.790	0.500
692.000	418.315	80.005	19.996	103.185	20.005	6.740	0.496
694.000	419.317	80.003	19.995	103.185	20.007	6.647	0.502
696.000	420.348	80.003	19.996	103.185	20.010	6.426	0.516
698.000	421.333	80.002	19.995	103.187	20.011	6.382	0.483
700.000	422.325	80.000	19.995	103.188	20.007	6.602	0.492
702.000	423.370	80.002	19.996	103.186	20.006	6.657	0.527
704.000	424.390	80.001	19.996	103.187	20.007	6.640	0.505
706.000	425.436	80.001	19.996	103.185	20.011	6.362	0.506
708.000	426.473	80.000	19.996	103.187	20.010	6.396	0.529
710.000	427.438	80.000	19.996	103.190	20.012	6.283	0.487
712.000	428.477	80.000	19.995	103.180	20.014	6.147	0.517
714.000	429.555	80.001	19.996	103.185	20.017	5.982	0.512
716.000	430.531	80.000	19.996	103.187	20.018	5.877	0.504
718.000	431.532	80.001	19.996	103.185	20.020	5.753	0.499
720.000	432.563	80.001	19.995	103.182	20.021	5.692	0.499
722.000	433.590	80.001	19.996	103.180	20.023	5.568	0.522
724.000	434.625	80.001	19.995	103.187	20.024	5.531	0.501
726.000	435.693	80.000	19.995	103.187	20.026	5.360	0.539
728.000	436.722	80.002	19.995	103.191	20.025	5.422	0.491
730.000	437.767	80.000	19.995	103.189	20.028	5.234	0.522
732.000	438.811	80.000	19.995	103.189	20.031	5.035	0.557
734.000	439.807	80.000	19.996	103.189	20.030	5.145	0.498
736.000	440.870	80.001	19.995	103.186	20.032	4.971	0.512
738.000	441.923	80.000	19.996	103.182	20.036	4.729	0.517
740.000	442.925	80.002	19.995	103.172	20.040	4.466	0.535
742.000	443.911	80.002	19.994	103.181	20.040	4.485	0.487
744.000	444.954	80.003	19.996	103.176	20.042	4.332	0.495
746.000	445.978	80.004	19.996	103.185	20.042	4.337	0.499
748.000	446.968	80.002	19.994	103.170	20.041	4.423	0.518
750.000	448.011	80.003	19.994	103.174	20.045	4.124	0.507
752.000	449.019	80.003	19.995	103.166	20.042	4.350	0.539
754.000	450.007	80.003	19.996	103.170	20.043	4.250	0.498
756.000	450.998	80.001	19.995	103.178	20.044	4.229	0.496
758.000	452.058	80.002	19.994	103.178	20.047	3.977	0.503
760.000	453.033	80.002	19.995	103.177	20.049	3.877	0.526
762.000	454.029	80.003	19.995	103.177	20.051	3.719	0.503
764.000	455.062	80.004	19.996	103.186	20.049	3.889	0.480
766.000	456.091	80.003	19.995	103.176	20.053	3.628	0.497
768.000	457.103	80.002	19.996	103.178	20.052	3.667	0.518
770.000	458.142	80.003	19.995	103.184	20.054	3.545	0.525
772.000	459.195	80.003	19.995	103.164	20.054	3.560	0.548
774.000	460.229	80.001	19.996	103.179	20.053	3.638	0.539
776.000	461.289	80.001	19.997	103.179	20.057	3.327	0.528
778.000	462.284	80.000	19.997	103.182	20.058	3.253	0.517
780.000	463.356	80.001	19.996	103.183	20.060	3.124	0.546
782.000	464.395	80.001	19.996	103.187	20.058	3.302	0.495
784.000	465.431	80.001	19.997	103.181	20.062	3.044	0.528
786.000	466.482	80.000	19.996	103.179	20.060	3.149	0.493
788.000	467.533	80.000	19.996	103.180	20.062	3.051	0.538
790.000	468.617	80.001	19.995	103.186	20.061	3.085	0.524
792.000	469.636	80.001	19.996	103.175	20.064	2.882	0.529
794.000	470.738	80.001	19.996	103.182	20.065	2.830	0.555
796.000	471.733	80.003	19.997	103.182	20.063	2.984	0.506
798.000	472.822	80.002	19.995	103.183	20.066	2.770	0.541
800.000	473.844	80.001	19.996	103.172	20.067	2.708	0.506
802.000	474.939	80.000	19.996	103.179	20.070	2.490	0.503
804.000	476.008	80.001	19.996	103.176	20.068	2.635	0.541
806.000	477.065	80.000	19.997	103.156	20.071	2.409	0.535
808.000	478.142	80.001	19.995	103.165	20.071	2.461	0.526
810.000	479.157	80.001	19.995	103.170	20.069	2.549	0.519
812.000	480.209	80.001	19.997	103.176	20.068	2.604	0.536
814.000	481.260	80.000	19.996	103.159	20.069	2.591	0.502
816.000	482.329	80.002	19.995	103.173	20.069	2.556	0.540
818.000	483.330	80.002	19.995	103.169	20.068	2.601	0.517
820.000	484.376	80.001	19.995	103.166	20.071	2.404	0.548
822.000	485.346	80.003	19.996	103.165	20.071	2.448	0.469
824.000	486.365	80.003	19.995	103.157	20.073	2.271	0.512
826.000	487.324	80.003	19.995	103.157	20.074	2.234	0.470
828.000	488.307	80.002	19.995	103.157	20.074	2.253	0.497
830.000	489.291	80.003	19.996	103.158	20.074	2.251	0.459
832.000	490.264	80.002	19.996	103.153	20.071	2.432	0.455
834.000	491.214	80.001	19.995	103.153	20.072	2.379	0.468
836.000	492.209	80.002	19.996	103.161	20.073	2.275	0.507
838.000	493.153	80.003	19.995	103.161	20.071	2.459	0.474
840.000	494.128	80.002	19.995	103.154	20.071	2.440	0.504
842.000	495.055	80.001	19.994	103.152	20.072	2.359	0.462
844.000	496.021	80.002	19.994	103.163	20.070	2.497	0.485
846.000	496.940	80.002	19.993	103.154	20.068	2.631	0.486
848.000	497.956	80.003	19.995	103.152	20.070	2.466	0.489
850.000	498.935	80.003	19.995	103.170	20.070	2.470	0.497
852.000	499.835	80.003	19.995	103.177	20.070	2.508	0.474
854.000	500.759	80.004	19.994	103.165	20.073	2.323	0.465
856.000	501.736	80.003	19.995	103.158	20.077	2.051	0.479
858.000	502.725	80.001	19.995	103.160	20.073	2.278	0.485
860.000	503.667	80.001	19.996	103.163	20.073	2.310	0.477
862.000	504.632	79.999	19.994	103.155	20.072	2.353	0.460
864.000	505.598	80.002	19.996	103.165	20.075	2.197	0.481
866.000	506.637	79.999	19.995	103.150	20.076	2.115	0.533
868.000	507.610	80.002	19.996	103.156	20.076	2.079	0.496
870.000	508.610	79.999	19.996	103.153	20.076	2.114	0.508
872.000	509.585	80.002	19.997	103.159	20.077	2.051	0.513
874.000	510.579	80.002	19.995	103.149	20.077	2.054	0.494
876.000	511.583	80.001	19.996	103.149	20.074	2.243	0.478
878.000	512.576	80.001	19.995	103.149	20.073	2.280	0.506
880.000	513.552	80.001	19.995	103.164	20.072	2.377	0.503
882.000	514.620	80.001	19.996	103.168	20.075	2.149	0.532
884.000	515.656	80.001	19.996	103.155	20.074	2.216	0.531
886.000	516.659	80.001	19.995	103.158	20.074	2.250	0.500
888.000	517.701	80.001	19.996	103.168	20.073	2.318	0.499
890.000	518.731	80.000	19.997	103.159	20.074	2.210	0.498
892.000	519.791	80.001	19.996	103.163	20.072	2.357	0.515
894.000	520.791	80.000	19.997	103.160	20.072	2.337	0.512
896.000	521.812	80.000	19.996	103.165	20.072	2.366	0.501
898.000	522.836	80.001	19.997	103.163	20.072	2.371	0.472
900.000	523.887	80.001	19.998	103.171	20.074	2.224	0.522
902.000	524.931	80.002	19.997	103.152	20.075	2.178	0.526
904.000	525.947	80.003	19.995	103.151	20.072	2.363	0.524
906.000	527.012	80.002	19.994	103.155	20.074	2.241	0.537
908.000	528.069	80.002	19.994	103.154	20.073	2.319	0.532
910.000	529.079	80.002	19.995	103.155	20.073	2.296	0.514
912.000	530.158	80.002	19.995	103.155	20.074	2.232	0.522
914.000	531.223	80.002	19.995	103.157	20.073	2.320	0.543
916.000	532.226	80.001	19.995	103.167	20.074	2.209	0.511
918.000	533.289	80.002	19.995	103.155	20.071	2.434	0.536
920.000	534.323	80.002	19.995	103.153	20.073	2.303	0.529
922.000	535.354	80.000	19.993	103.155	20.078	1.995	0.517
924.000	536.373	80.003	19.996	103.160	20.073	2.312	0.506
926.000	537.456	80.001	19.995	103.166	20.076	2.083	0.536
928.000	538.516	80.003	19.995	103.155	20.073	2.274	0.514
930.000	539.532	80.005	19.994	103.150	20.076	2.088	0.520
932.000	540.576	80.004	19.995	103.151	20.073	2.276	0.516
934.000	541.667	80.004	19.995	103.151	20.075	2.189	0.533
936.000	542.757	80.004	19.995	103.150	20.075	2.198	0.569
938.000	543.766	80.002	19.994	103.151	20.074	2.208	0.509
940.000	544.856	80.000	19.995	103.149	20.075	2.166	0.560
942.000	545.901	80.002	19.995	103.150	20.075	2.189	0.538
944.000	547.022	80.002	19.996	103.163	20.078	1.949	0.558
946.000	548.094	80.002	19.995	103.159	20.074	2.212	0.546
948.000	549.214	80.001	19.995	103.152	20.075	2.199	0.562
950.000	550.291	80.002	19.995	103.163	20.074	2.217	0.548
952.000	551.369	80.000	19.997	103.166	20.075	2.139	0.524
954.000	552.508	80.001	19.995	103.148	20.077	2.045	0.546
956.000	553.565	80.001	19.996	103.155	20.077	2.044	0.549
958.000	554.715	80.001	19.995	103.151	20.075	2.174	0.572
960.001	555.795	80.001	19.996	103.148	20.079	1.920	0.563
962.000	556.874	80.000	19.998	103.157	20.075	2.140	0.538
964.000	557.998	80.000	19.996	103.157	20.078	1.954	0.567
966.000	559.123	80.001	19.996	103.161	20.076	2.128	0.535
968.000	560.199	80.000	19.995	103.154	20.078	1.984	0.540
970.000	561.319	80.000	19.995	103.150	20.077	2.053	0.560
972.000	562.390	79.998	19.996	103.152	20.079	1.931	0.536
974.000	563.495	80.001	19.996	103.153	20.077	2.061	0.568
976.000	564.592	80.001	19.996	103.158	20.077	2.040	0.576
978.000	565.707	80.000	19.996	103.155	20.079	1.929	0.548
980.000	566.773	80.000	19.996	103.152	20.077	2.038	0.534
982.000	567.864	79.999	19.995	103.163	20.075	2.181	0.514
984.000	568.917	80.000	19.998	103.156	20.076	2.086	0.538
986.000	570.017	80.001	19.996	103.151	20.073	2.292	0.537
988.000	571.057	80.001	19.997	103.151	20.077	2.020	0.497
990.000	572.161	80.003	19.997	103.149	20.077	2.029	0.541
992.000	573.209	80.001	19.997	103.151	20.076	2.085	0.507
994.000	574.328	80.001	19.997	103.149	20.077	2.022	0.525
996.000	575.369	80.001	19.995	103.148	20.078	1.975	0.542
998.000	576.446	80.001	19.995	103.149	20.078	1.965	0.550
1000.000	577.482	80.002	19.994	103.149	20.075	2.172	0.543
1002.000	578.511	80.001	19.995	103.149	20.077	2.045	0.532
1004.000	579.559	80.002	19.995	103.148	20.076	2.117	0.512
1006.000	580.607	80.002	19.995	103.148	20.074	2.217	0.513
1008.000	581.650	80.002	19.995	103.148	20.077	2.063	0.530
1010.000	582.652	80.003	19.994	103.148	20.077	2.033	0.511
1012.000	583.636	80.003	19.995	103.148	20.076	2.097	0.474
1014.000	584.684	80.005	19.996	103.144	20.076	2.133	0.512
1016.000	585.712	80.004	19.996	103.141	20.075	2.201	0.519
1018.000	586.704	80.003	19.994	103.145	20.077	2.034	0.514
1020.000	587.721	80.002	19.996	103.148	20.075	2.165	0.507
1022.000	588.663	80.001	19.996	103.147	20.075	2.178	0.484
1024.001	589.701	80.001	19.996	103.148	20.075	2.144	0.514
1026.000	590.683	80.002	19.998	103.148	20.077	2.067	0.497
1028.000	591.662	80.000	19.994	103.145	20.077	2.027	0.494
1030.000	592.640	80.002	19.995	103.148	20.077	2.067	0.474
1032.000	593.631	79.999	19.994	103.152	20.075	2.170	0.486
1034.000	594.611	80.000	19.995	103.149	20.076	2.120	0.487
1036.000	595.601	80.001	19.994	103.150	20.076	2.118	0.518
1038.000	596.554	80.001	19.995	103.147	20.077	2.008	0.472
1040.000	597.522	80.001	19.994	103.147	20.078	1.966	0.475
1042.000	598.476	80.000	19.994	103.145	20.078	1.952	0.462
1044.001	599.477	80.000	19.996	103.144	20.076	2.090	0.510
1046.000	600.426	80.000	19.995	103.148	20.077	2.013	0.465
1048.000	601.356	80.000	19.996	103.142	20.078	1.961	0.448
1050.000	602.321	79.999	19.995	103.148	20.080	1.862	0.470
1052.000	603.289	80.000	19.997	103.147	20.080	1.864	0.462
1054.000	604.221	79.999	19.995	103.151	20.080	1.812	0.459
1056.000	605.203	80.001	19.996	103.144	20.078	1.988	0.478
1058.000	606.129	80.000	19.997	103.143	20.076	2.102	0.471
1060.001	607.126	80.000	19.995	103.141	20.078	1.986	0.485
1062.000	608.068	80.000	19.996	103.149	20.081	1.748	0.479
1064.001	609.050	80.002	19.996	103.140	20.081	1.750	0.453
1066.000	610.015	80.001	19.995	103.138	20.080	1.820	0.463
1068.000	611.028	80.003	19.995	103.132	20.080	1.832	0.474
1070.000	611.995	80.002	19.995	103.137	20.083	1.674	0.479
1072.000	612.997	80.002	19.997	103.135	20.077	2.043	0.504
1074.000	613.984	80.001	19.995	103.143	20.078	1.952	0.499
1076.000	614.976	80.001	19.998	103.149	20.081	1.800	0.498
1078.000	615.964	80.003	19.996	103.146	20.079	1.884	0.469
1080.000	616.957	80.002	19.996	103.147	20.082	1.685	0.495
1082.000	617.956	80.003	19.996	103.145	20.083	1.667	0.526
1084.000	618.922	80.002	19.997	103.146	20.081	1.809	0.514
1086.000	619.939	80.002	19.996	103.145	20.078	1.941	0.507
1088.000	620.927	80.002	19.996	103.146	20.080	1.832	0.482
1090.000	621.940	80.003	19.995	103.144	20.082	1.703	0.488
1092.000	622.927	80.004	19.997	103.146	20.077	2.013	0.511
1094.000	623.985	80.003	19.994	103.148	20.078	1.999	0.518
1096.000	624.982	80.003	19.995	103.147	20.078	1.979	0.478
1098.000	626.030	80.003	19.995	103.150	20.078	1.970	0.519
1100.001	627.093	80.002	19.995	103.149	20.079	1.877	0.529
1102.000	628.123	80.002	19.995	103.155	20.079	1.931	0.536
1104.000	629.156	80.001	19.996	103.155	20.078	1.983	0.511
1106.000	630.199	80.001	19.995	103.150	20.081	1.760	0.539
1108.000	631.261	79.999	19.996	103.147	20.079	1.905	0.533
1110.000	632.328	80.000	19.995	103.146	20.083	1.637	0.533
1112.000	633.356	80.000	19.997	103.147	20.077	2.031	0.522
1114.000	634.406	79.999	19.996	103.149	20.082	1.719	0.536
1116.001	635.465	80.000	19.995	103.145	20.082	1.691	0.519
1118.000	636.466	80.002	19.996	103.146	20.080	1.857	0.493
1120.000	637.504	80.003	19.995	103.145	20.081	1.803	0.525
1122.000	638.583	80.002	19.995	103.150	20.082	1.708	0.538
1124.000	639.621	80.001	19.995	103.148	20.082	1.685	0.553
1126.000	640.666	80.003	19.994	103.148	20.079	1.898	0.509
1128.000	641.733	80.002	19.995	103.144	20.079	1.905	0.525
1130.000	642.813	80.001	19.996	103.146	20.083	1.671	0.550
1132.000	643.844	80.000	19.996	103.142	20.080	1.870	0.531
1134.000	644.911	80.001	19.996	103.147	20.081	1.771	0.534
1136.000	646.005	80.000	19.996	103.149	20.079	1.909	0.541
1138.000	647.096	80.000	19.996	103.150	20.075	2.138	0.582
1140.000	648.162	80.002	19.996	103.144	20.082	1.692	0.555
1142.000	649.263	80.000	19.996	103.144	20.081	1.805	0.533
1144.000	650.369	80.002	19.996	103.140	20.084	1.554	0.528
1146.000	651.494	80.003	19.997	103.145	20.080	1.855	0.571
1148.000	652.522	80.002	19.996	103.136	20.080	1.833	0.563
1150.000	653.682	80.002	19.995	103.135	20.084	1.597	0.500
1152.000	654.623	80.003	19.995	103.126	20.082	1.696	0.530
1154.000	655.707	80.002	19.996	103.139	20.079	1.913	0.523
1156.000	656.706	80.002	19.995	103.132	20.084	1.562	0.501
1158.000	657.737	80.000	19.995	103.132	20.082	1.710	0.496
1160.000	658.698	80.002	19.996	103.123	20.084	1.580	0.491
1162.000	659.802	80.001	19.995	103.143	20.080	1.837	0.540
1164.000	660.801	80.000	19.996	103.149	20.084	1.599	0.526
1166.000	661.812	80.000	19.997	103.147	20.081	1.796	0.502
1168.000	662.858	80.001	19.997	103.140	20.080	1.821	0.530
1170.000	663.859	80.002	19.998	103.147	20.082	1.723	0.521
1172.000	664.864	80.002	19.996	103.138	20.082	1.692	0.490
1174.000	665.837	80.003	19.996	103.125	20.081	1.773	0.476
1176.000	666.857	80.002	19.995	103.123	20.084	1.601	0.527
1178.000	667.820	80.002	19.995	103.131	20.081	1.750	0.481
1180.000	668.817	80.002	19.995	103.123	20.083	1.665	0.497
1182.001	669.774	80.002	19.995	103.147	20.087	1.365	0.480
1184.000	670.750	80.001	19.995	103.147	20.085	1.536	0.482
1186.000	671.748	80.002	19.996	103.147	20.084	1.563	0.512
1188.001	672.763	80.002	19.994	103.145	20.080	1.848	0.505
1190.000	673.775	80.001	19.995	103.147	20.080	1.812	0.484
1192.000	674.789	80.000	19.995	103.142	20.084	1.568	0.498
1194.000	675.805	80.000	19.995	103.123	20.082	1.685	0.467
1196.000	676.852	80.001	19.996	103.122	20.085	1.511	0.526
1198.000	677.859	79.999	19.995	103.137	20.083	1.639	0.490
1200.000	678.815	80.002	19.996	103.131	20.084	1.547	0.508
1202.000	679.750	80.000	19.996	103.122	20.082	1.685	0.461
1204.000	680.722	80.001	19.996	103.123	20.079	1.903	0.493
1206.000	681.660	80.002	19.995	103.129	20.082	1.699	0.456
1208.000	682.672	80.001	19.995	103.141	20.082	1.742	0.476
1210.000	683.624	79.999	19.996	103.133	20.079	1.923	0.499
1212.000	684.574	80.001	19.996	103.131	20.079	1.893	0.454
1214.000	685.606	80.001	19.995	103.140	20.080	1.862	0.506
1216.000	686.578	80.000	19.996	103.135	20.080	1.870	0.478
1218.001	687.637	80.000	19.995	103.135	20.079	1.891	0.542
1220.000	688.673	79.999	19.995	103.134	20.080	1.826	0.532
1222.000	689.689	80.001	19.994	103.137	20.078	1.979	0.515
1224.000	690.729	80.002	19.995	103.139	20.079	1.907	0.523
1226.000	691.795	80.001	19.995	103.135	20.078	1.966	0.547
1228.000	692.869	80.002	19.994	103.145	20.080	1.853	0.554
1230.000	693.928	80.002	19.995	103.126	20.080	1.871	0.550
1232.000	695.023	80.002	19.996	103.143	20.078	2.002	0.566
1234.000	696.124	80.001	19.996	103.141	20.083	1.662	0.552
1236.000	697.227	80.001	19.996	103.132	20.079	1.903	0.552
1238.000	698.319	80.002	19.995	103.126	20.079	1.910	0.552
1240.000	699.381	80.001	19.996	103.124	20.078	1.950	0.545
1242.000	700.454	80.000	19.996	103.126	20.082	1.722	0.530
1244.000	701.485	80.002	19.996	103.123	20.080	1.865	0.483
1246.001	702.569	80.002	19.995	103.127	20.079	1.921	0.527
1248.000	703.605	80.001	19.996	103.114	20.079	1.912	0.515
1250.000	704.613	80.002	19.996	103.120	20.081	1.781	0.504
1252.000	705.570	80.001	19.995	103.122	20.079	1.896	0.494
1254.000	706.554	80.002	19.996	103.111	20.077	2.011	0.502
1256.000	707.547	80.003	19.996	103.118	20.080	1.819	0.494
1258.000	708.525	80.003	19.995	103.132	20.079	1.889	0.482
1260.000	709.539	80.002	19.996	103.126	20.075	2.150	0.511
1262.000	710.527	80.003	19.997	103.109	20.079	1.885	0.521
1264.000	711.551	79.999	19.996	103.121	20.079	1.892	0.483
1266.000	712.636	80.001	19.997	103.126	20.081	1.762	0.543
1268.000	713.583	80.001	19.997	103.120	20.081	1.767	0.499
1270.000	714.709	80.002	19.997	103.122	20.080	1.873	0.545
1272.000	715.753	80.001	19.995	103.132	20.078	1.961	0.538
1274.000	716.807	80.001	19.994	103.121	20.081	1.769	0.499
1276.000	717.899	80.001	19.995	103.124	20.082	1.690	0.541
1278.000	718.921	80.000	19.995	103.119	20.078	2.004	0.562
1280.000	720.024	80.001	19.994	103.132	20.078	1.991	0.526
1282.000	721.095	80.001	19.994	103.123	20.076	2.102	0.543
1284.000	722.123	80.001	19.995	103.120	20.079	1.875	0.504
1286.000	723.209	80.000	19.996	103.123	20.080	1.870	0.529
1288.001	724.266	80.000	19.996	103.131	20.075	2.149	0.537
1290.000	725.367	80.000	19.996	103.131	20.079	1.900	0.549
1292.000	726.399	80.001	19.995	103.139	20.076	2.100	0.488
1294.000	727.446	80.001	19.995	103.127	20.080	1.819	0.519
1296.000	728.562	80.000	19.995	103.138	20.078	1.975	0.573
1298.000	729.539	80.000	19.995	103.129	20.076	2.113	0.526
1300.000	730.582	80.000	19.995	103.122	20.074	2.229	0.512
1302.000	731.515	79.999	19.994	103.120	20.080	1.871	0.474
1304.000	732.552	80.002	19.995	103.118	20.077	2.062	0.502
1306.000	733.510	80.004	19.994	103.119	20.077	2.027	0.479
1308.000	734.417	80.002	19.995	103.112	20.078	1.977	0.478
1310.000	735.304	80.002	19.995	103.118	20.077	2.057	0.470
1312.000	736.226	80.003	19.993	103.113	20.078	1.941	0.457
1314.000	737.149	80.003	19.995	103.113	20.080	1.839	0.468
1316.000	738.102	80.002	19.994	103.111	20.077	2.057	0.475
1318.000	739.065	80.002	19.994	103.130	20.078	1.984	0.476
1320.000	740.045	80.002	19.996	103.134	20.079	1.891	0.460
1322.000	741.060	80.002	19.995	103.125	20.076	2.075	0.557
1324.000	742.028	80.002	19.995	103.131	20.081	1.796	0.478
1326.000	743.023	80.003	19.996	103.132	20.077	2.052	0.494
1326.500	743.307	80.001	19.996	103.126	20.078	1.973	0.537