File: 01_Data/Masonite_Board/MCC/Masonite_Board_30K_min_211022_R2.txt
Sample ID:	C:\MCC\MCC Cal\Test\Masonite_Board_30K_min_211022_R2.txt
Sample Weight (mg):	4.83
Heating Rate (C/s):	0.5
Combustor Temp (C):	900
N2 Flow Rate (cc/min):	80
O2 Flow Rate (cc/min):	20
Calibration File:	C:\MCC\MCC Cal\Coeff1 JN10440_30_210304.txt.txt
T Correction Coefficients:	0	1.024463	0
Time Shift (s):	14
*
Time (s)	Temperature (C)	N2 flow rate (cc/min)	O2 flow rate (cc/min)	Flow Rate (cc/min)	Oxygen (%)	HRR (W/g)	Heating rate (C/s)
-0.001	108.339	80.004	19.995	103.033	20.131	-0.067	-0.008
2.000	108.314	80.005	19.994	103.039	20.130	-0.007	0.004
4.000	108.295	80.011	19.996	103.036	20.133	-0.168	-0.011
6.000	108.259	79.996	19.996	103.035	20.130	-0.020	-0.024
8.000	108.227	79.991	19.996	103.041	20.128	0.120	-0.034
10.000	108.302	79.997	19.994	103.042	20.126	0.239	0.026
12.000	108.288	79.992	19.996	103.037	20.129	0.055	0.046
14.000	108.236	79.992	19.996	103.039	20.130	-0.027	0.024
16.000	108.257	80.003	19.995	103.041	20.127	0.180	-0.017
18.000	108.270	79.999	19.996	103.036	20.130	0.033	0.018
20.000	108.251	79.992	19.996	103.040	20.131	-0.078	-0.037
22.000	108.264	79.994	19.993	103.034	20.131	-0.095	-0.013
24.000	108.407	80.000	19.994	103.036	20.128	0.170	0.058
26.000	108.298	79.998	19.993	103.035	20.128	0.126	0.024
28.000	108.273	79.995	19.996	103.063	20.129	0.062	-0.013
30.000	108.326	80.007	19.993	103.063	20.127	0.228	0.033
32.000	108.289	79.996	19.996	103.080	20.128	0.159	0.013
33.999	108.361	80.016	19.993	103.097	20.125	0.359	0.002
35.999	108.426	80.012	19.994	103.106	20.119	0.713	0.048
37.999	108.453	79.985	19.998	103.111	20.116	0.956	0.032
39.999	108.558	79.991	19.995	103.107	20.117	0.881	0.021
41.999	108.670	80.012	19.993	103.125	20.115	1.016	0.081
43.999	108.756	80.002	19.994	103.149	20.108	1.478	0.068
45.999	108.874	80.010	19.995	103.173	20.110	1.308	0.077
47.999	109.024	80.012	19.994	103.175	20.106	1.573	0.067
49.999	109.220	79.992	19.995	103.191	20.108	1.491	0.114
52.000	109.385	79.999	19.995	103.184	20.102	1.858	0.098
53.999	109.630	80.004	19.996	103.190	20.100	1.977	0.133
55.999	109.907	80.000	19.995	103.191	20.100	2.017	0.126
57.999	110.161	79.994	19.995	103.187	20.101	1.937	0.135
59.999	110.467	80.003	19.996	103.186	20.099	2.096	0.151
61.999	110.753	79.995	19.995	103.202	20.093	2.450	0.147
63.999	111.072	79.999	19.994	103.223	20.097	2.224	0.148
65.999	111.454	79.994	19.994	103.223	20.092	2.531	0.192
67.999	111.814	80.011	19.993	103.226	20.092	2.548	0.203
69.999	112.199	79.989	19.997	103.229	20.092	2.544	0.170
71.999	112.613	80.004	19.995	103.232	20.090	2.688	0.187
73.999	113.059	80.014	19.994	103.243	20.087	2.866	0.222
75.999	113.470	79.994	19.996	103.254	20.086	2.922	0.249
78.000	113.989	79.999	19.995	103.260	20.087	2.867	0.272
79.999	114.538	80.008	19.994	103.252	20.087	2.867	0.305
81.999	114.990	79.996	19.996	103.268	20.087	2.902	0.267
83.999	115.557	80.000	19.994	103.266	20.085	2.994	0.281
86.000	116.148	79.994	19.995	103.269	20.083	3.142	0.297
87.999	116.690	79.997	19.995	103.270	20.084	3.074	0.297
90.000	117.300	79.987	19.996	103.259	20.086	2.942	0.315
91.999	117.904	80.001	19.995	103.263	20.084	3.077	0.291
93.999	118.554	80.016	19.995	103.270	20.081	3.297	0.321
96.000	119.198	80.003	19.995	103.271	20.084	3.098	0.335
97.999	119.830	80.003	19.994	103.271	20.096	2.291	0.328
99.999	120.454	79.983	20.000	103.271	20.080	3.335	0.303
102.000	121.187	80.002	19.994	103.261	20.078	3.467	0.369
103.999	121.904	80.010	19.995	103.271	20.081	3.251	0.337
105.999	122.654	79.999	19.995	103.282	20.078	3.501	0.387
108.000	123.402	79.993	19.997	103.284	20.080	3.348	0.363
109.999	124.104	79.999	19.997	103.279	20.081	3.291	0.385
111.999	124.846	79.998	19.996	103.274	20.077	3.570	0.287
114.000	125.625	79.996	19.995	103.267	20.081	3.287	0.387
115.999	126.511	80.005	19.995	103.264	20.082	3.180	0.444
117.999	127.210	79.999	19.995	103.268	20.083	3.136	0.426
119.999	127.989	80.004	19.995	103.264	20.079	3.379	0.401
121.999	128.812	79.999	19.996	103.268	20.086	2.962	0.396
123.999	129.623	80.004	19.994	103.264	20.096	2.303	0.432
125.999	130.417	80.000	19.996	103.266	20.104	1.757	0.384
127.999	131.208	80.004	19.995	103.267	20.081	3.270	0.403
130.000	132.054	80.003	19.995	103.267	20.090	2.681	0.434
132.000	132.911	79.998	19.994	103.269	20.080	3.366	0.420
134.000	133.729	79.999	19.995	103.268	20.079	3.377	0.407
136.000	134.577	80.004	19.994	103.265	20.082	3.220	0.428
138.000	135.393	79.995	19.995	103.272	20.081	3.298	0.431
140.000	136.277	80.005	19.995	103.280	20.081	3.251	0.438
142.000	137.153	80.002	19.994	103.270	20.080	3.318	0.450
144.000	137.992	80.000	19.995	103.270	20.081	3.260	0.388
146.000	138.890	80.001	19.994	103.274	20.082	3.185	0.443
148.000	139.784	79.999	19.994	103.269	20.093	2.486	0.468
150.000	140.648	80.002	19.994	103.269	20.086	2.937	0.388
152.000	141.539	80.002	19.995	103.265	20.087	2.882	0.427
154.000	142.406	79.999	19.995	103.265	20.087	2.886	0.441
156.000	143.341	79.999	19.995	103.266	20.085	2.991	0.480
158.000	144.163	79.999	19.995	103.261	20.084	3.084	0.406
160.000	145.090	80.001	19.996	103.267	20.085	3.024	0.474
162.000	145.988	80.000	19.995	103.261	20.084	3.044	0.457
164.000	146.901	80.000	19.997	103.263	20.091	2.601	0.465
166.000	147.852	79.999	19.997	103.265	20.084	3.081	0.469
168.000	148.748	80.001	19.998	103.256	20.087	2.893	0.462
170.000	149.680	80.000	19.996	103.266	20.087	2.864	0.442
172.000	150.592	79.999	19.996	103.263	20.084	3.048	0.458
174.000	151.517	79.997	19.996	103.259	20.084	3.064	0.470
176.000	152.444	79.999	19.997	103.265	20.083	3.127	0.500
178.000	153.375	80.001	19.995	103.261	20.088	2.791	0.477
180.000	154.286	79.998	19.995	103.262	20.089	2.758	0.453
182.000	155.201	80.002	19.996	103.255	20.091	2.601	0.443
184.000	156.077	79.999	19.995	103.250	20.084	3.055	0.432
186.000	157.039	80.002	19.995	103.259	20.086	2.959	0.504
188.000	157.994	80.000	19.995	103.262	20.085	3.011	0.471
190.000	158.922	80.000	19.998	103.259	20.083	3.121	0.464
192.000	159.823	80.002	19.995	103.264	20.085	3.011	0.466
194.000	160.828	80.000	19.996	103.263	20.085	2.991	0.458
196.000	161.741	80.000	19.997	103.258	20.080	3.346	0.474
198.000	162.688	80.001	19.995	103.262	20.085	3.037	0.468
200.000	163.614	79.998	19.996	103.254	20.082	3.177	0.467
202.000	164.629	80.002	19.995	103.258	20.092	2.536	0.482
204.000	165.596	80.005	19.995	103.259	20.090	2.703	0.488
206.000	166.559	80.002	19.995	103.263	20.080	3.355	0.511
208.000	167.506	80.003	19.994	103.257	20.078	3.440	0.457
210.000	168.473	80.002	19.994	103.253	20.080	3.334	0.481
212.000	169.445	80.002	19.994	103.253	20.081	3.285	0.498
214.000	170.362	80.001	19.995	103.263	20.080	3.367	0.474
216.000	171.298	80.000	19.994	103.260	20.081	3.289	0.458
218.000	172.269	79.997	19.995	103.257	20.081	3.240	0.463
220.000	173.281	79.998	19.994	103.244	20.080	3.364	0.437
222.000	174.317	80.001	19.993	103.247	20.081	3.299	0.541
224.000	175.249	79.998	19.996	103.260	20.082	3.216	0.498
226.000	176.190	80.001	19.995	103.239	20.081	3.259	0.465
228.000	177.176	79.999	19.996	103.259	20.077	3.526	0.487
230.000	178.172	80.000	19.994	103.252	20.080	3.335	0.504
232.000	179.167	79.999	19.995	103.247	20.082	3.234	0.508
234.000	180.137	80.001	19.995	103.245	20.077	3.550	0.457
236.000	181.105	79.997	19.995	103.240	20.076	3.601	0.519
238.000	182.123	80.000	19.995	103.239	20.079	3.376	0.501
240.000	183.083	79.998	19.995	103.257	20.079	3.407	0.499
242.000	184.081	80.000	19.994	103.241	20.080	3.325	0.505
244.000	185.170	79.999	19.995	103.245	20.082	3.208	0.518
246.000	186.117	80.002	19.995	103.239	20.079	3.379	0.514
248.000	187.159	80.000	19.995	103.247	20.076	3.575	0.493
250.000	188.138	79.998	19.995	103.236	20.077	3.560	0.512
252.000	189.157	79.999	19.996	103.229	20.074	3.721	0.498
254.000	190.208	80.002	19.996	103.232	20.077	3.562	0.541
256.000	191.182	80.001	19.996	103.231	20.078	3.496	0.476
258.000	192.188	80.000	19.996	103.231	20.075	3.697	0.506
260.000	193.363	80.000	19.996	103.231	20.078	3.441	0.596
262.000	194.237	80.001	19.995	103.235	20.076	3.606	0.455
264.000	195.237	79.999	19.995	103.232	20.078	3.476	0.482
266.000	196.240	80.004	19.995	103.233	20.078	3.491	0.463
268.000	197.264	79.999	19.996	103.231	20.079	3.378	0.456
270.000	198.268	80.000	19.994	103.229	20.078	3.463	0.501
272.000	199.291	80.001	19.996	103.230	20.074	3.712	0.480
274.000	200.352	80.001	19.995	103.225	20.076	3.601	0.485
276.000	201.322	79.999	19.995	103.236	20.077	3.547	0.504
278.000	202.370	79.998	19.996	103.231	20.075	3.668	0.540
280.000	203.338	79.999	19.996	103.235	20.081	3.283	0.492
282.000	204.418	79.999	19.995	103.230	20.081	3.288	0.528
284.000	205.419	80.001	19.997	103.235	20.074	3.716	0.507
286.000	206.431	80.001	19.995	103.237	20.079	3.390	0.495
288.000	207.472	80.001	19.997	103.225	20.076	3.637	0.513
290.000	208.513	80.003	19.996	103.233	20.074	3.735	0.494
292.000	209.559	80.003	19.995	103.199	20.070	3.973	0.522
294.000	210.540	80.001	19.996	103.172	20.073	3.828	0.460
296.000	211.526	79.998	19.995	103.288	20.073	3.797	0.478
298.000	212.592	80.000	19.995	103.231	20.070	3.987	0.524
300.000	213.603	79.999	19.995	103.224	20.073	3.827	0.524
302.000	214.636	80.000	19.995	103.225	20.069	4.047	0.510
304.000	215.644	79.998	19.995	103.225	20.070	4.007	0.506
306.000	216.611	79.999	19.995	103.226	20.068	4.140	0.466
308.000	217.668	79.998	19.995	103.225	20.080	3.368	0.497
310.000	218.722	80.001	19.995	103.226	20.068	4.162	0.521
312.000	219.706	79.999	19.995	103.226	20.069	4.057	0.516
314.000	220.704	80.006	19.995	103.226	20.066	4.258	0.512
316.000	221.672	80.001	19.996	103.221	20.065	4.350	0.464
318.000	222.706	80.001	19.995	103.224	20.063	4.489	0.541
320.000	223.687	80.000	19.996	103.224	20.062	4.542	0.476
322.000	224.687	79.999	19.995	103.224	20.062	4.526	0.479
324.000	225.672	80.000	19.997	103.227	20.055	5.010	0.485
326.000	226.662	80.000	19.995	103.225	20.062	4.515	0.442
328.000	227.646	79.999	19.995	103.225	20.057	4.847	0.520
330.000	228.713	79.999	19.995	103.227	20.058	4.799	0.528
332.000	229.724	79.999	19.995	103.225	20.057	4.869	0.504
334.000	230.686	80.001	19.995	103.227	20.057	4.840	0.522
336.000	231.626	80.001	19.995	103.225	20.052	5.205	0.517
338.000	232.576	80.000	19.995	103.225	20.052	5.236	0.445
340.000	233.565	79.999	19.995	103.215	20.049	5.378	0.508
342.000	234.554	80.002	19.995	103.219	20.047	5.517	0.489
344.000	235.545	80.001	19.995	103.227	20.049	5.382	0.475
346.000	236.490	80.001	19.996	103.228	20.046	5.575	0.481
348.000	237.467	80.000	19.996	103.220	20.040	5.973	0.530
350.000	238.424	80.001	19.996	103.219	20.042	5.891	0.492
352.000	239.392	79.999	19.997	103.214	20.039	6.092	0.479
354.000	240.348	80.000	19.997	103.225	20.037	6.178	0.468
356.000	241.307	80.000	19.995	103.222	20.031	6.578	0.465
358.000	242.294	80.000	19.996	103.225	20.034	6.401	0.499
360.000	243.237	80.001	19.995	103.223	20.029	6.742	0.472
362.000	244.161	80.001	19.996	103.222	20.028	6.837	0.458
364.000	245.138	80.002	19.995	103.225	20.020	7.311	0.481
366.000	246.108	80.002	19.996	103.225	20.017	7.512	0.466
368.000	247.060	80.002	19.996	103.224	20.015	7.666	0.515
370.000	248.000	80.001	19.996	103.223	20.013	7.790	0.459
372.000	248.987	80.002	19.996	103.229	20.011	7.962	0.511
374.000	250.002	80.001	19.996	103.223	20.006	8.305	0.499
376.000	250.963	80.000	19.996	103.223	20.000	8.688	0.478
378.000	251.956	79.999	19.996	103.227	19.996	8.919	0.504
380.000	252.856	79.999	19.996	103.226	19.995	8.994	0.462
382.000	253.834	79.999	19.998	103.227	19.990	9.317	0.483
384.000	254.802	79.998	19.996	103.229	19.984	9.726	0.455
386.000	255.758	79.999	19.997	103.228	19.981	9.952	0.485
388.000	256.735	79.998	19.997	103.231	19.976	10.257	0.477
390.000	257.667	79.999	19.995	103.238	19.968	10.818	0.459
392.000	258.691	79.998	19.996	103.231	19.965	11.007	0.477
394.000	259.670	80.000	19.994	103.233	19.956	11.590	0.497
396.000	260.622	79.998	19.995	103.248	19.950	11.987	0.478
398.000	261.560	80.001	19.994	103.248	19.948	12.157	0.446
400.000	262.555	80.000	19.995	103.248	19.938	12.794	0.503
402.000	263.503	79.999	19.995	103.265	19.933	13.160	0.462
404.000	264.488	79.999	19.996	103.267	19.925	13.664	0.514
406.000	265.466	79.998	19.995	103.269	19.919	14.095	0.475
408.000	266.415	80.000	19.994	103.270	19.911	14.610	0.478
410.000	267.444	79.999	19.996	103.270	19.902	15.196	0.507
412.000	268.400	79.998	19.996	103.271	19.894	15.776	0.467
414.000	269.384	80.000	19.995	103.275	19.885	16.340	0.510
416.000	270.384	80.000	19.995	103.278	19.879	16.739	0.505
418.000	271.420	79.999	19.996	103.280	19.870	17.359	0.523
420.000	272.456	80.000	19.995	103.292	19.859	18.077	0.511
422.000	273.423	80.000	19.994	103.283	19.852	18.554	0.479
424.000	274.417	80.001	19.993	103.302	19.844	19.098	0.484
426.000	275.415	80.002	19.994	103.287	19.831	19.969	0.520
428.000	276.409	80.002	19.995	103.294	19.822	20.544	0.504
430.000	277.401	80.001	19.994	103.302	19.811	21.314	0.505
432.000	278.428	80.002	19.994	103.304	19.801	21.959	0.505
434.000	279.440	80.001	19.997	103.304	19.795	22.386	0.520
436.000	280.423	80.000	19.996	103.305	19.785	23.009	0.498
438.000	281.451	79.999	19.995	103.316	19.775	23.689	0.505
440.000	282.443	80.000	19.995	103.352	19.773	23.794	0.487
442.000	283.493	80.000	19.995	103.455	19.764	24.418	0.517
444.000	284.445	80.000	19.996	103.321	19.752	25.206	0.467
446.000	285.476	80.002	19.996	103.307	19.744	25.785	0.463
448.000	286.526	80.001	19.996	103.312	19.736	26.268	0.485
450.000	287.523	80.000	19.996	103.308	19.727	26.876	0.455
452.000	288.530	80.001	19.996	103.307	19.722	27.265	0.525
454.000	289.514	80.002	19.994	103.313	19.715	27.687	0.497
456.000	290.527	80.000	19.995	103.313	19.703	28.502	0.475
458.000	291.560	80.001	19.996	103.311	19.697	28.851	0.519
460.000	292.558	79.999	19.995	103.315	19.693	29.179	0.495
462.000	293.572	79.999	19.995	103.316	19.687	29.535	0.522
464.000	294.552	79.998	19.997	103.318	19.686	29.649	0.481
466.000	295.560	79.998	19.997	103.315	19.677	30.224	0.492
468.000	296.569	79.997	19.996	103.260	19.676	30.269	0.487
470.000	297.529	79.998	19.996	103.284	19.672	30.577	0.459
472.000	298.543	79.997	19.997	103.306	19.670	30.720	0.518
474.000	299.542	79.997	19.995	103.308	19.664	31.079	0.496
476.000	300.548	79.997	19.995	103.311	19.663	31.186	0.491
478.000	301.542	80.000	19.994	103.311	19.661	31.306	0.478
480.000	302.565	80.000	19.995	103.312	19.658	31.498	0.499
482.000	303.602	79.998	19.995	103.316	19.655	31.690	0.524
484.000	304.615	80.000	19.995	103.307	19.656	31.637	0.510
486.000	305.620	79.998	19.996	103.312	19.654	31.774	0.502
488.000	306.616	79.998	19.995	103.321	19.649	32.096	0.517
490.000	307.668	79.998	19.998	103.308	19.648	32.193	0.484
492.000	308.676	79.998	19.994	103.313	19.647	32.217	0.509
494.000	309.683	79.999	19.996	103.312	19.643	32.509	0.519
496.000	310.704	79.999	19.997	103.312	19.637	32.918	0.521
498.000	311.714	80.000	19.994	103.306	19.634	33.136	0.508
500.000	312.732	79.996	19.997	103.308	19.627	33.571	0.503
502.000	313.727	80.000	19.995	103.317	19.624	33.762	0.470
504.000	314.747	80.000	19.996	103.331	19.617	34.259	0.489
506.000	315.764	80.001	19.995	103.332	19.612	34.589	0.539
508.000	316.777	80.001	19.994	103.338	19.609	34.812	0.488
510.000	317.762	80.001	19.996	103.342	19.599	35.483	0.502
512.000	318.803	80.004	19.993	103.343	19.596	35.635	0.502
514.000	319.770	80.002	19.994	103.343	19.588	36.172	0.465
516.000	320.768	79.999	19.996	103.347	19.582	36.616	0.514
518.000	321.776	80.000	19.995	103.347	19.573	37.176	0.503
520.000	322.776	80.002	19.997	103.348	19.562	37.929	0.504
522.000	323.761	80.001	19.995	103.359	19.555	38.406	0.481
524.000	324.717	80.001	19.997	103.375	19.545	39.100	0.487
526.000	325.738	80.000	19.996	103.381	19.536	39.689	0.542
528.000	326.700	80.002	19.996	103.385	19.524	40.447	0.516
530.000	327.711	80.002	19.995	103.385	19.512	41.244	0.508
532.000	328.727	80.001	19.996	103.383	19.498	42.195	0.507
534.000	329.726	80.000	19.994	103.384	19.486	43.012	0.532
536.000	330.706	80.000	19.996	103.385	19.474	43.788	0.487
538.000	331.678	80.000	19.995	103.385	19.459	44.845	0.514
540.000	332.680	79.999	19.996	103.388	19.438	46.207	0.512
542.000	333.693	79.997	19.996	103.386	19.427	46.952	0.494
544.000	334.682	80.000	19.995	103.386	19.410	48.119	0.513
546.000	335.670	80.000	19.996	103.372	19.390	49.419	0.484
548.000	336.671	80.000	19.995	103.402	19.373	50.599	0.487
550.000	337.655	79.998	19.996	103.420	19.356	51.711	0.488
552.000	338.674	80.001	19.996	103.423	19.340	52.811	0.482
554.000	339.635	79.999	19.994	103.424	19.319	54.223	0.482
556.000	340.678	80.000	19.995	103.434	19.298	55.636	0.526
558.000	341.708	79.998	19.997	103.444	19.277	57.006	0.515
560.000	342.693	79.999	19.996	103.455	19.253	58.633	0.492
562.000	343.690	80.000	19.996	103.449	19.230	60.177	0.499
564.000	344.747	79.999	19.994	103.440	19.208	61.687	0.485
566.000	345.829	79.998	19.996	103.457	19.184	63.244	0.548
568.000	346.852	79.998	19.996	103.459	19.159	64.975	0.500
570.000	347.866	79.999	19.995	103.471	19.136	66.493	0.486
572.000	348.900	80.000	19.996	103.499	19.115	67.895	0.519
574.000	350.016	79.999	19.995	103.510	19.093	69.348	0.531
576.000	351.059	80.000	19.995	103.531	19.065	71.254	0.529
578.000	352.115	79.997	19.995	103.540	19.042	72.816	0.527
580.000	353.167	79.999	19.994	103.542	19.016	74.566	0.523
582.000	354.237	79.999	19.994	103.545	18.993	76.043	0.530
584.000	355.281	80.000	19.996	103.560	18.974	77.319	0.540
586.000	356.335	79.999	19.995	103.559	18.954	78.709	0.531
588.000	357.454	80.001	19.994	103.555	18.934	80.021	0.578
590.000	358.471	80.002	19.994	103.573	18.912	81.450	0.506
592.000	359.479	79.998	19.995	103.577	18.898	82.378	0.489
594.000	360.511	79.999	19.995	103.574	18.885	83.276	0.510
596.000	361.563	80.000	19.997	103.569	18.872	84.117	0.517
598.000	362.603	79.999	19.996	103.570	18.865	84.607	0.499
600.000	363.638	80.000	19.996	103.555	18.860	84.925	0.509
602.000	364.639	79.999	19.995	103.543	18.860	84.896	0.516
604.000	365.701	79.999	19.996	103.543	18.858	85.044	0.535
606.000	366.725	80.000	19.995	103.541	18.866	84.502	0.507
608.000	367.711	80.000	19.995	103.533	18.870	84.177	0.482
610.000	368.787	80.002	19.994	103.512	18.882	83.358	0.534
612.000	369.794	80.003	19.993	103.499	18.899	82.231	0.512
614.000	370.796	80.003	19.996	103.485	18.920	80.809	0.485
616.000	371.814	80.001	19.995	103.474	18.944	79.222	0.485
618.000	372.862	80.001	19.996	103.455	18.970	77.429	0.532
620.000	373.897	80.000	19.995	103.432	19.004	75.167	0.543
622.000	374.842	80.000	19.996	103.420	19.043	72.540	0.509
624.000	375.835	79.999	19.996	103.406	19.082	69.930	0.535
626.000	376.839	79.999	19.996	103.386	19.129	66.809	0.483
628.000	377.838	80.000	19.995	103.375	19.171	63.954	0.509
630.000	378.868	80.000	19.995	103.350	19.222	60.565	0.524
632.000	379.863	80.001	19.997	103.328	19.272	57.194	0.521
634.000	380.887	80.001	19.996	103.306	19.327	53.521	0.537
636.000	381.839	80.001	19.996	103.292	19.383	49.818	0.470
638.000	382.833	80.000	19.996	103.269	19.443	45.792	0.503
640.000	383.809	79.999	19.997	103.250	19.496	42.271	0.489
642.000	384.853	79.998	19.996	103.230	19.551	38.591	0.546
644.000	385.812	79.999	19.996	103.228	19.595	35.632	0.484
646.000	386.808	79.998	19.997	103.213	19.649	32.037	0.479
648.000	387.798	79.999	19.995	103.194	19.692	29.179	0.500
650.000	388.815	80.000	19.996	103.190	19.753	25.120	0.503
652.000	389.841	79.997	19.996	103.189	19.779	23.407	0.483
654.000	390.829	79.996	19.997	103.187	19.818	20.785	0.525
656.000	391.809	79.997	19.997	103.175	19.853	18.456	0.528
658.000	392.802	79.998	19.995	103.174	19.883	16.491	0.492
660.000	393.827	79.997	19.996	103.170	19.907	14.895	0.553
662.000	394.760	79.997	19.996	103.157	19.929	13.391	0.443
664.000	395.802	80.000	19.996	103.155	19.941	12.617	0.484
666.000	396.796	80.000	19.995	103.155	19.957	11.555	0.489
668.000	397.866	80.001	19.995	103.158	19.969	10.760	0.351
670.000	398.836	80.001	19.995	103.151	19.980	10.012	0.554
672.000	399.824	80.000	19.995	103.152	19.989	9.370	0.508
674.000	400.844	80.001	19.995	103.150	19.993	9.129	0.515
676.000	401.823	80.000	19.995	103.148	20.001	8.587	0.509
678.000	402.779	80.000	19.995	103.149	20.004	8.397	0.462
680.000	403.808	79.999	19.994	103.151	20.007	8.208	0.484
682.000	404.796	80.001	19.995	103.149	20.007	8.182	0.490
684.000	405.819	80.001	19.996	103.149	20.013	7.803	0.532
686.000	406.773	80.002	19.996	103.150	20.015	7.695	0.502
688.000	407.789	80.004	19.995	103.149	20.014	7.746	0.515
690.000	408.791	80.001	19.994	103.152	20.014	7.726	0.495
692.000	409.834	80.002	19.994	103.154	20.018	7.478	0.519
694.000	410.797	80.003	19.996	103.151	20.016	7.608	0.500
696.000	411.806	80.001	19.994	103.149	20.018	7.479	0.492
698.000	412.787	80.003	19.995	103.151	20.022	7.203	0.501
700.000	413.780	80.001	19.997	103.152	20.018	7.442	0.474
702.000	414.788	80.001	19.994	103.154	20.021	7.244	0.489
704.000	415.767	80.001	19.995	103.159	20.021	7.268	0.488
706.000	416.779	80.001	19.995	103.160	20.019	7.396	0.519
708.000	417.781	79.998	19.996	103.156	20.021	7.297	0.505
710.000	418.798	79.998	19.996	103.152	20.020	7.321	0.488
712.000	419.838	79.999	19.993	103.153	20.021	7.237	0.497
714.000	420.826	79.998	19.994	103.153	20.024	7.051	0.503
716.000	421.826	79.998	19.993	103.154	20.025	7.022	0.485
718.000	422.834	79.999	19.996	103.152	20.026	6.933	0.489
720.000	423.816	79.999	19.995	103.152	20.027	6.862	0.489
722.000	424.848	79.999	19.998	103.154	20.032	6.511	0.479
724.000	425.816	79.998	19.993	103.155	20.030	6.695	0.487
726.000	426.837	79.999	19.996	103.154	20.031	6.612	0.472
728.000	427.880	79.997	19.996	103.153	20.030	6.642	0.516
730.000	428.890	80.000	19.995	103.155	20.038	6.119	0.520
732.000	429.912	79.999	19.997	103.155	20.037	6.193	0.490
734.000	430.938	80.001	19.995	103.154	20.038	6.151	0.497
736.000	432.017	79.994	20.002	103.154	20.036	6.268	0.536
738.000	432.991	79.999	19.997	103.154	20.041	5.951	0.508
740.000	434.069	79.994	19.999	103.149	20.041	5.911	0.524
742.000	435.060	79.998	19.998	103.150	20.044	5.703	0.514
744.000	436.122	80.001	19.997	103.147	20.040	5.976	0.519
746.000	437.142	79.999	19.997	103.149	20.042	5.880	0.515
748.000	438.120	79.999	19.996	103.147	20.046	5.571	0.489
750.000	439.187	80.000	19.995	103.146	20.042	5.880	0.511
752.000	440.225	80.001	19.997	103.145	20.046	5.615	0.515
754.000	441.258	79.998	19.996	103.147	20.046	5.603	0.512
756.000	442.281	80.000	19.996	103.147	20.052	5.210	0.489
758.000	443.279	80.000	19.995	103.143	20.053	5.110	0.512
760.000	444.283	80.000	19.996	103.147	20.055	5.002	0.485
762.000	445.326	80.000	19.991	103.149	20.058	4.833	0.507
764.000	446.320	80.000	19.994	103.152	20.059	4.732	0.509
766.000	447.325	80.001	19.995	103.151	20.059	4.748	0.477
768.000	448.366	80.000	19.996	103.147	20.059	4.743	0.543
770.000	449.386	80.002	19.995	103.146	20.058	4.818	0.508
772.000	450.411	80.002	19.995	103.149	20.059	4.719	0.518
774.000	451.380	80.004	19.989	103.150	20.063	4.479	0.497
776.000	452.387	80.006	19.992	103.143	20.066	4.285	0.453
778.000	453.380	80.001	19.998	103.138	20.065	4.324	0.466
780.000	454.375	80.001	19.996	103.143	20.070	4.010	0.470
782.000	455.358	80.002	19.995	103.148	20.064	4.373	0.470
784.000	456.364	79.999	19.995	103.151	20.070	3.973	0.498
786.000	457.363	79.996	19.996	103.151	20.068	4.112	0.506
788.000	458.322	79.998	19.999	103.151	20.071	3.957	0.472
790.000	459.377	80.001	19.997	103.152	20.070	3.995	0.481
792.000	460.395	80.003	19.991	103.155	20.071	3.939	0.492
794.000	461.421	79.999	19.994	103.155	20.075	3.676	0.527
796.000	462.444	80.001	19.996	103.153	20.074	3.758	0.493
798.000	463.469	80.002	19.993	103.150	20.073	3.774	0.495
800.000	464.526	80.003	19.994	103.149	20.078	3.497	0.510
802.000	465.506	79.994	19.997	103.149	20.077	3.506	0.508
804.000	466.538	79.998	19.997	103.148	20.079	3.404	0.495
806.000	467.601	80.003	19.994	103.149	20.077	3.524	0.530
808.000	468.681	80.002	19.994	103.150	20.078	3.468	0.524
810.000	469.695	79.998	19.994	103.147	20.079	3.391	0.569
812.000	470.746	80.002	19.995	103.147	20.085	3.003	0.580
814.000	471.750	79.994	20.003	103.146	20.084	3.074	0.573
816.000	472.785	80.001	20.000	103.144	20.084	3.061	0.468
818.000	473.973	79.999	19.996	103.147	20.083	3.110	0.473
820.000	474.988	79.998	19.997	103.145	20.084	3.039	0.560
822.000	476.288	79.998	19.999	103.144	20.086	2.950	0.460
824.000	476.842	80.002	19.998	103.147	20.084	3.048	0.057
826.000	478.199	79.996	19.996	103.141	20.088	2.822	0.639
828.000	478.981	80.001	19.996	103.148	20.089	2.746	0.488
830.000	480.054	80.000	19.997	103.148	20.089	2.767	0.539
832.000	481.061	79.997	20.004	103.148	20.089	2.753	0.490
834.000	482.080	80.000	19.998	103.147	20.089	2.767	0.504
836.000	483.120	80.002	19.994	103.145	20.088	2.824	0.476
838.000	484.164	79.997	19.999	103.149	20.084	3.063	0.514
840.000	485.146	80.002	19.997	103.150	20.081	3.245	0.526
842.000	486.232	80.003	19.997	103.150	20.088	2.791	0.463
844.000	487.271	80.005	19.995	103.141	20.086	2.959	0.500
846.000	488.261	80.004	19.996	103.137	20.085	3.014	0.532
848.000	489.320	80.001	19.993	103.150	20.084	3.037	0.501
850.000	490.298	79.997	19.995	103.151	20.088	2.819	0.500
852.000	491.297	79.999	19.990	103.146	20.082	3.225	0.476
854.000	492.310	80.003	19.993	103.148	20.084	3.046	0.526
856.000	493.300	80.006	19.994	103.149	20.087	2.866	0.540
858.000	494.350	80.001	19.994	103.150	20.089	2.733	0.528
860.000	495.375	80.002	19.995	103.150	20.090	2.700	0.530
862.000	496.356	80.002	19.996	103.148	20.092	2.548	0.487
864.000	497.379	80.001	19.997	103.145	20.086	2.935	0.539
866.000	498.398	79.999	19.995	103.139	20.092	2.558	0.483
868.000	499.450	80.003	19.988	103.136	20.092	2.541	0.516
870.000	500.491	80.002	19.997	103.139	20.092	2.510	0.549
872.000	501.490	79.998	19.997	103.141	20.094	2.412	0.521
874.000	502.539	80.000	19.995	103.141	20.096	2.237	0.522
876.000	503.518	79.999	19.997	103.146	20.095	2.368	0.504
878.000	504.525	79.999	19.994	103.147	20.096	2.295	0.509
880.000	505.555	79.998	19.996	103.147	20.095	2.342	0.503
882.000	506.635	80.001	19.988	103.147	20.097	2.234	0.554
884.000	507.637	80.003	19.997	103.148	20.094	2.415	0.520
886.000	508.662	79.998	19.994	103.142	20.094	2.417	0.515
888.000	509.713	80.003	19.995	103.137	20.093	2.443	0.569
890.000	510.747	80.003	19.990	103.143	20.095	2.355	0.532
892.000	511.741	80.000	19.994	103.140	20.097	2.213	0.527
894.000	512.663	80.001	19.995	103.132	20.099	2.047	0.481
896.000	513.690	79.998	20.000	103.144	20.097	2.218	0.513
898.000	514.734	80.004	19.993	103.137	20.100	2.027	0.535
900.000	515.744	79.997	19.993	103.147	20.096	2.288	0.505
902.000	516.791	79.996	19.999	103.145	20.095	2.333	0.520
904.000	517.776	80.000	19.993	103.141	20.095	2.355	0.514
906.000	518.813	80.005	19.994	103.130	20.094	2.402	0.510
908.000	519.821	79.998	19.996	103.142	20.101	1.963	0.491
910.000	520.859	79.997	19.998	103.148	20.096	2.244	0.487
912.000	521.880	80.002	19.994	103.136	20.097	2.182	0.502
914.000	522.825	79.999	19.998	103.136	20.097	2.174	0.471
916.000	523.853	80.000	19.998	103.139	20.097	2.211	0.546
918.000	524.909	79.999	19.995	103.139	20.097	2.213	0.536
920.000	525.920	80.001	19.991	103.144	20.096	2.263	0.530
922.000	526.934	80.000	19.996	103.146	20.097	2.185	0.502
924.000	527.921	79.997	20.001	103.147	20.098	2.122	0.507
926.000	528.963	80.001	19.998	103.139	20.098	2.154	0.503
928.000	529.974	79.998	19.993	103.147	20.096	2.293	0.499
930.000	530.956	79.998	19.998	103.131	20.098	2.145	0.506
932.000	532.017	80.001	19.995	103.134	20.095	2.304	0.509
934.000	533.018	80.004	19.993	103.146	20.095	2.329	0.513
936.000	533.989	80.003	19.993	103.133	20.098	2.165	0.487
938.000	535.014	80.001	19.998	103.126	20.096	2.271	0.488
940.000	536.056	80.004	19.995	103.127	20.097	2.185	0.513
942.000	537.056	79.997	19.994	103.139	20.098	2.103	0.481
944.000	538.068	80.002	20.001	103.141	20.097	2.176	0.505
946.000	539.068	79.996	19.997	103.131	20.096	2.245	0.510
948.000	540.048	80.000	19.995	103.133	20.099	2.098	0.493
950.000	541.095	80.002	19.995	103.124	20.097	2.189	0.519
952.000	542.075	79.997	19.998	103.122	20.097	2.180	0.501
954.000	543.062	79.999	19.995	103.138	20.099	2.072	0.487
956.000	544.054	80.001	20.000	103.134	20.099	2.092	0.479
958.000	545.056	80.003	19.999	103.139	20.096	2.295	0.477
960.000	546.061	79.999	19.993	103.146	20.096	2.302	0.485
962.000	547.099	79.998	19.998	103.152	20.100	2.021	0.498
964.000	548.087	80.005	19.994	103.142	20.093	2.455	0.501
966.000	549.071	80.000	19.992	103.126	20.096	2.293	0.511
968.000	550.109	79.997	20.000	103.148	20.098	2.114	0.510
970.000	551.143	79.999	19.999	103.148	20.100	1.999	0.513
972.000	552.137	80.001	19.987	103.143	20.099	2.101	0.478
974.000	553.192	80.000	19.996	103.142	20.096	2.248	0.554
976.000	554.182	80.001	19.992	103.145	20.096	2.255	0.515
978.000	555.219	80.001	19.986	103.149	20.095	2.313	0.545
980.000	556.191	80.003	19.995	103.146	20.095	2.309	0.527
982.000	557.191	80.002	19.994	103.138	20.096	2.255	0.501
984.000	558.227	80.004	19.994	103.149	20.095	2.326	0.533
986.000	559.213	80.001	19.995	103.146	20.095	2.316	0.509
988.000	560.207	79.993	19.994	103.141	20.097	2.191	0.490
990.000	561.223	79.995	19.999	103.138	20.096	2.295	0.506
992.000	562.221	79.999	19.995	103.142	20.096	2.284	0.460
994.000	563.224	80.003	19.996	103.132	20.100	2.036	0.501
996.000	564.219	80.001	19.996	103.125	20.097	2.211	0.535
998.000	565.212	80.001	19.996	103.129	20.100	2.006	0.524
1000.000	566.192	80.001	19.995	103.129	20.097	2.176	0.484
1002.000	567.181	79.999	19.996	103.130	20.099	2.059	0.482
1004.000	568.164	80.001	19.996	103.136	20.099	2.099	0.508
1006.000	569.214	80.002	19.996	103.130	20.095	2.313	0.505
1008.000	570.199	80.000	19.997	103.131	20.100	2.024	0.505
1010.000	571.184	80.000	19.997	103.134	20.098	2.116	0.486
1012.000	572.197	79.999	19.998	103.135	20.100	1.981	0.498
1014.000	573.238	80.005	19.991	103.131	20.097	2.205	0.496
1016.000	574.247	80.000	19.996	103.129	20.102	1.884	0.530
1018.000	575.281	80.003	19.996	103.124	20.098	2.125	0.539
1020.000	576.270	80.003	19.999	103.120	20.097	2.233	0.509
1022.000	577.269	80.001	19.998	103.132	20.096	2.262	0.490
1024.000	578.277	80.002	19.993	103.144	20.097	2.174	0.499
1025.999	579.232	79.998	20.001	103.138	20.094	2.417	0.498
1027.999	580.234	80.000	19.997	103.131	20.095	2.364	0.493
1029.999	581.231	80.000	19.996	103.135	20.096	2.273	0.513
1031.999	582.238	80.000	19.994	103.134	20.097	2.231	0.518
1033.999	583.182	79.993	20.004	103.132	20.097	2.198	0.457
1035.999	584.140	79.997	19.998	103.142	20.097	2.185	0.474
1038.000	585.194	79.998	19.995	103.141	20.098	2.163	0.514
1039.999	586.205	80.000	19.995	103.138	20.096	2.275	0.488
1041.999	587.254	80.000	19.997	103.148	20.097	2.176	0.558
1043.999	588.262	79.999	19.995	103.148	20.098	2.134	0.527
1045.999	589.291	80.001	19.996	103.150	20.098	2.165	0.530
1047.999	590.331	79.999	19.995	103.147	20.099	2.040	0.511
1049.999	591.358	80.001	19.995	103.133	20.096	2.249	0.512
1051.999	592.434	80.000	19.994	103.147	20.099	2.087	0.533
1053.999	593.497	80.001	19.994	103.139	20.098	2.134	0.543
1055.999	594.561	80.001	19.996	103.133	20.094	2.400	0.503
1057.999	595.678	80.000	19.995	103.144	20.093	2.488	0.525
1059.999	596.761	80.000	19.996	103.145	20.098	2.105	0.540
1061.999	597.821	80.003	19.992	103.139	20.097	2.216	0.532
1063.999	598.855	80.000	19.994	103.124	20.095	2.362	0.524
1065.999	599.930	79.999	19.998	103.120	20.093	2.439	0.542
1067.999	601.017	80.008	19.995	103.136	20.094	2.373	0.536
1069.999	602.072	80.003	19.996	103.143	20.097	2.220	0.505
1071.999	603.117	80.006	19.991	103.137	20.093	2.486	0.517
1073.999	604.216	80.003	19.994	103.147	20.097	2.174	0.555
1075.999	605.277	80.002	19.997	103.139	20.093	2.457	0.521
1077.999	606.385	80.001	19.994	103.137	20.093	2.452	0.540
1079.999	607.417	79.996	19.999	103.133	20.094	2.388	0.552
1081.999	608.535	80.001	19.995	103.143	20.095	2.315	0.560
1083.999	609.627	80.002	19.996	103.132	20.092	2.550	0.557
1085.999	610.713	80.000	19.994	103.137	20.097	2.196	0.550
1087.999	611.786	80.001	19.996	103.141	20.095	2.304	0.521
1089.999	612.858	80.002	19.997	103.141	20.096	2.236	0.537
1091.999	613.902	80.003	19.996	103.131	20.096	2.282	0.534
1093.999	614.998	80.000	19.996	103.135	20.095	2.344	0.536
1095.999	616.090	80.001	19.996	103.124	20.095	2.343	0.558
1097.999	617.115	80.002	19.995	103.142	20.093	2.440	0.520
1099.999	618.216	80.002	19.995	103.130	20.097	2.174	0.539
1101.999	619.241	80.003	19.995	103.136	20.094	2.382	0.534
1103.999	620.319	80.003	19.993	103.134	20.095	2.320	0.543
1105.999	621.378	80.002	19.992	103.114	20.092	2.513	0.551
1107.999	622.396	80.001	19.996	103.125	20.091	2.577	0.518
1109.999	623.441	80.000	19.995	103.127	20.090	2.648	0.545
1111.999	624.489	79.998	19.996	103.135	20.093	2.439	0.529
1113.999	625.502	80.001	19.995	103.124	20.092	2.537	0.516
1116.000	626.545	79.999	19.996	103.134	20.092	2.542	0.511
1117.999	627.577	80.002	19.994	103.129	20.092	2.542	0.511
1119.999	628.620	79.999	19.996	103.128	20.096	2.265	0.517
1121.999	629.597	79.999	19.997	103.134	20.097	2.170	0.501
1124.000	630.633	80.000	19.997	103.128	20.093	2.500	0.493
1125.999	631.660	80.000	19.996	103.121	20.095	2.324	0.485
1127.999	632.637	80.002	19.996	103.119	20.094	2.422	0.459
1129.999	633.665	80.001	19.997	103.118	20.092	2.519	0.467
1131.999	634.670	80.001	19.995	103.120	20.091	2.630	0.509
1133.999	635.721	80.002	19.994	103.123	20.091	2.632	0.505
1135.999	636.691	80.000	19.995	103.122	20.089	2.725	0.505
1137.999	637.693	80.001	19.996	103.119	20.094	2.412	0.491
1139.999	638.729	80.001	19.995	103.129	20.093	2.442	0.517
1141.999	639.707	80.001	19.995	103.137	20.096	2.276	0.498
1143.999	640.709	80.000	19.994	103.147	20.090	2.641	0.506
1146.000	641.699	79.999	19.994	103.132	20.093	2.459	0.508
1147.999	642.742	79.999	19.997	103.137	20.092	2.552	0.508
1150.000	643.778	80.001	19.997	103.138	20.090	2.699	0.514
1151.999	644.858	80.000	19.995	103.118	20.095	2.349	0.507
1153.999	645.865	80.002	19.995	103.144	20.092	2.559	0.508
1155.999	646.927	80.001	19.995	103.143	20.093	2.499	0.527
1157.999	647.989	80.004	19.994	103.137	20.091	2.617	0.538
1159.999	649.078	80.003	19.994	103.123	20.089	2.760	0.522
1161.999	650.141	80.001	19.995	103.128	20.088	2.814	0.565
1164.000	651.218	80.001	19.995	103.139	20.093	2.495	0.550
1165.999	652.275	80.002	19.995	103.138	20.088	2.829	0.563
1167.999	653.390	80.002	19.997	103.125	20.089	2.738	0.581
1169.999	654.460	80.001	19.992	103.124	20.092	2.521	0.544
1171.999	655.524	80.002	19.995	103.133	20.089	2.718	0.534
1173.999	656.543	80.000	19.995	103.124	20.092	2.535	0.516
1175.999	657.612	80.001	19.993	103.117	20.089	2.710	0.541
1177.999	658.678	80.001	19.997	103.127	20.090	2.653	0.550
1179.999	659.733	80.001	19.998	103.117	20.089	2.766	0.500
1181.999	660.827	80.002	19.994	103.133	20.090	2.675	0.536
1183.999	661.890	80.003	19.994	103.116	20.089	2.737	0.517
1185.999	662.951	80.003	19.996	103.119	20.089	2.728	0.532
1187.999	663.971	80.006	19.999	103.125	20.091	2.633	0.535
1189.999	665.007	80.002	19.997	103.112	20.090	2.635	0.518
1191.999	666.087	80.000	19.997	103.112	20.090	2.659	0.527
1193.999	667.073	79.999	19.993	103.109	20.091	2.630	0.488
1195.999	668.123	80.000	19.996	103.110	20.091	2.619	0.536
1197.999	669.112	80.000	19.995	103.110	20.087	2.878	0.482
1199.999	670.104	80.002	19.995	103.109	20.093	2.495	0.489
1201.999	671.165	79.999	19.997	103.115	20.092	2.506	0.474
1203.999	672.154	80.000	19.996	103.112	20.093	2.440	0.467
1205.999	673.149	80.000	19.996	103.116	20.091	2.575	0.505
1207.999	674.167	79.999	19.996	103.117	20.092	2.521	0.516
1209.999	675.191	80.000	19.997	103.113	20.094	2.376	0.489
1211.999	676.190	80.000	19.997	103.110	20.094	2.373	0.496
1213.999	677.220	80.000	19.996	103.113	20.093	2.464	0.520
1215.999	678.208	80.000	19.998	103.115	20.096	2.270	0.473
1217.999	679.229	79.999	19.996	103.130	20.094	2.406	0.499
1219.999	680.198	80.000	19.995	103.123	20.090	2.663	0.455
1221.999	681.218	79.999	19.996	103.118	20.091	2.573	0.492
1223.999	682.187	80.000	19.995	103.115	20.095	2.367	0.466
1225.999	683.176	80.000	19.996	103.115	20.092	2.542	0.463
1227.999	684.199	80.000	19.996	103.115	20.094	2.415	0.460
1229.999	685.154	79.999	19.995	103.121	20.093	2.477	0.492
1231.999	686.118	80.001	19.995	103.120	20.092	2.564	0.508
1233.999	687.085	80.001	19.996	103.114	20.093	2.497	0.473
1236.000	688.084	80.001	19.995	103.118	20.090	2.641	0.476
1238.000	689.075	80.002	19.996	103.116	20.096	2.285	0.517
1239.999	690.048	80.002	19.996	103.114	20.091	2.600	0.491
1241.999	691.045	80.001	19.994	103.119	20.095	2.349	0.502
1243.999	692.019	80.001	19.996	103.116	20.093	2.495	0.500
1246.000	692.991	80.003	19.996	103.114	20.093	2.444	0.520
1247.999	694.000	80.001	19.996	103.112	20.092	2.524	0.520
1249.999	694.991	80.002	19.996	103.112	20.094	2.431	0.519
1251.999	695.978	80.001	19.996	103.109	20.093	2.445	0.487
1253.999	696.918	80.001	19.995	103.111	20.093	2.500	0.448
1255.999	697.960	80.002	19.995	103.111	20.089	2.750	0.522
1257.999	698.937	80.001	19.994	103.115	20.094	2.414	0.484
1259.999	699.916	80.003	19.995	103.118	20.094	2.396	0.459
1261.999	700.911	80.003	19.993	103.112	20.092	2.537	0.508
1263.999	701.916	80.003	19.996	103.111	20.093	2.495	0.508
1265.999	702.867	80.002	19.994	103.109	20.093	2.453	0.475
1267.999	703.873	80.004	19.996	103.112	20.095	2.304	0.508
1269.999	704.883	80.004	19.994	103.110	20.091	2.634	0.502
1271.999	705.905	80.002	19.996	103.112	20.089	2.765	0.511
1273.999	706.933	80.001	19.996	103.116	20.096	2.263	0.522
1275.999	707.994	80.001	19.996	103.116	20.091	2.628	0.520
1277.999	709.073	80.001	19.996	103.120	20.091	2.592	0.575
1279.999	710.097	80.001	19.995	103.128	20.091	2.597	0.532
1281.999	711.179	80.000	19.996	103.119	20.090	2.699	0.532
1283.999	712.186	80.000	19.996	103.113	20.090	2.683	0.527
1285.999	713.322	80.001	19.996	103.123	20.091	2.604	0.544
1287.999	714.390	80.001	19.995	103.123	20.092	2.504	0.530
1289.999	715.507	80.000	19.996	103.118	20.092	2.540	0.552
1291.999	716.572	80.000	19.997	103.117	20.091	2.599	0.541
1293.999	717.675	80.000	19.997	103.118	20.090	2.648	0.537
1295.999	718.803	80.000	19.996	103.117	20.088	2.818	0.576
1298.000	719.897	80.000	19.997	103.112	20.089	2.732	0.554
1299.999	721.002	80.000	19.997	103.113	20.088	2.827	0.592
1301.999	722.124	80.000	19.995	103.114	20.090	2.637	0.583
1303.999	723.195	80.000	19.997	103.112	20.093	2.478	0.518
1305.999	724.279	79.999	19.997	103.114	20.093	2.444	0.543
1307.999	725.348	79.999	19.997	103.115	20.090	2.659	0.524
1309.999	726.431	79.998	19.998	103.113	20.092	2.566	0.522
1312.000	727.582	79.998	19.997	103.115	20.091	2.586	0.587
1313.999	728.648	80.000	19.995	103.115	20.088	2.825	0.542
1315.999	729.744	79.999	19.997	103.112	20.090	2.675	0.565
1317.999	730.832	80.001	19.997	103.116	20.090	2.695	0.557
1319.999	731.914	80.003	19.996	103.121	20.090	2.694	0.539
1321.999	732.967	80.002	19.995	103.116	20.091	2.597	0.535
1323.999	734.078	80.003	19.995	103.116	20.088	2.808	0.535
1326.000	735.167	80.002	19.996	103.111	20.090	2.688	0.525
1327.999	736.154	80.002	19.996	103.113	20.089	2.745	0.487
1330.000	737.243	80.001	19.996	103.113	20.088	2.821	0.540
1331.999	738.330	80.000	19.996	103.117	20.085	2.971	0.558
1334.000	739.378	80.002	19.998	103.111	20.088	2.812	0.544
1335.999	740.401	80.001	19.998	103.112	20.085	3.007	0.518
1337.999	741.431	80.001	19.997	103.115	20.089	2.723	0.513
1340.000	742.423	80.001	19.995	103.112	20.086	2.920	0.470
1342.000	743.491	80.002	19.995	103.112	20.090	2.668	0.530