File: 01_Data/Pallet_Wood/STA/N2/3K_min/Pallet_Wood_STA_N2_3KData_220412_R1.csv
##Temp./Â°C,Time/min,Mass loss(subtr.2)/mg,DSC(subtr.2)/(mW/mg),Sensit./(uV/mW)
50.236,10.0158,-0.02917,0.01875152,1.05031
50.936,11.1493,-0.03026133,0.0402456,1.05019
51.636,11.5395,-0.03108059,0.04965721,1.05006
52.336,11.85944,-0.02933446,0.05685381,1.04994
53.036,12.15019,-0.02999538,0.06245242,1.04981
53.736,12.42883,-0.03240446,0.0660323,1.04969
54.436,12.6995,-0.03357842,0.06722204,1.04956
55.136,12.9649,-0.03325254,0.06954707,1.04943
55.836,13.22675,-0.03501045,0.06893045,1.0493
56.536,13.4841,-0.03222134,0.07140024,1.04917
57.236,13.7395,-0.03355423,0.07453713,1.04904
57.936,13.99134,-0.03501259,0.07298006,1.04891
58.636,14.2408,-0.03553414,0.07549956,1.04878
59.336,14.4876,-0.03652043,0.07770791,1.04864
60.036,14.7326,-0.03652274,0.07549945,1.04851
60.736,14.97615,-0.03519632,0.07855542,1.04837
61.436,15.21954,-0.03521258,0.07891566,1.04824
62.136,15.4617,-0.03659351,0.07760903,1.0481
62.836,15.70301,-0.03653453,0.07787177,1.04797
63.536,15.94295,-0.0364916,0.07899002,1.04783
64.236,16.1813,-0.03785,0.08125908,1.04769
64.936,16.41912,-0.0378541,0.08140802,1.04755
65.636,16.6563,-0.03783939,0.084449,1.04741
66.336,16.89369,-0.0404401,0.08511388,1.04727
67.036,17.1303,-0.03982439,0.08438062,1.04713
67.736,17.36615,-0.04113112,0.08121727,1.04699
68.436,17.6018,-0.0388908,0.08266503,1.04684
69.136,17.83784,-0.04113885,0.08469686,1.0467
69.836,18.07394,-0.04174577,0.08397808,1.04655
70.536,18.30995,-0.04145978,0.08340338,1.04641
71.236,18.54506,-0.04145062,0.0813838,1.04626
71.936,18.78128,-0.04212511,0.08031811,1.04611
72.636,19.0171,-0.04315858,0.0788856,1.04597
73.336,19.253,-0.04329493,0.07998957,1.04582
74.036,19.48801,-0.04378261,0.07869032,1.04567
74.736,19.72278,-0.04428026,0.08339674,1.04552
75.436,19.95599,-0.04442001,0.08139852,1.04537
76.136,20.1893,-0.04547518,0.08010784,1.04522
76.836,20.42278,-0.04312042,0.08141866,1.04506
77.536,20.65695,-0.04574707,0.07916502,1.04491
78.236,20.89049,-0.04767564,0.08229339,1.04476
78.936,21.12303,-0.04767148,0.08002119,1.0446
79.636,21.35538,-0.0477551,0.07909071,1.04445
80.336,21.58898,-0.04639998,0.07866065,1.04429
81.036,21.82299,-0.04771742,0.0775808,1.04413
81.736,22.0576,-0.04770999,0.07506077,1.04397
82.436,22.2912,-0.04629404,0.07639147,1.04382
83.136,22.52487,-0.0467381,0.07414555,1.04366
83.836,22.7593,-0.04676409,0.07225149,1.0435
84.536,22.9942,-0.04758498,0.07113801,1.04333
85.236,23.2291,-0.04914353,0.07045854,1.04317
85.936,23.46337,-0.04802287,0.06874364,1.04301
86.636,23.6969,-0.04804913,0.06886738,1.04285
87.336,23.9304,-0.04865588,0.06919263,1.04268
88.036,24.16378,-0.05026595,0.06816349,1.04252
88.736,24.39719,-0.04903041,0.06905674,1.04235
89.436,24.63048,-0.0503429,0.0686706,1.04219
90.136,24.86325,-0.05034864,0.06745119,1.04202
90.836,25.0949,-0.04903,0.06634881,1.04185
91.536,25.32685,-0.04903,0.0652921,1.04168
92.236,25.55915,-0.04934327,0.0645701,1.04151
92.936,25.7923,-0.04903378,0.06658731,1.04134
93.636,26.0256,-0.05002609,0.06368198,1.04117
94.336,26.25765,-0.04902766,0.06171379,1.041
95.036,26.4902,-0.05034008,0.06473865,1.04083
95.736,26.7214,-0.04972449,0.06289287,1.04065
96.436,26.95335,-0.05035061,0.06261023,1.04048
97.136,27.1853,-0.04902997,0.06345992,1.0403
97.836,27.41719,-0.04904537,0.06350305,1.04013
98.536,27.64801,-0.04803667,0.06122328,1.03995
99.236,27.8785,-0.04772016,0.06331943,1.03977
99.936,28.10887,-0.04903013,0.0629979,1.03959
100.636,28.3393,-0.0494952,0.06396066,1.03942
101.336,28.57098,-0.04901642,0.06270892,1.03924
102.036,28.80275,-0.0496955,0.06059703,1.03906
102.736,29.03538,-0.05032838,0.06252823,1.03887
103.436,29.2664,-0.04970195,0.06146489,1.03869
104.136,29.49813,-0.05068,0.06267934,1.03851
104.836,29.72884,-0.04918848,0.06255845,1.03833
105.536,29.96097,-0.04936061,0.06237072,1.03814
106.236,30.1927,-0.04936,0.06345516,1.03796
106.936,30.42513,-0.04807819,0.06070165,1.03777
107.636,30.65689,-0.04885309,0.06310445,1.03758
108.336,30.88774,-0.04968995,0.06331753,1.0374
109.036,31.11839,-0.04794301,0.06413233,1.03721
109.736,31.3498,-0.04804001,0.06544571,1.03702
110.436,31.58137,-0.0493097,0.06621711,1.03683
111.136,31.8139,-0.04870779,0.06744362,1.03664
111.836,32.0452,-0.04865471,0.06749175,1.03645
112.536,32.27707,-0.04999483,0.06637953,1.03625
113.236,32.50823,-0.04865601,0.06603041,1.03606
113.936,32.73953,-0.04827299,0.06547874,1.03587
114.636,32.9701,-0.04870001,0.06739677,1.03567
115.336,33.20026,-0.05001246,0.06798572,1.03548
116.036,33.43072,-0.04928983,0.06554285,1.03528
116.736,33.66168,-0.05033542,0.06677215,1.03509
117.436,33.89304,-0.04969,0.06450448,1.03489
118.136,34.124,-0.04965763,0.06745106,1.03469
118.836,34.35443,-0.04954832,0.06581967,1.03449
119.536,34.58412,-0.05067978,0.06712699,1.03429
120.236,34.81393,-0.05067207,0.06658216,1.03409
120.936,35.0443,-0.04936006,0.06739098,1.03389
121.636,35.27486,-0.04935989,0.06903296,1.03369
122.336,35.50551,-0.0500202,0.06882716,1.03348
123.036,35.73555,-0.05035469,0.06953261,1.03328
123.736,35.96563,-0.05033999,0.06850237,1.03308
124.436,36.19623,-0.05066916,0.06893674,1.03287
125.136,36.42689,-0.05099999,0.0694014,1.03266
125.836,36.65817,-0.05217448,0.06887187,1.03246
126.536,36.88837,-0.05147114,0.06710934,1.03225
127.236,37.11911,-0.05133676,0.06998678,1.03204
127.936,37.3493,-0.05133034,0.07079081,1.03183
128.636,37.57963,-0.05100294,0.06866268,1.03162
129.336,37.80968,-0.05066999,0.06957839,1.03141
130.036,38.03998,-0.04949119,0.07013233,1.0312
130.736,38.27045,-0.05033149,0.07155711,1.03099
131.436,38.5007,-0.0503453,0.0708898,1.03077
132.136,38.73005,-0.05034976,0.07031608,1.03056
132.836,38.95985,-0.05089658,0.07016639,1.03035
133.536,39.1896,-0.04969,0.07321876,1.03013
134.236,39.41979,-0.05040232,0.07070744,1.02991
134.936,39.6498,-0.05034,0.0707467,1.0297
135.636,39.88019,-0.05066987,0.07013038,1.02948
136.336,40.11013,-0.05067,0.07263684,1.02926
137.036,40.33997,-0.05200629,0.07223552,1.02904
137.736,40.56923,-0.05031908,0.07505355,1.02882
138.436,40.79854,-0.05165865,0.07231271,1.0286
139.136,41.02752,-0.05034755,0.07492028,1.02838
139.836,41.25727,-0.04935952,0.07323238,1.02816
140.536,41.4867,-0.0506706,0.07102594,1.02793
141.236,41.71665,-0.0510205,0.07191198,1.02771
141.936,41.94546,-0.05158507,0.07308117,1.02749
142.636,42.1749,-0.05000485,0.07637592,1.02726
143.336,42.40406,-0.051,0.07528725,1.02703
144.036,42.63456,-0.05100018,0.07769433,1.02681
144.736,42.86477,-0.05134169,0.07717952,1.02658
145.436,43.0952,-0.05035007,0.07808349,1.02635
146.136,43.32464,-0.05083676,0.07727619,1.02612
146.836,43.5545,-0.04998165,0.0770302,1.02589
147.536,43.78363,-0.0500199,0.07863476,1.02566
148.236,44.01253,-0.04870109,0.0781324,1.02543
148.936,44.24037,-0.05000974,0.07714897,1.0252
149.636,44.4694,-0.04968591,0.0789837,1.02496
150.336,44.69813,-0.04969123,0.07786286,1.02473
151.036,44.92773,-0.04966758,0.07720003,1.0245
151.736,45.15698,-0.04859741,0.07654637,1.02426
152.436,45.38718,-0.05002002,0.07800586,1.02402
153.136,45.616,-0.05001995,0.07527522,1.02379
153.836,45.8453,-0.04975888,0.07820119,1.02355
154.536,46.07416,-0.0500131,0.07819785,1.02331
155.236,46.30405,-0.04968023,0.08024782,1.02307
155.936,46.5324,-0.0503384,0.07946059,1.02283
156.636,46.76034,-0.05073084,0.0804198,1.02259
157.336,46.98769,-0.05034,0.08434312,1.02235
158.036,47.2156,-0.04968003,0.08419129,1.02211
158.736,47.44336,-0.05001004,0.08185523,1.02186
159.436,47.6721,-0.05003848,0.08118542,1.02162
160.136,47.90157,-0.04936037,0.08181171,1.02138
160.836,48.1322,-0.05002043,0.07935716,1.02113
161.536,48.36215,-0.05100811,0.08396053,1.02088
162.236,48.5916,-0.04969,0.08388396,1.02064
162.936,48.82042,-0.04969075,0.08357498,1.02039
163.636,49.04957,-0.04902863,0.08323873,1.02014
164.336,49.27838,-0.0509997,0.08379169,1.01989
165.036,49.50739,-0.05100015,0.08463923,1.01964
165.736,49.73574,-0.04966825,0.08551318,1.01939
166.436,49.96391,-0.05133997,0.08589067,1.01914
167.136,50.1918,-0.04935001,0.08731887,1.01889
167.836,50.41969,-0.05032174,0.08559721,1.01863
168.536,50.64864,-0.051988,0.0861429,1.01838
169.236,50.87695,-0.05069548,0.08602659,1.01813
169.936,51.10539,-0.05075271,0.08840616,1.01787
170.636,51.33283,-0.05133785,0.08885482,1.01761
171.336,51.56122,-0.05134,0.0857922,1.01736
172.036,51.78962,-0.05134154,0.08726827,1.0171
172.736,52.01825,-0.05067528,0.08728859,1.01684
173.436,52.24668,-0.05171706,0.08696149,1.01658
174.136,52.47478,-0.05168753,0.08888796,1.01632
174.836,52.7033,-0.05239524,0.08793688,1.01606
175.536,52.93192,-0.05199002,0.08990668,1.0158
176.236,53.16137,-0.05165109,0.08743794,1.01554
176.936,53.3908,-0.05128196,0.08990024,1.01528
177.636,53.61955,-0.05265,0.0900081,1.01501
178.336,53.84799,-0.05265013,0.09149498,1.01475
179.036,54.0753,-0.05199,0.09228278,1.01448
179.736,54.30339,-0.0519188,0.09269855,1.01422
180.436,54.53086,-0.05231491,0.09246143,1.01395
181.136,54.75943,-0.05364007,0.09257792,1.01368
181.836,54.9875,-0.05231955,0.0946312,1.01341
182.536,55.2156,-0.05363992,0.09437605,1.01314
183.236,55.44325,-0.05364055,0.09506356,1.01287
183.936,55.6708,-0.05264989,0.09542001,1.0126
184.636,55.89921,-0.05296935,0.09519755,1.01233
185.336,56.12735,-0.05429,0.09456603,1.01206
186.036,56.3555,-0.05429,0.09608922,1.01179
186.736,56.5834,-0.05396555,0.09715056,1.01151
187.436,56.81129,-0.05428968,0.09737215,1.01124
188.136,57.0395,-0.05297867,0.09719059,1.01096
188.836,57.2673,-0.05426742,0.09873682,1.01069
189.536,57.4957,-0.05560697,0.10137,1.01041
190.236,57.7237,-0.05523265,0.10183,1.01013
190.936,57.9514,-0.05525308,0.10059,1.00986
191.636,58.17905,-0.0566031,0.10294,1.00958
192.336,58.40599,-0.05548258,0.10407,1.0093
193.036,58.63378,-0.0566,0.10227,1.00902
193.736,58.86034,-0.0566,0.10602,1.00874
194.436,59.08755,-0.0579099,0.10364,1.00845
195.136,59.31409,-0.0579999,0.10618,1.00817
195.836,59.5415,-0.05923732,0.10709,1.00789
196.536,59.7685,-0.05790921,0.10424,1.0076
197.236,59.99593,-0.05783653,0.10596,1.00732
197.936,60.2235,-0.05922968,0.10816,1.00703
198.636,60.45066,-0.05988548,0.10882,1.00675
199.336,60.67788,-0.05989005,0.10811,1.00646
200.036,60.90424,-0.05983115,0.10874,1.00617
200.736,61.13103,-0.06119779,0.10639,1.00588
201.436,61.35754,-0.0612,0.10856,1.00559
202.136,61.5845,-0.06119733,0.10871,1.0053
202.836,61.8119,-0.0627501,0.1072,1.00501
203.536,62.03977,-0.06360484,0.10823,1.00472
204.236,62.2676,-0.06548218,0.1119,1.00443
204.936,62.49476,-0.06482454,0.11344,1.00413
205.636,62.7216,-0.06452524,0.11394,1.00384
206.336,62.9483,-0.0657765,0.11437,1.00355
207.036,63.1751,-0.06646883,0.11515,1.00325
207.736,63.40235,-0.06771293,0.11679,1.00295
208.436,63.62936,-0.0681029,0.11591,1.00266
209.136,63.85725,-0.06833758,0.11507,1.00236
209.836,64.0849,-0.06913246,0.11641,1.00206
210.536,64.31321,-0.07073804,0.11531,1.00176
211.236,64.5415,-0.07173868,0.11459,1.00146
211.936,64.77073,-0.0723861,0.11695,1.00116
212.636,65.00068,-0.0737,0.11441,1.00086
213.336,65.23039,-0.07369998,0.11905,1.00056
214.036,65.45916,-0.07501996,0.11984,1.00025
214.736,65.68772,-0.07642952,0.12044,0.99995
215.436,65.91578,-0.07634,0.11955,0.99965
216.136,66.14316,-0.0776519,0.12231,0.99934
216.836,66.36985,-0.07898611,0.12392,0.99903
217.536,66.5963,-0.08029134,0.12396,0.99873
218.236,66.82275,-0.08161012,0.12653,0.99842
218.936,67.04813,-0.08292947,0.12856,0.99811
219.636,67.27369,-0.08424015,0.12672,0.9978
220.336,67.49962,-0.08654005,0.12334,0.99749
221.036,67.72654,-0.08635562,0.12599,0.99718
221.736,67.9536,-0.08750556,0.12703,0.99687
222.436,68.18119,-0.08983017,0.12587,0.99656
223.136,68.4091,-0.09049818,0.12737,0.99625
223.836,68.63665,-0.09280019,0.12611,0.99593
224.536,68.8641,-0.09410997,0.12999,0.99562
225.236,69.0913,-0.09575029,0.1303,0.9953
225.936,69.31907,-0.09749445,0.13175,0.99499
226.636,69.5465,-0.10077,0.13432,0.99467
227.336,69.77435,-0.10139,0.13315,0.99435
228.036,70.00225,-0.105,0.1359,0.99404
228.736,70.23046,-0.10554,0.13515,0.99372
229.436,70.4584,-0.10787,0.1369,0.9934
230.136,70.6858,-0.11185,0.13848,0.99308
230.836,70.91295,-0.11191,0.13744,0.99276
231.536,71.14018,-0.11455,0.14005,0.99244
232.236,71.3682,-0.11713,0.13937,0.99211
232.936,71.59591,-0.11942,0.14045,0.99179
233.636,71.82401,-0.12206,0.14065,0.99147
234.336,72.05144,-0.12513,0.14203,0.99114
235.036,72.27925,-0.1277,0.1411,0.99082
235.736,72.50639,-0.1303,0.13963,0.99049
236.436,72.73329,-0.13297,0.13713,0.99016
237.136,72.96041,-0.13717,0.13319,0.98984
237.836,73.18727,-0.14052,0.13444,0.98951
238.536,73.41462,-0.14338,0.13607,0.98918
239.236,73.6419,-0.14675,0.13551,0.98885
239.936,73.86969,-0.1507,0.13462,0.98852
240.636,74.09735,-0.15499,0.13728,0.98819
241.336,74.3248,-0.15852,0.13792,0.98785
242.036,74.55239,-0.1631,0.13949,0.98752
242.736,74.78016,-0.16573,0.14062,0.98719
243.436,75.0079,-0.17025,0.13905,0.98685
244.136,75.2347,-0.17582,0.14094,0.98652
244.836,75.46135,-0.18101,0.13913,0.98618
245.536,75.68786,-0.18386,0.14144,0.98585
246.236,75.91551,-0.1892,0.14088,0.98551
246.936,76.1434,-0.19555,0.14093,0.98517
247.636,76.37146,-0.1995,0.14548,0.98483
248.336,76.59955,-0.20502,0.14467,0.98449
249.036,76.82733,-0.20944,0.14373,0.98415
249.736,77.05515,-0.21481,0.14617,0.98381
250.436,77.28222,-0.22132,0.1489,0.98347
251.136,77.50867,-0.22825,0.14837,0.98313
251.836,77.735,-0.23425,0.15222,0.98279
252.536,77.96197,-0.24026,0.15211,0.98244
253.236,78.18943,-0.24835,0.15429,0.9821
253.936,78.41686,-0.25354,0.1554,0.98175
254.636,78.6434,-0.26481,0.15765,0.98141
255.336,78.8703,-0.26965,0.15615,0.98106
256.036,79.09703,-0.27726,0.15831,0.98071
256.736,79.3244,-0.28437,0.15702,0.98037
257.436,79.55072,-0.29195,0.16011,0.98002
258.136,79.7783,-0.29984,0.15875,0.97967
258.836,80.00596,-0.30937,0.15958,0.97932
259.536,80.2349,-0.31788,0.16056,0.97897
260.236,80.46314,-0.32714,0.16034,0.97861
260.936,80.69164,-0.33576,0.16237,0.97826
261.636,80.91927,-0.34514,0.16219,0.97791
262.336,81.1472,-0.35431,0.16486,0.97755
263.036,81.3739,-0.36297,0.16518,0.9772
263.736,81.60089,-0.37401,0.16468,0.97684
264.436,81.82745,-0.38531,0.16696,0.97649
265.136,82.05461,-0.39229,0.16584,0.97613
265.836,82.28185,-0.40515,0.1678,0.97577
266.536,82.50846,-0.41461,0.1677,0.97542
267.236,82.73487,-0.42568,0.16938,0.97506
267.936,82.9614,-0.43518,0.1712,0.9747
268.636,83.18834,-0.44714,0.16985,0.97434
269.336,83.41507,-0.45667,0.17117,0.97398
270.036,83.64189,-0.46789,0.16989,0.97361
270.736,83.8695,-0.4804,0.1728,0.97325
271.436,84.0976,-0.49115,0.17078,0.97289
272.136,84.32562,-0.50405,0.17025,0.97252
272.836,84.55346,-0.51484,0.17491,0.97216
273.536,84.7812,-0.52513,0.17314,0.97179
274.236,85.00901,-0.53737,0.17213,0.97143
274.936,85.23617,-0.55007,0.17206,0.97106
275.636,85.46384,-0.56144,0.17036,0.97069
276.336,85.69171,-0.57131,0.16911,0.97033
277.036,85.92019,-0.58437,0.17143,0.96996
277.736,86.1483,-0.59744,0.17233,0.96959
278.436,86.37592,-0.60749,0.17061,0.96922
279.136,86.60296,-0.62024,0.17566,0.96884
279.836,86.82972,-0.63231,0.17285,0.96847
280.536,87.0561,-0.64561,0.17498,0.9681
281.236,87.28214,-0.65645,0.1758,0.96773
281.936,87.5085,-0.66853,0.17517,0.96735
282.636,87.73559,-0.67999,0.17646,0.96698
283.336,87.96295,-0.69239,0.17794,0.9666
284.036,88.19079,-0.70571,0.17679,0.96623
284.736,88.4183,-0.71756,0.17772,0.96585
285.436,88.64599,-0.7302,0.17934,0.96547
286.136,88.87351,-0.74416,0.17847,0.96509
286.836,89.10177,-0.75558,0.17914,0.96472
287.536,89.32951,-0.76666,0.18041,0.96434
288.236,89.55635,-0.77833,0.18104,0.96396
288.936,89.7831,-0.79184,0.18136,0.96357
289.636,90.0109,-0.80548,0.18371,0.96319
290.336,90.23968,-0.81998,0.18408,0.96281
291.036,90.46852,-0.83379,0.18597,0.96243
291.736,90.69633,-0.84483,0.18641,0.96204
292.436,90.9238,-0.85763,0.19038,0.96166
293.136,91.15095,-0.87047,0.19152,0.96127
293.836,91.37764,-0.88276,0.19174,0.96089
294.536,91.60468,-0.89779,0.19016,0.9605
295.236,91.83159,-0.91015,0.19214,0.96011
295.936,92.05917,-0.92399,0.19357,0.95972
296.636,92.28695,-0.93782,0.19556,0.95934
297.336,92.51465,-0.95291,0.19472,0.95895
298.036,92.74306,-0.96452,0.19617,0.95856
298.736,92.97157,-0.97793,0.19617,0.95817
299.436,93.20095,-0.99223,0.19737,0.95777
300.136,93.4302,-1.00627,0.19843,0.95738
300.836,93.65893,-1.0195,0.19818,0.95699
301.536,93.8871,-1.03366,0.20219,0.95659
302.236,94.1148,-1.04958,0.20634,0.9562
302.936,94.3417,-1.06296,0.20884,0.95581
303.636,94.56783,-1.07766,0.20993,0.95541
304.336,94.79425,-1.09094,0.21175,0.95501
305.036,95.02136,-1.10632,0.21521,0.95462
305.736,95.24886,-1.12175,0.21439,0.95422
306.436,95.4764,-1.13625,0.2156,0.95382
307.136,95.70408,-1.1518,0.21661,0.95342
307.836,95.93202,-1.16639,0.21767,0.95302
308.536,96.1607,-1.18186,0.22244,0.95262
309.236,96.38982,-1.1973,0.22166,0.95222
309.936,96.61893,-1.21246,0.22517,0.95182
310.636,96.84676,-1.2287,0.22787,0.95141
311.336,97.0745,-1.2439,0.22931,0.95101
312.036,97.303,-1.25963,0.23021,0.95061
312.736,97.53201,-1.27781,0.23421,0.9502
313.436,97.76085,-1.29501,0.23645,0.9498
314.136,97.9895,-1.30893,0.23723,0.94939
314.836,98.2184,-1.32597,0.23765,0.94898
315.536,98.44756,-1.3433,0.2425,0.94858
316.236,98.67725,-1.36039,0.24593,0.94817
316.936,98.90655,-1.38048,0.24625,0.94776
317.636,99.13523,-1.39715,0.25253,0.94735
318.336,99.36295,-1.41478,0.25256,0.94694
319.036,99.59085,-1.43214,0.25852,0.94653
319.736,99.81889,-1.45194,0.26006,0.94612
320.436,100.047,-1.46956,0.26448,0.9457
321.136,100.275,-1.4882,0.26599,0.94529
321.836,100.503,-1.5079,0.27049,0.94488
322.536,100.731,-1.52742,0.27519,0.94446
323.236,100.96,-1.54638,0.27685,0.94405
323.936,101.188,-1.56728,0.2832,0.94363
324.636,101.417,-1.58755,0.28725,0.94321
325.336,101.645,-1.60793,0.2876,0.9428
326.036,101.874,-1.63013,0.29307,0.94238
326.736,102.103,-1.65135,0.29952,0.94196
327.436,102.332,-1.67258,0.30196,0.94154
328.136,102.5612,-1.69609,0.3045,0.94112
328.836,102.79,-1.72059,0.31012,0.9407
329.536,103.019,-1.74263,0.31438,0.94028
330.236,103.248,-1.76595,0.32179,0.93986
330.936,103.478,-1.79251,0.32135,0.93944
331.636,103.707,-1.81693,0.32735,0.93901
332.336,103.936,-1.84078,0.33235,0.93859
333.036,104.164,-1.86766,0.33417,0.93817
333.736,104.393,-1.89444,0.33978,0.93774
334.436,104.623,-1.92239,0.34808,0.93731
335.136,104.855,-1.94845,0.34988,0.93689
335.836,105.086,-1.97705,0.35564,0.93646
336.536,105.317,-2.00553,0.36089,0.93603
337.236,105.547,-2.03487,0.36496,0.9356
337.936,105.776,-2.06476,0.37032,0.93517
338.636,106.004,-2.09435,0.37696,0.93474
339.336,106.232,-2.12451,0.38128,0.93431
340.036,106.459,-2.15447,0.38386,0.93388
340.736,106.687,-2.18625,0.38905,0.93345
341.436,106.915,-2.21657,0.389,0.93302
342.136,107.143,-2.25051,0.39473,0.93259
342.836,107.372,-2.28277,0.39539,0.93215
343.536,107.602,-2.3147,0.39209,0.93172
344.236,107.831,-2.34803,0.395,0.93128
344.936,108.061,-2.38083,0.39328,0.93085
345.636,108.29,-2.41328,0.39209,0.93041
346.336,108.518,-2.44579,0.39182,0.92997
347.036,108.747,-2.48003,0.38854,0.92953
347.736,108.976,-2.51115,0.38507,0.9291
348.436,109.204,-2.541,0.38109,0.92866
349.136,109.432,-2.57477,0.37516,0.92822
349.836,109.66,-2.60372,0.36878,0.92778
350.536,109.888,-2.63395,0.35993,0.92734
351.236,110.117,-2.66319,0.35122,0.92689
351.936,110.345,-2.68933,0.3393,0.92645
352.636,110.5733,-2.71748,0.3257,0.92601
353.336,110.801,-2.74124,0.31564,0.92557
354.036,111.031,-2.76573,0.3012,0.92512
354.736,111.26,-2.78872,0.28415,0.92468
355.436,111.49,-2.80943,0.26714,0.92423
356.136,111.719,-2.8288,0.25245,0.92378
356.836,111.948,-2.84653,0.238,0.92334
357.536,112.176,-2.86277,0.22014,0.92289
358.236,112.405,-2.87648,0.20444,0.92244
358.936,112.634,-2.89032,0.19388,0.92199
359.636,112.864,-2.90002,0.17931,0.92154
360.336,113.094,-2.91051,0.16382,0.92109
361.036,113.3224,-2.92009,0.15578,0.92064
361.736,113.551,-2.92755,0.14499,0.92019
362.436,113.78,-2.93281,0.13383,0.91974
363.136,114.009,-2.9389,0.12638,0.91928
363.836,114.239,-2.9425,0.11809,0.91883
364.536,114.469,-2.94616,0.11326,0.91838
365.236,114.699,-2.95023,0.10995,0.91792
365.936,114.929,-2.95434,0.10933,0.91747
366.636,115.159,-2.95707,0.10016,0.91701
367.336,115.389,-2.95853,0.10153,0.91655
368.036,115.619,-2.96174,0.09889727,0.9161
368.736,115.848,-2.96306,0.09939484,0.91564
369.436,116.077,-2.96617,0.09578305,0.91518
370.136,116.305,-2.96705,0.0974229,0.91472
370.836,116.533,-2.9703,0.09730046,0.91426
371.536,116.762,-2.97163,0.09457831,0.9138
372.236,116.992,-2.9747,0.09561795,0.91334
372.936,117.222,-2.97589,0.09248134,0.91288
373.636,117.453,-2.97854,0.08842606,0.91242
374.336,117.684,-2.98149,0.08844201,0.91195
375.036,117.914,-2.98275,0.08923951,0.91149
375.736,118.144,-2.98356,0.08590316,0.91103
376.436,118.374,-2.98517,0.08370615,0.91056
377.136,118.604,-2.98775,0.08301596,0.9101
377.836,118.835,-2.99005,0.08260922,0.90963
378.536,119.065,-2.99267,0.08119715,0.90916
379.236,119.296,-2.99399,0.07710561,0.9087
379.936,119.526,-2.99531,0.0786368,0.90823
380.636,119.756,-2.99662,0.07628529,0.90776
381.336,119.987,-2.99923,0.0777392,0.90729
382.036,120.217,-3.00066,0.07808738,0.90682
382.736,120.447,-3.00222,0.07644132,0.90635
383.436,120.677,-3.00516,0.07747561,0.90588
384.136,120.907,-3.0065,0.0740493,0.90541
384.836,121.1369,-3.00811,0.0750412,0.90493
385.536,121.3667,-3.01012,0.07472328,0.90446
386.236,121.596,-3.01143,0.07275091,0.90399
386.936,121.825,-3.01274,0.07393247,0.90351
387.636,122.0541,-3.01295,0.07277656,0.90304
388.336,122.284,-3.0167,0.07110314,0.90256
389.036,122.514,-3.019,0.07193042,0.90209
389.736,122.744,-3.02006,0.07092678,0.90161
390.436,122.975,-3.02262,0.06795165,0.90113
391.136,123.206,-3.02523,0.06874068,0.90066
391.836,123.437,-3.0269,0.06792362,0.90018
392.536,123.668,-3.02723,0.07073757,0.8997
393.236,123.9,-3.0292,0.06911754,0.89922
393.936,124.131,-3.0279,0.068504,0.89874
394.636,124.361,-3.0305,0.06775017,0.89826
395.336,124.5918,-3.03182,0.068789,0.89777
396.036,124.8222,-3.03571,0.06726753,0.89729
396.736,125.053,-3.03711,0.06489159,0.89681
397.436,125.284,-3.03981,0.07085686,0.89633
398.136,125.5143,-3.042,0.06537344,0.89584
398.836,125.743,-3.04306,0.06943075,0.89536
399.536,125.973,-3.04399,0.07113723,0.89487
400.236,126.202,-3.04468,0.07081794,0.89439
400.936,126.433,-3.04697,0.07315488,0.8939
401.636,126.662,-3.04895,0.07255637,0.89341
402.336,126.891,-3.05095,0.07151479,0.89293
403.036,127.12,-3.05275,0.07208821,0.89244
403.736,127.35,-3.05388,0.07226384,0.89195
404.436,127.58,-3.05553,0.07111069,0.89146
405.136,127.811,-3.05653,0.07233314,0.89097
405.836,128.043,-3.0575,0.06996531,0.89048
406.536,128.274,-3.05882,0.07082662,0.88999
407.236,128.507,-3.06018,0.07100182,0.8895
407.936,128.739,-3.06145,0.06960185,0.889
408.636,128.972,-3.06392,0.07030486,0.88851
409.336,129.203,-3.06672,0.07449326,0.88802
410.036,129.434,-3.06577,0.07490578,0.88752
410.736,129.665,-3.06803,0.07622132,0.88703
411.436,129.896,-3.07067,0.07742541,0.88653
412.136,130.127,-3.07265,0.07676539,0.88604
412.836,130.357,-3.07428,0.07728648,0.88554
413.536,130.587,-3.07482,0.07658527,0.88504
414.236,130.817,-3.07461,0.07786899,0.88455
414.936,131.048,-3.07725,0.08047939,0.88405
415.636,131.28,-3.07852,0.0801128,0.88355
416.336,131.511,-3.07987,0.08274057,0.88305
417.036,131.742,-3.08147,0.08290597,0.88255
417.736,131.9738,-3.08279,0.08335813,0.88205
418.436,132.205,-3.08547,0.08330165,0.88155
419.136,132.436,-3.08553,0.08319495,0.88105
419.836,132.668,-3.0881,0.08341289,0.88054
420.536,132.9,-3.0881,0.0815307,0.88004
421.236,133.132,-3.08941,0.08305183,0.87954
421.936,133.364,-3.09062,0.08138732,0.87903
422.636,133.596,-3.09076,0.08460452,0.87853
423.336,133.827,-3.09345,0.08558988,0.87802
424.036,134.058,-3.09207,0.08702688,0.87752
424.736,134.288,-3.09557,0.08764089,0.87701
425.436,134.517,-3.09469,0.08830934,0.8765
426.136,134.747,-3.09701,0.08905064,0.876
426.836,134.9782,-3.09831,0.08880505,0.87549
427.536,135.209,-3.0991,0.08815856,0.87498
428.236,135.441,-3.0992,0.088981,0.87447
428.936,135.673,-3.10193,0.09175793,0.87396
429.636,135.905,-3.10226,0.09303031,0.87345
430.336,136.137,-3.10324,0.09465598,0.87294
431.036,136.369,-3.10488,0.09694774,0.87243
431.736,136.601,-3.10684,0.10061,0.87192
432.436,136.831,-3.10653,0.10051,0.8714
433.136,137.062,-3.10818,0.10408,0.87089
433.836,137.292,-3.10819,0.10475,0.87038
434.536,137.523,-3.10975,0.10358,0.86986
435.236,137.755,-3.11113,0.10465,0.86935
435.936,137.986,-3.11197,0.10602,0.86883
436.636,138.217,-3.11377,0.10583,0.86831
437.336,138.448,-3.11377,0.10582,0.8678
438.036,138.68,-3.11509,0.10588,0.86728
438.736,138.911,-3.11642,0.10368,0.86676
439.436,139.142,-3.1164,0.1045,0.86625
440.136,139.372,-3.11736,0.10552,0.86573
440.836,139.603,-3.11837,0.10528,0.86521
441.536,139.834,-3.11773,0.10481,0.86469
442.236,140.066,-3.12134,0.10662,0.86417
442.936,140.296,-3.12174,0.10674,0.86365
443.636,140.528,-3.12109,0.10999,0.86312
444.336,140.758,-3.12298,0.11058,0.8626
445.036,140.99,-3.1236,0.1103,0.86208
445.736,141.223,-3.12561,0.10919,0.86156
446.436,141.457,-3.12528,0.10676,0.86103
447.136,141.692,-3.12594,0.10777,0.86051
447.836,141.925,-3.12648,0.11241,0.85998
448.536,142.159,-3.12695,0.11155,0.85946
449.236,142.391,-3.12957,0.11452,0.85893
449.936,142.624,-3.12988,0.11383,0.85841
450.636,142.856,-3.1317,0.11477,0.85788
451.336,143.087,-3.13088,0.11566,0.85735
452.036,143.317,-3.13161,0.11803,0.85682
452.736,143.546,-3.13254,0.11677,0.85629
453.436,143.776,-3.13384,0.11928,0.85577
454.136,144.005,-3.13377,0.11792,0.85524
454.836,144.2354,-3.13516,0.11861,0.85471
455.536,144.466,-3.13615,0.11504,0.85418
456.236,144.697,-3.13515,0.11157,0.85364
456.936,144.928,-3.13655,0.10783,0.85311
457.636,145.159,-3.13855,0.10981,0.85258
458.336,145.391,-3.13746,0.10546,0.85205
459.036,145.623,-3.1388,0.10559,0.85151
459.736,145.856,-3.13865,0.10584,0.85098
460.436,146.089,-3.14075,0.10639,0.85045
461.136,146.322,-3.14106,0.1052,0.84991
461.836,146.554,-3.14207,0.1026,0.84938
462.536,146.787,-3.14339,0.10531,0.84884
463.236,147.021,-3.14339,0.10338,0.8483
463.936,147.255,-3.14342,0.10472,0.84777
464.636,147.488,-3.1447,0.10434,0.84723
465.336,147.721,-3.14594,0.10646,0.84669
466.036,147.953,-3.14635,0.10857,0.84615
466.736,148.185,-3.14569,0.10489,0.84561
467.436,148.416,-3.14832,0.10681,0.84507
468.136,148.646,-3.14633,0.10772,0.84453
468.836,148.878,-3.1477,0.10398,0.84399
469.536,149.1093,-3.14894,0.10474,0.84345
470.236,149.341,-3.1503,0.10258,0.84291
470.936,149.573,-3.15023,0.10366,0.84237
471.636,149.806,-3.15195,0.1015,0.84182
472.336,150.038,-3.1526,0.09839579,0.84128
473.036,150.272,-3.15297,0.09977297,0.84074
473.736,150.505,-3.15392,0.09883966,0.84019
474.436,150.739,-3.15439,0.10045,0.83965
475.136,150.973,-3.15589,0.0994173,0.8391
475.836,151.206,-3.15562,0.0974132,0.83856
476.536,151.4397,-3.15688,0.09877178,0.83801
477.236,151.673,-3.15783,0.10135,0.83746
477.936,151.906,-3.15688,0.10007,0.83692
478.636,152.138,-3.15951,0.10179,0.83637
479.336,152.371,-3.15825,0.09940728,0.83582
480.036,152.6029,-3.16022,0.09767333,0.83527
480.736,152.835,-3.15986,0.09802164,0.83472
481.436,153.067,-3.16056,0.09878051,0.83417
482.136,153.299,-3.16149,0.09950683,0.83362
482.836,153.53,-3.16347,0.09700838,0.83307
483.536,153.763,-3.16366,0.09909736,0.83252
484.236,153.996,-3.16379,0.09605135,0.83197
484.936,154.229,-3.16379,0.095462,0.83142
485.636,154.463,-3.16511,0.09565306,0.83086
486.336,154.696,-3.1651,0.09781657,0.83031
487.036,154.929,-3.16726,0.09889959,0.82976
487.736,155.1622,-3.1674,0.09628439,0.8292
488.436,155.394,-3.16765,0.09799149,0.82865
489.136,155.627,-3.16736,0.09951742,0.82809
489.836,155.8589,-3.16875,0.10082,0.82754
490.536,156.0906,-3.17003,0.10011,0.82698
491.236,156.322,-3.17102,0.1012,0.82642
491.936,156.554,-3.17069,0.10161,0.82587
492.636,156.7866,-3.17068,0.10206,0.82531
493.336,157.019,-3.17136,0.09868357,0.82475
494.036,157.253,-3.17332,0.09957647,0.82419
494.736,157.485,-3.17092,0.09509646,0.82363
495.436,157.717,-3.17332,0.09644553,0.82308
496.136,157.95,-3.17366,0.09879548,0.82252
496.836,158.182,-3.17366,0.09542014,0.82195
497.536,158.415,-3.1746,0.08943889,0.82139
498.236,158.6485,-3.17596,0.09104601,0.82083
498.936,158.882,-3.17529,0.08956622,0.82027
499.636,159.114,-3.17629,0.08916943,0.81971
500.336,159.347,-3.17628,0.0877974,0.81915
501.036,159.579,-3.17708,0.08446721,0.81858
501.736,159.8119,-3.17695,0.08611047,0.81802
502.436,160.045,-3.17925,0.08689912,0.81745
503.136,160.279,-3.17819,0.08397884,0.81689
503.836,160.514,-3.17892,0.08506731,0.81633
504.536,160.749,-3.18089,0.08437924,0.81576
505.236,160.984,-3.18155,0.08448184,0.81519
505.936,161.22,-3.18221,0.08638944,0.81463
506.636,161.455,-3.18287,0.08420831,0.81406
507.336,161.69,-3.18225,0.08272625,0.81349
508.036,161.9223,-3.18223,0.08213283,0.81293
508.736,162.155,-3.18349,0.08476141,0.81236
509.436,162.388,-3.18451,0.08217153,0.81179
510.136,162.622,-3.1848,0.08508293,0.81122
510.836,162.857,-3.18472,0.08402876,0.81065
511.536,163.091,-3.18582,0.08223806,0.81008
512.236,163.326,-3.18649,0.08434123,0.80951
512.936,163.559,-3.18649,0.08446688,0.80894
513.636,163.792,-3.18584,0.08343329,0.80837
514.336,164.0239,-3.18747,0.08516315,0.80779
515.036,164.256,-3.18767,0.08677457,0.80722
515.736,164.488,-3.18913,0.08637694,0.80665
516.436,164.7203,-3.19044,0.08665491,0.80608
517.136,164.9538,-3.19044,0.0875006,0.8055
517.836,165.189,-3.18909,0.0881166,0.80493
518.536,165.423,-3.19044,0.08827712,0.80435
519.236,165.658,-3.19047,0.08993706,0.80378
519.936,165.893,-3.19042,0.08719024,0.8032
520.636,166.127,-3.19209,0.08985293,0.80263
521.336,166.361,-3.19209,0.08815125,0.80205
522.036,166.594,-3.19358,0.09064511,0.80147
522.736,166.827,-3.19124,0.09162771,0.8009
523.436,167.061,-3.19245,0.08978388,0.80032
524.136,167.295,-3.19372,0.09298516,0.79974
524.836,167.529,-3.1934,0.09139443,0.79916
525.536,167.763,-3.19433,0.09400698,0.79858
526.236,167.996,-3.1957,0.09483442,0.798
526.936,168.23,-3.19575,0.09218426,0.79743
527.636,168.463,-3.19633,0.09179817,0.79684
528.336,168.696,-3.19734,0.09433117,0.79626
529.036,168.93,-3.19734,0.09608924,0.79568
529.736,169.163,-3.19762,0.09305245,0.7951
530.436,169.395,-3.19866,0.09453235,0.79452
531.136,169.627,-3.19866,0.09734282,0.79394
531.836,169.86,-3.19999,0.094641,0.79336
532.536,170.094,-3.199,0.09504432,0.79277
533.236,170.3275,-3.19759,0.09417871,0.79219
533.936,170.563,-3.19899,0.09237214,0.7916
534.636,170.798,-3.20129,0.09157198,0.79102
535.336,171.033,-3.20162,0.09478318,0.79044
536.036,171.267,-3.20161,0.09692886,0.78985
536.736,171.5,-3.20294,0.09378796,0.78926
537.436,171.734,-3.20163,0.09840319,0.78868
538.136,171.967,-3.20266,0.09891453,0.78809
538.836,172.2,-3.20328,0.09788693,0.78751
539.536,172.4345,-3.2036,0.09885551,0.78692
540.236,172.669,-3.20459,0.09712824,0.78633
540.936,172.904,-3.20313,0.10005,0.78574
541.636,173.138,-3.20492,0.09878695,0.78515
542.336,173.371,-3.20633,0.10027,0.78457
543.036,173.603,-3.20622,0.0981379,0.78398
543.736,173.836,-3.20624,0.09890134,0.78339
544.436,174.069,-3.20689,0.10016,0.7828
545.136,174.303,-3.20723,0.09820649,0.78221
545.836,174.539,-3.20711,0.09926283,0.78162
546.536,174.774,-3.20854,0.10189,0.78102
547.236,175.01,-3.2097,0.10418,0.78043
547.936,175.245,-3.20979,0.10431,0.77984
548.636,175.4796,-3.2092,0.10078,0.77925
549.336,175.714,-3.21052,0.10297,0.77866
550.036,175.949,-3.21052,0.10502,0.77806
550.736,176.183,-3.21117,0.10748,0.77747
551.436,176.417,-3.20986,0.10602,0.77687
552.136,176.651,-3.21117,0.10406,0.77628
552.836,176.886,-3.2139,0.10824,0.77569
553.536,177.121,-3.21248,0.10875,0.77509
554.236,177.354,-3.21258,0.10496,0.7745
554.936,177.588,-3.2138,0.10912,0.7739
555.636,177.821,-3.2138,0.10596,0.7733
556.336,178.056,-3.21466,0.10952,0.77271
557.036,178.291,-3.21525,0.10828,0.77211
557.736,178.527,-3.21479,0.11059,0.77151
558.436,178.763,-3.2161,0.10942,0.77091
559.136,178.998,-3.21643,0.10559,0.77032
559.836,179.233,-3.21643,0.10897,0.76972
560.536,179.468,-3.21643,0.1125,0.76912
561.236,179.702,-3.2171,0.1092,0.76852
561.936,179.936,-3.21776,0.11279,0.76792
562.636,180.171,-3.22038,0.11047,0.76732
563.336,180.406,-3.21907,0.11089,0.76672
564.036,180.641,-3.21922,0.11196,0.76612
564.736,180.875,-3.21906,0.11116,0.76552
565.436,181.11,-3.22028,0.11282,0.76492
566.136,181.344,-3.2217,0.11164,0.76432
566.836,181.578,-3.22433,0.11256,0.76371
567.536,181.813,-3.22368,0.11254,0.76311
568.236,182.047,-3.22466,0.11025,0.76251
568.936,182.281,-3.22466,0.11012,0.7619
569.636,182.516,-3.22334,0.11202,0.7613
570.336,182.751,-3.22502,0.11163,0.7607
571.036,182.986,-3.22534,0.10913,0.76009
571.736,183.221,-3.22662,0.11407,0.75949
572.436,183.455,-3.22573,0.11274,0.75888
573.136,183.6896,-3.22598,0.11186,0.75828
573.836,183.925,-3.22696,0.11421,0.75767
574.536,184.161,-3.22716,0.11404,0.75707
575.236,184.396,-3.22731,0.11442,0.75646
575.936,184.631,-3.22729,0.1163,0.75585
576.636,184.866,-3.22993,0.11621,0.75525
577.336,185.101,-3.23091,0.11812,0.75464
578.036,185.336,-3.23026,0.11811,0.75403
578.736,185.57,-3.23045,0.11519,0.75342
579.436,185.805,-3.2306,0.1155,0.75281
580.136,186.04,-3.23124,0.11822,0.75221
580.836,186.274,-3.23126,0.11771,0.7516
581.536,186.507,-3.23256,0.1173,0.75099
582.236,186.74,-3.23124,0.11388,0.75038
582.936,186.973,-3.23118,0.11755,0.74977
583.636,187.207,-3.23166,0.11795,0.74916
584.336,187.442,-3.23297,0.11724,0.74855
585.036,187.676,-3.23289,0.11731,0.74794
585.736,187.911,-3.23223,0.11428,0.74732
586.436,188.146,-3.23345,0.11347,0.74671
587.136,188.381,-3.23353,0.10887,0.7461
587.836,188.6169,-3.23487,0.11451,0.74549
588.536,188.853,-3.23619,0.11232,0.74488
589.236,189.088,-3.23487,0.11436,0.74426
589.936,189.323,-3.23675,0.11531,0.74365
590.636,189.559,-3.23611,0.11468,0.74304
591.336,189.795,-3.23684,0.1148,0.74242
592.036,190.03,-3.2375,0.11579,0.74181
592.736,190.265,-3.23881,0.12003,0.74119
593.436,190.498,-3.2375,0.11655,0.74058
594.136,190.731,-3.2388,0.11941,0.73996
594.836,190.965,-3.2375,0.11894,0.73935
595.536,191.1992,-3.23881,0.11777,0.73873
596.236,191.434,-3.23974,0.12132,0.73812
596.936,191.671,-3.23947,0.12162,0.7375
597.636,191.908,-3.23947,0.11835,0.73688
598.336,192.145,-3.24077,0.11905,0.73627
599.036,192.38,-3.24079,0.12132,0.73565
599.736,192.615,-3.24079,0.11723,0.73503
600.436,192.849,-3.24144,0.12577,0.73441
601.136,193.085,-3.24147,0.12339,0.73379
601.836,193.32,-3.24445,0.12355,0.73318
602.536,193.553,-3.24172,0.12391,0.73256
603.236,193.788,-3.2411,0.12351,0.73194
603.936,194.023,-3.24243,0.12461,0.73132
604.636,194.2584,-3.24214,0.12423,0.7307
605.336,194.494,-3.24211,0.12428,0.73008
606.036,194.729,-3.24342,0.12672,0.72946
606.736,194.964,-3.24473,0.126,0.72884
607.436,195.2,-3.24539,0.12778,0.72822
608.136,195.4368,-3.2428,0.12848,0.7276
608.836,195.673,-3.24408,0.13053,0.72697
609.536,195.909,-3.24439,0.12941,0.72635
610.236,196.144,-3.24416,0.12927,0.72573
610.936,196.378,-3.2442,0.12953,0.72511
611.636,196.612,-3.2455,0.12997,0.72449
612.336,196.847,-3.24551,0.13153,0.72386
613.036,197.082,-3.24638,0.13008,0.72324
613.736,197.318,-3.24504,0.12922,0.72262
614.436,197.555,-3.2456,0.13022,0.72199
615.136,197.792,-3.24572,0.13081,0.72137
615.836,198.0274,-3.24638,0.13014,0.72074
616.536,198.263,-3.24539,0.13367,0.72012
617.236,198.4969,-3.2477,0.13367,0.7195
617.936,198.732,-3.24665,0.13281,0.71887
618.636,198.966,-3.24529,0.13498,0.71824
619.336,199.2,-3.24693,0.13641,0.71762
620.036,199.435,-3.24693,0.13528,0.71699
620.736,199.67,-3.24793,0.13328,0.71637
621.436,199.905,-3.2489,0.13544,0.71574
622.136,200.139,-3.24852,0.13169,0.71511
622.836,200.3741,-3.24928,0.1346,0.71449
623.536,200.609,-3.24791,0.13249,0.71386
624.236,200.844,-3.2489,0.13331,0.71323
624.936,201.08,-3.25053,0.13214,0.71261
625.636,201.3154,-3.25055,0.13569,0.71198
626.336,201.551,-3.25055,0.13391,0.71135
627.036,201.786,-3.25054,0.13364,0.71072
627.736,202.021,-3.25153,0.13627,0.71009
628.436,202.255,-3.24824,0.13315,0.70946
629.136,202.491,-3.25215,0.13288,0.70883
629.836,202.726,-3.25219,0.13311,0.7082
630.536,202.963,-3.24956,0.13156,0.70757
631.236,203.199,-3.25052,0.12711,0.70695
631.936,203.435,-3.25219,0.13522,0.70631
632.636,203.6705,-3.25458,0.13096,0.70568
633.336,203.906,-3.25263,0.13482,0.70505
634.036,204.142,-3.25121,0.1331,0.70442
634.736,204.378,-3.25253,0.13545,0.70379
635.436,204.614,-3.25285,0.13642,0.70316
636.136,204.8494,-3.25351,0.13473,0.70253
636.836,205.085,-3.25219,0.13457,0.7019
637.536,205.32,-3.25432,0.13612,0.70127
638.236,205.555,-3.25274,0.13404,0.70063
638.936,205.79,-3.25338,0.13497,0.7
639.636,206.024,-3.25332,0.1357,0.69937
640.336,206.258,-3.25356,0.13959,0.69873
641.036,206.491,-3.25439,0.13675,0.6981
641.736,206.725,-3.2534,0.13686,0.69747
642.436,206.96,-3.25471,0.13762,0.69683
643.136,207.196,-3.25335,0.13451,0.6962
643.836,207.433,-3.25471,0.13135,0.69557
644.536,207.669,-3.25505,0.13042,0.69493
645.236,207.905,-3.25638,0.13257,0.6943
645.936,208.142,-3.25505,0.1322,0.69366
646.636,208.379,-3.25571,0.13138,0.69303
647.336,208.616,-3.25669,0.13367,0.69239
648.036,208.852,-3.25532,0.13103,0.69176
648.736,209.088,-3.2554,0.13233,0.69112
649.436,209.323,-3.25669,0.13146,0.69049
650.136,209.56,-3.25584,0.13136,0.68985
650.836,209.795,-3.25657,0.13196,0.68921
651.536,210.029,-3.25669,0.13474,0.68858
652.236,210.263,-3.25498,0.13262,0.68794
652.936,210.498,-3.25733,0.12944,0.6873
653.636,210.733,-3.25603,0.13122,0.68667
654.336,210.968,-3.25603,0.12648,0.68603
655.036,211.203,-3.25853,0.13069,0.68539
655.736,211.438,-3.25536,0.12905,0.68475
656.436,211.674,-3.25582,0.12939,0.68412
657.136,211.911,-3.25673,0.12666,0.68348
657.836,212.148,-3.25635,0.13067,0.68284
658.536,212.385,-3.25867,0.13274,0.6822
659.236,212.621,-3.25768,0.1307,0.68156
659.936,212.856,-3.26029,0.13033,0.68093
660.636,213.09,-3.26061,0.13237,0.68029
661.336,213.325,-3.25932,0.13229,0.67965
662.036,213.56,-3.26124,0.13314,0.67901
662.736,213.796,-3.25899,0.13747,0.67837
663.436,214.0312,-3.26097,0.13376,0.67773
664.136,214.266,-3.26097,0.1322,0.67709
664.836,214.5018,-3.25968,0.13435,0.67645
665.536,214.738,-3.26097,0.12919,0.67581
666.236,214.9744,-3.26151,0.13178,0.67517
666.936,215.21,-3.2613,0.12943,0.67453
667.636,215.446,-3.26163,0.13166,0.67389
668.336,215.682,-3.26064,0.13186,0.67325
669.036,215.916,-3.26262,0.1339,0.6726
669.736,216.151,-3.2626,0.13694,0.67196
670.436,216.385,-3.26386,0.1337,0.67132
671.136,216.62,-3.26295,0.13354,0.67068
671.836,216.855,-3.26295,0.13446,0.67004
672.536,217.091,-3.26429,0.13086,0.6694
673.236,217.328,-3.26458,0.13431,0.66875
673.936,217.565,-3.26393,0.13276,0.66811
674.636,217.802,-3.26525,0.13248,0.66747
675.336,218.039,-3.26467,0.13533,0.66683
676.036,218.278,-3.26459,0.13342,0.66618
676.736,218.516,-3.2636,0.13359,0.66554
677.436,218.752,-3.26492,0.13334,0.6649
678.136,218.988,-3.26591,0.13022,0.66425
678.836,219.224,-3.26548,0.13726,0.66361
679.536,219.459,-3.26656,0.1324,0.66297
680.236,219.694,-3.26788,0.13154,0.66232
680.936,219.928,-3.26658,0.13001,0.66168
681.636,220.163,-3.26787,0.13107,0.66104
682.336,220.398,-3.26787,0.13327,0.66039
683.036,220.634,-3.26918,0.13097,0.65975
683.736,220.87,-3.2686,0.12832,0.6591
684.436,221.106,-3.26919,0.1318,0.65846
685.136,221.341,-3.26955,0.12994,0.65781
685.836,221.577,-3.27084,0.13388,0.65717
686.536,221.8142,-3.27183,0.13386,0.65652
687.236,222.053,-3.27181,0.12761,0.65588
687.936,222.29,-3.27182,0.12891,0.65523
688.636,222.526,-3.27044,0.12991,0.65459
689.336,222.76,-3.27116,0.13334,0.65394
690.036,222.996,-3.27116,0.13688,0.6533
690.736,223.2305,-3.27215,0.13666,0.65265
691.436,223.466,-3.27281,0.1352,0.652
692.136,223.702,-3.27281,0.13544,0.65136
692.836,223.938,-3.2715,0.13484,0.65071
693.536,224.1752,-3.2715,0.13622,0.65006
694.236,224.412,-3.27282,0.13642,0.64942
694.936,224.647,-3.27282,0.14177,0.64877
695.636,224.882,-3.27282,0.13777,0.64813
696.336,225.1171,-3.2715,0.13869,0.64748
697.036,225.352,-3.27249,0.13771,0.64683
697.736,225.5883,-3.27249,0.14142,0.64618
698.436,225.826,-3.2728,0.14504,0.64554
699.136,226.063,-3.27281,0.14295,0.64489
699.836,226.299,-3.27347,0.14423,0.64424
700.536,226.534,-3.27479,0.14786,0.64359
701.236,226.77,-3.27436,0.15096,0.64295
701.936,227.006,-3.27573,0.14992,0.6423
702.636,227.242,-3.27479,0.14794,0.64165
703.336,227.479,-3.27479,0.15027,0.641
704.036,227.715,-3.27543,0.1534,0.64035
704.736,227.9524,-3.27644,0.15023,0.63971
705.436,228.19,-3.27578,0.14856,0.63906
706.136,228.428,-3.27561,0.15186,0.63841
706.836,228.665,-3.27708,0.15449,0.63776
707.536,228.902,-3.2771,0.15313,0.63711
708.236,229.138,-3.2771,0.1524,0.63646
708.936,229.373,-3.2771,0.15731,0.63582
709.636,229.609,-3.27818,0.15875,0.63517
710.336,229.846,-3.2761,0.15701,0.63452
711.036,230.082,-3.2761,0.1578,0.63387
711.736,230.319,-3.27742,0.16,0.63322
712.436,230.556,-3.27742,0.15948,0.63257
713.136,230.793,-3.27746,0.1577,0.63192
713.836,231.029,-3.2794,0.16097,0.63127
714.536,231.264,-3.2788,0.16542,0.63062
715.236,231.498,-3.27908,0.16535,0.62997
715.936,231.733,-3.27907,0.16473,0.62932
716.636,231.968,-3.27908,0.16781,0.62867
717.336,232.205,-3.2789,0.16086,0.62802
718.036,232.441,-3.27847,0.16206,0.62737
718.736,232.677,-3.28008,0.16303,0.62672
719.436,232.914,-3.27972,0.16797,0.62607
720.136,233.15,-3.28006,0.17073,0.62542
720.836,233.386,-3.27972,0.17075,0.62477
721.536,233.6224,-3.28186,0.16935,0.62412
722.236,233.861,-3.28104,0.16909,0.62347
722.936,234.1,-3.28104,0.17095,0.62282
723.636,234.339,-3.28236,0.16776,0.62217
724.336,234.577,-3.28236,0.16827,0.62152
725.036,234.813,-3.28236,0.17,0.62087
725.736,235.0493,-3.28236,0.17264,0.62022
726.436,235.284,-3.28104,0.17384,0.61957
727.136,235.519,-3.28224,0.1724,0.61892
727.836,235.754,-3.28266,0.17408,0.61826
728.536,235.99,-3.28169,0.17503,0.61761
729.236,236.227,-3.28377,0.17558,0.61696
729.936,236.464,-3.28229,0.17885,0.61631
730.636,236.7,-3.28268,0.18104,0.61566
731.336,236.935,-3.28343,0.17965,0.61501
732.036,237.172,-3.28399,0.17659,0.61436
732.736,237.41,-3.28531,0.17546,0.61371
733.436,237.648,-3.28498,0.18054,0.61306
734.136,237.886,-3.28533,0.18,0.6124
734.836,238.1235,-3.28412,0.17933,0.61175
735.536,238.36,-3.28433,0.18127,0.6111
736.236,238.596,-3.28433,0.18006,0.61045
736.936,238.832,-3.28433,0.18156,0.6098
737.636,239.069,-3.28631,0.18503,0.60915
738.336,239.307,-3.28631,0.18454,0.60849
739.036,239.543,-3.28499,0.18507,0.60784
739.736,239.779,-3.28631,0.18127,0.60719
740.436,240.014,-3.2876,0.1814,0.60654
741.136,240.25,-3.2846,0.1823,0.60589
741.836,240.486,-3.2846,0.18443,0.60523
742.536,240.721,-3.28484,0.18244,0.60458
743.236,240.958,-3.28761,0.18708,0.60393
743.936,241.195,-3.28598,0.18618,0.60328
744.636,241.432,-3.28597,0.18368,0.60263
745.336,241.667,-3.28729,0.18491,0.60197
746.036,241.903,-3.2873,0.18489,0.60132
746.736,242.14,-3.28729,0.18484,0.60067
747.436,242.378,-3.28729,0.18634,0.60002
748.136,242.6169,-3.28762,0.18673,0.59937
748.836,242.856,-3.28859,0.19132,0.59871
749.536,243.094,-3.28925,0.18417,0.59806
750.236,243.332,-3.28762,0.18722,0.59741
750.936,243.57,-3.2886,0.18279,0.59676
751.636,243.807,-3.28926,0.18337,0.59611
752.336,244.044,-3.28927,0.18361,0.59545
753.036,244.2816,-3.29025,0.18715,0.5948
753.736,244.52,-3.29025,0.18836,0.59415
754.436,244.757,-3.29038,0.18273,0.5935
755.136,244.994,-3.28992,0.1843,0.59284
755.836,245.23,-3.28992,0.18934,0.59219
756.536,245.466,-3.28992,0.18553,0.59154
757.236,245.703,-3.28959,0.18707,0.59089
757.936,245.941,-3.28954,0.18478,0.59023
758.636,246.178,-3.28927,0.18073,0.58958
759.336,246.415,-3.29059,0.1823,0.58893
760.036,246.653,-3.29059,0.18323,0.58828
760.736,246.8908,-3.29026,0.18564,0.58763
761.436,247.129,-3.29157,0.1852,0.58697
762.136,247.366,-3.29059,0.18743,0.58632
762.836,247.604,-3.29057,0.18397,0.58567
763.536,247.842,-3.29192,0.18735,0.58502
764.236,248.081,-3.29279,0.18928,0.58436
764.936,248.319,-3.29157,0.18639,0.58371
765.636,248.557,-3.29288,0.18686,0.58306
766.336,248.793,-3.29189,0.18693,0.58241
767.036,249.029,-3.29256,0.19024,0.58175
767.736,249.265,-3.29355,0.18479,0.5811
768.436,249.502,-3.29343,0.19202,0.58045
769.136,249.739,-3.29189,0.19066,0.5798
769.836,249.976,-3.29321,0.18841,0.57915
770.536,250.2122,-3.29453,0.18403,0.57849
771.236,250.449,-3.29387,0.18667,0.57784
771.936,250.685,-3.29387,0.18662,0.57719
772.636,250.9211,-3.29487,0.18679,0.57654
773.336,251.159,-3.29487,0.18437,0.57588
774.036,251.399,-3.29486,0.18354,0.57523
774.736,251.639,-3.29487,0.18208,0.57458
775.436,251.879,-3.29618,0.1896,0.57393
776.136,252.118,-3.29487,0.17978,0.57328
776.836,252.357,-3.29751,0.18367,0.57262
777.536,252.596,-3.29617,0.18396,0.57197
778.236,252.834,-3.29616,0.18254,0.57132
778.936,253.072,-3.29646,0.18195,0.57067
779.636,253.31,-3.29682,0.18445,0.57002
780.336,253.547,-3.29675,0.18487,0.56937
781.036,253.783,-3.29716,0.18382,0.56871
781.736,254.018,-3.29849,0.18808,0.56806
782.436,254.254,-3.29768,0.18697,0.56741
783.136,254.49,-3.2998,0.18588,0.56676
783.836,254.727,-3.2998,0.18798,0.56611
784.536,254.963,-3.29848,0.19103,0.56546
785.236,255.199,-3.29782,0.18685,0.5648
785.936,255.436,-3.29914,0.19155,0.56415
786.636,255.6716,-3.30045,0.19134,0.5635
787.336,255.907,-3.30058,0.19089,0.56285
788.036,256.143,-3.3011,0.19212,0.5622
788.736,256.381,-3.30151,0.19131,0.56155
789.436,256.619,-3.30012,0.19166,0.5609
790.136,256.857,-3.30076,0.19386,0.56024
790.836,257.096,-3.30078,0.19556,0.55959
791.536,257.333,-3.30177,0.19597,0.55894
792.236,257.571,-3.30144,0.19663,0.55829
792.936,257.8096,-3.30144,0.20141,0.55764
793.636,258.048,-3.30177,0.19621,0.55699
794.336,258.285,-3.30178,0.1983,0.55634
795.036,258.522,-3.30245,0.19567,0.55569
795.736,258.759,-3.30243,0.19569,0.55504
796.436,258.996,-3.30308,0.19683,0.55439
797.136,259.232,-3.30309,0.19544,0.55374
797.836,259.469,-3.30309,0.19544,0.55309
798.536,259.706,-3.30408,0.19475,0.55244
799.236,259.944,-3.30374,0.19704,0.55179
799.336,259.977,-3.30374,0.19951,0.55169