File: 01_Data/FRP_Panel/MCC/FRP_Panel_MCC_30K_min_211101_R3.txt
Sample ID:	C:\MCC\MCC Cal\Test\FRP_Panel_MCC_30K_min_211101_R3.txt
Sample Weight (mg):	4.76
Heating Rate (C/s):	0.5
Combustor Temp (C):	900
N2 Flow Rate (cc/min):	80
O2 Flow Rate (cc/min):	20
Calibration File:	C:\MCC\MCC Cal\Coeff1 JN10440_30_210304.txt.txt
T Correction Coefficients:	0	1.024463	0
Time Shift (s):	14
*
Time (s)	Temperature (C)	N2 flow rate (cc/min)	O2 flow rate (cc/min)	Flow Rate (cc/min)	Oxygen (%)	HRR (W/g)	Heating rate (C/s)
0.000	107.551	80.001	19.991	102.964	20.324	0.363	0.003
2.000	107.510	79.996	19.997	102.965	20.323	0.422	-0.018
3.999	107.498	80.000	19.995	102.965	20.326	0.265	-0.022
5.999	107.541	80.005	19.990	102.966	20.323	0.443	0.016
7.999	107.542	80.001	19.991	102.978	20.325	0.285	0.015
9.999	107.557	79.999	19.994	102.975	20.330	-0.017	0.037
11.999	107.523	79.999	19.995	102.966	20.329	0.069	-0.012
13.999	107.531	80.000	19.995	102.980	20.326	0.263	0.013
16.000	107.532	79.999	19.995	102.976	20.328	0.122	0.006
18.000	107.524	79.997	19.992	102.996	20.323	0.425	-0.012
20.000	107.545	79.995	19.998	103.011	20.325	0.343	-0.000
22.000	107.578	79.999	19.995	103.013	20.325	0.345	0.025
24.000	107.608	79.998	19.998	103.025	20.322	0.510	0.013
26.000	107.726	80.005	19.990	103.034	20.320	0.670	0.063
28.000	107.736	80.000	19.997	103.067	20.318	0.757	0.014
30.000	107.789	80.000	19.986	103.109	20.307	1.555	0.039
32.000	107.912	80.002	19.993	103.126	20.307	1.544	0.028
33.999	108.073	79.999	19.996	103.156	20.302	1.891	0.093
35.999	108.287	79.996	19.995	103.154	20.294	2.405	0.107
37.999	108.534	79.998	19.996	103.156	20.295	2.315	0.123
39.999	108.729	80.000	19.994	103.151	20.298	2.153	0.113
41.999	109.007	79.997	19.996	103.146	20.297	2.185	0.122
44.000	109.279	79.999	19.991	103.158	20.292	2.530	0.136
46.000	109.628	80.002	19.997	103.164	20.289	2.756	0.188
47.999	109.939	79.999	19.995	103.162	20.293	2.510	0.158
49.999	110.266	79.999	19.989	103.170	20.291	2.625	0.202
52.000	110.651	79.993	19.996	103.171	20.290	2.690	0.204
53.999	111.029	79.996	19.998	103.184	20.292	2.514	0.181
55.999	111.479	80.000	19.993	103.164	20.290	2.692	0.208
57.999	111.915	79.994	19.992	103.157	20.291	2.646	0.214
59.999	112.354	79.998	19.992	103.179	20.287	2.876	0.209
61.999	112.866	79.995	19.998	103.190	20.287	2.876	0.250
63.999	113.331	79.997	19.994	103.192	20.284	3.057	0.257
65.999	113.836	79.994	19.996	103.193	20.284	3.078	0.229
67.999	114.421	79.998	19.991	103.199	20.283	3.136	0.298
70.000	114.952	79.997	19.995	103.198	20.287	2.910	0.287
71.999	115.526	80.001	19.992	103.205	20.286	2.965	0.293
74.000	116.080	80.001	19.993	103.212	20.284	3.116	0.271
75.999	116.651	79.998	19.994	103.205	20.286	2.939	0.301
77.999	117.301	79.999	19.994	103.199	20.283	3.123	0.307
80.000	117.942	79.997	19.995	103.198	20.284	3.105	0.310
82.000	118.581	79.998	19.994	103.205	20.284	3.078	0.322
83.999	119.231	79.999	19.993	103.202	20.284	3.084	0.324
86.000	119.923	79.999	19.995	103.204	20.281	3.272	0.349
88.000	120.638	79.996	19.993	103.201	20.286	2.957	0.340
89.999	121.317	79.996	19.995	103.218	20.282	3.199	0.368
91.999	122.030	79.999	19.994	103.203	20.285	3.049	0.359
93.999	122.786	79.999	19.995	103.198	20.286	2.986	0.373
95.999	123.485	79.998	19.995	103.200	20.281	3.283	0.314
97.999	124.229	79.997	19.995	103.216	20.282	3.213	0.399
100.000	124.992	80.000	19.989	103.213	20.281	3.268	0.369
101.999	125.774	80.000	19.990	103.201	20.282	3.225	0.397
103.999	126.517	79.995	19.996	103.211	20.283	3.138	0.380
105.999	127.303	80.001	19.987	103.203	20.282	3.223	0.392
107.999	128.083	80.004	19.993	103.213	20.282	3.235	0.410
109.999	128.873	80.000	19.995	103.206	20.280	3.355	0.393
111.999	129.709	80.000	19.993	103.199	20.282	3.253	0.388
114.000	130.528	79.998	19.995	103.196	20.282	3.254	0.406
115.999	131.334	79.997	19.995	103.197	20.282	3.244	0.417
117.999	132.118	80.000	19.993	103.200	20.280	3.346	0.413
119.999	132.920	80.000	19.995	103.197	20.284	3.115	0.434
121.999	133.714	80.002	19.994	103.197	20.283	3.165	0.400
123.999	134.603	79.997	19.991	103.212	20.278	3.486	0.418
125.999	135.436	79.998	19.993	103.224	20.279	3.425	0.399
128.000	136.282	79.998	19.993	103.203	20.278	3.479	0.455
130.000	137.129	80.003	19.995	103.219	20.280	3.343	0.418
132.000	138.007	79.994	19.996	103.227	20.279	3.456	0.453
134.000	138.845	79.999	19.995	103.237	20.282	3.211	0.440
136.000	139.729	79.998	19.991	103.225	20.279	3.438	0.445
138.000	140.627	79.994	19.996	103.228	20.279	3.408	0.456
140.001	141.537	79.997	19.993	103.222	20.276	3.653	0.465
142.000	142.429	79.996	19.999	103.209	20.279	3.429	0.438
144.000	143.345	79.997	19.997	103.217	20.276	3.635	0.444
146.000	144.265	79.998	19.997	103.236	20.278	3.500	0.448
148.000	145.191	79.998	19.996	103.235	20.280	3.356	0.468
150.000	146.108	79.992	19.997	103.216	20.280	3.352	0.459
152.000	147.048	79.997	19.998	103.224	20.277	3.546	0.463
154.000	147.981	79.998	19.992	103.226	20.277	3.592	0.449
156.000	148.921	80.002	19.990	103.236	20.282	3.251	0.468
158.000	149.898	79.993	19.997	103.227	20.276	3.650	0.476
160.000	150.840	80.001	19.996	103.205	20.280	3.382	0.481
162.000	151.771	79.999	19.994	103.223	20.278	3.512	0.483
164.000	152.761	80.001	19.992	103.233	20.277	3.543	0.507
165.999	153.713	80.000	19.994	103.229	20.274	3.735	0.450
167.999	154.630	79.999	19.993	103.239	20.273	3.832	0.477
169.999	155.626	80.000	19.994	103.237	20.277	3.546	0.500
171.999	156.582	79.993	19.999	103.223	20.274	3.767	0.481
174.000	157.573	79.999	19.995	103.208	20.275	3.722	0.507
175.999	158.522	79.998	19.995	103.211	20.273	3.860	0.471
177.999	159.469	80.000	19.995	103.211	20.274	3.795	0.474
179.999	160.451	79.999	19.994	103.197	20.273	3.853	0.466
181.999	161.386	80.003	19.993	103.196	20.273	3.847	0.482
183.999	162.429	80.000	19.998	103.193	20.270	4.053	0.508
185.999	163.304	80.002	19.994	103.186	20.269	4.102	0.449
187.999	164.303	80.005	19.990	103.199	20.268	4.170	0.490
189.999	165.295	80.006	19.993	103.199	20.268	4.200	0.509
192.000	166.333	79.999	19.992	103.197	20.269	4.120	0.524
194.000	167.291	80.001	19.989	103.190	20.263	4.486	0.510
196.000	168.258	79.999	19.991	103.198	20.265	4.389	0.456
198.000	169.265	79.998	19.994	103.202	20.260	4.703	0.521
199.999	170.286	79.998	19.994	103.195	20.259	4.810	0.513
201.999	171.234	79.998	19.993	103.189	20.260	4.688	0.507
203.999	172.219	79.998	19.994	103.191	20.262	4.594	0.496
205.999	173.189	79.998	19.997	103.195	20.260	4.705	0.497
208.000	174.147	80.001	19.995	103.200	20.261	4.677	0.461
209.999	175.185	80.002	19.991	103.194	20.259	4.772	0.489
212.000	176.189	79.997	19.993	103.180	20.258	4.879	0.509
213.999	177.143	79.993	19.992	103.199	20.255	5.056	0.495
215.999	178.176	79.997	19.994	103.196	20.255	5.052	0.491
217.999	179.163	79.997	19.996	103.192	20.255	5.076	0.503
219.999	180.122	79.993	19.993	103.192	20.258	4.868	0.479
221.999	181.140	79.991	19.996	103.194	20.252	5.269	0.484
224.000	182.170	79.996	19.995	103.188	20.256	4.968	0.503
225.999	183.174	79.995	19.993	103.193	20.254	5.095	0.491
228.000	184.120	79.996	19.998	103.195	20.258	4.836	0.465
229.999	185.137	79.998	19.994	103.198	20.251	5.345	0.513
231.999	186.169	79.999	19.993	103.197	20.254	5.145	0.514
233.999	187.195	79.998	19.995	103.186	20.252	5.285	0.536
235.999	188.145	79.998	19.996	103.195	20.247	5.560	0.508
237.999	189.198	80.001	19.995	103.179	20.249	5.465	0.523
239.999	190.139	79.999	19.996	103.180	20.248	5.555	0.490
241.999	191.134	79.998	20.001	103.176	20.248	5.540	0.492
243.999	192.120	79.998	19.997	103.167	20.245	5.741	0.469
245.999	193.147	79.999	19.991	103.172	20.243	5.886	0.515
247.999	194.084	80.001	19.996	103.178	20.244	5.771	0.476
249.999	195.119	80.002	19.990	103.183	20.243	5.831	0.519
251.999	196.076	79.996	19.992	103.186	20.241	5.994	0.501
253.999	197.017	80.002	19.995	103.178	20.243	5.857	0.468
256.000	198.047	79.998	19.996	103.167	20.241	6.023	0.482
258.000	199.004	79.996	19.997	103.166	20.241	5.982	0.484
260.000	199.968	80.001	19.994	103.183	20.242	5.917	0.477
262.000	200.988	80.000	19.992	103.179	20.244	5.797	0.476
264.000	201.948	79.993	20.005	103.184	20.238	6.230	0.483
266.000	203.000	79.997	20.000	103.170	20.238	6.181	0.517
268.000	203.915	79.998	19.997	103.158	20.238	6.181	0.486
270.000	204.894	79.998	19.993	103.161	20.234	6.467	0.492
272.000	205.904	80.005	19.992	103.162	20.234	6.438	0.491
274.000	206.934	80.002	19.993	103.173	20.232	6.581	0.523
276.000	207.900	79.996	19.998	103.175	20.232	6.589	0.494
278.000	208.854	79.998	19.994	103.165	20.231	6.688	0.473
280.000	209.878	79.995	19.999	103.162	20.229	6.818	0.494
282.000	210.872	79.998	19.992	103.169	20.229	6.781	0.479
284.000	211.831	80.002	19.992	103.173	20.226	7.009	0.492
286.000	212.826	79.997	19.995	103.164	20.221	7.325	0.469
288.000	213.826	79.998	19.993	103.168	20.224	7.167	0.482
290.000	214.842	79.999	19.993	103.167	20.219	7.478	0.513
292.000	215.820	79.997	19.996	103.174	20.217	7.594	0.500
294.000	216.765	79.994	19.996	103.170	20.215	7.786	0.469
296.000	217.789	80.000	19.994	103.161	20.213	7.892	0.532
298.000	218.786	80.001	19.994	103.173	20.211	7.994	0.502
300.000	219.753	79.999	19.995	103.163	20.209	8.191	0.488
302.000	220.767	79.999	19.994	103.169	20.207	8.302	0.509
304.000	221.740	80.000	19.993	103.160	20.207	8.309	0.494
306.000	222.734	79.999	19.996	103.160	20.206	8.378	0.462
308.000	223.774	79.998	19.996	103.157	20.204	8.482	0.504
310.000	224.803	80.000	19.988	103.156	20.204	8.467	0.533
312.000	225.747	79.995	19.996	103.159	20.203	8.530	0.461
314.000	226.804	79.998	19.994	103.157	20.205	8.449	0.498
316.000	227.783	79.998	19.995	103.157	20.204	8.471	0.478
318.000	228.830	79.998	19.995	103.156	20.203	8.585	0.537
320.000	229.901	79.997	19.995	103.156	20.202	8.636	0.547
322.000	230.871	79.999	19.995	103.154	20.204	8.502	0.489
324.000	231.872	80.000	19.995	103.156	20.208	8.205	0.489
326.000	232.879	79.998	19.995	103.157	20.206	8.372	0.502
328.000	233.917	80.000	19.997	103.156	20.206	8.385	0.509
330.000	234.912	80.003	19.997	103.128	20.204	8.510	0.512
332.000	235.904	80.000	19.996	103.143	20.208	8.207	0.465
334.000	236.939	79.997	20.001	103.151	20.208	8.252	0.513
336.000	237.986	79.999	19.993	103.154	20.206	8.358	0.521
338.000	238.999	80.000	19.994	103.156	20.208	8.236	0.506
340.000	239.975	80.000	19.995	103.159	20.211	8.015	0.502
342.000	240.961	79.999	19.988	103.154	20.209	8.151	0.492
344.000	241.919	80.001	19.994	103.146	20.209	8.142	0.472
346.000	242.988	80.000	19.990	103.132	20.212	7.946	0.495
348.000	243.964	79.999	19.999	103.148	20.210	8.069	0.520
350.000	244.998	80.002	19.991	103.141	20.211	8.015	0.502
352.000	245.990	80.001	19.994	103.140	20.212	7.984	0.513
354.000	246.974	79.998	20.002	103.154	20.212	7.947	0.487
356.000	247.989	79.997	19.999	103.137	20.210	8.087	0.514
358.000	248.996	79.998	19.993	103.143	20.213	7.916	0.523
360.000	249.980	80.000	19.995	103.136	20.214	7.796	0.451
362.000	250.990	79.998	19.993	103.150	20.209	8.155	0.474
364.000	251.978	79.998	19.995	103.144	20.215	7.778	0.472
366.000	252.988	79.997	19.992	103.143	20.212	7.925	0.486
368.000	253.982	79.997	19.995	103.140	20.210	8.101	0.469
370.000	255.003	79.998	19.994	103.127	20.209	8.135	0.527
372.000	255.995	79.996	20.000	103.136	20.207	8.280	0.514
374.000	256.986	80.000	19.992	103.128	20.206	8.384	0.503
376.000	257.976	79.998	19.991	103.129	20.205	8.424	0.520
378.000	258.997	80.001	19.994	103.124	20.205	8.440	0.540
380.000	259.965	79.998	19.993	103.140	20.204	8.502	0.469
382.000	260.926	79.999	19.996	103.121	20.205	8.446	0.470
384.000	261.920	80.003	19.987	103.140	20.205	8.404	0.489
386.000	262.898	80.001	19.990	103.130	20.199	8.858	0.451
388.000	263.873	80.001	19.994	103.127	20.201	8.718	0.492
390.000	264.859	79.997	19.995	103.139	20.200	8.741	0.503
392.000	265.861	79.997	19.998	103.125	20.199	8.838	0.506
394.000	266.845	79.995	19.994	103.132	20.201	8.684	0.492
396.000	267.848	80.001	19.994	103.139	20.200	8.789	0.462
398.000	268.851	79.997	19.996	103.148	20.194	9.166	0.531
400.000	269.840	79.997	19.994	103.142	20.202	8.660	0.501
402.000	270.875	80.002	19.995	103.132	20.198	8.928	0.524
404.000	271.897	79.999	19.996	103.123	20.199	8.859	0.505
406.000	272.833	79.998	19.999	103.149	20.199	8.837	0.498
408.000	273.867	80.001	19.995	103.140	20.198	8.883	0.512
410.000	274.825	80.000	19.994	103.128	20.200	8.736	0.483
412.000	275.820	79.998	19.994	103.142	20.202	8.599	0.482
414.000	276.850	80.000	19.994	103.138	20.206	8.387	0.523
416.000	277.836	79.998	19.995	103.144	20.208	8.258	0.516
418.000	278.842	79.998	19.998	103.145	20.208	8.225	0.495
420.000	279.792	79.999	19.996	103.131	20.208	8.253	0.480
422.000	280.800	80.000	19.992	103.134	20.207	8.315	0.487
424.000	281.830	80.001	19.991	103.124	20.210	8.064	0.525
426.000	282.808	80.000	19.994	103.125	20.213	7.899	0.527
428.000	283.852	80.003	19.991	103.147	20.214	7.822	0.542
430.000	284.838	80.001	19.991	103.142	20.215	7.732	0.496
432.000	285.839	79.995	20.002	103.145	20.223	7.213	0.503
434.000	286.838	80.002	19.990	103.124	20.221	7.368	0.503
436.000	287.790	79.998	19.993	103.131	20.220	7.429	0.482
438.000	288.829	79.996	19.997	103.139	20.222	7.261	0.524
440.000	289.821	80.002	19.992	103.142	20.222	7.292	0.493
442.000	290.834	79.998	19.994	103.133	20.221	7.331	0.509
444.000	291.849	79.997	19.994	103.130	20.229	6.798	0.533
446.000	292.885	79.999	19.999	103.125	20.229	6.833	0.522
448.000	293.862	80.000	19.991	103.134	20.231	6.675	0.490
450.000	294.869	79.998	19.993	103.130	20.229	6.827	0.511
452.000	295.914	80.001	19.990	103.132	20.233	6.540	0.512
454.000	296.892	80.000	19.995	103.127	20.231	6.652	0.484
456.000	297.892	79.996	19.996	103.122	20.235	6.376	0.490
458.000	298.952	80.000	19.992	103.126	20.235	6.430	0.531
460.000	299.936	80.000	19.994	103.150	20.235	6.386	0.500
462.000	300.928	79.997	19.996	103.131	20.236	6.344	0.493
464.000	301.983	79.999	19.993	103.123	20.234	6.458	0.508
466.000	302.961	80.001	19.991	103.135	20.238	6.205	0.485
468.000	304.006	80.002	19.991	103.134	20.236	6.359	0.499
470.000	305.008	79.999	19.993	103.131	20.237	6.255	0.503
472.000	306.026	79.993	19.997	103.124	20.234	6.459	0.500
474.000	307.048	79.997	19.994	103.133	20.234	6.443	0.507
476.000	308.085	79.999	19.991	103.134	20.233	6.559	0.500
478.000	309.035	80.000	19.995	103.123	20.236	6.362	0.483
480.000	310.087	80.000	19.994	103.125	20.234	6.464	0.495
482.000	311.079	79.998	19.993	103.125	20.233	6.512	0.496
484.000	312.121	80.003	19.993	103.129	20.234	6.470	0.501
486.000	313.125	80.002	19.988	103.133	20.235	6.394	0.520
488.000	314.142	79.997	19.992	103.123	20.231	6.644	0.512
490.000	315.081	79.997	19.996	103.123	20.232	6.594	0.484
492.000	316.120	80.001	19.996	103.122	20.230	6.746	0.508
494.000	317.086	80.005	19.993	103.123	20.228	6.865	0.488
496.000	318.125	79.999	19.994	103.122	20.230	6.720	0.487
498.000	319.098	80.000	19.993	103.123	20.229	6.793	0.480
500.000	320.119	79.999	19.988	103.119	20.225	7.087	0.489
502.000	321.057	79.998	20.001	103.121	20.224	7.121	0.496
504.000	322.080	80.004	19.993	103.117	20.220	7.392	0.512
506.000	323.058	80.002	19.997	103.121	20.221	7.369	0.466
508.000	324.018	80.003	19.991	103.120	20.217	7.607	0.466
510.000	325.025	80.000	19.996	103.123	20.214	7.790	0.498
512.000	326.037	80.005	19.996	103.119	20.214	7.796	0.502
514.000	326.980	80.002	19.995	103.121	20.212	7.964	0.480
516.000	327.970	79.996	20.001	103.115	20.209	8.179	0.484
518.000	328.955	80.000	19.993	103.112	20.207	8.280	0.470
520.000	329.926	79.996	19.995	103.116	20.209	8.176	0.504
522.000	330.889	79.997	19.995	103.117	20.205	8.418	0.484
524.000	331.867	79.995	19.997	103.122	20.203	8.558	0.507
526.000	332.872	79.997	19.993	103.126	20.204	8.487	0.479
528.000	333.847	79.999	19.994	103.125	20.200	8.794	0.497
530.000	334.897	79.996	19.995	103.132	20.198	8.928	0.517
532.000	335.856	80.000	19.996	103.137	20.196	9.041	0.462
534.000	336.862	80.001	19.995	103.142	20.195	9.090	0.522
536.000	337.872	80.001	19.992	103.122	20.190	9.458	0.508
538.000	338.889	79.991	19.992	103.132	20.186	9.720	0.532
540.000	339.854	79.999	19.995	103.133	20.184	9.844	0.498
542.000	340.864	79.995	19.994	103.124	20.182	9.991	0.514
544.000	341.860	79.998	19.993	103.123	20.177	10.345	0.470
546.000	342.893	79.999	19.995	103.129	20.177	10.313	0.514
548.000	343.847	79.996	19.994	103.122	20.168	10.914	0.501
550.000	344.813	79.998	19.994	103.126	20.165	11.103	0.517
552.000	345.839	79.998	19.994	103.133	20.164	11.230	0.541
554.000	346.887	80.003	19.989	103.140	20.160	11.438	0.541
556.000	347.842	79.997	19.992	103.132	20.153	11.935	0.500
558.000	348.874	79.997	19.994	103.187	20.150	12.151	0.497
560.000	349.856	80.004	19.992	103.119	20.144	12.526	0.528
562.000	350.861	79.999	19.994	103.115	20.138	12.932	0.478
564.000	351.946	79.999	19.994	103.127	20.131	13.404	0.510
566.000	352.995	79.999	19.994	103.151	20.126	13.777	0.497
568.000	354.054	80.000	19.993	103.143	20.120	14.143	0.516
570.000	355.096	79.998	19.993	103.132	20.118	14.290	0.527
572.000	356.130	79.999	19.994	103.140	20.111	14.762	0.522
574.000	357.167	79.998	19.994	103.135	20.105	15.181	0.519
576.000	358.204	79.998	19.995	103.146	20.103	15.347	0.529
578.000	359.254	79.997	19.996	103.155	20.096	15.820	0.511
580.000	360.283	80.000	19.993	103.153	20.088	16.318	0.538
582.000	361.382	79.999	19.993	103.137	20.078	17.022	0.548
584.000	362.401	80.001	19.994	103.150	20.072	17.427	0.521
586.000	363.440	79.999	19.994	103.149	20.066	17.818	0.517
588.000	364.536	80.001	19.993	103.157	20.055	18.587	0.546
590.000	365.597	80.000	19.994	103.157	20.048	19.010	0.535
592.000	366.619	80.004	19.991	103.143	20.039	19.645	0.516
594.000	367.715	80.000	19.993	103.140	20.031	20.187	0.547
596.000	368.700	79.999	19.994	103.144	20.019	21.018	0.524
598.000	369.753	80.001	19.998	103.156	20.010	21.595	0.541
600.000	370.827	80.000	19.995	103.153	20.001	22.195	0.539
602.000	371.844	80.001	19.994	103.150	19.990	22.978	0.534
604.000	372.916	79.998	19.997	103.153	19.981	23.552	0.509
606.000	373.967	79.997	19.995	103.158	19.969	24.384	0.506
608.000	375.010	79.998	19.993	103.159	19.957	25.195	0.517
610.000	376.029	79.998	19.995	103.164	19.945	26.038	0.511
612.000	377.049	79.997	19.997	103.154	19.929	27.081	0.505
614.000	378.106	79.996	19.995	103.153	19.916	28.004	0.491
616.000	379.058	79.996	19.995	103.160	19.905	28.704	0.485
618.000	380.129	79.999	19.993	103.173	19.882	30.271	0.537
620.000	381.155	80.001	19.989	103.157	19.876	30.694	0.506
622.000	382.097	80.001	19.993	103.157	19.858	31.930	0.524
624.000	383.226	79.998	19.993	103.164	19.840	33.078	0.544
626.000	384.216	79.995	19.995	103.171	19.822	34.299	0.602
628.000	385.196	80.003	19.991	103.163	19.801	35.761	0.532
630.000	385.894	79.998	19.994	103.168	19.782	37.046	0.302
632.000	386.976	79.999	19.995	103.188	19.761	38.489	0.372
634.000	388.158	79.998	19.995	103.166	19.740	39.903	0.614
636.000	389.208	79.999	19.994	103.170	19.719	41.286	0.572
638.000	390.263	79.999	19.991	103.189	19.692	43.122	0.475
640.000	391.173	79.999	19.995	103.196	19.667	44.808	0.529
642.000	392.175	79.999	19.994	103.200	19.643	46.442	0.486
644.000	393.200	79.999	19.994	103.196	19.616	48.268	0.539
646.000	394.317	80.001	19.993	103.204	19.591	50.014	0.494
648.000	395.335	80.002	19.992	103.210	19.562	51.938	0.551
650.000	396.387	80.000	19.995	103.207	19.533	53.901	0.511
652.000	397.435	80.001	19.994	103.224	19.503	55.957	0.538
654.000	398.485	80.000	19.995	103.224	19.470	58.179	0.524
656.000	399.521	80.000	19.994	103.231	19.436	60.492	0.508
658.000	400.629	79.999	19.993	103.236	19.402	62.782	0.552
660.000	401.734	79.999	19.996	103.237	19.366	65.195	0.542
662.000	402.777	79.998	19.994	103.238	19.328	67.770	0.531
664.000	403.873	80.002	19.997	103.237	19.289	70.408	0.520
666.000	404.978	80.002	19.992	103.235	19.250	73.098	0.540
668.000	406.033	79.999	19.995	103.242	19.214	75.502	0.521
670.000	407.123	80.000	19.995	103.240	19.172	78.339	0.551
672.000	408.238	80.000	19.996	103.256	19.134	80.935	0.545
674.000	409.304	80.000	19.995	103.247	19.090	83.874	0.539
676.000	410.401	79.998	19.995	103.243	19.052	86.467	0.537
678.000	411.521	79.999	19.995	103.255	19.014	89.037	0.562
680.000	412.578	80.000	19.995	103.252	18.977	91.532	0.531
682.000	413.632	80.000	19.995	103.248	18.941	93.999	0.536
684.000	414.707	80.005	19.992	103.261	18.910	96.116	0.505
686.000	415.782	80.004	19.992	103.260	18.879	98.190	0.552
688.000	416.861	79.998	19.994	103.272	18.853	99.968	0.548
690.000	417.928	79.998	19.997	103.269	18.831	101.464	0.550
692.000	418.992	79.993	19.995	103.266	18.808	102.958	0.546
694.000	420.059	79.994	19.997	103.260	18.797	103.704	0.536
696.000	421.094	79.998	19.994	103.263	18.780	104.898	0.540
698.000	422.169	80.002	19.991	103.255	18.774	105.269	0.498
700.000	423.235	80.000	19.992	103.268	18.776	105.125	0.521
702.000	424.249	79.999	20.000	103.269	18.782	104.705	0.515
704.000	425.318	79.998	19.998	103.248	18.796	103.751	0.552
706.000	426.394	79.993	19.999	103.249	18.815	102.518	0.526
708.000	427.450	80.002	19.997	103.252	18.834	101.205	0.536
710.000	428.463	79.997	19.996	103.237	18.866	99.032	0.520
712.000	429.483	80.001	19.992	103.238	18.896	97.019	0.521
714.000	430.542	79.999	19.994	103.235	18.932	94.521	0.530
716.000	431.552	79.997	19.997	103.233	18.973	91.774	0.528
718.000	432.610	80.003	19.994	103.231	19.022	88.454	0.499
720.000	433.697	79.999	19.994	103.231	19.072	85.065	0.555
722.000	434.723	79.998	19.992	103.223	19.128	81.311	0.512
724.000	435.735	80.004	19.993	103.204	19.186	77.333	0.528
726.000	436.741	80.001	19.994	103.199	19.243	73.461	0.523
728.000	437.741	79.999	19.995	103.199	19.304	69.342	0.493
730.000	438.727	79.996	20.001	103.193	19.370	64.866	0.507
732.000	439.737	80.000	19.996	103.191	19.437	60.390	0.478
734.000	440.756	80.000	19.996	103.185	19.497	56.267	0.466
736.000	441.770	80.001	19.992	103.164	19.561	51.957	0.511
738.000	442.757	79.997	19.992	103.160	19.623	47.771	0.486
740.000	443.770	79.999	19.993	103.160	19.687	43.467	0.469
742.000	444.755	80.001	19.993	103.158	19.744	39.601	0.495
744.000	445.781	80.001	19.990	103.146	19.800	35.813	0.523
746.001	446.765	80.004	19.989	103.140	19.854	32.183	0.502
748.000	447.724	80.002	19.993	103.135	19.901	28.977	0.503
750.000	448.732	80.000	19.991	103.122	19.950	25.632	0.486
752.000	449.711	80.005	19.992	103.124	19.990	22.957	0.482
754.000	450.670	80.004	19.996	103.122	20.028	20.378	0.480
756.000	451.655	80.008	19.992	103.117	20.057	18.444	0.462
758.000	452.648	80.000	19.994	103.125	20.086	16.486	0.507
760.000	453.644	79.999	19.995	103.115	20.110	14.870	0.504
762.000	454.591	80.001	19.995	103.107	20.135	13.170	0.508
764.000	455.619	80.000	19.994	103.111	20.152	12.004	0.496
766.000	456.560	80.000	19.996	103.096	20.168	10.918	0.468
768.000	457.523	79.997	19.997	103.087	20.184	9.835	0.525
770.000	458.524	80.000	19.994	103.108	20.193	9.221	0.499
772.000	459.478	80.000	19.995	103.106	20.201	8.693	0.482
774.000	460.473	79.999	19.995	103.087	20.211	8.033	0.489
776.000	461.426	79.999	19.995	103.092	20.219	7.481	0.474
778.000	462.436	80.000	19.995	103.088	20.225	7.068	0.507
780.000	463.433	79.998	19.994	103.082	20.228	6.852	0.483
782.000	464.389	79.999	19.996	103.087	20.233	6.518	0.478
784.000	465.341	79.999	19.995	103.093	20.239	6.134	0.496
786.000	466.299	79.997	19.994	103.092	20.240	6.055	0.501
788.000	467.319	79.997	19.995	103.091	20.242	5.939	0.494
790.000	468.297	79.997	19.996	103.084	20.244	5.792	0.508
792.000	469.290	79.996	19.996	103.096	20.248	5.537	0.515
794.000	470.297	79.998	19.997	103.091	20.246	5.666	0.513
796.000	471.280	79.999	19.992	103.092	20.252	5.247	0.496
798.000	472.287	79.996	19.997	103.105	20.252	5.265	0.521
800.000	473.272	79.996	19.996	103.081	20.253	5.164	0.500
802.000	474.263	79.998	19.994	103.082	20.252	5.230	0.487
804.000	475.253	79.998	19.994	103.091	20.253	5.182	0.492
806.000	476.261	80.000	19.995	103.087	20.254	5.097	0.500
808.000	477.258	79.999	19.993	103.087	20.255	5.065	0.534
810.000	478.261	79.999	19.993	103.084	20.255	5.039	0.497
812.000	479.275	79.999	19.993	103.088	20.259	4.767	0.489
814.000	480.286	80.002	19.993	103.086	20.255	5.028	0.502
816.000	481.221	79.999	19.993	103.084	20.255	5.070	0.464
818.000	482.310	79.999	19.993	103.080	20.254	5.106	0.518
820.000	483.280	80.001	19.994	103.079	20.254	5.084	0.464
822.000	484.357	79.998	19.993	103.085	20.255	5.049	0.537
824.000	485.349	79.999	19.995	103.091	20.254	5.097	0.496
826.000	486.396	80.000	19.994	103.082	20.258	4.817	0.521
828.000	487.391	80.000	19.993	103.080	20.255	5.012	0.511
830.000	488.389	80.000	19.993	103.098	20.253	5.156	0.492
832.000	489.409	80.002	19.994	103.083	20.249	5.434	0.484
834.000	490.425	80.000	19.993	103.091	20.251	5.325	0.511
836.000	491.465	80.001	19.994	103.095	20.250	5.414	0.500
838.000	492.482	80.002	19.994	103.090	20.249	5.475	0.484
840.000	493.512	80.001	19.994	103.091	20.252	5.221	0.496
842.000	494.568	80.002	19.994	103.085	20.249	5.435	0.557
844.000	495.561	80.000	19.994	103.082	20.252	5.238	0.501
846.000	496.553	79.999	19.994	103.087	20.254	5.119	0.534
848.000	497.598	79.999	19.995	103.085	20.249	5.446	0.530
850.000	498.614	79.999	19.995	103.082	20.253	5.167	0.530
852.000	499.666	79.999	19.994	103.098	20.251	5.305	0.519
854.000	500.708	79.999	19.995	103.092	20.252	5.235	0.543
856.000	501.746	79.999	19.995	103.084	20.250	5.405	0.533
858.000	502.774	79.997	19.994	103.097	20.247	5.600	0.486
860.000	503.786	79.998	19.995	103.092	20.250	5.385	0.536
862.000	504.797	79.998	19.993	103.092	20.250	5.405	0.519
864.000	505.819	79.998	19.994	103.098	20.250	5.412	0.504
866.000	506.826	79.999	19.993	103.103	20.251	5.286	0.505
868.000	507.833	79.999	19.994	103.088	20.248	5.533	0.515
870.000	508.843	79.998	19.995	103.092	20.252	5.278	0.522
872.000	509.860	79.998	19.994	103.090	20.250	5.393	0.513
874.000	510.859	79.996	19.993	103.085	20.252	5.228	0.491
876.000	511.879	79.996	19.995	103.083	20.252	5.260	0.521
878.000	512.895	79.998	19.995	103.069	20.253	5.191	0.531
880.000	513.950	79.998	19.995	103.076	20.253	5.161	0.548
882.000	514.985	79.997	19.995	103.114	20.254	5.111	0.563
884.000	515.984	79.997	19.996	103.081	20.256	5.002	0.514
886.000	517.047	79.998	19.995	103.078	20.255	5.043	0.555
888.000	518.089	79.999	19.995	103.080	20.256	4.974	0.525
890.000	519.110	79.998	19.995	103.079	20.257	4.895	0.537
892.000	520.109	80.000	19.995	103.076	20.258	4.811	0.517
894.000	521.202	80.001	19.993	103.075	20.258	4.826	0.523
896.000	522.234	80.001	19.994	103.082	20.261	4.642	0.541
898.000	523.261	80.000	19.994	103.080	20.262	4.556	0.536
900.000	524.260	80.000	19.994	103.080	20.263	4.475	0.508
902.000	525.300	79.999	19.995	103.082	20.263	4.516	0.524
904.000	526.294	80.000	19.994	103.077	20.267	4.229	0.482
906.000	527.374	80.000	19.995	103.078	20.275	3.687	0.517
908.000	528.371	79.998	19.994	103.080	20.263	4.507	0.500
910.000	529.450	79.999	19.993	103.068	20.265	4.382	0.510
912.000	530.474	80.000	19.995	103.078	20.267	4.256	0.521
914.000	531.522	80.000	19.994	103.080	20.268	4.184	0.513
916.000	532.558	80.000	19.994	103.081	20.271	3.995	0.502
918.000	533.580	80.001	19.994	103.081	20.272	3.893	0.511
920.000	534.558	80.001	19.993	103.080	20.270	4.023	0.486
922.000	535.650	80.001	19.994	103.080	20.270	4.012	0.541
924.000	536.667	80.000	19.993	103.074	20.268	4.186	0.487
926.000	537.747	79.998	19.993	103.075	20.274	3.784	0.500
928.000	538.775	79.998	19.994	103.082	20.271	3.962	0.491
930.000	539.816	79.998	19.994	103.079	20.271	3.952	0.518
932.000	540.840	79.997	19.993	103.082	20.272	3.906	0.518
934.000	541.837	79.997	19.995	103.083	20.273	3.852	0.508
936.000	542.883	80.000	19.993	103.085	20.271	3.961	0.510
938.000	543.918	79.998	19.994	103.083	20.272	3.929	0.521
940.000	544.972	79.998	19.994	103.083	20.273	3.808	0.535
942.000	545.941	79.999	19.994	103.080	20.275	3.680	0.513
944.000	546.955	79.998	19.996	103.080	20.273	3.844	0.483
946.000	548.021	79.997	19.996	103.067	20.274	3.739	0.520
948.000	549.035	79.999	19.995	103.055	20.273	3.807	0.504
950.000	550.077	79.998	19.995	103.116	20.277	3.550	0.518
952.000	551.106	79.999	19.995	103.085	20.277	3.542	0.538
954.000	552.131	80.000	19.994	103.075	20.275	3.698	0.505
956.000	553.150	79.998	19.995	103.077	20.277	3.555	0.525
958.000	554.202	79.999	19.995	103.080	20.275	3.659	0.536
960.000	555.223	79.997	19.994	103.077	20.275	3.722	0.536
962.000	556.254	79.999	19.994	103.079	20.275	3.672	0.525
964.000	557.268	80.000	19.994	103.084	20.274	3.778	0.512
966.000	558.293	79.998	19.995	103.076	20.275	3.702	0.505
968.000	559.351	79.999	19.995	103.080	20.278	3.479	0.520
970.000	560.371	80.000	19.994	103.078	20.277	3.529	0.490
972.000	561.401	80.000	19.994	103.078	20.278	3.511	0.491
974.000	562.433	80.001	19.995	103.078	20.281	3.301	0.533
976.000	563.443	80.000	19.996	103.077	20.277	3.567	0.505
978.000	564.474	80.000	19.994	103.078	20.275	3.672	0.497
980.000	565.479	79.999	19.995	103.070	20.278	3.463	0.499
982.000	566.524	79.999	19.995	103.080	20.275	3.713	0.514
984.000	567.559	80.000	19.996	103.077	20.277	3.591	0.519
986.000	568.568	79.998	19.994	103.086	20.277	3.542	0.511
988.000	569.629	80.000	19.995	103.084	20.278	3.513	0.559
990.000	570.681	79.999	19.994	103.084	20.277	3.576	0.540
992.000	571.672	79.999	19.995	103.080	20.276	3.610	0.505
994.000	572.702	80.001	19.994	103.082	20.277	3.540	0.521
996.000	573.737	80.001	19.994	103.083	20.278	3.500	0.515
998.000	574.815	80.002	19.992	103.078	20.279	3.424	0.535
1000.000	575.877	79.999	19.993	103.083	20.275	3.667	0.528
1002.000	576.898	79.998	19.994	103.098	20.277	3.591	0.536
1004.000	577.902	80.000	19.994	103.083	20.278	3.518	0.507
1006.000	578.930	80.000	19.994	103.079	20.278	3.524	0.537
1008.000	579.956	80.000	19.995	103.082	20.277	3.557	0.528
1010.000	581.008	79.999	19.994	103.083	20.277	3.591	0.520
1012.000	582.052	79.999	19.994	103.079	20.274	3.743	0.504
1014.000	583.031	79.998	19.995	103.079	20.273	3.849	0.528
1016.000	584.060	79.998	19.994	103.088	20.272	3.874	0.511
1018.000	585.094	79.999	19.993	103.085	20.272	3.895	0.537
1020.000	586.089	79.998	19.995	103.081	20.275	3.689	0.479
1022.000	587.139	80.000	19.994	103.105	20.273	3.813	0.526
1024.000	588.174	79.998	19.995	103.099	20.277	3.552	0.521
1025.999	589.171	79.999	19.994	103.091	20.278	3.457	0.522
1027.999	590.175	80.002	19.995	103.078	20.277	3.574	0.524
1029.999	591.234	79.998	19.995	103.078	20.274	3.789	0.523
1031.999	592.212	79.999	19.994	103.077	20.276	3.596	0.504
1033.999	593.295	79.999	19.996	103.080	20.275	3.672	0.535
1035.999	594.304	79.998	19.995	103.077	20.271	3.945	0.503
1037.999	595.367	79.998	19.995	103.077	20.271	3.984	0.525
1039.999	596.419	79.999	19.996	103.076	20.271	3.941	0.545
1041.999	597.408	79.996	19.995	103.081	20.269	4.104	0.498
1043.999	598.472	79.996	19.996	103.075	20.270	4.036	0.521
1045.999	599.460	79.997	19.995	103.082	20.272	3.895	0.525
1048.001	600.491	79.998	19.994	103.081	20.273	3.830	0.525
1049.999	601.495	79.999	19.995	103.082	20.269	4.071	0.496
1051.999	602.523	80.000	19.995	103.080	20.269	4.125	0.514
1054.000	603.532	79.998	19.996	103.065	20.270	4.001	0.481
1055.999	604.537	79.999	19.995	103.085	20.270	4.034	0.518
1057.999	605.547	80.001	19.994	103.081	20.270	4.003	0.487
1059.999	606.617	80.000	19.995	103.093	20.273	3.808	0.528
1061.999	607.606	79.997	19.995	103.085	20.269	4.112	0.531
1063.999	608.594	79.998	19.996	103.082	20.270	4.030	0.493
1065.999	609.666	79.998	19.996	103.083	20.271	3.939	0.497
1067.999	610.615	79.998	19.996	103.095	20.273	3.848	0.491
1069.999	611.645	79.998	19.996	103.090	20.270	4.030	0.510
1072.000	612.697	79.998	19.994	103.098	20.269	4.073	0.539
1073.999	613.689	80.000	19.995	103.086	20.271	3.987	0.495
1075.999	614.687	80.000	19.995	103.078	20.270	4.006	0.483
1077.999	615.730	80.001	19.995	103.078	20.271	3.991	0.475
1079.999	616.747	80.001	19.994	103.080	20.269	4.099	0.513
1082.000	617.771	80.001	19.994	103.078	20.267	4.224	0.526
1084.000	618.750	80.001	19.995	103.080	20.266	4.301	0.499
1085.999	619.773	80.000	19.994	103.076	20.266	4.299	0.499
1087.999	620.804	80.000	19.994	103.077	20.266	4.293	0.501
1090.000	621.834	80.001	19.994	103.083	20.270	4.034	0.520
1092.000	622.818	79.999	19.993	103.092	20.269	4.075	0.486
1094.000	623.864	79.999	19.993	103.086	20.268	4.152	0.495
1095.999	624.889	79.999	19.995	103.074	20.265	4.363	0.495
1097.999	625.878	79.997	19.995	103.077	20.267	4.238	0.497
1099.999	626.893	79.999	19.994	103.077	20.264	4.420	0.504
1101.999	627.939	79.999	19.994	103.080	20.262	4.580	0.513
1104.001	628.981	79.997	19.995	103.075	20.262	4.552	0.530
1105.999	629.985	79.999	19.994	103.084	20.261	4.612	0.507
1108.000	631.006	79.998	19.995	103.096	20.264	4.446	0.530
1110.000	632.037	79.998	19.994	103.095	20.264	4.412	0.521
1111.999	633.038	79.999	19.995	103.096	20.261	4.649	0.530
1113.999	634.053	79.999	19.993	103.101	20.261	4.610	0.527
1115.999	635.098	79.998	19.993	103.109	20.263	4.512	0.530
1117.999	636.070	79.998	19.994	103.097	20.260	4.707	0.504
1119.999	637.091	79.997	19.994	103.107	20.262	4.577	0.519
1121.999	638.148	79.998	19.995	103.101	20.259	4.770	0.541
1123.999	639.105	79.998	19.994	103.106	20.265	4.386	0.489
1125.999	640.125	79.997	19.995	103.110	20.264	4.445	0.493
1127.999	641.170	79.997	19.995	103.117	20.261	4.671	0.501
1129.999	642.163	79.998	19.994	103.115	20.264	4.467	0.507
1132.000	643.165	79.998	19.995	103.118	20.261	4.608	0.502
1133.999	644.139	79.999	19.994	103.115	20.263	4.517	0.491
1135.999	645.164	79.998	19.994	103.110	20.264	4.415	0.480
1137.999	646.186	80.000	19.995	103.106	20.263	4.532	0.528
1139.999	647.176	80.000	19.995	103.112	20.264	4.427	0.467
1141.999	648.153	80.000	19.995	103.112	20.260	4.716	0.514
1143.999	649.189	80.000	19.995	103.112	20.256	4.993	0.528
1145.999	650.167	80.001	19.995	103.115	20.255	5.067	0.502
1147.999	651.188	79.999	19.994	103.114	20.257	4.909	0.477
1149.999	652.232	80.000	19.995	103.119	20.255	5.024	0.501
1151.999	653.233	80.000	19.995	103.115	20.255	5.044	0.474
1153.999	654.254	80.001	19.995	103.119	20.255	5.068	0.525
1155.999	655.224	79.999	19.995	103.119	20.256	4.969	0.480
1158.000	656.247	80.002	19.996	103.115	20.254	5.093	0.474
1159.999	657.250	80.000	19.995	103.115	20.252	5.229	0.496
1162.000	658.242	80.000	19.995	103.113	20.253	5.183	0.494
1164.000	659.254	80.000	19.995	103.112	20.253	5.155	0.486
1165.999	660.269	80.000	19.994	103.119	20.251	5.346	0.508
1167.999	661.267	80.002	19.995	103.119	20.253	5.168	0.487
1169.999	662.221	80.000	19.994	103.132	20.250	5.374	0.499
1171.999	663.238	79.997	19.995	103.136	20.252	5.230	0.491
1173.999	664.244	79.998	19.994	103.139	20.249	5.449	0.510
1175.999	665.231	79.998	19.994	103.139	20.248	5.516	0.499
1177.999	666.234	79.998	19.994	103.137	20.251	5.340	0.494
1179.999	667.291	79.999	19.994	103.138	20.249	5.479	0.535
1181.999	668.316	80.000	19.994	103.136	20.241	5.999	0.543
1184.000	669.309	79.999	19.994	103.154	20.246	5.672	0.494
1186.000	670.309	79.999	19.995	103.156	20.245	5.711	0.505
1187.999	671.320	79.999	19.993	103.158	20.244	5.795	0.526
1189.999	672.305	79.998	19.994	103.157	20.242	5.930	0.518
1191.999	673.372	79.999	19.995	103.161	20.241	5.978	0.512
1193.999	674.382	79.998	19.994	103.157	20.245	5.735	0.499
1195.999	675.398	79.998	19.995	103.156	20.239	6.116	0.506
1198.000	676.463	79.999	19.995	103.164	20.238	6.179	0.541
1200.000	677.484	79.997	19.994	103.164	20.239	6.156	0.522
1202.000	678.492	79.998	19.994	103.155	20.236	6.327	0.519
1203.999	679.474	79.998	19.994	103.157	20.233	6.551	0.534
1205.999	680.509	79.998	19.995	103.157	20.233	6.524	0.520
1207.999	681.511	79.998	19.994	103.156	20.236	6.311	0.503
1209.999	682.527	80.000	19.994	103.174	20.235	6.433	0.513
1212.000	683.515	79.999	19.993	103.183	20.235	6.370	0.503
1213.999	684.535	79.999	19.995	103.182	20.233	6.543	0.510
1216.001	685.560	79.999	19.994	103.171	20.230	6.708	0.540
1217.999	686.555	80.000	19.994	103.192	20.232	6.578	0.522
1219.999	687.571	80.001	19.994	103.192	20.230	6.717	0.548
1222.000	688.600	80.000	19.994	103.191	20.228	6.869	0.533
1223.999	689.605	80.000	19.995	103.192	20.228	6.848	0.494
1225.999	690.647	80.000	19.996	103.192	20.228	6.885	0.514
1227.999	691.633	79.999	19.995	103.193	20.224	7.128	0.497
1229.999	692.629	79.999	19.994	103.192	20.225	7.102	0.495
1231.999	693.661	79.998	19.994	103.199	20.225	7.088	0.509
1234.000	694.649	80.000	19.995	103.205	20.223	7.220	0.505
1235.999	695.693	80.000	19.995	103.196	20.224	7.119	0.517
1237.999	696.681	80.000	19.994	103.221	20.220	7.451	0.491
1239.999	697.676	80.000	19.995	103.227	20.221	7.353	0.473
1241.999	698.697	80.001	19.994	103.230	20.219	7.489	0.490
1244.000	699.720	80.001	19.994	103.235	20.222	7.266	0.499
1245.999	700.729	80.001	19.995	103.232	20.219	7.491	0.519
1247.999	701.787	80.002	19.995	103.230	20.216	7.668	0.502
1250.000	702.808	80.000	19.994	103.227	20.217	7.630	0.508
1251.999	703.768	80.001	19.995	103.239	20.219	7.482	0.484
1254.000	704.785	79.998	19.995	103.233	20.217	7.638	0.499
1255.999	705.784	79.998	19.996	103.238	20.213	7.903	0.501
1258.000	706.815	79.998	19.997	103.235	20.212	7.992	0.519
1260.000	707.841	79.998	19.994	103.256	20.209	8.182	0.514
1261.999	708.874	79.998	19.996	103.250	20.211	8.055	0.518
1263.999	709.874	79.998	19.996	103.267	20.210	8.106	0.511
1265.999	710.895	79.998	19.995	103.267	20.211	8.045	0.522
1267.999	711.888	80.000	19.995	103.248	20.207	8.326	0.493
1269.999	712.914	80.000	19.994	103.256	20.208	8.239	0.525
1271.999	713.915	79.999	19.994	103.265	20.204	8.475	0.501
1273.999	714.948	79.999	19.994	103.260	20.207	8.328	0.517
1275.999	715.965	80.000	19.994	103.265	20.203	8.586	0.513
1277.999	717.023	80.000	19.993	103.272	20.198	8.894	0.518
1279.999	717.987	79.999	19.994	103.273	20.198	8.892	0.497
1282.000	719.004	80.000	19.994	103.271	20.201	8.700	0.497
1284.000	720.009	79.999	19.995	103.273	20.197	8.954	0.509
1285.999	721.028	79.998	19.995	103.284	20.198	8.883	0.509
1287.999	722.050	79.999	19.994	103.290	20.197	8.982	0.502
1289.999	723.026	80.000	19.994	103.300	20.195	9.145	0.478
1291.999	724.061	79.999	19.994	103.304	20.194	9.200	0.501
1293.999	725.061	79.999	19.994	103.307	20.197	9.014	0.491
1295.999	726.076	79.999	19.995	103.308	20.194	9.180	0.513
1297.999	727.062	80.000	19.995	103.311	20.191	9.366	0.515
1300.001	728.118	80.001	19.994	103.309	20.190	9.458	0.513
1302.000	729.093	79.999	19.994	103.312	20.190	9.479	0.504
1304.000	730.074	80.000	19.994	103.325	20.188	9.624	0.505
1306.000	731.103	80.001	19.995	103.316	20.185	9.780	0.485
1308.000	732.155	80.000	19.994	103.308	20.187	9.648	0.520
1310.000	733.142	80.002	19.994	103.312	20.183	9.912	0.513
1312.000	734.182	79.999	19.994	103.319	20.188	9.574	0.516
1314.000	735.186	80.000	19.995	103.318	20.185	9.779	0.510
1316.000	736.162	79.999	19.994	103.330	20.184	9.896	0.514
1318.000	737.166	79.999	19.994	103.344	20.185	9.771	0.498
1320.000	738.135	79.998	19.994	103.327	20.182	10.004	0.500
1322.000	739.163	79.999	19.996	103.318	20.183	9.952	0.514
1324.000	740.109	80.000	19.994	103.325	20.181	10.053	0.451
1326.000	741.185	80.001	19.994	103.333	20.183	9.958	0.483
1328.001	742.195	80.000	19.994	103.320	20.180	10.139	0.521
1330.000	743.227	80.001	19.995	103.330	20.178	10.301	0.517
1330.500	743.498	80.001	19.995	103.329	20.176	10.374	0.519