File: 01_Data/FRP_Panel/MCC/FRP_Panel_MCC_30K_min_211029_R2.txt
Sample ID:	C:\MCC\MCC Cal\Test\FRP_Panel_MCC_30K_min_211029_R2.txt
Sample Weight (mg):	4.56
Heating Rate (C/s):	0.5
Combustor Temp (C):	900
N2 Flow Rate (cc/min):	80
O2 Flow Rate (cc/min):	20
Calibration File:	C:\MCC\MCC Cal\Coeff1 JN10440_30_210304.txt.txt
T Correction Coefficients:	0	1.024463	0
Time Shift (s):	14
*
Time (s)	Temperature (C)	N2 flow rate (cc/min)	O2 flow rate (cc/min)	Flow Rate (cc/min)	Oxygen (%)	HRR (W/g)	Heating rate (C/s)
0.000	108.356	79.996	19.996	102.925	20.074	-0.631	-0.021
2.000	108.417	79.993	19.998	102.922	20.070	-0.361	0.032
4.000	108.373	79.968	19.999	102.923	20.069	-0.322	-0.018
6.000	108.418	79.986	19.996	102.924	20.073	-0.600	-0.040
8.000	108.427	80.005	19.993	102.932	20.074	-0.628	0.003
10.001	108.370	79.985	19.998	102.921	20.070	-0.383	0.003
12.000	108.388	79.992	19.996	102.927	20.066	-0.067	-0.027
14.000	108.375	80.004	19.994	102.935	20.066	-0.079	0.022
16.001	108.344	79.984	19.996	102.966	20.062	0.182	-0.010
18.000	108.401	79.994	19.995	102.987	20.058	0.482	0.004
20.000	108.472	80.001	19.995	102.975	20.057	0.573	0.062
22.001	108.543	80.006	19.994	102.967	20.052	0.869	0.033
24.000	108.615	79.995	19.995	103.071	20.051	0.996	0.048
26.000	108.695	79.983	20.000	103.059	20.046	1.334	0.024
28.001	108.856	79.995	19.997	103.078	20.038	1.857	0.054
30.001	109.043	79.997	19.996	103.097	20.045	1.375	0.137
32.000	109.236	79.987	19.996	103.102	20.042	1.608	0.094
34.001	109.477	80.001	19.995	103.102	20.039	1.792	0.128
36.000	109.706	79.980	19.998	103.093	20.041	1.685	0.088
38.001	109.987	79.997	20.001	103.082	20.042	1.577	0.144
40.000	110.279	79.985	19.998	103.093	20.040	1.771	0.140
42.000	110.610	79.987	19.996	103.078	20.037	1.980	0.172
44.001	110.951	79.994	19.994	103.069	20.044	1.498	0.178
46.001	111.260	80.003	19.993	103.069	20.042	1.643	0.165
48.000	111.603	80.000	19.995	103.087	20.039	1.795	0.172
50.000	111.962	80.004	19.992	103.091	20.038	1.860	0.221
52.000	112.312	79.998	19.994	103.102	20.037	1.995	0.202
54.000	112.690	79.999	19.996	103.106	20.035	2.088	0.198
56.000	113.065	79.992	19.997	103.117	20.034	2.163	0.207
58.000	113.515	79.981	19.998	103.130	20.034	2.187	0.221
60.000	114.003	79.990	19.995	103.127	20.033	2.258	0.240
62.000	114.432	79.981	19.996	103.154	20.031	2.355	0.231
64.000	114.934	79.999	19.995	103.160	20.027	2.656	0.256
66.000	115.456	79.988	19.995	103.160	20.026	2.715	0.280
68.000	116.017	80.008	19.992	103.156	20.027	2.650	0.258
70.000	116.558	79.994	19.995	103.158	20.025	2.820	0.288
72.000	117.193	79.990	19.996	103.156	20.027	2.644	0.303
74.001	117.764	79.995	19.995	103.162	20.022	3.012	0.292
76.000	118.379	79.996	19.996	103.164	20.021	3.127	0.340
78.000	118.979	79.987	19.995	103.165	20.021	3.061	0.297
80.000	119.686	80.000	19.994	103.175	20.024	2.891	0.323
82.001	120.364	79.997	19.997	103.182	20.020	3.144	0.314
84.001	121.033	79.998	19.996	103.175	20.022	3.002	0.301
86.000	121.767	79.996	19.997	103.181	20.023	2.982	0.382
88.000	122.524	79.993	19.995	103.179	20.023	2.957	0.359
90.001	123.253	79.977	19.997	103.169	20.024	2.860	0.379
92.000	124.024	79.976	19.996	103.167	20.022	3.045	0.378
94.000	124.793	79.986	19.996	103.164	20.027	2.695	0.374
96.000	125.550	79.982	19.997	103.169	20.020	3.164	0.367
98.000	126.360	79.990	19.996	103.169	20.021	3.087	0.399
100.000	127.181	80.000	19.994	103.187	20.018	3.307	0.398
102.000	128.011	79.976	19.997	103.175	20.022	2.993	0.435
104.000	128.825	79.998	19.995	103.172	20.021	3.083	0.408
106.000	129.698	79.985	19.996	103.171	20.021	3.073	0.435
108.000	130.523	80.007	19.996	103.165	20.025	2.796	0.449
110.001	131.346	79.984	20.001	103.183	20.021	3.124	0.391
112.000	132.203	80.020	20.002	103.204	20.025	2.836	0.448
114.001	133.066	79.980	20.007	103.195	20.027	2.683	0.447
116.000	133.992	79.992	20.001	103.177	20.027	2.700	0.434
118.000	134.823	79.989	19.998	103.174	20.024	2.897	0.429
120.000	135.727	79.983	19.997	103.165	20.021	3.101	0.428
122.000	136.649	79.998	19.997	103.168	20.021	3.105	0.471
124.000	137.527	79.988	19.996	103.168	20.021	3.126	0.418
126.000	138.447	79.993	19.996	103.173	20.021	3.067	0.464
128.000	139.383	79.996	19.996	103.187	20.018	3.320	0.465
130.000	140.319	80.002	19.994	103.171	20.021	3.079	0.459
132.000	141.217	79.999	19.995	103.182	20.022	3.006	0.463
134.000	142.130	79.987	19.997	103.175	20.019	3.217	0.468
136.000	143.087	79.986	19.996	103.163	20.020	3.190	0.505
138.000	144.087	79.996	19.995	103.163	20.019	3.247	0.523
140.001	145.062	80.000	19.995	103.172	20.020	3.174	0.477
142.000	145.969	79.984	19.996	103.171	20.021	3.085	0.472
144.000	146.913	79.995	19.996	103.171	20.021	3.114	0.468
146.001	147.903	79.993	19.996	103.163	20.019	3.231	0.508
148.000	148.869	79.988	19.996	103.170	20.019	3.249	0.470
150.000	149.868	79.991	19.997	103.162	20.018	3.286	0.501
152.000	150.814	79.993	19.996	103.167	20.018	3.296	0.486
154.000	151.804	80.004	19.996	103.165	20.014	3.591	0.499
156.000	152.821	80.004	19.996	103.164	20.017	3.378	0.523
158.000	153.758	79.989	19.998	103.162	20.016	3.462	0.466
160.000	154.786	79.992	19.996	103.158	20.015	3.482	0.480
162.000	155.737	79.992	19.997	103.161	20.017	3.373	0.487
164.000	156.731	79.990	19.994	103.172	20.017	3.354	0.495
166.000	157.732	79.995	19.995	103.175	20.023	2.982	0.536
168.000	158.696	79.976	19.994	103.170	20.017	3.375	0.515
170.000	159.672	79.993	19.995	103.161	20.014	3.551	0.489
172.000	160.659	79.989	19.995	103.159	20.016	3.464	0.485
174.000	161.669	80.002	19.994	103.165	20.017	3.373	0.512
176.000	162.626	79.992	19.997	103.166	20.015	3.502	0.486
178.000	163.606	79.996	19.995	103.164	20.016	3.415	0.514
180.000	164.638	80.009	19.994	103.174	20.017	3.409	0.500
182.000	165.617	79.980	19.997	103.167	20.012	3.712	0.513
184.000	166.628	79.988	19.995	103.155	20.010	3.868	0.504
186.000	167.596	79.987	19.995	103.165	20.013	3.680	0.480
188.000	168.581	80.000	19.997	103.159	20.014	3.558	0.507
190.000	169.569	79.991	19.995	103.156	20.013	3.678	0.488
192.001	170.607	80.007	19.995	103.165	20.013	3.691	0.502
194.000	171.542	79.991	19.995	103.172	20.010	3.865	0.506
196.000	172.554	79.992	19.996	103.166	20.010	3.861	0.503
198.000	173.518	79.990	19.995	103.147	20.013	3.653	0.516
200.000	174.521	80.010	19.993	103.148	20.010	3.845	0.502
202.000	175.495	79.988	19.998	103.161	20.010	3.852	0.497
204.000	176.514	79.992	19.995	103.152	20.005	4.209	0.493
206.000	177.514	79.995	19.996	103.154	20.003	4.365	0.500
208.000	178.495	79.993	19.995	103.151	20.001	4.517	0.484
210.000	179.498	79.990	19.995	103.138	20.001	4.523	0.512
212.000	180.475	79.991	19.999	103.143	20.001	4.533	0.477
214.000	181.514	80.002	19.995	103.120	19.997	4.788	0.529
216.001	182.498	79.987	19.997	103.146	20.001	4.537	0.510
218.000	183.453	79.991	19.996	103.144	20.000	4.572	0.469
220.000	184.480	79.996	19.995	103.147	19.996	4.869	0.511
222.000	185.458	79.990	19.996	103.140	19.998	4.737	0.517
224.000	186.473	79.985	19.996	103.134	19.995	4.916	0.513
226.000	187.472	79.994	19.993	103.143	19.993	5.050	0.530
228.000	188.458	79.981	19.995	103.140	19.994	5.011	0.472
230.000	189.425	79.994	19.994	103.137	19.992	5.165	0.489
232.000	190.411	80.011	19.993	103.141	19.994	5.028	0.508
234.000	191.384	79.991	19.995	103.135	19.993	5.078	0.477
236.000	192.391	79.998	19.996	103.125	19.988	5.396	0.485
238.000	193.323	79.994	19.996	103.125	19.989	5.334	0.488
240.000	194.316	79.993	19.996	103.136	19.991	5.229	0.503
242.000	195.322	80.018	20.002	103.139	19.993	5.062	0.493
244.000	196.223	80.010	20.002	103.171	19.992	5.161	0.469
246.000	197.272	80.021	20.003	103.174	19.993	5.065	0.494
248.000	198.214	80.012	20.003	103.155	19.992	5.124	0.448
250.000	199.218	80.009	20.002	103.149	19.989	5.316	0.464
252.000	200.183	80.012	20.001	103.153	19.989	5.358	0.443
254.000	201.165	80.013	20.001	103.161	19.990	5.283	0.517
256.000	202.131	80.007	20.002	103.155	19.988	5.437	0.536
258.000	203.128	80.016	20.001	103.147	19.985	5.611	0.490
260.000	204.048	80.013	20.003	103.139	19.988	5.451	0.463
262.000	205.019	80.020	20.001	103.157	19.988	5.425	0.507
264.000	205.962	80.020	20.001	103.155	19.984	5.670	0.503
266.000	206.969	80.036	20.000	103.151	19.986	5.571	0.542
268.000	207.895	80.014	20.003	103.155	19.984	5.694	0.516
270.000	208.858	80.009	20.003	103.161	19.986	5.567	0.453
272.000	209.816	80.008	20.002	103.141	19.986	5.541	0.504
274.000	210.752	80.004	20.003	103.152	19.979	6.023	0.455
276.000	211.779	80.022	20.002	103.138	19.980	5.971	0.491
278.000	212.675	80.021	20.000	103.139	19.979	6.024	0.471
280.000	213.642	80.020	20.002	103.149	19.976	6.270	0.502
282.000	214.618	80.013	20.002	103.137	19.977	6.168	0.489
284.000	215.613	80.032	19.999	103.160	19.973	6.455	0.473
286.000	216.529	80.007	20.003	103.161	19.972	6.527	0.486
288.000	217.479	80.002	20.004	103.147	19.971	6.591	0.475
290.000	218.452	80.013	20.002	103.150	19.968	6.861	0.496
292.000	219.430	80.006	20.003	103.153	19.969	6.776	0.467
294.000	220.374	80.009	20.005	103.147	19.963	7.168	0.459
296.000	221.365	80.025	20.001	103.155	19.963	7.170	0.518
298.000	222.303	80.005	20.006	103.156	19.965	7.047	0.478
300.000	223.324	80.015	20.003	103.148	19.961	7.312	0.526
302.000	224.323	80.003	20.004	103.162	19.959	7.484	0.527
304.000	225.245	80.010	20.004	103.139	19.960	7.403	0.448
306.000	226.230	80.007	20.005	103.148	19.957	7.579	0.505
308.000	227.252	80.009	20.003	103.164	19.955	7.742	0.481
310.000	228.309	80.010	20.002	103.157	19.955	7.721	0.479
312.000	229.311	80.013	20.003	103.166	19.957	7.576	0.490
314.000	230.289	80.004	20.002	103.159	19.952	7.977	0.486
316.000	231.321	80.017	20.000	103.166	19.950	8.096	0.534
318.000	232.336	80.013	20.002	103.159	19.951	8.018	0.509
320.000	233.377	79.996	20.005	103.154	19.949	8.189	0.513
322.000	234.371	80.005	20.002	103.156	19.953	7.912	0.475
324.000	235.429	80.018	20.003	103.148	19.949	8.160	0.501
326.000	236.446	80.009	20.003	103.149	19.951	8.035	0.518
328.000	237.481	80.012	20.003	103.150	19.951	8.021	0.525
330.000	238.471	80.013	20.004	103.138	19.950	8.126	0.468
332.000	239.482	80.011	20.002	103.150	19.949	8.147	0.492
334.000	240.501	80.017	20.003	103.134	19.949	8.150	0.491
336.000	241.514	80.011	20.002	103.143	19.951	8.016	0.497
338.000	242.532	80.005	20.003	103.137	19.949	8.203	0.499
340.000	243.580	80.014	20.002	103.140	19.954	7.796	0.524
342.000	244.605	80.013	20.001	103.152	19.952	7.928	0.521
344.000	245.619	80.011	20.002	103.132	19.950	8.132	0.495
346.000	246.634	80.015	20.002	103.138	19.950	8.110	0.507
348.000	247.639	80.011	20.002	103.130	19.953	7.917	0.499
350.000	248.677	80.015	20.004	103.133	19.949	8.194	0.521
352.000	249.689	80.012	20.003	103.128	19.951	8.043	0.537
354.000	250.730	80.019	20.002	103.126	19.950	8.069	0.530
356.000	251.752	80.012	20.002	103.129	19.947	8.316	0.518
358.000	252.720	80.013	20.002	103.130	19.947	8.290	0.506
360.000	253.777	80.015	20.002	103.140	19.942	8.654	0.507
362.000	254.750	80.012	20.003	103.129	19.944	8.514	0.487
364.000	255.746	80.013	20.003	103.130	19.941	8.759	0.524
366.000	256.791	80.011	20.002	103.128	19.944	8.552	0.493
368.000	257.752	80.013	20.003	103.125	19.941	8.733	0.487
370.000	258.756	80.008	20.003	103.123	19.938	8.978	0.475
372.000	259.791	80.009	20.003	103.134	19.939	8.891	0.485
374.000	260.786	80.011	20.002	103.135	19.936	9.116	0.523
376.000	261.792	80.010	20.003	103.150	19.938	8.972	0.499
378.000	262.775	80.009	20.002	103.137	19.933	9.274	0.510
380.000	263.808	80.009	20.002	103.128	19.935	9.136	0.524
382.000	264.858	80.011	20.004	103.128	19.933	9.296	0.530
384.000	265.834	80.010	20.003	103.129	19.933	9.294	0.478
386.000	266.831	80.000	20.004	103.131	19.932	9.363	0.474
388.000	267.852	80.002	20.002	103.134	19.929	9.590	0.531
390.000	268.901	80.007	20.005	103.132	19.929	9.608	0.551
392.000	269.875	80.009	20.005	103.125	19.929	9.610	0.506
394.000	270.920	80.010	20.004	103.125	19.928	9.681	0.496
396.000	271.934	80.012	20.003	103.127	19.925	9.866	0.491
398.000	273.010	80.014	20.002	103.125	19.924	9.945	0.530
400.000	273.963	80.020	20.001	103.128	19.930	9.499	0.484
402.000	274.958	80.009	20.003	103.126	19.928	9.645	0.480
404.000	275.983	80.009	20.003	103.124	19.930	9.529	0.520
406.000	276.969	80.001	20.003	103.124	19.931	9.459	0.469
408.000	278.025	80.012	20.002	103.111	19.932	9.401	0.539
410.000	279.021	80.009	20.002	103.119	19.930	9.521	0.524
412.000	280.030	80.001	20.002	103.121	19.934	9.222	0.468
414.000	281.045	80.014	20.003	103.119	19.934	9.241	0.507
416.000	282.023	80.010	20.003	103.123	19.936	9.084	0.460
418.000	283.081	80.010	20.003	103.116	19.936	9.110	0.496
420.000	284.109	80.013	20.003	103.120	19.935	9.132	0.508
422.000	285.105	80.011	20.002	103.119	19.937	9.010	0.515
424.000	286.113	80.012	20.002	103.125	19.941	8.710	0.522
426.000	287.138	80.013	20.003	103.125	19.943	8.625	0.506
428.000	288.133	80.013	20.002	103.127	19.945	8.455	0.509
430.000	289.126	80.011	20.002	103.127	19.941	8.705	0.491
432.000	290.144	80.012	20.002	103.115	19.944	8.516	0.510
434.000	291.132	80.010	20.002	103.119	19.950	8.121	0.508
436.000	292.154	80.012	20.001	103.120	19.948	8.210	0.521
438.000	293.173	80.013	20.002	103.116	19.951	8.048	0.528
440.000	294.178	80.014	20.001	103.121	19.952	7.959	0.508
442.000	295.176	80.017	20.000	103.114	19.951	8.051	0.523
444.000	296.147	80.011	20.002	103.114	19.951	8.030	0.484
446.000	297.164	80.010	20.002	103.115	19.954	7.788	0.497
448.000	298.169	80.011	20.002	103.111	19.952	7.932	0.492
450.000	299.191	80.012	20.002	103.116	19.954	7.788	0.495
452.000	300.164	80.010	20.002	103.110	19.956	7.660	0.517
454.000	301.187	80.012	20.003	103.113	19.960	7.368	0.520
456.000	302.121	80.012	20.002	103.112	19.958	7.517	0.462
458.000	303.142	80.011	20.003	103.101	19.962	7.267	0.502
460.000	304.134	80.010	20.003	103.109	19.958	7.531	0.515
462.000	305.127	80.012	20.003	103.100	19.959	7.449	0.510
464.000	306.075	80.012	20.003	103.118	19.959	7.471	0.477
466.000	307.109	80.012	20.003	103.108	19.960	7.402	0.507
468.000	308.094	80.009	20.002	103.109	19.956	7.686	0.519
470.000	309.068	80.013	20.004	103.111	19.956	7.684	0.457
472.000	310.117	79.992	20.001	103.088	19.960	7.383	0.517
474.000	311.077	79.991	19.998	103.091	19.961	7.292	0.496
476.000	312.080	79.991	19.997	103.089	19.959	7.480	0.486
478.000	313.143	79.993	19.997	103.089	19.955	7.779	0.514
480.000	314.128	79.991	19.998	103.087	19.955	7.755	0.510
482.000	315.105	79.988	19.998	103.089	19.955	7.771	0.463
484.000	316.098	79.993	19.996	103.080	19.953	7.894	0.469
486.000	317.119	79.993	19.995	103.081	19.952	7.921	0.487
488.000	318.133	79.991	19.997	103.087	19.952	7.939	0.466
490.000	319.095	79.993	19.996	103.088	19.948	8.214	0.484
492.000	320.100	79.997	19.995	103.086	19.950	8.085	0.500
494.000	321.121	79.995	19.996	103.086	19.949	8.156	0.514
496.000	322.097	79.994	19.995	103.089	19.947	8.285	0.478
498.000	323.148	79.994	19.993	103.090	19.948	8.237	0.512
500.000	324.133	79.993	19.995	103.095	19.945	8.436	0.501
502.000	325.151	79.994	19.994	103.092	19.943	8.603	0.502
504.000	326.176	79.988	19.996	103.088	19.942	8.652	0.511
506.000	327.164	79.993	19.994	103.094	19.941	8.714	0.503
508.000	328.137	79.995	19.995	103.086	19.936	9.078	0.512
510.000	329.160	79.994	19.994	103.078	19.937	9.043	0.540
512.000	330.154	79.994	19.996	103.084	19.935	9.132	0.504
514.000	331.187	79.999	19.994	103.086	19.934	9.199	0.513
516.000	332.193	79.995	19.996	103.072	19.930	9.484	0.514
518.000	333.202	79.996	19.996	103.076	19.926	9.788	0.512
520.000	334.258	79.996	19.995	103.085	19.927	9.690	0.522
522.000	335.249	79.995	19.995	103.085	19.923	9.972	0.498
524.000	336.246	79.994	19.995	103.085	19.923	10.015	0.450
526.000	337.242	79.994	19.995	103.085	19.925	9.894	0.478
528.000	338.269	79.993	19.995	103.084	19.914	10.623	0.527
530.000	339.272	79.991	19.996	103.088	19.918	10.325	0.519
532.000	340.286	80.009	20.001	103.088	19.914	10.626	0.514
534.000	341.305	80.010	20.003	103.098	19.909	11.012	0.536
536.000	342.309	79.988	20.004	103.103	19.906	11.191	0.513
538.000	343.284	79.993	19.999	103.088	19.901	11.527	0.460
540.000	344.323	79.994	19.997	103.098	19.899	11.698	0.518
542.000	345.296	79.993	19.996	103.090	19.899	11.717	0.480
544.000	346.308	79.991	19.997	103.091	19.892	12.187	0.472
546.001	347.355	79.993	19.995	103.088	19.891	12.282	0.509
548.000	348.319	79.992	19.997	103.090	19.887	12.547	0.477
550.000	349.359	79.992	19.996	103.092	19.880	13.025	0.494
552.000	350.350	79.992	19.995	103.094	19.874	13.428	0.498
554.000	351.359	79.991	19.995	103.090	19.874	13.484	0.494
556.001	352.415	79.990	19.996	103.088	19.867	13.952	0.519
558.000	353.438	79.988	19.996	103.091	19.867	13.922	0.489
560.000	354.488	79.991	19.995	103.090	19.864	14.157	0.518
562.000	355.522	79.990	19.995	103.090	19.858	14.576	0.559
564.000	356.499	79.992	19.996	103.090	19.851	15.082	0.497
566.000	357.530	79.991	19.995	103.090	19.844	15.599	0.554
568.000	358.512	79.994	19.996	103.087	19.843	15.651	0.486
570.000	359.526	79.992	19.996	103.088	19.837	16.080	0.507
572.000	360.541	79.992	19.997	103.086	19.828	16.680	0.536
574.000	361.560	79.995	19.996	103.086	19.820	17.251	0.515
576.000	362.567	79.992	19.995	103.086	19.818	17.411	0.499
578.000	363.579	79.992	19.996	103.085	19.810	17.949	0.525
580.000	364.577	79.993	19.995	103.093	19.803	18.480	0.511
582.000	365.633	79.994	19.995	103.087	19.798	18.788	0.535
584.000	366.638	79.993	19.996	103.088	19.791	19.313	0.518
586.000	367.587	79.992	19.995	103.087	19.783	19.892	0.464
588.000	368.620	79.994	19.995	103.086	19.775	20.458	0.488
590.001	369.643	79.991	19.995	103.088	19.767	21.006	0.505
592.000	370.654	79.992	19.995	103.085	19.759	21.603	0.502
594.000	371.674	79.995	19.994	103.085	19.753	21.999	0.496
596.000	372.724	79.995	19.995	103.083	19.745	22.551	0.536
598.000	373.724	79.994	19.995	103.084	19.732	23.450	0.530
600.000	374.753	79.994	19.995	103.085	19.724	24.032	0.539
602.000	375.718	79.994	19.994	103.091	19.712	24.903	0.478
604.000	376.786	79.994	19.995	103.096	19.705	25.413	0.498
606.000	377.761	79.993	19.996	103.106	19.690	26.438	0.505
608.000	378.781	79.990	19.997	103.096	19.681	27.077	0.509
610.000	379.799	79.992	19.995	103.106	19.673	27.673	0.531
612.001	380.830	79.996	19.995	103.111	19.658	28.683	0.503
614.000	381.836	79.991	19.996	103.116	19.646	29.569	0.503
616.000	382.855	79.989	19.995	103.111	19.630	30.664	0.526
618.000	383.873	79.994	19.995	103.116	19.615	31.761	0.499
620.000	384.875	79.993	19.995	103.126	19.600	32.833	0.490
622.000	385.901	79.993	19.995	103.125	19.585	33.850	0.531
624.000	386.893	79.991	19.996	103.120	19.566	35.203	0.473
626.001	387.969	79.991	19.994	103.130	19.544	36.744	0.537
628.000	388.974	79.993	19.995	103.130	19.532	37.629	0.530
630.000	389.979	79.990	19.995	103.131	19.514	38.868	0.517
632.000	390.983	79.993	19.995	103.129	19.489	40.647	0.483
634.000	392.044	79.992	19.996	103.128	19.468	42.126	0.517
636.000	393.018	79.993	19.996	103.126	19.447	43.629	0.487
638.000	394.116	79.992	19.996	103.129	19.424	45.216	0.540
640.001	395.123	79.993	19.996	103.144	19.401	46.869	0.525
642.000	396.171	79.992	19.997	103.129	19.373	48.827	0.531
644.000	397.208	79.994	19.995	103.127	19.349	50.521	0.527
646.000	398.184	79.991	19.996	103.130	19.321	52.479	0.484
648.000	399.204	79.993	19.996	103.145	19.294	54.436	0.497
650.000	400.258	79.994	19.996	103.151	19.262	56.677	0.540
652.000	401.243	79.993	19.997	103.147	19.233	58.693	0.523
654.000	402.260	79.989	19.996	103.156	19.201	60.967	0.536
656.000	403.270	79.999	19.997	103.158	19.169	63.259	0.510
658.000	404.308	79.993	19.996	103.161	19.137	65.482	0.513
660.000	405.301	79.995	19.997	103.161	19.107	67.599	0.511
662.000	406.331	79.995	19.997	103.162	19.072	70.078	0.520
664.000	407.314	79.992	19.995	103.164	19.035	72.671	0.525
666.000	408.284	79.991	19.995	103.165	19.002	75.006	0.477
668.000	409.315	79.993	19.996	103.171	18.964	77.742	0.501
670.000	410.313	79.991	19.996	103.179	18.929	80.155	0.496
672.000	411.326	79.994	19.994	103.176	18.896	82.518	0.481
674.000	412.307	79.994	19.995	103.172	18.862	84.923	0.460
676.000	413.325	79.993	19.994	103.169	18.832	87.011	0.508
678.000	414.252	79.994	19.994	103.175	18.798	89.420	0.483
680.000	415.240	79.993	19.996	103.171	18.766	91.723	0.488
682.000	416.294	79.994	19.996	103.184	18.740	93.554	0.513
684.000	417.259	79.992	19.995	103.181	18.714	95.339	0.512
686.000	418.217	79.991	19.996	103.182	18.689	97.141	0.482
688.000	419.220	79.991	19.995	103.184	18.669	98.583	0.491
690.000	420.206	79.992	19.996	103.189	18.651	99.796	0.479
692.000	421.231	79.993	19.996	103.201	18.637	100.762	0.484
694.000	422.211	79.992	19.996	103.196	18.624	101.709	0.484
696.000	423.237	79.991	19.996	103.194	18.618	102.184	0.500
698.000	424.237	79.992	19.995	103.196	18.612	102.575	0.498
700.000	425.207	79.993	19.995	103.190	18.614	102.394	0.510
702.000	426.195	79.991	19.996	103.179	18.617	102.173	0.500
704.000	427.212	79.993	19.996	103.176	18.629	101.353	0.519
706.000	428.184	79.993	19.995	103.183	18.640	100.580	0.497
708.000	429.147	79.993	19.995	103.190	18.660	99.148	0.492
710.000	430.168	79.992	19.995	103.169	18.683	97.544	0.490
712.000	431.160	79.993	19.996	103.169	18.710	95.619	0.509
714.000	432.186	79.991	19.996	103.166	18.745	93.180	0.511
716.000	433.175	79.993	19.998	103.175	18.776	90.945	0.507
718.000	434.170	79.993	19.995	103.166	18.816	88.155	0.527
720.000	435.150	79.991	19.997	103.163	18.854	85.442	0.480
722.000	436.250	79.990	19.996	103.161	18.898	82.319	0.534
724.000	437.231	79.993	19.998	103.155	18.946	78.965	0.506
726.000	438.255	79.991	19.998	103.151	18.996	75.430	0.495
728.000	439.263	79.993	19.997	103.149	19.049	71.641	0.520
730.000	440.289	79.992	19.996	103.141	19.104	67.815	0.502
732.000	441.344	79.994	19.997	103.151	19.157	64.021	0.532
734.000	442.329	79.991	19.997	103.132	19.218	59.758	0.505
736.000	443.319	79.992	19.995	103.128	19.273	55.862	0.485
738.000	444.404	79.995	19.996	103.126	19.331	51.784	0.510
740.000	445.403	79.993	19.997	103.125	19.385	47.977	0.483
742.000	446.396	79.994	19.996	103.103	19.443	43.859	0.484
744.000	447.461	79.992	19.996	103.093	19.490	40.504	0.529
746.000	448.473	79.991	19.997	103.097	19.543	36.787	0.516
748.000	449.524	79.991	19.996	103.091	19.588	33.619	0.536
750.000	450.560	79.993	19.997	103.091	19.636	30.226	0.537
752.000	451.583	79.992	19.995	103.089	19.679	27.232	0.524
754.000	452.579	79.993	19.996	103.084	19.715	24.650	0.500
756.000	453.588	79.993	19.996	103.079	19.752	22.033	0.510
758.000	454.608	79.996	19.996	103.081	19.783	19.834	0.509
760.000	455.696	79.997	19.994	103.072	19.807	18.163	0.542
762.000	456.603	79.994	19.995	103.061	19.838	16.024	0.467
764.000	457.641	79.994	19.995	103.051	19.858	14.616	0.508
766.000	458.637	79.994	19.995	103.053	19.875	13.354	0.506
768.000	459.678	79.992	19.996	103.051	19.890	12.292	0.509
770.000	460.710	79.993	19.996	103.050	19.906	11.214	0.508
772.000	461.743	79.993	19.996	103.048	19.918	10.370	0.524
774.000	462.698	79.990	19.996	103.047	19.928	9.653	0.480
776.000	463.683	79.990	19.996	103.046	19.932	9.396	0.478
778.000	464.703	79.994	19.996	103.033	19.938	8.933	0.484
780.000	465.742	79.992	19.997	103.044	19.948	8.206	0.519
782.000	466.717	79.992	19.995	103.042	19.951	8.054	0.510
784.000	467.763	79.995	19.996	103.035	19.955	7.734	0.523
786.000	468.792	79.993	19.997	103.033	19.958	7.556	0.526
788.000	469.798	79.995	19.996	103.032	19.965	7.024	0.515
790.000	470.777	79.994	19.995	103.016	19.969	6.740	0.487
792.000	471.752	79.992	19.995	103.015	19.970	6.698	0.505
794.000	472.789	79.994	19.995	103.036	19.973	6.504	0.482
796.000	473.824	79.991	19.995	103.040	19.977	6.185	0.504
798.000	474.822	79.992	19.996	103.032	19.976	6.248	0.498
800.000	475.830	79.993	19.995	103.023	19.977	6.166	0.504
802.000	476.823	79.990	19.995	103.031	19.978	6.113	0.499
804.000	477.824	79.991	19.996	103.016	19.981	5.901	0.499
806.000	478.767	79.993	19.996	103.023	19.980	5.987	0.483
808.000	479.777	79.993	19.996	103.027	19.983	5.733	0.504
810.000	480.822	79.995	19.995	103.042	19.986	5.574	0.496
812.000	481.784	79.994	19.997	103.041	19.984	5.719	0.517
814.000	482.788	79.992	19.995	103.041	19.985	5.615	0.513
816.000	483.744	79.993	19.995	103.033	19.986	5.546	0.499
818.000	484.740	79.995	19.995	103.031	19.988	5.416	0.477
820.000	485.771	79.995	19.996	103.025	19.988	5.386	0.535
822.000	486.713	79.993	19.996	103.030	19.988	5.426	0.467
824.000	487.686	79.994	19.995	103.016	19.990	5.274	0.457
826.000	488.679	79.997	19.995	103.009	19.987	5.482	0.463
828.000	489.714	79.993	19.995	103.018	19.990	5.284	0.533
830.000	490.705	79.991	19.996	103.021	19.987	5.499	0.523
832.000	491.656	79.990	19.995	103.014	19.986	5.555	0.462
834.000	492.656	79.993	19.997	103.024	19.987	5.456	0.485
836.000	493.704	79.995	19.995	103.027	19.987	5.495	0.516
838.000	494.697	79.992	19.997	103.021	19.987	5.519	0.495
840.000	495.752	79.997	19.995	103.014	19.987	5.511	0.519
842.000	496.756	79.993	19.996	103.033	19.986	5.588	0.537
844.000	497.784	79.996	19.996	103.027	19.989	5.324	0.527
846.000	498.783	79.995	19.994	103.024	19.986	5.560	0.495
848.000	499.806	79.996	19.995	103.015	19.987	5.511	0.494
850.000	500.807	79.992	19.995	103.031	19.987	5.507	0.490
852.000	501.864	79.992	19.995	103.018	19.986	5.534	0.501
854.000	502.873	79.993	19.995	103.023	19.993	5.061	0.523
856.000	503.918	79.993	19.995	103.029	19.989	5.353	0.499
858.000	504.907	79.994	19.995	103.020	19.988	5.412	0.501
860.000	505.940	79.995	19.994	103.029	19.988	5.413	0.508
862.000	506.966	79.996	19.995	103.016	19.990	5.299	0.501
864.000	507.988	79.993	19.995	103.020	19.988	5.395	0.514
866.000	509.066	79.990	19.996	103.030	19.989	5.310	0.538
868.000	510.100	79.993	19.995	103.014	19.991	5.219	0.531
870.000	511.129	79.990	19.996	103.023	19.991	5.170	0.504
872.000	512.196	79.994	19.996	103.037	19.993	5.043	0.501
874.001	513.207	79.993	19.997	103.034	19.992	5.155	0.514
876.000	514.315	79.994	19.995	103.030	19.992	5.104	0.535
878.001	515.351	79.992	19.996	103.033	19.994	4.974	0.549
880.000	516.423	79.993	19.995	103.032	19.996	4.837	0.515
882.000	517.479	79.990	19.996	103.027	19.999	4.659	0.511
884.000	518.586	79.991	19.995	103.025	19.995	4.914	0.544
886.000	519.591	79.995	19.995	103.018	19.997	4.754	0.522
888.000	520.656	79.995	19.996	103.022	19.999	4.648	0.515
890.000	521.707	79.996	19.995	103.015	19.997	4.774	0.543
892.000	522.689	79.994	19.994	103.008	20.001	4.531	0.491
894.000	523.704	79.995	19.995	103.009	20.000	4.571	0.480
896.000	524.763	79.994	19.996	103.007	19.998	4.740	0.521
898.000	525.743	79.996	19.996	103.009	20.003	4.344	0.497
900.000	526.751	79.996	19.997	103.008	20.002	4.415	0.507
902.000	527.771	79.995	19.996	103.008	20.000	4.535	0.511
904.000	528.813	79.994	19.995	103.013	20.005	4.182	0.555
906.000	529.793	79.995	19.996	103.009	20.005	4.219	0.512
908.001	530.789	79.994	19.996	103.009	20.006	4.162	0.480
910.000	531.830	79.994	19.996	103.011	20.010	3.864	0.543
912.000	532.798	79.995	19.996	103.011	20.010	3.854	0.507
914.000	533.787	79.996	19.997	103.012	20.009	3.923	0.520
916.000	534.815	79.995	19.995	103.012	20.008	4.004	0.478
918.000	535.829	79.995	19.996	103.007	20.012	3.718	0.495
920.001	536.826	79.996	19.997	103.008	20.010	3.840	0.464
922.000	537.843	79.993	19.996	103.010	20.011	3.785	0.516
924.000	538.884	79.995	19.996	103.010	20.014	3.570	0.531
926.000	539.867	79.993	19.996	103.009	20.012	3.734	0.503
928.000	540.912	79.993	19.997	103.011	20.015	3.479	0.500
930.000	541.909	79.992	19.996	103.016	20.015	3.489	0.526
932.000	542.910	79.993	19.997	103.013	20.015	3.542	0.507
934.000	543.911	79.991	19.996	103.011	20.017	3.368	0.504
936.000	544.966	79.993	19.996	103.011	20.017	3.398	0.511
938.000	545.945	79.992	19.997	103.014	20.017	3.339	0.479
940.000	546.996	79.991	19.996	103.012	20.017	3.346	0.522
942.000	548.008	79.992	19.996	103.015	20.016	3.408	0.497
944.000	549.034	79.992	19.995	103.013	20.020	3.191	0.537
946.000	550.065	79.992	19.996	103.011	20.017	3.372	0.535
948.000	551.096	79.993	19.996	103.012	20.019	3.256	0.487
950.000	552.083	79.993	19.996	103.010	20.019	3.200	0.497
952.000	553.117	79.993	19.995	103.008	20.017	3.348	0.500
954.000	554.143	79.993	19.995	103.010	20.019	3.210	0.515
956.000	555.168	79.992	19.995	103.009	20.020	3.173	0.526
958.000	556.210	79.991	19.997	103.008	20.021	3.078	0.519
960.000	557.209	79.991	19.996	103.009	20.019	3.226	0.515
962.000	558.253	79.991	19.996	103.007	20.020	3.145	0.520
964.000	559.257	79.993	19.997	103.008	20.023	2.944	0.525
966.000	560.260	79.992	19.996	103.010	20.023	2.944	0.506
968.000	561.318	79.992	19.995	103.010	20.022	2.999	0.516
970.000	562.343	79.995	19.995	103.009	20.026	2.766	0.517
972.000	563.388	79.993	19.996	103.012	20.025	2.825	0.527
974.000	564.378	79.995	19.995	103.019	20.027	2.644	0.465
976.000	565.390	79.995	19.995	103.032	20.029	2.496	0.501
978.000	566.399	79.995	19.995	103.025	20.027	2.654	0.488
980.000	567.432	79.993	19.995	103.011	20.029	2.531	0.517
982.000	568.484	79.994	19.995	103.010	20.028	2.610	0.514
984.000	569.460	79.993	19.995	103.009	20.028	2.608	0.510
986.000	570.482	79.993	19.996	103.014	20.028	2.624	0.542
988.000	571.494	79.992	19.995	103.011	20.030	2.450	0.514
990.000	572.504	79.992	19.996	103.012	20.030	2.452	0.497
992.000	573.518	79.995	19.996	103.011	20.032	2.322	0.508
994.000	574.535	79.994	19.995	103.008	20.028	2.598	0.509
996.001	575.497	79.994	19.996	103.009	20.029	2.525	0.476
998.000	576.521	79.996	19.995	103.010	20.026	2.746	0.507
1000.000	577.461	79.995	19.996	103.013	20.028	2.628	0.487
1002.000	578.457	79.994	19.996	103.016	20.027	2.657	0.512
1004.000	579.434	79.993	19.996	103.008	20.028	2.626	0.487
1006.000	580.421	79.992	19.996	103.011	20.029	2.519	0.512
1008.000	581.345	79.993	19.996	103.010	20.028	2.624	0.477
1010.000	582.272	79.992	19.996	103.012	20.030	2.472	0.455
1012.000	583.249	79.990	19.995	103.008	20.033	2.229	0.459
1014.000	584.217	79.993	19.997	103.008	20.030	2.472	0.467
1016.000	585.199	79.992	19.997	103.007	20.029	2.543	0.457
1018.000	586.163	79.991	19.996	103.016	20.031	2.375	0.490
1020.000	587.173	79.993	19.996	103.020	20.032	2.326	0.516
1022.000	588.207	79.992	19.997	103.027	20.027	2.636	0.502
1024.000	589.249	79.992	19.996	103.016	20.028	2.595	0.527
1026.001	590.304	79.992	19.996	103.017	20.032	2.312	0.525
1028.000	591.360	79.995	19.995	103.014	20.026	2.702	0.519
1030.000	592.381	79.993	19.996	103.011	20.030	2.447	0.524
1032.000	593.484	79.993	19.995	103.014	20.031	2.399	0.568
1034.001	594.566	79.995	19.995	103.040	20.027	2.642	0.508
1036.000	595.666	79.992	19.995	103.031	20.029	2.543	0.548
1038.000	596.733	79.994	19.995	103.038	20.027	2.664	0.536
1040.000	597.878	79.993	19.995	103.037	20.033	2.210	0.528
1042.000	599.023	79.992	19.996	103.040	20.033	2.255	0.551
1044.000	600.215	79.993	19.995	103.032	20.030	2.443	0.595
1046.000	601.338	79.993	19.995	103.019	20.031	2.410	0.587
1048.000	602.489	79.992	19.996	103.032	20.028	2.567	0.572
1050.000	603.656	79.994	19.995	103.021	20.029	2.557	0.589
1052.000	604.814	79.995	19.995	103.032	20.028	2.583	0.591
1054.000	606.013	79.997	19.994	103.036	20.031	2.393	0.600
1056.000	607.118	79.995	19.995	103.047	20.031	2.415	0.546
1058.000	608.292	79.995	19.994	103.036	20.030	2.427	0.586
1060.000	609.477	79.996	19.995	103.026	20.029	2.492	0.581
1062.000	610.577	79.993	19.995	103.040	20.031	2.383	0.557
1064.000	611.712	79.993	19.994	103.033	20.030	2.472	0.546
1066.000	612.864	79.993	19.994	103.027	20.031	2.401	0.568
1068.000	614.012	79.993	19.994	103.020	20.028	2.573	0.550
1070.001	615.158	79.994	19.994	103.022	20.030	2.442	0.539
1072.001	616.272	79.993	19.993	103.020	20.030	2.450	0.566
1074.000	617.404	79.995	19.995	103.015	20.032	2.342	0.537
1076.001	618.462	79.995	19.994	103.011	20.031	2.348	0.542
1078.001	619.574	79.994	19.995	103.008	20.032	2.278	0.548
1080.000	620.649	79.996	19.996	103.008	20.033	2.261	0.548
1082.000	621.728	79.994	19.995	103.012	20.031	2.409	0.543
1084.000	622.807	79.993	19.995	103.009	20.034	2.205	0.524
1086.000	623.837	79.992	19.995	103.009	20.032	2.292	0.513
1088.001	624.895	79.992	19.995	103.018	20.034	2.140	0.498
1090.000	625.978	79.992	19.994	103.016	20.029	2.552	0.525
1092.000	627.041	79.992	19.995	103.020	20.032	2.318	0.543
1094.000	628.085	79.993	19.995	103.015	20.029	2.536	0.505
1096.000	629.122	79.992	19.995	103.016	20.030	2.448	0.508
1098.000	630.204	79.993	19.996	103.022	20.033	2.211	0.555
1100.001	631.236	79.993	19.995	103.029	20.030	2.476	0.518
1102.000	632.226	79.993	19.997	103.038	20.034	2.176	0.513
1104.000	633.279	79.994	19.995	103.031	20.035	2.135	0.514
1106.000	634.277	79.993	19.996	103.019	20.034	2.206	0.480
1108.001	635.345	79.992	19.997	103.014	20.032	2.311	0.518
1110.000	636.365	79.993	19.996	103.020	20.034	2.150	0.511
1112.000	637.393	79.990	19.996	103.035	20.033	2.247	0.521
1114.000	638.397	79.991	19.995	103.029	20.033	2.220	0.497
1116.001	639.417	79.992	19.996	103.029	20.031	2.409	0.513
1118.000	640.408	79.993	19.995	103.031	20.033	2.269	0.486
1120.001	641.451	79.991	19.994	103.031	20.031	2.354	0.512
1122.000	642.415	79.991	19.994	103.023	20.033	2.236	0.501
1124.000	643.389	79.992	19.994	103.043	20.032	2.331	0.468
1126.001	644.416	79.993	19.995	103.038	20.034	2.175	0.483
1128.001	645.412	79.992	19.994	103.017	20.031	2.348	0.511
1130.001	646.384	79.992	19.995	103.033	20.034	2.186	0.508
1132.000	647.395	79.993	19.993	103.045	20.033	2.263	0.496
1134.000	648.395	79.993	19.995	103.047	20.033	2.230	0.496
1136.000	649.417	79.994	19.995	103.046	20.030	2.420	0.513
1138.000	650.398	79.993	19.995	103.044	20.030	2.424	0.491
1140.000	651.381	79.994	19.995	103.044	20.033	2.273	0.511
1142.000	652.349	79.994	19.994	103.049	20.029	2.498	0.474
1144.000	653.371	79.993	19.995	103.048	20.030	2.437	0.509
1146.000	654.352	79.995	19.996	103.049	20.029	2.540	0.482
1148.000	655.404	79.994	19.994	103.060	20.030	2.427	0.527
1150.000	656.357	79.995	19.996	103.049	20.030	2.427	0.478
1152.000	657.344	79.995	19.995	103.047	20.032	2.346	0.480
1154.001	658.337	79.996	19.995	103.047	20.027	2.649	0.486
1156.000	659.339	79.997	19.995	103.047	20.030	2.487	0.499
1158.000	660.346	79.997	19.995	103.048	20.031	2.408	0.515
1160.000	661.344	79.998	19.994	103.050	20.030	2.477	0.485
1162.001	662.332	79.995	19.995	103.046	20.030	2.440	0.508
1164.001	663.384	79.993	19.995	103.046	20.028	2.612	0.531
1166.000	664.347	79.992	19.996	103.047	20.029	2.515	0.494
1168.000	665.332	79.993	19.995	103.058	20.030	2.432	0.508
1170.000	666.354	79.993	19.996	103.066	20.030	2.450	0.503
1172.000	667.359	79.993	19.994	103.059	20.029	2.537	0.504
1174.001	668.362	79.992	19.995	103.072	20.028	2.612	0.497
1176.001	669.368	79.992	19.996	103.073	20.030	2.448	0.496
1178.001	670.383	79.993	19.995	103.084	20.029	2.541	0.515
1180.000	671.480	79.993	19.995	103.083	20.027	2.657	0.554
1182.001	672.494	79.991	19.996	103.090	20.026	2.756	0.506
1184.000	673.553	79.993	19.996	103.088	20.023	2.932	0.529
1186.000	674.625	79.995	19.997	103.084	20.026	2.709	0.550
1188.000	675.741	79.993	19.997	103.076	20.025	2.794	0.529
1190.000	676.839	79.993	19.995	103.077	20.025	2.802	0.539
1192.001	677.914	79.991	19.995	103.085	20.024	2.847	0.557
1194.000	678.993	79.992	19.997	103.090	20.024	2.854	0.534
1196.001	680.082	79.992	19.996	103.089	20.025	2.830	0.529
1198.000	681.175	79.992	19.995	103.094	20.028	2.575	0.535
1200.000	682.322	79.990	19.995	103.095	20.024	2.875	0.542
1202.000	683.369	79.993	19.996	103.092	20.020	3.164	0.415
1204.000	684.507	79.992	19.996	103.095	20.023	2.940	0.560
1206.000	685.610	79.994	19.994	103.114	20.021	3.121	0.563
1208.000	686.722	79.995	19.994	103.094	20.023	2.977	0.545
1210.001	687.839	79.993	19.994	103.099	20.012	3.750	0.579
1212.000	688.897	79.995	19.995	103.097	20.022	2.988	0.556
1214.000	690.028	79.994	19.995	103.100	20.016	3.411	0.511
1216.000	691.088	79.995	19.995	103.104	20.017	3.378	0.563
1218.000	692.194	79.994	19.995	103.114	20.019	3.265	0.542
1220.000	693.296	79.993	19.995	103.121	20.018	3.309	0.549
1222.001	694.381	79.994	19.995	103.121	20.019	3.204	0.570
1224.000	695.908	79.992	19.995	103.123	20.019	3.254	0.498
1226.000	696.635	79.994	19.996	103.123	20.014	3.610	0.299
1228.000	697.680	79.993	19.996	103.125	20.016	3.444	0.588
1230.000	698.742	79.995	19.995	103.129	20.017	3.402	0.517
1232.000	699.873	79.994	19.995	103.127	20.014	3.560	0.538
1234.000	700.953	79.996	19.994	103.142	20.016	3.448	0.551
1236.000	702.040	79.998	19.994	103.140	20.014	3.590	0.550
1238.000	703.129	79.996	19.995	103.133	20.015	3.523	0.539
1240.000	704.148	79.997	19.996	103.137	20.009	3.948	0.533
1242.000	705.213	79.997	19.994	103.130	20.011	3.790	0.511
1244.000	706.260	79.993	19.995	103.136	20.013	3.682	0.524
1246.000	707.280	79.993	19.995	103.146	20.011	3.806	0.493
1248.000	708.307	79.992	19.996	103.145	20.009	3.968	0.509
1250.000	709.360	79.993	19.995	103.153	20.006	4.133	0.544
1252.000	710.418	79.993	19.995	103.144	20.005	4.247	0.541
1254.000	711.452	79.992	19.996	103.162	20.007	4.060	0.510
1256.000	712.552	79.992	19.996	103.167	20.006	4.127	0.548
1258.000	713.543	79.991	19.996	103.164	20.004	4.275	0.511
1260.000	714.570	79.993	19.996	103.165	20.004	4.287	0.491
1262.000	715.625	79.992	19.996	103.167	20.003	4.362	0.499
1264.000	716.686	79.993	19.995	103.167	20.003	4.390	0.515
1266.000	717.687	79.993	19.996	103.168	20.003	4.335	0.495
1268.000	718.704	79.993	19.996	103.165	20.001	4.505	0.494
1270.000	719.725	79.992	19.996	103.162	19.999	4.648	0.517
1272.000	720.752	79.994	19.996	103.165	19.997	4.774	0.495
1274.000	721.770	79.992	19.996	103.169	19.998	4.723	0.506
1276.000	722.784	79.991	19.997	103.182	20.002	4.438	0.520
1278.000	723.845	79.992	19.997	103.172	19.999	4.662	0.522
1280.000	724.812	79.992	19.997	103.177	19.995	4.935	0.473
1282.000	725.849	79.992	19.996	103.186	19.998	4.727	0.516
1284.000	726.861	79.991	19.995	103.189	19.997	4.807	0.506
1286.000	727.904	79.992	19.996	103.191	19.997	4.787	0.531
1288.000	728.860	79.992	19.996	103.195	19.996	4.888	0.481
1290.000	729.901	79.993	19.996	103.194	19.992	5.111	0.524
1292.000	730.932	79.994	19.996	103.195	19.991	5.217	0.509
1294.000	731.935	79.993	19.996	103.201	19.993	5.058	0.492
1296.000	732.979	79.996	19.995	103.200	19.992	5.157	0.510
1298.000	733.957	79.994	19.995	103.202	19.990	5.307	0.489
1300.000	734.962	79.993	19.995	103.205	19.988	5.425	0.494
1302.000	735.930	79.994	19.995	103.206	19.989	5.349	0.484
1304.000	736.987	79.994	19.995	103.215	19.991	5.238	0.522
1306.000	737.946	79.993	19.995	103.210	19.987	5.470	0.488
1308.000	738.961	79.994	19.994	103.225	19.990	5.278	0.481
1310.002	739.935	79.995	19.996	103.230	19.989	5.371	0.513
1312.001	740.988	79.993	19.994	103.215	19.986	5.541	0.507
1314.000	741.975	79.996	19.994	103.209	19.986	5.541	0.496
1316.000	742.995	79.996	19.995	103.217	19.983	5.798	0.523
1317.001	743.503	79.995	19.995	103.222	19.986	5.597	0.524