File: 01_Data/FRP_Panel/MCC/FRP_Panel_MCC_30K_min_211029_R1.txt
Sample ID:	C:\MCC\MCC Cal\Test\FRP_Panel_MCC_30K_min_211029_R1.txt
Sample Weight (mg):	4.6
Heating Rate (C/s):	0.5
Combustor Temp (C):	900
N2 Flow Rate (cc/min):	80
O2 Flow Rate (cc/min):	20
Calibration File:	C:\MCC\MCC Cal\Coeff1 JN10440_30_210304.txt.txt
T Correction Coefficients:	0	1.024463	0
Time Shift (s):	14
*
Time (s)	Temperature (C)	N2 flow rate (cc/min)	O2 flow rate (cc/min)	Flow Rate (cc/min)	Oxygen (%)	HRR (W/g)	Heating rate (C/s)
0.001	107.706	79.994	19.998	102.914	20.052	0.006	-0.006
2.000	107.699	79.992	19.997	102.922	20.053	-0.039	-0.028
4.000	107.673	79.993	19.997	102.923	20.053	-0.094	0.005
6.000	107.679	79.994	19.996	102.905	20.053	-0.041	-0.024
8.000	107.700	79.993	19.995	102.909	20.052	0.014	0.002
10.001	107.709	79.993	19.996	102.929	20.046	0.442	0.019
12.000	107.687	79.991	19.997	102.929	20.047	0.348	-0.002
14.000	107.711	79.992	19.999	102.941	20.048	0.262	-0.006
16.000	107.746	79.992	19.998	102.949	20.047	0.327	0.041
18.000	107.770	79.993	19.998	102.966	20.039	0.938	0.049
20.000	107.816	79.992	19.998	102.990	20.038	1.006	0.016
22.000	107.883	79.991	19.996	103.003	20.033	1.310	0.026
24.000	107.914	79.993	19.995	103.030	20.030	1.530	0.018
26.000	108.053	79.993	19.995	103.062	20.029	1.616	0.071
28.000	108.240	79.994	19.997	103.052	20.026	1.800	0.097
30.000	108.348	79.995	19.996	103.051	20.026	1.830	0.090
32.000	108.515	79.994	19.996	103.048	20.022	2.069	0.088
34.000	108.739	79.996	19.995	103.061	20.022	2.099	0.115
36.000	108.975	79.995	19.996	103.087	20.020	2.218	0.115
38.000	109.234	79.992	19.996	103.088	20.021	2.169	0.115
40.001	109.502	79.993	19.995	103.090	20.016	2.495	0.154
42.000	109.811	79.995	19.995	103.116	20.016	2.550	0.182
44.000	110.139	79.994	19.994	103.129	20.014	2.680	0.175
46.001	110.511	79.995	19.996	103.135	20.014	2.640	0.187
48.000	110.868	79.992	19.996	103.136	20.012	2.819	0.170
50.001	111.290	79.996	19.996	103.139	20.014	2.632	0.211
52.001	111.768	79.994	19.996	103.163	20.009	3.019	0.235
54.000	112.226	79.994	19.995	103.166	20.009	3.034	0.232
56.000	112.725	79.996	19.999	103.164	20.008	3.087	0.238
58.000	113.236	79.996	19.996	103.166	20.009	3.006	0.284
60.000	113.811	79.994	19.996	103.166	20.006	3.216	0.277
62.001	114.353	79.993	19.996	103.164	20.006	3.223	0.263
64.001	114.980	79.994	19.996	103.168	20.006	3.196	0.295
66.000	115.547	79.991	19.996	103.169	20.005	3.318	0.311
68.000	116.159	79.993	19.996	103.189	20.003	3.431	0.302
70.000	116.828	79.992	19.994	103.203	20.002	3.467	0.325
72.000	117.491	79.990	19.995	103.193	20.001	3.586	0.374
74.000	118.205	79.992	19.996	103.188	20.003	3.396	0.331
76.001	118.933	79.993	19.995	103.193	20.006	3.221	0.354
78.000	119.654	79.992	19.997	103.199	20.004	3.390	0.361
80.000	120.424	79.993	19.996	103.201	20.005	3.322	0.402
82.001	121.154	79.993	19.996	103.202	20.000	3.663	0.391
84.000	121.953	79.992	19.996	103.193	20.001	3.588	0.391
86.000	122.785	79.993	19.995	103.196	20.001	3.584	0.398
88.000	123.639	79.993	19.996	103.189	20.002	3.512	0.440
90.000	124.462	79.993	19.996	103.196	20.006	3.190	0.404
92.000	125.307	79.993	19.995	103.198	20.004	3.376	0.425
94.000	126.152	79.993	19.996	103.203	20.007	3.127	0.416
96.000	127.020	79.991	19.996	103.199	20.004	3.367	0.428
98.001	127.917	79.993	19.996	103.204	20.005	3.282	0.458
100.000	128.781	79.992	19.996	103.193	20.002	3.488	0.433
102.000	129.736	79.994	19.995	103.193	20.004	3.335	0.472
104.001	130.584	79.992	19.997	103.181	20.003	3.396	0.457
106.000	131.557	79.994	19.996	103.188	20.005	3.262	0.494
108.000	132.469	79.994	19.996	103.195	20.001	3.579	0.481
110.000	133.416	79.994	19.996	103.199	20.006	3.199	0.469
112.000	134.333	79.994	19.995	103.187	20.005	3.260	0.465
114.001	135.303	79.992	19.996	103.190	20.005	3.260	0.489
116.000	136.248	79.992	19.995	103.197	20.003	3.426	0.483
118.001	137.209	79.993	19.996	103.176	20.004	3.368	0.509
120.001	138.197	79.995	19.994	103.172	20.002	3.491	0.506
122.000	139.164	79.993	19.995	103.175	20.005	3.277	0.481
124.000	140.147	79.994	19.995	103.175	20.003	3.428	0.491
126.000	141.121	79.995	19.996	103.169	20.005	3.293	0.487
128.000	142.159	79.994	19.995	103.166	20.003	3.438	0.489
130.000	143.134	79.996	19.995	103.168	20.006	3.230	0.500
132.000	144.138	79.996	19.995	103.167	20.006	3.187	0.497
134.000	145.145	79.996	19.995	103.164	20.003	3.409	0.486
136.000	146.139	79.993	19.995	103.165	20.003	3.415	0.498
138.000	147.125	79.993	19.996	103.163	20.002	3.487	0.507
140.000	148.098	79.992	19.995	103.161	20.005	3.303	0.492
142.000	149.120	79.991	19.995	103.164	20.004	3.346	0.493
144.000	150.156	79.992	19.995	103.163	20.003	3.418	0.513
146.000	151.159	79.993	19.995	103.164	20.003	3.403	0.499
148.000	152.170	79.993	19.995	103.164	20.004	3.324	0.509
150.000	153.134	79.993	19.994	103.165	20.006	3.221	0.489
152.000	154.113	79.994	19.996	103.161	20.003	3.450	0.467
154.000	155.091	79.993	19.995	103.166	20.006	3.211	0.500
156.000	156.124	79.995	19.996	103.163	20.003	3.420	0.543
158.000	157.088	79.994	19.996	103.162	20.009	3.012	0.503
160.000	158.071	79.993	19.995	103.163	20.003	3.445	0.494
162.000	159.069	79.994	19.994	103.166	20.009	3.028	0.477
164.000	160.046	79.992	19.997	103.167	20.004	3.385	0.538
166.000	161.061	79.992	19.997	103.165	20.004	3.375	0.482
168.000	162.069	79.993	19.996	103.149	20.002	3.504	0.515
170.000	163.027	79.993	19.997	103.149	20.000	3.652	0.502
172.000	164.012	79.992	19.996	103.148	20.001	3.567	0.510
174.000	165.029	79.992	19.995	103.156	20.001	3.560	0.491
176.000	166.048	79.991	19.996	103.163	19.998	3.771	0.522
178.000	167.020	79.991	19.997	103.156	20.001	3.564	0.478
180.000	167.989	79.992	19.995	103.161	19.996	3.930	0.506
182.000	168.965	79.994	19.996	103.163	19.998	3.793	0.519
184.000	169.969	79.993	19.995	103.164	19.994	4.083	0.513
186.000	170.921	79.994	19.995	103.166	19.994	4.086	0.483
188.000	171.966	79.994	19.995	103.162	19.997	3.877	0.518
190.000	172.927	79.994	19.995	103.164	19.995	3.974	0.503
192.000	173.940	79.993	19.996	103.164	19.997	3.859	0.509
194.000	174.955	79.994	19.997	103.162	19.991	4.298	0.492
196.000	175.976	79.993	19.997	103.153	19.990	4.349	0.503
198.000	176.952	79.991	19.998	103.156	19.995	3.957	0.495
200.000	177.969	79.992	19.997	103.144	19.992	4.174	0.520
202.000	178.984	79.992	19.997	103.131	19.991	4.299	0.522
204.000	179.979	79.994	19.996	103.149	19.989	4.375	0.494
206.000	181.000	79.995	19.996	103.160	19.991	4.282	0.524
208.000	181.976	79.996	19.996	103.156	19.989	4.417	0.479
210.000	183.013	79.996	19.996	103.150	19.984	4.724	0.520
212.000	183.989	79.993	19.996	103.139	19.984	4.736	0.509
214.000	185.014	79.996	19.994	103.129	19.983	4.836	0.475
216.000	186.043	79.993	19.994	103.130	19.982	4.907	0.521
218.000	187.075	79.995	19.994	103.132	19.981	4.953	0.509
220.000	188.060	79.995	19.996	103.130	19.981	4.991	0.523
222.000	189.042	79.992	19.995	103.127	19.982	4.916	0.476
224.000	190.044	79.990	19.995	103.132	19.982	4.865	0.508
226.000	191.053	79.991	19.995	103.136	19.980	5.028	0.497
228.000	192.078	79.991	19.995	103.132	19.982	4.867	0.495
230.000	193.039	79.992	19.995	103.128	19.978	5.177	0.499
232.000	194.075	79.992	19.996	103.130	19.979	5.136	0.507
234.000	195.071	79.993	19.995	103.128	19.980	5.044	0.514
236.000	196.095	79.992	19.994	103.129	19.977	5.236	0.525
238.000	197.092	79.992	19.994	103.130	19.976	5.298	0.482
240.000	198.085	79.992	19.995	103.131	19.979	5.079	0.507
242.000	199.078	79.992	19.994	103.130	19.976	5.345	0.522
244.000	200.047	79.992	19.995	103.128	19.976	5.316	0.471
246.000	201.042	79.990	19.995	103.129	19.976	5.292	0.494
248.000	202.018	79.992	19.995	103.129	19.977	5.249	0.502
250.000	203.009	79.993	19.995	103.129	19.975	5.355	0.485
252.000	204.013	79.992	19.996	103.128	19.970	5.739	0.485
254.000	205.007	79.992	19.996	103.125	19.974	5.459	0.506
256.000	205.979	79.991	19.997	103.124	19.975	5.415	0.486
258.000	206.987	79.994	19.997	103.125	19.974	5.488	0.513
260.000	207.968	79.993	19.997	103.122	19.971	5.684	0.471
262.000	208.970	79.993	19.997	103.121	19.975	5.408	0.479
264.000	209.908	79.992	19.997	103.120	19.972	5.593	0.508
266.000	210.901	79.995	19.996	103.112	19.968	5.838	0.501
268.000	211.897	79.995	19.996	103.115	19.970	5.762	0.487
270.000	212.869	79.994	19.996	103.125	19.964	6.126	0.503
272.000	213.845	79.993	19.996	103.123	19.964	6.154	0.467
274.000	214.812	79.995	19.996	103.116	19.968	5.899	0.460
276.000	215.822	79.993	19.996	103.110	19.966	5.985	0.474
278.000	216.830	79.993	19.997	103.109	19.963	6.220	0.507
280.000	217.770	79.993	19.996	103.104	19.960	6.415	0.479
282.000	218.793	79.992	19.997	103.110	19.955	6.782	0.509
284.000	219.791	79.992	19.997	103.116	19.955	6.758	0.500
286.001	220.760	79.992	19.996	103.114	19.956	6.681	0.497
288.000	221.714	79.992	19.997	103.114	19.953	6.907	0.470
290.000	222.749	79.993	19.996	103.118	19.953	6.928	0.527
292.001	223.708	79.994	19.996	103.114	19.952	7.011	0.495
294.000	224.659	79.992	19.994	103.113	19.949	7.185	0.488
296.000	225.646	79.994	19.996	103.119	19.948	7.242	0.482
298.000	226.652	79.994	19.996	103.122	19.949	7.210	0.501
300.000	227.640	79.991	19.997	103.124	19.948	7.279	0.497
302.000	228.612	79.991	19.996	103.107	19.949	7.221	0.495
304.000	229.622	79.991	19.996	103.110	19.952	7.025	0.462
306.000	230.638	79.991	19.995	103.098	19.945	7.455	0.509
308.000	231.590	79.991	19.995	103.119	19.945	7.511	0.484
310.000	232.589	79.991	19.995	103.110	19.942	7.680	0.520
312.000	233.591	79.994	19.995	103.099	19.943	7.612	0.485
314.000	234.585	79.992	19.997	103.114	19.944	7.580	0.495
316.000	235.574	79.991	19.996	103.108	19.947	7.368	0.487
318.000	236.588	79.992	19.996	103.106	19.948	7.265	0.484
320.000	237.558	79.992	19.995	103.104	19.946	7.430	0.491
322.000	238.541	79.991	19.994	103.109	19.946	7.410	0.521
324.000	239.526	79.992	19.996	103.095	19.946	7.385	0.488
326.000	240.429	79.993	19.995	103.101	19.946	7.400	0.497
328.000	241.476	79.993	19.994	103.103	19.947	7.308	0.505
330.000	242.436	79.991	19.994	103.092	19.947	7.340	0.489
332.000	243.428	79.991	19.996	103.095	19.950	7.102	0.495
334.000	244.414	79.993	19.995	103.091	19.949	7.234	0.494
336.000	245.431	79.995	19.994	103.088	19.952	7.020	0.526
338.000	246.397	79.991	19.995	103.090	19.955	6.769	0.528
340.000	247.359	79.993	19.995	103.099	19.952	6.983	0.460
342.000	248.358	79.995	19.995	103.093	19.954	6.883	0.469
344.000	249.353	79.992	19.995	103.096	19.954	6.862	0.494
346.000	250.391	79.991	19.996	103.092	19.950	7.136	0.519
348.000	251.376	79.994	19.994	103.086	19.951	7.065	0.498
350.000	252.398	79.992	19.995	103.092	19.953	6.891	0.510
352.000	253.436	79.992	19.996	103.095	19.950	7.146	0.523
354.000	254.398	79.992	19.995	103.093	19.951	7.085	0.477
356.000	255.402	79.994	19.996	103.096	19.948	7.236	0.470
358.000	256.425	79.992	19.996	103.092	19.949	7.186	0.505
360.000	257.380	79.991	19.997	103.096	19.948	7.288	0.478
362.000	258.390	79.993	19.996	103.098	19.947	7.343	0.513
364.000	259.412	79.993	19.996	103.095	19.946	7.412	0.527
366.000	260.395	79.995	19.995	103.090	19.947	7.357	0.481
368.001	261.420	79.994	19.997	103.090	19.943	7.635	0.528
370.000	262.400	79.995	19.996	103.089	19.940	7.797	0.476
372.000	263.463	79.995	19.996	103.091	19.941	7.731	0.535
374.000	264.451	79.993	19.996	103.089	19.938	7.948	0.495
376.000	265.479	79.992	19.996	103.086	19.937	8.031	0.535
378.000	266.511	79.993	19.997	103.087	19.937	8.044	0.537
380.000	267.482	79.989	19.998	103.086	19.936	8.079	0.466
382.000	268.550	79.994	19.996	103.085	19.937	8.052	0.524
384.000	269.519	79.992	19.995	103.086	19.932	8.360	0.490
386.000	270.551	79.993	19.995	103.086	19.933	8.338	0.502
388.000	271.605	79.994	19.995	103.087	19.932	8.363	0.530
390.000	272.600	79.992	19.995	103.087	19.931	8.448	0.495
392.000	273.610	79.994	19.995	103.087	19.934	8.240	0.522
394.000	274.593	79.992	19.997	103.088	19.935	8.185	0.489
396.000	275.654	79.992	19.996	103.087	19.930	8.503	0.495
398.000	276.687	79.994	19.995	103.085	19.937	8.044	0.498
400.000	277.707	79.993	19.995	103.086	19.934	8.232	0.503
402.000	278.711	79.991	19.996	103.087	19.938	7.974	0.512
404.000	279.684	79.992	19.996	103.087	19.935	8.199	0.439
406.000	280.773	79.993	19.995	103.088	19.939	7.931	0.525
408.000	281.840	79.992	19.995	103.090	19.939	7.917	0.545
410.000	282.839	79.991	19.995	103.088	19.939	7.870	0.500
412.000	283.876	79.993	19.995	103.090	19.944	7.529	0.506
414.000	284.893	79.994	19.994	103.091	19.945	7.484	0.496
416.000	285.927	79.993	19.995	103.090	19.949	7.198	0.494
418.000	286.931	79.992	19.995	103.092	19.948	7.291	0.501
420.000	287.986	79.995	19.994	103.092	19.950	7.108	0.541
422.000	288.970	79.994	19.995	103.093	19.952	6.985	0.486
424.000	290.017	79.994	19.995	103.091	19.952	6.998	0.506
426.000	291.079	79.994	19.995	103.086	19.958	6.581	0.499
428.000	292.111	79.994	19.995	103.091	19.956	6.739	0.524
430.000	293.152	79.994	19.995	103.087	19.958	6.594	0.525
432.000	294.154	79.993	19.994	103.086	19.959	6.506	0.480
434.000	295.172	79.991	19.996	103.089	19.963	6.250	0.495
436.000	296.173	79.994	19.996	103.087	19.962	6.285	0.490
438.000	297.197	79.994	19.997	103.085	19.964	6.179	0.490
440.000	298.211	79.993	19.996	103.070	19.966	6.021	0.502
442.000	299.235	79.994	19.995	103.082	19.967	5.966	0.483
444.000	300.264	79.996	19.996	103.079	19.969	5.821	0.509
446.000	301.270	79.995	19.996	103.086	19.970	5.762	0.511
448.000	302.269	79.996	19.996	103.085	19.970	5.711	0.518
450.000	303.296	79.997	19.994	103.081	19.972	5.609	0.525
452.000	304.296	79.995	19.996	103.080	19.971	5.654	0.501
454.000	305.292	79.995	19.997	103.084	19.970	5.748	0.490
456.000	306.327	79.994	19.997	103.087	19.971	5.654	0.503
458.000	307.329	79.992	19.997	103.077	19.970	5.726	0.503
460.000	308.346	79.993	19.995	103.078	19.973	5.501	0.534
462.000	309.361	79.992	19.996	103.078	19.971	5.649	0.482
464.000	310.309	79.992	19.997	103.081	19.975	5.357	0.486
466.000	311.344	79.994	19.996	103.071	19.973	5.533	0.459
468.000	312.350	79.991	19.996	103.077	19.970	5.751	0.521
470.000	313.360	79.991	19.997	103.069	19.973	5.548	0.497
472.000	314.395	79.994	19.995	103.080	19.973	5.531	0.503
474.000	315.404	79.994	19.994	103.085	19.971	5.646	0.504
476.000	316.388	79.994	19.995	103.085	19.970	5.746	0.499
478.000	317.387	79.994	19.995	103.085	19.971	5.633	0.502
480.000	318.405	79.991	19.995	103.082	19.969	5.801	0.510
482.000	319.386	79.994	19.996	103.071	19.970	5.732	0.490
484.000	320.369	79.992	19.995	103.077	19.966	6.024	0.486
486.000	321.368	79.992	19.997	103.072	19.968	5.854	0.519
488.000	322.373	79.990	19.996	103.078	19.965	6.097	0.520
490.000	323.373	79.990	19.996	103.080	19.965	6.111	0.479
492.000	324.356	79.992	19.995	103.070	19.959	6.492	0.475
494.000	325.339	79.994	19.994	103.072	19.962	6.266	0.487
496.000	326.376	79.994	19.995	103.076	19.959	6.473	0.540
498.000	327.366	79.994	19.996	103.076	19.958	6.579	0.507
500.000	328.345	79.993	19.995	103.082	19.953	6.910	0.497
502.000	329.373	79.993	19.996	103.078	19.954	6.867	0.508
504.000	330.355	79.995	19.995	103.082	19.954	6.881	0.513
506.000	331.330	79.994	19.995	103.083	19.953	6.939	0.493
508.000	332.343	79.995	19.996	103.085	19.950	7.153	0.502
510.000	333.364	79.994	19.996	103.084	19.946	7.421	0.506
512.000	334.367	79.996	19.994	103.083	19.944	7.546	0.482
514.000	335.353	79.993	19.995	103.084	19.943	7.603	0.491
516.000	336.343	79.992	19.996	103.085	19.940	7.801	0.486
518.001	337.398	79.995	19.995	103.084	19.939	7.885	0.538
520.000	338.395	79.993	19.996	103.084	19.937	8.033	0.484
522.000	339.369	79.995	19.996	103.072	19.932	8.375	0.483
524.000	340.380	79.995	19.997	103.081	19.934	8.279	0.527
526.001	341.357	79.995	19.996	103.083	19.931	8.446	0.505
528.000	342.396	79.994	19.995	103.083	19.926	8.810	0.513
530.000	343.381	79.996	19.995	103.072	19.923	9.011	0.494
532.000	344.381	79.993	19.996	103.077	19.923	9.043	0.499
534.000	345.389	79.995	19.995	103.082	19.916	9.513	0.517
536.000	346.414	79.993	19.995	103.083	19.910	9.899	0.506
538.000	347.396	79.992	19.995	103.087	19.911	9.826	0.503
540.000	348.434	79.991	19.995	103.084	19.907	10.143	0.507
542.000	349.436	79.991	19.995	103.083	19.905	10.251	0.504
544.000	350.458	79.991	19.996	103.088	19.901	10.582	0.506
546.000	351.483	79.993	19.996	103.087	19.899	10.721	0.520
548.000	352.461	79.991	19.996	103.084	19.894	11.075	0.483
550.000	353.493	79.991	19.996	103.087	19.891	11.267	0.494
552.000	354.532	79.992	19.996	103.077	19.889	11.412	0.500
554.000	355.519	79.990	19.997	103.086	19.881	11.932	0.490
556.000	356.570	79.991	19.996	103.081	19.876	12.295	0.532
558.000	357.594	79.993	19.996	103.088	19.872	12.604	0.523
560.000	358.573	79.991	19.996	103.091	19.867	12.916	0.517
562.000	359.612	79.994	19.995	103.089	19.863	13.202	0.475
564.000	360.616	79.992	19.996	103.102	19.855	13.779	0.510
566.000	361.659	79.992	19.995	103.090	19.852	13.999	0.478
568.000	362.631	79.992	19.996	103.087	19.846	14.377	0.506
570.000	363.647	79.992	19.994	103.089	19.839	14.908	0.489
572.000	364.664	79.993	19.995	103.089	19.834	15.243	0.526
574.000	365.688	79.993	19.996	103.087	19.828	15.659	0.530
576.000	366.690	79.993	19.996	103.087	19.818	16.326	0.482
578.000	367.667	79.994	19.996	103.089	19.815	16.537	0.492
580.000	368.701	79.992	19.996	103.092	19.807	17.122	0.479
582.000	369.691	79.994	19.996	103.091	19.798	17.788	0.468
584.000	370.726	79.995	19.994	103.094	19.790	18.335	0.526
586.000	371.731	79.994	19.995	103.093	19.780	19.007	0.501
588.000	372.778	79.995	19.996	103.095	19.770	19.743	0.552
590.000	373.775	79.995	19.996	103.099	19.761	20.345	0.504
592.000	374.780	79.994	19.996	103.090	19.748	21.229	0.502
594.000	375.782	79.996	19.995	103.116	19.742	21.673	0.504
596.000	376.777	79.994	19.996	103.103	19.730	22.489	0.502
598.000	377.791	79.992	19.995	103.106	19.719	23.283	0.494
600.000	378.797	79.993	19.996	103.092	19.708	24.027	0.517
602.000	379.796	79.995	19.995	103.115	19.693	25.098	0.479
604.000	380.811	79.995	19.997	103.122	19.684	25.745	0.516
606.000	381.783	79.994	19.996	103.110	19.674	26.451	0.470
608.000	382.829	79.996	19.996	103.097	19.656	27.673	0.541
610.000	383.795	79.994	19.996	103.105	19.642	28.704	0.508
612.000	384.827	79.993	19.996	103.121	19.625	29.841	0.497
614.000	385.873	79.992	19.996	103.125	19.612	30.783	0.523
616.001	386.860	79.991	19.996	103.128	19.591	32.264	0.493
618.000	387.901	79.993	19.996	103.129	19.575	33.395	0.523
620.000	388.897	79.993	19.995	103.129	19.560	34.426	0.485
622.000	389.935	79.993	19.994	103.129	19.538	35.959	0.514
624.001	390.931	79.992	19.996	103.130	19.519	37.314	0.495
626.000	391.903	79.993	19.997	103.129	19.498	38.768	0.493
628.000	392.953	79.991	19.996	103.129	19.477	40.235	0.524
630.000	393.954	79.993	19.997	103.130	19.455	41.783	0.510
632.000	394.973	79.993	19.996	103.137	19.431	43.477	0.515
634.000	395.964	79.993	19.997	103.130	19.401	45.577	0.499
636.000	396.974	79.994	19.996	103.135	19.376	47.295	0.481
638.000	397.983	79.992	19.995	103.146	19.352	48.999	0.491
640.000	399.015	79.992	19.996	103.150	19.328	50.676	0.523
642.000	399.993	79.993	19.997	103.152	19.295	52.960	0.494
644.000	401.005	79.993	19.996	103.157	19.270	54.731	0.507
646.001	401.997	79.992	19.996	103.158	19.240	56.846	0.475
648.000	403.011	79.992	19.995	103.164	19.208	59.031	0.503
650.000	404.022	79.993	19.996	103.164	19.174	61.438	0.491
652.000	405.077	79.992	19.996	103.166	19.140	63.797	0.508
654.000	406.090	79.992	19.996	103.166	19.106	66.205	0.514
656.000	407.111	79.993	19.995	103.169	19.067	68.960	0.520
658.000	408.121	79.993	19.995	103.179	19.033	71.351	0.503
660.000	409.102	79.993	19.995	103.183	18.993	74.138	0.497
662.000	410.091	79.994	19.997	103.167	18.955	76.803	0.491
664.000	411.066	79.994	19.995	103.172	18.925	78.889	0.512
666.000	412.074	79.995	19.994	103.186	18.887	81.523	0.493
668.000	413.109	79.995	19.994	103.201	18.853	83.955	0.530
670.001	414.073	79.992	19.994	103.204	18.822	86.125	0.496
672.000	415.042	79.994	19.994	103.206	18.788	88.451	0.496
674.000	416.018	79.994	19.994	103.207	18.756	90.697	0.493
676.000	417.016	79.994	19.995	103.207	18.728	92.720	0.486
678.000	418.063	79.992	19.995	103.206	18.701	94.553	0.540
680.000	419.043	79.995	19.994	103.212	18.679	96.125	0.490
682.000	420.065	79.995	19.994	103.210	18.657	97.638	0.512
684.000	421.097	79.995	19.995	103.211	18.638	98.986	0.507
686.000	422.070	79.995	19.994	103.215	18.621	100.157	0.531
688.000	423.051	79.996	19.994	103.212	18.611	100.870	0.481
690.000	424.071	79.994	19.995	103.205	18.605	101.270	0.509
692.000	425.058	79.993	19.997	103.206	18.605	101.298	0.494
694.000	426.101	79.993	19.995	103.203	18.604	101.359	0.529
696.000	427.145	79.993	19.996	103.204	18.611	100.825	0.535
698.000	428.133	79.993	19.996	103.202	18.621	100.129	0.518
700.000	429.126	79.992	19.995	103.203	18.639	98.863	0.512
702.000	430.140	79.993	19.996	103.205	18.659	97.453	0.494
704.000	431.170	79.993	19.998	103.204	18.684	95.706	0.503
706.000	432.183	79.993	19.996	103.194	18.710	93.903	0.512
708.000	433.174	79.994	19.996	103.195	18.744	91.536	0.511
710.000	434.175	79.993	19.997	103.179	18.785	88.683	0.501
712.000	435.163	79.993	19.996	103.171	18.823	85.968	0.476
714.000	436.198	79.993	19.995	103.176	18.866	83.000	0.509
716.000	437.207	79.993	19.997	103.176	18.914	79.617	0.514
718.000	438.199	79.993	19.996	103.173	18.964	76.091	0.504
720.000	439.138	79.992	19.996	103.166	19.016	72.434	0.476
722.000	440.157	79.993	19.997	103.168	19.071	68.602	0.484
724.000	441.176	79.991	19.996	103.159	19.129	64.581	0.496
726.000	442.179	79.991	19.997	103.153	19.183	60.782	0.488
728.000	443.209	79.992	19.996	103.142	19.240	56.797	0.535
730.000	444.230	79.992	19.996	103.127	19.299	52.696	0.526
732.000	445.245	79.993	19.996	103.128	19.356	48.663	0.525
734.000	446.207	79.992	19.995	103.128	19.406	45.165	0.527
736.000	447.230	79.993	19.996	103.127	19.461	41.288	0.494
738.001	448.278	79.993	19.996	103.116	19.516	37.502	0.527
740.000	449.241	79.994	19.995	103.115	19.569	33.765	0.486
742.000	450.269	79.994	19.996	103.104	19.620	30.182	0.492
744.000	451.307	79.995	19.995	103.092	19.664	27.151	0.502
746.000	452.288	79.994	19.996	103.092	19.707	24.129	0.524
748.000	453.266	79.994	19.994	103.090	19.743	21.576	0.449
750.000	454.318	79.993	19.996	103.091	19.779	19.099	0.524
752.000	455.321	79.994	19.995	103.092	19.805	17.238	0.509
754.000	456.370	79.994	19.995	103.081	19.834	15.240	0.529
756.000	457.350	79.994	19.995	103.060	19.859	13.505	0.516
758.000	458.354	79.993	19.995	103.072	19.879	12.092	0.480
760.000	459.320	79.994	19.995	103.061	19.899	10.666	0.506
762.001	460.309	79.995	19.995	103.065	19.912	9.792	0.496
764.000	461.287	79.996	19.994	103.054	19.927	8.762	0.491
766.000	462.290	79.996	19.995	103.059	19.939	7.912	0.509
768.000	463.284	79.995	19.994	103.052	19.946	7.385	0.503
770.000	464.265	79.994	19.995	103.066	19.955	6.747	0.500
772.000	465.267	79.994	19.995	103.048	19.963	6.220	0.489
774.000	466.270	79.993	19.995	103.048	19.970	5.711	0.492
776.000	467.290	79.994	19.995	103.049	19.973	5.514	0.521
778.000	468.303	79.993	19.995	103.049	19.980	5.038	0.491
780.000	469.297	79.994	19.995	103.048	19.978	5.136	0.516
782.000	470.309	79.992	19.995	103.048	19.985	4.709	0.483
784.000	471.353	79.993	19.995	103.048	19.985	4.668	0.483
786.000	472.403	79.993	19.994	103.052	19.989	4.413	0.549
788.000	473.362	79.992	19.996	103.049	19.987	4.511	0.486
790.000	474.420	79.991	19.997	103.047	19.993	4.108	0.533
792.000	475.447	79.993	19.995	103.045	19.994	4.076	0.489
794.000	476.452	79.992	19.995	103.049	19.994	4.019	0.506
796.000	477.474	79.992	19.996	103.048	19.994	4.066	0.521
798.000	478.468	79.991	19.997	103.045	19.998	3.806	0.489
800.000	479.478	79.992	19.996	103.051	20.003	3.419	0.498
802.000	480.507	79.994	19.995	103.039	20.000	3.651	0.527
804.000	481.556	79.992	19.997	103.047	20.001	3.592	0.539
806.000	482.590	79.993	19.996	103.039	20.003	3.438	0.517
808.000	483.557	79.991	19.997	103.045	20.002	3.499	0.485
810.000	484.605	79.992	19.995	103.050	20.001	3.540	0.527
812.000	485.610	79.992	19.997	103.047	20.004	3.330	0.512
814.000	486.649	79.992	19.996	103.039	20.005	3.317	0.544
816.000	487.634	79.994	19.997	103.040	20.004	3.322	0.496
818.000	488.656	79.993	19.997	103.046	20.003	3.413	0.490
820.000	489.637	79.994	19.997	103.045	20.003	3.422	0.495
822.000	490.720	79.994	19.997	103.040	20.003	3.434	0.527
824.000	491.740	79.995	19.997	103.043	20.002	3.489	0.511
826.000	492.746	79.994	19.995	103.045	20.000	3.616	0.498
828.000	493.770	79.994	19.995	103.044	19.999	3.677	0.554
830.000	494.849	79.993	19.994	103.045	19.999	3.678	0.542
832.000	495.886	79.993	19.994	103.033	20.000	3.612	0.530
834.000	496.915	79.995	19.995	103.043	20.001	3.565	0.515
836.000	497.928	79.995	19.996	103.045	20.001	3.532	0.499
838.000	498.929	79.994	19.995	103.043	20.000	3.604	0.501
840.000	499.971	79.995	19.995	103.035	20.001	3.597	0.511
842.001	500.962	79.995	19.996	103.035	20.002	3.477	0.463
844.000	502.009	79.995	19.996	103.039	19.999	3.695	0.502
846.000	503.013	79.996	19.996	103.043	19.999	3.685	0.503
848.000	504.056	79.994	19.995	103.045	20.003	3.446	0.506
850.000	505.074	79.993	19.995	103.045	20.003	3.407	0.483
852.000	506.140	79.993	19.995	103.045	20.003	3.450	0.534
854.000	507.139	79.993	19.995	103.044	20.004	3.332	0.480
856.000	508.181	79.992	19.995	103.047	20.004	3.318	0.497
858.000	509.239	79.993	19.995	103.048	20.004	3.328	0.550
860.000	510.273	79.993	19.995	103.050	20.008	3.070	0.522
862.000	511.307	79.992	19.995	103.049	20.005	3.256	0.546
864.000	512.295	79.992	19.995	103.050	20.005	3.291	0.494
866.000	513.351	79.992	19.995	103.042	20.006	3.227	0.526
868.000	514.430	79.992	19.995	103.029	20.007	3.152	0.576
870.000	515.441	79.993	19.995	103.041	20.006	3.230	0.505
872.000	516.478	79.991	19.996	103.051	20.010	2.937	0.521
874.000	517.545	79.993	19.996	103.050	20.006	3.223	0.538
876.000	518.550	79.993	19.997	103.048	20.004	3.352	0.524
878.000	519.577	79.994	19.996	103.042	20.005	3.316	0.526
880.000	520.636	79.993	19.996	103.044	20.006	3.187	0.492
882.000	521.659	79.992	19.996	103.042	20.006	3.205	0.496
884.000	522.714	79.993	19.995	103.044	20.003	3.395	0.512
886.000	523.771	79.993	19.996	103.042	20.003	3.395	0.551
888.000	524.798	79.991	19.996	103.045	20.008	3.067	0.530
890.000	525.809	79.991	19.996	103.038	20.007	3.166	0.494
892.000	526.891	79.993	19.996	103.045	20.007	3.150	0.527
894.000	527.952	79.993	19.996	103.031	20.009	3.015	0.536
896.000	528.969	79.994	19.997	103.041	20.009	2.980	0.526
898.000	530.011	79.995	19.996	103.036	20.012	2.817	0.548
900.000	531.050	79.994	19.996	103.033	20.011	2.862	0.530
902.000	532.088	79.994	19.998	103.041	20.011	2.875	0.532
904.000	533.094	79.994	19.997	103.039	20.013	2.717	0.522
906.000	534.162	79.994	19.997	103.042	20.009	2.996	0.535
908.001	535.213	79.994	19.997	103.042	20.014	2.670	0.531
910.000	536.272	79.995	19.998	103.044	20.011	2.847	0.545
912.000	537.319	79.994	19.996	103.034	20.009	2.994	0.520
914.000	538.349	79.994	19.996	103.029	20.014	2.680	0.508
916.000	539.412	79.994	19.996	103.048	20.010	2.965	0.511
918.000	540.478	79.995	19.996	103.046	20.009	2.986	0.528
920.000	541.484	79.994	19.996	103.045	20.012	2.785	0.552
922.000	542.507	79.995	19.994	103.049	20.016	2.492	0.525
924.000	543.552	79.996	19.995	103.033	20.012	2.823	0.523
926.000	544.542	79.996	19.995	103.020	20.014	2.631	0.485
928.000	545.575	79.995	19.996	103.035	20.011	2.831	0.509
930.000	546.591	79.993	19.995	103.031	20.014	2.682	0.511
932.000	547.629	79.992	19.995	103.027	20.013	2.741	0.514
934.000	548.681	79.991	19.995	103.046	20.015	2.588	0.502
936.000	549.727	79.992	19.996	103.040	20.013	2.715	0.558
938.000	550.728	79.993	19.995	103.040	20.012	2.787	0.494
940.000	551.753	79.993	19.995	103.031	20.014	2.678	0.514
942.000	552.758	79.993	19.995	103.032	20.017	2.441	0.508
944.000	553.813	79.995	19.997	103.019	20.015	2.616	0.536
946.000	554.835	79.994	19.995	103.025	20.015	2.604	0.517
948.000	555.861	79.994	19.995	103.022	20.014	2.660	0.522
950.000	556.918	79.995	19.995	103.029	20.017	2.451	0.541
952.000	557.908	79.994	19.997	103.029	20.018	2.351	0.522
954.000	558.936	79.994	19.997	103.046	20.018	2.404	0.548
956.000	559.931	79.994	19.997	103.040	20.019	2.283	0.513
958.000	560.991	79.993	19.997	103.033	20.015	2.573	0.526
960.000	561.995	79.993	19.996	103.019	20.019	2.335	0.519
962.000	563.014	79.993	19.996	103.041	20.017	2.477	0.508
964.000	564.063	79.993	19.997	103.034	20.018	2.355	0.522
966.000	565.058	79.993	19.996	103.043	20.019	2.310	0.507
968.000	566.100	79.992	19.994	103.041	20.016	2.545	0.521
970.001	567.144	79.995	19.997	103.034	20.019	2.337	0.511
972.000	568.126	79.991	19.996	103.026	20.013	2.704	0.488
974.000	569.166	79.994	19.996	103.045	20.016	2.545	0.497
976.000	570.214	79.996	19.996	103.043	20.016	2.545	0.554
978.000	571.261	79.995	19.996	103.033	20.016	2.494	0.519
980.000	572.270	79.995	19.996	103.040	20.014	2.635	0.516
982.000	573.326	79.995	19.995	103.030	20.018	2.404	0.541
984.000	574.377	79.993	19.995	103.039	20.019	2.327	0.554
986.000	575.410	79.993	19.996	103.038	20.016	2.494	0.523
988.000	576.400	79.993	19.997	103.028	20.015	2.559	0.486
990.000	577.467	79.994	19.998	103.025	20.017	2.429	0.507
992.000	578.458	79.993	19.997	103.014	20.016	2.486	0.528
994.000	579.485	79.994	19.996	103.016	20.018	2.394	0.502
996.000	580.514	79.993	19.996	103.028	20.018	2.343	0.522
998.000	581.513	79.995	19.995	103.039	20.013	2.690	0.496
1000.000	582.536	79.995	19.996	103.029	20.015	2.602	0.537
1002.000	583.531	79.997	19.995	103.033	20.016	2.521	0.509
1004.000	584.574	79.996	19.996	103.023	20.019	2.298	0.484
1006.000	585.614	79.995	19.997	103.034	20.019	2.304	0.488
1008.000	586.602	79.994	19.997	103.031	20.016	2.516	0.488
1010.000	587.638	79.994	19.996	103.039	20.016	2.484	0.500
1012.000	588.653	79.993	19.996	103.032	20.018	2.404	0.521
1014.000	589.672	79.991	19.995	103.030	20.017	2.415	0.509
1016.000	590.690	79.992	19.995	103.027	20.018	2.390	0.495
1018.000	591.763	79.993	19.995	103.032	20.018	2.385	0.512
1020.000	592.753	79.991	19.997	103.039	20.013	2.719	0.509
1022.000	593.788	79.993	19.995	103.023	20.014	2.637	0.530
1024.000	594.836	79.992	19.996	103.013	20.016	2.531	0.512
1026.000	595.841	79.994	19.994	103.018	20.017	2.461	0.499
1028.000	596.891	79.993	19.995	103.037	20.016	2.492	0.519
1030.000	597.910	79.993	19.996	103.040	20.013	2.737	0.520
1032.000	598.929	79.993	19.996	103.037	20.015	2.594	0.531
1034.000	599.912	79.995	19.996	103.034	20.018	2.370	0.490
1036.002	600.951	79.994	19.994	103.036	20.016	2.519	0.492
1038.001	601.952	79.994	19.996	103.042	20.017	2.467	0.517
1040.000	602.957	79.993	19.995	103.030	20.019	2.331	0.480
1042.000	603.956	79.992	19.996	103.033	20.020	2.214	0.480
1044.000	604.947	79.993	19.996	103.023	20.018	2.365	0.498
1046.001	605.992	79.993	19.996	103.020	20.017	2.443	0.515
1048.000	606.999	79.993	19.997	103.035	20.015	2.565	0.493
1050.000	607.985	79.993	19.996	103.030	20.018	2.387	0.508
1052.000	609.006	79.993	19.997	103.036	20.020	2.255	0.508
1054.000	610.011	79.994	19.997	103.045	20.020	2.247	0.482
1056.000	610.984	79.994	19.997	103.036	20.019	2.306	0.458
1058.000	612.019	79.994	19.999	103.036	20.018	2.406	0.528
1060.001	613.043	79.994	19.996	103.041	20.018	2.339	0.516
1062.000	614.030	79.993	19.996	103.046	20.018	2.358	0.488
1064.000	615.050	79.995	19.995	103.039	20.014	2.641	0.503
1066.000	616.075	79.993	19.996	103.031	20.019	2.334	0.520
1068.000	617.074	79.994	19.996	103.013	20.017	2.445	0.501
1070.000	618.023	79.995	19.997	103.023	20.015	2.609	0.480
1072.000	619.033	79.996	19.996	103.010	20.017	2.470	0.491
1074.001	620.059	79.995	19.996	103.012	20.014	2.685	0.532
1076.001	621.065	79.992	19.995	103.035	20.014	2.658	0.504
1078.000	621.988	79.993	19.996	103.027	20.016	2.515	0.487
1080.000	623.021	79.994	19.998	103.032	20.013	2.725	0.509
1082.000	624.013	79.996	19.997	103.015	20.015	2.588	0.511
1084.000	624.969	79.996	19.994	103.013	20.016	2.524	0.512
1086.000	625.919	79.996	19.995	103.009	20.019	2.285	0.476
1088.000	626.883	79.995	19.993	103.009	20.016	2.547	0.475
1090.000	627.951	79.995	19.994	103.031	20.014	2.655	0.526
1092.000	628.934	79.991	19.994	103.045	20.015	2.602	0.500
1094.000	629.980	79.993	19.999	103.048	20.012	2.765	0.495
1096.001	631.035	79.994	19.995	103.046	20.014	2.620	0.534
1098.001	632.098	79.994	19.996	103.047	20.016	2.524	0.518
1100.001	633.209	79.995	19.997	103.049	20.015	2.590	0.577
1102.001	634.291	79.995	19.995	103.048	20.013	2.749	0.578
1104.000	635.389	79.994	19.994	103.052	20.014	2.635	0.540
1106.000	636.534	79.994	19.995	103.053	20.012	2.786	0.575
1108.001	637.614	79.994	19.997	103.049	20.014	2.673	0.532
1110.000	638.737	79.993	19.994	103.049	20.015	2.575	0.543
1112.000	639.875	79.993	19.996	103.052	20.012	2.776	0.535
1114.000	641.025	79.994	19.995	103.055	20.014	2.688	0.565
1116.000	642.123	79.994	19.993	103.048	20.011	2.896	0.506
1118.000	643.227	79.996	19.995	103.051	20.013	2.729	0.545
1120.000	644.327	79.991	19.996	103.051	20.012	2.804	0.548
1122.000	645.453	79.988	19.996	103.051	20.010	2.927	0.573
1124.000	646.558	79.994	19.987	103.053	20.007	3.137	0.567
1126.000	647.677	79.995	19.992	103.056	20.011	2.857	0.573
1128.000	648.762	79.993	19.995	103.054	20.009	2.988	0.565
1130.001	649.863	79.993	19.995	103.053	20.013	2.712	0.520
1132.001	650.979	79.995	19.995	103.049	20.012	2.816	0.540
1134.000	652.041	79.997	19.992	103.049	20.004	3.323	0.513
1136.000	653.107	79.995	19.996	103.051	20.007	3.131	0.522
1138.000	654.290	79.998	19.987	103.049	20.007	3.127	0.560
1140.000	655.374	79.996	19.999	103.047	20.007	3.117	0.561
1142.000	656.447	79.992	19.994	103.062	20.008	3.045	0.544
1144.000	657.533	79.996	19.996	103.059	20.009	2.996	0.549
1146.000	658.631	79.996	19.994	103.056	20.008	3.072	0.545
1148.000	659.694	79.995	19.995	103.049	20.010	2.928	0.526
1150.000	660.773	79.994	19.997	103.045	20.006	3.227	0.546
1152.000	661.853	79.994	19.995	103.048	20.009	3.029	0.535
1154.000	662.952	79.993	19.996	103.049	20.005	3.269	0.555
1156.000	663.977	79.997	19.996	103.049	20.008	3.085	0.520
1158.000	665.041	79.996	19.996	103.058	20.007	3.143	0.544
1160.000	666.099	79.995	19.995	103.072	20.007	3.154	0.556
1162.000	667.150	79.995	19.997	103.063	20.003	3.394	0.528
1164.000	668.211	79.995	19.996	103.068	20.006	3.194	0.512
1166.000	669.259	79.992	19.994	103.084	20.005	3.304	0.508
1168.000	670.327	79.993	19.995	103.084	20.008	3.069	0.504
1170.000	671.402	79.993	19.993	103.056	20.003	3.451	0.528
1172.000	672.403	79.993	19.997	103.070	20.006	3.238	0.492
1174.000	673.439	79.993	19.998	103.081	20.006	3.189	0.507
1176.001	674.512	79.992	19.995	103.088	20.007	3.140	0.530
1178.000	675.560	79.993	19.996	103.087	20.010	2.930	0.529
1180.000	676.631	79.995	19.994	103.084	20.008	3.050	0.543
1182.001	677.611	79.988	20.005	103.089	20.006	3.248	0.499
1184.000	678.718	79.994	19.993	103.086	20.008	3.085	0.550
1186.000	679.741	79.992	19.995	103.094	20.008	3.065	0.513
1188.000	680.761	79.995	19.994	103.090	20.011	2.879	0.508
1190.000	681.834	79.997	19.990	103.090	20.009	2.989	0.516
1192.001	682.833	79.992	20.000	103.093	20.008	3.079	0.526
1194.000	683.832	79.992	19.997	103.093	20.010	2.905	0.495
1196.001	684.876	79.994	19.993	103.091	20.003	3.452	0.522
1198.000	685.916	79.994	19.995	103.091	20.005	3.264	0.504
1200.001	686.911	79.994	19.994	103.093	20.007	3.178	0.482
1202.000	687.972	79.995	19.997	103.097	20.002	3.496	0.516
1204.000	688.958	79.993	19.996	103.093	20.002	3.496	0.468
1206.001	689.996	79.993	19.995	103.107	20.002	3.497	0.522
1208.000	690.978	79.997	19.995	103.113	20.001	3.586	0.490
1210.001	692.008	79.996	19.995	103.123	20.000	3.635	0.502
1212.001	693.053	79.995	19.995	103.124	20.002	3.525	0.515
1214.000	694.039	79.996	19.995	103.124	20.001	3.554	0.489
1216.000	695.067	79.995	19.996	103.124	20.000	3.639	0.522
1218.000	696.048	79.995	19.995	103.123	20.004	3.329	0.508
1220.001	697.022	79.996	19.995	103.130	20.002	3.496	0.514
1222.000	698.222	79.994	19.997	103.137	20.004	3.368	0.803
1224.000	699.104	79.994	19.998	103.129	20.003	3.397	0.822
1226.000	700.089	79.995	19.997	103.128	19.999	3.686	0.505
1228.000	701.089	79.996	19.996	103.130	19.997	3.836	0.517
1230.000	702.143	79.993	19.993	103.132	19.998	3.800	0.520
1232.000	703.173	79.996	19.995	103.129	20.000	3.660	0.522
1234.000	704.186	79.993	19.997	103.142	20.001	3.563	0.538
1236.000	705.265	79.997	19.997	103.159	19.991	4.255	0.506
1238.001	706.295	79.994	19.996	103.150	19.994	4.036	0.504
1240.001	707.310	79.996	19.994	103.153	19.995	3.999	0.477
1242.000	708.378	79.999	19.990	103.160	19.994	4.034	0.535
1244.000	709.403	79.995	19.994	103.166	19.992	4.195	0.539
1246.000	710.468	79.996	19.995	103.162	19.994	4.038	0.518
1248.000	711.509	79.993	19.996	103.165	19.993	4.103	0.541
1250.000	712.536	79.992	19.997	103.166	19.992	4.227	0.514
1252.000	713.564	79.992	19.997	103.171	19.989	4.418	0.512
1254.000	714.648	79.995	19.996	103.168	19.990	4.359	0.537
1256.000	715.718	79.994	19.997	103.165	19.993	4.135	0.550
1258.000	716.733	79.990	19.995	103.166	19.989	4.375	0.506
1260.000	717.808	79.992	19.996	103.170	19.986	4.626	0.536
1262.001	718.859	79.992	20.001	103.195	19.989	4.428	0.559
1264.000	719.874	79.990	20.000	103.200	19.987	4.573	0.514
1266.000	720.917	79.996	19.994	103.200	19.988	4.461	0.537
1268.000	722.005	79.994	19.993	103.205	19.986	4.612	0.590
1270.000	722.943	79.992	19.994	103.203	19.991	4.267	0.466
1272.000	724.012	79.992	19.997	103.200	19.991	4.285	0.538
1274.000	725.029	79.993	19.994	103.202	19.986	4.630	0.530
1276.001	726.067	79.995	19.995	103.204	19.985	4.720	0.533
1278.002	727.091	79.993	19.994	103.209	19.986	4.589	0.520
1280.000	728.135	79.996	19.997	103.207	19.982	4.887	0.513
1282.000	729.138	79.990	19.995	103.205	19.985	4.694	0.489
1284.000	730.124	79.991	20.004	103.212	19.986	4.616	0.502
1286.000	731.157	79.994	19.995	103.211	19.981	4.963	0.502
1288.000	732.197	79.994	19.996	103.205	19.982	4.892	0.520
1290.000	733.235	79.993	19.996	103.222	19.980	5.071	0.529
1292.000	734.212	79.993	19.998	103.228	19.982	4.926	0.515
1294.000	735.213	79.994	19.993	103.241	19.982	4.909	0.534
1296.000	736.204	79.995	19.997	103.238	19.983	4.806	0.508
1298.000	737.226	79.995	19.996	103.243	19.980	5.066	0.520
1300.000	738.213	79.996	19.995	103.243	19.979	5.132	0.524
1302.000	739.212	79.995	19.996	103.243	19.976	5.289	0.492
1304.000	740.213	79.994	19.996	103.238	19.974	5.455	0.513
1306.002	741.204	79.994	19.997	103.213	19.976	5.289	0.494
1308.000	742.234	79.994	19.995	103.208	19.979	5.119	0.530
1310.000	743.216	79.997	19.996	103.236	19.976	5.304	0.512
1311.000	743.713	79.995	19.996	103.243	19.975	5.366	0.493