File: 01_Data/Polyurethane_Foam/Cone/Polyurethane_Foam_Cone_HF25Scan_210324_R1.csv
Names,Time,Stack TC,Smoke TC,Exh Press,Smoke Comp,Smoke Meas,CO Meter,CO2 Meter,O2 Meter,Sample Mass,Ext Coeff,Start Test,Flame Verif
Chan Gain,,500,500,1,1,1,1,1,1,1,1,1.0,1.0
Offset,,0,0,0.194005,0,0,0,0,0,0,0,0.0,0.0
Gain,,1,1,25.011,13.5067,16.616,1,1,1,1.00091,1.04608,1.0,1.0
Units,sec,C,C,Pa,%,%,%,%,%,g,/m,,
Baseline,,16.1463,17.502,169.282,100.327,99.717,0.000408938,0.0666547,20.9096,-1.17916,0.0559596,,
2,0.25,13.9431,14.3503,170.352,101.922,101.285,0.000427152,0.0784394,20.8851,476.244,0.0575051,0.0,0.0
4,0.75,14.0176,15.2022,165.334,101.934,101.36,0.00046251,0.0790905,20.8846,476.224,0.0518312,0.0,0.0
6,1.25,13.7343,15.0883,167.619,101.937,101.205,0.000491149,0.0796179,20.8846,476.224,0.0660931,0.0,0.0
8,1.75,14.0078,15.0659,163.077,101.949,101.465,0.000520136,0.0802213,20.8846,476.214,0.0436228,0.0,0.0
10,2.25,14.4105,15.38,169.805,101.932,101.422,0.000548824,0.0807101,20.8846,476.233,0.0459926,0.0,0.0
12,2.75,14.0299,14.9387,166.496,101.939,101.321,0.000572062,0.081106,20.8846,476.233,0.055794,0.0,0.0
14,3.25,14.5982,15.4761,167.272,101.944,101.246,0.000626344,0.0815623,20.8846,476.244,0.0630474,0.0,0.0
16,3.75,14.5627,15.6082,168.573,101.959,100.678,0.000670312,0.0820539,20.8846,476.233,0.116,0.0,0.0
18,4.25,14.8418,15.6328,167.338,101.944,100.061,0.000735566,0.0826879,20.8846,476.224,0.171,0.0,0.0
20,4.75,14.542,16.1481,169.7,101.949,98.3951,0.000815098,0.0834136,20.8803,476.214,0.32561,0.0,0.0
22,5.25,14.211,15.8327,177.746,101.946,98.351,0.000921481,0.0840014,20.8767,476.133,0.329428,0.0,1.0
24,5.75,14.2558,15.9003,165.718,101.968,99.0234,0.00104542,0.0865744,20.8585,476.083,0.268912,0.0,1.0
26,6.25,14.4029,16.5467,159.57,101.947,97.1655,0.00120017,0.0886585,20.8437,476.043,0.440823,0.0,1.0
28,6.75,15.3412,17.3375,158.857,101.944,97.6888,0.00137444,0.0924772,20.8142,476.013,0.391276,0.0,1.0
30,7.25,16.2556,17.9768,157.293,101.949,96.6716,0.0015156,0.0974879,20.7903,476.053,0.487696,0.0,1.0
32,7.75,16.2027,18.859,157.984,101.943,96.1569,0.00178295,0.10398,20.7663,476.033,0.536199,0.0,1.0
34,8.25,16.7507,19.3299,156.542,101.946,94.2523,0.0019995,0.111429,20.7428,475.903,0.720072,0.0,1.0
36,8.75,17.2349,20.1335,157.58,101.933,93.2731,0.00234469,0.11949,20.7211,475.853,0.814675,0.0,1.0
38,9.25,18.1687,20.8041,154.968,101.931,92.9116,0.0026243,0.127844,20.7013,475.803,0.850165,0.0,1.0
40,9.75,17.864,20.8602,158.807,101.939,91.6033,0.00285078,0.136459,20.6853,475.723,0.980957,0.0,1.0
42,10.25,18.2692,21.4523,158.525,101.929,91.7281,0.00327223,0.145101,20.6706,475.703,0.967617,0.0,0.0
44,10.75,17.9635,21.9493,154.963,101.925,92.6124,0.0036136,0.152101,20.6573,475.653,0.879165,0.0,0.0
46,11.25,18.9528,22.7596,156.282,101.921,93.4623,0.00402159,0.15999,20.6447,475.603,0.795047,0.0,0.0
48,11.75,19.4968,23.4517,155.782,101.915,90.8214,0.00435207,0.168378,20.6329,475.563,1.0575,0.0,0.0
50,12.25,20.3994,22.5217,160.275,101.9,92.257,0.00470515,0.177152,20.6221,475.543,0.912263,0.0,0.0
52,12.75,20.0804,23.9274,158.444,101.905,90.5516,0.00499114,0.186042,20.6123,475.513,1.08387,0.0,0.0
54,13.25,20.244,24.5168,153.436,101.896,89.7287,0.00528444,0.193242,20.6014,475.453,1.16684,0.0,0.0
56,13.75,19.1491,24.9942,158.351,101.895,91.7803,0.00552202,0.202826,20.5899,475.443,0.95935,0.0,0.0
58,14.25,20.4456,25.8265,156.916,101.867,89.4629,0.00578883,0.210589,20.5805,475.413,1.19145,0.0,0.0
60,14.75,20.7479,26.9346,158.091,101.871,87.5523,0.00600494,0.218221,20.5716,475.323,1.38992,0.0,0.0
62,15.25,21.5085,26.4693,157.135,101.863,91.6135,0.00625315,0.225612,20.5644,475.313,0.973149,0.0,0.0
64,15.75,21.0232,26.795,154.717,101.857,91.3305,0.00652005,0.234085,20.5564,475.283,1.00101,0.0,0.0
66,16.25,22.0046,27.2376,154.823,101.848,87.9833,0.00673623,0.240947,20.5499,475.163,1.34274,0.0,0.0
68,16.75,22.1487,27.5046,155.91,101.838,88.8144,0.00702696,0.24877,20.5446,475.153,1.25558,0.0,0.0
70,17.25,22.5118,28.1644,162.811,101.831,89.8007,0.00736651,0.255105,20.5363,475.122,1.15365,0.0,0.0
72,17.75,22.2539,29.1248,150.348,101.822,87.2992,0.0077504,0.261754,20.5295,475.062,1.41206,0.0,0.0
74,18.25,23.0054,28.3828,149.575,101.812,87.6806,0.00815933,0.268503,20.5205,474.982,1.37114,0.0,0.0
76,18.75,23.4651,29.1111,151.746,101.807,88.1633,0.00849056,0.27397,20.5132,474.932,1.32031,0.0,0.0
78,19.25,23.4695,29.4887,152.547,101.8,87.0422,0.00895392,0.281404,20.5033,474.882,1.43715,0.0,0.0
80,19.75,23.9351,30.0494,159.736,101.8,86.6765,0.00932924,0.287425,20.4953,474.822,1.47578,0.0,0.0
82,20.25,24.4422,30.2664,151.863,101.786,86.0062,0.00982023,0.29396,20.4856,474.702,1.54572,0.0,0.0
84,20.75,24.5417,31.0869,152.391,101.763,85.5924,0.0102179,0.300745,20.4749,474.662,1.58793,0.0,0.0
86,21.25,24.5154,31.298,154.956,101.748,86.205,0.0106643,0.30624,20.4632,474.642,1.52112,0.0,0.0
88,21.75,24.9731,31.6643,156.182,101.74,83.7857,0.0110259,0.313702,20.451,474.572,1.78165,0.0,0.0
90,22.25,25.0555,31.8805,158.619,101.721,84.9266,0.0113915,0.319746,20.4411,474.522,1.65576,0.0,0.0
92,22.75,25.3499,32.7956,150.451,101.718,81.2549,0.0116876,0.327282,20.4331,474.422,2.06109,0.0,0.0
94,23.25,25.8371,32.874,157.268,101.707,85.1147,0.0119275,0.333387,20.4248,474.402,1.63426,0.0,0.0
96,23.75,26.2116,33.1305,153.706,101.695,83.1721,0.0121217,0.340657,20.4182,474.372,1.84501,0.0,0.0
98,24.25,26.4533,33.5416,159.395,101.692,86.2841,0.0122908,0.346547,20.4127,474.352,1.50764,0.0,0.0
100,24.75,26.6728,34.6629,153.697,101.669,84.6609,0.0124277,0.353548,20.4081,474.232,1.6799,0.0,0.0
102,25.25,27.0481,34.5428,149.159,101.665,83.1929,0.0125195,0.35922,20.4044,474.262,1.84,0.0,0.0
104,25.75,27.1788,34.888,155.676,101.646,86.2349,0.0125767,0.363813,20.3997,474.092,1.50878,0.0,0.0
106,26.25,27.0075,35.0539,152.858,101.65,85.8515,0.0125841,0.367534,20.3959,473.971,1.54997,0.0,0.0
108,26.75,27.5499,35.4785,150.91,101.626,84.0139,0.012555,0.374751,20.385,474.021,1.74639,0.0,0.0
110,27.25,27.8816,36.0405,153.625,101.618,83.2756,0.0124723,0.380596,20.3762,473.961,1.82668,0.0,0.0
112,27.75,28.3679,36.9222,146.102,101.598,87.0822,0.0123519,0.388941,20.356,473.821,1.41471,0.0,0.0
114,28.25,29.1216,37.2398,146.546,101.601,86.8986,0.0122544,0.395701,20.3395,473.781,1.43437,0.0,0.0
116,28.75,29.1449,38.1454,155.388,101.576,90.7961,0.0119898,0.403085,20.323,473.761,1.02951,0.0,0.0
118,29.25,29.7857,38.5527,151.75,101.562,90.2662,0.0117755,0.410784,20.3067,473.731,1.08192,0.0,0.0
120,29.75,30.0884,39.6656,150.094,101.554,90.149,0.011421,0.418464,20.2926,473.651,1.09316,0.0,0.0
122,30.25,30.6774,40.2658,158.285,101.543,91.5967,0.0111338,0.425983,20.2803,473.551,0.945929,0.0,0.0
124,30.75,31.0904,40.9417,151.805,101.522,92.2681,0.0109012,0.433357,20.2703,473.491,0.877053,0.0,0.0
126,31.25,31.4709,41.6134,145.701,101.516,94.7634,0.0104767,0.440484,20.2596,473.461,0.631591,0.0,0.0
128,31.75,32.0321,42.3511,139.868,101.503,92.8736,0.0101328,0.446258,20.251,473.271,0.815323,0.0,0.0
130,32.25,32.5347,43.2445,147.392,101.491,94.442,0.00969932,0.454044,20.2417,473.261,0.660575,0.0,0.0
132,32.75,32.8964,43.8597,146.484,101.479,93.9212,0.00934821,0.460351,20.232,473.161,0.710159,0.0,0.0
134,33.25,33.3721,44.6904,137.24,101.47,94.4719,0.00896381,0.466918,20.2222,473.181,0.655731,0.0,0.0
136,33.75,33.8771,45.6946,139.536,101.46,94.3943,0.00865245,0.47355,20.2123,473.121,0.662375,0.0,0.0
138,34.25,34.645,46.348,140.946,101.447,94.2244,0.00833583,0.478922,20.2001,473.031,0.677747,0.0,0.0
140,34.75,35.1614,47.4445,141.283,101.436,95.4657,0.00807936,0.486611,20.1865,472.971,0.556643,0.0,0.0
142,35.25,35.8804,48.1799,140.169,101.417,95.6163,0.00782748,0.492839,20.1755,472.87,0.540426,0.0,0.0
144,35.75,36.2788,48.814,140.594,101.408,94.4972,0.00762346,0.500788,20.16,472.84,0.647676,0.0,0.0
146,36.25,36.7486,49.9773,145.953,101.395,95.482,0.0074582,0.507227,20.1475,472.75,0.551354,0.0,0.0
148,36.75,37.5162,50.8698,140.243,101.389,96.666,0.0072916,0.515506,20.1294,472.7,0.437705,0.0,0.0
150,37.25,38.2642,51.6957,139.946,101.385,96.0337,0.00715666,0.522212,20.1148,472.63,0.497552,0.0,0.0
152,37.75,38.716,53.2352,144.629,101.371,96.9855,0.00703476,0.531166,20.1029,472.59,0.405825,0.0,0.0
154,38.25,39.5142,53.8641,139.235,101.371,97.1787,0.00692469,0.538419,20.0852,472.43,0.387603,0.0,0.0
156,38.75,40.0487,55.2245,137.565,101.344,97.9073,0.00683553,0.544294,20.0708,472.38,0.316591,0.0,0.0
158,39.25,41.0926,56.1233,133.722,101.342,97.4383,0.00674444,0.553619,20.0545,472.28,0.36047,0.0,0.0
160,39.75,41.5314,56.9715,139.063,101.341,97.7451,0.00667066,0.561173,20.0371,472.24,0.331512,0.0,0.0
162,40.25,42.5654,58.095,142.108,101.327,94.9992,0.00659076,0.571926,20.0196,472.13,0.591707,0.0,0.0
164,40.75,43.1575,59.1844,138.984,101.318,96.9915,0.00652605,0.580636,20.0023,472.12,0.400473,0.0,0.0
166,41.25,44.0669,60.4478,127.964,101.3,97.741,0.00645604,0.59019,19.9844,472.01,0.32816,0.0,0.0
168,41.75,44.6484,61.5633,134.847,101.291,97.8404,0.00639932,0.600178,19.9663,471.92,0.318012,0.0,0.0
170,42.25,45.5803,62.8521,135.546,101.28,98.1112,0.00633328,0.608268,19.9487,471.85,0.291719,0.0,0.0
172,42.75,45.9893,63.5055,130.851,101.268,98.0392,0.00627979,0.619328,19.9317,471.749,0.297298,0.0,0.0
174,43.25,46.859,64.414,134.475,101.277,98.1097,0.00621385,0.628287,19.9168,471.689,0.291525,0.0,0.0
176,43.75,47.3771,65.6601,148.586,101.25,98.0016,0.00616044,0.638938,19.9037,471.619,0.299205,0.0,0.0
178,44.25,48.0551,66.8503,146.632,101.265,98.3987,0.00611718,0.647566,19.893,471.539,0.263449,0.0,0.0
180,44.75,48.9465,67.6357,132.771,101.23,99.6765,0.00605453,0.657482,19.8835,471.469,0.141876,0.0,0.0
182,45.25,49.3281,68.5379,134.738,101.227,100.337,0.00600378,0.665514,19.8759,471.369,0.0810355,0.0,0.0
184,45.75,50.181,69.9369,133.423,101.216,99.3388,0.0059539,0.674671,19.8696,471.279,0.171785,0.0,0.0
186,46.25,51.1172,70.6457,135.042,101.223,100.375,0.00591349,0.682088,19.8646,471.199,0.0772225,0.0,0.0
188,46.75,51.2083,71.3876,139.311,101.21,98.4661,0.00588076,0.689493,19.8605,471.139,0.252229,0.0,0.0
190,47.25,51.6924,72.2686,131.608,101.207,98.6887,0.00585425,0.696747,19.8572,471.089,0.231209,0.0,0.0
192,47.75,52.3885,72.8615,136.609,101.222,98.8186,0.0058591,0.702622,19.8545,471.009,0.220529,0.0,0.0
194,48.25,52.6204,73.7254,126.741,101.197,99.355,0.00586304,0.709499,19.8523,470.919,0.168568,0.0,0.0
196,48.75,53.3658,74.3736,131.286,101.189,99.9904,0.00588631,0.71507,19.8506,470.859,0.109326,0.0,0.0
198,49.25,53.9566,75.3494,141.104,101.175,99.7029,0.00590516,0.719582,19.8494,470.829,0.134516,0.0,0.0
200,49.75,54.0411,75.9745,134.19,101.157,99.3048,0.0059242,0.724127,19.8503,470.719,0.169579,0.0,0.0
202,50.25,54.3971,76.2742,133.227,101.143,99.391,0.00593962,0.72861,19.8527,470.638,0.160346,0.0,0.0
204,50.75,55.1034,76.8974,128.9,101.118,98.0574,0.00594332,0.732241,19.8571,470.598,0.282022,0.0,0.0
206,51.25,55.4632,77.1703,140.381,101.15,99.0538,0.00594631,0.735452,19.863,470.548,0.192128,0.0,0.0
208,51.75,55.5839,77.4606,139.568,101.141,97.7684,0.00594874,0.738053,19.8678,470.448,0.311166,0.0,0.0
210,52.25,55.6364,77.8281,128.351,101.14,98.3171,0.00590303,0.740035,19.8731,470.398,0.259778,0.0,0.0
212,52.75,56.0694,78.0157,138.171,101.133,98.6791,0.00586599,0.741641,19.8786,470.288,0.225375,0.0,0.0
214,53.25,56.0686,78.2201,141.176,101.134,98.6964,0.00578086,0.742832,19.8833,470.288,0.223884,0.0,0.0
216,53.75,56.3456,78.9695,133.436,101.153,100.747,0.00571191,0.743699,19.8873,470.158,0.0369413,0.0,0.0
218,54.25,56.5884,78.9092,133.423,101.167,98.1259,0.00559849,0.744401,19.8928,470.118,0.280105,0.0,0.0
220,54.75,56.737,78.9794,133.566,101.19,96.8181,0.00550663,0.74439,19.8994,470.038,0.405314,0.0,0.0
222,55.25,56.8668,79.3639,136.464,101.221,99.5716,0.00539972,0.744381,19.9089,469.978,0.150722,0.0,0.0
224,55.75,57.4037,78.7855,133.79,101.238,98.242,0.00531313,0.743678,19.9203,469.918,0.275643,0.0,0.0
226,56.25,56.8156,79.4053,134.398,101.26,99.4489,0.00522925,0.742482,19.9316,469.808,0.165623,0.0,0.0
228,56.75,56.8715,79.1397,138.034,101.275,98.3967,0.00516131,0.740756,19.9427,469.768,0.26457,0.0,0.0
230,57.25,57.259,79.0402,135.093,101.287,99.1776,0.0051089,0.738676,19.9516,469.708,0.19308,0.0,0.0
232,57.75,57.7851,78.6227,138.698,101.337,99.4838,0.00506882,0.736291,19.9593,469.658,0.169378,0.0,0.0
234,58.25,56.5965,78.9744,142.875,101.323,100.078,0.00503636,0.733728,19.9656,469.617,0.113465,0.0,0.0
236,58.75,57.488,78.7257,137.531,101.338,100.594,0.00501335,0.731051,19.9706,469.547,0.0675906,0.0,0.0
238,59.25,57.4666,78.9331,131.605,101.339,99.64,0.00499767,0.728342,19.9769,469.477,0.155133,0.0,0.0
240,59.75,57.7869,78.7536,143.281,101.357,99.4767,0.00498497,0.725378,19.982,469.377,0.171862,0.0,0.0
242,60.25,57.7756,79.0194,146.514,101.387,99.4473,0.00499217,0.722284,19.9886,469.347,0.177225,0.0,0.0
244,60.75,57.1718,79.0149,137.779,101.392,98.884,0.00499801,0.719779,19.9963,469.307,0.22984,0.0,0.0
246,61.25,57.0397,78.9341,150.237,101.4,99.0117,0.00502023,0.716559,20.0046,469.277,0.218735,0.0,0.0
248,61.75,56.4756,78.1304,131.909,101.414,98.2111,0.00503824,0.712879,20.0132,469.237,0.294472,0.0,0.0
250,62.25,57.4837,78.1054,144.853,101.437,96.4627,0.00506282,0.708801,20.022,469.167,0.461354,0.0,0.0
252,62.75,56.6615,78.1577,141.181,101.433,97.3997,0.00508274,0.704511,20.0308,469.107,0.372344,0.0,0.0
254,63.25,56.9575,77.6224,140.983,101.44,97.8186,0.00510262,0.701035,20.0428,468.997,0.333565,0.0,0.0
256,63.75,57.1701,77.708,134.993,101.456,96.8764,0.00511873,0.69589,20.0569,469.047,0.423828,0.0,0.0
258,64.25,56.5994,76.9916,143.691,101.466,97.4865,0.00513243,0.691723,20.0683,468.967,0.367162,0.0,0.0
260,64.75,56.6618,76.7883,144.496,101.496,96.7177,0.00514413,0.685269,20.0893,468.947,0.442453,0.0,0.0
262,65.25,56.3496,76.3391,144.737,101.493,98.5939,0.0051536,0.680042,20.1064,468.897,0.265892,0.0,0.0
264,65.75,56.6962,75.1283,147.739,101.516,97.0494,0.00514942,0.673591,20.1202,468.817,0.412907,0.0,0.0
266,66.25,56.1381,75.2259,147.104,101.518,97.6016,0.00513538,0.66637,20.1464,468.797,0.360992,0.0,0.0
268,66.75,54.8637,75.0402,153.711,101.536,98.348,0.00509968,0.657954,20.1675,468.787,0.292759,0.0,0.0
270,67.25,55.1517,73.4584,156.167,101.52,98.1634,0.00504886,0.648826,20.1978,468.757,0.308544,0.0,0.0
272,67.75,54.5086,72.373,155.658,101.551,98.8049,0.0050077,0.641432,20.2224,468.707,0.251533,0.0,0.0
274,68.25,54.4851,71.5724,151.328,101.545,98.6451,0.00488705,0.629018,20.249,468.727,0.265896,0.0,0.0
276,68.75,53.2834,71.2078,157.12,101.554,99.2075,0.00478933,0.618962,20.2765,468.677,0.214553,0.0,0.0
278,69.25,52.9102,70.0148,150.498,101.567,100.013,0.00463675,0.607058,20.2988,468.717,0.141482,0.0,0.0
280,69.75,51.9469,69.2057,154.889,101.573,100.587,0.00451316,0.594032,20.3238,468.677,0.0894975,0.0,0.0
282,70.25,52.2843,68.1026,156.659,101.576,99.8951,0.00441305,0.580694,20.3501,468.677,0.153111,0.0,0.0
284,70.75,51.4389,67.4285,158.248,101.591,99.6167,0.00428361,0.567381,20.3715,468.637,0.180095,0.0,0.0
286,71.25,51.4314,66.0611,153.13,101.592,99.3743,0.00413524,0.556598,20.3946,468.627,0.202487,0.0,0.0
288,71.75,50.4481,65.7876,154.095,101.601,99.4134,0.00400005,0.542015,20.4133,468.597,0.199701,0.0,0.0
290,72.25,50.6636,64.5695,155.022,101.599,99.7749,0.00387704,0.530203,20.4333,468.587,0.166279,0.0,0.0
292,72.75,49.8771,64.267,154.964,101.616,100.131,0.0037774,0.520635,20.4494,468.547,0.135042,0.0,0.0
294,73.25,49.665,63.0061,150.08,101.61,99.1923,0.00366932,0.506441,20.4626,468.526,0.220987,0.0,0.0
296,73.75,48.9532,62.8443,155.561,101.615,99.1507,0.00355714,0.494944,20.4784,468.567,0.225281,0.0,0.0
298,74.25,49.2094,61.7292,154.723,101.624,99.1477,0.00345065,0.485631,20.4913,468.506,0.226344,0.0,0.0
300,74.75,48.1564,61.5007,153.42,101.64,99.5325,0.00335033,0.472744,20.5101,468.516,0.192281,0.0,0.0
302,75.25,46.7851,61.1071,157.254,101.643,99.7774,0.00325866,0.462305,20.5253,468.536,0.169991,0.0,0.0
304,75.75,46.6576,60.6852,154.155,101.647,100.193,0.00317504,0.451307,20.5441,468.506,0.132202,0.0,0.0
306,76.25,46.1225,59.7778,158.035,101.647,100.197,0.00310276,0.44011,20.5595,468.496,0.13184,0.0,0.0
308,76.75,45.7133,59.4338,160.388,101.651,100.091,0.00304011,0.428491,20.5806,468.496,0.141914,0.0,0.0
310,77.25,45.451,57.9492,153.753,101.664,100.116,0.00298092,0.416785,20.5978,468.496,0.140752,0.0,0.0
312,77.75,44.9881,57.3588,162.145,101.66,99.8129,0.00292536,0.407303,20.6174,468.476,0.168252,0.0,0.0
314,78.25,45.4164,55.2412,163.358,101.656,100.177,0.00288036,0.395451,20.6332,468.486,0.134553,0.0,0.0
316,78.75,44.7463,54.6021,161.182,101.666,100.302,0.00281922,0.385851,20.6491,468.476,0.123897,0.0,0.0
318,79.25,43.5551,54.4574,161.365,101.667,100.682,0.00276969,0.374359,20.6646,468.476,0.0893372,0.0,0.0
320,79.75,42.7752,53.9828,161.907,101.683,101.216,0.00272958,0.365049,20.6772,468.476,0.0422521,0.0,0.0
322,80.25,42.6876,52.6445,158.941,101.679,101.301,0.00266255,0.354136,20.6897,468.466,0.0341888,0.0,0.0
324,80.75,41.7177,52.4037,164.549,101.692,101.027,0.00260825,0.345297,20.7019,468.456,0.0602245,0.0,0.0
326,81.25,41.6913,50.9019,168.164,101.697,101.288,0.00253346,0.334131,20.7118,468.466,0.0370655,0.0,0.0
328,81.75,41.3235,50.0917,160.33,101.702,101.58,0.00247288,0.325087,20.7242,468.476,0.0110525,0.0,0.0
330,82.25,40.8137,49.3708,165.748,101.693,101.269,0.00240955,0.315484,20.7363,468.456,0.0383183,0.0,0.0
332,82.75,40.3206,48.9224,162.848,101.7,101.476,0.00234542,0.305656,20.748,468.446,0.0201785,0.0,0.0
334,83.25,39.7399,47.94,160.567,101.693,101.413,0.0022787,0.297696,20.7598,468.466,0.025271,0.0,0.0
336,83.75,39.0243,47.4959,160.36,101.709,101.242,0.00222466,0.287224,20.7714,468.456,0.0422423,0.0,0.0
338,84.25,39.0933,46.481,165.645,101.715,101.414,0.00217376,0.278742,20.7822,468.436,0.0271874,0.0,0.0
340,84.75,38.4313,45.4686,161.286,101.708,101.497,0.00212613,0.270099,20.7922,468.436,0.0190793,0.0,0.0
342,85.25,37.6375,45.1054,164.569,101.705,101.49,0.00208107,0.261504,20.8003,468.436,0.0194613,0.0,0.0
344,85.75,37.223,44.545,162.058,101.714,101.34,0.00203875,0.253095,20.8095,468.446,0.0337398,0.0,0.0
346,86.25,37.4401,43.399,165.048,101.714,101.544,0.00200447,0.244982,20.8169,468.436,0.0153463,0.0,0.0
348,86.75,36.9045,42.9063,166.491,101.73,101.403,0.00194843,0.237191,20.8239,468.446,0.0294982,0.0,0.0
350,87.25,35.9882,42.5526,162.492,101.723,101.572,0.00190303,0.229781,20.8303,468.436,0.013636,0.0,0.0
352,87.75,36.4293,41.3503,164.768,101.726,101.382,0.00184881,0.222447,20.836,468.436,0.0310911,0.0,0.0
354,88.25,35.8288,40.9729,164.019,101.727,101.46,0.00178919,0.215308,20.8411,468.446,0.0240546,0.0,0.0
356,88.75,35.3517,40.2984,167.366,101.734,101.52,0.00171958,0.209525,20.8451,468.436,0.0193216,0.0,0.0
358,89.25,34.4675,39.9095,170.052,101.723,101.486,0.00164402,0.202373,20.8506,468.426,0.0213899,0.0,0.0
360,89.75,33.6422,38.9809,163.332,101.735,101.376,0.00158281,0.19658,20.8551,468.436,0.0324134,0.0,0.0
362,90.25,33.829,38.4451,163.19,101.725,101.276,0.00149769,0.190658,20.8592,468.446,0.0405304,0.0,0.0
364,90.75,33.5611,37.5634,165.397,101.717,101.328,0.00142874,0.184755,20.8629,468.456,0.0351391,0.0,0.0
366,91.25,33.3029,37.5764,167.169,101.723,101.406,0.00133861,0.179084,20.8666,468.456,0.028664,0.0,0.0
368,91.75,32.4519,37.2126,160.22,101.73,101.581,0.0012656,0.173691,20.8702,468.456,0.0134055,0.0,0.0
370,92.25,32.6055,36.7023,165.499,101.72,101.768,0.00119294,0.169323,20.8731,468.436,-0.00432731,0.0,0.0
372,92.75,32.2179,35.8349,166.291,101.734,101.398,0.00112192,0.163895,20.8755,468.436,0.0303748,0.0,0.0
374,93.25,31.9027,35.6061,161.947,101.724,101.613,0.00106439,0.159498,20.8778,468.446,0.0100374,0.0,0.0
376,93.75,31.725,34.817,161.916,101.723,101.341,0.00101779,0.154572,20.8798,468.446,0.0345485,0.0,0.0
378,94.25,31.2207,35.6549,166.166,101.72,101.298,0.000976181,0.150581,20.8813,468.436,0.0381919,0.0,0.0
380,94.75,31.1022,34.5179,158.585,101.721,101.519,0.000939004,0.146604,20.8828,468.446,0.0182976,0.0,0.0
382,95.25,30.2988,34.3072,165.656,101.726,101.512,0.000912108,0.142712,20.884,468.486,0.0193402,0.0,0.0
384,95.75,30.7044,33.4007,160.446,101.737,101.412,0.000893219,0.139559,20.8859,468.476,0.0293041,0.0,0.0
386,96.25,30.152,33.1503,165.557,101.726,101.456,0.000881138,0.137006,20.8874,468.446,0.0243469,0.0,0.0
388,96.75,29.6828,32.8519,164.684,101.732,101.375,0.000874249,0.133169,20.8886,468.416,0.0322542,0.0,0.0
390,97.25,30.0451,32.1417,166.477,101.728,101.478,0.000871888,0.130061,20.8896,468.466,0.0225237,0.0,0.0
392,97.75,29.7549,32.2167,163.452,101.716,101.422,0.000872873,0.126972,20.8909,468.506,0.0265734,0.0,0.0
394,98.25,29.3384,32.2423,163.448,101.717,101.417,0.000873671,0.123954,20.8919,468.506,0.027098,0.0,0.0
396,98.75,29.4553,31.1311,165.009,101.718,101.226,0.000869423,0.121062,20.8936,468.476,0.0444851,0.0,0.0
398,99.25,28.3162,30.9691,167.049,101.708,101.439,0.000865983,0.118317,20.8949,468.496,0.0243066,0.0,0.0
400,99.75,28.7368,30.9996,166.24,101.715,101.336,0.000858303,0.115725,20.896,468.486,0.0343022,0.0,0.0
402,100.25,28.3349,29.8497,165.092,101.702,101.653,0.000852083,0.113295,20.8969,468.476,0.00442149,0.0,0.0
404,100.75,29.0358,30.5481,164.623,101.711,101.436,0.000847044,0.111326,20.8977,468.476,0.0248433,0.0,0.0
406,101.25,28.3207,29.9231,167.589,101.7,101.407,0.000844186,0.109171,20.8983,468.476,0.0264992,0.0,0.0
408,101.75,27.9656,29.5069,162.304,101.7,101.33,0.00084187,0.107425,20.899,468.466,0.0335131,0.0,0.0
410,102.25,27.964,29.752,166.277,101.699,101.341,0.000858347,0.105506,20.8995,468.446,0.0323545,0.0,0.0
412,102.75,27.987,29.2786,163.158,101.7,101.303,0.000871694,0.103951,20.8999,468.446,0.0359106,0.0,0.0
414,103.25,27.5641,28.9796,164.556,101.69,101.227,0.000888302,0.102348,20.9002,468.456,0.0418644,0.0,0.0
416,103.75,27.7259,29.0133,160.395,101.686,101.409,0.000906973,0.100739,20.9005,468.446,0.0250888,0.0,0.0
418,104.25,26.9734,28.7009,162.243,101.694,101.419,0.00092274,0.0994365,20.9007,468.446,0.0248771,0.0,0.0
420,104.75,26.9522,28.1529,163.698,101.69,101.199,0.000936092,0.0980873,20.9009,468.456,0.0444306,0.0,0.0
422,105.25,27.2509,28.3206,165.213,101.693,101.334,0.000941108,0.09673,20.901,468.456,0.0324308,0.0,0.0
424,105.75,26.4754,28.5746,165.015,101.684,101.282,0.000939954,0.095423,20.9011,468.436,0.0362974,0.0,0.0
426,106.25,27.4721,28.2886,162.597,101.689,101.258,0.000928072,0.0941774,20.9012,468.436,0.0389947,0.0,0.0
428,106.75,27.257,27.932,164.408,101.679,101.418,0.000908595,0.0929969,20.9017,468.436,0.0235559,0.0,0.0
430,107.25,26.4974,27.94,164.164,101.683,101.466,0.000892819,0.0918861,20.9022,468.446,0.0196076,0.0,0.0
432,107.75,26.4476,27.8043,168.197,101.682,101.444,0.000857523,0.0908435,20.9025,468.446,0.0214685,0.0,0.0
434,108.25,26.449,27.141,166.044,101.691,101.226,0.000808667,0.0898703,20.9028,468.436,0.0420768,0.0,0.0
436,108.75,26.3077,27.2183,168.53,101.672,101.226,0.00075688,0.088932,20.903,468.446,0.040403,0.0,0.0
438,109.25,26.3604,27.6223,165.088,101.675,101.328,0.000703942,0.088037,20.9032,468.456,0.0313451,0.0,0.0
440,109.75,26.3305,27.0032,165.695,101.659,101.424,0.000661062,0.087312,20.9033,468.466,0.0212109,0.0,0.0
442,110.25,25.8067,27.2653,166.751,101.668,101.185,0.000631861,0.0863993,20.9034,468.456,0.0437546,0.0,0.0
444,110.75,25.715,26.3156,168.827,101.648,101.246,0.000581927,0.08566,20.9035,468.456,0.0364063,0.0,0.0
446,111.25,25.3642,26.5565,167.252,101.664,101.25,0.000526842,0.0849114,20.9036,468.456,0.0374523,0.0,0.0
448,111.75,25.7209,26.2717,164.863,101.65,101.221,0.000482222,0.0841702,20.9036,468.456,0.0388074,0.0,0.0
450,112.25,25.8754,26.0218,165.765,101.647,101.136,0.000433885,0.0834843,20.9037,468.436,0.0462353,0.0,0.0
452,112.75,25.564,26.3005,164.344,101.638,101.118,0.000394732,0.0828518,20.9037,468.436,0.0471103,0.0,0.0
454,113.25,25.2861,26.0876,165.328,101.657,101.276,0.000360452,0.0825821,20.9038,468.456,0.0344395,0.0,0.0
456,113.75,25.2103,25.6693,164.77,101.622,101.22,0.000330375,0.0819856,20.9038,468.466,0.0364521,0.0,0.0
458,114.25,24.643,25.753,165.285,101.634,101.337,0.000306013,0.0813806,20.9038,468.466,0.026882,0.0,0.0
460,114.75,25.5346,25.7324,161.641,101.632,101.28,0.000284354,0.0807979,20.9038,468.466,0.0318389,0.0,0.0
462,115.25,25.2009,25.7187,165.229,101.636,101.232,0.000265078,0.0802427,20.9043,468.466,0.0364935,0.0,0.0
464,115.75,24.6633,25.6585,167.146,101.622,101.316,0.00024305,0.0797288,20.9047,468.456,0.0276847,0.0,0.0
466,116.25,24.6755,25.5243,166.975,101.642,101.261,0.000219434,0.0792549,20.905,468.456,0.0344689,0.0,0.0
468,116.75,25.4065,25.2948,162.249,101.619,101.37,0.000200306,0.0788711,20.9052,468.426,0.0224746,0.0,0.0
470,117.25,25.0146,25.0055,165.817,101.62,101.134,0.000184811,0.0783709,20.9054,468.456,0.0439549,0.0,0.0
472,117.75,24.3263,24.6678,160.004,101.617,101.4,0.000151551,0.0779657,20.9054,468.446,0.0195803,0.0,0.0
474,118.25,24.8542,25.1774,170.361,101.621,101.434,0.00012461,0.0776375,20.9053,468.446,0.0169613,0.0,0.0
476,118.75,24.6398,24.9283,164.769,101.611,101.273,0.000104006,0.0772365,20.9049,468.446,0.0305383,0.0,0.0
478,119.25,24.7737,24.9233,163.396,101.609,101.198,8.73166e-05,0.0769117,20.9045,468.396,0.0372376,0.0,0.0
480,119.75,24.3481,24.9041,164.335,101.62,101.166,8.96343e-05,0.0766486,20.9041,468.396,0.0411403,0.0,0.0
482,120.25,24.2954,24.1684,167.159,101.612,101.187,9.15116e-05,0.0762599,20.9038,468.406,0.03851,0.0,0.0
484,120.75,24.5105,24.4999,169.303,101.598,101.226,0.000124726,0.075945,20.9035,468.426,0.033621,0.0,0.0
486,121.25,24.1038,24.0191,163.503,101.607,101.171,0.00015163,0.0755683,20.9033,468.466,0.0394054,0.0,0.0
488,121.75,24.5083,24.3466,165.607,101.586,101.075,0.000173422,0.0752633,20.9031,468.466,0.0463322,0.0,0.0
490,122.25,23.9317,24.5303,169.857,101.591,101.114,0.000231341,0.0748946,20.9032,468.316,0.0431895,0.0,0.0
492,122.75,24.0787,24.5579,166.514,101.577,101.149,0.000278255,0.074596,20.9035,468.276,0.0387497,0.0,0.0
494,123.25,23.5443,23.9163,169.387,101.584,101.281,0.00032461,0.0742462,20.9037,468.416,0.0273456,0.0,0.0
496,123.75,24.2828,23.3392,168.244,101.571,101.263,0.000369678,0.0739628,20.9044,468.406,0.027808,0.0,0.0
498,124.25,23.9547,23.8111,171.217,101.574,101.105,0.000407469,0.0737332,20.9049,468.396,0.0424448,0.0,0.0
500,124.75,24.1633,23.4012,164.461,101.56,101.27,0.000439236,0.0734393,20.9053,468.426,0.0261971,0.0,0.0
502,125.25,23.6638,23.7197,165.408,101.564,101.283,0.000464325,0.0732013,20.9056,468.456,0.0254204,0.0,0.0
504,125.75,23.4968,23.9474,166.456,101.55,101.23,0.000484069,0.0729445,20.9059,468.446,0.0289334,0.0,0.0
506,126.25,23.3677,23.711,165.924,101.56,101.272,0.000500061,0.072679,20.9061,468.446,0.0260596,0.0,0.0
508,126.75,23.8158,23.1457,171.409,101.566,101.017,0.000499581,0.0724285,20.9063,468.456,0.049674,0.0,0.0
510,127.25,24.0439,23.6431,167.22,101.545,101.142,0.00049084,0.0721936,20.9064,468.466,0.036451,0.0,0.0
512,127.75,23.8034,23.4691,165.44,101.548,101.145,0.000476243,0.0720033,20.9065,468.476,0.0365186,0.0,0.0
514,128.25,23.462,23.2699,162.958,101.538,101.276,0.000464419,0.0718492,20.9066,468.486,0.0237174,0.0,0.0
516,128.75,23.1438,23.6672,165.541,101.552,101.285,0.000445209,0.0717244,20.9067,468.486,0.02412,0.0,0.0
518,129.25,23.5769,23.6163,165.279,101.531,101.086,0.000420979,0.0716233,20.9068,468.486,0.0403671,0.0,0.0
520,129.75,23.2794,23.5335,165.285,101.522,101.161,0.000396859,0.0715414,20.9068,468.476,0.0327371,0.0,0.0
522,130.25,23.7647,23.7572,162.768,101.523,101.169,0.000373277,0.071475,20.9069,468.476,0.0319926,0.0,0.0
524,130.75,23.7461,23.0699,166.237,101.516,101.027,0.000354176,0.0714213,20.9069,468.486,0.0442924,0.0,0.0
526,131.25,23.566,23.4086,171.272,101.518,101.157,0.000332609,0.0713494,20.9069,468.486,0.032687,0.0,0.0
528,131.75,23.1798,23.5732,166.253,101.521,101.343,0.000315139,0.0712655,20.9069,468.456,0.0161184,0.0,0.0
530,132.25,23.0245,23.0593,167.72,101.508,101.044,0.00029977,0.0711977,20.9069,468.446,0.042018,0.0,0.0
532,132.75,23.1314,23.4627,167.846,101.521,101.256,0.000287321,0.0711022,20.9067,468.436,0.0240284,0.0,0.0
534,133.25,23.0942,23.3,169.332,101.505,101.037,0.000278457,0.0710249,20.9066,468.446,0.0424481,0.0,0.0
536,133.75,23.8596,22.6507,164.402,101.504,101.082,0.000271276,0.0709623,20.9066,468.426,0.038193,0.0,0.0
538,134.25,23.0322,23.0836,164.849,101.496,100.992,0.000273163,0.0709115,20.9065,468.466,0.0457194,0.0,0.0
540,134.75,23.4841,22.8079,170.47,101.493,101.165,0.000281624,0.070863,20.9064,468.436,0.0297152,0.0,0.0
542,135.25,23.0925,23.038,166.133,101.487,101.14,0.000288477,0.0708169,20.9064,468.426,0.0314563,0.0,0.0
544,135.75,22.8703,22.8233,164.747,101.481,101.055,0.000309443,0.0707583,20.9066,468.446,0.0385917,0.0,0.0
546,136.25,23.3736,22.9742,166.501,101.468,100.981,0.000340299,0.0706917,20.9069,468.456,0.0441617,0.0,0.0
548,136.75,23.161,22.9083,166.741,101.47,100.962,0.00037429,0.0706377,20.9072,468.476,0.0460068,0.0,0.0
550,137.25,22.4101,23.0807,167.967,101.46,100.949,0.00040992,0.0704861,20.9075,468.466,0.0463474,0.0,0.0
552,137.75,23.0621,22.9153,166.088,101.46,101.14,0.000439423,0.0703634,20.9077,468.466,0.0289868,0.0,0.0
554,138.25,22.9873,22.9555,163.406,101.45,101.104,0.0004639,0.0702235,20.9078,468.456,0.0313309,0.0,0.0
556,138.75,23.2218,22.5467,167.834,101.456,101.094,0.000481797,0.0701102,20.9079,468.446,0.0327644,0.0,0.0
558,139.25,22.8878,22.9272,168.281,101.447,100.961,0.000494558,0.0699971,20.9081,468.436,0.0440942,0.0,0.0
560,139.75,22.6328,22.6116,166.581,101.442,100.937,0.000504895,0.0698863,20.9081,468.446,0.0457847,0.0,0.0
562,140.25,22.7923,22.6077,161.339,101.423,101.119,0.000513268,0.0697966,20.9082,468.436,0.0275266,0.0,0.0
564,140.75,23.1311,22.7724,172.514,101.423,100.997,0.000516386,0.0696431,20.9091,468.426,0.0386146,0.0,0.0
566,141.25,23.0242,22.6533,167.555,101.42,100.933,0.000518912,0.0694975,20.9098,468.436,0.0441683,0.0,0.0
568,141.75,23.1429,22.7812,162.783,101.414,101.073,0.000507526,0.0693604,20.9104,468.446,0.0309777,0.0,0.0
570,142.25,22.55,22.4713,163.419,101.414,100.916,0.000498304,0.0692493,20.9109,468.446,0.0451676,0.0,0.0
572,142.75,22.4718,22.4294,166.575,101.41,101.037,0.000490835,0.0691594,20.9113,468.466,0.0338281,0.0,0.0
574,143.25,23.0936,21.946,170.499,101.389,100.98,0.000466476,0.0689922,20.9117,468.466,0.0370481,0.0,0.0
576,143.75,22.6812,22.1619,167.506,101.397,100.948,0.000446745,0.0688568,20.9121,468.466,0.0406971,0.0,0.0
578,144.25,22.6761,22.4808,165.707,101.379,100.937,0.000428195,0.0686932,20.9124,468.486,0.0401155,0.0,0.0
580,144.75,22.0056,22.5659,163.978,101.376,100.96,0.000410857,0.0685607,20.9127,468.476,0.0376887,0.0,0.0
582,145.25,22.7216,22.5672,164.526,101.368,101.012,0.000399382,0.0684254,20.9129,468.466,0.0322422,0.0,0.0
584,145.75,22.3744,22.9648,168.018,101.368,100.989,0.0003924,0.0682906,20.9126,468.456,0.0343153,0.0,0.0
586,146.25,22.6393,22.2169,166.917,101.359,100.906,0.00038867,0.0681814,20.9124,468.456,0.0410543,0.0,0.0
588,146.75,22.3522,22.87,168.194,101.358,101.047,0.000387383,0.0680859,20.9127,468.456,0.0282518,0.0,0.0
590,147.25,22.6045,22.5167,167.79,101.348,101.089,0.000384414,0.0680021,20.9129,468.466,0.023461,0.0,0.0
592,147.75,22.4844,21.8196,170.482,101.348,100.919,0.000380275,0.0679343,20.9131,468.466,0.0389218,0.0,0.0
594,148.25,22.2991,22.0296,166.781,101.328,101.039,0.000373712,0.0678658,20.9132,468.456,0.0262189,0.0,0.0
596,148.75,22.1466,21.9088,166.465,101.326,100.983,0.000365506,0.0678104,20.9133,468.466,0.0311456,0.0,0.0
598,149.25,22.1816,22.0468,167.639,101.306,100.891,0.00035886,0.067779,20.9134,468.466,0.0376592,0.0,0.0
600,149.75,22.2652,22.3803,166.386,101.319,100.89,0.000345772,0.0677535,20.9135,468.466,0.0388629,0.0,0.0
602,150.25,22.418,22.256,162.867,101.286,100.832,0.000336544,0.0677464,20.9135,468.466,0.0412187,0.0,0.0
604,150.75,22.0918,22.2402,164.375,101.289,100.828,0.000318196,0.0677122,20.9136,468.476,0.041896,0.0,0.0
606,151.25,22.6028,21.7713,168.955,101.263,100.694,0.000301024,0.0676591,20.9136,468.466,0.0516887,0.0,0.0
608,151.75,21.7535,21.7096,166.13,101.263,100.85,0.000287115,0.067616,20.9137,468.456,0.0374664,0.0,0.0
610,152.25,22.2661,21.889,169.665,101.249,100.823,0.000295363,0.0675138,20.9137,468.466,0.0386963,0.0,0.0
612,152.75,21.7727,21.7484,166.66,101.235,100.935,0.000302043,0.067431,20.9137,468.456,0.0272616,0.0,0.0
614,153.25,22.1726,21.2135,166.655,101.231,101.06,0.000336745,0.0673957,20.9137,468.446,0.0155538,0.0,0.0
616,153.75,21.9102,22.2843,166.965,101.23,100.88,0.000364853,0.0673488,20.9138,468.436,0.0317931,0.0,0.0
618,154.25,21.6742,21.4378,164.117,101.209,100.932,0.000409604,0.0673108,20.9138,468.436,0.0251553,0.0,0.0
620,154.75,21.9725,22.3875,169.704,101.214,100.644,0.000445852,0.0672531,20.9138,468.436,0.0518551,0.0,0.0
622,155.25,21.5553,22.1748,170.016,101.191,100.762,0.000488078,0.0672064,20.9138,468.426,0.0389958,0.0,0.0
624,155.75,22.5808,21.8721,163.564,101.187,100.721,0.000533858,0.0671543,20.9138,468.446,0.0423729,0.0,0.0
626,156.25,21.4383,21.8686,167.264,101.166,100.739,0.00057094,0.0670994,20.9138,468.436,0.0387562,0.0,0.0
628,156.75,21.8436,21.336,166.7,101.158,100.566,0.00061063,0.0670549,20.9138,468.436,0.0538106,0.0,0.0
630,157.25,21.7867,21.6837,168.958,101.146,100.688,0.000651467,0.0670189,20.9138,468.446,0.0416652,0.0,0.0
632,157.75,21.5868,21.5277,166.028,101.151,100.683,0.00068004,0.0669685,20.9138,468.436,0.0425014,0.0,0.0
634,158.25,22.0991,22.4565,165.212,101.121,100.67,0.000699129,0.0669085,20.9138,468.436,0.0409639,0.0,0.0
636,158.75,21.8809,21.9036,166.375,101.13,100.729,0.00071459,0.0668599,20.9138,468.436,0.0364652,0.0,0.0
638,159.25,21.6499,21.4136,163.203,101.111,100.727,0.000705111,0.0667936,20.9138,468.436,0.0349375,0.0,0.0
640,159.75,21.4154,21.6775,166.047,101.111,100.668,0.000691001,0.0667399,20.9138,468.426,0.0402887,0.0,0.0
642,160.25,21.5199,21.9578,171.651,101.097,100.563,0.000673784,0.0666752,20.9138,468.426,0.0485903,0.0,0.0
644,160.75,21.5648,21.8269,167.485,101.082,100.534,0.000656624,0.0666036,20.9138,468.456,0.0498524,0.0,0.0
646,161.25,21.9423,22.2149,166.741,101.068,100.683,0.00063983,0.0665456,20.9138,468.456,0.0350661,0.0,0.0
648,161.75,21.5255,21.4619,172.857,101.071,100.526,0.000626228,0.0664852,20.9138,468.436,0.0495728,0.0,0.0
650,162.25,21.0412,21.7747,162.448,101.063,100.662,0.000612767,0.0664363,20.9138,468.436,0.0364292,0.0,0.0
652,162.75,21.127,22.021,163.861,101.07,100.634,0.000601864,0.0664235,20.9138,468.446,0.0396069,0.0,0.0
654,163.25,21.524,21.6998,167.93,101.042,100.687,0.000593032,0.0664132,20.9138,468.436,0.0322924,0.0,0.0
656,163.75,21.3065,22.1019,161.819,101.049,100.594,0.000585879,0.0664049,20.9138,468.436,0.0413897,0.0,0.0
658,164.25,21.7945,21.9596,166.108,101.037,100.587,0.000573656,0.0663981,20.9138,468.436,0.0409149,0.0,0.0
660,164.75,21.577,22.1557,166.419,101.031,100.589,0.000557971,0.0664196,20.9138,468.436,0.0402429,0.0,0.0
662,165.25,21.4748,21.0717,167.153,101.016,100.612,0.000535628,0.066437,20.9137,468.426,0.0367386,0.0,0.0
664,165.75,21.3271,21.9513,168.936,101.014,100.52,0.000508857,0.066451,20.9139,468.426,0.0450086,0.0,0.0
666,166.25,21.4811,21.5978,166.366,101.006,100.691,0.000477541,0.0664624,20.914,468.436,0.0286651,0.0,0.0
668,166.75,21.0318,21.679,168.103,101.005,100.551,0.000443506,0.0664858,20.9141,468.436,0.0413537,0.0,0.0
670,167.25,21.4479,20.6642,172.186,100.991,100.435,0.000415938,0.0665048,20.9142,468.436,0.0506085,0.0,0.0
672,167.75,21.1811,21.5797,165.337,100.984,100.4,0.000382632,0.0665414,20.9142,468.436,0.0532146,0.0,0.0
674,168.25,20.7385,21.2145,170.899,100.994,100.519,0.000355653,0.0665902,20.9143,468.436,0.0432581,0.0,0.0
676,168.75,21.339,21.4905,165.879,100.972,100.499,0.000333801,0.0666297,20.9139,468.436,0.043097,0.0,0.0
678,169.25,21.9307,21.911,168.158,100.961,100.506,0.0003161,0.0666482,20.9135,468.436,0.0414746,0.0,0.0
680,169.75,21.4662,21.0494,161.791,100.957,100.516,0.000320059,0.0666632,20.9131,468.436,0.0401645,0.0,0.0
682,170.25,21.6384,21.8354,165.078,100.946,100.417,0.000323265,0.0667293,20.9124,468.436,0.0481844,0.0,0.0
684,170.75,21.1716,21.0701,171.545,100.935,100.438,0.000341921,0.0667827,20.912,468.426,0.0453189,0.0,0.0
686,171.25,20.9952,21.0604,165.801,100.919,100.438,0.000371486,0.066853,20.9116,468.426,0.043895,0.0,0.0
688,171.75,21.1117,20.8617,166.336,100.922,100.455,0.000395434,0.0669099,20.9112,468.446,0.0424982,0.0,0.0
690,172.25,21.5329,21.4647,166.956,100.912,100.541,0.000416053,0.0670368,20.911,468.446,0.0338129,0.0,0.0
692,172.75,20.9906,21.6317,165.255,100.899,100.394,0.000432754,0.0671396,20.9108,468.456,0.0460906,0.0,0.0
694,173.25,21.4075,21.3424,165.369,100.897,100.4,0.000435361,0.0672796,20.9106,468.456,0.0452634,0.0,0.0
696,173.75,21.1921,21.6861,164.183,100.891,100.46,0.000427643,0.067444,20.9104,468.446,0.0393084,0.0,0.0
698,174.25,21.1077,20.7788,166.351,100.886,100.424,0.000403416,0.0675772,20.9103,468.446,0.0420637,0.0,0.0
700,174.75,20.9999,21.5743,161.699,100.864,100.455,0.000367614,0.0677794,20.9101,468.436,0.0372137,0.0,0.0
702,175.25,21.5453,21.1164,167.291,100.857,100.395,0.000321938,0.0679432,20.9099,468.426,0.0421726,0.0,0.0
704,175.75,21.3541,21.1419,166.972,100.843,100.417,0.000269931,0.0680354,20.9097,468.406,0.0388128,0.0,0.0
706,176.25,21.5434,21.645,169.664,100.842,100.361,0.000227806,0.0681101,20.9096,468.416,0.0438907,0.0,0.0
708,176.75,21.2088,21.7422,165.092,100.831,100.358,0.000163238,0.0682199,20.9095,468.436,0.0431852,0.0,0.0
710,177.25,21.0413,21.599,162.541,100.837,100.322,0.000110937,0.0683532,20.9094,468.426,0.0470124,0.0,0.0
712,177.75,21.044,21.5972,162.726,100.818,100.279,6.79331e-05,0.0684966,20.9093,468.436,0.0492214,0.0,0.0
714,178.25,21.2326,21.6539,167.727,100.81,100.386,3.2523e-05,0.0686447,20.9092,468.446,0.0386004,0.0,0.0
716,178.75,21.307,21.2099,166.487,100.805,100.277,3.84073e-06,0.0687647,20.9092,468.436,0.0481213,0.0,0.0
718,179.25,20.989,21.3892,164.403,100.805,100.438,-9.6488e-06,0.0688888,20.9092,468.426,0.0334619,0.0,0.0
720,179.75,21.4528,21.0148,162.052,100.793,100.277,-2.05753e-05,0.0689893,20.9091,468.426,0.0470712,0.0,0.0
722,180.25,20.8122,21.6762,164.169,100.791,100.3,-1.48125e-05,0.0690495,20.9091,468.426,0.0448051,0.0,0.0
724,180.75,20.8016,21.3928,163.149,100.788,100.355,-1.01446e-05,0.0690791,20.9091,468.426,0.0394871,0.0,0.0
726,181.25,21.0958,21.355,166.705,100.802,100.353,9.47236e-06,0.069103,20.9091,468.436,0.0409857,0.0,0.0
728,181.75,21.1692,21.2784,173.103,100.795,100.337,2.53621e-05,0.0691359,20.9091,468.426,0.0418318,0.0,0.0
730,182.25,20.8604,21.4455,169.287,100.815,100.338,4.79813e-05,0.0691625,20.909,468.436,0.0434552,0.0,0.0
732,182.75,20.8386,20.8113,166.87,100.783,100.361,6.63029e-05,0.0691976,20.909,468.446,0.0385634,0.0,0.0
734,183.25,21.14,20.8793,165.921,100.799,100.397,8.23627e-05,0.069226,20.909,468.436,0.0366885,0.0,0.0
736,183.75,20.7931,21.2464,167.768,100.796,100.651,9.53712e-05,0.0691816,20.909,468.426,0.0132832,0.0,0.0
738,184.25,21.052,21.4385,168.469,100.815,100.379,0.000105908,0.0691456,20.909,468.446,0.0397833,0.0,0.0
740,184.75,20.8444,21.046,164.528,100.794,100.264,9.9823e-05,0.06913,20.909,468.426,0.0483901,0.0,0.0
742,185.25,21.1407,21.3211,167.92,100.805,100.273,9.48941e-05,0.0691173,20.909,468.416,0.0485391,0.0,0.0
744,185.75,20.5653,20.8338,167.337,100.797,100.354,8.35933e-05,0.0691212,20.909,468.436,0.0403954,0.0,0.0
746,186.25,20.2356,20.5769,165.232,100.797,100.343,7.44396e-05,0.0691372,20.909,468.446,0.0413788,0.0,0.0
748,186.75,21.1837,20.4741,163.278,100.798,100.441,6.70252e-05,0.0691501,20.9088,468.446,0.0325453,0.0,0.0
750,187.25,20.2097,20.7891,162.637,100.805,100.389,6.10194e-05,0.0691329,20.9087,468.446,0.0378728,0.0,0.0
752,187.75,21.108,20.8988,172.723,100.799,100.336,6.8337e-05,0.069119,20.9087,468.436,0.0422619,0.0,0.0
754,188.25,20.9793,20.8868,166.699,100.815,100.238,7.42642e-05,0.0690864,20.9087,468.436,0.0525958,0.0,0.0
756,188.75,20.8814,21.3013,168.717,100.8,100.266,9.73466e-05,0.0690409,20.9088,468.426,0.0486915,0.0,0.0
758,189.25,20.6289,20.8412,168.11,100.815,100.317,0.000116043,0.069004,20.9088,468.426,0.0454038,0.0,0.0
760,189.75,21.0029,20.8816,164.732,100.793,100.161,0.000151918,0.0689741,20.9089,468.446,0.0576649,0.0,0.0
762,190.25,20.8725,20.8103,163.615,100.801,100.265,0.000188681,0.0689634,20.9089,468.426,0.048945,0.0,0.0
764,190.75,20.5333,21.3202,167.732,100.803,100.343,0.000225394,0.0689547,20.9089,468.436,0.0419875,0.0,0.0
766,191.25,20.5976,20.8433,165.807,100.809,100.226,0.000255131,0.0689073,20.9089,468.436,0.053231,0.0,0.0
768,191.75,20.6713,20.0221,163.235,100.808,100.347,0.000281788,0.0688688,20.9089,468.446,0.0420202,0.0,0.0
770,192.25,20.4301,20.885,168.718,100.813,100.305,0.000305691,0.0687703,20.909,468.446,0.0463659,0.0,0.0
772,192.75,21.1387,20.6535,168.388,100.805,100.41,0.000322484,0.0686905,20.909,468.446,0.0360097,0.0,0.0
774,193.25,20.3565,20.2488,160.538,100.813,100.454,0.000333774,0.0686259,20.909,468.446,0.0326543,0.0,0.0
776,193.75,20.8274,20.9608,170.928,100.81,100.16,0.00034292,0.0685735,20.909,468.436,0.0594181,0.0,0.0
778,194.25,20.0944,20.5146,166.401,100.82,100.307,0.000335685,0.0685177,20.909,468.446,0.0468187,0.0,0.0
780,194.75,19.8592,21.3484,166.947,100.807,100.379,0.000329824,0.0684724,20.909,468.446,0.039034,0.0,0.0
782,195.25,20.2107,20.7021,162.629,100.816,100.263,0.000311663,0.0684358,20.9093,468.446,0.0504801,0.0,0.0
784,195.75,20.8759,21.2291,167.898,100.81,100.433,0.000296952,0.0683522,20.9098,468.436,0.0343382,0.0,0.0
786,196.25,20.0239,21.0188,166.456,100.822,100.342,0.000281378,0.0682845,20.9103,468.456,0.0437687,0.0,0.0
788,196.75,20.6522,20.4686,168.098,100.82,100.258,0.000268763,0.0682162,20.9106,468.446,0.0512362,0.0,0.0
790,197.25,20.5149,20.122,165.457,100.82,100.427,0.000263423,0.0681608,20.9109,468.426,0.035831,0.0,0.0
792,197.75,20.2415,20.6647,171.173,100.817,100.315,0.000259097,0.0680951,20.9112,468.426,0.0457771,0.0,0.0
794,198.25,19.8868,19.6638,168.704,100.827,100.521,,0.0680231,,468.426,0.0278636,0.0,0.0
796,198.75,20.0071,20.7577,165.947,100.82,100.347,,0.0679243,,468.436,0.0430709,0.0,0.0
798,199.25,20.4068,20.6222,167.495,100.824,100.246,,0.0678443,,468.436,0.0527622,0.0,0.0
800,199.75,20.7921,20.7572,170.504,100.818,100.318,,0.0677653,,468.416,0.0456117,0.0,0.0
802,200.25,19.6673,20.3516,164.153,100.827,100.24,,0.0676886,,468.416,0.0535355,0.0,0.0
804,200.75,20.161,20.5084,168.662,100.828,100.375,,0.0676265,,468.436,0.0413178,0.0,0.0
806,201.25,20.1787,20.7641,166.006,100.836,100.387,,,,468.426,0.0408713,0.0,0.0
808,201.75,20.1751,21.1835,168.587,100.841,100.388,,,,468.436,0.0412666,0.0,0.0
810,202.25,20.1521,20.5085,164.592,100.838,100.335,,,,468.446,0.0459186,0.0,0.0
812,202.75,19.8711,19.9303,167.503,100.823,100.327,,,,468.456,0.0452264,0.0,0.0
814,203.25,20.1565,20.4751,165.098,100.836,100.325,,,,468.466,0.0466489,0.0,0.0
816,203.75,20.3629,20.9119,165.737,100.836,100.372,,,,468.466,0.042337,0.0,0.0
818,204.25,19.9176,20.397,166.545,100.838,100.371,,,,468.456,0.0426179,0.0,0.0
820,204.75,20.172,20.7999,165.424,100.838,100.302,,,,468.426,0.0489243,0.0,0.0
822,205.25,20.2826,20.2644,169.901,100.846,100.285,,,,468.436,0.0511763,0.0,0.0
824,205.75,20.0079,20.51,165.505,100.838,100.407,,,,468.436,0.0393738,0.0,0.0
826,206.25,20.1408,20.3789,168.992,100.847,100.394,,,,468.446,0.0413657,0.0,0.0
828,206.75,19.722,20.071,163.351,100.846,100.364,,,,468.446,0.0439418,0.0,0.0
830,207.25,20.229,20.2381,162.875,100.848,100.396,,,,468.436,0.0411719,0.0,0.0
832,207.75,20.0034,20.366,164.507,100.838,100.525,,,,468.446,0.0285441,0.0,0.0
834,208.25,21.0609,20.3179,162.624,100.845,100.332,,,,468.436,0.0468339,0.0,0.0
836,208.75,19.2539,20.4846,165.166,100.861,100.278,,,,468.446,0.0532136,0.0,0.0