File: 01_Data/Polyurethane_Foam/Cone/Polyurethane_Foam_Cone_HF50Scan_210326_R2.csv
Names,Time,Stack TC,Smoke TC,Exh Press,Smoke Comp,Smoke Meas,CO Meter,CO2 Meter,O2 Meter,Sample Mass,Ext Coeff,Start Test,Flame Verif
Chan Gain,,500,500,1,1,1,1,1,1,1,1,1.0,1.0
Offset,,0,0,0.138348,0,0,0,0,0,0,0,0.0,0.0
Gain,,1,1,25.011,13.5067,16.616,1,1,1,1.00091,1.04608,1.0,1.0
Units,sec,C,C,Pa,%,%,%,%,%,g,/m,,
Baseline,,34.2771,36.1044,159.204,101.725,97.8462,-0.00108697,0.0656053,20.9235,-0.14142,0.356757,,
2,0.25,31.0074,33.4003,154.284,101.727,97.9753,-0.00115317,0.0658751,20.919,484.251,0.344794,0.0,0.0
4,0.75,31.3727,33.0234,156.431,101.714,98.1234,-0.00114168,0.0661447,20.9181,484.341,0.329821,0.0,0.0
6,1.25,31.8289,33.4323,161.767,101.726,97.7654,-0.000849765,0.0663631,20.9155,484.421,0.364402,0.0,0.0
8,1.75,31.1696,33.3468,159.285,101.72,97.1133,-0.000613311,0.0677537,20.9117,484.251,0.425292,0.0,1.0
10,2.25,31.7674,33.5634,150.167,101.729,93.87,-0.000287714,0.0688801,20.9005,484.161,0.737797,0.0,1.0
12,2.75,32.418,34.8224,147.539,101.72,90.2677,9.66813e-05,0.0697925,20.884,484.081,1.09601,0.0,1.0
14,3.25,32.7369,34.9889,144.204,101.753,88.5563,0.00053263,0.0733496,20.8578,484.081,1.27466,0.0,1.0
16,3.75,33.212,36.012,142.864,101.717,85.2765,0.000997879,0.0787672,20.8249,483.951,1.6177,0.0,1.0
18,4.25,33.6495,37.0477,141.167,101.721,83.0636,0.00148768,0.0831554,20.7831,483.87,1.85937,0.0,1.0
20,4.75,34.2047,37.7491,140.003,101.71,81.9714,0.00198606,0.0919719,20.7356,483.84,1.97979,0.0,1.0
22,5.25,34.6616,38.6309,140.125,101.723,81.6747,0.00250665,0.0991134,20.6919,483.83,2.01421,0.0,1.0
24,5.75,34.5416,38.7008,143.927,101.712,81.1514,0.00303352,0.107568,20.6519,483.72,2.07222,0.0,1.0
26,6.25,34.4143,38.7729,138.756,101.724,80.8497,0.00356859,0.11682,20.6195,483.67,2.10748,0.0,0.0
28,6.75,34.7532,39.5746,141.112,101.718,81.2493,0.00409948,0.126461,20.5861,483.68,2.06172,0.0,0.0
30,7.25,35.2199,40.2272,141.269,101.726,79.9222,0.00452949,0.136204,20.5591,483.56,2.21354,0.0,0.0
32,7.75,35.622,41.237,143.685,101.716,80.6418,0.00499802,0.146393,20.5328,483.45,2.13044,0.0,0.0
34,8.25,36.4518,41.4833,148.114,101.726,81.3735,0.00548572,0.156714,20.5075,483.43,2.04841,0.0,0.0
36,8.75,36.8887,42.4794,145.06,101.721,81.0637,0.00595483,0.167591,20.4869,483.3,2.08293,0.0,0.0
38,9.25,37.4955,43.4224,145.41,101.743,79.3594,0.00618991,0.178665,20.474,483.31,2.27995,0.0,0.0
40,9.75,37.7839,44.2295,145.396,101.716,82.8085,0.00659189,0.187636,20.4518,483.19,1.8871,0.0,0.0
42,10.25,38.1058,45.4186,143.091,101.735,76.6379,0.00706641,0.2006,20.4294,483.07,2.59944,0.0,0.0
44,10.75,39.1202,45.9743,143.891,101.736,78.8838,0.00745076,0.211101,20.4073,483.01,2.33448,0.0,0.0
46,11.25,39.1904,47.1122,140.805,101.728,75.0538,0.00793205,0.222441,20.3853,482.96,2.79047,0.0,0.0
48,11.75,39.8992,47.8078,133.843,101.719,76.4625,0.0083219,0.234178,20.364,482.85,2.61903,0.0,0.0
50,12.25,40.3326,48.6945,147.562,101.727,76.4985,0.0088097,0.239182,20.3435,482.769,2.61541,0.0,0.0
52,12.75,40.9032,49.4658,144.636,101.721,81.0454,0.00920481,0.252762,20.3241,482.709,2.08499,0.0,0.0
54,13.25,41.1895,50.4471,140.334,101.737,79.764,0.00962597,0.263762,20.3083,482.709,2.23276,0.0,0.0
56,13.75,42.2876,51.3484,143.291,101.721,79.1682,0.0100581,0.27714,20.2884,482.669,2.30011,0.0,0.0
58,14.25,42.4443,51.835,135.626,101.733,78.1018,0.0104082,0.287976,20.2723,482.629,2.42559,0.0,0.0
60,14.75,43.0735,52.5762,134.136,101.739,74.9828,0.0108601,0.30199,20.2593,482.409,2.80008,0.0,0.0
62,15.25,43.7256,53.4153,142.387,101.723,76.7951,0.0112261,0.31334,20.2487,482.329,2.57949,0.0,0.0
64,15.75,44.3858,54.2397,141.996,101.731,77.2748,0.0115602,0.324765,20.2402,482.169,2.52309,0.0,0.0
66,16.25,44.4023,55.0353,134.999,101.727,77.7337,0.0118647,0.336026,20.2319,482.129,2.46843,0.0,0.0
68,16.75,44.9314,55.2849,143.722,101.726,79.0521,0.0121339,0.345147,20.2252,482.079,2.31399,0.0,0.0
70,17.25,44.7914,55.923,136.702,101.726,78.4375,0.0123723,0.356242,20.2171,482.019,2.38557,0.0,0.0
72,17.75,45.8251,55.8495,143.931,101.719,79.8619,0.0125785,0.365229,20.2106,481.949,2.2198,0.0,0.0
74,18.25,45.8914,56.3648,135.894,101.727,75.0208,0.0127571,0.37492,20.1897,481.859,2.79439,0.0,0.0
76,18.75,45.6891,58.286,134.849,101.725,76.4011,0.0128964,0.38494,20.1728,481.819,2.62688,0.0,0.0
78,19.25,46.6127,58.1832,146.09,101.736,79.583,0.0130043,0.396133,20.112,481.729,2.2535,0.0,0.0
80,19.75,46.7878,59.6851,126.248,101.725,80.1814,0.0130587,0.407969,20.0627,481.568,2.18376,0.0,0.0
82,20.25,48.0976,60.7921,125.462,101.731,83.233,0.0130733,0.422394,19.965,481.418,1.84153,0.0,0.0
84,20.75,49.4068,62.7931,123.133,101.72,85.0656,0.0130851,0.438433,19.8858,481.278,1.64068,0.0,0.0
86,21.25,51.4287,66.3051,100.786,101.727,86.455,0.0130946,0.451425,19.8217,481.128,1.49269,0.0,0.0
88,21.75,52.2839,69.6992,109.068,101.727,89.2621,0.012957,0.475062,19.7128,481.008,1.19947,0.0,0.0
90,22.25,54.5081,72.6596,109.256,101.731,90.5522,0.0128101,0.494209,19.6246,480.928,1.06818,0.0,0.0
92,22.75,57.2492,75.2759,116.643,101.726,91.3138,0.0127307,0.524251,19.5871,480.718,0.990879,0.0,0.0
94,23.25,58.7027,79.3418,92.2262,101.72,93.4729,0.0125949,0.548585,19.5228,480.507,0.775874,0.0,0.0
96,23.75,60.5134,82.7732,125.373,101.728,92.7478,0.0124849,0.579397,19.4243,480.467,0.84808,0.0,0.0
98,24.25,63.1965,86.7665,102.857,101.723,93.6768,0.012376,0.614345,19.3445,480.217,0.756181,0.0,0.0
100,24.75,65.5933,90.2136,94.4809,101.724,95.1884,0.0122701,0.642654,19.2378,480.117,0.609369,0.0,0.0
102,25.25,67.3832,94.5219,95.8983,101.721,95.0439,0.0121843,0.690061,19.1514,479.857,0.623051,0.0,0.0
104,25.75,69.6837,98.4179,98.3446,101.734,95.7664,0.0121148,0.710272,19.028,479.767,0.554705,0.0,0.0
106,26.25,71.7464,102.329,107.834,101.722,95.9561,0.0120613,0.744832,18.928,479.597,0.535435,0.0,0.0
108,26.75,73.8693,105.871,107.679,101.733,96.3729,0.0120203,0.772825,18.8368,479.466,0.496704,0.0,0.0
110,27.25,75.8654,109.749,95.4969,101.721,96.4835,0.0119926,0.82459,18.7535,479.286,0.485106,0.0,0.0
112,27.75,77.8502,113.533,97.7691,101.723,96.4662,0.0119751,0.874468,18.6861,479.156,0.486931,0.0,0.0
114,28.25,79.7766,116.353,111.732,101.721,96.6893,0.0119608,0.922021,18.6311,479.036,0.465472,0.0,0.0
116,28.75,81.2312,119.25,99.488,101.724,96.2228,0.0119418,0.967496,18.5865,478.866,0.510187,0.0,0.0
118,29.25,83.4819,121.292,107.061,101.717,97.706,0.0119197,1.01059,18.5504,478.716,0.369191,0.0,0.0
120,29.75,84.2839,123.806,111.549,101.725,96.4906,0.0118658,1.0505,18.5212,478.516,0.484766,0.0,0.0
122,30.25,86.2176,126.378,106.063,101.718,98.0174,0.0117897,1.08731,18.4975,478.395,0.340034,0.0,0.0
124,30.75,88.1495,128.665,112.982,101.729,97.6746,0.011665,1.12364,18.4783,478.275,0.373223,0.0,0.0
126,31.25,89.4155,131.714,104.8,101.716,96.6001,0.0115073,1.15891,18.4627,478.095,0.473574,0.0,0.0
128,31.75,90.8426,133.463,100.529,101.736,97.2973,0.0113795,1.18747,18.4688,477.935,0.409365,0.0,0.0
130,32.25,91.8847,135.322,102.369,101.73,97.49,0.0110837,1.21958,18.4738,477.855,0.390654,0.0,0.0
132,32.75,92.9584,136.19,101.701,101.732,96.0433,0.010844,1.24558,18.5129,477.685,0.528027,0.0,0.0
134,33.25,94.3118,138.019,114.292,101.726,95.8055,0.0104941,1.26989,18.5447,477.725,0.55022,0.0,0.0
136,33.75,94.9476,138.46,113.284,101.734,95.8968,0.0102106,1.28959,18.588,477.595,0.542226,0.0,0.0
138,34.25,95.7577,139.43,114.018,101.714,97.6482,0.0098157,1.3057,18.639,477.405,0.374361,0.0,0.0
140,34.75,95.6388,139.973,116.179,101.722,95.0581,0.0094958,1.3189,18.6803,477.294,0.621717,0.0,0.0
142,35.25,96.1656,139.479,114.515,101.737,95.8298,0.00923667,1.32772,18.7574,477.254,0.54893,0.0,0.0
144,35.75,96.3839,139.29,116.47,101.727,94.7619,0.00883435,1.33319,18.8198,477.174,0.650794,0.0,0.0
146,36.25,96.0913,139.451,119.099,101.717,94.8071,0.00850846,1.33761,18.8899,477.034,0.645533,0.0,0.0
148,36.75,96.3541,138.1,127.783,101.719,94.6412,0.00817283,1.33446,18.9641,476.994,0.661819,0.0,0.0
150,37.25,95.9475,138.071,113.225,101.73,94.2609,0.00783648,1.33191,19.049,477.014,0.699734,0.0,0.0
152,37.75,95.5069,136.497,129.818,101.723,94.0414,0.00748999,1.32441,19.1402,476.974,0.720538,0.0,0.0
154,38.25,94.9398,135.674,138.449,101.717,95.0079,0.00714269,1.31345,19.241,476.934,0.626118,0.0,0.0
156,38.75,94.8332,133.986,137.582,101.728,94.9916,0.00679221,1.30457,19.3468,476.854,0.628727,0.0,0.0
158,39.25,93.6275,131.478,134.414,101.719,95.9779,0.00644608,1.28392,19.4523,476.824,0.533128,0.0,0.0
160,39.75,92.0782,130.255,139.582,101.727,96.52,0.00611513,1.26719,19.5554,476.804,0.482117,0.0,0.0
162,40.25,91.6297,128.26,139.848,101.732,97.2055,0.00580155,1.24069,19.6518,476.774,0.417617,0.0,0.0
164,40.75,90.8038,126.732,142.835,101.722,96.3339,0.00552199,1.21922,19.7415,476.714,0.499417,0.0,0.0
166,41.25,89.972,125.388,142.761,101.718,96.6812,0.00527253,1.18987,19.8141,476.734,0.465982,0.0,0.0
168,41.75,88.4487,123.366,144.864,101.726,96.3394,0.00507047,1.16609,19.8917,476.744,0.499221,0.0,0.0
170,42.25,88.1798,121.853,141.826,101.715,96.1107,0.00489371,1.13563,19.9545,476.684,0.520026,0.0,0.0
172,42.75,87.0501,120.067,144.986,101.736,96.0717,0.00473874,1.11095,20.0054,476.724,0.525687,0.0,0.0
174,43.25,86.3206,118.412,144.843,101.725,97.6411,0.00461322,1.08005,20.0653,476.764,0.375996,0.0,0.0
176,43.75,85.2415,116.84,150.38,101.729,96.8704,0.00451279,1.05502,20.1138,476.764,0.449052,0.0,0.0
178,44.25,84.6472,114.596,150.776,101.719,96.7137,0.00443144,1.02793,20.1615,476.744,0.463051,0.0,0.0
180,44.75,83.1325,113.234,148.507,101.741,97.2096,0.00434068,0.999852,20.2078,476.724,0.418089,0.0,0.0
182,45.25,82.7077,111.453,149.146,101.721,97.5509,0.00426716,0.977109,20.253,476.694,0.384147,0.0,0.0
184,45.75,81.7682,109.491,144.676,101.731,97.3359,0.00417362,0.950759,20.2965,476.694,0.405286,0.0,0.0
186,46.25,80.7967,108.246,152.397,101.718,97.8181,0.00406726,0.922278,20.3318,476.694,0.358747,0.0,0.0
188,46.75,79.6387,106.79,149.514,101.727,97.4783,0.00398111,0.899209,20.3679,476.674,0.391453,0.0,0.0
190,47.25,78.8282,105.378,155.843,101.724,97.6107,0.00384873,0.869565,20.4039,476.674,0.378743,0.0,0.0
192,47.75,78.274,103.582,151.311,101.732,98.0787,0.00368517,0.845553,20.4342,476.644,0.335593,0.0,0.0
194,48.25,76.9555,101.986,145.985,101.724,98.1776,0.00350911,0.817453,20.4599,476.634,0.325604,0.0,0.0
196,48.75,76.3487,100.89,153.457,101.721,97.6426,0.00332729,0.794692,20.4808,476.624,0.375443,0.0,0.0
198,49.25,74.8396,99.0286,150.576,101.707,97.8718,0.00318001,0.767545,20.5043,476.634,0.352665,0.0,0.0
200,49.75,73.994,97.3027,153.911,101.739,97.9849,0.00297443,0.745555,20.5234,476.604,0.345006,0.0,0.0
202,50.25,73.3253,96.2067,152.736,101.721,98.4342,0.00280791,0.727744,20.5421,476.604,0.301356,0.0,0.0
204,50.75,72.6548,94.5071,151.688,101.72,98.2582,0.00264718,0.702386,20.5602,476.584,0.317699,0.0,0.0
206,51.25,71.6812,93.7451,150.271,101.719,98.5721,0.00251699,0.681847,20.5784,476.584,0.288322,0.0,0.0
208,51.75,71.2041,91.997,148.7,101.721,98.1112,0.0024103,0.661038,20.5962,476.574,0.331554,0.0,0.0
210,52.25,70.8359,90.7312,150.32,101.737,98.1482,0.00232388,0.640429,20.614,476.564,0.32958,0.0,0.0
212,52.75,70.3357,89.4115,148.232,101.725,98.422,0.00227235,0.623736,20.6313,476.584,0.302862,0.0,0.0
214,53.25,69.574,88.6237,153.189,101.714,98.3921,0.0022306,0.602805,20.6454,476.584,0.304686,0.0,0.0
216,53.75,68.9851,87.1691,153.942,101.74,98.4971,0.00219679,0.58585,20.663,476.594,0.297244,0.0,0.0
218,54.25,67.9154,86.162,152.156,101.723,98.4215,0.00219773,0.566382,20.6772,476.574,0.302724,0.0,0.0
220,54.75,67.7174,85.1478,152.874,101.728,98.8267,0.00219848,0.550613,20.6911,476.604,0.265474,0.0,0.0
222,55.25,66.412,83.627,155.98,101.719,98.492,0.0021954,0.532203,20.7045,476.594,0.295819,0.0,0.0
224,55.75,64.8315,81.7741,151.368,101.724,98.4732,0.00219291,0.517292,20.7153,476.604,0.298014,0.0,0.0
226,56.25,64.1031,80.5623,153.98,101.726,98.6609,0.00219184,0.50227,20.7217,476.604,0.280697,0.0,0.0
228,56.75,63.9512,79.001,154.748,101.714,98.6355,0.00217771,0.487454,20.7328,476.604,0.282014,0.0,0.0
230,57.25,63.3894,78.839,156.512,101.715,98.5604,0.00215518,0.475452,20.7445,476.594,0.28911,0.0,0.0
232,57.75,62.1588,77.0126,154.068,101.727,98.7516,0.00213045,0.459954,20.7539,476.574,0.272407,0.0,0.0
234,58.25,62.4469,76.1092,153.616,101.712,98.6898,0.00210459,0.447401,20.7642,476.594,0.276782,0.0,0.0
236,58.75,61.2784,75.5638,154.257,101.724,98.3353,0.00207328,0.434485,20.7726,476.594,0.310913,0.0,0.0
238,59.25,60.126,74.3926,155.465,101.714,98.0934,0.0020386,0.427676,20.7811,476.574,0.332582,0.0,0.0
240,59.75,60.1173,73.0848,158.073,101.723,98.2881,0.0019995,0.416034,20.788,476.584,0.31524,0.0,0.0
242,60.25,59.2624,72.539,154.57,101.712,98.4616,0.00195793,0.406604,20.795,476.584,0.29806,0.0,0.0
244,60.75,59.0029,71.7861,156.288,101.719,98.7176,0.00191133,0.393271,20.8006,476.614,0.274784,0.0,0.0
246,61.25,59.1699,71.2633,151.422,101.721,98.2653,0.00186193,0.382472,20.8065,476.634,0.317148,0.0,0.0
248,61.75,58.1526,69.9722,156.886,101.723,98.5219,0.00180383,0.370279,20.8112,476.634,0.293367,0.0,0.0
250,62.25,57.7191,69.1545,150.933,101.716,98.2466,0.00174048,0.358725,20.8164,476.624,0.318491,0.0,0.0
252,62.75,56.9842,67.6271,152.777,101.715,98.3571,0.00168917,0.347858,20.8206,476.624,0.308061,0.0,0.0
254,63.25,56.9215,67.7172,159,101.714,98.4996,0.00161469,0.337558,20.824,476.614,0.294702,0.0,0.0
256,63.75,56.4916,66.6901,155.886,101.725,98.2232,0.00152474,0.327867,20.8281,476.594,0.321451,0.0,0.0
258,64.25,55.9509,66.3247,160.469,101.723,98.1467,0.00145188,0.318608,20.8315,476.594,0.328383,0.0,0.0
260,64.75,55.5089,65.6012,150.144,101.712,98.4697,0.00134511,0.309838,20.8346,476.594,0.297304,0.0,0.0
262,65.25,55.1848,64.716,157.766,101.712,98.4154,0.00125863,0.302735,20.8376,476.594,0.302362,0.0,0.0
264,65.75,54.6865,63.4969,154.493,101.717,98.5381,0.00117442,0.29526,20.84,476.584,0.291373,0.0,0.0
266,66.25,54.3862,63.6078,157.007,101.725,98.6492,0.00109346,0.287657,20.8422,476.594,0.281744,0.0,0.0
268,66.75,54.3108,62.7657,156.309,101.723,98.7166,0.00101759,0.281499,20.844,476.554,0.275325,0.0,0.0
270,67.25,53.2834,62.3538,154.735,101.719,98.5488,0.000946877,0.273529,20.8468,476.554,0.290493,0.0,0.0
272,67.75,53.4831,61.7502,155.312,101.715,98.209,0.000878022,0.267073,20.8491,476.564,0.321885,0.0,0.0
274,68.25,53.1231,61.1932,153.508,101.725,98.2663,0.000811834,0.260546,20.8518,476.564,0.317426,0.0,0.0
276,68.75,52.7933,60.9587,155.414,101.725,98.5194,0.000744728,0.254092,20.854,476.574,0.29379,0.0,0.0
278,69.25,52.4815,59.7641,157.537,101.711,98.3607,0.000678228,0.247761,20.8558,476.564,0.30732,0.0,0.0
280,69.75,52.314,59.3088,154.36,101.715,98.3759,0.000624363,0.241641,20.8582,476.564,0.30631,0.0,0.0
282,70.25,51.7953,58.6995,152.753,101.73,98.4225,0.000580733,0.235787,20.8601,476.564,0.303298,0.0,0.0
284,70.75,51.563,58.5048,149.506,101.71,98.5265,0.000518435,0.230239,20.8616,476.604,0.29179,0.0,0.0
286,71.25,51.1217,58.2479,158.532,101.719,98.2897,0.000443712,0.224892,20.8642,476.584,0.314651,0.0,0.0
288,71.75,51.368,57.1888,156.36,101.719,98.459,0.000381903,0.219792,20.8663,476.584,0.298853,0.0,0.0
290,72.25,50.3419,57.0338,151.215,101.718,98.4819,0.000330683,0.215662,20.8689,476.594,0.296653,0.0,0.0
292,72.75,50.5255,56.5317,156.488,101.715,98.3551,0.000296252,0.212316,20.871,476.584,0.308212,0.0,0.0
294,73.25,49.8659,56.3693,153.49,101.728,98.1918,0.000274712,0.207075,20.8732,476.624,0.324611,0.0,0.0
296,73.75,49.8752,56.1916,153.558,101.713,98.4636,0.000259832,0.20283,20.8749,476.624,0.297908,0.0,0.0
298,74.25,50.0206,55.9358,156.389,101.725,98.3607,0.000250089,0.198505,20.8768,476.614,0.308584,0.0,0.0
300,74.75,49.4554,55.3049,153.052,101.712,98.4438,0.000242197,0.194203,20.8787,476.624,0.299714,0.0,0.0
302,75.25,49.0253,54.9028,157.982,101.726,98.2557,0.000211429,0.190038,20.8803,476.624,0.318457,0.0,0.0
304,75.75,48.8174,54.5334,154.787,101.707,98.3809,0.000186507,0.186051,20.8816,476.644,0.30513,0.0,0.0
306,76.25,48.6373,54.0029,155.03,101.72,98.066,0.000145808,0.182822,20.8828,476.634,0.335702,0.0,0.0
308,76.75,48.1753,53.5617,155.736,101.712,98.1573,9.43805e-05,0.178819,20.8841,476.594,0.326458,0.0,0.0
310,77.25,47.8931,53.6508,156.695,101.73,98.6822,5.27242e-05,0.175577,20.8851,476.604,0.279163,0.0,0.0
312,77.75,48.3552,52.9233,151.046,101.701,98.3972,-2.60777e-05,0.172342,20.8859,476.614,0.303059,0.0,0.0
314,78.25,47.5777,52.981,157.656,101.735,98.2425,-8.99072e-05,0.169174,20.8865,476.594,0.320542,0.0,0.0
316,78.75,47.0313,52.3657,163.986,101.728,98.3287,-0.000154429,0.165986,20.8871,476.614,0.311864,0.0,0.0
318,79.25,46.8101,51.7273,155.435,101.732,98.2983,-0.000218229,0.162845,20.8884,476.614,0.315074,0.0,0.0
320,79.75,47.3192,51.9496,160.864,101.723,98.2532,-0.000275034,0.160301,20.8895,476.624,0.318433,0.0,0.0
322,80.25,46.8032,51.5194,155.952,101.739,98.4159,-0.000325661,0.157204,20.8908,476.624,0.304693,0.0,0.0
324,80.75,46.2933,51.3126,152.603,101.705,98.4114,-0.000361542,0.154696,20.8918,476.614,0.302071,0.0,0.0
326,81.25,46.7586,50.8854,157.191,101.717,98.2613,-0.00038599,0.15209,20.8927,476.614,0.317155,0.0,0.0
328,81.75,46.7647,50.0945,156.27,101.711,98.279,-0.00039682,0.149464,20.8934,476.614,0.31494,0.0,0.0
330,82.25,46.4342,50.1835,154.528,101.716,98.3282,-0.000397515,0.146919,20.8948,476.614,0.310795,0.0,0.0
332,82.75,46.2325,50.3194,159.273,101.703,98.2653,-0.000396797,0.144482,20.896,476.604,0.315549,0.0,0.0
334,83.25,46.1536,49.3473,152.528,101.724,98.3449,-0.000395061,0.14212,20.897,476.604,0.310014,0.0,0.0
336,83.75,45.5188,49.8726,150.702,101.712,98.2425,-0.000393655,0.139858,20.8977,476.604,0.318423,0.0,0.0
338,84.25,45.9219,49.3471,155.435,101.726,98.1,-0.000405336,0.137676,20.8984,476.594,0.333081,0.0,0.0
340,84.75,45.5352,49.1906,161.086,101.709,98.6167,-0.000426335,0.135593,20.8989,476.574,0.283276,0.0,0.0
342,85.25,44.9715,48.7085,157.295,101.722,98.4494,-0.000443344,0.133556,20.8993,476.594,0.300049,0.0,0.0
344,85.75,44.8741,48.6735,155.358,101.708,98.6735,-0.000471736,0.131591,20.8996,476.574,0.277956,0.0,0.0
346,86.25,45.196,48.6806,161.94,101.721,98.101,-0.000494733,0.13,20.8999,476.594,0.33254,0.0,0.0
348,86.75,44.9461,48.0331,152.307,101.706,98.2983,-0.00051336,0.128253,20.9001,476.574,0.312694,0.0,0.0
350,87.25,44.322,47.4194,155.599,101.726,98.1076,-0.000528449,0.126426,20.9007,476.604,0.33237,0.0,0.0
352,87.75,44.4953,48.1447,152.686,101.706,98.1974,-0.000538106,0.124946,20.9012,476.584,0.322119,0.0,0.0
354,88.25,44.7444,47.2097,153.674,101.709,98.8419,-0.000543621,0.123334,20.9019,476.564,0.262387,0.0,0.0
356,88.75,44.3823,47.4529,154.774,101.705,98.099,-0.000544243,0.121656,20.9026,476.544,0.331242,0.0,0.0
358,89.25,44.6359,47.0925,155.814,101.719,98.0235,-0.000541285,0.119956,20.9032,476.554,0.339613,0.0,0.0
360,89.75,44.3027,46.45,160.43,101.702,97.9753,-0.000538889,0.118274,20.9037,476.564,0.342526,0.0,0.0
362,90.25,44.1427,46.9144,157.177,101.724,98.2319,-0.000530859,0.116911,20.9041,476.584,0.320571,0.0,0.0
364,90.75,43.7363,46.6201,153.724,101.71,98.3718,-0.000524355,0.11534,20.9044,476.584,0.306242,0.0,0.0
366,91.25,43.6516,46.6645,154.645,101.712,98.1801,-0.000523573,0.114067,20.9046,476.564,0.324251,0.0,0.0
368,91.75,44.0549,45.9134,158.82,101.707,98.5173,-0.000526978,0.112597,20.9053,476.594,0.292417,0.0,0.0
370,92.25,43.573,46.2451,154.609,101.719,98.2146,-0.000529736,0.111407,20.9058,476.594,0.321661,0.0,0.0
372,92.75,43.3485,45.6324,154.152,101.698,98.2603,-0.000542931,0.110031,20.9062,476.594,0.315576,0.0,0.0
374,93.25,43.628,45.9544,162.81,101.71,98.2501,-0.000553619,0.108917,20.9066,476.574,0.317602,0.0,0.0
376,93.75,43.0601,45.5879,153.42,101.708,98.1938,-0.000562276,0.107799,20.9069,476.574,0.322637,0.0,0.0
378,94.25,43.4966,45.6794,157.869,101.733,98.2887,-0.000588773,0.106698,20.9075,476.564,0.316011,0.0,0.0
380,94.75,43.0675,45.7837,156.791,101.709,98.3591,-0.000610236,0.105807,20.9083,476.584,0.307276,0.0,0.0
382,95.25,42.9751,45.322,151.764,101.716,98.3089,-0.000630057,0.104634,20.9089,476.594,0.31263,0.0,0.0
384,95.75,42.8011,45.2478,152.22,101.709,98.3023,-0.000646112,0.103684,20.9095,476.614,0.312576,0.0,0.0
386,96.25,42.7619,45.2517,152.284,101.711,98.4773,-0.000657193,0.102914,20.9099,476.614,0.296485,0.0,0.0
388,96.75,42.6144,44.6295,157.325,101.694,98.6294,-0.000664439,0.101988,20.9102,476.594,0.280757,0.0,0.0
390,97.25,42.5377,44.9255,157.295,101.709,98.4474,-0.000670308,0.100967,20.9105,476.594,0.299048,0.0,0.0
392,97.75,42.5703,44.765,156.84,101.711,98.2248,-0.000675062,0.0999893,20.911,476.594,0.320045,0.0,0.0
394,98.25,42.725,44.2231,155.957,101.712,98.2613,-0.000678912,0.0990615,20.9116,476.594,0.316671,0.0,0.0
396,98.75,42.4816,44.1687,154.59,101.71,98.2456,-0.000687159,0.0981234,20.912,476.584,0.318028,0.0,0.0
398,99.25,42.6354,44.4901,157.908,101.726,97.9418,-0.000698453,0.0971958,20.9124,476.564,0.347817,0.0,0.0
400,99.75,41.9557,43.9971,152.67,101.709,98.0539,-0.000707602,0.0964444,20.9127,476.544,0.335799,0.0,0.0
402,100.25,42.225,44.1531,154.192,101.713,98.1659,-0.000715012,0.0954817,20.913,476.554,0.325689,0.0,0.0
404,100.75,41.9645,43.6939,160.593,101.709,98.5944,-0.000721015,0.0947019,20.9132,476.564,0.285389,0.0,0.0
406,101.25,42.2845,43.743,151.889,101.708,98.419,-0.000717352,0.0939127,20.9136,476.564,0.301658,0.0,0.0
408,101.75,41.7066,43.6741,158.678,101.711,98.1279,-0.000714385,0.0931317,20.9141,476.574,0.329097,0.0,0.0
410,102.25,41.8796,43.0844,160.523,101.707,98.1523,-0.000713761,0.092499,20.9144,476.574,0.326448,0.0,0.0
412,102.75,41.5259,43.5324,155.849,101.707,98.4109,-0.000712694,0.0917283,20.9147,476.584,0.302302,0.0,0.0
414,103.25,42.0627,43.523,151.675,101.705,98.2334,-0.000721573,0.0911039,20.9151,476.584,0.318718,0.0,0.0
416,103.75,41.4848,43.518,159.308,101.706,98.3424,-0.000728765,0.0903264,20.9153,476.584,0.308577,0.0,0.0
418,104.25,41.8067,43.1231,159.344,101.707,98.2912,-0.000733372,0.0896967,20.9155,476.574,0.313468,0.0,0.0
420,104.75,41.7488,42.9626,155.124,101.713,98.6046,-0.000737104,0.0889557,20.9157,476.544,0.284818,0.0,0.0
422,105.25,40.9883,43.0759,151.939,101.707,98.3825,-0.000740127,0.0886398,20.9158,476.554,0.304951,0.0,0.0
424,105.75,41.6876,42.7587,152.925,101.713,98.3044,-0.000731615,0.0879996,20.9159,476.554,0.312796,0.0,0.0
426,106.25,41.5789,42.9387,153.748,101.708,98.3196,-0.00072472,0.0873911,20.916,476.534,0.310892,0.0,0.0
428,106.75,41.4291,42.0899,155.919,101.713,98.2963,-0.000718495,0.0868053,20.9161,476.544,0.313516,0.0,0.0
430,107.25,41.588,42.7366,155.32,101.706,98.2577,-0.000712876,0.0862473,20.9166,476.564,0.316482,0.0,0.0
432,107.75,41.0978,42.3436,155.581,101.711,98.2106,-0.000708324,0.085674,20.917,476.564,0.321334,0.0,0.0
434,108.25,40.8829,42.532,154.411,101.7,98.4382,-0.000704637,0.0851004,20.9173,476.554,0.299081,0.0,0.0
436,108.75,40.7288,42.3499,156.873,101.716,98.0757,-0.000702291,0.0846357,20.9176,476.574,0.334391,0.0,0.0
438,109.25,40.909,41.9049,153.471,101.703,98.4976,-0.000700968,0.0841381,20.9178,476.564,0.29385,0.0,0.0
440,109.75,40.1223,42.082,157.496,101.715,98.2993,-0.000699897,0.0836259,20.918,476.554,0.313455,0.0,0.0
442,110.25,40.8661,42.5733,160.254,101.696,98.1857,-0.000689286,0.083211,20.9186,476.594,0.322354,0.0,0.0
444,110.75,40.94,42.2395,153.716,101.716,98.0407,-0.000680691,0.0827124,20.9191,476.584,0.337702,0.0,0.0
446,111.25,40.4667,42.0866,155.731,101.693,98.2968,-0.000651808,0.0823085,20.9194,476.574,0.311684,0.0,0.0
448,111.75,40.3806,41.846,157.495,101.716,98.3607,-0.000628413,0.0818189,20.9198,476.554,0.307804,0.0,0.0
450,112.25,40.953,42.0888,155.463,101.706,98.0615,-0.000596002,0.0814222,20.92,476.554,0.334826,0.0,0.0
452,112.75,40.3012,42.0568,156.618,101.716,98.133,-0.000557635,0.0809927,20.9202,476.554,0.329032,0.0,0.0
454,113.25,39.8034,42.2532,157.239,101.704,98.0666,-0.000531045,0.0806447,20.9204,476.564,0.334166,0.0,0.0
456,113.75,40.6109,41.6681,155.822,101.728,98.3728,-0.000513545,0.0802546,20.9205,476.564,0.307746,0.0,0.0
458,114.25,40.3625,41.9141,154.163,101.697,98.2486,-0.000499369,0.0799386,20.9206,476.554,0.316591,0.0,0.0
460,114.75,39.6689,41.4924,155.093,101.723,98.2303,-0.000524423,0.079583,20.9209,476.544,0.320564,0.0,0.0
462,115.25,40.0463,42.0627,157.785,101.7,98.3333,-0.000565868,0.0792052,20.9214,476.564,0.308945,0.0,0.0
464,115.75,39.8438,41.6105,156.609,101.717,98.2146,-0.000618476,0.0788991,20.9218,476.564,0.32155,0.0,0.0
466,116.25,39.7657,41.5786,156.396,101.702,98.2298,-0.000661088,0.0785566,20.9221,476.554,0.318715,0.0,0.0
468,116.75,39.7804,41.4519,156.905,101.727,98.1436,-0.000695604,0.0782791,20.9223,476.544,0.32904,0.0,0.0
470,117.25,39.994,41.5506,152.256,101.695,98.4337,-0.000782018,0.0779462,20.9227,476.544,0.299098,0.0,0.0
472,117.75,39.8342,41.2987,155.612,101.702,97.921,-0.000852014,0.0776765,20.9231,476.544,0.347646,0.0,0.0
474,118.25,39.6685,40.9635,157.043,101.698,98.1918,-0.000920247,0.0773094,20.9234,476.544,0.321971,0.0,0.0
476,118.75,39.817,41.2086,158.037,101.709,98.0478,-0.00101389,0.077012,20.9238,476.564,0.336368,0.0,0.0
478,119.25,39.8957,40.8091,159.084,101.708,97.9788,-0.00103908,0.0767711,20.9239,476.554,0.34275,0.0,0.0
480,119.75,39.6439,40.985,156.86,101.707,98.2608,-0.00107639,0.0763869,20.924,476.584,0.316273,0.0,0.0
482,120.25,39.5061,40.837,157.079,101.701,98.062,-0.00110141,0.0760756,20.9242,476.554,0.334371,0.0,0.0
484,120.75,39.7669,40.8175,158.058,101.708,98.0458,-0.00109611,0.0757808,20.9243,476.544,0.336483,0.0,0.0
486,121.25,39.2115,40.2626,154.507,101.686,98.1639,-0.00109181,0.0755036,20.9244,476.524,0.323498,0.0,0.0
488,121.75,39.4895,40.5672,153.187,101.703,98.4773,-0.0010768,0.0751265,20.9244,476.554,0.29574,0.0,0.0
490,122.25,39.813,40.5313,156.648,101.686,98.3368,-0.00105425,0.0749892,20.9245,476.554,0.30735,0.0,0.0
492,122.75,39.1908,40.4997,155.391,101.707,98.0742,-0.00103406,0.0747544,20.9245,476.554,0.333752,0.0,0.0
494,123.25,39.8402,40.5675,155.043,101.698,98.0067,-0.00101598,0.0745002,20.9246,476.574,0.339247,0.0,0.0
496,123.75,39.3329,40.8815,152.791,101.701,98.3683,-0.00100198,0.0742368,20.9246,476.564,0.305755,0.0,0.0
498,124.25,39.1715,40.6071,153.02,101.683,97.8855,-0.000991208,0.074002,20.9246,476.564,0.349261,0.0,0.0
500,124.75,38.9853,40.1468,154.922,101.716,98.0889,-0.000979922,0.0737928,20.9247,476.544,0.333195,0.0,0.0
502,125.25,39.0319,39.5376,154.215,101.678,97.9514,-0.000968474,0.0736019,20.9247,476.524,0.342637,0.0,0.0
504,125.75,38.9438,40.4095,157.363,101.692,98.0818,-0.0009592,0.0734281,20.9247,476.544,0.331664,0.0,0.0
506,126.25,39.2574,40.3905,156.966,101.691,98.0219,-0.000943997,0.0732519,20.9249,476.544,0.33719,0.0,0.0
508,126.75,39.2211,39.8817,158.158,101.696,98.1,-0.00092476,0.0730771,20.9253,476.564,0.330366,0.0,0.0
510,127.25,38.474,39.6272,154.903,101.688,98.3662,-0.000909178,0.0728788,20.9257,476.564,0.304792,0.0,0.0
512,127.75,39.0796,40.3529,156.579,101.696,97.9844,-0.000890468,0.072667,20.9259,476.594,0.34115,0.0,0.0
514,128.25,39.1163,40.017,159.378,101.681,98.3044,-0.000875312,0.0724954,20.9262,476.584,0.309896,0.0,0.0
516,128.75,39.1373,40.3599,155.584,101.695,98.2329,-0.000875215,0.0722755,20.9263,476.584,0.317835,0.0,0.0
518,129.25,39.0765,40.1591,154.823,101.681,98.2314,-0.000875136,0.0720973,20.9265,476.564,0.316751,0.0,0.0
520,129.75,39.1154,40.0995,156.915,101.684,98.0899,-0.000886032,0.071953,20.9264,476.554,0.330199,0.0,0.0
522,130.25,39.1229,40.4617,154.284,101.676,98.3799,-0.000894859,0.0718362,20.926,476.554,0.302436,0.0,0.0
524,130.75,38.3403,39.8455,154.831,101.678,98.0899,-0.000910533,0.0717415,20.9258,476.544,0.329678,0.0,0.0
526,131.25,38.536,39.686,151.765,101.681,98.0093,-0.000923229,0.0716243,20.9256,476.564,0.337485,0.0,0.0
528,131.75,38.7475,39.9391,152.875,101.682,98.2055,-0.000933513,0.0715295,20.9254,476.554,0.319204,0.0,0.0
530,132.25,38.4429,39.8437,154.055,101.672,98.3186,-0.000941843,0.0714121,20.9253,476.524,0.307789,0.0,0.0
532,132.75,38.8404,39.5817,153.976,101.671,98.2765,-0.00094859,0.0713171,20.9252,476.524,0.311569,0.0,0.0
534,133.25,38.9143,39.8554,154.171,101.665,98.2121,-0.000940659,0.0712188,20.9251,476.534,0.317063,0.0,0.0
536,133.75,38.6636,40.0983,154.201,101.674,98.0047,-0.000934235,0.0711201,20.925,476.514,0.337241,0.0,0.0
538,134.25,38.3657,39.7382,159.133,101.665,98.1842,-0.00092416,0.0709592,20.9252,476.504,0.319707,0.0,0.0
540,134.75,38.5062,39.3656,152.668,101.658,98.5011,-0.000915999,0.0708288,20.9256,476.524,0.289427,0.0,0.0
542,135.25,38.6384,39.1218,158.43,101.658,98.3125,-0.000915084,0.0706807,20.9257,476.544,0.307091,0.0,0.0
544,135.75,38.6673,39.5742,157.117,101.657,98.3921,-0.000913519,0.0705223,20.926,476.534,0.299552,0.0,0.0
546,136.25,38.5543,39.6045,158.245,101.653,98.4464,-0.000915456,0.0703941,20.9262,476.524,0.294159,0.0,0.0
548,136.75,38.2686,39.161,157.584,101.664,98.0052,-0.00091991,0.0702618,20.9264,476.524,0.336302,0.0,0.0
550,137.25,38.5367,39.0157,154.874,101.662,98.1563,-0.000928004,0.0701292,20.9265,476.534,0.321978,0.0,0.0
552,137.75,38.5337,39.144,153.401,101.643,97.9611,-0.000938598,0.0700146,20.9266,476.554,0.33861,0.0,0.0
554,138.25,38.4675,39.4044,159.565,101.65,97.9996,-0.00094718,0.0699624,20.9267,476.564,0.335559,0.0,0.0
556,138.75,38.4912,39.4282,156.725,101.646,97.9976,-0.000966313,0.0698377,20.9268,476.554,0.335413,0.0,0.0
558,139.25,37.3864,39.2345,155.867,101.655,98.2516,-0.000992775,0.0697047,20.9268,476.574,0.312475,0.0,0.0
560,139.75,38.2825,39.2912,159.397,101.648,97.9844,-0.00100406,0.0695615,20.9269,476.574,0.336835,0.0,0.0
562,140.25,38.2837,39.3714,153.691,101.642,98.387,-0.00102335,0.0694137,20.9269,476.534,0.298648,0.0,0.0
564,140.75,38.2055,38.9055,158.934,101.625,98.0868,-0.00104218,0.0692939,20.9269,476.544,0.325162,0.0,0.0
566,141.25,38.0843,39.2454,158.867,101.639,98.0529,-0.00106031,0.0691841,20.9266,476.524,0.32957,0.0,0.0
568,141.75,37.8655,39.3654,158.163,101.635,98.1472,-0.00107308,0.0690951,20.9263,476.544,0.32045,0.0,0.0
570,142.25,38.5332,39.3463,154.824,101.634,97.9281,-0.00108169,0.0690231,20.9261,476.554,0.340879,0.0,0.0
572,142.75,38.4643,39.4341,156.534,101.612,98.1756,-0.00108546,0.0689924,20.9259,476.554,0.315711,0.0,0.0
574,143.25,37.7546,39.195,151.033,101.62,98.2425,-0.00108563,0.0688831,20.9257,476.554,0.310201,0.0,0.0
576,143.75,38.1566,39.0968,155.791,101.613,97.9753,-0.00108,0.0687436,20.9256,476.564,0.334526,0.0,0.0
578,144.25,37.9977,38.7873,155.287,101.62,98.065,-0.00107025,0.0686235,20.9255,476.534,0.326757,0.0,0.0
580,144.75,38.0811,39.0318,158.433,101.621,97.9499,-0.00106235,0.0685198,20.9254,476.524,0.337645,0.0,0.0
582,145.25,38.396,39.2839,153.415,101.62,98.2045,-0.00105595,0.0684429,20.9254,476.544,0.31368,0.0,0.0
584,145.75,38.0542,38.99,152.327,101.625,97.994,-0.00105589,0.068387,20.9253,476.524,0.333849,0.0,0.0
586,146.25,38.2633,38.9244,155.758,101.611,98.0899,-0.00106046,0.0683346,20.9253,476.544,0.323575,0.0,0.0
588,146.75,37.2015,39.3154,155.686,101.604,98.3181,-0.00106417,0.0682858,20.9252,476.534,0.301621,0.0,0.0
590,147.25,37.6997,39.3893,157.269,101.606,97.9327,-0.00107806,0.0682463,20.9252,476.524,0.337883,0.0,0.0
592,147.75,37.7364,39.5258,153.075,101.594,97.9104,-0.00109912,0.0682142,20.9252,476.554,0.338856,0.0,0.0
594,148.25,37.6091,39.1257,157.011,101.604,97.8505,-0.00111618,0.0681883,20.9252,476.524,0.345435,0.0,0.0
596,148.75,37.5151,38.7991,155.206,101.599,97.743,-0.00115313,0.0681269,20.9252,476.524,0.355036,0.0,0.0
598,149.25,37.5299,39.3539,153.976,101.601,98.0843,-0.00118306,0.0680771,20.9251,476.544,0.323278,0.0,0.0
600,149.75,37.3651,38.8746,162.921,101.58,98.0904,-0.00121692,0.0680368,20.9251,476.554,0.320774,0.0,0.0
602,150.25,37.2961,39.1697,154.866,101.593,97.7608,-0.001253,0.0680042,20.925,476.554,0.35285,0.0,0.0
604,150.75,37.527,38.8453,155.699,101.591,97.954,-0.00127966,0.0679494,20.9248,476.544,0.334547,0.0,0.0
606,151.25,37.4082,38.7923,157.496,101.596,98.1781,-0.00129894,0.0678795,20.9247,476.544,0.314022,0.0,0.0
608,151.75,37.0526,38.4864,155.664,101.572,98.0782,-0.00130687,0.0678229,20.9246,476.544,0.321168,0.0,0.0
610,152.25,37.0671,38.5695,155.204,101.585,98.1548,-0.00130637,0.0677625,20.9241,476.564,0.31516,0.0,0.0
612,152.75,37.308,38.652,153.058,101.566,98.0813,-0.00129636,0.0677004,20.9237,476.544,0.320361,0.0,0.0
614,153.25,37.7454,38.9232,155.186,101.573,97.9225,-0.00127959,0.0676502,20.9233,476.534,0.335893,0.0,0.0
616,153.75,37.4554,38.6067,161.735,101.558,98.0417,-0.001266,0.0676095,20.9231,476.544,0.323355,0.0,0.0
618,154.25,37.6062,38.7424,154.603,101.579,98.0625,-0.00124859,0.0675694,20.9228,476.554,0.32327,0.0,0.0
620,154.75,37.6209,38.7645,156.078,101.561,98.0371,-0.00122872,0.0675306,20.9227,476.564,0.324005,0.0,0.0
622,155.25,36.9993,38.8182,155.837,101.571,98.0726,-0.00120942,0.0674992,20.9225,476.574,0.321652,0.0,0.0
624,155.75,37.9113,38.9681,157.162,101.541,98.025,-0.0011909,0.0674737,20.9224,476.564,0.323394,0.0,0.0
626,156.25,37.3306,38.8491,156.919,101.557,98.0356,-0.0011759,0.0674531,20.9223,476.554,0.323775,0.0,0.0
628,156.75,37.2798,38.8924,159.146,101.548,97.9788,-0.00115279,0.0674222,20.9222,476.534,0.328347,0.0,0.0
630,157.25,37.3589,39.125,156.299,101.56,97.8145,-0.00113407,0.0673844,20.9222,476.534,0.34479,0.0,0.0
632,157.75,37.4474,38.8181,157.543,101.546,97.9205,-0.0011043,0.0673538,20.9221,476.514,0.333587,0.0,0.0
634,158.25,37.4075,38.7483,156.558,101.552,98.1193,-0.00107377,0.0672886,20.9221,476.534,0.315574,0.0,0.0
636,158.75,37.0697,38.4199,156.318,101.532,97.923,-0.00104327,0.0672358,20.922,476.524,0.332083,0.0,0.0
638,159.25,37.2857,38.5103,159.932,101.545,98.1994,-0.00101857,0.0671661,20.922,476.544,0.307452,0.0,0.0
640,159.75,37.058,38.6635,153.918,101.542,98.0366,-0.00099247,0.0671097,20.922,476.524,0.32234,0.0,0.0
642,160.25,36.9844,38.0884,156.231,101.539,98.0716,-0.00097133,0.067064,20.922,476.534,0.318841,0.0,0.0
644,160.75,37.1868,38.4309,156.095,101.531,98.0823,-0.000954207,0.0670411,20.922,476.554,0.317137,0.0,0.0
646,161.25,37.4116,38.4271,156.871,101.534,98.0265,-0.000941555,0.0670353,20.9219,476.554,0.322618,0.0,0.0
648,161.75,37.8388,38.3345,154.709,101.52,98.2937,-0.000931307,0.0670306,20.9219,476.534,0.29637,0.0,0.0
650,162.25,37.0537,38.7666,156.33,101.53,97.8521,-0.000927493,0.0669999,20.9219,476.544,0.338589,0.0,0.0
652,162.75,36.4565,38.8689,155.665,101.513,97.8784,-0.000928442,0.066975,20.9219,476.554,0.334589,0.0,0.0
654,163.25,36.6715,38.3417,152.226,101.533,97.7562,-0.00092921,0.0669549,20.9219,476.544,0.347804,0.0,0.0
656,163.75,37.0149,38.613,157.591,101.523,98.0153,-0.00094778,0.0668982,20.9219,476.534,0.322619,0.0,0.0
658,164.25,37.1022,38.1344,156.547,101.534,97.8617,-0.000978974,0.0668522,20.9226,476.534,0.33802,0.0,0.0
660,164.75,36.5702,38.4137,156.995,101.502,97.9114,,0.0668079,,476.544,0.330493,0.0,0.0
662,165.25,36.7732,38.3895,155.712,101.519,97.8541,,0.0667657,,476.544,0.337392,0.0,0.0
664,165.75,37.147,38.5181,158.493,101.494,98.0473,,0.0667315,,476.554,0.317058,0.0,0.0
666,166.25,37.3889,38.0237,151.332,101.518,97.9565,,0.0666825,,476.544,0.327718,0.0,0.0
668,166.75,36.7559,38.0094,153.833,101.5,97.9038,,0.0666237,,476.544,0.331057,0.0,0.0
670,167.25,37.0252,37.9753,150.386,101.509,97.7192,,0.0665902,,476.534,0.349118,0.0,0.0
672,167.75,37.0051,37.8701,155.158,101.495,97.955,,,,476.524,0.325737,0.0,0.0
674,168.25,36.631,38.4953,150.643,101.493,98.0371,,,,476.534,0.317895,0.0,0.0
676,168.75,37.0685,38.5336,154.8,101.5,97.9053,,,,476.534,0.330915,0.0,0.0
678,169.25,36.3671,38.7229,155.216,101.479,97.8495,,,,476.524,0.334243,0.0,0.0
680,169.75,36.6219,38.234,157.967,101.492,97.921,,,,476.514,0.328659,0.0,0.0
682,170.25,36.0456,38.3782,156.469,101.479,97.8947,,,,476.514,0.329938,0.0,0.0
684,170.75,36.443,38.0732,155.295,101.471,98.099,,,,476.514,0.310095,0.0,0.0
686,171.25,36.8498,37.5925,157.059,101.479,98.0057,,,,476.504,0.319608,0.0,0.0
688,171.75,36.6336,38.0411,157.767,101.474,97.884,,,,476.514,0.330525,0.0,0.0
690,172.25,37.1053,37.7657,161.733,101.467,98.131,,,,476.504,0.306733,0.0,0.0
692,172.75,36.5814,37.762,160.376,101.464,97.9038,,,,476.514,0.327777,0.0,0.0
694,173.25,36.7549,38.001,153.661,101.484,97.9996,,,,476.554,0.320589,0.0,0.0
696,173.75,36.6697,38.0398,159.897,101.468,97.7065,,,,476.524,0.34662,0.0,0.0
698,174.25,36.8514,38.1272,155.083,101.45,97.8475,,,,476.534,0.331749,0.0,0.0
700,174.75,36.519,37.9296,156.188,101.479,97.774,,,,476.534,0.341257,0.0,0.0
702,175.25,36.4172,38.776,154.945,101.453,97.7917,,,,476.544,0.337243,0.0,0.0
703,175.5,36.4791,37.9779,152.024,101.448,98.1066,,,,476.544,0.307333,0.0,0.0