File: 01_Data/Gypsum_Wallboard/Cone/Gypsum_Wallboard_Cone_HF75Scan_220511_R2.csv
Names,Time,Stack TC,Smoke TC,Exh Press,Smoke Comp,Smoke Meas,CO Meter,CO2 Meter,O2 Meter,Sample Mass,Ext Coeff,Start Test,Flame Verif
Chan Gain,,500,500,1,1,1,1,1,1,1,1,1.0,1.0
Offset,,0,0,0.138628,0,0,0,0,0,0,0,0.0,0.0
Gain,,1,1,25.011,13.1256,14.6231,1,1,1,1.001,0.958019,1.0,1.0
Units,sec,C,C,Pa,%,%,%,%,%,g,/m,,
Baseline,,44.7572,46.4593,130.256,99.0525,101.869,0.00020271,0.042023,21.0057,-445.956,-0.235562,,
2,0.25,42.4369,44.5624,128.743,98.9529,100.41,-8.84734e-05,0.0450779,21.0012,124.735,-0.122817,0.0,0.0
4,0.75,41.4753,43.6724,131.448,98.9569,100.633,-0.000123337,0.045247,21.001,124.735,-0.141169,0.0,0.0
6,1.25,41.4101,43.2055,129.788,98.9513,100.858,-0.000149869,0.0454289,21.0008,124.695,-0.160406,0.0,0.0
8,1.75,41.4843,42.9709,131.674,98.9601,101.819,-0.000163768,0.0455762,21.0007,124.665,-0.239334,0.0,0.0
10,2.25,40.7719,42.8675,130.807,98.9537,101.795,-0.000168194,0.0457362,21.0006,124.655,-0.23789,0.0,0.0
12,2.75,41.4879,43.0819,129.109,98.9585,101.061,-0.000164188,0.0458657,21.0005,124.605,-0.176695,0.0,0.0
14,3.25,40.8149,43.0135,127.463,98.9441,101.3,-0.000154111,0.0459493,21.0005,124.625,-0.197713,0.0,0.0
16,3.75,41.0952,42.794,129.991,98.9505,101.92,-0.000141521,0.0459977,21.0004,124.625,-0.248508,0.0,0.0
18,4.25,41.2176,42.8982,130.25,98.9425,102.146,-0.000127337,0.046037,21.0004,124.555,-0.26775,0.0,0.0
20,4.75,41.24,42.6808,130.329,98.9437,101.947,-0.000115848,0.0460281,21.0003,124.515,-0.251256,0.0,0.0
22,5.25,41.7767,43.099,126.911,98.9337,100.703,-9.93307e-05,0.046021,21.0003,124.525,-0.148953,0.0,0.0
24,5.75,41.1418,43.0163,131.401,98.9313,101.483,-8.59514e-05,0.0459746,21.0003,124.495,-0.21404,0.0,0.0
26,6.25,41.6404,43.1536,136.23,98.9277,100.801,-7.03061e-05,0.04588,21.0003,124.515,-0.157615,0.0,0.0
28,6.75,41.6955,43.0031,134.3,98.9429,100.987,-5.76335e-05,0.045752,21.0003,124.495,-0.171822,0.0,0.0
30,7.25,41.3887,43.2927,128.636,98.9217,101.258,-4.73686e-05,0.0455986,21.0003,124.475,-0.196174,0.0,0.0
32,7.75,41.7715,43.3202,128.86,98.9301,100.922,-2.10202e-05,0.0454294,21.0002,124.415,-0.167524,0.0,0.0
34,8.25,41.8023,43.284,132.319,98.9165,100.995,3.21957e-07,0.0452923,21.0002,124.425,-0.174736,0.0,0.0
36,8.75,41.877,43.9202,127.572,98.9161,100.423,3.80575e-05,0.0451542,21,124.395,-0.127031,0.0,0.0
38,9.25,42.0102,43.5662,128.498,98.9173,100.98,6.86233e-05,0.0450424,20.9996,124.375,-0.173442,0.0,0.0
40,9.75,41.8505,43.2307,130.839,98.9213,100.353,0.000111122,0.0449518,20.9993,124.345,-0.120761,0.0,0.0
42,10.25,41.4435,43.5887,127.912,98.9165,100.735,0.000161512,0.0448784,20.999,124.305,-0.153097,0.0,0.0
44,10.75,42.0608,43.5749,130.991,98.9089,100.49,0.000202328,0.044819,20.9988,124.244,-0.133318,0.0,0.0
46,11.25,42.1082,43.4004,125.413,98.9109,99.4828,0.000268378,0.0447438,20.9986,124.244,-0.0484551,0.0,0.0
48,11.75,42.3108,43.8812,128.386,98.9229,99.9692,0.00035157,0.0446828,21.0009,124.234,-0.0884238,0.0,0.0
50,12.25,41.6467,43.732,128.333,98.9145,99.3173,0.000453275,0.0446406,21.0027,124.184,-0.0341514,0.0,0.0
52,12.75,41.8661,44.2502,129.645,98.9081,98.8688,0.000566544,0.0446128,21.0042,124.144,0.00333933,0.0,0.0
54,13.25,42.3118,43.4876,129.72,98.9041,99.2972,0.000690762,0.0445903,21.0053,124.114,-0.0333372,0.0,0.0
56,13.75,42.5539,44.1852,128.134,98.9157,99.0138,0.000820601,0.0451567,21.005,124.084,-0.00833256,0.0,0.0
58,14.25,42.4507,43.9748,129.785,98.9105,98.4404,0.00092577,0.0461417,21.0047,124.054,0.0400364,0.0,0.0
60,14.75,42.5061,43.789,127.582,98.9101,98.0249,0.00105306,0.0469396,21.0045,123.994,0.0755455,0.0,0.0
62,15.25,42.0004,44.2444,130.135,98.9089,100.057,0.00119406,0.0530139,20.9951,124.004,-0.0970021,0.0,0.0
64,15.75,42.8276,44.262,126.835,98.9097,102.772,0.00133898,0.0579341,20.9875,123.904,-0.321929,0.0,0.0
66,16.25,42.5626,44.6255,120.854,98.9037,103.779,0.00141531,0.0736847,20.9762,123.864,-0.404326,0.0,0.0
68,16.75,42.5078,44.3267,121.829,98.9053,104.909,0.00154585,0.0864427,20.9569,123.704,-0.495229,0.0,1.0
70,17.25,42.5617,44.4535,119.796,98.9109,105.28,0.00169657,0.113839,20.9328,123.624,-0.524407,0.0,1.0
72,17.75,43.2055,44.0798,122.282,98.9093,104.265,0.00181865,0.13603,20.9058,123.634,-0.443182,0.0,1.0
74,18.25,43.5622,44.3916,119.963,98.9117,103.8,0.00194798,0.163189,20.8736,123.434,-0.40538,0.0,1.0
76,18.75,43.9703,45.1877,114.831,98.9057,104.082,0.00205273,0.193453,20.8381,123.464,-0.428693,0.0,1.0
78,19.25,44.604,44.9715,114.096,98.9097,104.941,0.00214334,0.206355,20.8094,123.233,-0.497464,0.0,1.0
80,19.75,45.0748,45.8303,113.086,98.8996,104.799,0.00222193,0.242984,20.7783,123.153,-0.486872,0.0,1.0
82,20.25,45.4781,46.058,115.679,98.8992,104.934,0.00228559,0.272653,20.7461,123.083,-0.497742,0.0,1.0
84,20.75,45.9621,46.249,110.872,98.9113,104.603,0.00234081,0.30396,20.7134,123.013,-0.470197,0.0,1.0
86,21.25,46.475,46.7573,114,98.9069,104.167,0.00238554,0.329318,20.687,122.943,-0.43547,0.0,1.0
88,21.75,46.6042,46.3206,112.633,98.9049,104.658,0.00242947,0.351787,20.6655,122.853,-0.475114,0.0,1.0
90,22.25,46.3341,46.5003,114.053,98.9057,104.865,0.00247197,0.371724,20.646,122.743,-0.491656,0.0,0.0
92,22.75,46.6052,46.534,111.612,98.9057,105.692,0.00251859,0.387873,20.6301,122.703,-0.557664,0.0,0.0
94,23.25,47.5131,47.4123,112.101,98.9025,105.462,0.00256733,0.401302,20.6173,122.613,-0.539643,0.0,0.0
96,23.75,47.8477,47.7232,114.204,98.8956,104.705,0.0026068,0.41218,20.6069,122.493,-0.47973,0.0,0.0
98,24.25,48.3093,48.1715,115.04,98.8976,105.646,0.0026705,0.419885,20.5985,122.363,-0.554725,0.0,0.0
100,24.75,48.7233,48.5885,113.233,98.8952,104.608,0.00273559,0.42513,20.5917,122.323,-0.471952,0.0,0.0
102,25.25,49.5962,49.4393,118.228,98.9057,105.074,0.00280046,0.42938,20.5914,122.242,-0.508412,0.0,0.0
104,25.75,50.0309,50.0383,114.966,98.9033,104.967,0.00287229,0.428326,20.5912,122.172,-0.500046,0.0,0.0
106,26.25,50.4532,50.4487,116.85,98.9008,104.728,0.00294785,0.427472,20.5938,122.082,-0.481114,0.0,0.0
108,26.75,50.9924,50.559,117.225,98.8976,105.125,0.00300905,0.42162,20.5983,122.022,-0.513196,0.0,0.0
110,27.25,51.0473,51.0813,117.077,98.9049,104.332,0.00318109,0.416881,20.6053,121.922,-0.448915,0.0,0.0
112,27.75,51.6445,51.3783,115.885,98.8924,105.163,0.00332044,0.407649,20.6138,121.892,-0.516635,0.0,0.0
114,28.25,51.7082,51.9698,117.877,98.9089,104.973,0.00343331,0.400171,20.6207,121.842,-0.500034,0.0,0.0
116,28.75,52.0736,52.1312,116.879,98.9097,104.012,0.00386979,0.38703,20.6305,121.772,-0.422694,0.0,0.0
118,29.25,52.6782,52.5245,118.458,98.9,103.849,0.00422335,0.376387,20.6421,121.722,-0.410303,0.0,0.0
120,29.75,52.4038,52.8352,119.197,98.89,103.472,0.00484921,0.362475,20.6515,121.682,-0.380657,0.0,0.0
122,30.25,53.1727,52.9955,120.463,98.9069,103.103,0.00535617,0.346445,20.6701,121.642,-0.3492,0.0,0.0
124,30.75,53.3239,53.2899,121.883,98.8896,104.003,0.0057668,0.333461,20.6851,121.582,-0.42371,0.0,0.0
126,31.25,53.4926,53.435,129.339,98.9016,102.193,0.0065808,0.310154,20.7028,121.502,-0.275148,0.0,0.0
128,31.75,53.6495,53.5772,127.567,98.8948,101.722,0.00724015,0.291276,20.7221,121.472,-0.236884,0.0,0.0
130,32.25,53.5617,53.7271,122.328,98.9,102.658,0.0080955,0.271288,20.7433,121.462,-0.313435,0.0,0.0
132,32.75,53.2347,54.3613,128.777,98.8956,102.03,0.00878833,0.250871,20.7654,121.442,-0.26218,0.0,0.0
134,33.25,53.339,53.9459,132.077,98.896,102.002,0.00958099,0.234333,20.7834,121.372,-0.259866,0.0,0.0
136,33.75,53.4304,53.9207,128.956,98.8756,103.103,0.010223,0.215451,20.8002,121.342,-0.351855,0.0,0.0
138,34.25,52.4952,54.5967,127.206,98.8968,103.134,0.0107431,0.200157,20.8159,121.302,-0.352524,0.0,0.0
140,34.75,53.1259,54.0873,129.092,98.8768,102.72,0.0113817,0.185351,20.8292,121.251,-0.32045,0.0,0.0
142,35.25,53.2569,53.5346,131.018,98.8968,101.849,0.0118989,0.173358,20.8406,121.221,-0.247215,0.0,0.0
144,35.75,52.2686,53.4904,127.834,98.8852,102.518,0.0123179,0.162469,20.8498,121.191,-0.303217,0.0,0.0
146,36.25,52.5401,53.9566,125.933,98.8956,101.607,0.0127334,0.153649,20.8582,121.151,-0.227299,0.0,0.0
148,36.75,52.5321,53.513,125.849,98.8832,102.225,0.01307,0.146505,20.8658,121.111,-0.279282,0.0,0.0
150,37.25,51.2144,52.7255,127.822,98.8988,101.964,0.0133494,0.140263,20.872,121.131,-0.256502,0.0,0.0
152,37.75,51.1528,52.2253,126.243,98.884,101.625,0.0135819,0.134797,20.8778,121.081,-0.229798,0.0,0.0
154,38.25,50.8723,52.4531,129.576,98.8956,101.53,0.0137606,0.130253,20.8828,121.061,-0.220911,0.0,0.0
156,38.75,50.8035,51.7137,125.165,98.8884,102.17,0.0138969,0.126467,20.8871,121.021,-0.274363,0.0,0.0
158,39.25,50.7603,52.4712,124.4,98.8908,102.444,0.0139896,0.123399,20.8905,120.991,-0.296629,0.0,0.0
160,39.75,50.2107,52.2161,129.121,98.8924,102.351,0.0140487,0.120637,20.8942,120.941,-0.288875,0.0,0.0
162,40.25,50.8932,51.9778,131.094,98.8952,103.207,0.0140702,0.118399,20.8971,120.901,-0.358621,0.0,0.0
164,40.75,50.1091,52.1913,127.037,98.892,102.82,0.0140637,0.116455,20.9004,120.861,-0.327294,0.0,0.0
166,41.25,50.621,51.9007,128.244,98.896,101.861,0.0140585,0.114761,20.9031,120.851,-0.248277,0.0,0.0
168,41.75,50.036,52.1541,127.528,98.8892,102.879,0.0139924,0.113265,20.9061,120.761,-0.332418,0.0,0.0
170,42.25,50.1399,51.9681,126.158,98.8948,102.721,0.0139389,0.111941,20.9085,120.751,-0.318991,0.0,0.0
172,42.75,50.0801,52.2437,125.89,98.8956,102.865,0.0138455,0.110723,20.9105,120.721,-0.330671,0.0,0.0
174,43.25,50.014,51.6281,125.514,98.8928,102.551,0.0137248,0.109604,20.9121,120.641,-0.30524,0.0,0.0
176,43.75,49.9763,51.8668,122.708,98.8816,102.552,0.0135777,0.108698,20.9134,120.641,-0.306266,0.0,0.0
178,44.25,50.0377,51.6828,130.797,98.8828,103.311,0.0134142,0.107687,20.9149,120.661,-0.368176,0.0,0.0
180,44.75,50.3314,51.6794,131.612,98.8808,102.286,0.0132233,0.106867,20.9161,120.601,-0.284547,0.0,0.0
182,45.25,49.7711,51.1195,131.774,98.8976,101.781,0.0130158,0.10605,20.9175,120.581,-0.241511,0.0,0.0
184,45.75,49.8903,51.4396,127.683,98.8964,102.331,0.0127881,0.105251,20.9187,120.561,-0.286885,0.0,0.0
186,46.25,49.6376,51.2123,126.971,98.8956,101.905,0.0125498,0.104355,20.9205,120.531,-0.251882,0.0,0.0
188,46.75,49.6265,51.2721,125.917,98.9069,101.671,0.0122986,0.103406,20.922,120.501,-0.231622,0.0,0.0
190,47.25,49.7735,51.4204,125.662,98.8848,102.156,0.0120427,0.102405,20.9236,120.441,-0.273494,0.0,0.0
192,47.75,49.2533,51.5318,127.183,98.8864,101.69,0.0118354,0.101384,20.9249,120.401,-0.234907,0.0,0.0
194,48.25,49.3945,51.562,128.018,98.8956,102.654,0.0115457,0.100397,20.9262,120.371,-0.313409,0.0,0.0
196,48.75,49.5982,51.3163,126.174,98.8912,101.165,0.0113111,0.0994529,20.9274,120.301,-0.191016,0.0,0.0
198,49.25,49.635,51.3191,129.399,98.89,102.862,0.0109841,0.0986884,20.9289,120.331,-0.330965,0.0,0.0
200,49.75,49.5929,51.4632,129.671,98.8972,103.636,0.0108608,0.0977929,20.9293,120.321,-0.3933,0.0,0.0
202,50.25,49.24,50.9895,124.703,98.9053,102.325,0.0106215,0.0969294,20.93,120.25,-0.285623,0.0,0.0
204,50.75,49.4293,50.8504,128.165,98.8892,102.172,0.010402,0.0961057,20.9307,120.23,-0.274478,0.0,0.0
206,51.25,49.0834,51.3741,126.522,98.8892,103.4,0.0102242,0.0954386,20.9316,120.17,-0.374815,0.0,0.0
208,51.75,49.2452,50.7789,129.74,98.9081,102.034,0.010051,0.0947674,20.9322,120.14,-0.261492,0.0,0.0
210,52.25,49.2945,50.9302,128.125,98.9097,102.313,0.0098844,0.0938242,20.9337,120.14,-0.28426,0.0,0.0
212,52.75,49.3046,50.8058,125.217,98.9125,102.628,0.0097243,0.0935704,20.9348,120.11,-0.309859,0.0,0.0
214,53.25,49.4129,50.3285,125.78,98.8952,101.966,0.00957197,0.092778,20.9366,120.05,-0.256956,0.0,0.0
216,53.75,48.5387,51.3504,128.851,98.8968,102.837,0.00942939,0.0921361,20.9381,120.06,-0.328344,0.0,0.0
218,54.25,49.1662,50.9291,127.316,98.894,103.135,0.00929663,0.0914712,20.9393,120.02,-0.352836,0.0,0.0
220,54.75,48.7484,50.4394,126.969,98.8952,102.906,0.00917191,0.090802,20.9402,120,-0.334095,0.0,0.0
222,55.25,49.2307,50.6403,128.748,98.896,101.919,0.00905542,0.0901585,20.9414,119.95,-0.252988,0.0,0.0
224,55.75,48.7872,51.2408,129.406,98.8908,102.717,0.00896106,0.0895459,20.9424,119.89,-0.319003,0.0,0.0
226,56.25,48.8248,50.838,126.328,98.8948,101.934,0.00885491,0.0890497,20.9432,119.83,-0.254342,0.0,0.0
228,56.75,48.5589,50.1274,134.425,98.9097,103.002,0.00874219,0.0884414,20.9439,119.87,-0.340737,0.0,0.0
230,57.25,48.8366,50.7256,129.484,98.8916,101.99,0.00865089,0.0879486,20.9444,119.85,-0.259284,0.0,0.0
232,57.75,48.4993,50.5869,123.908,98.8924,102.609,0.00853211,0.0873705,20.9448,119.82,-0.310027,0.0,0.0
234,58.25,48.7664,50.6008,130.653,98.8984,102.908,0.00839556,0.0869023,20.9452,119.79,-0.333968,0.0,0.0
236,58.75,48.4131,50.5555,127.073,98.9061,101.845,0.00833735,0.0863168,20.9454,119.74,-0.2461,0.0,0.0
238,59.25,48.5012,50.8578,127.128,98.9016,102.036,0.00818906,0.0858425,20.9459,119.71,-0.26222,0.0,0.0
240,59.75,48.2466,50.4159,127.298,98.9081,103.317,0.00806894,0.0854583,20.9465,119.66,-0.366467,0.0,0.0
242,60.25,48.4966,50.321,126.026,98.8916,103.229,0.0079529,0.0849519,20.9477,119.64,-0.360709,0.0,0.0
244,60.75,48.4514,50.474,128.076,98.8988,102.864,0.00785891,0.0843658,20.9481,119.6,-0.330326,0.0,0.0
246,61.25,48.5458,49.9412,126.493,98.8992,102.006,0.00777654,0.0838912,20.9488,119.57,-0.259961,0.0,0.0
248,61.75,47.7377,50.3529,127.537,98.9069,102.823,0.00770982,0.083631,20.9493,119.52,-0.326326,0.0,0.0
250,62.25,48.0643,50.3224,126.712,98.8984,101.811,0.00765775,0.083186,20.9497,119.49,-0.243911,0.0,0.0
252,62.75,48.1359,50.2712,130.357,98.9141,101.538,0.00761734,0.0827678,20.9505,119.5,-0.22001,0.0,0.0
254,63.25,47.5883,49.9045,128.92,98.9069,102.43,0.00758461,0.082377,20.9512,119.47,-0.294132,0.0,0.0
256,63.75,48.0454,50.0241,125.507,98.9025,103.002,0.0075631,0.0819738,20.9517,119.45,-0.341313,0.0,0.0
258,64.25,47.9066,50.1045,125.248,98.898,102.047,0.00754567,0.0815691,20.9521,119.44,-0.263445,0.0,0.0
260,64.75,48.0679,50.5095,130.196,98.9081,101.852,0.0075263,0.0811474,20.9524,119.37,-0.246446,0.0,0.0
262,65.25,47.9295,50.3536,127.438,98.9021,102.983,0.00750587,0.0807214,20.9527,119.34,-0.339781,0.0,0.0
264,65.75,47.5888,50.2101,124.671,98.9016,101.88,0.00747619,0.0803763,20.9529,119.3,-0.249309,0.0,0.0
266,66.25,47.9927,50.112,129.236,98.9033,103.007,0.00744032,0.0799459,20.9536,119.27,-0.341646,0.0,0.0
268,66.75,47.8216,50.2857,127.465,98.9105,102.464,0.00739552,0.0795972,20.9541,119.229,-0.296609,0.0,0.0
270,67.25,48.0292,49.9325,125.768,98.9008,103.252,0.00734505,0.0792427,20.9549,119.189,-0.361778,0.0,0.0
272,67.75,47.7441,50.1107,126.248,98.9141,102.471,0.00728449,0.0788905,20.9556,119.189,-0.296923,0.0,0.0
274,68.25,47.3953,49.7064,134.036,98.9077,101.584,0.00721773,0.0785259,20.9561,119.139,-0.224358,0.0,0.0
276,68.75,47.5875,49.9323,129.575,98.9121,103.061,0.00716366,0.0781591,20.9566,119.049,-0.345301,0.0,0.0
278,69.25,47.85,49.7862,128.507,98.8996,102.131,0.00707007,0.0777611,20.9574,119.089,-0.270179,0.0,0.0
280,69.75,48.13,49.9445,123.233,98.9405,103.285,0.00699427,0.0773478,20.958,119.079,-0.361169,0.0,0.0
282,70.25,47.9569,49.6296,128.866,98.9085,102.621,0.00690666,0.0769337,20.9586,119.019,-0.309652,0.0,0.0
284,70.75,47.6915,49.8659,127.382,98.9193,102.386,0.00681212,0.076527,20.9591,118.969,-0.289489,0.0,0.0
286,71.25,47.5624,49.8316,129.627,98.9041,101.96,0.00671855,0.0761182,20.9596,118.929,-0.255692,0.0,0.0
288,71.75,47.4648,50.1189,126.454,98.9117,102.367,0.00662747,0.0757158,20.96,118.909,-0.28856,0.0,0.0
290,72.25,47.2584,49.8079,126.913,98.9129,101.948,0.00655369,0.0753898,20.9603,118.909,-0.254024,0.0,0.0
292,72.75,47.0734,49.2045,128.792,98.9113,102.637,0.00645175,0.0749677,20.9608,118.889,-0.310693,0.0,0.0
294,73.25,47.1934,49.6895,129.506,98.9085,101.988,0.00636918,0.0744836,20.9614,118.819,-0.257671,0.0,0.0
296,73.75,46.83,49.6402,128.54,98.9097,102.472,0.0062676,0.0740915,20.9621,118.769,-0.297372,0.0,0.0
298,74.25,47.1737,49.1979,128.976,98.9033,102.709,0.00618532,0.0736098,20.9629,118.809,-0.317326,0.0,0.0
300,74.75,46.8738,49.3321,124.871,98.9193,102.55,0.00608524,0.0732196,20.9635,118.769,-0.302921,0.0,0.0
302,75.25,46.6747,49.5582,130.86,98.9057,103.052,0.00600418,0.0727257,20.9641,118.749,-0.345082,0.0,0.0
304,75.75,47.3176,48.8312,126.116,98.9177,102.656,0.00590265,0.0723257,20.9647,118.759,-0.311719,0.0,0.0
306,76.25,47.5205,49.1552,126.36,98.9093,102.6,0.0058204,0.0718513,20.9654,118.719,-0.307902,0.0,0.0
308,76.75,46.8893,49.216,130.107,98.9125,102.267,0.00575379,0.0714671,20.966,118.669,-0.280245,0.0,0.0
310,77.25,46.8013,49.4093,128.588,98.9125,101.502,0.00566028,0.0709372,20.9665,118.639,-0.217191,0.0,0.0
312,77.75,46.6296,49.4418,130.747,98.9161,102.289,0.00558454,0.0705081,20.9669,118.599,-0.281809,0.0,0.0
314,78.25,46.6302,49.0653,127.287,98.9189,102.694,0.00549603,0.0698737,20.9677,118.579,-0.314721,0.0,0.0
316,78.75,46.509,49.3943,131.646,98.9117,102.367,0.00542434,0.0693598,20.9687,118.569,-0.28856,0.0,0.0
318,79.25,46.3754,48.9116,125.381,98.9033,101.904,0.00534358,0.0688071,20.9696,118.579,-0.251198,0.0,0.0
320,79.75,46.6633,49.35,129.773,98.9109,101.939,0.00525775,0.0682366,20.9703,118.529,-0.253421,0.0,0.0
322,80.25,46.4763,49.0494,127.431,98.9117,102.684,0.00518822,0.0677745,20.971,118.509,-0.31453,0.0,0.0
324,80.75,46.59,49.1984,128.426,98.9177,102.549,0.0051319,0.0670592,20.9719,118.479,-0.302983,0.0,0.0
326,81.25,46.9351,49.2306,129.516,98.9085,101.842,0.0050087,0.0664798,20.9726,118.449,-0.245601,0.0,0.0
328,81.75,46.7596,49.1072,126.477,98.9253,102.468,0.0048701,0.0658598,20.9732,118.409,-0.295678,0.0,0.0
330,82.25,46.2002,48.6805,129.248,98.9097,102.867,0.0047229,0.0652221,20.9739,118.389,-0.329699,0.0,0.0
332,82.75,46.4901,49.0986,128.586,98.9169,102.204,0.00460367,0.0647055,20.9746,118.379,-0.274699,0.0,0.0
334,83.25,46.615,49.3047,129.157,98.9237,101.471,0.00440165,0.0642871,20.9757,118.279,-0.213651,0.0,0.0
336,83.75,46.6333,48.867,124.293,98.9121,101.639,0.00423801,0.0634026,20.977,118.279,-0.228523,0.0,0.0
338,84.25,46.7136,48.7918,126.757,98.9045,101.99,0.00416825,0.0626862,20.9776,118.228,-0.258195,0.0,0.0
340,84.75,46.4824,48.8468,125.511,98.9133,102.749,0.00399298,0.061793,20.9785,118.238,-0.319725,0.0,0.0
342,85.25,46.4759,48.9365,128.311,98.9129,101.368,0.00380063,0.0610695,20.9797,118.148,-0.206029,0.0,0.0
344,85.75,45.9771,48.6428,127.813,98.9129,102.852,0.00362106,0.0602975,20.9807,118.118,-0.328186,0.0,0.0
346,86.25,46.5649,49.1437,126.831,98.9073,102.981,0.00345423,0.0595046,20.9815,118.098,-0.339193,0.0,0.0
348,86.75,46.0377,48.8203,126.974,98.9101,102.733,0.0033037,0.0587122,20.9821,118.088,-0.318683,0.0,0.0
350,87.25,46.6073,48.8471,131.336,98.9125,101.356,0.00316792,0.0583033,20.9831,118.078,-0.205064,0.0,0.0
352,87.75,46.582,48.9728,130.621,98.9137,102.745,0.00304191,0.057604,20.9838,118.118,-0.319399,0.0,0.0
354,88.25,45.8257,48.8929,125.923,98.9045,102.485,0.00292542,0.0568375,20.9845,118.038,-0.298838,0.0,0.0
356,88.75,46.0131,48.7721,128.19,98.9153,101.958,0.00281569,0.0560366,20.985,118.028,-0.254629,0.0,0.0
358,89.25,46.3762,48.2845,127.832,98.9037,102.07,0.00271298,0.0552735,20.9863,117.998,-0.264842,0.0,0.0
360,89.75,46.2586,48.7225,128.655,98.9117,102.295,0.00262978,0.0545526,20.9873,117.998,-0.282622,0.0,0.0
362,90.25,46.5808,48.6801,126.69,98.9157,103.106,0.00251377,0.0538758,20.9881,118.018,-0.348669,0.0,0.0
364,90.75,46.2089,48.5797,129.779,98.9037,103.973,0.0024198,0.0532441,20.9888,117.998,-0.42003,0.0,0.0
366,91.25,46.3409,48.522,130.875,98.9069,102.161,0.00231238,0.0526539,20.9894,117.958,-0.272062,0.0,0.0
368,91.75,45.9851,48.8462,130.13,98.9117,102.571,0.0021972,0.0521052,20.9898,117.938,-0.305285,0.0,0.0
370,92.25,46.2201,48.6368,129.856,98.9085,102.765,0.00208667,0.0516608,20.9902,117.948,-0.321447,0.0,0.0
372,92.75,46.1473,48.7743,130.56,98.9149,101.321,0.00198165,0.0511381,20.9907,117.848,-0.201936,0.0,0.0
374,93.25,45.9833,48.6121,133.638,98.9133,101.756,0.00189658,0.0507147,20.9913,117.798,-0.238083,0.0,0.0
376,93.75,46.1958,48.6407,126.432,98.9085,102.253,0.00180586,0.0502719,20.9919,117.798,-0.279448,0.0,0.0
378,94.25,46.1452,48.8803,129.572,98.9113,101.704,0.00173239,0.0498234,20.9923,117.788,-0.233977,0.0,0.0
380,94.75,46.0778,48.1408,128.232,98.9109,102.068,0.00166682,0.0494601,20.9931,117.758,-0.264082,0.0,0.0
382,95.25,45.578,48.3749,130.527,98.9117,102.079,0.0016137,0.0490439,20.9941,117.718,-0.26486,0.0,0.0
384,95.75,45.847,48.9143,128.956,98.9057,102.927,0.00156463,0.0487068,20.995,117.678,-0.334923,0.0,0.0
386,96.25,45.987,48.6039,126.699,98.9129,101.881,0.00152488,0.048341,20.9957,117.698,-0.248467,0.0,0.0
388,96.75,46.0182,48.3242,129.43,98.9016,101.869,0.00148179,0.0479614,20.9962,117.678,-0.248389,0.0,0.0
390,97.25,45.7891,48.1577,128.457,98.9021,101.811,0.00144689,0.0475968,20.9967,117.648,-0.243568,0.0,0.0
392,97.75,45.6155,48.2049,126.632,98.9145,102.675,0.00141861,0.0472503,20.9971,117.658,-0.313599,0.0,0.0
394,98.25,45.5112,48.2321,127.983,98.9097,101.939,0.00137031,0.0469624,20.9974,117.618,-0.25356,0.0,0.0
396,98.75,45.8988,48.2729,127.433,98.8992,102.047,0.00133118,0.0467228,20.9976,117.568,-0.263343,0.0,0.0
398,99.25,45.1685,47.9331,127.765,98.9097,102.138,0.00129223,0.0465074,20.9978,117.528,-0.269879,0.0,0.0
400,99.75,45.7973,47.7244,127.805,98.9053,102.558,0.00126068,0.0463137,20.998,117.478,-0.304806,0.0,0.0
402,100.25,45.8071,48.1296,127.326,98.9165,102.434,0.00123513,0.0460998,20.9981,117.468,-0.293608,0.0,0.0
404,100.75,46.0408,48.9714,126.135,98.9,102.341,0.0012229,0.0458752,20.9982,117.418,-0.287385,0.0,0.0
406,101.25,45.4812,47.8548,127.933,98.9101,101.923,0.00121681,0.0456933,20.9983,117.428,-0.252201,0.0,0.0
408,101.75,45.9476,47.8625,128.979,98.898,102.014,0.00121531,0.0454783,20.9988,117.408,-0.260652,0.0,0.0
410,102.25,45.6015,48.1464,126.335,98.9045,102.324,0.00121092,0.0453041,20.9992,117.398,-0.285618,0.0,0.0
412,102.75,44.8125,48.1678,129.079,98.9005,103.226,0.00120449,0.0451417,20.9995,117.338,-0.359741,0.0,0.0
414,103.25,45.1219,47.8249,125.761,98.9021,102.068,0.00119929,0.0449909,20.9998,117.388,-0.264758,0.0,0.0
416,103.75,45.3533,47.8263,131.376,98.9113,102.431,0.00119507,0.0448688,21,117.338,-0.293831,0.0,0.0
418,104.25,45.3257,47.9084,125.3,98.9097,102.139,0.00115177,0.0447157,21.0005,117.368,-0.269988,0.0,0.0
420,104.75,45.4486,47.6623,128.053,98.9045,102.168,0.0011167,0.0445917,21.001,117.318,-0.272781,0.0,0.0
422,105.25,45.4092,47.8183,132.514,98.9125,102.048,0.00108828,0.0444642,21.0015,117.308,-0.262293,0.0,0.0
424,105.75,45.2481,48.4823,128.421,98.9025,102.46,0.0010206,0.044361,21.0019,117.278,-0.296996,0.0,0.0
426,106.25,45.0838,47.2934,127.214,98.9029,101.797,0.000965775,0.0442773,21.0022,117.217,-0.242358,0.0,0.0
428,106.75,45.2694,47.8815,128.137,98.8908,103.238,0.000891215,0.0441825,21.0025,117.187,-0.361503,0.0,0.0
430,107.25,45.2123,48.0097,130.862,98.9185,102.369,0.000830822,0.0441057,21.0027,117.217,-0.288165,0.0,0.0
432,107.75,45.1344,47.8108,127.628,98.8996,102.137,0.000772387,0.0440435,21.0029,117.167,-0.270693,0.0,0.0
434,108.25,45.0714,47.7465,133.204,98.9005,101.232,0.000716492,0.043939,21.003,117.187,-0.195829,0.0,0.0
436,108.75,45.2022,47.7748,128.502,98.9077,102.615,0.000669314,0.0438544,21.0031,117.127,-0.309208,0.0,0.0
438,109.25,45.2493,48.0307,133.613,98.898,102.284,0.000629388,0.0438143,21.0032,117.157,-0.2829,0.0,0.0
440,109.75,45.071,47.7444,128.515,98.8936,102.225,0.000594511,0.0438075,21.0033,117.127,-0.278433,0.0,0.0
442,110.25,44.5657,47.7851,129.813,98.8956,102.263,0.000563978,0.0437734,21.0033,117.117,-0.281345,0.0,0.0
444,110.75,45.0333,47.6606,129.313,98.8864,101.411,0.000539246,0.0437203,21.0034,117.077,-0.211826,0.0,0.0
446,111.25,44.8777,47.2642,128.502,98.8912,102.23,0.000516805,0.0436701,21.0034,117.097,-0.279078,0.0,0.0
448,111.75,45.0275,47.246,127.267,98.892,102.094,0.000498627,0.043623,21.0034,117.067,-0.267776,0.0,0.0
450,112.25,45.0202,47.8864,133.852,98.8912,102.824,0.00049405,0.0435778,21.0035,117.007,-0.32769,0.0,0.0
452,112.75,44.986,47.5441,125.936,98.8904,102.861,0.000499475,0.0435347,21.0035,116.967,-0.330858,0.0,0.0
454,113.25,45.2579,47.9903,127.473,98.8908,101.877,0.000503869,0.0435141,21.0035,116.987,-0.250008,0.0,0.0
456,113.75,44.6142,47.0811,131.56,98.882,102.252,0.000530336,0.0435102,21.0037,116.967,-0.281622,0.0,0.0
458,114.25,44.6149,47.3367,130.829,98.8928,102.896,0.000551773,0.043507,21.0041,116.937,-0.333497,0.0,0.0
460,114.75,45.1105,47.6654,126.768,98.8776,102.384,0.000594474,0.043476,21.0045,116.937,-0.292808,0.0,0.0
462,115.25,44.9536,47.8464,129.911,98.8868,102.335,0.000629061,0.0434252,21.0047,116.927,-0.288032,0.0,0.0
464,115.75,44.7434,47.2042,130.127,98.8752,101.777,0.000665525,0.0433841,21.0049,116.927,-0.243086,0.0,0.0
466,116.25,45.0117,47.3638,128.689,98.8924,102.985,0.000695061,0.0433372,21.0051,116.927,-0.340781,0.0,0.0
468,116.75,44.7035,47.4889,129.847,98.8864,101.188,0.000714157,0.0432993,21.0053,116.857,-0.193315,0.0,0.0
470,117.25,44.872,47.0109,127.656,98.8852,102.792,0.000729625,0.0432686,21.0054,116.847,-0.325648,0.0,0.0
472,117.75,44.9301,47.2823,130.701,98.8764,102.397,0.000730086,0.0432437,21.0057,116.797,-0.294046,0.0,0.0
474,118.25,44.9039,47.3258,129.166,98.88,101.495,0.000730459,0.0432235,21.0062,116.767,-0.219357,0.0,0.0
476,118.75,44.4573,47.2047,130.159,98.87,101.954,0.000730761,0.0432072,21.0065,116.757,-0.258144,0.0,0.0
478,119.25,44.6417,47.2625,129.966,98.8948,102.804,0.000704471,0.0432082,21.0069,116.797,-0.325779,0.0,0.0
480,119.75,44.8151,47.3987,128.317,98.8764,103.093,0.000683176,0.0432218,21.0071,116.747,-0.350951,0.0,0.0
482,120.25,44.8176,47.4932,130.289,98.882,102.364,0.000661104,0.0432258,21.0071,116.727,-0.290859,0.0,0.0
484,120.75,44.6685,47.332,128.311,98.8804,102.21,0.000643226,0.0432225,21.0068,116.737,-0.278309,0.0,0.0
486,121.25,44.3568,47.1014,129.244,98.8848,101.718,0.000633187,0.0432199,21.0067,116.717,-0.237403,0.0,0.0
488,121.75,44.8911,46.701,129.514,98.8672,102.495,0.000631011,0.0432178,21.0066,116.687,-0.30281,0.0,0.0
490,122.25,44.7544,47.2701,132.121,98.8736,102.558,0.000627291,0.0432161,21.0064,116.657,-0.307495,0.0,0.0
492,122.75,44.5918,46.8869,129.009,98.8812,101.554,0.000633925,0.0432218,21.0063,116.657,-0.224131,0.0,0.0
494,123.25,44.8356,47.7377,126.643,98.8844,102.937,0.000639299,0.0432329,21.0062,116.637,-0.337528,0.0,0.0
496,123.75,44.4445,47.3918,130.03,98.8704,101.811,0.000658128,0.0432205,21.0062,116.607,-0.246331,0.0,0.0
498,124.25,44.7893,47.3759,127.022,98.8932,102.014,0.00067338,0.0431912,21.0061,116.607,-0.261061,0.0,0.0
500,124.75,44.7697,47.4646,130.61,98.8716,102.171,0.000701423,0.0431787,21.0061,116.627,-0.275829,0.0,0.0
502,125.25,44.5302,47.562,131.764,98.8752,101.37,0.000724139,0.0431574,21.006,116.587,-0.209413,0.0,0.0
504,125.75,44.3174,46.9924,128.581,98.8784,102.559,0.000742538,0.0431401,21.006,116.547,-0.307124,0.0,0.0
506,126.25,44.8904,47.1064,128.324,98.8968,102.285,0.000765893,0.0431667,21.006,116.567,-0.283075,0.0,0.0
508,126.75,44.4821,47.3051,129.165,98.8772,102.104,0.00078481,0.0431882,21.0062,116.527,-0.269882,0.0,0.0
510,127.25,44.2268,46.6395,126.863,98.8756,102.207,0.000800133,0.0432056,21.0066,116.457,-0.278498,0.0,0.0
512,127.75,44.3753,46.8843,129.485,98.882,101.508,0.000807715,0.0432197,21.0068,116.427,-0.220259,0.0,0.0
514,128.25,44.4412,46.6402,125.708,98.866,103.131,0.000810947,0.0432027,21.0069,116.467,-0.354891,0.0,0.0
516,128.75,44.5664,46.4642,129.206,98.8716,102.122,0.000820923,0.0431633,21.0071,116.457,-0.271827,0.0,0.0
518,129.25,44.5971,47.0523,128.268,98.88,101.808,0.000833008,0.0431313,21.0073,116.357,-0.245256,0.0,0.0
520,129.75,44.4288,47.28,128.708,98.8748,101.061,0.000852331,0.0431055,21.0074,116.387,-0.183771,0.0,0.0
522,130.25,44.3975,46.9435,127.711,98.8748,101.448,0.000876566,0.043071,21.0075,116.387,-0.215882,0.0,0.0
524,130.75,44.2232,46.6584,129.092,98.874,102.212,0.000896195,0.0430431,21.0075,116.377,-0.279001,0.0,0.0
526,131.25,44.2031,46.954,128.96,98.8792,102.793,0.000960249,0.0430312,21.0072,116.347,-0.326231,0.0,0.0
528,131.75,44.9304,47.1998,134.008,98.868,101.499,0.00097748,0.0430514,21.0069,116.347,-0.220674,0.0,0.0
530,132.25,44.2939,47.4167,130.547,98.8588,101.741,0.00103355,0.0430678,21.0066,116.337,-0.241533,0.0,0.0
532,132.75,44.5106,46.9021,130.67,98.874,102.405,0.00107898,0.0431081,21.0064,116.347,-0.294874,0.0,0.0
534,133.25,44.5387,46.7672,130.312,98.87,102.658,0.00111577,0.0431407,21.0062,116.357,-0.315953,0.0,0.0
536,133.75,44.537,46.893,128.025,98.8708,102.537,0.00114315,0.0431401,21.0061,116.297,-0.305978,0.0,0.0
538,134.25,44.3355,46.6563,131.523,98.86,101.925,0.00116533,0.0431397,21.006,116.256,-0.256567,0.0,0.0
540,134.75,44.3212,47.0156,129.221,98.8692,101.766,0.00116273,0.0430987,21.0059,116.266,-0.242675,0.0,0.0
542,135.25,43.7621,46.3685,128.076,98.8656,101.714,0.00116062,0.0430655,21.0059,116.216,-0.238705,0.0,0.0
544,135.75,44.1445,46.8688,132.698,98.8696,101.777,0.00114746,0.0430528,21.0058,116.176,-0.243599,0.0,0.0
546,136.25,44.6516,46.6738,129.134,98.8612,102.022,0.00113643,0.0430554,21.0058,116.156,-0.264483,0.0,0.0
548,136.75,44.5361,46.8267,126.783,98.8672,102.991,0.00111629,0.0430575,21.0057,116.166,-0.343399,0.0,0.0
550,137.25,44.1658,46.6944,127.723,98.846,101.813,0.00109883,0.0430734,21.0053,116.166,-0.248518,0.0,0.0
552,137.75,44.1122,47.0173,128.918,98.8712,101.655,0.00108469,0.0430991,21.0049,116.116,-0.23336,0.0,0.0
554,138.25,44.0514,46.5668,126.966,98.8556,102.056,0.00107323,0.0430659,21.0046,116.086,-0.267789,0.0,0.0
556,138.75,43.6961,46.1866,129.72,98.8568,102.006,0.0010595,0.0430389,21.0043,116.126,-0.26357,0.0,0.0
558,139.25,44.063,46.7237,129.437,98.8468,101.626,0.00104437,0.0430274,21.0041,116.116,-0.233003,0.0,0.0
560,139.75,44.6995,46.4696,129.127,98.8516,101.972,0.00103212,0.0430078,21.004,116.046,-0.261182,0.0,0.0
562,140.25,44.348,46.8823,128.676,98.8388,100.822,0.00100503,0.0429919,21.0038,116.066,-0.166958,0.0,0.0
564,140.75,44.2715,46.9124,131.026,98.8452,101.898,0.000967649,0.043006,21.0037,116.036,-0.255656,0.0,0.0
566,141.25,44.1611,46.7134,126.312,98.8456,102.137,0.000922127,0.0430175,21.0036,116.006,-0.275288,0.0,0.0
568,141.75,44.2248,46.2744,127.603,98.8544,101.81,0.000871536,0.0430133,21.0036,115.996,-0.247582,0.0,0.0
570,142.25,44.1707,46.6593,129.593,98.8255,102.018,0.000830558,0.0430098,21.0035,115.976,-0.267145,0.0,0.0
572,142.75,44.0276,46.383,129.469,98.8376,103.523,0.000778073,0.0430206,21.0035,115.956,-0.389248,0.0,0.0
574,143.25,44.3332,46.3337,128.973,98.832,102.976,0.00073556,0.0430293,21.0034,115.956,-0.345157,0.0,0.0
576,143.75,44.172,46.4915,128.992,98.8436,102.283,0.000703535,0.0430506,21.0034,115.966,-0.287421,0.0,0.0
578,144.25,43.7954,46.3605,130.036,98.8259,102.606,0.000677595,0.0430806,21.0034,115.936,-0.31546,0.0,0.0
580,144.75,44.0663,46.4631,128.901,98.8432,102.386,0.00066623,0.043105,21.0033,115.936,-0.295956,0.0,0.0
582,145.25,43.9999,46.2782,130.496,98.8243,102.593,,0.0430976,,115.876,-0.314499,0.0,0.0
584,145.75,44.4072,46.3142,128.278,98.8356,102.742,,0.0430917,,115.866,-0.325783,0.0,0.0
586,146.25,44.2937,46.8162,132.595,98.8231,101.877,,0.0430584,,115.846,-0.255762,0.0,0.0
588,146.75,44.2847,46.3446,128.863,98.8404,102.328,,0.0430059,,115.826,-0.291432,0.0,0.0
590,147.25,44.253,46.759,128.265,98.8199,101.665,,0.0429561,,115.826,-0.238494,0.0,0.0
592,147.75,44.0424,46.2715,131.516,98.8304,102.601,,0.0429095,,115.826,-0.314682,0.0,0.0
594,148.25,43.7453,46.4527,127.14,98.8123,102.432,,,,115.826,-0.302315,0.0,0.0
596,148.75,44.1661,46.7569,131.362,98.8392,101.842,,,,115.766,-0.251491,0.0,0.0
598,149.25,43.9442,46.7742,126.939,98.8508,101.433,,,,115.766,-0.216705,0.0,0.0
600,149.75,43.634,46.8279,130.865,98.8496,101.632,,,,115.776,-0.233244,0.0,0.0
602,150.25,43.982,46.5822,131.531,98.8416,101.881,,,,115.746,-0.254564,0.0,0.0
604,150.75,44.2419,46.1566,126.309,98.8712,102.7,,,,115.716,-0.319283,0.0,0.0
606,151.25,44.1387,46.5666,129.165,98.852,102.572,,,,115.706,-0.310431,0.0,0.0
608,151.75,44.3419,46.7219,129.001,98.8752,102.288,,,,115.706,-0.285134,0.0,0.0
610,152.25,44.2697,46.4023,129.645,98.8736,102.305,,,,115.726,-0.286737,0.0,0.0
612,152.75,43.8888,46.3943,133.395,98.8852,102.236,,,,115.656,-0.280029,0.0,0.0
614,153.25,43.938,46.2965,131.104,98.884,101.71,,,,115.656,-0.236771,0.0,0.0
616,153.75,44.2281,46.297,129.388,98.9105,102.091,,,,115.636,-0.265954,0.0,0.0
618,154.25,43.778,46.5225,129.022,98.8912,101.882,,,,115.636,-0.250415,0.0,0.0
620,154.75,44.1181,46.7061,129.976,98.9209,101.197,,,,115.616,-0.191167,0.0,0.0
622,155.25,44.2465,46.4029,129.343,98.9077,101.809,,,,115.566,-0.242944,0.0,0.0
624,155.75,43.97,46.1431,132.467,98.9261,102.253,,,,115.566,-0.277987,0.0,0.0
625,156,43.9757,46.3535,127.968,98.9217,102.286,,,,115.566,-0.281076,0.0,0.0