File: 01_Data/Gypsum_Wallboard/Cone/Gypsum_Wallboard_Cone_HF25Scan_220510_R1.csv
Names,Time,Stack TC,Smoke TC,Exh Press,Smoke Comp,Smoke Meas,CO Meter,CO2 Meter,O2 Meter,Sample Mass,Ext Coeff,Start Test,Flame Verif
Chan Gain,,500,500,1,1,1,1,1,1,1,1,1.0,1.0
Offset,,0,0,0.138628,0,0,0,0,0,0,0,0.0,0.0
Gain,,1,1,25.011,13.1256,14.6231,1,1,1,1.001,0.958019,1.0,1.0
Units,sec,C,C,Pa,%,%,%,%,%,g,/m,,
Baseline,,16.9891,17.47,143.343,98.6755,97.7443,0.000368462,0.0417217,21.0096,-443.066,0.079683,,
12,2.75,14.804,15.1943,143.352,98.6801,97.7388,0.000324773,0.0466881,21.0037,135.676,0.0805469,0.0,0.0
24,5.75,15.0278,15.5338,146.15,98.6773,97.7719,0.000272538,0.0457487,21.0053,135.626,0.0774694,0.0,0.0
36,8.75,15.4174,15.5606,141.905,98.6625,97.8183,0.000358973,0.0452382,21.0057,135.606,0.0722189,0.0,0.0
48,11.75,14.9663,15.6246,138.726,98.6437,97.6706,0.000472937,0.0444975,21.0074,135.576,0.0833158,0.0,0.0
60,14.75,15.3292,15.8245,144.456,98.6257,97.7446,0.000458893,0.0434661,21.008,135.556,0.0754075,0.0,0.0
72,17.75,15.2833,15.9613,140.439,98.6136,97.7295,0.000408625,0.042627,21.0106,135.596,0.0756885,0.0,0.0
84,20.75,15.5486,16.3423,148.717,98.5824,97.6429,0.000440463,0.0422791,21.0116,135.586,0.0804735,0.0,0.0
96,23.75,15.7465,16.2629,137.672,98.5524,97.6572,0.000296095,0.041855,21.0108,135.496,0.0766832,0.0,0.0
108,26.75,15.4975,16.2912,141.741,98.5415,97.7473,0.000219559,0.0417416,21.0106,135.516,0.0680065,0.0,0.0
120,29.75,15.9706,16.388,140.867,98.5327,97.7036,0.000259524,0.0416828,21.0105,135.536,0.071016,0.0,0.0
132,32.75,16.2269,16.4233,139.784,98.5387,97.6331,0.000254461,0.0414284,21.0105,135.386,0.0775954,0.0,0.0
144,35.75,15.978,16.8414,144.074,98.548,97.7107,0.000137738,0.0412041,21.0105,135.366,0.0717004,0.0,0.0
156,38.75,15.6289,16.453,145.933,98.578,97.6201,0.000149787,0.0411749,21.0105,135.276,0.082057,0.0,0.0
168,41.75,15.7723,16.4776,142.35,98.5932,97.659,0.000392797,0.0410947,21.0105,135.245,0.0800131,0.0,0.0
180,44.75,15.753,16.446,144.468,98.6177,97.6322,0.000465575,0.0409798,21.0105,135.236,0.0843989,0.0,0.0
192,47.75,15.8582,16.6547,146.79,98.6437,97.6549,0.00022213,0.0408329,21.0105,135.215,0.0846587,0.0,0.0
204,50.75,16.3314,16.7457,147.103,98.6765,97.6978,4.34471e-05,0.040713,21.0112,135.095,0.0837711,0.0,0.0
216,53.75,16.2656,16.9052,150.293,98.6982,97.8134,0.000105485,0.0408161,21.0122,135.065,0.0756766,0.0,0.0
228,56.75,15.8184,16.382,146.119,98.7214,97.7808,9.32088e-05,0.0409057,21.0133,135.075,0.0804536,0.0,0.0
240,59.75,16.3664,16.7989,141.206,98.7506,97.8923,0.00026904,0.0408252,21.0121,135.065,0.07336,0.0,0.0
252,62.75,16.6773,16.7017,139.65,98.7647,97.8031,0.000447929,0.0411181,21.0106,134.955,0.0822187,0.0,0.0
264,65.75,16.7146,16.6933,141.354,98.7779,97.8915,0.000270841,0.0423396,21.0096,134.885,0.075754,0.0,0.0
276,68.75,16.3667,16.991,140.67,98.7899,97.8834,7.91743e-05,0.0433032,21.0077,134.785,0.0774664,0.0,0.0
288,71.75,16.6645,16.6401,144.21,98.8007,97.9454,0.00021717,0.0433699,21.0074,134.735,0.0730621,0.0,0.0
300,74.75,16.8689,17.0059,144.738,98.8103,97.8566,0.000335298,0.0429806,21.0093,134.715,0.0815024,0.0,0.0
312,77.75,16.6709,17.0591,141.925,98.7975,97.779,0.000411355,0.0426784,21.0104,134.575,0.0870832,0.0,0.0
324,80.75,16.4723,17.0676,140.393,98.7999,97.9365,0.00047002,0.0426314,21.0096,134.595,0.0737602,0.0,0.0
336,83.75,16.1875,16.9915,143.281,98.7687,97.8379,0.00026834,0.0438493,21.0074,134.485,0.0795685,0.0,0.0
348,86.75,16.8549,17.5399,142.64,98.7414,97.9321,0.000212833,0.0450223,21.0066,134.505,0.0691661,0.0,0.0
360,89.75,16.9372,17.578,141.54,98.7406,97.8098,0.000205381,0.0451156,21.0063,134.405,0.0795973,0.0,0.0
372,92.75,16.7921,16.8743,144.016,98.7326,97.9499,0.000267608,0.0446823,21.0062,134.325,0.0668855,0.0,0.0
384,95.75,17.135,17.4242,142.365,98.7134,97.8383,0.000300196,0.0441928,21.0065,134.224,0.0748257,0.0,0.0
396,98.75,16.87,17.66,143.484,98.699,97.6978,0.00029112,0.0435541,21.0081,134.245,0.0856812,0.0,0.0
408,101.75,16.8546,17.6385,143.94,98.701,97.7018,0.000182774,0.0431753,21.0089,134.184,0.0855056,0.0,0.0
420,104.75,16.9404,17.3072,146.29,98.6881,97.7678,0.000157308,0.042704,21.0091,134.164,0.0787359,0.0,0.0
432,107.75,16.9067,17.5293,143.327,98.695,97.6545,0.000205745,0.0422568,21.0091,134.094,0.0890649,0.0,0.0
444,110.75,16.8309,17.5265,141.749,98.6906,97.7973,0.000153929,0.0420528,21.0101,134.054,0.0764092,0.0,0.0
456,113.75,17.088,17.922,143.277,98.6809,97.5603,0.000284729,0.0420095,21.0111,133.934,0.0959779,0.0,0.0
468,116.75,17.2593,17.4693,142.046,98.6729,97.6094,0.000486955,0.042532,21.0102,133.894,0.091067,0.0,0.0
480,119.75,17.1733,17.5979,141.204,98.6681,97.5028,0.000542507,0.0435823,21.0092,133.834,0.0998456,0.0,0.0
492,122.75,17.2052,17.4791,141.273,98.6717,97.5862,0.000458384,0.0444557,21.0087,133.774,0.0929635,0.0,0.0
504,125.75,17.5795,18.0938,144.501,98.6709,97.5563,0.00049619,0.0450892,21.0086,133.664,0.0954708,0.0,0.0
516,128.75,17.4426,17.6542,142.763,98.6581,97.2497,0.00043861,0.0453872,21.0092,133.634,0.12083,0.0,0.0
528,131.75,17.1233,17.9649,143.704,98.6401,97.3412,0.000353127,0.0450812,21.0102,133.554,0.111393,0.0,0.0
540,134.75,17.3775,17.6256,140.909,98.6329,97.1654,0.000368853,0.0445243,21.0106,133.484,0.125972,0.0,0.0
552,137.75,17.4749,17.7838,140.564,98.6309,97.318,0.000448846,0.0440973,21.0108,133.434,0.112611,0.0,0.0
564,140.75,16.7132,17.9583,144.233,98.6148,97.1382,0.000482103,0.0434027,21.011,133.374,0.12679,0.0,0.0
576,143.75,17.029,17.4948,146.563,98.5912,97.0784,0.000581237,0.042994,21.0099,133.324,0.129951,0.0,0.0
588,146.75,17.1168,17.6252,142.778,98.5616,97.16,0.000635142,0.0427614,21.0106,133.183,0.120357,0.0,0.0
600,149.75,17.2911,18.0231,140.462,98.5439,96.9356,0.000526452,0.0428652,21.0107,133.193,0.138292,0.0,0.0
612,152.75,17.4454,17.9293,143.452,98.5035,96.8499,0.000510182,0.0432361,21.0102,133.183,0.142273,0.0,0.0
624,155.75,17.8371,17.968,141.148,98.4658,96.9887,0.000600522,0.0431206,21.01,133.063,0.127027,0.0,0.0
636,158.75,17.2038,18.1291,144.598,98.4378,96.8084,0.000647608,0.0431266,21.01,132.953,0.140268,0.0,0.0
648,161.75,18.0467,17.9067,140.266,98.4118,96.8468,0.000530777,0.0432754,21.01,132.833,0.134715,0.0,0.0
660,164.75,17.7694,18.3476,142.235,98.3845,96.7678,0.000526449,0.0433953,21.0103,132.813,0.139246,0.0,0.0
672,167.75,17.4909,18.5133,141.508,98.3793,96.5562,0.000776942,0.0435055,21.009,132.683,0.15719,0.0,0.0
684,170.75,17.7979,18.2118,140.934,98.3413,96.5339,0.00101558,0.0438473,21.0087,132.613,0.155881,0.0,0.0
696,173.75,17.8855,18.1487,142.648,98.326,96.5652,0.00102233,0.0440505,21.0086,132.593,0.151861,0.0,0.0
708,176.75,17.8625,18.2338,141.843,98.3076,96.3313,0.0011818,0.0443042,21.0085,132.553,0.170662,0.0,0.0
720,179.75,18.1846,18.358,138.849,98.2888,96.2318,0.00134744,0.0444811,21.0085,132.383,0.177737,0.0,0.0
732,182.75,17.9611,18.4144,141.115,98.284,96.3086,0.00128792,0.0445449,21.0085,132.323,0.170627,0.0,0.0
744,185.75,17.4397,18.123,138.729,98.2904,96.0127,0.00111172,0.0446137,21.0085,132.232,0.197032,0.0,0.0
756,188.75,18.0591,18.3725,147.609,98.2932,96.4991,0.00088589,0.0444448,21.0084,132.253,0.154804,0.0,0.0
768,191.75,18.0283,18.6672,144.594,98.2856,96.0154,0.00091709,0.0447207,21.0069,132.112,0.196386,0.0,0.0
780,194.75,17.7998,18.5437,138.674,98.3,96.2604,0.001074,0.0453935,21.0062,131.932,0.176204,0.0,0.0
792,197.75,17.9952,18.6508,145.462,98.3188,96.002,0.00125255,0.0456701,21.0051,131.872,0.2004,0.0,0.0
804,200.75,18.2793,18.6656,141.842,98.3429,95.869,0.00138455,0.0459281,21.004,131.702,0.214103,0.0,0.0
816,203.75,17.9196,18.37,137.556,98.3493,96.0631,0.00148434,0.0463963,21.0036,131.762,0.197651,0.0,0.0
828,206.75,17.8519,19.1234,143.53,98.3821,95.7476,0.00167469,0.0470438,21.003,131.702,0.228105,0.0,0.0
840,209.75,18.0636,19.1722,144.004,98.3801,95.8601,0.00207958,0.0474509,21.0026,131.622,0.218069,0.0,0.0
852,212.75,18.412,18.1519,138.662,98.4078,96.06,0.00223107,0.0474552,21.0022,131.542,0.202922,0.0,0.0
864,215.75,18.2903,18.8713,144.185,98.3933,96.3402,0.00220015,0.0479099,21.0027,131.432,0.177208,0.0,0.0
876,218.75,18.368,18.7908,141.385,98.4134,96.4036,0.00212951,0.0479904,21.003,131.282,0.173392,0.0,0.0
888,221.75,18.3735,19.1079,149.738,98.4246,96.3826,0.00219175,0.0484172,21.002,131.201,0.176179,0.0,0.0
900,224.75,18.1824,18.6692,141.286,98.4322,96.3911,0.0023683,0.0492832,21.0012,131.111,0.176089,0.0,0.0
912,227.75,18.3989,19.3173,143.513,98.437,96.2425,0.00254369,0.0498424,20.9998,131.001,0.189465,0.0,0.0
924,230.75,18.4425,18.5703,140.654,98.4318,96.3175,0.00272712,0.0505444,20.9989,130.911,0.182477,0.0,0.0
936,233.75,18.5237,19.2368,139.712,98.4346,96.2818,0.00293599,0.051638,20.9978,130.881,0.185831,0.0,0.0
948,236.75,18.4028,19.0825,140.261,98.4506,96.3849,0.00334069,0.0527138,20.9975,130.771,0.178206,0.0,0.0
960,239.75,18.4675,18.7732,140.62,98.4386,96.276,0.00368478,0.0535115,20.9974,130.651,0.18668,0.0,0.0
972,242.75,18.8971,19.2771,143.186,98.4514,96.4438,0.00401418,0.0541788,20.9959,130.561,0.173141,0.0,0.0
984,245.75,18.9574,19.2706,142.165,98.447,96.8329,0.0042997,0.0551315,20.995,130.421,0.138925,0.0,0.0
996,248.75,18.7214,19.4724,142.563,98.4294,96.8825,0.00449838,0.0560605,20.9932,130.311,0.133122,0.0,0.0
1008,251.75,18.7856,19.0441,142.079,98.4058,97.0569,0.00470381,0.057912,20.9912,130.2,0.115982,0.0,0.0
1020,254.75,18.7185,19.6062,143.09,98.3905,97.0909,0.00489344,0.0589689,20.9906,130.16,0.111746,0.0,0.0
1032,257.75,18.7501,19.001,142.952,98.3797,96.9927,0.00536323,0.059845,20.9899,130.06,0.119325,0.0,0.0
1044,260.75,19.002,19.3774,140.77,98.3569,97.0525,0.00582889,0.0609929,20.9858,129.86,0.112195,0.0,0.0
1056,263.75,19.0618,19.3947,139.069,98.3329,97.1748,0.00614817,0.0619883,20.9825,129.76,0.0995605,0.0,0.0
1068,266.75,19.0993,20.0415,143.469,98.3256,97.1582,0.0066165,0.063575,20.9794,129.64,0.100372,0.0,0.0
1080,269.75,19.3138,19.3837,144.289,98.3068,97.16,0.00713244,0.0657545,20.9765,129.53,0.0986081,0.0,0.0
1092,272.75,18.66,19.4126,140.519,98.2864,97.2479,0.0077521,0.0673549,20.9741,129.44,0.0892612,0.0,0.0
1104,275.75,19.1696,19.9341,141.422,98.2724,97.5028,0.00815451,0.0688327,20.9719,129.31,0.0660715,0.0,0.0
1116,278.75,19.0063,19.7586,142.856,98.2856,97.3501,0.00804299,0.0695631,20.9694,129.229,0.0803653,0.0,0.0
1128,281.75,18.6257,19.6002,142.936,98.2672,97.5023,0.008151,0.0702733,20.9699,129.099,0.065665,0.0,0.0
1140,284.75,19.265,19.5508,140.421,98.2507,97.4711,0.00843406,0.0717139,20.9702,128.989,0.0669531,0.0,0.0
1152,287.75,19.1235,19.4564,138.757,98.2624,97.5344,0.00849511,0.0734343,20.9697,128.919,0.0624846,0.0,0.0
1164,290.75,19.0559,19.942,137.648,98.2535,97.4251,0.00814583,0.0739905,20.969,128.759,0.0711561,0.0,0.0
1176,293.75,19.1476,19.7707,140.297,98.2263,97.5166,0.00792874,0.0731316,20.97,128.739,0.0609392,0.0,0.0
1188,296.75,19.6586,19.9883,141.567,98.2343,97.4006,0.00780465,0.0732086,20.9703,128.669,0.0716289,0.0,0.0
1200,299.75,19.2678,19.5733,142.724,98.2275,97.6233,0.00726828,0.0726108,20.9703,128.489,0.051856,0.0,0.0
1212,302.75,18.8831,20.1202,139.495,98.2291,97.6344,0.00666502,0.0709499,20.9719,128.439,0.0510325,0.0,0.0
1224,305.75,19.2166,19.82,142.136,98.2403,97.6438,0.00637393,0.0692575,20.9751,128.449,0.0511859,0.0,0.0
1236,308.75,19.06,19.9415,140.534,98.2463,97.5434,0.00612528,0.0675928,20.9775,128.349,0.0603444,0.0,0.0
1248,311.75,19.0299,20.0527,140.265,98.2648,97.7183,0.00589731,0.0660924,20.9798,128.118,0.0468634,0.0,0.0
1260,314.75,19.51,19.8337,143.601,98.2816,97.5157,0.00590193,0.0654779,20.9806,128.118,0.0657435,0.0,0.0
1272,317.75,19.978,20.3061,137.859,98.3016,97.6402,0.00581098,0.0652772,20.9808,128.028,0.0567332,0.0,0.0
1284,320.75,19.9822,20.245,145.421,98.322,97.6826,0.0052368,0.0648216,20.9808,127.988,0.0548314,0.0,0.0
1296,323.75,19.1945,20.4617,142.714,98.3513,97.8147,0.00463264,0.0641546,20.9809,127.828,0.0459737,0.0,0.0
1308,326.75,19.38,20.1534,143.721,98.3837,97.6041,0.00438125,0.0637194,20.9813,127.728,0.0668617,0.0,0.0
1320,329.75,19.3591,20.2297,140.037,98.421,97.5679,0.00432281,0.062948,20.9837,127.688,0.0731554,0.0,0.0
1332,332.75,19.3989,20.0447,140.361,98.4682,97.7683,0.00437043,0.0615573,20.9852,127.638,0.0599505,0.0,0.0
1344,335.75,19.6029,20.2182,141.709,98.5131,97.9513,0.00422595,0.0603584,20.9857,127.598,0.0480657,0.0,0.0
1356,338.75,19.3473,20.2803,139.582,98.5856,97.7982,0.00390498,0.0588925,20.9874,127.508,0.0673914,0.0,0.0
1368,341.75,19.6133,19.9416,138.532,98.6441,97.9566,0.00353232,0.0572577,20.9891,127.418,0.0587728,0.0,0.0
1380,344.75,19.5672,20.0656,145.701,98.6914,98.0726,0.00326698,0.0560418,20.9901,127.408,0.0528495,0.0,0.0
1392,347.75,19.2922,20.3467,139.88,98.749,98.0932,0.00295271,0.0551183,20.9907,127.288,0.0560018,0.0,0.0
1404,350.75,19.3574,19.7525,140.101,98.8059,98.1472,0.00247491,0.0543203,20.9922,127.197,0.0562157,0.0,0.0
1416,353.75,19.7651,20.2771,140.727,98.8243,98.0918,0.00245216,0.0533626,20.9935,127.137,0.0625224,0.0,0.0
1428,356.75,19.3624,20.2483,139.371,98.8468,98.1472,0.00252717,0.0529221,20.9946,127.117,0.0596899,0.0,0.0
1440,359.75,19.6531,20.188,143.027,98.872,98.2641,0.0023794,0.0523829,20.9949,127.057,0.0518301,0.0,0.0
1452,362.75,19.2987,19.8777,140.981,98.8836,98.1989,0.00212828,0.0519705,20.995,126.997,0.0583917,0.0,0.0
1464,365.75,19.7057,20.0187,142.234,98.9097,98.1521,0.00198495,0.0514882,20.9966,126.927,0.0646153,0.0,0.0
1476,368.75,19.9663,19.8113,140.548,98.9317,98.3007,0.0018759,0.0506473,20.9988,126.867,0.0537733,0.0,0.0
1488,371.75,19.5905,20.5476,141.425,98.9293,98.3359,0.00185741,0.0501477,21.0003,126.797,0.0505556,0.0,0.0
1500,374.75,19.429,20.2312,140.959,98.9433,98.3431,0.00202001,0.0497685,21.0012,126.727,0.0511361,0.0,0.0
1512,377.75,19.4477,19.7136,139.345,98.9593,98.2284,0.00202501,0.0496042,21.0015,126.627,0.0623026,0.0,0.0
1524,380.75,19.677,20.104,139.632,98.9549,98.2288,0.00201544,0.0492507,21.0015,126.577,0.0618909,0.0,0.0
1536,383.75,19.5341,20.2665,146.117,98.9557,98.2409,0.00194982,0.0486991,21.002,126.577,0.0609283,0.0,0.0
1548,386.75,19.1218,20.3253,141.481,98.9485,98.1793,0.00162048,0.0482218,21.0033,126.477,0.0655855,0.0,0.0
1560,389.75,19.2975,19.9328,141.906,98.9253,98.1646,0.00155397,0.0475438,21.0047,126.447,0.0648727,0.0,0.0
1572,392.75,19.3653,19.8881,141.341,98.9061,98.2842,0.00144025,0.0474539,21.0057,126.407,0.0530068,0.0,0.0
1584,395.75,19.4062,20.2176,140.928,98.88,98.1137,0.00103508,0.0472135,21.0054,126.407,0.0653827,0.0,0.0
1596,398.75,19.3223,20.3601,137.737,98.8476,98.1547,0.00079018,0.0466305,21.0057,126.307,0.059109,0.0,0.0
1608,401.75,19.2318,20.1618,141.06,98.8151,98.2248,0.00071625,0.0462971,21.0058,126.287,0.0503534,0.0,0.0
1620,404.75,19.3096,20.2593,139.129,98.7799,98.0414,0.000792948,0.0463044,21.0048,126.166,0.0630623,0.0,0.0
1632,407.75,19.5729,20.0516,140.994,98.7582,98.0267,0.000919626,0.0461016,21.0052,126.176,0.0624836,0.0,0.0
1644,410.75,19.4268,20.1015,136.74,98.7474,98.1409,0.000918726,0.045667,21.0063,126.106,0.0517763,0.0,0.0
1656,413.75,19.1862,19.9172,141.539,98.7286,98.1231,0.00076971,0.0452924,21.0058,126.096,0.0517016,0.0,0.0
1668,416.75,19.4625,20.3635,140.211,98.7126,98.1909,0.000750914,0.0449752,21.0042,126.076,0.0445309,0.0,0.0
1680,419.75,19.332,20.0022,140.22,98.7094,97.9325,0.000714324,0.0447311,21.0084,126.036,0.0664005,0.0,0.0
1692,422.75,19.0054,19.9265,140.971,98.7254,97.9539,0.000604598,0.0445207,21.0103,126.006,0.0659264,0.0,0.0
1704,425.75,19.5488,20.4984,141.77,98.7426,98.0048,0.00045955,0.0442773,21.0116,125.956,0.0630295,0.0,0.0
1716,428.75,19.5065,20.693,144.881,98.7675,98.0691,0.000590807,0.0440837,21.0105,125.936,0.0596342,0.0,0.0
1728,431.75,19.6963,19.8589,140.345,98.7983,98.1012,0.000671107,0.0441259,21.0102,125.906,0.0595049,0.0,0.0
1740,434.75,19.4112,20.5385,142.693,98.8344,98.1628,0.000687544,0.0441578,21.0097,125.836,0.0572973,0.0,0.0
1752,437.75,19.3777,20.42,141.931,98.8616,98.0851,0.000755358,0.0441165,21.01,125.796,0.0662634,0.0,0.0
1764,440.75,19.1843,20.2131,143.17,98.8952,98.2074,0.000827962,0.0441528,21.0104,125.786,0.0586534,0.0,0.0
1776,443.75,19.3195,20.3679,145.273,98.9093,98.0624,0.000863783,0.0447063,21.0083,125.716,0.0722646,0.0,0.0
1788,446.75,19.6174,20.3117,143.326,98.9065,98.1744,0.000906412,0.0448378,21.0075,125.646,0.0624329,0.0,0.0
1800,449.75,19.6931,20.1171,143.701,98.9277,98.2561,0.000840548,0.0444524,21.0084,125.626,0.0572486,0.0,0.0
1812,452.75,19.6175,20.2663,145.627,98.9742,98.2172,0.000751088,0.043971,21.0078,125.616,0.0645159,0.0,0.0
1824,455.75,19.3367,20.0752,140.778,99.011,98.298,0.000552589,0.0438973,21.0074,125.566,0.0607363,0.0,0.0
1836,458.75,19.6625,19.9102,141.028,99.0394,98.4917,0.00048814,0.0438492,21.0072,125.586,0.0466083,0.0,0.0
1848,461.75,19.6923,20.4808,140.23,99.0899,98.4591,0.000440056,0.0435881,21.0072,125.576,0.0536698,0.0,0.0
1860,464.75,19.616,20.2572,140.22,99.1308,98.4265,0.000581385,0.0430994,21.0083,125.486,0.0599147,0.0,0.0
1872,467.75,19.6918,20.1431,142.465,99.1608,98.4216,0.000816868,0.0429463,21.0091,125.426,0.0628804,0.0,0.0
1884,470.75,19.6537,20.424,139.887,99.172,98.4328,0.000688001,0.0428382,21.0094,125.376,0.0628784,0.0,0.0
1896,473.75,19.5064,20.0428,137.172,99.1772,98.5742,0.000467512,0.0431375,21.0092,125.396,0.0512506,0.0,0.0
1908,476.75,19.7442,20.5737,141.079,99.1672,98.464,0.000252345,0.0439211,21.0078,125.346,0.0598043,0.0,0.0
1920,479.75,19.4627,20.5824,142.216,99.1744,98.4926,6.15888e-05,0.0441728,21.0074,125.306,0.0579779,0.0,0.0
1932,482.75,19.758,20.3733,145.716,99.1668,98.547,0.000207481,0.0440041,21.0088,125.266,0.0526893,0.0,0.0
1944,485.75,19.6321,20.4448,136.855,99.1592,98.4323,0.000379794,0.0436037,21.0111,125.255,0.0618293,0.0,0.0
1956,488.75,19.8535,20.783,137.156,99.152,98.3618,0.000239733,0.0432395,21.0109,125.215,0.0672403,0.0,0.0
1968,491.75,19.7877,20.4287,143.134,99.1212,98.3739,-1.87907e-05,0.0429917,21.0103,125.215,0.0635972,0.0,0.0
1980,494.75,19.6226,20.2044,144.175,99.0899,98.3315,-0.000105001,0.0428614,21.0102,125.185,0.0645705,0.0,0.0
1992,497.75,19.8629,20.5024,140.615,99.0599,98.4488,-0.000188578,0.0431334,21.0101,125.125,0.0519973,0.0,0.0
2004,500.75,19.6179,20.6158,140.221,99.0286,98.3801,-0.000118681,0.0438467,21.0101,125.065,0.0552146,0.0,0.0
2016,503.75,20.1472,20.7258,137.889,99.0002,98.2851,6.38071e-05,0.0445319,21.0091,125.065,0.0609253,0.0,0.0
2028,506.75,20.133,20.2302,140.716,98.9529,98.2525,0.000130666,0.0447212,21.0082,125.005,0.0596969,0.0,0.0
2040,509.75,20.1729,21.0489,142.195,98.9309,98.2427,0.000204366,0.0444833,21.0077,125.025,0.0586663,0.0,0.0
2052,512.75,20.1362,20.8088,142.972,98.9085,98.1601,0.000290311,0.0440377,21.0072,124.945,0.0638259,0.0,0.0
2064,515.75,20.4387,21.3251,137.328,98.8696,98.07,0.000208167,0.0438589,21.007,124.945,0.068244,0.0,0.0
2076,518.75,20.6123,21.3514,139.735,98.9465,98.1489,0.000137309,0.0443797,21.007,124.905,0.0680125,0.0,0.0
2088,521.75,20.4983,20.8338,142.338,99.1388,98.5591,0.000163844,0.0454225,21.0073,124.845,0.0492848,0.0,0.0
2100,524.75,20.8119,21.1094,143.065,99.3094,98.5002,0.000134754,0.0456652,21.0077,124.805,0.0687617,0.0,0.0
2112,527.75,20.4503,20.845,137.757,99.4276,98.825,0.000204323,0.0452342,21.0078,124.725,0.0510833,0.0,0.0
2124,530.75,20.2147,21.4972,145.703,99.5277,98.7402,0.000243287,0.0445115,21.0078,124.715,0.0667563,0.0,0.0
2136,533.75,20.137,20.7716,145.202,99.6114,98.7733,0.000178355,0.0439191,21.0097,124.675,0.071011,0.0,0.0
2148,536.75,20.3378,21.0179,141.818,99.6543,98.842,0.000309582,0.0433248,21.0102,124.635,0.0687816,0.0,0.0
2160,539.75,19.9658,20.7052,137.902,99.6687,98.9759,0.000402289,0.0427784,21.0113,124.655,0.0586226,0.0,0.0
2172,542.75,20.078,20.9584,138.863,99.6375,98.9295,0.00034138,0.0425011,21.0119,124.615,0.0599297,0.0,0.0
2184,545.75,20.0033,20.5469,145.774,99.5502,98.9335,0.000470525,0.042608,21.0119,124.615,0.0522204,0.0,0.0
2196,548.75,20.1659,20.7018,140.577,99.4044,98.7514,0.000622389,0.0425328,21.0119,124.515,0.0553828,0.0,0.0
2208,551.75,19.864,20.7112,138.853,99.2197,98.4573,0.000625407,0.042432,21.0131,124.535,0.0648211,0.0,0.0
2220,554.75,19.6754,20.8156,143.453,99.1143,98.3578,0.000504587,0.0421915,21.0129,124.485,0.0643926,0.0,0.0
2232,557.75,19.6932,20.6907,140.057,99.2029,98.5046,0.000385995,0.0420212,21.0115,124.425,0.0593597,0.0,0.0
2244,560.75,19.6719,20.3383,141.134,99.3046,98.4011,0.000318207,0.0420572,21.0116,124.445,0.0768113,0.0,0.0
2256,563.75,19.5785,19.9778,148.005,99.416,98.547,0.000292133,0.0420001,21.0117,124.385,0.0737761,0.0,0.0
2268,566.75,19.2534,20.0551,139.59,99.5574,98.7581,0.000186446,0.0420162,21.0118,124.385,0.0677392,0.0,0.0
2280,569.75,19.5555,20.0049,139.987,99.7,98.805,0.000117944,0.042114,21.0102,124.305,0.0757808,0.0,0.0
2292,572.75,19.5367,20.5477,141.127,99.8049,98.9357,0.000168099,0.0422041,21.0097,124.295,0.073509,0.0,0.0
2304,575.75,19.0807,20.0496,142.301,99.899,98.9893,0.000136744,0.0421843,21.0095,124.265,0.0768837,0.0,0.0
2316,578.75,19.3372,20.5623,138.895,99.8998,99.0477,0.000157846,0.042314,21.0095,124.214,0.0719894,0.0,0.0
2328,581.75,19.3429,19.8729,140.12,99.8406,98.9103,0.00042702,0.0432036,21.0079,124.234,0.0786704,0.0,0.0
2340,584.75,19.1618,19.789,143.053,99.696,98.8433,0.000364437,0.0446182,21.0068,124.184,0.0721801,0.0,0.0
2352,587.75,19.1787,19.7695,140.98,99.4837,98.6099,0.000217254,0.0459646,21.0054,124.164,0.0741326,0.0,0.0
2364,590.75,19.4307,19.7147,138.045,99.1977,98.443,0.000375527,0.0464629,21.005,124.124,0.0641739,0.0,0.0
2376,593.75,19.1111,19.7961,140.297,98.8592,98.0472,0.000688554,0.0460843,21.0049,124.014,0.0693092,0.0,0.0
2388,596.75,19.1404,19.9043,138.645,98.5003,97.7674,0.00067315,0.0460093,21.0049,124.044,0.062762,0.0,0.0
2400,599.75,19.1266,19.8813,140.91,98.1762,97.2877,0.000359749,0.0461376,21.0049,124.014,0.0764052,0.0,0.0
2412,602.75,19.2543,20.2548,142.138,97.9447,97.0735,0.00028951,0.0460369,21.0062,124.004,0.0750878,0.0,0.0
2424,605.75,19.2515,19.9607,144.283,97.849,96.9592,0.00023535,0.0457804,21.0066,123.954,0.0767666,0.0,0.0
2436,608.75,18.9601,20.1127,141.573,97.867,97.0204,0.000171175,0.0460045,21.0068,123.944,0.0730164,0.0,0.0
2448,611.75,19.1999,19.6449,143.251,98.0072,97.0793,9.90841e-05,0.0453141,21.0068,123.894,0.0799456,0.0,0.0
2460,614.75,19.2132,20.2806,142.425,98.2215,97.459,0.000157992,0.0444991,21.0082,123.864,0.0654901,0.0,0.0
2472,617.75,19.1113,20.0908,140.492,98.4919,97.6884,7.26634e-05,0.0439981,21.0076,123.864,0.0688363,0.0,0.0
2484,620.75,19.3084,19.9705,142.489,98.7639,97.8919,-3.93743e-05,0.0439577,21.0064,123.804,0.0745228,0.0,0.0
2496,623.75,19.3154,20.1368,141.497,99.0042,98.1275,-0.000182045,0.044126,21.0056,123.814,0.0747452,0.0,0.0
2508,626.75,19.25,20.1382,140.243,99.1684,98.4475,-0.000123986,0.0439445,21.0076,123.744,0.0613161,0.0,0.0
2520,629.75,19.3373,20.142,137.954,99.2113,98.4653,-3.12156e-05,0.0434117,21.0094,123.744,0.0634232,0.0,0.0
2532,632.75,19.3604,19.9177,140.243,99.1644,98.3283,-7.92598e-05,0.0430723,21.01,123.704,0.0711531,0.0,0.0
2544,635.75,19.2826,20.2376,138.233,99.0851,98.2654,-6.73373e-05,0.0432061,21.0091,123.654,0.069809,0.0,0.0
2556,638.75,19.2139,19.7666,141.733,98.9673,98.0628,5.05087e-05,0.0433585,21.0095,123.644,0.0771587,0.0,0.0
2568,641.75,19.3842,19.571,139.669,98.87,98.124,0.000292068,0.0436921,21.0106,123.624,0.0636529,0.0,0.0
2580,644.75,19.2303,19.941,137.898,99.1708,98.3783,0.000528154,0.0448317,21.01,123.584,0.0674262,0.0,0.0
2592,647.75,19.0833,20.0628,143.536,99.5389,98.6519,0.000462817,0.0458941,21.0078,123.554,0.0752258,0.0,0.0
2604,650.75,19.4288,19.9132,144.993,99.6739,98.7005,0.000207842,0.0457998,21.0076,123.524,0.0824726,0.0,0.0
2616,653.75,19.3103,19.6004,141.163,99.5598,98.6702,0.000136683,0.0451824,21.0078,123.474,0.0754264,0.0,0.0
2628,656.75,19.3493,19.5574,141.818,99.1969,98.2819,7.93474e-05,0.0447215,21.0082,123.464,0.0778694,0.0,0.0
2640,659.75,19.201,19.9344,144.352,99.2285,98.3931,-4.57531e-05,0.043897,21.01,123.424,0.0710547,0.0,0.0
2652,662.75,19.6026,20.3843,145.781,99.4696,98.5707,-7.10821e-06,0.0431597,21.0103,123.334,0.0762951,0.0,0.0
2664,665.75,19.4335,19.7706,141.248,99.7156,98.742,0.000127912,0.0425284,21.0097,123.364,0.0824518,0.0,0.0
2676,668.75,19.0867,20.1739,141.514,99.8806,99.0892,0.000182145,0.0420638,21.009,123.294,0.0668518,0.0,0.0
2688,671.75,19.6691,19.8437,139.129,99.8926,98.8719,0.000239922,0.0419765,21.0104,123.284,0.0863138,0.0,0.0
2700,674.75,19.0655,19.8218,140.699,99.756,98.8639,0.000220011,0.0418265,21.0123,123.253,0.0754979,0.0,0.0
2712,677.75,18.9534,20.0954,139.329,99.4484,98.564,0.000486494,0.0418108,21.0129,123.294,0.0750729,0.0,0.0
2724,680.75,19.4804,19.6732,137.207,99.0406,98.2926,0.000745803,0.0420784,21.0115,123.233,0.0637096,0.0,0.0
2736,683.75,19.5161,20.0824,142.228,98.5768,97.6853,0.000532645,0.0422058,21.0102,123.203,0.0763477,0.0,0.0
2748,686.75,19.3434,20.2362,138.682,98.1618,97.3024,0.000362346,0.0419627,21.0088,123.203,0.0738992,0.0,0.0
2760,689.75,19.4459,20.1246,141.147,97.9151,97.1542,0.000328392,0.0418536,21.0097,123.063,0.0655547,0.0,0.0
2772,692.75,19.4027,20.0921,141.064,97.9043,96.9552,0.000185031,0.0418639,21.0111,123.043,0.0818595,0.0,0.0
2784,695.75,19.4843,19.7045,143.991,98.1109,97.4635,1.3512e-05,0.0417539,21.0118,123.003,0.0556405,0.0,0.0
2796,698.75,19.0666,20.374,141.948,98.4494,97.7835,-3.10104e-05,0.0420644,21.012,123.033,0.0570396,0.0,0.0
2808,701.75,19.724,20.014,139.48,98.8003,98.1164,0.000134291,0.0423475,21.0121,122.963,0.0583758,0.0,0.0
2820,704.75,19.7966,20.1488,140.333,99.0751,98.1454,0.000376726,0.042322,21.0121,122.943,0.0792321,0.0,0.0
2832,707.75,19.3021,19.7835,138.901,99.2153,98.3167,0.000385906,0.0419139,21.0121,122.813,0.0764549,0.0,0.0
2844,710.75,19.1625,19.8323,141.264,99.2085,98.2636,0.000366109,0.0417195,21.0121,122.813,0.0804189,0.0,0.0
2856,713.75,19.5201,20.0803,139.231,99.1087,98.2886,0.000239479,0.0416687,21.0107,122.793,0.0698288,0.0,0.0
2868,716.75,19.4369,20.14,141.134,98.9713,98.2708,0.000198725,0.0417008,21.0109,122.823,0.0596969,0.0,0.0
2880,719.75,19.5087,19.861,139.587,98.8576,98.0204,0.000231432,0.0416898,21.0108,122.753,0.0714689,0.0,0.0
2892,722.75,19.2354,20.0357,144.509,98.9169,98.0231,0.000199389,0.0417224,21.0108,122.723,0.0762772,0.0,0.0
2904,725.75,19.3914,20.0094,137.646,99.3555,98.5403,0.00022486,0.0417053,21.0108,122.763,0.0692327,0.0,0.0
2916,728.75,19.5084,20.0838,140.589,99.5894,98.684,0.000225061,0.0417971,21.0108,122.683,0.0767497,0.0,0.0
2928,731.75,19.6603,19.3946,140.36,99.6499,98.9112,0.000373929,0.0419348,21.0108,122.673,0.0625303,0.0,0.0
2940,734.75,19.3515,20.2352,142.637,99.5333,98.7407,0.000391025,0.0419853,21.0108,122.583,0.0671916,0.0,0.0
2952,737.75,19.3935,20.1314,141.905,99.2698,98.4189,0.000183664,0.0420286,21.0108,122.523,0.0723371,0.0,0.0
2964,740.75,19.5304,20.033,141.668,99.1432,98.3065,0.000182764,0.0420432,21.0098,122.573,0.0712226,0.0,0.0
2976,743.75,19.4444,20.0427,139.92,99.2842,98.4457,0.000271178,0.0419872,21.0093,122.513,0.0712723,0.0,0.0
2988,746.75,19.3188,20.072,137.599,99.456,98.7849,0.000247216,0.0421508,21.0078,122.433,0.0569023,0.0,0.0
3000,749.75,19.3882,20.1474,141.134,99.6187,98.6546,0.000396887,0.0423537,21.0073,122.393,0.0817256,0.0,0.0
3012,752.75,19.1354,19.9266,139.962,99.7693,99.0254,0.000423288,0.042209,21.0088,122.473,0.0628903,0.0,0.0
3024,755.75,19.3534,20.0201,141.551,99.8534,99.0151,0.000336448,0.0420233,21.0093,122.443,0.0708441,0.0,0.0
3036,758.75,19.2522,20.0586,139.139,99.8918,98.9558,0.000358273,0.0422175,21.0079,122.463,0.0791189,0.0,0.0
3048,761.75,19.0983,20.0217,141.791,99.8874,99.1878,0.000384323,0.042653,21.008,122.443,0.0590642,0.0,0.0
3060,764.75,19.612,20.3103,142,99.8466,99.2704,0.000213675,0.042816,21.0085,122.313,0.0486345,0.0,0.0
3072,767.75,19.5912,19.5988,140.229,99.7584,98.9861,0.000120142,0.0425809,21.0087,122.323,0.0653121,0.0,0.0
3084,770.75,19.3423,19.9452,137.926,99.6435,98.7514,0.000253916,0.0423026,21.0098,122.353,0.0755743,0.0,0.0
3096,773.75,19.1152,19.9186,144.357,99.5041,98.6273,0.000304095,0.0418726,21.0107,122.333,0.0743739,0.0,0.0
3108,776.75,19.1158,20.1439,141.812,99.3503,98.481,0.000337279,0.0417562,21.011,122.172,0.0738555,0.0,0.0
3120,779.75,19.3274,20.029,141.223,99.18,98.4399,0.000279737,0.0416853,21.011,122.242,0.062947,0.0,0.0
3132,782.75,19.5284,19.7289,138.703,99.0218,98.2543,0.000400103,0.0415571,21.0111,122.242,0.0653936,0.0,0.0
3144,785.75,19.5612,20.123,142.118,98.8476,98.0088,0.00032615,0.0414628,21.012,122.222,0.071612,0.0,0.0
3156,788.75,19.1774,19.8259,138.134,98.7062,97.9124,0.00027192,0.0415586,21.0111,122.232,0.0678515,0.0,0.0
3168,791.75,19.6853,20.1028,140.108,98.5576,97.7973,0.000287009,0.0415586,21.0115,122.242,0.0650775,0.0,0.0
3180,794.75,19.7063,19.9068,144.127,98.4366,97.6103,0.000217085,0.0416557,21.0126,122.182,0.0708392,0.0,0.0
3192,797.75,19.4636,19.9268,140.101,98.3168,97.4032,0.000201522,0.0415001,21.0129,122.132,0.078455,0.0,0.0
3204,800.75,18.7095,19.999,137.888,98.2275,97.501,0.000136469,0.0418115,21.013,122.132,0.0623881,0.0,0.0
3216,803.75,19.283,19.9177,142.531,98.1426,97.5501,0.000169545,0.0421796,21.0126,122.102,0.0508901,0.0,0.0
3228,806.75,19.5228,20.3729,135.574,98.0589,97.2346,0.00017536,0.0426283,21.0109,122.042,0.0709425,0.0,0.0
3240,809.75,19.3649,20.329,142.885,97.99,97.2836,0.000167994,0.0426197,21.011,121.982,0.060795,0.0,0.0
3252,812.75,19.1949,20.0058,142.366,97.9415,97.1971,0.000119117,0.0424838,21.0115,121.952,0.0641182,0.0,0.0
3264,815.75,19.5912,19.9905,142.54,97.9167,97.0534,1.37266e-05,0.0425028,21.0117,121.952,0.0744206,0.0,0.0
3276,818.75,18.9571,20.1249,136.943,97.899,97.0815,0.000106183,0.0423868,21.0117,121.922,0.0704736,0.0,0.0
3288,821.75,19.5761,20.1288,139.774,97.9015,97.1931,0.000155267,0.0423695,21.0117,121.872,0.0610287,0.0,0.0
3300,824.75,19.1228,19.9475,140.368,97.9267,97.0993,0.000145472,0.0421566,21.0117,121.842,0.0713001,0.0,0.0
3312,827.75,19.2774,20.2704,144.625,97.9655,97.1069,8.89157e-05,0.0419635,21.0117,121.762,0.0739777,0.0,0.0
3324,830.75,19.599,19.9968,138.346,98.034,97.2038,6.71943e-05,0.0420008,21.0117,121.652,0.0714759,0.0,0.0
3336,833.75,19.0487,20.1512,142.457,98.0777,97.2533,0.000133192,0.0419588,21.0117,121.692,0.0709355,0.0,0.0
3348,836.75,19.2697,19.5491,141.58,98.1406,97.4532,0.000374775,0.0418037,21.0117,121.702,0.0590652,0.0,0.0
3360,839.75,18.8773,19.9571,141.98,98.2163,97.3095,0.000429022,0.0417894,21.0117,121.702,0.0779458,0.0,0.0
3372,842.75,19.1481,20.2717,139.416,98.3056,97.5554,0.000274681,0.0417688,21.0117,121.692,0.0643767,0.0,0.0
3384,845.75,18.6984,19.9348,143.519,98.3925,97.6523,0.000237863,0.0417418,21.0115,121.612,0.063466,0.0,0.0
3396,848.75,19.1444,19.4087,137.385,98.4743,97.7794,0.000372852,0.0416872,21.011,121.642,0.0595039,0.0,0.0
3408,851.75,19.0766,19.3865,143.376,98.5435,97.7063,0.000267461,0.0416648,21.0094,121.572,0.0717083,0.0,0.0
3420,854.75,19.3998,19.8174,140.632,98.6233,97.8821,0.000147834,0.0416798,21.0121,121.582,0.0633944,0.0,0.0
3432,857.75,19.4264,19.9305,143.169,98.691,97.8696,0.00016313,0.0417166,21.0148,121.612,0.0702332,0.0,0.0
3444,860.75,19.0744,19.8141,139.168,98.7671,98.0017,0.000358471,0.0415935,21.0156,121.622,0.0653767,0.0,0.0
3456,863.75,18.5626,19.418,137.688,98.8271,98.1588,0.00032938,0.0416278,21.0159,121.472,0.0570287,0.0,0.0
3468,866.75,18.6158,19.7248,140.731,98.8864,98.0994,0.000377901,0.0417407,21.0157,121.472,0.0671509,0.0,0.0
3480,869.75,19.0044,19.6378,140.235,98.9361,98.1637,0.000265839,0.0418621,21.016,121.472,0.0658678,0.0,0.0
3492,872.75,19.1411,19.7212,141.022,98.9745,98.2034,-5.39278e-05,0.0418293,21.016,121.482,0.0657336,0.0,0.0
3504,875.75,18.8822,19.6326,139.75,99.0082,98.2297,-0.000136232,0.0418386,21.016,121.442,0.0663379,0.0,0.0
3516,878.75,19.203,19.6404,143.35,99.0242,98.1275,0.000120273,0.0417756,21.0129,121.452,0.076445,0.0,0.0
3528,881.75,18.8131,19.8961,143.953,99.0487,98.3359,0.000446104,0.0416228,21.0118,121.432,0.0606886,0.0,0.0
3540,884.75,19.2276,19.9399,142.031,99.0631,98.4444,0.000505171,0.0416397,21.0127,121.412,0.0526494,0.0,0.0
3552,887.75,19.4375,19.7184,139.81,99.0811,98.4323,0.000360119,0.0416973,21.0129,121.322,0.0552076,0.0,0.0
3564,890.75,19.2774,19.6768,141.515,99.0955,98.2802,0.000317753,0.0417282,21.013,121.342,0.0694324,0.0,0.0
3576,893.75,19.3109,19.6815,139.396,99.0843,98.2949,0.000339937,0.0417914,21.013,121.251,0.0672225,0.0,0.0
3588,896.75,19.1217,19.5698,142.398,99.0919,98.2101,0.000300808,0.0417454,21.013,121.282,0.0751206,0.0,0.0
3600,899.75,19.011,19.5775,144.176,99.0983,98.3047,0.000243779,0.0416664,21.0127,121.251,0.0675723,0.0,0.0
3612,902.75,19.4208,19.4724,142.73,99.0995,98.3132,0.000112711,0.0417144,21.0125,121.201,0.0669492,0.0,0.0
3624,905.75,19.5141,19.5733,136.107,99.0923,98.2806,9.24206e-05,0.0418237,21.0122,121.171,0.0691224,0.0,0.0
3636,908.75,19.5819,20.045,143.989,99.0819,98.4261,0.000265615,0.0418299,21.0107,121.151,0.0558087,0.0,0.0
3648,911.75,19.4439,20.2881,142.726,99.0831,98.2672,0.000352517,0.0419297,21.0103,121.091,0.0694871,0.0,0.0
3660,914.75,19.401,19.5225,137.624,99.0743,98.261,0.00040808,0.0421245,21.0101,121.091,0.0692734,0.0,0.0
3672,917.75,19.3367,19.8439,138.368,99.0647,98.3649,0.000454709,0.0419186,21.0107,121.081,0.0595696,0.0,0.0
3684,920.75,19.1235,19.6885,142.187,99.0555,98.4479,0.000450781,0.0419066,21.0119,121.051,0.0516996,0.0,0.0
3696,923.75,18.9294,19.5234,140.85,99.0398,98.377,0.000384778,0.0419876,21.0122,121.081,0.0564336,0.0,0.0
3708,926.75,18.9316,20.0251,144.542,99.0242,98.3404,0.00028067,0.0418057,21.0123,121.021,0.0582346,0.0,0.0
3720,929.75,18.9824,19.8983,145.253,98.9994,98.3248,0.000182761,0.0418829,21.0124,120.991,0.0574615,0.0,0.0
3732,932.75,19.2985,19.9364,144.656,98.989,98.319,-8.70934e-06,0.0418473,21.0124,120.961,0.0570735,0.0,0.0
3744,935.75,19.4676,19.7895,140.507,98.9637,98.0771,-1.79431e-05,0.0417566,21.0124,120.941,0.0756299,0.0,0.0
3756,938.75,18.8652,19.6171,142.211,98.9417,98.2485,0.000197176,0.0417004,21.0124,120.911,0.0590881,0.0,0.0
3768,941.75,19.2683,19.3944,142.714,98.9177,98.0784,0.000413159,0.0416586,21.0124,120.891,0.071602,0.0,0.0
3780,944.75,18.7836,19.607,141.686,98.9045,98.2351,0.00042851,0.0416372,21.012,120.871,0.0570695,0.0,0.0
3792,947.75,19.3698,19.5991,142.28,98.876,98.2087,0.000329684,0.041541,21.0109,120.871,0.0569043,0.0,0.0
3804,950.75,18.8046,19.9058,141.831,98.8524,98.0365,0.000213289,0.0416065,21.0106,120.861,0.069648,0.0,0.0
3816,953.75,19.3041,19.5183,143.707,98.8291,98.0704,9.22522e-05,0.0417549,21.0105,120.831,0.0647664,0.0,0.0
3828,956.75,19.057,20.2248,140.152,98.7923,97.9629,5.28329e-05,0.0420543,21.0088,120.861,0.0708531,0.0,0.0
3840,959.75,18.9956,19.7642,141.022,98.7779,98.0994,0.000221691,0.0420606,21.0094,120.771,0.0579212,0.0,0.0
3852,962.75,19.2437,19.9788,142.713,98.7374,98.0914,0.000475867,0.0420501,21.0101,120.781,0.0551658,0.0,0.0
3864,965.75,19.3539,20.0069,144.842,98.7062,97.9289,0.000637573,0.0419532,21.0103,120.741,0.0664343,0.0,0.0
3876,968.75,19.0971,19.9931,138.788,98.6701,97.9321,0.000427607,0.0417835,21.0109,120.661,0.0630961,0.0,0.0
3888,971.75,19.2145,19.787,146.003,98.6433,97.9896,0.000158849,0.0417845,21.0115,120.621,0.0558724,0.0,0.0
3900,974.75,19.192,20.2443,142.143,98.6092,97.8571,-4.7614e-05,0.0417313,21.0117,120.621,0.0643449,0.0,0.0
3912,977.75,19.1384,19.5576,140.109,98.578,97.9147,-0.000112157,0.0418221,21.0117,120.631,0.0567401,0.0,0.0
3924,980.75,19.0358,20.1352,141.241,98.548,97.924,-8.48834e-05,0.0418055,21.0117,120.571,0.0533732,0.0,0.0
3936,983.75,19.3335,19.5021,138.817,98.5187,97.8955,-3.75412e-05,0.0417772,21.0115,120.541,0.0533324,0.0,0.0
3948,986.75,19.2756,19.6872,142.398,98.5131,97.7518,0.000208133,0.0417663,21.01,120.601,0.0651978,0.0,0.0
3960,989.75,19.3434,19.8157,144.417,98.4787,97.7933,0.000430004,0.0418696,21.0096,120.481,0.0586922,0.0,0.0
3972,992.75,19.157,19.8662,139.221,98.4558,97.5938,0.00047694,0.041974,21.0102,120.421,0.0739022,0.0,0.0
3984,995.75,19.399,19.7589,143.007,98.4454,97.7295,0.00042721,0.0418293,21.0106,120.421,0.06134,0.0,0.0
3996,998.75,19.0632,19.7072,146.103,98.3997,97.7232,0.000400219,0.0417152,21.0118,120.421,0.0579779,0.0,0.0
4008,1001.75,19.21,19.8433,140.04,98.3541,97.6072,0.000429759,0.0417307,21.011,120.391,0.0640605,0.0,0.0
4020,1004.75,18.731,20.0175,144.62,98.3192,97.3939,0.000376439,0.041716,21.0108,120.351,0.0794683,0.0,0.0
4032,1007.75,18.919,19.3914,142.908,98.2888,97.3631,0.000215462,0.0415735,21.0108,120.391,0.0795228,0.0,0.0
4044,1010.75,19.2792,19.6831,141.203,98.2519,97.5572,0.000160517,0.0416103,21.0107,120.391,0.0596332,0.0,0.0
4056,1013.75,18.9125,19.6492,141.176,98.1987,97.5858,0.000135525,0.0416935,21.0107,120.341,0.0526156,0.0,0.0
4068,1016.75,18.9258,19.7263,141.54,98.1546,97.4836,0.000355306,0.0417985,21.0119,120.25,0.0576486,0.0,0.0
4080,1019.75,18.8506,19.5874,141.855,98.1246,97.3899,0.000387171,0.041686,21.0142,120.26,0.0631597,0.0,0.0
4092,1022.75,19.0001,19.8764,145.336,98.0849,97.3582,0.000220321,0.0417306,21.0162,120.19,0.0624965,0.0,0.0
4104,1025.75,19.1183,19.8412,142.464,98.0597,97.252,1.22906e-05,0.0416049,21.0163,120.13,0.0695069,0.0,0.0
4116,1028.75,19.0244,19.67,143.775,98.0228,97.2337,6.22454e-05,0.0415729,21.0151,120.19,0.067929,0.0,0.0
4128,1031.75,19.2106,19.6586,141.247,97.9928,97.4184,0.000250556,0.041566,21.0139,120.15,0.0494004,0.0,0.0
4140,1034.75,19.1454,19.5494,139.444,97.9703,97.202,0.000404942,0.041578,21.0122,120.21,0.066168,0.0,0.0
4152,1037.75,18.7557,19.7917,142.675,97.9411,97.2319,0.000525631,0.041537,21.0121,120.16,0.0610755,0.0,0.0
4164,1040.75,18.9454,19.4634,143.853,97.9351,97.21,0.000557051,0.0414905,21.0125,120.08,0.0624498,0.0,0.0
4176,1043.75,18.9421,19.7486,139.4,97.9095,97.2265,0.000446704,0.0415282,21.0126,120.08,0.0588225,0.0,0.0
4188,1046.75,18.9027,19.6318,142.468,97.9031,97.081,0.000384058,0.0414696,21.0127,120.1,0.0708561,0.0,0.0
4200,1049.75,18.8947,19.4401,138.885,97.8918,97.3185,0.000361352,0.0415132,21.0127,120.1,0.0493675,0.0,0.0
4212,1052.75,19.1466,19.5795,141.926,97.893,97.1408,0.00038257,0.041607,21.0127,120.02,0.0648211,0.0,0.0
4224,1055.75,19.0803,19.4631,139.49,97.8922,97.1279,0.000355313,0.0416491,21.0127,120.02,0.0658728,0.0,0.0
4236,1058.75,19.5258,19.9631,139.645,97.9023,97.1239,0.000246444,0.0416393,21.0127,120.01,0.0670803,0.0,0.0
4248,1061.75,19.3683,19.8877,142.114,97.9139,97.1757,0.000136696,0.0417297,21.0107,119.94,0.0635992,0.0,0.0
4260,1064.75,19.2155,19.2505,139.407,97.9243,97.1904,7.38234e-05,0.0417139,21.01,120.01,0.0632194,0.0,0.0
4272,1067.75,19.1479,19.233,140.326,97.9503,97.3577,4.09136e-05,0.0415337,21.0106,119.95,0.0509957,0.0,0.0
4284,1070.75,19.3298,19.3768,144.252,97.9719,97.1511,2.51233e-05,0.0414938,21.0116,119.93,0.0707051,0.0,0.0
4296,1073.75,19.0735,19.6158,141.528,98.0068,97.3077,-5.51401e-05,0.0413479,21.0119,119.95,0.0601554,0.0,0.0
4308,1076.75,19.1686,19.3494,140.725,98.0236,97.1828,-0.000138765,0.0414317,21.012,119.97,0.0723957,0.0,0.0
4320,1079.75,19.0221,20.202,139.277,98.0589,97.2979,-6.99366e-05,0.0414249,21.0114,119.92,0.0654672,0.0,0.0
4332,1082.75,19.0616,19.5477,140.993,98.0925,97.3385,0.000180092,0.041692,21.0112,119.95,0.0648429,0.0,0.0
4344,1085.75,19.0443,19.5728,140.136,98.1306,97.4702,0.000324337,0.0416601,21.0131,119.91,0.0567451,0.0,0.0
4356,1088.75,18.6161,20.2046,142.236,98.1682,97.364,0.000448239,0.0416419,21.0141,119.87,0.0691314,0.0,0.0
4368,1091.75,19.134,19.7385,144.242,98.2111,97.5108,0.000410156,0.0416856,21.0146,119.8,0.0601365,0.0,0.0
4380,1094.75,19.1724,19.8999,138.68,98.2756,97.6942,0.000218225,0.0415221,21.0148,119.8,0.0498615,0.0,0.0
4392,1097.75,19.0859,19.7603,135.953,98.3397,97.5246,0.000312637,0.0415991,21.0148,119.81,0.0699391,0.0,0.0
4404,1100.75,18.9009,19.8654,140.232,98.3929,97.671,0.000385736,0.041527,21.0148,119.73,0.061887,0.0,0.0
4416,1103.75,19.3343,19.5652,140.467,98.469,97.7058,0.000291139,0.041534,21.0148,119.7,0.0653907,0.0,0.0
4428,1106.75,18.7536,19.8245,142.228,98.5247,97.7835,0.000237537,0.041355,21.0136,119.66,0.063465,0.0,0.0
4440,1109.75,19.2552,19.6485,138.871,98.5876,97.8584,0.000382324,0.0414923,21.0113,119.66,0.0623872,0.0,0.0
4452,1112.75,19.0518,19.8704,140.259,98.6525,97.7817,0.000627597,0.0415382,21.0109,119.69,0.0745099,0.0,0.0
4464,1115.75,19.1368,19.4664,140.573,98.7494,98.0575,0.000410899,0.0414335,21.0122,119.68,0.0590951,0.0,0.0
4476,1118.75,18.575,20.0134,144.959,98.8215,98.0378,0.000356452,0.0413783,21.0125,119.67,0.0669124,0.0,0.0
4488,1121.75,18.8645,19.8882,140.566,98.9097,98.0753,0.000183858,0.0413198,21.0126,119.63,0.0711888,0.0,0.0
4500,1124.75,18.8642,20.0155,142.571,99.013,98.3199,3.55551e-05,0.0413271,21.0127,119.61,0.0590374,0.0,0.0
4512,1127.75,18.4327,19.2958,142.14,99.1276,98.3632,0.0001635,0.0414428,21.0114,119.6,0.0650557,0.0,0.0
4524,1130.75,18.9329,19.6681,141.618,99.2157,98.4845,0.000247173,0.0415504,21.0119,119.61,0.0621594,0.0,0.0
4536,1133.75,18.7286,19.4077,143.265,99.3154,98.5765,0.00025174,0.0413078,21.0122,119.51,0.062762,0.0,0.0
4548,1136.75,19.3446,19.5405,139.12,99.4132,98.7969,0.000305074,0.0413972,21.0123,119.5,0.0522552,0.0,0.0
4560,1139.75,19.049,19.8828,135.463,99.5089,98.709,0.00025882,0.0416123,21.0121,119.56,0.0678247,0.0,0.0
4572,1142.75,19.3493,19.9263,140.799,99.5902,98.7474,0.000149572,0.0415854,21.0107,119.52,0.0714223,0.0,0.0
4584,1145.75,19.3041,19.3861,142.931,99.6587,98.9353,0.00013589,0.0415736,21.0102,119.53,0.0612266,0.0,0.0
4596,1148.75,19.2899,19.5861,136.411,99.72,98.9237,0.000221612,0.041428,21.0105,119.49,0.0673785,0.0,0.0
4608,1151.75,18.8972,19.4441,139.936,99.7857,98.975,8.5446e-05,0.0413728,21.0123,119.47,0.0685551,0.0,0.0
4620,1154.75,19.4408,19.6731,141.567,99.8269,99.1504,0.000216115,0.0413523,21.014,119.45,0.0571501,0.0,0.0
4632,1157.75,19.3276,19.8363,141.083,99.8574,99.0299,0.000425638,0.0415337,21.0145,119.46,0.0699312,0.0,0.0
4644,1160.75,19.3879,19.8343,142.263,99.8818,99.0415,0.00032347,0.0415814,21.0146,119.44,0.0710031,0.0,0.0
4656,1163.75,18.9197,19.6169,137.299,99.8946,99.0607,7.65796e-05,0.0415218,21.0146,119.45,0.0704527,0.0,0.0
4668,1166.75,19.0161,20.0883,143.266,99.885,99.1294,5.09963e-05,0.0415547,21.0146,119.43,0.063816,0.0,0.0
4680,1169.75,19.1389,19.3668,140.112,99.879,99.0214,6.22429e-05,0.0416664,21.0146,119.42,0.0724721,0.0,0.0
4692,1172.75,18.8372,19.735,142.028,99.8778,99.0325,9.34643e-05,0.0415043,21.0146,119.38,0.0714233,0.0,0.0
4704,1175.75,19.2613,19.6835,139.435,99.8257,99.0562,0.000272786,0.041692,21.0131,119.37,0.0650338,0.0,0.0
4716,1178.75,19.3571,19.878,142.659,99.7829,98.9156,0.000333534,0.0417369,21.0121,119.32,0.073359,0.0,0.0
4728,1181.75,18.8025,20.0601,139.473,99.726,98.9179,0.000155794,0.0416107,21.0127,119.31,0.0683782,0.0,0.0
4740,1184.75,18.975,19.8574,137.185,99.6747,98.9464,0.000222444,0.0416432,21.0141,119.27,0.0616304,0.0,0.0
4752,1187.75,19.4862,19.6077,139.851,99.603,98.7197,0.000260746,0.0414255,21.0146,119.259,0.0748594,0.0,0.0
4764,1190.75,19.0081,19.9999,145.123,99.5289,98.7086,0.000306914,0.0413668,21.0148,119.249,0.0695546,0.0,0.0
4776,1193.75,18.8988,19.7205,141.347,99.4668,98.6318,0.000500911,0.0414224,21.0148,119.239,0.0708481,0.0,0.0
4788,1196.75,19.1072,20.1869,142.18,99.3887,98.6251,0.000426354,0.0414764,21.0148,119.239,0.0648171,0.0,0.0
4800,1199.75,19.2376,19.6978,146.648,99.3198,98.5675,0.000436851,0.0414698,21.0142,119.219,0.0638955,0.0,0.0
4812,1202.75,19.2667,19.8058,139.075,99.2561,98.3618,0.000526996,0.0414604,21.0151,119.229,0.0760638,0.0,0.0
4824,1205.75,18.9091,19.3221,140.924,99.2029,98.3252,0.000467285,0.0413586,21.0146,119.179,0.0746787,0.0,0.0
4836,1208.75,18.9003,19.3423,136.623,99.1544,98.2511,0.000177395,0.0413894,21.0136,119.249,0.0769056,0.0,0.0
4848,1211.75,18.8351,19.1905,141.258,99.0863,98.3515,0.000170487,0.0418073,21.0126,119.159,0.0625492,0.0,0.0
4860,1214.75,19.0779,19.3194,145.183,99.0747,98.3359,0.000283888,0.0426104,21.0113,119.129,0.0628982,0.0,0.0
4872,1217.75,18.9061,19.4361,140.683,99.2061,98.3806,0.000311277,0.0428026,21.0126,119.109,0.0702222,0.0,0.0
4884,1220.75,18.7756,19.3178,138.595,99.3423,98.6492,0.000265161,0.0424789,21.0137,119.089,0.0588335,0.0,0.0
4896,1223.75,18.6151,19.7859,141.824,99.436,98.7568,0.000181995,0.0422675,21.013,119.109,0.0576028,0.0,0.0
4908,1226.75,18.5907,19.6036,140.989,99.5161,98.8648,0.000138777,0.0419983,21.0128,119.069,0.0551847,0.0,0.0
4920,1229.75,18.3643,19.6232,142.563,99.569,98.676,0.000118288,0.0418236,21.0127,119.049,0.0757103,0.0,0.0
4932,1232.75,19.2546,19.4762,142.882,99.6054,98.742,9.80382e-05,0.0419343,21.0113,119.099,0.0731634,0.0,0.0
4944,1235.75,19.0649,19.6146,141.487,99.6211,98.7947,-8.79341e-07,0.0420919,21.0107,119.069,0.0700007,0.0,0.0
4956,1238.75,19.0541,19.373,147.191,99.6094,98.8755,0.000112692,0.0419434,21.011,119.039,0.0621525,0.0,0.0
4968,1241.75,18.701,19.1673,140.857,99.5786,98.8299,0.000305175,0.0419181,21.0122,118.979,0.0634193,0.0,0.0
4980,1244.75,18.8395,19.7612,140.419,99.5129,98.7193,0.00032708,0.0417274,21.0124,118.999,0.06729,0.0,0.0
4992,1247.75,18.5457,19.0014,140.775,99.4308,98.68,0.000204355,0.041605,21.0131,118.989,0.0636967,0.0,0.0
5004,1250.75,18.4202,19.623,142.75,99.3315,98.5573,1.4898e-05,0.0416733,21.0133,119.019,0.0657535,0.0,0.0
5016,1253.75,18.7114,19.1762,140.98,99.2109,98.5742,1.56402e-05,0.0416449,21.0133,118.979,0.0541018,0.0,0.0
5028,1256.75,18.8567,19.3411,135.508,99.0607,98.2507,-7.31084e-05,0.0417185,21.0133,118.829,0.0689952,0.0,0.0
5040,1259.75,19.1186,18.8741,140.064,98.898,98.1039,-0.000140146,0.0416234,21.0133,118.889,0.0677551,0.0,0.0
5052,1262.75,18.3049,19.0326,142.24,98.7847,97.9954,-1.30796e-05,0.0414609,21.0133,118.889,0.0674123,0.0,0.0
5064,1265.75,18.7286,19.699,139.642,98.8043,98.0945,0.000132127,0.0414718,21.0133,118.869,0.0605901,0.0,0.0
5076,1268.75,18.6736,19.3662,141.513,98.8239,98.0494,0.00018215,0.0416353,21.0111,118.899,0.0661212,0.0,0.0
5088,1271.75,18.5899,19.4056,140.447,98.8512,97.9495,0.000171733,0.0417526,21.0103,118.879,0.0770088,0.0,0.0
5100,1274.75,18.8428,19.4062,137.636,98.8732,98.103,0.000130881,0.0418649,21.0101,118.899,0.0657217,0.0,0.0
5112,1277.75,18.4153,19.1354,143.274,98.9241,98.2333,3.41504e-05,0.0418567,21.0101,118.889,0.0588892,0.0,0.0
5124,1280.75,18.5853,19.3614,143.244,98.9541,98.1101,8.25342e-06,0.041672,21.01,118.889,0.0719845,0.0,0.0
5136,1283.75,18.796,19.3625,139.242,98.991,98.294,0.000344076,0.0416695,21.01,118.869,0.0593796,0.0,0.0
5148,1286.75,18.7088,19.2783,141.637,99.033,98.1815,0.000520076,0.0418141,21.0116,118.859,0.0725695,0.0,0.0
5160,1289.75,18.5174,19.1782,144.997,99.0659,98.3132,0.000519445,0.0418147,21.0128,118.829,0.0640953,0.0,0.0
5172,1292.75,18.4305,19.2582,141.603,99.1007,98.3993,0.000538407,0.0416732,21.013,118.829,0.0596919,0.0,0.0
5184,1295.75,18.841,18.8197,141.263,99.134,98.5827,0.000297668,0.041704,21.0121,118.739,0.0468614,0.0,0.0
5196,1298.75,19.0846,18.8872,138.285,99.1492,98.3846,3.14257e-05,0.0417262,21.0118,118.909,0.0650586,0.0,0.0
5208,1301.75,18.9806,19.3102,141.544,99.1748,98.4011,5.37531e-05,0.0418643,21.0117,118.839,0.0658221,0.0,0.0
5220,1304.75,18.5146,19.2604,142.856,99.2001,98.4555,0.000156246,0.0421087,21.0117,118.779,0.0633109,0.0,0.0
5232,1307.75,18.9998,19.6436,140.322,99.2029,98.4091,4.53119e-05,0.0424015,21.0111,118.749,0.0675106,0.0,0.0
5244,1310.75,19.2464,19.6761,140.975,99.1905,98.3725,,0.0423841,,118.749,0.0695844,0.0,0.0
5256,1313.75,18.8097,19.4461,140.462,99.1636,98.4582,,,,118.719,0.0599943,0.0,0.0
5268,1316.75,18.8004,19.1922,138.142,99.1476,98.3457,,,,118.679,0.0682401,0.0,0.0
5280,1319.75,18.4753,19.6341,143.524,99.1023,98.3609,,,,118.779,0.0631061,0.0,0.0
5287,1321.5,18.5943,19.3385,142.803,99.0711,98.3623,,,,118.739,0.0603424,0.0,0.0