File: 01_Data/Gypsum_Wallboard/Cone/Gypsum_Wallboard_Cone_HF25Scan_220510_R3.csv
Names,Time,Stack TC,Smoke TC,Exh Press,Smoke Comp,Smoke Meas,CO Meter,CO2 Meter,O2 Meter,Sample Mass,Ext Coeff,Start Test,Flame Verif
Chan Gain,,500,500,1,1,1,1,1,1,1,1,1.0,1.0
Offset,,0,0,0.138628,0,0,0,0,0,0,0,0.0,0.0
Gain,,1,1,25.011,13.1256,14.6231,1,1,1,1.001,0.958019,1.0,1.0
Units,sec,C,C,Pa,%,%,%,%,%,g,/m,,
Baseline,,19.309,19.9903,141.552,99.1307,98.2986,0.000315187,0.0419471,21.0063,-443.37,0.0708465,,
7,1.5,17.3822,17.5024,140.826,98.9561,98.1708,0.000375364,0.0490103,21.0006,130.05,0.0669571,0.0,0.0
14,3.25,17.2306,18.14,142.308,98.981,98.1061,0.000347175,0.0493541,21.0007,130,0.0746062,0.0,0.0
21,5,17.3434,18.1814,143.741,98.993,98.103,0.000317667,0.0488353,21.0008,129.91,0.075895,0.0,0.0
28,6.75,17.595,18.6792,139.585,98.987,98.2128,0.000299496,0.0479253,21.001,129.85,0.0659861,0.0,0.0
35,8.5,17.3691,18.0171,140.263,98.9954,98.0244,0.000260694,0.0467558,21.0021,129.84,0.0828297,0.0,0.0
42,10.25,17.298,18.2,142.511,98.9974,98.0856,0.000183271,0.0456683,21.0025,129.86,0.0777602,0.0,0.0
49,12,17.7668,17.5006,143.875,98.993,98.1414,0.000136375,0.0448077,21.0036,129.87,0.0726082,0.0,0.0
56,13.75,17.1068,18.2535,139.816,98.9838,98.4305,0.000122627,0.0440921,21.0053,129.87,0.0471005,0.0,0.0
63,15.5,17.6665,18.5226,138.836,98.9593,98.036,0.00016034,0.0435869,21.0061,129.87,0.0787736,0.0,0.0
70,17.25,17.7829,18.5264,139.573,98.9265,98.1458,0.000221731,0.0431783,21.0065,129.79,0.0665794,0.0,0.0
77,19,17.9685,18.6177,141.695,98.9097,97.9397,0.000218877,0.0429269,21.0067,129.77,0.0828218,0.0,0.0
84,20.75,17.5194,18.2661,141.412,98.8816,97.9048,0.000129617,0.0426761,21.007,129.83,0.0834259,0.0,0.0
91,22.5,17.5901,18.785,141.296,98.8428,97.8879,3.56182e-05,0.0424428,21.0074,129.85,0.0815788,0.0,0.0
98,24.25,17.7204,18.2405,142.041,98.8007,98.032,4.80912e-05,0.0422497,21.0073,129.81,0.0656372,0.0,0.0
105,26,17.6226,18.4755,141.436,98.7875,97.9218,7.562e-05,0.0422702,21.0062,129.74,0.0739677,0.0,0.0
112,27.75,17.9958,18.3364,144.363,98.7867,98.065,8.58712e-05,0.0425461,21.0055,129.71,0.0616145,0.0,0.0
119,29.5,17.9494,18.4192,140.764,98.7895,97.9481,0.000116154,0.0430166,21.0051,129.69,0.0718782,0.0,0.0
126,31.25,18.4406,18.7369,140.384,98.7807,97.9151,0.000184577,0.0434347,21.0049,129.66,0.0739618,0.0,0.0
133,33,18.1991,18.6901,143.126,98.7959,97.9776,0.000315637,0.0435903,21.0049,129.62,0.0698964,0.0,0.0
140,34.75,18.0842,18.7667,137.81,98.8043,97.9267,0.000434298,0.0435205,21.0048,129.59,0.0749766,0.0,0.0
147,36.5,18.1227,18.8721,137.701,98.8063,97.8736,0.000496527,0.0435124,21.0048,129.55,0.0797054,0.0,0.0
154,38.25,18.2551,18.8996,142.425,98.8219,97.8616,0.000483025,0.0432063,21.0048,129.47,0.0820689,0.0,0.0
161,40,18.3345,18.8482,144.963,98.8023,98.0588,0.000423624,0.0430219,21.0048,129.52,0.0634789,0.0,0.0
168,41.75,18.3079,18.3702,137.977,98.8159,97.9347,0.000341392,0.042788,21.0046,129.49,0.0752755,0.0,0.0
175,43.5,18.4176,18.6076,142.053,98.8155,97.9709,0.000197014,0.0426358,21.0044,129.46,0.0721404,0.0,0.0
182,45.25,18.2992,18.3919,142.376,98.8187,97.9053,6.97611e-05,0.0424456,21.0054,129.44,0.0780421,0.0,0.0
189,47,18.3444,18.3566,142.029,98.8231,97.8812,3.53388e-05,0.0421341,21.0068,129.4,0.0804854,0.0,0.0
196,48.75,17.9995,18.8462,143.003,98.8348,97.9856,6.4174e-05,0.0419501,21.0078,129.4,0.0725119,0.0,0.0
203,50.5,18.1387,18.7285,137.853,98.8304,97.9178,0.000106942,0.0418742,21.0083,129.34,0.0779577,0.0,0.0
210,52.25,18.1248,18.5778,139.834,98.84,98.0276,0.000149031,0.0417516,21.0073,129.34,0.0693579,0.0,0.0
217,54,18.2088,18.8077,141.553,98.8476,97.9629,0.00018265,0.0418642,21.0069,129.28,0.0755535,0.0,0.0
224,55.75,18.4576,18.953,143.087,98.8512,98.0026,0.000203193,0.0422338,21.0067,129.27,0.0724543,0.0,0.0
231,57.5,17.851,18.9971,141.371,98.8644,98.2802,0.000230351,0.0427177,21.0065,129.229,0.0498097,0.0,0.0
238,59.25,18.3377,18.9791,141.66,98.8852,97.9941,0.000210351,0.0430127,21.0059,129.199,0.0760747,0.0,0.0
245,61,18.4352,19.1145,138.763,98.872,97.9803,0.000116222,0.0431147,21.005,129.179,0.0761382,0.0,0.0
252,62.75,18.5684,18.9361,145.16,98.8708,97.9865,3.5274e-05,0.0430875,21.0043,129.139,0.0754998,0.0,0.0
259,64.5,17.9534,18.6679,140.083,98.898,98.0459,7.41139e-05,0.0431036,21.003,129.079,0.0727264,0.0,0.0
266,66.25,18.4865,19.029,138.485,98.898,98.0485,0.000184521,0.0430551,21.003,129.029,0.072497,0.0,0.0
273,68,18.4655,19.0642,145.465,98.9029,98.0753,0.000271551,0.0428759,21.0036,129.069,0.0706107,0.0,0.0
280,69.75,18.754,19.0428,141.191,98.9153,98.1173,0.000325717,0.0426762,21.0052,129.019,0.0680721,0.0,0.0
287,71.5,18.4264,18.814,143.4,98.9241,97.9633,0.000379313,0.042655,21.0062,128.989,0.0820173,0.0,0.0
294,73.25,18.5486,18.9939,141.918,98.9277,98.0838,0.000327491,0.0424456,21.0081,128.939,0.0719944,0.0,0.0
301,75,18.5256,18.8737,143.645,98.9345,98.0717,0.00029427,0.0422742,21.0092,128.919,0.0736043,0.0,0.0
308,76.75,18.4213,18.7146,140.78,98.9309,98.0111,0.000313086,0.0420073,21.0098,128.889,0.0785006,0.0,0.0
315,78.5,18.2514,18.7318,142.02,98.9397,97.8468,0.00030709,0.0418101,21.01,128.789,0.093342,0.0,0.0
322,80.25,18.397,19.2313,138.784,98.9585,97.9812,0.000248792,0.0416858,21.0101,128.809,0.083412,0.0,0.0
329,82,18.5763,19.1705,143.198,98.9593,97.9169,0.00021529,0.0416526,21.01,128.779,0.0889936,0.0,0.0
336,83.75,18.4841,18.8139,140.025,98.9637,97.8379,0.000224369,0.0416105,21.0097,128.739,0.0961503,0.0,0.0
343,85.5,18.2728,18.5479,137.759,98.9669,97.9611,0.000254136,0.0415955,21.0095,128.699,0.0858488,0.0,0.0
350,87.25,18.5023,18.867,139.177,98.9886,97.9026,0.000300548,0.0416568,21.0095,128.669,0.092703,0.0,0.0
357,89,18.0172,18.6859,142.014,99.0034,97.8285,0.000355864,0.0417354,21.0094,128.719,0.100322,0.0,0.0
364,90.75,18.606,19.0178,142.744,99.0054,97.7888,0.00041799,0.0417383,21.0094,128.649,0.103904,0.0,0.0
371,92.5,18.7585,18.7251,147.865,99.0062,97.9089,0.000476848,0.041743,21.0093,128.609,0.093662,0.0,0.0
378,94.25,18.2885,19.6074,138.7,99.0186,97.9272,0.000484105,0.0417964,21.009,128.629,0.0931458,0.0,0.0
385,96,18.6118,19.3898,140.789,99.0262,97.7719,0.000470268,0.0418962,21.0089,128.569,0.10713,0.0,0.0
392,97.75,18.5674,19.3439,140.432,99.0338,97.7183,0.000509144,0.0427955,21.0079,128.529,0.112379,0.0,0.0
399,99.5,18.8492,19.3643,139.962,99.0443,97.779,0.000588208,0.0439034,21.0071,128.499,0.108045,0.0,0.0
406,101.25,18.3153,19.0387,140.012,99.0382,97.6755,0.000548013,0.0444663,21.0068,128.419,0.116439,0.0,0.0
413,103,19.1995,19.5184,140.639,99.0531,97.6799,0.000387313,0.0445988,21.0075,128.389,0.117312,0.0,0.0
420,104.75,18.9014,19.1825,141.986,99.0571,97.8428,0.000224703,0.0443588,21.0082,128.349,0.10365,0.0,0.0
427,106.5,18.777,19.1113,143.16,99.0555,97.5871,0.000165497,0.0439585,21.0089,128.279,0.125506,0.0,0.0
434,108.25,18.6055,19.3607,140.351,99.0587,97.6487,0.000162357,0.0437033,21.0093,128.299,0.120476,0.0,0.0
441,110,18.2629,18.807,146.375,99.0695,97.7147,0.00022643,0.0434053,21.0094,128.269,0.115711,0.0,0.0
448,111.75,18.6688,19.5136,144.085,99.0831,97.6014,0.000325787,0.0432184,21.0089,128.248,0.12662,0.0,0.0
455,113.5,18.7524,19.433,140.722,99.0787,97.642,0.000404214,0.0431273,21.0081,128.188,0.122751,0.0,0.0
462,115.25,18.6494,19.1949,137.934,99.0919,97.7571,0.000487871,0.0429042,21.0077,128.108,0.113968,0.0,0.0
469,117,18.6008,19.4395,142.372,99.0839,97.6969,0.000624345,0.042666,21.0077,128.068,0.11847,0.0,0.0
476,118.75,19,19.0502,141.928,99.0931,97.463,0.000690844,0.0425387,21.0089,128.108,0.13939,0.0,0.0
483,120.5,18.7231,19.355,140.814,99.0967,97.5599,0.000675611,0.0423664,21.0095,128.028,0.13135,0.0,0.0
490,122.25,18.2233,19.4177,144.267,99.0999,97.7067,0.000616134,0.0424802,21.0098,128.008,0.118984,0.0,0.0
497,124,18.8973,19.2361,143.399,99.0875,97.4679,0.000539451,0.0427498,21.0099,127.928,0.138491,0.0,0.0
504,125.75,18.9163,19.7108,141.495,99.1063,97.4983,0.000471197,0.0432178,21.01,127.878,0.137471,0.0,0.0
511,127.5,18.7122,19.4096,140.776,99.1127,97.1895,0.000447664,0.0436315,21.01,127.838,0.164675,0.0,0.0
518,129.25,19.0326,19.3941,143.788,99.0983,97.3568,0.000493171,0.043775,21.0092,127.798,0.148994,0.0,0.0
525,131,18.8466,19.9114,139.457,99.1011,97.397,0.000504512,0.0437376,21.0085,127.698,0.145765,0.0,0.0
532,132.75,18.9248,19.4763,138.548,99.0887,97.5987,0.000451164,0.0436825,21.0081,127.698,0.127327,0.0,0.0
539,134.5,18.7398,20.1084,144.546,99.1071,97.1948,0.000385022,0.0437728,21.0079,127.658,0.163736,0.0,0.0
546,136.25,18.6388,19.848,141.354,99.1039,97.4952,0.000349588,0.0437365,21.0078,127.678,0.137536,0.0,0.0
553,138,19.1284,19.5704,140.727,99.1047,97.1364,0.000347835,0.0436609,21.0078,127.598,0.168588,0.0,0.0
560,139.75,18.7029,19.8377,142.576,99.0939,97.0154,0.000410065,0.0435315,21.0078,127.568,0.17814,0.0,0.0
567,141.5,18.8466,19.7474,144.233,99.0967,97.2457,0.000579951,0.0433848,21.007,127.528,0.158456,0.0,0.0
574,143.25,19.0025,19.8258,140.039,99.1059,97.1957,0.000793969,0.0433028,21.0062,127.478,0.163557,0.0,0.0
581,145,18.8782,19.4525,140.578,99.1015,96.9141,0.000929102,0.0433824,21.0058,127.448,0.187565,0.0,0.0
588,146.75,18.9149,20.0252,142.74,99.0919,97.1221,0.000953065,0.0433175,21.0056,127.418,0.168737,0.0,0.0
595,148.5,19.1241,19.6087,138.391,99.1043,97.297,0.000994852,0.0433314,21.0055,127.388,0.154667,0.0,0.0
602,150.25,18.9912,19.3801,138.107,99.1135,97.0467,0.00109717,0.0434198,21.0061,127.348,0.177099,0.0,0.0
609,152,18.9366,19.93,141.726,99.1079,96.9003,0.00118534,0.0435884,21.0057,127.217,0.189309,0.0,0.0
616,153.75,19.1073,19.9881,140.415,99.0983,97.1413,0.00122326,0.044004,21.0056,127.227,0.167621,0.0,0.0
623,155.5,19.1628,20.2652,143.861,99.1139,96.7865,0.00123,0.0443917,21.0055,127.177,0.199692,0.0,0.0
630,157.25,18.9656,19.6781,144.006,99.1091,97.1725,0.00127523,0.0446638,21.0058,127.137,0.165834,0.0,0.0
637,159,19.1799,19.6477,141.597,99.1095,96.9351,0.00135528,0.0449708,21.006,127.087,0.186426,0.0,0.0
644,160.75,19.1687,20.3896,143.914,99.1152,96.8686,0.00140753,0.0452419,21.0057,127.047,0.192668,0.0,0.0
651,162.5,19.1744,19.9444,139.031,99.1087,96.6174,0.00143207,0.0454949,21.005,127.027,0.21395,0.0,0.0
658,164.25,19.3753,19.7155,142.774,99.1087,96.9275,0.00149246,0.0457886,21.0047,126.937,0.187016,0.0,0.0
665,166,19.3291,19.5554,138.11,99.1107,96.8195,0.00159321,0.0460971,21.0046,126.887,0.196554,0.0,0.0
672,167.75,19.129,20.0509,139.422,99.1075,96.3269,0.0017784,0.0463755,21.0043,126.747,0.239155,0.0,0.0
679,169.5,18.9399,19.6827,138.593,99.1152,96.2082,0.00197066,0.0464463,21.0039,126.727,0.250162,0.0,0.0
686,171.25,19.3356,19.9552,141.697,99.1031,96.0466,0.00211177,0.0464934,21.0037,126.657,0.263266,0.0,0.0
693,173,19.1567,19.8766,141.725,99.1067,96.5085,0.00219456,0.0466351,21.0037,126.657,0.223256,0.0,0.0
700,174.75,19.5941,19.7551,141.689,99.1131,96.0158,0.00219671,0.0470589,21.0036,126.617,0.266809,0.0,0.0
707,176.5,19.6206,20.1186,141.187,99.1059,96.4295,0.00226832,0.0476607,21.002,126.527,0.230068,0.0,0.0
714,178.25,19.1996,19.9513,143.157,99.0979,95.9475,0.00247287,0.0485244,21.0007,126.447,0.271497,0.0,0.0
721,180,18.5575,19.7152,139.864,99.1139,96.0064,0.00272334,0.0495198,20.999,126.427,0.267697,0.0,0.0
728,181.75,18.8803,20.0954,142.585,99.1176,95.9899,0.00289683,0.0503379,20.9983,126.357,0.269449,0.0,0.0
735,183.5,19.3049,20.005,139.772,99.1147,96.2827,0.00312246,0.0509517,20.9979,126.236,0.243621,0.0,0.0
742,185.25,19.6014,19.9735,144.074,99.1135,96.463,0.00340191,0.0514906,20.9973,126.206,0.227798,0.0,0.0
749,187,19.3739,20.1818,147.026,99.1091,96.7566,0.00374493,0.0520877,20.9964,126.216,0.201881,0.0,0.0
756,188.75,19.7134,19.9017,141.835,99.1168,96.7223,0.00407612,0.0530805,20.9957,126.116,0.205512,0.0,0.0
763,190.5,19.6448,20.2521,141.539,99.1107,96.7678,0.00427729,0.0539431,20.9941,126.076,0.201049,0.0,0.0
770,192.25,19.4701,19.962,143.172,99.1119,97.1712,0.00443261,0.054569,20.9932,126.006,0.166189,0.0,0.0
777,194,19.3182,20.2521,141.906,99.1003,97.2828,0.00450429,0.0548514,20.9919,125.916,0.155561,0.0,0.0
784,195.75,19.5466,20.1388,136.433,99.1168,97.4474,0.00451591,0.0549359,20.9905,125.896,0.14274,0.0,0.0
791,197.5,19.2897,20.1051,140.937,99.1063,97.4331,0.00460562,0.0551407,20.9891,125.866,0.143089,0.0,0.0
798,199.25,19.6042,20.0263,142.615,99.1047,97.7357,0.00483426,0.0556921,20.9878,125.806,0.116897,0.0,0.0
805,201,19.808,20.2847,145.874,99.0947,97.7937,0.00513003,0.0563266,20.9866,125.786,0.111061,0.0,0.0
812,202.75,19.887,20.2635,139.43,99.1176,97.8196,0.00546672,0.0572387,20.9854,125.696,0.110774,0.0,0.0
819,204.5,19.4945,20.0578,141.053,99.1135,97.7321,0.00574519,0.0583727,20.9843,125.596,0.117951,0.0,0.0
826,206.25,20.1288,19.9922,140.966,99.1047,97.9669,0.00602573,0.0597256,20.9829,125.536,0.0970445,0.0,0.0
833,208,19.3889,20.8568,138,99.1059,97.8709,0.0062363,0.0608985,20.9819,125.496,0.105381,0.0,0.0
840,209.75,20.1758,20.2942,142.61,99.0991,97.8995,0.00641816,0.061862,20.9822,125.436,0.102351,0.0,0.0
847,211.5,19.7535,20.5732,143.522,99.1107,97.9517,0.00663522,0.0627905,20.9827,125.356,0.0988556,0.0,0.0
854,213.25,19.434,20.5681,139.149,99.1067,97.9245,0.00693915,0.0638797,20.9812,125.356,0.100851,0.0,0.0
861,215,19.724,20.4284,139.087,99.1059,98.1141,0.00728561,0.0652904,20.9799,125.215,0.0845229,0.0,0.0
868,216.75,19.5133,20.4955,140.441,99.1107,98.0771,0.00761542,0.066724,20.9781,125.115,0.0881034,0.0,0.0
875,218.5,19.9338,20.453,137.384,99.1091,97.9196,0.00791975,0.0679096,20.9767,125.105,0.101476,0.0,0.0
882,220.25,19.8013,20.2643,140.635,99.1155,98.1356,0.0081504,0.0691185,20.9746,125.085,0.0835033,0.0,0.0
889,222,19.7765,20.15,140.415,99.1196,97.9111,0.00829585,0.0703267,20.972,124.985,0.103087,0.0,0.0
896,223.75,20.1916,20.9276,139.001,99.1119,98.0731,0.00837553,0.0714882,20.9707,124.905,0.0885495,0.0,0.0
903,225.5,20.1519,20.894,140.125,99.1027,98.0883,0.00839138,0.0725218,20.9701,124.855,0.0864685,0.0,0.0
910,227.25,20.0049,20.2948,135.853,99.122,97.928,0.00841996,0.0730451,20.9698,124.815,0.101835,0.0,0.0
917,229,19.5924,20.5745,139.365,99.1152,98.1382,0.00856371,0.0729686,20.9696,124.745,0.0832404,0.0,0.0
924,230.75,19.9696,20.4583,140.552,99.116,98.2846,0.00870247,0.0727471,20.9695,124.725,0.0707835,0.0,0.0
931,232.5,19.8301,20.5405,140.354,99.1103,98.1128,0.00873317,0.072515,20.9703,124.615,0.0850118,0.0,0.0
938,234.25,20.1683,21.279,141.362,99.1244,98.1195,0.0086588,0.072126,20.9711,124.565,0.0856266,0.0,0.0
945,236,20.3111,20.6481,141.184,99.118,98.2128,0.00850669,0.0716316,20.9715,124.445,0.0770991,0.0,0.0
952,237.75,20.1893,20.1422,141.253,99.1244,98.2953,0.00824687,0.0710764,20.9717,124.425,0.0705809,0.0,0.0
959,239.5,20.3718,21.1319,141.563,99.1147,98.2391,0.00805843,0.0704974,20.9718,124.325,0.0745745,0.0,0.0
966,241.25,20.1273,21.0469,139.923,99.1143,98.2485,0.0079536,0.0700571,20.9718,124.265,0.0737384,0.0,0.0
973,243,20.4957,21.3028,140.938,99.1171,98.4569,0.00789499,0.0696709,20.9718,124.234,0.0561689,0.0,0.0
980,244.75,20.4507,21.3883,137.951,99.1184,98.352,0.00778642,0.0695851,20.9719,124.234,0.0652276,0.0,0.0
987,246.5,20.2205,21.1339,141.179,99.1055,98.2154,0.00759082,0.0697773,20.9719,124.174,0.0758175,0.0,0.0
994,248.25,20.1619,21.2801,139.437,99.1051,98.3145,0.00736845,0.0698174,20.9719,124.064,0.0673099,0.0,0.0
1001,250,20.4592,21.0691,141.37,99.1147,98.4265,0.00711626,0.0695129,20.9725,124.024,0.0585559,0.0,0.0
1008,251.75,20.6047,20.8778,141.049,99.1135,98.1717,0.00683291,0.0693385,20.9734,123.974,0.0802393,0.0,0.0
1015,253.5,20.0512,21.0588,139.875,99.1099,98.302,0.0065716,0.0692102,20.9738,123.894,0.0687856,0.0,0.0
1022,255.25,19.7711,20.9686,142.149,99.1079,98.4819,0.00635317,0.068938,20.974,123.824,0.0532557,0.0,0.0
1029,257,20.4087,20.9307,139.977,99.1095,98.4256,0.00620828,0.0685864,20.9741,123.784,0.0581918,0.0,0.0
1036,258.75,20.5087,21.2187,133.935,99.1123,98.3466,0.00618105,0.068073,20.9741,123.694,0.0651759,0.0,0.0
1043,260.5,20.063,21.207,142.814,99.1043,98.4163,0.00625129,0.0677358,20.9741,123.654,0.0585499,0.0,0.0
1050,262.25,20.8161,20.8661,139.078,99.1047,98.4234,0.0062371,0.0674245,20.9751,123.604,0.0579739,0.0,0.0
1057,264,19.9404,20.9783,144.277,99.0899,98.2199,0.00615178,0.0666395,20.9763,123.584,0.0741098,0.0,0.0
1064,265.75,19.9548,21.0156,139.169,99.1059,98.3395,0.00605511,0.0657768,20.9778,123.484,0.0652425,0.0,0.0
1071,267.5,20.3204,21.1792,140.454,99.1079,98.5818,0.00592972,0.065361,20.9795,123.484,0.0447302,0.0,0.0
1078,269.25,20.3343,20.8335,140.124,99.1031,98.4216,0.00562969,0.0648529,20.9803,123.434,0.0579908,0.0,0.0
1085,271,20.6958,20.893,141.138,99.0979,98.3408,0.00538195,0.0640623,20.9807,123.374,0.0644483,0.0,0.0
1092,272.75,19.9182,20.7014,142.366,99.1027,98.3065,0.00528476,0.0632683,20.9809,123.324,0.0677929,0.0,0.0
1099,274.5,20.4455,20.7338,140.858,99.1027,98.4627,0.00523508,0.0628154,20.9828,123.344,0.0544512,0.0,0.0
1106,276.25,20.7114,20.9056,137.707,99.1095,98.4091,0.00502123,0.0623169,20.9843,123.274,0.0596014,0.0,0.0
1113,278,20.3178,21.501,136.986,99.1059,98.5742,0.00477643,0.0618248,20.9841,123.243,0.0452065,0.0,0.0
1120,279.75,20.6618,21.0927,139.874,99.1067,98.3065,0.00451854,0.061202,20.9849,123.103,0.0681327,0.0,0.0
1127,281.5,20.6752,21.5444,140.957,99.1111,98.1927,0.00444388,0.0599389,20.9859,123.123,0.0782406,0.0,0.0
1134,283.25,20.2273,21.35,141.627,99.1083,98.3042,0.00434536,0.058736,20.9879,123.113,0.0684597,0.0,0.0
1141,285,20.171,21.1452,143.459,99.1107,98.3895,0.00410232,0.0577345,20.9892,123.023,0.0613798,0.0,0.0
1148,286.75,20.6148,21.1002,139.047,99.1127,98.4493,0.00381533,0.057183,20.9897,122.953,0.0564436,0.0,0.0
1155,288.5,20.328,21.1838,137.003,99.1264,98.2967,0.00362619,0.0573857,20.9894,122.853,0.0706365,0.0,0.0
1162,290.25,20.3878,21.4952,137.503,99.1192,98.4667,0.00357329,0.0579666,20.9887,122.883,0.0555022,0.0,0.0
1169,292,20.399,21.8718,142.726,99.1256,98.414,0.00353074,0.0584104,20.9883,122.813,0.0605404,0.0,0.0
1176,293.75,20.6172,21.218,135.434,99.118,98.514,0.00345102,0.058289,20.9882,122.753,0.0513631,0.0,0.0
1183,295.5,20.1768,20.8916,137.365,99.1208,98.4033,0.00330142,0.0578576,20.9889,122.743,0.0610476,0.0,0.0
1190,297.25,20.5468,21.0702,138.215,99.1348,98.4131,0.00309243,0.0567538,20.9908,122.693,0.0613977,0.0,0.0
1197,299,20.658,20.9659,141.508,99.1316,98.5586,0.00289173,0.0557764,20.9925,122.583,0.0487122,0.0,0.0
1204,300.75,20.4773,20.9552,141.134,99.1252,98.5747,0.00274373,0.0546805,20.9937,122.613,0.0467986,0.0,0.0
1211,302.5,20.3404,21.6783,143.17,99.1268,98.4216,0.00259855,0.0535968,20.9938,122.583,0.0599943,0.0,0.0
1218,304.25,20.2363,21.4743,137.618,99.1364,98.3855,0.0024586,0.0527662,20.9939,122.583,0.0638955,0.0,0.0
1225,306,20.3379,20.9449,137.733,99.136,98.3203,0.00243833,0.0522789,20.9939,122.503,0.0694294,0.0,0.0
1232,307.75,20.4224,21.272,138.054,99.1364,98.4676,0.0024769,0.0519575,20.9939,122.503,0.0568854,0.0,0.0
1239,309.5,19.9738,20.8207,148.242,99.13,98.4265,0.00243119,0.0516076,20.9939,122.453,0.0598471,0.0,0.0
1246,311.25,20.6539,21.1273,139.776,99.132,98.4341,0.00233581,0.0511501,20.9945,122.373,0.0593696,0.0,0.0
1253,313,19.9953,21.6005,140.648,99.1444,98.3828,0.00222759,0.0508028,20.9954,122.343,0.0648042,0.0,0.0
1260,314.75,20.3079,20.9801,140.28,99.1408,98.4113,0.00215057,0.0503493,20.9958,122.323,0.06206,0.0,0.0
1267,316.5,20.2803,21.0026,138.7,99.1328,98.4127,0.0021457,0.049926,20.997,122.273,0.0612654,0.0,0.0
1274,318.25,20.4481,21.4736,140.912,99.1252,98.5899,0.00220218,0.0497114,20.9978,122.252,0.0455054,0.0,0.0
1281,320,20.3438,21.1859,138.376,99.1428,98.4466,0.00229079,0.0495753,20.9982,122.212,0.0592184,0.0,0.0
1288,321.75,20.3646,21.0823,140.294,99.1348,98.3953,0.00231356,0.0493884,20.9984,122.122,0.0629211,0.0,0.0
1295,323.5,20.4507,21.1698,139.087,99.14,98.4716,0.00227102,0.0490938,20.9985,122.072,0.0568486,0.0,0.0
1302,325.25,20.2295,21.2915,141.598,99.1284,98.5109,0.00216416,0.0488177,21.0002,122.072,0.0525131,0.0,0.0
1309,327,20.3451,21.2205,135.229,99.1408,98.4948,0.00208881,0.0485773,21.001,122.032,0.0549369,0.0,0.0
1316,328.75,20.1009,21.2175,142.166,99.1384,98.3297,0.00207111,0.048539,21.0014,121.942,0.0688323,0.0,0.0
1323,330.5,20.325,20.6953,136.241,99.1332,98.4122,0.00199319,0.0483971,21.0016,121.972,0.061338,0.0,0.0
1330,332.25,20.2259,21.3122,141.799,99.122,98.3498,0.00184514,0.0481595,21.0017,121.952,0.0657237,0.0,0.0
1337,334,20.0499,21.3729,138.305,99.1424,98.5363,0.00166263,0.0478807,21.0017,121.822,0.0515314,0.0,0.0
1344,335.75,20.1108,20.642,139.622,99.156,98.4921,0.00159535,0.0476794,21.0018,121.862,0.0564545,0.0,0.0
1351,337.5,20.5423,21.0612,140.212,99.1416,98.5006,0.00162592,0.0474806,21.0018,121.852,0.0545089,0.0,0.0
1358,339.25,20.191,20.8162,140.335,99.1396,98.4787,0.00171235,0.0475291,21.0018,121.792,0.0562048,0.0,0.0
1365,341,20.0773,20.5493,139.981,99.1228,98.4944,0.00184885,0.047353,21.0022,121.812,0.0534458,0.0,0.0
1372,342.75,20.1067,21.049,140.613,99.1404,98.3529,0.0019754,0.0472622,21.0032,121.722,0.0670187,0.0,0.0
1379,344.5,20.2212,20.5612,137.894,99.1336,98.3712,0.00202755,0.0470959,21.0037,121.722,0.0648787,0.0,0.0
1386,346.25,19.765,20.8609,141.146,99.1304,98.2618,0.00197337,0.0470454,21.0039,121.732,0.0739529,0.0,0.0
1393,348,19.7419,21.5158,140.734,99.1364,98.34,0.00184265,0.0469506,21.0043,121.702,0.0677849,0.0,0.0
1400,349.75,19.9989,20.386,139.276,99.128,98.4961,0.00173149,0.0467967,21.0045,121.682,0.0537355,0.0,0.0
1407,351.5,20.1381,20.5843,142.115,99.1452,98.4582,0.00157878,0.0464729,21.0049,121.592,0.0584325,0.0,0.0
1414,353.25,20.031,20.6412,137.155,99.1436,98.5568,0.00139337,0.0461554,21.0052,121.552,0.0498824,0.0,0.0
1421,355,20.1193,20.7203,139.602,99.1256,98.5381,0.00121838,0.0458794,21.0048,121.532,0.0499531,0.0,0.0
1428,356.75,20.1877,20.3045,141.105,99.1344,98.5051,0.00108552,0.0457766,21.0043,121.502,0.0535175,0.0,0.0
1435,358.5,19.8304,20.3708,141.46,99.142,98.4613,0.00102238,0.0456785,21.0041,121.452,0.0578933,0.0,0.0
1442,360.25,20.1253,20.8325,140.865,99.1496,98.2976,0.00102135,0.0455576,21.0043,121.452,0.0725287,0.0,0.0
1449,362,19.9941,20.6012,141.483,99.1372,98.543,0.00105398,0.0453668,21.0053,121.502,0.0505187,0.0,0.0
1456,363.75,19.9327,21.3804,141.986,99.132,98.3324,0.00104984,0.0451259,21.0075,121.462,0.0680602,0.0,0.0
1463,365.5,19.8622,20.7926,139.604,99.1468,98.5662,0.00101371,0.0448971,21.0092,121.462,0.0493556,0.0,0.0
1470,367.25,20.1546,20.8329,142.095,99.136,98.5368,0.00100173,0.0447874,21.0098,121.422,0.0509499,0.0,0.0
1477,369,20.0469,20.7223,143.617,99.1308,98.3756,0.00100863,0.044676,21.0099,121.342,0.0642594,0.0,0.0
1484,370.75,20.1992,20.7531,139.572,99.1364,98.5309,0.000904528,0.0444252,21.0082,121.342,0.0514786,0.0,0.0
1491,372.5,20.1636,20.4595,141.277,99.1208,98.4015,0.000782697,0.0442729,21.0079,121.332,0.0611998,0.0,0.0
1498,374.25,20.3604,21.3298,140.807,99.13,98.4631,0.000745088,0.0442357,21.0085,121.322,0.0567232,0.0,0.0
1505,376,19.846,21.0358,140.864,99.1252,98.3533,0.000791032,0.044218,21.0088,121.352,0.0656908,0.0,0.0
1512,377.75,20.3051,20.595,144.114,99.1192,98.4778,0.000854804,0.044196,21.0077,121.231,0.0545497,0.0,0.0
1519,379.5,19.9411,20.9443,139.903,99.1155,98.5185,0.000884996,0.0441373,21.006,121.141,0.0507786,0.0,0.0
1526,381.25,19.8013,20.5361,139.947,99.1196,98.3208,0.000864578,0.044084,21.0052,121.121,0.0679986,0.0,0.0
1533,383,19.9909,21.1715,138.7,99.1212,98.3114,0.000859752,0.0441746,21.0048,121.191,0.0689356,0.0,0.0
1540,384.75,19.6055,20.9914,139.832,99.1119,98.3997,0.000902592,0.0441752,21.0055,121.091,0.060605,0.0,0.0
1547,386.5,19.6061,20.5459,137.295,99.1059,98.3489,0.000923824,0.044159,21.0062,121.081,0.0644413,0.0,0.0
1554,388.25,20.1624,20.6693,142.204,99.1131,98.3975,0.000916191,0.0441078,21.0065,121.081,0.0608974,0.0,0.0
1561,390,20.3388,21.0429,140.001,99.1019,98.3386,0.000852726,0.0439268,21.0058,121.101,0.0649791,0.0,0.0
1568,391.75,20.0355,20.45,141.999,99.1071,98.3614,0.000720698,0.0437966,21.0053,121.101,0.0634759,0.0,0.0
1575,393.5,19.6584,20.8287,138.491,99.0979,98.4515,0.000584596,0.0436525,21.0059,121.001,0.0549966,0.0,0.0
1582,395.25,19.6932,20.8241,138.645,99.1007,98.3404,0.000542569,0.0436123,21.0061,120.981,0.0647246,0.0,0.0
1589,397,19.4267,20.6062,140.209,99.0983,98.2984,0.000566399,0.043498,21.0063,120.961,0.0681059,0.0,0.0
1596,398.75,19.9419,20.6568,142.111,99.0907,98.2114,0.000583105,0.0432472,21.0063,120.941,0.0749031,0.0,0.0
1603,400.5,20.1046,21.5354,139.38,99.0939,98.3333,0.000535298,0.0431264,21.0064,120.911,0.0647574,0.0,0.0
1610,402.25,19.7776,20.3166,141.907,99.0871,98.2503,0.000456692,0.042931,21.0066,120.921,0.0712762,0.0,0.0
1617,404,20.1507,20.6318,144.236,99.0839,98.3364,0.000342864,0.0427848,21.0077,120.901,0.063641,0.0,0.0
1624,405.75,19.7318,20.2799,141.72,99.0795,98.4979,0.000215676,0.0428183,21.0082,120.901,0.0494731,0.0,0.0
1631,407.5,19.9254,20.8436,141.476,99.0803,98.2944,0.000128662,0.0427609,21.0095,120.791,0.0669213,0.0,0.0
1638,409.25,20.0291,20.8865,141.235,99.0727,98.4221,0.000149567,0.0424853,21.0105,120.781,0.0553708,0.0,0.0
1645,411,19.6294,20.51,142.7,99.0675,98.1882,0.000302886,0.0424755,21.011,120.761,0.074919,0.0,0.0
1652,412.75,19.4578,20.1533,144.98,99.0623,98.3498,0.000481569,0.0423739,21.0102,120.811,0.0606617,0.0,0.0
1659,414.5,19.9493,20.5459,136.198,99.0759,98.1976,0.000560422,0.0422562,21.0098,120.781,0.0748306,0.0,0.0
1666,416.25,19.6121,20.2695,138.953,99.0667,98.3386,0.000516118,0.0422253,21.0094,120.741,0.0619894,0.0,0.0
1673,418,19.7026,20.6028,139.514,99.0519,98.435,0.000426727,0.0422043,21.0092,120.771,0.0524991,0.0,0.0
1680,419.75,19.8809,20.7536,140.994,99.0715,98.3194,0.000324212,0.0421477,21.0094,120.741,0.0640367,0.0,0.0
1687,421.5,19.8792,20.4773,144.002,99.0635,98.3297,0.000240216,0.0421136,21.01,120.701,0.0624806,0.0,0.0
1694,423.25,19.844,20.6911,143.966,99.0535,98.2859,0.000177517,0.0420917,21.0095,120.691,0.0653688,0.0,0.0
1701,425,19.5754,20.6533,140.577,99.0471,98.2369,0.000177284,0.0421235,21.01,120.651,0.0690231,0.0,0.0
1708,426.75,20.0496,20.7979,140.606,99.0599,98.3788,0.000302787,0.0421128,21.0102,120.671,0.0579799,0.0,0.0
1715,428.5,20.1198,20.4249,146.404,99.0679,98.3748,0.000458052,0.0421724,21.0108,120.671,0.0590026,0.0,0.0
1722,430.25,19.9891,20.7859,139.732,99.0771,98.2556,0.000517673,0.0422283,21.0118,120.681,0.0699689,0.0,0.0
1729,432,19.6072,20.5348,141.421,99.0643,98.2967,0.000445194,0.0422764,21.0121,120.601,0.0653708,0.0,0.0
1736,433.75,19.6859,20.6134,143.463,99.0611,98.2284,0.000344297,0.042293,21.0112,120.601,0.0709385,0.0,0.0
1743,435.5,20.067,20.5193,141.776,99.0627,98.1543,0.000254716,0.042192,21.0108,120.581,0.0774148,0.0,0.0
1750,437.25,18.9476,20.5509,140.686,99.0723,98.3734,0.00021402,0.0422217,21.0107,120.581,0.059491,0.0,0.0
1757,439,20.1098,20.7609,136.965,99.0867,98.3288,0.000217692,0.0422905,21.0116,120.571,0.0645268,0.0,0.0
1764,440.75,19.5702,20.4705,145.329,99.0743,98.3533,0.000157082,0.0421855,21.0123,120.501,0.0613768,0.0,0.0
1771,442.5,20.4257,20.6412,139.838,99.0783,98.3734,5.33514e-05,0.0420039,21.0127,120.441,0.0600003,0.0,0.0
1778,444.25,20.5528,20.7045,141.329,99.0847,98.3864,2.85453e-05,0.0421241,21.0128,120.321,0.0594393,0.0,0.0
1785,446,19.7804,20.6412,138.844,99.0899,98.2578,0.000126772,0.0421547,21.0127,120.411,0.070865,0.0,0.0
1792,447.75,20.1217,20.7121,142.26,99.0795,98.1927,0.00023975,0.0420907,21.0116,120.441,0.0755564,0.0,0.0
1799,449.5,19.8827,20.8981,141.143,99.0839,98.2681,0.000282652,0.0421247,21.0111,120.421,0.0694781,0.0,0.0
1806,451.25,19.4857,20.3147,140.495,99.0983,98.4609,0.000229115,0.042147,21.0112,120.311,0.0542312,0.0,0.0
1813,453,19.5932,20.6057,140.683,99.0959,98.4113,9.73862e-05,0.0420144,21.0114,120.291,0.0582564,0.0,0.0
1820,454.75,19.7491,20.584,140.77,99.0951,98.3056,2.4987e-06,0.041877,21.0124,120.341,0.0672245,0.0,0.0
1827,456.5,19.9282,20.6825,140.009,99.0915,98.3127,-3.88939e-05,0.0417553,21.0132,120.341,0.0663071,0.0,0.0
1834,458.25,19.4527,20.1831,140.032,99.0883,98.4283,-2.6249e-05,0.0417703,21.0135,120.26,0.056162,0.0,0.0
1841,460,19.6212,20.1905,140.379,99.1119,98.4247,5.34275e-06,0.0419266,21.0137,120.291,0.0584713,0.0,0.0
1848,461.75,19.2566,20.7445,139.439,99.1115,98.3533,6.16887e-05,0.0419077,21.013,120.291,0.0645357,0.0,0.0
1855,463.5,19.3561,19.8861,143.439,99.1155,98.3993,9.85288e-05,0.0418837,21.0108,120.22,0.0609491,0.0,0.0
1862,465.25,19.2622,20.3176,138.934,99.0987,98.294,0.000112492,0.0419062,21.0098,120.17,0.0685213,0.0,0.0
1869,467,20.0097,20.9006,137.112,99.1139,98.3623,8.45545e-05,0.0417534,21.0093,120.23,0.063977,0.0,0.0
1876,468.75,19.8798,20.7571,140.369,99.1208,98.3899,4.23124e-05,0.0416883,21.009,120.2,0.0621903,0.0,0.0
1883,470.5,19.382,20.6042,139.696,99.1152,98.4069,5.47189e-05,0.0417191,21.0089,120.19,0.0602678,0.0,0.0
1890,472.25,19.6931,20.6797,141.902,99.1091,98.4149,0.00013531,0.0418787,21.0089,120.14,0.0590712,0.0,0.0
1897,474,19.8524,20.4763,140.476,99.1115,98.5256,0.000235804,0.0419157,21.0091,120.1,0.0498306,0.0,0.0
1904,475.75,19.529,20.4293,138.407,99.122,98.4207,0.000364919,0.0418232,21.0101,120.07,0.0596631,0.0,0.0
1911,477.5,20.0708,20.4761,141.124,99.122,98.41,0.000464415,0.0418504,21.0107,120.07,0.0605772,0.0,0.0
1918,479.25,19.6202,20.4233,139.35,99.1111,98.3453,0.000473078,0.0420356,21.0109,120.06,0.0651879,0.0,0.0
1925,481,20.3135,20.7248,140.992,99.1087,98.4542,0.000419069,0.0420895,21.0099,120.01,0.0556853,0.0,0.0
1932,482.75,20.0133,20.8056,143.51,99.1212,98.335,0.000327576,0.0420106,21.0095,120.02,0.0669144,0.0,0.0
1939,484.5,19.3135,20.6557,139.3,99.1119,98.4819,0.000280767,0.0418919,21.0104,120.07,0.0535952,0.0,0.0
1946,486.25,19.8194,20.5541,140.801,99.1051,98.4653,0.000269087,0.0417992,21.0112,119.97,0.0544273,0.0,0.0
1953,488,19.6481,20.4983,141.769,99.0983,98.3761,0.000236834,0.0417448,21.0116,119.91,0.0614713,0.0,0.0
1960,489.75,20.087,20.5105,143.787,99.1067,98.352,0.000110842,0.0417904,21.013,119.92,0.0642425,0.0,0.0
1967,491.5,19.4951,20.3727,137.571,99.0963,98.385,-6.9509e-05,0.0417506,21.0137,119.89,0.0605384,0.0,0.0
1974,493.25,19.9203,20.5063,143.13,99.1035,98.4216,-0.000198618,0.0417702,21.0138,119.87,0.0580246,0.0,0.0
1981,495,19.8983,20.5905,142.273,99.0915,98.3957,-0.000202479,0.0418397,21.0134,119.88,0.0592154,0.0,0.0
1988,496.75,19.8208,20.1973,141.731,99.0939,98.3881,-0.000121662,0.041864,21.013,119.77,0.0600669,0.0,0.0
1995,498.5,19.8075,20.4177,142.908,99.0915,98.3899,-4.03136e-05,0.0418952,21.0132,119.79,0.0597108,0.0,0.0
2002,500.25,19.9825,20.2755,138.632,99.0819,98.3699,6.20833e-05,0.041928,21.0125,119.82,0.060611,0.0,0.0
2009,502,19.1627,20.7524,143.234,99.0755,98.2418,0.000107677,0.0419841,21.0118,119.71,0.071017,0.0,0.0
2016,503.75,19.9456,20.5255,140.796,99.0627,98.3056,0.000110618,0.0419734,21.0114,119.74,0.0644721,0.0,0.0
2023,505.5,19.7428,20.6794,138.934,99.0691,98.2212,0.000122763,0.0418586,21.0113,119.76,0.0722288,0.0,0.0
2030,507.25,19.2282,19.9648,140.538,99.0591,98.3466,0.000140803,0.0417427,21.0108,119.75,0.0606567,0.0,0.0
2037,509,19.4858,20.7808,139.7,99.0475,98.3895,0.000116633,0.0416807,21.0102,119.78,0.0560117,0.0,0.0
2044,510.75,19.6854,20.3094,138.252,99.0438,98.2855,6.66403e-05,0.0416591,21.0099,119.74,0.0645914,0.0,0.0
2051,512.5,19.5716,20.3687,138.801,99.0459,98.2355,3.8925e-05,0.041668,21.0098,119.68,0.069037,0.0,0.0
2058,514.25,19.6522,19.962,143.304,99.035,98.377,7.74608e-05,0.0416171,21.0098,119.67,0.0560256,0.0,0.0
2065,516,19.4648,20.4563,142.381,99.0226,98.4725,0.000166293,0.0416479,21.0097,119.7,0.0468175,0.0,0.0
2072,517.75,19.5413,20.4053,144.784,99.015,98.236,0.000261539,0.0416293,21.0097,119.71,0.0663806,0.0,0.0
2079,519.5,19.4263,20.5165,140.229,99.0114,98.3623,0.000365332,0.0416345,21.0097,119.62,0.0552783,0.0,0.0
2086,521.25,19.6052,20.4843,142.001,99.0062,98.1739,0.000438706,0.0416801,21.0099,119.61,0.0709415,0.0,0.0
2093,523,19.2108,20.2237,141.074,99.009,98.2788,0.000490369,0.0417701,21.011,119.63,0.0622072,0.0,0.0
2100,524.75,19.7541,20.7362,141.466,98.9958,98.3114,0.000479909,0.0417465,21.0115,119.6,0.0582992,0.0,0.0
2107,526.5,19.599,20.5828,138.545,98.9834,98.3292,0.000384137,0.0417521,21.0118,119.47,0.0557191,0.0,0.0
2114,528.25,19.5068,20.518,140.383,98.9778,98.215,0.000234862,0.0417574,21.0119,119.47,0.0650129,0.0,0.0
2121,530,19.679,20.0813,140.028,98.9822,98.4154,0.000184565,0.0418805,21.0116,119.47,0.04826,0.0,0.0
2128,531.75,19.6439,20.8416,141.895,98.9677,98.1891,0.00022392,0.0419107,21.0108,119.42,0.0663777,0.0,0.0
2135,533.5,19.6981,20.6409,142.379,98.9561,98.2503,0.000232826,0.0419739,21.0096,119.43,0.0601594,0.0,0.0
2142,535.25,19.7217,20.933,136.786,98.9581,98.2342,0.000237568,0.0420481,21.0089,119.46,0.061705,0.0,0.0
2149,537,19.3548,20.615,138.495,98.9597,98.2864,0.000282534,0.0420449,21.0088,119.45,0.0573749,0.0,0.0
2156,538.75,19.601,20.4012,139.535,98.9541,98.2864,0.000382044,0.0419758,21.0093,119.47,0.0568983,0.0,0.0
2163,540.5,19.6186,20.6889,139.357,98.9397,98.244,0.00042627,0.0419115,21.0097,119.41,0.0593,0.0,0.0
2170,542.25,19.7859,20.818,142.403,98.9257,98.107,0.000374774,0.0419668,21.0099,119.27,0.0698358,0.0,0.0
2177,544,19.5497,20.3832,140.507,98.9349,98.2168,0.00021658,0.0420186,21.01,119.34,0.0612206,0.0,0.0
2184,545.75,19.7447,20.2092,142.682,98.9149,98.0869,4.49639e-05,0.0420077,21.0092,119.35,0.0706385,0.0,0.0
2191,547.5,19.9756,21.035,141.688,98.9077,98.0584,-6.21236e-05,0.0420382,21.0082,119.32,0.0724731,0.0,0.0
2198,549.25,19.9334,20.483,140.522,98.8916,98.2998,-8.74695e-05,0.0420283,21.0068,119.29,0.050446,0.0,0.0
2205,551,19.4497,20.52,143.12,98.8968,98.1324,-9.46118e-05,0.0419038,21.0061,119.28,0.0652068,0.0,0.0
2212,552.75,19.3778,20.5561,143.124,98.8828,98.1646,-0.000100609,0.0418763,21.0067,119.249,0.0612644,0.0,0.0
2219,554.5,19.4143,20.2374,142.877,98.872,98.0459,-7.56783e-05,0.0419382,21.0079,119.239,0.0705143,0.0,0.0
2226,556.25,19.8111,20.2742,137.688,98.8676,98.2703,-4.76558e-05,0.0418936,21.0085,119.259,0.050921,0.0,0.0
2233,558,19.6111,20.7087,138.99,98.8464,98.2012,-3.72011e-05,0.0419596,21.0088,119.259,0.0550344,0.0,0.0
2240,559.75,19.368,20.1865,137.478,98.8528,98.1811,-2.58248e-05,0.0419188,21.0083,119.219,0.0572983,0.0,0.0
2247,561.5,19.6432,20.1337,142.213,98.844,98.165,-1.59552e-05,0.041919,21.0075,119.27,0.0579242,0.0,0.0
2254,563.25,19.3733,20.5455,140.361,98.844,98.2802,1.39687e-05,0.0419572,21.0083,119.189,0.0480727,0.0,0.0
2261,565,19.8041,20.5024,139.468,98.8227,98.1668,3.3419e-05,0.0420272,21.0087,119.129,0.0559659,0.0,0.0
2268,566.75,19.2202,20.1784,139.54,98.8187,98.0668,6.347e-05,0.0420075,21.0089,119.149,0.0641868,0.0,0.0
2275,568.5,19.7984,20.6076,140.786,98.8211,98.1797,0.000126032,0.0419736,21.009,119.129,0.0547219,0.0,0.0
2282,570.25,19.6132,20.2463,139.71,98.8091,98.061,0.000263159,0.0419847,21.009,119.059,0.0638667,0.0,0.0
2289,572,19.7193,20.1475,140.326,98.7991,98.1307,0.000437636,0.0419092,21.009,119.069,0.0570506,0.0,0.0
2296,573.75,19.4136,20.188,140.883,98.7995,98.0517,0.000556642,0.0418788,21.009,119.089,0.0638518,0.0,0.0
2303,575.5,19.7549,19.9492,140.332,98.8019,98.0387,0.000549033,0.0418905,21.0089,119.069,0.065166,0.0,0.0
2310,577.25,19.3907,20.3959,137.301,98.7935,98.0271,0.000415375,0.0419041,21.0086,119.069,0.0654453,0.0,0.0
2317,579,19.8005,20.432,141.172,98.7859,98.0512,0.000285415,0.0418406,21.0089,119.069,0.0627322,0.0,0.0
2324,580.75,19.6887,20.4402,141.531,98.7931,98.128,0.000165914,0.0418705,21.0099,119.019,0.056769,0.0,0.0
2331,582.5,19.5304,20.2516,143.304,98.7843,98.153,9.71185e-05,0.0418997,21.0103,119.009,0.0538798,0.0,0.0
2338,584.25,19.4444,19.7558,144.087,98.7771,98.1414,4.94464e-05,0.041854,21.0105,118.979,0.0542601,0.0,0.0
2345,586,19.2188,20.4094,145.816,98.8235,98.1954,4.22801e-05,0.0417926,21.0106,118.949,0.0535892,0.0,0.0
2352,587.75,19.6801,20.2146,142.214,98.8676,98.2708,2.99771e-05,0.0418742,21.01,118.899,0.0508832,0.0,0.0
2359,589.5,19.7139,20.64,141.622,98.9029,98.2168,-1.08037e-05,0.0419565,21.0092,118.889,0.0584982,0.0,0.0
2366,591.25,19.6176,19.8211,137.073,98.9365,98.1601,1.50057e-05,0.0419661,21.0088,118.889,0.0662077,0.0,0.0
2373,593,19.5562,20.0361,142.134,98.9745,98.2842,0.000145136,0.0419745,21.0086,118.909,0.0588245,0.0,0.0
2380,594.75,19.5297,20.0369,143.379,99.0006,98.2561,0.000234787,0.042002,21.0085,118.939,0.0634391,0.0,0.0
2387,596.5,19.0884,20.0315,141.112,99.0214,98.2717,0.000264123,0.0419612,21.0084,118.839,0.0638716,0.0,0.0
2394,598.25,19.3007,20.2771,139.462,99.0511,98.2877,0.000272392,0.0418674,21.0087,118.819,0.0650119,0.0,0.0
2401,600,19.5784,20.6153,143.265,99.0835,98.5051,0.000272354,0.0418612,21.0099,118.849,0.0492032,0.0,0.0
2408,601.75,18.106,19.8027,140.045,99.0963,98.3716,0.00024238,0.0419673,21.0105,118.859,0.0616811,0.0,0.0
2415,603.5,19.1765,20.0556,139.877,99.1055,98.4707,0.000222558,0.0418757,21.0107,118.919,0.0540043,0.0,0.0
2422,605.25,18.9539,19.3411,144.549,99.1131,98.3297,0.000229392,0.041702,21.0109,118.709,0.0666927,0.0,0.0
2429,607,19.4303,19.6535,142.076,99.1168,98.3672,0.000209668,0.0417199,21.0109,118.729,0.0637951,0.0,0.0
2436,608.75,19.3209,19.5745,139.958,99.1296,98.4256,0.000218425,0.0417812,21.011,118.649,0.0598889,0.0,0.0
2443,610.5,19.1121,19.8485,140.722,99.1372,98.5787,0.000209395,0.0418763,21.011,118.669,0.047475,0.0,0.0
2450,612.25,19.181,19.9719,144.11,99.1476,98.5109,0.000104564,0.0419278,21.011,118.689,0.0541426,0.0,0.0
2457,614,18.8584,20.2568,138.885,99.1644,98.3248,2.28133e-05,0.0419021,21.0122,118.689,0.071459,0.0,0.0
2464,615.75,19.2123,19.9061,141.907,99.1832,98.4372,-7.09303e-06,0.0418694,21.0116,118.619,0.0634471,0.0,0.0
2471,617.5,19.0834,20.2175,141.143,99.1816,98.4903,5.02012e-05,0.041912,21.0113,118.679,0.0587787,0.0,0.0
2478,619.25,18.8667,20.1968,143.711,99.1852,98.3408,0.000229606,0.0419924,21.0111,118.639,0.0718504,0.0,0.0
2485,621,19.166,19.9191,139.422,99.2053,98.4877,0.000416214,0.0419575,21.0111,118.609,0.0610098,0.0,0.0
2492,622.75,19.3487,19.8148,140.941,99.2065,98.4859,0.000425266,0.041815,21.0098,118.659,0.0612634,0.0,0.0
2499,624.5,19.0593,19.9172,143.801,99.2073,98.555,0.000282061,0.0416963,21.0086,118.609,0.0554315,0.0,0.0
2506,626.25,19.2405,19.7218,138.434,99.2025,98.4176,0.000118091,0.0416214,21.0088,118.589,0.0667534,0.0,0.0
2513,628,19.2295,19.7867,141.961,99.2133,98.547,3.55085e-05,0.0416307,21.0093,118.619,0.0566257,0.0,0.0
2520,629.75,19.2545,19.962,140.298,99.2065,98.535,4.41009e-05,0.0416351,21.0086,118.589,0.0570764,0.0,0.0
2527,631.5,19.493,20.082,137.846,99.1832,98.3123,0.000131729,0.0417129,21.0075,118.509,0.0741217,0.0,0.0
2534,633.25,18.9672,20.2987,140.672,99.1728,98.6849,0.000343979,0.0418441,21.0071,118.509,0.0414471,0.0,0.0
2541,635,19.6399,19.5958,139.628,99.174,98.3346,0.000510147,0.0418316,21.0066,118.449,0.0714342,0.0,0.0
2548,636.75,19.0483,19.9684,140.715,99.1997,98.3774,0.000592882,0.0417746,21.0058,118.449,0.0699461,0.0,0.0
2555,638.5,19.4094,19.9924,139.577,99.1704,98.4537,0.000618356,0.0417908,21.0054,118.399,0.0609521,0.0,0.0
2562,640.25,18.7552,19.6161,136.264,99.18,98.3221,0.000581407,0.0416881,21.0055,118.339,0.0730104,0.0,0.0
2569,642,18.6445,20.2799,142.435,99.1576,98.614,0.000493783,0.0417337,21.0065,118.329,0.0462018,0.0,0.0
2576,643.75,19.2037,19.8596,143.896,99.1636,98.5153,0.000461775,0.0418591,21.007,118.289,0.05512,0.0,0.0
2583,645.5,19.1511,19.8754,143.583,99.1424,98.3507,0.000482028,0.0419064,21.0076,118.499,0.0673795,0.0,0.0
2590,647.25,19.3354,19.7499,141.087,99.1332,98.5466,0.000515481,0.0418412,21.0094,118.429,0.0498744,0.0,0.0
2597,649,18.6897,20.1945,140.403,99.1228,98.4426,0.000541123,0.0418243,21.0094,118.349,0.0578635,0.0,0.0
2604,650.75,19.2225,19.5718,140.52,99.1296,98.5484,0.000525583,0.0418517,21.0104,118.349,0.0494173,0.0,0.0
2611,652.5,18.9233,19.8359,141.273,99.1376,98.4279,0.00043045,0.0417405,21.0104,118.319,0.0603773,0.0,0.0
2618,654.25,19.1612,19.7974,141.913,99.1188,98.5376,0.000189893,0.0417001,21.0111,118.369,0.0494133,0.0,0.0
2625,656,19.1271,19.7847,141.534,99.1063,98.385,4.48594e-06,0.0417175,21.0107,118.268,0.0613877,0.0,0.0
2632,657.75,19.1825,19.8779,141.108,99.0999,98.4796,2.19697e-05,0.041722,21.0101,118.228,0.0527669,0.0,0.0
2639,659.5,19.2884,19.8198,141.562,99.0987,98.4069,0.000154568,0.0418411,21.0098,118.309,0.0588742,0.0,0.0
2646,661.25,19.3451,19.4529,139.168,99.1003,98.4417,0.000299177,0.0418592,21.0097,118.299,0.0560386,0.0,0.0
2653,663,18.4174,19.5036,139,99.1087,98.3453,0.000393466,0.0418451,21.0096,118.228,0.0649841,0.0,0.0
2660,664.75,19.0689,20.0255,140.013,99.1031,98.418,0.000451962,0.0418718,21.0096,118.299,0.0582952,0.0,0.0
2667,666.5,19.3544,19.3863,142.811,99.1228,98.4952,0.000435458,0.0419672,21.0105,118.238,0.0533702,0.0,0.0
2674,668.25,18.9696,19.8307,138.687,99.1408,98.4533,0.00031613,0.0419822,21.0108,118.279,0.0584773,0.0,0.0
2681,670,18.8997,19.6529,142.621,99.1516,98.4149,8.36125e-05,0.0419538,21.01,118.148,0.0626705,0.0,0.0
2688,671.75,18.4891,19.9561,142.79,99.16,98.5064,-0.000165363,0.0419266,21.0098,118.228,0.0555758,0.0,0.0
2695,673.5,19.2351,19.5358,141.693,99.1648,98.3797,-0.000287512,0.0418411,21.0095,118.168,0.0668021,0.0,0.0
2702,675.25,18.8337,19.2695,137.147,99.1852,98.4631,-0.000253682,0.0416851,21.0093,118.168,0.0614086,0.0,0.0
2709,677,18.9076,19.3859,144.388,99.2097,98.4944,-0.000191153,0.0416641,21.0092,118.108,0.0608119,0.0,0.0
2716,678.75,19.0492,19.7947,142.302,99.2205,98.6028,-0.00014708,0.0417253,21.0092,118.188,0.0524812,0.0,0.0
2723,680.5,19.0795,19.8401,142.344,99.2205,98.5675,-8.31187e-05,0.0418213,21.0082,118.118,0.0554863,0.0,0.0
2730,682.25,19.1194,19.6297,140.072,99.2461,98.4997,3.85897e-05,0.0418362,21.0075,118.098,0.0634421,0.0,0.0
2737,684,19.3156,19.4113,140.412,99.2509,98.5015,0.000194213,0.0418368,21.0071,118.058,0.0636967,0.0,0.0
2744,685.75,19.0939,19.9715,140.535,99.2642,98.4653,0.000287075,0.0418451,21.007,118.058,0.0679012,0.0,0.0
2751,687.5,19.1276,19.8306,141.53,99.2578,98.5292,0.00031184,0.0418895,21.0069,118.038,0.0619138,0.0,0.0
2758,689.25,19.133,19.4595,140.009,99.2541,98.5301,0.000336611,0.0418956,21.0069,118.048,0.0615319,0.0,0.0
2765,691,19.0103,20.0261,143.733,99.2586,98.5457,0.000329703,0.0418867,21.0068,117.908,0.0605732,0.0,0.0
2772,692.75,19.2565,19.5299,140.851,99.2622,98.5015,0.000296023,0.0419352,21.0076,117.888,0.0646461,0.0,0.0
2779,694.5,19.023,19.89,140.909,99.2477,98.4113,0.000259064,0.0419855,21.008,117.948,0.0711203,0.0,0.0
2786,696.25,19.2837,19.8439,142.956,99.2365,98.5506,0.000171167,0.0419398,21.0082,117.978,0.0582893,0.0,0.0
2793,698,18.8702,19.9424,139.487,99.2465,98.4252,9.68126e-05,0.0419677,21.0083,117.948,0.0698368,0.0,0.0
2800,699.75,18.99,19.9466,139.758,99.2553,98.4854,7.88056e-05,0.0419612,21.0083,118.008,0.0654414,0.0,0.0
2807,701.5,19.0319,19.7639,142.302,99.2589,98.6162,0.00019377,0.0419181,21.0083,117.898,0.0545965,0.0,0.0
2814,703.25,19.2277,19.5647,142.761,99.2397,98.5582,0.000317845,0.0418966,21.0083,117.958,0.0579142,0.0,0.0
2821,705,18.8968,20.2663,140.623,99.2453,98.4814,0.000332834,0.0419666,21.0083,117.938,0.0649354,0.0,0.0
2828,706.75,18.5245,19.9702,141.413,99.2457,98.5243,0.000253639,0.0419569,21.0083,117.918,0.0613141,0.0,0.0
2835,708.5,19.2688,19.744,137.158,99.2325,98.3895,0.000171372,0.0419396,21.0083,117.898,0.0716984,0.0,0.0
2842,710.25,19.1393,19.6329,140.993,99.2173,98.4511,,0.0420188,,117.868,0.0651511,0.0,0.0
2849,712,18.8147,20.1509,138.117,99.2005,98.4426,,0.0418932,,117.798,0.0644493,0.0,0.0
2856,713.75,19.0731,20.1071,142.675,99.1929,98.4011,,,,117.808,0.0673487,0.0,0.0
2863,715.5,18.8245,19.066,141.74,99.1897,98.489,,,,117.778,0.0595726,0.0,0.0
2870,717.25,19.2981,19.6018,142.913,99.1788,98.56,,,,117.818,0.0526046,0.0,0.0
2877,719,19.098,19.6994,139.784,99.1644,98.4627,,,,117.708,0.059681,0.0,0.0
2882,720.25,19.2722,19.4803,144.45,99.172,98.4944,,,,117.738,0.0576217,0.0,0.0