File: 01_Data/Pressure_Treated_Deck/STA/N2/10K_min/Pressure_Treated_Deck_STA_N2_10KData_211706_R1.csv
##Temp./Â°C,Time/min,Mass loss(subtr.2)/mg,DSC(subtr.2)/mW,Sensit./(uV/mW)
49.387,10.01,-0.00801,-0.03207959,0.61835
49.987,11.40075,-0.007461571,0.03216921,0.61867
50.587,11.74284,-0.007107655,0.09379139,0.61899
51.187,11.98573,-0.007889295,0.11202,0.6193
51.787,12.18515,-0.00580919,0.14658,0.61962
52.387,12.35877,-0.009449279,0.18377,0.61993
52.987,12.515,-0.00661959,0.21883,0.62025
53.587,12.65879,-0.008140849,0.24234,0.62056
54.187,12.7925,-0.00806135,0.25764,0.62087
54.787,12.9208,-0.008527677,0.28302,0.62118
55.387,13.04304,-0.007171178,0.3032,0.62148
55.987,13.16025,-0.008886037,0.31909,0.62179
56.587,13.2727,0.000241142,0.33265,0.6221
57.187,13.38251,-0.005429097,0.34124,0.6224
57.787,13.4897,-0.009541218,0.3407,0.6227
58.387,13.59394,-0.0155681,0.35926,0.623
58.987,13.69406,-0.008664348,0.37434,0.62331
59.587,13.7939,-0.009956359,0.39018,0.6236
60.187,13.89279,-0.007322705,0.40144,0.6239
60.787,13.98815,-0.00944623,0.40856,0.6242
61.387,14.0824,-0.01120644,0.42695,0.62449
61.987,14.17484,-0.009047859,0.44036,0.62479
62.587,14.2664,-0.01046048,0.46091,0.62508
63.187,14.35573,-0.01033796,0.46487,0.62537
63.787,14.44435,-0.01043149,0.47935,0.62566
64.387,14.5319,-0.01172796,0.49944,0.62595
64.987,14.6191,-0.01307641,0.51046,0.62624
65.587,14.70485,-0.00958727,0.51071,0.62653
66.187,14.78885,-0.01201664,0.51821,0.62681
66.787,14.87199,-0.01205961,0.53887,0.6271
67.387,14.9544,-0.01201285,0.5626,0.62738
67.987,15.0358,-0.01291325,0.56853,0.62766
68.587,15.1167,-0.01326524,0.57221,0.62794
69.187,15.1968,-0.01195065,0.59143,0.62822
69.787,15.27612,-0.01298295,0.59321,0.6285
70.387,15.3544,-0.01337553,0.6087,0.62877
70.987,15.4322,-0.01470213,0.61387,0.62905
71.587,15.50927,-0.01338978,0.63055,0.62932
72.187,15.5853,-0.01334593,0.63563,0.62959
72.787,15.66135,-0.01470035,0.64644,0.62987
73.387,15.73674,-0.01600278,0.64938,0.63014
73.987,15.81207,-0.01715703,0.67185,0.6304
74.587,15.8866,-0.01557614,0.6756,0.63067
75.187,15.96001,-0.01217208,0.69288,0.63094
75.787,16.0331,-0.02079725,0.70483,0.6312
76.387,16.10594,-0.0172903,0.70394,0.63147
76.987,16.17849,-0.01831888,0.71023,0.63173
77.587,16.25018,-0.01843005,0.71836,0.63199
78.187,16.321,-0.01843002,0.72733,0.63225
78.787,16.3916,-0.0184348,0.73665,0.63251
79.387,16.46164,-0.02073503,0.73684,0.63277
79.987,16.53145,-0.02026809,0.74908,0.63302
80.587,16.59993,-0.02006657,0.7505,0.63328
81.187,16.66913,-0.02015831,0.75966,0.63353
81.787,16.73794,-0.02072943,0.77549,0.63379
82.387,16.80719,-0.02072975,0.77512,0.63404
82.987,16.87491,-0.02209868,0.77485,0.63429
83.587,16.9421,-0.0234156,0.77917,0.63453
84.187,17.00916,-0.02136605,0.78434,0.63478
84.787,17.07613,-0.02073043,0.77827,0.63503
85.387,17.14311,-0.02548947,0.78811,0.63527
85.987,17.20948,-0.02467984,0.78732,0.63552
86.587,17.2753,-0.02360263,0.78754,0.63576
87.187,17.341,-0.02468325,0.78818,0.636
87.787,17.40635,-0.02368007,0.78553,0.63624
88.387,17.47176,-0.02336876,0.80218,0.63648
88.987,17.53625,-0.02466237,0.78607,0.63672
89.587,17.60052,-0.02600014,0.78701,0.63695
90.187,17.6647,-0.026,0.80154,0.63719
90.787,17.72861,-0.02599135,0.78903,0.63742
91.387,17.79255,-0.02583894,0.78458,0.63765
91.987,17.85576,-0.02719989,0.78561,0.63788
92.587,17.91863,-0.0272,0.79408,0.63811
93.187,17.98139,-0.02720004,0.78248,0.63834
93.787,18.0439,-0.02865878,0.77806,0.63857
94.387,18.10621,-0.02711659,0.76976,0.63879
94.987,18.16854,-0.02936844,0.78163,0.63902
95.587,18.2306,-0.02854032,0.77446,0.63924
96.187,18.2927,-0.03005343,0.76257,0.63946
96.787,18.35465,-0.02973797,0.76863,0.63968
97.387,18.41639,-0.0294497,0.76205,0.6399
97.987,18.47816,-0.03001432,0.76468,0.64012
98.587,18.53943,-0.02951,0.75624,0.64034
99.187,18.6004,-0.02951,0.77032,0.64056
99.787,18.66108,-0.0295145,0.74507,0.64077
100.387,18.72175,-0.03082037,0.74,0.64098
100.987,18.78245,-0.03082001,0.74554,0.64119
101.587,18.84274,-0.03084157,0.7396,0.64141
102.187,18.9032,-0.03212943,0.7359,0.64162
102.787,18.9634,-0.03213002,0.74162,0.64182
103.387,19.02372,-0.03220238,0.73343,0.64203
103.987,19.08374,-0.03082024,0.7381,0.64224
104.587,19.1438,-0.03223658,0.73207,0.64244
105.187,19.20355,-0.03214004,0.72976,0.64264
105.787,19.26334,-0.03214009,0.74081,0.64284
106.387,19.32299,-0.03355301,0.72622,0.64305
106.987,19.38257,-0.03213387,0.72609,0.64324
107.587,19.4422,-0.0312975,0.72563,0.64344
108.187,19.5019,-0.03112832,0.72939,0.64364
108.787,19.56113,-0.03081952,0.72444,0.64384
109.387,19.62043,-0.03213977,0.70723,0.64403
109.987,19.6794,-0.03214874,0.71654,0.64422
110.587,19.7383,-0.03345013,0.70966,0.64441
111.187,19.7974,-0.03214436,0.71503,0.6446
111.787,19.85611,-0.03279439,0.72194,0.64479
112.387,19.91512,-0.03213838,0.70981,0.64498
112.987,19.97407,-0.03214,0.71936,0.64517
113.587,20.03244,-0.03213998,0.71712,0.64535
114.187,20.09102,-0.03212215,0.71402,0.64554
114.787,20.14949,-0.03345004,0.71101,0.64572
115.387,20.20799,-0.03344966,0.7133,0.6459
115.987,20.26657,-0.03470259,0.7127,0.64608
116.587,20.3249,-0.03802318,0.70551,0.64626
117.187,20.3829,-0.04110555,0.69731,0.64644
117.787,20.44116,-0.04025848,0.69747,0.64662
118.387,20.49934,-0.04157419,0.70078,0.64679
118.987,20.55762,-0.03708021,0.7116,0.64697
119.587,20.61576,-0.03541609,0.70146,0.64714
120.187,20.67362,-0.03410626,0.70153,0.64731
120.787,20.73133,-0.03411,0.70738,0.64748
121.387,20.78886,-0.03411,0.70555,0.64765
121.987,20.84637,-0.03411,0.70458,0.64782
122.587,20.90379,-0.03411,0.68539,0.64798
123.187,20.96133,-0.0341103,0.69287,0.64815
123.787,21.01879,-0.0331166,0.69192,0.64831
124.387,21.07591,-0.03237103,0.69583,0.64848
124.987,21.133,-0.03213553,0.70862,0.64864
125.587,21.19003,-0.03246753,0.71614,0.6488
126.187,21.24706,-0.03318745,0.72313,0.64896
126.787,21.30401,-0.03323997,0.72173,0.64911
127.387,21.36092,-0.03323888,0.71886,0.64927
127.987,21.41776,-0.03454738,0.71412,0.64943
128.587,21.47433,-0.03586184,0.72488,0.64958
129.187,21.5308,-0.0332162,0.72641,0.64973
129.787,21.58736,-0.03466163,0.72401,0.64988
130.387,21.6438,-0.03603143,0.72625,0.65003
130.987,21.7009,-0.03567222,0.73687,0.65018
131.587,21.7573,-0.0359735,0.72599,0.65033
132.187,21.81353,-0.03574685,0.73642,0.65048
132.787,21.86982,-0.03335017,0.73653,0.65062
133.387,21.92587,-0.03466598,0.75407,0.65077
133.987,21.98193,-0.0346607,0.74887,0.65091
134.587,22.03802,-0.03596749,0.75136,0.65105
135.187,22.09406,-0.03597999,0.7639,0.65119
135.787,22.1499,-0.03598,0.75671,0.65133
136.387,22.20571,-0.03598371,0.75829,0.65147
136.987,22.26145,-0.03466918,0.76216,0.65161
137.587,22.31711,-0.03456716,0.76119,0.65174
138.187,22.37285,-0.03597192,0.75568,0.65187
138.787,22.42843,-0.03465867,0.77148,0.65201
139.387,22.48406,-0.03726221,0.78477,0.65214
139.987,22.5395,-0.03729194,0.78503,0.65227
140.587,22.5947,-0.03597185,0.7845,0.6524
141.187,22.65016,-0.0359751,0.79158,0.65253
141.787,22.70533,-0.03679458,0.78894,0.65265
142.387,22.7607,-0.03597999,0.78424,0.65278
142.987,22.81602,-0.03597999,0.78365,0.6529
143.587,22.87098,-0.03597544,0.7857,0.65303
144.187,22.9259,-0.03468751,0.77697,0.65315
144.787,22.98077,-0.03598027,0.77219,0.65327
145.387,23.0356,-0.03457646,0.78214,0.65339
145.987,23.09049,-0.03536125,0.77751,0.6535
146.587,23.14544,-0.03598206,0.78162,0.65362
147.187,23.19993,-0.0372897,0.77845,0.65374
147.787,23.2548,-0.03729012,0.80417,0.65385
148.387,23.30956,-0.03858182,0.78872,0.65396
148.987,23.3642,-0.03999764,0.7864,0.65408
149.587,23.4191,-0.03860992,0.79368,0.65419
150.187,23.47364,-0.03861,0.79736,0.6543
150.787,23.52825,-0.03860929,0.8002,0.6544
151.387,23.5822,-0.03724726,0.79027,0.65451
151.987,23.6369,-0.0372938,0.79699,0.65462
152.587,23.69142,-0.03736122,0.79712,0.65472
153.187,23.7459,-0.03728988,0.81374,0.65482
153.787,23.80097,-0.03728991,0.79964,0.65493
154.387,23.85541,-0.03779882,0.80411,0.65503
154.987,23.90987,-0.03861,0.80936,0.65513
155.587,23.9645,-0.03861,0.80153,0.65522
156.187,24.01902,-0.03860907,0.82011,0.65532
156.787,24.07366,-0.03729299,0.81188,0.65542
157.387,24.12821,-0.03730001,0.81563,0.65551
157.987,24.18264,-0.0373,0.82585,0.65561
158.587,24.23699,-0.0373,0.8298,0.6557
159.187,24.29126,-0.03729915,0.82091,0.65579
159.787,24.34554,-0.03865427,0.82126,0.65588
160.387,24.39967,-0.03731046,0.82933,0.65597
160.987,24.45401,-0.03749321,0.8176,0.65605
161.587,24.5084,-0.0386097,0.83082,0.65614
162.187,24.56257,-0.03860993,0.8351,0.65623
162.787,24.61683,-0.03870561,0.8374,0.65631
163.387,24.67107,-0.03771746,0.82439,0.65639
163.987,24.7253,-0.03888216,0.82788,0.65647
164.587,24.77919,-0.04003288,0.84272,0.65655
165.187,24.83342,-0.03904884,0.84993,0.65663
165.787,24.8876,-0.03904956,0.84188,0.65671
166.387,24.94174,-0.04015391,0.84631,0.65679
166.987,24.99624,-0.04036004,0.85491,0.65686
167.587,25.05044,-0.04036195,0.86039,0.65694
168.187,25.10461,-0.04165481,0.86201,0.65701
168.787,25.15883,-0.04035671,0.86394,0.65708
169.387,25.213,-0.0403837,0.86281,0.65715
169.987,25.26732,-0.03962935,0.86194,0.65722
170.587,25.3215,-0.04035867,0.8702,0.65729
171.187,25.3758,-0.04067944,0.86639,0.65735
171.787,25.4299,-0.04167962,0.85881,0.65742
172.387,25.48394,-0.04235054,0.8647,0.65749
172.987,25.538,-0.04303914,0.87426,0.65755
173.587,25.59202,-0.0416808,0.87424,0.65761
174.187,25.6462,-0.04169918,0.86866,0.65767
174.787,25.70022,-0.04233983,0.87589,0.65773
175.387,25.75444,-0.04234005,0.87415,0.65779
175.987,25.80861,-0.04231232,0.87121,0.65785
176.587,25.86271,-0.04234184,0.87777,0.6579
177.187,25.9165,-0.04361758,0.87792,0.65796
177.787,25.9705,-0.04365012,0.88254,0.65801
178.387,26.02443,-0.04325997,0.88017,0.65806
178.987,26.07829,-0.04447988,0.89283,0.65812
179.587,26.13234,-0.04497007,0.88847,0.65817
180.187,26.18611,-0.04483336,0.90563,0.65822
180.787,26.23967,-0.04398006,0.90405,0.65826
181.387,26.2935,-0.0446614,0.91427,0.65831
181.987,26.3472,-0.04530027,0.90347,0.65836
182.587,26.40111,-0.04529994,0.91474,0.6584
183.187,26.4551,-0.04557061,0.92096,0.65844
183.787,26.5088,-0.04660979,0.91678,0.65848
184.387,26.5625,-0.04661,0.93063,0.65853
184.987,26.6161,-0.04661,0.93839,0.65857
185.587,26.6698,-0.04661,0.93956,0.6586
186.187,26.72353,-0.04661,0.93694,0.65864
186.787,26.7771,-0.0466099,0.93059,0.65868
187.387,26.8307,-0.04657274,0.93469,0.65871
187.987,26.8842,-0.043004,0.94161,0.65875
188.587,26.93765,-0.05264492,0.94301,0.65878
189.187,26.9909,-0.04982067,0.94495,0.65881
189.787,27.0444,-0.05050564,0.95771,0.65884
190.387,27.0979,-0.04934941,0.96789,0.65887
190.987,27.15165,-0.0492501,0.9535,0.6589
191.587,27.2055,-0.04915431,0.95358,0.65892
192.187,27.2591,-0.05057008,0.96186,0.65895
192.787,27.31245,-0.05057002,0.95768,0.65897
193.387,27.36559,-0.0504878,0.95773,0.659
193.987,27.4189,-0.04919836,0.96384,0.65902
194.587,27.47216,-0.05055881,0.96394,0.65904
195.187,27.52569,-0.05123156,0.96958,0.65906
195.787,27.57923,-0.05122998,0.9608,0.65908
196.387,27.63271,-0.05182512,0.97492,0.6591
196.987,27.686,-0.05254043,0.98406,0.65911
197.587,27.7394,-0.0525318,0.98796,0.65913
198.187,27.79285,-0.05318954,0.98868,0.65914
198.787,27.84625,-0.05319,0.99864,0.65916
199.387,27.89947,-0.05319004,0.99545,0.65917
199.987,27.9529,-0.05342155,1.0035,0.65918
200.587,28.0061,-0.05590608,0.99724,0.65919
201.187,28.0593,-0.05582999,1.00439,0.6592
201.787,28.11295,-0.05583002,0.99813,0.6592
202.387,28.1662,-0.0558137,1.00463,0.65921
202.987,28.21975,-0.05682018,1.02415,0.65922
203.587,28.27317,-0.05682136,1.01413,0.65922
204.187,28.3265,-0.05293753,1.01675,0.65922
204.787,28.37978,-0.05684665,1.02643,0.65922
205.387,28.433,-0.06183071,1.03229,0.65922
205.987,28.4864,-0.05781866,1.03616,0.65922
206.587,28.5396,-0.05792001,1.04968,0.65922
207.187,28.59287,-0.05787991,1.0427,0.65922
207.787,28.64623,-0.05877191,1.04892,0.65922
208.387,28.69936,-0.06054965,1.04755,0.65921
208.987,28.7527,-0.06144309,1.06042,0.6592
209.587,28.80617,-0.06252307,1.05924,0.6592
210.187,28.85957,-0.06121419,1.06605,0.65919
210.787,28.9132,-0.06122776,1.06281,0.65918
211.387,28.9667,-0.06251875,1.07084,0.65917
211.987,29.0201,-0.06251995,1.06141,0.65916
212.587,29.0734,-0.06388061,1.08135,0.65914
213.187,29.12673,-0.06380431,1.08148,0.65913
213.787,29.18011,-0.06449045,1.08576,0.65911
214.387,29.2335,-0.06580822,1.08599,0.6591
214.987,29.28683,-0.06574302,1.08941,0.65908
215.587,29.34014,-0.0617359,1.08583,0.65906
216.187,29.3934,-0.07085174,1.09886,0.65904
216.787,29.4467,-0.07224463,1.11224,0.65902
217.387,29.50007,-0.06998205,1.11023,0.659
217.987,29.55325,-0.07040702,1.09885,0.65898
218.587,29.6067,-0.06865924,1.10685,0.65895
219.187,29.66003,-0.06998099,1.10227,0.65893
219.787,29.7135,-0.07140877,1.11772,0.6589
220.387,29.76687,-0.07140998,1.13765,0.65888
220.987,29.8202,-0.07140818,1.13253,0.65885
221.587,29.87347,-0.07308818,1.12858,0.65882
222.187,29.92697,-0.07401656,1.12749,0.65879
222.787,29.9803,-0.07534954,1.12573,0.65876
223.387,30.0335,-0.07564079,1.12288,0.65872
223.987,30.08698,-0.07149506,1.13052,0.65869
224.587,30.1402,-0.08617515,1.13752,0.65866
225.187,30.1937,-0.08165785,1.13118,0.65862
225.787,30.24723,-0.08019537,1.14263,0.65858
226.387,30.3007,-0.08052224,1.1414,0.65854
226.987,30.3541,-0.08047271,1.13222,0.65851
227.587,30.4076,-0.08221535,1.12576,0.65847
228.187,30.461,-0.0789929,1.1434,0.65842
228.787,30.5143,-0.09236742,1.13358,0.65838
229.387,30.56782,-0.08880791,1.12855,0.65834
229.987,30.6212,-0.08889477,1.12692,0.65829
230.587,30.67462,-0.09039692,1.11917,0.65825
231.187,30.72815,-0.09147964,1.10483,0.6582
231.787,30.7816,-0.09148004,1.10458,0.65815
232.387,30.835,-0.09309151,1.10023,0.65811
232.987,30.8884,-0.09608549,1.09607,0.65806
233.587,30.9419,-0.09715521,1.09158,0.65801
234.187,30.9954,-0.09844998,1.08623,0.65795
234.787,31.0489,-0.10007,1.08278,0.6579
235.387,31.10261,-0.10113,1.07929,0.65785
235.987,31.15625,-0.10363,1.07425,0.65779
236.587,31.2098,-0.10562,1.04984,0.65774
237.187,31.26359,-0.10731,1.0664,0.65768
237.787,31.3171,-0.107,1.05053,0.65762
238.387,31.3706,-0.10935,1.05243,0.65756
238.987,31.424,-0.11077,1.04423,0.6575
239.587,31.4773,-0.11206,1.03955,0.65744
240.187,31.53074,-0.11342,1.04005,0.65738
240.787,31.5842,-0.11478,1.02864,0.65731
241.387,31.63764,-0.11691,1.03112,0.65725
241.987,31.6913,-0.12036,1.01935,0.65718
242.587,31.7448,-0.12171,1.02988,0.65712
243.187,31.79829,-0.12316,1.01444,0.65705
243.787,31.8519,-0.12582,1.01497,0.65698
244.387,31.9052,-0.12712,1.01034,0.65691
244.987,31.9587,-0.12951,1.00805,0.65684
245.587,32.0123,-0.13291,1.00696,0.65677
246.187,32.0659,-0.13559,0.99743,0.6567
246.787,32.1197,-0.13646,0.99929,0.65662
247.387,32.17317,-0.13778,0.99398,0.65655
247.987,32.22674,-0.14013,0.98574,0.65647
248.587,32.28009,-0.14171,0.99148,0.6564
249.187,32.3335,-0.14298,0.99061,0.65632
249.787,32.38718,-0.1448,0.99256,0.65624
250.387,32.4407,-0.14946,0.9767,0.65616
250.987,32.49445,-0.15168,0.98275,0.65608
251.587,32.54797,-0.15416,0.97406,0.656
252.187,32.6015,-0.15596,0.98185,0.65592
252.787,32.65511,-0.15594,0.97437,0.65583
253.387,32.70859,-0.15833,0.97252,0.65575
253.987,32.7622,-0.16044,0.97481,0.65566
254.587,32.81577,-0.16347,0.9796,0.65558
255.187,32.86927,-0.166,0.9739,0.65549
255.787,32.9227,-0.16909,0.98286,0.6554
256.387,32.97623,-0.17046,0.99324,0.65531
256.987,33.02993,-0.17254,0.98627,0.65522
257.587,33.08359,-0.16442,0.96853,0.65513
258.187,33.13742,-0.18534,0.98468,0.65504
258.787,33.19105,-0.18322,1.00065,0.65494
259.387,33.24453,-0.18413,0.98495,0.65485
259.987,33.29821,-0.18599,0.98443,0.65475
260.587,33.35195,-0.18908,0.97943,0.65466
261.187,33.4055,-0.19036,0.98891,0.65456
261.787,33.4593,-0.19348,1.00283,0.65446
262.387,33.513,-0.19705,0.99018,0.65436
262.987,33.5666,-0.19838,1.00222,0.65426
263.587,33.6203,-0.20338,1.01459,0.65416
264.187,33.67385,-0.20709,1.01804,0.65406
264.787,33.7271,-0.20699,1.01517,0.65396
265.387,33.78065,-0.21149,1.01383,0.65385
265.987,33.8344,-0.21528,1.02665,0.65375
266.587,33.8881,-0.21832,1.01757,0.65364
267.187,33.942,-0.22278,1.02398,0.65353
267.787,33.99576,-0.22667,1.0208,0.65343
268.387,34.04932,-0.22962,1.0358,0.65332
268.987,34.1029,-0.23505,1.0274,0.65321
269.587,34.15659,-0.23829,1.02587,0.6531
270.187,34.21017,-0.24024,1.04108,0.65298
270.787,34.26385,-0.2441,1.04208,0.65287
271.387,34.31755,-0.24826,1.04317,0.65276
271.987,34.37117,-0.25259,1.06004,0.65264
272.587,34.42497,-0.25788,1.06924,0.65253
273.187,34.47875,-0.2629,1.06874,0.65241
273.787,34.53239,-0.26733,1.07393,0.65229
274.387,34.58598,-0.27046,1.06507,0.65218
274.987,34.6397,-0.27486,1.06718,0.65206
275.587,34.69331,-0.27742,1.07447,0.65194
276.187,34.74693,-0.28477,1.0684,0.65182
276.787,34.8007,-0.28853,1.08185,0.65169
277.387,34.85438,-0.29513,1.08746,0.65157
277.987,34.90817,-0.29939,1.08064,0.65145
278.587,34.9623,-0.30317,1.07728,0.65132
279.187,35.01616,-0.31008,1.0824,0.6512
279.787,35.06994,-0.31424,1.08393,0.65107
280.387,35.12378,-0.31925,1.08465,0.65094
280.987,35.1775,-0.32691,1.08548,0.65081
281.587,35.23129,-0.33235,1.08375,0.65069
282.187,35.2851,-0.33728,1.08001,0.65056
282.787,35.3388,-0.34441,1.09194,0.65042
283.387,35.39273,-0.34742,1.08949,0.65029
283.987,35.44668,-0.35186,1.09321,0.65016
284.587,35.5006,-0.36824,1.10936,0.65003
285.187,35.5546,-0.36943,1.10544,0.64989
285.787,35.60837,-0.37543,1.10337,0.64976
286.387,35.66199,-0.38175,1.12547,0.64962
286.987,35.71585,-0.38741,1.11841,0.64948
287.587,35.76985,-0.39475,1.11042,0.64934
288.187,35.82398,-0.40131,1.10875,0.6492
288.787,35.8782,-0.4098,1.11623,0.64906
289.387,35.93225,-0.41575,1.10735,0.64892
289.987,35.9863,-0.42391,1.12758,0.64878
290.587,36.0403,-0.43209,1.1313,0.64864
291.187,36.09421,-0.43928,1.1289,0.6485
291.787,36.14837,-0.44613,1.12041,0.64835
292.387,36.2023,-0.45356,1.11772,0.64821
292.987,36.25646,-0.46085,1.12359,0.64806
293.587,36.31047,-0.46901,1.12333,0.64791
294.187,36.36452,-0.48434,1.12668,0.64777
294.787,36.41861,-0.4921,1.12656,0.64762
295.387,36.4726,-0.50491,1.14344,0.64747
295.987,36.52665,-0.51683,1.14818,0.64732
296.587,36.5809,-0.52685,1.15305,0.64717
297.187,36.63503,-0.52313,1.12422,0.64702
297.787,36.68915,-0.51149,1.14237,0.64686
298.387,36.7434,-0.56824,1.16675,0.64671
298.987,36.7975,-0.54034,1.16001,0.64655
299.587,36.85187,-0.54654,1.13774,0.6464
300.187,36.9063,-0.55427,1.1521,0.64624
300.787,36.96076,-0.55861,1.15538,0.64609
301.387,37.01513,-0.56155,1.14145,0.64593
301.987,37.0695,-0.56766,1.12684,0.64577
302.587,37.12384,-0.58821,1.14554,0.64561
303.187,37.17811,-0.60673,1.16413,0.64545
303.787,37.23229,-0.61918,1.18664,0.64529
304.387,37.28628,-0.63028,1.19361,0.64513
304.987,37.34042,-0.63685,1.20783,0.64496
305.587,37.39445,-0.64902,1.21431,0.6448
306.187,37.44853,-0.65814,1.23349,0.64464
306.787,37.5028,-0.6698,1.23113,0.64447
307.387,37.5569,-0.68062,1.22525,0.6443
307.987,37.61105,-0.6899,1.2464,0.64414
308.587,37.6652,-0.70179,1.24688,0.64397
309.187,37.71935,-0.71178,1.24974,0.6438
309.787,37.7736,-0.72117,1.26427,0.64363
310.387,37.8279,-0.73135,1.26857,0.64346
310.987,37.8823,-0.74483,1.26544,0.64329
311.587,37.93695,-0.75578,1.2902,0.64312
312.187,37.9914,-0.76615,1.29232,0.64295
312.787,38.04585,-0.77654,1.30065,0.64277
313.387,38.1001,-0.78855,1.30721,0.6426
313.987,38.15423,-0.79939,1.31716,0.64242
314.587,38.20864,-0.81162,1.31798,0.64225
315.187,38.26328,-0.82468,1.34791,0.64207
315.787,38.318,-0.83574,1.35219,0.64189
316.387,38.3726,-0.84751,1.35657,0.64172
316.987,38.42675,-0.85849,1.36541,0.64154
317.587,38.48087,-0.87029,1.3761,0.64136
318.187,38.53502,-0.88222,1.39132,0.64118
318.787,38.58964,-0.89441,1.39718,0.641
319.387,38.64433,-0.90645,1.40624,0.64082
319.987,38.6988,-0.91882,1.40463,0.64063
320.587,38.75343,-0.93187,1.41688,0.64045
321.187,38.808,-0.94679,1.43442,0.64027
321.787,38.86241,-0.95892,1.43205,0.64008
322.387,38.917,-0.97175,1.42975,0.63989
322.987,38.9716,-0.98567,1.43546,0.63971
323.587,39.02603,-0.99792,1.45045,0.63952
324.187,39.08076,-1.01075,1.47267,0.63933
324.787,39.13547,-1.02416,1.47388,0.63914
325.387,39.18998,-1.03871,1.48179,0.63896
325.987,39.24471,-1.05342,1.50039,0.63877
326.587,39.29922,-1.06645,1.50734,0.63857
327.187,39.35385,-1.08037,1.51696,0.63838
327.787,39.40855,-1.09447,1.51554,0.63819
328.387,39.46311,-1.10721,1.52559,0.638
328.987,39.51775,-1.121,1.53818,0.6378
329.587,39.57253,-1.13606,1.5487,0.63761
330.187,39.6271,-1.1502,1.55814,0.63741
330.787,39.68173,-1.16483,1.55847,0.63722
331.387,39.73639,-1.18049,1.582,0.63702
331.987,39.79105,-1.19489,1.60112,0.63682
332.587,39.84583,-1.20978,1.60511,0.63663
333.187,39.9005,-1.22475,1.61004,0.63643
333.787,39.9555,-1.2393,1.61085,0.63623
334.387,40.01017,-1.2553,1.62044,0.63603
334.987,40.06523,-1.26906,1.63812,0.63583
335.587,40.12011,-1.28424,1.64803,0.63562
336.187,40.17499,-1.30221,1.66475,0.63542
336.787,40.2298,-1.31198,1.67071,0.63522
337.387,40.28453,-1.3343,1.6835,0.63502
337.987,40.3392,-1.34869,1.69972,0.63481
338.587,40.3939,-1.36584,1.69573,0.63461
339.187,40.44856,-1.38248,1.72103,0.6344
339.787,40.50347,-1.39831,1.73552,0.63419
340.387,40.55835,-1.41656,1.73624,0.63399
340.987,40.6132,-1.43252,1.75514,0.63378
341.587,40.66837,-1.44845,1.77009,0.63357
342.187,40.7233,-1.46733,1.79111,0.63336
342.787,40.77837,-1.4834,1.79971,0.63315
343.387,40.8334,-1.50132,1.81298,0.63294
343.987,40.88841,-1.51862,1.81301,0.63273
344.587,40.94335,-1.53549,1.83328,0.63252
345.187,40.99839,-1.55269,1.83689,0.6323
345.787,41.05336,-1.57042,1.85731,0.63209
346.387,41.1083,-1.58855,1.87452,0.63188
346.987,41.16344,-1.60776,1.89079,0.63166
347.587,41.21835,-1.62515,1.91254,0.63145
348.187,41.27347,-1.64443,1.9215,0.63123
348.787,41.32858,-1.66332,1.93191,0.63102
349.387,41.38367,-1.68208,1.96253,0.6308
349.987,41.43888,-1.70103,1.96076,0.63058
350.587,41.49405,-1.71976,1.98867,0.63036
351.187,41.54902,-1.73953,1.99682,0.63014
351.787,41.60392,-1.75959,2.00804,0.62992
352.387,41.65886,-1.77781,2.02639,0.6297
352.987,41.71376,-1.79914,2.03441,0.62948
353.587,41.76887,-1.81882,2.0503,0.62926
354.187,41.8241,-1.83791,2.05233,0.62904
354.787,41.8792,-1.8581,2.06587,0.62881
355.387,41.9345,-1.8778,2.05952,0.62859
355.987,41.98973,-1.89867,2.04944,0.62837
356.587,42.0449,-1.91886,2.08029,0.62814
357.187,42.10001,-1.9387,2.06677,0.62792
357.787,42.1551,-1.95959,2.06485,0.62769
358.387,42.21035,-1.97797,2.05967,0.62746
358.987,42.26577,-1.99858,2.0407,0.62724
359.587,42.32117,-2.02049,2.02837,0.62701
360.187,42.37647,-2.0405,2.02287,0.62678
360.787,42.4317,-2.06128,1.98972,0.62655
361.387,42.48689,-2.08153,1.97584,0.62632
361.987,42.54217,-2.1015,1.96111,0.62609
362.587,42.5976,-2.12164,1.92276,0.62586
363.187,42.6531,-2.14104,1.8835,0.62563
363.787,42.70851,-2.16048,1.85137,0.6254
364.387,42.76401,-2.18174,1.7895,0.62516
364.987,42.81928,-2.19825,1.73975,0.62493
365.587,42.87457,-2.217,1.6669,0.6247
366.187,42.92982,-2.23273,1.62533,0.62446
366.787,42.98515,-2.25041,1.5479,0.62423
367.387,43.04057,-2.26826,1.46766,0.62399
367.987,43.09601,-2.2847,1.39534,0.62376
368.587,43.15147,-2.30017,1.30174,0.62352
369.187,43.20688,-2.3152,1.21759,0.62328
369.787,43.262,-2.32892,1.11389,0.62304
370.387,43.31735,-2.341,1.02455,0.62281
370.987,43.37285,-2.35255,0.93148,0.62257
371.587,43.42837,-2.36399,0.83778,0.62233
372.187,43.48417,-2.37669,0.7288,0.62209
372.787,43.53968,-2.38506,0.64351,0.62185
373.387,43.59515,-2.39388,0.54855,0.6216
373.987,43.65038,-2.40337,0.4731,0.62136
374.587,43.70584,-2.41011,0.39164,0.62112
375.187,43.7613,-2.41762,0.31905,0.62088
375.787,43.81692,-2.42422,0.25266,0.62063
376.387,43.87285,-2.42884,0.20091,0.62039
376.987,43.92846,-2.43506,0.12832,0.62015
377.587,43.9842,-2.44078,0.09369418,0.6199
378.187,44.03985,-2.44435,0.04930634,0.61965
378.787,44.09563,-2.44529,0.01052042,0.61941
379.387,44.1513,-2.45016,-0.000701779,0.61916
379.987,44.20689,-2.45543,-0.04453241,0.61891
380.587,44.26248,-2.45726,-0.04575916,0.61867
381.187,44.31775,-2.46087,-0.06423203,0.61842
381.787,44.3735,-2.4636,-0.06945115,0.61817
382.387,44.42929,-2.46505,-0.08077812,0.61792
382.987,44.48506,-2.46839,-0.09565178,0.61767
383.587,44.54115,-2.47166,-0.11078,0.61742
384.187,44.59684,-2.47579,-0.10996,0.61717
384.787,44.65247,-2.47885,-0.13584,0.61692
385.387,44.70824,-2.48225,-0.13832,0.61667
385.987,44.7639,-2.48288,-0.14041,0.61641
386.587,44.81981,-2.48317,-0.15721,0.61616
387.187,44.8756,-2.48731,-0.16497,0.61591
387.787,44.93142,-2.48999,-0.17267,0.61565
388.387,44.98737,-2.49156,-0.16777,0.6154
388.987,45.0432,-2.4936,-0.17841,0.61515
389.587,45.0991,-2.4958,-0.20256,0.61489
390.187,45.155,-2.49884,-0.19816,0.61463
390.787,45.21062,-2.50175,-0.21943,0.61438
391.387,45.26664,-2.50378,-0.21434,0.61412
391.987,45.32258,-2.50645,-0.23231,0.61386
392.587,45.37852,-2.50644,-0.2342,0.61361
393.187,45.43461,-2.50965,-0.26428,0.61335
393.787,45.49066,-2.51144,-0.25887,0.61309
394.387,45.5467,-2.51347,-0.2571,0.61283
394.987,45.60263,-2.51532,-0.27151,0.61257
395.587,45.65906,-2.51827,-0.28098,0.61231
396.187,45.7151,-2.52096,-0.29288,0.61205
396.787,45.77128,-2.52157,-0.30809,0.61179
397.387,45.82748,-2.52327,-0.30758,0.61153
397.987,45.88369,-2.52535,-0.32233,0.61127
398.587,45.94,-2.52684,-0.33214,0.611
399.187,45.9963,-2.53053,-0.34747,0.61074
399.787,46.05251,-2.53228,-0.35107,0.61048
400.387,46.1088,-2.53419,-0.35601,0.61021
400.987,46.16485,-2.53497,-0.35272,0.60995
401.587,46.2207,-2.53643,-0.3572,0.60969
402.187,46.27694,-2.53927,-0.37328,0.60942
402.787,46.33307,-2.54195,-0.37966,0.60915
403.387,46.38961,-2.54348,-0.38598,0.60889
403.987,46.44612,-2.54471,-0.3999,0.60862
404.587,46.50242,-2.54751,-0.40743,0.60836
405.187,46.5586,-2.549,-0.42887,0.60809
405.787,46.61486,-2.55126,-0.43116,0.60782
406.387,46.67113,-2.55282,-0.43423,0.60755
406.987,46.72721,-2.55378,-0.44061,0.60728
407.587,46.78362,-2.55544,-0.46554,0.60702
408.187,46.84,-2.55799,-0.4728,0.60675
408.787,46.89635,-2.56095,-0.48737,0.60648
409.387,46.95296,-2.56245,-0.4941,0.60621
409.987,47.00927,-2.56453,-0.48095,0.60594
410.587,47.06565,-2.56754,-0.50687,0.60567
411.187,47.12216,-2.56754,-0.51708,0.60539
411.787,47.1785,-2.57013,-0.51498,0.60512
412.387,47.23499,-2.57253,-0.51873,0.60485
412.987,47.29137,-2.5719,-0.52896,0.60458
413.587,47.34787,-2.57421,-0.52969,0.6043
414.187,47.40425,-2.577,-0.53423,0.60403
414.787,47.46072,-2.57838,-0.54109,0.60376
415.387,47.5174,-2.58043,-0.55212,0.60348
415.987,47.57392,-2.58248,-0.55939,0.60321
416.587,47.6306,-2.58497,-0.55947,0.60293
417.187,47.68715,-2.58635,-0.56124,0.60266
417.787,47.74364,-2.58766,-0.566,0.60238
418.387,47.8003,-2.59004,-0.57397,0.60211
418.987,47.85689,-2.59152,-0.59773,0.60183
419.587,47.9133,-2.59304,-0.60204,0.60155
420.187,47.9701,-2.59343,-0.60782,0.60128
420.787,48.02664,-2.59528,-0.60801,0.601
421.387,48.08338,-2.59812,-0.60622,0.60072
421.987,48.14013,-2.6,-0.61378,0.60044
422.587,48.19689,-2.60066,-0.62369,0.60017
423.187,48.25363,-2.60275,-0.63015,0.59989
423.787,48.31029,-2.60538,-0.62744,0.59961
424.387,48.36694,-2.60558,-0.63143,0.59933
424.987,48.42361,-2.60803,-0.63464,0.59905
425.587,48.4807,-2.60954,-0.63822,0.59877
426.187,48.53763,-2.61076,-0.64062,0.59849
426.787,48.59468,-2.61188,-0.64693,0.59821
427.387,48.6514,-2.61348,-0.6482,0.59793
427.987,48.70812,-2.61704,-0.63622,0.59764
428.587,48.76487,-2.61788,-0.65006,0.59736
429.187,48.82181,-2.61921,-0.65271,0.59708
429.787,48.87879,-2.62064,-0.65691,0.5968
430.387,48.93572,-2.62294,-0.64608,0.59651
430.987,48.99269,-2.62458,-0.64743,0.59623
431.587,49.04925,-2.62588,-0.64008,0.59595
432.187,49.1062,-2.62589,-0.63966,0.59566
432.787,49.1631,-2.62736,-0.64921,0.59538
433.387,49.22,-2.63148,-0.6513,0.59509
433.987,49.2774,-2.63306,-0.64886,0.59481
434.587,49.33455,-2.63439,-0.6471,0.59452
435.187,49.39172,-2.6371,-0.63807,0.59424
435.787,49.44882,-2.63873,-0.63951,0.59395
436.387,49.5058,-2.63927,-0.63783,0.59367
436.987,49.56265,-2.64016,-0.64026,0.59338
437.587,49.6197,-2.64136,-0.63536,0.59309
438.187,49.67662,-2.64334,-0.64669,0.59281
438.787,49.73375,-2.64612,-0.63513,0.59252
439.387,49.7909,-2.64676,-0.62717,0.59223
439.987,49.84803,-2.6477,-0.63352,0.59194
440.587,49.9052,-2.64898,-0.62042,0.59166
441.187,49.96226,-2.65035,-0.612,0.59137
441.787,50.01943,-2.65167,-0.61289,0.59108
442.387,50.07649,-2.65309,-0.6195,0.59079
442.987,50.1336,-2.65463,-0.61287,0.5905
443.587,50.19083,-2.65607,-0.60013,0.59021
444.187,50.24801,-2.65823,-0.6017,0.58992
444.787,50.3052,-2.65961,-0.59623,0.58963
445.387,50.36242,-2.66108,-0.59478,0.58934
445.987,50.41972,-2.66241,-0.59462,0.58905
446.587,50.47697,-2.66372,-0.59333,0.58876
447.187,50.53437,-2.66499,-0.58296,0.58847
447.787,50.59166,-2.66636,-0.57803,0.58818
448.387,50.64907,-2.66769,-0.57648,0.58788
448.987,50.7065,-2.66909,-0.57354,0.58759
449.587,50.7637,-2.67042,-0.57043,0.5873
450.187,50.82124,-2.67042,-0.55078,0.58701
450.787,50.87894,-2.67264,-0.55514,0.58672
451.387,50.9367,-2.67296,-0.54276,0.58642
451.987,50.99445,-2.67583,-0.54229,0.58613
452.587,51.05207,-2.67581,-0.54193,0.58584
453.187,51.10965,-2.67709,-0.53424,0.58554
453.787,51.16709,-2.6783,-0.52441,0.58525
454.387,51.2246,-2.67945,-0.53378,0.58495
454.987,51.28198,-2.6797,-0.52799,0.58466
455.587,51.3395,-2.68201,-0.52878,0.58437
456.187,51.39712,-2.68229,-0.52922,0.58407
456.787,51.45462,-2.68411,-0.52138,0.58378
457.387,51.51201,-2.68501,-0.51597,0.58348
457.987,51.56948,-2.68633,-0.51241,0.58318
458.587,51.62681,-2.68764,-0.51571,0.58289
459.187,51.68412,-2.6884,-0.50717,0.58259
459.787,51.7416,-2.69007,-0.50836,0.5823
460.387,51.7989,-2.69027,-0.50283,0.582
460.987,51.85637,-2.69158,-0.51209,0.5817
461.587,51.914,-2.69291,-0.49845,0.58141
462.187,51.97142,-2.69369,-0.49172,0.58111
462.787,52.029,-2.69417,-0.49575,0.58081
463.387,52.08662,-2.69619,-0.49779,0.58052
463.987,52.14428,-2.69827,-0.48863,0.58022
464.587,52.20183,-2.69818,-0.48107,0.57992
465.187,52.2594,-2.69949,-0.48152,0.57962
465.787,52.31697,-2.70018,-0.48729,0.57932
466.387,52.37453,-2.70084,-0.47622,0.57903
466.987,52.43235,-2.70224,-0.47977,0.57873
467.587,52.48995,-2.70355,-0.48006,0.57843
468.187,52.54778,-2.70351,-0.4844,0.57813
468.787,52.60555,-2.70485,-0.48281,0.57783
469.387,52.6634,-2.70618,-0.47592,0.57753
469.987,52.72121,-2.70759,-0.4781,0.57723
470.587,52.77895,-2.70891,-0.48267,0.57693
471.187,52.8368,-2.70838,-0.47271,0.57663
471.787,52.8945,-2.70892,-0.46739,0.57633
472.387,52.95208,-2.70983,-0.47602,0.57603
472.987,53.01002,-2.70891,-0.47972,0.57573
473.587,53.0678,-2.71023,-0.46755,0.57543
474.187,53.1258,-2.71261,-0.46354,0.57513
474.787,53.1837,-2.7143,-0.47317,0.57483
475.387,53.2415,-2.71429,-0.46481,0.57453
475.987,53.2994,-2.71556,-0.46808,0.57423
476.587,53.3571,-2.71702,-0.46396,0.57393
477.187,53.41474,-2.71724,-0.47639,0.57363
477.787,53.47243,-2.71857,-0.47103,0.57332
478.387,53.53018,-2.7199,-0.47668,0.57302
478.987,53.58818,-2.72006,-0.48581,0.57272
479.587,53.64614,-2.72099,-0.49245,0.57242
480.187,53.70411,-2.7223,-0.4718,0.57212
480.787,53.76203,-2.72366,-0.48155,0.57181
481.387,53.8202,-2.72493,-0.4779,0.57151
481.987,53.87822,-2.72492,-0.49363,0.57121
482.587,53.9361,-2.72625,-0.48451,0.57091
483.187,53.9941,-2.72655,-0.49179,0.5706
483.787,54.052,-2.72657,-0.49295,0.5703
484.387,54.10983,-2.72789,-0.49659,0.57
484.987,54.16783,-2.72789,-0.48718,0.5697
485.587,54.22575,-2.72789,-0.49968,0.56939
486.187,54.2838,-2.72922,-0.50479,0.56909
486.787,54.34182,-2.72922,-0.50448,0.56879
487.387,54.4,-2.73052,-0.52341,0.56848
487.987,54.45788,-2.73185,-0.52295,0.56818
488.587,54.5159,-2.73318,-0.51878,0.56787
489.187,54.574,-2.73381,-0.52849,0.56757
489.787,54.63199,-2.73381,-0.5259,0.56727
490.387,54.6905,-2.73447,-0.50969,0.56696
490.987,54.7488,-2.73579,-0.52757,0.56666
491.587,54.80706,-2.73574,-0.53327,0.56635
492.187,54.86534,-2.7371,-0.52462,0.56605
492.787,54.92365,-2.73713,-0.51972,0.56574
493.387,54.98185,-2.73843,-0.5266,0.56544
493.987,55.04009,-2.73974,-0.53865,0.56513
494.587,55.0983,-2.73989,-0.535,0.56483
495.187,55.1565,-2.74039,-0.52439,0.56452
495.787,55.21487,-2.74144,-0.53432,0.56422
496.387,55.2731,-2.74171,-0.54501,0.56391
496.987,55.33133,-2.74225,-0.55014,0.56361
497.587,55.38958,-2.74545,-0.55933,0.5633
498.187,55.44774,-2.74444,-0.55563,0.563
498.787,55.506,-2.74575,-0.5592,0.56269
499.387,55.56448,-2.74568,-0.55291,0.56239
499.987,55.6231,-2.74577,-0.5751,0.56208
500.587,55.6816,-2.74713,-0.58441,0.56178
501.187,55.7399,-2.7484,-0.58023,0.56147
501.787,55.7982,-2.74972,-0.57213,0.56117
502.387,55.8565,-2.74972,-0.57577,0.56086
502.987,55.915,-2.75094,-0.59208,0.56055
503.587,55.9735,-2.75202,-0.59086,0.56025
504.187,56.03196,-2.75205,-0.58509,0.55994
504.787,56.0902,-2.75204,-0.59574,0.55964
505.387,56.14875,-2.75334,-0.58358,0.55933
505.987,56.2073,-2.75338,-0.59114,0.55902
506.587,56.266,-2.75334,-0.60094,0.55872
507.187,56.3248,-2.75494,-0.59749,0.55841
507.787,56.38372,-2.75598,-0.59966,0.55811
508.387,56.44248,-2.75727,-0.6096,0.5578
508.987,56.5012,-2.75805,-0.61208,0.55749
509.587,56.5597,-2.75861,-0.61753,0.55719
510.187,56.6176,-2.75861,-0.61371,0.55688
510.787,56.6758,-2.75937,-0.61598,0.55657
511.387,56.7343,-2.75795,-0.63225,0.55627
511.987,56.7932,-2.75859,-0.63945,0.55596
512.587,56.8523,-2.75992,-0.64153,0.55565
513.187,56.9108,-2.76064,-0.65913,0.55535
513.787,56.9694,-2.76124,-0.65707,0.55504
514.387,57.0281,-2.76255,-0.67102,0.55473
514.987,57.08673,-2.76255,-0.66407,0.55443
515.587,57.1455,-2.76255,-0.65845,0.55412
516.187,57.2042,-2.76388,-0.66586,0.55381
516.787,57.26291,-2.76389,-0.65611,0.55351
517.387,57.3216,-2.76477,-0.63673,0.5532
517.987,57.3804,-2.76518,-0.62924,0.55289
518.587,57.43897,-2.76518,-0.62547,0.55259
519.187,57.4977,-2.7665,-0.64487,0.55228
519.787,57.5564,-2.77009,-0.65,0.55197
520.387,57.61486,-2.76952,-0.62401,0.55167
520.987,57.67345,-2.76247,-0.63391,0.55136
521.587,57.73215,-2.76805,-0.63178,0.55105
522.187,57.79093,-2.76935,-0.65799,0.55075
522.787,57.84972,-2.77067,-0.65696,0.55044
523.387,57.9084,-2.77097,-0.66969,0.55013
523.987,57.96711,-2.771,-0.66861,0.54983
524.587,58.0259,-2.77343,-0.67073,0.54952
525.187,58.0846,-2.77363,-0.67137,0.54921
525.787,58.1435,-2.77433,-0.67763,0.54891
526.387,58.2021,-2.77563,-0.6684,0.5486
526.987,58.2608,-2.77434,-0.68888,0.54829
527.587,58.31957,-2.7756,-0.68735,0.54799
528.187,58.37848,-2.77567,-0.69464,0.54768
528.787,58.4372,-2.77561,-0.6937,0.54737
529.387,58.4962,-2.77953,-0.71816,0.54707
529.987,58.5551,-2.77905,-0.69218,0.54676
530.587,58.61419,-2.77311,-0.70346,0.54645
531.187,58.67335,-2.77692,-0.70702,0.54615
531.787,58.73228,-2.77709,-0.72706,0.54584
532.387,58.7912,-2.77868,-0.73245,0.54553
532.987,58.85014,-2.78056,-0.73883,0.54523
533.587,58.9089,-2.78086,-0.73197,0.54492
534.187,58.96801,-2.78185,-0.76168,0.54461
534.787,59.0272,-2.78313,-0.76781,0.54431
535.387,59.0862,-2.78197,-0.7664,0.544
535.987,59.14535,-2.78407,-0.78105,0.54369
536.587,59.2044,-2.78448,-0.77439,0.54339
537.187,59.2635,-2.78581,-0.78333,0.54308
537.787,59.3227,-2.78581,-0.79564,0.54278
538.387,59.382,-2.7865,-0.78047,0.54247
538.987,59.4412,-2.78669,-0.80009,0.54216
539.587,59.5003,-2.78581,-0.80406,0.54186
540.187,59.5594,-2.78581,-0.81543,0.54155
540.787,59.6184,-2.7858,-0.82748,0.54125
541.387,59.67754,-2.78843,-0.83522,0.54094
541.987,59.7366,-2.78843,-0.83433,0.54063
542.587,59.79565,-2.78846,-0.84176,0.54033
543.187,59.85493,-2.78977,-0.84562,0.54002
543.787,59.9141,-2.79103,-0.85083,0.53972
544.387,59.9734,-2.79095,-0.85651,0.53941
544.987,60.03269,-2.79107,-0.86304,0.53911
545.587,60.09182,-2.79237,-0.86138,0.5388
546.187,60.15096,-2.79239,-0.86595,0.5385
546.787,60.20992,-2.79271,-0.86758,0.53819
547.387,60.26896,-2.79371,-0.86062,0.53789
547.987,60.32818,-2.79372,-0.86539,0.53758
548.587,60.3875,-2.79372,-0.87904,0.53728
549.187,60.44704,-2.79503,-0.88133,0.53697
549.787,60.50635,-2.79503,-0.88595,0.53667
550.387,60.5658,-2.79503,-0.89461,0.53636
550.987,60.6251,-2.79675,-0.89879,0.53606
551.587,60.6845,-2.79766,-0.90076,0.53575
552.187,60.7439,-2.79767,-0.90553,0.53545
552.787,60.80307,-2.79766,-0.91481,0.53514
553.387,60.86243,-2.79766,-0.91883,0.53484
553.987,60.9217,-2.79766,-0.90527,0.53454
554.587,60.9811,-2.79898,-0.90855,0.53423
555.187,61.04006,-2.7993,-0.91017,0.53393
555.787,61.0994,-2.7993,-0.91482,0.53362
556.387,61.15876,-2.80054,-0.93379,0.53332
556.987,61.2183,-2.80064,-0.92879,0.53302
557.587,61.2779,-2.80193,-0.93569,0.53271
558.187,61.3374,-2.80193,-0.94032,0.53241
558.787,61.3971,-2.80454,-0.94515,0.53211
559.387,61.4566,-2.80353,-0.94844,0.5318
559.987,61.51616,-2.80424,-0.95655,0.5315
560.587,61.57558,-2.80457,-0.95763,0.5312
561.187,61.6345,-2.80451,-0.96481,0.53089
561.787,61.69398,-2.80456,-0.96999,0.53059
562.387,61.7537,-2.80456,-0.9639,0.53029
562.987,61.81364,-2.80593,-0.97402,0.52999
563.587,61.8737,-2.80587,-0.9675,0.52968
564.187,61.9332,-2.80719,-0.96423,0.52938
564.787,61.9925,-2.80719,-0.96558,0.52908
565.387,62.0518,-2.80851,-0.97696,0.52878
565.987,62.1113,-2.80851,-0.98014,0.52848
566.587,62.1709,-2.80983,-0.98322,0.52817
567.187,62.2304,-2.80983,-0.99464,0.52787
567.787,62.28995,-2.80983,-0.99207,0.52757
568.387,62.3494,-2.81114,-0.99809,0.52727
568.987,62.409,-2.81114,-1.0085,0.52697
569.587,62.4685,-2.81114,-1.01648,0.52667
570.187,62.528,-2.81133,-1.02971,0.52637
570.787,62.58745,-2.81246,-1.05024,0.52606
571.387,62.64702,-2.8125,-1.04329,0.52576
571.987,62.70695,-2.81398,-1.04784,0.52546
572.587,62.7668,-2.81509,-1.04853,0.52516
573.187,62.8267,-2.81383,-1.04243,0.52486
573.787,62.88626,-2.8151,-1.06205,0.52456
574.387,62.94596,-2.81639,-1.07407,0.52426
574.987,63.00577,-2.81641,-1.0744,0.52396
575.587,63.06555,-2.81639,-1.0561,0.52366
576.187,63.1253,-2.81712,-1.06428,0.52336
576.787,63.185,-2.81707,-1.07324,0.52306
577.387,63.24471,-2.81789,-1.08521,0.52276
577.987,63.3044,-2.81839,-1.08236,0.52247
578.587,63.364,-2.81946,-1.07699,0.52217
579.187,63.42358,-2.81904,-1.08759,0.52187
579.787,63.4832,-2.81904,-1.09024,0.52157
580.387,63.5429,-2.82036,-1.10356,0.52127
580.987,63.6029,-2.81899,-1.10343,0.52097
581.587,63.6631,-2.8217,-1.10498,0.52067
582.187,63.72286,-2.82167,-1.09735,0.52038
582.787,63.7828,-2.82297,-1.11252,0.52008
583.387,63.84256,-2.823,-1.09748,0.51978
583.987,63.90263,-2.82299,-1.10887,0.51948
584.587,63.96261,-2.82432,-1.12045,0.51919
585.187,64.0227,-2.82431,-1.12084,0.51889
585.787,64.08272,-2.82547,-1.14125,0.51859
586.387,64.14275,-2.82445,-1.1433,0.5183
586.987,64.2027,-2.82431,-1.1574,0.518
587.587,64.26276,-2.8266,-1.15194,0.5177
588.187,64.32274,-2.82661,-1.16771,0.51741
588.787,64.38277,-2.82794,-1.1701,0.51711
589.387,64.44305,-2.82783,-1.16439,0.51681
589.987,64.50307,-2.82792,-1.16876,0.51652
590.587,64.56317,-2.82792,-1.17432,0.51622
591.187,64.62325,-2.82885,-1.17158,0.51593
591.787,64.6832,-2.82924,-1.15999,0.51563
592.387,64.74334,-2.8288,-1.17799,0.51534
592.987,64.80336,-2.8299,-1.16041,0.51504
593.587,64.86341,-2.82987,-1.15982,0.51475
594.187,64.92353,-2.83055,-1.14595,0.51445
594.787,64.98357,-2.83056,-1.15194,0.51416
595.387,65.0435,-2.83056,-1.15081,0.51387
595.987,65.1035,-2.83056,-1.14749,0.51357
596.587,65.16341,-2.83188,-1.12143,0.51328
597.187,65.2235,-2.83181,-1.13061,0.51299
597.787,65.28353,-2.83352,-1.13748,0.51269
598.387,65.3437,-2.83384,-1.13735,0.5124
598.987,65.40379,-2.83313,-1.12818,0.51211
599.587,65.46399,-2.83385,-1.14721,0.51181
600.187,65.524,-2.83458,-1.14715,0.51152
600.787,65.5842,-2.83593,-1.13515,0.51123
601.387,65.6442,-2.83583,-1.13111,0.51094
601.987,65.70442,-2.83723,-1.12397,0.51065
602.587,65.76462,-2.83817,-1.13227,0.51035
603.187,65.82463,-2.83804,-1.12281,0.51006
603.787,65.8849,-2.83844,-1.10989,0.50977
604.387,65.9451,-2.83845,-1.10833,0.50948
604.987,66.00565,-2.83845,-1.11454,0.50919
605.587,66.06608,-2.83879,-1.11734,0.5089
606.187,66.12631,-2.83977,-1.0916,0.50861
606.787,66.1866,-2.83975,-1.11142,0.50832
607.387,66.2469,-2.84076,-1.10824,0.50803
607.987,66.3074,-2.84076,-1.10789,0.50774
608.587,66.36784,-2.84076,-1.11123,0.50745
609.187,66.42817,-2.84108,-1.11513,0.50716
609.787,66.4885,-2.8424,-1.11801,0.50687
610.387,66.5487,-2.84306,-1.10391,0.50658
610.987,66.60898,-2.84176,-1.10201,0.50629
611.587,66.6691,-2.84175,-1.10591,0.50601
612.187,66.7294,-2.84175,-1.09232,0.50572
612.787,66.78962,-2.84174,-1.07904,0.50543
613.387,66.84993,-2.84373,-1.07694,0.50514
613.987,66.91023,-2.84439,-1.09122,0.50486
614.587,66.97057,-2.84504,-1.07332,0.50457
615.187,67.03093,-2.84504,-1.06939,0.50428
615.787,67.0911,-2.84504,-1.0758,0.50399
616.387,67.1512,-2.84639,-1.08347,0.50371
616.987,67.21128,-2.84636,-1.07071,0.50342
617.587,67.27156,-2.84765,-1.05651,0.50314
618.187,67.33184,-2.84767,-1.05833,0.50285
618.787,67.3923,-2.84719,-1.05344,0.50257
619.387,67.4526,-2.84536,-1.03799,0.50228
619.987,67.5128,-2.84537,-1.04249,0.50199
620.587,67.5733,-2.84537,-1.05082,0.50171
621.187,67.63371,-2.84537,-1.03426,0.50143
621.787,67.6939,-2.84667,-1.04276,0.50114
622.387,67.75435,-2.84587,-1.03831,0.50086
622.987,67.81478,-2.84734,-1.03794,0.50057
623.587,67.8754,-2.84734,-1.0542,0.50029
624.187,67.9359,-2.8483,-1.05977,0.50001
624.787,67.99631,-2.84923,-1.04487,0.49972
625.387,68.0568,-2.85063,-1.04566,0.49944
625.987,68.11734,-2.85063,-1.0343,0.49916
626.587,68.17741,-2.852,-1.03464,0.49888
627.187,68.2377,-2.85195,-1.02342,0.49859
627.787,68.29802,-2.85196,-1.0332,0.49831
628.387,68.3585,-2.85304,-1.02468,0.49803
628.987,68.41923,-2.85194,-1.01152,0.49775
629.587,68.47958,-2.85194,-1.00331,0.49747
630.187,68.53996,-2.85326,-0.98976,0.49719
630.787,68.6006,-2.85326,-1.00406,0.49691
631.387,68.66124,-2.85326,-1.02043,0.49663
631.987,68.72213,-2.85459,-1.0178,0.49635
632.587,68.78267,-2.85458,-1.02929,0.49607
633.187,68.8434,-2.85458,-1.01899,0.49579
633.787,68.904,-2.85458,-1.02638,0.49551
634.387,68.96466,-2.85458,-1.01036,0.49523
634.987,69.02524,-2.85356,-0.99858,0.49495
635.587,69.0859,-2.8546,-1.0048,0.49467
636.187,69.14664,-2.85543,-1.02339,0.4944
636.787,69.20749,-2.8559,-1.00014,0.49412
637.387,69.2684,-2.85689,-1.00624,0.49384
637.987,69.32914,-2.85722,-1.00039,0.49356
638.587,69.38996,-2.85853,-1.00533,0.49329
639.187,69.45084,-2.85853,-0.98777,0.49301
639.787,69.51169,-2.85851,-0.98826,0.49273
640.387,69.57263,-2.85755,-0.99012,0.49246
640.987,69.63343,-2.85752,-1.00472,0.49218
641.587,69.69383,-2.85905,-1.01171,0.49191
642.187,69.75454,-2.85984,-1.00498,0.49163
642.787,69.815,-2.86116,-1.0016,0.49135
643.387,69.87528,-2.85986,-0.99986,0.49108
643.987,69.93607,-2.85984,-1.00855,0.49081
644.587,69.99667,-2.85984,-0.99057,0.49053
645.187,70.05773,-2.86116,-0.99408,0.49026
645.787,70.11848,-2.86116,-1.00396,0.48998
646.387,70.17922,-2.86116,-1.00588,0.48971
646.987,70.24,-2.86149,-0.98204,0.48944
647.587,70.301,-2.86248,-0.98882,0.48916
648.187,70.36182,-2.86248,-1.00485,0.48889
648.787,70.4227,-2.86364,-1.01838,0.48862
649.387,70.48366,-2.86379,-1.01544,0.48835
649.987,70.54463,-2.86379,-1.0273,0.48808
650.587,70.60561,-2.8638,-1.0161,0.4878
651.187,70.66646,-2.86247,-0.98927,0.48753
651.787,70.7272,-2.86247,-0.99596,0.48726
652.387,70.788,-2.86511,-0.99271,0.48699
652.987,70.8489,-2.8638,-0.98636,0.48672
653.587,70.90965,-2.86379,-0.98335,0.48645
654.187,70.97051,-2.86379,-0.9782,0.48618
654.787,71.0313,-2.86511,-0.97382,0.48591
655.387,71.09249,-2.86647,-0.98136,0.48564
655.987,71.15377,-2.86644,-0.98741,0.48538
656.587,71.21499,-2.86774,-0.99651,0.48511
657.187,71.27591,-2.86774,-0.99292,0.48484
657.787,71.33695,-2.86769,-0.99681,0.48457
658.387,71.39787,-2.86906,-0.9967,0.4843
658.987,71.45897,-2.86773,-0.99409,0.48404
659.587,71.52015,-2.86721,-1.00924,0.48377
660.187,71.58114,-2.86971,-0.99139,0.4835
660.787,71.64243,-2.86971,-0.98478,0.48324
661.387,71.70325,-2.87047,-0.98103,0.48297
661.987,71.7642,-2.8786,-0.97595,0.4827
662.587,71.82518,-2.85831,-0.96735,0.48244
663.187,71.88606,-2.86487,-0.9502,0.48217
663.787,71.94711,-2.86776,-0.95942,0.48191
664.387,72.00808,-2.86764,-0.94462,0.48164
664.987,72.0689,-2.86894,-0.93472,0.48138
665.587,72.1298,-2.86895,-0.92933,0.48112
666.187,72.1905,-2.86895,-0.90885,0.48085
666.787,72.25143,-2.87027,-0.91801,0.48059
667.387,72.31264,-2.87028,-0.91898,0.48033
667.987,72.37391,-2.87158,-0.92874,0.48006
668.587,72.43523,-2.87158,-0.92084,0.4798
669.187,72.4965,-2.87288,-0.92309,0.47954
669.787,72.55761,-2.8721,-0.92328,0.47928
670.387,72.61869,-2.8729,-0.93274,0.47902
670.987,72.67954,-2.87421,-0.92275,0.47875
671.587,72.74084,-2.87349,-0.92772,0.47849
672.187,72.80224,-2.87156,-0.91276,0.47823
672.787,72.86355,-2.87296,-0.89905,0.47797
673.387,72.92493,-2.87158,-0.87789,0.47771
673.987,72.9862,-2.87172,-0.8772,0.47745
674.587,73.0475,-2.87257,-0.8753,0.47719
675.187,73.10882,-2.87257,-0.87557,0.47693
675.787,73.1699,-2.87257,-0.87709,0.47668
676.387,73.23116,-2.87256,-0.88184,0.47642
676.987,73.29222,-2.87125,-0.87877,0.47616
677.587,73.35327,-2.87257,-0.869,0.4759
678.187,73.41454,-2.8738,-0.88195,0.47564
678.787,73.4757,-2.87388,-0.88872,0.47539
679.387,73.5369,-2.87389,-0.87513,0.47513
679.987,73.598,-2.87381,-0.85141,0.47487
680.587,73.65925,-2.87522,-0.84825,0.47462
681.187,73.72028,-2.87651,-0.86536,0.47436
681.787,73.78137,-2.87652,-0.87478,0.47411
682.387,73.84274,-2.8765,-0.86589,0.47385
682.987,73.9042,-2.87553,-0.86292,0.4736
683.587,73.96563,-2.87455,-0.86221,0.47334
684.187,74.02688,-2.8852,-0.85046,0.47309
684.787,74.08816,-2.86522,-0.83445,0.47283
685.387,74.14945,-2.87481,-0.84457,0.47258
685.987,74.21092,-2.8765,-0.82379,0.47233
686.587,74.27226,-2.87651,-0.82465,0.47207
687.187,74.33368,-2.87722,-0.80405,0.47182
687.787,74.39503,-2.87783,-0.81617,0.47157
688.387,74.4564,-2.87783,-0.79211,0.47132
688.987,74.51737,-2.87853,-0.80269,0.47107
689.587,74.5788,-2.87849,-0.81616,0.47081
690.187,74.6402,-2.87849,-0.83005,0.47056
690.787,74.70179,-2.87737,-0.83035,0.47031
691.387,74.7632,-2.87718,-0.81387,0.47006
691.987,74.82462,-2.87847,-0.80305,0.46981
692.587,74.88626,-2.8785,-0.80056,0.46956
693.187,74.94773,-2.8785,-0.81708,0.46931
693.787,75.00931,-2.88129,-0.83576,0.46906
694.387,75.0708,-2.88048,-0.81561,0.46882
694.987,75.13229,-2.8796,-0.78176,0.46857
695.587,75.1939,-2.87954,-0.78742,0.46832
696.187,75.2554,-2.87952,-0.76144,0.46807
696.787,75.31681,-2.88099,-0.77254,0.46782
697.387,75.37817,-2.87904,-0.76689,0.46758
697.987,75.4396,-2.87904,-0.76065,0.46733
698.587,75.50104,-2.88036,-0.74679,0.46708
699.187,75.5626,-2.88169,-0.73955,0.46684
699.787,75.6242,-2.88168,-0.7463,0.46659
700.387,75.6857,-2.88299,-0.75753,0.46635
700.987,75.74723,-2.88299,-0.75582,0.4661
701.587,75.80869,-2.88299,-0.72978,0.46586
702.187,75.87,-2.882,-0.73736,0.46561
702.787,75.93126,-2.882,-0.72923,0.46537
703.387,75.9927,-2.88332,-0.72137,0.46512
703.987,76.0539,-2.88398,-0.70683,0.46488
704.587,76.11524,-2.88953,-0.74426,0.46464
705.187,76.17654,-2.87845,-0.67814,0.4644
705.787,76.23795,-2.88154,-0.66356,0.46415
706.387,76.29925,-2.88374,-0.67313,0.46391
706.987,76.36059,-2.89898,-0.68053,0.46367
707.587,76.4222,-2.87402,-0.69194,0.46343
708.187,76.4836,-2.88326,-0.69063,0.46319
708.787,76.54541,-2.88386,-0.69909,0.46295
709.387,76.60699,-2.88518,-0.69503,0.46271
709.987,76.66872,-2.88518,-0.72676,0.46247
710.587,76.73,-2.88518,-0.73117,0.46223
711.187,76.7915,-2.88453,-0.74914,0.46199
711.787,76.8531,-2.88454,-0.76305,0.46175
712.387,76.91476,-2.88717,-0.77886,0.46151
712.987,76.97678,-2.88618,-0.80105,0.46127
713.587,77.03842,-2.8865,-0.79826,0.46103
714.187,77.10036,-2.88782,-0.80767,0.46079
714.787,77.16196,-2.88782,-0.8357,0.46056
715.387,77.22338,-2.88782,-0.83067,0.46032
715.987,77.2851,-2.88782,-0.82457,0.46008
716.587,77.34665,-2.88847,-0.82401,0.45985
717.187,77.4084,-2.8891,-0.80299,0.45961
717.787,77.46987,-2.89824,-0.7942,0.45937
718.387,77.53134,-2.88234,-0.76653,0.45914
718.987,77.59273,-2.88637,-0.77043,0.4589
719.587,77.6541,-2.88849,-0.785,0.45867
720.187,77.71553,-2.88802,-0.78799,0.45844
720.787,77.77718,-2.88935,-0.77768,0.4582
721.387,77.8387,-2.88935,-0.78391,0.45797
721.987,77.90039,-2.89067,-0.75026,0.45773
722.587,77.96207,-2.88934,-0.75243,0.4575
723.187,78.02379,-2.88928,-0.75804,0.45727
723.787,78.08548,-2.89063,-0.73831,0.45704
724.387,78.14716,-2.89132,-0.72059,0.4568
724.987,78.20883,-2.89132,-0.72699,0.45657
725.587,78.2705,-2.89131,-0.73708,0.45634
726.187,78.3322,-2.89162,-0.71564,0.45611
726.787,78.39399,-2.89166,-0.71185,0.45588
727.387,78.4559,-2.89166,-0.69949,0.45565
727.987,78.51791,-2.89168,-0.69484,0.45542
728.587,78.57987,-2.89166,-0.65881,0.45519
729.187,78.6418,-2.89166,-0.65402,0.45496
729.787,78.70374,-2.89166,-0.65767,0.45473
730.387,78.76576,-2.89166,-0.64694,0.4545
730.987,78.82767,-2.89244,-0.63832,0.45428
731.587,78.88937,-2.89396,-0.6438,0.45405
732.187,78.95115,-2.89264,-0.65402,0.45382
732.787,79.013,-2.89264,-0.64064,0.45359
733.387,79.07502,-2.893,-0.63357,0.45337
733.987,79.13704,-2.89273,-0.62607,0.45314
734.587,79.199,-2.89264,-0.64846,0.45291
735.187,79.26093,-2.89396,-0.61824,0.45269
735.787,79.32302,-2.89396,-0.61998,0.45246
736.387,79.385,-2.89527,-0.60878,0.45224
736.987,79.44697,-2.89428,-0.58869,0.45201
737.587,79.50887,-2.89428,-0.59335,0.45179
738.187,79.5707,-2.89297,-0.59598,0.45156
738.787,79.6327,-2.89298,-0.57612,0.45134
739.387,79.69476,-2.89411,-0.56759,0.45112
739.987,79.75672,-2.89429,-0.57511,0.45089
740.587,79.81872,-2.89541,-0.58397,0.45067
741.187,79.8807,-2.89659,-0.56425,0.45045
741.787,79.9425,-2.89657,-0.54047,0.45022
742.287,79.9939,-2.89528,-0.5375,0.45004