File: 01_Data/Pressure_Treated_Deck/STA/N2/10K_min/Pressure_Treated_Deck_STA_N2_10KData_211706_R2.csv
##Temp./Â°C,Time/min,Mass loss(subtr.2)/mg,DSC(subtr.2)/mW,Sensit./(uV/mW)
49.227,10.00917,-0.02555,-0.0505935,0.61826
49.827,11.3926,-0.02754013,0.06825211,0.61858
50.427,11.73143,-0.02850634,0.16471,0.6189
51.027,11.97669,-0.02954988,0.21537,0.61922
51.627,12.17548,-0.02948827,0.28233,0.61953
52.227,12.34867,-0.02808277,0.31992,0.61985
52.827,12.50505,-0.02990936,0.37417,0.62016
53.427,12.6492,-0.03049725,0.41071,0.62047
54.027,12.7843,-0.02978321,0.44082,0.62078
54.627,12.9121,-0.03117167,0.475,0.62109
55.227,13.03359,-0.03000398,0.50504,0.6214
55.827,13.15037,-0.03263235,0.52784,0.62171
56.427,13.2634,-0.03277866,0.54546,0.62202
57.027,13.37345,-0.03053758,0.57735,0.62232
57.627,13.48,-0.03161849,0.61182,0.62262
58.227,13.58355,-0.03289666,0.61692,0.62292
58.827,13.68479,-0.03316267,0.64954,0.62323
59.427,13.78374,-0.03313794,0.67568,0.62352
60.027,13.8817,-0.03489082,0.69582,0.62382
60.627,13.97807,-0.03419987,0.72598,0.62412
61.227,14.0715,-0.0342195,0.73697,0.62442
61.827,14.16376,-0.03448541,0.7453,0.62471
62.427,14.25477,-0.03596722,0.76712,0.625
63.027,14.34496,-0.03498157,0.79403,0.62529
63.627,14.4331,-0.03597986,0.807,0.62559
64.227,14.52048,-0.0359754,0.82577,0.62587
64.827,14.60661,-0.03594064,0.8457,0.62616
65.427,14.6921,-0.0292571,0.85402,0.62645
66.027,14.7765,-0.03719339,0.87608,0.62674
66.627,14.8598,-0.03885826,0.88493,0.62702
67.227,14.942,-0.03799094,0.90555,0.6273
67.827,15.02336,-0.03948025,0.92199,0.62758
68.427,15.10452,-0.03162606,0.93599,0.62787
69.027,15.1845,-0.04705059,0.94954,0.62814
69.627,15.26409,-0.04132886,0.97565,0.62842
70.227,15.3423,-0.04143494,0.97785,0.6287
70.827,15.41991,-0.04135332,1.00103,0.62897
71.427,15.4964,-0.04157023,1.01698,0.62925
72.027,15.5731,-0.04130963,1.03908,0.62952
72.627,15.64914,-0.04234262,1.05512,0.62979
73.227,15.72489,-0.03262741,1.05973,0.63006
73.827,15.7993,-0.04912006,1.09424,0.63033
74.427,15.87319,-0.04404448,1.09706,0.6306
75.027,15.9466,-0.04239937,1.1145,0.63087
75.627,16.0194,-0.04311,1.12548,0.63113
76.227,16.09199,-0.0445091,1.13752,0.6314
76.827,16.1641,-0.04401603,1.1534,0.63166
77.427,16.23591,-0.04571103,1.17663,0.63192
78.027,16.30699,-0.03501127,1.18657,0.63218
78.627,16.37763,-0.05663362,1.19807,0.63244
79.227,16.44802,-0.04608936,1.20362,0.6327
79.827,16.51763,-0.04603487,1.21878,0.63296
80.427,16.58705,-0.04643499,1.23384,0.63321
81.027,16.65588,-0.0487037,1.23816,0.63347
81.627,16.7245,-0.04870003,1.26095,0.63372
82.227,16.79255,-0.04849404,1.25835,0.63397
82.827,16.86042,-0.04877291,1.27389,0.63422
83.427,16.9279,-0.04835329,1.27662,0.63447
84.027,16.99521,-0.04935294,1.28876,0.63472
84.627,17.06211,-0.0479702,1.29061,0.63496
85.227,17.12869,-0.05556772,1.29336,0.63521
85.827,17.1948,-0.05221042,1.29866,0.63545
86.427,17.26052,-0.05359134,1.30703,0.63569
87.027,17.32589,-0.0506103,1.32016,0.63594
87.627,17.391,-0.05513605,1.33487,0.63618
88.227,17.45569,-0.05624508,1.33768,0.63642
88.827,17.52,-0.05533227,1.33283,0.63665
89.427,17.58427,-0.05532077,1.34116,0.63689
90.027,17.6483,-0.05601964,1.33975,0.63712
90.627,17.7122,-0.04232109,1.36035,0.63736
91.227,17.77637,-0.05336148,1.35534,0.63759
91.827,17.83959,-0.05676692,1.35046,0.63782
92.427,17.9027,-0.05704003,1.35759,0.63805
93.027,17.96554,-0.05705281,1.3504,0.63828
93.627,18.02819,-0.06699034,1.35419,0.63851
94.227,18.09085,-0.06076625,1.35679,0.63873
94.827,18.15335,-0.06044824,1.35594,0.63896
95.427,18.2153,-0.05945704,1.35714,0.63918
96.027,18.27704,-0.05814245,1.36056,0.6394
96.627,18.3387,-0.0594503,1.36226,0.63963
97.227,18.4006,-0.05991092,1.35975,0.63985
97.827,18.46217,-0.06167194,1.36306,0.64006
98.427,18.5232,-0.06070805,1.3549,0.64028
99.027,18.58417,-0.05967108,1.35089,0.6405
99.627,18.6451,-0.05970763,1.34391,0.64071
100.227,18.70598,-0.06076932,1.34748,0.64093
100.827,18.76689,-0.06207413,1.35344,0.64114
101.427,18.82742,-0.06210884,1.33911,0.64135
102.027,18.88768,-0.06340014,1.3462,0.64156
102.627,18.94826,-0.0634,1.34574,0.64177
103.227,19.00865,-0.06339999,1.34046,0.64197
103.827,19.06877,-0.06469553,1.34127,0.64218
104.427,19.12856,-0.06471998,1.34192,0.64239
105.027,19.18821,-0.06446322,1.33755,0.64259
105.627,19.24792,-0.06339987,1.35226,0.64279
106.227,19.30734,-0.06458669,1.33182,0.64299
106.827,19.3671,-0.06471994,1.34655,0.64319
107.427,19.42653,-0.06471975,1.33922,0.64339
108.027,19.48601,-0.06588512,1.34139,0.64359
108.627,19.5454,-0.06602993,1.33584,0.64378
109.227,19.60454,-0.06597972,1.34352,0.64398
109.827,19.66367,-0.06734903,1.33331,0.64417
110.427,19.7227,-0.06734999,1.32709,0.64436
111.027,19.7818,-0.06733034,1.33184,0.64455
111.627,19.84059,-0.06600408,1.32744,0.64474
112.227,19.89923,-0.06734,1.33675,0.64493
112.827,19.9575,-0.06734,1.32989,0.64512
113.427,20.01628,-0.06732465,1.33595,0.6453
114.027,20.075,-0.06668534,1.33819,0.64549
114.627,20.13385,-0.06767979,1.33722,0.64567
115.227,20.19231,-0.06896481,1.3107,0.64585
115.827,20.25049,-0.06898991,1.31045,0.64603
116.427,20.30854,-0.06748112,1.30821,0.64621
117.027,20.36673,-0.06748587,1.3072,0.64639
117.627,20.42473,-0.06746002,1.31703,0.64657
118.227,20.48295,-0.0674602,1.318,0.64674
118.827,20.541,-0.06664789,1.31107,0.64692
119.427,20.59893,-0.06744362,1.30752,0.64709
120.027,20.65691,-0.06744997,1.31105,0.64726
120.627,20.71441,-0.06745001,1.30863,0.64743
121.227,20.77212,-0.06747472,1.31153,0.6476
121.827,20.8298,-0.06839725,1.3156,0.64777
122.427,20.8871,-0.06876752,1.3062,0.64794
123.027,20.94462,-0.06745674,1.31145,0.64811
123.627,21.00206,-0.06745999,1.32238,0.64827
124.227,21.05921,-0.06745962,1.32367,0.64843
124.827,21.11668,-0.06877557,1.32267,0.64859
125.427,21.17391,-0.07008825,1.33413,0.64875
126.027,21.23077,-0.07008996,1.32932,0.64891
126.627,21.28785,-0.07015472,1.3376,0.64907
127.227,21.34477,-0.06909953,1.34306,0.64923
127.827,21.40145,-0.07032779,1.34665,0.64938
128.427,21.45835,-0.06909847,1.35396,0.64954
129.027,21.5149,-0.07040826,1.345,0.64969
129.627,21.57135,-0.07041999,1.34771,0.64984
130.227,21.6278,-0.07042,1.36465,0.64999
130.827,21.6839,-0.07042,1.36918,0.65014
131.427,21.74019,-0.07042005,1.35853,0.65029
132.027,21.79626,-0.06999983,1.36112,0.65044
132.627,21.85267,-0.07042686,1.37175,0.65058
133.227,21.90906,-0.07042,1.3612,0.65073
133.827,21.96519,-0.07042003,1.37119,0.65087
134.427,22.0213,-0.07046092,1.37053,0.65101
135.027,22.0771,-0.06793421,1.37689,0.65115
135.627,22.13268,-0.07073637,1.37739,0.65129
136.227,22.1884,-0.07063998,1.38328,0.65143
136.827,22.24395,-0.07064001,1.39299,0.65157
137.427,22.29963,-0.07064206,1.38572,0.6517
138.027,22.35535,-0.06990865,1.39512,0.65184
138.627,22.4108,-0.07064025,1.40165,0.65197
139.227,22.46613,-0.07064001,1.40656,0.6521
139.827,22.52131,-0.07065228,1.39979,0.65223
140.427,22.5767,-0.07061382,1.40484,0.65236
141.027,22.63184,-0.07064005,1.41845,0.65249
141.627,22.68725,-0.07181752,1.40999,0.65262
142.227,22.74241,-0.07078655,1.42227,0.65274
142.827,22.79775,-0.07155965,1.42048,0.65287
143.427,22.85299,-0.07293989,1.43134,0.65299
144.027,22.9081,-0.07270229,1.43721,0.65311
144.627,22.96325,-0.07163111,1.43039,0.65324
145.227,23.018,-0.07293455,1.44956,0.65335
145.827,23.07293,-0.07301839,1.44858,0.65347
146.427,23.12771,-0.07196056,1.44998,0.65359
147.027,23.18253,-0.07196,1.44329,0.65371
147.627,23.2375,-0.07196,1.45369,0.65382
148.227,23.29225,-0.07196069,1.46051,0.65393
148.827,23.34712,-0.07193444,1.45908,0.65405
149.427,23.40174,-0.07217365,1.4696,0.65416
150.027,23.45632,-0.07261602,1.4681,0.65427
150.627,23.5111,-0.07359643,1.46716,0.65437
151.227,23.56567,-0.07360957,1.47189,0.65448
151.827,23.62033,-0.07392962,1.47075,0.65459
152.427,23.6747,-0.07392321,1.47928,0.65469
153.027,23.72925,-0.07524991,1.48204,0.6548
153.627,23.78407,-0.07522626,1.49161,0.6549
154.227,23.8387,-0.07393015,1.50199,0.655
154.827,23.89339,-0.07388642,1.49839,0.6551
155.427,23.94797,-0.07524082,1.49597,0.6552
156.027,24.00238,-0.07523976,1.49374,0.6553
156.627,24.05676,-0.07651966,1.50224,0.65539
157.227,24.11114,-0.07736117,1.51139,0.65549
157.827,24.16545,-0.07655964,1.51089,0.65558
158.427,24.2197,-0.07656248,1.51273,0.65567
159.027,24.274,-0.07787816,1.50891,0.65576
159.627,24.3285,-0.07788,1.52034,0.65585
160.227,24.3828,-0.07788,1.53192,0.65594
160.827,24.4372,-0.07788,1.53604,0.65603
161.427,24.4914,-0.07788,1.54021,0.65612
162.027,24.54554,-0.07788701,1.53542,0.6562
162.627,24.59968,-0.07657043,1.54716,0.65629
163.227,24.65384,-0.07656835,1.55771,0.65637
163.827,24.70833,-0.07525677,1.5712,0.65645
164.427,24.76267,-0.07393747,1.56247,0.65653
165.027,24.81701,-0.07392882,1.56136,0.65661
165.627,24.87112,-0.07467541,1.56652,0.65669
166.227,24.9251,-0.0758074,1.57541,0.65677
166.827,24.97922,-0.07601,1.56926,0.65684
167.427,25.03345,-0.07592959,1.58195,0.65692
168.027,25.08749,-0.07733018,1.5813,0.65699
168.627,25.14154,-0.07738009,1.59615,0.65706
169.227,25.19546,-0.07798958,1.59584,0.65713
169.827,25.24955,-0.07798073,1.59862,0.6572
170.427,25.30385,-0.07535732,1.60948,0.65727
171.027,25.35819,-0.07538508,1.6137,0.65734
171.627,25.41251,-0.07404082,1.60893,0.6574
172.227,25.46659,-0.07447953,1.59662,0.65747
172.827,25.52046,-0.07535017,1.61817,0.65753
173.427,25.57421,-0.07535,1.60324,0.65759
174.027,25.6281,-0.07535,1.61352,0.65766
174.627,25.68204,-0.07535003,1.61539,0.65772
175.227,25.7361,-0.07531629,1.62854,0.65777
175.827,25.79,-0.07570082,1.61306,0.65783
176.427,25.84395,-0.07705149,1.61905,0.65789
177.027,25.89786,-0.07732603,1.61721,0.65794
177.627,25.95191,-0.07791233,1.6312,0.658
178.227,26.00587,-0.07798006,1.62864,0.65805
178.827,26.05977,-0.07797927,1.63104,0.6581
179.427,26.11373,-0.07930674,1.63471,0.65815
180.027,26.1675,-0.0793,1.63637,0.6582
180.627,26.22124,-0.07930006,1.64392,0.65825
181.227,26.2752,-0.07920265,1.64782,0.6583
181.827,26.32897,-0.08062043,1.65721,0.65834
182.427,26.38212,-0.07931331,1.65483,0.65839
183.027,26.43573,-0.07941886,1.64312,0.65843
183.627,26.4893,-0.08129241,1.65805,0.65847
184.227,26.54288,-0.08205033,1.66609,0.65851
184.827,26.5973,-0.08205,1.65391,0.65855
185.427,26.6511,-0.08205,1.66311,0.65859
186.027,26.70492,-0.08205096,1.65871,0.65863
186.627,26.75856,-0.08333949,1.66272,0.65867
187.227,26.81235,-0.08347825,1.66377,0.6587
187.827,26.866,-0.08465302,1.66406,0.65874
188.427,26.9196,-0.08466478,1.66681,0.65877
189.027,26.97335,-0.08336099,1.67491,0.6588
189.627,27.02698,-0.08336,1.67756,0.65883
190.227,27.0804,-0.08335988,1.67745,0.65886
190.827,27.134,-0.08380428,1.67462,0.65889
191.427,27.18765,-0.08468005,1.69333,0.65892
192.027,27.24125,-0.08483283,1.69344,0.65894
192.627,27.2949,-0.08769247,1.70226,0.65897
193.227,27.34849,-0.0884632,1.69918,0.65899
193.827,27.40165,-0.08601273,1.70899,0.65901
194.427,27.45508,-0.08609642,1.71223,0.65904
195.027,27.50859,-0.08741965,1.71641,0.65906
195.627,27.56206,-0.08813086,1.71583,0.65907
196.227,27.6158,-0.08807998,1.72143,0.65909
196.827,27.6691,-0.08807917,1.72125,0.65911
197.427,27.72245,-0.08873951,1.73805,0.65913
198.027,27.77577,-0.0887405,1.73685,0.65914
198.627,27.82917,-0.08940007,1.7385,0.65915
199.227,27.88253,-0.08939963,1.74503,0.65916
199.827,27.9359,-0.09077403,1.74202,0.65918
200.427,27.98933,-0.09071003,1.74411,0.65919
201.027,28.0427,-0.09165558,1.75021,0.65919
201.627,28.0962,-0.09202012,1.75144,0.6592
202.227,28.1496,-0.09238975,1.75674,0.65921
202.827,28.20304,-0.0933403,1.78095,0.65921
203.427,28.25633,-0.09376631,1.77907,0.65922
204.027,28.3098,-0.09466003,1.76612,0.65922
204.627,28.3632,-0.09606527,1.78167,0.65922
205.227,28.4167,-0.0955185,1.77934,0.65922
205.827,28.47025,-0.09466064,1.78947,0.65922
206.427,28.5235,-0.09399406,1.7832,0.65922
207.027,28.5766,-0.08937619,1.78737,0.65922
207.627,28.6298,-0.1004,1.80392,0.65922
208.227,28.68295,-0.10172,1.80271,0.65921
208.827,28.73644,-0.09860745,1.80554,0.65921
209.427,28.7899,-0.09528902,1.80764,0.6592
210.027,28.84315,-0.09203103,1.79866,0.65919
210.627,28.8964,-0.10032,1.81842,0.65918
211.227,28.9494,-0.10769,1.82641,0.65917
211.827,29.00276,-0.10568,1.82613,0.65916
212.427,29.05622,-0.10314,1.83653,0.65915
213.027,29.1098,-0.1024,1.84352,0.65913
213.627,29.16323,-0.10134,1.85253,0.65912
214.227,29.2165,-0.10146,1.84957,0.6591
214.827,29.26985,-0.10281,1.85697,0.65909
215.427,29.32315,-0.10352,1.85482,0.65907
216.027,29.37655,-0.10567,1.87017,0.65905
216.627,29.4299,-0.10563,1.86138,0.65903
217.227,29.4832,-0.10559,1.86625,0.65901
217.827,29.53657,-0.10778,1.87099,0.65898
218.427,29.59,-0.10991,1.8767,0.65896
219.027,29.6433,-0.11094,1.87859,0.65894
219.627,29.69687,-0.10979,1.89157,0.65891
220.227,29.7501,-0.10982,1.89331,0.65888
220.827,29.8034,-0.11103,1.90791,0.65886
221.427,29.8569,-0.11526,1.89212,0.65883
222.027,29.9102,-0.1166,1.88607,0.6588
222.627,29.9637,-0.11658,1.896,0.65876
223.227,30.0172,-0.1153,1.89253,0.65873
223.827,30.07051,-0.11816,1.89908,0.6587
224.427,30.12371,-0.12014,1.89478,0.65866
225.027,30.17704,-0.12143,1.88864,0.65863
225.627,30.2302,-0.12143,1.88928,0.65859
226.227,30.2836,-0.12107,1.89289,0.65855
226.827,30.33715,-0.12357,1.88973,0.65852
227.427,30.3906,-0.12472,1.89019,0.65848
228.027,30.44411,-0.12472,1.89617,0.65843
228.627,30.49755,-0.1261,1.88354,0.65839
229.227,30.551,-0.12868,1.88129,0.65835
229.827,30.60458,-0.13032,1.8776,0.65831
230.427,30.65799,-0.13139,1.88137,0.65826
231.027,30.71138,-0.13149,1.87376,0.65821
231.627,30.7648,-0.13371,1.89103,0.65817
232.227,30.81815,-0.13547,1.88669,0.65812
232.827,30.8716,-0.13699,1.87578,0.65807
233.427,30.9249,-0.13966,1.87086,0.65802
234.027,30.9781,-0.14101,1.85732,0.65797
234.627,31.03125,-0.14384,1.85221,0.65791
235.227,31.0846,-0.14606,1.8631,0.65786
235.827,31.138,-0.14787,1.84772,0.65781
236.427,31.19148,-0.14931,1.84943,0.65775
237.027,31.24509,-0.15161,1.84772,0.65769
237.627,31.2986,-0.15476,1.8499,0.65764
238.227,31.35203,-0.15605,1.84852,0.65758
238.827,31.4055,-0.15694,1.85573,0.65752
239.427,31.45903,-0.15577,1.83233,0.65746
240.027,31.5125,-0.15848,1.83312,0.65739
240.627,31.56604,-0.16823,1.83042,0.65733
241.227,31.61958,-0.16399,1.81771,0.65727
241.827,31.6731,-0.16579,1.82655,0.6572
242.427,31.72669,-0.1667,1.81801,0.65714
243.027,31.7801,-0.15949,1.81018,0.65707
243.627,31.8336,-0.17913,1.81394,0.657
244.227,31.88707,-0.17607,1.81125,0.65693
244.827,31.9406,-0.17609,1.80716,0.65686
245.427,31.9942,-0.17877,1.79364,0.65679
246.027,32.04773,-0.17988,1.784,0.65672
246.627,32.1012,-0.18236,1.77185,0.65664
247.227,32.15478,-0.18651,1.78249,0.65657
247.827,32.2083,-0.18979,1.77325,0.6565
248.427,32.2618,-0.1928,1.75498,0.65642
249.027,32.31523,-0.19412,1.76792,0.65634
249.627,32.36882,-0.19641,1.77051,0.65626
250.227,32.4223,-0.19983,1.76809,0.65618
250.827,32.47589,-0.20052,1.76432,0.6561
251.427,32.52949,-0.20072,1.75471,0.65602
252.027,32.583,-0.20412,1.76574,0.65594
252.627,32.6367,-0.20728,1.76907,0.65586
253.227,32.69042,-0.20952,1.76103,0.65577
253.827,32.74395,-0.21105,1.76429,0.65569
254.427,32.79761,-0.21571,1.74404,0.6556
255.027,32.85113,-0.21828,1.75536,0.65551
255.627,32.90464,-0.22099,1.74891,0.65542
256.227,32.95813,-0.22367,1.75121,0.65534
256.827,33.01148,-0.22728,1.74842,0.65525
257.427,33.0646,-0.2319,1.75044,0.65515
258.027,33.1178,-0.23242,1.75409,0.65506
258.627,33.1715,-0.23308,1.74637,0.65497
259.227,33.22505,-0.23777,1.74716,0.65487
259.827,33.2788,-0.2401,1.7431,0.65478
260.427,33.33266,-0.24401,1.73375,0.65468
261.027,33.38615,-0.24904,1.74211,0.65459
261.627,33.43983,-0.25058,1.75301,0.65449
262.227,33.49353,-0.25324,1.75786,0.65439
262.827,33.54722,-0.25653,1.75124,0.65429
263.427,33.60089,-0.25886,1.74775,0.65419
264.027,33.6543,-0.26284,1.74606,0.65409
264.627,33.70791,-0.26529,1.74483,0.65398
265.227,33.7612,-0.26959,1.75578,0.65388
265.827,33.81475,-0.27545,1.74527,0.65377
266.427,33.86831,-0.27885,1.74852,0.65367
267.027,33.92197,-0.28161,1.74927,0.65356
267.627,33.9757,-0.28585,1.75846,0.65345
268.227,34.0294,-0.29057,1.75408,0.65335
268.827,34.08307,-0.29483,1.75377,0.65324
269.427,34.1367,-0.29829,1.75366,0.65313
270.027,34.19036,-0.3021,1.75263,0.65301
270.627,34.244,-0.3054,1.7562,0.6529
271.227,34.29775,-0.31063,1.75,0.65279
271.827,34.35147,-0.31598,1.75841,0.65267
272.427,34.40522,-0.3198,1.75572,0.65256
273.027,34.45893,-0.32792,1.74465,0.65244
273.627,34.51276,-0.33308,1.75025,0.65233
274.227,34.56647,-0.33538,1.74348,0.65221
274.827,34.62027,-0.34169,1.74953,0.65209
275.427,34.674,-0.34627,1.75285,0.65197
276.027,34.72765,-0.34988,1.73239,0.65185
276.627,34.78154,-0.35453,1.73862,0.65173
277.227,34.83526,-0.3615,1.74169,0.6516
277.827,34.88905,-0.36711,1.73556,0.65148
278.427,34.9428,-0.37394,1.73965,0.65136
279.027,34.9965,-0.38165,1.73495,0.65123
279.627,35.05028,-0.38727,1.73962,0.6511
280.227,35.1041,-0.39059,1.73934,0.65098
280.827,35.15809,-0.39895,1.72935,0.65085
281.427,35.2121,-0.40574,1.73396,0.65072
282.027,35.26592,-0.41104,1.72907,0.65059
282.627,35.31982,-0.41569,1.72881,0.65046
283.227,35.37353,-0.42431,1.72365,0.65033
283.827,35.42732,-0.43284,1.72638,0.6502
284.427,35.48134,-0.44016,1.72664,0.65006
285.027,35.53524,-0.44707,1.72335,0.64993
285.627,35.5891,-0.45299,1.7096,0.64979
286.227,35.6428,-0.46091,1.71962,0.64966
286.827,35.69647,-0.4699,1.72918,0.64952
287.427,35.75023,-0.47346,1.7286,0.64938
288.027,35.80405,-0.48257,1.73328,0.64924
288.627,35.85814,-0.49047,1.73158,0.6491
289.227,35.91207,-0.49797,1.73269,0.64896
289.827,35.96607,-0.50619,1.73925,0.64882
290.427,36.02003,-0.51574,1.72781,0.64868
291.027,36.07394,-0.52425,1.74185,0.64853
291.627,36.12786,-0.53284,1.73806,0.64839
292.227,36.1818,-0.54199,1.72878,0.64825
292.827,36.2358,-0.54978,1.72169,0.6481
293.427,36.28978,-0.56074,1.71802,0.64795
294.027,36.3437,-0.57116,1.71908,0.64781
294.627,36.3978,-0.5803,1.73027,0.64766
295.227,36.45173,-0.58995,1.72629,0.64751
295.827,36.50567,-0.59658,1.72228,0.64736
296.427,36.5598,-0.60593,1.74399,0.64721
297.027,36.61376,-0.61594,1.73511,0.64706
297.627,36.66773,-0.62671,1.73574,0.6469
298.227,36.72141,-0.63638,1.74526,0.64675
298.827,36.77561,-0.64494,1.73993,0.6466
299.427,36.82983,-0.6551,1.7445,0.64644
300.027,36.88388,-0.66615,1.74484,0.64628
300.627,36.93843,-0.67649,1.73427,0.64613
301.227,36.99243,-0.68792,1.75651,0.64597
301.827,37.04645,-0.69748,1.75297,0.64581
302.427,37.10071,-0.70973,1.76409,0.64565
303.027,37.15497,-0.72058,1.77137,0.64549
303.627,37.2093,-0.73129,1.76984,0.64533
304.227,37.26356,-0.74318,1.77434,0.64517
304.827,37.31783,-0.75311,1.77652,0.64501
305.427,37.372,-0.76142,1.78668,0.64484
306.027,37.42622,-0.77463,1.78818,0.64468
306.627,37.48053,-0.78644,1.78897,0.64451
307.227,37.53481,-0.79762,1.79339,0.64435
307.827,37.5891,-0.81079,1.79675,0.64418
308.427,37.64311,-0.82158,1.79649,0.64401
309.027,37.69741,-0.8332,1.805,0.64385
309.627,37.75158,-0.84489,1.81455,0.64368
310.227,37.80601,-0.85866,1.82403,0.64351
310.827,37.86037,-0.87207,1.81642,0.64334
311.427,37.91467,-0.88475,1.84131,0.64316
312.027,37.96907,-0.89798,1.84626,0.64299
312.627,38.02339,-0.91105,1.84571,0.64282
313.227,38.07779,-0.92419,1.84817,0.64265
313.827,38.13215,-0.93631,1.86197,0.64247
314.427,38.18646,-0.95243,1.88106,0.6423
315.027,38.24072,-0.96382,1.88947,0.64212
315.627,38.2951,-0.97527,1.88655,0.64194
316.227,38.3495,-0.9911,1.89497,0.64176
316.827,38.4041,-1.00433,1.90487,0.64159
317.427,38.45864,-1.01744,1.90298,0.64141
318.027,38.5133,-1.03301,1.91796,0.64123
318.627,38.56765,-1.04671,1.92588,0.64105
319.227,38.622,-1.06123,1.93646,0.64086
319.827,38.6766,-1.07438,1.94172,0.64068
320.427,38.73079,-1.08871,1.93925,0.6405
321.027,38.78532,-1.1007,1.94356,0.64031
321.627,38.8399,-1.11625,1.94753,0.64013
322.227,38.89424,-1.13146,1.96979,0.63994
322.827,38.9491,-1.14553,1.97244,0.63976
323.427,39.00353,-1.1621,1.98036,0.63957
324.027,39.0581,-1.17643,1.98245,0.63938
324.627,39.11286,-1.1918,1.99347,0.6392
325.227,39.1676,-1.20625,2.008,0.63901
325.827,39.22221,-1.22316,2.01014,0.63882
326.427,39.27685,-1.23915,2.02163,0.63863
327.027,39.33136,-1.25538,2.02728,0.63843
327.627,39.3859,-1.27089,2.03646,0.63824
328.227,39.44059,-1.28447,2.04209,0.63805
328.827,39.49524,-1.30162,2.05026,0.63786
329.427,39.54999,-1.31894,2.0581,0.63766
330.027,39.60464,-1.33521,2.06283,0.63747
330.627,39.65932,-1.35149,2.07105,0.63727
331.227,39.71397,-1.36681,2.07383,0.63707
331.827,39.76858,-1.38209,2.08531,0.63688
332.427,39.82333,-1.39866,2.09604,0.63668
333.027,39.87802,-1.41877,2.10671,0.63648
333.627,39.9328,-1.43572,2.11791,0.63628
334.227,39.9876,-1.45402,2.13142,0.63608
334.827,40.04241,-1.47344,2.12907,0.63588
335.427,40.09731,-1.49109,2.14617,0.63568
336.027,40.15222,-1.5097,2.15362,0.63548
336.627,40.20713,-1.5272,2.17177,0.63527
337.227,40.262,-1.54284,2.17864,0.63507
337.827,40.3168,-1.56162,2.18365,0.63487
338.427,40.37138,-1.5795,2.19994,0.63466
339.027,40.42615,-1.5975,2.20451,0.63446
339.627,40.4811,-1.61756,2.21924,0.63425
340.227,40.53608,-1.63624,2.23371,0.63404
340.827,40.5915,-1.65553,2.23416,0.63383
341.427,40.64645,-1.67357,2.25037,0.63363
342.027,40.70125,-1.69334,2.2636,0.63342
342.627,40.7562,-1.7136,2.28275,0.63321
343.227,40.81107,-1.73503,2.28879,0.633
343.827,40.86615,-1.75458,2.30513,0.63279
344.427,40.9213,-1.77312,2.32172,0.63257
345.027,40.9763,-1.79543,2.33721,0.63236
345.627,41.0315,-1.81661,2.34732,0.63215
346.227,41.08652,-1.83636,2.35856,0.63193
346.827,41.14162,-1.85739,2.36777,0.63172
347.427,41.1967,-1.87712,2.37709,0.6315
348.027,41.25182,-1.89786,2.39252,0.63129
348.627,41.30692,-1.91943,2.40708,0.63107
349.227,41.3619,-1.93981,2.41827,0.63086
349.827,41.4169,-1.96307,2.43479,0.63064
350.427,41.47209,-1.98555,2.44293,0.63042
351.027,41.5273,-2.00421,2.46099,0.6302
351.627,41.58249,-2.0274,2.46969,0.62998
352.227,41.63765,-2.04972,2.46926,0.62976
352.827,41.6929,-2.07302,2.48442,0.62954
353.427,41.74807,-2.09529,2.49739,0.62932
354.027,41.80344,-2.11592,2.50435,0.6291
354.627,41.8588,-2.13857,2.5065,0.62887
355.227,41.91402,-2.1623,2.50737,0.62865
355.827,41.96928,-2.18631,2.50456,0.62843
356.427,42.02453,-2.20953,2.51027,0.6282
357.027,42.07971,-2.23175,2.50517,0.62798
357.627,42.1349,-2.25645,2.50772,0.62775
358.227,42.1901,-2.28116,2.4985,0.62752
358.827,42.24536,-2.30453,2.48201,0.6273
359.427,42.30038,-2.32892,2.46697,0.62707
360.027,42.35556,-2.3532,2.45667,0.62684
360.627,42.41101,-2.37519,2.42681,0.62661
361.227,42.46633,-2.39957,2.4181,0.62638
361.827,42.52218,-2.42111,2.36659,0.62615
362.427,42.57758,-2.4442,2.34228,0.62592
363.027,42.63292,-2.46749,2.30276,0.62569
363.627,42.68845,-2.48924,2.24773,0.62546
364.227,42.74388,-2.51166,2.20178,0.62523
364.827,42.7992,-2.53277,2.15333,0.62499
365.427,42.8545,-2.55489,2.08078,0.62476
366.027,42.90982,-2.57689,2.03292,0.62452
366.627,42.9651,-2.59337,1.96001,0.62429
367.227,43.02062,-2.61361,1.85595,0.62405
367.827,43.07607,-2.6325,1.77344,0.62382
368.427,43.13152,-2.64963,1.69143,0.62358
369.027,43.18697,-2.66863,1.58392,0.62334
369.627,43.2425,-2.68455,1.49615,0.62311
370.227,43.29813,-2.69856,1.38465,0.62287
370.827,43.3536,-2.71434,1.29668,0.62263
371.427,43.40899,-2.72708,1.18324,0.62239
372.027,43.4645,-2.74109,1.08983,0.62215
372.627,43.51983,-2.75324,0.9805,0.62191
373.227,43.5754,-2.76319,0.89246,0.62167
373.827,43.631,-2.77199,0.8002,0.62143
374.427,43.68655,-2.78008,0.71756,0.62118
375.027,43.7421,-2.78842,0.65022,0.62094
375.627,43.79753,-2.79836,0.568,0.6207
376.227,43.85287,-2.80408,0.50889,0.62046
376.827,43.90827,-2.81001,0.44829,0.62021
377.427,43.9636,-2.81534,0.40164,0.61997
378.027,44.01924,-2.81893,0.35698,0.61972
378.627,44.07495,-2.82244,0.31795,0.61947
379.227,44.1303,-2.82644,0.29644,0.61923
379.827,44.18594,-2.83082,0.2729,0.61898
380.427,44.24138,-2.83537,0.23759,0.61873
381.027,44.29684,-2.83884,0.21886,0.61849
381.627,44.3527,-2.84202,0.20714,0.61824
382.227,44.40834,-2.84492,0.18248,0.61799
382.827,44.4641,-2.84911,0.1746,0.61774
383.427,44.51972,-2.85231,0.15933,0.61749
384.027,44.5753,-2.85551,0.15415,0.61724
384.627,44.631,-2.85915,0.13926,0.61699
385.227,44.6867,-2.86283,0.13649,0.61673
385.827,44.74261,-2.86753,0.12362,0.61648
386.427,44.79835,-2.87,0.09779046,0.61623
387.027,44.85426,-2.87231,0.10026,0.61598
387.627,44.91018,-2.87383,0.10118,0.61572
388.227,44.966,-2.87786,0.09165433,0.61547
388.827,45.022,-2.88058,0.08702842,0.61521
389.427,45.0779,-2.88397,0.07501348,0.61496
390.027,45.13382,-2.88709,0.07165338,0.6147
390.627,45.18974,-2.88991,0.06513838,0.61445
391.227,45.24577,-2.89235,0.0564012,0.61419
391.827,45.3018,-2.89382,0.04500438,0.61393
392.427,45.3579,-2.89646,0.02533017,0.61368
393.027,45.41398,-2.89904,0.02840545,0.61342
393.627,45.47007,-2.90049,0.01359638,0.61316
394.227,45.5261,-2.90367,0.01427698,0.6129
394.827,45.582,-2.9074,0.00490508,0.61264
395.427,45.63797,-2.90835,-0.00364735,0.61238
396.027,45.6939,-2.91139,-0.0276938,0.61212
396.627,45.74953,-2.91295,-0.02495485,0.61186
397.227,45.8056,-2.9159,-0.03526813,0.6116
397.827,45.8618,-2.91763,-0.04603784,0.61134
398.427,45.91819,-2.91898,-0.05730381,0.61107
399.027,45.9745,-2.92314,-0.0631522,0.61081
399.627,46.0308,-2.9259,-0.07070764,0.61055
400.227,46.08713,-2.92746,-0.0872293,0.61028
400.827,46.14338,-2.93189,-0.08025138,0.61002
401.427,46.19977,-2.93318,-0.10397,0.60976
402.027,46.25606,-2.93467,-0.1029,0.60949
402.627,46.3123,-2.93835,-0.11839,0.60923
403.227,46.3686,-2.94176,-0.12389,0.60896
403.827,46.4249,-2.94315,-0.13404,0.60869
404.427,46.48128,-2.94373,-0.14265,0.60843
405.027,46.53765,-2.94509,-0.14945,0.60816
405.627,46.59393,-2.94804,-0.18062,0.60789
406.227,46.65016,-2.95003,-0.18525,0.60762
406.827,46.70647,-2.95284,-0.1936,0.60736
407.427,46.76291,-2.95523,-0.20356,0.60709
408.027,46.81942,-2.95725,-0.19871,0.60682
408.627,46.87598,-2.9586,-0.20829,0.60655
409.227,46.93251,-2.96299,-0.21353,0.60628
409.827,46.98898,-2.96556,-0.22785,0.60601
410.427,47.04545,-2.96614,-0.24194,0.60574
411.027,47.1021,-2.96787,-0.24042,0.60547
411.627,47.15869,-2.96829,-0.24791,0.60519
412.227,47.21542,-2.97094,-0.25719,0.60492
412.827,47.2722,-2.97264,-0.27426,0.60465
413.427,47.3289,-2.97546,-0.29434,0.60438
414.027,47.3855,-2.97779,-0.29873,0.6041
414.627,47.442,-2.98148,-0.2883,0.60383
415.227,47.49858,-2.98255,-0.28804,0.60356
415.827,47.5552,-2.98596,-0.30399,0.60328
416.427,47.612,-2.98754,-0.31564,0.60301
417.027,47.66861,-2.99059,-0.30415,0.60273
417.627,47.7252,-2.99203,-0.32015,0.60246
418.227,47.7819,-2.99514,-0.32391,0.60218
418.827,47.8384,-2.99642,-0.33837,0.60191
419.427,47.89508,-2.99782,-0.32733,0.60163
420.027,47.9517,-2.999,-0.33766,0.60135
420.627,48.0083,-3.00058,-0.33944,0.60107
421.227,48.0648,-3.00189,-0.35724,0.6008
421.827,48.12142,-3.00532,-0.358,0.60052
422.427,48.17804,-3.00699,-0.35517,0.60024
423.027,48.2348,-3.00991,-0.3593,0.59996
423.627,48.2918,-3.01136,-0.35959,0.59968
424.227,48.3489,-3.01338,-0.37162,0.5994
424.827,48.40563,-3.01586,-0.37815,0.59912
425.427,48.4625,-3.01621,-0.38207,0.59884
426.027,48.51921,-3.02021,-0.39385,0.59856
426.627,48.57587,-3.02153,-0.38634,0.59828
427.227,48.6327,-3.02448,-0.38962,0.598
427.827,48.68951,-3.02722,-0.39956,0.59772
428.427,48.74647,-3.02879,-0.40771,0.59744
429.027,48.80335,-3.03126,-0.40872,0.59715
429.627,48.86018,-3.03165,-0.40009,0.59687
430.227,48.91714,-3.03472,-0.39832,0.59659
430.827,48.9741,-3.03515,-0.39651,0.59631
431.427,49.03113,-3.03746,-0.38675,0.59602
432.027,49.0882,-3.04067,-0.38918,0.59574
432.627,49.1451,-3.04381,-0.37904,0.59545
433.227,49.20203,-3.04309,-0.38372,0.59517
433.827,49.25895,-3.04509,-0.3809,0.59489
434.427,49.3159,-3.04766,-0.38581,0.5946
435.027,49.37301,-3.0476,-0.39006,0.59431
435.627,49.43007,-3.04897,-0.38104,0.59403
436.227,49.48715,-3.05117,-0.38432,0.59374
436.827,49.5441,-3.0528,-0.37406,0.59346
437.427,49.601,-3.05382,-0.37666,0.59317
438.027,49.65782,-3.0559,-0.36579,0.59288
438.627,49.7149,-3.05855,-0.3553,0.5926
439.227,49.77207,-3.05991,-0.36393,0.59231
439.827,49.82931,-3.06123,-0.34661,0.59202
440.427,49.88645,-3.06288,-0.34992,0.59173
441.027,49.94343,-3.06584,-0.3325,0.59144
441.627,50.00063,-3.06879,-0.33715,0.59116
442.227,50.0578,-3.07011,-0.33184,0.59087
442.827,50.11509,-3.07122,-0.33134,0.59058
443.427,50.17233,-3.07417,-0.32379,0.59029
444.027,50.22954,-3.07549,-0.32306,0.59
444.627,50.28669,-3.07813,-0.31197,0.58971
445.227,50.34383,-3.07829,-0.31471,0.58942
445.827,50.40112,-3.0794,-0.30208,0.58913
446.427,50.45835,-3.08137,-0.28371,0.58884
447.027,50.51569,-3.08278,-0.28227,0.58855
447.627,50.57304,-3.0822,-0.2715,0.58825
448.227,50.63041,-3.0835,-0.26706,0.58796
448.827,50.68783,-3.08515,-0.26982,0.58767
449.427,50.7452,-3.08888,-0.25915,0.58738
450.027,50.8026,-3.09188,-0.24967,0.58709
450.627,50.86,-3.09326,-0.251,0.58679
451.227,50.91745,-3.0959,-0.24615,0.5865
451.827,50.97485,-3.09716,-0.2418,0.58621
452.427,51.03225,-3.0974,-0.24419,0.58591
453.027,51.08931,-3.09862,-0.22793,0.58562
453.627,51.14666,-3.09733,-0.21507,0.58533
454.227,51.20407,-3.10016,-0.2135,0.58503
454.827,51.26142,-3.10124,-0.20152,0.58474
455.427,51.31919,-3.10291,-0.21668,0.58444
456.027,51.3767,-3.10422,-0.21373,0.58415
456.627,51.43423,-3.1056,-0.2065,0.58385
457.227,51.49185,-3.10698,-0.20638,0.58356
457.827,51.54943,-3.10817,-0.19504,0.58326
458.427,51.60703,-3.10964,-0.20513,0.58297
459.027,51.66441,-3.11155,-0.19848,0.58267
459.627,51.7218,-3.11221,-0.19279,0.58238
460.227,51.7794,-3.114,-0.18208,0.58208
460.827,51.83679,-3.11645,-0.19188,0.58178
461.427,51.89435,-3.11663,-0.19056,0.58149
462.027,51.95197,-3.11662,-0.18025,0.58119
462.627,52.00971,-3.1163,-0.17601,0.58089
463.227,52.06745,-3.11795,-0.1662,0.5806
463.827,52.12518,-3.12057,-0.17429,0.5803
464.427,52.18291,-3.12088,-0.16846,0.58
465.027,52.24069,-3.12339,-0.16772,0.5797
465.627,52.29854,-3.12474,-0.15935,0.5794
466.227,52.35625,-3.12606,-0.15789,0.57911
466.827,52.41405,-3.12606,-0.14933,0.57881
467.427,52.47185,-3.12749,-0.15514,0.57851
468.027,52.5295,-3.12748,-0.1585,0.57821
468.627,52.58745,-3.12878,-0.1439,0.57791
469.227,52.6453,-3.12883,-0.13498,0.57761
469.827,52.7031,-3.13027,-0.14164,0.57731
470.427,52.7612,-3.13405,-0.14153,0.57701
471.027,52.81915,-3.13406,-0.13892,0.57671
471.627,52.877,-3.13538,-0.13642,0.57641
472.227,52.9348,-3.13499,-0.13457,0.57611
472.827,52.99272,-3.13603,-0.13943,0.57581
473.427,53.0505,-3.13746,-0.13156,0.57551
474.027,53.10839,-3.1397,-0.14338,0.57521
474.627,53.1661,-3.14127,-0.14131,0.57491
475.227,53.2239,-3.14294,-0.12567,0.57461
475.827,53.28164,-3.14351,-0.12199,0.57431
476.427,53.3396,-3.14579,-0.11276,0.57401
477.027,53.39731,-3.14711,-0.13389,0.57371
477.627,53.4552,-3.1471,-0.12684,0.5734
478.227,53.513,-3.14839,-0.13084,0.5731
478.827,53.5708,-3.14974,-0.11445,0.5728
479.427,53.6286,-3.15106,-0.12803,0.5725
480.027,53.68643,-3.15097,-0.13269,0.5722
480.627,53.7443,-3.15389,-0.13558,0.5719
481.227,53.8022,-3.15375,-0.13266,0.57159
481.827,53.8599,-3.15381,-0.13604,0.57129
482.427,53.91769,-3.15374,-0.12836,0.57099
483.027,53.9756,-3.15641,-0.13843,0.57069
483.627,54.0334,-3.15644,-0.13503,0.57038
484.227,54.09125,-3.1564,-0.14007,0.57008
484.827,54.1488,-3.15882,-0.13283,0.56978
485.427,54.20669,-3.15918,-0.13822,0.56947
486.027,54.26477,-3.15785,-0.12943,0.56917
486.627,54.323,-3.15917,-0.11094,0.56887
487.227,54.38142,-3.16051,-0.10837,0.56856
487.827,54.4396,-3.16184,-0.11961,0.56826
488.427,54.4978,-3.16309,-0.12833,0.56795
489.027,54.556,-3.1633,-0.14292,0.56765
489.627,54.61425,-3.1634,-0.12911,0.56735
490.227,54.6724,-3.16581,-0.13038,0.56704
490.827,54.731,-3.16576,-0.1318,0.56674
491.427,54.78932,-3.16576,-0.14273,0.56643
492.027,54.84743,-3.16659,-0.14127,0.56613
492.627,54.90583,-3.16824,-0.14043,0.56583
493.227,54.96394,-3.16969,-0.14019,0.56552
493.827,55.0223,-3.17104,-0.13838,0.56522
494.427,55.0806,-3.17234,-0.14421,0.56491
495.027,55.1391,-3.17234,-0.13382,0.56461
495.627,55.19761,-3.17366,-0.14266,0.5643
496.227,55.25611,-3.17501,-0.14847,0.564
496.827,55.31455,-3.17627,-0.16535,0.56369
497.427,55.3729,-3.17628,-0.15873,0.56339
498.027,55.431,-3.17628,-0.15509,0.56308
498.627,55.4894,-3.17697,-0.15984,0.56278
499.227,55.5477,-3.1776,-0.15973,0.56247
499.827,55.6061,-3.17867,-0.16153,0.56216
500.427,55.6644,-3.17987,-0.1634,0.56186
501.027,55.7227,-3.18116,-0.17107,0.56155
501.627,55.781,-3.18174,-0.16171,0.56125
502.227,55.8395,-3.18255,-0.16562,0.56094
502.827,55.898,-3.18442,-0.15442,0.56064
503.427,55.95665,-3.18499,-0.15081,0.56033
504.027,56.01529,-3.18517,-0.16158,0.56002
504.627,56.0738,-3.18648,-0.16419,0.55972
505.227,56.13231,-3.18649,-0.15198,0.55941
505.827,56.19087,-3.18729,-0.16031,0.55911
506.427,56.24963,-3.1878,-0.15986,0.5588
507.027,56.3083,-3.1878,-0.17208,0.55849
507.627,56.3671,-3.18916,-0.18769,0.55819
508.227,56.4257,-3.18976,-0.18963,0.55788
508.827,56.48425,-3.19039,-0.18706,0.55757
509.427,56.5429,-3.19176,-0.19206,0.55727
510.027,56.6014,-3.19202,-0.2051,0.55696
510.627,56.66,-3.19318,-0.1807,0.55665
511.227,56.7187,-3.19451,-0.19486,0.55635
511.827,56.77723,-3.19517,-0.1966,0.55604
512.427,56.8357,-3.19516,-0.18823,0.55574
513.027,56.8942,-3.19672,-0.19338,0.55543
513.627,56.95256,-3.20008,-0.19041,0.55512
514.227,57.01106,-3.20318,-0.19343,0.55482
514.827,57.0696,-3.20602,-0.18961,0.55451
515.427,57.1281,-3.20604,-0.1696,0.5542
516.027,57.1866,-3.20375,-0.17604,0.5539
516.627,57.2452,-3.20317,-0.17394,0.55359
517.227,57.3039,-3.20187,-0.15723,0.55328
517.827,57.36255,-3.20186,-0.16018,0.55298
518.427,57.42123,-3.20479,-0.16005,0.55267
519.027,57.47984,-3.20613,-0.15889,0.55236
519.627,57.53849,-3.2061,-0.15804,0.55205
520.227,57.59723,-3.20745,-0.16481,0.55175
520.827,57.65589,-3.20745,-0.1467,0.55144
521.427,57.7143,-3.20745,-0.13034,0.55113
522.027,57.77287,-3.20749,-0.1331,0.55083
522.627,57.8315,-3.20876,-0.18103,0.55052
523.227,57.89036,-3.21002,-0.16254,0.55021
523.827,57.94916,-3.20942,-0.16649,0.54991
524.427,58.0077,-3.20942,-0.14331,0.5496
525.027,58.06625,-3.21072,-0.18069,0.54929
525.627,58.12466,-3.21334,-0.16242,0.54899
526.227,58.18317,-3.21346,-0.19757,0.54868
526.827,58.2418,-3.21477,-0.18641,0.54837
527.427,58.30052,-3.21347,-0.20738,0.54807
528.027,58.35932,-3.21347,-0.21309,0.54776
528.627,58.418,-3.21479,-0.18717,0.54745
529.227,58.47671,-3.2161,-0.20392,0.54715
529.827,58.53559,-3.21765,-0.20204,0.54684
530.427,58.5943,-3.21862,-0.18735,0.54653
531.027,58.6532,-3.21197,-0.20126,0.54623
531.627,58.71209,-3.2267,-0.21432,0.54592
532.227,58.77098,-3.22238,-0.18213,0.54561
532.827,58.8301,-3.22093,-0.16448,0.54531
533.427,58.889,-3.22093,-0.18467,0.545
534.027,58.94811,-3.22357,-0.19557,0.5447
534.627,59.0073,-3.22227,-0.21256,0.54439
535.227,59.06632,-3.22397,-0.2209,0.54408
535.827,59.1253,-3.22643,-0.22834,0.54378
536.427,59.18433,-3.22651,-0.22671,0.54347
537.027,59.24338,-3.22653,-0.23415,0.54316
537.627,59.3025,-3.22652,-0.24434,0.54286
538.227,59.3617,-3.22782,-0.24402,0.54255
538.827,59.42103,-3.22785,-0.2541,0.54225
539.427,59.4801,-3.22916,-0.25412,0.54194
540.027,59.5393,-3.22916,-0.25765,0.54163
540.627,59.59848,-3.22916,-0.27485,0.54133
541.227,59.65759,-3.22916,-0.26893,0.54102
541.827,59.7165,-3.23048,-0.26483,0.54072
542.427,59.7756,-3.23182,-0.28019,0.54041
543.027,59.8345,-3.2331,-0.28371,0.54011
543.627,59.89402,-3.23451,-0.28123,0.5398
544.227,59.9532,-3.23587,-0.28648,0.53949
544.827,60.0126,-3.23723,-0.27387,0.53919
545.427,60.0718,-3.23585,-0.27546,0.53888
546.027,60.1312,-3.23859,-0.29784,0.53858
546.627,60.1905,-3.23859,-0.29546,0.53827
547.227,60.25,-3.23859,-0.28008,0.53797
547.827,60.3094,-3.23859,-0.29354,0.53766
548.427,60.3688,-3.23991,-0.30695,0.53736
549.027,60.42813,-3.23991,-0.32632,0.53705
549.627,60.48735,-3.23909,-0.31594,0.53675
550.227,60.5465,-3.23955,-0.33424,0.53644
550.827,60.6057,-3.23816,-0.32286,0.53614
551.427,60.66474,-3.24084,-0.32284,0.53583
552.027,60.72407,-3.24216,-0.34178,0.53553
552.627,60.78334,-3.24132,-0.34758,0.53523
553.227,60.84236,-3.24243,-0.33921,0.53492
553.827,60.9017,-3.24243,-0.34041,0.53462
554.427,60.96082,-3.24375,-0.35428,0.53431
555.027,61.02039,-3.24505,-0.36619,0.53401
555.627,61.0796,-3.24576,-0.33606,0.53371
556.227,61.13909,-3.24638,-0.33044,0.5334
556.827,61.19863,-3.24474,-0.33209,0.5331
557.427,61.25812,-3.24616,-0.34378,0.53279
558.027,61.31759,-3.24751,-0.34681,0.53249
558.627,61.37686,-3.25058,-0.34244,0.53219
559.227,61.43611,-3.25143,-0.36356,0.53188
559.827,61.4955,-3.2521,-0.36326,0.53158
560.427,61.55503,-3.25208,-0.36765,0.53128
561.027,61.6148,-3.25338,-0.38015,0.53098
561.627,61.67451,-3.25342,-0.37806,0.53067
562.227,61.73395,-3.25474,-0.36721,0.53037
562.827,61.79295,-3.25602,-0.36442,0.53007
563.427,61.85244,-3.25537,-0.37118,0.52976
564.027,61.91197,-3.25549,-0.39805,0.52946
564.627,61.9717,-3.25669,-0.39972,0.52916
565.227,62.03141,-3.25783,-0.39954,0.52886
565.827,62.0911,-3.258,-0.40379,0.52856
566.427,62.15068,-3.25669,-0.39709,0.52825
567.027,62.2104,-3.25673,-0.37715,0.52795
567.627,62.2701,-3.25946,-0.3849,0.52765
568.227,62.32982,-3.25943,-0.38295,0.52735
568.827,62.3896,-3.25914,-0.37927,0.52705
569.427,62.4491,-3.25944,-0.39104,0.52675
570.027,62.5087,-3.26007,-0.38256,0.52645
570.627,62.56824,-3.26138,-0.38725,0.52614
571.227,62.62786,-3.26227,-0.40367,0.52584
571.827,62.6875,-3.26414,-0.39794,0.52554
572.427,62.7472,-3.26415,-0.38158,0.52524
573.027,62.80689,-3.26293,-0.38642,0.52494
573.627,62.8667,-3.26564,-0.39763,0.52464
574.227,62.92651,-3.26689,-0.39924,0.52434
574.827,62.98644,-3.26689,-0.38133,0.52404
575.427,63.04541,-3.26689,-0.40625,0.52374
576.027,63.1051,-3.26797,-0.40706,0.52344
576.627,63.16483,-3.26915,-0.40195,0.52314
577.227,63.2252,-3.26787,-0.40008,0.52284
577.827,63.28538,-3.2712,-0.39108,0.52255
578.427,63.3454,-3.27274,-0.3936,0.52225
579.027,63.4053,-3.27167,-0.37791,0.52195
579.627,63.46516,-3.27185,-0.37114,0.52165
580.227,63.5252,-3.27127,-0.38084,0.52135
580.827,63.58509,-3.27128,-0.37397,0.52105
581.427,63.64495,-3.27006,-0.37474,0.52075
582.027,63.7047,-3.27069,-0.35142,0.52046
582.627,63.7645,-3.27125,-0.35642,0.52016
583.227,63.8245,-3.27265,-0.36573,0.51986
583.827,63.8843,-3.27384,-0.36362,0.51956
584.427,63.9442,-3.27381,-0.36539,0.51927
585.027,64.00424,-3.27354,-0.35645,0.51897
585.627,64.06437,-3.27381,-0.36994,0.51867
586.227,64.12424,-3.27667,-0.37874,0.51837
586.827,64.18398,-3.27217,-0.36084,0.51808
587.427,64.2436,-3.28578,-0.36087,0.51778
588.027,64.30355,-3.28263,-0.3606,0.51749
588.627,64.36335,-3.27985,-0.36112,0.51719
589.227,64.4233,-3.27907,-0.37114,0.51689
589.827,64.48321,-3.27852,-0.38871,0.5166
590.427,64.54326,-3.2787,-0.38562,0.5163
591.027,64.6032,-3.28006,-0.38782,0.51601
591.627,64.6631,-3.28006,-0.3631,0.51571
592.227,64.72301,-3.28135,-0.37954,0.51542
592.827,64.78277,-3.2814,-0.36407,0.51512
593.427,64.84262,-3.28127,-0.36446,0.51483
594.027,64.90254,-3.28137,-0.37549,0.51453
594.627,64.9625,-3.28137,-0.35987,0.51424
595.227,65.02263,-3.284,-0.3809,0.51394
595.827,65.08293,-3.28532,-0.38553,0.51365
596.427,65.14305,-3.28663,-0.39029,0.51336
597.027,65.20318,-3.28664,-0.39437,0.51306
597.627,65.26317,-3.28672,-0.3904,0.51277
598.227,65.3232,-3.28532,-0.40876,0.51248
598.827,65.3832,-3.2854,-0.39765,0.51218
599.427,65.44321,-3.28672,-0.37677,0.51189
600.027,65.5035,-3.28796,-0.37098,0.5116
600.627,65.56373,-3.28855,-0.37527,0.51131
601.227,65.62398,-3.29057,-0.36567,0.51101
601.827,65.68422,-3.28961,-0.33407,0.51072
602.427,65.74421,-3.28828,-0.35398,0.51043
603.027,65.80442,-3.28855,-0.35695,0.51014
603.627,65.8646,-3.29092,-0.3538,0.50985
604.227,65.92495,-3.29374,-0.34666,0.50956
604.827,65.98535,-3.29499,-0.34487,0.50927
605.427,66.0458,-3.29489,-0.34327,0.50898
606.027,66.10634,-3.29769,-0.34712,0.50869
606.627,66.16685,-3.2963,-0.34649,0.5084
607.227,66.2272,-3.29627,-0.3299,0.50811
607.827,66.28778,-3.29366,-0.32284,0.50782
608.427,66.348,-3.29498,-0.31783,0.50753
609.027,66.40825,-3.29629,-0.30802,0.50724
609.627,66.4684,-3.29628,-0.2978,0.50695
610.227,66.5287,-3.29628,-0.28707,0.50666
610.827,66.58886,-3.29628,-0.28194,0.50637
611.427,66.6493,-3.29474,-0.29847,0.50608
612.027,66.70962,-3.29475,-0.28947,0.5058
612.627,66.76994,-3.2958,-0.26724,0.50551
613.227,66.83038,-3.29607,-0.26521,0.50522
613.827,66.89079,-3.29609,-0.25378,0.50493
614.427,66.9512,-3.29747,-0.2547,0.50464
615.027,67.01148,-3.30013,-0.23767,0.50436
615.627,67.0718,-3.30013,-0.2238,0.50407
616.227,67.13218,-3.30013,-0.20245,0.50378
616.827,67.19243,-3.30145,-0.18797,0.5035
617.427,67.25262,-3.3001,-0.19928,0.50321
618.027,67.31264,-3.30148,-0.20348,0.50293
618.627,67.3728,-3.30276,-0.19593,0.50264
619.227,67.43313,-3.30276,-0.17839,0.50236
619.827,67.49341,-3.30276,-0.17958,0.50207
620.427,67.55375,-3.30276,-0.18695,0.50179
621.027,67.61423,-3.30406,-0.18805,0.5015
621.627,67.67484,-3.30539,-0.19129,0.50122
622.227,67.73539,-3.30574,-0.17906,0.50093
622.827,67.79599,-3.30565,-0.18705,0.50065
623.427,67.85656,-3.3067,-0.17956,0.50037
624.027,67.91725,-3.30721,-0.20165,0.50008
624.627,67.97768,-3.30803,-0.2007,0.4998
625.227,68.03829,-3.30803,-0.2076,0.49952
625.827,68.09885,-3.30934,-0.18938,0.49923
626.427,68.1594,-3.30934,-0.20484,0.49895
627.027,68.21999,-3.30934,-0.19475,0.49867
627.627,68.28065,-3.30934,-0.19052,0.49839
628.227,68.3415,-3.30918,-0.17233,0.49811
628.827,68.40218,-3.30934,-0.16068,0.49782
629.427,68.46279,-3.30806,-0.15958,0.49754
630.027,68.52341,-3.30934,-0.15761,0.49726
630.627,68.58377,-3.31063,-0.14542,0.49698
631.227,68.64455,-3.31065,-0.1257,0.4967
631.827,68.70525,-3.31065,-0.12457,0.49642
632.427,68.76562,-3.31065,-0.13302,0.49614
633.027,68.8262,-3.30928,-0.12213,0.49586
633.627,68.88674,-3.30934,-0.12274,0.49558
634.227,68.94721,-3.3107,-0.12046,0.49531
634.827,69.00829,-3.31198,-0.09279015,0.49503
635.427,69.06868,-3.31198,-0.10191,0.49475
636.027,69.12925,-3.3146,-0.0909846,0.49447
636.627,69.18956,-3.31461,-0.08968284,0.49419
637.227,69.25024,-3.31329,-0.11077,0.49391
637.827,69.31085,-3.31591,-0.0896709,0.49364
638.427,69.37161,-3.31592,-0.07120584,0.49336
639.027,69.43228,-3.31606,-0.07552997,0.49308
639.627,69.4931,-3.31595,-0.08002617,0.49281
640.227,69.554,-3.31656,-0.07041118,0.49253
640.827,69.61494,-3.31752,-0.08396624,0.49225
641.427,69.67577,-3.31782,-0.07286133,0.49198
642.027,69.7366,-3.31855,-0.08604381,0.4917
642.627,69.7974,-3.3192,-0.0656838,0.49143
643.227,69.8582,-3.31922,-0.0512701,0.49115
643.827,69.919,-3.31922,-0.05594058,0.49088
644.427,69.9799,-3.32052,-0.0464663,0.4906
645.027,70.04065,-3.32054,-0.04798453,0.49033
645.627,70.1015,-3.3202,-0.0487919,0.49006
646.227,70.1623,-3.3202,-0.02992829,0.48978
646.827,70.22314,-3.31947,-0.03583372,0.48951
647.427,70.2841,-3.32087,-0.0288595,0.48924
648.027,70.34489,-3.32086,-0.01188311,0.48896
648.627,70.40581,-3.32076,-0.001994965,0.48869
649.227,70.46687,-3.32349,-0.01599812,0.48842
649.827,70.52797,-3.32436,0.01104183,0.48815
650.427,70.58906,-3.32512,0.03115008,0.48788
651.027,70.65003,-3.32481,0.05648334,0.48761
651.627,70.71109,-3.32368,0.04844195,0.48733
652.227,70.7722,-3.32343,0.07459086,0.48706
652.827,70.83333,-3.32481,0.07069426,0.48679
653.427,70.89441,-3.32621,0.06660261,0.48652
654.027,70.95537,-3.32612,0.09590381,0.48625
654.627,71.01621,-3.32681,0.10214,0.48598
655.227,71.07714,-3.32741,0.12589,0.48572
655.827,71.13812,-3.32731,0.12422,0.48545
656.427,71.1991,-3.32601,0.13522,0.48518
657.027,71.26,-3.32699,0.12574,0.48491
657.627,71.32065,-3.32667,0.14934,0.48464
658.227,71.38135,-3.32667,0.13279,0.48437
658.827,71.4422,-3.32667,0.13264,0.48411
659.427,71.50312,-3.32795,0.13109,0.48384
660.027,71.56404,-3.32929,0.1375,0.48357
660.627,71.62479,-3.3292,0.14206,0.48331
661.227,71.68568,-3.33061,0.14945,0.48304
661.827,71.74659,-3.33061,0.14965,0.48277
662.427,71.80767,-3.33061,0.15452,0.48251
663.027,71.8686,-3.32997,0.14844,0.48224
663.627,71.92949,-3.33062,0.15492,0.48198
664.227,71.99055,-3.33062,0.15874,0.48171
664.827,72.05157,-3.33081,0.1599,0.48145
665.427,72.1126,-3.33194,0.14797,0.48119
666.027,72.17349,-3.33194,0.14867,0.48092
666.627,72.23454,-3.33194,0.16306,0.48066
667.227,72.2957,-3.33321,0.18731,0.4804
667.827,72.35709,-3.33468,0.20188,0.48013
668.427,72.4182,-3.33401,0.21264,0.47987
669.027,72.47904,-3.3327,0.2498,0.47961
669.627,72.53994,-3.3327,0.2759,0.47935
670.227,72.60087,-3.3327,0.26344,0.47908
670.827,72.66196,-3.33226,0.2801,0.47882
671.427,72.723,-3.33423,0.29583,0.47856
672.027,72.78412,-3.3342,0.30652,0.4783
672.627,72.84522,-3.33413,0.31542,0.47804
673.227,72.90638,-3.33413,0.33256,0.47778
673.827,72.96751,-3.33413,0.33441,0.47752
674.427,73.0287,-3.33544,0.33107,0.47726
675.027,73.08969,-3.33676,0.31974,0.477
675.627,73.15079,-3.33545,0.3101,0.47674
676.227,73.2119,-3.33545,0.29825,0.47649
676.827,73.273,-3.33545,0.30606,0.47623
677.427,73.33413,-3.33545,0.30893,0.47597
678.027,73.39528,-3.3368,0.31829,0.47571
678.627,73.45645,-3.3372,0.32481,0.47546
679.227,73.5174,-3.33808,0.28699,0.4752
679.827,73.57871,-3.33677,0.3035,0.47494
680.427,73.63991,-3.33775,0.31002,0.47469
681.027,73.70153,-3.33775,0.32464,0.47443
681.627,73.76257,-3.33775,0.33373,0.47417
682.227,73.82389,-3.33775,0.3323,0.47392
682.827,73.88507,-3.33811,0.36685,0.47366
683.427,73.94643,-3.33808,0.36938,0.47341
684.027,74.00771,-3.3366,0.39401,0.47316
684.627,74.06886,-3.33348,0.38771,0.4729
685.227,74.13001,-3.34475,0.39768,0.47265
685.827,74.19105,-3.34088,0.39917,0.47239
686.427,74.2523,-3.34027,0.41821,0.47214
687.027,74.31359,-3.34033,0.42394,0.47189
687.627,74.3749,-3.34093,0.4223,0.47164
688.227,74.43633,-3.34091,0.43276,0.47138
688.827,74.4977,-3.33994,0.43673,0.47113
689.427,74.5588,-3.34059,0.44867,0.47088
690.027,74.62,-3.3406,0.45597,0.47063
690.627,74.6812,-3.34092,0.47087,0.47038
691.227,74.74247,-3.34093,0.46728,0.47013
691.827,74.80377,-3.34159,0.47536,0.46988
692.427,74.86499,-3.34088,0.46972,0.46963
693.027,74.9263,-3.34094,0.48836,0.46938
693.627,74.98776,-3.33852,0.52098,0.46913
694.227,75.04919,-3.34368,0.51743,0.46888
694.827,75.11052,-3.34623,0.52769,0.46863
695.427,75.17184,-3.34194,0.5523,0.46839
696.027,75.23309,-3.34195,0.5522,0.46814
696.627,75.29472,-3.34106,0.54603,0.46789
697.227,75.3561,-3.34235,0.56913,0.46764
697.827,75.41786,-3.34231,0.58717,0.4674
698.427,75.47932,-3.34466,0.59782,0.46715
699.027,75.54055,-3.34466,0.59874,0.4669
699.627,75.60197,-3.34499,0.6243,0.46666
700.227,75.66337,-3.34596,0.64139,0.46641
700.827,75.7248,-3.34616,0.66351,0.46617
701.427,75.78641,-3.34762,0.65425,0.46592
702.027,75.84786,-3.34706,0.67781,0.46568
702.627,75.90947,-3.34566,0.66056,0.46543
703.227,75.97071,-3.35384,0.67459,0.46519
703.827,76.03228,-3.34891,0.66648,0.46495
704.427,76.09398,-3.34801,0.6864,0.4647
705.027,76.1558,-3.34641,0.71768,0.46446
705.627,76.21761,-3.34641,0.73252,0.46422
706.227,76.27924,-3.34674,0.71529,0.46398
706.827,76.34088,-3.3474,0.73955,0.46373
707.427,76.40253,-3.34599,0.72696,0.46349
708.027,76.46412,-3.34619,0.72556,0.46325
708.627,76.5258,-3.34751,0.72517,0.46301
709.227,76.58748,-3.34751,0.70536,0.46277
709.827,76.64916,-3.34751,0.70269,0.46253
710.427,76.71081,-3.34752,0.71635,0.46229
711.027,76.77253,-3.34884,0.71109,0.46205
711.627,76.83431,-3.35014,0.7123,0.46181
712.227,76.89599,-3.35014,0.7051,0.46157
712.827,76.95764,-3.35145,0.70423,0.46133
713.427,77.01915,-3.3508,0.72309,0.4611
714.027,77.08083,-3.35151,0.72325,0.46086
714.627,77.1425,-3.35146,0.71967,0.46062
715.227,77.20419,-3.35149,0.71526,0.46038
715.827,77.26579,-3.35125,0.72268,0.46015
716.427,77.32731,-3.35322,0.74537,0.45991
717.027,77.38911,-3.35146,0.76186,0.45967
717.627,77.45101,-3.35146,0.75975,0.45944
718.227,77.5129,-3.35146,0.76035,0.4592
718.827,77.57483,-3.35146,0.76001,0.45897
719.427,77.63661,-3.35016,0.76514,0.45873
720.027,77.69839,-3.35142,0.75219,0.4585
720.627,77.76012,-3.35278,0.76537,0.45826
721.227,77.82197,-3.35278,0.77624,0.45803
721.827,77.8836,-3.35145,0.80594,0.4578
722.427,77.94521,-3.34688,0.78479,0.45756
723.027,78.0068,-3.36148,0.78578,0.45733
723.627,78.06871,-3.35694,0.78963,0.4571
724.227,78.13055,-3.35694,0.79672,0.45687
724.827,78.19227,-3.35685,0.81038,0.45663
725.427,78.25398,-3.3566,0.80279,0.4564
726.027,78.31569,-3.35398,0.82006,0.45617
726.627,78.37774,-3.35398,0.8367,0.45594
727.227,78.4397,-3.35398,0.84849,0.45571
727.827,78.5018,-3.35629,0.84665,0.45548
728.427,78.5637,-3.3562,0.87603,0.45525
729.027,78.62545,-3.3553,0.90318,0.45502
729.627,78.68709,-3.35529,0.93099,0.45479
730.227,78.74883,-3.35387,0.94834,0.45456
730.827,78.81071,-3.35403,0.95553,0.45434
731.427,78.87259,-3.3553,0.95043,0.45411
732.027,78.93438,-3.35661,0.95283,0.45388
732.627,78.9961,-3.35662,0.98785,0.45365
733.227,79.05784,-3.35563,1.01774,0.45343
733.827,79.11967,-3.35787,1.02887,0.4532
734.427,79.18132,-3.35922,1.04176,0.45297
735.027,79.2431,-3.35924,1.06136,0.45275
735.627,79.30495,-3.35792,1.06829,0.45252
736.227,79.3669,-3.35793,1.08176,0.4523
736.827,79.42869,-3.35792,1.08323,0.45207
737.427,79.4907,-3.35979,1.10238,0.45185
738.027,79.55261,-3.3614,1.11029,0.45162
738.627,79.61469,-3.36373,1.1437,0.4514
739.227,79.67676,-3.36365,1.18012,0.45118
739.827,79.73873,-3.36341,1.21262,0.45095
740.427,79.80079,-3.36292,1.223,0.45073
741.027,79.86287,-3.36078,1.22906,0.45051
741.627,79.9248,-3.35947,1.24754,0.45028
742.227,79.9864,-3.35947,1.24534,0.45006
742.327,79.99553,-3.35947,1.25067,0.45003