File: 01_Data/Pressure_Treated_Deck/STA/N2/10K_min/Pressure_Treated_Deck_STA_N2_10KData_211806_R3.csv
##Temp./Â°C,Time/min,Mass loss(subtr.2)/mg,DSC(subtr.2)/mW,Sensit./(uV/mW)
49.295,10.01,-0.03357,-0.09871361,0.6183
49.895,11.39922,-0.03647161,-0.06502603,0.61862
50.495,11.73865,-0.03605696,-0.02394776,0.61894
51.095,11.98141,-0.03751572,0.00267503,0.61925
51.695,12.18111,-0.03751449,0.02607822,0.61957
52.295,12.35618,-0.03733199,0.06106166,0.61988
52.895,12.51332,-0.03729075,0.08158314,0.6202
53.495,12.65788,-0.0409154,0.09421711,0.62051
54.095,12.79208,-0.03955695,0.11491,0.62082
54.695,12.91943,-0.03991683,0.12376,0.62113
55.295,13.04083,-0.04157006,0.12678,0.62144
55.895,13.1579,-0.03967396,0.14593,0.62174
56.495,13.27072,-0.04225352,0.15735,0.62205
57.095,13.38018,-0.04189912,0.15824,0.62235
57.695,13.4869,-0.04125218,0.18065,0.62266
58.295,13.59094,-0.04220447,0.17892,0.62296
58.895,13.69113,-0.04060343,0.19408,0.62326
59.495,13.7905,-0.04035117,0.21312,0.62356
60.095,13.88957,-0.04471699,0.22119,0.62386
60.695,13.98603,-0.04611986,0.23556,0.62415
61.295,14.08012,-0.04486108,0.26027,0.62445
61.895,14.1727,-0.04600363,0.2714,0.62474
62.495,14.2641,-0.04606992,0.27814,0.62504
63.095,14.35379,-0.04467638,0.28667,0.62533
63.695,14.4422,-0.04589282,0.29414,0.62562
64.295,14.52935,-0.04606114,0.29832,0.62591
64.895,14.61575,-0.04606284,0.31358,0.6262
65.495,14.70093,-0.04748139,0.327,0.62648
66.095,14.7856,-0.04889487,0.33953,0.62677
66.695,14.86948,-0.04618009,0.35538,0.62705
67.295,14.95186,-0.04618037,0.35691,0.62733
67.895,15.03297,-0.04736075,0.37199,0.62762
68.495,15.1137,-0.04750623,0.38135,0.6279
69.095,15.1943,-0.04750051,0.40597,0.62818
69.695,15.27377,-0.04881423,0.40767,0.62845
70.295,15.3519,-0.05010999,0.41688,0.62873
70.895,15.42905,-0.05247018,0.4319,0.62901
71.495,15.5061,-0.05278238,0.44856,0.62928
72.095,15.58283,-0.05250926,0.45548,0.62955
72.695,15.6592,-0.05177012,0.46464,0.62982
73.295,15.73445,-0.05287118,0.47967,0.63009
73.895,15.80916,-0.05549659,0.4846,0.63036
74.495,15.88335,-0.05681376,0.4922,0.63063
75.095,15.9571,-0.05681,0.50057,0.6309
75.695,16.03032,-0.05680875,0.50295,0.63116
76.295,16.10301,-0.05564354,0.51385,0.63143
76.895,16.17499,-0.05786591,0.52368,0.63169
77.495,16.2467,-0.05815567,0.53492,0.63195
78.095,16.31768,-0.05800814,0.54081,0.63221
78.695,16.38801,-0.06068966,0.54905,0.63247
79.295,16.45789,-0.06030799,0.55307,0.63273
79.895,16.52768,-0.05962767,0.55439,0.63298
80.495,16.59725,-0.05965983,0.56143,0.63324
81.095,16.6665,-0.06008004,0.56584,0.63349
81.695,16.7351,-0.06281406,0.56924,0.63375
82.295,16.80367,-0.06290295,0.5718,0.634
82.895,16.87155,-0.0627451,0.57134,0.63425
83.495,16.9395,-0.06415841,0.57835,0.6345
84.095,17.00694,-0.06417165,0.58081,0.63474
84.695,17.07425,-0.06284716,0.57031,0.63499
85.295,17.14089,-0.06558841,0.57713,0.63524
85.895,17.20702,-0.06701389,0.58349,0.63548
86.495,17.2727,-0.0685372,0.58119,0.63572
87.095,17.3384,-0.06875134,0.58082,0.63596
87.695,17.4039,-0.07304606,0.57909,0.6362
88.295,17.46893,-0.0747035,0.59162,0.63644
88.895,17.53359,-0.07152727,0.58875,0.63668
89.495,17.59795,-0.06764967,0.57909,0.63692
90.095,17.66231,-0.06909271,0.57981,0.63715
90.695,17.72626,-0.07052771,0.57493,0.63738
91.295,17.78983,-0.07110387,0.56005,0.63762
91.895,17.8532,-0.06910004,0.56007,0.63785
92.495,17.9163,-0.06910951,0.55195,0.63808
93.095,17.97965,-0.07214099,0.53804,0.63831
93.695,18.0424,-0.07167299,0.5348,0.63853
94.295,18.10515,-0.0711769,0.53621,0.63876
94.895,18.16753,-0.07157355,0.52165,0.63898
95.495,18.22948,-0.07387454,0.53121,0.63921
96.095,18.29155,-0.07295812,0.51167,0.63943
96.695,18.3533,-0.07429959,0.50856,0.63965
97.295,18.4152,-0.07551214,0.49513,0.63987
97.895,18.47644,-0.07550957,0.49307,0.64009
98.495,18.53752,-0.07688516,0.48704,0.64031
99.095,18.59852,-0.07688999,0.48004,0.64052
99.695,18.6593,-0.07688789,0.45999,0.64074
100.295,18.72002,-0.07689031,0.45827,0.64095
100.895,18.78041,-0.07425862,0.46059,0.64116
101.495,18.84061,-0.07309332,0.44377,0.64137
102.095,18.90111,-0.07410502,0.43751,0.64158
102.695,18.9615,-0.07613344,0.42444,0.64179
103.295,19.02188,-0.07666743,0.42113,0.642
103.895,19.0821,-0.07798435,0.40673,0.6422
104.495,19.14209,-0.07938822,0.38911,0.64241
105.095,19.20184,-0.08061955,0.3876,0.64261
105.695,19.2616,-0.07929663,0.37492,0.64281
106.295,19.32104,-0.07998356,0.36074,0.64301
106.895,19.38061,-0.07924899,0.35952,0.64321
107.495,19.43994,-0.07995976,0.36408,0.64341
108.095,19.49911,-0.07937489,0.35937,0.64361
108.695,19.5583,-0.07915899,0.34822,0.64381
109.295,19.61745,-0.08245929,0.3337,0.644
109.895,19.67665,-0.08058091,0.32407,0.64419
110.495,19.7357,-0.08027916,0.31478,0.64438
111.095,19.7946,-0.0789656,0.31841,0.64458
111.695,19.85354,-0.08040054,0.31113,0.64476
112.295,19.91228,-0.0804,0.30723,0.64495
112.895,19.97083,-0.0804038,0.31055,0.64514
113.495,20.02927,-0.08199266,0.29677,0.64533
114.095,20.08744,-0.08303032,0.30267,0.64551
114.695,20.14588,-0.08335738,0.29409,0.64569
115.295,20.20435,-0.08311352,0.29482,0.64587
115.895,20.2628,-0.08171014,0.28509,0.64606
116.495,20.32111,-0.08171037,0.27566,0.64623
117.095,20.3794,-0.0830273,0.2818,0.64641
117.695,20.43749,-0.08173591,0.27022,0.64659
118.295,20.49522,-0.08172014,0.26654,0.64676
118.895,20.55312,-0.0831192,0.26003,0.64694
119.495,20.61085,-0.08433913,0.28538,0.64711
120.095,20.66848,-0.08492165,0.2845,0.64728
120.695,20.7265,-0.08500546,0.28396,0.64745
121.295,20.78412,-0.08434491,0.28801,0.64762
121.895,20.8418,-0.08433918,0.27011,0.64779
122.495,20.89943,-0.08299605,0.27753,0.64796
123.095,20.957,-0.08531738,0.27205,0.64812
123.695,21.01455,-0.08534651,0.2694,0.64829
124.295,21.07205,-0.08403156,0.27049,0.64845
124.895,21.1289,-0.08426329,0.26022,0.64861
125.495,21.18577,-0.08389291,0.26723,0.64877
126.095,21.24267,-0.08258362,0.25755,0.64893
126.695,21.29964,-0.08259,0.25972,0.64909
127.295,21.35718,-0.08258653,0.26108,0.64925
127.895,21.41406,-0.08388652,0.2617,0.6494
128.495,21.47069,-0.08389999,0.24787,0.64956
129.095,21.52724,-0.08405008,0.24117,0.64971
129.695,21.5837,-0.08522193,0.25267,0.64986
130.295,21.64025,-0.08654088,0.24773,0.65001
130.895,21.69671,-0.0852372,0.24579,0.65016
131.495,21.75316,-0.08522003,0.25356,0.65031
132.095,21.80941,-0.08521193,0.2617,0.65046
132.695,21.86557,-0.08421175,0.25818,0.6506
133.295,21.92183,-0.08368076,0.25224,0.65075
133.895,21.9781,-0.08395129,0.258,0.65089
134.495,22.03443,-0.08350762,0.25988,0.65103
135.095,22.09044,-0.08401502,0.26688,0.65117
135.695,22.14624,-0.08533283,0.2569,0.65131
136.295,22.20199,-0.08532728,0.27444,0.65145
136.895,22.2578,-0.0866535,0.27727,0.65158
137.495,22.31343,-0.08677135,0.26491,0.65172
138.095,22.36911,-0.08664575,0.27288,0.65185
138.695,22.4248,-0.08544156,0.27509,0.65199
139.295,22.48026,-0.08456226,0.27621,0.65212
139.895,22.5359,-0.08491648,0.28664,0.65225
140.495,22.5915,-0.0849,0.28139,0.65238
141.095,22.64689,-0.08490008,0.27358,0.65251
141.695,22.70211,-0.08500085,0.287,0.65263
142.295,22.75705,-0.08499711,0.27763,0.65276
142.895,22.812,-0.08507209,0.28269,0.65288
143.495,22.86693,-0.0875941,0.27294,0.65301
144.095,22.92192,-0.08753002,0.28286,0.65313
144.695,22.97703,-0.08754394,0.28292,0.65325
145.295,23.03203,-0.08755456,0.27685,0.65337
145.895,23.08693,-0.08752991,0.27773,0.65349
146.495,23.14181,-0.08745782,0.28711,0.6536
147.095,23.19644,-0.08490502,0.28864,0.65372
147.695,23.2512,-0.08728124,0.29096,0.65383
148.295,23.3059,-0.08752126,0.29953,0.65395
148.895,23.3607,-0.08751515,0.29848,0.65406
149.495,23.41544,-0.08622237,0.29129,0.65417
150.095,23.47025,-0.08622471,0.30432,0.65428
150.695,23.52461,-0.08751535,0.29478,0.65439
151.295,23.57919,-0.08818795,0.2923,0.65449
151.895,23.6339,-0.089499,0.2997,0.6546
152.495,23.68845,-0.08819791,0.30923,0.6547
153.095,23.74326,-0.08699699,0.2977,0.65481
153.695,23.79772,-0.0868701,0.30153,0.65491
154.295,23.85204,-0.08702172,0.31207,0.65501
154.895,23.90625,-0.08954902,0.31636,0.65511
155.495,23.96032,-0.08951,0.31918,0.65521
156.095,24.01461,-0.08951174,0.31916,0.65531
156.695,24.06886,-0.09204621,0.33695,0.6554
157.295,24.12325,-0.09210113,0.32978,0.6555
157.895,24.17786,-0.09028451,0.32679,0.65559
158.495,24.23248,-0.08884158,0.34052,0.65568
159.095,24.28712,-0.08927646,0.3298,0.65577
159.695,24.34161,-0.0914828,0.33016,0.65586
160.295,24.39584,-0.09147996,0.34086,0.65595
160.895,24.4499,-0.09148085,0.34421,0.65604
161.495,24.50406,-0.09278976,0.3523,0.65613
162.095,24.5581,-0.0906767,0.36235,0.65621
162.695,24.6122,-0.09015699,0.34708,0.6563
163.295,24.66645,-0.09160014,0.34616,0.65638
163.895,24.72071,-0.09279656,0.35112,0.65646
164.495,24.77507,-0.09146995,0.34978,0.65654
165.095,24.82951,-0.09280055,0.36142,0.65662
165.695,24.8838,-0.09278043,0.37091,0.6567
166.295,24.93809,-0.09120213,0.36025,0.65677
166.895,24.99229,-0.09091657,0.37097,0.65685
167.495,25.04655,-0.0908325,0.38224,0.65692
168.095,25.10083,-0.09256966,0.37627,0.657
168.695,25.15515,-0.09257,0.37422,0.65707
169.295,25.2094,-0.09257018,0.38853,0.65714
169.895,25.2635,-0.09146539,0.37311,0.65721
170.495,25.31757,-0.09228517,0.38753,0.65728
171.095,25.3716,-0.09093068,0.39947,0.65734
171.695,25.42541,-0.09095514,0.4008,0.65741
172.295,25.47946,-0.09224257,0.39434,0.65748
172.895,25.53358,-0.09257162,0.40439,0.65754
173.495,25.58762,-0.09456603,0.40869,0.6576
174.095,25.6418,-0.09453603,0.40805,0.65766
174.695,25.69598,-0.0939018,0.41637,0.65772
175.295,25.75006,-0.09389283,0.4094,0.65778
175.895,25.80421,-0.09422011,0.41024,0.65784
176.495,25.858,-0.09422367,0.42505,0.65789
177.095,25.9119,-0.0952034,0.43262,0.65795
177.695,25.96586,-0.0952,0.43626,0.658
178.295,26.01986,-0.09520006,0.44754,0.65806
178.895,26.07388,-0.09552569,0.43696,0.65811
179.495,26.1277,-0.09420667,0.45465,0.65816
180.095,26.18156,-0.0941813,0.45743,0.65821
180.695,26.23531,-0.09553044,0.45105,0.65826
181.295,26.28925,-0.09552999,0.46138,0.6583
181.895,26.34313,-0.09546972,0.45627,0.65835
182.495,26.39681,-0.09684354,0.45601,0.65839
183.095,26.45052,-0.09816704,0.46124,0.65844
183.695,26.5042,-0.09947164,0.4647,0.65848
184.295,26.5579,-0.09769111,0.46897,0.65852
184.895,26.61158,-0.09753115,0.46702,0.65856
185.495,26.66528,-0.09806132,0.46349,0.6586
186.095,26.71886,-0.09948113,0.47856,0.65864
186.695,26.7724,-0.10004,0.48782,0.65867
187.295,26.826,-0.09881374,0.48681,0.65871
187.895,26.8796,-0.10014,0.47684,0.65874
188.495,26.93311,-0.10085,0.49537,0.65877
189.095,26.9865,-0.09948155,0.50021,0.65881
189.695,27.0399,-0.10046,0.50256,0.65884
190.295,27.09324,-0.10215,0.51052,0.65886
190.895,27.1464,-0.10337,0.51586,0.65889
191.495,27.1999,-0.102,0.52098,0.65892
192.095,27.2534,-0.10341,0.52543,0.65895
192.695,27.30692,-0.10083,0.52726,0.65897
193.295,27.36069,-0.1008,0.53116,0.65899
193.895,27.41412,-0.10342,0.54117,0.65902
194.495,27.46759,-0.10606,0.54722,0.65904
195.095,27.52093,-0.10607,0.5543,0.65906
195.695,27.5743,-0.10607,0.55707,0.65908
196.295,27.62782,-0.10607,0.55854,0.65909
196.895,27.68125,-0.10472,0.57342,0.65911
197.495,27.7348,-0.10475,0.56095,0.65913
198.095,27.7883,-0.10475,0.57828,0.65914
198.695,27.8417,-0.10614,0.57436,0.65915
199.295,27.8951,-0.10607,0.57726,0.65917
199.895,27.94838,-0.10627,0.59365,0.65918
200.495,28.00167,-0.10788,0.60069,0.65919
201.095,28.05495,-0.10739,0.59752,0.6592
201.695,28.1082,-0.10863,0.60106,0.6592
202.295,28.1616,-0.1087,0.60952,0.65921
202.895,28.2151,-0.10861,0.6174,0.65921
203.495,28.2685,-0.11001,0.62723,0.65922
204.095,28.3219,-0.11009,0.623,0.65922
204.695,28.3754,-0.11108,0.64887,0.65922
205.295,28.4289,-0.10809,0.64529,0.65922
205.895,28.48231,-0.10823,0.64602,0.65922
206.495,28.5358,-0.1113,0.65544,0.65922
207.095,28.589,-0.11222,0.658,0.65922
207.695,28.6424,-0.11406,0.6556,0.65922
208.295,28.6958,-0.11529,0.65737,0.65921
208.895,28.7491,-0.11396,0.66506,0.65921
209.495,28.80258,-0.11391,0.67428,0.6592
210.095,28.8559,-0.11523,0.67808,0.65919
210.695,28.9094,-0.11791,0.67473,0.65918
211.295,28.96273,-0.11791,0.68759,0.65917
211.895,29.01619,-0.11752,0.69957,0.65916
212.495,29.06963,-0.1179,0.70028,0.65915
213.095,29.12288,-0.1188,0.71344,0.65913
213.695,29.1762,-0.11913,0.71448,0.65912
214.295,29.2294,-0.12066,0.71539,0.6591
214.895,29.2827,-0.12407,0.71643,0.65908
215.495,29.336,-0.12617,0.73227,0.65907
216.095,29.3894,-0.1246,0.72047,0.65905
216.695,29.44274,-0.12663,0.74093,0.65903
217.295,29.49591,-0.12727,0.74486,0.659
217.895,29.5492,-0.128,0.74534,0.65898
218.495,29.60245,-0.128,0.75392,0.65896
219.095,29.6557,-0.12799,0.76241,0.65893
219.695,29.7088,-0.12889,0.76712,0.65891
220.295,29.7618,-0.13005,0.77597,0.65888
220.895,29.81508,-0.13155,0.78201,0.65885
221.495,29.86846,-0.13271,0.77514,0.65882
222.095,29.9221,-0.13404,0.78358,0.65879
222.695,29.9757,-0.13536,0.78669,0.65876
223.295,30.02905,-0.13676,0.78433,0.65873
223.895,30.0823,-0.1381,0.78373,0.6587
224.495,30.1356,-0.13942,0.77215,0.65866
225.095,30.18907,-0.14098,0.77687,0.65862
225.695,30.24254,-0.14227,0.77763,0.65859
226.295,30.29585,-0.14291,0.77604,0.65855
226.895,30.34924,-0.14287,0.76619,0.65851
227.495,30.4025,-0.1451,0.77378,0.65847
228.095,30.45569,-0.14681,0.78277,0.65843
228.695,30.5092,-0.14835,0.77722,0.65839
229.295,30.5625,-0.14995,0.76345,0.65834
229.895,30.6158,-0.15113,0.78357,0.6583
230.495,30.6691,-0.15321,0.76854,0.65826
231.095,30.72247,-0.15454,0.75258,0.65821
231.695,30.77587,-0.15591,0.77389,0.65816
232.295,30.8294,-0.15953,0.7641,0.65811
232.895,30.8829,-0.16143,0.76306,0.65806
233.495,30.93617,-0.1646,0.74985,0.65801
234.095,30.9895,-0.16515,0.7466,0.65796
234.695,31.0428,-0.16706,0.75643,0.65791
235.295,31.09613,-0.16944,0.76325,0.65785
235.895,31.14933,-0.17189,0.75217,0.6578
236.495,31.2027,-0.17474,0.75723,0.65774
237.095,31.25585,-0.17624,0.74809,0.65769
237.695,31.30925,-0.17659,0.74159,0.65763
238.295,31.3627,-0.17933,0.75054,0.65757
238.895,31.41607,-0.18278,0.74188,0.65751
239.495,31.46958,-0.18555,0.7495,0.65745
240.095,31.52283,-0.18841,0.73658,0.65739
240.695,31.5762,-0.18864,0.73062,0.65732
241.295,31.6297,-0.19043,0.73141,0.65726
241.895,31.6832,-0.19291,0.72337,0.65719
242.495,31.7367,-0.19479,0.72868,0.65713
243.095,31.7904,-0.19695,0.72562,0.65706
243.695,31.84386,-0.20044,0.72646,0.65699
244.295,31.89732,-0.20312,0.72459,0.65692
244.895,31.95096,-0.20722,0.71315,0.65685
245.495,32.00438,-0.20869,0.71362,0.65678
246.095,32.05792,-0.21291,0.7026,0.65671
246.695,32.1113,-0.2142,0.70427,0.65664
247.295,32.1648,-0.21655,0.71544,0.65656
247.895,32.21817,-0.21922,0.70847,0.65649
248.495,32.27154,-0.22086,0.70575,0.65641
249.095,32.3251,-0.2253,0.70733,0.65633
249.695,32.37851,-0.22736,0.7037,0.65625
250.295,32.43202,-0.22983,0.69466,0.65617
250.895,32.48555,-0.23279,0.71494,0.65609
251.495,32.5391,-0.236,0.69922,0.65601
252.095,32.5926,-0.23935,0.70029,0.65593
252.695,32.6462,-0.24428,0.705,0.65585
253.295,32.69976,-0.24602,0.70851,0.65576
253.895,32.75343,-0.24721,0.7106,0.65568
254.495,32.80705,-0.24994,0.71479,0.65559
255.095,32.8607,-0.25299,0.71409,0.6555
255.695,32.9143,-0.2566,0.71311,0.65541
256.295,32.9677,-0.2598,0.7161,0.65533
256.895,33.0214,-0.26186,0.71955,0.65524
257.495,33.07493,-0.26461,0.72955,0.65514
258.095,33.1287,-0.26729,0.73668,0.65505
258.695,33.1824,-0.27166,0.73287,0.65496
259.295,33.236,-0.27625,0.73807,0.65486
259.895,33.2896,-0.27936,0.74227,0.65477
260.495,33.34321,-0.28308,0.74438,0.65467
261.095,33.39686,-0.28737,0.75115,0.65457
261.695,33.4505,-0.29069,0.7591,0.65448
262.295,33.5043,-0.29376,0.76729,0.65438
262.895,33.558,-0.29709,0.76605,0.65428
263.495,33.61172,-0.30166,0.77744,0.65418
264.095,33.66536,-0.30623,0.76649,0.65407
264.695,33.71897,-0.30997,0.77209,0.65397
265.295,33.77254,-0.31388,0.78317,0.65387
265.895,33.8263,-0.31785,0.7889,0.65376
266.495,33.87986,-0.32202,0.78537,0.65366
267.095,33.93335,-0.32649,0.79189,0.65355
267.695,33.98686,-0.33072,0.78832,0.65344
268.295,34.0404,-0.33413,0.79185,0.65333
268.895,34.09415,-0.33986,0.80371,0.65322
269.495,34.14764,-0.34446,0.8013,0.65311
270.095,34.20142,-0.34938,0.79799,0.653
270.695,34.25496,-0.35636,0.81864,0.65289
271.295,34.30858,-0.3617,0.8249,0.65278
271.895,34.36246,-0.36715,0.82172,0.65266
272.495,34.4161,-0.37309,0.83346,0.65255
273.095,34.4696,-0.38056,0.82436,0.65243
273.695,34.52324,-0.38544,0.82781,0.65231
274.295,34.57691,-0.38942,0.84138,0.65219
274.895,34.63057,-0.39591,0.84717,0.65208
275.495,34.6844,-0.40097,0.84063,0.65196
276.095,34.73809,-0.4097,0.85645,0.65183
276.695,34.79181,-0.4135,0.85239,0.65171
277.295,34.8456,-0.42189,0.86167,0.65159
277.895,34.89922,-0.42791,0.85127,0.65147
278.495,34.95292,-0.43358,0.85747,0.65134
279.095,35.0066,-0.44087,0.86366,0.65122
279.695,35.0603,-0.44943,0.86024,0.65109
280.295,35.1141,-0.45757,0.86275,0.65096
280.895,35.1679,-0.46326,0.85789,0.65083
281.495,35.22164,-0.47074,0.86497,0.65071
282.095,35.27547,-0.4769,0.86154,0.65058
282.695,35.32932,-0.48548,0.86796,0.65044
283.295,35.3831,-0.49302,0.8627,0.65031
283.895,35.43694,-0.50039,0.87717,0.65018
284.495,35.49078,-0.50978,0.8797,0.65005
285.095,35.54462,-0.5214,0.88099,0.64991
285.695,35.59865,-0.51846,0.87633,0.64978
286.295,35.6526,-0.53325,0.86867,0.64964
286.895,35.70647,-0.54317,0.87354,0.6495
287.495,35.76019,-0.55294,0.87881,0.64937
288.095,35.81408,-0.55855,0.88522,0.64923
288.695,35.8679,-0.56854,0.88812,0.64909
289.295,35.92197,-0.57583,0.89124,0.64895
289.895,35.97618,-0.58592,0.88194,0.6488
290.495,36.03024,-0.59728,0.89033,0.64866
291.095,36.0843,-0.60739,0.89791,0.64852
291.695,36.13837,-0.61862,0.90781,0.64837
292.295,36.19232,-0.62797,0.90783,0.64823
292.895,36.2463,-0.63799,0.91499,0.64808
293.495,36.3004,-0.65133,0.92901,0.64794
294.095,36.3542,-0.66341,0.91756,0.64779
294.695,36.40833,-0.66341,0.91824,0.64764
295.295,36.4626,-0.67849,0.93277,0.64749
295.895,36.51675,-0.69123,0.94323,0.64734
296.495,36.57111,-0.7009,0.94381,0.64719
297.095,36.62532,-0.71023,0.945,0.64704
297.695,36.6795,-0.72348,0.94114,0.64689
298.295,36.73369,-0.73539,0.96764,0.64673
298.895,36.78787,-0.74637,0.9693,0.64658
299.495,36.84205,-0.75984,0.9631,0.64642
300.095,36.89609,-0.77135,0.98406,0.64627
300.695,36.9503,-0.78279,0.98623,0.64611
301.295,37.00443,-0.79358,0.99611,0.64595
301.895,37.0587,-0.80509,1.00853,0.64579
302.495,37.11302,-0.81795,1.0146,0.64563
303.095,37.16714,-0.8298,1.00754,0.64547
303.695,37.22132,-0.84249,1.02382,0.64531
304.295,37.2755,-0.85558,1.03528,0.64515
304.895,37.3296,-0.86798,1.0348,0.64499
305.495,37.38397,-0.88208,1.05878,0.64482
306.095,37.4383,-0.89487,1.07275,0.64466
306.695,37.4927,-0.90743,1.06908,0.6445
307.295,37.54698,-0.91963,1.08352,0.64433
307.895,37.60119,-0.93643,1.09425,0.64416
308.495,37.65545,-0.94595,1.09715,0.64399
309.095,37.70961,-0.96305,1.11494,0.64383
309.695,37.76393,-0.97755,1.11887,0.64366
310.295,37.81831,-0.99041,1.13715,0.64349
310.895,37.87257,-1.00343,1.13929,0.64332
311.495,37.9268,-1.01962,1.15202,0.64315
312.095,37.98109,-1.03492,1.16848,0.64297
312.695,38.03525,-1.04783,1.16926,0.6428
313.295,38.08964,-1.06274,1.18715,0.64263
313.895,38.14407,-1.07796,1.20382,0.64245
314.495,38.19856,-1.09159,1.21015,0.64228
315.095,38.25306,-1.1074,1.21718,0.6421
315.695,38.30748,-1.12359,1.23251,0.64192
316.295,38.362,-1.13917,1.24011,0.64174
316.895,38.41646,-1.15398,1.2531,0.64157
317.495,38.47083,-1.1688,1.27073,0.64139
318.095,38.52513,-1.18459,1.28873,0.64121
318.695,38.57938,-1.2013,1.29649,0.64103
319.295,38.63353,-1.21754,1.30698,0.64084
319.895,38.68792,-1.23573,1.31336,0.64066
320.495,38.74245,-1.25233,1.33794,0.64048
321.095,38.79698,-1.26717,1.34116,0.64029
321.695,38.85156,-1.28139,1.34847,0.64011
322.295,38.906,-1.29806,1.36817,0.63992
322.895,38.9604,-1.31642,1.3788,0.63974
323.495,39.015,-1.3341,1.38551,0.63955
324.095,39.06928,-1.35136,1.40298,0.63936
324.695,39.1237,-1.36625,1.41618,0.63917
325.295,39.17828,-1.38609,1.42153,0.63898
325.895,39.23279,-1.4029,1.44444,0.63879
326.495,39.28767,-1.42157,1.45039,0.6386
327.095,39.3425,-1.43832,1.46053,0.63841
327.695,39.39713,-1.45626,1.47858,0.63822
328.295,39.45189,-1.4761,1.49407,0.63803
328.895,39.50657,-1.49713,1.50796,0.63783
329.495,39.5612,-1.51547,1.51728,0.63764
330.095,39.61596,-1.53379,1.54082,0.63744
330.695,39.6708,-1.55028,1.54908,0.63725
331.295,39.72551,-1.56839,1.57412,0.63705
331.895,39.78027,-1.59069,1.59706,0.63685
332.495,39.83513,-1.60156,1.58575,0.63666
333.095,39.89,-1.62434,1.62068,0.63646
333.695,39.9448,-1.64642,1.63552,0.63626
334.295,39.99951,-1.66695,1.65288,0.63606
334.895,40.0544,-1.68726,1.67231,0.63586
335.495,40.10908,-1.7071,1.68306,0.63566
336.095,40.1635,-1.72665,1.70276,0.63545
336.695,40.21836,-1.74791,1.70937,0.63525
337.295,40.27312,-1.76718,1.72223,0.63505
337.895,40.3281,-1.78926,1.74906,0.63484
338.495,40.3834,-1.8125,1.77201,0.63464
339.095,40.4384,-1.83222,1.79792,0.63443
339.695,40.4934,-1.85251,1.80277,0.63423
340.295,40.5484,-1.87317,1.81669,0.63402
340.895,40.60345,-1.89418,1.83295,0.63381
341.495,40.65871,-1.91662,1.8457,0.6336
342.095,40.7136,-1.93955,1.87119,0.63339
342.695,40.7686,-1.96128,1.89081,0.63318
343.295,40.82354,-1.98402,1.91424,0.63297
343.895,40.87845,-2.0065,1.94084,0.63276
344.495,40.93342,-2.03,1.95585,0.63255
345.095,40.98847,-2.05377,1.96712,0.63234
345.695,41.04359,-2.07705,2.00029,0.63212
346.295,41.09852,-2.10211,2.02351,0.63191
346.895,41.1536,-2.12448,2.02725,0.6317
347.495,41.20864,-2.14667,2.05508,0.63148
348.095,41.26364,-2.17178,2.06852,0.63126
348.695,41.3187,-2.19548,2.09008,0.63105
349.295,41.3737,-2.21976,2.10494,0.63083
349.895,41.42883,-2.24526,2.13144,0.63061
350.495,41.4839,-2.26987,2.14676,0.6304
351.095,41.539,-2.29678,2.154,0.63018
351.695,41.59411,-2.31946,2.17784,0.62996
352.295,41.64926,-2.34446,2.18912,0.62974
352.895,41.7044,-2.37102,2.20047,0.62952
353.495,41.7594,-2.39721,2.21886,0.62929
354.095,41.8146,-2.42389,2.22137,0.62907
354.695,41.8697,-2.44787,2.21661,0.62885
355.295,41.92474,-2.47412,2.24175,0.62863
355.895,41.9799,-2.50442,2.24363,0.6284
356.495,42.03494,-2.52823,2.24825,0.62818
357.095,42.0901,-2.55442,2.24156,0.62795
357.695,42.14548,-2.58056,2.23989,0.62772
358.295,42.20093,-2.60485,2.22954,0.6275
358.895,42.25642,-2.63371,2.22114,0.62727
359.495,42.31192,-2.65853,2.21203,0.62704
360.095,42.36724,-2.68607,2.19891,0.62682
360.695,42.42253,-2.71363,2.15611,0.62659
361.295,42.47775,-2.73769,2.13173,0.62636
361.895,42.53309,-2.76203,2.09455,0.62613
362.495,42.58842,-2.78845,2.0537,0.6259
363.095,42.64403,-2.81469,2.00243,0.62566
363.695,42.69955,-2.84029,1.95305,0.62543
364.295,42.75481,-2.8641,1.89115,0.6252
364.895,42.8102,-2.88814,1.83199,0.62497
365.495,42.86548,-2.91423,1.77662,0.62473
366.095,42.9207,-2.93523,1.70057,0.6245
366.695,42.97637,-2.95755,1.61347,0.62426
367.295,43.03185,-2.9794,1.52423,0.62403
367.895,43.08753,-3.00734,1.42007,0.62379
368.495,43.14309,-3.0127,1.3171,0.62355
369.095,43.1986,-3.03575,1.21521,0.62332
369.695,43.25418,-3.05653,1.11301,0.62308
370.295,43.30961,-3.07276,1.00043,0.62284
370.895,43.3651,-3.08863,0.88011,0.6226
371.495,43.42046,-3.10425,0.79371,0.62236
372.095,43.476,-3.11779,0.67661,0.62212
372.695,43.53175,-3.13009,0.55547,0.62188
373.295,43.58733,-3.14125,0.45508,0.62164
373.895,43.64301,-3.15304,0.35047,0.6214
374.495,43.6985,-3.16394,0.25172,0.62116
375.095,43.75412,-3.17009,0.16677,0.62091
375.695,43.8097,-3.18009,0.10722,0.62067
376.295,43.86545,-3.18448,0.03728875,0.62043
376.895,43.92083,-3.19252,-0.01411609,0.62018
377.495,43.97596,-3.19779,-0.07105006,0.61994
378.095,44.0317,-3.20339,-0.11846,0.61969
378.695,44.08735,-3.21016,-0.16501,0.61945
379.295,44.14342,-3.21467,-0.18023,0.6192
379.895,44.19952,-3.22125,-0.19813,0.61895
380.495,44.2554,-3.22285,-0.22891,0.61871
381.095,44.31126,-3.22645,-0.25416,0.61846
381.695,44.36696,-3.2309,-0.2465,0.61821
382.295,44.42272,-3.23481,-0.26366,0.61796
382.895,44.47838,-3.2385,-0.28659,0.61771
383.495,44.53417,-3.24263,-0.29246,0.61746
384.095,44.5899,-3.24283,-0.30284,0.61721
384.695,44.64565,-3.25844,-0.30955,0.61696
385.295,44.70136,-3.2553,-0.31689,0.61671
385.895,44.7571,-3.25738,-0.33333,0.61645
386.495,44.81269,-3.25916,-0.35412,0.6162
387.095,44.8684,-3.2639,-0.36826,0.61595
387.695,44.92409,-3.26728,-0.36712,0.61569
388.295,44.9801,-3.27061,-0.37065,0.61544
388.895,45.03601,-3.27307,-0.39242,0.61518
389.495,45.09212,-3.26919,-0.42553,0.61493
390.095,45.14813,-3.27616,-0.41394,0.61467
390.695,45.2038,-3.28555,-0.41363,0.61442
391.295,45.2598,-3.28465,-0.42476,0.61416
391.895,45.31577,-3.28821,-0.43705,0.6139
392.495,45.37162,-3.29041,-0.43881,0.61365
393.095,45.42765,-3.29379,-0.44453,0.61339
393.695,45.48359,-3.2982,-0.44858,0.61313
394.295,45.53951,-3.29998,-0.46916,0.61287
394.895,45.5956,-3.30261,-0.46965,0.61261
395.495,45.65184,-3.30542,-0.48815,0.61235
396.095,45.7081,-3.30947,-0.49476,0.61209
396.695,45.7644,-3.3108,-0.50693,0.61183
397.295,45.8204,-3.31218,-0.51796,0.61157
397.895,45.87658,-3.31573,-0.52132,0.61131
398.495,45.9328,-3.31876,-0.53138,0.61104
399.095,45.98897,-3.32268,-0.53958,0.61078
399.695,46.04533,-3.32458,-0.5414,0.61052
400.295,46.1014,-3.32599,-0.5598,0.61025
400.895,46.1575,-3.32894,-0.56939,0.60999
401.495,46.2137,-3.3322,-0.56698,0.60973
402.095,46.26996,-3.33545,-0.58584,0.60946
402.695,46.3264,-3.33554,-0.58008,0.6092
403.295,46.38263,-3.3384,-0.6006,0.60893
403.895,46.43895,-3.34125,-0.6148,0.60866
404.495,46.49512,-3.34556,-0.61894,0.6084
405.095,46.55129,-3.34809,-0.62808,0.60813
405.695,46.60768,-3.35325,-0.63145,0.60786
406.295,46.66387,-3.35486,-0.63853,0.60759
406.895,46.72025,-3.35487,-0.63306,0.60733
407.495,46.7768,-3.35847,-0.63549,0.60706
408.095,46.83314,-3.36091,-0.65312,0.60679
408.695,46.88968,-3.36514,-0.65658,0.60652
409.295,46.94603,-3.36805,-0.66687,0.60625
409.895,47.00223,-3.37011,-0.67014,0.60598
410.495,47.05859,-3.37241,-0.67868,0.60571
411.095,47.1149,-3.37397,-0.68862,0.60544
411.695,47.17139,-3.37673,-0.70129,0.60516
412.295,47.22787,-3.37853,-0.70734,0.60489
412.895,47.28445,-3.38228,-0.71428,0.60462
413.495,47.341,-3.38516,-0.7252,0.60435
414.095,47.39748,-3.38674,-0.72778,0.60407
414.695,47.4538,-3.3908,-0.73462,0.6038
415.295,47.51017,-3.39105,-0.73452,0.60353
415.895,47.5665,-3.39245,-0.74269,0.60325
416.495,47.62301,-3.39414,-0.74725,0.60298
417.095,47.6796,-3.3986,-0.75036,0.6027
417.695,47.7361,-3.40143,-0.76064,0.60243
418.295,47.79251,-3.40195,-0.76957,0.60215
418.895,47.84898,-3.40401,-0.77337,0.60187
419.495,47.90533,-3.40748,-0.78145,0.6016
420.095,47.96196,-3.40926,-0.7746,0.60132
420.695,48.01859,-3.41366,-0.78107,0.60104
421.295,48.07544,-3.41504,-0.78369,0.60077
421.895,48.13207,-3.41574,-0.79336,0.60049
422.495,48.18857,-3.4182,-0.79413,0.60021
423.095,48.24501,-3.42189,-0.78779,0.59993
423.695,48.30161,-3.42342,-0.79142,0.59965
424.295,48.35828,-3.42584,-0.79875,0.59937
424.895,48.415,-3.42778,-0.79913,0.59909
425.495,48.47167,-3.43073,-0.79161,0.59881
426.095,48.5284,-3.43421,-0.7869,0.59853
426.695,48.585,-3.43651,-0.79485,0.59825
427.295,48.64175,-3.43889,-0.78585,0.59797
427.895,48.69843,-3.4414,-0.79184,0.59769
428.495,48.75506,-3.44301,-0.7958,0.5974
429.095,48.8118,-3.44434,-0.79455,0.59712
429.695,48.86868,-3.44771,-0.78695,0.59684
430.295,48.9257,-3.45158,-0.79497,0.59656
430.895,48.98263,-3.45422,-0.78761,0.59627
431.495,49.03967,-3.45392,-0.79237,0.59599
432.095,49.09681,-3.45595,-0.7807,0.59571
432.695,49.15388,-3.45814,-0.7821,0.59542
433.295,49.21095,-3.46033,-0.7858,0.59514
433.895,49.26806,-3.46433,-0.77203,0.59485
434.495,49.32522,-3.46492,-0.7658,0.59457
435.095,49.3825,-3.46761,-0.76159,0.59428
435.695,49.43932,-3.46882,-0.75163,0.594
436.295,49.49655,-3.47173,-0.73773,0.59371
436.895,49.55361,-3.47637,-0.74418,0.59342
437.495,49.61076,-3.47629,-0.73911,0.59314
438.095,49.66805,-3.4776,-0.72559,0.59285
438.695,49.72518,-3.47967,-0.71935,0.59256
439.295,49.7824,-3.48145,-0.71434,0.59228
439.895,49.8397,-3.48404,-0.70608,0.59199
440.495,49.89723,-3.48595,-0.69223,0.5917
441.095,49.95462,-3.48745,-0.68368,0.59141
441.695,50.0119,-3.49101,-0.68179,0.59112
442.295,50.06904,-3.49108,-0.68123,0.59083
442.895,50.1263,-3.49301,-0.68186,0.59054
443.495,50.1836,-3.49398,-0.65449,0.59026
444.095,50.24089,-3.49864,-0.64371,0.58997
444.695,50.2982,-3.5011,-0.6393,0.58968
445.295,50.35536,-3.50107,-0.62755,0.58939
445.895,50.4126,-3.50118,-0.6256,0.58909
446.495,50.47,-3.50238,-0.60771,0.5888
447.095,50.5274,-3.5064,-0.60776,0.58851
447.695,50.5848,-3.50816,-0.58841,0.58822
448.295,50.6421,-3.51121,-0.57307,0.58793
448.895,50.69937,-3.51444,-0.58161,0.58764
449.495,50.75671,-3.51643,-0.56542,0.58735
450.095,50.81419,-3.51711,-0.57195,0.58705
450.695,50.8716,-3.51862,-0.56322,0.58676
451.295,50.92895,-3.51996,-0.56609,0.58647
451.895,50.98624,-3.52318,-0.5532,0.58617
452.495,51.04368,-3.52333,-0.53983,0.58588
453.095,51.10113,-3.52558,-0.5302,0.58559
453.695,51.1586,-3.52685,-0.51272,0.58529
454.295,51.21602,-3.52685,-0.51235,0.585
454.895,51.27339,-3.52898,-0.50986,0.58471
455.495,51.3309,-3.53246,-0.49542,0.58441
456.095,51.38838,-3.53495,-0.4849,0.58412
456.695,51.44579,-3.53495,-0.46392,0.58382
457.295,51.50333,-3.53628,-0.46227,0.58353
457.895,51.56081,-3.53771,-0.46449,0.58323
458.495,51.61824,-3.54557,-0.46755,0.58293
459.095,51.6759,-3.53525,-0.44644,0.58264
459.695,51.73338,-3.53922,-0.45299,0.58234
460.295,51.79096,-3.54426,-0.43452,0.58205
460.895,51.84877,-3.54595,-0.42817,0.58175
461.495,51.90648,-3.54739,-0.43555,0.58145
462.095,51.96432,-3.55025,-0.4208,0.58116
462.695,52.02202,-3.5513,-0.41942,0.58086
463.295,52.0796,-3.5513,-0.4013,0.58056
463.895,52.1372,-3.55247,-0.41172,0.58026
464.495,52.19489,-3.55268,-0.39342,0.57997
465.095,52.25251,-3.5554,-0.39295,0.57967
465.695,52.31028,-3.55592,-0.40682,0.57937
466.295,52.36813,-3.56649,-0.39537,0.57907
466.895,52.42592,-3.55494,-0.36865,0.57877
467.495,52.4839,-3.55864,-0.36873,0.57847
468.095,52.54186,-3.56277,-0.36895,0.57818
468.695,52.59975,-3.56502,-0.37628,0.57788
469.295,52.6575,-3.5637,-0.37274,0.57758
469.895,52.7151,-3.56537,-0.37353,0.57728
470.495,52.7728,-3.56831,-0.35609,0.57698
471.095,52.8306,-3.56807,-0.3601,0.57668
471.695,52.88854,-3.56863,-0.34936,0.57638
472.295,52.9464,-3.56935,-0.35156,0.57608
472.895,53.00428,-3.57226,-0.36275,0.57578
473.495,53.06213,-3.57384,-0.34127,0.57548
474.095,53.12002,-3.57642,-0.34884,0.57518
474.695,53.1778,-3.57906,-0.34663,0.57488
475.295,53.2358,-3.58033,-0.33917,0.57458
475.895,53.29374,-3.57906,-0.33264,0.57427
476.495,53.35167,-3.57906,-0.32576,0.57397
477.095,53.4094,-3.57905,-0.32842,0.57367
477.695,53.46747,-3.58171,-0.32603,0.57337
478.295,53.5258,-3.58322,-0.32796,0.57307
478.895,53.5839,-3.58319,-0.32536,0.57277
479.495,53.64207,-3.58463,-0.33044,0.57247
480.095,53.6998,-3.58717,-0.3054,0.57216
480.695,53.7578,-3.5889,-0.30698,0.57186
481.295,53.8155,-3.59029,-0.31064,0.57156
481.895,53.8736,-3.59025,-0.31797,0.57126
482.495,53.93181,-3.5916,-0.31249,0.57095
483.095,53.98989,-3.59288,-0.33024,0.57065
483.695,54.04801,-3.59404,-0.31991,0.57035
484.295,54.1061,-3.59398,-0.32774,0.57004
484.895,54.16426,-3.59519,-0.32033,0.56974
485.495,54.2223,-3.59661,-0.31888,0.56944
486.095,54.28034,-3.59661,-0.32056,0.56914
486.695,54.33837,-3.59781,-0.31483,0.56883
487.295,54.39654,-3.59936,-0.3108,0.56853
487.895,54.45475,-3.60066,-0.32247,0.56822
488.495,54.513,-3.60199,-0.31937,0.56792
489.095,54.571,-3.60198,-0.30961,0.56762
489.695,54.6291,-3.60199,-0.31302,0.56731
490.295,54.6868,-3.60343,-0.31476,0.56701
490.895,54.74476,-3.6046,-0.32208,0.5667
491.495,54.80294,-3.60617,-0.32171,0.5664
492.095,54.8612,-3.60725,-0.31674,0.5661
492.695,54.9198,-3.60856,-0.3114,0.56579
493.295,54.97804,-3.60876,-0.3329,0.56549
493.895,55.0363,-3.60889,-0.31399,0.56518
494.495,55.0944,-3.61019,-0.32151,0.56488
495.095,55.1527,-3.61152,-0.34181,0.56457
495.695,55.21111,-3.61283,-0.31656,0.56427
496.295,55.26944,-3.61284,-0.31138,0.56396
496.895,55.32781,-3.61414,-0.29952,0.56366
497.495,55.38606,-3.61547,-0.3091,0.56335
498.095,55.4443,-3.61556,-0.30599,0.56305
498.695,55.50269,-3.6164,-0.30559,0.56274
499.295,55.5611,-3.61929,-0.31077,0.56244
499.895,55.6196,-3.61983,-0.30515,0.56213
500.495,55.6781,-3.62095,-0.31693,0.56182
501.095,55.73659,-3.62095,-0.30739,0.56152
501.695,55.79512,-3.62225,-0.32214,0.56121
502.295,55.8535,-3.62347,-0.33467,0.56091
502.895,55.91206,-3.62459,-0.31779,0.5606
503.495,55.9705,-3.62492,-0.32578,0.56029
504.095,56.0292,-3.62682,-0.3293,0.55999
504.695,56.08772,-3.62687,-0.33271,0.55968
505.295,56.1461,-3.62818,-0.31869,0.55938
505.895,56.20466,-3.62922,-0.32613,0.55907
506.495,56.26324,-3.62879,-0.3335,0.55876
507.095,56.32186,-3.62893,-0.32087,0.55846
507.695,56.3805,-3.63098,-0.31173,0.55815
508.295,56.4393,-3.6316,-0.32171,0.55785
508.895,56.49782,-3.6316,-0.32012,0.55754
509.495,56.55641,-3.63275,-0.31831,0.55723
510.095,56.6151,-3.63415,-0.31554,0.55693
510.695,56.6735,-3.63528,-0.31736,0.55662
511.295,56.7321,-3.63695,-0.31213,0.55631
511.895,56.79055,-3.63697,-0.32389,0.55601
512.495,56.849,-3.63826,-0.31889,0.5557
513.095,56.90735,-3.63831,-0.34238,0.55539
513.695,56.9658,-3.63961,-0.3299,0.55509
514.295,57.0243,-3.63952,-0.32169,0.55478
514.895,57.0827,-3.64104,-0.31169,0.55447
515.495,57.14135,-3.64236,-0.31443,0.55417
516.095,57.19967,-3.64498,-0.31155,0.55386
516.695,57.2582,-3.64499,-0.31917,0.55355
517.295,57.3167,-3.64506,-0.3135,0.55325
517.895,57.37516,-3.64629,-0.3304,0.55294
518.495,57.4337,-3.64629,-0.33745,0.55263
519.095,57.49224,-3.65267,-0.34311,0.55233
519.695,57.55089,-3.65029,-0.33306,0.55202
520.295,57.60966,-3.64426,-0.31113,0.55171
520.895,57.6684,-3.65081,-0.31269,0.55141
521.495,57.72726,-3.65079,-0.30927,0.5511
522.095,57.786,-3.65179,-0.32007,0.55079
522.695,57.8448,-3.65275,-0.32193,0.55049
523.295,57.90384,-3.6542,-0.33057,0.55018
523.895,57.9626,-3.65515,-0.31972,0.54987
524.495,58.0216,-3.65518,-0.33004,0.54957
525.095,58.08053,-3.65649,-0.33359,0.54926
525.695,58.1395,-3.65781,-0.32667,0.54895
526.295,58.19857,-3.65781,-0.33339,0.54865
526.895,58.2575,-3.65677,-0.32803,0.54834
527.495,58.31645,-3.65811,-0.31632,0.54803
528.095,58.37537,-3.65939,-0.31995,0.54773
528.695,58.43435,-3.65937,-0.32028,0.54742
529.295,58.4934,-3.66077,-0.32457,0.54711
529.895,58.55262,-3.66069,-0.32322,0.54681
530.495,58.61152,-3.66143,-0.3239,0.5465
531.095,58.6705,-3.66143,-0.3188,0.54619
531.695,58.72935,-3.66203,-0.31619,0.54589
532.295,58.7883,-3.66431,-0.31231,0.54558
532.895,58.8474,-3.66703,-0.30881,0.54527
533.495,58.90642,-3.66714,-0.32265,0.54497
534.095,58.96541,-3.66846,-0.31334,0.54466
534.695,59.0241,-3.66845,-0.30735,0.54435
535.295,59.0832,-3.66977,-0.31749,0.54405
535.895,59.14224,-3.67109,-0.32041,0.54374
536.495,59.20146,-3.67109,-0.32185,0.54344
537.095,59.26084,-3.67259,-0.33321,0.54313
537.695,59.31997,-3.67064,-0.3148,0.54282
538.295,59.37899,-3.67196,-0.32185,0.54252
538.895,59.4381,-3.67196,-0.30786,0.54221
539.495,59.49695,-3.67196,-0.31384,0.54191
540.095,59.55582,-3.6762,-0.31562,0.5416
540.695,59.615,-3.67628,-0.31228,0.54129
541.295,59.6742,-3.67752,-0.32762,0.54099
541.895,59.73375,-3.67755,-0.33561,0.54068
542.495,59.7925,-3.67755,-0.31691,0.54038
543.095,59.8515,-3.67887,-0.30389,0.54007
543.695,59.91061,-3.67925,-0.31484,0.53976
544.295,59.96976,-3.68018,-0.32375,0.53946
544.895,60.029,-3.68019,-0.32073,0.53915
545.495,60.0881,-3.6815,-0.31995,0.53885
546.095,60.14716,-3.68165,-0.31579,0.53854
546.695,60.2062,-3.68293,-0.30018,0.53824
547.295,60.26543,-3.68412,-0.29763,0.53793
547.895,60.32464,-3.68545,-0.29588,0.53763
548.495,60.38397,-3.68687,-0.29752,0.53732
549.095,60.4433,-3.68677,-0.29825,0.53702
549.695,60.50252,-3.68677,-0.29766,0.53671
550.295,60.5617,-3.68677,-0.28986,0.53641
550.895,60.62109,-3.68852,-0.29393,0.5361
551.495,60.68056,-3.68913,-0.3018,0.5358
552.095,60.74,-3.68951,-0.30918,0.5355
552.695,60.7994,-3.69017,-0.30753,0.53519
553.295,60.85875,-3.69384,-0.31777,0.53489
553.895,60.9182,-3.69639,-0.30867,0.53458
554.495,60.97789,-3.68667,-0.28211,0.53428
555.095,61.0375,-3.69323,-0.29393,0.53397
555.695,61.09712,-3.69322,-0.30248,0.53367
556.295,61.1566,-3.69324,-0.30476,0.53337
556.895,61.21611,-3.69384,-0.32384,0.53306
557.495,61.2755,-3.6959,-0.33469,0.53276
558.095,61.33485,-3.69719,-0.31992,0.53246
558.695,61.39411,-3.69745,-0.33167,0.53215
559.295,61.45361,-3.7081,-0.35049,0.53185
559.895,61.513,-3.69167,-0.33244,0.53155
560.495,61.5724,-3.69742,-0.33667,0.53124
561.095,61.6317,-3.69971,-0.36398,0.53094
561.695,61.691,-3.70108,-0.35753,0.53064
562.295,61.75042,-3.70234,-0.34378,0.53034
562.895,61.80979,-3.70366,-0.34832,0.53003
563.495,61.8693,-3.70366,-0.34863,0.52973
564.095,61.92898,-3.70496,-0.34677,0.52943
564.695,61.9886,-3.70475,-0.34801,0.52913
565.295,62.0481,-3.70334,-0.34021,0.52882
565.895,62.10774,-3.70468,-0.34705,0.52852
566.495,62.16723,-3.70463,-0.36718,0.52822
567.095,62.22682,-3.70564,-0.37301,0.52792
567.695,62.28643,-3.70619,-0.37402,0.52762
568.295,62.34604,-3.70609,-0.38406,0.52732
568.895,62.40576,-3.7088,-0.38597,0.52701
569.495,62.46549,-3.71013,-0.37327,0.52671
570.095,62.525,-3.71013,-0.36701,0.52641
570.695,62.5845,-3.71013,-0.36828,0.52611
571.295,62.644,-3.71088,-0.3602,0.52581
571.895,62.70374,-3.71039,-0.37643,0.52551
572.495,62.76315,-3.71086,-0.3604,0.52521
573.095,62.82286,-3.7114,-0.37484,0.52491
573.695,62.88235,-3.71531,-0.3779,0.52461
574.295,62.942,-3.71528,-0.39224,0.52431
574.895,63.00172,-3.71418,-0.39275,0.52401
575.495,63.06143,-3.71527,-0.40731,0.52371
576.095,63.12106,-3.71572,-0.39554,0.52341
576.695,63.18079,-3.71661,-0.39103,0.52311
577.295,63.24041,-3.71661,-0.40722,0.52281
577.895,63.30011,-3.71661,-0.40296,0.52251
578.495,63.3598,-3.71793,-0.41947,0.52221
579.095,63.4194,-3.71803,-0.40761,0.52191
579.695,63.4789,-3.71892,-0.40134,0.52162
580.295,63.5384,-3.72068,-0.38203,0.52132
580.895,63.59815,-3.72066,-0.39877,0.52102
581.495,63.65804,-3.72162,-0.40372,0.52072
582.095,63.71819,-3.72166,-0.40116,0.52042
582.695,63.77816,-3.72066,-0.40148,0.52012
583.295,63.83805,-3.72196,-0.4005,0.51983
583.895,63.8983,-3.72197,-0.40948,0.51953
584.495,63.9584,-3.72197,-0.41242,0.51923
585.095,64.01828,-3.72193,-0.41241,0.51893
585.695,64.07826,-3.72329,-0.40204,0.51864
586.295,64.13812,-3.72349,-0.40454,0.51834
586.895,64.19797,-3.7254,-0.39798,0.51804
587.495,64.25788,-3.72592,-0.40443,0.51775
588.095,64.31775,-3.72592,-0.41649,0.51745
588.695,64.37755,-3.72592,-0.42557,0.51716
589.295,64.43749,-3.72691,-0.43239,0.51686
589.895,64.49745,-3.72774,-0.42712,0.51656
590.495,64.5573,-3.72844,-0.42709,0.51627
591.095,64.61743,-3.72856,-0.41859,0.51597
591.695,64.67744,-3.72809,-0.40326,0.51568
592.295,64.73735,-3.72992,-0.42732,0.51538
592.895,64.7974,-3.72987,-0.40364,0.51509
593.495,64.85726,-3.72982,-0.40702,0.51479
594.095,64.91728,-3.7325,-0.419,0.5145
594.695,64.97736,-3.73262,-0.43146,0.5142
595.295,65.03734,-3.73229,-0.42708,0.51391
595.895,65.09729,-3.7337,-0.42512,0.51362
596.495,65.15722,-3.73371,-0.43054,0.51332
597.095,65.2173,-3.73393,-0.41521,0.51303
597.695,65.27757,-3.73392,-0.41394,0.51274
598.295,65.33787,-3.73525,-0.43063,0.51244
598.895,65.39809,-3.73573,-0.42586,0.51215
599.495,65.45828,-3.7382,-0.42141,0.51186
600.095,65.51827,-3.73821,-0.42225,0.51157
600.695,65.57849,-3.73821,-0.42672,0.51127
601.295,65.63858,-3.73689,-0.43619,0.51098
601.895,65.69888,-3.7369,-0.40155,0.51069
602.495,65.75921,-3.73821,-0.40157,0.5104
603.095,65.81952,-3.73915,-0.40825,0.51011
603.695,65.8797,-3.73952,-0.38476,0.50982
604.295,65.93991,-3.74084,-0.3698,0.50952
604.895,66.00013,-3.74084,-0.35066,0.50923
605.495,66.06036,-3.74216,-0.3552,0.50894
606.095,66.12065,-3.7418,-0.33916,0.50865
606.695,66.18085,-3.74216,-0.33713,0.50836
607.295,66.24091,-3.74216,-0.32893,0.50807
607.895,66.30113,-3.74215,-0.32981,0.50778
608.495,66.36115,-3.74478,-0.33213,0.50749
609.095,66.42143,-3.74622,-0.33232,0.50721
609.695,66.4817,-3.74654,-0.31853,0.50692
610.295,66.54173,-3.74654,-0.33366,0.50663
610.895,66.602,-3.74572,-0.32771,0.50634
611.495,66.66201,-3.74622,-0.38948,0.50605
612.095,66.72224,-3.74622,-0.39841,0.50576
612.695,66.7826,-3.74754,-0.3933,0.50547
613.295,66.84291,-3.74754,-0.39,0.50519
613.895,66.90326,-3.74752,-0.38772,0.5049
614.495,66.96367,-3.74771,-0.37637,0.50461
615.095,67.02411,-3.74885,-0.37483,0.50433
615.695,67.08463,-3.74885,-0.39578,0.50404
616.295,67.1451,-3.74885,-0.40321,0.50375
616.895,67.20545,-3.75015,-0.38784,0.50347
617.495,67.26592,-3.75016,-0.38347,0.50318
618.095,67.32641,-3.75015,-0.38846,0.50289
618.695,67.38699,-3.75149,-0.38896,0.50261
619.295,67.44744,-3.75149,-0.38115,0.50232
619.895,67.50774,-3.75214,-0.37194,0.50204
620.495,67.56805,-3.75214,-0.36076,0.50175
621.095,67.62831,-3.75214,-0.35727,0.50147
621.695,67.68857,-3.75214,-0.3557,0.50119
622.295,67.74899,-3.75341,-0.35151,0.5009
622.895,67.8095,-3.75477,-0.355,0.50062
623.495,67.86975,-3.75477,-0.34774,0.50033
624.095,67.93007,-3.75543,-0.35403,0.50005
624.695,67.99048,-3.75674,-0.3574,0.49977
625.295,68.05086,-3.75828,-0.34635,0.49948
625.895,68.11145,-3.75828,-0.31038,0.4992
626.495,68.17197,-3.75828,-0.29963,0.49892
627.095,68.23264,-3.75829,-0.3042,0.49864
627.695,68.29334,-3.75959,-0.28329,0.49836
628.295,68.3539,-3.75896,-0.26919,0.49807
628.895,68.41426,-3.76939,-0.27465,0.49779
629.495,68.4747,-3.74967,-0.26094,0.49751
630.095,68.53516,-3.75854,-0.27085,0.49723
630.695,68.59561,-3.76037,-0.27721,0.49695
631.295,68.6561,-3.75939,-0.26796,0.49667
631.895,68.71674,-3.76043,-0.30073,0.49639
632.495,68.77745,-3.7607,-0.30697,0.49611
633.095,68.8382,-3.76126,-0.33147,0.49583
633.695,68.899,-3.76201,-0.33905,0.49555
634.295,68.95963,-3.76465,-0.34354,0.49527
634.895,69.02006,-3.76905,-0.3252,0.49499
635.495,69.08078,-3.7666,-0.31614,0.49472
636.095,69.14152,-3.76152,-0.31149,0.49444
636.695,69.20281,-3.7643,-0.31805,0.49416
637.295,69.26353,-3.76586,-0.31272,0.49388
637.895,69.32434,-3.76484,-0.30181,0.49361
638.495,69.38497,-3.76355,-0.31022,0.49333
639.095,69.4458,-3.76485,-0.29794,0.49305
639.695,69.50652,-3.76618,-0.29665,0.49278
640.295,69.5673,-3.76752,-0.28751,0.4925
640.895,69.62823,-3.76881,-0.28102,0.49222
641.495,69.689,-3.76881,-0.25643,0.49195
642.095,69.74975,-3.77013,-0.25759,0.49167
642.695,69.81052,-3.76979,-0.25655,0.4914
643.295,69.87131,-3.7698,-0.25013,0.49112
643.895,69.93234,-3.76981,-0.25047,0.49085
644.495,69.99333,-3.77112,-0.25824,0.49057
645.095,70.05404,-3.77113,-0.24554,0.4903
645.695,70.11502,-3.77008,-0.23841,0.49003
646.295,70.1759,-3.77149,-0.23986,0.48975
646.895,70.23695,-3.77145,-0.22572,0.48948
647.495,70.29822,-3.77276,-0.22637,0.48921
648.095,70.35908,-3.77309,-0.19463,0.48893
648.695,70.42,-3.77309,-0.18113,0.48866
649.295,70.4809,-3.77407,-0.1585,0.48839
649.895,70.54176,-3.77407,-0.14458,0.48812
650.495,70.6023,-3.77407,-0.13187,0.48785
651.095,70.66317,-3.77275,-0.11847,0.48758
651.695,70.72407,-3.77548,-0.14143,0.4873
652.295,70.78511,-3.77538,-0.10233,0.48703
652.895,70.84619,-3.77537,-0.10963,0.48676
653.495,70.907,-3.77671,-0.08976683,0.48649
654.095,70.96772,-3.77802,-0.13528,0.48622
654.695,71.0286,-3.7767,-0.11066,0.48595
655.295,71.08946,-3.7767,-0.14327,0.48569
655.895,71.1503,-3.77802,-0.11765,0.48542
656.495,71.2113,-3.77814,-0.09816358,0.48515
657.095,71.27239,-3.77878,-0.13036,0.48488
657.695,71.3336,-3.77785,-0.13145,0.48461
658.295,71.39485,-3.77748,-0.12956,0.48434
658.895,71.45586,-3.77819,-0.12641,0.48408
659.495,71.51689,-3.77812,-0.08124092,0.48381
660.095,71.57791,-3.77945,-0.07778031,0.48354
660.695,71.6388,-3.77945,-0.06615078,0.48328
661.295,71.6998,-3.77977,-0.05043218,0.48301
661.895,71.76082,-3.78004,-0.05979353,0.48274
662.495,71.82183,-3.78075,-0.07161882,0.48248
663.095,71.88293,-3.78074,-0.08272782,0.48221
663.695,71.94399,-3.78208,-0.07893472,0.48195
664.295,72.00506,-3.78102,-0.08620695,0.48168
664.895,72.06611,-3.7807,-0.09790928,0.48142
665.495,72.12724,-3.78175,-0.07878858,0.48116
666.095,72.18828,-3.78063,-0.08740994,0.48089
666.695,72.24938,-3.78176,-0.06080037,0.48063
667.295,72.31056,-3.78244,-0.06193428,0.48037
667.895,72.37175,-3.78308,-0.08272178,0.4801
668.495,72.43316,-3.78308,-0.09857049,0.47984
669.095,72.49433,-3.78308,-0.1271,0.47958
669.695,72.55544,-3.7844,-0.09316156,0.47932
670.295,72.6165,-3.78439,-0.07761008,0.47906
670.895,72.6775,-3.78571,-0.0668125,0.47879
671.495,72.73861,-3.78571,-0.06238426,0.47853
672.095,72.79969,-3.78571,-0.08588638,0.47827
672.695,72.86066,-3.78571,-0.07500344,0.47801
673.295,72.9217,-3.78571,-0.07903436,0.47775
673.895,72.98269,-3.78566,-0.0739764,0.47749
674.495,73.04369,-3.78691,-0.0594273,0.47723
675.095,73.10461,-3.78668,-0.04405869,0.47697
675.695,73.1656,-3.78801,-0.0737782,0.47672
676.295,73.2268,-3.78801,-0.07168673,0.47646
676.895,73.2881,-3.78801,-0.06021328,0.4762
677.495,73.34963,-3.78801,-0.07050668,0.47594
678.095,73.41091,-3.78801,-0.05124615,0.47568
678.695,73.47221,-3.78701,-0.0539983,0.47543
679.295,73.53316,-3.78834,-0.05372388,0.47517
679.895,73.5942,-3.78838,-0.04807617,0.47491
680.495,73.65536,-3.78702,-0.04632874,0.47466
681.095,73.71647,-3.78701,-0.0451072,0.4744
681.695,73.77764,-3.78816,-0.03933104,0.47415
682.295,73.8387,-3.78829,-0.02484038,0.47389
682.895,73.89995,-3.78834,-0.03220789,0.47364
683.495,73.9611,-3.7897,-0.04143382,0.47338
684.095,74.02185,-3.78965,-0.03139861,0.47313
684.695,74.0831,-3.79101,-0.03040114,0.47287
685.295,74.1444,-3.78966,-0.03762908,0.47262
685.895,74.20623,-3.79362,-0.06787915,0.47237
686.495,74.26764,-3.79807,-0.07617407,0.47211
687.095,74.3292,-3.77499,-0.05802863,0.47186
687.695,74.39086,-3.78758,-0.02451282,0.47161
688.295,74.45257,-3.78979,-0.005495905,0.47136
688.895,74.5141,-3.79053,0.0150428,0.4711
689.495,74.57559,-3.79236,0.01596447,0.47085
690.095,74.63694,-3.79694,0.01285185,0.4706
690.695,74.6983,-3.78666,0.02043199,0.47035
691.295,74.75963,-3.79129,0.02886604,0.4701
691.895,74.82095,-3.79264,0.03628207,0.46985
692.495,74.8825,-3.79398,0.05288402,0.4696
693.095,74.94403,-3.79261,0.04016485,0.46935
693.695,75.00559,-3.79388,0.05688188,0.4691
694.295,75.06701,-3.79394,0.05374617,0.46885
694.895,75.1283,-3.79394,0.06156464,0.46861
695.495,75.18995,-3.79295,0.07983915,0.46836
696.095,75.2514,-3.79426,0.08736254,0.46811
696.695,75.31274,-3.79426,0.09038995,0.46786
697.295,75.37444,-3.79426,0.09036464,0.46761
697.895,75.43596,-3.79426,0.09275395,0.46737
698.495,75.49758,-3.79426,0.08489827,0.46712
699.095,75.55928,-3.79689,0.09323379,0.46688
699.695,75.6208,-3.79556,0.08747737,0.46663
700.295,75.68248,-3.7969,0.05965335,0.46638
700.895,75.74396,-3.7969,0.05057191,0.46614
701.495,75.80544,-3.7969,0.02549532,0.46589
702.095,75.867,-3.7969,0.01128624,0.46565
702.695,75.92864,-3.7969,-0.008493585,0.46541
703.295,75.99035,-3.79559,-0.0117725,0.46516
703.895,76.05209,-3.79689,-0.04091589,0.46492
704.495,76.11381,-3.79685,-0.02434943,0.46468
705.095,76.17549,-3.79953,-0.02280268,0.46443
705.695,76.2371,-3.79953,-0.02984799,0.46419
706.295,76.2987,-3.79287,-0.03640518,0.46395
706.895,76.36025,-3.7982,-0.04289698,0.46371
707.495,76.42146,-3.80149,-0.04384133,0.46346
708.095,76.4828,-3.79994,-0.04164719,0.46322
708.695,76.5442,-3.79927,-0.05233958,0.46298
709.295,76.6056,-3.79804,-0.05263198,0.46274
709.895,76.6674,-3.79954,-0.05311896,0.4625
710.495,76.729,-3.80196,-0.04661825,0.46226
711.095,76.7906,-3.80194,-0.02478527,0.46202
711.695,76.85206,-3.8019,-0.04266624,0.46178
712.295,76.91359,-3.80128,-0.03124563,0.46154
712.895,76.9751,-3.80128,-0.0067635,0.46131
713.495,77.03679,-3.80259,0.01348155,0.46107
714.095,77.09838,-3.80259,0.00223631,0.46083
714.695,77.16,-3.80259,0.01489469,0.46059
715.295,77.22175,-3.80327,0.01690317,0.46036
715.895,77.2833,-3.80197,0.03158196,0.46012
716.495,77.34495,-3.80243,0.02074284,0.45988
717.095,77.40661,-3.80409,0.04734478,0.45965
717.695,77.4683,-3.80425,0.02426895,0.45941
718.295,77.53004,-3.80458,0.05655837,0.45918
718.895,77.59167,-3.80253,0.0409789,0.45894
719.495,77.65331,-3.80379,0.05983671,0.45871
720.095,77.71484,-3.80324,0.07819863,0.45847
720.695,77.77635,-3.80187,0.08595468,0.45824
721.295,77.83806,-3.80327,0.12525,0.458
721.895,77.8998,-3.80457,0.11839,0.45777
722.495,77.96161,-3.80457,0.1157,0.45754
723.095,78.02335,-3.8049,0.1342,0.4573
723.695,78.08496,-3.8049,0.1456,0.45707
724.295,78.14663,-3.8049,0.12966,0.45684
724.895,78.20836,-3.80356,0.16324,0.45661
725.495,78.27025,-3.80522,0.15874,0.45638
726.095,78.33204,-3.80522,0.16527,0.45615
726.695,78.39384,-3.80595,0.18506,0.45592
727.295,78.4555,-3.80654,0.18159,0.45569
727.895,78.51724,-3.80654,0.17243,0.45546
728.495,78.57913,-3.80652,0.18097,0.45523
729.095,78.64115,-3.8065,0.19727,0.455
729.695,78.70317,-3.80656,0.22433,0.45477
730.295,78.7651,-3.80786,0.22508,0.45454
730.895,78.82706,-3.80915,0.26296,0.45431
731.495,78.88893,-3.80919,0.2882,0.45408
732.095,78.95079,-3.80919,0.30648,0.45385
732.695,79.01268,-3.80918,0.32279,0.45363
733.295,79.07459,-3.80917,0.3303,0.4534
733.895,79.13646,-3.8105,0.32899,0.45317
734.495,79.19846,-3.80917,0.33241,0.45295
735.095,79.26023,-3.80984,0.37926,0.45272
735.695,79.32225,-3.80984,0.37736,0.4525
736.295,79.38421,-3.80984,0.38756,0.45227
736.895,79.4462,-3.81051,0.385,0.45205
737.495,79.5083,-3.80915,0.4243,0.45182
738.095,79.57016,-3.80918,0.44777,0.4516
738.695,79.63206,-3.80919,0.47246,0.45137
739.295,79.69402,-3.81049,0.45969,0.45115
739.895,79.75569,-3.80926,0.47773,0.45093
740.495,79.81759,-3.8093,0.48649,0.4507
741.095,79.87958,-3.81058,0.50978,0.45048
741.695,79.94171,-3.81192,0.52075,0.45026
742.195,79.9932,-3.81192,0.53487,0.45007