File: 01_Data/Bamboo_Rug_A/STA/N2/30K_min/Bamboo_Rug_A_STA_N2_30KData_220121_R1.csv
##Temp./Â°C,Time/min,Mass loss(subtr.2)/mg,DSC(subtr.2)/(mW/mg),Sensit./(uV/mW)
48.62,10.01,-0.01119,-0.00792532,1.06962
49.32,10.55242,-0.009358339,0.01777828,1.06956
50.02,10.67918,-0.009498912,0.04051089,1.0695
50.72,10.7692,-0.01051023,0.05994814,1.06944
51.42,10.84191,-0.01105488,0.07734849,1.06937
52.12,10.90563,-0.01084407,0.09959224,1.0693
52.82,10.96228,-0.01254476,0.11398,1.06924
53.52,11.01401,-0.0145939,0.12868,1.06917
54.22,11.0619,-0.01395475,0.14419,1.06909
54.92,11.10696,-0.0137856,0.15648,1.06902
55.62,11.14969,-0.01360016,0.16949,1.06895
56.32,11.19047,-0.01453238,0.18126,1.06887
57.02,11.22947,-0.01449703,0.19258,1.0688
57.72,11.26694,-0.01409142,0.20438,1.06872
58.42,11.3034,-0.01375124,0.21547,1.06864
59.12,11.33874,-0.01390981,0.22442,1.06856
59.82,11.37307,-0.01402328,0.23384,1.06848
60.52,11.40644,-0.01316833,0.24312,1.06839
61.22,11.4391,-0.01431175,0.25375,1.06831
61.92,11.47114,-0.01417736,0.26206,1.06822
62.62,11.5026,-0.01280394,0.26867,1.06814
63.32,11.53347,-0.01234085,0.27687,1.06805
64.02,11.56374,-0.01298676,0.28646,1.06796
64.72,11.5936,-0.01432379,0.29064,1.06787
65.42,11.62305,-0.01425296,0.29928,1.06777
66.12,11.65213,-0.01411828,0.30511,1.06768
66.82,11.68088,-0.01359172,0.3133,1.06758
67.52,11.70937,-0.01348453,0.31856,1.06749
68.22,11.73761,-0.01282075,0.32729,1.06739
68.92,11.76559,-0.01265287,0.33229,1.06729
69.62,11.7933,-0.01330939,0.33821,1.06719
70.32,11.8208,-0.01402286,0.34533,1.06709
71.02,11.84795,-0.01408325,0.34812,1.06698
71.72,11.8751,-0.01399,0.35591,1.06688
72.42,11.90198,-0.01361822,0.36014,1.06677
73.12,11.9287,-0.01356835,0.365,1.06666
73.82,11.9552,-0.01380927,0.36985,1.06655
74.52,11.98142,-0.01401506,0.37647,1.06644
75.22,12.00727,-0.0140607,0.37969,1.06633
75.92,12.03329,-0.01362634,0.38435,1.06622
76.62,12.0593,-0.01323513,0.39031,1.06611
77.32,12.0852,-0.01291506,0.39375,1.06599
78.02,12.11121,-0.01378756,0.39696,1.06587
78.72,12.13682,-0.01424035,0.40083,1.06576
79.42,12.16237,-0.01501884,0.40428,1.06564
80.12,12.1878,-0.01506555,0.41204,1.06551
80.82,12.21314,-0.01430733,0.41283,1.06539
81.52,12.23835,-0.01400882,0.41878,1.06527
82.22,12.2633,-0.01364452,0.42328,1.06514
82.92,12.2883,-0.01434286,0.42637,1.06502
83.62,12.31317,-0.01470926,0.42966,1.06489
84.32,12.33795,-0.01568443,0.43495,1.06476
85.02,12.363,-0.01506072,0.43802,1.06463
85.72,12.38768,-0.01639737,0.43948,1.0645
86.42,12.4124,-0.01651331,0.44205,1.06437
87.12,12.43694,-0.01703007,0.44738,1.06423
87.82,12.46143,-0.01760419,0.44911,1.0641
88.52,12.48596,-0.01628974,0.45384,1.06396
89.22,12.5103,-0.016361,0.45401,1.06382
89.92,12.53464,-0.01664087,0.45881,1.06368
90.62,12.5589,-0.01636037,0.46061,1.06354
91.32,12.58292,-0.01724958,0.46461,1.0634
92.02,12.60708,-0.01652195,0.46794,1.06326
92.72,12.63119,-0.01780231,0.46938,1.06312
93.42,12.65523,-0.01776508,0.47349,1.06297
94.12,12.67933,-0.01876999,0.47333,1.06282
94.82,12.70332,-0.01780247,0.4769,1.06267
95.52,12.72706,-0.01788845,0.47842,1.06252
96.22,12.751,-0.01801928,0.47914,1.06237
96.92,12.77483,-0.01821221,0.48106,1.06222
97.62,12.7986,-0.0190918,0.48322,1.06207
98.32,12.82258,-0.01909039,0.48309,1.06191
99.02,12.8462,-0.01907811,0.48523,1.06176
99.72,12.86996,-0.01907965,0.48636,1.0616
100.42,12.89375,-0.01867363,0.48753,1.06144
101.12,12.9175,-0.01886282,0.48824,1.06128
101.82,12.94133,-0.01890112,0.49179,1.06112
102.52,12.96487,-0.0190308,0.49197,1.06096
103.22,12.98847,-0.01887253,0.49345,1.06079
103.92,13.01207,-0.01887026,0.49506,1.06063
104.62,13.0357,-0.01888354,0.49445,1.06046
105.32,13.0595,-0.01948767,0.49424,1.0603
106.02,13.08314,-0.01960952,0.49631,1.06013
106.72,13.10677,-0.01910547,0.49552,1.05996
107.42,13.1303,-0.02051114,0.49628,1.05979
108.12,13.1539,-0.02051048,0.49527,1.05961
108.82,13.17746,-0.02051002,0.49639,1.05944
109.52,13.201,-0.02051,0.49562,1.05926
110.22,13.2246,-0.02051003,0.49544,1.05909
110.92,13.24809,-0.02051038,0.49738,1.05891
111.62,13.27161,-0.02050237,0.49772,1.05873
112.32,13.29505,-0.02105318,0.49529,1.05855
113.02,13.3186,-0.02171013,0.49678,1.05837
113.72,13.342,-0.02247887,0.49771,1.05819
114.42,13.3655,-0.02248877,0.49741,1.058
115.12,13.38895,-0.02248723,0.49599,1.05782
115.82,13.4123,-0.02262485,0.49979,1.05763
116.52,13.43575,-0.02237591,0.49645,1.05744
117.22,13.45919,-0.02215247,0.49775,1.05725
117.92,13.4825,-0.02213174,0.49695,1.05706
118.62,13.50566,-0.02249835,0.49775,1.05687
119.32,13.5289,-0.02216858,0.49834,1.05668
120.02,13.5519,-0.02248076,0.49757,1.05649
120.72,13.5751,-0.02248915,0.50006,1.05629
121.42,13.5986,-0.02248936,0.49773,1.0561
122.12,13.622,-0.02251,0.49835,1.0559
122.82,13.6454,-0.02140548,0.49926,1.0557
123.52,13.66867,-0.0211689,0.49791,1.0555
124.22,13.69183,-0.02255285,0.49667,1.0553
124.92,13.7149,-0.02248647,0.49807,1.0551
125.62,13.7381,-0.02248018,0.5001,1.05489
126.32,13.76104,-0.02247999,0.49838,1.05469
127.02,13.78398,-0.02248,0.49785,1.05448
127.72,13.807,-0.02248,0.50039,1.05427
128.42,13.82996,-0.02248,0.49971,1.05406
129.12,13.853,-0.02248112,0.50032,1.05385
129.82,13.87597,-0.0225059,0.50025,1.05364
130.52,13.8989,-0.0233704,0.50047,1.05343
131.22,13.92181,-0.02371458,0.50096,1.05322
131.92,13.94475,-0.02279436,0.5029,1.053
132.62,13.96765,-0.02280921,0.50311,1.05279
133.32,13.9904,-0.022811,0.50504,1.05257
134.02,14.01319,-0.02295636,0.50523,1.05235
134.72,14.03594,-0.02417503,0.50651,1.05213
135.42,14.05866,-0.02415228,0.50936,1.05191
136.12,14.0815,-0.0238161,0.50966,1.05169
136.82,14.10426,-0.0238105,0.5081,1.05147
137.52,14.1269,-0.02380754,0.51214,1.05124
138.22,14.1496,-0.02380175,0.51145,1.05102
138.92,14.1722,-0.02413477,0.51512,1.05079
139.62,14.19474,-0.02422189,0.51436,1.05056
140.32,14.2174,-0.02277364,0.51899,1.05033
141.02,14.2399,-0.02346907,0.51809,1.0501
141.72,14.26254,-0.02379009,0.52009,1.04987
142.42,14.2851,-0.02379927,0.52315,1.04964
143.12,14.30765,-0.02379997,0.52386,1.04941
143.82,14.3301,-0.0238,0.52627,1.04917
144.52,14.35259,-0.0238,0.5291,1.04893
145.22,14.375,-0.02380001,0.52973,1.0487
145.92,14.3975,-0.02380006,0.53118,1.04846
146.62,14.4199,-0.02380003,0.53245,1.04822
147.32,14.4423,-0.02377702,0.53436,1.04798
148.02,14.46463,-0.02485301,0.53489,1.04774
148.72,14.48695,-0.0257961,0.53802,1.04749
149.42,14.50934,-0.02644069,0.54086,1.04725
150.12,14.53174,-0.02643992,0.54207,1.047
150.82,14.5541,-0.02643999,0.5444,1.04676
151.52,14.5764,-0.02643996,0.54635,1.04651
152.22,14.5985,-0.02643966,0.55045,1.04626
152.92,14.62071,-0.02644343,0.55175,1.04601
153.62,14.64295,-0.0278677,0.55199,1.04576
154.32,14.6652,-0.02825161,0.55382,1.04551
155.02,14.68764,-0.02907393,0.55674,1.04525
155.72,14.70987,-0.02907001,0.55987,1.045
156.42,14.7321,-0.02906944,0.56007,1.04474
157.12,14.75419,-0.0290544,0.56269,1.04448
157.82,14.7763,-0.02863817,0.56675,1.04423
158.52,14.79849,-0.02842027,0.56925,1.04397
159.22,14.82064,-0.02706759,0.56966,1.04371
159.92,14.8428,-0.02709335,0.57155,1.04344
160.62,14.86471,-0.02709945,0.57321,1.04318
161.32,14.88677,-0.02709896,0.5756,1.04292
162.02,14.9089,-0.0270925,0.57769,1.04265
162.72,14.93105,-0.02810105,0.57842,1.04239
163.42,14.9534,-0.0290176,0.58198,1.04212
164.12,14.9755,-0.02937842,0.58362,1.04185
164.82,14.99761,-0.02938911,0.58692,1.04158
165.52,15.01968,-0.02938877,0.5889,1.04131
166.22,15.0417,-0.03078097,0.59091,1.04104
166.92,15.06371,-0.03071694,0.5933,1.04076
167.62,15.08559,-0.03070858,0.59259,1.04049
168.32,15.1075,-0.0305472,0.59735,1.04022
169.02,15.1295,-0.02938126,0.59926,1.03994
169.72,15.1515,-0.0293902,0.60192,1.03966
170.42,15.17354,-0.02935402,0.6027,1.03938
171.12,15.19558,-0.03048602,0.60653,1.0391
171.82,15.2175,-0.03070368,0.60641,1.03882
172.52,15.2394,-0.03071279,0.60945,1.03854
173.22,15.26133,-0.03106213,0.6124,1.03826
173.92,15.28325,-0.03106568,0.61435,1.03797
174.62,15.3051,-0.03331835,0.61638,1.03769
175.32,15.327,-0.0336685,0.61941,1.0374
176.02,15.34886,-0.03367971,0.62251,1.03711
176.72,15.3707,-0.03368001,0.62311,1.03683
177.42,15.3925,-0.03368001,0.62424,1.03654
178.12,15.41433,-0.03368012,0.62922,1.03625
178.82,15.43612,-0.03368194,0.63078,1.03595
179.52,15.45781,-0.03386017,0.63354,1.03566
180.22,15.4796,-0.03499651,0.63538,1.03537
180.92,15.50133,-0.03498889,0.63652,1.03507
181.62,15.52311,-0.0349905,0.64024,1.03478
182.32,15.54481,-0.03500277,0.64164,1.03448
183.02,15.5665,-0.03536521,0.64253,1.03418
183.72,15.58823,-0.03632787,0.64598,1.03388
184.42,15.60987,-0.03631008,0.64753,1.03358
185.12,15.63161,-0.03630994,0.6501,1.03328
185.82,15.6533,-0.03630982,0.65402,1.03298
186.52,15.67495,-0.03630661,0.65735,1.03267
187.22,15.69661,-0.03625926,0.6596,1.03237
187.92,15.71809,-0.03755306,0.6629,1.03206
188.62,15.73975,-0.03762844,0.66551,1.03176
189.32,15.76133,-0.03772143,0.66925,1.03145
190.02,15.7829,-0.03894697,0.66794,1.03114
190.72,15.80463,-0.03894051,0.67227,1.03083
191.42,15.82611,-0.03894002,0.67452,1.03052
192.12,15.84765,-0.03893989,0.67822,1.03021
192.82,15.8691,-0.03893918,0.68209,1.02989
193.52,15.8907,-0.03895137,0.68508,1.02958
194.22,15.9122,-0.03962183,0.68837,1.02926
194.92,15.9337,-0.03960259,0.68969,1.02895
195.62,15.95517,-0.03961317,0.6947,1.02863
196.32,15.97661,-0.03998255,0.6972,1.02831
197.02,15.99811,-0.04093911,0.70172,1.02799
197.72,16.01954,-0.04092019,0.70401,1.02767
198.42,16.04103,-0.04092435,0.70628,1.02735
199.12,16.06245,-0.04231606,0.70929,1.02703
199.82,16.08385,-0.04223163,0.71376,1.0267
200.52,16.10531,-0.04213734,0.71603,1.02638
201.22,16.12681,-0.04352283,0.72052,1.02605
201.92,16.1483,-0.04354866,0.72345,1.02573
202.62,16.16984,-0.04354863,0.72541,1.0254
203.32,16.19136,-0.04374829,0.73008,1.02507
204.02,16.21278,-0.04582623,0.73411,1.02474
204.72,16.2342,-0.04665709,0.73824,1.02441
205.42,16.25566,-0.0472068,0.73844,1.02408
206.12,16.27712,-0.04855456,0.7459,1.02374
206.82,16.29853,-0.04872204,0.74587,1.02341
207.52,16.32004,-0.04969318,0.75026,1.02308
208.22,16.3414,-0.05006631,0.75373,1.02274
208.92,16.36279,-0.05145165,0.75782,1.0224
209.62,16.38417,-0.05285405,0.76186,1.02207
210.32,16.40541,-0.05324925,0.76429,1.02173
211.02,16.4268,-0.05458247,0.76836,1.02139
211.72,16.44815,-0.05502827,0.77105,1.02105
212.42,16.46947,-0.05584472,0.77122,1.0207
213.12,16.49093,-0.05584009,0.77824,1.02036
213.82,16.51229,-0.05586087,0.78002,1.02002
214.52,16.53366,-0.05557772,0.7834,1.01967
215.22,16.55501,-0.05584203,0.78683,1.01933
215.92,16.57633,-0.05643125,0.78807,1.01898
216.62,16.5977,-0.05726178,0.79377,1.01863
217.32,16.619,-0.05850076,0.79486,1.01828
218.02,16.64037,-0.05859508,0.79551,1.01793
218.72,16.6617,-0.0600165,0.7988,1.01758
219.42,16.68307,-0.06131504,0.80349,1.01723
220.12,16.70445,-0.06255271,0.80565,1.01688
220.82,16.72577,-0.06380192,0.80955,1.01652
221.52,16.74708,-0.06503747,0.81329,1.01617
222.22,16.7684,-0.06639668,0.81687,1.01581
222.92,16.78954,-0.06675844,0.81856,1.01546
223.62,16.81085,-0.06787859,0.82155,1.0151
224.32,16.83212,-0.06953999,0.82448,1.01474
225.02,16.85332,-0.06971032,0.8239,1.01438
225.72,16.87472,-0.07088772,0.82872,1.01402
226.42,16.8961,-0.07138753,0.83057,1.01366
227.12,16.9174,-0.07259787,0.83301,1.0133
227.82,16.93874,-0.07410013,0.83609,1.01294
228.52,16.96,-0.07523814,0.83681,1.01257
229.22,16.98126,-0.07659039,0.84004,1.01221
229.92,17.00256,-0.07803674,0.8407,1.01184
230.62,17.0238,-0.07949425,0.84155,1.01147
231.32,17.0451,-0.0810896,0.84606,1.01111
232.02,17.06629,-0.08256784,0.84855,1.01074
232.72,17.0875,-0.08378061,0.85086,1.01037
233.42,17.10876,-0.08489883,0.85159,1.01
234.12,17.13004,-0.08632041,0.85241,1.00962
234.82,17.15128,-0.08812359,0.85567,1.00925
235.52,17.1725,-0.0899386,0.85552,1.00888
236.22,17.19374,-0.09104475,0.85814,1.0085
236.92,17.21495,-0.09258553,0.85958,1.00813
237.62,17.23617,-0.09447879,0.86083,1.00775
238.32,17.2574,-0.09650351,0.8633,1.00737
239.02,17.2786,-0.09845741,0.86726,1.007
239.72,17.29986,-0.10046,0.86892,1.00662
240.42,17.3211,-0.1024,0.87182,1.00624
241.12,17.34235,-0.10375,0.87577,1.00586
241.82,17.36358,-0.10527,0.87738,1.00547
242.52,17.38478,-0.10689,0.88133,1.00509
243.22,17.40599,-0.10827,0.8834,1.00471
243.92,17.42725,-0.10982,0.88866,1.00432
244.62,17.44847,-0.11153,0.8929,1.00394
245.32,17.46965,-0.11329,0.89552,1.00355
246.02,17.49083,-0.11525,0.90075,1.00316
246.72,17.51194,-0.11714,0.90596,1.00278
247.42,17.53312,-0.11928,0.90931,1.00239
248.12,17.55432,-0.12102,0.91449,1.002
248.82,17.57549,-0.12237,0.91968,1.00161
249.52,17.59667,-0.1239,0.9198,1.00122
250.22,17.61785,-0.12556,0.92059,1.00082
250.92,17.639,-0.12767,0.91797,1.00043
251.62,17.66019,-0.13,0.91818,1.00003
252.32,17.68136,-0.13217,0.91399,0.99964
253.02,17.70257,-0.1342,0.90827,0.99924
253.72,17.72373,-0.13653,0.90418,0.99885
254.42,17.7449,-0.13824,0.89818,0.99845
255.12,17.76605,-0.13989,0.89476,0.99805
255.82,17.78715,-0.14256,0.88788,0.99765
256.52,17.80826,-0.1455,0.88445,0.99725
257.22,17.82938,-0.14801,0.88188,0.99685
257.92,17.8505,-0.14975,0.8797,0.99645
258.62,17.87164,-0.15064,0.87598,0.99604
259.32,17.89282,-0.15268,0.8755,0.99564
260.02,17.91401,-0.15493,0.87023,0.99524
260.72,17.93517,-0.15794,0.86918,0.99483
261.42,17.9563,-0.16024,0.86731,0.99442
262.12,17.97745,-0.16289,0.86651,0.99402
262.82,17.9985,-0.16514,0.86527,0.99361
263.52,18.01959,-0.16757,0.86405,0.9932
264.22,18.04073,-0.17008,0.86578,0.99279
264.92,18.06185,-0.17329,0.86325,0.99238
265.62,18.08302,-0.17731,0.86389,0.99197
266.32,18.1042,-0.18017,0.8613,0.99155
267.02,18.12523,-0.18395,0.8614,0.99114
267.72,18.14643,-0.18731,0.86026,0.99073
268.42,18.1676,-0.19078,0.8605,0.99031
269.12,18.1887,-0.19443,0.86016,0.9899
269.82,18.20988,-0.1984,0.85789,0.98948
270.52,18.23099,-0.20264,0.85745,0.98906
271.22,18.25207,-0.20582,0.85927,0.98865
271.92,18.27321,-0.20884,0.85759,0.98823
272.62,18.29433,-0.21229,0.85716,0.98781
273.32,18.3154,-0.21671,0.85484,0.98739
274.02,18.3365,-0.2215,0.85624,0.98696
274.72,18.35758,-0.22582,0.85348,0.98654
275.42,18.37875,-0.23037,0.85339,0.98612
276.12,18.39987,-0.23415,0.85337,0.9857
276.82,18.42101,-0.2385,0.85226,0.98527
277.52,18.44214,-0.24276,0.84916,0.98485
278.22,18.46323,-0.24767,0.85036,0.98442
278.92,18.4844,-0.25303,0.84551,0.98399
279.62,18.50548,-0.25754,0.84685,0.98357
280.32,18.52655,-0.26259,0.84495,0.98314
281.02,18.5476,-0.26964,0.84161,0.98271
281.72,18.56853,-0.2762,0.84191,0.98228
282.42,18.58963,-0.28168,0.84167,0.98185
283.12,18.61086,-0.28802,0.83953,0.98141
283.82,18.63206,-0.29486,0.83485,0.98098
284.52,18.65341,-0.30163,0.83327,0.98055
285.22,18.67474,-0.30674,0.82965,0.98011
285.92,18.69589,-0.31313,0.82884,0.97968
286.62,18.717,-0.31894,0.82435,0.97924
287.32,18.73816,-0.32631,0.82065,0.97881
288.02,18.7593,-0.33435,0.81941,0.97837
288.72,18.78045,-0.34293,0.8152,0.97793
289.42,18.8016,-0.34976,0.8112,0.97749
290.12,18.82282,-0.35748,0.80796,0.97705
290.82,18.844,-0.36378,0.80386,0.97661
291.52,18.8651,-0.37178,0.79916,0.97617
292.22,18.88626,-0.37918,0.7947,0.97573
292.92,18.90745,-0.38843,0.79293,0.97529
293.62,18.92861,-0.39665,0.78749,0.97485
294.32,18.94975,-0.40521,0.78422,0.9744
295.02,18.97094,-0.41354,0.77953,0.97396
295.72,18.99204,-0.42239,0.77624,0.97351
296.42,19.01326,-0.43206,0.77083,0.97307
297.12,19.03444,-0.44089,0.76509,0.97262
297.82,19.05562,-0.45095,0.76079,0.97217
298.52,19.07677,-0.46014,0.75695,0.97172
299.22,19.0978,-0.47138,0.74994,0.97127
299.92,19.1189,-0.48047,0.74388,0.97082
300.62,19.1401,-0.49164,0.73816,0.97037
301.32,19.16125,-0.50064,0.73442,0.96992
302.02,19.18241,-0.51203,0.72879,0.96947
302.72,19.20354,-0.52134,0.72374,0.96902
303.42,19.22472,-0.5328,0.71687,0.96856
304.12,19.24592,-0.5428,0.71248,0.96811
304.82,19.267,-0.55438,0.70443,0.96765
305.52,19.28815,-0.56543,0.70049,0.9672
306.22,19.30927,-0.57802,0.69544,0.96674
306.92,19.33028,-0.59042,0.69023,0.96629
307.62,19.3515,-0.60326,0.68531,0.96583
308.32,19.37259,-0.61616,0.67654,0.96537
309.02,19.3938,-0.62804,0.67423,0.96491
309.72,19.4151,-0.64119,0.67162,0.96445
310.42,19.43628,-0.65303,0.66462,0.96399
311.12,19.45755,-0.66743,0.65971,0.96353
311.82,19.4787,-0.67915,0.65457,0.96307
312.52,19.49977,-0.69341,0.64914,0.9626
313.22,19.5209,-0.70495,0.64735,0.96214
313.92,19.54204,-0.71959,0.64367,0.96168
314.62,19.56321,-0.73203,0.6385,0.96121
315.32,19.58427,-0.74707,0.63648,0.96075
316.02,19.6052,-0.75942,0.63046,0.96028
316.72,19.6264,-0.77362,0.62816,0.95981
317.42,19.64752,-0.78602,0.62355,0.95935
318.12,19.6687,-0.80032,0.62227,0.95888
318.82,19.69006,-0.81404,0.61732,0.95841
319.52,19.71124,-0.82806,0.6143,0.95794
320.22,19.73244,-0.84248,0.61208,0.95747
320.92,19.75366,-0.85606,0.60855,0.957
321.62,19.7749,-0.8714,0.60754,0.95653
322.32,19.79601,-0.88482,0.60745,0.95606
323.02,19.81719,-0.90068,0.60436,0.95558
323.72,19.83834,-0.914,0.60036,0.95511
324.42,19.85955,-0.93025,0.60074,0.95463
325.12,19.88082,-0.94308,0.60154,0.95416
325.82,19.90215,-0.95868,0.60057,0.95368
326.52,19.92344,-0.97117,0.60164,0.95321
327.22,19.9447,-0.98726,0.60032,0.95273
327.92,19.96604,-1.00149,0.60148,0.95225
328.62,19.98731,-1.01693,0.60288,0.95178
329.32,20.0086,-1.03125,0.60547,0.9513
330.02,20.02983,-1.04609,0.60726,0.95082
330.72,20.05105,-1.05916,0.60802,0.95034
331.42,20.07228,-1.07331,0.60834,0.94986
332.12,20.09355,-1.08846,0.6105,0.94938
332.82,20.11485,-1.10259,0.61354,0.94889
333.52,20.13615,-1.11871,0.61644,0.94841
334.22,20.15744,-1.13199,0.61554,0.94793
334.92,20.17875,-1.14829,0.61719,0.94745
335.62,20.20001,-1.16125,0.62236,0.94696
336.32,20.22138,-1.17765,0.62679,0.94648
337.02,20.2427,-1.19076,0.62767,0.94599
337.72,20.26405,-1.20755,0.63371,0.9455
338.42,20.28539,-1.22031,0.63767,0.94502
339.12,20.30663,-1.23489,0.64185,0.94453
339.82,20.32793,-1.24813,0.64717,0.94404
340.52,20.34925,-1.26339,0.65024,0.94355
341.22,20.37056,-1.27797,0.65693,0.94306
341.92,20.3919,-1.29256,0.6613,0.94257
342.62,20.41327,-1.30765,0.66942,0.94208
343.32,20.4346,-1.32146,0.67495,0.94159
344.02,20.456,-1.33719,0.68223,0.9411
344.72,20.47739,-1.35133,0.68676,0.94061
345.42,20.49877,-1.36861,0.69587,0.94012
346.12,20.5201,-1.38159,0.7013,0.93962
346.82,20.54149,-1.39637,0.70926,0.93913
347.52,20.5629,-1.40895,0.71912,0.93863
348.22,20.5843,-1.42539,0.72726,0.93814
348.92,20.60572,-1.43903,0.73874,0.93764
349.62,20.62716,-1.45592,0.74682,0.93715
350.32,20.64855,-1.47027,0.75695,0.93665
351.02,20.66998,-1.4858,0.76701,0.93615
351.72,20.69142,-1.50153,0.77866,0.93565
352.42,20.7129,-1.51731,0.7907,0.93516
353.12,20.73435,-1.53618,0.80193,0.93466
353.82,20.75572,-1.55138,0.81586,0.93416
354.52,20.77695,-1.56853,0.82861,0.93366
355.22,20.79833,-1.58335,0.84381,0.93316
355.92,20.81979,-1.60245,0.85776,0.93265
356.62,20.84125,-1.61798,0.8721,0.93215
357.32,20.86298,-1.63678,0.88961,0.93165
358.02,20.88448,-1.65109,0.90611,0.93115
358.72,20.90596,-1.67067,0.9265,0.93064
359.42,20.92727,-1.68809,0.94307,0.93014
360.12,20.9486,-1.7077,0.96429,0.92963
360.82,20.97015,-1.72641,0.98344,0.92913
361.52,20.99168,-1.74659,1.007,0.92862
362.22,21.0134,-1.76707,1.02869,0.92812
362.92,21.03503,-1.78606,1.05272,0.92761
363.62,21.05647,-1.80839,1.07674,0.9271
364.32,21.07795,-1.82857,1.10036,0.92659
365.02,21.0994,-1.8539,1.12672,0.92609
365.72,21.12095,-1.87433,1.15269,0.92558
366.42,21.1426,-1.90024,1.17935,0.92507
367.12,21.1642,-1.92184,1.20967,0.92456
367.82,21.18574,-1.94788,1.23622,0.92405
368.52,21.20734,-1.97142,1.26187,0.92353
369.22,21.22888,-1.99908,1.29025,0.92302
369.92,21.2505,-2.02669,1.31435,0.92251
370.62,21.2722,-2.05507,1.34194,0.922
371.32,21.2938,-2.08494,1.36147,0.92148
372.02,21.31542,-2.1123,1.37654,0.92097
372.72,21.33703,-2.14429,1.39023,0.92046
373.42,21.3586,-2.1715,1.39783,0.91994
374.12,21.38031,-2.20701,1.40034,0.91943
374.82,21.40191,-2.23556,1.39392,0.91891
375.52,21.42352,-2.27026,1.38104,0.91839
376.22,21.44517,-2.29893,1.35837,0.91788
376.92,21.4668,-2.33252,1.32782,0.91736
377.62,21.48851,-2.36388,1.28386,0.91684
378.32,21.51015,-2.39628,1.23338,0.91632
379.02,21.5318,-2.42771,1.17313,0.91581
379.72,21.5534,-2.45634,1.10676,0.91529
380.42,21.575,-2.48592,1.03656,0.91477
381.12,21.59668,-2.51055,0.95799,0.91425
381.82,21.61842,-2.53807,0.87756,0.91373
382.52,21.6401,-2.56035,0.79558,0.9132
383.22,21.66165,-2.58514,0.71409,0.91268
383.92,21.68329,-2.60371,0.63313,0.91216
384.62,21.7048,-2.6241,0.55846,0.91164
385.32,21.7264,-2.63927,0.48343,0.91111
386.02,21.74795,-2.65466,0.41328,0.91059
386.72,21.76952,-2.66776,0.34554,0.91007
387.42,21.79102,-2.68077,0.28669,0.90954
388.12,21.8126,-2.69229,0.23277,0.90902
388.82,21.83413,-2.70168,0.18195,0.90849
389.52,21.85569,-2.71116,0.13493,0.90797
390.22,21.87733,-2.71878,0.09314729,0.90744
390.92,21.89891,-2.7275,0.05657853,0.90691
391.62,21.92057,-2.73376,0.02111808,0.90638
392.32,21.94218,-2.74026,-0.006807196,0.90586
393.02,21.9638,-2.74483,-0.0359286,0.90533
393.72,21.9854,-2.75011,-0.05900391,0.9048
394.42,22.0071,-2.75406,-0.08225985,0.90427
395.12,22.02864,-2.75854,-0.10358,0.90374
395.82,22.05022,-2.76258,-0.12051,0.90321
396.52,22.07186,-2.76651,-0.13463,0.90268
397.22,22.09346,-2.76997,-0.15224,0.90215
397.92,22.11511,-2.77216,-0.16679,0.90162
398.62,22.13676,-2.77618,-0.17934,0.90109
399.32,22.15847,-2.77955,-0.19174,0.90056
400.02,22.18016,-2.7831,-0.20085,0.90002
400.72,22.20187,-2.78577,-0.21168,0.89949
401.42,22.2236,-2.78847,-0.22291,0.89896
402.12,22.24521,-2.79152,-0.22971,0.89842
402.82,22.26687,-2.79474,-0.24105,0.89789
403.52,22.28854,-2.79833,-0.24673,0.89735
404.22,22.31032,-2.80131,-0.25919,0.89682
404.92,22.33209,-2.80494,-0.26586,0.89628
405.62,22.3539,-2.8073,-0.27337,0.89575
406.32,22.37562,-2.80908,-0.27814,0.89521
407.02,22.39723,-2.81062,-0.28599,0.89467
407.72,22.41895,-2.81293,-0.29374,0.89414
408.42,22.44067,-2.81505,-0.30053,0.8936
409.12,22.4624,-2.81723,-0.30644,0.89306
409.82,22.4842,-2.81937,-0.31493,0.89252
410.52,22.50592,-2.82192,-0.32077,0.89198
411.22,22.5277,-2.82414,-0.32764,0.89144
411.92,22.54954,-2.82653,-0.33142,0.8909
412.62,22.57137,-2.82956,-0.33761,0.89036
413.32,22.5932,-2.83167,-0.34467,0.88982
414.02,22.61504,-2.83369,-0.35048,0.88928
414.72,22.6368,-2.83552,-0.35504,0.88874
415.42,22.65861,-2.83736,-0.36223,0.8882
416.12,22.6804,-2.83927,-0.36471,0.88766
416.82,22.70223,-2.8421,-0.37044,0.88712
417.52,22.7241,-2.84464,-0.37662,0.88657
418.22,22.7459,-2.84692,-0.38245,0.88603
418.92,22.76774,-2.84893,-0.38652,0.88549
419.62,22.78956,-2.85114,-0.39101,0.88494
420.32,22.8113,-2.85469,-0.3951,0.8844
421.02,22.83323,-2.8567,-0.39954,0.88385
421.72,22.85509,-2.85869,-0.4031,0.88331
422.42,22.87697,-2.86055,-0.4078,0.88276
423.12,22.89891,-2.861,-0.41146,0.88222
423.82,22.92077,-2.86295,-0.41381,0.88167
424.52,22.94264,-2.86497,-0.41899,0.88112
425.22,22.9645,-2.86695,-0.42359,0.88058
425.92,22.98633,-2.86829,-0.42883,0.88003
426.62,23.00818,-2.87,-0.43262,0.87948
427.32,23.03005,-2.87202,-0.43512,0.87893
428.02,23.052,-2.87372,-0.43916,0.87839
428.72,23.07392,-2.87634,-0.44115,0.87784
429.42,23.09583,-2.87809,-0.44429,0.87729
430.12,23.1178,-2.88013,-0.44672,0.87674
430.82,23.13966,-2.88209,-0.44896,0.87619
431.52,23.1616,-2.88411,-0.45227,0.87564
432.22,23.1835,-2.88583,-0.45413,0.87509
432.92,23.20524,-2.88752,-0.45749,0.87454
433.62,23.2271,-2.88903,-0.45951,0.87399
434.32,23.24904,-2.89104,-0.46032,0.87344
435.02,23.27099,-2.89171,-0.46233,0.87289
435.72,23.2931,-2.89339,-0.46488,0.87233
436.42,23.31519,-2.89483,-0.46479,0.87178
437.12,23.33694,-2.89651,-0.46713,0.87123
437.82,23.35889,-2.89858,-0.46951,0.87068
438.52,23.38092,-2.90074,-0.46992,0.87012
439.22,23.40296,-2.90256,-0.4722,0.86957
439.92,23.42522,-2.90436,-0.47399,0.86901
440.62,23.44727,-2.90644,-0.47246,0.86846
441.32,23.4693,-2.90798,-0.47429,0.86791
442.02,23.4912,-2.90951,-0.47399,0.86735
442.72,23.51299,-2.91099,-0.47503,0.8668
443.42,23.53505,-2.91229,-0.47319,0.86624
444.12,23.5571,-2.91387,-0.47534,0.86568
444.82,23.57916,-2.91603,-0.47524,0.86513
445.52,23.6014,-2.9182,-0.47574,0.86457
446.22,23.62333,-2.91982,-0.47546,0.86401
446.92,23.64532,-2.92049,-0.47237,0.86346
447.62,23.6674,-2.92221,-0.47118,0.8629
448.32,23.6894,-2.92317,-0.47167,0.86234
449.02,23.71146,-2.92487,-0.47339,0.86178
449.72,23.73355,-2.92671,-0.47137,0.86123
450.42,23.75566,-2.92928,-0.4703,0.86067
451.12,23.7778,-2.93176,-0.46645,0.86011
451.82,23.79983,-2.93333,-0.4676,0.85955
452.52,23.82174,-2.93486,-0.46849,0.85899
453.22,23.84384,-2.93593,-0.46522,0.85843
453.92,23.86586,-2.93675,-0.46294,0.85787
454.62,23.88811,-2.93831,-0.46116,0.85731
455.32,23.91041,-2.94126,-0.4625,0.85675
456.02,23.93253,-2.94319,-0.45949,0.85619
456.72,23.95467,-2.94467,-0.45615,0.85563
457.42,23.97682,-2.94615,-0.45482,0.85507
458.12,23.9989,-2.94808,-0.44949,0.8545
458.82,24.02101,-2.95008,-0.45084,0.85394
459.52,24.0431,-2.95203,-0.44665,0.85338
460.22,24.06523,-2.95379,-0.44388,0.85282
460.92,24.0874,-2.95525,-0.44286,0.85226
461.62,24.10955,-2.95678,-0.44042,0.85169
462.32,24.13168,-2.95735,-0.43665,0.85113
463.02,24.15384,-2.95845,-0.43354,0.85057
463.72,24.176,-2.95993,-0.43393,0.85
464.42,24.1982,-2.9614,-0.43034,0.84944
465.12,24.22042,-2.96177,-0.42714,0.84887
465.82,24.24261,-2.96306,-0.4239,0.84831
466.52,24.26476,-2.9644,-0.42071,0.84774
467.22,24.28698,-2.96594,-0.41899,0.84718
467.92,24.30912,-2.96715,-0.41514,0.84661
468.62,24.3313,-2.96845,-0.41174,0.84605
469.32,24.35352,-2.97092,-0.4094,0.84548
470.02,24.37567,-2.97275,-0.40883,0.84492
470.72,24.39791,-2.97331,-0.40583,0.84435
471.42,24.4201,-2.97414,-0.40322,0.84378
472.12,24.44227,-2.97462,-0.39881,0.84322
472.82,24.4645,-2.97548,-0.397,0.84265
473.52,24.48665,-2.97587,-0.39255,0.84208
474.22,24.50889,-2.97714,-0.39146,0.84152
474.92,24.53111,-2.97838,-0.39014,0.84095
475.62,24.55339,-2.9802,-0.38819,0.84038
476.32,24.5757,-2.98177,-0.38374,0.83981
477.02,24.59797,-2.98314,-0.37921,0.83924
477.72,24.6203,-2.98502,-0.37902,0.83867
478.42,24.64252,-2.98592,-0.37867,0.83811
479.12,24.66477,-2.98649,-0.37643,0.83754
479.82,24.68704,-2.98813,-0.3712,0.83697
480.52,24.70929,-2.98916,-0.37036,0.8364
481.22,24.73147,-2.99066,-0.36763,0.83583
481.92,24.7538,-2.99148,-0.36674,0.83526
482.62,24.77601,-2.99243,-0.36522,0.83469
483.32,24.79814,-2.99299,-0.36177,0.83412
484.02,24.8205,-2.9942,-0.36085,0.83355
484.72,24.84281,-2.99555,-0.35959,0.83298
485.42,24.86516,-2.99633,-0.35726,0.83241
486.12,24.88765,-2.99755,-0.35474,0.83184
486.82,24.90995,-2.99893,-0.35577,0.83126
487.52,24.9323,-3.00064,-0.35461,0.83069
488.22,24.95457,-3.00143,-0.35008,0.83012
488.92,24.97691,-3.00188,-0.35227,0.82955
489.62,24.99921,-3.00354,-0.35118,0.82898
490.32,25.02156,-3.00436,-0.34826,0.8284
491.02,25.04392,-3.00501,-0.34715,0.82783
491.72,25.06614,-3.0062,-0.34727,0.82726
492.42,25.08853,-3.00658,-0.34365,0.82669
493.12,25.11086,-3.00805,-0.34289,0.82611
493.82,25.13316,-3.00946,-0.34184,0.82554
494.52,25.15559,-3.01067,-0.33943,0.82497
495.22,25.1779,-3.012,-0.33849,0.82439
495.92,25.20022,-3.0121,-0.33818,0.82382
496.62,25.2226,-3.01357,-0.3398,0.82325
497.32,25.24501,-3.01448,-0.33898,0.82267
498.02,25.26745,-3.01495,-0.33813,0.8221
498.72,25.28987,-3.01648,-0.33772,0.82152
499.42,25.3123,-3.01657,-0.33607,0.82095
500.12,25.3347,-3.01784,-0.33557,0.82037
500.82,25.35706,-3.01793,-0.33393,0.8198
501.52,25.3795,-3.01912,-0.334,0.81922
502.22,25.40185,-3.01961,-0.33304,0.81865
502.92,25.4242,-3.02042,-0.3333,0.81807
503.62,25.44664,-3.02107,-0.3328,0.8175
504.32,25.46901,-3.02174,-0.33107,0.81692
505.02,25.49144,-3.02222,-0.33236,0.81634
505.72,25.5139,-3.02316,-0.33184,0.81577
506.42,25.53635,-3.02479,-0.33333,0.81519
507.12,25.55876,-3.02623,-0.32877,0.81462
507.82,25.58118,-3.0264,-0.32949,0.81404
508.52,25.6036,-3.02771,-0.33197,0.81346
509.22,25.626,-3.02757,-0.33024,0.81289
509.92,25.64842,-3.02897,-0.32828,0.81231
510.62,25.67087,-3.02897,-0.32921,0.81173
511.32,25.69332,-3.03017,-0.3302,0.81115
512.02,25.71584,-3.03132,-0.33061,0.81058
512.72,25.7383,-3.03257,-0.32951,0.81
513.42,25.7608,-3.03401,-0.33026,0.80942
514.12,25.78323,-3.03468,-0.33018,0.80884
514.82,25.80569,-3.03531,-0.33078,0.80826
515.52,25.82817,-3.0353,-0.32518,0.80769
516.22,25.8507,-3.03679,-0.32367,0.80711
516.92,25.8733,-3.03757,-0.32768,0.80653
517.62,25.8958,-3.03879,-0.3277,0.80595
518.32,25.91832,-3.04008,-0.32835,0.80537
519.02,25.9408,-3.04046,-0.3297,0.80479
519.72,25.9633,-3.04132,-0.32716,0.80422
520.42,25.98575,-3.04248,-0.32692,0.80364
521.12,26.00824,-3.04269,-0.32664,0.80306
521.82,26.03075,-3.04268,-0.32828,0.80248
522.52,26.05324,-3.04388,-0.32829,0.8019
523.22,26.07576,-3.04396,-0.32972,0.80132
523.92,26.09828,-3.04535,-0.33038,0.80074
524.62,26.12076,-3.04583,-0.33157,0.80016
525.32,26.1433,-3.04672,-0.3305,0.79958
526.02,26.16584,-3.04675,-0.33093,0.799
526.72,26.18838,-3.04675,-0.33231,0.79842
527.42,26.21094,-3.04672,-0.33474,0.79784
528.12,26.2335,-3.04879,-0.33227,0.79726
528.82,26.2561,-3.049,-0.33293,0.79668
529.52,26.2787,-3.05032,-0.33201,0.7961
530.22,26.3012,-3.05042,-0.33446,0.79552
530.92,26.3238,-3.05188,-0.3342,0.79494
531.62,26.34634,-3.05241,-0.33721,0.79436
532.32,26.36895,-3.05322,-0.33449,0.79377
533.02,26.39147,-3.0529,-0.33322,0.79319
533.72,26.41403,-3.05321,-0.33642,0.79261
534.42,26.4366,-3.05333,-0.33623,0.79203
535.12,26.45921,-3.05467,-0.33734,0.79145
535.82,26.4819,-3.05567,-0.33824,0.79087
536.52,26.5045,-3.05724,-0.33992,0.79029
537.22,26.52709,-3.0577,-0.3372,0.78971
537.92,26.5497,-3.0586,-0.33892,0.78912
538.62,26.57227,-3.0586,-0.34133,0.78854
539.32,26.5949,-3.05851,-0.33722,0.78796
540.02,26.61754,-3.0599,-0.33907,0.78738
540.72,26.6401,-3.05992,-0.33668,0.7868
541.42,26.6628,-3.06129,-0.33922,0.78621
542.12,26.6854,-3.0606,-0.33556,0.78563
542.82,26.708,-3.06197,-0.33595,0.78505
543.52,26.7306,-3.06239,-0.3368,0.78447
544.22,26.7532,-3.06349,-0.33734,0.78388
544.92,26.7759,-3.06448,-0.33535,0.7833
545.62,26.7985,-3.06484,-0.33483,0.78272
546.32,26.82116,-3.06489,-0.33266,0.78214
547.02,26.8438,-3.06621,-0.33426,0.78155
547.72,26.8664,-3.06573,-0.3341,0.78097
548.42,26.8891,-3.06676,-0.33483,0.78039
549.12,26.91174,-3.06689,-0.33795,0.77981
549.82,26.9344,-3.06831,-0.33436,0.77922
550.52,26.95716,-3.0684,-0.3335,0.77864
551.22,26.9798,-3.06956,-0.33725,0.77806
551.92,27.00255,-3.06956,-0.33538,0.77747
552.62,27.02525,-3.06956,-0.33393,0.77689
553.32,27.04787,-3.06956,-0.33229,0.77631
554.02,27.07055,-3.06994,-0.33316,0.77572
554.72,27.09324,-3.07087,-0.33394,0.77514
555.42,27.1159,-3.07146,-0.33704,0.77456
556.12,27.13857,-3.07276,-0.33602,0.77397
556.82,27.16125,-3.07323,-0.33584,0.77339
557.52,27.18396,-3.07455,-0.33613,0.77281
558.22,27.20662,-3.0745,-0.33457,0.77222
558.92,27.2293,-3.07478,-0.33223,0.77164
559.62,27.25208,-3.0758,-0.33401,0.77106
560.32,27.27478,-3.07577,-0.33226,0.77047
561.02,27.29761,-3.07704,-0.3343,0.76989
561.72,27.32025,-3.07715,-0.33358,0.76931
562.42,27.343,-3.07864,-0.33443,0.76872
563.12,27.36573,-3.07911,-0.33359,0.76814
563.82,27.38846,-3.07988,-0.33454,0.76755
564.52,27.41125,-3.07988,-0.33462,0.76697
565.22,27.434,-3.08008,-0.33572,0.76639
565.92,27.45672,-3.08122,-0.33396,0.7658
566.62,27.4795,-3.08119,-0.33508,0.76522
567.32,27.5023,-3.08136,-0.33384,0.76463
568.02,27.5251,-3.08265,-0.33433,0.76405
568.72,27.5478,-3.0831,-0.33582,0.76347
569.42,27.5706,-3.08394,-0.33387,0.76288
570.12,27.59338,-3.0856,-0.33352,0.7623
570.82,27.61614,-3.08582,-0.3378,0.76171
571.52,27.6389,-3.0868,-0.33431,0.76113
572.22,27.66167,-3.08685,-0.33776,0.76054
572.92,27.6845,-3.08815,-0.33735,0.75996
573.62,27.7073,-3.0881,-0.33672,0.75938
574.32,27.73,-3.0881,-0.33821,0.75879
575.02,27.75283,-3.08927,-0.34099,0.75821
575.72,27.77543,-3.08942,-0.34187,0.75762
576.42,27.79819,-3.08942,-0.34166,0.75704
577.12,27.82102,-3.08942,-0.34109,0.75645
577.82,27.84385,-3.08942,-0.34518,0.75587
578.52,27.86682,-3.08941,-0.34735,0.75529
579.22,27.8896,-3.0894,-0.34512,0.7547
579.92,27.9124,-3.09074,-0.34786,0.75412
580.62,27.93517,-3.09073,-0.3459,0.75353
581.32,27.958,-3.09075,-0.34987,0.75295
582.02,27.9806,-3.09177,-0.3494,0.75236
582.72,28.0034,-3.09198,-0.35271,0.75178
583.42,28.02617,-3.09333,-0.34941,0.7512
584.12,28.04901,-3.09336,-0.35626,0.75061
584.82,28.072,-3.09337,-0.35291,0.75003
585.52,28.09485,-3.09381,-0.35588,0.74944
586.22,28.1177,-3.09468,-0.35767,0.74886
586.92,28.14051,-3.09468,-0.36017,0.74827
587.62,28.16335,-3.09484,-0.35797,0.74769
588.32,28.18628,-3.09604,-0.36002,0.7471
589.02,28.20917,-3.09601,-0.36058,0.74652
589.72,28.232,-3.09712,-0.36177,0.74594
590.42,28.2548,-3.09731,-0.36474,0.74535
591.12,28.2776,-3.09748,-0.3664,0.74477
591.82,28.3004,-3.09862,-0.36818,0.74418
592.52,28.3234,-3.09722,-0.36917,0.7436
593.22,28.3463,-3.09731,-0.3701,0.74301
593.92,28.36913,-3.09858,-0.37166,0.74243
594.62,28.392,-3.09862,-0.3742,0.74185
595.32,28.41481,-3.09962,-0.37481,0.74126
596.02,28.43765,-3.10107,-0.37706,0.74068
596.72,28.46054,-3.10258,-0.37652,0.74009
597.42,28.48341,-3.10258,-0.38071,0.73951
598.12,28.5064,-3.10358,-0.37957,0.73893
598.82,28.5293,-3.10389,-0.38036,0.73834
599.52,28.55213,-3.10389,-0.38464,0.73776
600.22,28.57498,-3.1039,-0.38459,0.73717
600.92,28.59784,-3.10437,-0.38343,0.73659
601.62,28.62074,-3.10521,-0.38682,0.73601
602.32,28.64365,-3.10538,-0.38833,0.73542
603.02,28.6666,-3.10658,-0.39183,0.73484
603.72,28.68948,-3.10557,-0.39369,0.73425
604.42,28.7123,-3.10555,-0.39238,0.73367
605.12,28.7351,-3.10555,-0.39628,0.73309
605.82,28.75794,-3.10555,-0.39969,0.7325
606.52,28.78091,-3.10555,-0.39673,0.73192
607.22,28.8039,-3.1059,-0.39813,0.73134
607.92,28.8268,-3.10732,-0.39985,0.73075
608.62,28.8497,-3.1075,-0.40344,0.73017
609.32,28.87254,-3.10783,-0.40159,0.72958
610.02,28.8955,-3.10792,-0.40324,0.729
610.72,28.9184,-3.10919,-0.40386,0.72842
611.42,28.9413,-3.10913,-0.40409,0.72783
612.12,28.9642,-3.11039,-0.40631,0.72725
612.82,28.9872,-3.11048,-0.40858,0.72667
613.52,29.0102,-3.11048,-0.41103,0.72608
614.22,29.03315,-3.11166,-0.40979,0.7255
614.92,29.05615,-3.11181,-0.41297,0.72492
615.62,29.07905,-3.11269,-0.40946,0.72434
616.32,29.1019,-3.11311,-0.41588,0.72375
617.02,29.12487,-3.11395,-0.41381,0.72317
617.72,29.1478,-3.11441,-0.41464,0.72259
618.42,29.1708,-3.11589,-0.41501,0.722
619.12,29.19378,-3.11585,-0.41968,0.72142
619.82,29.21673,-3.11677,-0.41942,0.72084
620.52,29.2397,-3.11585,-0.42267,0.72026
621.22,29.26274,-3.11586,-0.42313,0.71967
621.92,29.2857,-3.11595,-0.42568,0.71909
622.62,29.3088,-3.11719,-0.42599,0.71851
623.32,29.33176,-3.11718,-0.4266,0.71793
624.02,29.3547,-3.1176,-0.42773,0.71734
624.72,29.3777,-3.11849,-0.42453,0.71676
625.42,29.4007,-3.11849,-0.42557,0.71618
626.12,29.4236,-3.11842,-0.4276,0.7156
626.82,29.4467,-3.11978,-0.43187,0.71501
627.52,29.4697,-3.11981,-0.42913,0.71443
628.22,29.4927,-3.12068,-0.43164,0.71385
628.92,29.51574,-3.12111,-0.43344,0.71327
629.62,29.5388,-3.12112,-0.4352,0.71269
630.32,29.5618,-3.12112,-0.43558,0.7121
631.02,29.5848,-3.12112,-0.44012,0.71152
631.72,29.6079,-3.12111,-0.44242,0.71094
632.42,29.6309,-3.12118,-0.44558,0.71036
633.12,29.6539,-3.12257,-0.44534,0.70978
633.82,29.6769,-3.12256,-0.44561,0.7092
634.52,29.69985,-3.12287,-0.4472,0.70862
635.22,29.7229,-3.12351,-0.44932,0.70803
635.92,29.74588,-3.12354,-0.4502,0.70745
636.62,29.76894,-3.12383,-0.4516,0.70687
637.32,29.792,-3.12387,-0.45353,0.70629
638.02,29.81506,-3.12413,-0.45482,0.70571
638.72,29.83815,-3.1252,-0.45509,0.70513
639.42,29.8612,-3.12518,-0.45621,0.70455
640.12,29.8842,-3.12595,-0.45741,0.70397
640.82,29.90728,-3.12649,-0.45972,0.70339
641.52,29.9303,-3.1265,-0.46138,0.70281
642.22,29.95337,-3.1279,-0.46148,0.70223
642.92,29.9765,-3.12781,-0.46322,0.70165
643.62,29.99953,-3.1278,-0.46212,0.70107
644.32,30.02262,-3.12918,-0.46654,0.70049
645.02,30.0457,-3.12913,-0.4657,0.69991
645.72,30.06868,-3.12912,-0.46735,0.69933
646.42,30.09181,-3.12832,-0.46753,0.69875
647.12,30.11494,-3.12782,-0.47199,0.69817
647.82,30.138,-3.12781,-0.47252,0.69759
648.52,30.16113,-3.12781,-0.47532,0.69701
649.22,30.1841,-3.12785,-0.47458,0.69643
649.92,30.2072,-3.12918,-0.47498,0.69585
650.62,30.23025,-3.12913,-0.47631,0.69527
651.32,30.25337,-3.12907,-0.47861,0.69469
652.02,30.2765,-3.13041,-0.47768,0.69411
652.72,30.2995,-3.13044,-0.47946,0.69353
653.42,30.32262,-3.13046,-0.48166,0.69296
654.12,30.34572,-3.13183,-0.48176,0.69238
654.82,30.3687,-3.13299,-0.48165,0.6918
655.52,30.39185,-3.1331,-0.48508,0.69122
656.22,30.41494,-3.13202,-0.48826,0.69064
656.92,30.43797,-3.13169,-0.48894,0.69006
657.62,30.4611,-3.13307,-0.48792,0.68949
658.32,30.4842,-3.13308,-0.4927,0.68891
659.02,30.5072,-3.1335,-0.49089,0.68833
659.72,30.5304,-3.13439,-0.48966,0.68775
660.42,30.55347,-3.13443,-0.49276,0.68718
661.12,30.57657,-3.13346,-0.49414,0.6866
661.82,30.59977,-3.1334,-0.49171,0.68602
662.52,30.62292,-3.1334,-0.49669,0.68544
663.22,30.646,-3.13339,-0.49614,0.68487
663.92,30.6692,-3.13336,-0.49909,0.68429
664.62,30.69227,-3.13473,-0.50038,0.68371
665.32,30.7154,-3.1348,-0.50136,0.68314
666.02,30.7385,-3.13605,-0.50351,0.68256
666.72,30.76168,-3.13615,-0.50194,0.68198
667.42,30.7848,-3.13735,-0.50537,0.68141
668.12,30.80797,-3.13848,-0.50555,0.68083
668.82,30.83114,-3.14001,-0.50641,0.68025
669.52,30.85417,-3.13998,-0.50776,0.67968
670.22,30.8773,-3.13998,-0.50439,0.6791
670.92,30.9004,-3.13998,-0.50735,0.67853
671.62,30.9235,-3.13998,-0.51106,0.67795
672.32,30.9468,-3.13993,-0.51078,0.67737
673.02,30.9699,-3.1413,-0.51155,0.6768
673.72,30.9931,-3.1413,-0.50871,0.67622
674.42,31.01629,-3.1413,-0.51024,0.67565
675.12,31.0394,-3.14128,-0.5123,0.67507
675.82,31.06257,-3.14265,-0.51157,0.6745
676.52,31.0858,-3.14204,-0.51292,0.67392
677.22,31.109,-3.14164,-0.51943,0.67335
677.92,31.13219,-3.14163,-0.51903,0.67278
678.62,31.1554,-3.14163,-0.51974,0.6722
679.32,31.17851,-3.14163,-0.51799,0.67163
680.02,31.20158,-3.14163,-0.52083,0.67105
680.72,31.2247,-3.14158,-0.5215,0.67048
681.42,31.24785,-3.14285,-0.52087,0.6699
682.12,31.27106,-3.14294,-0.52665,0.66933
682.82,31.2943,-3.14294,-0.52765,0.66876
683.52,31.31738,-3.1431,-0.52761,0.66818
684.22,31.3405,-3.14425,-0.53335,0.66761
684.92,31.36363,-3.14426,-0.53079,0.66704
685.62,31.3868,-3.14426,-0.53083,0.66647
686.32,31.41,-3.14426,-0.53179,0.66589
687.02,31.4332,-3.14428,-0.53531,0.66532
687.72,31.45638,-3.14488,-0.53386,0.66475
688.42,31.47953,-3.14558,-0.53427,0.66418
689.12,31.50269,-3.14558,-0.53907,0.6636
689.82,31.5259,-3.14558,-0.53965,0.66303
690.52,31.54904,-3.14558,-0.54089,0.66246
691.22,31.5722,-3.14558,-0.54297,0.66189
691.92,31.5954,-3.14557,-0.54438,0.66132
692.62,31.6186,-3.14529,-0.54554,0.66074
693.32,31.6418,-3.14474,-0.5475,0.66017
694.02,31.66498,-3.14426,-0.54322,0.6596
694.72,31.68817,-3.14495,-0.54898,0.65903
695.42,31.7114,-3.14492,-0.54794,0.65846
696.12,31.73457,-3.14492,-0.55584,0.65789
696.82,31.75775,-3.14492,-0.55276,0.65732
697.52,31.781,-3.14494,-0.55697,0.65675
698.22,31.8042,-3.14524,-0.55624,0.65618
698.92,31.82747,-3.14527,-0.55753,0.65561
699.62,31.85075,-3.1463,-0.56324,0.65504
700.32,31.87401,-3.14657,-0.56329,0.65447
701.02,31.89729,-3.14657,-0.56586,0.6539
701.72,31.92049,-3.14657,-0.56492,0.65333
702.42,31.9437,-3.14675,-0.56531,0.65276
703.12,31.96695,-3.14791,-0.56856,0.65219
703.82,31.9902,-3.14788,-0.56921,0.65162
704.52,32.01342,-3.14778,-0.57008,0.65105
705.22,32.0366,-3.15033,-0.57044,0.65049
705.92,32.05986,-3.15051,-0.57424,0.64992
706.62,32.0831,-3.1517,-0.57635,0.64935
707.32,32.1064,-3.15183,-0.57498,0.64878
708.02,32.12964,-3.15184,-0.58036,0.64821
708.72,32.15287,-3.15299,-0.57834,0.64764
709.42,32.17604,-3.15314,-0.58131,0.64708
710.12,32.19928,-3.15314,-0.58293,0.64651
710.82,32.2226,-3.15314,-0.58478,0.64594
711.52,32.24584,-3.15314,-0.58445,0.64538
712.22,32.26927,-3.15314,-0.59023,0.64481
712.92,32.2926,-3.15314,-0.59175,0.64424
713.62,32.31593,-3.15314,-0.59163,0.64367
714.32,32.3393,-3.15314,-0.59339,0.64311
715.02,32.3626,-3.15314,-0.59467,0.64254
715.72,32.3859,-3.15324,-0.59531,0.64198
716.42,32.4092,-3.15183,-0.59742,0.64141
717.12,32.43254,-3.15194,-0.59509,0.64084
717.82,32.45579,-3.15319,-0.5996,0.64028
718.52,32.4791,-3.15316,-0.60166,0.63971
719.22,32.5024,-3.1543,-0.5995,0.63915
719.92,32.5257,-3.15447,-0.60052,0.63858
720.62,32.54913,-3.15447,-0.60157,0.63802
721.32,32.57247,-3.15447,-0.60468,0.63745
722.02,32.59583,-3.15447,-0.60616,0.63689
722.72,32.6191,-3.15447,-0.60617,0.63633
723.42,32.64239,-3.15447,-0.60876,0.63576
724.12,32.6657,-3.15447,-0.6075,0.6352
724.82,32.68909,-3.15445,-0.61081,0.63463
725.52,32.71248,-3.15583,-0.6136,0.63407
726.22,32.73581,-3.15579,-0.61321,0.63351
726.92,32.7592,-3.1558,-0.61692,0.63294
727.62,32.78247,-3.15441,-0.61809,0.63238
728.32,32.8058,-3.15446,-0.62176,0.63182
729.02,32.8292,-3.15447,-0.62124,0.63125
729.72,32.8525,-3.15562,-0.61869,0.63069
730.42,32.8759,-3.15577,-0.62452,0.63013
731.12,32.89928,-3.15705,-0.62381,0.62957
731.82,32.92269,-3.15711,-0.624,0.62901
732.52,32.94607,-3.15701,-0.62789,0.62844
733.22,32.96945,-3.15638,-0.63043,0.62788
733.92,32.99279,-3.15708,-0.62804,0.62732
734.62,33.0161,-3.15709,-0.62985,0.62676
735.32,33.0394,-3.15709,-0.62788,0.6262
736.02,33.0627,-3.15798,-0.63053,0.62564
736.72,33.08611,-3.1584,-0.6337,0.62508
737.42,33.10951,-3.1584,-0.63728,0.62452
738.12,33.13297,-3.15992,-0.63256,0.62396
738.82,33.15641,-3.16046,-0.63762,0.6234
739.52,33.17977,-3.16115,-0.63753,0.62284
740.22,33.2031,-3.16115,-0.64149,0.62228
740.92,33.2264,-3.16115,-0.64305,0.62172
741.62,33.24973,-3.16115,-0.64338,0.62116
742.32,33.27312,-3.16114,-0.64634,0.6206
743.02,33.29659,-3.1607,-0.64656,0.62004
743.72,33.3201,-3.16049,-0.64812,0.61948
744.42,33.34349,-3.16049,-0.64528,0.61892
745.12,33.3669,-3.16049,-0.6444,0.61837
745.82,33.3903,-3.16049,-0.65137,0.61781
746.52,33.4136,-3.16049,-0.65208,0.61725
747.22,33.43695,-3.16049,-0.65012,0.61669
747.92,33.46032,-3.16049,-0.65377,0.61613
748.62,33.48366,-3.16066,-0.65407,0.61558
749.32,33.50714,-3.16182,-0.65154,0.61502
750.02,33.53058,-3.16114,-0.65439,0.61446
750.72,33.554,-3.16115,-0.6587,0.61391
751.42,33.5775,-3.16116,-0.65977,0.61335
752.12,33.60092,-3.16116,-0.65924,0.61279
752.82,33.62443,-3.16112,-0.65985,0.61224
753.52,33.64792,-3.16239,-0.66046,0.61168
754.22,33.67135,-3.16248,-0.6625,0.61113
754.92,33.6948,-3.16248,-0.66423,0.61057
755.62,33.71825,-3.16248,-0.66502,0.61002
756.32,33.74171,-3.16248,-0.67001,0.60946
757.02,33.7651,-3.16257,-0.66231,0.60891
757.72,33.78861,-3.16117,-0.66028,0.60835
758.42,33.81207,-3.16117,-0.66116,0.6078
759.12,33.8355,-3.16146,-0.66695,0.60724
759.82,33.859,-3.16249,-0.66425,0.60669
760.52,33.88241,-3.16333,-0.66792,0.60613
761.22,33.90586,-3.16378,-0.66615,0.60558
761.92,33.9293,-3.16379,-0.66658,0.60503
762.62,33.95281,-3.16379,-0.66701,0.60447
763.32,33.97631,-3.1638,-0.67151,0.60392
764.02,33.9998,-3.16249,-0.67371,0.60337
764.72,34.0233,-3.16247,-0.67212,0.60282
765.42,34.04675,-3.16247,-0.67022,0.60226
766.12,34.07028,-3.16381,-0.67278,0.60171
766.82,34.09381,-3.1638,-0.67084,0.60116
767.52,34.1173,-3.16379,-0.67261,0.60061
768.22,34.14085,-3.16379,-0.67339,0.60006
768.92,34.16434,-3.16519,-0.67531,0.59951
769.62,34.18785,-3.1646,-0.67999,0.59895
770.32,34.21134,-3.16412,-0.67824,0.5984
771.02,34.23482,-3.16415,-0.67691,0.59785
771.72,34.25826,-3.16378,-0.67818,0.5973
772.42,34.28177,-3.1638,-0.67828,0.59675
773.12,34.30532,-3.16519,-0.67999,0.5962
773.82,34.32885,-3.1651,-0.68156,0.59565
774.52,34.35241,-3.1651,-0.6787,0.5951
775.22,34.37591,-3.1651,-0.68006,0.59455
775.92,34.3994,-3.1651,-0.67645,0.594
776.62,34.42295,-3.1651,-0.67828,0.59346
777.32,34.4465,-3.1651,-0.68144,0.59291
778.02,34.4701,-3.16544,-0.68008,0.59236
778.72,34.4936,-3.16639,-0.68289,0.59181
779.42,34.5171,-3.16642,-0.68286,0.59126
780.12,34.54057,-3.1664,-0.68045,0.59071
780.82,34.56408,-3.1658,-0.68505,0.59017
781.52,34.58757,-3.16641,-0.68194,0.58962
782.22,34.611,-3.16642,-0.68431,0.58907
782.92,34.63442,-3.16721,-0.68481,0.58852
783.62,34.65795,-3.16772,-0.68744,0.58798
784.32,34.6815,-3.16773,-0.68504,0.58743
785.02,34.7051,-3.16776,-0.68705,0.58689
785.72,34.72866,-3.16862,-0.68506,0.58634
786.42,34.75219,-3.16873,-0.68606,0.58579
787.12,34.77568,-3.16873,-0.687,0.58525
787.82,34.7992,-3.16903,-0.68609,0.5847
788.52,34.82261,-3.16903,-0.68331,0.58416
789.22,34.84612,-3.17018,-0.6836,0.58361
789.92,34.8697,-3.17037,-0.6827,0.58307
790.62,34.89328,-3.1704,-0.68497,0.58252
791.32,34.91686,-3.17174,-0.68787,0.58198
792.02,34.9404,-3.17168,-0.68826,0.58143
792.72,34.96391,-3.17166,-0.68665,0.58089
793.42,34.98742,-3.17092,-0.68391,0.58035
793.72,34.9976,-3.17062,-0.68684,0.58011