File: 01_Data/Bamboo_Rug_A/STA/N2/30K_min/Bamboo_Rug_A_STA_N2_30KData_220124_R3.csv
##Temp./Â°C,Time/min,Mass loss(subtr.2)/mg,DSC(subtr.2)/(mW/mg),Sensit./(uV/mW)
48.597,10.00917,0.00231,0.009135575,1.06963
49.297,10.5501,0.003118239,0.05216085,1.06957
49.997,10.67494,0.00317604,0.0895354,1.0695
50.697,10.7647,0.00265931,0.12133,1.06944
51.397,10.83822,0.000507445,0.15444,1.06937
52.097,10.90118,0.001057164,0.17999,1.06931
52.797,10.95704,0.002421449,0.2067,1.06924
53.497,11.0092,0.004171388,0.22974,1.06917
54.197,11.05776,0.00289877,0.25461,1.0691
54.897,11.10287,0.00422037,0.27552,1.06902
55.597,11.1455,0.00431602,0.29648,1.06895
56.297,11.1859,0.004086207,0.31512,1.06888
56.997,11.22478,0.00281229,0.3342,1.0688
57.697,11.2623,0.00330215,0.34972,1.06872
58.397,11.2986,0.00424869,0.36876,1.06864
59.097,11.33363,0.004678722,0.38213,1.06856
59.797,11.36797,0.005033339,0.39802,1.06848
60.497,11.40131,0.004214541,0.41445,1.0684
61.197,11.43383,0.004684466,0.42774,1.06831
61.897,11.4657,0.004482939,0.44065,1.06823
62.597,11.49729,0.003554673,0.45404,1.06814
63.297,11.5282,0.00352794,0.46687,1.06805
63.997,11.5585,0.002750743,0.47837,1.06796
64.697,11.58832,0.003385553,0.4902,1.06787
65.397,11.61778,0.004221239,0.50211,1.06778
66.097,11.64691,0.004377395,0.51348,1.06768
66.797,11.67582,0.004038558,0.52468,1.06759
67.497,11.70435,0.004176462,0.53471,1.06749
68.197,11.73269,0.004204311,0.54531,1.06739
68.897,11.76061,0.003881789,0.55327,1.06729
69.597,11.7883,0.003331203,0.56374,1.06719
70.297,11.81559,0.00347271,0.57043,1.06709
70.997,11.8428,0.002696755,0.57986,1.06699
71.697,11.86996,0.002733,0.58855,1.06688
72.397,11.89688,0.002601989,0.5962,1.06677
73.097,11.9236,0.00282596,0.60341,1.06667
73.797,11.95011,0.00300406,0.61236,1.06656
74.497,11.97625,0.004205624,0.62069,1.06645
75.197,12.0025,0.005557974,0.62948,1.06634
75.897,12.0286,0.00623934,0.6349,1.06622
76.597,12.05472,0.004926929,0.64225,1.06611
77.297,12.08078,0.002762916,0.64623,1.06599
77.997,12.10657,0.00191607,0.65433,1.06588
78.697,12.13212,0.00190365,0.66055,1.06576
79.397,12.15765,0.001846217,0.66707,1.06564
80.097,12.183,0.00189164,0.67471,1.06552
80.797,12.2082,0.002773157,0.68141,1.0654
81.497,12.23339,0.001873667,0.68584,1.06527
82.197,12.25838,0.00348672,0.69392,1.06515
82.897,12.2834,0.002136526,0.69952,1.06502
83.597,12.30832,0.001967019,0.70503,1.06489
84.297,12.33313,0.001816849,0.70952,1.06477
84.997,12.35795,0.002234578,0.71668,1.06464
85.697,12.3826,0.002173659,0.72112,1.0645
86.397,12.40724,0.000925376,0.72717,1.06437
87.097,12.43168,0.00165245,0.73294,1.06424
87.797,12.45615,0.0007338514,0.73975,1.0641
88.497,12.48062,5.57345e-05,0.74537,1.06397
89.197,12.50496,0.0005205196,0.75138,1.06383
89.897,12.52925,0.0002151425,0.7556,1.06369
90.597,12.55338,0.0007488128,0.75938,1.06355
91.297,12.57723,0.0008254231,0.76124,1.06341
91.997,12.60143,0.000809663,0.76753,1.06326
92.697,12.62552,0.000564044,0.77232,1.06312
93.397,12.64963,0.001979677,0.77845,1.06297
94.097,12.67389,0.0005627053,0.78286,1.06283
94.797,12.6978,0.0006494733,0.78819,1.06268
95.497,12.7217,-0.000211431,0.79181,1.06253
96.197,12.7457,-0.0006240758,0.79522,1.06238
96.897,12.76955,0.0003613367,0.79786,1.06223
97.597,12.79335,0.000690602,0.80218,1.06207
98.297,12.8172,-0.0005785699,0.80651,1.06192
98.997,12.84092,-0.0006605663,0.80867,1.06176
99.697,12.86457,-0.00156372,0.81327,1.06161
100.397,12.88834,-0.001975725,0.8171,1.06145
101.097,12.912,-0.002007932,0.81859,1.06129
101.797,12.9358,-0.000763587,0.82171,1.06113
102.497,12.9595,-0.001979734,0.8268,1.06096
103.197,12.98321,-0.001994311,0.82989,1.0608
103.897,13.0069,-0.00274343,0.83136,1.06063
104.597,13.03055,-0.00324348,0.8319,1.06047
105.297,13.0542,-0.002065726,0.83678,1.0603
105.997,13.0778,-0.00319217,0.83885,1.06013
106.697,13.10144,-0.003179278,0.84196,1.05996
107.397,13.1251,-0.003182006,0.84248,1.05979
108.097,13.14872,-0.00347459,0.8459,1.05962
108.797,13.1722,-0.00446548,0.8442,1.05944
109.497,13.19573,-0.004498143,0.84748,1.05927
110.197,13.21918,-0.004820233,0.84883,1.05909
110.897,13.2427,-0.004822517,0.84984,1.05892
111.597,13.26632,-0.004820095,0.85111,1.05874
112.297,13.28984,-0.004820057,0.85243,1.05856
112.997,13.3134,-0.004825701,0.85407,1.05838
113.697,13.33685,-0.004903729,0.8545,1.05819
114.397,13.36031,-0.003512077,0.85595,1.05801
115.097,13.38374,-0.004924016,0.85585,1.05782
115.797,13.40709,-0.0048344,0.85508,1.05764
116.497,13.4306,-0.004804199,0.85705,1.05745
117.197,13.454,-0.00606684,0.85716,1.05726
117.897,13.4774,-0.005638034,0.85771,1.05707
118.597,13.50084,-0.004840202,0.85526,1.05688
119.297,13.52416,-0.0048322,0.85716,1.05669
119.997,13.5475,-0.004843349,0.8576,1.05649
120.697,13.5708,-0.005529984,0.8582,1.0563
121.397,13.59406,-0.00548602,0.85923,1.0561
122.097,13.6173,-0.005494995,0.85913,1.0559
122.797,13.64054,-0.006184778,0.86248,1.05571
123.497,13.6638,-0.006146575,0.86353,1.05551
124.197,13.6869,-0.006162164,0.86299,1.0553
124.897,13.71001,-0.007200804,0.86481,1.0551
125.597,13.733,-0.007087047,0.8632,1.0549
126.297,13.75605,-0.007032622,0.86405,1.05469
126.997,13.7792,-0.008440062,0.86715,1.05449
127.697,13.8022,-0.008440403,0.86745,1.05428
128.397,13.8253,-0.008440023,0.86677,1.05407
129.097,13.8483,-0.008440003,0.86889,1.05386
129.797,13.87127,-0.008439875,0.87013,1.05365
130.497,13.89427,-0.008436011,0.87139,1.05344
131.197,13.91724,-0.008224842,0.87208,1.05323
131.897,13.94015,-0.0074869,0.87288,1.05301
132.597,13.96299,-0.006364992,0.87538,1.05279
133.297,13.9858,-0.006464854,0.87423,1.05258
133.997,14.0086,-0.00646999,0.87701,1.05236
134.697,14.03134,-0.00646676,0.8778,1.05214
135.397,14.0541,-0.007316513,0.87984,1.05192
136.097,14.0768,-0.007768195,0.88101,1.0517
136.797,14.09956,-0.00778015,0.88104,1.05147
137.497,14.12225,-0.007786363,0.88629,1.05125
138.197,14.14485,-0.008042394,0.88528,1.05102
138.897,14.16753,-0.01037279,0.8863,1.0508
139.597,14.1901,-0.0104213,0.89052,1.05057
140.297,14.2127,-0.01042022,0.89167,1.05034
140.997,14.23533,-0.01042051,0.89333,1.05011
141.697,14.25786,-0.01042421,0.89677,1.04988
142.397,14.2804,-0.01033394,0.90222,1.04965
143.097,14.30294,-0.00909302,0.90289,1.04941
143.797,14.3255,-0.009099634,0.90428,1.04918
144.497,14.348,-0.009099993,0.90735,1.04894
145.197,14.3705,-0.0091,0.90829,1.0487
145.897,14.39294,-0.009099797,0.91105,1.04847
146.597,14.4153,-0.009096228,0.91367,1.04823
147.297,14.4377,-0.00906553,0.91794,1.04799
147.997,14.46004,-0.0104427,0.9208,1.04774
148.697,14.4824,-0.01042364,0.92356,1.0475
149.397,14.5047,-0.01042023,0.92666,1.04726
150.097,14.52706,-0.01042001,0.92878,1.04701
150.797,14.5494,-0.01042,0.93106,1.04676
151.497,14.5716,-0.01042,0.93536,1.04652
152.197,14.5939,-0.01042,0.93692,1.04627
152.897,14.61621,-0.01042,0.93996,1.04602
153.597,14.6384,-0.01042,0.94071,1.04577
154.297,14.6607,-0.01042004,0.94621,1.04551
154.997,14.6829,-0.01042139,0.94886,1.04526
155.697,14.7051,-0.0104458,0.95049,1.04501
156.397,14.72727,-0.01122841,0.9558,1.04475
157.097,14.74939,-0.01173976,0.95738,1.04449
157.797,14.77159,-0.01173975,0.95863,1.04423
158.497,14.7937,-0.01173674,0.962,1.04397
159.197,14.81584,-0.01168924,0.9661,1.04371
159.897,14.83792,-0.01299812,0.96746,1.04345
160.597,14.8601,-0.01271121,0.96841,1.04319
161.297,14.88231,-0.01235321,0.9725,1.04293
161.997,14.90444,-0.01238754,0.97504,1.04266
162.697,14.9266,-0.01238992,0.97681,1.04239
163.397,14.94863,-0.01239009,0.98192,1.04213
164.097,14.97069,-0.01238524,0.98369,1.04186
164.797,14.99276,-0.01297632,0.9879,1.04159
165.497,15.01477,-0.01336447,0.9911,1.04132
166.197,15.03679,-0.01336259,0.99398,1.04105
166.897,15.0587,-0.01434288,0.99642,1.04077
167.597,15.0807,-0.01469657,0.99821,1.0405
168.297,15.10275,-0.01469963,1.00072,1.04022
168.997,15.12476,-0.01469996,1.00517,1.03995
169.697,15.14679,-0.01469984,1.00889,1.03967
170.397,15.16879,-0.01469947,1.01297,1.03939
171.097,15.1907,-0.01473967,1.01424,1.03911
171.797,15.2126,-0.01502054,1.01606,1.03883
172.497,15.23455,-0.01502939,1.0219,1.03855
173.197,15.25641,-0.01502995,1.02477,1.03827
173.897,15.27834,-0.01502987,1.02651,1.03798
174.597,15.3003,-0.01503329,1.02988,1.0377
175.297,15.3222,-0.01519366,1.03314,1.03741
175.997,15.3441,-0.01778694,1.03512,1.03712
176.697,15.366,-0.01765666,1.03788,1.03684
177.397,15.3878,-0.0176502,1.04182,1.03655
178.097,15.40964,-0.01764998,1.04448,1.03626
178.797,15.4315,-0.0176483,1.0473,1.03596
179.497,15.45315,-0.01760807,1.05101,1.03567
180.197,15.4749,-0.018755,1.0547,1.03538
180.897,15.49666,-0.0188087,1.05689,1.03508
181.597,15.51839,-0.01764648,1.0591,1.03479
182.297,15.54014,-0.0176609,1.06409,1.03449
182.997,15.56185,-0.01766013,1.06633,1.03419
183.697,15.5836,-0.01766018,1.07042,1.03389
184.397,15.6053,-0.01766282,1.07258,1.03359
185.097,15.627,-0.01785197,1.07485,1.03329
185.797,15.6487,-0.01960686,1.08104,1.03299
186.497,15.67012,-0.02028506,1.08427,1.03268
187.197,15.69179,-0.02040036,1.08669,1.03238
187.897,15.7135,-0.02165181,1.09151,1.03207
188.597,15.73514,-0.021603,1.09401,1.03177
189.297,15.7569,-0.02160009,1.09718,1.03146
189.997,15.7786,-0.02159984,1.10207,1.03115
190.697,15.8001,-0.02160504,1.10471,1.03084
191.397,15.8216,-0.02300662,1.10761,1.03053
192.097,15.84322,-0.02292771,1.11098,1.03022
192.797,15.8647,-0.02293411,1.11698,1.0299
193.497,15.88625,-0.02334018,1.11995,1.02959
194.197,15.90789,-0.02425009,1.12362,1.02927
194.897,15.9294,-0.02424814,1.12597,1.02896
195.597,15.95098,-0.02558964,1.13358,1.02864
196.297,15.9725,-0.02555371,1.1359,1.02832
196.997,15.994,-0.02555022,1.13996,1.028
197.697,16.01551,-0.02554951,1.14426,1.02768
198.397,16.03704,-0.0255441,1.14887,1.02736
199.097,16.0586,-0.02683423,1.15227,1.02704
199.797,16.08004,-0.02687717,1.15578,1.02671
200.497,16.10153,-0.0270546,1.16285,1.02639
201.197,16.12301,-0.02820767,1.1662,1.02606
201.897,16.1445,-0.02871241,1.17172,1.02574
202.597,16.16592,-0.02917682,1.17569,1.02541
203.297,16.18732,-0.029983,1.17793,1.02508
203.997,16.2087,-0.0304904,1.18582,1.02475
204.697,16.23012,-0.03049469,1.1868,1.02442
205.397,16.2515,-0.0318956,1.19101,1.02409
206.097,16.2729,-0.03182712,1.19379,1.02376
206.797,16.29439,-0.03208457,1.19977,1.02342
207.497,16.31571,-0.03315791,1.20538,1.02309
208.197,16.33711,-0.03330905,1.20784,1.02275
208.897,16.35855,-0.03445428,1.21185,1.02241
209.597,16.37988,-0.03516922,1.21567,1.02208
210.297,16.4013,-0.03591376,1.2181,1.02174
210.997,16.4227,-0.03720481,1.22252,1.0214
211.697,16.4441,-0.03728144,1.22807,1.02106
212.397,16.46555,-0.038103,1.22722,1.02072
213.097,16.48691,-0.0380063,1.23355,1.02037
213.797,16.50825,-0.0393897,1.2401,1.02003
214.497,16.5296,-0.03937136,1.24401,1.01968
215.197,16.55096,-0.0407616,1.2476,1.01934
215.897,16.57231,-0.04066566,1.25003,1.01899
216.597,16.59362,-0.04174259,1.25395,1.01864
217.297,16.61504,-0.04195397,1.25677,1.01829
217.997,16.63635,-0.04476875,1.26036,1.01794
218.697,16.65769,-0.04495906,1.26464,1.01759
219.397,16.67902,-0.04628093,1.26738,1.01724
220.097,16.70029,-0.04633147,1.26996,1.01689
220.797,16.72156,-0.04776606,1.27591,1.01654
221.497,16.74287,-0.04849591,1.27841,1.01618
222.197,16.7641,-0.04912378,1.2845,1.01583
222.897,16.7854,-0.0507229,1.28572,1.01547
223.597,16.8067,-0.05121593,1.28979,1.01511
224.297,16.82796,-0.05235287,1.29086,1.01475
224.997,16.84925,-0.05342841,1.29455,1.01439
225.697,16.8705,-0.05393646,1.29567,1.01403
226.397,16.89173,-0.05527236,1.29921,1.01367
227.097,16.91303,-0.0563051,1.30149,1.01331
227.797,16.93432,-0.0569799,1.30469,1.01295
228.497,16.95553,-0.05842184,1.307,1.01258
229.197,16.9768,-0.06006385,1.31052,1.01222
229.897,16.9981,-0.06042583,1.31313,1.01185
230.597,17.0193,-0.06088512,1.315,1.01149
231.297,17.04062,-0.06222568,1.31843,1.01112
231.997,17.0619,-0.06403101,1.31896,1.01075
232.697,17.08309,-0.06607328,1.32396,1.01038
233.397,17.10437,-0.06798472,1.32473,1.01001
234.097,17.1255,-0.06886083,1.32634,1.00964
234.797,17.1467,-0.0700829,1.32904,1.00926
235.497,17.16789,-0.07146247,1.3309,1.00889
236.197,17.18906,-0.07226697,1.33222,1.00852
236.897,17.21031,-0.07382566,1.3352,1.00814
237.597,17.23149,-0.07510612,1.33803,1.00776
238.297,17.25265,-0.07685709,1.33929,1.00739
238.997,17.27388,-0.07862031,1.34208,1.00701
239.697,17.29505,-0.08041549,1.34558,1.00663
240.397,17.31622,-0.08204794,1.34743,1.00625
241.097,17.33747,-0.08359299,1.35319,1.00587
241.797,17.3586,-0.08519629,1.35611,1.00549
242.497,17.3798,-0.08649074,1.36244,1.0051
243.197,17.40106,-0.08832914,1.366,1.00472
243.897,17.42226,-0.09018094,1.36711,1.00434
244.597,17.44349,-0.09177723,1.36993,1.00395
245.297,17.4647,-0.09286533,1.37362,1.00356
245.997,17.48583,-0.0942632,1.37948,1.00318
246.697,17.50693,-0.09610063,1.38619,1.00279
247.397,17.52812,-0.09838003,1.39113,1.0024
248.097,17.54929,-0.10059,1.39624,1.00201
248.797,17.57049,-0.10177,1.40002,1.00162
249.497,17.59169,-0.10327,1.40249,1.00123
250.197,17.61287,-0.10481,1.40137,1.00084
250.897,17.63406,-0.10646,1.40165,1.00044
251.597,17.65523,-0.10856,1.39861,1.00005
252.297,17.6764,-0.11058,1.39853,0.99965
252.997,17.69734,-0.11308,1.38954,0.99926
253.697,17.71845,-0.11541,1.38498,0.99886
254.397,17.7396,-0.11796,1.38112,0.99846
255.097,17.76077,-0.12003,1.37327,0.99806
255.797,17.78205,-0.1221,1.37061,0.99766
256.497,17.80321,-0.12416,1.3666,0.99726
257.197,17.82434,-0.12622,1.36202,0.99686
257.897,17.8455,-0.12814,1.35791,0.99646
258.597,17.86664,-0.13038,1.35665,0.99606
259.297,17.8878,-0.13333,1.35239,0.99565
259.997,17.9089,-0.13641,1.3504,0.99525
260.697,17.93003,-0.13878,1.34863,0.99484
261.397,17.95113,-0.14091,1.34772,0.99444
262.097,17.97225,-0.14333,1.34505,0.99403
262.797,17.99343,-0.1463,1.3442,0.99362
263.497,18.01458,-0.14899,1.34211,0.99321
264.197,18.03567,-0.152,1.34033,0.9928
264.897,18.05679,-0.15493,1.33931,0.99239
265.597,18.07785,-0.1579,1.33876,0.99198
266.297,18.09899,-0.1611,1.33554,0.99157
266.997,18.12013,-0.16371,1.33639,0.99116
267.697,18.14126,-0.16653,1.33587,0.99074
268.397,18.16238,-0.16957,1.33449,0.99033
269.097,18.1834,-0.17318,1.33439,0.98991
269.797,18.20458,-0.17727,1.334,0.98949
270.497,18.22568,-0.18074,1.33348,0.98908
271.197,18.24682,-0.18473,1.32942,0.98866
271.897,18.2679,-0.18815,1.32975,0.98824
272.597,18.28901,-0.19181,1.32749,0.98782
273.297,18.31007,-0.19561,1.32623,0.9874
273.997,18.33119,-0.20121,1.32403,0.98698
274.697,18.35236,-0.20612,1.32251,0.98656
275.397,18.37349,-0.21004,1.31921,0.98613
276.097,18.39463,-0.2146,1.321,0.98571
276.797,18.4157,-0.21787,1.3183,0.98529
277.497,18.43679,-0.22158,1.31732,0.98486
278.197,18.45787,-0.22631,1.31492,0.98443
278.897,18.47896,-0.23117,1.31319,0.98401
279.597,18.50009,-0.2361,1.3108,0.98358
280.297,18.5212,-0.24205,1.30785,0.98315
280.997,18.54233,-0.24869,1.30503,0.98272
281.697,18.5634,-0.25481,1.30044,0.98229
282.397,18.5845,-0.26071,1.29635,0.98186
283.097,18.6056,-0.26631,1.29293,0.98143
283.797,18.62679,-0.27347,1.28904,0.981
284.497,18.64796,-0.27894,1.28877,0.98056
285.197,18.66911,-0.28583,1.28494,0.98013
285.897,18.69021,-0.29165,1.28021,0.97969
286.597,18.71135,-0.29952,1.2759,0.97926
287.297,18.7324,-0.30605,1.26963,0.97882
287.997,18.75349,-0.31377,1.26838,0.97839
288.697,18.77463,-0.31985,1.26505,0.97795
289.397,18.79575,-0.32712,1.26031,0.97751
290.097,18.81689,-0.33442,1.25429,0.97707
290.797,18.83809,-0.34309,1.24553,0.97663
291.497,18.8592,-0.35123,1.24334,0.97619
292.197,18.88032,-0.35891,1.23803,0.97575
292.897,18.90145,-0.36744,1.2341,0.9753
293.597,18.9225,-0.37568,1.22724,0.97486
294.297,18.9437,-0.38505,1.22172,0.97442
294.997,18.96482,-0.39346,1.21581,0.97397
295.697,18.986,-0.40312,1.20968,0.97353
296.397,19.00711,-0.41132,1.20373,0.97308
297.097,19.0282,-0.42181,1.19681,0.97263
297.797,19.04934,-0.43116,1.19278,0.97219
298.497,19.07046,-0.4424,1.18481,0.97174
299.197,19.09161,-0.45089,1.17931,0.97129
299.897,19.1128,-0.46109,1.17334,0.97084
300.597,19.13392,-0.47016,1.16579,0.97039
301.297,19.1551,-0.48172,1.15973,0.96994
301.997,19.17622,-0.49209,1.15496,0.96949
302.697,19.19732,-0.50366,1.15138,0.96903
303.397,19.21854,-0.51437,1.14286,0.96858
304.097,19.2397,-0.52586,1.13418,0.96812
304.797,19.2609,-0.5378,1.12874,0.96767
305.497,19.28211,-0.54979,1.12379,0.96721
306.197,19.30322,-0.56257,1.11964,0.96676
306.897,19.32435,-0.57398,1.11053,0.9663
307.597,19.34545,-0.58718,1.10586,0.96584
308.297,19.36658,-0.59879,1.10102,0.96538
308.997,19.38777,-0.61272,1.09099,0.96493
309.697,19.40894,-0.62419,1.08684,0.96447
310.397,19.4301,-0.63938,1.08183,0.96401
311.097,19.45131,-0.65085,1.07601,0.96354
311.797,19.47247,-0.66567,1.07176,0.96308
312.497,19.49363,-0.67804,1.06514,0.96262
313.197,19.51483,-0.69301,1.05944,0.96216
313.897,19.53603,-0.70537,1.05489,0.96169
314.597,19.55716,-0.71945,1.04898,0.96123
315.297,19.57832,-0.73294,1.04402,0.96076
315.997,19.5995,-0.74702,1.04009,0.9603
316.697,19.62067,-0.76048,1.03911,0.95983
317.397,19.64188,-0.77382,1.03301,0.95936
318.097,19.66306,-0.78901,1.0302,0.95889
318.797,19.68427,-0.80282,1.02553,0.95842
319.497,19.70549,-0.81865,1.02094,0.95796
320.197,19.7267,-0.83218,1.01848,0.95749
320.897,19.74796,-0.84909,1.01805,0.95701
321.597,19.7692,-0.86202,1.01645,0.95654
322.297,19.7904,-0.87856,1.01195,0.95607
322.997,19.81167,-0.89184,1.00915,0.9556
323.697,19.83285,-0.90809,1.0084,0.95512
324.397,19.85406,-0.92125,1.00795,0.95465
325.097,19.87528,-0.93753,1.00615,0.95418
325.797,19.89648,-0.9513,1.0066,0.9537
326.497,19.91776,-0.96643,1.00709,0.95322
327.197,19.939,-0.98111,1.00731,0.95275
327.897,19.96017,-0.99654,1.00946,0.95227
328.597,19.98145,-1.01178,1.00939,0.95179
329.297,20.0028,-1.02598,1.01075,0.95131
329.997,20.02414,-1.04169,1.00987,0.95083
330.697,20.04547,-1.05558,1.01312,0.95035
331.397,20.06683,-1.07187,1.01549,0.94987
332.097,20.08812,-1.08497,1.01853,0.94939
332.797,20.1094,-1.10105,1.02086,0.94891
333.497,20.1307,-1.11461,1.02413,0.94843
334.197,20.152,-1.13079,1.0252,0.94795
334.897,20.17325,-1.14362,1.03291,0.94746
335.597,20.19456,-1.1591,1.0343,0.94698
336.297,20.21586,-1.17269,1.03877,0.94649
336.997,20.23719,-1.18802,1.04224,0.94601
337.697,20.25862,-1.20216,1.04715,0.94552
338.397,20.27996,-1.21642,1.05131,0.94503
339.097,20.30134,-1.23077,1.05929,0.94455
339.797,20.32275,-1.24477,1.06244,0.94406
340.497,20.3441,-1.2606,1.06869,0.94357
341.197,20.3655,-1.2744,1.07513,0.94308
341.897,20.38675,-1.29162,1.08196,0.94259
342.597,20.40805,-1.30483,1.08946,0.9421
343.297,20.4294,-1.32144,1.0951,0.94161
343.997,20.45083,-1.33432,1.10259,0.94112
344.697,20.47224,-1.35032,1.10951,0.94063
345.397,20.4937,-1.36325,1.11757,0.94013
346.097,20.51512,-1.37927,1.12725,0.93964
346.797,20.53649,-1.39385,1.13436,0.93915
347.497,20.55793,-1.41007,1.1418,0.93865
348.197,20.57937,-1.42477,1.15361,0.93816
348.897,20.60079,-1.43973,1.16431,0.93766
349.597,20.62227,-1.45575,1.17315,0.93716
350.297,20.64377,-1.47045,1.18283,0.93667
350.997,20.66528,-1.48743,1.19324,0.93617
351.697,20.6867,-1.50181,1.20396,0.93567
352.397,20.7082,-1.51891,1.21496,0.93517
353.097,20.7296,-1.53231,1.22843,0.93467
353.797,20.75106,-1.55071,1.24371,0.93417
354.497,20.7726,-1.56599,1.25736,0.93367
355.197,20.79413,-1.58451,1.26925,0.93317
355.897,20.81565,-1.60027,1.28679,0.93267
356.597,20.83719,-1.61879,1.30088,0.93217
357.297,20.85867,-1.63678,1.3183,0.93167
357.997,20.8802,-1.65501,1.33314,0.93116
358.697,20.90172,-1.67345,1.35255,0.93066
359.397,20.92322,-1.69105,1.37174,0.93016
360.097,20.9448,-1.71183,1.38892,0.92965
360.797,20.9663,-1.73071,1.40849,0.92915
361.497,20.98784,-1.7541,1.42739,0.92864
362.197,21.00941,-1.77299,1.45152,0.92813
362.897,21.031,-1.79684,1.47398,0.92763
363.597,21.05262,-1.81693,1.49627,0.92712
364.297,21.07425,-1.84179,1.51848,0.92661
364.997,21.0959,-1.86309,1.54396,0.9261
365.697,21.11751,-1.88905,1.56792,0.92559
366.397,21.13919,-1.91351,1.59198,0.92508
367.097,21.16086,-1.93959,1.6166,0.92457
367.797,21.18245,-1.96691,1.63992,0.92406
368.497,21.20409,-1.99276,1.66437,0.92355
369.197,21.2256,-2.02189,1.68666,0.92304
369.897,21.2472,-2.04835,1.70635,0.92253
370.597,21.26885,-2.08095,1.72384,0.92201
371.297,21.29045,-2.10786,1.73516,0.9215
371.997,21.3122,-2.1423,1.74428,0.92099
372.697,21.33381,-2.17103,1.74502,0.92047
373.397,21.35541,-2.20564,1.74265,0.91996
374.097,21.37708,-2.23701,1.72881,0.91944
374.797,21.39865,-2.27095,1.71331,0.91893
375.497,21.4203,-2.30377,1.68441,0.91841
376.197,21.442,-2.3364,1.65075,0.91789
376.897,21.46365,-2.3705,1.60344,0.91738
377.597,21.48536,-2.3995,1.55449,0.91686
378.297,21.50705,-2.43287,1.49413,0.91634
378.997,21.52863,-2.45912,1.42925,0.91582
379.697,21.55027,-2.49062,1.36676,0.9153
380.397,21.5718,-2.51472,1.29339,0.91478
381.097,21.59346,-2.54238,1.2212,0.91426
381.797,21.6151,-2.5637,1.15097,0.91374
382.497,21.63668,-2.5877,1.07746,0.91322
383.197,21.65843,-2.60726,1.00875,0.9127
383.897,21.68003,-2.62525,0.94545,0.91218
384.597,21.7016,-2.64184,0.887,0.91165
385.297,21.72325,-2.65618,0.8285,0.91113
385.997,21.74485,-2.67115,0.78005,0.91061
386.697,21.7665,-2.68279,0.7315,0.91008
387.397,21.78815,-2.69546,0.68951,0.90956
388.097,21.8097,-2.70424,0.65033,0.90903
388.797,21.8313,-2.71464,0.61527,0.90851
389.497,21.8529,-2.72311,0.58553,0.90798
390.197,21.87453,-2.73178,0.5562,0.90746
390.897,21.8962,-2.73802,0.53231,0.90693
391.597,21.91786,-2.74389,0.51083,0.9064
392.297,21.9395,-2.74894,0.49006,0.90587
392.997,21.96119,-2.75317,0.47203,0.90535
393.697,21.9828,-2.75845,0.45356,0.90482
394.397,22.0044,-2.76363,0.4393,0.90429
395.097,22.02601,-2.76784,0.42351,0.90376
395.797,22.0476,-2.77188,0.41204,0.90323
396.497,22.06931,-2.7753,0.40024,0.9027
397.197,22.091,-2.78038,0.38704,0.90217
397.897,22.11265,-2.78438,0.37785,0.90164
398.597,22.1342,-2.7876,0.36824,0.9011
399.297,22.1559,-2.79,0.35692,0.90057
399.997,22.17761,-2.79326,0.35049,0.90004
400.697,22.19931,-2.79625,0.3411,0.89951
401.397,22.22121,-2.79888,0.33012,0.89897
402.097,22.24289,-2.80183,0.32346,0.89844
402.797,22.26458,-2.8043,0.31623,0.89791
403.497,22.28634,-2.80678,0.30688,0.89737
404.197,22.30807,-2.80997,0.30239,0.89684
404.897,22.32986,-2.81332,0.29503,0.8963
405.597,22.35164,-2.81645,0.28792,0.89576
406.297,22.3734,-2.81898,0.28113,0.89523
406.997,22.3952,-2.82259,0.27426,0.89469
407.697,22.41694,-2.82447,0.26837,0.89415
408.397,22.4387,-2.82679,0.262,0.89362
409.097,22.46043,-2.82915,0.2573,0.89308
409.797,22.48214,-2.83119,0.24805,0.89254
410.497,22.50395,-2.83365,0.24265,0.892
411.197,22.52569,-2.8364,0.23971,0.89146
411.897,22.54751,-2.83918,0.23123,0.89092
412.597,22.56928,-2.84187,0.22727,0.89038
413.297,22.5911,-2.84403,0.22147,0.88984
413.997,22.61291,-2.84663,0.21749,0.8893
414.697,22.6347,-2.84898,0.21047,0.88876
415.397,22.65654,-2.85096,0.2057,0.88822
416.097,22.67831,-2.85242,0.20027,0.88768
416.797,22.7001,-2.85378,0.19537,0.88713
417.497,22.72196,-2.85611,0.19264,0.88659
418.197,22.74381,-2.85841,0.18572,0.88605
418.897,22.7656,-2.86227,0.1832,0.8855
419.597,22.78745,-2.86437,0.17768,0.88496
420.297,22.80923,-2.86644,0.17166,0.88442
420.997,22.83101,-2.86777,0.16984,0.88387
421.697,22.85285,-2.86901,0.16352,0.88333
422.397,22.8747,-2.8711,0.16094,0.88278
423.097,22.89655,-2.87332,0.15494,0.88223
423.797,22.91841,-2.87555,0.1512,0.88169
424.497,22.9403,-2.8777,0.1478,0.88114
425.197,22.9621,-2.87975,0.14436,0.8806
425.897,22.9839,-2.88173,0.13832,0.88005
426.597,23.0058,-2.88351,0.13672,0.8795
427.297,23.02758,-2.8867,0.13579,0.87895
427.997,23.04938,-2.88894,0.13386,0.8784
428.697,23.0713,-2.89135,0.12878,0.87786
429.397,23.0931,-2.89287,0.12545,0.87731
430.097,23.11506,-2.89455,0.12161,0.87676
430.797,23.13701,-2.89673,0.11858,0.87621
431.497,23.1589,-2.89908,0.11438,0.87566
432.197,23.18084,-2.90151,0.11436,0.87511
432.897,23.2027,-2.9038,0.11087,0.87456
433.597,23.2246,-2.90603,0.10687,0.87401
434.297,23.24651,-2.90801,0.10812,0.87345
434.997,23.2684,-2.90955,0.10354,0.8729
435.697,23.2904,-2.9111,0.10535,0.87235
436.397,23.31227,-2.91328,0.1009,0.8718
437.097,23.3342,-2.91581,0.10071,0.87125
437.797,23.35616,-2.91807,0.09982279,0.87069
438.497,23.37814,-2.92021,0.10003,0.87014
439.197,23.40015,-2.92187,0.09451239,0.86959
439.897,23.42211,-2.92291,0.09508045,0.86903
440.597,23.44407,-2.92492,0.09373333,0.86848
441.297,23.46594,-2.92754,0.09587438,0.86792
441.997,23.48789,-2.9298,0.09618941,0.86737
442.697,23.5099,-2.93184,0.09236981,0.86681
443.397,23.53189,-2.93344,0.0950239,0.86626
444.097,23.55389,-2.93449,0.09416841,0.8657
444.797,23.57589,-2.93632,0.09577437,0.86515
445.497,23.59789,-2.93782,0.09608678,0.86459
446.197,23.6199,-2.9403,0.09504875,0.86403
446.897,23.6419,-2.9422,0.09757884,0.86348
447.597,23.6639,-2.94478,0.09790687,0.86292
448.297,23.68592,-2.94701,0.10024,0.86236
448.997,23.70797,-2.94881,0.10206,0.8618
449.697,23.73,-2.95032,0.10218,0.86124
450.397,23.752,-2.95185,0.10087,0.86069
451.097,23.77403,-2.95346,0.10417,0.86013
451.797,23.79608,-2.95547,0.10454,0.85957
452.497,23.81813,-2.95759,0.10488,0.85901
453.197,23.84019,-2.959,0.10754,0.85845
453.897,23.86225,-2.96032,0.10753,0.85789
454.597,23.88435,-2.96137,0.11282,0.85733
455.297,23.90645,-2.96231,0.11355,0.85677
455.997,23.92849,-2.96413,0.11198,0.85621
456.697,23.95063,-2.96603,0.11462,0.85565
457.397,23.9727,-2.96783,0.11988,0.85508
458.097,23.99482,-2.96983,0.12214,0.85452
458.797,24.0169,-2.9716,0.12321,0.85396
459.497,24.0391,-2.97305,0.12815,0.8534
460.197,24.0612,-2.97387,0.12911,0.85284
460.897,24.0834,-2.97435,0.1309,0.85227
461.597,24.10555,-2.9761,0.1339,0.85171
462.297,24.12773,-2.97777,0.13922,0.85115
462.997,24.14985,-2.97959,0.1429,0.85058
463.697,24.17204,-2.98178,0.14378,0.85002
464.397,24.19424,-2.98345,0.14679,0.84946
465.097,24.2164,-2.98489,0.15213,0.84889
465.797,24.23858,-2.98652,0.15498,0.84833
466.497,24.26078,-2.98789,0.1586,0.84776
467.197,24.28293,-2.98951,0.16125,0.8472
467.897,24.30509,-2.99071,0.16515,0.84663
468.597,24.32731,-2.99165,0.17059,0.84607
469.297,24.34949,-2.99335,0.17161,0.8455
469.997,24.37164,-2.99507,0.17503,0.84494
470.697,24.39389,-2.99655,0.17815,0.84437
471.397,24.41611,-2.99835,0.182,0.8438
472.097,24.4383,-2.9998,0.18539,0.84324
472.797,24.46055,-3.00126,0.1877,0.84267
473.497,24.48273,-3.0023,0.19416,0.8421
474.197,24.50489,-3.00349,0.19524,0.84153
474.897,24.52717,-3.00487,0.19797,0.84097
475.597,24.54941,-3.00564,0.20374,0.8404
476.297,24.57166,-3.00671,0.20598,0.83983
476.997,24.59395,-3.00872,0.20919,0.83926
477.697,24.61626,-3.01136,0.212,0.83869
478.397,24.63852,-3.01305,0.214,0.83812
479.097,24.6608,-3.01391,0.21916,0.83756
479.797,24.68317,-3.01476,0.21872,0.83699
480.497,24.7054,-3.01615,0.22249,0.83642
481.197,24.7277,-3.01773,0.22519,0.83585
481.897,24.74994,-3.01896,0.2307,0.83528
482.597,24.77218,-3.01792,0.23291,0.83471
483.297,24.7945,-3.01965,0.23428,0.83414
483.997,24.81679,-3.01999,0.23794,0.83357
484.697,24.83915,-3.02108,0.24025,0.833
485.397,24.86146,-3.02345,0.24226,0.83243
486.097,24.88382,-3.02467,0.2455,0.83185
486.797,24.90614,-3.02513,0.24604,0.83128
487.497,24.92846,-3.02679,0.24975,0.83071
488.197,24.95083,-3.02815,0.24868,0.83014
488.897,24.97314,-3.02859,0.25371,0.82957
489.597,24.9955,-3.02967,0.25322,0.829
490.297,25.0179,-3.03027,0.25555,0.82842
490.997,25.04024,-3.03161,0.25678,0.82785
491.697,25.06258,-3.03279,0.26081,0.82728
492.397,25.08493,-3.03355,0.26176,0.82671
493.097,25.10727,-3.0335,0.26364,0.82613
493.797,25.12965,-3.03512,0.26459,0.82556
494.497,25.15205,-3.03646,0.26889,0.82499
495.197,25.1744,-3.03718,0.27219,0.82441
495.897,25.19679,-3.03814,0.27043,0.82384
496.597,25.2192,-3.04083,0.27322,0.82326
497.297,25.24157,-3.04145,0.27243,0.82269
497.997,25.26398,-3.04229,0.27516,0.82212
498.697,25.28642,-3.04364,0.27659,0.82154
499.397,25.30885,-3.04379,0.2801,0.82097
500.097,25.33128,-3.04518,0.27942,0.82039
500.797,25.3537,-3.04603,0.28225,0.81982
501.497,25.37615,-3.04738,0.28182,0.81924
502.197,25.39859,-3.04844,0.28543,0.81867
502.897,25.421,-3.0498,0.28588,0.81809
503.597,25.44343,-3.05148,0.2862,0.81752
504.297,25.4658,-3.05255,0.29328,0.81694
504.997,25.4882,-3.05286,0.29074,0.81636
505.697,25.51064,-3.05449,0.29003,0.81579
506.397,25.53305,-3.05476,0.29203,0.81521
507.097,25.55551,-3.05589,0.2932,0.81463
507.797,25.57795,-3.05673,0.2933,0.81406
508.497,25.6003,-3.05717,0.29605,0.81348
509.197,25.6227,-3.0579,0.29693,0.8129
509.897,25.64519,-3.05853,0.29842,0.81233
510.597,25.66763,-3.06004,0.29973,0.81175
511.297,25.69015,-3.06056,0.29997,0.81117
511.997,25.71264,-3.06147,0.29969,0.8106
512.697,25.73505,-3.06289,0.30221,0.81002
513.397,25.75752,-3.06294,0.30362,0.80944
514.097,25.78001,-3.06432,0.30177,0.80886
514.797,25.80251,-3.06433,0.30366,0.80828
515.497,25.82501,-3.06569,0.30356,0.80771
516.197,25.84744,-3.06555,0.30618,0.80713
516.897,25.86993,-3.06693,0.30656,0.80655
517.597,25.89247,-3.06762,0.30763,0.80597
518.297,25.91491,-3.06823,0.30682,0.80539
518.997,25.9375,-3.06986,0.30682,0.80481
519.697,25.96,-3.06994,0.3082,0.80423
520.397,25.98241,-3.07122,0.30756,0.80366
521.097,26.00499,-3.07129,0.311,0.80308
521.797,26.02746,-3.07268,0.30748,0.8025
522.497,26.05,-3.07304,0.3119,0.80192
523.197,26.07249,-3.074,0.31079,0.80134
523.897,26.09497,-3.07523,0.31085,0.80076
524.597,26.1175,-3.07542,0.31305,0.80018
525.297,26.14,-3.0768,0.31174,0.7996
525.997,26.16253,-3.0767,0.3118,0.79902
526.697,26.18512,-3.07906,0.3117,0.79844
527.397,26.2077,-3.07921,0.31359,0.79786
528.097,26.23027,-3.08059,0.31316,0.79728
528.797,26.2528,-3.08056,0.31332,0.7967
529.497,26.2753,-3.08216,0.31523,0.79612
530.197,26.29785,-3.0835,0.31581,0.79554
530.897,26.32037,-3.08366,0.31437,0.79496
531.597,26.3429,-3.08497,0.3195,0.79437
532.297,26.3655,-3.08492,0.31714,0.79379
532.997,26.388,-3.08492,0.31604,0.79321
533.697,26.4106,-3.08483,0.31631,0.79263
534.397,26.43308,-3.085,0.31828,0.79205
535.097,26.45565,-3.08482,0.32159,0.79147
535.797,26.4783,-3.08644,0.31954,0.79089
536.497,26.50083,-3.08697,0.32086,0.79031
537.197,26.52342,-3.08797,0.32026,0.78972
537.897,26.54603,-3.09063,0.32323,0.78914
538.597,26.5686,-3.09074,0.32202,0.78856
539.297,26.5912,-3.09155,0.32421,0.78798
539.997,26.61376,-3.09195,0.32208,0.7874
540.697,26.6363,-3.09335,0.32338,0.78682
541.397,26.65885,-3.09337,0.32229,0.78623
542.097,26.6815,-3.09451,0.32176,0.78565
542.797,26.70409,-3.09436,0.32751,0.78507
543.497,26.7267,-3.09395,0.32811,0.78449
544.197,26.74933,-3.09534,0.32575,0.7839
544.897,26.77198,-3.09531,0.3291,0.78332
545.597,26.79465,-3.09643,0.32741,0.78274
546.297,26.81737,-3.09665,0.32914,0.78216
546.997,26.84,-3.09813,0.32968,0.78157
547.697,26.86249,-3.09823,0.33198,0.78099
548.397,26.88508,-3.09971,0.33418,0.78041
549.097,26.9076,-3.10047,0.33372,0.77983
549.797,26.9303,-3.10094,0.33475,0.77924
550.497,26.9531,-3.10174,0.33484,0.77866
551.197,26.9757,-3.10247,0.33917,0.77808
551.897,26.9984,-3.10339,0.33843,0.77749
552.597,27.0211,-3.10379,0.34043,0.77691
553.297,27.04375,-3.10379,0.34158,0.77633
553.997,27.06645,-3.10393,0.34326,0.77574
554.697,27.08915,-3.10521,0.34037,0.77516
555.397,27.11177,-3.10637,0.34363,0.77458
556.097,27.1345,-3.10652,0.34662,0.77399
556.797,27.15711,-3.10649,0.34993,0.77341
557.497,27.17982,-3.10787,0.35128,0.77283
558.197,27.20252,-3.10785,0.34919,0.77224
558.897,27.2252,-3.10888,0.34932,0.77166
559.597,27.24788,-3.10926,0.35207,0.77108
560.297,27.2706,-3.11065,0.35428,0.77049
560.997,27.2933,-3.11062,0.35209,0.76991
561.697,27.31598,-3.11125,0.35374,0.76932
562.397,27.33874,-3.1119,0.35666,0.76874
563.097,27.36155,-3.11191,0.35783,0.76816
563.797,27.38437,-3.11218,0.35885,0.76757
564.497,27.4071,-3.11324,0.35857,0.76699
565.197,27.42977,-3.1136,0.35827,0.7664
565.897,27.45245,-3.11453,0.3622,0.76582
566.597,27.47513,-3.11511,0.36312,0.76524
567.297,27.49785,-3.11587,0.35888,0.76465
567.997,27.52063,-3.11695,0.36082,0.76407
568.697,27.54338,-3.11719,0.3618,0.76348
569.397,27.56614,-3.11786,0.36056,0.7629
570.097,27.58895,-3.11849,0.36115,0.76232
570.797,27.6117,-3.11849,0.36434,0.76173
571.497,27.63455,-3.11844,0.36407,0.76115
572.197,27.65738,-3.11973,0.36412,0.76056
572.897,27.6802,-3.1198,0.3656,0.75998
573.597,27.70293,-3.12052,0.36394,0.75939
574.297,27.7257,-3.1211,0.36512,0.75881
574.997,27.7485,-3.12112,0.36335,0.75823
575.697,27.7713,-3.12128,0.36835,0.75764
576.397,27.7941,-3.12244,0.36727,0.75706
577.097,27.81692,-3.12242,0.37088,0.75647
577.797,27.8397,-3.12247,0.37055,0.75589
578.497,27.86255,-3.12375,0.36981,0.7553
579.197,27.8854,-3.12367,0.36938,0.75472
579.897,27.90823,-3.12566,0.36973,0.75414
580.597,27.93105,-3.12602,0.36998,0.75355
581.297,27.9539,-3.12729,0.37232,0.75297
581.997,27.97673,-3.12733,0.37225,0.75238
582.697,27.9995,-3.12881,0.37121,0.7518
583.397,28.02232,-3.12886,0.3711,0.75121
584.097,28.0451,-3.12906,0.36987,0.75063
584.797,28.06802,-3.12879,0.36796,0.75005
585.497,28.09088,-3.12879,0.36829,0.74946
586.197,28.1135,-3.12884,0.36709,0.74888
586.897,28.13615,-3.13016,0.37093,0.74829
587.597,28.15873,-3.13007,0.37144,0.74771
588.297,28.18153,-3.13281,0.36993,0.74712
588.997,28.2044,-3.13304,0.36913,0.74654
589.697,28.2275,-3.13408,0.36932,0.74596
590.397,28.25048,-3.13406,0.36921,0.74537
591.097,28.2733,-3.13402,0.36661,0.74479
591.797,28.2963,-3.13526,0.3674,0.7442
592.497,28.31925,-3.13538,0.36793,0.74362
593.197,28.3422,-3.1356,0.36638,0.74303
593.897,28.365,-3.13603,0.36661,0.74245
594.597,28.3879,-3.13631,0.36464,0.74187
595.297,28.4107,-3.13668,0.36814,0.74128
595.997,28.43355,-3.13665,0.36727,0.7407
596.697,28.4565,-3.13789,0.36426,0.74011
597.397,28.4794,-3.13801,0.36716,0.73953
598.097,28.50233,-3.13798,0.36453,0.73894
598.797,28.5253,-3.13913,0.36631,0.73836
599.497,28.54819,-3.13929,0.36053,0.73778
600.197,28.571,-3.14068,0.36318,0.73719
600.897,28.59392,-3.1407,0.36266,0.73661
601.597,28.6168,-3.14201,0.36281,0.73602
602.297,28.63979,-3.14195,0.3619,0.73544
602.997,28.66276,-3.14291,0.36138,0.73486
603.697,28.6857,-3.14328,0.36195,0.73427
604.397,28.7087,-3.1439,0.36036,0.73369
605.097,28.73155,-3.14448,0.36066,0.73311
605.797,28.7544,-3.14322,0.36003,0.73252
606.497,28.7774,-3.14446,0.36075,0.73194
607.197,28.8002,-3.14459,0.35565,0.73135
607.897,28.82317,-3.14459,0.35582,0.73077
608.597,28.84621,-3.14458,0.35807,0.73019
609.297,28.86918,-3.14591,0.35723,0.7296
609.997,28.8922,-3.14589,0.35882,0.72902
610.697,28.91517,-3.14702,0.35753,0.72844
611.397,28.9382,-3.14721,0.36095,0.72785
612.097,28.9612,-3.14737,0.35651,0.72727
612.797,28.9842,-3.14855,0.3593,0.72669
613.497,29.0071,-3.14854,0.35814,0.7261
614.197,29.03006,-3.14854,0.35778,0.72552
614.897,29.053,-3.14858,0.35637,0.72494
615.597,29.07596,-3.14991,0.35463,0.72435
616.297,29.0989,-3.14985,0.35573,0.72377
616.997,29.1219,-3.14986,0.35601,0.72319
617.697,29.145,-3.15041,0.35514,0.72261
618.397,29.16805,-3.15117,0.35716,0.72202
619.097,29.1911,-3.15168,0.36114,0.72144
619.797,29.21408,-3.15247,0.35728,0.72086
620.497,29.2371,-3.15249,0.3561,0.72027
621.197,29.26,-3.15249,0.35957,0.71969
621.897,29.28305,-3.15268,0.35883,0.71911
622.597,29.3061,-3.15383,0.35384,0.71853
623.297,29.32909,-3.1538,0.3544,0.71794
623.997,29.3521,-3.15404,0.35638,0.71736
624.697,29.3753,-3.15512,0.35805,0.71678
625.397,29.39828,-3.15508,0.35517,0.7162
626.097,29.4213,-3.15657,0.35681,0.71562
626.797,29.4443,-3.15662,0.35879,0.71503
627.497,29.46718,-3.1579,0.35843,0.71445
628.197,29.4902,-3.15786,0.35905,0.71387
628.897,29.5132,-3.15786,0.35723,0.71329
629.597,29.53623,-3.15787,0.35906,0.71271
630.297,29.55927,-3.15853,0.35835,0.71212
630.997,29.5823,-3.15917,0.35568,0.71154
631.697,29.60533,-3.15918,0.35978,0.71096
632.397,29.6283,-3.15944,0.3584,0.71038
633.097,29.6514,-3.16047,0.36092,0.7098
633.797,29.6745,-3.16049,0.35998,0.70922
634.497,29.69755,-3.16049,0.36133,0.70863
635.197,29.72062,-3.16049,0.3616,0.70805
635.897,29.74373,-3.1613,0.36231,0.70747
636.597,29.7667,-3.1618,0.36186,0.70689
637.297,29.78978,-3.16219,0.36402,0.70631
637.997,29.81277,-3.16311,0.36063,0.70573
638.697,29.8358,-3.16351,0.36432,0.70515
639.397,29.85882,-3.16444,0.36402,0.70457
640.097,29.8819,-3.16444,0.36461,0.70399
640.797,29.9051,-3.16443,0.36542,0.70341
641.497,29.92815,-3.16439,0.35951,0.70283
642.197,29.95128,-3.16577,0.36395,0.70225
642.897,29.9743,-3.16576,0.36183,0.70167
643.597,29.99744,-3.16575,0.36249,0.70109
644.297,30.02052,-3.16585,0.36496,0.70051
644.997,30.0436,-3.16709,0.36255,0.69993
645.697,30.0667,-3.16708,0.36058,0.69935
646.397,30.0898,-3.16707,0.36032,0.69877
647.097,30.11297,-3.16675,0.36121,0.69819
647.797,30.136,-3.16759,0.36016,0.69761
648.497,30.159,-3.16707,0.36101,0.69703
649.197,30.182,-3.16707,0.36169,0.69645
649.897,30.205,-3.16707,0.35791,0.69587
650.597,30.2281,-3.16704,0.35721,0.69529
651.297,30.2513,-3.16843,0.35757,0.69471
651.997,30.2744,-3.16834,0.3606,0.69413
652.697,30.2976,-3.16964,0.36322,0.69355
653.397,30.3207,-3.16982,0.36282,0.69298
654.097,30.34385,-3.17103,0.36167,0.6924
654.797,30.367,-3.1711,0.3618,0.69182
655.497,30.3901,-3.1697,0.3626,0.69124
656.197,30.4131,-3.16969,0.36121,0.69066
656.897,30.4362,-3.17078,0.36186,0.69008
657.597,30.45934,-3.17102,0.35946,0.68951
658.297,30.48255,-3.17104,0.36372,0.68893
658.997,30.5057,-3.17166,0.36257,0.68835
659.697,30.5289,-3.17234,0.36223,0.68777
660.397,30.55198,-3.17234,0.35854,0.68719
661.097,30.5751,-3.17234,0.35847,0.68662
661.797,30.5983,-3.17261,0.3585,0.68604
662.497,30.62153,-3.17359,0.35771,0.68546
663.197,30.64469,-3.17492,0.35983,0.68488
663.897,30.6679,-3.17498,0.35877,0.68431
664.597,30.691,-3.17578,0.36108,0.68373
665.297,30.7141,-3.1763,0.36153,0.68315
665.997,30.73726,-3.17569,0.36122,0.68258
666.697,30.76043,-3.17671,0.35878,0.682
667.397,30.7835,-3.17695,0.35988,0.68142
668.097,30.80664,-3.17695,0.35971,0.68085
668.797,30.82974,-3.17695,0.35818,0.68027
669.497,30.85285,-3.17695,0.35876,0.6797
670.197,30.87599,-3.1769,0.35479,0.67912
670.897,30.8991,-3.17826,0.35891,0.67854
671.597,30.9222,-3.17789,0.35405,0.67797
672.297,30.94534,-3.17772,0.35586,0.67739
672.997,30.9685,-3.1776,0.35735,0.67682
673.697,30.9916,-3.1776,0.35465,0.67624
674.397,31.0149,-3.17854,0.35404,0.67567
675.097,31.03805,-3.17891,0.35642,0.67509
675.797,31.0612,-3.17892,0.36005,0.67452
676.497,31.08434,-3.17892,0.35906,0.67394
677.197,31.10745,-3.17891,0.36058,0.67337
677.897,31.13055,-3.18029,0.35954,0.67279
678.597,31.15366,-3.18024,0.36149,0.67222
679.297,31.17685,-3.18025,0.36063,0.67165
679.997,31.20004,-3.18129,0.35926,0.67107
680.697,31.22308,-3.18155,0.35746,0.6705
681.397,31.2463,-3.18155,0.35784,0.66992
682.097,31.2694,-3.18155,0.35878,0.66935
682.797,31.29259,-3.18154,0.35841,0.66878
683.497,31.31597,-3.18144,0.35889,0.6682
684.197,31.3391,-3.18222,0.35718,0.66763
684.897,31.36232,-3.18157,0.35866,0.66706
685.597,31.38543,-3.18156,0.35685,0.66648
686.297,31.40853,-3.18156,0.35879,0.66591
686.997,31.43167,-3.18156,0.3571,0.66534
687.697,31.45478,-3.18248,0.35484,0.66477
688.397,31.4779,-3.1831,0.35454,0.66419
689.097,31.5011,-3.18416,0.35461,0.66362
689.797,31.52423,-3.18416,0.35413,0.66305
690.497,31.5474,-3.18338,0.35608,0.66248
691.197,31.57062,-3.18397,0.35202,0.66191
691.897,31.5938,-3.18419,0.35254,0.66133
692.597,31.61692,-3.18419,0.35068,0.66076
693.297,31.64003,-3.18419,0.34712,0.66019
693.997,31.66315,-3.18419,0.34764,0.65962
694.697,31.6863,-3.18419,0.34927,0.65905
695.397,31.7095,-3.18419,0.35171,0.65848
696.097,31.73273,-3.18412,0.34774,0.65791
696.797,31.7558,-3.18547,0.34408,0.65734
697.497,31.77893,-3.1855,0.34276,0.65677
698.197,31.8022,-3.1855,0.34327,0.6562
698.897,31.82532,-3.1855,0.34184,0.65563
699.597,31.84873,-3.1855,0.34425,0.65506
700.297,31.872,-3.18551,0.34157,0.65449
700.997,31.89518,-3.18608,0.34376,0.65392
701.697,31.91845,-3.18682,0.34182,0.65335
702.397,31.94163,-3.18682,0.34018,0.65278
703.097,31.96485,-3.18682,0.33573,0.65221
703.797,31.9881,-3.18682,0.33617,0.65164
704.497,32.01129,-3.18682,0.33501,0.65107
705.197,32.03452,-3.18682,0.33271,0.6505
705.897,32.05768,-3.18682,0.3349,0.64994
706.597,32.0809,-3.18682,0.33126,0.64937
707.297,32.10411,-3.18688,0.33198,0.6488
707.997,32.1274,-3.18816,0.32796,0.64823
708.697,32.15068,-3.18813,0.32763,0.64766
709.397,32.17391,-3.18813,0.32915,0.6471
710.097,32.19717,-3.18812,0.32515,0.64653
710.797,32.22039,-3.18826,0.32649,0.64596
711.497,32.24368,-3.19083,0.32606,0.64539
712.197,32.26686,-3.19077,0.32758,0.64483
712.897,32.29011,-3.19077,0.32179,0.64426
713.597,32.3134,-3.19077,0.32185,0.64369
714.297,32.33665,-3.1908,0.32316,0.64313
714.997,32.36,-3.19177,0.32268,0.64256
715.697,32.38335,-3.19076,0.32063,0.64199
716.397,32.40664,-3.19077,0.32104,0.64143
717.097,32.43,-3.19077,0.31934,0.64086
717.797,32.45327,-3.19077,0.31842,0.6403
718.497,32.47659,-3.19079,0.31479,0.63973
719.197,32.49992,-3.19181,0.31809,0.63917
719.897,32.52319,-3.19208,0.31804,0.6386
720.597,32.5464,-3.19208,0.31576,0.63804
721.297,32.5697,-3.19208,0.31412,0.63747
721.997,32.59305,-3.19208,0.31545,0.63691
722.697,32.61636,-3.19203,0.31284,0.63634
723.397,32.63973,-3.19342,0.31007,0.63578
724.097,32.66303,-3.1934,0.31065,0.63522
724.797,32.68638,-3.1934,0.30989,0.63465
725.497,32.70978,-3.1934,0.31068,0.63409
726.197,32.7331,-3.19339,0.30954,0.63352
726.897,32.75645,-3.19331,0.3086,0.63296
727.597,32.77978,-3.19471,0.30731,0.6324
728.297,32.8031,-3.19471,0.30863,0.63184
728.997,32.82643,-3.19471,0.30482,0.63127
729.697,32.8498,-3.19471,0.30459,0.63071
730.397,32.87315,-3.19506,0.30335,0.63015
731.097,32.89652,-3.19603,0.3013,0.62959
731.797,32.91987,-3.19603,0.29982,0.62902
732.497,32.9433,-3.19603,0.30219,0.62846
733.197,32.9666,-3.19603,0.30121,0.6279
733.897,32.9899,-3.19603,0.29997,0.62734
734.597,33.01334,-3.19603,0.30042,0.62678
735.297,33.03673,-3.19602,0.30149,0.62622
735.997,33.06,-3.19568,0.30226,0.62566
736.697,33.08332,-3.19562,0.29813,0.6251
737.397,33.1066,-3.197,0.30105,0.62454
738.097,33.13,-3.19702,0.2981,0.62398
738.797,33.15358,-3.19702,0.29791,0.62342
739.497,33.17699,-3.19702,0.29446,0.62286
740.197,33.20043,-3.19702,0.29538,0.6223
740.897,33.22382,-3.19693,0.29293,0.62174
741.597,33.24723,-3.19831,0.289,0.62118
742.297,33.27061,-3.1979,0.29224,0.62062
742.997,33.29407,-3.19739,0.29468,0.62006
743.697,33.31749,-3.19818,0.28969,0.6195
744.397,33.34091,-3.19867,0.28756,0.61894
745.097,33.36437,-3.19867,0.28786,0.61838
745.797,33.38775,-3.19867,0.28657,0.61783
746.497,33.41105,-3.19867,0.28964,0.61727
747.197,33.4344,-3.19867,0.28774,0.61671
747.897,33.45779,-3.19867,0.28743,0.61615
748.597,33.48121,-3.1992,0.28573,0.6156
749.297,33.50481,-3.19997,0.28464,0.61504
749.997,33.5283,-3.19999,0.28773,0.61448
750.697,33.55168,-3.20019,0.28345,0.61393
751.397,33.57508,-3.20131,0.28456,0.61337
752.097,33.5985,-3.2013,0.28533,0.61281
752.797,33.6219,-3.2013,0.28616,0.61226
753.497,33.6453,-3.20131,0.28089,0.6117
754.197,33.66877,-3.20132,0.28406,0.61114
754.897,33.69228,-3.19991,0.28694,0.61059
755.597,33.71575,-3.20127,0.28733,0.61003
756.297,33.73918,-3.2013,0.28859,0.60948
756.997,33.76262,-3.2013,0.28601,0.60892
757.697,33.78606,-3.2013,0.28456,0.60837
758.397,33.80959,-3.20166,0.28477,0.60782
759.097,33.8331,-3.20227,0.28288,0.60726
759.797,33.85654,-3.20229,0.28479,0.60671
760.497,33.87999,-3.20269,0.28609,0.60615
761.197,33.9035,-3.20358,0.28828,0.6056
761.897,33.927,-3.20361,0.28497,0.60505
762.597,33.95049,-3.20437,0.28924,0.60449
763.297,33.974,-3.20491,0.28573,0.60394
763.997,33.99747,-3.20492,0.2857,0.60339
764.697,34.021,-3.20492,0.28503,0.60283
765.397,34.0445,-3.20485,0.28737,0.60228
766.097,34.06796,-3.20358,0.28833,0.60173
766.797,34.09152,-3.2036,0.28688,0.60118
767.497,34.11504,-3.2036,0.2859,0.60063
768.197,34.13861,-3.20358,0.2855,0.60007
768.897,34.16206,-3.20497,0.28453,0.59952
769.597,34.18548,-3.20492,0.28729,0.59897
770.297,34.2089,-3.20492,0.28119,0.59842
770.997,34.23229,-3.20492,0.28109,0.59787
771.697,34.25581,-3.20492,0.27971,0.59732
772.397,34.2794,-3.20492,0.27679,0.59677
773.097,34.303,-3.20496,0.28134,0.59622
773.797,34.32656,-3.2063,0.28069,0.59567
774.497,34.35007,-3.20556,0.27531,0.59512
775.197,34.3735,-3.20557,0.28081,0.59457
775.897,34.39695,-3.20557,0.27353,0.59402
776.597,34.42042,-3.20557,0.27725,0.59347
777.297,34.44392,-3.20557,0.28113,0.59292
777.997,34.4674,-3.20559,0.28015,0.59238
778.697,34.49094,-3.20669,0.27776,0.59183
779.397,34.51446,-3.20684,0.28194,0.59128
780.097,34.53794,-3.20816,0.27763,0.59073
780.797,34.56145,-3.20821,0.27665,0.59018
781.497,34.58494,-3.2082,0.27893,0.58964
782.197,34.60844,-3.20761,0.27895,0.58909
782.897,34.63199,-3.2069,0.28046,0.58854
783.597,34.6556,-3.20689,0.27771,0.588
784.297,34.67906,-3.20689,0.27956,0.58745
784.997,34.70254,-3.20689,0.27989,0.5869
785.697,34.726,-3.2068,0.27697,0.58636
786.397,34.74948,-3.20821,0.27578,0.58581
787.097,34.77292,-3.20821,0.27922,0.58527
787.797,34.79625,-3.20816,0.28129,0.58472
788.497,34.81954,-3.20953,0.2801,0.58417
789.197,34.84312,-3.20952,0.28298,0.58363
789.897,34.86679,-3.20952,0.27856,0.58309
790.597,34.89056,-3.2095,0.28001,0.58254
791.297,34.91426,-3.21024,0.28187,0.582
791.997,34.93775,-3.20989,0.2817,0.58145
792.697,34.96125,-3.2098,0.28517,0.58091
793.397,34.9848,-3.2099,0.28228,0.58036
793.797,34.9982,-3.2102,0.28128,0.58005