File: 01_Data/MDF/STA/N2/10K_min/MDF_STA_N2_10KData_211011_R3.csv
##Temp./Â°C,Time/min,Mass(subtr.2)/%,DSC(subtr.2)/(mW/mg),Sensit./(uV/mW)
49.911,10.01,100.1045,-0.01104816,1.03584
50.411,11.3855,100.108,0.002351878,1.03581
50.911,11.72101,100.129,0.00975187,1.03579
51.411,11.96607,100.115,0.01914699,1.03576
51.911,12.16564,100.13,0.02700751,1.03574
52.411,12.34149,100.152,0.03209175,1.03571
52.911,12.49739,100.159,0.03609391,1.03568
53.411,12.64199,100.154,0.04053506,1.03565
53.911,12.77759,100.165,0.04421179,1.03562
54.411,12.90427,100.17,0.04863167,1.03558
54.911,13.02507,100.13,0.05206956,1.03555
55.411,13.1405,100.14,0.05598538,1.03551
55.911,13.2522,100.146,0.05977272,1.03548
56.411,13.36108,100.123,0.06256739,1.03544
56.911,13.46614,100.184,0.06562924,1.0354
57.411,13.56812,100.157,0.06914029,1.03536
57.911,13.6679,100.145,0.0700871,1.03532
58.411,13.76547,100.176,0.07305822,1.03528
58.911,13.8606,100.172,0.07665236,1.03524
59.411,13.9531,100.125,0.07880926,1.0352
59.911,14.04302,100.134,0.08241611,1.03515
60.411,14.1319,100.1363,0.08364956,1.03511
60.911,14.2202,100.137,0.08718167,1.03506
61.411,14.30675,100.139,0.08842894,1.03501
61.911,14.39149,100.141,0.08941575,1.03496
62.411,14.47435,100.104,0.09158355,1.03491
62.911,14.5566,100.102,0.09495652,1.03486
63.411,14.63761,100.108,0.09614972,1.03481
63.911,14.7177,100.135,0.09847715,1.03476
64.411,14.7967,100.134,0.10109,1.0347
64.911,14.8741,100.094,0.10258,1.03465
65.411,14.95084,100.133,0.105,1.03459
65.911,15.02625,100.132,0.10806,1.03453
66.411,15.10106,100.109,0.10812,1.03447
66.911,15.17521,100.099,0.11128,1.03441
67.411,15.24889,100.135,0.11283,1.03435
67.911,15.3213,100.065,0.11563,1.03429
68.411,15.39264,100.132,0.11772,1.03423
68.911,15.4628,100.1067,0.12006,1.03417
69.411,15.53289,100.06,0.12236,1.0341
69.911,15.6031,100.105,0.12272,1.03404
70.411,15.673,100.107,0.126,1.03397
70.911,15.74231,100.075,0.12832,1.0339
71.411,15.8103,100.099,0.13048,1.03383
71.911,15.87796,100.074,0.13231,1.03376
72.411,15.9449,100.075,0.13375,1.03369
72.911,16.01139,100.074,0.13479,1.03362
73.411,16.07706,100.053,0.13654,1.03355
73.911,16.14236,100.068,0.13841,1.03347
74.411,16.20724,100.082,0.13946,1.0334
74.911,16.27204,100.106,0.14156,1.03332
75.411,16.33616,100.071,0.14378,1.03324
75.911,16.3997,100.066,0.14437,1.03316
76.411,16.4632,100.051,0.14714,1.03308
76.911,16.52593,100.103,0.14935,1.033
77.411,16.58856,100.069,0.15049,1.03292
77.911,16.6505,100.069,0.15166,1.03284
78.411,16.71237,100.038,0.15059,1.03276
78.911,16.7737,100.14,0.15262,1.03267
79.411,16.83449,99.94059,0.1542,1.03259
79.911,16.89519,100.034,0.15528,1.0325
80.411,16.95566,99.99478,0.15728,1.03241
80.911,17.01604,99.99382,0.15722,1.03232
81.411,17.07556,100.0351,0.15676,1.03224
81.911,17.13502,100.032,0.15824,1.03214
82.411,17.1942,100,0.16035,1.03205
82.911,17.2532,100.003,0.16094,1.03196
83.411,17.3119,99.9619,0.16326,1.03187
83.911,17.3701,99.95625,0.16251,1.03177
84.411,17.42792,99.9871,0.16265,1.03168
84.911,17.4856,99.95559,0.1622,1.03158
85.411,17.54289,99.99172,0.16359,1.03148
85.911,17.5999,99.9918,0.16256,1.03138
86.411,17.6568,99.9577,0.1637,1.03128
86.911,17.71325,99.96253,0.16374,1.03118
87.411,17.76974,99.95902,0.16574,1.03108
87.911,17.82576,99.92314,0.16454,1.03098
88.411,17.8817,99.96562,0.16557,1.03088
88.911,17.93739,99.97505,0.16444,1.03077
89.411,17.99285,99.96985,0.1646,1.03066
89.911,18.04814,99.93638,0.16576,1.03056
90.411,18.10312,100.003,0.16534,1.03045
90.911,18.15794,99.96574,0.16394,1.03034
91.411,18.2122,99.8987,0.16705,1.03023
91.911,18.26679,99.93334,0.1651,1.03012
92.411,18.32122,99.937,0.1654,1.03001
92.911,18.37549,99.902,0.16569,1.0299
93.411,18.4301,99.9345,0.16502,1.02978
93.911,18.4838,99.91821,0.16598,1.02967
94.411,18.5373,99.91224,0.16486,1.02955
94.911,18.59071,99.90264,0.16563,1.02944
95.411,18.64398,99.9667,0.16374,1.02932
95.911,18.69706,99.93424,0.16422,1.0292
96.411,18.74997,99.94251,0.16477,1.02908
96.911,18.80264,99.93159,0.16371,1.02896
97.411,18.85512,99.92914,0.16313,1.02884
97.911,18.90765,99.92628,0.16312,1.02872
98.411,18.96003,99.9508,0.1617,1.02859
98.911,19.01238,99.92658,0.16095,1.02847
99.411,19.0644,99.92614,0.16276,1.02834
99.911,19.11629,99.90966,0.16166,1.02822
100.411,19.16822,99.89295,0.16387,1.02809
100.911,19.2199,99.86025,0.16458,1.02796
101.411,19.27177,99.86025,0.16511,1.02783
101.911,19.3234,99.85781,0.16475,1.0277
102.411,19.37479,99.8606,0.16709,1.02757
102.911,19.42613,99.86036,0.16668,1.02744
103.411,19.47718,99.89336,0.16709,1.02731
103.911,19.52846,99.85954,0.16714,1.02717
104.411,19.5796,99.86854,0.16878,1.02704
104.911,19.63016,99.8575,0.16866,1.0269
105.411,19.68093,99.8575,0.16921,1.02676
105.911,19.73157,99.8588,0.16958,1.02663
106.411,19.7823,99.93456,0.16886,1.02649
106.911,19.83336,99.92727,0.16877,1.02635
107.411,19.88438,99.9036,0.16982,1.02621
107.911,19.93486,99.86848,0.16788,1.02606
108.411,19.98534,99.85489,0.16901,1.02592
108.911,20.03562,99.868,0.16847,1.02578
109.411,20.08589,99.90222,0.167,1.02563
109.911,20.13624,99.86877,0.16617,1.02549
110.411,20.18638,99.86851,0.16603,1.02534
110.911,20.23653,99.8532,0.16492,1.02519
111.411,20.28661,99.86847,0.16477,1.02505
111.911,20.33672,99.86851,0.1648,1.0249
112.411,20.38683,99.83402,0.16346,1.02475
112.911,20.43669,99.8712,0.16369,1.0246
113.411,20.48655,99.8026,0.16535,1.02444
113.911,20.53622,99.82473,0.16393,1.02429
114.411,20.58571,99.82475,0.16458,1.02414
114.911,20.63514,99.8248,0.16409,1.02398
115.411,20.68465,99.8558,0.16328,1.02383
115.911,20.73401,99.8254,0.16311,1.02367
116.411,20.78327,99.8239,0.1635,1.02351
116.911,20.8323,99.8578,0.16382,1.02335
117.411,20.8814,99.86434,0.1633,1.02319
117.911,20.93055,99.8219,0.16275,1.02303
118.411,20.97976,99.84659,0.16186,1.02287
118.911,21.029,99.85473,0.16421,1.02271
119.411,21.07801,99.88727,0.16429,1.02255
119.911,21.127,99.84313,0.16291,1.02238
120.411,21.17574,99.82266,0.16388,1.02222
120.911,21.22446,99.85738,0.16369,1.02205
121.411,21.2732,99.8574,0.16361,1.02189
121.911,21.32174,99.88747,0.16386,1.02172
122.411,21.37046,99.8575,0.1647,1.02155
122.911,21.419,99.85775,0.16428,1.02138
123.411,21.46753,99.85775,0.16359,1.02121
123.911,21.51579,99.85709,0.16521,1.02104
124.411,21.56371,99.82481,0.16828,1.02087
124.911,21.61192,99.84522,0.16525,1.02069
125.411,21.65975,99.8247,0.16692,1.02052
125.911,21.7078,99.8245,0.16796,1.02034
126.411,21.75604,99.82847,0.16704,1.02017
126.911,21.80395,99.82474,0.16616,1.01999
127.411,21.85207,99.82467,0.16525,1.01981
127.911,21.90024,99.85777,0.16834,1.01964
128.411,21.94801,99.89015,0.16533,1.01946
128.911,21.99575,99.8661,0.16768,1.01928
129.411,22.04336,99.86575,0.16937,1.01909
129.911,22.091,99.86515,0.16957,1.01891
130.411,22.13854,99.8575,0.16798,1.01873
130.911,22.18597,99.87271,0.16771,1.01855
131.411,22.23341,99.88226,0.16893,1.01836
131.911,22.2807,99.88217,0.16903,1.01818
132.411,22.32795,99.84918,0.16959,1.01799
132.911,22.3752,99.84814,0.16952,1.0178
133.411,22.42248,99.84918,0.16993,1.01761
133.911,22.46957,99.84925,0.17203,1.01742
134.411,22.51671,99.83946,0.1693,1.01723
134.911,22.56374,99.81675,0.17126,1.01704
135.411,22.61092,99.85194,0.1718,1.01685
135.911,22.65788,99.85185,0.17228,1.01666
136.411,22.7047,99.86474,0.17166,1.01647
136.911,22.75156,99.87956,0.17187,1.01627
137.411,22.79824,99.8646,0.17369,1.01608
137.911,22.8449,99.85226,0.17252,1.01588
138.411,22.89184,99.84915,0.17249,1.01568
138.911,22.93821,99.85316,0.1733,1.01549
139.411,22.98476,99.7863,0.17248,1.01529
139.911,23.03135,99.82115,0.17352,1.01509
140.411,23.0778,99.8546,0.17529,1.01489
140.911,23.12442,99.85463,0.17562,1.01469
141.411,23.171,99.81309,0.17507,1.01449
141.911,23.21726,99.816,0.17489,1.01428
142.411,23.26333,99.8301,0.17493,1.01408
142.911,23.30954,99.86295,0.17439,1.01387
143.411,23.35578,99.86235,0.17567,1.01367
143.911,23.40202,99.8299,0.17548,1.01346
144.411,23.44828,99.79683,0.17665,1.01326
144.911,23.49461,99.79727,0.17704,1.01305
145.411,23.54084,99.8155,0.17869,1.01284
145.911,23.5869,99.83041,0.17787,1.01263
146.411,23.63316,99.79709,0.17971,1.01242
146.911,23.67922,99.79725,0.18008,1.01221
147.411,23.7251,99.79975,0.18001,1.012
147.911,23.77102,99.8139,0.18062,1.01178
148.411,23.81696,99.82199,0.18118,1.01157
148.911,23.86283,99.81836,0.18252,1.01135
149.411,23.90875,99.79762,0.18206,1.01114
149.911,23.9548,99.83,0.18196,1.01092
150.411,24.0005,99.7966,0.18284,1.01071
150.911,24.04605,99.79724,0.18158,1.01049
151.411,24.0918,99.7975,0.18163,1.01027
151.911,24.1375,99.83033,0.18325,1.01005
152.411,24.18338,99.83025,0.18376,1.00983
152.911,24.2296,99.83025,0.18444,1.00961
153.411,24.27523,99.8524,0.18483,1.00939
153.911,24.32103,99.86325,0.18588,1.00916
154.411,24.36644,99.85381,0.18673,1.00894
154.911,24.41197,99.86313,0.18543,1.00871
155.411,24.4576,99.83247,0.18522,1.00849
155.911,24.50318,99.79728,0.18754,1.00826
156.411,24.54873,99.79725,0.18646,1.00804
156.911,24.59456,99.79724,0.18575,1.00781
157.411,24.6402,99.83025,0.18683,1.00758
157.911,24.68593,99.82762,0.18652,1.00735
158.411,24.73174,99.79725,0.18627,1.00712
158.911,24.7774,99.8272,0.18683,1.00689
159.411,24.82312,99.80104,0.18648,1.00666
159.911,24.8687,99.8356,0.18682,1.00643
160.411,24.91406,99.8031,0.18825,1.00619
160.911,24.95958,99.80275,0.18788,1.00596
161.411,25.00496,99.8005,0.18915,1.00572
161.911,25.05046,99.8355,0.18835,1.00549
162.411,25.09606,99.80367,0.18928,1.00525
162.911,25.14169,99.80275,0.19058,1.00502
163.411,25.18706,99.8298,0.19074,1.00478
163.911,25.2327,99.83576,0.19218,1.00454
164.411,25.27802,99.83575,0.19062,1.0043
164.911,25.3233,99.83532,0.19128,1.00406
165.411,25.36842,99.8027,0.19124,1.00382
165.911,25.41377,99.803,0.19026,1.00358
166.411,25.45915,99.8359,0.19283,1.00333
166.911,25.50463,99.83575,0.19329,1.00309
167.411,25.55003,99.83575,0.19343,1.00285
167.911,25.59582,99.83575,0.19304,1.0026
168.411,25.64118,99.83575,0.1941,1.00236
168.911,25.6866,99.8099,0.19426,1.00211
169.411,25.7319,99.80281,0.19377,1.00186
169.911,25.77722,99.77452,0.19356,1.00161
170.411,25.8225,99.80981,0.19326,1.00136
170.911,25.86768,99.84394,0.1942,1.00112
171.411,25.91295,99.81452,0.1962,1.00086
171.911,25.95828,99.81076,0.19555,1.00061
172.411,26.00355,99.837,0.19579,1.00036
172.911,26.04907,99.83575,0.19365,1.00011
173.411,26.09443,99.83575,0.19453,0.99986
173.911,26.13965,99.82821,0.19753,0.9996
174.411,26.18492,99.81411,0.19577,0.99935
174.911,26.2302,99.8355,0.19684,0.99909
175.411,26.2752,99.80407,0.1973,0.99884
175.911,26.32028,99.8025,0.19445,0.99858
176.411,26.36559,99.8025,0.19663,0.99832
176.911,26.4105,99.8025,0.19782,0.99806
177.411,26.4555,99.8025,0.19795,0.9978
177.911,26.50052,99.8026,0.19927,0.99754
178.411,26.54532,99.79704,0.19958,0.99728
178.911,26.59025,99.80275,0.19914,0.99702
179.411,26.63539,99.80189,0.20028,0.99676
179.911,26.6804,99.811,0.20091,0.9965
180.411,26.72555,99.811,0.20225,0.99623
180.911,26.7708,99.811,0.2011,0.99597
181.411,26.81587,99.81101,0.20484,0.9957
181.911,26.8608,99.77705,0.20374,0.99544
182.411,26.90561,99.77799,0.20295,0.99517
182.911,26.9505,99.778,0.20396,0.9949
183.411,26.9952,99.77629,0.20245,0.99463
183.911,27.04022,99.7945,0.20562,0.99437
184.411,27.08512,99.7945,0.20627,0.9941
184.911,27.13015,99.7945,0.20709,0.99383
185.411,27.17502,99.77634,0.20664,0.99356
185.911,27.22015,99.778,0.20777,0.99328
186.411,27.2649,99.77789,0.21007,0.99301
186.911,27.3096,99.7945,0.2082,0.99274
187.411,27.35435,99.81087,0.20885,0.99246
187.911,27.3995,99.81075,0.20812,0.99219
188.411,27.44418,99.79175,0.21046,0.99192
188.911,27.4891,99.77858,0.21074,0.99164
189.411,27.53385,99.7448,0.21178,0.99136
189.911,27.5786,99.76964,0.21305,0.99109
190.411,27.62312,99.7692,0.214,0.99081
190.911,27.66781,99.77803,0.21505,0.99053
191.411,27.71248,99.778,0.21345,0.99025
191.911,27.7571,99.778,0.21591,0.98997
192.411,27.80166,99.77801,0.21717,0.98969
192.911,27.84627,99.7817,0.21707,0.98941
193.411,27.891,99.7122,0.21784,0.98913
193.911,27.9356,99.71242,0.21891,0.98884
194.411,27.98028,99.67922,0.2209,0.98856
194.911,28.02491,99.6588,0.22037,0.98828
195.411,28.06935,99.67952,0.22039,0.98799
195.911,28.11395,99.6795,0.22148,0.9877
196.411,28.15867,99.67971,0.22236,0.98742
196.911,28.20348,99.71191,0.22572,0.98713
197.411,28.2484,99.7132,0.22558,0.98684
197.911,28.2932,99.67941,0.22575,0.98656
198.411,28.3379,99.68058,0.22572,0.98627
198.911,28.38239,99.65088,0.22581,0.98598
199.411,28.42707,99.68171,0.22863,0.98569
199.911,28.4716,99.64665,0.23083,0.9854
200.411,28.516,99.63038,0.2305,0.98511
200.911,28.5607,99.63,0.22954,0.98481
201.411,28.60538,99.60836,0.23088,0.98452
201.911,28.6499,99.58875,0.2312,0.98423
202.411,28.6945,99.58876,0.22957,0.98393
202.911,28.73925,99.59656,0.23143,0.98364
203.411,28.7839,99.597,0.23296,0.98334
203.911,28.8286,99.59685,0.23445,0.98305
204.411,28.8731,99.58869,0.23513,0.98275
204.911,28.9179,99.58875,0.23535,0.98245
205.411,28.96268,99.58875,0.23753,0.98215
205.911,29.0073,99.5883,0.23577,0.98185
206.411,29.0519,99.5595,0.23344,0.98156
206.911,29.0966,99.53953,0.2344,0.98126
207.411,29.141,99.5395,0.238,0.98095
207.911,29.18542,99.54125,0.23816,0.98065
208.411,29.22996,99.52303,0.24027,0.98035
208.911,29.27455,99.4548,0.24139,0.98005
209.411,29.31914,99.45732,0.24182,0.97975
209.911,29.36383,99.42407,0.24006,0.97944
210.411,29.4086,99.42426,0.24237,0.97914
210.911,29.4531,99.41781,0.24134,0.97883
211.411,29.49778,99.39124,0.24408,0.97853
211.911,29.54243,99.39125,0.24425,0.97822
212.411,29.587,99.39125,0.24679,0.97791
212.911,29.6317,99.39206,0.24574,0.9776
213.411,29.6765,99.3583,0.24537,0.9773
213.911,29.72117,99.3583,0.24705,0.97699
214.411,29.76584,99.32605,0.24671,0.97668
214.911,29.81038,99.32477,0.24541,0.97637
215.411,29.8548,99.3254,0.24655,0.97606
215.911,29.89932,99.29221,0.24813,0.97575
216.411,29.94373,99.29429,0.24764,0.97543
216.911,29.9882,99.2474,0.24783,0.97512
217.411,30.0329,99.2595,0.24846,0.97481
217.911,30.07767,99.2354,0.24885,0.97449
218.411,30.12227,99.21034,0.24639,0.97418
218.911,30.16672,99.21137,0.24841,0.97387
219.411,30.21143,99.20297,0.24915,0.97355
219.911,30.2561,99.16383,0.24919,0.97323
220.411,30.3007,99.1639,0.24645,0.97292
220.911,30.34535,99.13104,0.24949,0.9726
221.411,30.3901,99.12244,0.25012,0.97228
221.911,30.4347,99.09006,0.25081,0.97196
222.411,30.47935,99.0566,0.25019,0.97164
222.911,30.52395,99.04811,0.24968,0.97132
223.411,30.5686,99.02412,0.25377,0.971
223.911,30.61325,98.99808,0.25124,0.97068
224.411,30.6579,98.9827,0.25094,0.97036
224.911,30.7026,98.96471,0.25266,0.97004
225.411,30.74728,98.93279,0.25214,0.96972
225.911,30.79208,98.93336,0.25031,0.96939
226.411,30.8368,98.89968,0.25187,0.96907
226.911,30.88167,98.90049,0.25272,0.96874
227.411,30.92652,98.89107,0.24992,0.96842
227.911,30.9713,98.82741,0.25007,0.96809
228.411,31.016,98.8305,0.25218,0.96777
228.911,31.0607,98.79621,0.25246,0.96744
229.411,31.1052,98.78945,0.25047,0.96711
229.911,31.1497,98.76387,0.2531,0.96679
230.411,31.1944,98.72248,0.25171,0.96646
230.911,31.2391,98.68948,0.25148,0.96613
231.411,31.28384,98.72256,0.2541,0.9658
231.911,31.3287,98.68938,0.25156,0.96547
232.411,31.37353,98.65938,0.25312,0.96514
232.911,31.41827,98.61788,0.25347,0.96481
233.411,31.46309,98.60849,0.25343,0.96447
233.911,31.50781,98.55086,0.25303,0.96414
234.411,31.5526,98.5479,0.25272,0.96381
234.911,31.59735,98.48212,0.25125,0.96348
235.411,31.64211,98.47877,0.25313,0.96314
235.911,31.68688,98.4658,0.25452,0.96281
236.411,31.7317,98.4646,0.25062,0.96247
236.911,31.7766,98.45065,0.25363,0.96214
237.411,31.8214,98.40114,0.25223,0.9618
237.911,31.8663,98.32183,0.25302,0.96146
238.411,31.9111,98.26266,0.25168,0.96113
238.911,31.9558,98.22879,0.25242,0.96079
239.411,32.00065,98.2289,0.2512,0.96045
239.911,32.04547,98.19624,0.25128,0.96011
240.411,32.09018,98.15746,0.25122,0.95977
240.911,32.1351,98.13095,0.25026,0.95943
241.411,32.18,98.09151,0.25018,0.95909
241.911,32.22477,98.07072,0.24965,0.95875
242.411,32.2697,98.0347,0.24877,0.95841
242.911,32.31456,97.99355,0.24863,0.95807
243.411,32.35927,97.95501,0.24995,0.95772
243.911,32.4041,97.9136,0.24972,0.95738
244.411,32.4488,97.90075,0.24904,0.95704
244.911,32.49347,97.8792,0.24792,0.95669
245.411,32.53826,97.8091,0.24749,0.95635
245.911,32.58316,97.73598,0.24769,0.956
246.411,32.628,97.69421,0.24889,0.95566
246.911,32.673,97.69533,0.24752,0.95531
247.411,32.71777,97.68913,0.24538,0.95496
247.911,32.7625,97.65775,0.24633,0.95462
248.411,32.80721,97.591,0.2461,0.95427
248.911,32.85196,97.53366,0.24561,0.95392
249.411,32.89673,97.429,0.24429,0.95357
249.911,32.94151,97.3932,0.24453,0.95322
250.411,32.98633,97.3385,0.24445,0.95287
250.911,33.03112,97.2334,0.24475,0.95252
251.411,33.07587,97.22115,0.24422,0.95217
251.911,33.1207,97.1733,0.24185,0.95182
252.411,33.1655,97.13686,0.24448,0.95147
252.911,33.2103,97.10712,0.24063,0.95112
253.411,33.25516,97.05378,0.24098,0.95076
253.911,33.30002,96.98094,0.24082,0.95041
254.411,33.34473,96.96412,0.24083,0.95006
254.911,33.3896,96.85786,0.23943,0.9497
255.411,33.4344,96.81363,0.23804,0.94935
255.911,33.47932,96.7713,0.23778,0.94899
256.411,33.52401,96.7071,0.23752,0.94864
256.911,33.56899,96.61546,0.23563,0.94828
257.411,33.61374,96.58408,0.23532,0.94793
257.911,33.65847,96.4962,0.23318,0.94757
258.411,33.70346,96.41229,0.23348,0.94721
258.911,33.74839,96.33014,0.23207,0.94685
259.411,33.7932,96.22375,0.22997,0.94649
259.911,33.83807,96.20843,0.2307,0.94614
260.411,33.88289,96.18811,0.22754,0.94578
260.911,33.92758,96.10189,0.23041,0.94542
261.411,33.9724,96.0189,0.22742,0.94506
261.911,34.01728,95.93344,0.22643,0.9447
262.411,34.0621,95.85769,0.22711,0.94433
262.911,34.107,95.7819,0.22417,0.94397
263.411,34.1517,95.693,0.2252,0.94361
263.911,34.19656,95.61614,0.22215,0.94325
264.411,34.24138,95.57712,0.22179,0.94288
264.911,34.2862,95.4919,0.22084,0.94252
265.411,34.33123,95.41086,0.21778,0.94216
265.911,34.3761,95.3193,0.21527,0.94179
266.411,34.421,95.16594,0.21388,0.94143
266.911,34.46595,95.08106,0.21342,0.94106
267.411,34.5109,95.0103,0.21302,0.9407
267.911,34.5559,94.9204,0.21183,0.94033
268.411,34.60074,94.81523,0.20993,0.93996
268.911,34.64571,94.7025,0.2079,0.9396
269.411,34.6907,94.58775,0.20898,0.93923
269.911,34.73563,94.54159,0.20636,0.93886
270.411,34.78063,94.4419,0.20344,0.93849
270.911,34.82575,94.3345,0.20218,0.93812
271.411,34.87084,94.23886,0.20072,0.93776
271.911,34.91597,94.08774,0.1993,0.93739
272.411,34.961,93.98868,0.19866,0.93702
272.911,35.006,93.91679,0.19573,0.93664
273.411,35.05108,93.8004,0.19358,0.93627
273.911,35.09612,93.68806,0.19362,0.9359
274.411,35.1411,93.5532,0.19051,0.93553
274.911,35.18606,93.46391,0.18925,0.93516
275.411,35.23079,93.33788,0.18711,0.93479
275.911,35.27577,93.23815,0.1863,0.93441
276.411,35.32043,93.08559,0.1836,0.93404
276.911,35.36545,92.9675,0.18099,0.93367
277.411,35.41041,92.83362,0.17961,0.93329
277.911,35.45552,92.68021,0.17569,0.93292
278.411,35.50059,92.57146,0.17339,0.93254
278.911,35.54589,92.49759,0.17155,0.93217
279.411,35.59113,92.36117,0.16961,0.93179
279.911,35.6365,92.208,0.16845,0.93141
280.411,35.68157,92.08026,0.1643,0.93104
280.911,35.72661,91.90779,0.16468,0.93066
281.411,35.77165,91.78622,0.16192,0.93028
281.911,35.8166,91.62393,0.16068,0.9299
282.411,35.8617,91.50114,0.15913,0.92953
282.911,35.90697,91.41728,0.1564,0.92915
283.411,35.95213,91.25288,0.15278,0.92877
283.911,35.99722,91.07167,0.15154,0.92839
284.411,36.0424,90.94669,0.15059,0.92801
284.911,36.0875,90.8107,0.14902,0.92763
285.411,36.13263,90.67796,0.14696,0.92725
285.911,36.1777,90.4568,0.14587,0.92687
286.411,36.22298,90.30331,0.14396,0.92649
286.911,36.26812,90.19811,0.14346,0.9261
287.411,36.31313,90.0087,0.13999,0.92572
287.911,36.3583,89.84142,0.14057,0.92534
288.411,36.40347,89.7402,0.1389,0.92496
288.911,36.44859,89.61451,0.13791,0.92457
289.411,36.4938,89.46936,0.13696,0.92419
289.911,36.5391,89.25871,0.13759,0.92381
290.411,36.58426,89.09611,0.13657,0.92342
290.911,36.62948,88.9534,0.13376,0.92304
291.411,36.6747,88.83886,0.13404,0.92265
291.911,36.72007,88.6857,0.13256,0.92227
292.411,36.76551,88.54436,0.13246,0.92188
292.911,36.81086,88.31141,0.13165,0.92149
293.411,36.85625,88.1486,0.12999,0.92111
293.911,36.90153,87.9397,0.12992,0.92072
294.411,36.9468,87.7876,0.12682,0.92033
294.911,36.99168,87.6637,0.12821,0.91995
295.411,37.03691,87.48136,0.12556,0.91956
295.911,37.08247,87.29895,0.12605,0.91917
296.411,37.1278,87.07619,0.12506,0.91878
296.911,37.17326,86.9083,0.12616,0.91839
297.411,37.21904,86.76462,0.12255,0.918
297.911,37.26444,86.59714,0.12415,0.91761
298.411,37.3099,86.46539,0.12518,0.91722
298.911,37.3553,86.24594,0.12729,0.91683
299.411,37.40085,86.05128,0.12961,0.91644
299.911,37.4463,85.9192,0.1255,0.91605
300.411,37.49165,85.74954,0.12762,0.91566
300.911,37.53705,85.56825,0.12634,0.91527
301.411,37.58263,85.3942,0.12856,0.91488
301.911,37.62814,85.2213,0.1273,0.91448
302.411,37.67368,85.03148,0.12868,0.91409
302.911,37.71921,84.79181,0.13254,0.9137
303.411,37.7647,84.68333,0.13062,0.9133
303.911,37.81025,84.47326,0.1308,0.91291
304.411,37.85573,84.26216,0.13223,0.91252
304.911,37.9013,83.99495,0.13427,0.91212
305.411,37.9468,83.85849,0.13641,0.91173
305.911,37.99222,83.6378,0.1389,0.91133
306.411,38.03771,83.50024,0.14036,0.91094
306.911,38.0833,83.30855,0.14226,0.91054
307.411,38.12863,83.1289,0.14239,0.91015
307.911,38.17407,82.88516,0.14537,0.90975
308.411,38.21945,82.7104,0.14782,0.90935
308.911,38.265,82.523,0.15091,0.90896
309.411,38.31053,82.3631,0.15323,0.90856
309.911,38.35609,82.17625,0.15434,0.90816
310.411,38.40177,81.9422,0.15747,0.90776
310.911,38.4473,81.75994,0.16034,0.90737
311.411,38.493,81.52526,0.16161,0.90697
311.911,38.53863,81.3622,0.16477,0.90657
312.411,38.5843,81.13678,0.16896,0.90617
312.911,38.6293,80.92716,0.17018,0.90577
313.411,38.675,80.71178,0.17209,0.90537
313.911,38.72065,80.48429,0.17711,0.90497
314.411,38.76639,80.32781,0.17833,0.90457
314.911,38.81217,80.0718,0.18477,0.90417
315.411,38.85824,79.8697,0.18529,0.90377
315.911,38.90387,79.67916,0.18744,0.90337
316.411,38.9495,79.43309,0.19094,0.90297
316.911,38.9952,79.24214,0.19577,0.90257
317.411,39.04104,79.0248,0.19801,0.90217
317.911,39.08676,78.78699,0.20281,0.90176
318.411,39.13252,78.57223,0.20625,0.90136
318.911,39.1783,78.3194,0.20837,0.90096
319.411,39.2238,78.1652,0.21177,0.90056
319.911,39.26952,77.9169,0.21583,0.90015
320.411,39.31532,77.69852,0.21882,0.89975
320.911,39.36105,77.45997,0.22228,0.89935
321.411,39.40699,77.25952,0.2263,0.89894
321.911,39.45297,77.02436,0.22911,0.89854
322.411,39.49885,76.75583,0.23248,0.89813
322.911,39.54473,76.51736,0.23356,0.89773
323.411,39.59049,76.30604,0.23834,0.89732
323.911,39.6362,76.0895,0.24271,0.89692
324.411,39.68192,75.7938,0.24553,0.89651
324.911,39.7277,75.5742,0.2501,0.89611
325.411,39.77336,75.30714,0.25363,0.8957
325.911,39.81886,75.04366,0.25643,0.89529
326.411,39.86445,74.84397,0.25917,0.89489
326.911,39.90995,74.58622,0.26163,0.89448
327.411,39.95555,74.33878,0.26633,0.89407
327.911,40.00124,74.02292,0.27179,0.89367
328.411,40.04723,73.81833,0.2747,0.89326
328.911,40.09325,73.57251,0.27499,0.89285
329.411,40.1394,73.2202,0.28132,0.89244
329.911,40.18551,73.0001,0.2863,0.89203
330.411,40.23178,72.71973,0.28903,0.89163
330.911,40.27767,72.49999,0.29323,0.89122
331.411,40.3235,72.16073,0.2955,0.89081
331.911,40.36938,71.94363,0.30085,0.8904
332.411,40.41511,71.67076,0.30556,0.88999
332.911,40.46092,71.39368,0.309,0.88958
333.411,40.5068,71.0555,0.3141,0.88917
333.911,40.55271,70.7906,0.31797,0.88876
334.411,40.5987,70.53147,0.32154,0.88835
334.911,40.6447,70.26354,0.32589,0.88794
335.411,40.69056,69.9475,0.33194,0.88753
335.911,40.73625,69.62942,0.33389,0.88712
336.411,40.78217,69.38546,0.33729,0.8867
336.911,40.82802,69.04946,0.34298,0.88629
337.411,40.87386,68.72833,0.34873,0.88588
337.911,40.92011,68.40439,0.35392,0.88547
338.411,40.96601,68.1152,0.357,0.88506
338.911,41.01191,67.7812,0.36367,0.88464
339.411,41.05787,67.481,0.3689,0.88423
339.911,41.1038,67.1641,0.37177,0.88382
340.411,41.14983,66.80212,0.37695,0.88341
340.911,41.19579,66.43697,0.38354,0.88299
341.411,41.2418,66.10915,0.3881,0.88258
341.911,41.28778,65.80829,0.39207,0.88217
342.411,41.3336,65.3823,0.39749,0.88175
342.911,41.3797,65.07061,0.40318,0.88134
343.411,41.42582,64.7538,0.40647,0.88092
343.911,41.47203,64.33813,0.41344,0.88051
344.411,41.51814,64.01312,0.41949,0.88009
344.911,41.564,63.6193,0.4234,0.87968
345.411,41.60989,63.21204,0.43102,0.87927
345.911,41.65599,62.8861,0.43497,0.87885
346.411,41.70221,62.49162,0.43842,0.87843
346.911,41.7483,62.12571,0.44614,0.87802
347.411,41.79479,61.62184,0.45135,0.8776
347.911,41.84086,61.27,0.45625,0.87719
348.411,41.88698,60.87543,0.46038,0.87677
348.911,41.93319,60.4772,0.46615,0.87635
349.411,41.9794,60.07303,0.47181,0.87594
349.911,42.02563,59.62546,0.47667,0.87552
350.411,42.07179,59.19125,0.48209,0.8751
350.911,42.11784,58.7674,0.48555,0.87469
351.411,42.1639,58.38711,0.49017,0.87427
351.911,42.21015,58.00251,0.49597,0.87385
352.411,42.25657,57.54956,0.50036,0.87344
352.911,42.30284,57.0676,0.50389,0.87302
353.411,42.34929,56.60001,0.50891,0.8726
353.911,42.39565,56.18144,0.51316,0.87218
354.411,42.44197,55.75079,0.51785,0.87176
354.911,42.4883,55.28861,0.52216,0.87134
355.411,42.5346,54.8203,0.5252,0.87093
355.911,42.5809,54.3404,0.52834,0.87051
356.411,42.62722,53.88,0.53051,0.87009
356.911,42.67368,53.36557,0.53332,0.86967
357.411,42.7199,52.90752,0.53585,0.86925
357.911,42.76636,52.41945,0.53572,0.86883
358.411,42.81231,51.82359,0.53648,0.86841
358.911,42.85881,51.58409,0.5379,0.86799
359.411,42.9054,51.09087,0.53933,0.86757
359.911,42.9519,50.5577,0.53793,0.86715
360.411,42.9985,50.1261,0.53653,0.86673
360.911,43.04523,49.58883,0.53468,0.86631
361.411,43.09154,49.13779,0.53303,0.86589
361.911,43.13793,48.6485,0.53032,0.86547
362.411,43.1845,48.17403,0.52658,0.86505
362.911,43.23105,47.67532,0.52179,0.86463
363.411,43.27758,47.1334,0.51714,0.86421
363.911,43.32418,46.71782,0.51175,0.86379
364.411,43.3708,46.30657,0.50509,0.86337
364.911,43.4173,45.82651,0.49762,0.86294
365.411,43.46382,45.35049,0.48889,0.86252
365.911,43.51035,44.85183,0.47998,0.8621
366.411,43.55695,44.44266,0.47023,0.86168
366.911,43.60362,44.01467,0.46036,0.86126
367.411,43.65017,43.5678,0.44843,0.86084
367.911,43.6969,43.15102,0.43364,0.86041
368.411,43.74343,42.79306,0.42186,0.85999
368.911,43.78992,42.3716,0.40431,0.85957
369.411,43.83643,42.0525,0.38924,0.85915
369.911,43.88312,41.69092,0.37388,0.85872
370.411,43.92982,41.32481,0.35452,0.8583
370.911,43.97647,40.93987,0.33775,0.85788
371.411,44.023,40.58549,0.31783,0.85745
371.911,44.0695,40.2954,0.29703,0.85703
372.411,44.11598,40.02114,0.27965,0.85661
372.911,44.1624,39.74514,0.25838,0.85618
373.411,44.20896,39.4911,0.23931,0.85576
373.911,44.2556,39.22872,0.21904,0.85534
374.411,44.30205,39.0004,0.20016,0.85491
374.911,44.34859,38.80892,0.18282,0.85449
375.411,44.39517,38.53756,0.1636,0.85407
375.911,44.44175,38.60906,0.14897,0.85364
376.411,44.4884,38.31491,0.13301,0.85322
376.911,44.53501,38.14945,0.11762,0.85279
377.411,44.58174,38.03938,0.10576,0.85237
377.911,44.62832,37.88684,0.09272205,0.85195
378.411,44.67503,37.74475,0.08279817,0.85152
378.911,44.72165,37.696,0.07133171,0.8511
379.411,44.76845,37.61108,0.06480436,0.85067
379.911,44.81507,37.4848,0.0564391,0.85025
380.411,44.86159,37.4285,0.0478434,0.84982
380.911,44.9082,37.3696,0.04275726,0.8494
381.411,44.95467,37.23016,0.03586129,0.84897
381.911,45.0013,37.1305,0.03231127,0.84855
382.411,45.04815,37.0784,0.02742618,0.84812
382.911,45.0948,37.0264,0.02372181,0.8477
383.411,45.14168,37.00312,0.0212994,0.84727
383.911,45.1884,36.97359,0.01701265,0.84685
384.411,45.23512,36.91026,0.01367611,0.84642
384.911,45.2819,36.85817,0.01056962,0.84599
385.411,45.3287,36.77081,0.009942954,0.84557
385.911,45.3757,36.71523,0.00603981,0.84514
386.411,45.42252,36.62839,0.00441418,0.84472
386.911,45.46942,36.59967,0.000705638,0.84429
387.411,45.51637,36.56047,-0.0007202498,0.84387
387.911,45.56327,36.50164,-0.000937271,0.84344
388.411,45.61019,36.47248,-0.004105571,0.84301
388.911,45.65715,36.43354,-0.008011562,0.84259
389.411,45.7042,36.3611,-0.006260851,0.84216
389.911,45.75132,36.31617,-0.01136636,0.84173
390.411,45.79828,36.26321,-0.01455771,0.84131
390.911,45.84514,36.24711,-0.01557215,0.84088
391.411,45.8921,36.1778,-0.01613347,0.84045
391.911,45.93891,36.10496,-0.01898411,0.84003
392.411,45.98585,36.1193,-0.01990942,0.8396
392.911,46.0328,36.05299,-0.02192206,0.83918
393.411,46.07969,35.99374,-0.02388839,0.83875
393.911,46.1266,35.86173,-0.02372172,0.83832
394.411,46.17344,35.88304,-0.02633717,0.83789
394.911,46.22025,35.88564,-0.02597443,0.83747
395.411,46.26715,35.8376,-0.02723184,0.83704
395.911,46.31416,35.79416,-0.03042932,0.83661
396.411,46.36114,35.72159,-0.03328306,0.83619
396.911,46.40822,35.68399,-0.03189339,0.83576
397.411,46.45517,35.6466,-0.03386453,0.83533
397.911,46.5022,35.634,-0.03460949,0.83491
398.411,46.5492,35.57261,-0.03682024,0.83448
398.911,46.59618,35.52319,-0.04036905,0.83405
399.411,46.6434,35.48434,-0.03735335,0.83362
399.911,46.6905,35.45211,-0.03922871,0.8332
400.411,46.7376,35.38535,-0.04047383,0.83277
400.911,46.7847,35.348,-0.04215352,0.83234
401.411,46.83177,35.34915,-0.04150737,0.83191
401.911,46.87893,35.30129,-0.04389258,0.83149
402.411,46.92606,35.2463,-0.04473625,0.83106
402.911,46.97319,35.2173,-0.04495616,0.83063
403.411,47.0204,35.1195,-0.04505906,0.8302
403.911,47.06742,35.0882,-0.04748103,0.82978
404.411,47.11444,35.05491,-0.04621748,0.82935
404.911,47.16151,35.0209,-0.04843286,0.82892
405.411,47.20852,34.98362,-0.04900911,0.82849
405.911,47.25581,34.9411,-0.0500821,0.82807
406.411,47.30294,34.87123,-0.0504703,0.82764
406.911,47.35009,34.83846,-0.0514171,0.82721
407.411,47.39741,34.76547,-0.0516482,0.82678
407.911,47.4445,34.76147,-0.05324452,0.82636
408.411,47.49177,34.74087,-0.05377986,0.82593
408.911,47.53905,34.72123,-0.05477575,0.8255
409.411,47.5862,34.69582,-0.05524377,0.82507
409.911,47.63357,34.65528,-0.05452978,0.82464
410.411,47.68084,34.574,-0.05423123,0.82422
410.911,47.72805,34.53949,-0.05390069,0.82379
411.411,47.77555,34.4984,-0.05404309,0.82336
411.911,47.8227,34.46265,-0.05437368,0.82293
412.411,47.86996,34.427,-0.05495962,0.82251
412.911,47.91717,34.3948,-0.05611459,0.82208
413.411,47.96441,34.38262,-0.05777429,0.82165
413.911,48.01164,34.34356,-0.05596105,0.82122
414.411,48.05905,34.28378,-0.05596595,0.82079
414.911,48.10652,34.2489,-0.05704798,0.82037
415.411,48.15398,34.2285,-0.05667574,0.81994
415.911,48.2014,34.17474,-0.05805119,0.81951
416.411,48.2487,34.14297,-0.05708073,0.81908
416.911,48.29598,34.10861,-0.05715826,0.81866
417.411,48.3432,34.11111,-0.05788984,0.81823
417.911,48.3905,34.05298,-0.05874808,0.8178
418.411,48.43779,33.9838,-0.05671389,0.81737
418.911,48.48507,33.95565,-0.0589921,0.81694
419.411,48.5323,33.93088,-0.05999575,0.81652
419.911,48.57969,33.882,-0.06006579,0.81609
420.411,48.62695,33.8168,-0.06018915,0.81566
420.911,48.6742,33.79809,-0.06072627,0.81523
421.411,48.72156,33.7906,-0.05751015,0.81481
421.911,48.76889,33.7827,-0.05916781,0.81438
422.411,48.81619,33.74001,-0.05971492,0.81395
422.911,48.86351,33.66983,-0.05628618,0.81352
423.411,48.91084,33.6689,-0.05855737,0.8131
423.911,48.9581,33.61677,-0.05488131,0.81267
424.411,49.0054,33.5595,-0.05529729,0.81224
424.911,49.05281,33.52454,-0.0566619,0.81181
425.411,49.10022,33.49484,-0.0543037,0.81139
425.911,49.1477,33.46202,-0.0542907,0.81096
426.411,49.19527,33.46325,-0.05424608,0.81053
426.911,49.24277,33.4234,-0.05257315,0.8101
427.411,49.29031,33.39598,-0.05109393,0.80968
427.911,49.3377,33.3474,-0.04994006,0.80925
428.411,49.38534,33.29318,-0.04799958,0.80882
428.911,49.4328,33.2215,-0.05007558,0.80839
429.411,49.48042,33.21252,-0.0486503,0.80797
429.911,49.52791,33.19279,-0.04989837,0.80754
430.411,49.57549,33.13328,-0.04771742,0.80711
430.911,49.6231,33.13183,-0.04873322,0.80669
431.411,49.67069,33.07291,-0.04615697,0.80626
431.911,49.71825,33.0368,-0.04675784,0.80583
432.411,49.7659,33.0347,-0.04525624,0.8054
432.911,49.8133,32.96877,-0.04598269,0.80498
433.411,49.86079,32.9354,-0.0467053,0.80455
433.911,49.9083,32.9026,-0.04648516,0.80412
434.411,49.95584,32.86727,-0.0455602,0.8037
434.911,50.0034,32.82906,-0.04427797,0.80327
435.411,50.05079,32.81749,-0.04446196,0.80284
435.911,50.0983,32.7948,-0.04388997,0.80242
436.411,50.14582,32.735,-0.04077082,0.80199
436.911,50.19338,32.67819,-0.04331647,0.80156
437.411,50.241,32.64363,-0.04543598,0.80114
437.911,50.28864,32.60958,-0.0429503,0.80071
438.411,50.33641,32.57587,-0.04058605,0.80029
438.911,50.38395,32.57607,-0.04052714,0.79986
439.411,50.43175,32.56559,-0.03967114,0.79943
439.911,50.47919,32.4985,-0.03565746,0.79901
440.411,50.52694,32.48938,-0.03625617,0.79858
440.911,50.57472,32.46951,-0.03620803,0.79815
441.411,50.62249,32.4429,-0.03437428,0.79773
441.911,50.67045,32.3513,-0.03255127,0.7973
442.411,50.7185,32.31835,-0.03320295,0.79688
442.911,50.7663,32.31842,-0.0306724,0.79645
443.411,50.81406,32.31708,-0.03007777,0.79603
443.911,50.86175,32.29951,-0.02971996,0.7956
444.411,50.90953,32.2923,-0.0292777,0.79518
444.911,50.95732,32.2126,-0.0296582,0.79475
445.411,51.00506,32.16194,-0.02827704,0.79432
445.911,51.05267,32.15934,-0.02699451,0.7939
446.411,51.10042,32.1236,-0.02549076,0.79347
446.911,51.1482,32.05515,-0.02478783,0.79305
447.411,51.19592,32.0597,-0.02592397,0.79262
447.911,51.24382,32.0689,-0.02559599,0.7922
448.411,51.29175,32.0099,-0.02456048,0.79177
448.911,51.33939,31.9935,-0.02365491,0.79135
449.411,51.38725,32.01126,-0.0229954,0.79093
449.911,51.43502,31.9486,-0.02266217,0.7905
450.411,51.4825,31.89763,-0.02140325,0.79008
450.911,51.53009,31.9019,-0.02123989,0.78965
451.411,51.57759,31.86477,-0.01963712,0.78923
451.911,51.62518,31.8112,-0.01948759,0.7888
452.411,51.67302,31.80023,-0.02008109,0.78838
452.911,51.72087,31.7816,-0.02160378,0.78796
453.411,51.76876,31.7628,-0.02001479,0.78753
453.911,51.81655,31.73429,-0.01919826,0.78711
454.411,51.8643,31.6917,-0.01902281,0.78668
454.911,51.91214,31.65904,-0.01646776,0.78626
455.411,51.96005,31.62476,-0.01383869,0.78584
455.911,52.00796,31.59201,-0.01717225,0.78541
456.411,52.05583,31.59175,-0.01484395,0.78499
456.911,52.10347,31.5913,-0.01657379,0.78457
457.411,52.1513,31.5589,-0.01682306,0.78414
457.911,52.19908,31.52565,-0.01558617,0.78372
458.411,52.247,31.453,-0.01565272,0.7833
458.911,52.29529,31.4221,-0.01486292,0.78287
459.411,52.3435,31.4209,-0.01880802,0.78245
459.911,52.39161,31.41933,-0.01628473,0.78203
460.411,52.43985,31.38627,-0.01658369,0.78161
460.911,52.48771,31.35325,-0.01658873,0.78118
461.411,52.5358,31.3159,-0.01218976,0.78076
461.911,52.5839,31.2766,-0.01410819,0.78034
462.411,52.6318,31.2518,-0.01334399,0.77992
462.911,52.68017,31.2157,-0.01321795,0.7795
463.411,52.72814,31.21105,-0.0132413,0.77907
463.911,52.7762,31.1585,-0.01182751,0.77865
464.411,52.82419,31.15038,-0.01285613,0.77823
464.911,52.8725,31.1198,-0.01196009,0.77781
465.411,52.92066,31.1505,-0.01154619,0.77739
465.911,52.96884,31.1148,-0.01329406,0.77697
466.411,53.0169,31.0853,-0.01484071,0.77655
466.911,53.0649,31.04662,-0.0134516,0.77613
467.411,53.11306,31.0158,-0.01384552,0.7757
467.911,53.16114,30.9817,-0.0126364,0.77528
468.411,53.2093,31.01517,-0.01476619,0.77486
468.911,53.2575,30.979,-0.01437717,0.77444
469.411,53.3056,30.9396,-0.01252249,0.77402
469.911,53.35369,30.881,-0.0131682,0.7736
470.411,53.4018,30.88125,-0.01418037,0.77318
470.911,53.44984,30.8815,-0.01383746,0.77276
471.411,53.498,30.8437,-0.0131893,0.77234
471.911,53.54622,30.81285,-0.01350701,0.77192
472.411,53.5944,30.7829,-0.01377631,0.7715
472.911,53.6427,30.74959,-0.0134313,0.77108
473.411,53.6909,30.7157,-0.01459338,0.77067
473.911,53.73905,30.72515,-0.01365448,0.77025
474.411,53.78725,30.72151,-0.01458684,0.76983
474.911,53.83549,30.68955,-0.01362481,0.76941
475.411,53.88378,30.659,-0.01495474,0.76899
475.911,53.9321,30.6485,-0.01522029,0.76857
476.411,53.9802,30.64825,-0.01865058,0.76815
476.911,54.0285,30.61481,-0.01748877,0.76773
477.411,54.07662,30.6179,-0.01717902,0.76732
477.911,54.1248,30.57145,-0.01774685,0.7669
478.411,54.173,30.5499,-0.01921851,0.76648
478.911,54.22119,30.51665,-0.02116838,0.76606
479.411,54.2693,30.51675,-0.02096302,0.76565
479.911,54.31756,30.5164,-0.02118142,0.76523
480.411,54.3658,30.4766,-0.02087965,0.76481
480.911,54.4141,30.37746,-0.02337816,0.76439
481.411,54.46221,30.3449,-0.02705658,0.76398
481.911,54.51048,30.377,-0.02494766,0.76356
482.411,54.5589,30.34334,-0.02692592,0.76314
482.911,54.60728,30.34122,-0.02704943,0.76273
483.411,54.6557,30.3136,-0.02895327,0.76231
483.911,54.70436,30.27647,-0.03043501,0.7619
484.411,54.75265,30.26987,-0.03257033,0.76148
484.911,54.801,30.2393,-0.03107834,0.76106
485.411,54.84933,30.2728,-0.0320739,0.76065
485.911,54.89756,30.22595,-0.0334772,0.76023
486.411,54.94588,30.17782,-0.03374374,0.75982
486.911,54.99419,30.1727,-0.03457278,0.7594
487.411,55.04237,30.16051,-0.03556901,0.75899
487.911,55.09041,30.13,-0.037442,0.75857
488.411,55.13851,30.1168,-0.03455588,0.75816
488.911,55.1864,30.05661,-0.03696632,0.75774
489.411,55.2346,30.05663,-0.03552842,0.75733
489.911,55.28286,30.0918,-0.03750078,0.75692
490.411,55.33107,30.092,-0.03691509,0.7565
490.911,55.3794,30.05201,-0.03907125,0.75609
491.411,55.4277,29.9878,-0.0377092,0.75567
491.911,55.4762,29.993,-0.03853486,0.75526
492.411,55.52495,29.9795,-0.03980968,0.75485
492.911,55.5738,29.9653,-0.03923595,0.75443
493.411,55.6225,29.95478,-0.04079695,0.75402
493.911,55.6712,29.91511,-0.04034264,0.75361
494.411,55.7196,29.8834,-0.04228806,0.7532
494.911,55.7681,29.88348,-0.0424016,0.75278
495.411,55.81651,29.87593,-0.04243356,0.75237
495.911,55.86509,29.84212,-0.04177159,0.75196
496.411,55.91369,29.80398,-0.04122655,0.75155
496.911,55.96204,29.7598,-0.04478017,0.75114
497.411,56.0107,29.7261,-0.04626724,0.75072
497.911,56.0593,29.742,-0.04704063,0.75031
498.411,56.10765,29.75974,-0.04768627,0.7499
498.911,56.15625,29.7579,-0.04844399,0.74949
499.411,56.2048,29.719,-0.04945052,0.74908
499.911,56.2533,29.6944,-0.05045098,0.74867
500.411,56.30189,29.6557,-0.05160498,0.74826
500.911,56.3504,29.6557,-0.05278037,0.74785
501.411,56.3988,29.6144,-0.05100388,0.74744
501.911,56.44709,29.58032,-0.05048008,0.74703
502.411,56.4955,29.6067,-0.05402388,0.74662
502.911,56.5438,29.57518,-0.05449068,0.74621
503.411,56.5923,29.5407,-0.05765602,0.7458
503.911,56.6403,29.5407,-0.05607504,0.74539
504.411,56.68874,29.5072,-0.05875869,0.74498
504.911,56.7373,29.5053,-0.05960802,0.74458
505.411,56.78585,29.52075,-0.06166835,0.74417
505.911,56.8346,29.50808,-0.05940927,0.74376
506.411,56.88351,29.4621,-0.06218649,0.74335
506.911,56.93204,29.4527,-0.06169462,0.74294
507.411,56.98056,29.4526,-0.06373985,0.74254
507.911,57.02913,29.428,-0.06356936,0.74213
508.411,57.0776,29.42166,-0.06667328,0.74172
508.911,57.12608,29.3543,-0.06762811,0.74131
509.411,57.17454,29.31448,-0.06780413,0.74091
509.911,57.22288,29.3248,-0.06902966,0.7405
510.411,57.27134,29.30932,-0.07098899,0.7401
510.911,57.3197,29.3104,-0.07195073,0.73969
511.411,57.36829,29.27494,-0.07195699,0.73928
511.911,57.41679,29.28136,-0.07551912,0.73888
512.411,57.4653,29.2007,-0.07504707,0.73847
512.911,57.51404,29.2047,-0.07846602,0.73807
513.411,57.5627,29.1871,-0.07913946,0.73766
513.911,57.61133,29.218,-0.07699487,0.73726
514.411,57.66001,29.20324,-0.07765635,0.73685
514.911,57.70859,29.16982,-0.07930903,0.73645
515.411,57.75715,29.134,-0.08122225,0.73604
515.911,57.806,29.13372,-0.08336008,0.73564
516.411,57.85476,29.11399,-0.08375125,0.73524
516.911,57.90361,29.10172,-0.08417765,0.73483
517.411,57.9523,29.07553,-0.08533715,0.73443
517.911,58.0011,29.0197,-0.08607058,0.73403
518.411,58.0498,29.0525,-0.08735518,0.73362
518.911,58.0985,29.02004,-0.08871085,0.73322
519.411,58.1473,29.0416,-0.08777957,0.73282
519.911,58.1962,29.0171,-0.08884487,0.73242
520.411,58.24507,28.9536,-0.09005779,0.73201
520.911,58.29404,28.9725,-0.09355148,0.73161
521.411,58.3429,28.9456,-0.09147898,0.73121
521.911,58.3918,28.92075,-0.09122318,0.73081
522.411,58.44073,28.9114,-0.09448877,0.73041
522.911,58.4894,28.90297,-0.09324172,0.73001
523.411,58.53845,28.9071,-0.09379313,0.72961
523.911,58.58725,28.8849,-0.09493352,0.72921
524.411,58.636,28.8428,-0.09700045,0.72881
524.911,58.6849,28.8179,-0.09808251,0.72841
525.411,58.7336,28.7874,-0.09700964,0.72801
525.911,58.7824,28.81946,-0.10088,0.72761
526.411,58.8314,28.8195,-0.10235,0.72721
526.911,58.88032,28.8195,-0.10315,0.72681
527.411,58.92931,28.7963,-0.10308,0.72641
527.911,58.97846,28.74993,-0.10432,0.72601
528.411,59.0272,28.72108,-0.10407,0.72561
528.911,59.0761,28.71535,-0.10493,0.72521
529.411,59.12491,28.74365,-0.10461,0.72482
529.911,59.17377,28.70948,-0.10549,0.72442
530.411,59.22265,28.6756,-0.10808,0.72402
530.911,59.27145,28.6767,-0.10765,0.72362
531.411,59.3202,28.6518,-0.11073,0.72323
531.911,59.36919,28.60912,-0.11111,0.72283
532.411,59.4182,28.59423,-0.1112,0.72243
532.911,59.46728,28.5755,-0.11458,0.72204
533.411,59.5164,28.57525,-0.11396,0.72164
533.911,59.5655,28.5752,-0.11728,0.72125
534.411,59.6145,28.6081,-0.11661,0.72085
534.911,59.66346,28.5489,-0.11854,0.72046
535.411,59.7124,28.5154,-0.11619,0.72006
535.911,59.7612,28.5148,-0.11855,0.71967
536.411,59.8101,28.4908,-0.11934,0.71927
536.911,59.8591,28.5003,-0.12129,0.71888
537.411,59.90811,28.4818,-0.12231,0.71848
537.911,59.95717,28.44084,-0.12333,0.71809
538.411,60.0062,28.38178,-0.12552,0.7177
538.911,60.05511,28.41703,-0.12621,0.7173
539.411,60.1041,28.47278,-0.12804,0.71691
539.911,60.1532,28.41565,-0.12901,0.71652
540.411,60.20235,28.36751,-0.12863,0.71613
540.911,60.25166,28.35955,-0.12842,0.71573
541.411,60.30092,28.37521,-0.12988,0.71534
541.911,60.34995,28.3395,-0.13339,0.71495
542.411,60.39915,28.3066,-0.13523,0.71456
542.911,60.4482,28.3065,-0.13653,0.71417
543.411,60.4972,28.30648,-0.13532,0.71378
543.911,60.5465,28.2776,-0.13756,0.71339
544.411,60.59567,28.23872,-0.1393,0.713
544.911,60.6447,28.2408,-0.14081,0.71261
545.411,60.6938,28.24062,-0.14171,0.71222
545.911,60.74296,28.2753,-0.14539,0.71183
546.411,60.79198,28.2407,-0.14491,0.71144
546.911,60.8412,28.2414,-0.14891,0.71105
547.411,60.8905,28.216,-0.14817,0.71066
547.911,60.93962,28.18945,-0.15083,0.71027
548.411,60.98855,28.1776,-0.15336,0.70988
548.911,61.03761,28.20662,-0.1554,0.70949
549.411,61.08667,28.1866,-0.15849,0.70911
549.911,61.13579,28.186,-0.15808,0.70872
550.411,61.18485,28.1751,-0.1631,0.70833
550.911,61.23409,28.1315,-0.16465,0.70794
551.411,61.28312,28.1175,-0.16756,0.70756
551.911,61.33217,28.11748,-0.16706,0.70717
552.411,61.3814,28.09017,-0.16817,0.70679
552.911,61.43046,28.0493,-0.16936,0.7064
553.411,61.47959,28.0435,-0.17098,0.70601
553.911,61.52856,28.0435,-0.17235,0.70563
554.411,61.5777,28.01084,-0.17363,0.70524
554.911,61.62679,28.0129,-0.17655,0.70486
555.411,61.67605,28.0014,-0.17874,0.70447
555.911,61.7254,28.04342,-0.1795,0.70409
556.411,61.77456,28.00425,-0.18027,0.70371
556.911,61.8238,27.9427,-0.18259,0.70332
557.411,61.873,27.942,-0.18499,0.70294
557.911,61.92221,27.94228,-0.18848,0.70256
558.411,61.9713,27.9748,-0.18996,0.70217
558.911,62.0204,27.94205,-0.19298,0.70179
559.411,62.0695,27.90905,-0.19042,0.70141
559.911,62.11841,27.8726,-0.19505,0.70103
560.411,62.1677,27.87769,-0.19616,0.70064
560.911,62.21682,27.89258,-0.19695,0.70026
561.411,62.26614,27.89248,-0.20029,0.69988
561.911,62.3157,27.8649,-0.20035,0.6995
562.411,62.3651,27.8595,-0.20081,0.69912
562.911,62.41426,27.85418,-0.20633,0.69874
563.411,62.4635,27.8265,-0.20666,0.69836
563.911,62.51274,27.8263,-0.20447,0.69798
564.411,62.5621,27.78867,-0.20806,0.6976
564.911,62.61119,27.78825,-0.20999,0.69722
565.411,62.66049,27.77876,-0.21199,0.69684
565.911,62.70991,27.75013,-0.21498,0.69646
566.411,62.7592,27.7485,-0.21542,0.69608
566.911,62.8089,27.74725,-0.21727,0.69571
567.411,62.85861,27.6905,-0.21698,0.69533
567.911,62.9082,27.67463,-0.22103,0.69495
568.411,62.9578,27.74411,-0.21964,0.69457
568.911,63.00733,27.6918,-0.2209,0.6942
569.411,63.05689,27.64207,-0.22468,0.69382
569.911,63.10641,27.6375,-0.22459,0.69344
570.411,63.15585,27.64647,-0.22401,0.69307
570.911,63.20525,27.6703,-0.22594,0.69269
571.411,63.25466,27.66992,-0.22691,0.69232
571.911,63.30412,27.6386,-0.22649,0.69194
572.411,63.35346,27.6036,-0.22666,0.69157
572.911,63.403,27.5717,-0.23151,0.69119
573.411,63.4528,27.6048,-0.23008,0.69082
573.911,63.5024,27.59924,-0.23397,0.69044
574.411,63.55209,27.59962,-0.23147,0.69007
574.911,63.6015,27.5917,-0.23214,0.6897
575.411,63.6508,27.55795,-0.23628,0.68932
575.911,63.70019,27.52504,-0.23587,0.68895
576.411,63.7494,27.525,-0.23732,0.68858
576.911,63.7987,27.525,-0.23815,0.68821
577.411,63.8484,27.525,-0.24197,0.68783
577.911,63.89799,27.52695,-0.24437,0.68746
578.411,63.94761,27.4922,-0.24513,0.68709
578.911,63.99722,27.4922,-0.24856,0.68672
579.411,64.0466,27.46,-0.24835,0.68635
579.911,64.0959,27.45925,-0.24915,0.68598
580.411,64.14536,27.45733,-0.24898,0.68561
580.911,64.19498,27.4265,-0.2508,0.68524
581.411,64.2444,27.4265,-0.25358,0.68487
581.911,64.29389,27.46497,-0.25353,0.6845
582.411,64.3433,27.42645,-0.26009,0.68413
582.911,64.39267,27.39582,-0.25877,0.68376
583.411,64.44199,27.36805,-0.26258,0.68339
583.911,64.49106,27.3632,-0.26149,0.68303
584.411,64.54008,27.34699,-0.26095,0.68266
584.911,64.58926,27.346,-0.26432,0.68229
585.411,64.6387,27.3641,-0.26462,0.68192
585.911,64.68815,27.2993,-0.26551,0.68156
586.411,64.73809,27.26827,-0.26892,0.68119
586.911,64.78787,27.2951,-0.26966,0.68082
587.411,64.83761,27.3369,-0.26978,0.68046
587.911,64.88745,27.3003,-0.27317,0.68009
588.411,64.93723,27.27556,-0.27373,0.67973
588.911,64.9867,27.27538,-0.2746,0.67936
589.411,65.03613,27.29252,-0.27443,0.679
589.911,65.08551,27.28377,-0.2764,0.67863
590.411,65.13499,27.2838,-0.2768,0.67827
590.911,65.18449,27.2484,-0.27772,0.67791
591.411,65.23403,27.23217,-0.27824,0.67754
591.911,65.28365,27.2418,-0.28006,0.67718
592.411,65.33296,27.2515,-0.27749,0.67682
592.911,65.38241,27.21792,-0.2806,0.67645
593.411,65.43177,27.2159,-0.2832,0.67609
593.911,65.4812,27.1926,-0.28438,0.67573
594.411,65.53073,27.15193,-0.28608,0.67537
594.911,65.5802,27.152,-0.28736,0.67501
595.411,65.62982,27.152,-0.28724,0.67465
595.911,65.6794,27.152,-0.28597,0.67429
596.411,65.72896,27.152,-0.2828,0.67393
596.911,65.77852,27.152,-0.28813,0.67357
597.411,65.8279,27.1232,-0.28902,0.67321
597.911,65.87738,27.1214,-0.28821,0.67285
598.411,65.92689,27.0943,-0.28812,0.67249
598.911,65.976,27.0958,-0.28852,0.67213
599.411,66.0257,27.06167,-0.29061,0.67177
599.911,66.07528,27.06175,-0.29344,0.67141
600.411,66.12468,27.06175,-0.29212,0.67106
600.911,66.1747,27.06175,-0.29533,0.6707
601.411,66.22423,27.0618,-0.29355,0.67034
601.911,66.27377,27.02303,-0.29522,0.66998
602.411,66.32325,27.02325,-0.29551,0.66963
602.911,66.3728,27.02325,-0.29593,0.66927
603.411,66.42236,27.02451,-0.29558,0.66892
603.911,66.47187,27.0227,-0.29602,0.66856
604.411,66.52157,27.02325,-0.29327,0.6682
604.911,66.57095,27.02325,-0.29503,0.66785
605.411,66.62047,27.02325,-0.29572,0.6675
605.911,66.6701,27.02321,-0.29562,0.66714
606.411,66.7195,26.99049,-0.29599,0.66679
606.911,66.7692,26.99057,-0.29512,0.66643
607.411,66.8189,26.9575,-0.29556,0.66608
607.911,66.86801,26.9575,-0.29522,0.66573
608.411,66.91771,26.9575,-0.29506,0.66537
608.911,66.96746,26.9852,-0.29444,0.66502
609.411,67.017,26.95791,-0.29362,0.66467
609.911,67.06688,26.923,-0.29577,0.66432
610.411,67.11668,26.9245,-0.29481,0.66397
610.911,67.1662,26.9245,-0.29461,0.66362
611.411,67.2158,26.8926,-0.29476,0.66327
611.911,67.26547,26.8601,-0.29483,0.66292
612.411,67.31511,26.85813,-0.29442,0.66257
612.911,67.36479,26.82493,-0.29516,0.66222
613.411,67.41456,26.8674,-0.29303,0.66187
613.911,67.4643,26.87043,-0.2937,0.66152
614.411,67.51411,26.8284,-0.29456,0.66117
614.911,67.5639,26.82848,-0.29676,0.66082
615.411,67.61375,26.80439,-0.29376,0.66047
615.911,67.66354,26.758,-0.29472,0.66012
616.411,67.71321,26.79723,-0.29683,0.65978
616.911,67.76318,26.82865,-0.29988,0.65943
617.411,67.81311,26.8056,-0.29639,0.65908
617.911,67.8631,26.77978,-0.29544,0.65874
618.411,67.9133,26.79813,-0.29327,0.65839
618.911,67.9632,26.79575,-0.29287,0.65805
619.411,68.01312,26.79552,-0.29227,0.6577
619.911,68.063,26.74046,-0.29386,0.65735
620.411,68.11276,26.72969,-0.29251,0.65701
620.911,68.16261,26.79877,-0.28813,0.65667
621.411,68.21257,26.7519,-0.28759,0.65632
621.911,68.26253,26.75207,-0.28745,0.65598
622.411,68.3126,26.78455,-0.28469,0.65563
622.911,68.36278,26.75103,-0.28387,0.65529
623.411,68.413,26.72202,-0.28032,0.65495
623.911,68.4631,26.7216,-0.27654,0.65461
624.411,68.51311,26.6484,-0.27589,0.65426
624.911,68.56306,26.65065,-0.27688,0.65392
625.411,68.613,26.683,-0.27139,0.65358
625.911,68.66292,26.68239,-0.27103,0.65324
626.411,68.71289,26.6503,-0.2695,0.6529
626.911,68.7629,26.65093,-0.2693,0.65256
627.411,68.81283,26.59935,-0.27064,0.65222
627.911,68.86277,26.5928,-0.26925,0.65188
628.411,68.91248,26.6475,-0.26928,0.65154
628.911,68.96252,26.6475,-0.26814,0.6512
629.411,69.01264,26.6475,-0.26901,0.65086
629.911,69.06275,26.64445,-0.26975,0.65052
630.411,69.11329,26.5833,-0.26692,0.65019
630.911,69.1633,26.54992,-0.2673,0.64985
631.411,69.21324,26.58172,-0.26835,0.64951
631.911,69.2632,26.58172,-0.26729,0.64917
632.411,69.31306,26.54938,-0.27134,0.64884
632.911,69.363,26.54875,-0.27572,0.6485
633.411,69.413,26.54875,-0.28012,0.64816
633.911,69.46291,26.54875,-0.27905,0.64783
634.411,69.5129,26.54885,-0.27777,0.64749
634.911,69.56279,26.51655,-0.27959,0.64716
635.411,69.61283,26.4829,-0.2775,0.64682
635.911,69.66279,26.483,-0.27331,0.64649
636.411,69.71279,26.4834,-0.27361,0.64616
636.911,69.7629,26.516,-0.27345,0.64582
637.411,69.81245,26.51537,-0.27274,0.64549
637.911,69.86239,26.54441,-0.27421,0.64516
638.411,69.91229,26.51326,-0.27513,0.64482
638.911,69.9627,26.50872,-0.27005,0.64449
639.211,69.99296,26.49383,-0.27287,0.64429