File: 01_Data/MDF/STA/N2/10K_min/MDF_STA_N2_10KData_211011_R2.csv
##Temp./Â°C,Time/min,Mass(subtr.2)/%,DSC(subtr.2)/(mW/mg),Sensit./(uV/mW)
49.876,10.00917,99.72095,-0.008816467,1.03584
50.376,11.37294,99.61689,0.01417334,1.03582
50.876,11.71852,99.6545,0.03175916,1.03579
51.376,11.9643,99.63081,0.0473558,1.03576
51.876,12.16525,99.6314,0.06101039,1.03574
52.376,12.33947,99.64227,0.07000429,1.03571
52.876,12.49671,99.60984,0.0785472,1.03568
53.376,12.6412,99.64027,0.08963437,1.03565
53.876,12.77614,99.6279,0.09454812,1.03562
54.376,12.90323,99.58202,0.10332,1.03558
54.876,13.02493,99.6404,0.11075,1.03555
55.376,13.1408,99.60265,0.11639,1.03552
55.876,13.251,99.60927,0.12038,1.03548
56.376,13.3597,99.57925,0.12701,1.03544
56.876,13.46631,99.57822,0.13242,1.03541
57.376,13.56848,99.56694,0.13684,1.03537
57.876,13.6677,99.5848,0.14233,1.03533
58.376,13.7654,99.54604,0.14628,1.03528
58.876,13.86075,99.54119,0.15215,1.03524
59.376,13.9523,99.58063,0.1535,1.0352
59.876,14.04375,99.53921,0.16029,1.03515
60.376,14.1332,99.53922,0.1639,1.03511
60.876,14.2222,99.49574,0.16779,1.03506
61.376,14.30848,99.49603,0.17182,1.03501
61.876,14.3932,99.49948,0.17583,1.03497
62.376,14.47608,99.51774,0.17866,1.03492
62.876,14.55799,99.54565,0.18377,1.03486
63.376,14.6395,99.53772,0.1868,1.03481
63.876,14.71919,99.48036,0.19049,1.03476
64.376,14.79834,99.4782,0.19469,1.0347
64.876,14.8766,99.48561,0.1979,1.03465
65.376,14.95253,99.4692,0.20074,1.03459
65.876,15.02832,99.46795,0.20577,1.03454
66.376,15.10278,99.46896,0.20794,1.03448
66.876,15.1781,99.4684,0.21237,1.03442
67.376,15.2514,99.46251,0.21645,1.03436
67.876,15.3243,99.468,0.21983,1.0343
68.376,15.3961,99.4695,0.22198,1.03423
68.876,15.467,99.4212,0.22638,1.03417
69.376,15.53716,99.43389,0.23039,1.03411
69.876,15.60684,99.43149,0.23192,1.03404
70.376,15.676,99.40048,0.23509,1.03397
70.876,15.7444,99.39533,0.23841,1.03391
71.376,15.81238,99.36888,0.24266,1.03384
71.876,15.87989,99.39191,0.24631,1.03377
72.376,15.94714,99.38892,0.24868,1.0337
72.876,16.0136,99.35936,0.25083,1.03362
73.376,16.07957,99.38458,0.25204,1.03355
73.876,16.14503,99.35191,0.25668,1.03348
74.376,16.20994,99.33366,0.25867,1.0334
74.876,16.27431,99.3166,0.2628,1.03333
75.376,16.33837,99.35162,0.26403,1.03325
75.876,16.40219,99.34886,0.26667,1.03317
76.376,16.4654,99.35383,0.27117,1.03309
76.876,16.52818,99.31891,0.27329,1.03301
77.376,16.5904,99.31891,0.27464,1.03293
77.876,16.65209,99.32001,0.27776,1.03285
78.376,16.71353,99.31791,0.27929,1.03276
78.876,16.7744,99.3446,0.28156,1.03268
79.376,16.8351,99.29344,0.28423,1.03259
79.876,16.89498,99.27935,0.28672,1.03251
80.376,16.95511,99.25363,0.288,1.03242
80.876,17.01495,99.25503,0.2884,1.03233
81.376,17.07449,99.28112,0.29121,1.03224
81.876,17.134,99.2546,0.29218,1.03215
82.376,17.19312,99.23245,0.29557,1.03206
82.876,17.25181,99.25628,0.29774,1.03197
83.376,17.31084,99.28832,0.30097,1.03187
83.876,17.36975,99.21705,0.30082,1.03178
84.376,17.42809,99.18486,0.30277,1.03168
84.876,17.48653,99.22584,0.30217,1.03159
85.376,17.54399,99.22625,0.30496,1.03149
85.876,17.6012,99.19399,0.30482,1.03139
86.376,17.65798,99.1923,0.30634,1.03129
86.876,17.71431,99.2233,0.30885,1.03119
87.376,17.77082,99.19015,0.30966,1.03109
87.876,17.82691,99.1904,0.30901,1.03099
88.376,17.8828,99.15764,0.31162,1.03088
88.876,17.93874,99.19037,0.3114,1.03078
89.376,17.99411,99.15554,0.31372,1.03067
89.876,18.04952,99.18564,0.31401,1.03057
90.376,18.10474,99.16035,0.31501,1.03046
90.876,18.1595,99.12781,0.31452,1.03035
91.376,18.21405,99.16062,0.31752,1.03024
91.876,18.2683,99.16043,0.31813,1.03013
92.376,18.32253,99.16035,0.31953,1.03002
92.876,18.37677,99.16042,0.32047,1.02991
93.376,18.4309,99.15726,0.32085,1.02979
93.876,18.48474,99.12429,0.32113,1.02968
94.376,18.5382,99.12297,0.32382,1.02956
94.876,18.59161,99.12475,0.32418,1.02944
95.376,18.64485,99.12657,0.32393,1.02933
95.876,18.6982,99.1247,0.32464,1.02921
96.376,18.75122,99.1585,0.32599,1.02909
96.876,18.8041,99.12424,0.32397,1.02897
97.376,18.85681,99.0921,0.32577,1.02885
97.876,18.9092,99.12474,0.3268,1.02873
98.376,18.9616,99.09057,0.32756,1.0286
98.876,19.01366,99.11599,0.32894,1.02848
99.376,19.0657,99.09188,0.33077,1.02835
99.876,19.11777,99.10327,0.33144,1.02823
100.376,19.1698,99.09177,0.33407,1.0281
100.876,19.22179,99.06993,0.3357,1.02797
101.376,19.27361,99.05677,0.33612,1.02784
101.876,19.32531,99.0639,0.33706,1.02771
102.376,19.37643,99.0864,0.33916,1.02758
102.876,19.42782,99.0694,0.33946,1.02745
103.376,19.4791,99.09176,0.3415,1.02732
103.876,19.53035,99.05886,0.34178,1.02718
104.376,19.582,99.08816,0.34264,1.02705
104.876,19.63285,99.05779,0.34336,1.02691
105.376,19.68374,99.0591,0.34409,1.02677
105.876,19.7346,99.05911,0.34491,1.02664
106.376,19.78535,99.0245,0.34597,1.0265
106.876,19.83622,98.9922,0.34571,1.02636
107.376,19.88693,99.02625,0.34729,1.02622
107.876,19.9375,99.05704,0.34776,1.02607
108.376,19.988,99.026,0.3483,1.02593
108.876,20.03847,98.99344,0.34812,1.02579
109.376,20.0887,99.02583,0.34761,1.02564
109.876,20.139,98.99327,0.34786,1.0255
110.376,20.1893,98.99327,0.34994,1.02535
110.876,20.23935,98.99341,0.34982,1.02521
111.376,20.28945,99.0266,0.34968,1.02506
111.876,20.33943,99.05915,0.35028,1.02491
112.376,20.3891,99.02342,0.35108,1.02476
112.876,20.43872,98.99079,0.35099,1.02461
113.376,20.48845,99.02335,0.35376,1.02445
113.876,20.53793,99.0234,0.35295,1.0243
114.376,20.58758,99.02356,0.35384,1.02415
114.876,20.63712,98.99044,0.35454,1.02399
115.376,20.68649,99.02765,0.35485,1.02384
115.876,20.73594,99.02296,0.35595,1.02368
116.376,20.78533,98.99329,0.35616,1.02352
116.876,20.8346,99.00612,0.35568,1.02336
117.376,20.88404,99.02556,0.35744,1.02321
117.876,20.93297,98.97533,0.35768,1.02305
118.376,20.98181,98.97694,0.35918,1.02288
118.876,21.03069,98.98236,0.36003,1.02272
119.376,21.0796,98.99319,0.36116,1.02256
119.876,21.1285,98.97681,0.36045,1.02239
120.376,21.17782,98.97681,0.36322,1.02223
120.876,21.22653,98.96985,0.36292,1.02206
121.376,21.27529,98.97704,0.36495,1.0219
121.876,21.32394,98.97678,0.36459,1.02173
122.376,21.37189,98.9768,0.36458,1.02156
122.876,21.42006,98.9585,0.36694,1.02139
123.376,21.46835,98.9589,0.36754,1.02122
123.876,21.5164,98.97704,0.36772,1.02105
124.376,21.56503,98.97723,0.36977,1.02088
124.876,21.6137,98.964,0.36998,1.02071
125.376,21.6617,98.9625,0.37126,1.02053
125.876,21.70975,98.94462,0.37214,1.02036
126.376,21.75769,98.97714,0.37212,1.02018
126.876,21.8056,98.94322,0.37254,1.02
127.376,21.85343,98.944,0.37389,1.01983
127.876,21.90126,98.97793,0.3754,1.01965
128.376,21.94923,98.94414,0.37567,1.01947
128.876,21.9968,98.97452,0.37778,1.01929
129.376,22.04434,98.97674,0.37976,1.01911
129.876,22.092,98.94447,0.38041,1.01893
130.376,22.13942,98.94414,0.38061,1.01874
130.876,22.18692,98.94414,0.38162,1.01856
131.376,22.2342,98.9225,0.38192,1.01837
131.876,22.28139,98.9464,0.38281,1.01819
132.376,22.32863,99.05331,0.38352,1.018
132.876,22.37583,98.83983,0.38281,1.01782
133.376,22.42299,98.90311,0.38566,1.01763
133.876,22.47021,98.92765,0.38647,1.01744
134.376,22.5172,98.92435,0.38659,1.01725
134.876,22.56425,98.95915,0.38864,1.01706
135.376,22.61129,99.057,0.39014,1.01687
135.876,22.65804,98.84007,0.38938,1.01667
136.376,22.70496,98.9004,0.39093,1.01648
136.876,22.7516,98.93264,0.39159,1.01629
137.376,22.79842,98.9263,0.39111,1.01609
137.876,22.8451,98.92449,0.39349,1.01589
138.376,22.89164,98.9286,0.39368,1.0157
138.876,22.93804,98.93847,0.39604,1.0155
139.376,22.98453,98.94026,0.39492,1.0153
139.876,23.0309,98.96141,0.39471,1.0151
140.376,23.07759,98.92769,0.39686,1.0149
140.876,23.12405,98.9277,0.39686,1.0147
141.376,23.1703,98.9277,0.39712,1.0145
141.876,23.2164,98.9277,0.39832,1.0143
142.376,23.26236,98.93141,0.39884,1.01409
142.876,23.30836,98.9194,0.39964,1.01389
143.376,23.3544,98.9285,0.40049,1.01368
143.876,23.40073,98.92711,0.39979,1.01348
144.376,23.44708,98.92747,0.40182,1.01327
144.876,23.49338,98.92705,0.40322,1.01306
145.376,23.53983,98.9277,0.40541,1.01285
145.876,23.58625,98.9277,0.40514,1.01264
146.376,23.63265,98.9277,0.40719,1.01243
146.876,23.67895,98.9277,0.40751,1.01222
147.376,23.72489,98.89556,0.4088,1.01201
147.876,23.77078,98.89501,0.41018,1.0118
148.376,23.81651,98.89487,0.41133,1.01158
148.876,23.86202,98.92158,0.41203,1.01137
149.376,23.90769,98.88959,0.41294,1.01115
149.876,23.95334,98.88016,0.41399,1.01094
150.376,23.999,98.8948,0.41358,1.01072
150.876,24.04472,98.8948,0.41384,1.0105
151.376,24.09052,98.92197,0.41484,1.01028
151.876,24.13632,98.92769,0.41531,1.01006
152.376,24.18235,98.92404,0.41579,1.00984
152.876,24.2283,98.895,0.41843,1.00962
153.376,24.27426,98.89502,0.41915,1.0094
153.876,24.32025,98.86098,0.41976,1.00918
154.376,24.36619,98.92712,0.42139,1.00896
154.876,24.41185,98.9827,0.42142,1.00873
155.376,24.4576,98.79896,0.42094,1.00851
155.876,24.50327,98.8689,0.42258,1.00828
156.376,24.54873,98.8946,0.42273,1.00805
156.876,24.59432,98.89477,0.42254,1.00783
157.376,24.63983,98.8948,0.42412,1.0076
157.876,24.6855,98.8948,0.42305,1.00737
158.376,24.7311,98.8948,0.42567,1.00714
158.876,24.77693,98.92576,0.42592,1.00691
159.376,24.82235,98.8976,0.42449,1.00668
159.876,24.86794,98.89849,0.42707,1.00644
160.376,24.91354,98.86475,0.42696,1.00621
160.876,24.95901,98.86484,0.42705,1.00598
161.376,25.0045,98.8736,0.42678,1.00574
161.876,25.05003,98.88029,0.42805,1.00551
162.376,25.09543,98.84823,0.42801,1.00527
162.876,25.14034,98.86449,0.43014,1.00503
163.376,25.18573,98.86476,0.43122,1.00479
163.876,25.23124,98.88091,0.42981,1.00456
164.376,25.27671,98.88341,0.43124,1.00432
164.876,25.32232,98.85634,0.43255,1.00408
165.376,25.36766,98.84291,0.43107,1.00383
165.876,25.41283,98.84289,0.43192,1.00359
166.376,25.45808,98.84289,0.43392,1.00335
166.876,25.50336,98.84289,0.43595,1.00311
167.376,25.54867,98.84289,0.43655,1.00286
167.876,25.59461,98.84285,0.4367,1.00262
168.376,25.64016,98.81631,0.43765,1.00237
168.876,25.6857,98.81,0.43782,1.00213
169.376,25.73123,98.80983,0.43965,1.00188
169.876,25.77654,98.77422,0.43969,1.00163
170.376,25.82173,98.81549,0.43985,1.00138
170.876,25.8669,98.8155,0.44128,1.00113
171.376,25.91215,98.84022,0.44265,1.00088
171.876,25.95724,98.85659,0.44166,1.00063
172.376,26.0025,98.83997,0.44451,1.00038
172.876,26.0477,98.8237,0.44269,1.00013
173.376,26.0929,98.82075,0.44318,0.99987
173.876,26.1382,98.82385,0.44494,0.99962
174.376,26.1833,98.82369,0.44255,0.99937
174.876,26.22852,98.82369,0.44464,0.99911
175.376,26.2738,98.82959,0.44671,0.99885
175.876,26.31904,98.8566,0.44468,0.9986
176.376,26.3642,98.93796,0.44857,0.99834
176.876,26.40935,98.75211,0.44855,0.99808
177.376,26.45444,98.76089,0.44895,0.99782
177.876,26.4995,98.8326,0.45033,0.99756
178.376,26.5446,98.7723,0.45143,0.9973
178.876,26.5896,98.77456,0.45129,0.99704
179.376,26.6345,98.77456,0.45374,0.99678
179.876,26.67935,98.77456,0.45534,0.99651
180.376,26.7244,98.7676,0.45595,0.99625
180.876,26.76945,98.74165,0.45311,0.99599
181.376,26.81451,98.73915,0.45594,0.99572
181.876,26.8593,98.73352,0.4566,0.99546
182.376,26.90405,98.73284,0.45805,0.99519
182.876,26.9488,98.74176,0.45896,0.99492
183.376,26.99362,98.70902,0.45808,0.99465
183.876,27.03871,98.74627,0.45919,0.99438
184.376,27.0836,98.74715,0.4586,0.99412
184.876,27.12868,98.74718,0.46191,0.99385
185.376,27.17335,98.72391,0.46112,0.99357
185.876,27.2178,98.7138,0.46234,0.9933
186.376,27.2623,98.6816,0.46563,0.99303
186.876,27.3065,98.6885,0.46452,0.99276
187.376,27.3511,98.68405,0.46654,0.99248
187.876,27.3957,98.67931,0.4641,0.99221
188.376,27.44047,98.66784,0.46762,0.99193
188.876,27.48531,98.66807,0.4689,0.99166
189.376,27.5302,98.67609,0.46993,0.99138
189.876,27.57491,98.6761,0.47086,0.99111
190.376,27.6197,98.6761,0.47152,0.99083
190.876,27.66436,98.67667,0.47263,0.99055
191.376,27.70898,98.6596,0.47149,0.99027
191.876,27.7537,98.67057,0.4736,0.98999
192.376,27.7988,98.6686,0.47655,0.98971
192.876,27.8438,98.6507,0.4766,0.98943
193.376,27.88883,98.65136,0.47723,0.98915
193.876,27.93392,98.6173,0.47859,0.98886
194.376,27.9786,98.49986,0.47981,0.98858
194.876,28.02307,98.6228,0.48153,0.9883
195.376,28.06757,98.71024,0.47947,0.98801
195.876,28.112,98.60636,0.48186,0.98772
196.376,28.1564,98.58605,0.48349,0.98744
196.876,28.20106,98.58579,0.48473,0.98715
197.376,28.24597,98.58583,0.48501,0.98686
197.876,28.29087,98.5691,0.48653,0.98658
198.376,28.33578,98.5724,0.48886,0.98629
198.876,28.3807,98.43348,0.48752,0.986
199.376,28.4255,98.54081,0.48922,0.98571
199.876,28.47014,98.58915,0.49118,0.98542
200.376,28.51483,98.57326,0.4917,0.98513
200.876,28.55926,98.52295,0.48974,0.98483
201.376,28.60384,98.52235,0.49273,0.98454
201.876,28.6485,98.48916,0.49259,0.98425
202.376,28.6931,98.52246,0.49411,0.98395
202.876,28.7379,98.48998,0.49463,0.98366
203.376,28.78241,98.49003,0.49452,0.98336
203.876,28.8271,98.49002,0.49569,0.98307
204.376,28.87169,98.49002,0.4978,0.98277
204.876,28.9163,98.4899,0.49871,0.98247
205.376,28.961,98.45707,0.49943,0.98217
205.876,29.00562,98.42527,0.50047,0.98188
206.376,29.0502,98.39031,0.49761,0.98158
206.876,29.09477,98.39151,0.49949,0.98128
207.376,29.1394,98.39152,0.50021,0.98098
207.876,29.184,98.3852,0.50252,0.98067
208.376,29.2286,98.35884,0.50335,0.98037
208.876,29.2732,98.3589,0.50438,0.98007
209.376,29.3179,98.36032,0.50569,0.97977
209.876,29.36256,98.2906,0.50427,0.97946
210.376,29.4072,98.2928,0.50685,0.97916
210.876,29.4518,98.27847,0.50688,0.97885
211.376,29.4965,98.27648,0.50732,0.97855
211.876,29.54105,98.31048,0.50929,0.97824
212.376,29.5856,98.30917,0.5106,0.97793
212.876,29.6299,98.27291,0.51066,0.97763
213.376,29.67447,98.21246,0.51125,0.97732
213.876,29.7191,98.24093,0.511,0.97701
214.376,29.7637,98.24203,0.51093,0.9767
214.876,29.8087,98.20826,0.51088,0.97639
215.376,29.8536,98.17,0.51236,0.97608
215.876,29.89837,98.14059,0.51388,0.97577
216.376,29.943,98.13983,0.51289,0.97546
216.876,29.9877,98.1729,0.5153,0.97514
217.376,30.0324,98.09945,0.51503,0.97483
217.876,30.077,98.06867,0.5152,0.97452
218.376,30.12165,98.10291,0.51455,0.9742
218.876,30.1662,98.1019,0.51485,0.97389
219.376,30.211,98.0669,0.51742,0.97357
219.876,30.2555,98.0073,0.51586,0.97326
220.376,30.30022,98.00299,0.51437,0.97294
220.876,30.34498,97.9795,0.51786,0.97262
221.376,30.38965,97.97032,0.51838,0.9723
221.876,30.4342,97.97049,0.51838,0.97198
222.376,30.4789,97.9374,0.51814,0.97167
222.876,30.52362,97.93736,0.51662,0.97135
223.376,30.56825,97.91257,0.52019,0.97103
223.876,30.61288,97.8913,0.51868,0.9707
224.376,30.65735,97.8663,0.51964,0.97038
224.876,30.70219,97.83131,0.51783,0.97006
225.376,30.7468,97.83358,0.51858,0.96974
225.876,30.79161,97.76899,0.51878,0.96942
226.376,30.83656,97.76388,0.51905,0.96909
226.876,30.88157,97.7352,0.51965,0.96877
227.376,30.9261,97.73516,0.51865,0.96844
227.876,30.97069,97.69501,0.51975,0.96812
228.376,31.0153,97.68849,0.52044,0.96779
228.876,31.06,97.6871,0.5191,0.96746
229.376,31.1046,97.66419,0.51804,0.96714
229.876,31.1492,97.61752,0.5213,0.96681
230.376,31.19384,97.55594,0.51963,0.96648
230.876,31.2382,97.51644,0.52056,0.96615
231.376,31.2829,97.51642,0.52285,0.96582
231.876,31.3275,97.49559,0.52149,0.96549
232.376,31.3722,97.48365,0.52137,0.96516
232.876,31.4171,97.45089,0.52066,0.96483
233.376,31.4619,97.4504,0.52244,0.9645
233.876,31.50648,97.40142,0.52114,0.96417
234.376,31.5511,97.37921,0.52228,0.96383
234.876,31.59563,97.31289,0.52221,0.9635
235.376,31.6401,97.28134,0.52273,0.96316
235.876,31.68481,97.268,0.5238,0.96283
236.376,31.7296,97.24534,0.52143,0.9625
236.876,31.7744,97.21225,0.52285,0.96216
237.376,31.8192,97.17706,0.52202,0.96182
237.876,31.86422,97.1704,0.5215,0.96149
238.376,31.9089,97.14449,0.52357,0.96115
238.876,31.95352,97.1126,0.52283,0.96081
239.376,31.99833,97.0723,0.52106,0.96047
239.876,32.04283,96.99844,0.52345,0.96013
240.376,32.08733,96.99651,0.5221,0.9598
240.876,32.13203,96.99632,0.52234,0.95946
241.376,32.1768,96.96117,0.52208,0.95911
241.876,32.22156,96.92094,0.52077,0.95877
242.376,32.26643,96.85551,0.52055,0.95843
242.876,32.31133,96.82565,0.52193,0.95809
243.376,32.3561,96.79824,0.52214,0.95775
243.876,32.40087,96.71234,0.52056,0.9574
244.376,32.44575,96.65268,0.5221,0.95706
244.876,32.49057,96.64945,0.52027,0.95672
245.376,32.5354,96.613,0.51807,0.95637
245.876,32.58024,96.53195,0.51994,0.95603
246.376,32.62494,96.51056,0.51974,0.95568
246.876,32.66985,96.44091,0.51862,0.95534
247.376,32.7146,96.38006,0.51915,0.95499
247.876,32.75933,96.39196,0.51753,0.95464
248.376,32.8042,96.35505,0.51926,0.95429
248.876,32.84915,96.29356,0.51936,0.95395
249.376,32.8941,96.27457,0.51734,0.9536
249.876,32.93906,96.20874,0.51894,0.95325
250.376,32.9841,96.1441,0.51781,0.9529
250.876,33.02906,96.09128,0.51812,0.95255
251.376,33.0739,96.05793,0.51763,0.9522
251.876,33.11861,95.9494,0.51611,0.95185
252.376,33.16344,95.91335,0.51583,0.95149
252.876,33.2083,95.87807,0.51307,0.95114
253.376,33.25305,95.87305,0.51467,0.95079
253.876,33.2979,95.79559,0.51235,0.95044
254.376,33.3429,95.70564,0.51293,0.95008
254.876,33.3876,95.63369,0.51241,0.94973
255.376,33.4324,95.59361,0.51019,0.94937
255.876,33.47718,95.52995,0.51098,0.94902
256.376,33.52189,95.44144,0.51134,0.94866
256.876,33.56657,95.41291,0.51082,0.94831
257.376,33.61144,95.37536,0.50953,0.94795
257.876,33.6563,95.30025,0.50881,0.94759
258.376,33.7012,95.21388,0.50647,0.94724
258.876,33.74615,95.1739,0.50691,0.94688
259.376,33.79101,95.09705,0.5064,0.94652
259.876,33.83603,95.00577,0.50553,0.94616
260.376,33.88106,94.93694,0.50525,0.9458
260.876,33.9261,94.8455,0.50559,0.94544
261.376,33.97122,94.79781,0.50212,0.94508
261.876,34.01627,94.74239,0.50287,0.94472
262.376,34.06115,94.65352,0.50147,0.94436
262.876,34.10607,94.57762,0.49935,0.944
263.376,34.1507,94.49763,0.50171,0.94364
263.876,34.19497,94.42583,0.49707,0.94327
264.376,34.23976,94.3686,0.49679,0.94291
264.876,34.28457,94.29266,0.49599,0.94255
265.376,34.32943,94.19489,0.49308,0.94218
265.876,34.37481,94.08794,0.49041,0.94182
266.376,34.4202,93.98215,0.4891,0.94145
266.876,34.4651,93.86694,0.48996,0.94109
267.376,34.51011,93.78809,0.48799,0.94072
267.876,34.55515,93.72965,0.48813,0.94036
268.376,34.6001,93.6576,0.48489,0.93999
268.876,34.64512,93.5398,0.48383,0.93962
269.376,34.69023,93.42191,0.48156,0.93926
269.876,34.73518,93.36496,0.4815,0.93889
270.376,34.7802,93.24941,0.47808,0.93852
270.876,34.82528,93.15426,0.47871,0.93815
271.376,34.8703,93.00362,0.47688,0.93778
271.876,34.9153,92.91306,0.4746,0.93741
272.376,34.9602,92.8096,0.47457,0.93704
272.876,35.0053,92.6609,0.47086,0.93667
273.376,35.05041,92.58915,0.47113,0.9363
273.876,35.09547,92.4781,0.46729,0.93593
274.376,35.1406,92.35261,0.46569,0.93556
274.876,35.18567,92.21405,0.46444,0.93518
275.376,35.23072,92.0964,0.46225,0.93481
275.876,35.2757,92.00814,0.45927,0.93444
276.376,35.32095,91.88285,0.45448,0.93407
276.876,35.36615,91.7561,0.45197,0.93369
277.376,35.4114,91.64174,0.45198,0.93332
277.876,35.45664,91.47952,0.44856,0.93294
278.376,35.50175,91.37801,0.44371,0.93257
278.876,35.54668,91.19876,0.44229,0.93219
279.376,35.5916,91.12771,0.44208,0.93182
279.876,35.6366,90.96613,0.43839,0.93144
280.376,35.6815,90.86933,0.43744,0.93106
280.876,35.7266,90.69377,0.43483,0.93069
281.376,35.7718,90.59692,0.43227,0.93031
281.876,35.81686,90.46565,0.42973,0.92993
282.376,35.86182,90.28334,0.43089,0.92955
282.876,35.90684,90.14187,0.42673,0.92917
283.376,35.95189,89.9846,0.42451,0.9288
283.876,35.99698,89.86071,0.42187,0.92842
284.376,36.04221,89.73513,0.42036,0.92804
284.876,36.0875,89.5643,0.41715,0.92766
285.376,36.1329,89.40983,0.41654,0.92728
285.876,36.178,89.25595,0.41435,0.92689
286.376,36.22316,89.09448,0.41277,0.92651
286.876,36.2683,88.96483,0.4112,0.92613
287.376,36.31349,88.7978,0.40755,0.92575
287.876,36.35849,88.66354,0.40608,0.92537
288.376,36.4036,88.53415,0.40614,0.92498
288.876,36.4489,88.29926,0.40166,0.9246
289.376,36.49408,88.16847,0.4012,0.92422
289.876,36.53928,88.04085,0.40014,0.92383
290.376,36.58475,87.8413,0.39912,0.92345
290.876,36.63005,87.6966,0.39539,0.92306
291.376,36.67535,87.54778,0.39596,0.92268
291.876,36.72059,87.408,0.3935,0.92229
292.376,36.76577,87.21311,0.39301,0.92191
292.876,36.81078,87.03581,0.39116,0.92152
293.376,36.8559,86.94367,0.38881,0.92114
293.876,36.90119,86.76137,0.38746,0.92075
294.376,36.94652,86.55366,0.38587,0.92036
294.876,36.99184,86.41657,0.38611,0.91997
295.376,37.0374,86.26675,0.38241,0.91959
295.876,37.08279,86.15632,0.38466,0.9192
296.376,37.12822,85.91196,0.38287,0.91881
296.876,37.17351,85.76382,0.38237,0.91842
297.376,37.21862,85.56509,0.38109,0.91803
297.876,37.2639,85.3977,0.3815,0.91764
298.376,37.30934,85.24462,0.38062,0.91725
298.876,37.35468,85.0814,0.38245,0.91686
299.376,37.4001,84.77286,0.38319,0.91647
299.876,37.44582,84.69329,0.37949,0.91608
300.376,37.49112,84.6091,0.37992,0.91569
300.876,37.53654,84.39695,0.38013,0.9153
301.376,37.58198,84.1776,0.38082,0.9149
301.876,37.62729,84.00281,0.38058,0.91451
302.376,37.67263,83.84954,0.38097,0.91412
302.876,37.71812,83.5578,0.38355,0.91373
303.376,37.76341,83.4256,0.3807,0.91333
303.876,37.80871,83.38027,0.38218,0.91294
304.376,37.8541,83.11928,0.38278,0.91254
304.876,37.89947,82.85151,0.38462,0.91215
305.376,37.94492,82.66544,0.38464,0.91176
305.876,37.9905,82.5139,0.38712,0.91136
306.376,38.03601,82.32915,0.38808,0.91097
306.876,38.08157,82.13744,0.38939,0.91057
307.376,38.12702,81.9588,0.3894,0.91017
307.876,38.17248,81.7401,0.39241,0.90978
308.376,38.2181,81.5333,0.39491,0.90938
308.876,38.26363,81.32396,0.39679,0.90898
309.376,38.30901,81.1516,0.39766,0.90859
309.876,38.3546,80.94402,0.39966,0.90819
310.376,38.40012,80.74258,0.40076,0.90779
310.876,38.44554,80.56133,0.40428,0.90739
311.376,38.49115,80.34608,0.40514,0.907
311.876,38.5366,80.13883,0.40798,0.9066
312.376,38.58207,79.9495,0.41097,0.9062
312.876,38.62768,79.73818,0.41134,0.9058
313.376,38.67322,79.51654,0.41395,0.9054
313.876,38.7187,79.31985,0.41853,0.905
314.376,38.76444,79.13062,0.41986,0.9046
314.876,38.81008,78.8822,0.42425,0.9042
315.376,38.8558,78.65188,0.42759,0.9038
315.876,38.9018,78.4344,0.42774,0.9034
316.376,38.94748,78.27655,0.43034,0.903
316.876,38.9932,78.02534,0.43455,0.9026
317.376,39.03889,77.7984,0.4386,0.90219
317.876,39.08449,77.54009,0.43993,0.90179
318.376,39.13003,77.38381,0.44309,0.90139
318.876,39.17573,77.14868,0.44511,0.90099
319.376,39.22148,76.92007,0.44954,0.90058
319.876,39.26717,76.65199,0.45266,0.90018
320.376,39.31299,76.44033,0.45526,0.89978
320.876,39.35876,76.23695,0.4565,0.89937
321.376,39.40449,76.01552,0.4611,0.89897
321.876,39.4502,75.78787,0.46311,0.89857
322.376,39.49595,75.57517,0.46652,0.89816
322.876,39.54163,75.31314,0.46785,0.89776
323.376,39.58745,75.07904,0.47226,0.89735
323.876,39.63328,74.81883,0.47596,0.89695
324.376,39.6791,74.65748,0.47727,0.89654
324.876,39.7249,74.35814,0.48074,0.89613
325.376,39.77081,74.09356,0.4851,0.89573
325.876,39.81671,73.85857,0.48964,0.89532
326.376,39.86248,73.68085,0.49247,0.89492
326.876,39.90847,73.37736,0.49443,0.89451
327.376,39.95433,73.09561,0.49795,0.8941
327.876,40,72.88298,0.50081,0.89369
328.376,40.04591,72.62722,0.50345,0.89329
328.876,40.0917,72.33305,0.50659,0.89288
329.376,40.13738,72.11922,0.51146,0.89247
329.876,40.18329,71.79364,0.51451,0.89206
330.376,40.22905,71.51501,0.51828,0.89165
330.876,40.27479,71.1942,0.52223,0.89125
331.376,40.32054,70.982,0.52281,0.89084
331.876,40.36637,70.6982,0.52872,0.89043
332.376,40.41219,70.422,0.53276,0.89002
332.876,40.45815,70.16829,0.53448,0.88961
333.376,40.50411,69.86798,0.54069,0.8892
333.876,40.5499,69.61485,0.54484,0.88879
334.376,40.59588,69.30903,0.54699,0.88838
334.876,40.6419,69.04127,0.55058,0.88797
335.376,40.68778,68.70863,0.55452,0.88756
335.876,40.73375,68.41382,0.55844,0.88714
336.376,40.77973,68.08601,0.56247,0.88673
336.876,40.82571,67.7846,0.56784,0.88632
337.376,40.87154,67.51555,0.57282,0.88591
337.876,40.91753,67.1983,0.57679,0.8855
338.376,40.96358,66.8867,0.58037,0.88509
338.876,41.0096,66.5272,0.58701,0.88467
339.376,41.05556,66.23089,0.58827,0.88426
339.876,41.10157,65.87513,0.59264,0.88385
340.376,41.14758,65.51086,0.59865,0.88344
340.876,41.19356,65.2305,0.60121,0.88302
341.376,41.23963,64.8843,0.60643,0.88261
341.876,41.28583,64.57544,0.60917,0.8822
342.376,41.33194,64.18896,0.61428,0.88178
342.876,41.37818,63.82979,0.61929,0.88137
343.376,41.42425,63.49481,0.6232,0.88095
343.876,41.4705,63.15133,0.6299,0.88054
344.376,41.5167,62.745,0.63543,0.88012
344.876,41.56278,62.4264,0.63896,0.87971
345.376,41.609,62.03241,0.64285,0.87929
345.876,41.65525,61.612,0.64914,0.87888
346.376,41.70145,61.1845,0.65354,0.87846
346.876,41.74771,60.87251,0.66064,0.87805
347.376,41.79378,60.44686,0.66429,0.87763
347.876,41.8399,60.0637,0.66855,0.87722
348.376,41.8862,59.64617,0.67448,0.8768
348.876,41.9324,59.24475,0.67832,0.87638
349.376,41.97873,58.8378,0.68371,0.87597
349.876,42.02516,58.43255,0.68618,0.87555
350.376,42.07111,57.976,0.69119,0.87513
350.876,42.11727,57.5352,0.69602,0.87472
351.376,42.16361,57.1876,0.70029,0.8743
351.876,42.20978,56.7547,0.70373,0.87388
352.376,42.2563,56.3374,0.7057,0.87346
352.876,42.30274,55.88694,0.71145,0.87305
353.376,42.34905,55.37463,0.71338,0.87263
353.876,42.3954,54.96422,0.71558,0.87221
354.376,42.44186,54.56284,0.71864,0.87179
354.876,42.48823,54.0708,0.72318,0.87137
355.376,42.5347,53.60541,0.72544,0.87096
355.876,42.58125,53.15316,0.72763,0.87054
356.376,42.62771,52.6816,0.7297,0.87012
356.876,42.67414,52.16905,0.73122,0.8697
357.376,42.7205,51.70259,0.73057,0.86928
357.876,42.7671,51.24403,0.73056,0.86886
358.376,42.81355,50.76663,0.73031,0.86844
358.876,42.8601,50.34912,0.73167,0.86802
359.376,42.90681,49.80964,0.73048,0.8676
359.876,42.95325,49.35051,0.72658,0.86718
360.376,42.99974,48.80887,0.7272,0.86676
360.876,43.04609,48.36973,0.72497,0.86634
361.376,43.09251,47.84787,0.72167,0.86592
361.876,43.139,47.42142,0.71799,0.8655
362.376,43.18543,46.89877,0.71277,0.86508
362.876,43.23205,46.43705,0.70877,0.86466
363.376,43.2786,46.00671,0.70043,0.86424
363.876,43.3251,45.48344,0.69353,0.86382
364.376,43.37168,45.0079,0.68464,0.8634
364.876,43.41819,44.54733,0.67636,0.86297
365.376,43.4647,44.04097,0.66929,0.86255
365.876,43.5111,43.64428,0.65555,0.86213
366.376,43.55773,43.1641,0.64638,0.86171
366.876,43.60439,42.82018,0.63473,0.86129
367.376,43.65103,42.35597,0.61907,0.86087
367.876,43.6977,41.95463,0.60462,0.86044
368.376,43.74451,41.57376,0.59114,0.86002
368.876,43.79108,41.10805,0.57295,0.8596
369.376,43.8376,40.76573,0.55628,0.85918
369.876,43.884,40.41762,0.53833,0.85875
370.376,43.93058,40.04013,0.52064,0.85833
370.876,43.97702,39.68338,0.50129,0.85791
371.376,44.0236,39.39778,0.47875,0.85748
371.876,44.07011,39.07564,0.46024,0.85706
372.376,44.1166,38.76417,0.43661,0.85664
372.876,44.16298,38.4606,0.41394,0.85621
373.376,44.2096,38.17331,0.39534,0.85579
373.876,44.25618,37.9189,0.3751,0.85537
374.376,44.3026,37.70158,0.35439,0.85494
374.876,44.34919,37.55255,0.33441,0.85452
375.376,44.39578,37.32521,0.31377,0.8541
375.876,44.44228,37.14983,0.29851,0.85367
376.376,44.48903,37.00094,0.27986,0.85325
376.876,44.53583,36.8194,0.26503,0.85282
377.376,44.58251,36.65676,0.25004,0.8524
377.876,44.62912,36.52727,0.23805,0.85198
378.376,44.67563,36.4358,0.22509,0.85155
378.876,44.72213,36.31463,0.21329,0.85113
379.376,44.7687,36.23799,0.20679,0.8507
379.876,44.81539,36.16077,0.19574,0.85028
380.376,44.86206,36.0937,0.18757,0.84985
380.876,44.90885,35.92613,0.18234,0.84943
381.376,44.9554,35.91571,0.17557,0.849
381.876,45.00176,35.89242,0.17102,0.84858
382.376,45.04851,35.81496,0.16549,0.84815
382.876,45.09518,35.71097,0.15953,0.84773
383.376,45.14184,35.6255,0.15843,0.8473
383.876,45.18871,35.62697,0.15165,0.84688
384.376,45.23558,35.5525,0.15059,0.84645
384.876,45.28222,35.45971,0.14678,0.84602
385.376,45.32904,35.43035,0.14581,0.8456
385.876,45.37578,35.39751,0.14263,0.84517
386.376,45.4225,35.35864,0.13939,0.84475
386.876,45.4694,35.29776,0.13495,0.84432
387.376,45.51621,35.20778,0.13332,0.8439
387.876,45.5629,35.16491,0.13319,0.84347
388.376,45.60972,35.13183,0.12779,0.84304
388.876,45.65647,35.1305,0.12649,0.84262
389.376,45.70313,35.02687,0.12612,0.84219
389.876,45.75006,34.99807,0.12283,0.84176
390.376,45.7969,34.97922,0.11817,0.84134
390.876,45.8438,34.9559,0.11499,0.84091
391.376,45.89027,34.92174,0.11369,0.84048
391.876,45.9369,34.84106,0.11192,0.84006
392.376,45.98352,34.77487,0.11013,0.83963
392.876,46.03015,34.73533,0.10789,0.8392
393.376,46.077,34.66668,0.10634,0.83878
393.876,46.1242,34.62795,0.10662,0.83835
394.376,46.17111,34.5529,0.10388,0.83792
394.876,46.21801,34.55466,0.10373,0.8375
395.376,46.26509,34.48561,0.10296,0.83707
395.876,46.31192,34.45061,0.10191,0.83664
396.376,46.35879,34.38795,0.09848925,0.83622
396.876,46.40582,34.35524,0.09693125,0.83579
397.376,46.4527,34.32096,0.09735915,0.83536
397.876,46.49966,34.2891,0.09611596,0.83494
398.376,46.54672,34.24705,0.09471154,0.83451
398.876,46.5937,34.2149,0.09183188,0.83408
399.376,46.6406,34.14624,0.09369702,0.83365
399.876,46.68764,34.06882,0.0905096,0.83323
400.376,46.73458,34.02668,0.08853942,0.8328
400.876,46.78151,34.0371,0.08837601,0.83237
401.376,46.82844,33.97074,0.08808519,0.83194
401.876,46.87558,33.9442,0.08605168,0.83152
402.376,46.92263,33.89844,0.08775776,0.83109
402.876,46.96945,33.86286,0.084705,0.83066
403.376,47.01664,33.82544,0.08292092,0.83023
403.876,47.06355,33.79117,0.08222591,0.82981
404.376,47.1105,33.7335,0.08309231,0.82938
404.876,47.15749,33.67671,0.08246877,0.82895
405.376,47.20476,33.6409,0.08065442,0.82852
405.876,47.25195,33.60022,0.08203176,0.8281
406.376,47.29909,33.60026,0.08114315,0.82767
406.876,47.34621,33.56386,0.07888676,0.82724
407.376,47.3932,33.52397,0.08008064,0.82681
407.876,47.44019,33.47162,0.08013957,0.82639
408.376,47.48721,33.439,0.07661355,0.82596
408.876,47.5342,33.42758,0.07862677,0.82553
409.376,47.5815,33.365,0.07967869,0.8251
409.876,47.62859,33.32,0.07798174,0.82467
410.376,47.67579,33.24275,0.07771862,0.82425
410.876,47.72309,33.20713,0.07937716,0.82382
411.376,47.77035,33.1765,0.07843717,0.82339
411.876,47.81771,33.17073,0.07928903,0.82296
412.376,47.86493,33.1447,0.07912123,0.82254
412.876,47.91213,33.10714,0.07966864,0.82211
413.376,47.9594,33.07765,0.07732494,0.82168
413.876,48.00657,33.00207,0.07878099,0.82125
414.376,48.05376,32.98106,0.07687565,0.82082
414.876,48.10127,32.92887,0.07873992,0.8204
415.376,48.14867,32.8973,0.07769325,0.81997
415.876,48.1959,32.89835,0.07785243,0.81954
416.376,48.24365,32.8236,0.07804027,0.81911
416.876,48.29095,32.76571,0.07932242,0.81869
417.376,48.3384,32.67535,0.07976649,0.81826
417.876,48.3857,32.70895,0.0768528,0.81783
418.376,48.43309,32.70707,0.07885226,0.8174
418.876,48.48042,32.63752,0.07933224,0.81697
419.376,48.52773,32.57949,0.07859521,0.81655
419.876,48.57515,32.54718,0.07665887,0.81612
420.376,48.6227,32.54714,0.07793531,0.81569
420.876,48.67001,32.51313,0.0763403,0.81526
421.376,48.7172,32.47625,0.07783435,0.81484
421.876,48.7646,32.39375,0.08040017,0.81441
422.376,48.8119,32.3273,0.0785963,0.81398
422.876,48.85915,32.32269,0.08091394,0.81355
423.376,48.9065,32.31472,0.07973498,0.81313
423.876,48.95382,32.2818,0.08064857,0.8127
424.376,49.00124,32.24122,0.08123511,0.81227
424.876,49.04847,32.17289,0.08269106,0.81184
425.376,49.09588,32.1736,0.08403609,0.81142
425.876,49.14334,32.13848,0.08447238,0.81099
426.376,49.1906,32.0764,0.08662381,0.81056
426.876,49.23798,32.06907,0.08879863,0.81013
427.376,49.28533,32.0366,0.08959813,0.80971
427.876,49.3327,31.96967,0.09039218,0.80928
428.376,49.3801,31.9021,0.09269885,0.80885
428.876,49.42751,31.8876,0.09155953,0.80842
429.376,49.475,31.8879,0.09256991,0.808
429.876,49.52243,31.8226,0.09162475,0.80757
430.376,49.56987,31.796,0.09528985,0.80714
430.876,49.6173,31.8094,0.09276442,0.80672
431.376,49.6648,31.782,0.09398641,0.80629
431.876,49.71225,31.71022,0.09558099,0.80586
432.376,49.75976,31.666,0.09635842,0.80543
432.876,49.80746,31.65348,0.09640211,0.80501
433.376,49.85508,31.5964,0.09559417,0.80458
433.876,49.90274,31.56383,0.09703149,0.80415
434.376,49.95029,31.56464,0.09755279,0.80373
434.876,49.99778,31.58138,0.09884029,0.8033
435.376,50.045,31.5486,0.09965626,0.80287
435.876,50.0927,31.4769,0.10167,0.80245
436.376,50.14025,31.4051,0.10593,0.80202
436.876,50.18781,31.37485,0.1052,0.80159
437.376,50.23558,31.33936,0.10442,0.80117
437.876,50.2834,31.3021,0.10532,0.80074
438.376,50.33085,31.30084,0.10726,0.80032
438.876,50.37854,31.26945,0.10703,0.79989
439.376,50.4264,31.2028,0.10918,0.79946
439.876,50.4741,31.15744,0.11352,0.79904
440.376,50.5217,31.1575,0.11299,0.79861
440.876,50.56947,31.1223,0.11465,0.79818
441.376,50.6172,31.15465,0.11481,0.79776
441.876,50.66487,31.1048,0.11755,0.79733
442.376,50.71264,31.052,0.11765,0.79691
442.876,50.76055,31.01513,0.11906,0.79648
443.376,50.8084,30.9592,0.12214,0.79606
443.876,50.85637,30.9198,0.12159,0.79563
444.376,50.90426,30.9539,0.12177,0.7952
444.876,50.95203,30.91665,0.12103,0.79478
445.376,50.99987,30.8842,0.1243,0.79435
445.876,51.04772,30.846,0.12648,0.79393
446.376,51.0955,30.7737,0.1277,0.7935
446.876,51.14313,30.80165,0.1292,0.79308
447.376,51.19082,30.76732,0.12821,0.79265
447.876,51.23838,30.69347,0.12842,0.79223
448.376,51.2859,30.69251,0.13173,0.7918
448.876,51.33377,30.69267,0.12956,0.79138
449.376,51.3816,30.65522,0.13094,0.79095
449.876,51.42948,30.66187,0.13288,0.79053
450.376,51.47742,30.5808,0.13509,0.79011
450.876,51.52531,30.5456,0.13657,0.78968
451.376,51.57306,30.53592,0.13832,0.78926
451.876,51.6207,30.50147,0.13781,0.78883
452.376,51.6685,30.43553,0.14014,0.78841
452.876,51.71602,30.40902,0.13826,0.78798
453.376,51.76385,30.4132,0.14039,0.78756
453.876,51.81172,30.40273,0.14088,0.78714
454.376,51.85962,30.3937,0.14341,0.78671
454.876,51.9076,30.30213,0.14472,0.78629
455.376,51.95537,30.2973,0.14576,0.78587
455.876,52.00311,30.2989,0.14546,0.78544
456.376,52.051,30.26655,0.14583,0.78502
456.876,52.0987,30.2329,0.14693,0.7846
457.376,52.1467,30.20058,0.1456,0.78417
457.876,52.19415,30.1956,0.14909,0.78375
458.376,52.24203,30.1268,0.14837,0.78333
458.876,52.28994,30.12632,0.15038,0.7829
459.376,52.33782,30.1183,0.14911,0.78248
459.876,52.38621,30.08452,0.15069,0.78206
460.376,52.43439,30.03507,0.15327,0.78164
460.876,52.4827,30.01422,0.15225,0.78121
461.376,52.531,30.0106,0.15619,0.78079
461.876,52.57895,29.97577,0.15725,0.78037
462.376,52.62689,29.92884,0.15839,0.77995
462.876,52.6749,29.9075,0.15741,0.77953
463.376,52.7229,29.8664,0.15722,0.7791
463.876,52.77103,29.8691,0.16057,0.77868
464.376,52.81941,29.83642,0.16157,0.77826
464.876,52.8675,29.80514,0.16309,0.77784
465.376,52.91562,29.78803,0.16254,0.77742
465.876,52.96365,29.77992,0.16386,0.777
466.376,53.012,29.77341,0.16396,0.77658
466.876,53.0602,29.73155,0.16374,0.77615
467.376,53.1083,29.6968,0.16609,0.77573
467.876,53.1565,29.6968,0.16638,0.77531
468.376,53.20449,29.6896,0.1657,0.77489
468.876,53.25257,29.6634,0.16694,0.77447
469.376,53.3008,29.632,0.16858,0.77405
469.876,53.34907,29.59825,0.16697,0.77363
470.376,53.3972,29.5404,0.1666,0.77321
470.876,53.44555,29.52577,0.16783,0.77279
471.376,53.49385,29.50025,0.16962,0.77237
471.876,53.542,29.4943,0.17057,0.77195
472.376,53.59016,29.48992,0.1707,0.77153
472.876,53.6384,29.46715,0.17172,0.77111
473.376,53.68665,29.43417,0.17303,0.77069
473.876,53.73491,29.368,0.17363,0.77028
474.376,53.78321,29.3338,0.17599,0.76986
474.876,53.8313,29.33318,0.17411,0.76944
475.376,53.8795,29.3503,0.17218,0.76902
475.876,53.92756,29.2896,0.1742,0.7686
476.376,53.9758,29.28347,0.1735,0.76818
476.876,54.0239,29.2537,0.1746,0.76776
477.376,54.07225,29.25361,0.17419,0.76735
477.876,54.1204,29.2425,0.17468,0.76693
478.376,54.1687,29.22131,0.17401,0.76651
478.876,54.21691,29.1901,0.17415,0.76609
479.376,54.26506,29.17332,0.17671,0.76567
479.876,54.31326,29.1515,0.17803,0.76526
480.376,54.36147,29.1197,0.17644,0.76484
480.876,54.4098,29.11965,0.17721,0.76442
481.376,54.45802,29.10337,0.17644,0.76401
481.876,54.50639,29.13685,0.17697,0.76359
482.376,54.5547,29.07992,0.17738,0.76317
482.876,54.60269,29.006,0.17622,0.76276
483.376,54.65095,29.0075,0.17653,0.76234
483.876,54.6993,28.9748,0.17855,0.76192
484.376,54.7477,28.94152,0.17551,0.76151
484.876,54.79605,28.93887,0.17674,0.76109
485.376,54.8447,28.9016,0.17731,0.76068
485.876,54.8931,28.87697,0.17708,0.76026
486.376,54.94132,28.83584,0.17871,0.75985
486.876,54.98976,28.83516,0.17787,0.75943
487.376,55.03816,28.8351,0.17877,0.75902
487.876,55.08656,28.803,0.17824,0.7586
488.376,55.1349,28.78302,0.17918,0.75819
488.876,55.1834,28.77747,0.17837,0.75777
489.376,55.2318,28.76962,0.18113,0.75736
489.876,55.28035,28.7362,0.17978,0.75694
490.376,55.32889,28.7039,0.18078,0.75653
490.876,55.37724,28.6783,0.18223,0.75612
491.376,55.4256,28.647,0.18373,0.7557
491.876,55.47355,28.63973,0.1824,0.75529
492.376,55.52166,28.63845,0.18239,0.75488
492.876,55.5699,28.60217,0.18305,0.75446
493.376,55.6182,28.5659,0.1832,0.75405
493.876,55.6668,28.5316,0.18385,0.75364
494.376,55.71549,28.53973,0.18266,0.75322
494.876,55.7638,28.53748,0.18144,0.75281
495.376,55.8123,28.5336,0.18316,0.7524
495.876,55.86059,28.4933,0.18334,0.75199
496.376,55.90875,28.4604,0.18535,0.75158
496.876,55.95705,28.45125,0.18444,0.75116
497.376,56.00555,28.42213,0.18518,0.75075
497.876,56.05399,28.45857,0.18646,0.75034
498.376,56.10256,28.40793,0.18608,0.74993
498.876,56.1513,28.36512,0.18989,0.74952
499.376,56.2,28.36433,0.18987,0.74911
499.876,56.2486,28.3567,0.1881,0.7487
500.376,56.29719,28.28315,0.18837,0.74829
500.876,56.34581,28.2848,0.18881,0.74788
501.376,56.3944,28.2554,0.19163,0.74747
501.876,56.44296,28.25638,0.19371,0.74706
502.376,56.4916,28.2523,0.19177,0.74665
502.876,56.5399,28.2203,0.19339,0.74624
503.376,56.58805,28.187,0.1923,0.74583
503.876,56.6363,28.18705,0.19358,0.74542
504.376,56.68464,28.15229,0.1941,0.74501
504.876,56.73324,28.17768,0.19408,0.7446
505.376,56.782,28.1249,0.19325,0.7442
505.876,56.831,28.1214,0.19491,0.74379
506.376,56.8801,28.0861,0.19472,0.74338
506.876,56.92898,28.0531,0.19491,0.74297
507.376,56.97778,28.0531,0.19654,0.74256
507.876,57.02641,28.0539,0.19765,0.74216
508.376,57.07496,28.0036,0.19411,0.74175
508.876,57.12353,28.03635,0.19521,0.74134
509.376,57.17214,28.0052,0.19588,0.74094
509.876,57.22081,27.9706,0.19481,0.74053
510.376,57.2695,27.93817,0.19645,0.74012
510.876,57.31805,27.9572,0.19457,0.73972
511.376,57.3666,27.9381,0.1956,0.73931
511.876,57.41515,27.9383,0.19491,0.73891
512.376,57.4637,27.9025,0.19369,0.7385
512.876,57.5122,27.869,0.19333,0.7381
513.376,57.56063,27.83669,0.1914,0.73769
513.876,57.6091,27.82863,0.19534,0.73729
514.376,57.65764,27.7713,0.19515,0.73688
514.876,57.70618,27.7368,0.19518,0.73648
515.376,57.75475,27.77423,0.19702,0.73607
515.876,57.8034,27.7749,0.19466,0.73567
516.376,57.85213,27.74104,0.19371,0.73526
516.876,57.9007,27.7225,0.19523,0.73486
517.376,57.94945,27.7163,0.19405,0.73446
517.876,57.9982,27.69385,0.19625,0.73405
518.376,58.04696,27.6753,0.19574,0.73365
518.876,58.09556,27.67527,0.196,0.73325
519.376,58.14408,27.64325,0.19485,0.73285
519.876,58.1927,27.64276,0.19707,0.73244
520.376,58.24126,27.6096,0.19557,0.73204
520.876,58.28991,27.61037,0.19526,0.73164
521.376,58.3385,27.6426,0.19806,0.73124
521.876,58.3872,27.5762,0.19867,0.73084
522.376,58.4358,27.54808,0.19756,0.73044
522.876,58.48405,27.54385,0.19768,0.73004
523.376,58.53264,27.5434,0.19698,0.72963
523.876,58.58136,27.5115,0.19818,0.72923
524.376,58.63006,27.5115,0.19811,0.72883
524.876,58.6789,27.5115,0.19929,0.72843
525.376,58.72785,27.4481,0.20032,0.72803
525.876,58.7766,27.42213,0.20012,0.72763
526.376,58.82535,27.39415,0.20143,0.72724
526.876,58.8741,27.39302,0.20149,0.72684
527.376,58.9229,27.42346,0.20099,0.72644
527.876,58.97172,27.4581,0.20379,0.72604
528.376,59.02046,27.40727,0.2044,0.72564
528.876,59.0692,27.3855,0.20384,0.72524
529.376,59.11821,27.38563,0.20569,0.72484
529.876,59.16698,27.3528,0.20669,0.72445
530.376,59.21586,27.3565,0.20338,0.72405
530.876,59.26501,27.34426,0.20503,0.72365
531.376,59.31405,27.3118,0.20561,0.72326
531.876,59.36303,27.31172,0.20782,0.72286
532.376,59.412,27.2965,0.20586,0.72246
532.876,59.4609,27.27777,0.20571,0.72207
533.376,59.5098,27.23531,0.2106,0.72167
533.876,59.5589,27.21896,0.20732,0.72127
534.376,59.6081,27.21852,0.20985,0.72088
534.876,59.65729,27.1859,0.20959,0.72048
535.376,59.70625,27.187,0.21473,0.72009
535.876,59.75516,27.15304,0.21229,0.71969
536.376,59.804,27.1532,0.21404,0.7193
536.876,59.8529,27.1158,0.21424,0.71891
537.376,59.9019,27.1145,0.21244,0.71851
537.876,59.9509,27.1183,0.21479,0.71812
538.376,60,27.08478,0.21525,0.71772
538.876,60.0488,27.0771,0.21639,0.71733
539.376,60.09757,27.0271,0.21774,0.71694
539.876,60.14669,27.06515,0.21761,0.71655
540.376,60.19563,27.0331,0.21911,0.71615
540.876,60.24488,27.03738,0.21878,0.71576
541.376,60.29413,27.02998,0.21955,0.71537
541.876,60.34326,27.0293,0.21981,0.71498
542.376,60.3924,26.96051,0.21982,0.71459
542.876,60.44152,27.01323,0.2192,0.71419
543.376,60.4908,27.0295,0.22036,0.7138
543.876,60.53995,26.96712,0.22251,0.71341
544.376,60.58902,26.9342,0.22198,0.71302
544.876,60.6381,26.93425,0.22218,0.71263
545.376,60.68719,26.90118,0.2227,0.71224
545.876,60.73639,26.90127,0.22243,0.71185
546.376,60.7857,26.9301,0.22322,0.71146
546.876,60.8348,26.9323,0.2238,0.71107
547.376,60.88403,26.89896,0.22576,0.71069
547.876,60.93311,26.86567,0.22658,0.7103
548.376,60.98208,26.83057,0.22617,0.70991
548.876,61.0312,26.80135,0.22594,0.70952
549.376,61.08028,26.7948,0.22236,0.70913
549.876,61.1295,26.79477,0.22314,0.70875
550.376,61.17878,26.75647,0.22294,0.70836
550.876,61.22806,26.72308,0.22357,0.70797
551.376,61.27729,26.7564,0.22178,0.70758
551.876,61.3264,26.7564,0.22486,0.7072
552.376,61.37559,26.7578,0.22386,0.70681
552.876,61.4247,26.6907,0.22334,0.70643
553.376,61.4741,26.65772,0.22279,0.70604
553.876,61.52332,26.6637,0.22715,0.70566
554.376,61.5726,26.65983,0.22818,0.70527
554.876,61.6217,26.64175,0.22397,0.70489
555.376,61.67044,26.64165,0.22701,0.7045
555.876,61.7197,26.64165,0.22641,0.70412
556.376,61.76886,26.64165,0.22791,0.70373
556.876,61.8181,26.6194,0.2268,0.70335
557.376,61.8675,26.5354,0.22798,0.70297
557.876,61.91681,26.53179,0.22666,0.70258
558.376,61.96605,26.51404,0.22595,0.7022
558.876,62.0152,26.53223,0.22424,0.70182
559.376,62.06451,26.5685,0.22656,0.70143
559.876,62.1139,26.5324,0.22614,0.70105
560.376,62.16325,26.5647,0.2228,0.70067
560.876,62.2126,26.5275,0.22628,0.70029
561.376,62.26186,26.5119,0.22505,0.69991
561.876,62.3111,26.4945,0.22705,0.69953
562.376,62.3604,26.4608,0.22525,0.69915
562.876,62.40961,26.4938,0.22253,0.69877
563.376,62.459,26.4554,0.22503,0.69839
563.876,62.5083,26.4241,0.22561,0.69801
564.376,62.5577,26.45751,0.22484,0.69763
564.876,62.60719,26.4283,0.22431,0.69725
565.376,62.65651,26.4243,0.2245,0.69687
565.876,62.7059,26.39682,0.22331,0.69649
566.376,62.75518,26.36498,0.22391,0.69611
566.876,62.80461,26.3945,0.22238,0.69573
567.376,62.854,26.3306,0.22517,0.69536
567.876,62.90331,26.33018,0.22399,0.69498
568.376,62.95273,26.33855,0.22669,0.6946
568.876,63.0019,26.32967,0.2261,0.69422
569.376,63.0512,26.32981,0.22601,0.69385
569.876,63.1004,26.36239,0.22526,0.69347
570.376,63.1496,26.36257,0.22923,0.69309
570.876,63.1988,26.32455,0.22905,0.69272
571.376,63.2481,26.2534,0.22555,0.69234
571.876,63.29756,26.28687,0.22892,0.69197
572.376,63.34689,26.25047,0.22941,0.69159
572.876,63.3963,26.21824,0.22918,0.69122
573.376,63.4455,26.22301,0.23154,0.69084
573.876,63.49459,26.20196,0.22782,0.69047
574.376,63.5439,26.2177,0.22927,0.6901
574.876,63.5932,26.1991,0.23111,0.68972
575.376,63.64249,26.18127,0.2307,0.68935
575.876,63.69206,26.19024,0.23021,0.68898
576.376,63.7413,26.1904,0.23165,0.6886
576.876,63.7907,26.14578,0.23212,0.68823
577.376,63.84007,26.11371,0.23259,0.68786
577.876,63.8895,26.1464,0.2308,0.68749
578.376,63.93891,26.13867,0.2309,0.68712
578.876,63.98835,26.11372,0.23057,0.68675
579.376,64.0377,26.11352,0.2341,0.68638
579.876,64.08713,26.1133,0.23358,0.68601
580.376,64.1366,26.0836,0.23417,0.68563
580.876,64.1858,26.08079,0.23518,0.68527
581.376,64.23516,26.08204,0.23462,0.6849
581.876,64.28454,26.04533,0.23627,0.68453
582.376,64.33381,26.05559,0.23199,0.68416
582.876,64.3832,26.0782,0.23368,0.68379
583.376,64.43267,26.07805,0.23286,0.68342
583.876,64.48212,26.06246,0.23592,0.68305
584.376,64.53156,26.04275,0.23612,0.68268
584.876,64.58099,26.0095,0.23653,0.68232
585.376,64.63056,26.00947,0.2369,0.68195
585.876,64.67994,26.0098,0.23662,0.68158
586.376,64.72941,25.9767,0.2346,0.68122
586.876,64.77894,26.0015,0.2367,0.68085
587.376,64.8284,25.9766,0.23705,0.68048
587.876,64.87801,26.0012,0.23613,0.68012
588.376,64.92742,25.96586,0.23645,0.67975
588.876,64.9769,25.93533,0.2384,0.67939
589.376,65.02622,25.9158,0.23913,0.67902
589.876,65.07554,25.90024,0.24171,0.67866
590.376,65.12496,25.9083,0.24167,0.6783
590.876,65.17437,25.89474,0.24361,0.67793
591.376,65.2239,25.89476,0.24401,0.67757
591.876,65.27354,25.89476,0.24477,0.67721
592.376,65.32311,25.89476,0.25028,0.67684
592.876,65.3729,25.89475,0.24588,0.67648
593.376,65.4227,25.88734,0.24646,0.67612
593.876,65.47243,25.85386,0.24763,0.67576
594.376,65.52221,25.85387,0.24786,0.67539
594.876,65.57205,25.85124,0.24942,0.67503
595.376,65.62164,25.8538,0.25371,0.67467
595.876,65.67138,25.79484,0.25741,0.67431
596.376,65.72123,25.75315,0.25727,0.67395
596.876,65.77091,25.7526,0.25675,0.67359
597.376,65.82091,25.7892,0.25731,0.67323
597.876,65.8706,25.78806,0.26126,0.67287
598.376,65.92035,25.75455,0.26123,0.67251
598.876,65.97009,25.72261,0.25958,0.67215
599.376,66.01988,25.73099,0.26371,0.6718
599.876,66.0697,25.72202,0.26324,0.67144
600.376,66.11952,25.72247,0.26286,0.67108
600.876,66.16931,25.72245,0.26211,0.67072
601.376,66.21893,25.75558,0.26281,0.67037
601.876,66.26861,25.72206,0.26495,0.67001
602.376,66.31811,25.75542,0.26854,0.66965
602.876,66.3677,25.71932,0.26768,0.6693
603.376,66.41735,25.68894,0.27109,0.66894
603.876,66.46683,25.68469,0.27361,0.66858
604.376,66.51644,25.68552,0.27684,0.66823
604.876,66.56621,25.66007,0.27527,0.66787
605.376,66.61575,25.6596,0.27591,0.66752
605.876,66.66542,25.6593,0.27802,0.66717
606.376,66.71514,25.62161,0.2787,0.66681
606.876,66.76477,25.62122,0.28341,0.66646
607.376,66.8143,25.6478,0.2834,0.6661
607.876,66.86406,25.63326,0.28516,0.66575
608.376,66.91367,25.57544,0.28576,0.6654
608.876,66.96327,25.5619,0.28556,0.66505
609.376,67.01285,25.58578,0.28881,0.6647
609.876,67.06251,25.58579,0.2872,0.66434
610.376,67.11216,25.58589,0.28868,0.66399
610.876,67.16167,25.55271,0.29056,0.66364
611.376,67.21131,25.55294,0.28893,0.66329
611.876,67.26093,25.52,0.29305,0.66294
612.376,67.31063,25.55435,0.29118,0.66259
612.876,67.36033,25.55559,0.29305,0.66224
613.376,67.41005,25.50756,0.29806,0.66189
613.876,67.4597,25.51763,0.29741,0.66154
614.376,67.50955,25.57929,0.29686,0.66119
614.876,67.55938,25.55545,0.2977,0.66084
615.376,67.6092,25.5227,0.29929,0.6605
615.876,67.65904,25.45712,0.29973,0.66015
616.376,67.70864,25.48109,0.29928,0.6598
616.876,67.75833,25.4571,0.29915,0.65945
617.376,67.8081,25.45711,0.30238,0.65911
617.876,67.85774,25.457,0.30259,0.65876
618.376,67.90764,25.45737,0.30581,0.65842
618.876,67.9575,25.45711,0.30617,0.65807
619.376,68.00741,25.45707,0.30767,0.65772
619.876,68.05721,25.42471,0.31115,0.65738
620.376,68.107,25.42444,0.3132,0.65703
620.876,68.15696,25.42444,0.31753,0.65669
621.376,68.20685,25.42425,0.31896,0.65635
621.876,68.25675,25.41347,0.31981,0.656
622.376,68.3066,25.4136,0.32495,0.65566
622.876,68.35647,25.37985,0.32524,0.65532
623.376,68.40629,25.3464,0.32935,0.65497
623.876,68.45607,25.3808,0.33005,0.65463
624.376,68.5061,25.35014,0.33262,0.65429
624.876,68.55609,25.34919,0.33422,0.65395
625.376,68.60597,25.3112,0.33524,0.6536
625.876,68.6558,25.34678,0.34047,0.65326
626.376,68.70544,25.30583,0.34177,0.65292
626.876,68.7552,25.27434,0.34416,0.65258
627.376,68.8052,25.30646,0.34402,0.65224
627.876,68.85513,25.3067,0.34669,0.6519
628.376,68.90528,25.28239,0.34721,0.65156
628.876,68.95524,25.27405,0.35032,0.65122
629.376,69.00511,25.2741,0.34943,0.65089
629.876,69.05498,25.27409,0.34913,0.65055
630.376,69.105,25.3018,0.35306,0.65021
630.876,69.15491,25.3013,0.35227,0.64987
631.376,69.20496,25.3046,0.35549,0.64953
631.876,69.25497,25.23986,0.35467,0.6492
632.376,69.3049,25.24083,0.35308,0.64886
632.876,69.3548,25.1815,0.35056,0.64852
633.376,69.40423,25.17589,0.34752,0.64819
633.876,69.45414,25.20139,0.34803,0.64785
634.376,69.50413,25.1966,0.34842,0.64752
634.876,69.55419,25.2094,0.34856,0.64718
635.376,69.60457,25.19226,0.35039,0.64685
635.876,69.65456,25.1919,0.35477,0.64651
636.376,69.7046,25.15594,0.35756,0.64618
636.876,69.7547,25.15611,0.35819,0.64584
637.376,69.80471,25.1583,0.36058,0.64551
637.876,69.85472,25.15987,0.36069,0.64518
638.376,69.90479,25.18337,0.36051,0.64485
638.876,69.95464,25.17375,0.36537,0.64451
639.276,69.99508,25.17009,0.36454,0.64425