File: 01_Data/MDF/STA/N2/10K_min/MDF_STA_N2_10KData_211008_R1.csv
##Temp./Â°C,Time/min,Mass(subtr.2)/%,DSC(subtr.2)/(mW/mg),Sensit./(uV/mW)
49.951,10.01,100.074,0.0174493,1.03584
50.451,11.38376,100.05,0.03496409,1.03581
50.951,11.72621,100.087,0.04817762,1.03579
51.451,11.9712,100.095,0.05922126,1.03576
51.951,12.17065,100.102,0.06961038,1.03573
52.451,12.34702,100.113,0.07529577,1.0357
52.951,12.5054,100.138,0.08245802,1.03568
53.451,12.64911,100.107,0.0883191,1.03564
53.951,12.7833,100.1309,0.0972005,1.03561
54.451,12.9107,100.112,0.1023,1.03558
54.951,13.03262,100.11,0.10726,1.03555
55.451,13.149,100.137,0.11071,1.03551
55.951,13.2607,100.075,0.11596,1.03547
56.451,13.3685,100.061,0.11842,1.03544
56.951,13.4737,100.074,0.12361,1.0354
57.451,13.5763,100.08,0.12593,1.03536
57.951,13.6754,100.104,0.13112,1.03532
58.451,13.77224,100.109,0.1351,1.03528
58.951,13.86771,100.109,0.13674,1.03524
59.451,13.9604,100.11,0.14167,1.03519
59.951,14.0512,100.107,0.14594,1.03515
60.451,14.14056,100.07,0.14798,1.0351
60.951,14.2282,100.071,0.15108,1.03505
61.451,14.3148,100.041,0.15465,1.03501
61.951,14.39995,100.1012,0.15736,1.03496
62.451,14.48313,100.066,0.16083,1.03491
62.951,14.56565,100.1,0.16486,1.03486
63.451,14.6475,100.082,0.16643,1.0348
63.951,14.7278,100.049,0.16991,1.03475
64.451,14.80609,100.026,0.17155,1.0347
64.951,14.8833,100.081,0.17476,1.03464
65.451,14.9602,100.096,0.17859,1.03458
65.951,15.03709,100.06,0.18101,1.03453
66.451,15.1124,100.0326,0.18524,1.03447
66.951,15.1865,100.061,0.18735,1.03441
67.451,15.25939,100.055,0.18872,1.03435
67.951,15.33196,100.0551,0.19027,1.03429
68.451,15.40375,100.051,0.19343,1.03422
68.951,15.475,100.021,0.19636,1.03416
69.451,15.54582,100.018,0.20035,1.0341
69.951,15.6159,100.011,0.20226,1.03403
70.451,15.6852,99.9871,0.20422,1.03396
70.951,15.7537,100.021,0.20675,1.03389
71.451,15.8217,99.98784,0.20843,1.03383
71.951,15.8888,100.019,0.21127,1.03376
72.451,15.9559,99.98444,0.21294,1.03368
72.951,16.02263,99.98654,0.21672,1.03361
73.451,16.08916,99.95371,0.21733,1.03354
73.951,16.15478,99.94723,0.21939,1.03346
74.451,16.21963,99.9534,0.22219,1.03339
74.951,16.2839,99.95347,0.22469,1.03331
75.451,16.3478,99.9532,0.22555,1.03324
75.951,16.4116,99.9884,0.22908,1.03316
76.451,16.47532,99.95321,0.22982,1.03308
76.951,16.53815,99.95328,0.23252,1.033
77.451,16.60047,99.9538,0.23467,1.03292
77.951,16.66248,99.92562,0.23668,1.03283
78.451,16.7242,99.92336,0.23589,1.03275
78.951,16.7858,99.9528,0.23857,1.03267
79.451,16.8471,99.94034,0.23887,1.03258
79.951,16.90794,99.95062,0.24099,1.03249
80.451,16.96854,99.9183,0.24171,1.03241
80.951,17.02851,99.91939,0.24464,1.03232
81.451,17.0886,99.9516,0.24605,1.03223
81.951,17.1484,99.91802,0.24649,1.03214
82.451,17.20789,99.91575,0.24698,1.03205
82.951,17.26653,99.9118,0.24969,1.03195
83.451,17.3249,99.91465,0.25173,1.03186
83.951,17.3832,99.9153,0.25278,1.03176
84.451,17.44121,99.90142,0.25374,1.03167
84.951,17.49909,99.91334,0.25362,1.03157
85.451,17.55661,99.91518,0.25447,1.03147
85.951,17.61342,99.88131,0.25527,1.03138
86.451,17.6704,99.88271,0.25483,1.03128
86.951,17.72675,99.8596,0.25675,1.03118
87.451,17.78271,99.85516,0.25569,1.03107
87.951,17.83877,99.84959,0.25867,1.03097
88.451,17.8946,99.84965,0.25701,1.03087
88.951,17.9502,99.8495,0.25822,1.03076
89.451,18.00625,99.84057,0.2575,1.03066
89.951,18.06158,99.84935,0.25786,1.03055
90.451,18.1169,99.87891,0.25898,1.03044
90.951,18.17176,99.84647,0.25817,1.03033
91.451,18.22609,99.81654,0.25896,1.03022
91.951,18.28043,99.84957,0.2582,1.03011
92.451,18.33462,99.8313,0.25885,1.03
92.951,18.38879,99.8167,0.26028,1.02989
93.451,18.4426,99.82151,0.2599,1.02977
93.951,18.49641,99.81676,0.25871,1.02966
94.451,18.55002,99.81694,0.25927,1.02954
94.951,18.60342,99.81696,0.26014,1.02943
95.451,18.6568,99.81696,0.26032,1.02931
95.951,18.70988,99.81671,0.26232,1.02919
96.451,18.76304,99.78143,0.26005,1.02907
96.951,18.81615,99.7837,0.2622,1.02895
97.451,18.86921,99.8174,0.26147,1.02883
97.951,18.92192,99.78214,0.26269,1.02871
98.451,18.97419,99.78318,0.26233,1.02858
98.951,19.0262,99.7838,0.26159,1.02846
99.451,19.0783,99.8123,0.26025,1.02833
99.951,19.13035,99.78453,0.26383,1.02821
100.451,19.18232,99.78407,0.26206,1.02808
100.951,19.23402,99.75949,0.26299,1.02795
101.451,19.28548,99.75113,0.26558,1.02782
101.951,19.3372,99.73343,0.2657,1.02769
102.451,19.38879,99.75394,0.26537,1.02756
102.951,19.4404,99.7868,0.26965,1.02743
103.451,19.49181,99.75203,0.26883,1.0273
103.951,19.5428,99.7538,0.26998,1.02716
104.451,19.5938,99.78882,0.27149,1.02703
104.951,19.64462,99.7787,0.27096,1.02689
105.451,19.69566,99.75391,0.27084,1.02675
105.951,19.74662,99.7539,0.27249,1.02661
106.451,19.79735,99.73571,0.27386,1.02648
106.951,19.8481,99.75775,0.27348,1.02634
107.451,19.89856,99.7239,0.27269,1.0262
107.951,19.949,99.72389,0.27315,1.02605
108.451,19.99969,99.75667,0.27447,1.02591
108.951,20.0502,99.75659,0.2749,1.02577
109.451,20.1005,99.72371,0.2747,1.02562
109.951,20.15072,99.74978,0.27363,1.02548
110.451,20.2009,99.75562,0.27338,1.02533
110.951,20.25102,99.75667,0.27391,1.02518
111.451,20.30119,99.75645,0.27465,1.02503
111.951,20.35117,99.72397,0.27362,1.02489
112.451,20.40101,99.72395,0.27464,1.02474
112.951,20.451,99.7398,0.27625,1.02458
113.451,20.50054,99.72369,0.27359,1.02443
113.951,20.55025,99.72366,0.27566,1.02428
114.451,20.5999,99.70696,0.27532,1.02412
114.951,20.64948,99.70855,0.27632,1.02397
115.451,20.69906,99.69103,0.27475,1.02381
115.951,20.7484,99.69103,0.27571,1.02366
116.451,20.79777,99.67177,0.27677,1.0235
116.951,20.84701,99.6923,0.27674,1.02334
117.451,20.89629,99.72553,0.27633,1.02318
117.951,20.94549,99.72579,0.27612,1.02302
118.451,20.99449,99.69365,0.27653,1.02286
118.951,21.04341,99.72661,0.27596,1.0227
119.451,21.09219,99.69406,0.2767,1.02253
119.951,21.14105,99.69374,0.27678,1.02237
120.451,21.1897,99.7103,0.2751,1.02221
120.951,21.23849,99.67749,0.27568,1.02204
121.451,21.28735,99.67774,0.27624,1.02187
121.951,21.336,99.69233,0.27872,1.0217
122.451,21.38447,99.72765,0.27793,1.02154
122.951,21.43298,99.72893,0.27837,1.02137
123.451,21.48114,99.72668,0.27815,1.0212
123.951,21.5294,99.72702,0.27932,1.02102
124.451,21.5777,99.7264,0.28004,1.02085
124.951,21.626,99.69403,0.28109,1.02068
125.451,21.67437,99.6935,0.27933,1.02051
125.951,21.72259,99.69351,0.27968,1.02033
126.451,21.7707,99.7273,0.28199,1.02015
126.951,21.81868,99.7272,0.28176,1.01998
127.451,21.86647,99.6935,0.28317,1.0198
127.951,21.91429,99.72123,0.28314,1.01962
128.451,21.9617,99.6935,0.28377,1.01944
128.951,22.0093,99.6935,0.28349,1.01926
129.451,22.05687,99.69351,0.28505,1.01908
129.951,22.10437,99.699,0.28643,1.0189
130.451,22.152,99.72641,0.28626,1.01872
130.951,22.19967,99.72668,0.28765,1.01853
131.451,22.24719,99.72668,0.28823,1.01835
131.951,22.29458,99.72784,0.28707,1.01816
132.451,22.342,99.69369,0.28974,1.01797
132.951,22.38919,99.69377,0.28738,1.01779
133.451,22.4363,99.69375,0.28886,1.0176
133.951,22.48337,99.7,0.28897,1.01741
134.451,22.53044,99.6935,0.28838,1.01722
134.951,22.57745,99.69331,0.28993,1.01703
135.451,22.62451,99.69456,0.29293,1.01684
135.951,22.67154,99.69377,0.29144,1.01664
136.451,22.7185,99.7071,0.29157,1.01645
136.951,22.76539,99.7042,0.29201,1.01626
137.451,22.81232,99.69377,0.29408,1.01606
137.951,22.85906,99.7268,0.2925,1.01587
138.451,22.90581,99.693,0.29388,1.01567
138.951,22.95266,99.69077,0.29608,1.01547
139.451,22.99939,99.69077,0.29592,1.01527
139.951,23.046,99.69207,0.29507,1.01507
140.451,23.0926,99.6798,0.29671,1.01487
140.951,23.13907,99.69102,0.29738,1.01467
141.451,23.18536,99.69102,0.29808,1.01447
141.951,23.23133,99.69162,0.29814,1.01427
142.451,23.27736,99.65813,0.30005,1.01406
142.951,23.32351,99.65811,0.29912,1.01386
143.451,23.36983,99.65812,0.30201,1.01365
143.951,23.41606,99.6399,0.30252,1.01345
144.451,23.46291,99.6581,0.30094,1.01324
144.951,23.50892,99.65809,0.30203,1.01303
145.451,23.5553,99.6314,0.30377,1.01282
145.951,23.6012,99.64152,0.30328,1.01261
146.451,23.64726,99.65908,0.30485,1.0124
146.951,23.69333,99.6581,0.30406,1.01219
147.451,23.73977,99.65808,0.30436,1.01198
147.951,23.78564,99.69115,0.30729,1.01177
148.451,23.83147,99.67246,0.30645,1.01155
148.951,23.87753,99.66619,0.30735,1.01134
149.451,23.9234,99.69922,0.30658,1.01112
149.951,23.96931,99.69066,0.30753,1.01091
150.451,24.01553,99.66381,0.309,1.01069
150.951,24.06147,99.6581,0.3109,1.01047
151.451,24.10718,99.65445,0.31141,1.01025
151.951,24.1529,99.62544,0.31193,1.01003
152.451,24.19865,99.6584,0.30998,1.00981
152.951,24.24448,99.6581,0.31094,1.00959
153.451,24.29017,99.6581,0.31232,1.00937
153.951,24.3358,99.658,0.31043,1.00915
154.451,24.3814,99.6337,0.31347,1.00892
154.951,24.42708,99.66309,0.31221,1.0087
155.451,24.47276,99.6662,0.31233,1.00847
155.951,24.51858,99.65817,0.31384,1.00825
156.451,24.56431,99.65811,0.31365,1.00802
156.951,24.6101,99.658,0.31508,1.00779
157.451,24.65579,99.62521,0.31351,1.00756
157.951,24.70141,99.65822,0.31524,1.00733
158.451,24.747,99.65812,0.31506,1.0071
158.951,24.79276,99.6526,0.31709,1.00687
159.451,24.83854,99.62518,0.31609,1.00664
159.951,24.8841,99.62505,0.31708,1.00641
160.451,24.92977,99.65808,0.31652,1.00617
160.951,24.9754,99.68034,0.31922,1.00594
161.451,25.02084,99.6647,0.31844,1.00571
161.951,25.06631,99.66049,0.31872,1.00547
162.451,25.11158,99.6254,0.31988,1.00523
162.951,25.15694,99.62545,0.31965,1.005
163.451,25.2024,99.6204,0.32006,1.00476
163.951,25.2479,99.61358,0.32096,1.00452
164.451,25.2935,99.62515,0.32079,1.00428
164.951,25.3391,99.60245,0.32525,1.00404
165.451,25.38464,99.59227,0.32176,1.0038
165.951,25.4301,99.59228,0.3242,1.00356
166.451,25.4755,99.6253,0.32411,1.00331
166.951,25.52095,99.62435,0.32453,1.00307
167.451,25.56648,99.5922,0.32646,1.00283
167.951,25.61204,99.59231,0.32445,1.00258
168.451,25.6576,99.56198,0.32671,1.00234
168.951,25.70317,99.59268,0.32533,1.00209
169.451,25.74865,99.59252,0.32625,1.00184
169.951,25.794,99.59252,0.32701,1.00159
170.451,25.83941,99.59252,0.32805,1.00134
170.951,25.88477,99.5573,0.32902,1.0011
171.451,25.92995,99.5596,0.3302,1.00084
171.951,25.97523,99.5596,0.32896,1.00059
172.451,26.02064,99.55967,0.33135,1.00034
172.951,26.0659,99.59266,0.33163,1.00009
173.451,26.11119,99.59252,0.33303,0.99984
173.951,26.15665,99.5938,0.33266,0.99958
174.451,26.20203,99.55978,0.33364,0.99933
174.951,26.2473,99.55985,0.33312,0.99907
175.451,26.29273,99.5612,0.33387,0.99882
175.951,26.3379,99.56061,0.33657,0.99856
176.451,26.38312,99.5596,0.33448,0.9983
176.951,26.4283,99.5596,0.33677,0.99804
177.451,26.4735,99.5596,0.33713,0.99778
177.951,26.51864,99.56012,0.33842,0.99752
178.451,26.56372,99.52404,0.3382,0.99726
178.951,26.60878,99.52592,0.33718,0.997
179.451,26.6539,99.55969,0.33847,0.99674
179.951,26.699,99.5596,0.33961,0.99647
180.451,26.7441,99.5591,0.34147,0.99621
180.951,26.78935,99.52691,0.34315,0.99595
181.451,26.83445,99.5269,0.34256,0.99568
181.951,26.8795,99.527,0.34135,0.99542
182.451,26.9246,99.49388,0.34213,0.99515
182.951,26.9694,99.51734,0.34247,0.99488
183.451,27.01432,99.5269,0.34486,0.99461
183.951,27.0591,99.527,0.34579,0.99434
184.451,27.10397,99.4927,0.34607,0.99407
184.951,27.14888,99.494,0.34576,0.9938
185.451,27.1937,99.46778,0.34807,0.99353
185.951,27.23844,99.46932,0.34757,0.99326
186.451,27.2832,99.46932,0.34985,0.99299
186.951,27.32815,99.468,0.34982,0.99272
187.451,27.373,99.48589,0.35088,0.99244
187.951,27.4178,99.49391,0.35207,0.99217
188.451,27.46272,99.49405,0.35293,0.99189
188.951,27.50763,99.48536,0.35403,0.99162
189.451,27.55241,99.4858,0.3527,0.99134
189.951,27.5973,99.48697,0.35479,0.99106
190.451,27.6421,99.45304,0.35682,0.99079
190.951,27.6868,99.45312,0.35635,0.99051
191.451,27.7315,99.45312,0.35587,0.99023
191.951,27.776,99.45313,0.35827,0.98995
192.451,27.8206,99.4521,0.35872,0.98967
192.951,27.8653,99.4285,0.36088,0.98939
193.451,27.9101,99.42838,0.36085,0.9891
193.951,27.9549,99.41978,0.36132,0.98882
194.451,27.9997,99.40377,0.36261,0.98854
194.951,28.0445,99.40374,0.36126,0.98825
195.451,28.0893,99.40377,0.36552,0.98797
195.951,28.1339,99.3698,0.36697,0.98768
196.451,28.17853,99.3711,0.36808,0.9874
196.951,28.2232,99.3712,0.36781,0.98711
197.451,28.2679,99.3385,0.3693,0.98682
197.951,28.3125,99.33815,0.36973,0.98653
198.451,28.3572,99.33815,0.37106,0.98624
198.951,28.40193,99.33815,0.36888,0.98595
199.451,28.4467,99.3382,0.37183,0.98566
199.951,28.4915,99.32132,0.37187,0.98537
200.451,28.5363,99.28968,0.37377,0.98508
200.951,28.5808,99.28878,0.37382,0.98479
201.451,28.62562,99.28896,0.37396,0.9845
201.951,28.67018,99.272,0.37525,0.9842
202.451,28.7149,99.26409,0.37783,0.98391
202.951,28.7595,99.2641,0.37877,0.98361
203.451,28.8042,99.23815,0.378,0.98332
203.951,28.8488,99.23963,0.37871,0.98302
204.451,28.8934,99.21637,0.37954,0.98273
204.951,28.93788,99.20699,0.37978,0.98243
205.451,28.9826,99.20698,0.38232,0.98213
205.951,29.0273,99.20698,0.38307,0.98183
206.451,29.072,99.20698,0.38327,0.98153
206.951,29.11675,99.20698,0.38342,0.98123
207.451,29.1615,99.20698,0.38623,0.98093
207.951,29.20604,99.20716,0.38469,0.98063
208.451,29.25067,99.174,0.387,0.98033
208.951,29.29533,99.1738,0.38819,0.98002
209.451,29.3401,99.16583,0.38841,0.97972
209.951,29.38472,99.1306,0.38931,0.97942
210.451,29.42945,99.1327,0.38926,0.97911
210.951,29.4741,99.10005,0.3898,0.97881
211.451,29.5187,99.1,0.38968,0.9785
211.951,29.5633,99.1,0.38769,0.97819
212.451,29.60809,99.101,0.39227,0.97789
212.951,29.6528,99.0673,0.39235,0.97758
213.451,29.6976,99.03709,0.39266,0.97727
213.951,29.7424,99.00158,0.39223,0.97696
214.451,29.78725,99.00175,0.39236,0.97665
214.951,29.83199,98.99974,0.39376,0.97634
215.451,29.87657,98.96876,0.39403,0.97603
215.951,29.92127,98.96882,0.39443,0.97572
216.451,29.96596,98.95474,0.39573,0.97541
216.951,30.0106,98.9361,0.39561,0.9751
217.451,30.0552,98.90205,0.39516,0.97478
217.951,30.10002,98.90324,0.39459,0.97447
218.451,30.14472,98.86802,0.39425,0.97415
218.951,30.1894,98.87021,0.39525,0.97384
219.451,30.234,98.83775,0.39595,0.97352
219.951,30.2789,98.83739,0.39667,0.97321
220.451,30.3235,98.81407,0.39806,0.97289
220.951,30.3683,98.80428,0.39832,0.97257
221.451,30.4131,98.76488,0.39795,0.97226
221.951,30.45792,98.7471,0.39862,0.97194
222.451,30.50262,98.70604,0.39958,0.97162
222.951,30.5473,98.70623,0.39826,0.9713
223.451,30.59197,98.7063,0.40224,0.97098
223.951,30.63682,98.6737,0.39965,0.97066
224.451,30.6814,98.63887,0.40018,0.97033
224.951,30.72617,98.64039,0.40117,0.97001
225.451,30.7709,98.6404,0.40125,0.96969
225.951,30.8156,98.6084,0.40286,0.96937
226.451,30.86,98.57481,0.4019,0.96904
226.951,30.90451,98.57689,0.40158,0.96872
227.451,30.9488,98.54213,0.40157,0.96839
227.951,30.99338,98.51142,0.40275,0.96807
228.451,31.03773,98.50645,0.40278,0.96774
228.951,31.08253,98.4744,0.40471,0.96741
229.451,31.12735,98.47321,0.40485,0.96709
229.951,31.1723,98.44204,0.40308,0.96676
230.451,31.21749,98.3969,0.40531,0.96643
230.951,31.2626,98.34306,0.40362,0.9661
231.451,31.30759,98.33805,0.40655,0.96577
231.951,31.35255,98.30391,0.40502,0.96544
232.451,31.39733,98.30526,0.40604,0.96511
232.951,31.4421,98.24719,0.40577,0.96478
233.451,31.48684,98.21391,0.40616,0.96445
233.951,31.53159,98.18121,0.40476,0.96412
234.451,31.57637,98.17545,0.40579,0.96378
234.951,31.6211,98.14001,0.40637,0.96345
235.451,31.6657,98.0936,0.40792,0.96311
235.951,31.7104,98.0386,0.40665,0.96278
236.451,31.75495,98.0112,0.40707,0.96244
236.951,31.79963,98.01224,0.40641,0.96211
237.451,31.84443,97.96136,0.40665,0.96177
237.951,31.8892,97.92474,0.40445,0.96144
238.451,31.93429,97.90755,0.40626,0.9611
238.951,31.979,97.89154,0.40633,0.96076
239.451,32.0239,97.85818,0.40509,0.96042
239.951,32.06879,97.8273,0.40749,0.96008
240.451,32.11374,97.7886,0.40508,0.95974
240.951,32.15862,97.73554,0.40762,0.9594
241.451,32.20365,97.72596,0.40631,0.95906
241.951,32.24853,97.69083,0.40615,0.95872
242.451,32.2933,97.6464,0.40665,0.95838
242.951,32.33813,97.6002,0.40756,0.95804
243.451,32.38286,97.55533,0.40619,0.9577
243.951,32.42758,97.51647,0.40699,0.95735
244.451,32.47242,97.47538,0.40547,0.95701
244.951,32.51745,97.44641,0.40637,0.95667
245.451,32.56238,97.37422,0.4077,0.95632
245.951,32.60726,97.36827,0.40521,0.95598
246.451,32.6522,97.3401,0.40431,0.95563
246.951,32.69727,97.27164,0.4066,0.95528
247.451,32.74219,97.21803,0.40554,0.95494
247.951,32.78712,97.1344,0.40463,0.95459
248.451,32.83198,97.0834,0.4059,0.95424
248.951,32.87678,97.04943,0.40421,0.95389
249.451,32.9215,96.97014,0.40427,0.95354
249.951,32.96642,96.9388,0.40469,0.9532
250.451,33.01128,96.93906,0.40319,0.95285
250.951,33.05597,96.90169,0.40385,0.9525
251.451,33.10095,96.82834,0.40396,0.95214
251.951,33.14578,96.76045,0.40236,0.95179
252.451,33.19075,96.68382,0.40328,0.95144
252.951,33.23567,96.6516,0.40181,0.95109
253.451,33.28067,96.6099,0.40027,0.95074
253.951,33.32549,96.54151,0.4002,0.95038
254.451,33.37044,96.50144,0.40213,0.95003
254.951,33.41531,96.43794,0.4001,0.94968
255.451,33.46009,96.39226,0.39943,0.94932
255.951,33.50495,96.3148,0.39824,0.94897
256.451,33.54995,96.2663,0.39913,0.94861
256.951,33.5948,96.2002,0.39883,0.94825
257.451,33.63967,96.12518,0.40022,0.9479
257.951,33.68466,96.03751,0.3999,0.94754
258.451,33.72955,95.97601,0.39635,0.94718
258.951,33.7746,95.9117,0.39736,0.94682
259.451,33.81961,95.85386,0.39745,0.94647
259.951,33.86475,95.76846,0.39451,0.94611
260.451,33.90983,95.7385,0.39369,0.94575
260.951,33.95478,95.6883,0.39521,0.94539
261.451,33.99975,95.55293,0.39499,0.94503
261.951,34.04452,95.47756,0.3917,0.94467
262.451,34.08927,95.40509,0.39064,0.94431
262.951,34.1342,95.3194,0.39285,0.94394
263.451,34.17908,95.2474,0.39015,0.94358
263.951,34.224,95.17234,0.3876,0.94322
264.451,34.26894,95.08277,0.38905,0.94286
264.951,34.31378,94.96919,0.38724,0.94249
265.451,34.35873,94.92451,0.3848,0.94213
265.951,34.40365,94.81666,0.38375,0.94176
266.451,34.4486,94.74902,0.38326,0.9414
266.951,34.49366,94.67871,0.38299,0.94103
267.451,34.53848,94.56656,0.37779,0.94067
267.951,34.58325,94.45982,0.37725,0.9403
268.451,34.628,94.3835,0.37506,0.93993
268.951,34.67272,94.2847,0.37515,0.93957
269.451,34.7175,94.16646,0.37232,0.9392
269.951,34.7624,94.06496,0.37235,0.93883
270.451,34.8074,93.96887,0.36869,0.93846
270.951,34.8525,93.8421,0.36723,0.93809
271.451,34.89756,93.7166,0.36608,0.93773
271.951,34.9427,93.61555,0.36492,0.93736
272.451,34.98772,93.53541,0.36098,0.93699
272.951,35.03272,93.39622,0.36123,0.93662
273.451,35.07756,93.26204,0.35662,0.93624
273.951,35.12212,93.1608,0.35516,0.93587
274.451,35.16706,93.04154,0.35449,0.9355
274.951,35.2121,92.91368,0.35041,0.93513
275.451,35.25712,92.8236,0.35109,0.93476
275.951,35.30252,92.69989,0.34707,0.93438
276.451,35.3478,92.5946,0.34608,0.93401
276.951,35.39281,92.49237,0.34263,0.93364
277.451,35.43784,92.37155,0.34004,0.93326
277.951,35.48298,92.18575,0.33924,0.93289
278.451,35.528,92.04579,0.33537,0.93251
278.951,35.5732,91.92335,0.33462,0.93214
279.451,35.6184,91.78576,0.33236,0.93176
279.951,35.66346,91.66085,0.32869,0.93138
280.451,35.70855,91.55067,0.32843,0.93101
280.951,35.7537,91.38256,0.3255,0.93063
281.451,35.79862,91.26085,0.32455,0.93025
281.951,35.84356,91.14604,0.32294,0.92987
282.451,35.88862,90.97577,0.31979,0.9295
282.951,35.9337,90.85554,0.31586,0.92912
283.451,35.9788,90.7161,0.3144,0.92874
283.951,36.02393,90.57507,0.31348,0.92836
284.451,36.0691,90.40117,0.31101,0.92798
284.951,36.1143,90.26058,0.3085,0.9276
285.451,36.15954,90.12509,0.30596,0.92722
285.951,36.20472,89.95923,0.30408,0.92684
286.451,36.24984,89.8224,0.30128,0.92646
286.951,36.29517,89.68165,0.30211,0.92607
287.451,36.34044,89.49688,0.29868,0.92569
287.951,36.38562,89.3103,0.29561,0.92531
288.451,36.43095,89.1703,0.29678,0.92493
288.951,36.47619,89.01374,0.29246,0.92454
289.451,36.5214,88.82725,0.29203,0.92416
289.951,36.5668,88.68754,0.29034,0.92378
290.451,36.61205,88.52917,0.29121,0.92339
290.951,36.65721,88.36202,0.28692,0.92301
291.451,36.70257,88.22154,0.28855,0.92262
291.951,36.74772,88.08961,0.28651,0.92224
292.451,36.79299,87.90595,0.28375,0.92185
292.951,36.8384,87.74139,0.28083,0.92146
293.451,36.88353,87.56271,0.28162,0.92108
293.951,36.92887,87.376,0.28197,0.92069
294.451,36.97417,87.2228,0.27867,0.9203
294.951,37.01947,87.08343,0.27901,0.91992
295.451,37.0646,86.90737,0.27711,0.91953
295.951,37.10994,86.69545,0.27677,0.91914
296.451,37.1553,86.5549,0.27901,0.91875
296.951,37.20071,86.36326,0.27821,0.91836
297.451,37.24645,86.18991,0.27762,0.91797
297.951,37.29179,86.0261,0.2743,0.91758
298.451,37.33764,85.85079,0.27687,0.91719
298.951,37.38299,85.64386,0.27762,0.9168
299.451,37.42825,85.5043,0.27601,0.91641
299.951,37.4737,85.32128,0.27751,0.91602
300.451,37.5191,85.14268,0.27767,0.91563
300.951,37.56453,84.98339,0.2772,0.91524
301.451,37.60992,84.80003,0.27784,0.91484
301.951,37.65546,84.54199,0.27829,0.91445
302.451,37.70101,84.34796,0.27796,0.91406
302.951,37.74657,84.20739,0.27884,0.91367
303.451,37.79215,84.0329,0.28053,0.91327
303.951,37.83766,83.86069,0.28029,0.91288
304.451,37.8833,83.6858,0.28247,0.91249
304.951,37.9288,83.44659,0.28354,0.91209
305.451,37.97432,83.2513,0.2847,0.9117
305.951,38.0198,83.05841,0.28623,0.9113
306.451,38.0653,82.9054,0.2873,0.91091
306.951,38.11084,82.68934,0.28942,0.91051
307.451,38.15654,82.51446,0.2913,0.91011
307.951,38.20221,82.3156,0.29242,0.90972
308.451,38.24778,82.09705,0.29337,0.90932
308.951,38.29345,81.8925,0.29512,0.90893
309.451,38.33893,81.7247,0.29701,0.90853
309.951,38.38438,81.52724,0.29916,0.90813
310.451,38.42991,81.30723,0.30413,0.90773
310.951,38.47551,81.1108,0.30484,0.90733
311.451,38.521,80.86726,0.30731,0.90694
311.951,38.56658,80.6617,0.31032,0.90654
312.451,38.61223,80.46449,0.31205,0.90614
312.951,38.65781,80.26568,0.31836,0.90574
313.451,38.70337,80.08406,0.32174,0.90534
313.951,38.74908,79.8689,0.32305,0.90494
314.451,38.7947,79.676,0.32317,0.90454
314.951,38.84046,79.4058,0.32491,0.90414
315.451,38.88625,79.1952,0.32797,0.90374
315.951,38.9319,79.01467,0.33014,0.90334
316.451,38.97752,78.78108,0.33377,0.90294
316.951,39.02312,78.56483,0.33341,0.90254
317.451,39.06883,78.35776,0.33841,0.90213
317.951,39.11437,78.16696,0.34199,0.90173
318.451,39.16,77.92042,0.34217,0.90133
318.951,39.2059,77.6939,0.34651,0.90093
319.451,39.25161,77.49393,0.34883,0.90052
319.951,39.29744,77.2591,0.35435,0.90012
320.451,39.34318,77.04263,0.35628,0.89972
320.951,39.38895,76.80265,0.3592,0.89931
321.451,39.43461,76.5731,0.36301,0.89891
321.951,39.48036,76.30721,0.36658,0.8985
322.451,39.52616,76.0831,0.36929,0.8981
322.951,39.57213,75.837,0.37234,0.8977
323.451,39.61802,75.58129,0.37748,0.89729
323.951,39.6639,75.34433,0.3799,0.89688
324.451,39.70975,75.1206,0.38306,0.89648
324.951,39.75571,74.8704,0.38558,0.89607
325.451,39.80166,74.6339,0.38944,0.89567
325.951,39.8475,74.40788,0.39495,0.89526
326.451,39.89345,74.11352,0.39773,0.89485
326.951,39.93938,73.8499,0.40267,0.89445
327.451,39.98534,73.61968,0.40424,0.89404
327.951,40.03137,73.34711,0.40951,0.89363
328.451,40.0774,73.03973,0.40993,0.89323
328.951,40.12362,72.76653,0.41128,0.89282
329.451,40.16966,72.52577,0.41779,0.89241
329.951,40.21584,72.2672,0.42235,0.892
330.451,40.26201,72.00625,0.42565,0.89159
330.951,40.30811,71.68394,0.42926,0.89118
331.451,40.35416,71.39369,0.43188,0.89077
331.951,40.40017,71.11946,0.43763,0.89037
332.451,40.4461,70.84089,0.4408,0.88996
332.951,40.49208,70.58344,0.44234,0.88955
333.451,40.53823,70.28635,0.44779,0.88914
333.951,40.5843,69.99804,0.45185,0.88873
334.451,40.6303,69.69838,0.45601,0.88832
334.951,40.6764,69.37744,0.46122,0.88791
335.451,40.72226,69.10271,0.46568,0.88749
335.951,40.7682,68.7662,0.46764,0.88708
336.451,40.81414,68.46674,0.47263,0.88667
336.951,40.86033,68.14745,0.47706,0.88626
337.451,40.90623,67.8139,0.47908,0.88585
337.951,40.95216,67.51702,0.48446,0.88544
338.451,40.9981,67.1502,0.49142,0.88502
338.951,41.0441,66.84466,0.49473,0.88461
339.451,41.09008,66.5167,0.499,0.8842
339.951,41.13637,66.15739,0.50205,0.88379
340.451,41.18245,65.80938,0.50671,0.88337
340.951,41.22851,65.49902,0.51143,0.88296
341.451,41.27445,65.10882,0.51678,0.88255
341.951,41.3205,64.7775,0.51937,0.88213
342.451,41.36646,64.46648,0.52438,0.88172
342.951,41.4125,64.12826,0.52819,0.88131
343.451,41.45852,63.771,0.5328,0.88089
343.951,41.5047,63.42162,0.53665,0.88048
344.451,41.55053,63.02717,0.54092,0.88006
344.951,41.5966,62.65935,0.54446,0.87965
345.451,41.64258,62.3119,0.54773,0.87923
345.951,41.68872,61.92264,0.55315,0.87882
346.451,41.7348,61.53142,0.55686,0.8784
346.951,41.78105,61.13655,0.56223,0.87799
347.451,41.8273,60.75705,0.56597,0.87757
347.951,41.8735,60.3105,0.57276,0.87715
348.451,41.91959,59.89552,0.57592,0.87674
348.951,41.9658,59.52169,0.57968,0.87632
349.451,42.01198,59.11735,0.58505,0.8759
349.951,42.05812,58.7122,0.59068,0.87549
350.451,42.10427,58.31179,0.59326,0.87507
350.951,42.15064,57.8443,0.59782,0.87465
351.451,42.19697,57.4115,0.60068,0.87424
351.951,42.24337,56.97985,0.60573,0.87382
352.451,42.28975,56.50532,0.60862,0.8734
352.951,42.3361,56.07764,0.6122,0.87298
353.451,42.38232,55.6641,0.61651,0.87257
353.951,42.42862,55.2161,0.61958,0.87215
354.451,42.4749,54.71176,0.62387,0.87173
354.951,42.52133,54.2507,0.62588,0.87131
355.451,42.5678,53.7934,0.62945,0.87089
355.951,42.61424,53.30834,0.63155,0.87047
356.451,42.66084,52.83271,0.63488,0.87006
356.951,42.7073,52.3939,0.63578,0.86964
357.451,42.7537,51.86888,0.63716,0.86922
357.951,42.80008,51.39557,0.63836,0.8688
358.451,42.8463,50.95389,0.63782,0.86838
358.951,42.89247,50.4512,0.63655,0.86796
359.451,42.9388,49.99436,0.63422,0.86754
359.951,42.98519,49.50101,0.63621,0.86712
360.451,43.0317,48.99492,0.63205,0.8667
360.951,43.07826,48.49651,0.63032,0.86628
361.451,43.1248,48.066,0.62627,0.86586
361.951,43.17147,47.58225,0.62432,0.86544
362.451,43.21812,47.11569,0.61858,0.86502
362.951,43.26464,46.66018,0.61204,0.8646
363.451,43.3112,46.1312,0.60727,0.86417
363.951,43.35772,45.6597,0.59894,0.86375
364.451,43.4041,45.2098,0.59196,0.86333
364.951,43.45067,44.73788,0.58103,0.86291
365.451,43.4973,44.25245,0.57458,0.86249
365.951,43.5438,43.82437,0.56535,0.86207
366.451,43.59044,43.4069,0.55369,0.86165
366.951,43.63708,42.9371,0.53882,0.86122
367.451,43.68346,42.51654,0.52587,0.8608
367.951,43.73016,42.11673,0.51097,0.86038
368.451,43.77667,41.69555,0.49396,0.85996
368.951,43.8232,41.2785,0.4801,0.85953
369.451,43.86991,40.91811,0.46312,0.85911
369.951,43.91648,40.5055,0.44459,0.85869
370.451,43.96326,40.15597,0.42624,0.85827
370.951,44.0101,39.8388,0.40584,0.85784
371.451,44.05677,39.49967,0.38753,0.85742
371.951,44.10345,39.192,0.36507,0.857
372.451,44.15015,38.93302,0.34419,0.85657
372.951,44.1967,38.5987,0.32507,0.85615
373.451,44.24295,38.3058,0.3029,0.85573
373.951,44.28972,38.09582,0.28312,0.8553
374.451,44.33641,37.87167,0.26311,0.85488
374.951,44.38303,37.67365,0.24428,0.85446
375.451,44.42986,37.49566,0.22775,0.85403
375.951,44.47677,37.28714,0.20852,0.85361
376.451,44.52343,37.12218,0.19091,0.85318
376.951,44.57,36.9701,0.17581,0.85276
377.451,44.61671,36.8687,0.16253,0.85234
377.951,44.66341,36.72007,0.15093,0.85191
378.451,44.71018,36.63862,0.13849,0.85149
378.951,44.757,36.52785,0.12818,0.85106
379.451,44.80379,36.3901,0.11877,0.85064
379.951,44.85048,36.30956,0.10929,0.85021
380.451,44.89725,36.23151,0.10007,0.84979
380.951,44.94396,36.15099,0.09664837,0.84936
381.451,44.99062,36.0347,0.09116649,0.84894
381.951,45.0373,35.9929,0.086207,0.84851
382.451,45.08416,35.94527,0.0814345,0.84809
382.951,45.13088,35.87498,0.07790246,0.84766
383.451,45.17763,35.83412,0.07368425,0.84724
383.951,45.2245,35.75178,0.06911864,0.84681
384.451,45.27114,35.6761,0.06500435,0.84639
384.951,45.31788,35.67827,0.06179227,0.84596
385.451,45.3646,35.6084,0.06016632,0.84553
385.951,45.41133,35.55462,0.05753904,0.84511
386.451,45.45807,35.4951,0.05504763,0.84468
386.951,45.5049,35.41245,0.05276828,0.84426
387.451,45.55175,35.3376,0.04966585,0.84383
387.951,45.59854,35.30415,0.04696342,0.84341
388.451,45.6454,35.27023,0.04664424,0.84298
388.951,45.69214,35.19254,0.04056352,0.84255
389.451,45.73895,35.16417,0.04242705,0.84213
389.951,45.786,35.12202,0.04013446,0.8417
390.451,45.83287,35.05392,0.03551285,0.84127
390.951,45.8799,35.01722,0.03483744,0.84085
391.451,45.927,35.01944,0.03394185,0.84042
391.951,45.97401,34.9619,0.03301383,0.83999
392.451,46.0209,34.9082,0.03105377,0.83957
392.951,46.0677,34.87618,0.03007137,0.83914
393.451,46.1146,34.79742,0.02738547,0.83871
393.951,46.1616,34.75692,0.02652333,0.83829
394.451,46.20832,34.7243,0.02421097,0.83786
394.951,46.2552,34.6856,0.02416372,0.83743
395.451,46.3021,34.616,0.02245941,0.83701
395.951,46.34903,34.57675,0.02351756,0.83658
396.451,46.39605,34.5398,0.01940779,0.83615
396.951,46.44331,34.4822,0.01499715,0.83573
397.451,46.49053,34.42881,0.01591241,0.8353
397.951,46.53765,34.39882,0.01451155,0.83487
398.451,46.5847,34.35001,0.01420403,0.83444
398.951,46.6319,34.33445,0.01089656,0.83402
399.451,46.67884,34.28862,0.01073542,0.83359
399.951,46.72593,34.21416,0.01057246,0.83316
400.451,46.7731,34.17665,0.008888754,0.83273
400.951,46.82015,34.10875,0.00618589,0.83231
401.451,46.86735,34.07212,0.00658486,0.83188
401.951,46.91455,34.07098,0.004605642,0.83145
402.451,46.96164,34.0225,0.001546966,0.83103
402.951,47.00858,33.95792,0.00133316,0.8306
403.451,47.0557,33.9284,0.00420419,0.83017
403.951,47.10289,33.9009,-0.000402389,0.82974
404.451,47.1501,33.83797,-0.001831446,0.82931
404.951,47.19732,33.78884,-0.00384165,0.82889
405.451,47.24476,33.75376,-0.001721079,0.82846
405.951,47.2918,33.72396,-0.002078982,0.82803
406.451,47.33886,33.68802,-0.0050495,0.8276
406.951,47.38613,33.65502,-0.006621202,0.82718
407.451,47.43327,33.59848,-0.004376375,0.82675
407.951,47.48075,33.5456,-0.005160605,0.82632
408.451,47.52834,33.53283,-0.00698869,0.82589
408.951,47.57597,33.47209,-0.004038746,0.82547
409.451,47.62383,33.4427,-0.00734739,0.82504
409.951,47.6714,33.43217,-0.009252053,0.82461
410.451,47.71909,33.36145,-0.009188985,0.82418
410.951,47.76668,33.3135,-0.01064826,0.82375
411.451,47.81418,33.2813,-0.01138483,0.82333
411.951,47.86168,33.21086,-0.01119742,0.8229
412.451,47.9092,33.1654,-0.01040576,0.82247
412.951,47.95673,33.16792,-0.0124027,0.82204
413.451,48.0043,33.0998,-0.01042855,0.82162
413.951,48.05187,33.03846,-0.01286636,0.82119
414.451,48.09948,33.02292,-0.01488406,0.82076
414.951,48.14697,32.98765,-0.01262996,0.82033
415.451,48.19444,32.943,-0.01265352,0.8199
415.951,48.24191,32.90803,-0.0137894,0.81948
416.451,48.2894,32.8724,-0.01329411,0.81905
416.951,48.3369,32.83663,-0.01363288,0.81862
417.451,48.3844,32.8009,-0.0130918,0.81819
417.951,48.43192,32.7672,-0.01198952,0.81777
418.451,48.47927,32.67755,-0.01460117,0.81734
418.951,48.5267,32.64285,-0.01536089,0.81691
419.451,48.57403,32.615,-0.01612589,0.81648
419.951,48.62117,32.5514,-0.01476411,0.81605
420.451,48.66863,32.51965,-0.01618324,0.81563
420.951,48.71606,32.52093,-0.01673841,0.8152
421.451,48.76352,32.4761,-0.01503339,0.81477
421.951,48.81145,32.45961,-0.01719587,0.81434
422.451,48.85889,32.45179,-0.01684142,0.81392
422.951,48.90637,32.3861,-0.01576113,0.81349
423.451,48.95387,32.35335,-0.01710903,0.81306
423.951,49.00115,32.3449,-0.01698462,0.81263
424.451,49.04852,32.2725,-0.01499147,0.81221
424.951,49.096,32.2702,-0.0172063,0.81178
425.451,49.14338,32.238,-0.01362076,0.81135
425.951,49.19092,32.1995,-0.01575806,0.81092
426.451,49.2384,32.09734,-0.01699889,0.8105
426.951,49.28584,32.08191,-0.01492057,0.81007
427.451,49.33336,32.06027,-0.01463617,0.80964
427.951,49.38077,32.02765,-0.01199789,0.80921
428.451,49.4281,31.9747,-0.01313523,0.80879
428.951,49.47548,31.92385,-0.01104833,0.80836
429.451,49.5227,31.87262,-0.01013417,0.80793
429.951,49.57046,31.85507,-0.009588615,0.80751
430.451,49.61799,31.85158,-0.009955864,0.80708
430.951,49.66581,31.81427,-0.006592968,0.80665
431.451,49.71351,31.7469,-0.008693729,0.80622
431.951,49.76129,31.7328,-0.008742015,0.8058
432.451,49.80885,31.68477,-0.00787438,0.80537
432.951,49.85644,31.6827,-0.005521171,0.80494
433.451,49.90404,31.65225,-0.005325309,0.80452
433.951,49.95158,31.62875,-0.004104641,0.80409
434.451,49.9992,31.5668,-0.00310364,0.80366
434.951,50.0471,31.5179,-0.001266049,0.80324
435.451,50.09495,31.47738,-0.001299829,0.80281
435.951,50.14274,31.4779,0.0008076331,0.80238
436.451,50.19059,31.46105,0.002321105,0.80196
436.951,50.2384,31.39319,0.004861123,0.80153
437.451,50.2862,31.3572,0.001401611,0.8011
437.951,50.33395,31.3593,0.002891325,0.80068
438.451,50.3819,31.3206,0.00333451,0.80025
438.951,50.4298,31.2785,0.00592463,0.79983
439.451,50.47756,31.2409,0.007784563,0.7994
439.951,50.52533,31.1973,0.00712519,0.79897
440.451,50.57298,31.1644,0.007616955,0.79855
440.951,50.62066,31.13045,0.008353137,0.79812
441.451,50.66839,31.0991,0.008799388,0.7977
441.951,50.7161,31.05045,0.009518855,0.79727
442.451,50.76372,31.02712,0.009639545,0.79684
442.951,50.81151,30.9905,0.01175718,0.79642
443.451,50.85925,30.9578,0.01338627,0.79599
443.951,50.9069,30.96436,0.01403546,0.79557
444.451,50.9547,30.92213,0.01406309,0.79514
444.951,51.00245,30.88937,0.01324891,0.79472
445.451,51.05011,30.88952,0.01462661,0.79429
445.951,51.09767,30.8563,0.01565547,0.79387
446.451,51.14553,30.84388,0.0183803,0.79344
446.951,51.19336,30.82,0.01901016,0.79302
447.451,51.24109,30.7798,0.0181314,0.79259
447.951,51.28901,30.72036,0.01975681,0.79217
448.451,51.33682,30.68693,0.02034897,0.79174
448.951,51.3845,30.65573,0.01830224,0.79132
449.451,51.4323,30.61735,0.02065387,0.79089
449.951,51.48033,30.61595,0.02214788,0.79047
450.451,51.52817,30.5824,0.02182775,0.79004
450.951,51.5762,30.5481,0.02178913,0.78962
451.451,51.6242,30.51535,0.02267669,0.78919
451.951,51.6721,30.5144,0.02458367,0.78877
452.451,51.72,30.4738,0.02196183,0.78835
452.951,51.7679,30.4437,0.02512948,0.78792
453.451,51.8159,30.38598,0.02821989,0.7875
453.951,51.86372,30.3541,0.02784158,0.78707
454.451,51.91163,30.30994,0.02712202,0.78665
454.951,51.95952,30.32902,0.02700868,0.78623
455.451,52.00763,30.29707,0.03133058,0.7858
455.951,52.05581,30.2797,0.03023543,0.78538
456.451,52.10409,30.24695,0.03045055,0.78496
456.951,52.15245,30.2116,0.03290608,0.78453
457.451,52.20069,30.18518,0.0312975,0.78411
457.951,52.24882,30.15612,0.03284774,0.78369
458.451,52.2971,30.11235,0.03536159,0.78326
458.951,52.34534,30.1122,0.03514366,0.78284
459.451,52.39349,30.1054,0.03706717,0.78242
459.951,52.4417,30.07654,0.03679442,0.782
460.451,52.49,30.03068,0.03773559,0.78157
460.951,52.53794,29.98405,0.03841354,0.78115
461.451,52.58614,29.94292,0.03930884,0.78073
461.951,52.63439,29.91593,0.03709783,0.78031
462.451,52.6827,29.9101,0.03822279,0.77988
462.951,52.73118,29.8773,0.03865141,0.77946
463.451,52.77965,29.87738,0.04128831,0.77904
463.951,52.8281,29.8652,0.04094199,0.77862
464.451,52.8765,29.81127,0.04358849,0.7782
464.951,52.9247,29.77908,0.04213382,0.77778
465.451,52.97283,29.7524,0.04262855,0.77735
465.951,53.02089,29.74633,0.04383706,0.77693
466.451,53.06884,29.746,0.04315607,0.77651
466.951,53.1166,29.71319,0.04134112,0.77609
467.451,53.16449,29.6686,0.04329904,0.77567
467.951,53.2123,29.62725,0.04245668,0.77525
468.451,53.2601,29.62285,0.04371038,0.77483
468.951,53.3078,29.60155,0.04451468,0.77441
469.451,53.35565,29.5903,0.04393094,0.77399
469.951,53.40348,29.59195,0.04362483,0.77357
470.451,53.45123,29.5576,0.04500638,0.77315
470.951,53.4992,29.52485,0.04265597,0.77273
471.451,53.54714,29.46452,0.04317303,0.77231
471.951,53.5949,29.4572,0.04073307,0.77189
472.451,53.6429,29.4262,0.0415731,0.77147
472.951,53.691,29.39963,0.04177838,0.77105
473.451,53.73908,29.38686,0.03900244,0.77063
473.951,53.78735,29.364,0.04180786,0.77021
474.451,53.83556,29.34964,0.0435192,0.76979
474.951,53.8838,29.34508,0.04163607,0.76937
475.451,53.93206,29.3146,0.04121806,0.76896
475.951,53.98047,29.28415,0.0412614,0.76854
476.451,54.0289,29.251,0.04452755,0.76812
476.951,54.0774,29.2366,0.04314817,0.7677
477.451,54.12551,29.2195,0.04262049,0.76728
477.951,54.1737,29.218,0.04578101,0.76687
478.451,54.222,29.1841,0.04627428,0.76645
478.951,54.2703,29.14987,0.04394659,0.76603
479.451,54.31867,29.14967,0.04666263,0.76561
479.951,54.3674,29.11385,0.04598419,0.7652
480.451,54.41596,29.0816,0.04727611,0.76478
480.951,54.46453,29.0758,0.04747128,0.76436
481.451,54.5133,29.0419,0.0479477,0.76394
481.951,54.5623,29.01145,0.05124171,0.76353
482.451,54.6113,28.97477,0.0486397,0.76311
482.951,54.6604,28.9493,0.05191832,0.76269
483.451,54.7096,28.94187,0.05211773,0.76228
483.951,54.7584,28.91729,0.05480317,0.76186
484.451,54.80709,28.9023,0.05068461,0.76145
484.951,54.8556,28.88577,0.05364243,0.76103
485.451,54.9041,28.88461,0.05214146,0.76061
485.951,54.9527,28.8478,0.05224434,0.7602
486.451,55.00134,28.7977,0.05205535,0.75978
486.951,55.0498,28.7915,0.05413322,0.75937
487.451,55.0981,28.7713,0.05085508,0.75895
487.951,55.1465,28.7557,0.05290541,0.75854
488.451,55.1946,28.73635,0.05026888,0.75812
488.951,55.24269,28.73595,0.04992978,0.75771
489.451,55.29064,28.65731,0.04778769,0.7573
489.951,55.3387,28.67255,0.04874547,0.75688
490.451,55.38649,28.65723,0.0491674,0.75647
490.951,55.4344,28.6251,0.04966975,0.75605
491.451,55.4824,28.6085,0.05026109,0.75564
491.951,55.5304,28.57563,0.04812976,0.75523
492.451,55.5785,28.54559,0.04843791,0.75481
492.951,55.62661,28.5753,0.04630612,0.7544
493.451,55.6748,28.5403,0.04695817,0.75399
493.951,55.72319,28.54262,0.0481392,0.75358
494.451,55.77154,28.5104,0.04609109,0.75316
494.951,55.81989,28.50198,0.04827755,0.75275
495.451,55.86826,28.4771,0.04468618,0.75234
495.951,55.9165,28.4612,0.0475626,0.75193
496.451,55.9649,28.44355,0.04865129,0.75151
496.951,56.01331,28.41152,0.04509958,0.7511
497.451,56.0618,28.4115,0.0467384,0.75069
497.951,56.1104,28.3787,0.04587502,0.75028
498.451,56.159,28.35626,0.04547795,0.74987
498.951,56.2078,28.34533,0.04676515,0.74946
499.451,56.2566,28.31317,0.04835032,0.74905
499.951,56.30525,28.2799,0.04581873,0.74864
500.451,56.3541,28.28132,0.04776782,0.74823
500.951,56.40295,28.2799,0.04601431,0.74782
501.451,56.4518,28.21248,0.04670507,0.74741
501.951,56.5009,28.2152,0.04544282,0.747
502.451,56.54981,28.2145,0.04688875,0.74659
502.951,56.59864,28.18174,0.04725125,0.74618
503.451,56.6472,28.1838,0.0474838,0.74577
503.951,56.69594,28.1811,0.04836911,0.74536
504.451,56.74442,28.14882,0.04845065,0.74495
504.951,56.79308,28.11575,0.0480385,0.74454
505.451,56.84191,28.08355,0.04738781,0.74414
505.951,56.8907,28.08291,0.0486462,0.74373
506.451,56.93943,28.07511,0.04786497,0.74332
506.951,56.9882,28.04182,0.04937656,0.74291
507.451,57.03703,28.00943,0.0475613,0.7425
507.951,57.0857,28.00858,0.04586092,0.7421
508.451,57.1345,27.97676,0.04722019,0.74169
508.951,57.1832,27.94347,0.04565058,0.74128
509.451,57.23197,27.94414,0.04429353,0.74088
509.951,57.2808,27.9445,0.04573374,0.74047
510.451,57.32975,27.91072,0.04602598,0.74006
510.951,57.3786,27.9107,0.04191552,0.73966
511.451,57.4276,27.8751,0.04358416,0.73925
511.951,57.47665,27.8266,0.04111311,0.73885
512.451,57.52551,27.80973,0.04275729,0.73844
512.951,57.57436,27.80987,0.04127606,0.73803
513.451,57.62307,27.7766,0.03944572,0.73763
513.951,57.6718,27.8095,0.03898771,0.73722
514.451,57.7204,27.7595,0.04002277,0.73682
514.951,57.7691,27.7112,0.03804258,0.73642
515.451,57.81794,27.7111,0.03697021,0.73601
515.951,57.86656,27.7448,0.03561973,0.73561
516.451,57.91525,27.7439,0.03745433,0.7352
516.951,57.96395,27.7244,0.03466427,0.7348
517.451,58.01234,27.68696,0.03238827,0.7344
517.951,58.0607,27.64313,0.03386569,0.73399
518.451,58.1092,27.6429,0.03174355,0.73359
518.951,58.1578,27.64375,0.030911,0.73319
519.451,58.20638,27.6097,0.02962207,0.73279
519.951,58.25521,27.60973,0.02931093,0.73238
520.451,58.30392,27.60946,0.02774675,0.73198
520.951,58.3527,27.5774,0.02969336,0.73158
521.451,58.40145,27.5653,0.02978662,0.73118
521.951,58.4501,27.4865,0.02915179,0.73078
522.451,58.49905,27.4463,0.02805351,0.73038
522.951,58.54781,27.4786,0.02834153,0.72998
523.451,58.5967,27.4782,0.02835522,0.72957
523.951,58.64564,27.44593,0.03158829,0.72917
524.451,58.69451,27.4456,0.03295716,0.72877
524.951,58.74321,27.41357,0.03196515,0.72837
525.451,58.7921,27.38058,0.03200458,0.72797
525.951,58.8408,27.38005,0.03195651,0.72757
526.451,58.8896,27.38032,0.03166899,0.72718
526.951,58.9384,27.3471,0.03245832,0.72678
527.451,58.9871,27.3741,0.02811992,0.72638
527.951,59.03585,27.3663,0.02737592,0.72598
528.451,59.0846,27.34735,0.02749239,0.72558
528.951,59.13358,27.31512,0.02530477,0.72518
529.451,59.1825,27.27964,0.02476425,0.72479
529.951,59.2315,27.2818,0.02621891,0.72439
530.451,59.2805,27.24826,0.02574297,0.72399
530.951,59.3296,27.2163,0.02490971,0.72359
531.451,59.37876,27.216,0.02438865,0.7232
531.951,59.42781,27.19663,0.02510822,0.7228
532.451,59.47671,27.14951,0.02365116,0.7224
532.951,59.5256,27.1863,0.02395792,0.72201
533.451,59.57447,27.14998,0.0230811,0.72161
533.951,59.6233,27.1178,0.02420202,0.72122
534.451,59.6723,27.1297,0.02219546,0.72082
534.951,59.7213,27.12303,0.02572718,0.72042
535.451,59.7701,27.10922,0.02193352,0.72003
535.951,59.81898,27.09287,0.02040525,0.71964
536.451,59.8679,27.07648,0.02357684,0.71924
536.951,59.9169,27.0471,0.02137426,0.71885
537.451,59.96598,27.0436,0.02054024,0.71845
537.951,60.0152,27.0436,0.02248419,0.71806
538.451,60.0643,27.0436,0.02326227,0.71767
538.951,60.1132,27.0434,0.02428718,0.71727
539.451,60.1621,27.01124,0.02326288,0.71688
539.951,60.2109,26.98449,0.02188717,0.71649
540.451,60.25979,26.97806,0.02099069,0.71609
540.951,60.3088,26.97803,0.02043729,0.7157
541.451,60.35801,26.9447,0.02077589,0.71531
541.951,60.40716,26.9534,0.01992271,0.71492
542.451,60.45626,26.95066,0.02075986,0.71453
542.951,60.5053,26.92132,0.01638004,0.71414
543.451,60.5542,26.9213,0.01609187,0.71375
543.951,60.6032,26.891,0.01622666,0.71335
544.451,60.65226,26.88542,0.01858614,0.71296
544.951,60.7014,26.8547,0.01616662,0.71257
545.451,60.7506,26.81362,0.01501144,0.71218
545.951,60.7999,26.8222,0.01686603,0.71179
546.451,60.84894,26.7888,0.01612128,0.71141
546.951,60.89801,26.7893,0.01662224,0.71102
547.451,60.94716,26.7635,0.01589586,0.71063
547.951,60.99625,26.75785,0.01614963,0.71024
548.451,61.0452,26.723,0.01354519,0.70985
548.951,61.0943,26.6908,0.01364411,0.70946
549.451,61.14291,26.69078,0.01347565,0.70908
549.951,61.1919,26.72209,0.01229472,0.70869
550.451,61.24128,26.69102,0.01248806,0.7083
550.951,61.29055,26.69102,0.01287419,0.70791
551.451,61.34027,26.69102,0.01237401,0.70753
551.951,61.38949,26.68307,0.01099273,0.70714
552.451,61.43883,26.6583,0.01220817,0.70675
552.951,61.48815,26.6449,0.0125228,0.70637
553.451,61.5375,26.617,0.009358692,0.70598
553.951,61.5869,26.61818,0.00977093,0.7056
554.451,61.6361,26.5937,0.01178328,0.70521
554.951,61.68538,26.58646,0.009031328,0.70483
555.451,61.73466,26.5843,0.009603438,0.70444
555.951,61.7839,26.585,0.01031981,0.70406
556.451,61.8333,26.57695,0.009034086,0.70368
556.951,61.88256,26.54328,0.008185548,0.70329
557.451,61.93164,26.51094,0.007941657,0.70291
557.951,61.98085,26.5105,0.01035268,0.70253
558.451,62.0298,26.5106,0.006240137,0.70214
558.951,62.07884,26.4775,0.006156519,0.70176
559.451,62.1279,26.47757,0.00803164,0.70138
559.951,62.1771,26.46032,0.004021943,0.701
560.451,62.2265,26.4356,0.005830824,0.70061
560.951,62.27585,26.41677,0.01051898,0.70023
561.451,62.32529,26.42,0.00629217,0.69985
561.951,62.3748,26.409,0.006867745,0.69947
562.451,62.42411,26.38604,0.005447985,0.69909
562.951,62.47342,26.3544,0.00802588,0.69871
563.451,62.52281,26.3543,0.008446176,0.69833
563.951,62.57212,26.3544,0.00683547,0.69795
564.451,62.6215,26.32133,0.003984145,0.69757
564.951,62.6709,26.32145,0.002158799,0.69719
565.451,62.72016,26.32145,0.001638979,0.69681
565.951,62.7695,26.3218,0.002518209,0.69643
566.451,62.81899,26.3139,0.001173337,0.69605
566.951,62.86851,26.313,0.001108966,0.69568
567.451,62.91806,26.2806,-0.0007251038,0.6953
567.951,62.9677,26.28071,-0.00147261,0.69492
568.451,63.0173,26.21355,-0.00137461,0.69454
568.951,63.06657,26.2149,-0.00272738,0.69417
569.451,63.1158,26.18282,-0.003332748,0.69379
569.951,63.1646,26.19264,-0.007474184,0.69341
570.451,63.2138,26.215,-0.006658128,0.69304
570.951,63.2631,26.215,-0.005088639,0.69266
571.451,63.3124,26.215,-0.00852424,0.69229
571.951,63.36235,26.2161,-0.008161801,0.69191
572.451,63.41169,26.18204,-0.00693932,0.69154
572.951,63.461,26.18205,-0.009369869,0.69116
573.451,63.51035,26.1822,-0.01159365,0.69079
573.951,63.55973,26.15731,-0.009936155,0.69041
574.451,63.6092,26.14937,-0.009388999,0.69004
574.951,63.6587,26.12774,-0.00948364,0.68967
575.451,63.70795,26.11618,-0.009360285,0.68929
575.951,63.75721,26.08374,-0.01000594,0.68892
576.451,63.8065,26.0828,-0.008115835,0.68855
576.951,63.85572,26.05894,-0.008572701,0.68818
577.451,63.9051,26.05994,-0.009636872,0.6878
577.951,63.9545,26.05302,-0.01020156,0.68743
578.451,64.00391,26.01844,-0.007865346,0.68706
578.951,64.05326,26.0509,-0.00996904,0.68669
579.451,64.10248,26.02569,-0.00919383,0.68632
579.951,64.15172,26.00903,-0.009808959,0.68595
580.451,64.20105,26.00972,-0.008832088,0.68558
580.951,64.25032,25.97717,-0.00972473,0.68521
581.451,64.2997,25.97706,-0.00972807,0.68484
581.951,64.34915,25.99985,-0.00927882,0.68447
582.451,64.3985,26.00982,-0.00730609,0.6841
582.951,64.44797,25.9768,-0.002094635,0.68373
583.451,64.49757,25.96989,-0.002766645,0.68337
583.951,64.54723,25.93336,-0.00352866,0.683
584.451,64.5969,25.93342,-0.002834642,0.68263
584.951,64.6465,25.93277,-0.000760713,0.68226
585.451,64.69612,25.90053,0.0007155446,0.68189
585.951,64.7456,25.9005,-0.00205011,0.68153
586.451,64.79508,25.9005,0.001645669,0.68116
586.951,64.84465,25.90166,0.003152148,0.6808
587.451,64.8942,25.8675,0.004030189,0.68043
587.951,64.9439,25.8325,0.003684454,0.68006
588.451,64.99356,25.83492,0.002646117,0.6797
588.951,65.04309,25.83492,0.00154962,0.67933
589.451,65.09259,25.84367,0.004785325,0.67897
589.951,65.1421,25.84389,0.00569952,0.6786
590.451,65.19164,25.80997,0.00687502,0.67824
590.951,65.24118,25.80998,0.006740222,0.67788
591.451,65.29091,25.80828,0.00826286,0.67751
591.951,65.3404,25.80969,0.007886072,0.67715
592.451,65.3899,25.76928,0.00675072,0.67679
592.951,65.43949,25.74437,0.00675853,0.67643
593.451,65.48892,25.74646,0.008665036,0.67606
593.951,65.53856,25.74439,0.00689745,0.6757
594.451,65.58796,25.74439,0.00759942,0.67534
594.951,65.63745,25.7444,0.005598856,0.67498
595.451,65.68674,25.70988,0.00775255,0.67462
595.951,65.7358,25.71385,0.007306718,0.67426
596.451,65.78538,25.7129,0.006731263,0.6739
596.951,65.83488,25.71167,0.007760486,0.67354
597.451,65.88464,25.67943,0.00693919,0.67318
597.951,65.93468,25.6788,0.007695306,0.67282
598.451,65.9846,25.67876,0.005587743,0.67246
598.951,66.03429,25.64799,0.005860537,0.6721
599.451,66.08376,25.62209,0.005349325,0.67174
599.951,66.13333,25.6132,0.01059534,0.67138
600.451,66.1828,25.6132,0.008195119,0.67103
600.951,66.23257,25.61241,0.008104392,0.67067
601.451,66.28283,25.6379,0.008864111,0.67031
601.951,66.33295,25.63801,0.007093701,0.66996
602.451,66.3832,25.60482,0.008875586,0.6696
602.951,66.43339,25.60499,0.01057633,0.66924
603.451,66.4833,25.60476,0.01139345,0.66889
603.951,66.53317,25.57241,0.008606679,0.66853
604.451,66.58305,25.57208,0.008024841,0.66818
604.951,66.63286,25.56635,0.00868265,0.66782
605.451,66.68257,25.53941,0.007282689,0.66747
605.951,66.7323,25.54052,0.007796845,0.66711
606.451,66.78194,25.50647,0.008160104,0.66676
606.951,66.8314,25.50648,0.007072477,0.66641
607.451,66.88091,25.5065,0.008275794,0.66605
607.951,66.9306,25.48227,0.0121794,0.6657
608.451,66.98025,25.48205,0.01171839,0.66535
608.951,67.0299,25.48205,0.01086684,0.66499
609.451,67.07946,25.4492,0.01523742,0.66464
609.951,67.1288,25.44913,0.01282376,0.66429
610.451,67.1781,25.44932,0.01459875,0.66394
610.951,67.2276,25.45681,0.01144227,0.66359
611.451,67.2775,25.42446,0.01248998,0.66324
611.951,67.32723,25.43064,0.01444404,0.66289
612.451,67.377,25.4033,0.01493261,0.66254
612.951,67.4268,25.39999,0.01137202,0.66219
613.451,67.4765,25.4,0.01166263,0.66184
613.951,67.52606,25.4,0.01548427,0.66149
614.451,67.57544,25.4,0.01744313,0.66114
614.951,67.62478,25.40015,0.01611941,0.66079
615.451,67.67409,25.3669,0.0193931,0.66044
615.951,67.72328,25.3671,0.01669494,0.6601
616.451,67.7728,25.3671,0.01548016,0.65975
616.951,67.82225,25.35342,0.01758826,0.6594
617.451,67.87183,25.33432,0.01778713,0.65906
617.951,67.92156,25.349,0.0197981,0.65871
618.451,67.97144,25.31772,0.02198924,0.65836
618.951,68.02145,25.31789,0.02021778,0.65802
619.451,68.0716,25.35059,0.02180141,0.65767
619.951,68.12168,25.3514,0.02361807,0.65733
620.451,68.17198,25.30467,0.02354172,0.65698
620.951,68.22229,25.30084,0.02541769,0.65664
621.451,68.2726,25.31936,0.02771957,0.65629
621.951,68.32313,25.28379,0.0298802,0.65595
622.451,68.37358,25.28501,0.03515804,0.65561
622.951,68.4238,25.25473,0.03340701,0.65526
623.451,68.47399,25.28258,0.03705989,0.65492
623.951,68.5241,25.28504,0.03780535,0.65458
624.451,68.57429,25.28504,0.04033056,0.65424
624.951,68.62447,25.28504,0.04038974,0.6539
625.451,68.67449,25.28505,0.0391674,0.65355
625.951,68.72445,25.27508,0.04403016,0.65321
626.451,68.77405,25.25218,0.04304176,0.65287
626.951,68.82382,25.20907,0.0473607,0.65253
627.451,68.8736,25.21921,0.04875078,0.65219
627.951,68.92367,25.21108,0.05059025,0.65185
628.451,68.97378,25.18714,0.05017995,0.65151
628.951,69.02377,25.17831,0.0497325,0.65117
629.451,69.07388,25.14295,0.04958958,0.65083
629.951,69.12387,25.15375,0.04887872,0.6505
630.451,69.1739,25.14627,0.05201084,0.65016
630.951,69.224,25.1456,0.05117951,0.64982
631.451,69.2739,25.11337,0.05316962,0.64948
631.951,69.32398,25.12496,0.05093545,0.64915
632.451,69.37384,25.1292,0.05364665,0.64881
632.951,69.42376,25.1292,0.05560773,0.64847
633.451,69.4738,25.1282,0.05403074,0.64814
633.951,69.52388,25.0879,0.05548462,0.6478
634.451,69.57396,25.0636,0.05358142,0.64747
634.951,69.62384,25.0636,0.05668653,0.64713
635.451,69.67342,25.0661,0.05745075,0.6468
635.951,69.7231,25.0716,0.05769492,0.64646
636.451,69.77274,25.10363,0.05895822,0.64613
636.951,69.82275,25.10389,0.05912575,0.64579
637.451,69.87305,25.0716,0.05820889,0.64546
637.951,69.92333,25.07157,0.0598349,0.64513
638.451,69.97333,25.07157,0.06092463,0.6448
638.651,69.99343,25.07157,0.0616816,0.64466