File: 01_Data/Wool_Rug/STA/N2/3K_min/Wool_Rug_STA_N2_3KData_220119_R1.csv
##Temp./Â°C,Time/min,Mass loss(subtr.2)/mg,DSC(subtr.2)/(mW/mg),Sensit./(uV/mW)
49.885,10.0158,-0.04333,0.01630743,1.06381
50.585,11.1327,-0.04728259,0.04086402,1.06364
51.285,11.53352,-0.04729695,0.05179638,1.06348
51.985,11.8576,-0.04716884,0.06192894,1.06331
52.685,12.14984,-0.04858903,0.0679609,1.06314
53.385,12.42715,-0.04859247,0.06994248,1.06297
54.085,12.69663,-0.04852496,0.07400802,1.0628
54.785,12.96081,-0.04995077,0.0757433,1.06263
55.485,13.22287,-0.05186987,0.07695037,1.06246
56.185,13.48078,-0.0525357,0.07773354,1.06229
56.885,13.73771,-0.05123049,0.07988783,1.06212
57.585,13.99267,-0.05258847,0.07969143,1.06195
58.285,14.2458,-0.05363999,0.07883424,1.06178
58.985,14.49552,-0.05522512,0.0819964,1.06161
59.685,14.74214,-0.05639617,0.08255008,1.06144
60.385,14.9859,-0.05663823,0.08648951,1.06127
61.085,15.22817,-0.05673611,0.09077299,1.0611
61.785,15.4695,-0.05693,0.08964119,1.06092
62.485,15.7097,-0.05694405,0.090595,1.06075
63.185,15.94878,-0.05924567,0.09220519,1.06058
63.885,16.18779,-0.05982301,0.09182444,1.06041
64.585,16.42711,-0.06058792,0.09058826,1.06023
65.285,16.6658,-0.06088027,0.09238583,1.06006
65.985,16.90355,-0.06150269,0.09527841,1.05989
66.685,17.14004,-0.06101231,0.0943315,1.05972
67.385,17.3768,-0.06295521,0.09438261,1.05954
68.085,17.6138,-0.06427404,0.09413997,1.05937
68.785,17.85146,-0.06625752,0.09564524,1.05919
69.485,18.08847,-0.06665625,0.0941574,1.05902
70.185,18.32479,-0.06489835,0.09438918,1.05885
70.885,18.56053,-0.06622742,0.09676126,1.05867
71.585,18.79571,-0.06808793,0.09535596,1.0585
72.285,19.0305,-0.06888012,0.09623181,1.05832
72.985,19.26548,-0.06757179,0.09430621,1.05815
73.685,19.50143,-0.07030339,0.09522757,1.05797
74.385,19.73741,-0.07251157,0.0942828,1.05779
75.085,19.97326,-0.07245527,0.09322212,1.05762
75.785,20.2084,-0.07312905,0.09354735,1.05744
76.485,20.44292,-0.07345136,0.09425829,1.05726
77.185,20.6763,-0.07316,0.09578148,1.05709
77.885,20.9097,-0.07462207,0.09527089,1.05691
78.585,21.1437,-0.07451993,0.09461978,1.05673
79.285,21.37847,-0.07580729,0.0939996,1.05656
79.985,21.61347,-0.07677228,0.09302678,1.05638
80.685,21.84821,-0.07652215,0.09285926,1.0562
81.385,22.08374,-0.07777138,0.0913059,1.05602
82.085,22.3186,-0.07908627,0.0898698,1.05584
82.785,22.55444,-0.07992503,0.08953319,1.05566
83.485,22.78969,-0.08017431,0.08688093,1.05548
84.185,23.02413,-0.08008001,0.08946556,1.0553
84.885,23.2577,-0.07933396,0.08813246,1.05512
85.585,23.49135,-0.07763257,0.08784342,1.05494
86.285,23.72555,-0.08036902,0.08647685,1.05476
86.985,23.95911,-0.0831245,0.08614569,1.05458
87.685,24.1924,-0.08283466,0.08329854,1.0544
88.385,24.42559,-0.08283578,0.08480553,1.05422
89.085,24.6589,-0.08171973,0.08136553,1.05404
89.785,24.89215,-0.08303001,0.08242222,1.05386
90.485,25.12519,-0.08269999,0.08328021,1.05368
91.185,25.3581,-0.08402339,0.0853102,1.05349
91.885,25.5916,-0.08534576,0.08099195,1.05331
92.585,25.8251,-0.08598375,0.08258721,1.05313
93.285,26.05807,-0.08665003,0.08209892,1.05295
93.985,26.29056,-0.08797137,0.08182489,1.05276
94.685,26.523,-0.08698,0.07911291,1.05258
95.385,26.75558,-0.08698,0.08022448,1.05239
96.085,26.98807,-0.08697998,0.07960116,1.05221
96.785,27.2191,-0.08695188,0.0779056,1.05203
97.485,27.44998,-0.0883,0.07864754,1.05184
98.185,27.68233,-0.08961172,0.0760966,1.05166
98.885,27.9147,-0.0898005,0.0729356,1.05147
99.585,28.14847,-0.08849802,0.07387198,1.05128
100.285,28.38066,-0.08851609,0.07183277,1.0511
100.985,28.61385,-0.09214029,0.07377988,1.05091
101.685,28.8458,-0.09098641,0.07511023,1.05073
102.385,29.07788,-0.08986841,0.07416667,1.05054
103.085,29.3103,-0.08951068,0.07476723,1.05035
103.785,29.5418,-0.09151088,0.07452608,1.05016
104.485,29.77335,-0.08886218,0.07497703,1.04998
105.185,30.00375,-0.08861438,0.07279287,1.04979
105.885,30.235,-0.08993999,0.07313237,1.0496
106.585,30.466,-0.08994,0.07413187,1.04941
107.285,30.69805,-0.09130968,0.07545991,1.04922
107.985,30.9289,-0.09125958,0.07553626,1.04903
108.685,31.16013,-0.09225704,0.07515579,1.04884
109.385,31.3914,-0.08956702,0.07341345,1.04865
110.085,31.6241,-0.09094,0.07401363,1.04846
110.785,31.8573,-0.09225707,0.07358009,1.04827
111.485,32.08909,-0.09093836,0.07063489,1.04808
112.185,32.32035,-0.091566,0.07337681,1.04789
112.885,32.5505,-0.09090747,0.07481007,1.0477
113.585,32.7817,-0.09092983,0.07292443,1.0475
114.285,33.01266,-0.09125194,0.07343255,1.04731
114.985,33.24362,-0.09256682,0.07438268,1.04712
115.685,33.47463,-0.09322834,0.07359583,1.04693
116.385,33.7051,-0.09191,0.07418943,1.04673
117.085,33.93565,-0.09429036,0.07543921,1.04654
117.785,34.16574,-0.09355999,0.07666629,1.04634
118.485,34.39655,-0.09225,0.07538249,1.04615
119.185,34.628,-0.09279399,0.07519851,1.04596
119.885,34.8602,-0.09228797,0.07445266,1.04576
120.585,35.09284,-0.09261002,0.07649707,1.04557
121.285,35.3257,-0.09258508,0.07484336,1.04537
121.985,35.55872,-0.09422145,0.07554352,1.04517
122.685,35.79149,-0.09290566,0.07549065,1.04498
123.385,36.0242,-0.09422,0.07504225,1.04478
124.085,36.25586,-0.09281412,0.07521652,1.04458
124.785,36.4873,-0.0929039,0.07730528,1.04439
125.485,36.71709,-0.09422971,0.07681275,1.04419
126.185,36.94676,-0.0939046,0.07423014,1.04399
126.885,37.17602,-0.09391029,0.07573114,1.04379
127.585,37.40547,-0.09389627,0.07816442,1.04359
128.285,37.63507,-0.09322236,0.07694132,1.04339
128.985,37.86483,-0.09516875,0.07694854,1.04319
129.685,38.09476,-0.09388486,0.07589533,1.04299
130.385,38.32529,-0.09533205,0.07367637,1.04279
131.085,38.55599,-0.09487833,0.07505126,1.04259
131.785,38.78673,-0.0938874,0.075303,1.04239
132.485,39.01692,-0.093242,0.07584893,1.04219
133.185,39.24739,-0.09489136,0.07541997,1.04199
133.885,39.47782,-0.09489,0.07466104,1.04178
134.585,39.7085,-0.09632218,0.07331025,1.04158
135.285,39.93907,-0.09586906,0.07525922,1.04138
135.985,40.16961,-0.09410963,0.07669031,1.04118
136.685,40.3992,-0.09455115,0.07597984,1.04097
137.385,40.62863,-0.09455035,0.07710276,1.04077
138.085,40.85723,-0.09419277,0.07657323,1.04056
138.785,41.08547,-0.09587013,0.07803996,1.04036
139.485,41.31372,-0.09520848,0.07949662,1.04015
140.185,41.54333,-0.09420151,0.07848192,1.03995
140.885,41.77339,-0.09521,0.07861811,1.03974
141.585,42.0032,-0.09488005,0.07847331,1.03953
142.285,42.2334,-0.09521017,0.07664352,1.03933
142.985,42.4638,-0.09521105,0.07879118,1.03912
143.685,42.69408,-0.09649358,0.07910039,1.03891
144.385,42.92365,-0.09521,0.08088004,1.0387
145.085,43.15194,-0.0939039,0.0790767,1.0385
145.785,43.38041,-0.09524325,0.08283591,1.03829
146.485,43.60922,-0.09587011,0.081095,1.03808
147.185,43.83856,-0.09660251,0.07970919,1.03787
147.885,44.06767,-0.09524882,0.07772912,1.03766
148.585,44.2963,-0.09554082,0.07991263,1.03745
149.285,44.52583,-0.09645554,0.07970478,1.03724
149.985,44.75595,-0.09618986,0.07939091,1.03703
150.685,44.9855,-0.09619099,0.08230973,1.03681
151.385,45.21471,-0.09751,0.07970148,1.0366
152.085,45.44362,-0.09812891,0.08002385,1.03639
152.785,45.67269,-0.0957906,0.0815063,1.03618
153.485,45.9013,-0.09814865,0.0824577,1.03596
154.185,46.12993,-0.0975291,0.08135851,1.03575
154.885,46.3589,-0.09848473,0.08206993,1.03553
155.585,46.58869,-0.0985,0.08088321,1.03532
156.285,46.8181,-0.09859268,0.08308493,1.0351
156.985,47.04718,-0.10046,0.08352687,1.03489
157.685,47.27579,-0.10047,0.08323793,1.03467
158.385,47.50521,-0.10057,0.08378336,1.03446
159.085,47.73467,-0.10048,0.08374499,1.03424
159.785,47.96373,-0.09983743,0.08447197,1.03402
160.485,48.19208,-0.09981941,0.08533679,1.0338
161.185,48.42072,-0.10114,0.08672402,1.03359
161.885,48.64866,-0.10242,0.08670607,1.03337
162.585,48.87625,-0.1016,0.08678372,1.03315
163.285,49.10282,-0.10274,0.08955248,1.03293
163.985,49.33021,-0.10179,0.08921574,1.03271
164.685,49.558,-0.10179,0.0867146,1.03249
165.385,49.78663,-0.10221,0.0878989,1.03227
166.085,50.0152,-0.10146,0.0880564,1.03205
166.785,50.2439,-0.10047,0.088885,1.03183
167.485,50.47286,-0.10184,0.0890991,1.0316
168.185,50.70177,-0.10224,0.08785496,1.03138
168.885,50.93103,-0.10246,0.08742282,1.03116
169.585,51.15988,-0.10307,0.08946887,1.03094
170.285,51.38909,-0.10343,0.08969416,1.03071
170.985,51.6183,-0.10214,0.09002731,1.03049
171.685,51.84814,-0.10404,0.08907839,1.03026
172.385,52.07842,-0.10443,0.08702098,1.03004
173.085,52.30812,-0.10364,0.08991487,1.02981
173.785,52.5375,-0.10409,0.09149798,1.02958
174.485,52.7656,-0.1041,0.09206028,1.02936
175.185,52.99321,-0.10549,0.08997456,1.02913
175.885,53.22016,-0.10644,0.09198561,1.0289
176.585,53.447,-0.1055,0.09231309,1.02868
177.285,53.67371,-0.10648,0.09465966,1.02845
177.985,53.9015,-0.10673,0.09310261,1.02822
178.685,54.12985,-0.10771,0.0918659,1.02799
179.385,54.3576,-0.10771,0.09307303,1.02776
180.085,54.5843,-0.10901,0.09265938,1.02753
180.785,54.81148,-0.10902,0.09483835,1.0273
181.485,55.03901,-0.11102,0.09454817,1.02707
182.185,55.26667,-0.10837,0.09661621,1.02683
182.885,55.49389,-0.11016,0.09362675,1.0266
183.585,55.72169,-0.11233,0.09319179,1.02637
184.285,55.95044,-0.11133,0.09479044,1.02613
184.985,56.1795,-0.11133,0.09408018,1.0259
185.685,56.40876,-0.11228,0.09605808,1.02567
186.385,56.6376,-0.11263,0.09527746,1.02543
187.085,56.86699,-0.11298,0.09848175,1.0252
187.785,57.09698,-0.11167,0.09479945,1.02496
188.485,57.3266,-0.11397,0.09653902,1.02472
189.185,57.55542,-0.11265,0.09798997,1.02449
189.885,57.7837,-0.11463,0.09935625,1.02425
190.585,58.0119,-0.11463,0.0992832,1.02401
191.285,58.23953,-0.11496,0.09859758,1.02377
191.985,58.4668,-0.11462,0.10068,1.02353
192.685,58.69299,-0.11561,0.10266,1.0233
193.385,58.9193,-0.11758,0.10399,1.02306
194.085,59.14617,-0.11758,0.10252,1.02281
194.785,59.37366,-0.11824,0.10324,1.02257
195.485,59.602,-0.11961,0.10353,1.02233
196.185,59.8302,-0.11967,0.10422,1.02209
196.885,60.05843,-0.11965,0.1042,1.02185
197.585,60.2862,-0.12165,0.10643,1.0216
198.285,60.51373,-0.12316,0.1093,1.02136
198.985,60.7421,-0.12329,0.11087,1.02112
199.685,60.97061,-0.12559,0.10786,1.02087
200.385,61.199,-0.12526,0.10784,1.02063
201.085,61.42725,-0.12693,0.1111,1.02038
201.785,61.6557,-0.12592,0.11081,1.02014
202.485,61.88304,-0.12793,0.11247,1.01989
203.185,62.11006,-0.12874,0.11422,1.01964
203.885,62.33653,-0.12977,0.11367,1.01939
204.585,62.56357,-0.13019,0.11705,1.01915
205.285,62.79056,-0.1312,0.11709,1.0189
205.985,63.01749,-0.13253,0.1193,1.01865
206.685,63.24429,-0.13382,0.12158,1.0184
207.385,63.47075,-0.13481,0.12412,1.01815
208.085,63.6976,-0.13638,0.12809,1.0179
208.785,63.9253,-0.13711,0.12839,1.01765
209.485,64.15348,-0.13731,0.1298,1.01739
210.185,64.38158,-0.14073,0.13303,1.01714
210.885,64.61025,-0.14171,0.13347,1.01689
211.585,64.83887,-0.14453,0.13519,1.01663
212.285,65.06809,-0.1431,0.13361,1.01638
212.985,65.29595,-0.14488,0.1394,1.01613
213.685,65.5235,-0.14761,0.14036,1.01587
214.385,65.75014,-0.14962,0.14131,1.01561
215.085,65.9774,-0.15093,0.14673,1.01536
215.785,66.20363,-0.15225,0.1467,1.0151
216.485,66.43228,-0.15291,0.1498,1.01484
217.185,66.66071,-0.15573,0.15207,1.01458
217.885,66.89076,-0.15876,0.15399,1.01433
218.585,67.11836,-0.16145,0.1567,1.01407
219.285,67.34602,-0.16306,0.16249,1.01381
219.985,67.57313,-0.16622,0.16391,1.01355
220.685,67.80096,-0.16804,0.16667,1.01329
221.385,68.0287,-0.17122,0.17142,1.01302
222.085,68.25632,-0.17391,0.17649,1.01276
222.785,68.48447,-0.17636,0.17741,1.0125
223.485,68.7126,-0.18027,0.17715,1.01224
224.185,68.94155,-0.18276,0.1857,1.01197
224.885,69.1691,-0.18581,0.18823,1.01171
225.585,69.3968,-0.1875,0.19319,1.01144
226.285,69.62316,-0.19016,0.19616,1.01118
226.985,69.84997,-0.19274,0.19837,1.01091
227.685,70.07729,-0.19779,0.19865,1.01064
228.385,70.3053,-0.19903,0.20042,1.01038
229.085,70.5341,-0.20351,0.20431,1.01011
229.785,70.7629,-0.20752,0.20717,1.00984
230.485,70.99209,-0.20865,0.20861,1.00957
231.185,71.22025,-0.21337,0.21212,1.0093
231.885,71.44735,-0.21805,0.21331,1.00903
232.585,71.67429,-0.22052,0.2121,1.00876
233.285,71.9007,-0.22597,0.21253,1.00849
233.985,72.12784,-0.23027,0.21534,1.00822
234.685,72.35499,-0.23382,0.21597,1.00794
235.385,72.58279,-0.23781,0.21381,1.00767
236.085,72.81065,-0.24339,0.21362,1.0074
236.785,73.03831,-0.24734,0.2116,1.00712
237.485,73.26611,-0.2513,0.20989,1.00685
238.185,73.49387,-0.25607,0.20897,1.00657
238.885,73.72145,-0.25935,0.2097,1.0063
239.585,73.9491,-0.26479,0.20991,1.00602
240.285,74.17626,-0.26912,0.20967,1.00574
240.985,74.40386,-0.27459,0.21053,1.00546
241.685,74.63096,-0.27905,0.20682,1.00518
242.385,74.8575,-0.28175,0.20941,1.00491
243.085,75.0844,-0.28714,0.20834,1.00463
243.785,75.3108,-0.29115,0.20848,1.00434
244.485,75.53753,-0.29797,0.21082,1.00406
245.185,75.76439,-0.30154,0.21079,1.00378
245.885,75.9918,-0.30689,0.21292,1.0035
246.585,76.2196,-0.3113,0.21468,1.00322
247.285,76.44683,-0.31684,0.21376,1.00293
247.985,76.67466,-0.31949,0.21456,1.00265
248.685,76.90168,-0.32467,0.21671,1.00236
249.385,77.1289,-0.32881,0.21929,1.00208
250.085,77.3549,-0.33483,0.21873,1.00179
250.785,77.5821,-0.34089,0.21713,1.0015
251.485,77.8092,-0.34552,0.21548,1.00122
252.185,78.03739,-0.35053,0.21788,1.00093
252.885,78.26612,-0.35473,0.21682,1.00064
253.585,78.4953,-0.3601,0.21483,1.00035
254.285,78.72408,-0.36537,0.21632,1.00006
254.985,78.95229,-0.37071,0.21879,0.99977
255.685,79.18045,-0.37493,0.22055,0.99948
256.385,79.40779,-0.38248,0.22138,0.99919
257.085,79.6348,-0.38577,0.21861,0.99889
257.785,79.86075,-0.39052,0.21916,0.9986
258.485,80.0877,-0.39564,0.21581,0.99831
259.185,80.31384,-0.39981,0.21595,0.99801
259.885,80.54137,-0.40542,0.21285,0.99772
260.585,80.76815,-0.41086,0.21188,0.99742
261.285,80.99634,-0.41677,0.21022,0.99712
261.985,81.22447,-0.42296,0.20981,0.99683
262.685,81.45366,-0.42942,0.20983,0.99653
263.385,81.68268,-0.43501,0.21143,0.99623
264.085,81.9114,-0.43999,0.21021,0.99593
264.785,82.13981,-0.44586,0.20941,0.99563
265.485,82.36735,-0.45243,0.21036,0.99533
266.185,82.5942,-0.45847,0.21155,0.99503
266.885,82.82114,-0.46578,0.21149,0.99473
267.585,83.0478,-0.47113,0.21108,0.99443
268.285,83.2752,-0.47812,0.21143,0.99412
268.985,83.5019,-0.48339,0.21122,0.99382
269.685,83.72873,-0.49228,0.20857,0.99351
270.385,83.95545,-0.49875,0.21007,0.99321
271.085,84.1819,-0.50193,0.21289,0.9929
271.785,84.40948,-0.51083,0.20967,0.9926
272.485,84.63685,-0.51803,0.20878,0.99229
273.185,84.86493,-0.52513,0.20878,0.99198
273.885,85.09294,-0.53064,0.20679,0.99167
274.585,85.32079,-0.53813,0.20813,0.99136
275.285,85.54961,-0.54624,0.20457,0.99105
275.985,85.77756,-0.55444,0.20854,0.99074
276.685,86.005,-0.56203,0.20999,0.99043
277.385,86.23075,-0.56889,0.20958,0.99012
278.085,86.4567,-0.57623,0.20944,0.98981
278.785,86.6825,-0.58386,0.20869,0.98949
279.485,86.9087,-0.59329,0.21189,0.98918
280.185,87.13479,-0.60112,0.21079,0.98887
280.885,87.36097,-0.60851,0.21088,0.98855
281.585,87.58722,-0.61696,0.2132,0.98823
282.285,87.81415,-0.62485,0.2114,0.98792
282.985,88.04213,-0.63589,0.21085,0.9876
283.685,88.27104,-0.64364,0.21349,0.98728
284.385,88.50116,-0.65235,0.21184,0.98696
285.085,88.73105,-0.66213,0.21174,0.98664
285.785,88.96035,-0.67208,0.21245,0.98632
286.485,89.18885,-0.68191,0.21238,0.986
287.185,89.417,-0.69161,0.2143,0.98568
287.885,89.64533,-0.69962,0.21472,0.98536
288.585,89.87239,-0.71058,0.21572,0.98504
289.285,90.09945,-0.72033,0.21918,0.98471
289.985,90.32641,-0.73147,0.21548,0.98439
290.685,90.5545,-0.74133,0.21711,0.98406
291.385,90.78282,-0.75158,0.21599,0.98374
292.085,91.01105,-0.76291,0.21835,0.98341
292.785,91.23865,-0.77356,0.21699,0.98308
293.485,91.46704,-0.78435,0.21736,0.98275
294.185,91.69551,-0.79512,0.21611,0.98243
294.885,91.92505,-0.80657,0.2178,0.9821
295.585,92.15393,-0.81634,0.21904,0.98177
296.285,92.3823,-0.82822,0.21875,0.98144
296.985,92.6097,-0.84149,0.21742,0.9811
297.685,92.83689,-0.85218,0.22015,0.98077
298.385,93.0637,-0.86252,0.21656,0.98044
299.085,93.29061,-0.87486,0.21838,0.9801
299.785,93.51703,-0.88869,0.21783,0.97977
300.485,93.74471,-0.90125,0.21932,0.97943
301.185,93.9722,-0.91368,0.21562,0.9791
301.885,94.20013,-0.92416,0.21482,0.97876
302.585,94.42745,-0.93706,0.21173,0.97842
303.285,94.65599,-0.94981,0.21174,0.97809
303.985,94.8856,-0.96357,0.20873,0.97775
304.685,95.116,-0.97414,0.20824,0.97741
305.385,95.34603,-0.98707,0.20806,0.97707
306.085,95.57519,-1.00101,0.20683,0.97673
306.785,95.8035,-1.01329,0.20369,0.97638
307.485,96.0322,-1.02609,0.20356,0.97604
308.185,96.26045,-1.04001,0.20191,0.9757
308.885,96.4894,-1.05128,0.1986,0.97536
309.585,96.71687,-1.06605,0.19793,0.97501
310.285,96.945,-1.07953,0.19934,0.97466
310.985,97.1731,-1.09147,0.19587,0.97432
311.685,97.40137,-1.10421,0.19466,0.97397
312.385,97.62938,-1.11696,0.19025,0.97362
313.085,97.8565,-1.13165,0.18981,0.97328
313.785,98.08389,-1.14736,0.18622,0.97293
314.485,98.3113,-1.15888,0.18653,0.97258
315.185,98.53911,-1.17383,0.18277,0.97223
315.885,98.76765,-1.18566,0.18089,0.97187
316.585,98.99628,-1.20129,0.17877,0.97152
317.285,99.22508,-1.21317,0.17705,0.97117
317.985,99.4539,-1.22788,0.17639,0.97082
318.685,99.68305,-1.24091,0.17184,0.97046
319.385,99.913,-1.25413,0.17167,0.97011
320.085,100.143,-1.26854,0.1698,0.96975
320.785,100.374,-1.28295,0.16897,0.96939
321.485,100.603,-1.29592,0.16528,0.96904
322.185,100.831,-1.31147,0.16582,0.96868
322.885,101.059,-1.32433,0.16167,0.96832
323.585,101.285,-1.33761,0.16238,0.96796
324.285,101.512,-1.34947,0.1624,0.9676
324.985,101.74,-1.36224,0.16266,0.96724
325.685,101.968,-1.37404,0.15719,0.96687
326.385,102.196,-1.38998,0.153,0.96651
327.085,102.424,-1.40329,0.15361,0.96615
327.785,102.652,-1.41495,0.15178,0.96578
328.485,102.881,-1.42629,0.15171,0.96542
329.185,103.1097,-1.43882,0.14776,0.96505
329.885,103.339,-1.45104,0.14734,0.96469
330.585,103.569,-1.46217,0.14342,0.96432
331.285,103.799,-1.4711,0.14127,0.96395
331.985,104.029,-1.48432,0.13853,0.96358
332.685,104.259,-1.49487,0.13622,0.96321
333.385,104.488,-1.50394,0.1366,0.96284
334.085,104.717,-1.51601,0.13607,0.96247
334.785,104.944,-1.52579,0.13523,0.9621
335.485,105.1717,-1.53495,0.13367,0.96173
336.185,105.399,-1.54535,0.13114,0.96135
336.885,105.627,-1.55446,0.12939,0.96098
337.585,105.855,-1.56406,0.12788,0.9606
338.285,106.0835,-1.5739,0.12644,0.96023
338.985,106.3118,-1.58066,0.12523,0.95985
339.685,106.54,-1.58987,0.12328,0.95947
340.385,106.767,-1.59947,0.12157,0.95909
341.085,106.996,-1.60789,0.12246,0.95871
341.785,107.2255,-1.61524,0.12144,0.95833
342.485,107.456,-1.62486,0.11951,0.95795
343.185,107.686,-1.63146,0.11959,0.95757
343.885,107.9156,-1.6375,0.11751,0.95719
344.585,108.145,-1.64666,0.11614,0.95681
345.285,108.375,-1.65353,0.11771,0.95642
345.985,108.605,-1.65965,0.11492,0.95604
346.685,108.8332,-1.66765,0.11551,0.95565
347.385,109.062,-1.67299,0.1135,0.95527
348.085,109.292,-1.67968,0.11119,0.95488
348.785,109.522,-1.68645,0.10873,0.95449
349.485,109.751,-1.69467,0.10892,0.9541
350.185,109.98,-1.69861,0.1082,0.95371
350.885,110.209,-1.70525,0.10682,0.95332
351.585,110.438,-1.71065,0.10503,0.95293
352.285,110.668,-1.71912,0.10639,0.95254
352.985,110.897,-1.72404,0.10224,0.95215
353.685,111.127,-1.72926,0.10347,0.95176
354.385,111.357,-1.73743,0.10145,0.95136
355.085,111.587,-1.74152,0.10047,0.95097
355.785,111.817,-1.74669,0.10312,0.95057
356.485,112.047,-1.75285,0.09976287,0.95017
357.185,112.277,-1.75959,0.10127,0.94978
357.885,112.506,-1.7649,0.10379,0.94938
358.585,112.736,-1.76914,0.10164,0.94898
359.285,112.965,-1.7745,0.10192,0.94858
359.985,113.195,-1.77992,0.10456,0.94818
360.685,113.425,-1.78632,0.10238,0.94778
361.385,113.656,-1.7915,0.10222,0.94738
362.085,113.885,-1.79737,0.10352,0.94697
362.785,114.115,-1.80355,0.10076,0.94657
363.485,114.344,-1.80743,0.10167,0.94616
364.185,114.574,-1.81414,0.10235,0.94576
364.885,114.802,-1.82046,0.10403,0.94535
365.585,115.0307,-1.82719,0.10223,0.94495
366.285,115.26,-1.83001,0.09857742,0.94454
366.985,115.49,-1.8341,0.09616466,0.94413
367.685,115.722,-1.84116,0.09559787,0.94372
368.385,115.954,-1.84721,0.09827004,0.94331
369.085,116.1863,-1.8528,0.09781344,0.9429
369.785,116.4174,-1.85727,0.09800863,0.94249
370.485,116.6479,-1.85977,0.09723047,0.94207
371.185,116.8774,-1.86652,0.09787916,0.94166
371.885,117.107,-1.8715,0.10198,0.94125
372.585,117.3359,-1.87693,0.10052,0.94083
373.285,117.565,-1.88216,0.10016,0.94042
373.985,117.794,-1.88656,0.10063,0.94
374.685,118.023,-1.89158,0.10118,0.93958
375.385,118.252,-1.89643,0.10115,0.93916
376.085,118.481,-1.90155,0.09795365,0.93874
376.785,118.7104,-1.90748,0.10107,0.93832
377.485,118.94,-1.91277,0.0999344,0.9379
378.185,119.17,-1.91703,0.09743855,0.93748
378.885,119.399,-1.92315,0.09912707,0.93706
379.585,119.629,-1.92807,0.09745191,0.93663
380.285,119.859,-1.93224,0.09940258,0.93621
380.985,120.0887,-1.93738,0.09870814,0.93579
381.685,120.3186,-1.94328,0.09925563,0.93536
382.385,120.548,-1.94789,0.09757791,0.93493
383.085,120.778,-1.95209,0.09704857,0.93451
383.785,121.007,-1.95786,0.094402,0.93408
384.485,121.239,-1.96152,0.0935927,0.93365
385.185,121.47,-1.96818,0.09596191,0.93322
385.885,121.701,-1.97357,0.09467349,0.93279
386.585,121.932,-1.97775,0.09418208,0.93236
387.285,122.162,-1.98262,0.09440531,0.93192
387.985,122.393,-1.98844,0.0925454,0.93149
388.685,122.624,-1.9926,0.09329907,0.93106
389.385,122.855,-1.99734,0.09184841,0.93062
390.085,123.085,-2.00055,0.09130857,0.93018
390.785,123.314,-2.00679,0.09432597,0.92975
391.485,123.544,-2.01209,0.09073108,0.92931
392.185,123.773,-2.01526,0.08966441,0.92887
392.885,124.002,-2.02183,0.091318,0.92843
393.585,124.233,-2.02427,0.08844572,0.92799
394.285,124.465,-2.02849,0.08762139,0.92755
394.985,124.697,-2.03221,0.08742296,0.92711
395.685,124.93,-2.03876,0.08422056,0.92667
396.385,125.162,-2.04391,0.08684533,0.92622
397.085,125.394,-2.04664,0.08509809,0.92578
397.785,125.626,-2.05001,0.08688741,0.92534
398.485,125.856,-2.05349,0.08437063,0.92489
399.185,126.086,-2.05885,0.08617818,0.92444
399.885,126.316,-2.06265,0.08520586,0.924
400.585,126.546,-2.06662,0.08656165,0.92355
401.285,126.7772,-2.07066,0.08398188,0.9231
401.985,127.008,-2.07457,0.08564568,0.92265
402.685,127.238,-2.07841,0.08581669,0.9222
403.385,127.468,-2.08424,0.08540925,0.92175
404.085,127.698,-2.08603,0.08685277,0.92129
404.785,127.926,-2.08991,0.08329052,0.92084
405.485,128.154,-2.09498,0.08696205,0.92039
406.185,128.384,-2.09915,0.08458419,0.91993
406.885,128.615,-2.10176,0.0826774,0.91947
407.585,128.846,-2.10691,0.08400045,0.91902
408.285,129.075,-2.1092,0.08263337,0.91856
408.985,129.305,-2.11303,0.085622,0.9181
409.685,129.534,-2.11757,0.08431001,0.91764
410.385,129.764,-2.12158,0.08136762,0.91718
411.085,129.993,-2.12233,0.0810138,0.91672
411.785,130.223,-2.12805,0.0802479,0.91626
412.485,130.455,-2.1317,0.08106877,0.9158
413.185,130.688,-2.1355,0.08140191,0.91533
413.885,130.921,-2.13926,0.08141646,0.91487
414.585,131.154,-2.14153,0.08167622,0.9144
415.285,131.386,-2.14635,0.0787246,0.91394
415.985,131.617,-2.14955,0.07876228,0.91347
416.685,131.848,-2.15215,0.08007293,0.913
417.385,132.078,-2.15709,0.07874286,0.91254
418.085,132.308,-2.15955,0.07870455,0.91207
418.785,132.5374,-2.16391,0.07903199,0.9116
419.485,132.767,-2.16704,0.07572505,0.91113
420.185,132.998,-2.17071,0.07798895,0.91065
420.885,133.2307,-2.17464,0.07603324,0.91018
421.585,133.463,-2.17727,0.07484961,0.90971
422.285,133.695,-2.17988,0.07611841,0.90923
422.985,133.927,-2.18399,0.07442981,0.90876
423.685,134.158,-2.18652,0.07641815,0.90828
424.385,134.388,-2.19052,0.07690144,0.9078
425.085,134.619,-2.19209,0.07373947,0.90733
425.785,134.85,-2.19692,0.0740789,0.90685
426.485,135.081,-2.19888,0.07562848,0.90637
427.185,135.311,-2.20352,0.07288203,0.90589
427.885,135.542,-2.20613,0.07362244,0.90541
428.585,135.772,-2.2091,0.07026507,0.90492
429.285,136.002,-2.21222,0.07280986,0.90444
429.985,136.233,-2.21437,0.07224713,0.90396
430.685,136.463,-2.21563,0.06986067,0.90347
431.385,136.693,-2.2209,0.07165614,0.90299
432.085,136.924,-2.22356,0.07294295,0.9025
432.785,137.156,-2.22874,0.07065866,0.90201
433.485,137.388,-2.22845,0.06992421,0.90153
434.185,137.6203,-2.23113,0.07077691,0.90104
434.885,137.854,-2.23376,0.0674054,0.90055
435.585,138.087,-2.23541,0.06607122,0.90006
436.285,138.319,-2.24046,0.06626123,0.89957
436.985,138.552,-2.24198,0.06541554,0.89907
437.685,138.784,-2.2437,0.0663922,0.89858
438.385,139.015,-2.24659,0.06492897,0.89809
439.085,139.246,-2.24857,0.0628442,0.89759
439.785,139.478,-2.254,0.06121147,0.8971
440.485,139.71,-2.25346,0.06270369,0.8966
441.185,139.941,-2.25784,0.06127533,0.8961
441.885,140.174,-2.25875,0.06044435,0.8956
442.585,140.405,-2.2613,0.05953662,0.89511
443.285,140.636,-2.26464,0.05959858,0.89461
443.985,140.867,-2.26596,0.05850473,0.89411
444.685,141.1,-2.26765,0.05762472,0.8936
445.385,141.332,-2.2716,0.05802395,0.8931
446.085,141.564,-2.27258,0.05743291,0.8926
446.785,141.796,-2.27525,0.05661896,0.89209
447.485,142.03,-2.27785,0.05686164,0.89159
448.185,142.263,-2.28053,0.05518866,0.89108
448.885,142.495,-2.28315,0.0509409,0.89058
449.585,142.726,-2.28369,0.05247611,0.89007
450.285,142.9561,-2.28653,0.05614657,0.88956
450.985,143.186,-2.28838,0.05607194,0.88905
451.685,143.417,-2.2884,0.05232151,0.88854
452.385,143.648,-2.2923,0.05158308,0.88803
453.085,143.879,-2.29364,0.05277165,0.88752
453.785,144.111,-2.29632,0.05155703,0.88701
454.485,144.344,-2.29726,0.05279365,0.88649
455.185,144.578,-2.2999,0.05038416,0.88598
455.885,144.812,-2.30121,0.05041971,0.88546
456.585,145.045,-2.30523,0.04822041,0.88495
457.285,145.279,-2.30648,0.04544962,0.88443
457.985,145.5118,-2.30636,0.04786123,0.88391
458.685,145.744,-2.31053,0.04990941,0.8834
459.385,145.975,-2.31154,0.0500801,0.88288
460.085,146.206,-2.31271,0.04728303,0.88236
460.785,146.438,-2.31473,0.04796122,0.88183
461.485,146.67,-2.31735,0.04609833,0.88131
462.185,146.901,-2.31734,0.04684198,0.88079
462.885,147.1318,-2.31865,0.04743112,0.88027
463.585,147.3624,-2.32146,0.04916578,0.87974
464.285,147.5935,-2.31999,0.04734675,0.87922
464.985,147.824,-2.32258,0.04850158,0.87869
465.685,148.056,-2.32524,0.05012234,0.87816
466.385,148.288,-2.32701,0.05072508,0.87764
467.085,148.52,-2.32793,0.05164039,0.87711
467.785,148.753,-2.33062,0.05602476,0.87658
468.485,148.986,-2.33199,0.05831714,0.87605
469.185,149.218,-2.33282,0.06185071,0.87552
469.885,149.451,-2.33412,0.06249853,0.87499
470.585,149.682,-2.3351,0.06358372,0.87445
471.285,149.914,-2.33642,0.06812923,0.87392
471.985,150.146,-2.33807,0.06304463,0.87338
472.685,150.377,-2.33938,0.06722177,0.87285
473.385,150.609,-2.33993,0.0662479,0.87231
474.085,150.843,-2.34234,0.06468847,0.87178
474.785,151.076,-2.34366,0.06778688,0.87124
475.485,151.309,-2.34498,0.06735493,0.8707
476.185,151.542,-2.34629,0.06693358,0.87016
476.885,151.7753,-2.34762,0.06710274,0.86962
477.585,152.009,-2.34837,0.06756072,0.86908
478.285,152.243,-2.34991,0.0675375,0.86854
478.985,152.476,-2.35123,0.07113265,0.86799
479.685,152.708,-2.35354,0.07193188,0.86745
480.385,152.939,-2.35419,0.07551632,0.86691
481.085,153.17,-2.35485,0.07540456,0.86636
481.785,153.4,-2.35748,0.07564183,0.86581
482.485,153.631,-2.3578,0.07724826,0.86527
483.185,153.862,-2.36048,0.07709456,0.86472
483.885,154.094,-2.36176,0.0785934,0.86417
484.585,154.326,-2.36074,0.08028203,0.86362
485.285,154.559,-2.36191,0.0813233,0.86307
485.985,154.793,-2.36196,0.07791249,0.86252
486.685,155.026,-2.36558,0.07781611,0.86197
487.385,155.261,-2.36538,0.07848804,0.86141
488.085,155.4951,-2.36801,0.08015982,0.86086
488.785,155.7291,-2.37074,0.08285144,0.86031
489.485,155.963,-2.37098,0.08063191,0.85975
490.185,156.196,-2.37036,0.07921553,0.85919
490.885,156.429,-2.37065,0.07676831,0.85864
491.585,156.663,-2.37279,0.07141095,0.85808
492.285,156.897,-2.3746,0.06744355,0.85752
492.985,157.131,-2.3769,0.06690384,0.85696
493.685,157.365,-2.37365,0.06441253,0.8564
494.385,157.599,-2.37548,0.06324889,0.85584
495.085,157.832,-2.3781,0.06172716,0.85528
495.785,158.064,-2.37811,0.06007956,0.85471
496.485,158.295,-2.37797,0.06100684,0.85415
497.185,158.526,-2.37943,0.05702568,0.85359
497.885,158.757,-2.38133,0.05805816,0.85302
498.585,158.989,-2.38337,0.05831798,0.85245
499.285,159.221,-2.38238,0.0556273,0.85189
499.985,159.455,-2.3849,0.05516376,0.85132
500.685,159.6891,-2.38528,0.0510525,0.85075
501.385,159.923,-2.38469,0.04689938,0.85018
502.085,160.156,-2.38592,0.05038564,0.84961
502.785,160.388,-2.38733,0.04938623,0.84904
503.485,160.621,-2.38796,0.0495323,0.84847
504.185,160.856,-2.38996,0.04979161,0.8479
504.885,161.091,-2.3887,0.04698495,0.84732
505.585,161.327,-2.39094,0.04832306,0.84675
506.285,161.5613,-2.39127,0.0487037,0.84617
506.985,161.7947,-2.3926,0.04746578,0.8456
507.685,162.0268,-2.39457,0.05020206,0.84502
508.385,162.257,-2.39455,0.04894458,0.84444
509.085,162.489,-2.39674,0.04623736,0.84386
509.785,162.7211,-2.39719,0.04740349,0.84329
510.485,162.954,-2.39819,0.04672176,0.84271
511.185,163.188,-2.40022,0.04830422,0.84212
511.885,163.422,-2.4011,0.04347035,0.84154
512.585,163.657,-2.39983,0.04718617,0.84096
513.285,163.893,-2.40245,0.04368289,0.84038
513.985,164.13,-2.40264,0.04401864,0.83979
514.685,164.3658,-2.40312,0.04401461,0.83921
515.385,164.601,-2.40476,0.04393615,0.83862
516.085,164.834,-2.40344,0.04302778,0.83804
516.785,165.067,-2.40542,0.04489258,0.83745
517.485,165.301,-2.40539,0.04621868,0.83686
518.185,165.534,-2.40871,0.04591446,0.83627
518.885,165.767,-2.40871,0.04322133,0.83568
519.585,165.999,-2.40871,0.04510771,0.83509
520.285,166.231,-2.41069,0.04643525,0.8345
520.985,166.463,-2.41101,0.04709953,0.83391
521.685,166.695,-2.41101,0.04579846,0.83331
522.385,166.928,-2.41233,0.04458715,0.83272
523.085,167.161,-2.41364,0.04384206,0.83213
523.785,167.395,-2.41365,0.04148493,0.83153
524.485,167.629,-2.41629,0.04374507,0.83093
525.185,167.865,-2.42023,0.04121571,0.83034
525.885,168.101,-2.4176,0.04147589,0.82974
526.585,168.338,-2.41882,0.04147212,0.82914
527.285,168.573,-2.42104,0.04205731,0.82854
527.985,168.8067,-2.42187,0.04154625,0.82794
528.685,169.038,-2.42158,0.0429021,0.82734
529.385,169.269,-2.42319,0.04448767,0.82674
530.085,169.5,-2.42581,0.04897641,0.82614
530.785,169.732,-2.4255,0.04786328,0.82553
531.485,169.9645,-2.42548,0.04905268,0.82493
532.185,170.198,-2.42713,0.04992658,0.82433
532.885,170.433,-2.42881,0.04876405,0.82372
533.585,170.669,-2.43075,0.05060411,0.82311
534.285,170.9052,-2.43092,0.05219294,0.82251
534.985,171.1418,-2.43283,0.05064415,0.8219
535.685,171.378,-2.43372,0.05207113,0.82129
536.385,171.613,-2.4344,0.05275474,0.82068
537.085,171.8479,-2.43504,0.05395783,0.82007
537.785,172.081,-2.43635,0.0512032,0.81946
538.485,172.3148,-2.438,0.0538454,0.81885
539.185,172.548,-2.43727,0.05374347,0.81823
539.885,172.783,-2.43793,0.05454208,0.81762
540.585,173.018,-2.43986,0.0531153,0.81701
541.285,173.254,-2.44249,0.05225311,0.81639
541.985,173.489,-2.44395,0.05374892,0.81577
542.685,173.723,-2.44193,0.05120452,0.81516
543.385,173.957,-2.44264,0.05059918,0.81454
544.085,174.192,-2.44489,0.0490947,0.81392
544.785,174.427,-2.44612,0.04757174,0.8133
545.485,174.663,-2.44743,0.04767454,0.81268
546.185,174.897,-2.44594,0.04749764,0.81206
546.885,175.132,-2.44743,0.04534957,0.81144
547.585,175.365,-2.44875,0.0458077,0.81082
548.285,175.597,-2.45129,0.04637258,0.8102
548.985,175.83,-2.45082,0.04309502,0.80957
549.685,176.064,-2.4504,0.04337285,0.80895
550.385,176.3,-2.45169,0.04120452,0.80833
551.085,176.535,-2.45333,0.04256873,0.8077
551.785,176.769,-2.453,0.03897441,0.80707
552.485,177.003,-2.45206,0.04107442,0.80645
553.185,177.236,-2.4533,0.03857405,0.80582
553.885,177.468,-2.45467,0.03857974,0.80519
554.585,177.699,-2.4573,0.03688747,0.80456
555.285,177.933,-2.45664,0.03294775,0.80393
555.985,178.166,-2.45796,0.03397298,0.8033
556.685,178.402,-2.45875,0.03274017,0.80267
557.385,178.637,-2.4606,0.03292371,0.80203
558.085,178.873,-2.46158,0.02829579,0.8014
558.785,179.108,-2.4616,0.02865677,0.80077
559.485,179.342,-2.46022,0.02789517,0.80013
560.185,179.576,-2.46251,0.02793077,0.7995
560.885,179.81,-2.46388,0.02715582,0.79886
561.585,180.044,-2.46421,0.02243069,0.79822
562.285,180.2783,-2.46553,0.02399943,0.79758
562.985,180.514,-2.46783,0.02331036,0.79695
563.685,180.749,-2.46783,0.02224568,0.79631
564.385,180.984,-2.4675,0.01967636,0.79567
565.085,181.218,-2.46761,0.01959681,0.79503
565.785,181.451,-2.46685,0.01785432,0.79438
566.485,181.685,-2.46816,0.01681326,0.79374
567.185,181.918,-2.47076,0.01695071,0.7931
567.885,182.152,-2.47145,0.01491509,0.79245
568.585,182.3875,-2.47236,0.01365561,0.79181
569.285,182.623,-2.47013,0.01324411,0.79117
569.985,182.859,-2.47309,0.01542544,0.79052
570.685,183.093,-2.47309,0.01587335,0.78987
571.385,183.327,-2.47334,0.01333177,0.78923
572.085,183.561,-2.47143,0.01301964,0.78858
572.785,183.795,-2.47453,0.01020087,0.78793
573.485,184.028,-2.47517,0.01073046,0.78728
574.185,184.2618,-2.47519,0.009961384,0.78663
574.885,184.497,-2.47684,0.009690487,0.78598
575.585,184.733,-2.47814,0.009511771,0.78533
576.285,184.97,-2.47807,0.01233007,0.78467
576.985,185.206,-2.47918,0.008726431,0.78402
577.685,185.441,-2.47847,0.00947282,0.78337
578.385,185.675,-2.48116,0.01048489,0.78271
579.085,185.91,-2.48265,0.01028608,0.78206
579.785,186.145,-2.48406,0.01131032,0.7814
580.485,186.379,-2.48275,0.009083497,0.78074
581.185,186.614,-2.48409,0.0112009,0.78009
581.885,186.848,-2.48539,0.01160324,0.77943
582.585,187.083,-2.48637,0.00934674,0.77877
583.285,187.318,-2.48505,0.0065834,0.77811
583.985,187.555,-2.48769,0.00711226,0.77745
584.685,187.792,-2.48803,0.00606557,0.77679
585.385,188.029,-2.48834,0.004921325,0.77613
586.085,188.265,-2.48867,0.01068912,0.77546
586.785,188.4992,-2.48999,0.00697791,0.7748
587.485,188.733,-2.4913,0.00729148,0.77414
588.185,188.967,-2.49198,0.01221779,0.77347
588.885,189.1999,-2.49259,0.01225061,0.77281
589.585,189.4326,-2.49427,0.01546622,0.77214
590.285,189.665,-2.49494,0.01315059,0.77148
590.985,189.898,-2.49427,0.01492687,0.77081
591.685,190.133,-2.49658,0.01522743,0.77014
592.385,190.368,-2.49756,0.0190789,0.76947
593.085,190.604,-2.49891,0.01953008,0.7688
593.785,190.839,-2.49923,0.02107063,0.76813
594.485,191.075,-2.49865,0.02126198,0.76746
595.185,191.311,-2.5012,0.02608391,0.76679
595.885,191.548,-2.50313,0.02713493,0.76612
596.585,191.786,-2.50297,0.02761089,0.76545
597.285,192.024,-2.50684,0.0285059,0.76477
597.985,192.262,-2.50578,0.02890299,0.7641
598.685,192.498,-2.5071,0.02818881,0.76342
599.385,192.732,-2.50775,0.02983338,0.76275
600.085,192.965,-2.51039,0.03442455,0.76207
600.785,193.199,-2.51039,0.03380882,0.76139
601.485,193.433,-2.51169,0.03929928,0.76072
602.185,193.668,-2.51169,0.04132859,0.76004
602.885,193.903,-2.51565,0.04594877,0.75936
603.585,194.139,-2.51649,0.04766803,0.75868
604.285,194.374,-2.51631,0.04964728,0.758
604.985,194.6104,-2.52011,0.05202901,0.75732
605.685,194.845,-2.52026,0.05303602,0.75664
606.385,195.079,-2.52292,0.05890894,0.75596
607.085,195.311,-2.52314,0.06233905,0.75527
607.785,195.544,-2.52583,0.06409286,0.75459
608.485,195.777,-2.52683,0.06699122,0.75391
609.185,196.011,-2.53085,0.06739279,0.75322
609.885,196.246,-2.53178,0.07147344,0.75254
610.585,196.482,-2.53342,0.07491825,0.75185
611.285,196.72,-2.53335,0.07801077,0.75116
611.985,196.957,-2.53635,0.07779926,0.75048
612.685,197.194,-2.53866,0.08079213,0.74979
613.385,197.43,-2.54002,0.08354549,0.7491
614.085,197.667,-2.54131,0.08623665,0.74841
614.785,197.903,-2.54523,0.08901546,0.74772
615.485,198.138,-2.54673,0.09449797,0.74703
616.185,198.373,-2.54912,0.09619834,0.74634
616.885,198.606,-2.55123,0.09713602,0.74565
617.585,198.839,-2.55397,0.10268,0.74496
618.285,199.0712,-2.55646,0.10444,0.74426
618.985,199.303,-2.55763,0.11084,0.74357
619.685,199.5346,-2.55954,0.11329,0.74287
620.385,199.768,-2.56216,0.11733,0.74218
621.085,200.002,-2.56455,0.11616,0.74148
621.785,200.238,-2.56868,0.12017,0.74079
622.485,200.475,-2.56971,0.12548,0.74009
623.185,200.713,-2.57324,0.13195,0.73939
623.885,200.95,-2.577,0.1361,0.7387
624.585,201.186,-2.57925,0.14137,0.738
625.285,201.42,-2.58128,0.14583,0.7373
625.985,201.655,-2.58379,0.15002,0.7366
626.685,201.889,-2.58784,0.15401,0.7359
627.385,202.123,-2.59017,0.16121,0.7352
628.085,202.357,-2.5942,0.164,0.73449
628.785,202.592,-2.59871,0.1666,0.73379
629.485,202.828,-2.6013,0.17562,0.73309
630.185,203.064,-2.60437,0.17702,0.73239
630.885,203.3,-2.60793,0.1841,0.73168
631.585,203.5374,-2.61193,0.18609,0.73098
632.285,203.775,-2.61602,0.19242,0.73027
632.985,204.012,-2.61854,0.19601,0.72957
633.685,204.249,-2.62345,0.20139,0.72886
634.385,204.486,-2.6277,0.20915,0.72815
635.085,204.723,-2.63039,0.21024,0.72744
635.785,204.959,-2.63612,0.2168,0.72674
636.485,205.195,-2.63849,0.22283,0.72603
637.185,205.431,-2.64322,0.22296,0.72532
637.885,205.666,-2.64715,0.22994,0.72461
638.585,205.9003,-2.65108,0.23171,0.7239
639.285,206.134,-2.6559,0.24199,0.72319
639.985,206.366,-2.66108,0.24435,0.72247
640.685,206.599,-2.6657,0.25095,0.72176
641.385,206.832,-2.66999,0.25604,0.72105
642.085,207.067,-2.67622,0.26408,0.72034
642.785,207.302,-2.68032,0.27334,0.71962
643.485,207.537,-2.68423,0.27362,0.71891
644.185,207.771,-2.69078,0.28235,0.71819
644.885,208.007,-2.6975,0.28624,0.71748
645.585,208.242,-2.69983,0.2913,0.71676
646.285,208.479,-2.70626,0.29319,0.71604
646.985,208.716,-2.71301,0.30004,0.71533
647.685,208.954,-2.71968,0.30572,0.71461
648.385,209.193,-2.72351,0.30935,0.71389
649.085,209.43,-2.7288,0.31413,0.71317
649.785,209.667,-2.73624,0.31858,0.71245
650.485,209.903,-2.74028,0.32419,0.71173
651.185,210.1394,-2.74774,0.32822,0.71101
651.885,210.375,-2.75244,0.33441,0.71029
652.585,210.6112,-2.75912,0.3373,0.70957
653.285,210.847,-2.76473,0.339,0.70884
653.985,211.083,-2.77048,0.34332,0.70812
654.685,211.319,-2.7772,0.34389,0.7074
655.385,211.555,-2.7826,0.34526,0.70667
656.085,211.79,-2.78895,0.34963,0.70595
656.785,212.025,-2.79588,0.35232,0.70522
657.485,212.26,-2.80257,0.35259,0.7045
658.185,212.495,-2.80853,0.3531,0.70377
658.885,212.731,-2.81437,0.35243,0.70304
659.585,212.967,-2.82008,0.35415,0.70232
660.285,213.202,-2.82734,0.35114,0.70159
660.985,213.4373,-2.83323,0.35302,0.70086
661.685,213.673,-2.83765,0.35071,0.70013
662.385,213.908,-2.8454,0.34129,0.6994
663.085,214.143,-2.85083,0.34213,0.69867
663.785,214.378,-2.85734,0.33147,0.69794
664.485,214.615,-2.86212,0.32399,0.69721
665.185,214.853,-2.86941,0.31427,0.69648
665.885,215.09,-2.87356,0.29769,0.69575
666.585,215.325,-2.87948,0.28134,0.69502
667.285,215.56,-2.88639,0.26732,0.69428
667.985,215.794,-2.89124,0.24396,0.69355
668.685,216.031,-2.8945,0.2213,0.69282
669.385,216.267,-2.89979,0.19715,0.69208
670.085,216.503,-2.90242,0.17413,0.69135
670.785,216.74,-2.90371,0.15214,0.69061
671.485,216.978,-2.90753,0.12765,0.68988
672.185,217.215,-2.9103,0.10236,0.68914
672.885,217.451,-2.91074,0.08411475,0.6884
673.585,217.686,-2.9149,0.07025453,0.68767
674.285,217.921,-2.91735,0.0601831,0.68693
674.985,218.155,-2.91721,0.04626489,0.68619
675.685,218.391,-2.91962,0.04212979,0.68545
676.385,218.626,-2.91986,0.03322074,0.68471
677.085,218.862,-2.92083,0.02614798,0.68397
677.785,219.098,-2.92244,0.02166049,0.68323
678.485,219.336,-2.92296,0.01905137,0.68249
679.185,219.573,-2.92445,0.01442716,0.68175
679.885,219.809,-2.92431,0.0131455,0.68101
680.585,220.045,-2.92714,0.01239353,0.68027
681.285,220.2806,-2.9284,0.007695564,0.67952
681.985,220.518,-2.92939,0.007867552,0.67878
682.685,220.754,-2.92938,0.0010715,0.67804
683.385,220.99,-2.92864,-0.001388822,0.67729
684.085,221.226,-2.93005,-0.004445699,0.67655
684.785,221.461,-2.93136,-0.005042815,0.6758
685.485,221.697,-2.93169,-0.01230147,0.67506
686.185,221.932,-2.93301,-0.01298999,0.67431
686.885,222.169,-2.93121,-0.01505408,0.67357
687.585,222.405,-2.93359,-0.01635539,0.67282
688.285,222.641,-2.93465,-0.01534549,0.67207
688.985,222.876,-2.93558,-0.01731906,0.67133
689.685,223.114,-2.93564,-0.01921016,0.67058
690.385,223.351,-2.93563,-0.02056564,0.66983
691.085,223.589,-2.93598,-0.01928727,0.66908
691.785,223.826,-2.93761,-0.02234733,0.66833
692.485,224.063,-2.937,-0.02510034,0.66758
693.185,224.299,-2.93893,-0.02629801,0.66683
693.885,224.535,-2.93761,-0.02558932,0.66608
694.585,224.771,-2.93893,-0.02661018,0.66533
695.285,225.0062,-2.9393,-0.02973283,0.66458
695.985,225.241,-2.94021,-0.02541781,0.66383
696.685,225.477,-2.94127,-0.02485285,0.66307
697.385,225.713,-2.94157,-0.02842252,0.66232
698.085,225.95,-2.94285,-0.03017632,0.66157
698.785,226.187,-2.94157,-0.02706879,0.66081
699.485,226.424,-2.94283,-0.02782718,0.66006
700.185,226.66,-2.94321,-0.02852654,0.65931
700.885,226.894,-2.94419,-0.02377774,0.65855
701.585,227.129,-2.94419,-0.02194295,0.6578
702.285,227.365,-2.9455,-0.02723314,0.65704
702.985,227.603,-2.94551,-0.0273866,0.65629
703.685,227.841,-2.94554,-0.02805514,0.65553
704.385,228.078,-2.94811,-0.02581089,0.65477
705.085,228.316,-2.94552,-0.03023527,0.65401
705.785,228.553,-2.9457,-0.02647958,0.65326
706.485,228.789,-2.9468,-0.0281271,0.6525
707.185,229.026,-2.94715,-0.02940881,0.65174
707.885,229.2624,-2.94722,-0.02844266,0.65098
708.585,229.4981,-2.94947,-0.025671,0.65022
709.285,229.734,-2.94914,-0.0285671,0.64946
709.985,229.969,-2.95044,-0.02934004,0.6487
710.685,230.204,-2.95051,-0.03241993,0.64794
711.385,230.44,-2.95033,-0.03137353,0.64718
712.085,230.676,-2.95244,-0.0329638,0.64642
712.785,230.91,-2.9504,-0.03359292,0.64566
713.485,231.144,-2.95182,-0.03382778,0.6449
714.185,231.379,-2.95308,-0.03474253,0.64414
714.885,231.613,-2.95341,-0.03384424,0.64337
715.585,231.8488,-2.9544,-0.03543201,0.64261
716.285,232.087,-2.95322,-0.03349763,0.64185
716.985,232.325,-2.95431,-0.03702363,0.64109
717.685,232.564,-2.9555,-0.03731387,0.64032
718.385,232.802,-2.95519,-0.03975851,0.63956
719.085,233.042,-2.95679,-0.03984711,0.63879
719.785,233.281,-2.9558,-0.03855893,0.63803
720.485,233.5199,-2.95714,-0.0382528,0.63726
721.185,233.757,-2.95681,-0.03988881,0.6365
721.885,233.9944,-2.95821,-0.03755037,0.63573
722.585,234.23,-2.95945,-0.04198101,0.63496
723.285,234.465,-2.95816,-0.0441574,0.6342
723.985,234.7008,-2.95944,-0.04250844,0.63343
724.685,234.937,-2.95943,-0.04009038,0.63266
725.385,235.173,-2.96043,-0.04070675,0.6319
726.085,235.409,-2.9604,-0.04146505,0.63113
726.785,235.645,-2.95944,-0.04154699,0.63036
727.485,235.882,-2.96208,-0.04324477,0.62959
728.185,236.1196,-2.95944,-0.04354688,0.62882
728.885,236.357,-2.96208,-0.04452484,0.62805
729.585,236.595,-2.96091,-0.04463399,0.62728
730.285,236.832,-2.96207,-0.0473398,0.62651
730.985,237.069,-2.96437,-0.04764746,0.62574
731.685,237.306,-2.96471,-0.04453571,0.62497
732.385,237.543,-2.96504,-0.04513831,0.6242
733.085,237.781,-2.96471,-0.04861223,0.62343
733.785,238.018,-2.96471,-0.04857953,0.62266
734.485,238.255,-2.96534,-0.04992551,0.62189
735.185,238.4928,-2.96536,-0.04943173,0.62112
735.885,238.731,-2.96701,-0.05186825,0.62034
736.585,238.969,-2.96567,-0.05197791,0.61957
737.285,239.204,-2.96636,-0.05520432,0.6188
737.985,239.439,-2.96683,-0.05581183,0.61803
738.685,239.6739,-2.96692,-0.05559254,0.61725
739.385,239.91,-2.96833,-0.05468323,0.61648
740.085,240.148,-2.96893,-0.05365184,0.6157
740.785,240.385,-2.97171,-0.05301147,0.61493
741.485,240.623,-2.96833,-0.05567467,0.61416
742.185,240.861,-2.96931,-0.05154371,0.61338
742.885,241.098,-2.97096,-0.05525235,0.61261
743.585,241.335,-2.97129,-0.05855622,0.61183
744.285,241.5714,-2.97129,-0.05865841,0.61105
744.985,241.808,-2.97368,-0.06263511,0.61028
745.685,242.045,-2.97394,-0.0619858,0.6095
746.385,242.281,-2.97327,-0.06478271,0.60873
747.085,242.517,-2.97329,-0.0638442,0.60795
747.785,242.753,-2.97436,-0.06298986,0.60717
748.485,242.99,-2.97531,-0.05922964,0.6064
749.185,243.226,-2.97468,-0.05966213,0.60562
749.885,243.463,-2.97601,-0.05931735,0.60484
750.585,243.7,-2.977,-0.05827077,0.60406
751.285,243.938,-2.97568,-0.06482853,0.60328
751.985,244.176,-2.97689,-0.06139095,0.60251
752.685,244.415,-2.97831,-0.06025377,0.60173
753.385,244.653,-2.97897,-0.06117394,0.60095
754.085,244.889,-2.97759,-0.06151123,0.60017
754.785,245.125,-2.97897,-0.06694586,0.59939
755.485,245.359,-2.98098,-0.06790673,0.59861
756.185,245.595,-2.97944,-0.06713435,0.59783
756.885,245.831,-2.98193,-0.06829764,0.59705
757.585,246.068,-2.97963,-0.07030977,0.59627
758.285,246.306,-2.98063,-0.06754871,0.59549
758.985,246.544,-2.98193,-0.07239629,0.59471
759.685,246.781,-2.98259,-0.07138683,0.59393
760.385,247.019,-2.98292,-0.07234507,0.59315
761.085,247.256,-2.98424,-0.0702978,0.59236
761.785,247.495,-2.98423,-0.07560922,0.59158
762.485,247.734,-2.98555,-0.07692102,0.5908
763.185,247.972,-2.98552,-0.07688108,0.59002
763.885,248.209,-2.98408,-0.08028784,0.58924
764.585,248.446,-2.98325,-0.07783452,0.58845
765.285,248.682,-2.98555,-0.07653232,0.58767
765.985,248.919,-2.98725,-0.07793733,0.58689
766.685,249.156,-2.98588,-0.08191506,0.5861
767.385,249.395,-2.98719,-0.08001316,0.58532
768.085,249.6336,-2.98857,-0.07264618,0.58454
768.785,249.873,-2.98751,-0.08035025,0.58375
769.485,250.111,-2.98937,-0.07876926,0.58297
770.185,250.349,-2.98983,-0.07882162,0.58219
770.885,250.586,-2.98983,-0.08317442,0.5814
771.585,250.824,-2.98982,-0.08520842,0.58062
772.285,251.061,-2.99082,-0.08556532,0.57983
772.985,251.2984,-2.99114,-0.09114376,0.57905
773.685,251.535,-2.99113,-0.09344942,0.57826
774.385,251.7705,-2.99246,-0.09154852,0.57748
775.085,252.006,-2.99246,-0.0912015,0.57669
775.785,252.242,-2.9939,-0.09219686,0.57591
776.485,252.479,-2.99377,-0.09351399,0.57512
777.185,252.716,-2.99509,-0.09098511,0.57434
777.885,252.954,-2.99378,-0.09262512,0.57355
778.585,253.193,-2.99429,-0.09440663,0.57277
779.285,253.433,-2.99637,-0.09826425,0.57198
779.985,253.672,-2.99671,-0.09307469,0.57119
780.685,253.91,-2.99545,-0.09516005,0.57041
781.385,254.147,-2.99673,-0.09523444,0.56962
782.085,254.384,-2.99805,-0.09809022,0.56883
782.785,254.622,-2.9976,-0.09626039,0.56805
783.485,254.859,-2.99905,-0.09741435,0.56726
784.185,255.096,-2.9997,-0.09651211,0.56647
784.885,255.331,-3.00061,-0.09162426,0.56568
785.585,255.567,-3.002,-0.09815206,0.5649
786.285,255.803,-3.00124,-0.10212,0.56411
786.985,256.04,-3.00069,-0.10171,0.56332
787.685,256.277,-3.0025,-0.09976986,0.56253
788.385,256.513,-3.00234,-0.10144,0.56175
789.085,256.751,-3.00299,-0.09564171,0.56096
789.785,256.987,-3.00294,-0.10057,0.56017
790.485,257.224,-3.00558,-0.09724375,0.55938
791.185,257.463,-3.00534,-0.09940277,0.55859
791.885,257.702,-3.0066,-0.10135,0.55781
792.585,257.94,-3.00662,-0.10579,0.55702
793.285,258.179,-3.00661,-0.10181,0.55623
793.985,258.417,-3.00793,-0.10917,0.55544
794.685,258.656,-3.00794,-0.10017,0.55465
795.385,258.894,-3.00924,-0.11445,0.55386
796.085,259.133,-3.00825,-0.11879,0.55307
796.785,259.372,-3.0082,-0.12032,0.55228
797.485,259.61,-3.01062,-0.11922,0.55149
798.185,259.847,-3.01055,-0.11729,0.5507
798.585,259.981,-3.01189,-0.11899,0.55025