File: 01_Data/Bean_Bag_Chair_Outer_Cover/STA/N2/30K_min/Bean_Bag_Cover_STA_N2_30KData_220512_R2.csv
##Temp./Â°C,Time/min,Mass loss(subtr.2)/mg,DSC(subtr.2)/(mW/mg),Sensit./(uV/mW)
48.571,10.00667,-0.0179,0.005170363,1.054
49.271,10.55932,-0.02000744,0.0361458,1.05386
49.971,10.6846,-0.01884926,0.06784343,1.05372
50.671,10.77481,-0.01976467,0.09606124,1.05357
51.371,10.8481,-0.02082311,0.12292,1.05343
52.071,10.91103,-0.02020954,0.1482,1.05328
52.771,10.96756,-0.02076692,0.17071,1.05314
53.471,11.01944,-0.02103183,0.1936,1.05299
54.171,11.06743,-0.02089109,0.21459,1.05284
54.871,11.1122,-0.01868426,0.23259,1.05269
55.571,11.15466,-0.02091512,0.25105,1.05254
56.271,11.19555,-0.02277299,0.26977,1.05239
56.971,11.23443,-0.02317511,0.28692,1.05224
57.671,11.2719,-0.02278091,0.30335,1.05209
58.371,11.30832,-0.02133655,0.31796,1.05193
59.071,11.34335,-0.0198676,0.33452,1.05178
59.771,11.37754,-0.02044507,0.34862,1.05162
60.471,11.41085,-0.02151893,0.36263,1.05147
61.171,11.44325,-0.0215436,0.3759,1.05131
61.871,11.47533,-0.02131834,0.39199,1.05115
62.571,11.50671,-0.02174057,0.40338,1.05099
63.271,11.53735,-0.02256739,0.4147,1.05083
63.971,11.56751,-0.02237902,0.42727,1.05067
64.671,11.59731,-0.02089273,0.43775,1.05051
65.371,11.62641,-0.02126419,0.45164,1.05035
66.071,11.65537,-0.02134478,0.46075,1.05019
66.771,11.68395,-0.02227477,0.47134,1.05002
67.471,11.71228,-0.02407128,0.48441,1.04986
68.171,11.74038,-0.0234309,0.49227,1.04969
68.871,11.76817,-0.02221425,0.50166,1.04953
69.571,11.79577,-0.02356802,0.51058,1.04936
70.271,11.823,-0.02377839,0.51987,1.04919
70.971,11.84992,-0.02426277,0.53067,1.04902
71.671,11.8767,-0.02425824,0.54111,1.04885
72.371,11.90284,-0.02439719,0.54768,1.04868
73.071,11.9289,-0.0243738,0.55706,1.04851
73.771,11.955,-0.02414041,0.56457,1.04833
74.471,11.98129,-0.02419495,0.57419,1.04816
75.171,12.00758,-0.02365072,0.58251,1.04799
75.871,12.0339,-0.02401573,0.59155,1.04781
76.571,12.0601,-0.0235978,0.60161,1.04763
77.271,12.08577,-0.02258139,0.60784,1.04746
77.971,12.1113,-0.02306001,0.61596,1.04728
78.671,12.13663,-0.02458554,0.62476,1.0471
79.371,12.16183,-0.02631081,0.63136,1.04692
80.071,12.1869,-0.02725277,0.63794,1.04674
80.771,12.21208,-0.02769304,0.64804,1.04656
81.471,12.23714,-0.02672615,0.65431,1.04637
82.171,12.2621,-0.02459011,0.66491,1.04619
82.871,12.28687,-0.0254695,0.67033,1.04601
83.571,12.31161,-0.02692906,0.67684,1.04582
84.271,12.3363,-0.02812489,0.68497,1.04564
84.971,12.36096,-0.02897861,0.69174,1.04545
85.671,12.38545,-0.02962333,0.70088,1.04526
86.371,12.4098,-0.03057449,0.70695,1.04507
87.071,12.43413,-0.03009009,0.7145,1.04488
87.771,12.45848,-0.02955348,0.72069,1.04469
88.471,12.48281,-0.02991249,0.72715,1.0445
89.171,12.50707,-0.02954085,0.7341,1.04431
89.871,12.5312,-0.03036907,0.74101,1.04412
90.571,12.55515,-0.02954472,0.74873,1.04392
91.271,12.57906,-0.02949683,0.75468,1.04373
91.971,12.60299,-0.03088144,0.7603,1.04353
92.671,12.6267,-0.02953071,0.76692,1.04334
93.371,12.6505,-0.02953488,0.77106,1.04314
94.071,12.67435,-0.03060077,0.77998,1.04294
94.771,12.69829,-0.03085865,0.78535,1.04274
95.471,12.72227,-0.03107832,0.79017,1.04255
96.171,12.74598,-0.03085771,0.7977,1.04235
96.871,12.76966,-0.03186789,0.80385,1.04214
97.571,12.7933,-0.03216983,0.80887,1.04194
98.271,12.8169,-0.03094781,0.81151,1.04174
98.971,12.84048,-0.03087489,0.81568,1.04153
99.671,12.8639,-0.03215851,0.82184,1.04133
100.371,12.88742,-0.03216919,0.82627,1.04112
101.071,12.911,-0.03254522,0.83007,1.04092
101.771,12.93463,-0.03349148,0.83434,1.04071
102.471,12.95824,-0.03393211,0.83926,1.0405
103.171,12.98167,-0.03481336,0.84465,1.04029
103.871,13.0052,-0.03480997,0.84479,1.04008
104.571,13.02862,-0.03481057,0.84987,1.03987
105.271,13.05215,-0.03477186,0.85317,1.03966
105.971,13.0756,-0.03610593,0.8546,1.03945
106.671,13.09901,-0.03612008,0.85633,1.03924
107.371,13.12236,-0.03612005,0.8601,1.03902
108.071,13.14581,-0.03611774,0.86196,1.03881
108.771,13.1692,-0.03709106,0.86268,1.03859
109.471,13.1927,-0.03744064,0.86516,1.03838
110.171,13.21602,-0.03744031,0.86434,1.03816
110.871,13.23939,-0.03743127,0.86423,1.03794
111.571,13.2628,-0.03877916,0.86666,1.03772
112.271,13.28606,-0.03875994,0.86843,1.0375
112.971,13.3093,-0.03876079,0.86964,1.03728
113.671,13.3326,-0.03873237,0.86837,1.03706
114.371,13.3559,-0.04005975,0.8694,1.03684
115.071,13.37921,-0.04100869,0.86832,1.03662
115.771,13.40245,-0.0410588,0.86888,1.03639
116.471,13.42576,-0.04106001,0.86514,1.03617
117.171,13.4489,-0.04106,0.86566,1.03594
117.871,13.47207,-0.04105998,0.86368,1.03572
118.571,13.49494,-0.04105807,0.86432,1.03549
119.271,13.5181,-0.04150081,0.86341,1.03526
119.971,13.54137,-0.04281304,0.86428,1.03503
120.671,13.56487,-0.04280259,0.85885,1.0348
121.371,13.58811,-0.04415619,0.85727,1.03457
122.071,13.6111,-0.04413975,0.85608,1.03434
122.771,13.6341,-0.04414,0.85255,1.03411
123.471,13.6571,-0.04414001,0.84992,1.03388
124.171,13.68004,-0.04414001,0.84937,1.03364
124.871,13.70304,-0.04409423,0.84543,1.03341
125.571,13.726,-0.04546901,0.84289,1.03317
126.271,13.74903,-0.04546026,0.83812,1.03294
126.971,13.772,-0.04546035,0.83604,1.0327
127.671,13.7949,-0.04550322,0.83309,1.03246
128.371,13.8177,-0.0449586,0.82912,1.03222
129.071,13.8405,-0.04480194,0.82752,1.03199
129.771,13.8634,-0.04598944,0.82566,1.03175
130.471,13.8862,-0.04699879,0.82426,1.0315
131.171,13.90899,-0.04699063,0.82253,1.03126
131.871,13.9317,-0.04697358,0.8184,1.03102
132.571,13.95442,-0.0483137,0.81444,1.03078
133.271,13.97706,-0.04828137,0.81468,1.03053
133.971,13.9996,-0.04961313,0.81111,1.03029
134.671,14.02234,-0.04960977,0.80998,1.03004
135.371,14.04495,-0.04841798,0.80716,1.0298
136.071,14.06776,-0.04831082,0.80682,1.02955
136.771,14.0903,-0.04829091,0.80414,1.0293
137.471,14.11297,-0.04962876,0.8033,1.02905
138.171,14.13553,-0.04829088,0.80048,1.0288
138.871,14.15806,-0.04831022,0.80101,1.02855
139.571,14.18046,-0.04831,0.7971,1.0283
140.271,14.20287,-0.04831,0.79513,1.02805
140.971,14.2253,-0.04831,0.7962,1.02779
141.671,14.24779,-0.04831,0.794,1.02754
142.371,14.2702,-0.04831,0.79326,1.02729
143.071,14.29255,-0.04831,0.79501,1.02703
143.771,14.31485,-0.04831,0.79195,1.02678
144.471,14.33725,-0.04831,0.79093,1.02652
145.171,14.3596,-0.04830997,0.79178,1.02626
145.871,14.3819,-0.04829916,0.79163,1.026
146.571,14.40412,-0.04955777,0.79358,1.02574
147.271,14.42635,-0.04963011,0.79402,1.02548
147.971,14.44855,-0.04963022,0.7933,1.02522
148.671,14.47078,-0.04961057,0.79268,1.02496
149.371,14.4931,-0.05093523,0.79315,1.0247
150.071,14.51535,-0.05093964,0.79619,1.02444
150.771,14.5376,-0.05093998,0.79738,1.02417
151.471,14.55974,-0.05094029,0.79563,1.02391
152.171,14.58177,-0.05044243,0.79708,1.02364
152.871,14.60385,-0.04962428,0.79753,1.02338
153.571,14.626,-0.04961998,0.80009,1.02311
154.271,14.64814,-0.04962,0.80041,1.02284
154.971,14.67025,-0.04962,0.79887,1.02257
155.671,14.6923,-0.04962002,0.80312,1.0223
156.371,14.71427,-0.04962124,0.8034,1.02203
157.071,14.73634,-0.05026259,0.80626,1.02176
157.771,14.7584,-0.04965626,0.80566,1.02149
158.471,14.7805,-0.04962012,0.80654,1.02122
159.171,14.8024,-0.04961999,0.81035,1.02094
159.871,14.82436,-0.04962,0.81292,1.02067
160.571,14.8464,-0.04962,0.81342,1.0204
161.271,14.8683,-0.04962,0.81643,1.02012
161.971,14.8903,-0.04961999,0.81722,1.01984
162.671,14.9122,-0.04962026,0.81798,1.01957
163.371,14.93414,-0.04963633,0.81804,1.01929
164.071,14.956,-0.0509581,0.82265,1.01901
164.771,14.978,-0.05098997,0.82547,1.01873
165.471,15,-0.04962986,0.82569,1.01845
166.171,15.022,-0.04962975,0.82757,1.01817
166.871,15.0439,-0.04963001,0.82808,1.01789
167.571,15.0657,-0.04963,0.83365,1.01761
168.271,15.08756,-0.04963,0.83271,1.01732
168.971,15.10915,-0.04963,0.83437,1.01704
169.671,15.131,-0.04963,0.83701,1.01676
170.371,15.1528,-0.04963,0.84003,1.01647
171.071,15.1747,-0.04962989,0.84213,1.01618
171.771,15.19665,-0.0496431,0.84409,1.0159
172.471,15.21843,-0.0508506,0.8449,1.01561
173.171,15.24022,-0.05094981,0.84524,1.01532
173.871,15.26194,-0.05095002,0.84802,1.01503
174.571,15.28375,-0.05095,0.84941,1.01474
175.271,15.3054,-0.05095,0.85219,1.01445
175.971,15.32714,-0.05095,0.8537,1.01416
176.671,15.3488,-0.05095,0.85834,1.01387
177.371,15.3704,-0.05094998,0.85804,1.01358
178.071,15.39216,-0.05095074,0.85913,1.01328
178.771,15.4137,-0.05096798,0.86099,1.01299
179.471,15.43544,-0.05224616,0.86271,1.01269
180.171,15.45706,-0.05226023,0.86354,1.0124
180.871,15.4787,-0.05226,0.86516,1.0121
181.571,15.5002,-0.05226,0.86866,1.0118
182.271,15.52174,-0.05226,0.87203,1.01151
182.971,15.5433,-0.05226,0.87265,1.01121
183.671,15.5648,-0.05226,0.87431,1.01091
184.371,15.58627,-0.05226,0.8754,1.01061
185.071,15.60781,-0.05226003,0.87544,1.01031
185.771,15.6293,-0.05225597,0.8798,1.01001
186.471,15.65083,-0.05151231,0.88014,1.0097
187.171,15.6723,-0.05095246,0.8819,1.0094
187.871,15.6937,-0.04939129,0.88407,1.0091
188.571,15.71519,-0.04939868,0.88553,1.00879
189.271,15.7367,-0.04964159,0.88904,1.00849
189.971,15.7581,-0.05092846,0.89022,1.00818
190.671,15.77953,-0.05094005,0.89111,1.00787
191.371,15.80095,-0.05094,0.89433,1.00757
192.071,15.8225,-0.05094072,0.89522,1.00726
192.771,15.8439,-0.05088921,0.89741,1.00695
193.471,15.8653,-0.05228162,0.89992,1.00664
194.171,15.8867,-0.05226,0.90025,1.00633
194.871,15.9081,-0.05226,0.90388,1.00602
195.571,15.92955,-0.05226,0.90576,1.00571
196.271,15.9509,-0.05225992,0.90732,1.00539
196.971,15.97229,-0.05226305,0.90765,1.00508
197.671,15.9936,-0.05157782,0.9114,1.00477
198.371,16.01495,-0.05126895,0.91374,1.00445
199.071,16.0363,-0.05127002,0.91226,1.00414
199.771,16.05763,-0.05127,0.91737,1.00382
200.471,16.07903,-0.05127,0.91823,1.0035
201.171,16.1003,-0.05127,0.91993,1.00319
201.871,16.1216,-0.05127,0.91949,1.00287
202.571,16.1428,-0.05126974,0.92219,1.00255
203.271,16.1641,-0.05128641,0.92531,1.00223
203.971,16.1854,-0.05223508,0.9253,1.00191
204.671,16.20671,-0.05225999,0.92664,1.00159
205.371,16.22802,-0.05226,0.93054,1.00127
206.071,16.24931,-0.05226004,0.93088,1.00094
206.771,16.27065,-0.05225755,0.93524,1.00062
207.471,16.29192,-0.05252777,0.93603,1.0003
208.171,16.3132,-0.05324146,0.93735,0.99997
208.871,16.33444,-0.05364824,0.93854,0.99965
209.571,16.35567,-0.05391189,0.94304,0.99932
210.271,16.37698,-0.05390997,0.94452,0.99899
210.971,16.3982,-0.05391,0.94445,0.99867
211.671,16.41948,-0.05391,0.94432,0.99834
212.371,16.44077,-0.05390999,0.94701,0.99801
213.071,16.46197,-0.0539108,0.94849,0.99768
213.771,16.48323,-0.05380765,0.95157,0.99735
214.471,16.5044,-0.0525774,0.95239,0.99702
215.171,16.52567,-0.0525901,0.95474,0.99669
215.871,16.54697,-0.05259,0.95457,0.99636
216.571,16.5682,-0.05259,0.95646,0.99602
217.271,16.5895,-0.05259,0.95914,0.99569
217.971,16.61071,-0.05259,0.95897,0.99536
218.671,16.63194,-0.05259,0.9619,0.99502
219.371,16.65316,-0.05259,0.96388,0.99469
220.071,16.67434,-0.05259,0.96468,0.99435
220.771,16.69549,-0.05259,0.96701,0.99401
221.471,16.71656,-0.05259,0.96668,0.99367
222.171,16.73762,-0.05259,0.96899,0.99334
222.871,16.7589,-0.05259,0.97047,0.993
223.571,16.78013,-0.05259,0.97151,0.99266
224.271,16.8016,-0.05259,0.97244,0.99232
224.971,16.82281,-0.05259031,0.97437,0.99198
225.671,16.844,-0.05257085,0.9753,0.99163
226.371,16.8651,-0.05387405,0.97785,0.99129
227.071,16.88625,-0.05389323,0.97766,0.99095
227.771,16.9074,-0.05522296,0.9773,0.99061
228.471,16.9286,-0.0551807,0.98053,0.99026
229.171,16.94979,-0.05389163,0.98348,0.98992
229.871,16.97097,-0.05391463,0.98296,0.98957
230.571,16.9921,-0.05481345,0.98484,0.98922
231.271,17.01323,-0.0549,0.98568,0.98888
231.971,17.0344,-0.05532722,0.98677,0.98853
232.671,17.05552,-0.05658018,0.98795,0.98818
233.371,17.07658,-0.05654943,0.98815,0.98783
234.071,17.09764,-0.05655001,0.98872,0.98748
234.771,17.1188,-0.05655,0.99147,0.98713
235.471,17.13994,-0.05655,0.99082,0.98678
236.171,17.1612,-0.05655,0.99366,0.98643
236.871,17.1824,-0.05655,0.99222,0.98608
237.571,17.20339,-0.05655,0.99528,0.98572
238.271,17.22446,-0.05655,0.99835,0.98537
238.971,17.24555,-0.05655,0.99731,0.98501
239.671,17.26675,-0.05655,0.99945,0.98466
240.371,17.2879,-0.05655,1.00145,0.9843
241.071,17.3091,-0.05655002,1.00065,0.98395
241.771,17.33023,-0.05654878,1.0025,0.98359
242.471,17.35125,-0.05671905,1.00335,0.98323
243.171,17.37239,-0.05786509,1.00426,0.98287
243.871,17.39339,-0.05786,1.0066,0.98252
244.571,17.4145,-0.05786012,1.00791,0.98216
245.271,17.43563,-0.05784634,1.01026,0.9818
245.971,17.45671,-0.05906379,1.01129,0.98143
246.671,17.47782,-0.05915243,1.01146,0.98107
247.371,17.49887,-0.06046534,1.01333,0.98071
248.071,17.51989,-0.06049004,1.01382,0.98035
248.771,17.54094,-0.06049027,1.01598,0.97998
249.471,17.56213,-0.06045677,1.01946,0.97962
250.171,17.58325,-0.061859,1.02312,0.97926
250.871,17.60436,-0.06180928,1.02262,0.97889
251.571,17.6254,-0.06181093,1.02393,0.97852
252.271,17.64644,-0.06179841,1.02567,0.97816
252.971,17.66747,-0.06279757,1.02785,0.97779
253.671,17.6886,-0.06279997,1.03108,0.97742
254.371,17.70965,-0.06280805,1.03325,0.97705
255.071,17.73084,-0.06314553,1.03341,0.97669
255.771,17.7519,-0.06311661,1.036,0.97632
256.471,17.77281,-0.06371473,1.03775,0.97594
257.171,17.7938,-0.06444131,1.0379,0.97557
257.871,17.8148,-0.06444221,1.03997,0.9752
258.571,17.836,-0.06503266,1.04273,0.97483
259.271,17.85715,-0.06575571,1.04321,0.97446
259.971,17.87826,-0.06575981,1.04643,0.97408
260.671,17.89935,-0.06576678,1.04894,0.97371
261.371,17.92043,-0.06709743,1.05003,0.97333
262.071,17.94154,-0.0670793,1.0523,0.97296
262.771,17.9626,-0.06706518,1.05467,0.97258
263.471,17.9836,-0.06829567,1.05599,0.97221
264.171,18.0046,-0.06839596,1.05812,0.97183
264.871,18.02559,-0.06928127,1.05997,0.97145
265.571,18.04668,-0.06971004,1.06143,0.97107
266.271,18.06776,-0.07014073,1.06502,0.97069
266.971,18.08894,-0.07102456,1.06459,0.97031
267.671,18.10999,-0.07104315,1.06513,0.96993
268.371,18.13106,-0.07219067,1.06693,0.96955
269.071,18.15209,-0.07236193,1.07047,0.96917
269.771,18.17314,-0.07375585,1.07283,0.96879
270.471,18.19414,-0.074751,1.07136,0.9684
271.171,18.21511,-0.07525893,1.07408,0.96802
271.871,18.2362,-0.07607467,1.07596,0.96764
272.571,18.2572,-0.07609395,1.0776,0.96725
273.271,18.27825,-0.07728628,1.0793,0.96687
273.971,18.29936,-0.07740729,1.08111,0.96648
274.671,18.32049,-0.07873891,1.08096,0.96609
275.371,18.3416,-0.07823502,1.08386,0.96571
276.071,18.36273,-0.07741594,1.08515,0.96532
276.771,18.38382,-0.07849508,1.08749,0.96493
277.471,18.40493,-0.07872394,1.08753,0.96454
278.171,18.426,-0.08009444,1.08932,0.96415
278.871,18.447,-0.08086518,1.09195,0.96376
279.571,18.46814,-0.08299502,1.094,0.96337
280.271,18.4891,-0.0839915,1.09381,0.96298
280.971,18.51024,-0.08442915,1.09581,0.96259
281.671,18.53131,-0.08520498,1.09635,0.9622
282.371,18.55237,-0.0858469,1.09874,0.9618
283.071,18.57349,-0.08619324,1.102,0.96141
283.771,18.59441,-0.08716819,1.10288,0.96102
284.471,18.6155,-0.08768652,1.10196,0.96062
285.171,18.63661,-0.08787028,1.10423,0.96023
285.871,18.65775,-0.08870801,1.10444,0.95983
286.571,18.67897,-0.08925736,1.1069,0.95943
287.271,18.70005,-0.09068307,1.10865,0.95904
287.971,18.7211,-0.09150771,1.11112,0.95864
288.671,18.74227,-0.09236894,1.11287,0.95824
289.371,18.76342,-0.09371268,1.11374,0.95784
290.071,18.78451,-0.09509125,1.11382,0.95744
290.771,18.80562,-0.09513589,1.11746,0.95704
291.471,18.82676,-0.09804018,1.11889,0.95664
292.171,18.8479,-0.09889022,1.12118,0.95624
292.871,18.86899,-0.09972978,1.11907,0.95584
293.571,18.8901,-0.10104,1.12241,0.95543
294.271,18.91114,-0.10306,1.12377,0.95503
294.971,18.93229,-0.10464,1.12586,0.95463
295.671,18.95352,-0.10542,1.12941,0.95422
296.371,18.9746,-0.1063,1.12997,0.95382
297.071,18.99571,-0.10783,1.1321,0.95341
297.771,19.01679,-0.1094,1.1328,0.95301
298.471,19.03785,-0.11109,1.13498,0.9526
299.171,19.05902,-0.1125,1.13655,0.95219
299.871,19.08021,-0.11454,1.13882,0.95179
300.571,19.10142,-0.11669,1.14112,0.95138
301.271,19.12261,-0.11841,1.14243,0.95097
301.971,19.14379,-0.11913,1.14546,0.95056
302.671,19.16489,-0.12065,1.14911,0.95015
303.371,19.18599,-0.12218,1.15229,0.94974
304.071,19.20707,-0.12397,1.15165,0.94933
304.771,19.2282,-0.12564,1.15506,0.94892
305.471,19.24933,-0.12747,1.15532,0.94851
306.171,19.27052,-0.1306,1.15821,0.94809
306.871,19.2916,-0.1324,1.16206,0.94768
307.571,19.31279,-0.13459,1.16537,0.94727
308.271,19.33394,-0.13702,1.1679,0.94685
308.971,19.35501,-0.13908,1.17294,0.94644
309.671,19.37615,-0.14095,1.17394,0.94602
310.371,19.3973,-0.14285,1.17661,0.94561
311.071,19.41846,-0.14444,1.18185,0.94519
311.771,19.43966,-0.14654,1.18622,0.94477
312.471,19.4608,-0.14832,1.1873,0.94435
313.171,19.48199,-0.15094,1.19182,0.94394
313.871,19.50319,-0.15336,1.19515,0.94352
314.571,19.5244,-0.15554,1.20194,0.9431
315.271,19.54551,-0.15838,1.20493,0.94268
315.971,19.5667,-0.16073,1.20936,0.94226
316.671,19.58779,-0.16309,1.21359,0.94184
317.371,19.609,-0.16609,1.2171,0.94142
318.071,19.63016,-0.16975,1.22425,0.94099
318.771,19.65127,-0.17304,1.22922,0.94057
319.471,19.67249,-0.17554,1.23462,0.94015
320.171,19.69364,-0.17832,1.24169,0.93972
320.871,19.71485,-0.18154,1.24694,0.9393
321.571,19.736,-0.18487,1.25406,0.93888
322.271,19.7572,-0.18813,1.25997,0.93845
322.971,19.7784,-0.19228,1.26483,0.93802
323.671,19.79938,-0.19679,1.27345,0.9376
324.371,19.82046,-0.20142,1.27977,0.93717
325.071,19.84161,-0.20448,1.28537,0.93674
325.771,19.86286,-0.20796,1.29297,0.93632
326.471,19.88426,-0.21269,1.29983,0.93589
327.171,19.90551,-0.21658,1.31164,0.93546
327.871,19.9268,-0.22036,1.32122,0.93503
328.571,19.94799,-0.22485,1.32998,0.9346
329.271,19.9692,-0.22983,1.34137,0.93417
329.971,19.99042,-0.23478,1.35148,0.93374
330.671,20.01161,-0.24072,1.36017,0.93331
331.371,20.03291,-0.24626,1.37101,0.93287
332.071,20.05418,-0.25131,1.38155,0.93244
332.771,20.0754,-0.25729,1.39252,0.93201
333.471,20.09667,-0.26297,1.40594,0.93158
334.171,20.1179,-0.26885,1.41904,0.93114
334.871,20.13915,-0.27487,1.43424,0.93071
335.571,20.1604,-0.28116,1.4441,0.93027
336.271,20.18165,-0.28793,1.45822,0.92984
336.971,20.2028,-0.29505,1.47381,0.9294
337.671,20.22407,-0.30166,1.49212,0.92896
338.371,20.24537,-0.30871,1.5087,0.92853
339.071,20.2667,-0.31596,1.52508,0.92809
339.771,20.2881,-0.32355,1.54146,0.92765
340.471,20.30941,-0.33055,1.56235,0.92721
341.171,20.33063,-0.33795,1.58255,0.92677
341.871,20.3519,-0.34613,1.60313,0.92633
342.571,20.37311,-0.35461,1.62748,0.92589
343.271,20.39452,-0.36521,1.64844,0.92545
343.971,20.41587,-0.37439,1.67391,0.92501
344.671,20.4373,-0.38396,1.69909,0.92457
345.371,20.45865,-0.39382,1.72593,0.92413
346.071,20.47992,-0.40374,1.75438,0.92368
346.771,20.5013,-0.41453,1.78439,0.92324
347.471,20.52265,-0.42578,1.8165,0.9228
348.171,20.54406,-0.43778,1.84603,0.92235
348.871,20.56549,-0.45029,1.88088,0.92191
349.571,20.58686,-0.46241,1.91565,0.92146
350.271,20.60826,-0.47497,1.95511,0.92102
350.971,20.62968,-0.48837,1.99234,0.92057
351.671,20.6511,-0.50289,2.0314,0.92012
352.371,20.6725,-0.51712,2.0724,0.91968
353.071,20.69386,-0.53082,2.11683,0.91923
353.771,20.71515,-0.54534,2.16431,0.91878
354.471,20.73656,-0.56132,2.21115,0.91833
355.171,20.75806,-0.57846,2.25968,0.91788
355.871,20.77971,-0.59622,2.31264,0.91743
356.571,20.80122,-0.61396,2.36464,0.91698
357.271,20.82272,-0.63253,2.41986,0.91653
357.971,20.84398,-0.65241,2.47688,0.91608
358.671,20.8655,-0.67184,2.53897,0.91563
359.371,20.88694,-0.69312,2.59904,0.91518
360.071,20.90859,-0.71486,2.6634,0.91472
360.771,20.93021,-0.73724,2.72918,0.91427
361.471,20.95169,-0.76008,2.79559,0.91382
362.171,20.97322,-0.78373,2.86518,0.91336
362.871,20.9948,-0.809,2.93632,0.91291
363.571,21.0164,-0.8346,3.01016,0.91245
364.271,21.03803,-0.86122,3.0869,0.912
364.971,21.0596,-0.88963,3.1655,0.91154
365.671,21.08124,-0.9184,3.24117,0.91109
366.371,21.1028,-0.94799,3.32084,0.91063
367.071,21.12445,-0.97889,3.40093,0.91017
367.771,21.14602,-1.01059,3.48385,0.90972
368.471,21.16759,-1.04347,3.56867,0.90926
369.171,21.18923,-1.0768,3.65191,0.9088
369.871,21.21077,-1.11211,3.73631,0.90834
370.571,21.23246,-1.14893,3.82293,0.90788
371.271,21.25415,-1.18565,3.90554,0.90742
371.971,21.2757,-1.22289,3.98959,0.90696
372.671,21.29736,-1.26163,4.07288,0.9065
373.371,21.3191,-1.30177,4.15614,0.90604
374.071,21.34098,-1.34417,4.23949,0.90558
374.771,21.3628,-1.38672,4.32105,0.90511
375.471,21.38457,-1.43014,4.39729,0.90465
376.171,21.40632,-1.47554,4.47432,0.90419
376.871,21.42807,-1.52007,4.54912,0.90372
377.571,21.44983,-1.56596,4.61876,0.90326
378.271,21.47156,-1.61322,4.68478,0.90279
378.971,21.4933,-1.66088,4.74578,0.90233
379.671,21.5151,-1.70989,4.80325,0.90186
380.371,21.53687,-1.75831,4.85768,0.9014
381.071,21.55868,-1.80768,4.90201,0.90093
381.771,21.5805,-1.85837,4.94478,0.90046
382.471,21.60218,-1.90827,4.97982,0.9
383.171,21.62398,-1.95897,5.00767,0.89953
383.871,21.64575,-2.01015,5.02948,0.89906
384.571,21.66751,-2.0608,5.0474,0.89859
385.271,21.68936,-2.11293,5.05502,0.89812
385.971,21.71111,-2.16486,5.0561,0.89765
386.671,21.73283,-2.21612,5.05252,0.89718
387.371,21.75441,-2.26699,5.03988,0.89671
388.071,21.7761,-2.31704,5.02205,0.89624
388.771,21.79775,-2.36728,4.99522,0.89577
389.471,21.81941,-2.41825,4.96046,0.8953
390.171,21.84112,-2.46789,4.91963,0.89483
390.871,21.86287,-2.51766,4.87122,0.89435
391.571,21.8848,-2.56779,4.81383,0.89388
392.271,21.90656,-2.61503,4.74719,0.89341
392.971,21.92827,-2.66269,4.67646,0.89293
393.671,21.94995,-2.70909,4.59245,0.89246
394.371,21.97156,-2.75418,4.50457,0.89199
395.071,21.9933,-2.79874,4.40662,0.89151
395.771,22.0149,-2.84121,4.29966,0.89103
396.471,22.03649,-2.88343,4.17985,0.89056
397.171,22.058,-2.92445,4.05111,0.89008
397.871,22.07957,-2.96372,3.91488,0.88961
398.571,22.10115,-3.0019,3.76772,0.88913
399.271,22.12275,-3.03831,3.61268,0.88865
399.971,22.1443,-3.07287,3.44485,0.88817
400.671,22.16584,-3.10565,3.26446,0.88769
401.371,22.18719,-3.13603,3.08031,0.88721
402.071,22.20863,-3.16551,2.88653,0.88673
402.771,22.23013,-3.19286,2.6872,0.88626
403.471,22.2516,-3.21805,2.48612,0.88577
404.171,22.2731,-3.24103,2.27959,0.88529
404.871,22.2945,-3.26132,2.07635,0.88481
405.571,22.31585,-3.28024,1.87563,0.88433
406.271,22.3372,-3.2976,1.68328,0.88385
406.971,22.3586,-3.31262,1.49348,0.88337
407.671,22.37998,-3.32467,1.31571,0.88288
408.371,22.40134,-3.33484,1.15345,0.8824
409.071,22.4226,-3.34366,1.0027,0.88192
409.771,22.44389,-3.35162,0.86514,0.88143
410.471,22.4652,-3.35777,0.74355,0.88095
411.171,22.48649,-3.36295,0.63455,0.88047
411.871,22.5077,-3.36762,0.5364,0.87998
412.571,22.52897,-3.37011,0.46063,0.87949
413.271,22.55029,-3.37224,0.38647,0.87901
413.971,22.57163,-3.37492,0.32865,0.87852
414.671,22.59321,-3.37735,0.27489,0.87804
415.371,22.61465,-3.37959,0.23183,0.87755
416.071,22.63619,-3.38099,0.19121,0.87706
416.771,22.6576,-3.38183,0.16142,0.87657
417.471,22.67905,-3.38384,0.13271,0.87608
418.171,22.70052,-3.38386,0.11137,0.8756
418.871,22.72204,-3.38542,0.09185545,0.87511
419.571,22.7436,-3.38659,0.07566271,0.87462
420.271,22.76512,-3.38694,0.06239364,0.87413
420.971,22.7866,-3.38824,0.0492746,0.87364
421.671,22.80816,-3.38832,0.04054246,0.87315
422.371,22.82975,-3.38972,0.02970776,0.87265
423.071,22.85131,-3.39137,0.02441127,0.87216
423.771,22.87293,-3.39238,0.01843635,0.87167
424.471,22.89449,-3.39284,0.01238523,0.87118
425.171,22.91615,-3.39472,0.00649311,0.87069
425.871,22.93786,-3.39474,0.002929042,0.87019
426.571,22.95952,-3.39649,-0.001174967,0.8697
427.271,22.98123,-3.39655,-0.005361645,0.86921
427.971,23.00283,-3.39801,-0.00756947,0.86871
428.671,23.0245,-3.39926,-0.01391691,0.86822
429.371,23.04628,-3.40005,-0.01473563,0.86772
430.071,23.06801,-3.40101,-0.01738437,0.86723
430.771,23.08984,-3.40256,-0.01959058,0.86673
431.471,23.1116,-3.40401,-0.02031771,0.86624
432.171,23.13342,-3.40416,-0.02106593,0.86574
432.871,23.1552,-3.40558,-0.02557515,0.86524
433.571,23.17701,-3.40634,-0.02524387,0.86475
434.271,23.19885,-3.40708,-0.02741282,0.86425
434.971,23.22069,-3.40877,-0.02820594,0.86375
435.671,23.24246,-3.40879,-0.0297646,0.86325
436.371,23.26422,-3.40992,-0.03160931,0.86275
437.071,23.286,-3.41043,-0.03191222,0.86225
437.771,23.3079,-3.4104,-0.03344351,0.86175
438.471,23.3297,-3.41179,-0.0350829,0.86125
439.171,23.35162,-3.4117,-0.03624042,0.86075
439.871,23.37344,-3.41317,-0.03779992,0.86025
440.571,23.39537,-3.41411,-0.0423926,0.85975
441.271,23.41725,-3.41463,-0.04159402,0.85925
441.971,23.4391,-3.41654,-0.04303487,0.85875
442.671,23.46094,-3.41693,-0.04132589,0.85825
443.371,23.4829,-3.41719,-0.04296121,0.85775
444.071,23.50487,-3.41869,-0.04425302,0.85724
444.771,23.5268,-3.419,-0.0451902,0.85674
445.471,23.5487,-3.42007,-0.04696808,0.85624
446.171,23.5706,-3.42139,-0.04650238,0.85573
446.871,23.59256,-3.42148,-0.04706491,0.85523
447.571,23.61455,-3.42293,-0.04782708,0.85473
448.271,23.63656,-3.42294,-0.0497723,0.85422
448.971,23.65857,-3.4229,-0.04919637,0.85372
449.671,23.68054,-3.42425,-0.05194983,0.85321
450.371,23.7025,-3.42427,-0.05250991,0.8527
451.071,23.72435,-3.42542,-0.05342768,0.8522
451.771,23.74626,-3.42558,-0.05402115,0.85169
452.471,23.76823,-3.42589,-0.05596243,0.85118
453.171,23.79028,-3.42713,-0.05713964,0.85068
453.871,23.81234,-3.42722,-0.05771963,0.85017
454.571,23.83438,-3.42765,-0.05789866,0.84966
455.271,23.8564,-3.42853,-0.06169831,0.84915
455.971,23.8784,-3.42893,-0.06129375,0.84864
456.671,23.9005,-3.43105,-0.06179739,0.84814
457.371,23.92256,-3.43266,-0.06300081,0.84763
458.071,23.9445,-3.43298,-0.06418425,0.84712
458.771,23.96653,-3.43391,-0.06370662,0.84661
459.471,23.9886,-3.43507,-0.06341758,0.8461
460.171,24.0108,-3.43535,-0.06516446,0.84559
460.871,24.03292,-3.43685,-0.06562224,0.84508
461.571,24.05503,-3.43739,-0.06486312,0.84456
462.271,24.07715,-3.43835,-0.06523837,0.84405
462.971,24.09928,-3.43974,-0.06822644,0.84354
463.671,24.12134,-3.43971,-0.06573124,0.84303
464.371,24.1434,-3.44134,-0.06536873,0.84252
465.071,24.1655,-3.44215,-0.06620635,0.842
465.771,24.1875,-3.44258,-0.06727565,0.84149
466.471,24.2097,-3.44258,-0.06754478,0.84098
467.171,24.23174,-3.44342,-0.06713339,0.84046
467.871,24.25389,-3.4439,-0.06623054,0.83995
468.571,24.27598,-3.44449,-0.06737098,0.83943
469.271,24.29816,-3.44522,-0.0677979,0.83892
469.971,24.32031,-3.44522,-0.06794337,0.8384
470.671,24.34252,-3.44619,-0.06869995,0.83789
471.371,24.36467,-3.44654,-0.06915196,0.83737
472.071,24.38683,-3.44722,-0.06758043,0.83686
472.771,24.40897,-3.44785,-0.06862694,0.83634
473.471,24.4312,-3.44785,-0.06898482,0.83582
474.171,24.45342,-3.44785,-0.06793567,0.83531
474.871,24.47561,-3.44916,-0.06901581,0.83479
475.571,24.4978,-3.44917,-0.07021548,0.83427
476.271,24.51993,-3.44917,-0.07122591,0.83375
476.971,24.5421,-3.45048,-0.0706419,0.83323
477.671,24.5642,-3.45185,-0.07147683,0.83271
478.371,24.58636,-3.45211,-0.07294032,0.8322
479.071,24.6085,-3.45313,-0.07153542,0.83168
479.771,24.6308,-3.45308,-0.07057818,0.83116
480.471,24.65307,-3.45444,-0.07036214,0.83064
481.171,24.67539,-3.45496,-0.07138934,0.83012
481.871,24.69753,-3.45584,-0.0710792,0.8296
482.571,24.71971,-3.45718,-0.07252793,0.82908
483.271,24.74183,-3.45724,-0.07230646,0.82855
483.971,24.7641,-3.45852,-0.07045615,0.82803
484.671,24.78644,-3.45851,-0.07063323,0.82751
485.371,24.80869,-3.45856,-0.07106459,0.82699
486.071,24.83099,-3.45983,-0.07036953,0.82647
486.771,24.85322,-3.45982,-0.07007672,0.82594
487.471,24.87548,-3.45983,-0.06992854,0.82542
488.171,24.89773,-3.46098,-0.06959493,0.8249
488.871,24.91996,-3.46114,-0.07134145,0.82437
489.571,24.9422,-3.46114,-0.07131509,0.82385
490.271,24.9644,-3.46114,-0.06940813,0.82333
490.971,24.98665,-3.4618,-0.07057132,0.8228
491.671,25.0089,-3.46243,-0.07037375,0.82228
492.371,25.03105,-3.46459,-0.06944851,0.82175
493.071,25.0531,-3.4651,-0.06970892,0.82123
493.771,25.07527,-3.4651,-0.07028572,0.8207
494.471,25.0976,-3.46505,-0.06949228,0.82018
495.171,25.12012,-3.46641,-0.06993408,0.81965
495.871,25.14249,-3.46648,-0.06820974,0.81912
496.571,25.16485,-3.46774,-0.06794335,0.8186
497.271,25.18715,-3.4681,-0.06842282,0.81807
497.971,25.20951,-3.46906,-0.06649356,0.81754
498.671,25.2318,-3.47044,-0.06744555,0.81701
499.371,25.25404,-3.47062,-0.06767061,0.81649
500.071,25.27626,-3.47199,-0.06696312,0.81596
500.771,25.29853,-3.47223,-0.06432809,0.81543
501.471,25.32086,-3.47333,-0.06498609,0.8149
502.171,25.34323,-3.4745,-0.06374037,0.81437
502.871,25.36557,-3.47531,-0.06486121,0.81384
503.571,25.38791,-3.47531,-0.06342352,0.81331
504.271,25.41023,-3.47531,-0.05998751,0.81278
504.971,25.43252,-3.47557,-0.06108871,0.81225
505.671,25.45477,-3.47662,-0.0624289,0.81172
506.371,25.47704,-3.47662,-0.05990316,0.81119
507.071,25.49936,-3.47661,-0.06023688,0.81066
507.771,25.52168,-3.47796,-0.05937604,0.81013
508.471,25.54404,-3.47792,-0.05626225,0.8096
509.171,25.56642,-3.47926,-0.0548043,0.80907
509.871,25.5888,-3.47926,-0.0529873,0.80854
510.571,25.6112,-3.47966,-0.05118237,0.808
511.271,25.63355,-3.48058,-0.0514535,0.80747
511.971,25.65595,-3.48058,-0.05228289,0.80694
512.671,25.67833,-3.48056,-0.05182367,0.8064
513.371,25.70073,-3.4819,-0.04916485,0.80587
514.071,25.72308,-3.4819,-0.05237557,0.80534
514.771,25.7454,-3.48348,-0.05158707,0.8048
515.471,25.76755,-3.48398,-0.05171748,0.80427
516.171,25.7898,-3.48519,-0.05387563,0.80374
516.871,25.8121,-3.4853,-0.05302033,0.8032
517.571,25.83464,-3.4853,-0.05339658,0.80267
518.271,25.8571,-3.48601,-0.05332696,0.80213
518.971,25.87977,-3.48662,-0.05554503,0.8016
519.671,25.9022,-3.48776,-0.05496351,0.80106
520.371,25.9246,-3.48793,-0.05366233,0.80052
521.071,25.94695,-3.48794,-0.05400628,0.79999
521.771,25.9694,-3.48927,-0.05515234,0.79945
522.471,25.99182,-3.48925,-0.05589127,0.79892
523.171,26.01424,-3.48927,-0.05664588,0.79838
523.871,26.03666,-3.49059,-0.05571232,0.79784
524.571,26.0591,-3.49057,-0.05409236,0.7973
525.271,26.08147,-3.49057,-0.05604492,0.79677
525.971,26.1039,-3.49058,-0.05561798,0.79623
526.671,26.1264,-3.49186,-0.05523229,0.79569
527.371,26.1489,-3.49322,-0.05856769,0.79515
528.071,26.17137,-3.49315,-0.0574384,0.79461
528.771,26.19383,-3.49451,-0.05603367,0.79407
529.471,26.21625,-3.49347,-0.05602597,0.79354
530.171,26.23872,-3.49352,-0.05753258,0.793
530.871,26.26114,-3.49486,-0.05652508,0.79246
531.571,26.2836,-3.49485,-0.05695263,0.79192
532.271,26.3061,-3.49514,-0.05696295,0.79138
532.971,26.32862,-3.49617,-0.0558864,0.79084
533.671,26.3511,-3.49612,-0.05523268,0.7903
534.371,26.37355,-3.49748,-0.05688544,0.78976
535.071,26.39607,-3.49744,-0.05919582,0.78921
535.771,26.4185,-3.49883,-0.05632582,0.78867
536.471,26.44098,-3.49986,-0.05560235,0.78813
537.171,26.46343,-3.50013,-0.05199993,0.78759
537.871,26.48583,-3.49881,-0.05069213,0.78705
538.571,26.5083,-3.49879,-0.04999991,0.78651
539.271,26.53088,-3.49879,-0.04800436,0.78596
539.971,26.5534,-3.49879,-0.04520193,0.78542
540.671,26.5759,-3.4988,-0.04322703,0.78488
541.371,26.5983,-3.5,-0.04241864,0.78434
542.071,26.6208,-3.50011,-0.03914808,0.78379
542.771,26.64337,-3.50009,-0.0361601,0.78325
543.471,26.66587,-3.50141,-0.03422036,0.7827
544.171,26.68846,-3.50148,-0.03350628,0.78216
544.871,26.711,-3.5029,-0.03352319,0.78162
545.571,26.7335,-3.50223,-0.03198899,0.78107
546.271,26.7561,-3.50286,-0.02949074,0.78053
546.971,26.77863,-3.50286,-0.03131917,0.77998
547.671,26.80118,-3.5041,-0.03037143,0.77944
548.371,26.8238,-3.50549,-0.02836993,0.77889
549.071,26.84633,-3.50549,-0.02894061,0.77835
549.771,26.86893,-3.50549,-0.03093729,0.7778
550.471,26.8915,-3.50549,-0.02858709,0.77726
551.171,26.914,-3.50549,-0.02877159,0.77671
551.871,26.9366,-3.50549,-0.02921794,0.77616
552.571,26.9592,-3.50548,-0.03050828,0.77562
553.271,26.98181,-3.50683,-0.03365917,0.77507
553.971,27.0045,-3.50681,-0.03271887,0.77452
554.671,27.02713,-3.50681,-0.03155387,0.77398
555.371,27.04965,-3.50679,-0.03373836,0.77343
556.071,27.07221,-3.50811,-0.03194835,0.77288
556.771,27.09478,-3.50813,-0.0339443,0.77233
557.471,27.1174,-3.50811,-0.03626764,0.77178
558.171,27.1401,-3.50912,-0.03436456,0.77124
558.871,27.16283,-3.50908,-0.03549414,0.77069
559.571,27.18543,-3.51045,-0.03384861,0.77014
560.271,27.2081,-3.51043,-0.03616412,0.76959
560.971,27.23075,-3.51043,-0.03655258,0.76904
561.671,27.2534,-3.51043,-0.0361922,0.76849
562.371,27.27605,-3.51043,-0.03773119,0.76794
563.071,27.2987,-3.51046,-0.03856307,0.76739
563.771,27.32125,-3.51078,-0.04035158,0.76684
564.471,27.3439,-3.51096,-0.0398077,0.76629
565.171,27.36655,-3.51109,-0.03878124,0.76574
565.871,27.38931,-3.51109,-0.04086335,0.76519
566.571,27.412,-3.51132,-0.04089192,0.76464
567.271,27.4347,-3.51241,-0.04231433,0.76409
567.971,27.45737,-3.51241,-0.04232549,0.76354
568.671,27.48005,-3.51308,-0.04162219,0.76299
569.371,27.50275,-3.51373,-0.04557742,0.76244
570.071,27.52542,-3.51373,-0.04686183,0.76189
570.771,27.5481,-3.51382,-0.04814281,0.76134
571.471,27.5708,-3.51539,-0.04797542,0.76078
572.171,27.5936,-3.51537,-0.0489499,0.76023
572.871,27.61638,-3.51532,-0.04920423,0.75968
573.571,27.63908,-3.51636,-0.05070569,0.75913
574.271,27.66175,-3.51636,-0.04980008,0.75857
574.971,27.6844,-3.51653,-0.05148207,0.75802
575.671,27.70715,-3.51768,-0.05291235,0.75747
576.371,27.72993,-3.51767,-0.05537872,0.75692
577.071,27.75266,-3.5164,-0.05685604,0.75636
577.771,27.77542,-3.51636,-0.05626162,0.75581
578.471,27.79813,-3.51636,-0.05704031,0.75525
579.171,27.82088,-3.51636,-0.05960663,0.7547
579.871,27.8437,-3.51636,-0.05943081,0.75415
580.571,27.86647,-3.51636,-0.06109107,0.75359
581.271,27.88925,-3.51655,-0.0619708,0.75304
581.971,27.912,-3.51767,-0.06399396,0.75248
582.671,27.93474,-3.51768,-0.06634234,0.75193
583.371,27.9573,-3.51768,-0.06636526,0.75137
584.071,27.98,-3.51768,-0.06632592,0.75082
584.771,28.00275,-3.51768,-0.06678851,0.75026
585.471,28.02575,-3.51873,-0.06740194,0.74971
586.171,28.04867,-3.52172,-0.06870807,0.74915
586.871,28.07149,-3.52229,-0.06904654,0.7486
587.571,28.09429,-3.52362,-0.0713907,0.74804
588.271,28.1171,-3.52317,-0.07185317,0.74748
588.971,28.1399,-3.52198,-0.07270292,0.74693
589.671,28.16263,-3.52002,-0.07390462,0.74637
590.371,28.1854,-3.51913,-0.07460622,0.74582
591.071,28.20815,-3.51976,-0.07453118,0.74526
591.771,28.231,-3.51977,-0.07432453,0.7447
592.471,28.2539,-3.51977,-0.07803623,0.74414
593.171,28.2768,-3.52004,-0.0768317,0.74359
593.871,28.29963,-3.52169,-0.0766676,0.74303
594.571,28.3225,-3.5224,-0.0767967,0.74247
595.271,28.3453,-3.5224,-0.07827542,0.74191
595.971,28.3682,-3.5224,-0.07912342,0.74136
596.671,28.391,-3.52235,-0.07887308,0.7408
597.371,28.4139,-3.52371,-0.07897752,0.74024
598.071,28.4368,-3.52372,-0.07925885,0.73968
598.771,28.4596,-3.52372,-0.08058925,0.73912
599.471,28.48245,-3.52373,-0.07999293,0.73857
600.171,28.50532,-3.52495,-0.07909469,0.73801
600.871,28.5282,-3.52503,-0.08016869,0.73745
601.571,28.5511,-3.52503,-0.08181902,0.73689
602.271,28.574,-3.52503,-0.07832843,0.73633
602.971,28.59692,-3.52503,-0.07918135,0.73577
603.671,28.6198,-3.52503,-0.08046762,0.73521
604.371,28.6427,-3.52503,-0.08151801,0.73465
605.071,28.6656,-3.52503,-0.08346506,0.73409
605.771,28.68852,-3.52503,-0.08375513,0.73353
606.471,28.7114,-3.52503,-0.08343497,0.73297
607.171,28.7344,-3.52503,-0.08472674,0.73241
607.871,28.75739,-3.52501,-0.0837832,0.73185
608.571,28.7804,-3.52636,-0.083729,0.73129
609.271,28.8032,-3.52635,-0.08313076,0.73073
609.971,28.82612,-3.52635,-0.08345482,0.73017
610.671,28.84903,-3.52635,-0.08191069,0.72961
611.371,28.87195,-3.52633,-0.08401619,0.72905
612.071,28.8948,-3.52769,-0.08435321,0.72849
612.771,28.9177,-3.52767,-0.08558409,0.72792
613.471,28.94068,-3.52767,-0.08451482,0.72736
614.171,28.9637,-3.52767,-0.0849681,0.7268
614.871,28.98654,-3.52767,-0.08458873,0.72624
615.571,29.0095,-3.52885,-0.08675584,0.72568
616.271,29.03238,-3.52898,-0.08621133,0.72512
616.971,29.0553,-3.52898,-0.08630641,0.72455
617.671,29.0782,-3.52898,-0.08559665,0.72399
618.371,29.10108,-3.52898,-0.08713989,0.72343
619.071,29.12404,-3.52971,-0.08607985,0.72287
619.771,29.14698,-3.5303,-0.08738759,0.7223
620.471,29.1698,-3.5303,-0.0866096,0.72174
621.171,29.1928,-3.5303,-0.08783626,0.72118
621.871,29.21572,-3.5303,-0.08839388,0.72061
622.571,29.2387,-3.5303,-0.08639025,0.72005
623.271,29.26159,-3.5303,-0.08586535,0.71949
623.971,29.28442,-3.53031,-0.08524024,0.71892
624.671,29.30733,-3.53165,-0.08463326,0.71836
625.371,29.3302,-3.53162,-0.0829512,0.7178
626.071,29.35316,-3.53162,-0.08279557,0.71723
626.771,29.376,-3.53162,-0.0834458,0.71667
627.471,29.39909,-3.53162,-0.08414302,0.71611
628.171,29.422,-3.53162,-0.08544019,0.71554
628.871,29.445,-3.53161,-0.08408808,0.71498
629.571,29.4679,-3.5326,-0.084858,0.71441
630.271,29.4908,-3.53261,-0.08426085,0.71385
630.971,29.5138,-3.53261,-0.08358032,0.71328
631.671,29.5367,-3.53295,-0.08296584,0.71272
632.371,29.55961,-3.53361,-0.08281769,0.71216
633.071,29.58251,-3.53378,-0.08282264,0.71159
633.771,29.60538,-3.5349,-0.08146897,0.71103
634.471,29.62827,-3.53491,-0.08154442,0.71046
635.171,29.65117,-3.53491,-0.08106853,0.7099
635.871,29.67415,-3.53491,-0.0799844,0.70933
636.571,29.69714,-3.53496,-0.07829544,0.70876
637.271,29.72012,-3.53359,-0.07880069,0.7082
637.971,29.7432,-3.53359,-0.07755147,0.70763
638.671,29.76613,-3.53359,-0.07733826,0.70707
639.371,29.7891,-3.53358,-0.07713258,0.7065
640.071,29.81203,-3.53488,-0.07822384,0.70594
640.771,29.83499,-3.53491,-0.0778957,0.70537
641.471,29.858,-3.53491,-0.07882145,0.7048
642.171,29.8809,-3.53491,-0.07791242,0.70424
642.871,29.9039,-3.53583,-0.07720166,0.70367
643.571,29.92695,-3.5359,-0.07466202,0.7031
644.271,29.9498,-3.53622,-0.07523842,0.70254
644.971,29.97271,-3.53623,-0.07257353,0.70197
645.671,29.99563,-3.53627,-0.07338287,0.7014
646.371,30.0186,-3.53489,-0.07608478,0.70084
647.071,30.04168,-3.53578,-0.07582327,0.70027
647.771,30.0646,-3.53623,-0.07632677,0.6997
648.471,30.08757,-3.53623,-0.07702519,0.69914
649.171,30.1106,-3.53623,-0.07658329,0.69857
649.871,30.1335,-3.53623,-0.0753584,0.698
650.571,30.15638,-3.53623,-0.07339526,0.69744
651.271,30.1794,-3.53622,-0.07161798,0.69687
651.971,30.20228,-3.53757,-0.07082142,0.6963
652.671,30.22537,-3.53755,-0.07239304,0.69573
653.371,30.24833,-3.53755,-0.07110758,0.69516
654.071,30.2713,-3.53755,-0.06937345,0.6946
654.771,30.2943,-3.53755,-0.07261711,0.69403
655.471,30.3173,-3.53769,-0.07260139,0.69346
656.171,30.34034,-3.53887,-0.0718,0.69289
656.871,30.3634,-3.53887,-0.07278962,0.69233
657.571,30.3865,-3.53887,-0.06898266,0.69176
658.271,30.4095,-3.53787,-0.07035032,0.69119
658.971,30.43245,-3.53755,-0.07183954,0.69062
659.671,30.45545,-3.53755,-0.07065351,0.69005
660.371,30.47846,-3.53816,-0.07327263,0.68948
661.071,30.5015,-3.53821,-0.07212659,0.68891
661.771,30.52447,-3.53878,-0.07056793,0.68835
662.471,30.5475,-3.53886,-0.06947829,0.68778
663.171,30.57047,-3.53886,-0.06911392,0.68721
663.871,30.59352,-3.53886,-0.0705236,0.68664
664.571,30.6165,-3.53898,-0.07053627,0.68607
665.271,30.6395,-3.5395,-0.06952702,0.6855
665.971,30.66252,-3.54083,-0.07020916,0.68493
666.671,30.6855,-3.54084,-0.07165567,0.68436
667.371,30.70852,-3.54084,-0.0702671,0.68379
668.071,30.7314,-3.54083,-0.07055415,0.68322
668.771,30.75435,-3.53949,-0.0712297,0.68266
669.471,30.7774,-3.53952,-0.06936767,0.68209
670.171,30.8006,-3.53952,-0.06881817,0.68152
670.871,30.8237,-3.5399,-0.07127808,0.68095
671.571,30.84685,-3.54018,-0.06575034,0.68038
672.271,30.86988,-3.54016,-0.06911115,0.67981
672.971,30.8929,-3.54149,-0.06469346,0.67924
673.671,30.91595,-3.5415,-0.06618775,0.67867
674.371,30.93882,-3.5415,-0.06689585,0.6781
675.071,30.9618,-3.5415,-0.06842284,0.67753
675.771,30.98494,-3.5415,-0.06670561,0.67696
676.471,31.00817,-3.54197,-0.06761648,0.67639
677.171,31.0313,-3.54282,-0.06794603,0.67582
677.871,31.0542,-3.54282,-0.06838059,0.67525
678.571,31.0771,-3.54282,-0.0688485,0.67468
679.271,31.1001,-3.54282,-0.06720686,0.67411
679.971,31.12337,-3.54282,-0.06984037,0.67354
680.671,31.14665,-3.54282,-0.06785508,0.67297
681.371,31.1698,-3.54345,-0.07009141,0.6724
682.071,31.19292,-3.54347,-0.06708243,0.67183
682.771,31.2161,-3.54347,-0.07256403,0.67125
683.471,31.2392,-3.54347,-0.06909846,0.67068
684.171,31.26231,-3.54355,-0.06888175,0.67011
684.871,31.28541,-3.54413,-0.06892481,0.66954
685.571,31.30848,-3.54413,-0.07043065,0.66897
686.271,31.3316,-3.54413,-0.06879937,0.6684
686.971,31.35475,-3.54523,-0.06927461,0.66783
687.671,31.3779,-3.54545,-0.06872389,0.66726
688.371,31.4009,-3.54545,-0.06892683,0.66669
689.071,31.42411,-3.54545,-0.07225576,0.66612
689.771,31.44721,-3.54545,-0.06913414,0.66555
690.471,31.47048,-3.54545,-0.0715796,0.66498
691.171,31.4937,-3.54545,-0.0740838,0.6644
691.871,31.51688,-3.54545,-0.07477333,0.66383
692.571,31.54008,-3.54545,-0.07563877,0.66326
693.271,31.56317,-3.54542,-0.07337635,0.66269
693.971,31.58628,-3.54578,-0.07584228,0.66212
694.671,31.60939,-3.54578,-0.07508624,0.66155
695.371,31.63252,-3.54578,-0.07862754,0.66098
696.071,31.65575,-3.54645,-0.07902291,0.6604
696.771,31.67894,-3.54512,-0.07815429,0.65983
697.471,31.70223,-3.54513,-0.07846083,0.65926
698.171,31.7254,-3.54513,-0.08047723,0.65869
698.871,31.74858,-3.54513,-0.08087794,0.65812
699.571,31.7717,-3.54513,-0.07955245,0.65755
700.271,31.7949,-3.54513,-0.08136831,0.65698
700.971,31.8181,-3.54513,-0.08181279,0.6564
701.671,31.8413,-3.54513,-0.08081035,0.65583
702.371,31.8645,-3.54596,-0.07853057,0.65526
703.071,31.88764,-3.54644,-0.07955759,0.65469
703.771,31.9108,-3.54646,-0.07985798,0.65412
704.471,31.93399,-3.54676,-0.0797582,0.65355
705.171,31.95715,-3.548,-0.07902835,0.65297
705.871,31.98035,-3.54809,-0.07890247,0.6524
706.571,32.00352,-3.54809,-0.07855018,0.65183
707.271,32.02666,-3.54809,-0.07848368,0.65126
707.971,32.04983,-3.54804,-0.07942819,0.65069
708.671,32.07302,-3.54907,-0.07978218,0.65011
709.371,32.09608,-3.54907,-0.07875016,0.64954
710.071,32.11929,-3.54911,-0.08038016,0.64897
710.771,32.14246,-3.54843,-0.07851086,0.6484
711.471,32.16584,-3.54775,-0.07808066,0.64783
712.171,32.189,-3.54776,-0.07866202,0.64725
712.871,32.21221,-3.54776,-0.07805776,0.64668
713.571,32.2355,-3.54776,-0.07889548,0.64611
714.271,32.25871,-3.54776,-0.07835807,0.64554
714.971,32.28201,-3.54776,-0.07971784,0.64497
715.671,32.3052,-3.54803,-0.07664014,0.64439
716.371,32.32841,-3.54809,-0.079264,0.64382
717.071,32.35161,-3.54809,-0.07822658,0.64325
717.771,32.3748,-3.54856,-0.07911199,0.64268
718.471,32.398,-3.54941,-0.08125071,0.64211
719.171,32.42116,-3.54941,-0.08181168,0.64153
719.871,32.44435,-3.54941,-0.08314433,0.64096
720.571,32.46757,-3.54941,-0.08235689,0.64039
721.271,32.49082,-3.54941,-0.0811787,0.63982
721.971,32.5141,-3.54941,-0.07997385,0.63924
722.671,32.53733,-3.54939,-0.08126692,0.63867
723.371,32.56045,-3.55074,-0.07655168,0.6381
724.071,32.58362,-3.55073,-0.07530118,0.63753
724.771,32.60688,-3.55073,-0.07610518,0.63696
725.471,32.63023,-3.55073,-0.07647144,0.63638
726.171,32.6535,-3.55073,-0.07625978,0.63581
726.871,32.6768,-3.55073,-0.07485953,0.63524
727.571,32.70005,-3.55073,-0.07343831,0.63467
728.271,32.72333,-3.55068,-0.07453248,0.63409
728.971,32.7465,-3.55205,-0.0764879,0.63352
729.671,32.76968,-3.55205,-0.0747637,0.63295
730.371,32.79293,-3.55205,-0.07274741,0.63238
731.071,32.81624,-3.55205,-0.07474575,0.63181
731.771,32.83948,-3.55205,-0.07499729,0.63123
732.471,32.8628,-3.55205,-0.07657132,0.63066
733.171,32.88609,-3.55205,-0.07514808,0.63009
733.871,32.90943,-3.55204,-0.07442434,0.62952
734.571,32.93268,-3.55077,-0.07326867,0.62894
735.271,32.95588,-3.55073,-0.07165514,0.62837
735.971,32.9792,-3.55073,-0.0721306,0.6278
736.671,33.00253,-3.55189,-0.06948916,0.62723
737.371,33.0259,-3.55204,-0.07027556,0.62666
738.071,33.0492,-3.55204,-0.07188348,0.62608
738.771,33.0725,-3.55204,-0.07210985,0.62551
739.471,33.09576,-3.55204,-0.0730809,0.62494
740.171,33.11905,-3.55204,-0.07364907,0.62437
740.871,33.14233,-3.55204,-0.07629607,0.6238
741.571,33.1657,-3.55204,-0.07288369,0.62322
742.271,33.189,-3.55204,-0.07309105,0.62265
742.971,33.2123,-3.55204,-0.07280773,0.62208
743.671,33.2357,-3.55204,-0.0749054,0.62151
744.371,33.259,-3.55294,-0.07244364,0.62094
745.071,33.28224,-3.55336,-0.07237815,0.62036
745.771,33.30553,-3.55336,-0.07173442,0.61979
746.471,33.329,-3.55336,-0.07293663,0.61922
746.571,33.33243,-3.55336,-0.07310496,0.61914