File: 01_Data/Bean_Bag_Chair_Outer_Cover/STA/N2/30K_min/Bean_Bag_Outer_Cover_STA_N2_30KData_220511_R1.csv
##Temp./Â°C,Time/min,Mass loss(subtr.2)/mg,DSC(subtr.2)/(mW/mg),Sensit./(uV/mW)
48.638,10.00667,-0.00626,0.01455093,1.05399
49.338,10.56071,-0.007892655,0.0614097,1.05385
50.038,10.6849,-0.008501411,0.1007,1.0537
50.738,10.7744,-0.007324432,0.13588,1.05356
51.438,10.8476,-0.006668187,0.17116,1.05342
52.138,10.9108,-0.007752322,0.19928,1.05327
52.838,10.9672,-0.007934866,0.2265,1.05312
53.538,11.01901,-0.008348725,0.25289,1.05298
54.238,11.06714,-0.008368725,0.28115,1.05283
54.938,11.1122,-0.007469858,0.30361,1.05268
55.638,11.15467,-0.007764443,0.324,1.05253
56.338,11.19518,-0.00646445,0.34592,1.05238
57.038,11.2339,-0.005752091,0.36525,1.05223
57.738,11.2712,-0.00606332,0.38339,1.05207
58.438,11.3072,-0.00643821,0.4022,1.05192
59.138,11.34227,-0.006426232,0.42098,1.05176
59.838,11.37668,-0.005490701,0.43869,1.05161
60.538,11.4101,-0.005289792,0.45445,1.05145
61.238,11.44252,-0.005817628,0.47231,1.0513
61.938,11.47424,-0.00611846,0.48737,1.05114
62.638,11.50544,-0.006725179,0.49933,1.05098
63.338,11.53623,-0.006113705,0.51386,1.05082
64.038,11.5664,-0.006706875,0.53149,1.05066
64.738,11.5962,-0.006819943,0.54218,1.0505
65.438,11.62546,-0.006605972,0.55634,1.05033
66.138,11.65451,-0.006525161,0.57061,1.05017
66.838,11.6832,-0.00642619,0.58268,1.05001
67.538,11.71158,-0.006265331,0.5938,1.04984
68.238,11.73961,-0.006173217,0.60534,1.04968
68.938,11.76718,-0.006497792,0.61825,1.04951
69.638,11.79462,-0.007293246,0.63011,1.04934
70.338,11.82184,-0.007007074,0.63986,1.04917
71.038,11.84907,-0.00628437,0.65067,1.049
71.738,11.8759,-0.00607357,0.66134,1.04883
72.438,11.9026,-0.005443693,0.67216,1.04866
73.138,11.92913,-0.006372061,0.68224,1.04849
73.838,11.95545,-0.00682438,0.6924,1.04832
74.538,11.9817,-0.007061389,0.70278,1.04814
75.238,12.00773,-0.00690694,0.7119,1.04797
75.938,12.0337,-0.00679483,0.72215,1.04779
76.638,12.05935,-0.00752555,0.73078,1.04762
77.338,12.08498,-0.008336801,0.73964,1.04744
78.038,12.11057,-0.008539112,0.749,1.04726
78.738,12.13606,-0.00678202,0.75758,1.04708
79.438,12.16132,-0.006854739,0.76559,1.0469
80.138,12.1865,-0.00790127,0.77574,1.04672
80.838,12.21154,-0.007235364,0.7834,1.04654
81.538,12.2368,-0.00829225,0.79208,1.04636
82.238,12.26178,-0.008554177,0.80034,1.04617
82.938,12.2867,-0.00823,0.80902,1.04599
83.638,12.31126,-0.00850055,0.81534,1.0458
84.338,12.33587,-0.008610734,0.82271,1.04562
85.038,12.36047,-0.008703865,0.83088,1.04543
85.738,12.38482,-0.009800915,0.84212,1.04524
86.438,12.40906,-0.00868236,0.84652,1.04506
87.138,12.43347,-0.009359352,0.85378,1.04487
87.838,12.4579,-0.008531459,0.86222,1.04468
88.538,12.4824,-0.009051146,0.86959,1.04448
89.238,12.50651,-0.008560803,0.87817,1.04429
89.938,12.5306,-0.01003876,0.88526,1.0441
90.638,12.55467,-0.01083599,0.89148,1.04391
91.338,12.57872,-0.01091405,0.89752,1.04371
92.038,12.60267,-0.01143436,0.90611,1.04352
92.738,12.62663,-0.01141948,0.91399,1.04332
93.438,12.6505,-0.01266782,0.91956,1.04312
94.138,12.6744,-0.01170073,0.92558,1.04292
94.838,12.69818,-0.01295244,0.9318,1.04273
95.538,12.72198,-0.01296009,0.93792,1.04253
96.238,12.74566,-0.01295077,0.94171,1.04233
96.938,12.76941,-0.01166852,0.95249,1.04212
97.638,12.79298,-0.01296179,0.9531,1.04192
98.338,12.81662,-0.01296001,0.96002,1.04172
99.038,12.84022,-0.01295894,0.96556,1.04152
99.738,12.86385,-0.01418539,0.97184,1.04131
100.438,12.88735,-0.01427083,0.9738,1.04111
101.138,12.91088,-0.01382134,0.97758,1.0409
101.838,12.9345,-0.01458908,0.98543,1.04069
102.538,12.95805,-0.01460113,0.9885,1.04048
103.238,12.9816,-0.01470097,0.99258,1.04027
103.938,13.00513,-0.01590567,0.99777,1.04006
104.638,13.02853,-0.01560882,1.00064,1.03985
105.338,13.05208,-0.01558923,1.0037,1.03964
106.038,13.07555,-0.0142294,1.00781,1.03943
106.738,13.0991,-0.01426875,1.01261,1.03922
107.438,13.12256,-0.01561867,1.01336,1.039
108.138,13.146,-0.01560249,1.0156,1.03879
108.838,13.1694,-0.01676899,1.01838,1.03857
109.538,13.1927,-0.01691011,1.02147,1.03836
110.238,13.2161,-0.01686749,1.02211,1.03814
110.938,13.2395,-0.0182369,1.02681,1.03792
111.638,13.26283,-0.01823452,1.02694,1.0377
112.338,13.28609,-0.01916875,1.02819,1.03748
113.038,13.30931,-0.01955142,1.02937,1.03726
113.738,13.3323,-0.01954999,1.03284,1.03704
114.438,13.35561,-0.01955,1.03111,1.03682
115.138,13.37902,-0.01954999,1.03353,1.0366
115.838,13.4026,-0.01954719,1.03346,1.03637
116.538,13.4259,-0.02011073,1.03427,1.03615
117.238,13.4491,-0.02087375,1.03448,1.03592
117.938,13.47233,-0.02086998,1.03513,1.03569
118.638,13.4956,-0.02087022,1.03469,1.03547
119.338,13.51878,-0.02085745,1.03246,1.03524
120.038,13.5419,-0.01986408,1.03169,1.03501
120.738,13.56497,-0.01988016,1.03268,1.03478
121.438,13.58805,-0.01988,1.03201,1.03455
122.138,13.61105,-0.01988,1.03125,1.03432
122.838,13.6342,-0.01988,1.03176,1.03409
123.538,13.65719,-0.01988034,1.02808,1.03385
124.238,13.6802,-0.01988387,1.02982,1.03362
124.938,13.7032,-0.01955031,1.02994,1.03339
125.638,13.72615,-0.01987063,1.02749,1.03315
126.338,13.749,-0.01986903,1.0273,1.03291
127.038,13.772,-0.0200956,1.03054,1.03268
127.738,13.79488,-0.02118548,1.02542,1.03244
128.438,13.8178,-0.02119007,1.02476,1.0322
129.138,13.8406,-0.02118999,1.02539,1.03196
129.838,13.86336,-0.0211935,1.02392,1.03172
130.538,13.88616,-0.02059385,1.02426,1.03148
131.238,13.90887,-0.01986681,1.02316,1.03124
131.938,13.9314,-0.01983099,1.02282,1.031
132.638,13.95389,-0.02088553,1.02112,1.03075
133.338,13.97654,-0.02117967,1.02286,1.03051
134.038,13.9993,-0.02119004,1.0214,1.03026
134.738,14.02214,-0.02118999,1.02194,1.03002
135.438,14.0447,-0.02119097,1.02107,1.02977
136.138,14.06729,-0.02122313,1.02092,1.02952
136.838,14.0899,-0.02249683,1.02141,1.02928
137.538,14.11244,-0.02251007,1.02318,1.02903
138.238,14.135,-0.02251019,1.02271,1.02878
138.938,14.1574,-0.02249018,1.0231,1.02853
139.638,14.1799,-0.02392637,1.02607,1.02828
140.338,14.20232,-0.02393205,1.02547,1.02802
141.038,14.2248,-0.0235035,1.02452,1.02777
141.738,14.2471,-0.02262614,1.02625,1.02752
142.438,14.2694,-0.02395913,1.02465,1.02726
143.138,14.29176,-0.02393983,1.02733,1.02701
143.838,14.3141,-0.02394,1.02627,1.02675
144.538,14.33645,-0.02394,1.03134,1.02649
145.238,14.35875,-0.02394,1.03336,1.02624
145.938,14.381,-0.02394,1.03372,1.02598
146.638,14.40325,-0.02393994,1.03579,1.02572
147.338,14.4254,-0.02394283,1.03862,1.02546
148.038,14.44764,-0.02315769,1.04042,1.0252
148.738,14.4699,-0.02261642,1.04192,1.02494
149.438,14.49221,-0.02262002,1.04176,1.02467
150.138,14.5143,-0.02261961,1.04452,1.02441
150.838,14.53648,-0.02271876,1.0472,1.02415
151.538,14.5586,-0.02394821,1.04985,1.02388
152.238,14.5807,-0.02394005,1.05164,1.02362
152.938,14.6027,-0.02394,1.05539,1.02335
153.638,14.62474,-0.02394,1.05378,1.02308
154.338,14.64679,-0.02394,1.05684,1.02281
155.038,14.6688,-0.02393995,1.06109,1.02255
155.738,14.6908,-0.02394442,1.0627,1.02228
156.438,14.7129,-0.02332644,1.06518,1.02201
157.138,14.7349,-0.02296568,1.06804,1.02174
157.838,14.7569,-0.02262837,1.06985,1.02146
158.538,14.7789,-0.02261995,1.07426,1.02119
159.238,14.80095,-0.02262,1.07553,1.02092
159.938,14.823,-0.02262,1.07942,1.02064
160.638,14.84496,-0.02262,1.08138,1.02037
161.338,14.86689,-0.02262,1.08424,1.02009
162.038,14.88885,-0.02262006,1.08664,1.01982
162.738,14.91073,-0.02261486,1.08928,1.01954
163.438,14.93256,-0.02169954,1.0912,1.01926
164.138,14.9544,-0.02129394,1.0928,1.01898
164.838,14.9763,-0.02234988,1.09729,1.01871
165.538,14.99825,-0.02228938,1.10154,1.01843
166.238,15.0201,-0.02229,1.10443,1.01814
166.938,15.0421,-0.02229,1.10704,1.01786
167.638,15.06381,-0.02229031,1.11124,1.01758
168.338,15.08545,-0.02227754,1.11409,1.0173
169.038,15.1071,-0.02130476,1.11615,1.01701
169.738,15.1288,-0.02131028,1.11916,1.01673
170.438,15.1508,-0.02131,1.12127,1.01644
171.138,15.17273,-0.02131,1.1251,1.01616
171.838,15.19474,-0.02131,1.1279,1.01587
172.538,15.2165,-0.02130999,1.13194,1.01558
173.238,15.2383,-0.02131064,1.13282,1.01529
173.938,15.26,-0.02130876,1.1359,1.01501
174.638,15.28168,-0.02163761,1.1365,1.01472
175.338,15.3033,-0.02127763,1.13977,1.01442
176.038,15.32509,-0.02131032,1.14156,1.01413
176.738,15.3468,-0.02131,1.14547,1.01384
177.438,15.36845,-0.02131,1.14733,1.01355
178.138,15.3901,-0.02131,1.15067,1.01325
178.838,15.41174,-0.02131,1.15043,1.01296
179.538,15.43331,-0.02131,1.15252,1.01267
180.238,15.455,-0.02131,1.15671,1.01237
180.938,15.4766,-0.02130975,1.15927,1.01207
181.638,15.49823,-0.021323,1.16072,1.01178
182.338,15.5197,-0.02260503,1.16506,1.01148
183.038,15.5412,-0.02261928,1.16668,1.01118
183.738,15.56267,-0.02262002,1.16857,1.01088
184.438,15.5841,-0.02262,1.17005,1.01058
185.138,15.60564,-0.02262,1.17504,1.01028
185.838,15.6271,-0.02262,1.17675,1.00998
186.538,15.6486,-0.02262,1.17874,1.00967
187.238,15.67004,-0.02262,1.18056,1.00937
187.938,15.6915,-0.02262,1.18189,1.00907
188.638,15.71301,-0.02262,1.1875,1.00876
189.338,15.73448,-0.02262,1.1891,1.00846
190.038,15.75596,-0.02262,1.18873,1.00815
190.738,15.7774,-0.02262,1.19059,1.00784
191.438,15.79884,-0.02262,1.19553,1.00754
192.138,15.82029,-0.02262,1.19553,1.00723
192.838,15.84169,-0.02262014,1.19871,1.00692
193.538,15.86305,-0.02260758,1.20083,1.00661
194.238,15.8844,-0.02145784,1.20301,1.0063
194.938,15.90579,-0.0212991,1.20437,1.00599
195.638,15.92715,-0.02129999,1.20774,1.00568
196.338,15.9485,-0.0213,1.20997,1.00536
197.038,15.96977,-0.0213,1.21222,1.00505
197.738,15.99104,-0.0213,1.2144,1.00474
198.438,16.01235,-0.0213,1.21613,1.00442
199.138,16.03361,-0.0213,1.21708,1.00411
199.838,16.05496,-0.02130003,1.22082,1.00379
200.538,16.0761,-0.02129694,1.2239,1.00347
201.238,16.09724,-0.02162606,1.22781,1.00316
201.938,16.1185,-0.0226139,1.22469,1.00284
202.638,16.13999,-0.02262,1.22713,1.00252
203.338,16.16153,-0.02262,1.23272,1.0022
204.038,16.18303,-0.02262,1.23273,1.00188
204.738,16.20431,-0.02262,1.23581,1.00156
205.438,16.2256,-0.02262,1.23803,1.00124
206.138,16.24669,-0.02262,1.24112,1.00091
206.838,16.268,-0.02261372,1.24282,1.00059
207.538,16.2893,-0.02367209,1.24383,1.00027
208.238,16.31064,-0.02360907,1.24603,0.99994
208.938,16.33202,-0.02361001,1.24818,0.99962
209.638,16.3533,-0.02361,1.24859,0.99929
210.338,16.37464,-0.02361001,1.25451,0.99896
211.038,16.39585,-0.02360911,1.25598,0.99864
211.738,16.4171,-0.02367096,1.25788,0.99831
212.438,16.43833,-0.02261178,1.26082,0.99798
213.138,16.4596,-0.02262004,1.26285,0.99765
213.838,16.4809,-0.02262096,1.26541,0.99732
214.538,16.5021,-0.02247337,1.26714,0.99699
215.238,16.52335,-0.02131169,1.26777,0.99666
215.938,16.54459,-0.02147666,1.27104,0.99632
216.638,16.56581,-0.0226246,1.27235,0.99599
217.338,16.58706,-0.02262003,1.27377,0.99566
218.038,16.60823,-0.02262,1.27556,0.99532
218.738,16.6295,-0.02262,1.27732,0.99499
219.438,16.65071,-0.02262005,1.27873,0.99465
220.138,16.67193,-0.0226179,1.28142,0.99432
220.838,16.69316,-0.02294437,1.2828,0.99398
221.538,16.7143,-0.02293547,1.28442,0.99364
222.238,16.73548,-0.02432608,1.28515,0.9933
222.938,16.7566,-0.02479429,1.28733,0.99296
223.638,16.77777,-0.02493124,1.28976,0.99262
224.338,16.799,-0.02493002,1.29161,0.99228
225.038,16.82023,-0.02493055,1.2923,0.99194
225.738,16.84141,-0.02528961,1.2951,0.9916
226.438,16.86255,-0.02525931,1.29594,0.99126
227.138,16.8837,-0.02526001,1.29679,0.99092
227.838,16.90482,-0.02525993,1.29775,0.99057
228.538,16.92598,-0.02526187,1.29827,0.99023
229.238,16.94712,-0.02454288,1.30132,0.98988
229.938,16.9682,-0.02393668,1.30068,0.98954
230.638,16.9894,-0.02394007,1.30257,0.98919
231.338,17.01053,-0.02394,1.30433,0.98884
232.038,17.03173,-0.02394,1.30491,0.9885
232.738,17.0529,-0.02394,1.30482,0.98815
233.438,17.07401,-0.02394006,1.30664,0.9878
234.138,17.09508,-0.02393061,1.3092,0.98745
234.838,17.11617,-0.02511767,1.30922,0.9871
235.538,17.13731,-0.02525108,1.30987,0.98675
236.238,17.15844,-0.02524999,1.3128,0.98639
236.938,17.17955,-0.02524997,1.31409,0.98604
237.638,17.20063,-0.02524717,1.31667,0.98569
238.338,17.2217,-0.02445267,1.31518,0.98533
239.038,17.24285,-0.02425883,1.3174,0.98498
239.738,17.26399,-0.02426002,1.31812,0.98463
240.438,17.28513,-0.02426,1.31724,0.98427
241.138,17.30613,-0.02426,1.32032,0.98391
241.838,17.327,-0.02426,1.32316,0.98356
242.538,17.34804,-0.02425985,1.32396,0.9832
243.238,17.3692,-0.02427462,1.32507,0.98284
243.938,17.39058,-0.02609713,1.3242,0.98248
244.638,17.41197,-0.02689941,1.32912,0.98212
245.338,17.43309,-0.0269,1.33031,0.98176
246.038,17.45414,-0.02690008,1.33215,0.9814
246.738,17.47514,-0.02688957,1.3317,0.98104
247.438,17.4962,-0.02808865,1.33179,0.98068
248.138,17.5173,-0.02822112,1.33273,0.98031
248.838,17.53846,-0.02821882,1.33384,0.97995
249.538,17.55949,-0.02850756,1.3364,0.97959
250.238,17.58055,-0.02953785,1.3366,0.97922
250.938,17.60152,-0.02954009,1.33851,0.97886
251.638,17.62258,-0.02953979,1.34149,0.97849
252.338,17.64365,-0.02955395,1.34147,0.97812
253.038,17.66483,-0.0307309,1.34066,0.97776
253.738,17.68587,-0.03085081,1.34214,0.97739
254.438,17.70693,-0.03085,1.34422,0.97702
255.138,17.728,-0.03085039,1.34646,0.97665
255.838,17.74911,-0.03081193,1.35008,0.97628
256.538,17.77016,-0.0322172,1.35104,0.97591
257.238,17.79123,-0.03216937,1.35003,0.97554
257.938,17.8123,-0.03217001,1.35206,0.97517
258.638,17.83336,-0.03217,1.35364,0.97479
259.338,17.85438,-0.03216888,1.35609,0.97442
260.038,17.8754,-0.03231236,1.35636,0.97405
260.738,17.89646,-0.03347682,1.35822,0.97367
261.438,17.91755,-0.03347116,1.36221,0.9733
262.138,17.93862,-0.03477686,1.36274,0.97292
262.838,17.9596,-0.03511715,1.36489,0.97255
263.538,17.98065,-0.03548394,1.36604,0.97217
264.238,18.00167,-0.03679737,1.36761,0.97179
264.938,18.02274,-0.03677701,1.36989,0.97141
265.638,18.0438,-0.03706816,1.37048,0.97104
266.338,18.06482,-0.03830737,1.37217,0.97066
267.038,18.08585,-0.03858425,1.37505,0.97028
267.738,18.1068,-0.03963932,1.37509,0.9699
268.438,18.12775,-0.03964007,1.37653,0.96951
269.138,18.14873,-0.03964,1.37815,0.96913
269.838,18.1698,-0.03963975,1.37862,0.96875
270.538,18.19099,-0.03965409,1.37795,0.96837
271.238,18.21215,-0.04088997,1.38103,0.96798
271.938,18.23323,-0.04096124,1.38157,0.9676
272.638,18.25422,-0.04230176,1.38078,0.96722
273.338,18.27533,-0.0422668,1.3834,0.96683
274.038,18.29636,-0.04250093,1.3847,0.96644
274.738,18.31736,-0.04357777,1.38575,0.96606
275.438,18.33843,-0.04379979,1.38485,0.96567
276.138,18.35952,-0.04491099,1.38441,0.96528
276.838,18.3806,-0.0456436,1.38898,0.96489
277.538,18.40171,-0.04622384,1.38944,0.96451
278.238,18.42277,-0.0474485,1.39132,0.96412
278.938,18.44383,-0.04760588,1.39163,0.96373
279.638,18.46483,-0.04923246,1.38965,0.96333
280.338,18.48592,-0.04916357,1.39182,0.96294
281.038,18.50693,-0.05061614,1.39264,0.96255
281.738,18.52807,-0.05069762,1.39306,0.96216
282.438,18.5492,-0.05211469,1.39433,0.96177
283.138,18.57029,-0.05343581,1.3945,0.96137
283.838,18.59141,-0.05375943,1.39609,0.96098
284.538,18.61252,-0.05512611,1.39692,0.96058
285.238,18.63348,-0.05511932,1.3965,0.96019
285.938,18.65455,-0.05620568,1.39835,0.95979
286.638,18.67557,-0.05644042,1.39749,0.95939
287.338,18.69663,-0.05654377,1.4007,0.959
288.038,18.71787,-0.05787849,1.40106,0.9586
288.738,18.739,-0.05810284,1.40448,0.9582
289.438,18.7601,-0.05939894,1.40501,0.9578
290.138,18.78118,-0.06061744,1.40745,0.9574
290.838,18.8022,-0.0609966,1.40752,0.957
291.538,18.8233,-0.0625012,1.40796,0.9566
292.238,18.84441,-0.0632316,1.41078,0.9562
292.938,18.86553,-0.06388534,1.41255,0.9558
293.638,18.8866,-0.06543776,1.41261,0.9554
294.338,18.90768,-0.06636823,1.41142,0.95499
295.038,18.9287,-0.06721138,1.4169,0.95459
295.738,18.94978,-0.06855933,1.41582,0.95418
296.438,18.97085,-0.07020631,1.41597,0.95378
297.138,18.99194,-0.06994738,1.41816,0.95337
297.838,19.01304,-0.07089043,1.41927,0.95297
298.538,19.03418,-0.07238274,1.42062,0.95256
299.238,19.05529,-0.07401799,1.42473,0.95216
299.938,19.07645,-0.07573513,1.42569,0.95175
300.638,19.0976,-0.07758521,1.42727,0.95134
301.338,19.11865,-0.07913481,1.4286,0.95093
302.038,19.13978,-0.07989787,1.43002,0.95052
302.738,19.16081,-0.08123487,1.43176,0.95011
303.438,19.1819,-0.08366131,1.43194,0.9497
304.138,19.20308,-0.08537741,1.43668,0.94929
304.838,19.22425,-0.08680584,1.4369,0.94888
305.538,19.24543,-0.0885914,1.43922,0.94847
306.238,19.26659,-0.09068773,1.4432,0.94805
306.938,19.28774,-0.09189761,1.44399,0.94764
307.638,19.3089,-0.0927818,1.44727,0.94723
308.338,19.33006,-0.09412828,1.44779,0.94681
309.038,19.35118,-0.09624342,1.45114,0.9464
309.738,19.3723,-0.09857504,1.45368,0.94598
310.438,19.3934,-0.1018,1.45727,0.94557
311.138,19.4145,-0.10464,1.45989,0.94515
311.838,19.43554,-0.10656,1.46205,0.94473
312.538,19.45665,-0.1088,1.4655,0.94431
313.238,19.47782,-0.1111,1.46771,0.9439
313.938,19.49899,-0.11242,1.47141,0.94348
314.638,19.52017,-0.11474,1.4746,0.94306
315.338,19.54133,-0.11722,1.47812,0.94264
316.038,19.56246,-0.11965,1.48205,0.94222
316.738,19.58362,-0.12157,1.48558,0.9418
317.438,19.60473,-0.1244,1.48738,0.94138
318.138,19.626,-0.12712,1.49325,0.94095
318.838,19.6472,-0.13018,1.49849,0.94053
319.538,19.66838,-0.1332,1.49991,0.94011
320.238,19.68947,-0.13563,1.50746,0.93968
320.938,19.71039,-0.13889,1.51107,0.93926
321.638,19.7315,-0.14243,1.51726,0.93884
322.338,19.75265,-0.14518,1.52043,0.93841
323.038,19.774,-0.1484,1.52822,0.93798
323.738,19.79516,-0.15182,1.53175,0.93756
324.438,19.81636,-0.15478,1.53908,0.93713
325.138,19.83754,-0.15803,1.54341,0.9367
325.838,19.8587,-0.16152,1.54988,0.93628
326.538,19.87987,-0.16564,1.5568,0.93585
327.238,19.90091,-0.17009,1.5631,0.93542
327.938,19.922,-0.17359,1.57175,0.93499
328.638,19.94316,-0.17771,1.57964,0.93456
329.338,19.96444,-0.18307,1.58584,0.93413
330.038,19.9858,-0.18756,1.59829,0.9337
330.738,20.00706,-0.19321,1.60704,0.93327
331.438,20.0283,-0.19698,1.61748,0.93283
332.138,20.04958,-0.20206,1.62792,0.9324
332.838,20.07084,-0.20684,1.63954,0.93197
333.538,20.09211,-0.21159,1.646,0.93153
334.238,20.11332,-0.21694,1.65985,0.9311
334.938,20.1345,-0.22206,1.67288,0.93067
335.638,20.15577,-0.22759,1.68573,0.93023
336.338,20.17696,-0.23382,1.69581,0.92979
337.038,20.19827,-0.24029,1.71023,0.92936
337.738,20.2195,-0.24632,1.72672,0.92892
338.438,20.2408,-0.25281,1.74127,0.92848
339.138,20.26202,-0.25824,1.75845,0.92805
339.838,20.28331,-0.26494,1.77296,0.92761
340.538,20.30461,-0.27223,1.79018,0.92717
341.238,20.3259,-0.27935,1.80946,0.92673
341.938,20.34711,-0.28692,1.82819,0.92629
342.638,20.36842,-0.29542,1.85033,0.92585
343.338,20.38975,-0.30488,1.87029,0.92541
344.038,20.4111,-0.314,1.89311,0.92497
344.738,20.4325,-0.32266,1.91514,0.92453
345.438,20.4538,-0.33153,1.93771,0.92408
346.138,20.47515,-0.34173,1.96573,0.92364
346.838,20.49652,-0.35169,1.99315,0.9232
347.538,20.5179,-0.36161,2.02074,0.92275
348.238,20.53924,-0.37138,2.05203,0.92231
348.938,20.56052,-0.38166,2.08175,0.92186
349.638,20.58186,-0.39279,2.11571,0.92142
350.338,20.60322,-0.40516,2.14973,0.92097
351.038,20.6247,-0.41755,2.18474,0.92053
351.738,20.64609,-0.43014,2.22091,0.92008
352.438,20.6675,-0.44337,2.26023,0.91963
353.138,20.68882,-0.45649,2.29989,0.91919
353.838,20.71026,-0.47036,2.34489,0.91874
354.538,20.73165,-0.48512,2.39101,0.91829
355.238,20.7532,-0.50041,2.4376,0.91784
355.938,20.77465,-0.51628,2.48458,0.91739
356.638,20.79614,-0.53236,2.53619,0.91694
357.338,20.81758,-0.54986,2.58646,0.91649
358.038,20.83908,-0.56768,2.64237,0.91604
358.738,20.86058,-0.58553,2.69645,0.91559
359.438,20.88208,-0.604,2.75643,0.91513
360.138,20.90356,-0.62381,2.81487,0.91468
360.838,20.92507,-0.64414,2.87769,0.91423
361.538,20.94659,-0.66543,2.94221,0.91377
362.238,20.96819,-0.68743,3.00923,0.91332
362.938,20.9897,-0.71034,3.07773,0.91287
363.638,21.01125,-0.73382,3.14743,0.91241
364.338,21.03276,-0.75836,3.21946,0.91196
365.038,21.05436,-0.785,3.29664,0.9115
365.738,21.07599,-0.81198,3.37096,0.91104
366.438,21.0976,-0.84019,3.44971,0.91059
367.138,21.11913,-0.86885,3.5304,0.91013
367.838,21.14066,-0.8982,3.61007,0.90967
368.538,21.16226,-0.92917,3.69536,0.90921
369.238,21.18391,-0.96084,3.78,0.90875
369.938,21.20562,-0.9939,3.86504,0.9083
370.638,21.22729,-1.02834,3.95004,0.90784
371.338,21.249,-1.06288,4.03865,0.90738
372.038,21.27069,-1.09858,4.12615,0.90692
372.738,21.29245,-1.13602,4.21405,0.90645
373.438,21.31417,-1.17403,4.30185,0.90599
374.138,21.33585,-1.21402,4.386,0.90553
374.838,21.3576,-1.25464,4.4732,0.90507
375.538,21.37929,-1.2951,4.55742,0.90461
376.238,21.401,-1.33746,4.64077,0.90414
376.938,21.42277,-1.3806,4.72031,0.90368
377.638,21.44454,-1.42464,4.79678,0.90321
378.338,21.46633,-1.46985,4.87164,0.90275
379.038,21.4881,-1.5154,4.9434,0.90228
379.738,21.50984,-1.56294,5.011,0.90182
380.438,21.53163,-1.61098,5.07362,0.90135
381.138,21.55339,-1.65875,5.13185,0.90089
381.838,21.5752,-1.7081,5.18552,0.90042
382.538,21.59706,-1.75759,5.23373,0.89995
383.238,21.61889,-1.80748,5.27458,0.89948
383.938,21.6406,-1.85836,5.31358,0.89902
384.638,21.66241,-1.90867,5.34167,0.89855
385.338,21.68422,-1.95975,5.36766,0.89808
386.038,21.70603,-2.01064,5.37879,0.89761
386.738,21.72788,-2.0611,5.39005,0.89714
387.438,21.74969,-2.11269,5.39402,0.89667
388.138,21.7715,-2.16465,5.39251,0.8962
388.838,21.7933,-2.21587,5.37733,0.89573
389.538,21.81512,-2.26759,5.36025,0.89525
390.238,21.83691,-2.31767,5.33144,0.89478
390.938,21.85872,-2.36727,5.29695,0.89431
391.638,21.8805,-2.41689,5.25365,0.89384
392.338,21.9023,-2.46548,5.19986,0.89336
393.038,21.924,-2.5131,5.13701,0.89289
393.738,21.94575,-2.56164,5.06491,0.89241
394.438,21.96748,-2.60846,4.98273,0.89194
395.138,21.9892,-2.65587,4.89343,0.89146
395.838,22.01088,-2.7002,4.78806,0.89099
396.538,22.03256,-2.74309,4.67367,0.89051
397.238,22.05423,-2.78524,4.54426,0.89004
397.938,22.0759,-2.82555,4.40505,0.88956
398.638,22.0976,-2.86518,4.25351,0.88908
399.338,22.11925,-2.90379,4.08468,0.8886
400.038,22.14082,-2.93913,3.90771,0.88813
400.738,22.16235,-2.97254,3.71598,0.88765
401.438,22.18382,-3.00383,3.51692,0.88717
402.138,22.20531,-3.03339,3.30449,0.88669
402.838,22.22679,-3.0617,3.09031,0.88621
403.538,22.2483,-3.08671,2.87042,0.88573
404.238,22.26972,-3.10891,2.65001,0.88525
404.938,22.29094,-3.12803,2.43382,0.88477
405.638,22.31237,-3.1443,2.21993,0.88429
406.338,22.33384,-3.15912,2.01228,0.8838
407.038,22.35535,-3.17283,1.81743,0.88332
407.738,22.37686,-3.18518,1.63286,0.88284
408.438,22.3982,-3.19485,1.46758,0.88236
409.138,22.4196,-3.20248,1.31612,0.88187
409.838,22.4409,-3.20844,1.18564,0.88139
410.538,22.46227,-3.21284,1.06724,0.8809
411.238,22.4836,-3.21685,0.96634,0.88042
411.938,22.50495,-3.22015,0.87958,0.87993
412.638,22.52639,-3.22247,0.80463,0.87945
413.338,22.54772,-3.22446,0.74316,0.87896
414.038,22.56914,-3.22652,0.68422,0.87848
414.738,22.59057,-3.22932,0.64185,0.87799
415.438,22.612,-3.23152,0.60349,0.8775
416.138,22.63349,-3.23312,0.56934,0.87701
416.838,22.65495,-3.234,0.53948,0.87653
417.538,22.67643,-3.23455,0.51641,0.87604
418.238,22.69793,-3.23472,0.49262,0.87555
418.938,22.71949,-3.23609,0.47589,0.87506
419.638,22.74105,-3.2379,0.46038,0.87457
420.338,22.7626,-3.23906,0.44703,0.87408
421.038,22.7843,-3.24002,0.43394,0.87359
421.738,22.8059,-3.24124,0.42645,0.8731
422.438,22.82751,-3.24259,0.41362,0.87261
423.138,22.8491,-3.24256,0.40746,0.87212
423.838,22.8708,-3.24291,0.39956,0.87162
424.538,22.8925,-3.24388,0.39044,0.87113
425.238,22.9142,-3.24495,0.38386,0.87064
425.938,22.93582,-3.24547,0.38001,0.87015
426.638,22.95756,-3.24681,0.37227,0.86965
427.338,22.97932,-3.24908,0.37096,0.86916
428.038,23.0012,-3.24949,0.36514,0.86867
428.738,23.0229,-3.25054,0.36119,0.86817
429.438,23.0445,-3.25092,0.35871,0.86768
430.138,23.06636,-3.25187,0.35381,0.86718
430.838,23.08805,-3.25224,0.34914,0.86668
431.538,23.10993,-3.25303,0.3464,0.86619
432.238,23.13165,-3.25287,0.34396,0.86569
432.938,23.15325,-3.25409,0.34129,0.8652
433.638,23.175,-3.25457,0.33763,0.8647
434.338,23.1968,-3.2554,0.33423,0.8642
435.038,23.2187,-3.25564,0.33084,0.8637
435.738,23.2407,-3.25675,0.32878,0.8632
436.438,23.2625,-3.25801,0.32727,0.86271
437.138,23.2844,-3.2593,0.32419,0.86221
437.838,23.30619,-3.25936,0.32231,0.86171
438.538,23.32797,-3.26014,0.31833,0.86121
439.238,23.34978,-3.26003,0.31589,0.86071
439.938,23.37165,-3.26,0.31351,0.86021
440.638,23.39355,-3.26134,0.3114,0.85971
441.338,23.41546,-3.26135,0.30992,0.8592
442.038,23.43735,-3.2626,0.30835,0.8587
442.738,23.4593,-3.26287,0.30559,0.8582
443.438,23.48123,-3.26396,0.30532,0.8577
444.138,23.50309,-3.26414,0.30155,0.8572
444.838,23.52495,-3.26554,0.29874,0.85669
445.538,23.5469,-3.26551,0.29841,0.85619
446.238,23.56878,-3.26685,0.29582,0.85569
446.938,23.5908,-3.26716,0.29343,0.85518
447.638,23.61263,-3.26825,0.29092,0.85468
448.338,23.6346,-3.26936,0.28977,0.85417
449.038,23.6566,-3.26969,0.28856,0.85367
449.738,23.67857,-3.27091,0.28552,0.85316
450.438,23.7006,-3.271,0.28267,0.85266
451.138,23.7225,-3.27107,0.28269,0.85215
451.838,23.74452,-3.27244,0.28016,0.85164
452.538,23.7665,-3.27306,0.27805,0.85114
453.238,23.78845,-3.27375,0.27595,0.85063
453.938,23.81045,-3.27445,0.27394,0.85012
454.638,23.83244,-3.27506,0.27234,0.84961
455.338,23.85448,-3.27506,0.27143,0.8491
456.038,23.87651,-3.27501,0.27245,0.8486
456.738,23.89852,-3.2764,0.27122,0.84809
457.438,23.92052,-3.27637,0.26982,0.84758
458.138,23.9425,-3.27786,0.26784,0.84707
458.838,23.96452,-3.2782,0.26496,0.84656
459.538,23.98659,-3.27912,0.26296,0.84605
460.238,24.00865,-3.27942,0.26289,0.84554
460.938,24.0307,-3.28081,0.25995,0.84503
461.638,24.05271,-3.28078,0.25881,0.84452
462.338,24.07479,-3.28224,0.25808,0.844
463.038,24.09689,-3.28308,0.25827,0.84349
463.738,24.11894,-3.28396,0.25534,0.84298
464.438,24.14105,-3.2845,0.25392,0.84247
465.138,24.1631,-3.2857,0.25166,0.84195
465.838,24.18529,-3.28582,0.25001,0.84144
466.538,24.20739,-3.28582,0.24925,0.84093
467.238,24.22954,-3.28701,0.24745,0.84041
467.938,24.25165,-3.28714,0.24705,0.8399
468.638,24.27373,-3.28713,0.24412,0.83938
469.338,24.29585,-3.28851,0.24242,0.83887
470.038,24.3179,-3.28849,0.24393,0.83835
470.738,24.34013,-3.28845,0.2412,0.83784
471.438,24.36216,-3.28845,0.23996,0.83732
472.138,24.3843,-3.2888,0.24019,0.83681
472.838,24.40644,-3.29109,0.23768,0.83629
473.538,24.42861,-3.29225,0.23659,0.83577
474.238,24.4508,-3.29247,0.23383,0.83526
474.938,24.4729,-3.29385,0.23285,0.83474
475.638,24.49513,-3.29385,0.23298,0.83422
476.338,24.51724,-3.29494,0.23421,0.8337
477.038,24.53941,-3.29515,0.23194,0.83318
477.738,24.56166,-3.29564,0.23088,0.83267
478.438,24.58381,-3.29647,0.22655,0.83215
479.138,24.60598,-3.29646,0.22789,0.83163
479.838,24.6282,-3.29781,0.22677,0.83111
480.538,24.65046,-3.29779,0.22598,0.83059
481.238,24.67272,-3.29778,0.22523,0.83007
481.938,24.6949,-3.29718,0.22235,0.82955
482.638,24.71705,-3.29846,0.22131,0.82903
483.338,24.73927,-3.29841,0.22085,0.8285
484.038,24.7615,-3.29975,0.21998,0.82798
484.738,24.78366,-3.29977,0.21855,0.82746
485.438,24.80586,-3.30159,0.219,0.82694
486.138,24.82796,-3.3024,0.21808,0.82642
486.838,24.8502,-3.30268,0.21759,0.82589
487.538,24.8724,-3.30372,0.21619,0.82537
488.238,24.89469,-3.30372,0.21414,0.82485
488.938,24.91694,-3.30441,0.2124,0.82432
489.638,24.93917,-3.30502,0.21164,0.8238
490.338,24.96125,-3.30403,0.21079,0.82328
491.038,24.98336,-3.30404,0.21256,0.82275
491.738,25.00558,-3.30404,0.20913,0.82223
492.438,25.02796,-3.30402,0.20887,0.8217
493.138,25.05037,-3.30541,0.20938,0.82118
493.838,25.07265,-3.30534,0.20715,0.82065
494.538,25.09494,-3.30688,0.20722,0.82013
495.238,25.11726,-3.3069,0.20379,0.8196
495.938,25.1396,-3.30688,0.20478,0.81907
496.638,25.1619,-3.30821,0.20303,0.81855
497.338,25.1842,-3.30822,0.20185,0.81802
498.038,25.20644,-3.30822,0.20186,0.81749
498.738,25.2286,-3.30955,0.20034,0.81696
499.438,25.25084,-3.30954,0.19741,0.81644
500.138,25.2731,-3.31084,0.19871,0.81591
500.838,25.2955,-3.31085,0.19845,0.81538
501.538,25.31782,-3.31163,0.19545,0.81485
502.238,25.34005,-3.31217,0.19548,0.81432
502.938,25.36221,-3.31223,0.194,0.81379
503.638,25.3845,-3.3135,0.19395,0.81326
504.338,25.40686,-3.31384,0.19371,0.81273
505.038,25.4293,-3.31613,0.19529,0.8122
505.738,25.4516,-3.31612,0.19398,0.81167
506.438,25.474,-3.31613,0.19206,0.81114
507.138,25.49631,-3.31746,0.19286,0.81061
507.838,25.51861,-3.31745,0.19201,0.81008
508.538,25.54089,-3.31881,0.19294,0.80955
509.238,25.5632,-3.31812,0.19292,0.80902
509.938,25.58557,-3.31834,0.19436,0.80848
510.638,25.608,-3.31942,0.19334,0.80795
511.338,25.63031,-3.3194,0.193,0.80742
512.038,25.6526,-3.32072,0.1903,0.80689
512.738,25.67499,-3.32073,0.19079,0.80635
513.438,25.69734,-3.32073,0.1903,0.80582
514.138,25.7197,-3.32073,0.18759,0.80529
514.838,25.7421,-3.32207,0.18473,0.80475
515.538,25.76452,-3.32205,0.18515,0.80422
516.238,25.7869,-3.32206,0.18283,0.80368
516.938,25.80935,-3.32336,0.18097,0.80315
517.638,25.83181,-3.32337,0.18113,0.80262
518.338,25.8542,-3.32443,0.18052,0.80208
519.038,25.87667,-3.32468,0.17975,0.80154
519.738,25.89902,-3.32468,0.17735,0.80101
520.438,25.92137,-3.32471,0.17603,0.80047
521.138,25.94369,-3.32602,0.17363,0.79994
521.838,25.96612,-3.32598,0.17238,0.7994
522.538,25.98848,-3.32731,0.17447,0.79886
523.238,26.011,-3.32733,0.1712,0.79833
523.938,26.03343,-3.32832,0.17058,0.79779
524.638,26.05591,-3.32865,0.16843,0.79725
525.338,26.07834,-3.32985,0.16862,0.79671
526.038,26.1008,-3.32995,0.16346,0.79618
526.738,26.1232,-3.32995,0.16154,0.79564
527.438,26.14572,-3.32995,0.1607,0.7951
528.138,26.16818,-3.32999,0.16228,0.79456
528.838,26.19067,-3.33129,0.1616,0.79402
529.538,26.21314,-3.33127,0.16069,0.79348
530.238,26.23566,-3.33127,0.1609,0.79294
530.938,26.25822,-3.33187,0.16025,0.7924
531.638,26.28065,-3.33192,0.16049,0.79187
532.338,26.30306,-3.3333,0.15774,0.79132
533.038,26.3255,-3.33381,0.16061,0.79078
533.738,26.3479,-3.33394,0.16702,0.79024
534.438,26.37037,-3.33525,0.16704,0.7897
535.138,26.39283,-3.33523,0.1708,0.78916
535.838,26.4154,-3.33614,0.17106,0.78862
536.538,26.4379,-3.33654,0.17588,0.78808
537.238,26.4604,-3.33552,0.17848,0.78754
537.938,26.4829,-3.33522,0.18188,0.787
538.638,26.5053,-3.33571,0.18466,0.78645
539.338,26.52791,-3.33654,0.18666,0.78591
540.038,26.5504,-3.33654,0.1854,0.78537
540.738,26.57295,-3.33653,0.18721,0.78483
541.438,26.59542,-3.33922,0.18594,0.78428
542.138,26.6179,-3.33918,0.18709,0.78374
542.838,26.64043,-3.33918,0.18785,0.7832
543.538,26.663,-3.33941,0.18749,0.78265
544.238,26.6854,-3.3405,0.18579,0.78211
544.938,26.7079,-3.3405,0.18422,0.78156
545.638,26.7305,-3.34063,0.18507,0.78102
546.338,26.75313,-3.34181,0.18284,0.78048
547.038,26.77569,-3.34181,0.18184,0.77993
547.738,26.79828,-3.34181,0.18222,0.77939
548.438,26.82085,-3.34183,0.18017,0.77884
549.138,26.84345,-3.34315,0.17957,0.77829
549.838,26.86598,-3.34313,0.1781,0.77775
550.538,26.88857,-3.34313,0.17769,0.7772
551.238,26.91122,-3.34318,0.17575,0.77666
551.938,26.93388,-3.34182,0.17568,0.77611
552.638,26.95644,-3.34205,0.17326,0.77556
553.338,26.97894,-3.34313,0.17117,0.77502
554.038,27.00157,-3.34313,0.1701,0.77447
554.738,27.02419,-3.34313,0.16861,0.77392
555.438,27.04685,-3.34313,0.16492,0.77338
556.138,27.0694,-3.34313,0.16402,0.77283
556.838,27.09202,-3.34309,0.16189,0.77228
557.538,27.11464,-3.34444,0.15854,0.77173
558.238,27.13725,-3.34445,0.15986,0.77118
558.938,27.1599,-3.34445,0.15795,0.77064
559.638,27.1825,-3.34445,0.15606,0.77009
560.338,27.20519,-3.34357,0.15481,0.76954
561.038,27.2278,-3.34346,0.15636,0.76899
561.738,27.2504,-3.34359,0.15413,0.76844
562.438,27.2729,-3.34477,0.15275,0.76789
563.138,27.29559,-3.34476,0.1491,0.76734
563.838,27.3183,-3.34605,0.14664,0.76679
564.538,27.341,-3.34716,0.1429,0.76624
565.238,27.36362,-3.34741,0.13991,0.76569
565.938,27.38624,-3.34741,0.13835,0.76514
566.638,27.40888,-3.3474,0.13414,0.76459
567.338,27.4316,-3.34869,0.1298,0.76404
568.038,27.4543,-3.34873,0.12604,0.76349
568.738,27.47705,-3.34943,0.12313,0.76294
569.438,27.49975,-3.35005,0.11848,0.76239
570.138,27.52235,-3.35005,0.1148,0.76183
570.838,27.545,-3.35005,0.1085,0.76128
571.538,27.5677,-3.35005,0.09990496,0.76073
572.238,27.5905,-3.35005,0.09694171,0.76018
572.938,27.6132,-3.35005,0.08743142,0.75963
573.638,27.6359,-3.35062,0.0834022,0.75907
574.338,27.6586,-3.35136,0.07873646,0.75852
575.038,27.6813,-3.35136,0.07482354,0.75797
575.738,27.704,-3.35136,0.06863623,0.75742
576.438,27.7267,-3.35136,0.06335367,0.75686
577.138,27.7494,-3.35254,0.06078093,0.75631
577.838,27.7722,-3.35268,0.05593993,0.75576
578.538,27.7949,-3.35258,0.05139371,0.7552
579.238,27.81772,-3.35137,0.04702531,0.75465
579.938,27.84045,-3.35136,0.04478907,0.75409
580.638,27.86317,-3.352,0.04103767,0.75354
581.338,27.8859,-3.35268,0.03582455,0.75299
582.038,27.9086,-3.35265,0.03213989,0.75243
582.738,27.9314,-3.35403,0.02846484,0.75188
583.438,27.95417,-3.354,0.02811917,0.75132
584.138,27.97692,-3.354,0.02345454,0.75077
584.838,27.9997,-3.354,0.01814885,0.75021
585.538,28.0224,-3.35537,0.01570194,0.74966
586.238,28.04516,-3.35532,0.01168199,0.7491
586.938,28.068,-3.35641,0.00738754,0.74854
587.638,28.09075,-3.35663,0.004661977,0.74799
588.338,28.1136,-3.35731,0.002341569,0.74743
589.038,28.1363,-3.35794,-0.00263502,0.74688
589.738,28.15911,-3.35794,-0.00775519,0.74632
590.438,28.18192,-3.35794,-0.00942443,0.74576
591.138,28.20475,-3.35794,-0.008878753,0.74521
591.838,28.22758,-3.35794,-0.01359497,0.74465
592.538,28.25034,-3.35794,-0.01808448,0.74409
593.238,28.2731,-3.35857,-0.02064447,0.74353
593.938,28.29585,-3.35926,-0.02299374,0.74298
594.638,28.3186,-3.35926,-0.02789845,0.74242
595.338,28.34135,-3.35926,-0.0291673,0.74186
596.038,28.3641,-3.35926,-0.03299257,0.7413
596.738,28.387,-3.35926,-0.03568588,0.74075
597.438,28.40989,-3.35926,-0.03717026,0.74019
598.138,28.4328,-3.36022,-0.04050834,0.73963
598.838,28.4557,-3.36025,-0.04242884,0.73907
599.538,28.47846,-3.36025,-0.04473399,0.73851
600.238,28.50129,-3.36024,-0.04831656,0.73795
600.938,28.52413,-3.36057,-0.05233583,0.73739
601.638,28.54693,-3.36058,-0.05170453,0.73684
602.338,28.5697,-3.36121,-0.05396398,0.73628
603.038,28.59252,-3.36189,-0.05809933,0.73572
603.738,28.61538,-3.36144,-0.06090784,0.73516
604.438,28.6382,-3.36124,-0.06392221,0.7346
605.138,28.66105,-3.36124,-0.06674324,0.73404
605.838,28.68389,-3.36181,-0.06827852,0.73348
606.538,28.70672,-3.36223,-0.06888065,0.73292
607.238,28.72948,-3.36255,-0.0730305,0.73236
607.938,28.7523,-3.36256,-0.07437476,0.7318
608.638,28.7752,-3.36257,-0.07758638,0.73124
609.338,28.79828,-3.36189,-0.07743724,0.73068
610.038,28.8212,-3.3619,-0.07761215,0.73011
610.738,28.84403,-3.36191,-0.08249476,0.72955
611.438,28.8669,-3.36291,-0.0860808,0.72899
612.138,28.8897,-3.36322,-0.08978488,0.72843
612.838,28.91269,-3.36322,-0.09102177,0.72787
613.538,28.93559,-3.36322,-0.09129169,0.72731
614.238,28.95845,-3.36327,-0.09631876,0.72675
614.938,28.98125,-3.36223,-0.09875976,0.72619
615.638,29.00405,-3.36347,-0.10114,0.72562
616.338,29.02693,-3.36355,-0.10261,0.72506
617.038,29.04993,-3.36355,-0.10549,0.7245
617.738,29.0729,-3.36355,-0.10621,0.72394
618.438,29.09583,-3.36355,-0.10935,0.72337
619.138,29.11875,-3.36356,-0.11124,0.72281
619.838,29.1417,-3.36491,-0.11239,0.72225
620.538,29.1646,-3.36565,-0.11408,0.72169
621.238,29.1875,-3.36618,-0.11666,0.72112
621.938,29.2104,-3.36618,-0.11742,0.72056
622.638,29.2334,-3.36618,-0.1224,0.72
623.338,29.2563,-3.36618,-0.1227,0.71943
624.038,29.27923,-3.36618,-0.11972,0.71887
624.738,29.3021,-3.36709,-0.12195,0.71831
625.438,29.325,-3.3675,-0.12465,0.71774
626.138,29.3479,-3.3675,-0.12423,0.71718
626.838,29.37087,-3.3675,-0.12498,0.71662
627.538,29.39374,-3.3675,-0.12744,0.71605
628.238,29.41667,-3.3675,-0.12699,0.71549
628.938,29.43958,-3.36748,-0.12817,0.71492
629.638,29.46257,-3.36881,-0.12759,0.71436
630.338,29.48545,-3.36882,-0.12933,0.7138
631.038,29.5084,-3.36882,-0.12935,0.71323
631.738,29.5314,-3.36882,-0.13034,0.71267
632.438,29.5544,-3.36882,-0.13248,0.7121
633.138,29.57746,-3.36882,-0.13274,0.71154
633.838,29.60033,-3.36881,-0.13356,0.71097
634.538,29.6233,-3.37012,-0.13509,0.71041
635.238,29.64617,-3.3708,-0.13599,0.70984
635.938,29.66913,-3.3708,-0.13766,0.70928
636.638,29.692,-3.3708,-0.13288,0.70871
637.338,29.7149,-3.3708,-0.1394,0.70814
638.038,29.73793,-3.37081,-0.14083,0.70758
638.738,29.7609,-3.37185,-0.13863,0.70701
639.438,29.784,-3.37211,-0.1388,0.70645
640.138,29.80705,-3.3714,-0.13967,0.70588
640.838,29.8301,-3.37079,-0.14053,0.70532
641.538,29.85306,-3.37079,-0.14026,0.70475
642.238,29.87602,-3.37078,-0.14044,0.70418
642.938,29.899,-3.36953,-0.14257,0.70362
643.638,29.922,-3.36947,-0.13995,0.70305
644.338,29.94499,-3.36947,-0.14155,0.70248
645.038,29.968,-3.3695,-0.14188,0.70192
645.738,29.9911,-3.37003,-0.14536,0.70135
646.438,30.0141,-3.36947,-0.14159,0.70078
647.138,30.03717,-3.36948,-0.14362,0.70022
647.838,30.06018,-3.3708,-0.14204,0.69965
648.538,30.08322,-3.37074,-0.14192,0.69908
649.238,30.1062,-3.37212,-0.14337,0.69852
649.938,30.1292,-3.37328,-0.14655,0.69795
650.638,30.15219,-3.37343,-0.14652,0.69738
651.338,30.17509,-3.37343,-0.14636,0.69681
652.038,30.1982,-3.37343,-0.14619,0.69625
652.738,30.2212,-3.37343,-0.14848,0.69568
653.438,30.24428,-3.37343,-0.14696,0.69511
654.138,30.26727,-3.37343,-0.14933,0.69454
654.838,30.2901,-3.37343,-0.14969,0.69397
655.538,30.313,-3.37343,-0.15088,0.69341
656.238,30.33608,-3.37351,-0.1532,0.69284
656.938,30.3593,-3.37475,-0.15255,0.69227
657.638,30.38257,-3.37475,-0.15269,0.6917
658.338,30.40565,-3.37475,-0.15631,0.69113
659.038,30.4287,-3.37474,-0.15708,0.69057
659.738,30.45175,-3.37602,-0.15843,0.69
660.438,30.47472,-3.37606,-0.15891,0.68943
661.138,30.4977,-3.37606,-0.16109,0.68886
661.838,30.52068,-3.37606,-0.1597,0.68829
662.538,30.5437,-3.37606,-0.15948,0.68772
663.238,30.56682,-3.37606,-0.15908,0.68715
663.938,30.5898,-3.37606,-0.16064,0.68659
664.638,30.61269,-3.37606,-0.1597,0.68602
665.338,30.63573,-3.37605,-0.15805,0.68545
666.038,30.6588,-3.37509,-0.1595,0.68488
666.738,30.68208,-3.37507,-0.15923,0.68431
667.438,30.70515,-3.37507,-0.15765,0.68374
668.138,30.72825,-3.37507,-0.16041,0.68317
668.838,30.75127,-3.37508,-0.16035,0.6826
669.538,30.7744,-3.37614,-0.15969,0.68203
670.238,30.7974,-3.37641,-0.15968,0.68146
670.938,30.82045,-3.37773,-0.15885,0.68089
671.638,30.8435,-3.37771,-0.15758,0.68032
672.338,30.8666,-3.37771,-0.15993,0.67975
673.038,30.88976,-3.37771,-0.15704,0.67918
673.738,30.91282,-3.37771,-0.15946,0.67861
674.438,30.93583,-3.3777,-0.15528,0.67804
675.138,30.9588,-3.379,-0.15807,0.67747
675.838,30.98183,-3.37903,-0.15783,0.6769
676.538,31.00488,-3.37903,-0.15367,0.67633
677.238,31.028,-3.37903,-0.15378,0.67576
677.938,31.05115,-3.37903,-0.15457,0.67519
678.638,31.07426,-3.37903,-0.15105,0.67462
679.338,31.0973,-3.37811,-0.15283,0.67405
680.038,31.12033,-3.37804,-0.14932,0.67348
680.738,31.14337,-3.37821,-0.14841,0.67291
681.438,31.16651,-3.37837,-0.14785,0.67234
682.138,31.18958,-3.37907,-0.14784,0.67177
682.838,31.2127,-3.37936,-0.14768,0.6712
683.538,31.23576,-3.37936,-0.14838,0.67063
684.238,31.2589,-3.37936,-0.14551,0.67006
684.938,31.2819,-3.37987,-0.14454,0.66949
685.638,31.30495,-3.38067,-0.14435,0.66892
686.338,31.328,-3.38067,-0.14309,0.66835
687.038,31.351,-3.38066,-0.14094,0.66778
687.738,31.3741,-3.38035,-0.13994,0.6672
688.438,31.39725,-3.38038,-0.13872,0.66663
689.138,31.4204,-3.38001,-0.14047,0.66606
689.838,31.4435,-3.37973,-0.13786,0.66549
690.538,31.4666,-3.37869,-0.1384,0.66492
691.238,31.48965,-3.37869,-0.13735,0.66435
691.938,31.5127,-3.37869,-0.13976,0.66378
692.638,31.5359,-3.37811,-0.14061,0.66321
693.338,31.5591,-3.37797,-0.14036,0.66264
694.038,31.5822,-3.37802,-0.13783,0.66206
694.738,31.6052,-3.37871,-0.13496,0.66149
695.438,31.62824,-3.3787,-0.13438,0.66092
696.138,31.65134,-3.37911,-0.13216,0.66035
696.838,31.6744,-3.38001,-0.1348,0.65978
697.538,31.69755,-3.38001,-0.13191,0.65921
698.238,31.7207,-3.38103,-0.13232,0.65864
698.938,31.74393,-3.381,-0.13048,0.65806
699.638,31.76704,-3.381,-0.13093,0.65749
700.338,31.79017,-3.37993,-0.13084,0.65692
701.038,31.8133,-3.37969,-0.13102,0.65635
701.738,31.8365,-3.37969,-0.13259,0.65578
702.438,31.85953,-3.37969,-0.13004,0.65521
703.138,31.8827,-3.37969,-0.13018,0.65463
703.838,31.9058,-3.37969,-0.12921,0.65406
704.538,31.929,-3.37969,-0.12914,0.65349
705.238,31.95223,-3.37969,-0.13007,0.65292
705.938,31.97543,-3.37967,-0.12763,0.65235
706.638,31.9986,-3.38002,-0.12528,0.65178
707.338,32.02173,-3.38002,-0.12647,0.6512
708.038,32.04486,-3.38002,-0.12517,0.65063
708.738,32.06801,-3.38111,-0.1274,0.65006
709.438,32.09117,-3.38134,-0.12434,0.64949
710.138,32.11435,-3.38134,-0.12197,0.64892
710.838,32.13755,-3.38127,-0.11981,0.64834
711.538,32.16068,-3.38199,-0.11961,0.64777
712.238,32.18383,-3.38199,-0.11874,0.6472
712.938,32.20695,-3.38199,-0.12042,0.64663
713.638,32.23012,-3.38199,-0.11921,0.64606
714.338,32.2532,-3.38199,-0.11667,0.64548
715.038,32.2764,-3.38063,-0.12152,0.64491
715.738,32.2996,-3.38068,-0.1193,0.64434
716.438,32.32291,-3.38068,-0.11998,0.64377
717.138,32.3463,-3.38067,-0.11769,0.6432
717.838,32.36958,-3.38201,-0.11781,0.64262
718.538,32.3928,-3.38199,-0.11522,0.64205
719.238,32.4159,-3.38199,-0.11902,0.64148
719.938,32.4391,-3.38199,-0.11573,0.64091
720.638,32.46239,-3.38199,-0.11355,0.64033
721.338,32.4857,-3.38199,-0.11135,0.63976
722.038,32.50897,-3.38199,-0.11286,0.63919
722.738,32.5323,-3.38199,-0.11554,0.63862
723.438,32.55556,-3.38199,-0.11671,0.63805
724.138,32.5788,-3.38199,-0.11796,0.63747
724.838,32.60208,-3.38199,-0.11605,0.6369
725.538,32.62535,-3.38199,-0.11389,0.63633
726.238,32.64861,-3.38199,-0.11329,0.63576
726.938,32.67191,-3.38285,-0.11468,0.63518
727.638,32.6952,-3.38331,-0.11223,0.63461
728.338,32.71845,-3.38331,-0.11163,0.63404
729.038,32.74168,-3.38331,-0.11353,0.63347
729.738,32.765,-3.38331,-0.11507,0.6329
730.438,32.78825,-3.38331,-0.11392,0.63232
731.138,32.8115,-3.38331,-0.11325,0.63175
731.838,32.83471,-3.38331,-0.11246,0.63118
732.538,32.8579,-3.38371,-0.11361,0.63061
733.238,32.88114,-3.38465,-0.11344,0.63003
733.938,32.90439,-3.38327,-0.11393,0.62946
734.638,32.92779,-3.38331,-0.11401,0.62889
735.338,32.9511,-3.38331,-0.11069,0.62832
736.038,32.97433,-3.38289,-0.11336,0.62775
736.738,32.9976,-3.38199,-0.11657,0.62717
737.438,33.02084,-3.38199,-0.11284,0.6266
738.138,33.04416,-3.38199,-0.11493,0.62603
738.838,33.0674,-3.38199,-0.11434,0.62546
739.538,33.09044,-3.38199,-0.11338,0.62488
740.238,33.11358,-3.38199,-0.10848,0.62431
740.938,33.1368,-3.38199,-0.10536,0.62374
741.638,33.16025,-3.38199,-0.10529,0.62317
742.338,33.18365,-3.38327,-0.10605,0.6226
743.038,33.2069,-3.38431,-0.10422,0.62202
743.738,33.2301,-3.38463,-0.10576,0.62145
744.438,33.2533,-3.38463,-0.10631,0.62088
745.138,33.27665,-3.38463,-0.10435,0.62031
745.838,33.29998,-3.38561,-0.09898432,0.61974
746.538,33.32333,-3.38561,-0.10039,0.61916
747.238,33.34663,-3.38561,-0.0985459,0.61859
747.938,33.36993,-3.38561,-0.09910265,0.61802
748.638,33.3932,-3.38561,-0.09841779,0.61745
749.338,33.4165,-3.38561,-0.09681521,0.61688
750.038,33.43979,-3.38561,-0.09539767,0.6163
750.738,33.46302,-3.38553,-0.09821009,0.61573
751.438,33.48628,-3.38693,-0.09809733,0.61516
752.138,33.50953,-3.38693,-0.09831331,0.61459
752.838,33.53286,-3.38693,-0.09924478,0.61402
753.538,33.55621,-3.38812,-0.09584223,0.61345
754.238,33.5796,-3.38795,-0.09410466,0.61287
754.938,33.603,-3.38694,-0.0927636,0.6123
755.638,33.62634,-3.38693,-0.09133465,0.61173
756.338,33.64966,-3.3867,-0.09276813,0.61116
757.038,33.673,-3.38561,-0.09124438,0.61059
757.738,33.69634,-3.38561,-0.09052166,0.61002
758.438,33.71971,-3.38561,-0.09269892,0.60944
759.138,33.74301,-3.38556,-0.09137569,0.60887
759.838,33.76635,-3.38596,-0.09326718,0.6083
760.538,33.78966,-3.38594,-0.09121996,0.60773
761.238,33.81305,-3.38594,-0.09308125,0.60716
761.938,33.8364,-3.38594,-0.08981144,0.60659
762.638,33.8598,-3.38594,-0.09031891,0.60602
763.338,33.8831,-3.38593,-0.08841106,0.60545
764.038,33.90641,-3.38693,-0.08958009,0.60487
764.738,33.9295,-3.38693,-0.08770151,0.6043
765.438,33.95265,-3.38693,-0.09079918,0.60373
766.138,33.97606,-3.38693,-0.08834681,0.60316
766.838,33.99961,-3.38693,-0.08800323,0.60259
767.538,34.02312,-3.38696,-0.08834768,0.60202
768.238,34.0464,-3.38661,-0.08842174,0.60145
768.938,34.06984,-3.38661,-0.08871611,0.60088
769.638,34.09325,-3.38661,-0.0908797,0.60031
770.338,34.11667,-3.38661,-0.08885266,0.59973
771.038,34.14005,-3.38694,-0.08649405,0.59916
771.738,34.16344,-3.38694,-0.08829597,0.59859
772.438,34.18679,-3.38793,-0.08957566,0.59802
773.138,34.2102,-3.38735,-0.08716572,0.59745
773.838,34.23353,-3.38726,-0.08881198,0.59688
774.538,34.25693,-3.38726,-0.08689156,0.59631
775.238,34.28031,-3.38726,-0.08703872,0.59574
775.938,34.30372,-3.38739,-0.08874733,0.59517
776.638,34.32712,-3.38857,-0.08475512,0.5946
777.338,34.3505,-3.38857,-0.07983339,0.59403
778.038,34.37381,-3.38929,-0.08260199,0.59346
778.738,34.39712,-3.38989,-0.08703172,0.59289
779.438,34.42051,-3.38989,-0.08201367,0.59232
780.138,34.44392,-3.38976,-0.08486948,0.59175
780.838,34.4674,-3.38858,-0.08564783,0.59118
781.538,34.49085,-3.38858,-0.08399907,0.59061
782.238,34.51421,-3.38858,-0.08188027,0.59004
782.938,34.53758,-3.38858,-0.0837849,0.58947
783.638,34.56088,-3.38858,-0.08341553,0.5889
784.338,34.58424,-3.38858,-0.08108237,0.58833
785.038,34.60758,-3.38858,-0.07628664,0.58776
785.738,34.631,-3.38858,-0.07966978,0.58719
786.438,34.65447,-3.38857,-0.08021117,0.58662
787.138,34.67783,-3.38984,-0.08095938,0.58605
787.838,34.7012,-3.3899,-0.08084857,0.58548
788.538,34.72464,-3.3899,-0.07855678,0.58491
789.238,34.7481,-3.3899,-0.07946368,0.58434
789.938,34.7714,-3.3899,-0.07975979,0.58377
790.638,34.79481,-3.38992,-0.08187572,0.5832
791.338,34.81824,-3.38855,-0.08090364,0.58263
792.038,34.84168,-3.38858,-0.08075466,0.58206
792.738,34.86513,-3.38858,-0.07465939,0.58149
793.438,34.88855,-3.38858,-0.07541525,0.58093
794.138,34.912,-3.38858,-0.07547882,0.58036
794.838,34.93542,-3.38858,-0.07285294,0.57979
795.538,34.95884,-3.38858,-0.07145645,0.57922
796.238,34.9822,-3.38973,-0.07094671,0.57865
796.738,34.99906,-3.38989,-0.07093785,0.57824