File: 01_Data/Bean_Bag_Chair_Outer_Cover/STA/N2/30K_min/Bean_Bag_Outer_Cover_STA_N2_30KData_220513_R3.csv
##Temp./Â°C,Time/min,Mass loss(subtr.2)/mg,DSC(subtr.2)/(mW/mg),Sensit./(uV/mW)
48.616,10.00667,-0.00099,0.01224438,1.05399
49.216,10.5344,-0.00220614,0.0553196,1.05387
49.816,10.65373,-0.001999168,0.09508075,1.05375
50.416,10.73765,-0.00230439,0.1286,1.05363
51.016,10.80777,-0.00155851,0.16327,1.0535
51.616,10.8668,-0.002201124,0.19484,1.05338
52.216,10.9193,-0.003416417,0.22341,1.05325
52.816,10.96715,-0.002857525,0.24869,1.05313
53.416,11.0116,-0.003417124,0.27489,1.053
54.016,11.0535,-0.002751465,0.30165,1.05287
54.616,11.09332,-0.002311992,0.32413,1.05275
55.216,11.131,-0.002045134,0.34793,1.05262
55.816,11.16697,-0.002999252,0.36788,1.05249
56.416,11.2014,-0.003177072,0.38951,1.05236
57.016,11.23378,-0.00321424,0.40875,1.05223
57.616,11.26549,-0.00284695,0.42928,1.0521
58.216,11.2973,-0.002578284,0.44913,1.05197
58.816,11.3284,-0.003466416,0.46832,1.05184
59.416,11.35794,-0.003327912,0.48556,1.0517
60.016,11.38696,-0.00326056,0.50262,1.05157
60.616,11.41532,-0.00367364,0.51876,1.05144
61.216,11.44325,-0.004401151,0.53544,1.0513
61.816,11.4706,-0.00305968,0.54916,1.05117
62.416,11.49762,-0.002991229,0.5669,1.05103
63.016,11.52385,-0.002850427,0.58239,1.05089
63.616,11.5498,-0.002541005,0.59664,1.05076
64.216,11.5753,-0.002478338,0.60908,1.05062
64.816,11.6008,-0.002646484,0.62225,1.05048
65.416,11.626,-0.002069199,0.63784,1.05034
66.016,11.65103,-0.001687213,0.65296,1.0502
66.616,11.67567,-0.001921258,0.6632,1.05006
67.216,11.69999,-0.002209739,0.67731,1.04992
67.816,11.724,-0.002309753,0.69003,1.04978
68.416,11.74806,-0.003485613,0.70275,1.04963
69.016,11.77187,-0.003979355,0.71251,1.04949
69.616,11.79545,-0.003351136,0.72568,1.04935
70.216,11.81868,-0.00279168,0.73769,1.0492
70.816,11.8417,-0.002251035,0.748,1.04906
71.416,11.86435,-0.001183735,0.75907,1.04891
72.016,11.8873,-0.001161985,0.77163,1.04877
72.616,11.91014,-0.001612039,0.7821,1.04862
73.216,11.93322,-0.002420715,0.79332,1.04847
73.816,11.95566,-0.002703036,0.80368,1.04832
74.416,11.97803,-0.003773844,0.81415,1.04817
75.016,12.00038,-0.004202987,0.82428,1.04802
75.616,12.02259,-0.003739604,0.837,1.04787
76.216,12.0448,-0.00517877,0.84375,1.04772
76.816,12.06675,-0.00517079,0.85533,1.04757
77.416,12.08866,-0.003856019,0.86226,1.04742
78.016,12.1104,-0.004892252,0.87274,1.04727
78.616,12.13222,-0.00496101,0.88309,1.04711
79.216,12.1541,-0.005068714,0.89174,1.04696
79.816,12.17579,-0.00518945,0.90128,1.0468
80.416,12.1975,-0.004587242,0.91007,1.04665
81.016,12.21905,-0.004917879,0.92062,1.04649
81.616,12.24046,-0.004963653,0.92724,1.04634
82.216,12.2616,-0.0036979,0.93575,1.04618
82.816,12.2826,-0.004471359,0.94767,1.04602
83.416,12.30377,-0.003434043,0.95583,1.04586
84.016,12.32507,-0.005096117,0.96272,1.0457
84.616,12.3462,-0.005353555,0.97165,1.04554
85.216,12.3675,-0.006476326,0.98082,1.04538
85.816,12.38837,-0.006965531,0.98752,1.04522
86.416,12.40933,-0.007898337,0.99725,1.04506
87.016,12.4303,-0.008224291,1.003,1.0449
87.616,12.45112,-0.007958529,1.0124,1.04474
88.216,12.47185,-0.008131044,1.02043,1.04457
88.816,12.49264,-0.00877479,1.02771,1.04441
89.416,12.51336,-0.009112953,1.03395,1.04424
90.016,12.5341,-0.00950523,1.03993,1.04408
90.616,12.55463,-0.009359039,1.05136,1.04391
91.216,12.57516,-0.009672421,1.05388,1.04375
91.816,12.5957,-0.009632952,1.06116,1.04358
92.416,12.61624,-0.01104172,1.06986,1.04341
93.016,12.6364,-0.01098903,1.07562,1.04324
93.616,12.6568,-0.01098906,1.08227,1.04307
94.216,12.67712,-0.01104199,1.08748,1.0429
94.816,12.69769,-0.00963056,1.09659,1.04273
95.416,12.71846,-0.0101391,1.10264,1.04256
96.016,12.7388,-0.01097605,1.10924,1.04239
96.616,12.75923,-0.01095107,1.11349,1.04222
97.216,12.77956,-0.01230586,1.1193,1.04204
97.816,12.79994,-0.01230071,1.12352,1.04187
98.416,12.8202,-0.01361921,1.12904,1.0417
99.016,12.84038,-0.01230386,1.1357,1.04152
99.616,12.8606,-0.01231077,1.1409,1.04135
100.216,12.88075,-0.01363041,1.14547,1.04117
100.816,12.90094,-0.01361977,1.14815,1.04099
101.416,12.92116,-0.01361997,1.15292,1.04082
102.016,12.94126,-0.01362206,1.15684,1.04064
102.616,12.96141,-0.014071,1.15978,1.04046
103.216,12.9815,-0.01420545,1.16248,1.04028
103.816,13.0016,-0.01427127,1.16779,1.0401
104.416,13.02172,-0.01427036,1.1704,1.03992
105.016,13.0418,-0.01424871,1.17243,1.03974
105.616,13.06194,-0.01653784,1.17723,1.03956
106.216,13.08203,-0.01691262,1.17807,1.03938
106.816,13.1022,-0.01691062,1.17925,1.03919
107.416,13.12226,-0.01687425,1.18419,1.03901
108.016,13.1423,-0.01828292,1.18637,1.03883
108.616,13.1624,-0.01819158,1.18703,1.03864
109.216,13.18255,-0.01960261,1.18957,1.03846
109.816,13.20266,-0.01954899,1.19151,1.03827
110.416,13.22281,-0.01954994,1.19273,1.03808
111.016,13.24274,-0.01955409,1.19282,1.0379
111.616,13.26273,-0.02014612,1.19228,1.03771
112.216,13.2828,-0.02086502,1.19376,1.03752
112.816,13.30267,-0.02087012,1.19373,1.03733
113.416,13.3226,-0.02086893,1.19576,1.03714
114.016,13.3426,-0.02094559,1.19693,1.03695
114.616,13.36258,-0.02221336,1.19554,1.03676
115.216,13.3828,-0.0209927,1.19447,1.03657
115.816,13.4028,-0.02085864,1.19305,1.03638
116.416,13.42255,-0.02086031,1.19513,1.03619
117.016,13.44234,-0.02084664,1.19571,1.03599
117.616,13.46224,-0.02201349,1.19089,1.0358
118.216,13.4821,-0.0221813,1.19233,1.0356
118.816,13.5023,-0.02217997,1.19099,1.03541
119.416,13.5221,-0.02218023,1.18943,1.03521
120.016,13.5419,-0.02216919,1.18693,1.03502
120.616,13.5617,-0.02329788,1.18804,1.03482
121.216,13.58135,-0.02350108,1.18507,1.03462
121.816,13.60118,-0.02349998,1.18637,1.03443
122.416,13.6209,-0.0235,1.18402,1.03423
123.016,13.64068,-0.0235,1.18225,1.03403
123.616,13.66051,-0.0235,1.18048,1.03383
124.216,13.68031,-0.0235,1.17838,1.03363
124.816,13.7001,-0.02349999,1.1768,1.03343
125.416,13.71976,-0.02349913,1.17668,1.03323
126.016,13.7394,-0.02410071,1.17595,1.03302
126.616,13.759,-0.02448868,1.17216,1.03282
127.216,13.7787,-0.02449757,1.17179,1.03262
127.816,13.7984,-0.0248374,1.16992,1.03241
128.416,13.8181,-0.0248196,1.16834,1.03221
129.016,13.8377,-0.02482001,1.16635,1.032
129.616,13.85723,-0.02482,1.16675,1.0318
130.216,13.8768,-0.02482,1.16593,1.03159
130.816,13.89625,-0.02481997,1.1645,1.03139
131.416,13.9158,-0.02482135,1.16353,1.03118
132.016,13.9352,-0.02475747,1.16387,1.03097
132.616,13.95474,-0.02417158,1.16238,1.03076
133.216,13.9742,-0.02492626,1.16203,1.03055
133.816,13.9936,-0.02548087,1.16116,1.03034
134.416,14.0131,-0.02548002,1.16194,1.03013
135.016,14.03245,-0.02547999,1.16084,1.02992
135.616,14.05176,-0.02548084,1.1605,1.02971
136.216,14.0711,-0.02542971,1.16125,1.0295
136.816,14.09034,-0.02683571,1.16159,1.02928
137.416,14.1097,-0.02678902,1.15903,1.02907
138.016,14.1292,-0.02679002,1.1592,1.02886
138.616,14.1486,-0.02678994,1.1609,1.02864
139.216,14.16779,-0.02679168,1.16155,1.02843
139.816,14.1869,-0.02677248,1.16175,1.02821
140.416,14.2061,-0.02613269,1.16181,1.028
141.016,14.22536,-0.02612988,1.16082,1.02778
141.616,14.24474,-0.02612889,1.16287,1.02756
142.216,14.2641,-0.02626752,1.16456,1.02734
142.816,14.2833,-0.02710455,1.16536,1.02712
143.416,14.30246,-0.02712032,1.1658,1.02691
144.016,14.3216,-0.02712,1.16686,1.02669
144.616,14.3406,-0.02711994,1.16697,1.02647
145.216,14.3597,-0.02711869,1.17129,1.02624
145.816,14.37876,-0.02624409,1.17305,1.02602
146.416,14.3979,-0.02580326,1.17171,1.0258
147.016,14.41702,-0.02579996,1.17487,1.02558
147.616,14.4362,-0.0257979,1.17734,1.02535
148.216,14.4553,-0.02588719,1.17871,1.02513
148.816,14.47437,-0.02613175,1.17823,1.02491
149.416,14.49337,-0.02613,1.18112,1.02468
150.016,14.5124,-0.02613,1.1847,1.02446
150.616,14.5315,-0.02613,1.18639,1.02423
151.216,14.5505,-0.02613,1.1876,1.024
151.816,14.5695,-0.02613002,1.19166,1.02378
152.416,14.58849,-0.02612925,1.19113,1.02355
153.016,14.6075,-0.02614646,1.19306,1.02332
153.616,14.6264,-0.02744495,1.19589,1.02309
154.216,14.64536,-0.02745052,1.19688,1.02286
154.816,14.6642,-0.02744998,1.2005,1.02263
155.416,14.6831,-0.02745,1.20246,1.0224
156.016,14.702,-0.02745017,1.20491,1.02217
156.616,14.72088,-0.02744652,1.20796,1.02194
157.216,14.73981,-0.02681346,1.20905,1.02171
157.816,14.75857,-0.02614566,1.21078,1.02147
158.416,14.7774,-0.0261398,1.21256,1.02124
159.016,14.7963,-0.02614001,1.21626,1.02101
159.616,14.81512,-0.02613999,1.218,1.02077
160.216,14.834,-0.02614025,1.22114,1.02054
160.816,14.85281,-0.02614749,1.22295,1.0203
161.416,14.8716,-0.02683375,1.22605,1.02006
162.016,14.89037,-0.0269861,1.23056,1.01983
162.616,14.9092,-0.02713255,1.23113,1.01959
163.216,14.9281,-0.02712996,1.23511,1.01935
163.816,14.94687,-0.02713,1.23841,1.01911
164.416,14.9657,-0.02713003,1.2406,1.01887
165.016,14.9845,-0.02712753,1.24318,1.01863
165.616,15.0033,-0.02729416,1.24437,1.01839
166.216,15.0221,-0.02746263,1.24642,1.01815
166.816,15.041,-0.02745611,1.25003,1.01791
167.416,15.05975,-0.02683161,1.25405,1.01767
168.016,15.0785,-0.02614515,1.25378,1.01743
168.616,15.0972,-0.02626765,1.25781,1.01718
169.216,15.11581,-0.02746883,1.26081,1.01694
169.816,15.13447,-0.02744974,1.26049,1.0167
170.416,15.1532,-0.02745,1.26346,1.01645
171.016,15.17186,-0.0274497,1.26764,1.01621
171.616,15.1904,-0.02746837,1.27109,1.01596
172.216,15.20904,-0.02629254,1.27105,1.01572
172.816,15.22773,-0.02613911,1.27604,1.01547
173.416,15.2464,-0.02613999,1.27716,1.01522
174.016,15.2653,-0.02614081,1.27792,1.01497
174.616,15.28401,-0.02608851,1.28164,1.01472
175.216,15.30265,-0.02750218,1.28608,1.01448
175.816,15.32124,-0.02744923,1.28695,1.01423
176.416,15.3398,-0.02745,1.29017,1.01398
177.016,15.35839,-0.02745,1.29441,1.01372
177.616,15.37698,-0.02745,1.29461,1.01347
178.216,15.3956,-0.02744999,1.29709,1.01322
178.816,15.41419,-0.02745029,1.29937,1.01297
179.416,15.4328,-0.02745703,1.30276,1.01272
180.016,15.4513,-0.0264224,1.30409,1.01246
180.616,15.46981,-0.02646114,1.30856,1.01221
181.216,15.48835,-0.02645998,1.30953,1.01195
181.816,15.50685,-0.02646,1.30979,1.0117
182.416,15.5253,-0.02646,1.31349,1.01144
183.016,15.54385,-0.02646,1.31507,1.01119
183.616,15.56231,-0.02646001,1.31867,1.01093
184.216,15.5807,-0.02645986,1.32189,1.01067
184.816,15.59924,-0.02645484,1.3236,1.01042
185.416,15.6177,-0.02610552,1.32664,1.01016
186.016,15.6362,-0.02613075,1.32718,1.0099
186.616,15.6547,-0.02612791,1.32931,1.00964
187.216,15.6731,-0.02581874,1.33153,1.00938
187.816,15.6915,-0.02479955,1.33232,1.00912
188.416,15.7099,-0.02481035,1.33754,1.00886
189.016,15.7282,-0.02481001,1.34089,1.0086
189.616,15.74642,-0.02481007,1.34154,1.00834
190.216,15.7646,-0.02479144,1.34397,1.00807
190.816,15.7828,-0.02599386,1.34608,1.00781
191.416,15.80098,-0.02613088,1.3487,1.00755
192.016,15.8195,-0.02613001,1.35304,1.00728
192.616,15.838,-0.02612965,1.35362,1.00702
193.216,15.85655,-0.0261475,1.3543,1.00675
193.816,15.8751,-0.02500449,1.35775,1.00649
194.416,15.89352,-0.02480979,1.36217,1.00622
195.016,15.91187,-0.02480996,1.36475,1.00595
195.616,15.9302,-0.02481,1.3647,1.00569
196.216,15.94849,-0.02481,1.36796,1.00542
196.816,15.96676,-0.02481,1.36986,1.00515
197.416,15.98504,-0.02481,1.37179,1.00488
198.016,16.0033,-0.02481,1.37415,1.00461
198.616,16.02155,-0.02480996,1.37618,1.00434
199.216,16.03983,-0.02480983,1.37847,1.00407
199.816,16.05813,-0.02499103,1.37987,1.0038
200.416,16.07643,-0.02578406,1.38176,1.00353
201.016,16.09473,-0.02580026,1.38548,1.00326
201.616,16.11301,-0.0258,1.38812,1.00298
202.216,16.13116,-0.0258,1.39024,1.00271
202.816,16.14922,-0.0258,1.39111,1.00244
203.416,16.1674,-0.0258,1.39342,1.00216
204.016,16.1857,-0.02580007,1.39771,1.00189
204.616,16.20409,-0.02579491,1.39802,1.00161
205.216,16.22259,-0.025218,1.40116,1.00134
205.816,16.241,-0.02448352,1.40303,1.00106
206.416,16.2593,-0.02448007,1.40494,1.00078
207.016,16.27754,-0.02447999,1.40808,1.00051
207.616,16.29573,-0.02448,1.40975,1.00023
208.216,16.31392,-0.02448,1.41138,0.99995
208.816,16.33212,-0.02448,1.41258,0.99967
209.416,16.3502,-0.02448001,1.41744,0.99939
210.016,16.36843,-0.02447983,1.41886,0.99911
210.616,16.38664,-0.02447989,1.4203,0.99883
211.216,16.40482,-0.02494571,1.42265,0.99855
211.816,16.4232,-0.02546566,1.42391,0.99827
212.416,16.4414,-0.02546953,1.43023,0.99799
213.016,16.45966,-0.02546487,1.42912,0.99771
213.616,16.47788,-0.02673445,1.431,0.99742
214.216,16.49608,-0.02679134,1.43316,0.99714
214.816,16.51432,-0.02678998,1.43613,0.99686
215.416,16.5325,-0.02679,1.43642,0.99657
216.016,16.5507,-0.02679,1.43732,0.99629
216.616,16.56875,-0.02679,1.44051,0.996
217.216,16.5869,-0.02679,1.44361,0.99572
217.816,16.6051,-0.02679,1.44422,0.99543
218.416,16.62332,-0.02679,1.44788,0.99514
219.016,16.64162,-0.02679,1.44863,0.99486
219.616,16.65982,-0.02679,1.44963,0.99457
220.216,16.678,-0.02679,1.4533,0.99428
220.816,16.69608,-0.02679,1.4555,0.99399
221.416,16.7142,-0.02679,1.45703,0.9937
222.016,16.73219,-0.02679,1.45617,0.99341
222.616,16.75039,-0.02679,1.45859,0.99312
223.216,16.7685,-0.02679,1.46254,0.99283
223.816,16.78676,-0.02679001,1.46316,0.99254
224.416,16.8051,-0.02679429,1.46408,0.99225
225.016,16.8232,-0.02743839,1.4662,0.99195
225.616,16.84137,-0.02810584,1.46694,0.99166
226.216,16.85954,-0.02810995,1.4686,0.99137
226.816,16.87765,-0.02811,1.46928,0.99107
227.416,16.8958,-0.02811,1.46909,0.99078
228.016,16.9139,-0.02811001,1.47301,0.99048
228.616,16.93202,-0.02811115,1.47337,0.99019
229.216,16.95017,-0.02799062,1.47434,0.98989
229.816,16.9683,-0.0266498,1.48001,0.9896
230.416,16.98647,-0.02636622,1.48021,0.9893
231.016,17.00459,-0.02535773,1.48071,0.989
231.616,17.0227,-0.02536939,1.48404,0.98871
232.216,17.0408,-0.02538431,1.48486,0.98841
232.816,17.05893,-0.02686356,1.48472,0.98811
233.416,17.07711,-0.02720289,1.48691,0.98781
234.016,17.09522,-0.02830429,1.48709,0.98751
234.616,17.11334,-0.02943089,1.48951,0.98721
235.216,17.13148,-0.02987903,1.4922,0.98691
235.816,17.14951,-0.03086958,1.49302,0.98661
236.416,17.1676,-0.03118232,1.49433,0.9863
237.016,17.18573,-0.03118027,1.49664,0.986
237.616,17.20382,-0.0311639,1.49694,0.9857
238.216,17.2218,-0.03037343,1.49797,0.9854
238.816,17.2399,-0.03019008,1.49735,0.98509
239.416,17.258,-0.03018995,1.50011,0.98479
240.016,17.2761,-0.03019,1.50403,0.98448
240.616,17.29435,-0.03019,1.50501,0.98418
241.216,17.31245,-0.03019,1.50511,0.98387
241.816,17.33051,-0.03019,1.50711,0.98357
242.416,17.3486,-0.03019,1.50822,0.98326
243.016,17.36662,-0.03019,1.50947,0.98295
243.616,17.38476,-0.03019003,1.51189,0.98265
244.216,17.4029,-0.03018882,1.51413,0.98234
244.816,17.42105,-0.03021259,1.51351,0.98203
245.416,17.43913,-0.03149211,1.51352,0.98172
246.016,17.45717,-0.03151114,1.51808,0.98141
246.616,17.47514,-0.03150992,1.51813,0.9811
247.216,17.49322,-0.03150987,1.52169,0.98079
247.816,17.51128,-0.03168853,1.52208,0.98048
248.416,17.52935,-0.03286003,1.52375,0.98017
249.016,17.54746,-0.03358881,1.52641,0.97986
249.616,17.56551,-0.03414533,1.52747,0.97955
250.216,17.58359,-0.03415031,1.5299,0.97923
250.816,17.60166,-0.03414814,1.53185,0.97892
251.416,17.6197,-0.03413601,1.53207,0.97861
252.016,17.6377,-0.03550514,1.53591,0.97829
252.616,17.6558,-0.03548137,1.53903,0.97798
253.216,17.67389,-0.03445373,1.5387,0.97766
253.816,17.69195,-0.03447819,1.54079,0.97735
254.416,17.71,-0.03448102,1.54278,0.97703
255.016,17.728,-0.03446,1.54395,0.97671
255.616,17.74602,-0.03575618,1.54807,0.9764
256.216,17.76416,-0.03579375,1.55017,0.97608
256.816,17.78223,-0.03575525,1.55069,0.97576
257.416,17.80029,-0.03712077,1.55264,0.97544
258.016,17.81832,-0.03794401,1.55212,0.97512
258.616,17.8363,-0.03842493,1.55551,0.97481
259.216,17.85431,-0.03842969,1.55797,0.97449
259.816,17.87236,-0.03841771,1.55991,0.97417
260.416,17.89043,-0.03966179,1.5632,0.97385
261.016,17.90851,-0.03975115,1.56565,0.97352
261.616,17.92657,-0.03974969,1.56749,0.9732
262.216,17.9446,-0.04015563,1.56824,0.97288
262.816,17.96264,-0.04105595,1.56982,0.97256
263.416,17.98069,-0.04107111,1.57222,0.97224
264.016,17.99879,-0.04130556,1.5748,0.97191
264.616,18.01689,-0.04239759,1.57789,0.97159
265.216,18.03494,-0.0423797,1.57728,0.97126
265.816,18.05291,-0.04238033,1.57902,0.97094
266.416,18.07088,-0.04232819,1.58107,0.97061
267.016,18.08885,-0.0437509,1.58427,0.97029
267.616,18.10684,-0.04369971,1.58429,0.96996
268.216,18.12493,-0.04365802,1.58655,0.96964
268.816,18.143,-0.04531274,1.58791,0.96931
269.416,18.16104,-0.04526202,1.59031,0.96898
270.016,18.17914,-0.04664095,1.59338,0.96865
270.616,18.19716,-0.04668539,1.59616,0.96833
271.216,18.21523,-0.04755229,1.59586,0.968
271.816,18.23324,-0.04797967,1.59785,0.96767
272.416,18.25123,-0.04798515,1.59943,0.96734
273.016,18.26931,-0.04856692,1.60143,0.96701
273.616,18.28741,-0.04929737,1.60317,0.96668
274.216,18.30554,-0.04930357,1.60336,0.96635
274.816,18.32368,-0.04999691,1.60359,0.96601
275.416,18.34177,-0.05061514,1.60608,0.96568
276.016,18.35985,-0.05061951,1.60953,0.96535
276.616,18.37787,-0.05101989,1.61012,0.96502
277.216,18.39595,-0.05191707,1.60942,0.96468
277.816,18.41403,-0.05192026,1.6122,0.96435
278.416,18.43207,-0.05317484,1.6114,0.96402
279.016,18.45015,-0.05323442,1.61263,0.96368
279.616,18.46823,-0.05438139,1.6153,0.96335
280.216,18.4863,-0.05467338,1.61638,0.96301
280.816,18.50442,-0.05601636,1.61856,0.96268
281.416,18.52253,-0.05607756,1.61942,0.96234
282.016,18.54058,-0.0576732,1.61958,0.962
282.616,18.55868,-0.05786212,1.62526,0.96167
283.216,18.5767,-0.05922011,1.6248,0.96133
283.816,18.5948,-0.06018853,1.62721,0.96099
284.416,18.61294,-0.06082763,1.62923,0.96065
285.016,18.63103,-0.0609842,1.63196,0.96031
285.616,18.6491,-0.06239705,1.63279,0.95997
286.216,18.66714,-0.06321,1.63226,0.95963
286.816,18.68522,-0.06401683,1.63466,0.95929
287.416,18.7033,-0.0671896,1.63613,0.95895
288.016,18.7215,-0.06717236,1.63693,0.95861
288.616,18.73955,-0.06839628,1.63981,0.95827
289.216,18.75767,-0.06833794,1.64136,0.95793
289.816,18.77575,-0.0697666,1.64016,0.95759
290.416,18.7938,-0.0700778,1.644,0.95724
291.016,18.8119,-0.07115728,1.64447,0.9569
291.616,18.8299,-0.07183567,1.64728,0.95656
292.216,18.84797,-0.07265212,1.6478,0.95621
292.816,18.8661,-0.07427927,1.65015,0.95587
293.416,18.88427,-0.07466845,1.65273,0.95552
294.016,18.90239,-0.07582923,1.65352,0.95518
294.616,18.92053,-0.07713733,1.65495,0.95483
295.216,18.9386,-0.07807199,1.65766,0.95449
295.816,18.95671,-0.07934048,1.65976,0.95414
296.416,18.9749,-0.08082412,1.662,0.95379
297.016,18.99299,-0.08079913,1.66428,0.95345
297.616,19.01114,-0.08119139,1.66501,0.9531
298.216,19.02928,-0.08209268,1.66862,0.95275
298.816,19.0474,-0.08329733,1.67022,0.9524
299.416,19.0655,-0.08423307,1.66926,0.95205
300.016,19.08365,-0.08539571,1.67169,0.9517
300.616,19.1018,-0.08618215,1.675,0.95135
301.216,19.11986,-0.0879419,1.67711,0.951
301.816,19.13798,-0.08973112,1.67943,0.95065
302.416,19.15608,-0.09111358,1.68107,0.9503
303.016,19.17424,-0.09260452,1.68403,0.94995
303.616,19.19238,-0.09421123,1.68546,0.9496
304.216,19.21051,-0.09603777,1.68865,0.94924
304.816,19.22864,-0.09782273,1.69205,0.94889
305.416,19.24677,-0.09946995,1.69229,0.94854
306.016,19.26491,-0.10139,1.6956,0.94818
306.616,19.2831,-0.10302,1.69875,0.94783
307.216,19.3013,-0.10414,1.70229,0.94748
307.816,19.3195,-0.10593,1.70175,0.94712
308.416,19.33761,-0.10794,1.70644,0.94677
309.016,19.3557,-0.11018,1.71021,0.94641
309.616,19.3738,-0.11235,1.71203,0.94605
310.216,19.39187,-0.11411,1.71635,0.9457
310.816,19.40999,-0.11575,1.71844,0.94534
311.416,19.42817,-0.11734,1.72107,0.94498
312.016,19.44629,-0.11894,1.72534,0.94463
312.616,19.4645,-0.12062,1.72858,0.94427
313.216,19.48264,-0.12213,1.73016,0.94391
313.816,19.5008,-0.12399,1.73486,0.94355
314.416,19.51901,-0.12636,1.73974,0.94319
315.016,19.53717,-0.12861,1.74325,0.94283
315.616,19.55535,-0.13079,1.74845,0.94247
316.216,19.57345,-0.13274,1.752,0.94211
316.816,19.59161,-0.13566,1.75632,0.94175
317.416,19.60975,-0.13851,1.76056,0.94139
318.016,19.62792,-0.14135,1.76507,0.94103
318.616,19.6461,-0.14415,1.77093,0.94066
319.216,19.6642,-0.14659,1.77397,0.9403
319.816,19.68229,-0.14888,1.77912,0.93994
320.416,19.70042,-0.15113,1.78473,0.93958
321.016,19.71859,-0.1545,1.79209,0.93921
321.616,19.73685,-0.15726,1.79508,0.93885
322.216,19.75506,-0.16054,1.80214,0.93848
322.816,19.77327,-0.16269,1.80738,0.93812
323.416,19.79149,-0.16539,1.8138,0.93775
324.016,19.8096,-0.16851,1.82045,0.93739
324.616,19.82781,-0.17235,1.82777,0.93702
325.216,19.84593,-0.1762,1.83454,0.93666
325.816,19.8641,-0.18006,1.84305,0.93629
326.416,19.88232,-0.18374,1.84767,0.93592
327.016,19.9005,-0.18719,1.85596,0.93555
327.616,19.9187,-0.19095,1.86324,0.93519
328.216,19.93691,-0.19414,1.87257,0.93482
328.816,19.95512,-0.19805,1.8827,0.93445
329.416,19.97338,-0.20135,1.89345,0.93408
330.016,19.99169,-0.20639,1.9012,0.93371
330.616,20.00991,-0.21148,1.91239,0.93334
331.216,20.02815,-0.21564,1.92068,0.93297
331.816,20.04637,-0.22004,1.93226,0.9326
332.416,20.06457,-0.22514,1.94505,0.93223
333.016,20.08278,-0.23052,1.95624,0.93186
333.616,20.1009,-0.23553,1.96706,0.93149
334.216,20.1191,-0.24051,1.98058,0.93111
334.816,20.1373,-0.24542,1.99337,0.93074
335.416,20.15554,-0.25044,2.00234,0.93037
336.016,20.17384,-0.25584,2.01783,0.92999
336.616,20.19214,-0.26104,2.03249,0.92962
337.216,20.21041,-0.26621,2.0489,0.92925
337.816,20.22874,-0.2715,2.06389,0.92887
338.416,20.24701,-0.27732,2.07904,0.9285
339.016,20.26527,-0.28373,2.09699,0.92812
339.616,20.28354,-0.29007,2.11773,0.92775
340.216,20.30175,-0.29662,2.1347,0.92737
340.816,20.32004,-0.30335,2.15362,0.92699
341.416,20.33832,-0.31017,2.17253,0.92662
342.016,20.35662,-0.31741,2.19313,0.92624
342.616,20.37489,-0.32504,2.21671,0.92586
343.216,20.39315,-0.33246,2.23935,0.92549
343.816,20.41144,-0.34157,2.26175,0.92511
344.416,20.4297,-0.34955,2.2865,0.92473
345.016,20.44802,-0.35751,2.31418,0.92435
345.616,20.46636,-0.36577,2.3395,0.92397
346.216,20.4847,-0.37438,2.36741,0.92359
346.816,20.5031,-0.38382,2.39801,0.92321
347.416,20.52141,-0.39354,2.42756,0.92283
348.016,20.53976,-0.40333,2.45778,0.92245
348.616,20.5581,-0.41352,2.4919,0.92207
349.216,20.5764,-0.4236,2.52734,0.92169
349.816,20.59481,-0.43353,2.56274,0.92131
350.416,20.61311,-0.44449,2.59968,0.92092
351.016,20.63148,-0.45557,2.63897,0.92054
351.616,20.64987,-0.46799,2.67766,0.92016
352.216,20.66824,-0.48167,2.71878,0.91978
352.816,20.68665,-0.49402,2.76214,0.91939
353.416,20.70505,-0.50689,2.8061,0.91901
354.016,20.7234,-0.52018,2.85162,0.91862
354.616,20.74178,-0.53431,2.90206,0.91824
355.216,20.7602,-0.54874,2.94966,0.91785
355.816,20.7786,-0.56317,2.99954,0.91747
356.416,20.79705,-0.57845,3.05265,0.91708
357.016,20.8155,-0.59473,3.10784,0.9167
357.616,20.83394,-0.61129,3.16519,0.91631
358.216,20.85239,-0.6286,3.22256,0.91592
358.816,20.8708,-0.64604,3.28324,0.91554
359.416,20.8893,-0.66421,3.34325,0.91515
360.016,20.90781,-0.68337,3.40691,0.91476
360.616,20.9263,-0.70256,3.46926,0.91437
361.216,20.9448,-0.72359,3.53718,0.91398
361.816,20.9632,-0.744,3.60418,0.91359
362.416,20.98167,-0.76548,3.67247,0.91321
363.016,21.00017,-0.78813,3.74347,0.91282
363.616,21.0187,-0.81132,3.81723,0.91243
364.216,21.03722,-0.83554,3.88832,0.91204
364.816,21.05569,-0.86013,3.96656,0.91164
365.416,21.07411,-0.88461,4.04189,0.91125
366.016,21.09255,-0.91062,4.11797,0.91086
366.616,21.11103,-0.93699,4.19569,0.91047
367.216,21.12954,-0.96472,4.27568,0.91008
367.816,21.14819,-0.99378,4.35636,0.90969
368.416,21.16677,-1.0227,4.4382,0.90929
369.016,21.18533,-1.05293,4.52049,0.9089
369.616,21.20393,-1.08327,4.60388,0.90851
370.216,21.2225,-1.11517,4.68348,0.90811
370.816,21.2411,-1.14833,4.76605,0.90772
371.416,21.25979,-1.18176,4.85019,0.90732
372.016,21.27844,-1.21672,4.9317,0.90693
372.616,21.2971,-1.25143,5.0105,0.90653
373.216,21.31576,-1.28713,5.08944,0.90614
373.816,21.3344,-1.32401,5.16631,0.90574
374.416,21.35303,-1.36104,5.24161,0.90535
375.016,21.3717,-1.39943,5.31421,0.90495
375.616,21.39025,-1.4381,5.38419,0.90455
376.216,21.40889,-1.47787,5.4498,0.90416
376.816,21.42752,-1.51851,5.5139,0.90376
377.416,21.4462,-1.55833,5.57066,0.90336
378.016,21.46494,-1.60026,5.6266,0.90296
378.616,21.48359,-1.64249,5.67609,0.90256
379.216,21.50225,-1.68471,5.71863,0.90217
379.816,21.52088,-1.72711,5.75936,0.90177
380.416,21.53947,-1.76936,5.79737,0.90137
381.016,21.55815,-1.81336,5.82413,0.90097
381.616,21.57682,-1.85701,5.84664,0.90057
382.216,21.59551,-1.90083,5.86583,0.90017
382.816,21.6142,-1.94554,5.87635,0.89977
383.416,21.63278,-1.98984,5.88174,0.89937
384.016,21.65145,-2.03421,5.8809,0.89896
384.616,21.67012,-2.07831,5.87272,0.89856
385.216,21.68872,-2.12232,5.86073,0.89816
385.816,21.70721,-2.16677,5.84196,0.89776
386.416,21.72563,-2.20953,5.81902,0.89735
387.016,21.74404,-2.25265,5.78418,0.89695
387.616,21.76274,-2.29596,5.74749,0.89655
388.216,21.78153,-2.33989,5.70239,0.89614
388.816,21.80038,-2.38317,5.65317,0.89574
389.416,21.8192,-2.42527,5.59362,0.89534
390.016,21.83786,-2.46756,5.52878,0.89493
390.616,21.85651,-2.50829,5.45813,0.89453
391.216,21.87513,-2.54804,5.38203,0.89412
391.816,21.8937,-2.58646,5.29665,0.89372
392.416,21.91226,-2.62409,5.20541,0.89331
393.016,21.93083,-2.66187,5.10516,0.8929
393.616,21.94939,-2.69828,4.99755,0.8925
394.216,21.96792,-2.7342,4.88156,0.89209
394.816,21.98645,-2.77061,4.76105,0.89168
395.416,22.00496,-2.80473,4.62913,0.89128
396.016,22.02342,-2.83719,4.49201,0.89087
396.616,22.04192,-2.8688,4.34612,0.89046
397.216,22.06042,-2.89863,4.193,0.89005
397.816,22.07884,-2.92757,4.03313,0.88964
398.416,22.09733,-2.95472,3.86906,0.88923
399.016,22.1158,-2.9807,3.69518,0.88882
399.616,22.1342,-3.0048,3.5179,0.88841
400.216,22.15263,-3.02808,3.33583,0.888
400.816,22.171,-3.05005,3.1527,0.88759
401.416,22.18939,-3.07002,2.97038,0.88718
402.016,22.20775,-3.0879,2.78863,0.88677
402.616,22.22605,-3.10437,2.60583,0.88636
403.216,22.24434,-3.11919,2.43257,0.88595
403.816,22.2626,-3.13247,2.25871,0.88554
404.416,22.2809,-3.14431,2.09462,0.88513
405.016,22.2992,-3.15509,1.93849,0.88471
405.616,22.31762,-3.16504,1.79064,0.8843
406.216,22.33599,-3.17377,1.6495,0.88389
406.816,22.35435,-3.1808,1.5216,0.88347
407.416,22.37264,-3.18692,1.40301,0.88306
408.016,22.3909,-3.19207,1.29924,0.88265
408.616,22.4091,-3.19683,1.20537,0.88223
409.216,22.42738,-3.20042,1.1206,0.88182
409.816,22.4457,-3.20362,1.04382,0.8814
410.416,22.46402,-3.20654,0.97763,0.88099
411.016,22.4824,-3.2091,0.92017,0.88057
411.616,22.50074,-3.21143,0.86489,0.88016
412.216,22.51908,-3.21326,0.81941,0.87974
412.816,22.5374,-3.21414,0.78002,0.87932
413.416,22.55573,-3.21518,0.74845,0.87891
414.016,22.57408,-3.21677,0.71767,0.87849
414.616,22.5925,-3.21828,0.69117,0.87807
415.216,22.61094,-3.21979,0.66821,0.87766
415.816,22.62933,-3.22002,0.64806,0.87724
416.416,22.64775,-3.22142,0.63342,0.87682
417.016,22.66613,-3.22136,0.6217,0.8764
417.616,22.68458,-3.22296,0.60648,0.87598
418.216,22.70307,-3.22359,0.5959,0.87556
418.816,22.72154,-3.22529,0.58654,0.87514
419.416,22.74009,-3.22577,0.57753,0.87473
420.016,22.75858,-3.227,0.57302,0.87431
420.616,22.7771,-3.22709,0.56583,0.87389
421.216,22.79565,-3.22724,0.55953,0.87347
421.816,22.81417,-3.22851,0.55324,0.87304
422.416,22.8327,-3.2288,0.54873,0.87262
423.016,22.85112,-3.22996,0.54436,0.8722
423.616,22.8695,-3.23013,0.54163,0.87178
424.216,22.88802,-3.23147,0.53858,0.87136
424.816,22.90655,-3.23212,0.53564,0.87094
425.416,22.92524,-3.233,0.53319,0.87051
426.016,22.944,-3.23456,0.52915,0.87009
426.616,22.96261,-3.23458,0.52695,0.86967
427.216,22.98124,-3.23479,0.52571,0.86925
427.816,22.99989,-3.2351,0.52406,0.86882
428.416,23.01837,-3.2351,0.52158,0.8684
429.016,23.03705,-3.23541,0.52047,0.86797
429.616,23.0557,-3.23641,0.51892,0.86755
430.216,23.0744,-3.2364,0.51826,0.86712
430.816,23.0932,-3.23773,0.51658,0.8667
431.416,23.11187,-3.23774,0.51396,0.86627
432.016,23.1305,-3.23774,0.51287,0.86585
432.616,23.14912,-3.23774,0.51253,0.86542
433.216,23.16773,-3.23776,0.51187,0.865
433.816,23.18638,-3.23904,0.51236,0.86457
434.416,23.20508,-3.23906,0.51006,0.86414
435.016,23.22384,-3.24016,0.50935,0.86372
435.616,23.24259,-3.24034,0.50956,0.86329
436.216,23.2613,-3.24185,0.50929,0.86286
436.816,23.2801,-3.2418,0.50965,0.86244
437.416,23.29877,-3.24319,0.50799,0.86201
438.016,23.3175,-3.24323,0.50532,0.86158
438.616,23.33625,-3.24331,0.50498,0.86115
439.216,23.355,-3.24456,0.5064,0.86072
439.816,23.37373,-3.24454,0.50559,0.86029
440.416,23.39244,-3.24545,0.50523,0.85986
441.016,23.41121,-3.24584,0.50574,0.85943
441.616,23.42999,-3.24712,0.50481,0.85901
442.216,23.44879,-3.24743,0.5031,0.85858
442.816,23.46763,-3.24869,0.50269,0.85814
443.416,23.4864,-3.24992,0.50338,0.85771
444.016,23.50521,-3.2504,0.50406,0.85728
444.616,23.524,-3.25123,0.50455,0.85685
445.216,23.54281,-3.25132,0.50414,0.85642
445.816,23.5616,-3.25258,0.50306,0.85599
446.416,23.58043,-3.25257,0.50263,0.85556
447.016,23.59927,-3.25387,0.50177,0.85513
447.616,23.618,-3.25383,0.50253,0.85469
448.216,23.63684,-3.25524,0.50077,0.85426
448.816,23.65569,-3.25515,0.49994,0.85383
449.416,23.6745,-3.25667,0.49972,0.85339
450.016,23.69334,-3.25662,0.50086,0.85296
450.616,23.71221,-3.25751,0.49778,0.85253
451.216,23.73094,-3.25794,0.49811,0.85209
451.816,23.7497,-3.25795,0.4975,0.85166
452.416,23.76837,-3.25881,0.49649,0.85122
453.016,23.7871,-3.25926,0.49699,0.85079
453.616,23.80613,-3.25926,0.49685,0.85035
454.216,23.8251,-3.25948,0.49561,0.84992
454.816,23.84412,-3.2607,0.49476,0.84948
455.416,23.86308,-3.2609,0.49463,0.84905
456.016,23.88195,-3.26209,0.49585,0.84861
456.616,23.90082,-3.26211,0.49704,0.84818
457.216,23.91975,-3.26308,0.49545,0.84774
457.816,23.93864,-3.26321,0.4941,0.8473
458.416,23.95751,-3.26243,0.49476,0.84687
459.016,23.9764,-3.26364,0.4944,0.84643
459.616,23.9953,-3.26376,0.49346,0.84599
460.216,24.01418,-3.26376,0.49373,0.84555
460.816,24.0331,-3.26438,0.49271,0.84512
461.416,24.05199,-3.26529,0.49273,0.84468
462.016,24.07093,-3.26656,0.49243,0.84424
462.616,24.08983,-3.26785,0.49172,0.8438
463.216,24.1088,-3.26788,0.49165,0.84336
463.816,24.12762,-3.26915,0.49243,0.84292
464.416,24.14651,-3.26914,0.48905,0.84248
465.016,24.16544,-3.27042,0.49118,0.84204
465.616,24.18436,-3.27045,0.49173,0.8416
466.216,24.2035,-3.27073,0.49165,0.84116
466.816,24.22234,-3.27176,0.49102,0.84072
467.416,24.24117,-3.27175,0.49061,0.84028
468.016,24.2602,-3.2731,0.49174,0.83984
468.616,24.27913,-3.27309,0.49337,0.8394
469.216,24.29824,-3.27304,0.4917,0.83896
469.816,24.31729,-3.27445,0.4912,0.83852
470.416,24.33626,-3.27441,0.49296,0.83808
471.016,24.35516,-3.27453,0.49258,0.83763
471.616,24.37412,-3.27571,0.492,0.83719
472.216,24.3931,-3.27571,0.49179,0.83675
472.816,24.412,-3.27706,0.49148,0.83631
473.416,24.43103,-3.27704,0.49015,0.83586
474.016,24.45,-3.27731,0.49166,0.83542
474.616,24.46901,-3.27835,0.49117,0.83498
475.216,24.48801,-3.27834,0.49098,0.83453
475.816,24.50704,-3.2797,0.49215,0.83409
476.416,24.52603,-3.27968,0.49238,0.83364
477.016,24.5451,-3.27966,0.49249,0.8332
477.616,24.56403,-3.28091,0.49174,0.83276
478.216,24.5831,-3.28099,0.49117,0.83231
478.816,24.6021,-3.28099,0.49173,0.83187
479.416,24.62114,-3.28097,0.49198,0.83142
480.016,24.64023,-3.28232,0.49334,0.83098
480.616,24.65924,-3.28231,0.49361,0.83053
481.216,24.67831,-3.28231,0.49519,0.83008
481.816,24.6973,-3.28304,0.49591,0.82964
482.416,24.71643,-3.28363,0.49486,0.82919
483.016,24.73559,-3.28362,0.49407,0.82874
483.616,24.75463,-3.28474,0.49506,0.8283
484.216,24.77362,-3.28506,0.4938,0.82785
484.816,24.7926,-3.28597,0.49384,0.8274
485.416,24.81152,-3.28658,0.49536,0.82696
486.016,24.83061,-3.28703,0.49438,0.82651
486.616,24.8497,-3.28798,0.49624,0.82606
487.216,24.86876,-3.28899,0.4964,0.82561
487.816,24.88787,-3.28944,0.49638,0.82516
488.416,24.90697,-3.29032,0.49517,0.82471
489.016,24.92618,-3.2903,0.49548,0.82427
489.616,24.9453,-3.29166,0.49714,0.82382
490.216,24.96438,-3.29162,0.49723,0.82337
490.816,24.98345,-3.29285,0.49859,0.82292
491.416,25.00241,-3.29295,0.49957,0.82247
492.016,25.02147,-3.29343,0.49962,0.82202
492.616,25.04056,-3.29323,0.4997,0.82157
493.216,25.05966,-3.29296,0.50063,0.82112
493.816,25.0787,-3.29296,0.50151,0.82067
494.416,25.09776,-3.29375,0.50213,0.82022
495.016,25.11692,-3.29535,0.50147,0.81977
495.616,25.13607,-3.2956,0.50182,0.81931
496.216,25.1554,-3.29611,0.50222,0.81886
496.816,25.17452,-3.29701,0.50411,0.81841
497.416,25.19356,-3.29736,0.50444,0.81796
498.016,25.21254,-3.29833,0.5044,0.81751
498.616,25.23166,-3.29833,0.50744,0.81706
499.216,25.25081,-3.29848,0.50601,0.8166
499.816,25.26997,-3.29967,0.50446,0.81615
500.416,25.2892,-3.29966,0.50568,0.8157
501.016,25.3083,-3.30052,0.5055,0.81524
501.616,25.32742,-3.30137,0.50768,0.81479
502.216,25.3466,-3.30229,0.50853,0.81434
502.816,25.3658,-3.30229,0.50761,0.81388
503.416,25.38495,-3.30227,0.50979,0.81343
504.016,25.4041,-3.30353,0.51042,0.81298
504.616,25.4233,-3.3036,0.5138,0.81252
505.216,25.4424,-3.3036,0.5108,0.81207
505.816,25.4615,-3.30407,0.51032,0.81161
506.416,25.4806,-3.30492,0.51181,0.81116
507.016,25.49972,-3.30492,0.51503,0.8107
507.616,25.51886,-3.30493,0.51524,0.81025
508.216,25.5381,-3.30611,0.51758,0.80979
508.816,25.5573,-3.30624,0.51686,0.80934
509.416,25.57645,-3.30624,0.51838,0.80888
510.016,25.59556,-3.3064,0.52073,0.80843
510.616,25.61468,-3.30755,0.521,0.80797
511.216,25.63385,-3.30755,0.52208,0.80751
511.816,25.65305,-3.30886,0.52113,0.80706
512.416,25.67231,-3.30887,0.52123,0.8066
513.016,25.69148,-3.3086,0.52052,0.80614
513.616,25.71066,-3.30922,0.52216,0.80568
514.216,25.7298,-3.3092,0.52201,0.80523
514.816,25.74897,-3.30975,0.52269,0.80477
515.416,25.7682,-3.31051,0.52196,0.80431
516.016,25.7874,-3.31056,0.51936,0.80385
516.616,25.80657,-3.31195,0.51992,0.8034
517.216,25.8258,-3.31195,0.51976,0.80294
517.816,25.84494,-3.31283,0.51968,0.80248
518.416,25.86422,-3.31456,0.52012,0.80202
519.016,25.88327,-3.31458,0.51928,0.80156
519.616,25.90237,-3.31458,0.51882,0.8011
520.216,25.92161,-3.31458,0.51818,0.80064
520.816,25.94087,-3.31457,0.51966,0.80018
521.416,25.96021,-3.31591,0.51896,0.79972
522.016,25.97956,-3.3159,0.51862,0.79926
522.616,25.9987,-3.3159,0.51919,0.7988
523.216,26.01774,-3.31588,0.51815,0.79834
523.816,26.03704,-3.31713,0.51903,0.79788
524.416,26.05631,-3.31722,0.51624,0.79742
525.016,26.07575,-3.31721,0.51664,0.79696
525.616,26.09524,-3.31835,0.51997,0.7965
526.216,26.11443,-3.31854,0.5195,0.79604
526.816,26.13363,-3.31854,0.5191,0.79558
527.416,26.15273,-3.31853,0.51989,0.79512
528.016,26.17199,-3.31982,0.52012,0.79466
528.616,26.19125,-3.31985,0.51968,0.79419
529.216,26.21048,-3.31986,0.51946,0.79373
529.816,26.22982,-3.32089,0.52,0.79327
530.416,26.24907,-3.32117,0.52124,0.79281
531.016,26.26835,-3.32116,0.52456,0.79234
531.616,26.28765,-3.32224,0.52314,0.79188
532.216,26.30692,-3.32249,0.52351,0.79142
532.816,26.3262,-3.32249,0.52377,0.79096
533.416,26.34545,-3.32249,0.52499,0.79049
534.016,26.3647,-3.32249,0.52567,0.79003
534.616,26.38397,-3.32263,0.52661,0.78957
535.216,26.4033,-3.32383,0.5269,0.7891
535.816,26.42258,-3.32381,0.5263,0.78864
536.416,26.4419,-3.3238,0.52919,0.78817
537.016,26.4612,-3.32354,0.52971,0.78771
537.616,26.48047,-3.32446,0.52942,0.78725
538.216,26.49973,-3.32446,0.5304,0.78678
538.816,26.51897,-3.32447,0.52981,0.78632
539.416,26.53828,-3.32481,0.53172,0.78585
540.016,26.5576,-3.32479,0.53299,0.78539
540.616,26.5769,-3.32491,0.53432,0.78492
541.216,26.59621,-3.32613,0.53615,0.78446
541.816,26.6155,-3.32611,0.53675,0.78399
542.416,26.6349,-3.3261,0.53905,0.78352
543.016,26.65424,-3.32717,0.53815,0.78306
543.616,26.67362,-3.32743,0.5369,0.78259
544.216,26.69292,-3.32743,0.53867,0.78213
544.816,26.71228,-3.32832,0.54067,0.78166
545.416,26.73159,-3.32874,0.54104,0.78119
546.016,26.7508,-3.32872,0.54311,0.78073
546.616,26.77017,-3.32996,0.54547,0.78026
547.216,26.78946,-3.33006,0.54634,0.77979
547.816,26.8088,-3.33006,0.54817,0.77932
548.416,26.8282,-3.33006,0.54847,0.77886
549.016,26.8475,-3.33006,0.54881,0.77839
549.616,26.86685,-3.33006,0.54989,0.77792
550.216,26.88621,-3.33035,0.55075,0.77745
550.816,26.9056,-3.33139,0.5495,0.77699
551.416,26.925,-3.33139,0.54994,0.77652
552.016,26.9443,-3.3327,0.55244,0.77605
552.616,26.96371,-3.33404,0.55355,0.77558
553.216,26.98297,-3.33402,0.55235,0.77511
553.816,27.0022,-3.33402,0.55285,0.77464
554.416,27.02161,-3.33398,0.55277,0.77417
555.016,27.041,-3.33269,0.5534,0.77371
555.616,27.0606,-3.3327,0.55484,0.77324
556.216,27.08013,-3.3327,0.55355,0.77277
556.816,27.0996,-3.3333,0.55387,0.7723
557.416,27.11897,-3.33425,0.5547,0.77183
558.016,27.1384,-3.33534,0.55435,0.77136
558.616,27.1579,-3.33612,0.55394,0.77089
559.216,27.1773,-3.33665,0.55388,0.77042
559.816,27.1968,-3.33665,0.55375,0.76995
560.416,27.21625,-3.33665,0.55189,0.76948
561.016,27.23563,-3.33665,0.55228,0.76901
561.616,27.25505,-3.33665,0.55175,0.76854
562.216,27.2744,-3.33629,0.55145,0.76807
562.816,27.2938,-3.33631,0.55285,0.76759
563.416,27.31325,-3.33764,0.55344,0.76712
564.016,27.3327,-3.33764,0.55603,0.76665
564.616,27.3522,-3.33764,0.55378,0.76618
565.216,27.37169,-3.33764,0.5529,0.76571
565.816,27.3911,-3.33806,0.55306,0.76524
566.416,27.4105,-3.33863,0.55281,0.76476
567.016,27.4299,-3.33863,0.5522,0.76429
567.616,27.44936,-3.33863,0.55236,0.76382
568.216,27.4688,-3.33863,0.55195,0.76335
568.816,27.48832,-3.33863,0.5497,0.76288
569.416,27.50781,-3.33863,0.54998,0.7624
570.016,27.5272,-3.33863,0.55175,0.76193
570.616,27.5467,-3.33863,0.55082,0.76146
571.216,27.5662,-3.33863,0.55263,0.76098
571.816,27.5857,-3.33863,0.55279,0.76051
572.416,27.60517,-3.33863,0.55096,0.76004
573.016,27.62456,-3.33863,0.55237,0.75956
573.616,27.64398,-3.33949,0.55282,0.75909
574.216,27.66344,-3.34127,0.55253,0.75862
574.816,27.68297,-3.34126,0.55233,0.75814
575.416,27.70265,-3.34126,0.55335,0.75767
576.016,27.7222,-3.3418,0.55204,0.7572
576.616,27.74165,-3.34247,0.55259,0.75672
577.216,27.76111,-3.34127,0.55292,0.75625
577.816,27.7806,-3.34126,0.5523,0.75577
578.416,27.8002,-3.3416,0.55132,0.7553
579.016,27.81965,-3.34258,0.55215,0.75482
579.616,27.83925,-3.34258,0.55104,0.75435
580.216,27.8588,-3.34258,0.55014,0.75387
580.816,27.87831,-3.34258,0.54995,0.7534
581.416,27.8979,-3.34258,0.54884,0.75292
582.016,27.9174,-3.34258,0.54937,0.75245
582.616,27.9369,-3.34256,0.54862,0.75197
583.216,27.9564,-3.34378,0.54784,0.7515
583.816,27.97583,-3.3439,0.54631,0.75102
584.416,27.9954,-3.3439,0.54764,0.75055
585.016,28.0149,-3.34395,0.54779,0.75007
585.616,28.0344,-3.3446,0.54967,0.74959
586.216,28.05407,-3.34489,0.54845,0.74912
586.816,28.07361,-3.3449,0.54808,0.74864
587.416,28.0931,-3.3462,0.54717,0.74816
588.016,28.11259,-3.3462,0.54648,0.74769
588.616,28.13212,-3.3462,0.54525,0.74721
589.216,28.1516,-3.3462,0.54525,0.74673
589.816,28.1712,-3.3462,0.54637,0.74626
590.416,28.19077,-3.3462,0.54766,0.74578
591.016,28.2103,-3.3462,0.54688,0.7453
591.616,28.2299,-3.3462,0.54612,0.74483
592.216,28.2494,-3.3464,0.54498,0.74435
592.816,28.269,-3.34751,0.54427,0.74387
593.416,28.2886,-3.34752,0.54523,0.74339
594.016,28.30814,-3.34752,0.5438,0.74291
594.616,28.3277,-3.34752,0.54485,0.74244
595.216,28.34722,-3.34753,0.5466,0.74196
595.816,28.36675,-3.34884,0.54441,0.74148
596.416,28.3863,-3.34884,0.54348,0.741
597.016,28.40591,-3.34885,0.54426,0.74052
597.616,28.4254,-3.34918,0.54507,0.74005
598.216,28.4449,-3.34917,0.5444,0.73957
598.816,28.46445,-3.34917,0.54435,0.73909
599.416,28.484,-3.34917,0.5438,0.73861
600.016,28.5035,-3.34917,0.54538,0.73813
600.616,28.5231,-3.34917,0.54391,0.73765
601.216,28.5427,-3.34916,0.54184,0.73717
601.816,28.5622,-3.35032,0.54014,0.73669
602.416,28.58176,-3.35049,0.5409,0.73621
603.016,28.6014,-3.35094,0.54221,0.73573
603.616,28.62097,-3.35182,0.54257,0.73525
604.216,28.6406,-3.35312,0.54191,0.73477
604.816,28.66023,-3.3531,0.54171,0.7343
605.416,28.6798,-3.3518,0.5408,0.73382
606.016,28.6994,-3.3518,0.54017,0.73334
606.616,28.719,-3.3518,0.5407,0.73286
607.216,28.7386,-3.35228,0.53828,0.73237
607.816,28.75812,-3.35313,0.53893,0.73189
608.416,28.77775,-3.35186,0.54061,0.73141
609.016,28.79737,-3.35179,0.54019,0.73093
609.616,28.817,-3.35125,0.53924,0.73045
610.216,28.8366,-3.35114,0.53832,0.72997
610.816,28.85622,-3.35114,0.53755,0.72949
611.416,28.8758,-3.35114,0.53761,0.72901
612.016,28.89542,-3.35128,0.53593,0.72853
612.616,28.91507,-3.35245,0.53933,0.72805
613.216,28.93463,-3.35245,0.53805,0.72757
613.816,28.9543,-3.35394,0.53844,0.72709
614.416,28.97389,-3.3551,0.53756,0.7266
615.016,28.9935,-3.3551,0.53946,0.72612
615.616,29.01312,-3.3551,0.53826,0.72564
616.216,29.0328,-3.35511,0.53974,0.72516
616.816,29.0524,-3.3538,0.53868,0.72468
617.416,29.072,-3.35378,0.53877,0.7242
618.016,29.0915,-3.35373,0.53983,0.72371
618.616,29.11112,-3.35512,0.54094,0.72323
619.216,29.1308,-3.35509,0.54141,0.72275
619.816,29.15046,-3.35509,0.54048,0.72227
620.416,29.17013,-3.35509,0.54196,0.72178
621.016,29.1898,-3.35533,0.54356,0.7213
621.616,29.2094,-3.3564,0.54353,0.72082
622.216,29.22908,-3.35641,0.54482,0.72034
622.816,29.24871,-3.35641,0.54297,0.71985
623.416,29.26835,-3.35641,0.54433,0.71937
624.016,29.28803,-3.35641,0.54567,0.71889
624.616,29.30769,-3.35641,0.54721,0.71841
625.216,29.3274,-3.35641,0.54748,0.71792
625.816,29.347,-3.35641,0.54678,0.71744
626.416,29.36657,-3.35641,0.54794,0.71696
627.016,29.38617,-3.35741,0.54828,0.71647
627.616,29.40578,-3.35707,0.54865,0.71599
628.216,29.42555,-3.35707,0.5482,0.71551
628.816,29.44518,-3.35707,0.55203,0.71502
629.416,29.4648,-3.35707,0.55299,0.71454
630.016,29.4844,-3.35707,0.552,0.71405
630.616,29.50412,-3.35707,0.55273,0.71357
631.216,29.52389,-3.35707,0.55439,0.71309
631.816,29.54356,-3.35707,0.55099,0.7126
632.416,29.56325,-3.35707,0.55372,0.71212
633.016,29.5829,-3.35768,0.5538,0.71163
633.616,29.60262,-3.35849,0.55651,0.71115
634.216,29.62235,-3.3585,0.55862,0.71067
634.816,29.64204,-3.3585,0.55565,0.71018
635.416,29.66174,-3.3585,0.55626,0.7097
636.016,29.6814,-3.3585,0.55697,0.70921
636.616,29.70109,-3.3585,0.55537,0.70873
637.216,29.72076,-3.3589,0.55745,0.70824
637.816,29.7404,-3.35982,0.55644,0.70776
638.416,29.7602,-3.35983,0.55677,0.70727
639.016,29.77985,-3.36113,0.55717,0.70679
639.616,29.7996,-3.36113,0.55717,0.7063
640.216,29.8192,-3.36112,0.55754,0.70582
640.816,29.8389,-3.36243,0.55889,0.70533
641.416,29.8586,-3.36245,0.55766,0.70485
642.016,29.87823,-3.36245,0.55849,0.70436
642.616,29.89793,-3.36245,0.55983,0.70388
643.216,29.91757,-3.36245,0.55956,0.70339
643.816,29.9372,-3.36244,0.55888,0.70291
644.416,29.95702,-3.36136,0.55954,0.70242
645.016,29.97673,-3.36113,0.55905,0.70194
645.616,29.99646,-3.36113,0.55775,0.70145
646.216,30.01616,-3.36113,0.56037,0.70096
646.816,30.03588,-3.36113,0.56191,0.70048
647.416,30.0556,-3.36113,0.5615,0.69999
648.016,30.07534,-3.36118,0.56286,0.69951
648.616,30.0951,-3.3621,0.56447,0.69902
649.216,30.11477,-3.36212,0.56457,0.69853
649.816,30.13443,-3.36211,0.5663,0.69805
650.416,30.1541,-3.36244,0.56613,0.69756
651.016,30.1738,-3.36245,0.5638,0.69707
651.616,30.19352,-3.36245,0.56424,0.69659
652.216,30.21323,-3.36245,0.56545,0.6961
652.816,30.23295,-3.36245,0.56583,0.69561
653.416,30.25265,-3.36245,0.56907,0.69513
654.016,30.2723,-3.36245,0.57011,0.69464
654.616,30.29209,-3.36244,0.57081,0.69415
655.216,30.3118,-3.36373,0.5727,0.69367
655.816,30.3315,-3.36377,0.57087,0.69318
656.416,30.35128,-3.36377,0.57595,0.69269
657.016,30.37095,-3.36377,0.57394,0.69221
657.616,30.39072,-3.36377,0.57515,0.69172
658.216,30.41048,-3.36377,0.57642,0.69123
658.816,30.4302,-3.36377,0.57569,0.69075
659.416,30.44991,-3.36377,0.57607,0.69026
660.016,30.4696,-3.36377,0.57918,0.68977
660.616,30.4893,-3.36377,0.57775,0.68928
661.216,30.509,-3.36383,0.58033,0.6888
661.816,30.52873,-3.3651,0.57864,0.68831
662.416,30.5485,-3.36508,0.58032,0.68782
663.016,30.56823,-3.36508,0.58258,0.68733
663.616,30.5881,-3.36508,0.58231,0.68685
664.216,30.6078,-3.36508,0.58324,0.68636
664.816,30.6275,-3.36547,0.58332,0.68587
665.416,30.6472,-3.3661,0.58341,0.68538
666.016,30.6667,-3.3664,0.58551,0.6849
666.616,30.6865,-3.3664,0.58649,0.68441
667.216,30.7062,-3.3664,0.58635,0.68392
667.816,30.72604,-3.3664,0.58455,0.68343
668.416,30.7459,-3.3664,0.58752,0.68294
669.016,30.76565,-3.3664,0.58711,0.68246
669.616,30.78541,-3.3664,0.58909,0.68197
670.216,30.8051,-3.36641,0.59078,0.68148
670.816,30.82475,-3.36759,0.58854,0.68099
671.416,30.84457,-3.36772,0.58808,0.6805
672.016,30.86448,-3.36772,0.58943,0.68001
672.616,30.88438,-3.36772,0.5895,0.67953
673.216,30.9042,-3.36729,0.58844,0.67904
673.816,30.92387,-3.36706,0.5873,0.67855
674.416,30.94368,-3.36706,0.58911,0.67806
675.016,30.9635,-3.36706,0.58828,0.67757
675.616,30.98335,-3.36706,0.58646,0.67708
676.216,31.00317,-3.36704,0.58677,0.6766
676.816,31.023,-3.36826,0.58771,0.67611
677.416,31.0428,-3.36838,0.58873,0.67562
678.016,31.0626,-3.36838,0.58876,0.67513
678.616,31.08238,-3.36838,0.58866,0.67464
679.216,31.1022,-3.36838,0.59143,0.67415
679.816,31.12197,-3.36838,0.59142,0.67366
680.416,31.14173,-3.36838,0.59123,0.67317
681.016,31.16153,-3.36838,0.59002,0.67268
681.616,31.1814,-3.36838,0.58898,0.6722
682.216,31.20117,-3.36842,0.59043,0.67171
682.816,31.221,-3.36977,0.59037,0.67122
683.416,31.24085,-3.37002,0.58999,0.67073
684.016,31.2607,-3.37002,0.59065,0.67024
684.616,31.2804,-3.37002,0.59191,0.66975
685.216,31.3002,-3.37002,0.58954,0.66926
685.816,31.31989,-3.37002,0.5903,0.66877
686.416,31.3397,-3.37002,0.59261,0.66828
687.016,31.35953,-3.37002,0.59293,0.66779
687.616,31.3794,-3.37002,0.5963,0.6673
688.216,31.39922,-3.3703,0.59711,0.66681
688.816,31.41905,-3.37068,0.59667,0.66633
689.416,31.4389,-3.37068,0.59721,0.66584
690.016,31.4587,-3.37068,0.59608,0.66535
690.616,31.47853,-3.37068,0.59669,0.66486
691.216,31.4983,-3.37062,0.59857,0.66437
691.816,31.518,-3.37133,0.60127,0.66388
692.416,31.5379,-3.37134,0.60046,0.66339
693.016,31.55769,-3.37134,0.60064,0.6629
693.616,31.57753,-3.37134,0.6016,0.66241
694.216,31.5973,-3.37134,0.60195,0.66192
694.816,31.61716,-3.37134,0.60288,0.66143
695.416,31.63699,-3.37133,0.60389,0.66094
696.016,31.6569,-3.37026,0.60401,0.66045
696.616,31.67675,-3.37002,0.60156,0.65996
697.216,31.6965,-3.37002,0.60156,0.65947
697.816,31.71625,-3.37002,0.60019,0.65898
698.416,31.7361,-3.37002,0.60225,0.65849
699.016,31.7559,-3.37001,0.59862,0.658
699.616,31.77582,-3.37119,0.59968,0.65751
700.216,31.7958,-3.37134,0.59759,0.65702
700.816,31.8157,-3.37134,0.59818,0.65653
701.416,31.83554,-3.37134,0.5987,0.65604
702.016,31.8553,-3.37134,0.59868,0.65555
702.616,31.8752,-3.37134,0.59762,0.65506
703.216,31.895,-3.37134,0.59885,0.65457
703.816,31.91488,-3.37135,0.59882,0.65408
704.416,31.9348,-3.37218,0.59868,0.65359
705.016,31.95464,-3.37265,0.59931,0.6531
705.616,31.9745,-3.37265,0.59982,0.65261
706.216,31.99441,-3.37265,0.60126,0.65212
706.816,32.01426,-3.37265,0.60189,0.65163
707.416,32.03412,-3.37265,0.60365,0.65114
708.016,32.05407,-3.37265,0.60479,0.65065
708.616,32.0739,-3.37265,0.60663,0.65016
709.216,32.0936,-3.37265,0.60646,0.64967
709.816,32.11339,-3.37265,0.6081,0.64918
710.416,32.13322,-3.37265,0.6065,0.64869
711.016,32.15327,-3.37265,0.60988,0.6482
711.616,32.17331,-3.37265,0.608,0.64771
712.216,32.19324,-3.37297,0.6087,0.64722
712.816,32.2132,-3.37397,0.61214,0.64673
713.416,32.2331,-3.37397,0.61052,0.64624
714.016,32.25305,-3.37397,0.61251,0.64575
714.616,32.27298,-3.37267,0.6129,0.64526
715.216,32.29288,-3.37266,0.61432,0.64477
715.816,32.31275,-3.37266,0.61482,0.64428
716.416,32.33267,-3.37266,0.61489,0.64379
717.016,32.35259,-3.37266,0.61481,0.64329
717.616,32.3726,-3.37266,0.61388,0.6428
718.216,32.39248,-3.37266,0.61697,0.64231
718.816,32.4123,-3.37266,0.61656,0.64182
719.416,32.43225,-3.37266,0.61606,0.64133
720.016,32.45214,-3.37266,0.61629,0.64084
720.616,32.47218,-3.37266,0.61571,0.64035
721.216,32.49212,-3.37262,0.61224,0.63986
721.816,32.51198,-3.374,0.6151,0.63937
722.416,32.5319,-3.37398,0.61621,0.63888
723.016,32.5518,-3.37398,0.61643,0.63839
723.616,32.57179,-3.37398,0.61802,0.6379
724.216,32.59172,-3.37398,0.61827,0.63741
724.816,32.6117,-3.37444,0.61745,0.63692
725.416,32.6316,-3.37507,0.6185,0.63643
726.016,32.65153,-3.37464,0.61911,0.63594
726.616,32.6715,-3.37464,0.62069,0.63545
727.216,32.6913,-3.37464,0.62416,0.63496
727.816,32.71133,-3.37464,0.62554,0.63447
728.416,32.73134,-3.37464,0.62255,0.63398
729.016,32.75135,-3.37464,0.61937,0.63349
729.616,32.7714,-3.37464,0.62076,0.633
730.216,32.7913,-3.37459,0.62392,0.6325
730.816,32.8112,-3.37598,0.62129,0.63201
731.416,32.8311,-3.37612,0.6221,0.63152
732.016,32.851,-3.37727,0.62071,0.63103
732.616,32.87097,-3.37726,0.62249,0.63054
733.216,32.89093,-3.37726,0.62252,0.63005
733.816,32.91075,-3.37726,0.62424,0.62956
734.416,32.9307,-3.37733,0.625,0.62907
735.016,32.95064,-3.37677,0.62617,0.62858
735.616,32.9707,-3.37773,0.62611,0.62809
736.216,32.9908,-3.37724,0.62527,0.6276
736.816,33.0107,-3.37727,0.62607,0.62711
737.416,33.03065,-3.37727,0.62595,0.62662
738.016,33.05052,-3.37727,0.62768,0.62613
738.616,33.0704,-3.37727,0.6279,0.62564
739.216,33.09045,-3.37727,0.62862,0.62515
739.816,33.11045,-3.37727,0.62901,0.62466
740.416,33.13053,-3.37729,0.62678,0.62417
741.016,33.15057,-3.37805,0.63163,0.62368
741.616,33.17055,-3.37693,0.62994,0.62319
742.216,33.1905,-3.37694,0.62837,0.6227
742.816,33.2104,-3.37694,0.62762,0.62221
743.416,33.23032,-3.37695,0.62933,0.62172
744.016,33.25029,-3.3773,0.63168,0.62123
744.616,33.2703,-3.37727,0.63157,0.62073
745.216,33.2903,-3.37727,0.63245,0.62024
745.816,33.3103,-3.37727,0.63149,0.61975
746.416,33.3304,-3.37727,0.63062,0.61926