File: 01_Data/Feather_Pillow_Cover/STA/N2/30K_min/Feather_Pillow_Cover_STA_N2_30KData_2216_R1.csv
##Temp./Â°C,Time/min,Mass loss(subtr.2)/mg,DSC(subtr.2)/(mW/mg),Sensit./(uV/mW)
48.411,10.01,-0.04183,0.02135293,1.05403
49.111,10.5608,-0.04505777,0.06691342,1.05389
49.811,10.68623,-0.04379212,0.10715,1.05375
50.511,10.77626,-0.04423674,0.14109,1.05361
51.211,10.8492,-0.0448781,0.17075,1.05346
51.911,10.9131,-0.0442384,0.20108,1.05332
52.611,10.97044,-0.04456615,0.22858,1.05317
53.311,11.0221,-0.0447988,0.25647,1.05302
54.011,11.0702,-0.04579674,0.27873,1.05288
54.711,11.11565,-0.0473422,0.30385,1.05273
55.411,11.15859,-0.04482122,0.32435,1.05258
56.111,11.19944,-0.04446175,0.34701,1.05243
56.811,11.23859,-0.04380604,0.36608,1.05228
57.511,11.2761,-0.04534625,0.38496,1.05212
58.211,11.3125,-0.04317164,0.4041,1.05197
58.911,11.3477,-0.04434208,0.42007,1.05182
59.611,11.38194,-0.04568963,0.44028,1.05166
60.311,11.41526,-0.04615126,0.45659,1.0515
61.011,11.44776,-0.04694617,0.47495,1.05135
61.711,11.47942,-0.04782442,0.48847,1.05119
62.411,11.51083,-0.04846252,0.50573,1.05103
63.111,11.54164,-0.04654839,0.52035,1.05087
63.811,11.5722,-0.04652908,0.53777,1.05071
64.511,11.60213,-0.04639561,0.55,1.05055
65.211,11.63133,-0.04574105,0.56525,1.05039
65.911,11.65997,-0.04544006,0.57897,1.05022
66.611,11.68838,-0.04668038,0.59421,1.05006
67.311,11.71697,-0.04687981,0.60703,1.0499
68.011,11.74548,-0.04686521,0.6199,1.04973
68.711,11.7736,-0.04732641,0.63221,1.04956
69.411,11.8012,-0.0480009,0.64241,1.0494
70.111,11.82848,-0.04751636,0.6559,1.04923
70.811,11.85563,-0.04840878,0.66348,1.04906
71.511,11.88247,-0.04885786,0.67713,1.04889
72.211,11.9092,-0.04923311,0.68844,1.04872
72.911,11.93561,-0.04920018,0.70075,1.04855
73.611,11.96219,-0.04954436,0.71036,1.04837
74.311,11.9885,-0.04972914,0.72163,1.0482
75.011,12.01478,-0.05027555,0.72986,1.04803
75.711,12.04079,-0.05041845,0.74214,1.04785
76.411,12.06661,-0.04984231,0.7491,1.04767
77.111,12.0921,-0.05055316,0.75954,1.0475
77.811,12.11768,-0.05096278,0.77194,1.04732
78.511,12.1431,-0.0527211,0.78292,1.04714
79.211,12.1686,-0.05441514,0.79093,1.04696
79.911,12.19385,-0.0547677,0.79962,1.04678
80.611,12.219,-0.05445552,0.80891,1.0466
81.311,12.24412,-0.05303179,0.81793,1.04642
82.011,12.26908,-0.05312804,0.8272,1.04623
82.711,12.29384,-0.05240178,0.83585,1.04605
83.411,12.31874,-0.05177069,0.84631,1.04586
84.111,12.34348,-0.05255034,0.85432,1.04568
84.811,12.3683,-0.05337129,0.86209,1.04549
85.511,12.39293,-0.05417414,0.87345,1.0453
86.211,12.4174,-0.05372796,0.87972,1.04512
86.911,12.44185,-0.05504845,0.88761,1.04493
87.611,12.46608,-0.05564625,0.89551,1.04474
88.311,12.49036,-0.05653666,0.90437,1.04455
89.011,12.5147,-0.05769675,0.9127,1.04435
89.711,12.5389,-0.05687518,0.91706,1.04416
90.411,12.56306,-0.05814852,0.92477,1.04397
91.111,12.58714,-0.05700455,0.93303,1.04377
91.811,12.6111,-0.05819035,0.94059,1.04358
92.511,12.63497,-0.05825683,0.94485,1.04338
93.211,12.6587,-0.05952798,0.9539,1.04319
93.911,12.68242,-0.05930998,0.95841,1.04299
94.611,12.70627,-0.05817457,0.96462,1.04279
95.311,12.73013,-0.05818029,0.97072,1.04259
96.011,12.75414,-0.05971539,0.97643,1.04239
96.711,12.77796,-0.05957058,0.98147,1.04219
97.411,12.8017,-0.06096783,0.98667,1.04199
98.111,12.82537,-0.06093284,0.99177,1.04179
98.811,12.84896,-0.06092652,0.99659,1.04158
99.511,12.8726,-0.06113851,0.99675,1.04138
100.211,12.89627,-0.06225707,1.00161,1.04117
100.911,12.9198,-0.06256586,1.00483,1.04097
101.611,12.94346,-0.0635338,1.00754,1.04076
102.311,12.96697,-0.06355213,1.01184,1.04055
103.011,12.99054,-0.0649078,1.01208,1.04034
103.711,13.01409,-0.06488675,1.01441,1.04013
104.411,13.03762,-0.06487707,1.01798,1.03992
105.111,13.0612,-0.06492089,1.01981,1.03971
105.811,13.08441,-0.06618916,1.02049,1.0395
106.511,13.10793,-0.06689038,1.02306,1.03929
107.211,13.13137,-0.0668575,1.02037,1.03907
107.911,13.15475,-0.0676886,1.02229,1.03886
108.611,13.17809,-0.06817013,1.02276,1.03864
109.311,13.20144,-0.06818035,1.02246,1.03843
110.011,13.2248,-0.06818095,1.02337,1.03821
110.711,13.2482,-0.06819054,1.02408,1.03799
111.411,13.27176,-0.06897617,1.0236,1.03777
112.111,13.2951,-0.06947716,1.02067,1.03755
112.811,13.31843,-0.0694897,1.01847,1.03733
113.511,13.34175,-0.06949009,1.01502,1.03711
114.211,13.365,-0.069493,1.01577,1.03689
114.911,13.3883,-0.06971006,1.0129,1.03667
115.611,13.4116,-0.07150112,1.01083,1.03644
116.311,13.4348,-0.07147309,1.01003,1.03622
117.011,13.4581,-0.07147014,1.00748,1.03599
117.711,13.48127,-0.07146917,1.00451,1.03577
118.411,13.50431,-0.0714287,1.00039,1.03554
119.111,13.5275,-0.07276662,0.99929,1.03531
119.811,13.55059,-0.07329141,0.99553,1.03509
120.511,13.57368,-0.07439756,0.99495,1.03486
121.211,13.5969,-0.07441544,0.99051,1.03463
121.911,13.6199,-0.07378607,0.9867,1.03439
122.611,13.643,-0.07313348,0.98351,1.03416
123.311,13.666,-0.07312079,0.98176,1.03393
124.011,13.689,-0.07312001,0.97633,1.0337
124.711,13.712,-0.07312002,0.97314,1.03346
125.411,13.735,-0.07312093,0.9708,1.03323
126.111,13.75801,-0.07313119,0.96856,1.03299
126.811,13.78089,-0.073854,0.9662,1.03275
127.511,13.80375,-0.07441606,0.96368,1.03252
128.211,13.8266,-0.07442559,0.96013,1.03228
128.911,13.8493,-0.0744116,0.95771,1.03204
129.611,13.8722,-0.07579424,0.95411,1.0318
130.311,13.895,-0.07575351,0.95232,1.03156
131.011,13.9178,-0.07575012,0.94969,1.03132
131.711,13.9406,-0.07575,0.94744,1.03108
132.411,13.96315,-0.07575001,0.94584,1.03083
133.111,13.9858,-0.07575013,0.9441,1.03059
133.811,14.0084,-0.07575125,0.94186,1.03034
134.511,14.03101,-0.07617179,0.94105,1.0301
135.211,14.0536,-0.07704392,0.93847,1.02985
135.911,14.0762,-0.07706808,0.93626,1.0296
136.611,14.09874,-0.07706598,0.93994,1.02936
137.311,14.12127,-0.07844753,0.93805,1.02911
138.011,14.1438,-0.07839698,0.93728,1.02886
138.711,14.1663,-0.07839037,0.93545,1.02861
139.411,14.1887,-0.07839001,0.93398,1.02836
140.111,14.2112,-0.07839001,0.93591,1.02811
140.811,14.23355,-0.07839019,0.93526,1.02785
141.511,14.2559,-0.07839369,0.93573,1.0276
142.211,14.2784,-0.07842571,0.93533,1.02734
142.911,14.30071,-0.07705076,0.93433,1.02709
143.611,14.323,-0.07706641,0.93755,1.02683
144.311,14.3453,-0.07706972,0.93876,1.02658
145.011,14.36754,-0.07706954,0.93951,1.02632
145.711,14.38979,-0.07706917,0.94169,1.02606
146.411,14.4121,-0.07722903,0.94159,1.0258
147.111,14.4344,-0.07838604,0.94101,1.02554
147.811,14.4566,-0.07837982,0.94218,1.02528
148.511,14.47882,-0.07837621,0.94426,1.02502
149.211,14.50107,-0.07975064,0.94505,1.02476
149.911,14.52325,-0.07970693,0.94806,1.0245
150.611,14.5454,-0.07970033,0.94974,1.02423
151.311,14.56755,-0.07969846,0.95175,1.02397
152.011,14.5896,-0.07940264,0.95341,1.0237
152.711,14.61171,-0.07839924,0.95317,1.02344
153.411,14.63369,-0.07838194,0.9549,1.02317
154.111,14.65577,-0.07838149,0.95835,1.0229
154.811,14.6778,-0.07839623,0.96096,1.02263
155.511,14.6998,-0.07903152,0.96002,1.02236
156.211,14.7219,-0.07899871,0.96353,1.02209
156.911,14.7438,-0.08074055,0.96632,1.02182
157.611,14.76578,-0.08101319,0.96883,1.02155
158.311,14.78783,-0.0810255,0.97134,1.02128
159.011,14.8098,-0.08103189,0.97435,1.02101
159.711,14.83175,-0.07971701,0.97742,1.02073
160.411,14.8537,-0.08075078,0.97842,1.02046
161.111,14.87558,-0.08069377,0.9824,1.02018
161.811,14.89753,-0.08069015,0.98169,1.01991
162.511,14.91945,-0.08069,0.98483,1.01963
163.211,14.94135,-0.08069,0.98638,1.01935
163.911,14.9632,-0.08069,0.99032,1.01908
164.611,14.98504,-0.08069,0.99132,1.0188
165.311,15.00689,-0.08069003,0.99479,1.01852
166.011,15.0287,-0.0806903,0.9979,1.01824
166.711,15.05052,-0.0806876,1.00012,1.01795
167.411,15.07236,-0.07928489,0.99969,1.01767
168.111,15.09416,-0.07936291,1.00598,1.01739
168.811,15.116,-0.07936708,1.00584,1.01711
169.511,15.1379,-0.07934069,1.01015,1.01682
170.211,15.15965,-0.07970207,1.01116,1.01654
170.911,15.1814,-0.07969957,1.01325,1.01625
171.611,15.2031,-0.07969996,1.01596,1.01596
172.311,15.22481,-0.07970006,1.01839,1.01568
173.011,15.24665,-0.07970099,1.01985,1.01539
173.711,15.26847,-0.07970951,1.02489,1.0151
174.411,15.29026,-0.08038148,1.02584,1.01481
175.111,15.31202,-0.080999,1.02721,1.01452
175.811,15.33368,-0.08100938,1.02992,1.01423
176.511,15.3554,-0.08101658,1.03098,1.01394
177.211,15.377,-0.08121701,1.03411,1.01364
177.911,15.3986,-0.08167691,1.03729,1.01335
178.611,15.4202,-0.08166997,1.04214,1.01306
179.311,15.4418,-0.08167237,1.04325,1.01276
180.011,15.46335,-0.08174754,1.04373,1.01247
180.711,15.485,-0.08235434,1.04803,1.01217
181.411,15.50656,-0.08233129,1.04903,1.01187
182.111,15.5281,-0.08233005,1.05196,1.01157
182.811,15.54969,-0.08233,1.05391,1.01128
183.511,15.5713,-0.08232997,1.05576,1.01098
184.211,15.5928,-0.08232894,1.05878,1.01068
184.911,15.6144,-0.08228027,1.06089,1.01038
185.611,15.63582,-0.08093023,1.06289,1.01007
186.311,15.65725,-0.08100627,1.06443,1.00977
187.011,15.6787,-0.081011,1.06627,1.00947
187.711,15.70013,-0.0813509,1.06826,1.00917
188.411,15.7215,-0.08231266,1.0708,1.00886
189.111,15.743,-0.08233235,1.07365,1.00856
189.811,15.7644,-0.08241242,1.07349,1.00825
190.511,15.78573,-0.08105729,1.07791,1.00794
191.211,15.8071,-0.08101108,1.07778,1.00764
191.911,15.8284,-0.08101005,1.0804,1.00733
192.611,15.8498,-0.08101002,1.08281,1.00702
193.311,15.8711,-0.08100854,1.08225,1.00671
194.011,15.8925,-0.08158747,1.08482,1.0064
194.711,15.9138,-0.08230308,1.08764,1.00609
195.411,15.93516,-0.08231535,1.09091,1.00578
196.111,15.9565,-0.08195915,1.09086,1.00547
196.811,15.9777,-0.08101129,1.09372,1.00515
197.511,15.999,-0.08192809,1.09633,1.00484
198.211,16.02032,-0.08200274,1.09542,1.00452
198.911,16.04159,-0.08211435,1.09652,1.00421
199.611,16.06288,-0.08332668,1.09959,1.00389
200.311,16.08419,-0.08332051,1.10254,1.00358
201.011,16.10536,-0.08332003,1.10532,1.00326
201.711,16.12664,-0.08332,1.10724,1.00294
202.411,16.14793,-0.08332,1.10823,1.00262
203.111,16.16912,-0.08332,1.1093,1.0023
203.811,16.19053,-0.08331998,1.11019,1.00198
204.511,16.21175,-0.08331914,1.1131,1.00166
205.211,16.23299,-0.08329855,1.11446,1.00134
205.911,16.2543,-0.08368518,1.11409,1.00102
206.611,16.27555,-0.08365221,1.11887,1.00069
207.311,16.29682,-0.08365012,1.11926,1.00037
208.011,16.31801,-0.08365001,1.12193,1.00005
208.711,16.33929,-0.08365,1.12348,0.99972
209.411,16.3605,-0.08364996,1.1261,0.9994
210.111,16.38175,-0.08364754,1.12606,0.99907
210.811,16.403,-0.08428286,1.13025,0.99874
211.511,16.4242,-0.08494409,1.13188,0.99841
212.211,16.4454,-0.08496787,1.13391,0.99809
212.911,16.46661,-0.08496294,1.13685,0.99776
213.611,16.4878,-0.08612185,1.13521,0.99743
214.311,16.50897,-0.08628517,1.13687,0.9971
215.011,16.5302,-0.08629005,1.13894,0.99676
215.711,16.55135,-0.08629002,1.13968,0.99643
216.411,16.5726,-0.08629,1.14299,0.9961
217.111,16.59381,-0.08629,1.14413,0.99577
217.811,16.61506,-0.08629,1.14756,0.99543
218.511,16.63628,-0.08629001,1.14899,0.9951
219.211,16.65745,-0.08629007,1.14651,0.99476
219.911,16.67863,-0.08629063,1.14905,0.99443
220.611,16.69977,-0.08629181,1.15043,0.99409
221.311,16.7209,-0.08702515,1.15282,0.99375
222.011,16.7421,-0.08759862,1.15452,0.99341
222.711,16.76318,-0.08760902,1.15442,0.99307
223.411,16.78432,-0.08760993,1.15934,0.99274
224.111,16.8054,-0.08760999,1.16094,0.9924
224.811,16.82655,-0.08761,1.16017,0.99205
225.511,16.8477,-0.08761,1.16252,0.99171
226.211,16.86886,-0.08761,1.16485,0.99137
226.911,16.89001,-0.08761,1.16612,0.99103
227.611,16.91121,-0.08761,1.16577,0.99068
228.311,16.93228,-0.08761,1.16828,0.99034
229.011,16.95334,-0.08761,1.17027,0.98999
229.711,16.97446,-0.08761,1.17154,0.98965
230.411,16.99556,-0.08761,1.17179,0.9893
231.111,17.01669,-0.08761,1.17424,0.98896
231.811,17.03781,-0.08761002,1.17539,0.98861
232.511,17.05888,-0.08761017,1.17492,0.98826
233.211,17.07994,-0.08761016,1.17521,0.98791
233.911,17.1009,-0.08799914,1.17721,0.98756
234.611,17.12206,-0.08858365,1.17653,0.98721
235.311,17.14322,-0.08925095,1.18103,0.98686
236.011,17.16437,-0.08988439,1.18282,0.98651
236.711,17.18565,-0.08990843,1.18213,0.98616
237.411,17.2068,-0.08990991,1.18468,0.9858
238.111,17.2279,-0.08991,1.18481,0.98545
238.811,17.24894,-0.08990999,1.18716,0.9851
239.511,17.27005,-0.08991001,1.18772,0.98474
240.211,17.29111,-0.08991284,1.19077,0.98439
240.911,17.31221,-0.09000214,1.19007,0.98403
241.611,17.33328,-0.09128175,1.19287,0.98367
242.311,17.3543,-0.0912337,1.19471,0.98331
243.011,17.37527,-0.09123023,1.19631,0.98296
243.711,17.39617,-0.09122976,1.19716,0.9826
244.411,17.41716,-0.09122668,1.19814,0.98224
245.111,17.43821,-0.09251502,1.19712,0.98188
245.811,17.45929,-0.09266602,1.20148,0.98152
246.511,17.48048,-0.09368845,1.20179,0.98116
247.211,17.50166,-0.09397864,1.20213,0.98079
247.911,17.52279,-0.09397985,1.20572,0.98043
248.611,17.54381,-0.09397962,1.20874,0.98007
249.311,17.565,-0.0939736,1.20763,0.9797
250.011,17.58602,-0.09388449,1.21278,0.97934
250.711,17.6071,-0.09526641,1.21268,0.97897
251.411,17.62829,-0.09528934,1.21453,0.97861
252.111,17.64935,-0.09528991,1.21782,0.97824
252.811,17.67041,-0.09529079,1.21759,0.97787
253.511,17.69142,-0.09533431,1.22071,0.97751
254.211,17.71245,-0.09701855,1.22472,0.97714
254.911,17.7334,-0.0969563,1.22672,0.97677
255.611,17.75444,-0.09717134,1.22678,0.9764
256.311,17.77551,-0.09845515,1.22799,0.97603
257.011,17.7965,-0.09893396,1.23063,0.97566
257.711,17.8175,-0.10004,1.23373,0.97529
258.411,17.83841,-0.10023,1.23583,0.97491
259.111,17.8595,-0.10024,1.23692,0.97454
259.811,17.88052,-0.10027,1.23728,0.97417
260.511,17.90159,-0.10156,1.2428,0.97379
261.211,17.92274,-0.10156,1.24335,0.97342
261.911,17.94381,-0.10173,1.24534,0.97304
262.611,17.96487,-0.10291,1.2478,0.97267
263.311,17.98591,-0.10278,1.24735,0.97229
264.011,18.00691,-0.10416,1.25001,0.97191
264.711,18.02792,-0.10419,1.25288,0.97154
265.411,18.0489,-0.10419,1.2558,0.97116
266.111,18.06991,-0.10418,1.25783,0.97078
266.811,18.091,-0.10551,1.26,0.9704
267.511,18.11208,-0.10552,1.26188,0.97002
268.211,18.1331,-0.10565,1.26304,0.96964
268.911,18.15417,-0.10687,1.26355,0.96926
269.611,18.17519,-0.10678,1.26513,0.96888
270.311,18.1962,-0.10803,1.26545,0.96849
271.011,18.21731,-0.10824,1.26623,0.96811
271.711,18.2384,-0.10955,1.26818,0.96772
272.411,18.25949,-0.10966,1.2723,0.96734
273.111,18.28053,-0.111,1.27218,0.96696
273.811,18.30157,-0.111,1.27216,0.96657
274.511,18.32261,-0.11241,1.27515,0.96618
275.211,18.34367,-0.11248,1.27804,0.9658
275.911,18.3647,-0.11382,1.27946,0.96541
276.611,18.38573,-0.11427,1.2785,0.96502
277.311,18.40672,-0.11513,1.28307,0.96463
278.011,18.42775,-0.11648,1.28437,0.96424
278.711,18.44882,-0.11682,1.28634,0.96385
279.411,18.46995,-0.11802,1.29035,0.96346
280.111,18.49107,-0.11879,1.28892,0.96307
280.811,18.51221,-0.11964,1.29194,0.96268
281.511,18.53327,-0.12112,1.29238,0.96229
282.211,18.55433,-0.12154,1.29509,0.96189
282.911,18.57539,-0.12312,1.29705,0.9615
283.611,18.59638,-0.12458,1.29918,0.96111
284.311,18.61743,-0.12561,1.30197,0.96071
285.011,18.6385,-0.1263,1.30294,0.96032
285.711,18.65954,-0.12778,1.30796,0.95992
286.411,18.68068,-0.1285,1.31085,0.95952
287.111,18.70175,-0.12927,1.31319,0.95913
287.811,18.7228,-0.1309,1.31765,0.95873
288.511,18.7439,-0.13188,1.3164,0.95833
289.211,18.765,-0.13229,1.32042,0.95793
289.911,18.786,-0.13417,1.32285,0.95753
290.611,18.80712,-0.13452,1.3246,0.95713
291.311,18.82824,-0.13562,1.32625,0.95673
292.011,18.84938,-0.13753,1.33063,0.95633
292.711,18.87058,-0.13911,1.33412,0.95593
293.411,18.89163,-0.13995,1.33666,0.95553
294.111,18.91266,-0.1414,1.34001,0.95512
294.811,18.93364,-0.14291,1.33948,0.95472
295.511,18.9547,-0.14456,1.34653,0.95432
296.211,18.97585,-0.14574,1.34659,0.95391
296.911,18.997,-0.14645,1.35042,0.95351
297.611,19.0182,-0.14772,1.35306,0.9531
298.311,19.03929,-0.14952,1.35556,0.95269
299.011,19.06043,-0.15066,1.35944,0.95229
299.711,19.08146,-0.15106,1.36184,0.95188
300.411,19.1026,-0.15264,1.36571,0.95147
301.111,19.1238,-0.15432,1.36671,0.95106
301.811,19.14494,-0.1564,1.371,0.95065
302.511,19.1661,-0.15811,1.37409,0.95024
303.211,19.1872,-0.15985,1.37991,0.94983
303.911,19.2083,-0.16125,1.38252,0.94942
304.611,19.2294,-0.16232,1.38277,0.94901
305.311,19.2505,-0.16358,1.38684,0.9486
306.011,19.2717,-0.16545,1.39105,0.94819
306.711,19.29283,-0.1672,1.39613,0.94777
307.411,19.31381,-0.16911,1.39891,0.94736
308.111,19.33486,-0.17084,1.40402,0.94695
308.811,19.35601,-0.17291,1.40755,0.94653
309.511,19.37717,-0.17466,1.4118,0.94612
310.211,19.39836,-0.17674,1.41511,0.9457
310.911,19.41964,-0.1789,1.41936,0.94528
311.611,19.44077,-0.18178,1.42355,0.94487
312.311,19.46191,-0.18446,1.4269,0.94445
313.011,19.48314,-0.18677,1.4342,0.94403
313.711,19.5043,-0.1889,1.43844,0.94361
314.411,19.5254,-0.19101,1.4435,0.94319
315.111,19.5466,-0.19307,1.44442,0.94277
315.811,19.56774,-0.19505,1.45124,0.94235
316.511,19.58895,-0.19756,1.45444,0.94193
317.211,19.6101,-0.20026,1.46045,0.94151
317.911,19.63127,-0.20323,1.4673,0.94109
318.611,19.65244,-0.20608,1.47263,0.94067
319.311,19.67355,-0.20917,1.47813,0.94024
320.011,19.6947,-0.21256,1.48518,0.93982
320.711,19.71579,-0.21604,1.49124,0.9394
321.411,19.73702,-0.21919,1.49786,0.93897
322.111,19.75819,-0.22267,1.5051,0.93855
322.811,19.77947,-0.22578,1.50969,0.93812
323.511,19.8008,-0.22853,1.51726,0.9377
324.211,19.822,-0.23194,1.52471,0.93727
324.911,19.84331,-0.23521,1.53227,0.93684
325.611,19.86451,-0.23906,1.54176,0.93641
326.311,19.88573,-0.24223,1.54715,0.93599
327.011,19.90694,-0.24574,1.55661,0.93556
327.711,19.9281,-0.24984,1.56654,0.93513
328.411,19.94932,-0.25426,1.5735,0.9347
329.111,19.97054,-0.25863,1.58344,0.93427
329.811,19.9918,-0.26159,1.59155,0.93384
330.511,20.01305,-0.26588,1.60073,0.93341
331.211,20.03426,-0.26967,1.61037,0.93297
331.911,20.05554,-0.27371,1.62386,0.93254
332.611,20.07674,-0.27853,1.63256,0.93211
333.311,20.09804,-0.2834,1.64451,0.93167
334.011,20.11934,-0.28843,1.65376,0.93124
334.711,20.14059,-0.29426,1.66836,0.93081
335.411,20.1618,-0.30045,1.68085,0.93037
336.111,20.18307,-0.30614,1.69257,0.92994
336.811,20.20429,-0.31312,1.70941,0.9295
337.511,20.22554,-0.31833,1.72171,0.92906
338.211,20.24681,-0.32489,1.73837,0.92863
338.911,20.26812,-0.33067,1.75643,0.92819
339.611,20.28945,-0.33795,1.77324,0.92775
340.311,20.31077,-0.34397,1.78988,0.92731
341.011,20.3321,-0.35115,1.80792,0.92687
341.711,20.3534,-0.35756,1.826,0.92643
342.411,20.37463,-0.36628,1.85075,0.92599
343.111,20.39594,-0.37343,1.86955,0.92555
343.811,20.41726,-0.38145,1.89199,0.92511
344.511,20.43862,-0.39014,1.91354,0.92467
345.211,20.45995,-0.39861,1.94006,0.92423
345.911,20.48125,-0.40695,1.96659,0.92378
346.611,20.50258,-0.41465,1.99291,0.92334
347.311,20.524,-0.42479,2.02291,0.9229
348.011,20.5453,-0.43428,2.05415,0.92245
348.711,20.56666,-0.44572,2.088,0.92201
349.411,20.5881,-0.45571,2.1189,0.92156
350.111,20.6094,-0.46812,2.15309,0.92112
350.811,20.63074,-0.47795,2.19046,0.92067
351.511,20.65214,-0.49075,2.23153,0.92023
352.211,20.6735,-0.50156,2.26977,0.91978
352.911,20.69491,-0.51553,2.31282,0.91933
353.611,20.71634,-0.52762,2.35812,0.91888
354.311,20.7378,-0.54174,2.40582,0.91843
355.011,20.75923,-0.55543,2.45605,0.91799
355.711,20.78065,-0.57095,2.5095,0.91754
356.411,20.80206,-0.58724,2.56303,0.91709
357.111,20.8235,-0.60405,2.61879,0.91663
357.811,20.8449,-0.62252,2.67807,0.91618
358.511,20.8664,-0.63919,2.73927,0.91573
359.211,20.88798,-0.65972,2.80582,0.91528
359.911,20.90943,-0.67707,2.87279,0.91483
360.611,20.931,-0.70004,2.94521,0.91438
361.311,20.95252,-0.71875,3.01591,0.91392
362.011,20.97403,-0.74191,3.0947,0.91347
362.711,20.99557,-0.76227,3.17205,0.91301
363.411,21.01703,-0.78789,3.25765,0.91256
364.111,21.0386,-0.81183,3.34144,0.9121
364.811,21.06017,-0.83771,3.42961,0.91165
365.511,21.08174,-0.86406,3.52248,0.91119
366.211,21.10344,-0.89114,3.61712,0.91074
366.911,21.12501,-0.92186,3.71644,0.91028
367.611,21.1466,-0.95047,3.816,0.90982
368.311,21.1683,-0.98574,3.92174,0.90936
369.011,21.18993,-1.01582,4.02733,0.9089
369.711,21.21162,-1.05346,4.13521,0.90844
370.411,21.23331,-1.08523,4.24648,0.90799
371.111,21.25497,-1.12518,4.36131,0.90753
371.811,21.27664,-1.16031,4.47445,0.90706
372.511,21.29831,-1.20127,4.58958,0.9066
373.211,21.32004,-1.24076,4.70768,0.90614
373.911,21.34181,-1.28276,4.82567,0.90568
374.611,21.36351,-1.32784,4.94376,0.90522
375.311,21.38531,-1.37055,5.06241,0.90476
376.011,21.40709,-1.42101,5.17765,0.90429
376.711,21.42885,-1.46401,5.29218,0.90383
377.411,21.45068,-1.51762,5.40779,0.90336
378.111,21.4724,-1.56211,5.51717,0.9029
378.811,21.49416,-1.61781,5.62339,0.90244
379.511,21.51594,-1.66667,5.72507,0.90197
380.211,21.5378,-1.71828,5.8205,0.9015
380.911,21.5596,-1.78226,5.91485,0.90104
381.611,21.58152,-1.85322,5.9959,0.90057
382.311,21.6034,-1.91008,6.07003,0.9001
383.011,21.62525,-1.96702,6.1313,0.89964
383.711,21.64712,-2.02565,6.18061,0.89917
384.411,21.66897,-2.08438,6.22257,0.8987
385.111,21.69083,-2.14314,6.25029,0.89823
385.811,21.7127,-2.20226,6.263,0.89776
386.511,21.73452,-2.26223,6.26682,0.89729
387.211,21.75635,-2.32243,6.25458,0.89682
387.911,21.7782,-2.38266,6.22496,0.89635
388.611,21.80005,-2.44115,6.18018,0.89588
389.311,21.82185,-2.49915,6.1202,0.89541
390.011,21.84366,-2.5567,6.0437,0.89494
390.711,21.86541,-2.61277,5.95086,0.89446
391.411,21.88715,-2.66753,5.84379,0.89399
392.111,21.90886,-2.72078,5.7168,0.89352
392.811,21.93059,-2.77858,5.57644,0.89304
393.511,21.95228,-2.82926,5.41757,0.89257
394.211,21.97391,-2.87259,5.24563,0.89209
394.911,21.99556,-2.91642,5.05331,0.89162
395.611,22.01717,-2.95616,4.83006,0.89114
396.311,22.0387,-2.99983,4.60674,0.89067
397.011,22.06034,-3.03953,4.37156,0.89019
397.711,22.08191,-3.07738,4.11733,0.88971
398.411,22.10335,-3.1133,3.84291,0.88924
399.111,22.12482,-3.14406,3.57354,0.88876
399.811,22.1462,-3.17549,3.30061,0.88828
400.511,22.16751,-3.20006,3.02397,0.8878
401.211,22.18894,-3.22788,2.74955,0.88732
401.911,22.2103,-3.24722,2.48454,0.88684
402.611,22.23164,-3.26741,2.23441,0.88636
403.311,22.25297,-3.28114,1.9983,0.88588
404.011,22.2742,-3.29618,1.7779,0.8854
404.711,22.2955,-3.30748,1.57439,0.88492
405.411,22.3167,-3.31825,1.39602,0.88444
406.111,22.33791,-3.3255,1.23091,0.88396
406.811,22.3592,-3.33074,1.08867,0.88348
407.511,22.38042,-3.33576,0.9639,0.883
408.211,22.40166,-3.34003,0.85572,0.88251
408.911,22.4229,-3.34439,0.76241,0.88203
409.611,22.44412,-3.34661,0.68385,0.88154
410.311,22.4653,-3.34887,0.61522,0.88106
411.011,22.4866,-3.35015,0.55798,0.88058
411.711,22.5079,-3.35211,0.5076,0.88009
412.411,22.5293,-3.35394,0.4649,0.87961
413.111,22.5508,-3.35544,0.43059,0.87912
413.811,22.57216,-3.3581,0.40118,0.87863
414.511,22.59354,-3.3599,0.37486,0.87815
415.211,22.61492,-3.36099,0.35651,0.87766
415.911,22.63639,-3.3617,0.33659,0.87717
416.611,22.65785,-3.36269,0.32117,0.87668
417.311,22.67935,-3.36326,0.30648,0.8762
418.011,22.7008,-3.36418,0.29726,0.87571
418.711,22.72231,-3.36549,0.2856,0.87522
419.411,22.74385,-3.36574,0.27925,0.87473
420.111,22.7653,-3.36824,0.26994,0.87424
420.811,22.7869,-3.36903,0.2625,0.87375
421.511,22.8086,-3.36978,0.26104,0.87326
422.211,22.83024,-3.37203,0.25826,0.87277
422.911,22.85199,-3.37384,0.25252,0.87228
423.611,22.87371,-3.37466,0.24981,0.87178
424.311,22.89532,-3.37595,0.24423,0.87129
425.011,22.91686,-3.37728,0.24361,0.8708
425.711,22.9384,-3.37647,0.24036,0.87031
426.411,22.96005,-3.37771,0.2377,0.86981
427.111,22.98178,-3.3785,0.2363,0.86932
427.811,23.0036,-3.37897,0.23396,0.86883
428.511,23.02553,-3.38017,0.23261,0.86833
429.211,23.04733,-3.38035,0.22874,0.86784
429.911,23.0691,-3.38176,0.2274,0.86734
430.611,23.09084,-3.38183,0.2275,0.86685
431.311,23.11261,-3.3831,0.22657,0.86635
432.011,23.13427,-3.38309,0.22389,0.86585
432.711,23.15604,-3.38405,0.22405,0.86536
433.411,23.1779,-3.38439,0.22478,0.86486
434.111,23.1995,-3.3844,0.22536,0.86436
434.811,23.22139,-3.38445,0.22341,0.86386
435.511,23.24321,-3.38577,0.22172,0.86337
436.211,23.26499,-3.38575,0.2198,0.86287
436.911,23.28691,-3.3864,0.21805,0.86237
437.611,23.30871,-3.38704,0.21792,0.86187
438.311,23.33054,-3.38745,0.21544,0.86137
439.011,23.35238,-3.38965,0.2163,0.86087
439.711,23.37422,-3.39043,0.21461,0.86037
440.411,23.39613,-3.39095,0.21486,0.85987
441.111,23.41797,-3.3909,0.21298,0.85937
441.811,23.43979,-3.3923,0.211,0.85887
442.511,23.46174,-3.3928,0.21002,0.85836
443.211,23.4836,-3.39361,0.21007,0.85786
443.911,23.5056,-3.39415,0.20925,0.85736
444.611,23.5275,-3.39494,0.21035,0.85686
445.311,23.5494,-3.39554,0.20913,0.85635
446.011,23.5713,-3.39634,0.20798,0.85585
446.711,23.59314,-3.39728,0.20668,0.85534
447.411,23.61514,-3.39766,0.20665,0.85484
448.111,23.63705,-3.39884,0.20598,0.85434
448.811,23.659,-3.39908,0.20588,0.85383
449.511,23.681,-3.40045,0.20486,0.85333
450.211,23.70291,-3.40045,0.20344,0.85282
450.911,23.72492,-3.40183,0.20342,0.85231
451.611,23.74689,-3.40169,0.20318,0.85181
452.311,23.7688,-3.40302,0.20196,0.8513
453.011,23.7908,-3.40305,0.20056,0.85079
453.711,23.8127,-3.40395,0.20026,0.85029
454.411,23.83476,-3.40437,0.19874,0.84978
455.111,23.85679,-3.40438,0.19674,0.84927
455.811,23.87893,-3.40438,0.19797,0.84876
456.511,23.90096,-3.4048,0.19748,0.84825
457.211,23.92301,-3.40568,0.19449,0.84774
457.911,23.9451,-3.40615,0.19582,0.84723
458.611,23.9671,-3.40712,0.19772,0.84672
459.311,23.98914,-3.40708,0.1949,0.84621
460.011,24.01119,-3.40844,0.19446,0.8457
460.711,24.0332,-3.40844,0.19413,0.84519
461.411,24.0552,-3.40849,0.19436,0.84468
462.111,24.07726,-3.40985,0.19231,0.84417
462.811,24.09928,-3.41177,0.19082,0.84366
463.511,24.1214,-3.41271,0.19187,0.84315
464.211,24.14345,-3.41426,0.19041,0.84263
464.911,24.1656,-3.41424,0.19115,0.84212
465.611,24.18769,-3.41552,0.18973,0.84161
466.311,24.20985,-3.41579,0.18822,0.84109
467.011,24.23195,-3.41687,0.18914,0.84058
467.711,24.25405,-3.41689,0.18802,0.84007
468.411,24.27613,-3.41689,0.18802,0.83955
469.111,24.2982,-3.41688,0.18659,0.83904
469.811,24.32033,-3.41823,0.18672,0.83852
470.511,24.34241,-3.41883,0.18644,0.83801
471.211,24.3645,-3.41976,0.18654,0.83749
471.911,24.38672,-3.42128,0.18841,0.83697
472.611,24.40886,-3.42206,0.18646,0.83646
473.311,24.431,-3.42248,0.18448,0.83594
474.011,24.4531,-3.42276,0.18556,0.83542
474.711,24.4753,-3.4225,0.18664,0.83491
475.411,24.4974,-3.42248,0.18779,0.83439
476.111,24.51959,-3.42378,0.18402,0.83387
476.811,24.54181,-3.42382,0.18349,0.83335
477.511,24.56397,-3.42533,0.18459,0.83283
478.211,24.58612,-3.42509,0.18528,0.83231
478.911,24.60833,-3.4278,0.18661,0.8318
479.611,24.63052,-3.42787,0.18418,0.83128
480.311,24.65266,-3.42875,0.18356,0.83076
481.011,24.6749,-3.42918,0.18469,0.83024
481.711,24.697,-3.42918,0.18327,0.82972
482.411,24.71924,-3.43046,0.18494,0.82919
483.111,24.74149,-3.43052,0.18325,0.82867
483.811,24.76366,-3.43053,0.18367,0.82815
484.511,24.78592,-3.43108,0.1837,0.82763
485.211,24.8081,-3.43182,0.18389,0.82711
485.911,24.83028,-3.43183,0.18274,0.82659
486.611,24.85237,-3.43246,0.18188,0.82606
487.311,24.87452,-3.43248,0.18119,0.82554
488.011,24.8967,-3.43248,0.18125,0.82502
488.711,24.91893,-3.43271,0.1802,0.82449
489.411,24.94129,-3.4341,0.18095,0.82397
490.111,24.96357,-3.43559,0.18254,0.82345
490.811,24.98582,-3.4372,0.18137,0.82292
491.511,25.00816,-3.43711,0.18313,0.8224
492.211,25.03035,-3.43778,0.18332,0.82187
492.911,25.0526,-3.43839,0.18128,0.82135
493.611,25.07481,-3.43832,0.18075,0.82082
494.311,25.09705,-3.43971,0.18054,0.8203
495.011,25.11936,-3.43973,0.18032,0.81977
495.711,25.1415,-3.43979,0.1804,0.81924
496.411,25.16362,-3.4411,0.18211,0.81872
497.111,25.18586,-3.44105,0.18325,0.81819
497.811,25.20814,-3.44098,0.18385,0.81766
498.511,25.2305,-3.44237,0.18134,0.81713
499.211,25.25301,-3.44237,0.18104,0.81661
499.911,25.2753,-3.44239,0.18117,0.81608
500.611,25.29753,-3.44311,0.18147,0.81555
501.311,25.31981,-3.44368,0.18279,0.81502
502.011,25.34214,-3.44364,0.18266,0.81449
502.711,25.36448,-3.44492,0.18499,0.81396
503.411,25.3868,-3.445,0.18447,0.81343
504.111,25.40909,-3.445,0.18419,0.8129
504.811,25.43132,-3.44509,0.18386,0.81237
505.511,25.45358,-3.44633,0.1841,0.81184
506.211,25.4759,-3.44631,0.18508,0.81131
506.911,25.49833,-3.44751,0.18422,0.81078
507.611,25.52069,-3.44763,0.18523,0.81025
508.311,25.54309,-3.44764,0.18698,0.80972
509.011,25.56541,-3.44792,0.18649,0.80919
509.711,25.5877,-3.44898,0.18581,0.80866
510.411,25.61,-3.44895,0.18858,0.80812
511.111,25.63232,-3.4501,0.18697,0.80759
511.811,25.65467,-3.45027,0.18959,0.80706
512.511,25.677,-3.45027,0.18911,0.80653
513.211,25.69939,-3.45025,0.18942,0.80599
513.911,25.72175,-3.45163,0.18922,0.80546
514.611,25.74409,-3.45165,0.18842,0.80493
515.311,25.7665,-3.45341,0.18961,0.80439
516.011,25.78884,-3.45356,0.18985,0.80386
516.711,25.8112,-3.45397,0.19188,0.80332
517.411,25.83372,-3.45453,0.18968,0.80279
518.111,25.85616,-3.45451,0.19106,0.80225
518.811,25.8785,-3.45489,0.19017,0.80172
519.511,25.9009,-3.45489,0.18848,0.80118
520.211,25.92326,-3.4559,0.18981,0.80065
520.911,25.9456,-3.45697,0.19071,0.80011
521.611,25.9681,-3.45719,0.19147,0.79957
522.311,25.9905,-3.45719,0.18971,0.79904
523.011,26.0129,-3.45781,0.19013,0.7985
523.711,26.03538,-3.45849,0.18994,0.79796
524.411,26.05782,-3.45851,0.19001,0.79743
525.111,26.0803,-3.45851,0.18888,0.79689
525.811,26.10278,-3.45848,0.18961,0.79635
526.511,26.12523,-3.45958,0.18955,0.79581
527.211,26.14771,-3.45982,0.1903,0.79527
527.911,26.17021,-3.46017,0.19006,0.79474
528.611,26.1927,-3.46112,0.18982,0.7942
529.311,26.21515,-3.46113,0.18919,0.79366
530.011,26.2376,-3.46227,0.18906,0.79312
530.711,26.26006,-3.46246,0.18794,0.79258
531.411,26.2825,-3.46246,0.18941,0.79204
532.111,26.30505,-3.46259,0.18916,0.7915
532.811,26.32757,-3.46313,0.18813,0.79096
533.511,26.35,-3.46312,0.18774,0.79042
534.211,26.3724,-3.46312,0.18806,0.78988
534.911,26.3948,-3.46312,0.18768,0.78934
535.611,26.41729,-3.4643,0.18984,0.7888
536.311,26.43983,-3.46454,0.1866,0.78826
537.011,26.4624,-3.46454,0.18653,0.78771
537.711,26.48498,-3.46454,0.1867,0.78717
538.411,26.50755,-3.4647,0.18604,0.78663
539.111,26.5301,-3.46718,0.18247,0.78609
539.811,26.5527,-3.46721,0.18487,0.78554
540.511,26.57515,-3.46611,0.18397,0.785
541.211,26.5977,-3.46588,0.18543,0.78446
541.911,26.6202,-3.46666,0.18494,0.78392
542.611,26.6427,-3.4678,0.18553,0.78337
543.311,26.66528,-3.46862,0.18322,0.78283
544.011,26.68778,-3.46938,0.18315,0.78228
544.711,26.71025,-3.46991,0.18423,0.78174
545.411,26.73285,-3.46928,0.18531,0.7812
546.111,26.7554,-3.46921,0.1853,0.78065
546.811,26.778,-3.4705,0.18564,0.78011
547.511,26.8006,-3.47058,0.18578,0.77956
548.211,26.8232,-3.47061,0.18699,0.77902
548.911,26.8457,-3.47198,0.18903,0.77847
549.611,26.8683,-3.47191,0.18801,0.77793
550.311,26.8908,-3.47262,0.18868,0.77738
551.011,26.9134,-3.47179,0.1913,0.77683
551.711,26.936,-3.47191,0.19105,0.77629
552.411,26.95856,-3.47244,0.19335,0.77574
553.111,26.9811,-3.47321,0.19384,0.77519
553.811,27.0037,-3.47325,0.19643,0.77465
554.511,27.0262,-3.47461,0.20001,0.7741
555.211,27.0487,-3.47454,0.20251,0.77355
555.911,27.0713,-3.47454,0.20513,0.77301
556.611,27.0938,-3.47454,0.20694,0.77246
557.311,27.1164,-3.47454,0.21079,0.77191
558.011,27.1391,-3.47454,0.21222,0.77136
558.711,27.1617,-3.47455,0.21472,0.77081
559.411,27.1843,-3.47492,0.21602,0.77027
560.111,27.20693,-3.47585,0.21652,0.76972
560.811,27.22956,-3.47585,0.21798,0.76917
561.511,27.2522,-3.47585,0.22072,0.76862
562.211,27.2749,-3.47586,0.22072,0.76807
562.911,27.29747,-3.4763,0.22043,0.76752
563.611,27.32002,-3.47717,0.22108,0.76697
564.311,27.34256,-3.47717,0.22137,0.76642
565.011,27.36518,-3.47724,0.21928,0.76587
565.711,27.38782,-3.47853,0.22068,0.76532
566.411,27.41051,-3.47849,0.21895,0.76477
567.111,27.43323,-3.47851,0.21755,0.76422
567.811,27.4559,-3.47905,0.21687,0.76367
568.511,27.4786,-3.47981,0.21541,0.76312
569.211,27.50125,-3.47981,0.21409,0.76256
569.911,27.524,-3.47981,0.2111,0.76201
570.611,27.54669,-3.47981,0.20974,0.76146
571.311,27.5694,-3.47981,0.20952,0.76091
572.011,27.5922,-3.48034,0.20838,0.76036
572.711,27.6147,-3.48085,0.20639,0.75981
573.411,27.6373,-3.47977,0.2045,0.75925
574.111,27.66005,-3.4798,0.20589,0.7587
574.811,27.68275,-3.48002,0.20166,0.75815
575.511,27.7056,-3.48103,0.20012,0.75759
576.211,27.7284,-3.48242,0.19795,0.75704
576.911,27.75115,-3.48169,0.19667,0.75649
577.611,27.77389,-3.48255,0.1953,0.75593
578.311,27.79666,-3.48245,0.19336,0.75538
579.011,27.81945,-3.48244,0.19205,0.75483
579.711,27.84218,-3.48246,0.19273,0.75427
580.411,27.86497,-3.48336,0.19137,0.75372
581.111,27.88774,-3.48509,0.18845,0.75316
581.811,27.91052,-3.48508,0.18882,0.75261
582.511,27.93341,-3.48508,0.18679,0.75206
583.211,27.9562,-3.48508,0.18676,0.7515
583.911,27.979,-3.48508,0.18627,0.75095
584.611,28.0018,-3.48508,0.18603,0.75039
585.311,28.02465,-3.48508,0.18432,0.74984
586.011,28.04758,-3.4851,0.18178,0.74928
586.711,28.07044,-3.4861,0.18211,0.74872
587.411,28.09325,-3.48639,0.18207,0.74817
588.111,28.11604,-3.48639,0.18011,0.74761
588.811,28.13883,-3.48639,0.17886,0.74706
589.511,28.16165,-3.48636,0.17977,0.7465
590.211,28.1844,-3.48763,0.1799,0.74594
590.911,28.20725,-3.48771,0.17737,0.74539
591.611,28.2301,-3.48771,0.17541,0.74483
592.311,28.25295,-3.48771,0.17369,0.74427
593.011,28.2759,-3.48771,0.17616,0.74371
593.711,28.29873,-3.48771,0.17425,0.74316
594.411,28.3216,-3.4891,0.17101,0.7426
595.111,28.3443,-3.48904,0.17204,0.74204
595.811,28.3671,-3.48903,0.17138,0.74148
596.511,28.39,-3.48903,0.17248,0.74093
597.211,28.4129,-3.48903,0.17185,0.74037
597.911,28.43587,-3.48906,0.17216,0.73981
598.611,28.4588,-3.48991,0.17207,0.73925
599.311,28.48165,-3.49034,0.1683,0.73869
600.011,28.5046,-3.49034,0.1679,0.73813
600.711,28.5274,-3.49034,0.16728,0.73758
601.411,28.5503,-3.49034,0.16642,0.73702
602.111,28.57317,-3.48892,0.16436,0.73646
602.811,28.59607,-3.48896,0.16307,0.7359
603.511,28.61895,-3.49031,0.16186,0.73534
604.211,28.6418,-3.49115,0.16278,0.73478
604.911,28.6647,-3.49167,0.16304,0.73422
605.611,28.6876,-3.49242,0.16293,0.73366
606.311,28.71053,-3.49298,0.16215,0.7331
607.011,28.73348,-3.49298,0.16328,0.73254
607.711,28.75638,-3.49298,0.16225,0.73198
608.411,28.77935,-3.49298,0.16348,0.73142
609.111,28.8023,-3.49298,0.16253,0.73086
609.811,28.82521,-3.49297,0.16128,0.7303
610.511,28.84815,-3.49416,0.16126,0.72974
611.211,28.87108,-3.4943,0.15708,0.72917
611.911,28.8941,-3.4943,0.15986,0.72861
612.611,28.91698,-3.4943,0.16084,0.72805
613.311,28.9399,-3.4943,0.1594,0.72749
614.011,28.96273,-3.4943,0.16086,0.72693
614.711,28.9855,-3.4943,0.1603,0.72637
615.411,29.00824,-3.4943,0.15946,0.72581
616.111,29.0312,-3.4943,0.15904,0.72524
616.811,29.0542,-3.49422,0.16015,0.72468
617.511,29.0773,-3.49557,0.16207,0.72412
618.211,29.10047,-3.49458,0.15843,0.72356
618.911,29.12335,-3.49429,0.15833,0.72299
619.611,29.14635,-3.49429,0.15874,0.72243
620.311,29.16935,-3.49429,0.15697,0.72187
621.011,29.1923,-3.49514,0.1554,0.72131
621.711,29.2154,-3.4956,0.15662,0.72074
622.411,29.23834,-3.49561,0.15777,0.72018
623.111,29.2613,-3.4956,0.15781,0.71962
623.811,29.2843,-3.49662,0.15734,0.71905
624.511,29.30725,-3.49692,0.15864,0.71849
625.211,29.3303,-3.49693,0.15859,0.71793
625.911,29.35326,-3.49693,0.15652,0.71736
626.611,29.37627,-3.49693,0.15645,0.7168
627.311,29.39927,-3.49693,0.15658,0.71624
628.011,29.4222,-3.49693,0.15656,0.71567
628.711,29.4451,-3.49693,0.15832,0.71511
629.411,29.46808,-3.49694,0.15909,0.71454
630.111,29.49108,-3.49768,0.15844,0.71398
630.811,29.5141,-3.49899,0.16017,0.71341
631.511,29.5371,-3.49955,0.16013,0.71285
632.211,29.56012,-3.49957,0.15853,0.71228
632.911,29.5831,-3.50122,0.15983,0.71172
633.611,29.60615,-3.50111,0.16038,0.71115
634.311,29.62912,-3.50109,0.16052,0.71059
635.011,29.6522,-3.50066,0.1623,0.71002
635.711,29.67519,-3.50087,0.16405,0.70946
636.411,29.69813,-3.50088,0.16241,0.70889
637.111,29.7211,-3.50089,0.16273,0.70833
637.811,29.74403,-3.49989,0.1631,0.70776
638.511,29.767,-3.49957,0.16347,0.7072
639.211,29.79001,-3.49956,0.16546,0.70663
639.911,29.8131,-3.49956,0.16586,0.70607
640.611,29.83615,-3.49956,0.16492,0.7055
641.311,29.8592,-3.49956,0.16397,0.70493
642.011,29.88226,-3.49961,0.16476,0.70437
642.711,29.9052,-3.50024,0.16677,0.7038
643.411,29.9282,-3.50022,0.16888,0.70323
644.111,29.9513,-3.50022,0.16959,0.70267
644.811,29.9743,-3.50044,0.17206,0.7021
645.511,29.99737,-3.50157,0.17227,0.70153
646.211,30.0204,-3.50154,0.17196,0.70097
646.911,30.0433,-3.50155,0.17434,0.7004
647.611,30.0664,-3.50174,0.17484,0.69983
648.311,30.0894,-3.50281,0.17862,0.69927
649.011,30.1125,-3.50351,0.17899,0.6987
649.711,30.1356,-3.50352,0.17949,0.69813
650.411,30.15857,-3.50374,0.17885,0.69756
651.111,30.18157,-3.50482,0.17768,0.697
651.811,30.2046,-3.50483,0.18007,0.69643
652.511,30.22754,-3.50475,0.17997,0.69586
653.211,30.2506,-3.50615,0.18153,0.69529
653.911,30.2736,-3.50616,0.18035,0.69473
654.611,30.2966,-3.50511,0.17827,0.69416
655.311,30.31975,-3.50483,0.18065,0.69359
656.011,30.34285,-3.50483,0.18028,0.69302
656.711,30.36593,-3.50472,0.17951,0.69245
657.411,30.38901,-3.50636,0.17862,0.69189
658.111,30.41208,-3.50637,0.17723,0.69132
658.811,30.43515,-3.50723,0.17437,0.69075
659.511,30.45818,-3.50717,0.17778,0.69018
660.211,30.48125,-3.50638,0.17494,0.68961
660.911,30.5043,-3.50641,0.17401,0.68904
661.611,30.52729,-3.50517,0.17424,0.68848
662.311,30.5503,-3.50505,0.1752,0.68791
663.011,30.57325,-3.50505,0.1709,0.68734
663.711,30.5963,-3.50505,0.17363,0.68677
664.411,30.61938,-3.50505,0.17263,0.6862
665.111,30.6425,-3.50505,0.17282,0.68563
665.811,30.66558,-3.50499,0.17133,0.68506
666.511,30.6886,-3.50602,0.17032,0.68449
667.211,30.71163,-3.50604,0.16882,0.68392
667.911,30.73475,-3.50595,0.17083,0.68335
668.611,30.75788,-3.50735,0.17066,0.68279
669.311,30.78102,-3.50736,0.17192,0.68222
670.011,30.80408,-3.50737,0.16961,0.68165
670.711,30.82718,-3.50782,0.16928,0.68108
671.411,30.85025,-3.50835,0.17097,0.68051
672.111,30.8733,-3.50836,0.16868,0.67994
672.811,30.8964,-3.50857,0.17073,0.67937
673.511,30.91947,-3.50868,0.17003,0.6788
674.211,30.9426,-3.50869,0.16998,0.67823
674.911,30.96572,-3.50906,0.17248,0.67766
675.611,30.98883,-3.50933,0.1682,0.67709
676.311,31.01189,-3.50933,0.16728,0.67652
677.011,31.0349,-3.50933,0.17056,0.67595
677.711,31.058,-3.50933,0.16999,0.67538
678.411,31.08103,-3.50933,0.16665,0.67481
679.111,31.1041,-3.50941,0.16534,0.67424
679.811,31.12718,-3.50803,0.16709,0.67367
680.511,31.15026,-3.50801,0.16921,0.6731
681.211,31.1733,-3.50802,0.16866,0.67253
681.911,31.1964,-3.50845,0.16818,0.67196
682.611,31.2195,-3.50867,0.17037,0.67138
683.311,31.24264,-3.50867,0.16958,0.67081
684.011,31.26575,-3.50867,0.16695,0.67024
684.711,31.2888,-3.50867,0.16893,0.66967
685.411,31.31192,-3.50867,0.1715,0.6691
686.111,31.33502,-3.50858,0.17233,0.66853
686.811,31.35817,-3.50998,0.17287,0.66796
687.511,31.3812,-3.50998,0.1708,0.66739
688.211,31.40415,-3.51099,0.17094,0.66682
688.911,31.42724,-3.5113,0.17189,0.66625
689.611,31.4504,-3.51131,0.17161,0.66568
690.311,31.4737,-3.51131,0.17296,0.66511
691.011,31.49697,-3.51131,0.16926,0.66453
691.711,31.52015,-3.51131,0.17206,0.66396
692.411,31.54332,-3.51131,0.1723,0.66339
693.111,31.56645,-3.51131,0.17078,0.66282
693.811,31.58955,-3.51131,0.17092,0.66225
694.511,31.61263,-3.51131,0.17185,0.66168
695.211,31.63565,-3.51131,0.17062,0.66111
695.911,31.6589,-3.51131,0.17069,0.66054
696.611,31.68205,-3.51131,0.17133,0.65996
697.311,31.70519,-3.51131,0.17344,0.65939
698.011,31.7284,-3.51131,0.17062,0.65882
698.711,31.75158,-3.51131,0.17104,0.65825
699.411,31.7747,-3.51131,0.17099,0.65768
700.111,31.7978,-3.51131,0.17021,0.65711
700.811,31.8209,-3.51131,0.17017,0.65653
701.511,31.844,-3.51273,0.17155,0.65596
702.211,31.86729,-3.51263,0.17095,0.65539
702.911,31.8906,-3.51263,0.17153,0.65482
703.611,31.9138,-3.5123,0.17013,0.65425
704.311,31.9369,-3.51131,0.16773,0.65368
705.011,31.96006,-3.51131,0.16938,0.6531
705.711,31.9832,-3.51133,0.16894,0.65253
706.411,32.00642,-3.51269,0.16929,0.65196
707.111,32.02967,-3.51262,0.16751,0.65139
707.811,32.05276,-3.51262,0.16991,0.65082
708.511,32.07593,-3.51262,0.16845,0.65025
709.211,32.0991,-3.51264,0.17052,0.64967
709.911,32.12225,-3.51126,0.17128,0.6491
710.611,32.1455,-3.51122,0.17237,0.64853
711.311,32.16874,-3.51271,0.17187,0.64796
712.011,32.19198,-3.51281,0.17296,0.64739
712.711,32.21518,-3.5141,0.17376,0.64681
713.411,32.23837,-3.51405,0.1741,0.64624
714.111,32.2615,-3.51405,0.17283,0.64567
714.811,32.2847,-3.51405,0.17465,0.6451
715.511,32.30793,-3.51405,0.17545,0.64452
716.211,32.3311,-3.51405,0.17634,0.64395
716.911,32.35439,-3.51405,0.17695,0.64338
717.611,32.37768,-3.51405,0.17335,0.64281
718.311,32.4009,-3.51405,0.17222,0.64224
719.011,32.4242,-3.51442,0.17226,0.64166
719.711,32.44745,-3.51537,0.1741,0.64109
720.411,32.4707,-3.51537,0.1721,0.64052
721.111,32.49394,-3.51515,0.17335,0.63995
721.811,32.51713,-3.51438,0.17494,0.63938
722.511,32.54029,-3.51439,0.1741,0.6388
723.211,32.56355,-3.51439,0.17565,0.63823
723.911,32.58681,-3.51439,0.17304,0.63766
724.611,32.61013,-3.51439,0.17183,0.63709
725.311,32.63327,-3.51439,0.17291,0.63651
726.011,32.65643,-3.51439,0.1723,0.63594
726.711,32.67971,-3.51439,0.17078,0.63537
727.411,32.70299,-3.51439,0.17267,0.6348
728.111,32.72643,-3.51442,0.17239,0.63423
728.811,32.7498,-3.51535,0.1707,0.63365
729.511,32.7731,-3.51538,0.1707,0.63308
730.211,32.79635,-3.51536,0.17452,0.63251
730.911,32.8196,-3.51474,0.17422,0.63194
731.611,32.8429,-3.51406,0.17418,0.63136
732.311,32.86618,-3.51407,0.17405,0.63079
733.011,32.88946,-3.51467,0.17607,0.63022
733.711,32.91277,-3.51504,0.17352,0.62965
734.411,32.936,-3.51504,0.1746,0.62908
735.111,32.95933,-3.51504,0.17577,0.6285
735.811,32.98264,-3.51504,0.17508,0.62793
736.511,33.00588,-3.51504,0.17455,0.62736
737.211,33.02919,-3.51504,0.17331,0.62679
737.911,33.0525,-3.51502,0.175,0.62621
738.611,33.0758,-3.5154,0.17436,0.62564
739.311,33.09923,-3.51537,0.1746,0.62507
740.011,33.12255,-3.51537,0.17228,0.6245
740.711,33.14589,-3.51532,0.17144,0.62393
741.411,33.16919,-3.51666,0.17016,0.62335
742.111,33.19254,-3.51669,0.17029,0.62278
742.811,33.21589,-3.51669,0.16915,0.62221
743.511,33.23915,-3.51669,0.16732,0.62164
744.211,33.26247,-3.51669,0.16709,0.62107
744.911,33.28573,-3.51669,0.16767,0.62049
745.611,33.30904,-3.51669,0.16952,0.61992
746.311,33.33242,-3.51688,0.16853,0.61935
747.011,33.3557,-3.51802,0.16825,0.61878
747.711,33.37903,-3.51801,0.16893,0.61821
748.411,33.4024,-3.51801,0.16685,0.61763
749.111,33.4257,-3.51799,0.16501,0.61706
749.811,33.44912,-3.51739,0.16558,0.61649
750.511,33.47258,-3.51735,0.1639,0.61592
751.211,33.4959,-3.51735,0.16347,0.61535
751.911,33.5193,-3.51735,0.16501,0.61477
752.611,33.54265,-3.51735,0.16349,0.6142
753.311,33.56601,-3.51735,0.16268,0.61363
754.011,33.58945,-3.51735,0.15979,0.61306
754.711,33.61285,-3.51718,0.1613,0.61249
755.411,33.6362,-3.51673,0.162,0.61192
756.111,33.6595,-3.51764,0.1614,0.61134
756.811,33.6828,-3.518,0.15838,0.61077
757.511,33.7062,-3.518,0.15835,0.6102
758.211,33.7296,-3.518,0.15953,0.60963
758.911,33.75302,-3.518,0.15732,0.60906
759.611,33.77643,-3.518,0.15911,0.60849
760.311,33.79984,-3.518,0.15783,0.60792
761.011,33.82318,-3.51794,0.15652,0.60734
761.711,33.8466,-3.51929,0.15785,0.60677
762.411,33.86996,-3.51932,0.15638,0.6062
763.111,33.89332,-3.51964,0.1566,0.60563
763.811,33.9167,-3.51965,0.15602,0.60506
764.511,33.9401,-3.51965,0.1587,0.60449
765.211,33.9635,-3.51961,0.15682,0.60392
765.911,33.98693,-3.52059,0.15584,0.60335
766.611,34.01037,-3.52064,0.15215,0.60277
767.311,34.03379,-3.52064,0.15144,0.6022
768.011,34.0572,-3.52064,0.15255,0.60163
768.711,34.08057,-3.52064,0.1525,0.60106
769.411,34.10398,-3.52101,0.152,0.60049
770.111,34.1274,-3.52098,0.15063,0.59992
770.811,34.1507,-3.51962,0.15025,0.59935
771.511,34.17405,-3.51964,0.15047,0.59878
772.211,34.1974,-3.51966,0.15151,0.59821
772.911,34.22084,-3.52038,0.14985,0.59764
773.611,34.2443,-3.52096,0.14958,0.59707
774.311,34.2678,-3.52097,0.15332,0.5965
775.011,34.29115,-3.52097,0.1495,0.59592
775.711,34.3145,-3.52097,0.15381,0.59535
776.411,34.3379,-3.52097,0.15146,0.59478
777.111,34.3613,-3.52097,0.15375,0.59421
777.811,34.38469,-3.52099,0.1522,0.59364
778.511,34.40815,-3.52178,0.15334,0.59307
779.211,34.43159,-3.52228,0.15165,0.5925
779.911,34.45505,-3.52228,0.15052,0.59193
780.611,34.4785,-3.52228,0.1459,0.59136
781.311,34.50197,-3.52228,0.14838,0.59079
782.011,34.52541,-3.52228,0.14659,0.59022
782.711,34.54882,-3.52228,0.1487,0.58965
783.411,34.57224,-3.52227,0.14844,0.58908
784.111,34.59561,-3.52198,0.15018,0.58851
784.811,34.61906,-3.52085,0.14901,0.58794
785.511,34.64245,-3.51922,0.15024,0.58737
786.211,34.6659,-3.51955,0.14877,0.5868
786.911,34.68932,-3.51931,0.1484,0.58623
787.611,34.7127,-3.51932,0.14696,0.58566
788.311,34.73616,-3.51932,0.14859,0.58509
789.011,34.7596,-3.51902,0.15074,0.58453
789.711,34.78305,-3.51835,0.15208,0.58396
790.411,34.80653,-3.51833,0.15092,0.58339
791.111,34.83,-3.51833,0.15087,0.58282
791.811,34.85347,-3.51833,0.15187,0.58225
792.511,34.8769,-3.51833,0.15185,0.58168
793.211,34.90031,-3.51832,0.15067,0.58111
793.911,34.92367,-3.51947,0.15284,0.58054
794.611,34.94712,-3.52095,0.15478,0.57997
795.311,34.97058,-3.52097,0.15661,0.5794
796.011,34.9941,-3.52097,0.15243,0.57884
796.111,34.9974,-3.52097,0.15183,0.57875