File: 01_Data/Cotton_Ball/MCC/Cotton_Ball_MCC_30K_min_210708_R3.txt
Sample ID:	C:\MCC\MCC Cal\Test\Cotton_Ball\Cotton_Ball_MCC_30K_min_21_07_08_R3.txt
Sample Weight (mg):	3.31
Heating Rate (C/s):	0.5
Combustor Temp (C):	900
N2 Flow Rate (cc/min):	80
O2 Flow Rate (cc/min):	20
Calibration File:	C:\MCC\MCC Cal\Coeff1 JN10440_30_210304.txt.txt
T Correction Coefficients:	0	1.024463	0
Time Shift (s):	14
*
Time (s)	Temperature (C)	N2 flow rate (cc/min)	O2 flow rate (cc/min)	Flow Rate (cc/min)	Oxygen (%)	HRR (W/g)	Heating rate (C/s)
0.000	112.757	79.995	19.996	99.923	20.241	0.364	-0.004
2.000	112.757	79.998	19.995	99.925	20.239	0.604	0.010
4.000	112.688	79.996	19.996	99.924	20.240	0.472	-0.010
6.000	112.683	79.997	19.996	99.924	20.241	0.390	-0.025
8.000	112.688	79.999	19.995	99.922	20.241	0.408	-0.014
10.000	112.671	79.998	19.995	99.925	20.242	0.323	-0.026
12.000	112.661	79.998	19.995	99.934	20.240	0.480	0.007
13.999	112.637	79.996	19.993	99.940	20.237	0.780	0.029
15.999	112.637	79.997	19.994	99.951	20.235	0.937	0.024
17.999	112.593	79.997	19.995	99.973	20.234	0.992	0.008
20.000	112.622	79.995	19.994	99.987	20.232	1.232	0.036
21.999	112.648	79.995	19.996	99.985	20.231	1.338	0.022
23.999	112.702	79.995	19.996	99.988	20.227	1.703	0.022
25.999	112.750	79.998	19.995	100.004	20.228	1.569	0.019
28.000	112.837	79.995	19.995	100.006	20.227	1.739	0.047
29.999	112.911	79.996	19.995	100.007	20.225	1.871	0.028
32.000	112.955	79.994	19.994	100.023	20.222	2.203	0.048
34.000	113.044	79.995	19.995	100.048	20.221	2.304	0.013
35.999	113.222	79.996	19.994	100.065	20.221	2.288	0.052
38.000	113.360	79.995	19.995	100.071	20.217	2.647	0.085
40.000	113.535	79.995	19.994	100.080	20.212	3.087	0.084
42.000	113.753	79.995	19.995	100.108	20.210	3.342	0.114
43.999	113.982	79.996	19.995	100.117	20.207	3.549	0.101
46.000	114.269	79.996	19.994	100.122	20.204	3.828	0.132
47.999	114.591	79.995	19.994	100.120	20.204	3.906	0.149
49.999	114.908	79.995	19.995	100.111	20.205	3.748	0.136
51.999	115.235	79.996	19.994	100.107	20.204	3.877	0.173
53.999	115.601	79.995	19.995	100.103	20.206	3.702	0.198
56.000	115.975	79.995	19.995	100.116	20.206	3.635	0.176
58.000	116.396	79.996	19.995	100.102	20.208	3.472	0.226
60.000	116.723	79.997	19.995	100.112	20.205	3.816	0.156
61.999	117.210	79.996	19.995	100.101	20.205	3.775	0.223
64.000	117.615	79.998	19.995	100.114	20.204	3.845	0.205
65.999	118.110	79.995	19.995	100.103	20.204	3.889	0.236
67.999	118.543	79.996	19.995	100.121	20.202	4.023	0.250
69.999	119.035	79.997	19.997	100.119	20.203	4.005	0.245
72.000	119.502	79.995	19.994	100.120	20.202	4.059	0.245
73.999	120.017	79.995	19.995	100.117	20.204	3.889	0.233
76.000	120.543	79.994	19.995	100.125	20.209	3.375	0.256
78.000	121.037	79.996	19.995	100.125	20.206	3.705	0.222
80.000	121.622	79.998	19.995	100.136	20.203	3.916	0.303
82.000	122.212	79.997	19.995	100.131	20.203	3.962	0.306
83.999	122.768	79.997	19.995	100.135	20.201	4.112	0.289
85.999	123.326	79.998	19.994	100.156	20.203	3.993	0.300
88.000	123.958	79.998	19.996	100.139	20.200	4.288	0.317
90.000	124.556	79.997	19.995	100.145	20.205	3.732	0.308
92.000	125.224	79.995	19.994	100.155	20.200	4.203	0.333
93.999	125.791	79.994	19.996	100.157	20.200	4.231	0.306
95.999	126.487	79.994	19.996	100.147	20.199	4.301	0.337
97.999	127.090	79.995	19.996	100.160	20.200	4.288	0.293
100.000	127.768	79.995	19.994	100.163	20.199	4.332	0.362
102.000	128.453	79.996	19.995	100.162	20.200	4.216	0.313
104.000	129.193	79.995	19.994	100.160	20.200	4.224	0.353
106.000	129.901	79.996	19.994	100.159	20.201	4.180	0.362
108.000	130.589	79.996	19.995	100.161	20.200	4.211	0.338
110.000	131.297	79.995	19.994	100.160	20.194	4.767	0.369
111.999	132.100	79.996	19.995	100.160	20.196	4.612	0.379
114.000	132.833	79.995	19.994	100.161	20.196	4.610	0.397
116.000	133.610	79.997	19.995	100.162	20.195	4.674	0.373
117.999	134.377	79.996	19.994	100.162	20.197	4.532	0.414
119.999	135.161	79.996	19.995	100.161	20.196	4.588	0.380
121.999	135.936	79.995	19.995	100.164	20.193	4.920	0.408
124.000	136.752	79.994	19.995	100.177	20.195	4.674	0.429
125.999	137.549	79.995	19.996	100.167	20.193	4.884	0.425
128.000	138.391	79.996	19.996	100.165	20.191	5.137	0.413
130.000	139.184	79.995	19.996	100.164	20.190	5.168	0.408
132.001	140.046	79.996	19.996	100.172	20.193	4.907	0.414
134.000	140.905	79.996	19.996	100.175	20.190	5.165	0.437
136.000	141.731	79.996	19.995	100.180	20.192	4.956	0.417
138.000	142.643	79.995	19.995	100.174	20.190	5.222	0.435
140.000	143.523	79.997	19.995	100.169	20.194	4.772	0.439
142.000	144.425	79.996	19.994	100.166	20.197	4.560	0.472
144.000	145.322	79.997	19.995	100.166	20.193	4.881	0.416
146.000	146.214	79.995	19.995	100.177	20.192	4.967	0.459
148.000	147.111	79.995	19.994	100.172	20.197	4.483	0.427
150.000	148.041	79.995	19.996	100.169	20.199	4.296	0.422
152.000	148.995	79.995	19.996	100.167	20.195	4.715	0.471
154.000	149.944	79.994	19.996	100.172	20.192	5.028	0.489
156.000	150.883	79.996	19.995	100.171	20.193	4.915	0.500
158.000	151.825	79.996	19.995	100.169	20.192	5.005	0.482
160.000	152.712	79.997	19.995	100.166	20.189	5.248	0.451
162.000	153.649	79.999	19.994	100.168	20.193	4.953	0.458
164.000	154.621	79.998	19.994	100.170	20.192	4.979	0.476
166.000	155.559	79.997	19.995	100.166	20.192	5.041	0.457
168.000	156.479	79.998	19.995	100.167	20.192	4.961	0.471
170.000	157.398	79.997	19.996	100.161	20.192	4.974	0.480
172.000	158.395	79.995	19.995	100.160	20.192	5.012	0.495
174.000	159.339	79.995	19.995	100.166	20.190	5.222	0.474
176.000	160.330	79.994	19.996	100.166	20.187	5.465	0.501
178.000	161.283	79.994	19.997	100.166	20.188	5.369	0.498
180.000	162.273	79.994	19.996	100.166	20.192	5.041	0.478
182.000	163.290	79.994	19.995	100.159	20.188	5.377	0.499
184.000	164.297	79.994	19.995	100.159	20.189	5.260	0.527
186.000	165.289	79.995	19.995	100.162	20.194	4.808	0.501
188.000	166.280	79.997	19.995	100.166	20.192	5.033	0.494
190.000	167.302	79.996	19.995	100.160	20.191	5.082	0.513
192.000	168.304	79.995	19.994	100.160	20.191	5.142	0.473
194.000	169.322	79.996	19.995	100.153	20.192	5.005	0.490
196.000	170.373	79.996	19.995	100.162	20.194	4.795	0.541
198.000	171.401	79.996	19.995	100.159	20.190	5.155	0.498
200.000	172.399	79.995	19.995	100.161	20.197	4.511	0.519
202.000	173.414	79.996	19.993	100.162	20.197	4.544	0.497
204.000	174.471	79.996	19.994	100.161	20.195	4.684	0.534
206.000	175.473	79.995	19.994	100.162	20.199	4.353	0.507
208.000	176.509	79.994	19.994	100.161	20.196	4.593	0.515
210.000	177.526	79.995	19.995	100.158	20.199	4.363	0.534
212.001	178.555	79.994	19.995	100.162	20.198	4.441	0.516
214.000	179.572	79.995	19.995	100.156	20.196	4.634	0.505
216.000	180.602	79.996	19.994	100.158	20.195	4.712	0.521
218.000	181.616	79.997	19.995	100.155	20.197	4.544	0.525
220.000	182.663	79.997	19.995	100.144	20.196	4.580	0.520
222.000	183.650	79.996	19.994	100.155	20.195	4.701	0.502
224.000	184.667	79.998	19.994	100.152	20.200	4.274	0.532
226.000	185.691	79.997	19.994	100.148	20.199	4.370	0.516
228.000	186.688	79.996	19.994	100.149	20.201	4.127	0.488
230.000	187.798	79.996	19.994	100.153	20.194	4.796	0.530
232.000	188.768	79.996	19.995	100.142	20.203	3.971	0.502
234.000	189.796	79.997	19.996	100.131	20.198	4.447	0.514
236.000	190.801	79.998	19.995	100.132	20.198	4.431	0.491
238.000	191.778	79.998	19.996	100.129	20.200	4.219	0.489
240.000	192.829	79.998	19.995	100.134	20.197	4.494	0.515
242.000	193.799	79.997	19.995	100.121	20.198	4.406	0.507
244.000	194.835	79.997	19.996	100.117	20.198	4.467	0.510
246.000	195.822	79.998	19.995	100.119	20.200	4.201	0.534
248.000	196.804	79.998	19.995	100.124	20.200	4.289	0.478
250.000	197.775	79.996	19.995	100.120	20.198	4.421	0.485
252.000	198.798	79.997	19.995	100.130	20.200	4.284	0.518
254.000	199.765	79.995	19.996	100.119	20.198	4.416	0.464
256.000	200.739	79.996	19.996	100.120	20.199	4.359	0.474
258.000	201.761	79.995	19.996	100.124	20.203	3.951	0.499
260.000	202.750	79.994	19.995	100.123	20.198	4.460	0.494
262.000	203.702	79.995	19.996	100.124	20.202	4.098	0.500
264.000	204.717	79.993	19.995	100.125	20.204	3.868	0.489
266.000	205.700	79.994	19.996	100.123	20.202	4.046	0.474
268.000	206.683	79.994	19.995	100.124	20.200	4.214	0.494
270.000	207.675	79.996	19.996	100.122	20.203	3.997	0.513
272.000	208.672	79.995	19.996	100.123	20.198	4.390	0.493
274.000	209.649	79.995	19.995	100.124	20.199	4.385	0.501
276.000	210.644	79.996	19.997	100.128	20.195	4.695	0.514
278.000	211.605	79.995	19.995	100.127	20.202	4.072	0.489
280.000	212.614	79.995	19.994	100.124	20.199	4.302	0.492
282.000	213.581	79.995	19.995	100.124	20.201	4.155	0.505
284.000	214.568	79.995	19.995	100.126	20.203	3.917	0.511
286.000	215.536	79.995	19.994	100.126	20.200	4.261	0.512
288.000	216.521	79.996	19.995	100.125	20.200	4.237	0.482
290.000	217.465	79.994	19.995	100.124	20.201	4.118	0.453
292.000	218.486	79.995	19.995	100.119	20.203	3.981	0.497
294.000	219.476	79.995	19.997	100.118	20.202	4.038	0.513
296.000	220.448	79.997	19.995	100.120	20.198	4.400	0.481
298.000	221.423	79.997	19.996	100.114	20.199	4.356	0.498
300.000	222.451	79.996	19.994	100.112	20.202	4.077	0.507
302.000	223.436	79.996	19.995	100.114	20.202	4.018	0.498
304.000	224.393	79.997	19.994	100.116	20.200	4.286	0.451
306.000	225.401	79.996	19.995	100.116	20.199	4.320	0.493
308.000	226.389	79.996	19.994	100.107	20.201	4.170	0.473
310.000	227.342	79.996	19.994	100.114	20.199	4.367	0.432
312.000	228.362	79.996	19.995	100.112	20.202	4.033	0.533
314.000	229.355	79.996	19.995	100.113	20.202	4.064	0.470
316.000	230.387	79.997	19.994	100.113	20.200	4.240	0.531
318.000	231.351	79.997	19.994	100.109	20.202	4.048	0.472
320.000	232.313	79.999	19.995	100.116	20.199	4.335	0.478
322.000	233.277	79.998	19.994	100.118	20.202	4.051	0.480
324.000	234.278	79.998	19.995	100.114	20.197	4.529	0.503
326.000	235.272	79.996	19.995	100.118	20.197	4.543	0.478
328.000	236.303	79.996	19.995	100.116	20.195	4.708	0.505
330.000	237.296	79.995	19.994	100.110	20.195	4.685	0.516
332.000	238.291	79.994	19.996	100.120	20.199	4.333	0.521
334.000	239.265	79.994	19.996	100.113	20.195	4.749	0.487
336.000	240.187	79.995	19.996	100.119	20.198	4.410	0.462
338.000	241.182	79.994	19.996	100.121	20.196	4.664	0.472
340.000	242.230	79.996	19.995	100.119	20.195	4.685	0.510
342.000	243.164	79.995	19.994	100.118	20.200	4.232	0.475
344.000	244.180	79.996	19.995	100.114	20.198	4.405	0.497
346.000	245.159	79.994	19.996	100.122	20.197	4.563	0.490
348.000	246.194	79.996	19.996	100.108	20.195	4.728	0.478
350.000	247.152	79.996	19.995	100.123	20.196	4.661	0.482
352.000	248.144	79.997	19.996	100.111	20.199	4.346	0.504
354.000	249.191	79.997	19.995	100.109	20.196	4.591	0.535
356.000	250.256	79.995	19.996	100.108	20.196	4.591	0.524
358.000	251.234	79.994	19.995	100.115	20.194	4.801	0.495
360.000	252.216	79.994	19.995	100.111	20.191	5.067	0.505
362.000	253.162	79.997	19.994	100.110	20.192	4.974	0.444
364.000	254.216	79.995	19.995	100.107	20.193	4.871	0.501
366.000	255.214	79.996	19.995	100.103	20.192	5.033	0.496
368.000	256.214	79.996	19.995	100.119	20.194	4.764	0.518
370.000	257.234	79.996	19.995	100.109	20.189	5.297	0.504
372.000	258.221	79.997	19.996	100.118	20.191	5.048	0.506
374.000	259.220	79.996	19.994	100.118	20.192	4.979	0.512
376.000	260.195	79.995	19.996	100.116	20.194	4.785	0.470
378.000	261.202	79.999	19.995	100.112	20.188	5.362	0.476
380.000	262.174	79.998	19.995	100.110	20.184	5.732	0.505
382.000	263.196	79.998	19.995	100.108	20.187	5.463	0.466
384.000	264.216	79.997	19.994	100.106	20.187	5.476	0.513
386.000	265.175	79.996	19.995	100.105	20.186	5.610	0.510
388.000	266.166	79.997	19.995	100.110	20.183	5.887	0.458
390.000	267.194	79.996	19.994	100.114	20.186	5.603	0.511
392.000	268.213	79.996	19.995	100.120	20.182	5.962	0.498
394.000	269.166	79.997	19.994	100.121	20.183	5.882	0.472
396.000	270.201	79.997	19.995	100.121	20.182	5.967	0.506
398.000	271.255	79.999	19.995	100.122	20.177	6.376	0.504
400.000	272.270	79.999	19.994	100.128	20.172	6.867	0.503
402.000	273.240	79.997	19.993	100.122	20.174	6.731	0.494
404.000	274.200	79.998	19.994	100.122	20.171	6.940	0.503
406.000	275.220	79.997	19.995	100.129	20.170	7.115	0.499
408.000	276.217	79.996	19.995	100.123	20.165	7.513	0.496
410.000	277.249	79.995	19.995	100.124	20.167	7.336	0.523
412.000	278.198	79.995	19.994	100.132	20.163	7.775	0.504
414.000	279.205	79.995	19.995	100.141	20.163	7.699	0.493
416.000	280.191	79.994	19.995	100.124	20.159	8.080	0.482
418.000	281.205	79.994	19.996	100.123	20.156	8.413	0.493
420.000	282.231	79.996	19.995	100.134	20.155	8.535	0.518
422.000	283.277	79.996	19.995	100.143	20.151	8.900	0.541
424.000	284.225	79.996	19.996	100.142	20.148	9.130	0.501
426.000	285.212	79.996	19.995	100.158	20.145	9.430	0.515
428.000	286.267	79.995	19.996	100.158	20.136	10.245	0.518
430.000	287.290	79.995	19.996	100.157	20.136	10.313	0.517
432.000	288.284	79.998	19.996	100.159	20.137	10.224	0.494
434.000	289.310	79.995	19.995	100.154	20.130	10.903	0.506
436.000	290.274	79.994	19.996	100.155	20.125	11.306	0.488
438.000	291.281	79.995	19.996	100.159	20.120	11.827	0.503
440.000	292.326	79.994	19.996	100.165	20.112	12.541	0.541
442.000	293.313	79.993	19.996	100.167	20.104	13.292	0.532
444.000	294.359	79.994	19.996	100.166	20.098	13.921	0.515
446.000	295.410	79.995	19.996	100.170	20.095	14.191	0.518
448.000	296.386	79.995	19.995	100.166	20.089	14.715	0.492
450.000	297.391	79.996	19.994	100.179	20.082	15.432	0.494
452.000	298.441	79.998	19.995	100.185	20.076	15.999	0.507
454.000	299.393	79.997	19.995	100.186	20.067	16.781	0.520
456.000	300.405	79.996	19.994	100.194	20.060	17.481	0.499
458.000	301.394	79.997	19.995	100.198	20.049	18.487	0.474
460.000	302.442	79.996	19.993	100.201	20.042	19.139	0.538
462.000	303.408	79.996	19.994	100.204	20.032	20.136	0.486
464.000	304.399	79.997	19.994	100.209	20.019	21.329	0.496
466.000	305.392	79.995	19.995	100.219	20.010	22.209	0.494
468.000	306.399	79.997	19.994	100.228	20.001	23.022	0.480
470.000	307.431	79.998	19.995	100.235	19.987	24.358	0.519
472.000	308.384	79.997	19.995	100.241	19.976	25.446	0.481
474.000	309.419	79.996	19.996	100.241	19.961	26.816	0.519
476.000	310.389	79.997	19.995	100.242	19.949	27.975	0.510
478.000	311.396	79.999	19.995	100.260	19.934	29.389	0.489
480.000	312.423	79.998	19.994	100.261	19.917	30.966	0.516
482.000	313.417	79.998	19.994	100.269	19.899	32.706	0.481
484.000	314.441	79.998	19.994	100.276	19.882	34.353	0.496
486.000	315.398	79.996	19.994	100.277	19.864	36.035	0.490
488.000	316.434	79.997	19.994	100.287	19.847	37.681	0.512
490.000	317.375	79.994	19.995	100.301	19.830	39.294	0.519
492.000	318.388	79.995	19.995	100.314	19.805	41.639	0.507
494.000	319.351	79.995	19.994	100.315	19.780	44.023	0.478
496.000	320.325	79.995	19.995	100.324	19.757	46.140	0.513
498.000	321.281	79.994	19.995	100.334	19.738	48.007	0.480
500.000	322.315	79.997	19.996	100.352	19.712	50.407	0.495
502.000	323.326	79.996	19.995	100.355	19.690	52.480	0.519
504.000	324.320	79.996	19.995	100.356	19.664	54.937	0.491
506.000	325.314	79.996	19.995	100.371	19.641	57.126	0.484
508.000	326.301	79.997	19.994	100.369	19.619	59.222	0.508
510.000	327.318	79.995	19.994	100.378	19.597	61.338	0.508
512.000	328.259	79.994	19.994	100.392	19.576	63.260	0.502
514.000	329.283	79.995	19.996	100.390	19.556	65.173	0.507
516.000	330.259	79.996	19.995	100.386	19.538	66.852	0.495
518.000	331.248	79.994	19.996	100.386	19.522	68.364	0.501
520.000	332.262	79.993	19.995	100.385	19.503	70.171	0.502
522.000	333.264	79.995	19.997	100.375	19.492	71.236	0.495
524.000	334.291	79.996	19.996	100.371	19.477	72.612	0.508
526.000	335.311	79.995	19.996	100.365	19.465	73.708	0.507
528.000	336.310	79.997	19.995	100.359	19.460	74.199	0.489
530.000	337.349	79.996	19.996	100.359	19.458	74.392	0.503
532.000	338.349	79.995	19.994	100.352	19.455	74.709	0.501
534.000	339.395	79.997	19.993	100.348	19.455	74.705	0.491
536.000	340.383	79.996	19.993	100.325	19.459	74.254	0.517
538.000	341.408	79.996	19.994	100.316	19.466	73.607	0.504
540.000	342.413	79.995	19.994	100.304	19.474	72.890	0.508
542.000	343.397	79.996	19.996	100.282	19.482	72.044	0.482
544.000	344.381	79.996	19.996	100.277	19.496	70.764	0.467
546.000	345.401	79.995	19.994	100.277	19.508	69.620	0.494
548.000	346.444	79.997	19.995	100.267	19.523	68.238	0.525
550.000	347.483	79.996	19.995	100.244	19.541	66.512	0.505
552.000	348.456	79.996	19.995	100.239	19.558	64.872	0.478
554.000	349.543	79.999	19.996	100.235	19.574	63.354	0.507
556.000	350.514	79.998	19.994	100.222	19.594	61.494	0.496
558.000	351.521	79.997	19.995	100.217	19.611	59.849	0.485
560.000	352.591	79.998	19.994	100.205	19.630	58.034	0.552
562.000	353.584	79.998	19.995	100.197	19.653	55.861	0.499
564.000	354.629	79.995	19.996	100.193	19.674	53.906	0.489
566.001	355.608	79.996	19.995	100.179	19.693	52.095	0.505
568.000	356.651	79.995	19.995	100.167	19.716	49.957	0.509
570.000	357.678	79.995	19.995	100.162	19.739	47.737	0.519
572.000	358.678	79.998	19.995	100.154	19.760	45.806	0.516
574.000	359.686	79.995	19.995	100.152	19.786	43.326	0.495
576.000	360.681	79.995	19.994	100.141	19.811	40.981	0.521
578.000	361.741	79.996	19.994	100.133	19.833	38.843	0.497
580.000	362.722	79.996	19.994	100.124	19.853	36.971	0.518
582.000	363.719	79.996	19.995	100.121	19.877	34.672	0.495
584.000	364.753	79.995	19.995	100.122	19.904	32.209	0.482
586.000	365.744	79.996	19.995	100.100	19.924	30.248	0.512
588.000	366.763	79.996	19.996	100.113	19.950	27.806	0.498
590.000	367.729	79.997	19.995	100.095	19.971	25.855	0.509
592.000	368.772	79.996	19.995	100.085	19.990	24.091	0.518
594.000	369.795	79.994	19.995	100.090	20.012	21.966	0.491
596.000	370.754	79.996	19.995	100.085	20.034	19.893	0.494
598.000	371.744	79.994	19.995	100.084	20.044	18.920	0.493
600.000	372.804	79.994	19.995	100.076	20.062	17.223	0.507
602.000	373.805	79.996	19.996	100.078	20.079	15.642	0.512
604.000	374.828	79.997	19.996	100.080	20.092	14.450	0.508
606.000	375.817	79.998	19.995	100.072	20.111	12.606	0.516
608.000	376.809	79.997	19.996	100.060	20.119	11.887	0.526
610.000	377.824	79.997	19.997	100.074	20.125	11.299	0.478
612.000	378.811	79.997	19.996	100.071	20.138	10.045	0.479
614.000	379.793	79.997	19.996	100.076	20.148	9.133	0.529
616.000	380.804	79.997	19.995	100.065	20.155	8.458	0.494
618.000	381.778	79.995	19.994	100.056	20.158	8.205	0.497
620.000	382.796	79.997	19.996	100.077	20.159	8.132	0.492
622.000	383.802	79.996	19.995	100.074	20.164	7.595	0.464
624.000	384.822	79.996	19.995	100.065	20.167	7.365	0.520
626.000	385.803	79.997	19.994	100.060	20.168	7.214	0.499
628.000	386.806	79.998	19.995	100.073	20.171	6.985	0.505
630.000	387.821	79.997	19.994	100.078	20.173	6.822	0.509
632.000	388.818	79.999	19.994	100.071	20.172	6.846	0.468
634.000	389.806	79.998	19.993	100.077	20.172	6.892	0.502
636.000	390.850	79.998	19.995	100.070	20.171	6.944	0.525
638.000	391.853	79.997	19.995	100.071	20.169	7.173	0.497
640.000	392.849	79.997	19.995	100.081	20.175	6.556	0.498
642.000	393.951	79.996	19.995	100.072	20.172	6.874	0.522
644.000	394.923	79.996	19.993	100.077	20.176	6.463	0.513
646.000	395.965	79.995	19.994	100.081	20.170	7.045	0.475
648.000	396.996	79.995	19.995	100.075	20.179	6.249	0.515
650.000	398.008	79.996	19.994	100.067	20.168	7.271	0.511
652.000	399.042	79.995	19.993	100.080	20.168	7.216	0.512
654.000	400.055	79.996	19.995	100.078	20.176	6.530	0.516
656.000	401.048	79.997	19.993	100.076	20.172	6.885	0.535
658.000	402.121	79.994	19.993	100.080	20.176	6.480	0.543
660.000	403.140	79.995	19.994	100.071	20.176	6.540	0.467
662.000	404.321	79.996	19.994	100.077	20.174	6.680	0.609
664.000	404.806	79.996	19.996	100.081	20.179	6.210	0.272
666.000	405.882	79.996	19.995	100.060	20.181	6.067	0.428
668.000	407.167	79.996	19.996	100.056	20.177	6.442	0.736
670.000	408.290	79.996	19.995	100.065	20.174	6.672	0.500
672.000	409.309	79.996	19.996	100.063	20.179	6.235	0.573
674.000	410.396	79.995	19.996	100.072	20.180	6.114	0.527
676.000	411.295	79.994	19.996	100.067	20.179	6.223	0.542
678.000	412.378	79.996	19.996	100.059	20.175	6.568	0.496
680.000	413.383	79.996	19.996	100.073	20.174	6.734	0.503
682.000	414.383	79.997	19.996	100.067	20.180	6.152	0.456
684.000	415.404	79.997	19.995	100.071	20.175	6.578	0.518
686.000	416.478	79.996	19.995	100.074	20.177	6.443	0.546
688.000	417.540	79.998	19.995	100.068	20.176	6.522	0.562
690.000	418.562	79.998	19.995	100.062	20.179	6.248	0.500
692.000	419.629	79.997	19.996	100.068	20.173	6.752	0.548
694.000	420.668	79.996	19.995	100.056	20.174	6.694	0.558
696.000	421.724	79.995	19.996	100.071	20.172	6.892	0.520
698.000	422.743	79.996	19.995	100.075	20.174	6.674	0.524
700.000	423.781	79.996	19.996	100.058	20.175	6.640	0.503
702.000	424.866	79.995	19.995	100.068	20.174	6.697	0.542
704.000	425.873	79.995	19.997	100.057	20.172	6.926	0.513
706.000	426.925	79.998	19.994	100.063	20.176	6.512	0.525
708.000	427.973	79.999	19.995	100.063	20.177	6.394	0.551
710.000	428.997	79.997	19.994	100.061	20.171	7.003	0.512
712.000	430.046	79.999	19.993	100.052	20.174	6.674	0.505
714.000	431.055	79.999	19.993	100.069	20.175	6.629	0.517
716.000	432.106	79.998	19.995	100.079	20.175	6.630	0.529
718.000	433.148	79.996	19.993	100.077	20.175	6.570	0.510
720.000	434.187	79.996	19.995	100.079	20.171	6.945	0.506
722.000	435.246	79.995	19.995	100.057	20.173	6.774	0.514
724.000	436.281	79.994	19.995	100.048	20.171	7.006	0.537
726.000	437.292	79.997	19.996	100.052	20.174	6.707	0.550
728.000	438.322	79.995	19.995	100.049	20.173	6.743	0.521
730.000	439.334	79.997	19.995	100.051	20.174	6.678	0.506
732.000	440.349	79.996	19.995	100.062	20.172	6.862	0.511
734.000	441.339	79.997	19.995	100.044	20.179	6.263	0.507
736.000	442.366	79.997	19.995	100.049	20.181	6.059	0.499
738.000	443.342	79.996	19.994	100.054	20.179	6.178	0.487
740.000	444.348	79.997	19.995	100.046	20.180	6.164	0.498
742.000	445.347	79.996	19.992	100.046	20.183	5.841	0.482
744.000	446.322	79.997	19.994	100.057	20.183	5.878	0.469
746.000	447.325	79.996	19.993	100.054	20.180	6.144	0.517
748.000	448.341	79.996	19.994	100.060	20.187	5.510	0.539
750.000	449.355	79.997	19.995	100.054	20.185	5.691	0.505
752.000	450.359	79.997	19.995	100.042	20.179	6.180	0.492
754.000	451.409	79.997	19.995	100.046	20.182	5.940	0.509
756.000	452.394	79.995	19.996	100.052	20.181	6.007	0.477
758.000	453.424	79.996	19.996	100.046	20.186	5.544	0.503
760.000	454.420	79.998	19.996	100.043	20.186	5.596	0.490
762.000	455.439	79.997	19.995	100.044	20.182	5.926	0.521
764.000	456.427	79.998	19.996	100.055	20.183	5.875	0.475
766.000	457.457	79.995	19.994	100.049	20.184	5.764	0.489
768.000	458.448	79.999	19.994	100.050	20.181	6.001	0.484
770.000	459.508	79.999	19.995	100.047	20.185	5.697	0.512
772.000	460.486	79.999	19.995	100.044	20.184	5.730	0.480
774.000	461.486	79.998	19.995	100.044	20.185	5.668	0.520
776.000	462.504	79.997	19.995	100.044	20.182	5.962	0.488
778.000	463.507	79.996	19.995	100.045	20.180	6.117	0.487
780.000	464.489	79.997	19.996	100.045	20.188	5.353	0.511
782.000	465.500	79.995	19.995	100.050	20.185	5.637	0.518
784.000	466.501	79.996	19.996	100.048	20.187	5.484	0.530
786.000	467.493	79.998	19.997	100.046	20.189	5.316	0.473
788.000	468.509	79.998	19.995	100.042	20.191	5.079	0.487
790.000	469.470	79.999	19.996	100.040	20.184	5.740	0.482
792.000	470.498	79.998	19.994	100.039	20.188	5.415	0.494
794.000	471.532	79.999	19.996	100.041	20.193	4.903	0.485
796.000	472.518	79.997	19.995	100.037	20.192	4.955	0.517
798.000	473.520	79.998	19.994	100.044	20.195	4.748	0.478
800.000	474.576	79.997	19.995	100.043	20.195	4.689	0.513
802.000	475.621	79.998	19.995	100.042	20.194	4.823	0.527
804.000	476.608	79.995	19.995	100.043	20.196	4.593	0.515
806.000	477.645	79.997	19.994	100.043	20.195	4.727	0.534
808.000	478.706	79.997	19.995	100.042	20.195	4.668	0.538
810.000	479.676	79.994	19.996	100.042	20.194	4.805	0.486
812.000	480.743	79.995	19.994	100.043	20.193	4.914	0.537
814.000	481.742	79.999	19.995	100.041	20.199	4.332	0.524
816.000	482.730	79.996	19.996	100.041	20.200	4.270	0.506
818.000	483.717	79.998	19.995	100.040	20.195	4.668	0.489
820.000	484.778	79.997	19.994	100.040	20.199	4.309	0.490
822.000	485.801	79.997	19.994	100.042	20.199	4.293	0.541
824.000	486.831	79.996	19.994	100.042	20.199	4.309	0.504
826.000	487.775	79.997	19.994	100.042	20.201	4.167	0.472
828.000	488.841	79.996	19.995	100.044	20.199	4.288	0.490
830.000	489.840	79.994	19.995	100.034	20.205	3.816	0.530
832.000	490.844	79.995	19.994	100.040	20.201	4.159	0.512
834.000	491.860	79.996	19.994	100.039	20.207	3.612	0.529
836.000	492.890	79.996	19.995	100.046	20.202	4.077	0.525
838.000	493.925	79.996	19.994	100.045	20.206	3.720	0.499
840.000	494.978	79.998	19.994	100.045	20.204	3.893	0.530
842.000	495.974	79.995	19.995	100.045	20.204	3.844	0.489
844.000	496.964	79.998	19.995	100.042	20.207	3.586	0.487
846.000	498.019	79.997	19.995	100.049	20.204	3.898	0.529
848.000	499.010	79.996	19.995	100.046	20.202	4.079	0.491
850.000	500.068	79.997	19.994	100.044	20.201	4.105	0.528
852.000	501.048	79.995	19.996	100.046	20.207	3.586	0.510
854.000	502.061	79.996	19.995	100.041	20.207	3.537	0.501
856.000	503.073	79.997	19.995	100.041	20.207	3.567	0.490
858.000	504.115	79.997	19.995	100.040	20.212	3.115	0.547
860.000	505.098	79.998	19.994	100.040	20.205	3.743	0.518
862.000	506.130	79.999	19.995	100.040	20.207	3.578	0.518
864.000	507.167	79.997	19.995	100.042	20.202	4.012	0.512
866.000	508.200	80.001	19.995	100.039	20.203	3.999	0.533
868.000	509.207	79.999	19.995	100.038	20.205	3.754	0.506
870.000	510.282	79.999	19.994	100.038	20.207	3.580	0.522
872.000	511.259	79.998	19.996	100.037	20.209	3.376	0.497
874.000	512.263	79.999	19.995	100.038	20.208	3.503	0.490
876.000	513.272	79.997	19.996	100.034	20.205	3.811	0.494
878.000	514.325	79.996	19.995	100.037	20.206	3.705	0.524
880.000	515.367	79.998	19.995	100.041	20.207	3.550	0.515
882.000	516.448	79.997	19.995	100.040	20.211	3.232	0.566
884.000	517.489	79.996	19.996	100.041	20.207	3.555	0.551
886.000	518.520	79.997	19.996	100.042	20.211	3.185	0.510
888.000	519.584	79.997	19.994	100.043	20.210	3.320	0.538
890.000	520.612	79.996	19.994	100.044	20.205	3.730	0.523
892.000	521.669	79.998	19.993	100.037	20.208	3.477	0.506
894.000	522.676	80.000	19.996	100.040	20.209	3.418	0.526
896.000	523.776	79.996	19.995	100.043	20.211	3.232	0.552
898.000	524.862	79.995	19.995	100.046	20.207	3.617	0.526
900.000	525.887	79.996	19.996	100.042	20.208	3.454	0.497
902.000	526.939	79.997	19.995	100.043	20.210	3.283	0.524
904.000	528.016	79.996	19.995	100.045	20.207	3.606	0.528
906.000	529.028	79.996	19.995	100.047	20.207	3.621	0.514
908.000	530.154	79.994	19.994	100.046	20.210	3.322	0.546
910.000	531.198	79.997	19.996	100.046	20.204	3.883	0.519
912.000	532.233	79.997	19.995	100.044	20.211	3.167	0.531
914.000	533.278	79.997	19.994	100.040	20.203	3.960	0.533
916.000	534.313	79.997	19.995	100.035	20.206	3.702	0.513
918.000	535.401	79.998	19.995	100.032	20.204	3.821	0.513
920.000	536.433	79.997	19.994	100.040	20.208	3.498	0.528
922.000	537.436	79.999	19.995	100.039	20.208	3.456	0.501
924.000	538.470	80.001	19.994	100.040	20.208	3.521	0.505
926.000	539.515	79.999	19.995	100.042	20.211	3.193	0.516
928.000	540.535	79.999	19.995	100.040	20.206	3.673	0.527
930.000	541.572	79.996	19.995	100.040	20.209	3.412	0.534
932.000	542.574	79.996	19.995	100.040	20.208	3.462	0.485
934.000	543.621	79.997	19.995	100.039	20.211	3.242	0.536
936.000	544.624	79.996	19.995	100.040	20.208	3.511	0.498
938.000	545.649	80.000	19.995	100.040	20.207	3.578	0.537
940.000	546.627	79.997	19.995	100.037	20.208	3.464	0.499
942.000	547.653	79.998	19.994	100.038	20.212	3.134	0.477
944.000	548.713	80.000	19.995	100.037	20.208	3.485	0.528
946.000	549.723	79.999	19.994	100.040	20.213	2.999	0.515
948.000	550.745	80.000	19.995	100.040	20.209	3.426	0.522
950.000	551.718	79.997	19.995	100.041	20.207	3.542	0.503
952.000	552.747	79.997	19.995	100.039	20.211	3.221	0.522
954.000	553.761	79.998	19.995	100.042	20.210	3.283	0.523
956.000	554.808	79.996	19.997	100.043	20.208	3.487	0.531
958.000	555.836	79.992	19.995	100.042	20.211	3.170	0.498
960.000	556.860	79.995	19.997	100.043	20.208	3.503	0.537
962.000	557.831	79.996	19.996	100.043	20.210	3.312	0.510
964.000	558.860	79.995	19.994	100.043	20.206	3.640	0.504
966.000	559.864	79.996	19.996	100.038	20.206	3.681	0.493
968.000	560.874	79.996	19.996	100.043	20.206	3.632	0.512
970.000	561.929	79.996	19.995	100.043	20.202	4.082	0.506
972.000	562.912	79.995	19.994	100.046	20.207	3.560	0.495
974.000	563.918	79.996	19.995	100.045	20.205	3.797	0.503
976.000	564.914	79.996	19.995	100.042	20.210	3.260	0.491
978.000	565.900	79.997	19.994	100.038	20.215	2.847	0.513
980.000	566.960	79.997	19.995	100.039	20.207	3.557	0.517
982.000	567.903	79.996	19.995	100.042	20.211	3.198	0.497
984.000	568.922	79.996	19.994	100.041	20.211	3.172	0.489
986.000	569.920	79.995	19.995	100.041	20.212	3.092	0.499
988.000	570.969	79.996	19.994	100.041	20.208	3.516	0.502
990.000	571.979	79.996	19.996	100.037	20.211	3.216	0.492
992.000	573.013	79.996	19.996	100.034	20.209	3.412	0.507
994.000	574.093	79.998	19.995	100.041	20.208	3.521	0.546
996.000	575.122	79.998	19.995	100.030	20.211	3.239	0.540
998.000	576.140	79.999	19.994	100.039	20.212	3.139	0.511
1000.000	577.151	79.998	19.995	100.036	20.209	3.387	0.517
1002.000	578.170	79.999	19.994	100.020	20.210	3.278	0.477
1004.000	579.169	80.002	19.996	100.032	20.211	3.219	0.500
1006.000	580.169	79.999	19.995	100.038	20.210	3.343	0.481
1008.000	581.181	79.997	19.994	100.040	20.212	3.144	0.472
1010.000	582.182	79.997	19.995	100.042	20.212	3.131	0.499
1012.000	583.166	79.997	19.995	100.037	20.214	2.937	0.470
1014.000	584.156	79.997	19.994	100.043	20.210	3.252	0.489
1016.000	585.235	79.996	19.996	100.043	20.211	3.183	0.517
1018.000	586.238	79.997	19.996	100.043	20.214	2.927	0.505
1020.000	587.234	79.998	19.994	100.042	20.214	2.875	0.517
1022.000	588.266	79.999	19.995	100.044	20.213	3.017	0.503
1024.000	589.281	80.000	19.995	100.043	20.212	3.085	0.492
1026.000	590.292	79.997	19.995	100.041	20.212	3.128	0.492
1027.999	591.282	79.999	19.995	100.043	20.211	3.170	0.490
1029.999	592.294	80.001	19.994	100.037	20.210	3.309	0.477
1032.000	593.334	79.996	19.996	100.043	20.213	2.979	0.513
1033.999	594.376	79.996	19.996	100.038	20.210	3.320	0.511
1035.999	595.392	79.999	19.995	100.042	20.209	3.407	0.493
1038.000	596.425	79.999	19.996	100.042	20.210	3.252	0.501
1040.000	597.439	79.996	19.995	100.038	20.214	2.896	0.510
1042.000	598.457	79.996	19.995	100.037	20.218	2.576	0.490
1043.999	599.484	79.996	19.996	100.040	20.214	2.888	0.513
1045.999	600.516	79.997	19.996	100.039	20.212	3.090	0.526
1047.999	601.573	79.996	19.995	100.038	20.215	2.805	0.516
1050.000	602.563	79.998	19.996	100.039	20.219	2.457	0.503
1052.000	603.615	79.997	19.996	100.037	20.214	2.901	0.516
1053.999	604.626	79.996	19.995	100.039	20.219	2.449	0.523
1055.999	605.631	79.995	19.995	100.038	20.213	3.004	0.517
1057.999	606.671	79.999	19.995	100.034	20.212	3.064	0.511
1059.999	607.686	79.997	19.994	100.040	20.217	2.609	0.495
1061.999	608.704	79.995	19.994	100.038	20.214	2.919	0.496
1063.999	609.749	79.996	19.995	100.037	20.213	2.984	0.516
1066.000	610.714	79.996	19.995	100.044	20.216	2.744	0.511
1067.999	611.739	79.997	19.996	100.036	20.215	2.780	0.527
1070.001	612.755	79.997	19.995	100.040	20.214	2.919	0.515
1072.000	613.798	79.997	19.994	100.041	20.211	3.175	0.516
1073.999	614.792	79.995	19.994	100.041	20.215	2.823	0.518
1076.000	615.813	79.998	19.994	100.045	20.214	2.935	0.497
1078.000	616.816	79.998	19.994	100.043	20.214	2.875	0.503
1079.999	617.804	79.998	19.994	100.042	20.211	3.185	0.474
1081.999	618.827	79.998	19.994	100.040	20.215	2.790	0.510
1084.000	619.864	79.998	19.995	100.029	20.209	3.395	0.488
1085.999	620.860	79.998	19.994	100.044	20.213	3.028	0.492
1088.000	621.835	79.998	19.994	100.037	20.215	2.837	0.467
1089.999	622.869	79.997	19.993	100.046	20.215	2.852	0.503
1091.999	623.879	79.997	19.994	100.043	20.211	3.157	0.498
1093.999	624.885	79.997	19.995	100.036	20.214	2.885	0.515
1096.000	625.877	79.998	19.995	100.046	20.218	2.498	0.523
1097.999	626.854	79.999	19.995	100.041	20.215	2.854	0.523
1100.000	627.892	79.998	19.995	100.044	20.217	2.671	0.501
1101.999	628.952	80.000	19.995	100.036	20.218	2.524	0.524
1103.999	629.883	79.999	19.996	100.036	20.213	2.978	0.471
1105.999	630.901	80.000	19.996	100.027	20.211	3.206	0.495
1107.999	631.927	79.999	19.996	100.024	20.211	3.162	0.512
1109.999	632.934	79.998	19.996	100.035	20.216	2.702	0.499
1111.999	633.962	79.997	19.995	100.030	20.214	2.937	0.490
1113.999	635.000	79.996	19.994	100.032	20.213	2.989	0.517
1115.999	636.031	79.997	19.996	100.030	20.217	2.656	0.521
1117.999	637.024	79.996	19.996	100.034	20.213	3.012	0.497
1120.000	638.002	79.997	19.996	100.035	20.215	2.847	0.498
1121.999	639.039	79.996	19.995	100.038	20.215	2.803	0.490
1124.000	640.077	79.996	19.995	100.040	20.214	2.917	0.516
1126.000	641.124	79.997	19.995	100.039	20.216	2.769	0.502
1128.000	642.144	79.996	19.997	100.039	20.216	2.754	0.503
1130.000	643.160	79.997	19.997	100.036	20.210	3.317	0.493
1131.999	644.207	79.996	19.996	100.035	20.212	3.151	0.523
1134.000	645.233	79.997	19.997	100.039	20.211	3.219	0.528
1135.999	646.291	79.997	19.997	100.035	20.213	3.007	0.538
1137.999	647.312	79.995	19.995	100.032	20.213	2.994	0.522
1139.999	648.379	79.999	19.997	100.041	20.213	2.989	0.514
1142.000	649.399	79.998	19.997	100.038	20.210	3.262	0.509
1144.000	650.445	79.995	19.995	100.030	20.212	3.118	0.515
1145.999	651.478	79.996	19.994	100.036	20.211	3.164	0.517
1147.999	652.523	79.996	19.995	100.041	20.213	2.971	0.527
1149.999	653.534	79.996	19.994	100.041	20.214	2.880	0.523
1152.000	654.655	79.998	19.995	100.031	20.214	2.953	0.524
1154.000	655.641	79.996	19.995	100.036	20.209	3.404	0.533
1155.999	656.671	79.993	19.994	100.037	20.211	3.234	0.421
1157.999	657.732	79.997	19.995	100.035	20.214	2.916	0.506
1159.999	658.730	79.998	19.994	100.033	20.209	3.358	0.481
1161.999	659.800	79.998	19.995	100.037	20.211	3.245	0.496
1163.999	660.802	80.000	19.995	100.029	20.213	3.053	0.502
1166.000	661.852	79.996	19.996	100.036	20.215	2.844	0.472
1168.000	662.901	79.997	19.994	100.039	20.213	2.994	0.513
1169.999	663.908	79.997	19.995	100.033	20.216	2.746	0.519
1172.000	664.940	79.995	19.994	100.037	20.217	2.632	0.526
1173.999	665.957	79.998	19.994	100.034	20.219	2.420	0.496
1175.999	666.985	79.997	19.994	100.026	20.214	2.955	0.532
1178.000	668.027	80.001	19.995	100.025	20.215	2.816	0.538
1180.000	669.013	80.000	19.996	100.028	20.217	2.668	0.493
1181.999	670.039	80.001	19.993	100.024	20.214	2.890	0.532
1184.000	671.088	79.997	19.994	100.032	20.216	2.740	0.494
1186.000	672.064	79.996	19.994	100.030	20.216	2.689	0.492
1188.000	673.080	79.998	19.996	100.034	20.213	3.037	0.487
1189.999	674.114	79.999	19.997	100.033	20.209	3.353	0.522
1192.000	675.145	79.997	19.996	100.008	20.212	3.138	0.508
1194.000	676.147	79.997	19.996	100.019	20.211	3.213	0.516
1196.000	677.188	79.996	19.996	100.020	20.214	2.952	0.540
1198.000	678.175	79.996	19.996	100.027	20.210	3.281	0.464
1200.000	679.163	79.996	19.995	100.020	20.211	3.169	0.489
1202.000	680.141	79.997	19.994	100.035	20.213	3.017	0.511
1203.999	681.137	79.999	19.995	100.021	20.208	3.518	0.507
1205.999	682.138	79.998	19.995	100.021	20.208	3.508	0.516
1207.999	683.154	79.996	19.996	100.029	20.207	3.614	0.505
1210.000	684.131	79.996	19.994	100.033	20.210	3.257	0.522
1211.999	685.103	79.996	19.995	100.028	20.211	3.180	0.474
1213.999	686.112	79.996	19.997	100.028	20.210	3.260	0.512
1216.000	687.117	79.996	19.997	100.026	20.207	3.557	0.498
1217.999	688.038	79.998	19.998	100.033	20.213	3.015	0.473
1219.999	689.032	79.994	19.996	100.021	20.215	2.826	0.520
1222.000	690.033	79.995	19.996	100.019	20.211	3.200	0.484
1223.999	691.031	79.996	19.996	100.033	20.214	2.949	0.498
1225.999	691.990	79.997	19.996	100.021	20.211	3.231	0.499
1227.999	693.010	79.999	19.996	100.035	20.215	2.808	0.477
1230.000	694.024	79.997	19.995	100.039	20.215	2.852	0.514
1231.999	695.067	79.999	19.994	100.035	20.216	2.715	0.509
1234.000	696.061	79.998	19.995	100.020	20.214	2.880	0.535
1235.999	697.065	79.998	19.995	100.010	20.213	3.009	0.489
1238.000	698.062	79.996	19.995	100.031	20.214	2.965	0.507
1240.000	699.040	79.995	19.996	100.018	20.210	3.332	0.498
1241.999	700.029	79.999	19.994	100.036	20.214	2.944	0.511
1243.999	700.988	79.999	19.996	100.024	20.214	2.914	0.485
1245.999	702.032	79.998	19.996	100.023	20.211	3.213	0.493
1248.000	703.003	79.998	19.995	100.026	20.215	2.862	0.495
1250.000	704.060	79.997	19.995	100.028	20.215	2.862	0.527
1252.000	705.061	79.998	19.995	100.013	20.215	2.803	0.494
1253.999	706.053	79.999	19.995	100.034	20.213	3.040	0.487
1256.000	707.039	79.998	19.995	100.024	20.212	3.095	0.509
1258.000	708.064	79.999	19.994	100.037	20.212	3.149	0.484
1260.000	709.077	80.000	19.995	100.038	20.212	3.113	0.514
1261.999	710.089	80.002	19.996	100.039	20.212	3.094	0.503
1263.999	711.168	79.999	19.995	100.038	20.211	3.170	0.541
1266.000	712.184	79.997	19.995	100.034	20.213	3.007	0.523
1268.000	713.205	79.997	19.995	100.038	20.211	3.165	0.528
1270.001	714.195	79.994	19.994	100.041	20.209	3.420	0.480
1271.999	715.236	79.996	19.994	100.033	20.209	3.368	0.528
1273.999	716.275	79.996	19.995	100.028	20.206	3.645	0.537
1276.000	717.291	79.993	19.995	100.039	20.209	3.407	0.520
1277.999	718.308	79.995	19.996	100.035	20.207	3.564	0.504
1280.000	719.337	79.995	19.996	100.038	20.218	2.588	0.518
1281.999	720.372	79.996	19.996	100.022	20.212	3.141	0.522
1284.000	721.361	79.995	19.995	100.039	20.217	2.606	0.524
1285.999	722.375	79.996	19.995	100.026	20.210	3.304	0.468
1287.999	723.379	79.995	19.994	100.020	20.209	3.407	0.515
1290.000	724.434	79.996	19.995	100.021	20.211	3.197	0.513
1292.000	725.416	79.992	19.994	100.024	20.206	3.699	0.493
1293.999	726.437	79.997	19.997	100.018	20.211	3.234	0.534
1295.999	727.495	79.998	19.995	100.032	20.215	2.800	0.533
1298.000	728.483	79.996	19.996	100.026	20.212	3.113	0.486
1300.000	729.459	79.995	19.996	100.020	20.206	3.640	0.478
1302.000	730.506	79.996	19.996	100.024	20.207	3.591	0.519
1304.000	731.559	79.995	19.996	100.023	20.208	3.449	0.507
1306.000	732.618	79.998	19.996	100.033	20.209	3.399	0.529
1307.999	733.540	79.996	19.996	100.040	20.208	3.475	0.490
1310.000	734.605	79.997	19.996	100.034	20.207	3.588	0.508
1311.999	735.579	79.998	19.995	100.039	20.210	3.306	0.463
1313.999	736.566	79.998	19.995	100.038	20.211	3.180	0.490
1315.999	737.543	79.999	19.996	100.034	20.208	3.495	0.486
1317.999	738.584	79.997	19.995	100.034	20.206	3.702	0.514
1320.000	739.591	79.996	19.995	100.042	20.204	3.887	0.501
1321.999	740.589	79.997	19.996	100.033	20.208	3.477	0.503
1324.000	741.617	79.996	19.996	100.037	20.207	3.557	0.517
1325.999	742.595	79.997	19.995	100.037	20.210	3.291	0.478
1327.999	743.632	79.996	19.994	100.038	20.207	3.549	0.535