File: 01_Data/Cotton_Ball/MCC/Cotton_Ball_MCC_30K_min_210708_R2.txt
Sample ID:	C:\MCC\MCC Cal\Test\Cotton_Ball\Cotton_Ball_MCC_30K_min_21_07_08_R2.txt
Sample Weight (mg):	3.11
Heating Rate (C/s):	0.5
Combustor Temp (C):	900
N2 Flow Rate (cc/min):	80
O2 Flow Rate (cc/min):	20
Calibration File:	C:\MCC\MCC Cal\Coeff1 JN10440_30_210304.txt.txt
T Correction Coefficients:	0	1.024463	0
Time Shift (s):	14
*
Time (s)	Temperature (C)	N2 flow rate (cc/min)	O2 flow rate (cc/min)	Flow Rate (cc/min)	Oxygen (%)	HRR (W/g)	Heating rate (C/s)
0.000	111.411	79.995	19.995	99.954	20.184	-0.005	0.024
2.000	111.383	79.995	19.996	99.952	20.183	0.126	0.028
4.000	111.356	79.996	19.995	99.946	20.185	-0.025	0.001
6.000	111.361	79.996	19.996	99.950	20.183	0.096	0.011
8.001	111.341	79.997	19.996	99.934	20.180	0.412	-0.007
10.001	111.310	79.998	19.995	99.947	20.184	0.060	-0.045
12.000	111.314	79.998	19.995	99.956	20.180	0.475	-0.019
14.000	111.336	79.998	19.994	99.952	20.184	0.033	0.021
16.000	111.294	79.997	19.995	99.958	20.180	0.462	-0.010
18.000	111.267	79.996	19.994	99.960	20.179	0.545	0.005
20.000	111.295	79.997	19.995	99.969	20.180	0.440	0.004
22.001	111.285	79.995	19.995	99.985	20.178	0.647	-0.001
24.000	111.300	79.995	19.995	100.005	20.171	1.312	0.007
26.001	111.326	79.994	19.995	100.024	20.171	1.310	-0.004
28.000	111.362	79.994	19.996	100.048	20.164	1.997	-0.009
30.000	111.465	79.993	19.996	100.082	20.161	2.384	0.062
32.000	111.577	79.994	19.997	100.118	20.158	2.614	0.052
34.000	111.761	79.995	19.996	100.133	20.155	2.978	0.080
36.001	111.927	79.994	19.995	100.068	20.152	3.256	0.132
38.000	112.104	79.994	19.995	100.195	20.151	3.319	0.098
40.001	112.351	79.994	19.995	100.167	20.148	3.603	0.126
42.000	112.687	79.994	19.995	100.145	20.150	3.418	0.141
44.000	112.980	79.995	19.994	100.129	20.147	3.770	0.142
46.000	113.325	79.994	19.994	100.134	20.147	3.757	0.150
48.000	113.676	79.993	19.994	100.140	20.147	3.713	0.179
50.000	114.015	79.994	19.995	100.142	20.148	3.675	0.177
52.001	114.440	79.993	19.995	100.131	20.144	4.069	0.223
54.000	114.810	79.996	19.995	100.131	20.143	4.183	0.170
56.001	115.222	79.995	19.995	100.142	20.140	4.477	0.217
58.000	115.663	79.995	19.995	100.159	20.140	4.477	0.232
60.001	116.134	79.995	19.995	100.160	20.141	4.366	0.224
62.000	116.595	79.997	19.995	100.164	20.135	4.969	0.261
64.000	117.121	79.998	19.994	100.179	20.134	5.040	0.265
66.000	117.649	79.997	19.995	100.177	20.135	4.944	0.284
68.001	118.124	79.996	19.995	100.179	20.132	5.288	0.271
70.001	118.688	79.996	19.994	100.166	20.136	4.806	0.235
72.000	119.338	79.997	19.995	100.165	20.134	5.018	0.338
74.001	119.958	79.996	19.994	100.163	20.140	4.492	0.335
76.000	120.542	79.996	19.995	100.161	20.134	5.032	0.337
78.001	121.093	79.998	19.994	100.160	20.136	4.855	0.314
80.000	121.777	79.996	19.994	100.157	20.139	4.589	0.335
82.001	122.436	79.996	19.996	100.159	20.141	4.355	0.321
84.000	123.110	79.996	19.994	100.159	20.142	4.294	0.345
86.000	123.832	79.997	19.995	100.159	20.143	4.121	0.321
88.000	124.494	79.998	19.995	100.149	20.138	4.677	0.356
90.001	125.135	79.998	19.995	100.158	20.142	4.270	0.361
92.001	125.802	79.998	19.996	100.161	20.143	4.171	0.294
94.000	126.624	79.997	19.994	100.162	20.143	4.195	0.390
96.001	127.277	79.998	19.995	100.161	20.145	3.983	0.337
98.001	127.978	79.998	19.995	100.159	20.140	4.407	0.361
100.001	128.710	79.994	19.995	100.168	20.141	4.330	0.352
102.001	129.414	79.995	19.995	100.164	20.144	4.044	0.349
104.000	130.184	79.995	19.995	100.164	20.140	4.404	0.345
106.001	130.902	79.995	19.995	100.164	20.142	4.242	0.350
108.001	131.706	79.994	19.996	100.163	20.138	4.606	0.385
110.000	132.476	79.995	19.996	100.155	20.137	4.740	0.394
112.000	133.213	79.994	19.996	100.164	20.140	4.407	0.400
114.000	133.978	79.995	19.995	100.164	20.134	5.040	0.395
116.001	134.766	79.995	19.997	100.161	20.138	4.683	0.385
118.000	135.531	79.996	19.996	100.162	20.137	4.762	0.380
120.000	136.322	79.995	19.996	100.170	20.137	4.737	0.397
122.000	137.090	79.996	19.995	100.160	20.137	4.757	0.415
124.001	137.874	79.995	19.996	100.160	20.136	4.870	0.398
126.000	138.685	79.996	19.997	100.166	20.135	4.974	0.404
128.000	139.454	79.997	19.995	100.167	20.135	4.905	0.414
130.000	140.289	79.995	19.995	100.159	20.135	4.963	0.406
132.000	141.104	79.996	19.994	100.161	20.133	5.195	0.402
134.000	141.964	79.995	19.996	100.162	20.129	5.572	0.426
136.000	142.811	79.995	19.996	100.164	20.133	5.137	0.425
138.000	143.651	79.997	19.994	100.162	20.132	5.236	0.405
140.000	144.505	79.996	19.995	100.161	20.130	5.503	0.462
142.000	145.351	79.997	19.995	100.164	20.130	5.487	0.415
144.000	146.189	79.996	19.995	100.162	20.129	5.580	0.401
146.000	147.066	79.996	19.995	100.168	20.131	5.393	0.411
148.000	147.929	79.997	19.995	100.161	20.131	5.393	0.392
150.000	148.800	79.998	19.995	100.162	20.127	5.715	0.452
152.000	149.709	79.997	19.995	100.178	20.128	5.690	0.440
154.001	150.557	79.996	19.994	100.169	20.127	5.800	0.408
156.000	151.469	79.997	19.995	100.166	20.127	5.752	0.446
158.000	152.318	79.996	19.995	100.171	20.127	5.749	0.439
160.000	153.244	79.996	19.995	100.171	20.128	5.608	0.435
162.000	154.082	79.996	19.995	100.170	20.127	5.734	0.385
164.000	155.029	79.998	19.994	100.164	20.127	5.778	0.466
166.000	155.892	79.997	19.993	100.169	20.130	5.503	0.448
168.001	156.766	79.998	19.995	100.191	20.130	5.415	0.428
170.000	157.705	79.997	19.995	100.177	20.130	5.442	0.455
172.000	158.643	79.999	19.994	100.166	20.129	5.511	0.470
174.000	159.545	79.997	19.994	100.163	20.129	5.588	0.436
176.000	160.480	79.997	19.994	100.165	20.129	5.553	0.452
178.000	161.375	79.998	19.995	100.161	20.131	5.398	0.434
180.000	162.369	79.995	19.995	100.161	20.132	5.296	0.472
182.000	163.280	79.995	19.995	100.158	20.131	5.379	0.489
184.001	164.226	79.996	19.996	100.159	20.132	5.217	0.478
186.000	165.163	79.996	19.995	100.165	20.134	5.098	0.468
188.001	166.157	79.996	19.995	100.165	20.132	5.239	0.457
190.000	167.115	79.996	19.995	100.160	20.135	4.916	0.473
192.000	168.092	79.996	19.995	100.166	20.135	4.952	0.487
194.000	169.038	79.996	19.995	100.165	20.134	5.098	0.467
196.000	170.014	79.996	19.995	100.160	20.132	5.205	0.480
198.000	170.989	79.995	19.995	100.169	20.133	5.115	0.469
200.000	171.978	79.996	19.995	100.166	20.134	5.099	0.494
202.000	172.941	79.996	19.995	100.158	20.132	5.274	0.507
204.000	173.906	79.996	19.996	100.160	20.136	4.815	0.476
206.000	174.887	79.996	19.995	100.158	20.137	4.768	0.481
208.000	175.820	79.995	19.996	100.160	20.138	4.630	0.452
210.000	176.835	79.994	19.996	100.164	20.137	4.757	0.495
212.000	177.813	79.995	19.996	100.166	20.135	4.980	0.492
214.000	178.824	79.994	19.997	100.164	20.136	4.892	0.511
216.000	179.799	79.996	19.995	100.168	20.136	4.864	0.506
218.000	180.832	79.993	19.994	100.169	20.136	4.889	0.524
220.000	181.814	79.995	19.995	100.166	20.133	5.159	0.502
222.000	182.853	79.995	19.995	100.167	20.136	4.878	0.535
224.000	183.863	79.998	19.996	100.163	20.136	4.881	0.493
226.000	184.867	79.997	19.994	100.161	20.138	4.666	0.508
228.000	185.926	79.997	19.995	100.157	20.134	5.078	0.534
230.000	186.950	79.997	19.994	100.160	20.139	4.567	0.518
232.000	187.929	79.996	19.995	100.163	20.135	4.919	0.507
234.000	188.945	79.996	19.994	100.163	20.135	4.985	0.514
236.000	189.963	79.997	19.996	100.161	20.139	4.542	0.532
238.000	190.987	79.997	19.994	100.157	20.137	4.768	0.511
240.000	192.055	79.996	19.995	100.151	20.143	4.129	0.538
242.000	193.000	79.998	19.994	100.163	20.135	4.935	0.501
244.000	194.029	79.999	19.995	100.158	20.137	4.726	0.519
246.001	195.039	79.997	19.995	100.155	20.139	4.563	0.500
248.000	196.045	79.999	19.995	100.157	20.137	4.753	0.504
250.000	197.042	79.999	19.994	100.156	20.139	4.594	0.514
252.000	198.025	79.998	19.994	100.140	20.140	4.450	0.475
254.000	199.046	79.998	19.994	100.148	20.137	4.736	0.492
256.000	200.034	79.998	19.994	100.133	20.140	4.481	0.479
258.000	201.020	79.997	19.995	100.135	20.139	4.560	0.510
260.000	202.056	79.996	19.994	100.141	20.138	4.626	0.508
262.000	203.070	79.995	19.994	100.139	20.137	4.706	0.533
264.001	204.052	79.995	19.996	100.142	20.139	4.579	0.477
266.000	205.029	79.997	19.996	100.136	20.138	4.667	0.494
268.000	206.030	79.996	19.996	100.134	20.137	4.788	0.493
270.000	207.012	79.994	19.995	100.138	20.141	4.398	0.492
272.001	208.023	79.997	19.995	100.129	20.140	4.433	0.523
274.000	209.053	79.995	19.995	100.125	20.137	4.723	0.493
276.000	210.042	79.996	19.996	100.128	20.141	4.376	0.513
278.000	211.061	79.995	19.996	100.122	20.140	4.447	0.510
280.000	212.065	79.997	19.994	100.139	20.138	4.642	0.514
282.000	213.010	79.996	19.995	100.133	20.140	4.430	0.480
284.000	214.017	79.994	19.995	100.128	20.140	4.491	0.493
286.000	215.001	79.995	19.996	100.140	20.143	4.158	0.483
288.000	215.993	79.998	19.995	100.128	20.139	4.590	0.488
290.000	216.985	79.995	19.995	100.124	20.141	4.315	0.495
292.000	218.016	79.996	19.997	100.127	20.138	4.639	0.521
294.000	218.977	79.995	19.996	100.126	20.140	4.408	0.500
296.000	219.963	79.992	19.995	100.123	20.136	4.821	0.478
298.001	220.968	79.994	19.995	100.124	20.140	4.466	0.494
300.000	221.958	79.995	19.995	100.128	20.139	4.546	0.501
302.000	222.919	79.996	19.996	100.123	20.137	4.744	0.480
304.000	223.913	79.996	19.995	100.124	20.139	4.576	0.476
306.000	224.924	79.995	19.994	100.122	20.137	4.749	0.490
308.000	225.919	79.998	19.995	100.121	20.139	4.593	0.514
310.000	226.878	79.997	19.994	100.121	20.137	4.722	0.495
312.000	227.900	79.994	19.994	100.124	20.138	4.670	0.528
314.000	228.875	79.997	19.995	100.125	20.137	4.730	0.515
316.001	229.849	79.997	19.994	100.122	20.135	4.977	0.500
318.000	230.839	79.994	19.995	100.126	20.138	4.648	0.491
320.000	231.818	79.997	19.995	100.125	20.138	4.626	0.485
322.000	232.789	79.995	19.995	100.121	20.135	4.917	0.504
324.000	233.762	79.996	19.995	100.125	20.138	4.700	0.490
326.000	234.733	79.995	19.995	100.066	20.135	4.978	0.457
328.000	235.752	79.997	19.995	100.128	20.139	4.557	0.499
330.000	236.717	79.997	19.995	100.202	20.137	4.785	0.497
332.000	237.696	79.999	19.995	100.123	20.136	4.882	0.508
334.000	238.718	80.000	19.994	100.130	20.136	4.857	0.512
336.000	239.653	79.999	19.995	100.120	20.135	4.970	0.488
338.000	240.617	79.998	19.994	100.131	20.135	4.959	0.499
340.000	241.570	79.997	19.993	100.125	20.131	5.393	0.472
342.000	242.575	79.997	19.994	100.126	20.133	5.127	0.493
344.000	243.569	79.997	19.995	100.137	20.132	5.231	0.482
346.000	244.568	79.997	19.995	100.131	20.133	5.140	0.519
348.000	245.565	79.995	19.994	100.128	20.135	4.998	0.531
350.000	246.529	79.995	19.996	100.129	20.128	5.626	0.474
352.000	247.524	79.994	19.994	100.126	20.129	5.590	0.534
354.000	248.516	79.995	19.995	100.129	20.126	5.831	0.514
356.000	249.563	79.997	19.995	100.129	20.129	5.584	0.519
358.000	250.563	79.996	19.996	100.134	20.127	5.728	0.489
360.000	251.596	79.993	19.995	100.143	20.130	5.477	0.486
362.000	252.593	79.997	19.995	100.144	20.129	5.595	0.533
364.000	253.618	79.997	19.994	100.128	20.124	6.063	0.511
366.000	254.602	79.997	19.995	100.130	20.126	5.838	0.525
368.000	255.649	79.996	19.994	100.137	20.124	6.018	0.508
370.000	256.627	79.995	19.995	100.150	20.125	5.963	0.510
372.000	257.692	79.994	19.995	100.142	20.121	6.313	0.553
374.000	258.683	79.995	19.996	100.125	20.117	6.728	0.505
376.000	259.717	79.994	19.995	100.152	20.116	6.842	0.510
378.000	260.726	79.992	19.996	100.130	20.116	6.855	0.526
380.000	261.741	79.996	19.996	100.124	20.117	6.766	0.496
382.000	262.732	79.994	19.995	100.137	20.117	6.773	0.495
384.000	263.774	79.997	19.996	100.126	20.115	6.974	0.522
386.000	264.740	79.996	19.996	100.133	20.114	7.103	0.492
388.000	265.724	79.997	19.995	100.135	20.109	7.541	0.506
390.000	266.761	79.995	19.996	100.144	20.112	7.278	0.504
392.000	267.760	79.997	19.995	100.147	20.108	7.713	0.537
394.000	268.791	79.996	19.994	100.139	20.105	7.989	0.507
396.000	269.818	79.996	19.994	100.141	20.105	7.991	0.490
398.000	270.829	79.995	19.995	100.136	20.100	8.487	0.496
400.001	271.876	79.995	19.994	100.142	20.098	8.627	0.523
402.000	272.864	79.997	19.994	100.159	20.095	8.949	0.485
404.000	273.856	79.997	19.995	100.160	20.091	9.390	0.491
406.001	274.907	79.996	19.994	100.162	20.092	9.274	0.514
408.000	275.853	79.998	19.994	100.159	20.088	9.706	0.478
410.000	276.909	80.000	19.994	100.160	20.087	9.797	0.518
412.000	277.913	79.998	19.994	100.161	20.083	10.227	0.509
414.000	278.879	79.997	19.995	100.161	20.079	10.605	0.511
416.000	279.845	79.997	19.994	100.160	20.074	11.114	0.500
418.001	280.847	79.996	19.994	100.159	20.074	11.087	0.477
420.000	281.857	79.994	19.995	100.162	20.063	12.146	0.491
422.000	282.875	79.995	19.994	100.162	20.063	12.214	0.507
424.000	283.869	79.995	19.995	100.166	20.058	12.715	0.515
426.000	284.867	79.995	19.994	100.175	20.053	13.222	0.502
428.000	285.837	79.994	19.995	100.170	20.050	13.486	0.498
430.000	286.863	79.995	19.994	100.181	20.041	14.360	0.499
432.000	287.860	79.995	19.995	100.192	20.040	14.479	0.523
434.000	288.852	79.995	19.995	100.177	20.033	15.187	0.506
436.000	289.805	79.994	19.994	100.172	20.028	15.752	0.498
438.000	290.835	79.997	19.996	100.193	20.019	16.611	0.516
440.000	291.816	79.996	19.997	100.183	20.012	17.270	0.493
442.000	292.842	79.997	19.995	100.199	20.004	18.085	0.494
444.001	293.827	79.995	19.996	100.199	19.997	18.839	0.508
446.000	294.764	79.995	19.996	100.198	19.996	18.938	0.459
448.000	295.740	79.996	19.996	100.203	19.982	20.378	0.458
450.000	296.761	79.995	19.995	100.200	19.976	20.940	0.500
452.000	297.744	79.996	19.996	100.212	19.967	21.895	0.504
454.000	298.741	79.996	19.996	100.217	19.957	22.887	0.501
456.001	299.723	79.995	19.996	100.210	19.947	23.905	0.505
458.000	300.706	79.994	19.995	100.226	19.939	24.650	0.511
460.000	301.691	79.998	19.996	100.238	19.930	25.627	0.487
462.000	302.688	79.996	19.996	100.237	19.920	26.601	0.500
464.000	303.667	79.997	19.995	100.236	19.903	28.342	0.504
466.001	304.654	79.996	19.996	100.237	19.889	29.700	0.510
468.000	305.643	79.997	19.996	100.255	19.876	31.030	0.505
470.000	306.716	79.996	19.993	100.271	19.861	32.530	0.534
472.000	307.657	79.996	19.996	100.278	19.842	34.420	0.494
474.000	308.649	79.996	19.995	100.278	19.825	36.131	0.519
476.000	309.681	79.992	19.996	100.278	19.809	37.734	0.507
478.000	310.665	79.997	19.995	100.287	19.792	39.538	0.504
480.000	311.642	79.998	19.995	100.294	19.776	41.106	0.496
482.001	312.721	79.997	19.995	100.318	19.756	43.149	0.540
484.000	313.688	79.996	19.995	100.324	19.735	45.212	0.489
486.000	314.682	79.997	19.994	100.336	19.709	47.806	0.515
488.000	315.668	79.996	19.994	100.357	19.691	49.676	0.481
490.000	316.682	79.996	19.993	100.356	19.670	51.784	0.508
492.000	317.690	80.000	19.995	100.354	19.643	54.537	0.524
494.000	318.712	79.999	19.996	100.355	19.619	56.955	0.501
496.000	319.704	79.997	19.995	100.355	19.606	58.202	0.505
498.000	320.730	79.997	19.995	100.356	19.584	60.466	0.485
500.000	321.746	79.997	19.994	100.360	19.561	62.726	0.532
502.000	322.711	79.995	19.996	100.380	19.543	64.581	0.478
504.000	323.701	79.995	19.996	100.390	19.526	66.272	0.506
506.000	324.676	79.998	19.995	100.385	19.506	68.317	0.481
508.000	325.709	79.996	19.995	100.377	19.493	69.657	0.516
510.000	326.623	79.997	19.994	100.389	19.475	71.388	0.468
512.000	327.675	79.996	19.995	100.381	19.463	72.661	0.509
514.000	328.701	79.996	19.993	100.394	19.449	74.045	0.491
516.000	329.720	79.998	19.994	100.397	19.436	75.308	0.505
518.001	330.756	79.996	19.995	100.387	19.423	76.594	0.500
520.000	331.761	79.996	19.995	100.368	19.408	78.153	0.523
522.000	332.770	79.996	19.995	100.356	19.409	78.044	0.486
524.000	333.732	79.996	19.996	100.356	19.403	78.596	0.501
526.000	334.815	79.993	19.995	100.348	19.405	78.441	0.532
528.001	335.769	79.995	19.995	100.343	19.401	78.765	0.515
530.000	336.850	79.997	19.996	100.346	19.405	78.349	0.552
532.000	337.850	79.996	19.996	100.340	19.407	78.153	0.522
534.000	338.632	79.993	19.996	100.324	19.412	77.663	0.283
536.000	339.635	79.995	19.996	100.314	19.426	76.298	0.500
538.000	340.737	79.994	19.995	100.279	19.443	74.571	0.523
540.000	341.845	79.997	19.996	100.247	19.461	72.744	0.624
542.000	342.846	79.995	19.995	100.245	19.481	70.774	0.527
544.000	343.863	79.998	19.996	100.251	19.501	68.683	0.484
546.000	344.900	79.998	19.995	100.257	19.519	66.861	0.566
548.000	345.928	79.995	19.995	100.257	19.536	65.128	0.562
550.000	346.895	79.996	19.997	100.241	19.557	63.060	0.516
552.000	347.912	79.996	19.995	100.241	19.575	61.215	0.481
554.000	348.983	79.996	19.997	100.241	19.591	59.644	0.537
556.000	349.979	79.997	19.995	100.219	19.614	57.293	0.504
558.000	350.961	79.996	19.995	100.189	19.634	55.330	0.480
560.000	352.040	79.995	19.997	100.166	19.657	52.996	0.519
562.000	353.042	79.997	19.996	100.169	19.685	50.140	0.504
564.000	354.106	79.998	19.996	100.171	19.704	48.253	0.533
566.000	355.109	79.997	19.995	100.157	19.729	45.721	0.511
568.000	356.124	79.999	19.996	100.155	19.755	43.151	0.497
570.000	357.203	80.000	19.995	100.153	19.778	40.759	0.508
572.000	358.247	79.999	19.995	100.146	19.802	38.348	0.495
574.000	359.238	79.999	19.994	100.129	19.824	36.232	0.512
576.000	360.299	79.998	19.994	100.124	19.844	34.177	0.533
578.000	361.299	79.999	19.994	100.119	19.864	32.139	0.521
580.000	362.249	79.997	19.996	100.112	19.885	30.027	0.488
582.000	363.310	79.995	19.995	100.114	19.906	27.913	0.475
584.000	364.325	79.995	19.995	100.116	19.925	26.045	0.508
586.000	365.336	79.998	19.996	100.103	19.948	23.680	0.496
588.000	366.396	79.995	19.995	100.098	19.964	22.118	0.501
590.000	367.415	79.996	19.995	100.084	19.982	20.308	0.529
592.000	368.419	79.997	19.995	100.087	20.001	18.432	0.511
594.000	369.498	79.996	19.995	100.082	20.017	16.782	0.534
596.000	370.487	79.998	19.996	100.082	20.024	16.061	0.496
598.000	371.537	79.998	19.995	100.082	20.042	14.333	0.564
600.000	372.596	79.996	19.995	100.084	20.047	13.819	0.550
602.000	373.611	79.998	19.994	100.085	20.065	11.941	0.518
604.001	374.694	79.997	19.994	100.083	20.076	10.898	0.513
606.000	375.702	79.997	19.995	100.084	20.085	10.001	0.481
608.000	376.769	79.998	19.994	100.083	20.085	9.992	0.513
610.000	377.785	79.997	19.995	100.084	20.094	9.017	0.529
612.000	378.824	79.994	19.994	100.088	20.097	8.741	0.483
614.000	379.833	79.995	19.995	100.087	20.100	8.425	0.503
616.001	380.903	79.998	19.996	100.081	20.105	7.927	0.528
618.000	381.922	79.995	19.996	100.070	20.109	7.522	0.499
620.001	382.962	79.996	19.996	100.078	20.113	7.157	0.505
622.000	383.969	79.996	19.995	100.084	20.116	6.887	0.518
624.000	385.035	79.997	19.996	100.083	20.114	7.108	0.522
626.000	386.028	79.999	19.995	100.080	20.112	7.309	0.497
628.000	387.020	79.999	19.994	100.079	20.114	7.064	0.497
630.000	388.082	79.996	19.994	100.075	20.114	7.053	0.538
632.000	389.070	79.998	19.995	100.080	20.114	7.052	0.508
634.001	390.108	79.995	19.995	100.081	20.118	6.621	0.506
636.000	391.101	79.997	19.995	100.098	20.117	6.724	0.484
638.000	392.133	79.997	19.997	100.095	20.122	6.238	0.500
640.000	393.139	79.998	19.996	100.096	20.119	6.510	0.508
642.000	394.193	79.998	19.996	100.090	20.117	6.747	0.538
644.000	395.152	79.997	19.996	100.057	20.118	6.675	0.481
646.000	396.236	79.997	19.996	100.051	20.115	6.950	0.503
648.000	397.256	79.998	19.997	100.068	20.115	6.932	0.499
650.000	398.269	79.998	19.995	100.083	20.115	6.934	0.514
652.000	399.272	80.000	19.997	100.076	20.117	6.714	0.541
654.000	400.241	80.001	19.996	100.080	20.119	6.541	0.480
656.000	401.227	80.000	19.994	100.077	20.118	6.636	0.504
658.000	402.208	79.997	19.995	100.089	20.121	6.400	0.481
660.000	403.261	79.997	19.995	100.094	20.124	6.059	0.507
662.000	404.207	79.996	19.994	100.080	20.121	6.400	0.494
664.000	405.239	79.996	19.995	100.061	20.117	6.736	0.511
666.000	406.247	79.997	19.995	100.049	20.116	6.822	0.494
668.000	407.265	79.997	19.995	100.061	20.120	6.411	0.502
670.000	408.264	79.996	19.994	100.076	20.118	6.656	0.486
672.000	409.281	79.997	19.994	100.063	20.116	6.864	0.496
674.000	410.320	79.996	19.995	100.087	20.114	7.083	0.535
676.000	411.310	79.996	19.994	100.063	20.119	6.559	0.498
678.000	412.310	79.995	19.995	100.046	20.116	6.838	0.465
680.000	413.332	79.996	19.994	100.099	20.116	6.857	0.503
682.000	414.336	79.997	19.995	100.126	20.118	6.699	0.512
684.000	415.309	79.996	19.995	100.147	20.123	6.169	0.514
686.000	416.325	79.997	19.995	100.077	20.117	6.747	0.502
688.000	417.359	79.994	19.994	100.049	20.122	6.299	0.527
690.000	418.409	79.998	19.995	100.045	20.116	6.880	0.528
692.000	419.369	79.996	19.994	100.041	20.118	6.667	0.487
694.000	420.412	79.996	19.994	100.074	20.116	6.835	0.516
696.000	421.432	79.995	19.996	100.050	20.115	6.962	0.490
698.000	422.441	79.995	19.995	100.040	20.115	6.928	0.504
700.000	423.463	79.996	19.995	100.042	20.113	7.141	0.538
702.000	424.488	79.998	19.996	100.067	20.118	6.619	0.504
704.000	425.532	79.998	19.995	100.075	20.117	6.717	0.526
706.000	426.534	79.998	19.996	100.089	20.119	6.547	0.515
708.000	427.528	79.997	19.995	100.073	20.118	6.649	0.483
710.000	428.558	79.998	19.995	100.059	20.121	6.329	0.501
712.000	429.575	79.997	19.995	100.045	20.120	6.435	0.502
714.000	430.614	79.996	19.995	100.053	20.118	6.699	0.485
716.000	431.636	79.997	19.995	100.042	20.117	6.727	0.523
718.000	432.677	79.997	19.995	100.045	20.122	6.228	0.529
720.000	433.693	79.996	19.995	100.068	20.117	6.765	0.550
722.000	434.717	79.997	19.995	100.079	20.125	5.924	0.518
724.000	435.777	79.996	19.995	100.056	20.116	6.853	0.503
726.001	436.795	79.997	19.995	100.077	20.121	6.321	0.523
728.000	437.797	79.999	19.996	100.055	20.112	7.275	0.496
730.000	438.850	79.997	19.995	100.038	20.113	7.152	0.520
732.000	439.832	79.998	19.996	100.009	20.115	6.978	0.531
734.000	440.852	79.995	19.994	100.038	20.118	6.615	0.512
736.000	441.859	79.997	19.995	100.081	20.120	6.443	0.502
738.000	442.821	79.994	19.995	100.089	20.120	6.463	0.514
740.000	443.829	79.994	19.996	100.054	20.120	6.479	0.514
742.000	444.781	79.993	19.996	100.042	20.118	6.659	0.472
744.000	445.820	79.995	19.995	100.080	20.122	6.274	0.502
746.000	446.810	79.996	19.995	100.072	20.121	6.340	0.491
748.000	447.845	79.996	19.995	100.066	20.121	6.314	0.511
750.000	448.868	79.997	19.996	100.060	20.122	6.296	0.519
752.000	449.878	79.997	19.995	100.055	20.124	6.019	0.526
754.000	450.837	79.995	19.995	100.038	20.122	6.294	0.519
756.000	451.887	79.995	19.995	100.058	20.127	5.756	0.545
758.000	452.894	79.996	19.995	100.073	20.120	6.435	0.529
760.000	453.878	79.997	19.995	100.046	20.122	6.234	0.494
762.000	454.921	79.996	19.994	100.037	20.125	5.935	0.507
764.001	455.957	79.996	19.996	100.045	20.124	6.065	0.507
766.000	456.988	79.997	19.995	100.060	20.124	6.085	0.490
768.000	457.985	79.995	19.996	100.070	20.127	5.753	0.493
770.001	459.039	79.995	19.996	100.040	20.126	5.865	0.534
772.000	460.041	79.994	19.994	100.072	20.123	6.192	0.523
774.000	461.082	79.997	19.996	100.045	20.127	5.763	0.521
776.000	462.097	79.996	19.995	100.040	20.128	5.678	0.518
778.000	463.135	79.996	19.996	100.061	20.131	5.320	0.532
780.000	464.144	79.997	19.994	100.047	20.131	5.334	0.526
782.000	465.149	79.996	19.995	100.053	20.133	5.134	0.511
784.000	466.159	79.996	19.996	100.045	20.133	5.114	0.506
786.000	467.190	79.998	19.994	100.050	20.129	5.502	0.509
788.000	468.215	79.997	19.995	100.039	20.134	5.070	0.517
790.000	469.267	79.997	19.994	100.044	20.136	4.858	0.494
792.000	470.323	79.997	19.995	100.045	20.132	5.213	0.501
794.000	471.353	79.996	19.996	100.042	20.133	5.139	0.518
796.001	472.357	79.996	19.997	100.048	20.138	4.633	0.488
798.000	473.419	79.996	19.995	100.054	20.136	4.847	0.512
800.000	474.458	79.996	19.995	100.046	20.136	4.867	0.523
802.000	475.530	79.995	19.996	100.043	20.134	5.007	0.526
804.000	476.534	79.997	19.995	100.043	20.134	5.012	0.539
806.000	477.556	79.997	19.994	100.044	20.137	4.699	0.545
808.000	478.575	79.997	19.994	100.045	20.136	4.818	0.503
810.000	479.617	79.999	19.995	100.043	20.136	4.869	0.528
812.000	480.628	79.997	19.995	100.048	20.138	4.630	0.509
814.000	481.639	79.997	19.996	100.045	20.137	4.737	0.519
816.000	482.629	79.998	19.995	100.043	20.139	4.525	0.486
818.000	483.595	79.996	19.995	100.052	20.141	4.366	0.487
820.000	484.619	79.996	19.998	100.047	20.139	4.512	0.475
822.000	485.633	79.995	19.995	100.043	20.144	4.042	0.477
824.000	486.670	79.995	19.996	100.041	20.143	4.149	0.505
826.000	487.687	79.995	19.997	100.034	20.139	4.589	0.512
828.000	488.684	79.994	19.996	100.023	20.138	4.680	0.481
830.000	489.709	79.995	19.996	100.033	20.142	4.232	0.499
832.000	490.736	79.995	19.995	100.037	20.139	4.561	0.517
834.000	491.721	79.996	19.996	100.039	20.140	4.451	0.527
836.000	492.800	79.996	19.996	100.039	20.139	4.537	0.553
838.001	493.771	79.998	19.995	100.053	20.143	4.138	0.489
840.000	494.837	79.996	19.995	100.058	20.143	4.100	0.497
842.000	495.828	79.995	19.994	100.045	20.143	4.141	0.504
844.000	496.853	79.996	19.996	100.020	20.143	4.179	0.514
846.000	497.863	79.996	19.995	100.043	20.146	3.819	0.495
848.000	498.888	79.997	19.995	100.049	20.143	4.113	0.488
850.000	499.930	79.995	19.995	100.047	20.144	4.001	0.516
852.000	500.947	79.996	19.996	100.054	20.147	3.756	0.530
854.000	501.988	79.995	19.996	100.046	20.146	3.863	0.531
856.000	503.008	79.993	19.995	100.042	20.148	3.602	0.501
858.000	504.013	79.996	19.995	100.045	20.149	3.580	0.511
860.000	505.059	79.996	19.996	100.042	20.153	3.136	0.524
862.000	506.083	79.996	19.994	100.043	20.152	3.260	0.511
864.000	507.101	79.997	19.995	100.042	20.151	3.365	0.519
866.000	508.092	79.997	19.994	100.042	20.148	3.626	0.485
868.000	509.123	79.996	19.994	100.046	20.149	3.570	0.501
870.000	510.205	79.996	19.994	100.024	20.149	3.502	0.540
872.000	511.223	79.997	19.995	100.029	20.153	3.156	0.507
874.001	512.220	79.996	19.995	100.018	20.151	3.376	0.496
876.001	513.233	79.997	19.995	100.033	20.152	3.197	0.510
878.000	514.231	79.997	19.996	100.015	20.155	2.942	0.495
880.000	515.293	79.997	19.995	100.015	20.155	2.960	0.530
882.000	516.312	79.998	19.996	100.027	20.153	3.141	0.487
884.000	517.335	79.997	19.995	100.042	20.154	3.089	0.481
886.000	518.327	79.999	19.997	100.034	20.154	2.994	0.487
888.000	519.395	79.997	19.995	100.018	20.154	3.000	0.500
890.000	520.441	79.999	19.995	100.010	20.154	3.063	0.562
892.000	521.438	79.998	19.995	99.989	20.161	2.334	0.536
894.000	522.450	79.998	19.996	100.105	20.156	2.879	0.520
896.000	523.470	79.996	19.996	100.049	20.158	2.600	0.474
898.000	524.505	79.996	19.996	100.052	20.160	2.463	0.500
900.000	525.547	79.996	19.995	100.052	20.162	2.270	0.515
902.000	526.563	79.995	19.995	100.047	20.159	2.523	0.513
904.000	527.582	79.995	19.996	100.032	20.157	2.782	0.504
906.000	528.621	79.995	19.997	100.034	20.164	2.007	0.526
908.000	529.636	79.995	19.996	100.013	20.164	2.023	0.500
910.000	530.678	79.993	19.996	100.004	20.158	2.590	0.525
912.000	531.695	79.996	19.997	100.014	20.161	2.334	0.484
914.000	532.744	79.995	19.996	100.013	20.158	2.644	0.492
916.000	533.793	79.995	19.996	100.015	20.156	2.835	0.506
918.000	534.792	79.995	19.995	100.009	20.157	2.724	0.509
920.000	535.882	79.994	19.995	100.017	20.162	2.191	0.523
922.000	536.943	79.995	19.995	100.027	20.160	2.430	0.525
924.000	537.961	79.995	19.995	100.009	20.161	2.295	0.542
926.000	539.004	79.996	19.995	100.026	20.159	2.556	0.522
928.000	539.998	79.994	19.995	100.031	20.163	2.097	0.496
930.000	541.024	79.995	19.995	100.021	20.165	1.930	0.511
932.000	542.077	79.993	19.995	100.033	20.160	2.400	0.524
934.000	543.113	79.995	19.995	100.018	20.169	1.487	0.526
936.000	544.105	79.996	19.995	100.016	20.169	1.556	0.487
938.000	545.159	79.996	19.996	100.024	20.164	2.061	0.510
940.000	546.207	79.996	19.994	100.023	20.161	2.291	0.515
942.000	547.198	79.999	19.995	100.016	20.168	1.595	0.494
944.000	548.281	79.997	19.995	100.018	20.163	2.087	0.538
946.000	549.305	79.997	19.995	100.014	20.166	1.798	0.526
948.000	550.316	79.998	19.995	100.018	20.162	2.224	0.522
950.000	551.330	79.997	19.996	99.952	20.162	2.237	0.488
952.000	552.340	79.998	19.995	100.023	20.165	1.896	0.502
954.000	553.385	79.997	19.995	100.096	20.164	2.042	0.503
956.000	554.453	79.998	19.995	100.024	20.168	1.682	0.532
958.000	555.495	79.997	19.994	100.012	20.174	1.067	0.534
960.000	556.559	79.997	19.994	100.007	20.171	1.350	0.525
962.000	557.586	79.999	19.996	100.010	20.170	1.468	0.517
964.000	558.628	79.999	19.995	100.015	20.167	1.696	0.522
966.000	559.653	79.998	19.995	100.016	20.169	1.523	0.502
968.000	560.667	79.999	19.996	100.009	20.166	1.787	0.497
970.000	561.765	79.999	19.995	100.026	20.171	1.364	0.533
972.000	562.817	79.997	19.996	100.027	20.167	1.779	0.541
974.000	563.872	79.996	19.996	100.012	20.164	1.990	0.532
976.000	564.868	79.996	19.996	100.007	20.170	1.468	0.502
978.000	565.893	79.996	19.995	100.010	20.168	1.655	0.499
980.000	566.932	79.996	19.996	100.035	20.169	1.553	0.515
982.000	567.957	79.996	19.996	100.041	20.169	1.534	0.526
984.000	569.025	79.995	19.996	100.039	20.169	1.501	0.500
986.000	570.042	79.993	19.995	100.023	20.169	1.515	0.529
988.000	571.095	79.996	19.996	100.026	20.170	1.405	0.504
990.000	572.124	79.996	19.996	100.013	20.168	1.619	0.547
992.000	573.184	79.994	19.995	100.030	20.168	1.638	0.551
994.000	574.194	79.994	19.995	100.027	20.169	1.531	0.529
996.000	575.263	79.994	19.996	100.037	20.161	2.290	0.505
998.000	576.302	79.995	19.996	100.026	20.163	2.156	0.503
1000.000	577.325	79.995	19.996	100.027	20.171	1.336	0.528
1002.000	578.313	79.996	19.996	100.033	20.165	1.957	0.518
1004.000	579.336	79.996	19.996	100.030	20.168	1.641	0.502
1006.000	580.336	79.995	19.996	100.038	20.172	1.221	0.511
1008.000	581.356	79.995	19.995	100.039	20.168	1.641	0.492
1010.000	582.366	79.996	19.995	100.042	20.169	1.581	0.498
1012.000	583.369	79.996	19.995	100.025	20.170	1.465	0.510
1014.000	584.378	79.995	19.994	100.029	20.166	1.853	0.502
1016.000	585.370	79.997	19.995	100.038	20.167	1.718	0.491
1018.000	586.373	79.996	19.995	100.028	20.170	1.471	0.499
1020.000	587.370	79.997	19.994	100.034	20.169	1.537	0.531
1022.000	588.358	79.998	19.994	100.040	20.170	1.397	0.482
1024.000	589.362	79.997	19.995	100.032	20.162	2.210	0.539
1026.000	590.362	79.997	19.995	100.022	20.167	1.715	0.483
1028.001	591.348	79.996	19.994	100.033	20.165	1.963	0.498
1030.001	592.361	79.997	19.995	100.022	20.168	1.619	0.527
1032.001	593.342	79.996	19.995	100.033	20.168	1.660	0.489
1034.001	594.423	79.994	19.995	100.032	20.170	1.435	0.563
1036.000	595.415	79.997	19.995	100.027	20.166	1.817	0.517
1038.001	596.400	79.997	19.993	100.033	20.169	1.559	0.499
1040.000	597.392	79.997	19.995	100.021	20.169	1.548	0.522
1042.001	598.474	79.999	19.994	100.035	20.171	1.366	0.523
1044.000	599.482	80.000	19.993	100.027	20.170	1.440	0.511
1046.001	600.544	79.998	19.995	100.028	20.168	1.586	0.543
1048.000	601.547	79.998	19.993	100.034	20.169	1.518	0.493
1050.000	602.541	79.997	19.994	100.028	20.170	1.416	0.489
1052.001	603.566	79.997	19.995	100.037	20.170	1.479	0.511
1054.000	604.591	79.996	19.995	100.016	20.169	1.493	0.512
1056.000	605.614	79.996	19.995	100.023	20.169	1.537	0.507
1058.000	606.625	79.995	19.995	100.029	20.169	1.487	0.485
1060.000	607.679	79.995	19.996	100.031	20.167	1.729	0.507
1062.001	608.704	79.995	19.995	100.022	20.167	1.781	0.520
1064.001	609.735	79.996	19.995	100.011	20.168	1.627	0.504
1066.000	610.757	79.995	19.995	100.023	20.171	1.377	0.524
1068.001	611.758	79.997	19.996	100.027	20.171	1.330	0.506
1070.000	612.783	79.996	19.995	100.030	20.170	1.421	0.526
1072.000	613.807	79.997	19.996	100.009	20.171	1.311	0.507
1074.000	614.800	79.995	19.995	100.019	20.171	1.380	0.506
1076.000	615.833	79.996	19.996	100.010	20.174	1.031	0.508
1078.000	616.802	79.995	19.996	100.016	20.174	1.072	0.536
1080.000	617.822	79.996	19.996	100.013	20.171	1.303	0.515
1082.000	618.802	79.995	19.996	100.020	20.173	1.122	0.504
1084.000	619.849	79.994	19.997	100.021	20.172	1.204	0.531
1086.000	620.843	79.994	19.996	100.031	20.176	0.866	0.468
1088.000	621.877	79.995	19.996	100.035	20.173	1.122	0.498
1090.000	622.894	79.996	19.997	100.025	20.176	0.808	0.501
1092.000	623.931	79.994	19.996	100.023	20.173	1.089	0.513
1094.000	624.969	79.996	19.995	100.021	20.174	1.055	0.484
1096.000	625.960	79.997	19.996	100.022	20.169	1.504	0.479
1098.000	626.996	79.997	19.995	100.020	20.167	1.784	0.530
1100.000	628.028	79.997	19.996	100.017	20.173	1.149	0.505
1102.000	629.064	79.997	19.994	100.022	20.170	1.473	0.482
1104.000	630.061	79.998	19.996	100.014	20.176	0.816	0.485
1106.000	631.102	79.997	19.996	100.015	20.173	1.163	0.526
1108.000	632.094	79.995	19.995	100.024	20.176	0.797	0.503
1110.001	633.127	79.994	19.995	100.010	20.173	1.094	0.514
1112.000	634.152	79.996	19.994	100.009	20.171	1.298	0.525
1114.000	635.166	79.995	19.995	100.007	20.179	0.544	0.497
1116.000	636.179	79.995	19.994	100.009	20.173	1.094	0.513
1118.001	637.218	79.997	19.996	100.014	20.176	0.866	0.517
1120.000	638.233	79.997	19.995	100.014	20.175	0.885	0.520
1122.000	639.252	79.998	19.995	100.018	20.183	0.102	0.525
1124.001	640.260	79.999	19.994	100.020	20.171	1.314	0.505
1126.000	641.223	80.000	19.994	100.009	20.178	0.624	0.453
1128.001	642.265	80.000	19.995	100.007	20.174	0.992	0.502
1130.000	643.249	79.997	19.995	100.008	20.177	0.764	0.499
1132.000	644.240	79.996	19.995	100.005	20.178	0.613	0.495
1134.000	645.223	79.996	19.996	100.003	20.173	1.174	0.498
1136.000	646.232	79.997	19.996	100.010	20.177	0.739	0.484
1138.000	647.250	79.995	19.994	100.005	20.172	1.187	0.499
1140.000	648.257	79.996	19.994	100.005	20.169	1.583	0.491
1142.000	649.243	79.996	19.995	100.020	20.176	0.792	0.501
1144.000	650.284	79.994	19.995	100.015	20.174	1.000	0.529
1146.000	651.290	79.995	19.995	100.008	20.181	0.346	0.516
1148.000	652.245	79.995	19.996	100.013	20.181	0.322	0.470
1150.000	653.271	79.997	19.996	99.996	20.178	0.621	0.505
1152.000	654.250	79.995	19.995	100.006	20.181	0.341	0.495
1154.000	655.308	79.995	19.994	100.004	20.176	0.880	0.501
1156.000	656.304	79.996	19.995	100.004	20.179	0.555	0.500
1158.000	657.344	79.997	19.996	100.005	20.175	0.926	0.538
1160.000	658.351	79.995	19.996	100.005	20.174	1.072	0.494
1162.000	659.332	79.995	19.996	100.008	20.180	0.451	0.526
1164.000	660.378	79.995	19.996	100.009	20.177	0.756	0.516
1166.000	661.367	79.995	19.996	100.007	20.178	0.651	0.505
1168.000	662.389	79.993	19.996	100.009	20.174	0.995	0.466
1170.000	663.411	79.995	19.995	100.014	20.178	0.583	0.495
1172.000	664.460	79.995	19.996	100.026	20.177	0.778	0.528
1174.000	665.410	79.995	19.996	100.011	20.181	0.308	0.495
1176.000	666.462	79.995	19.996	100.012	20.177	0.750	0.512
1178.000	667.498	79.996	19.996	100.010	20.181	0.305	0.533
1180.000	668.475	79.997	19.995	100.009	20.175	0.940	0.494
1182.000	669.429	79.998	19.995	100.006	20.179	0.497	0.446
1184.000	670.508	79.995	19.993	100.017	20.173	1.138	0.542
1186.000	671.505	79.997	19.995	100.013	20.177	0.687	0.496
1188.000	672.512	79.998	19.996	100.009	20.176	0.833	0.517
1190.000	673.534	79.997	19.995	100.009	20.177	0.764	0.533
1192.000	674.559	79.996	19.996	100.005	20.176	0.836	0.510
1194.000	675.577	79.996	19.996	100.007	20.180	0.470	0.509
1196.000	676.592	79.999	19.995	100.006	20.175	0.907	0.479
1198.000	677.613	79.998	19.995	100.007	20.177	0.750	0.519
1200.000	678.620	79.999	19.994	100.006	20.183	0.154	0.499
1202.000	679.678	79.998	19.995	100.006	20.181	0.319	0.533
1204.000	680.679	79.998	19.994	100.010	20.178	0.583	0.523
1206.000	681.745	79.999	19.995	100.002	20.183	0.115	0.517
1208.000	682.753	79.997	19.995	100.005	20.178	0.585	0.535
1210.001	683.795	79.997	19.995	100.008	20.180	0.451	0.504
1212.000	684.830	79.995	19.995	100.004	20.179	0.539	0.529
1214.000	685.852	79.996	19.994	100.008	20.186	-0.140	0.521
1216.000	686.956	79.995	19.994	100.005	20.181	0.322	0.536
1218.000	687.909	79.996	19.995	100.003	20.179	0.511	0.560
1220.000	688.979	79.995	19.995	100.004	20.181	0.324	0.555
1222.000	690.016	79.995	19.994	100.009	20.180	0.443	0.516
1224.000	691.008	79.994	19.994	100.010	20.175	0.929	0.515
1226.000	692.050	79.995	19.995	100.009	20.184	0.063	0.493
1228.000	693.072	79.996	19.996	100.013	20.183	0.118	0.503
1230.000	694.150	79.996	19.995	100.023	20.180	0.423	0.523
1232.000	695.155	79.994	19.995	100.011	20.178	0.654	0.499
1234.000	696.175	79.996	19.995	100.008	20.180	0.423	0.474
1236.000	697.190	79.996	19.996	100.017	20.180	0.421	0.502
1238.000	698.221	79.994	19.995	100.022	20.178	0.588	0.538
1240.000	699.233	79.996	19.995	100.011	20.178	0.618	0.477
1242.001	700.255	79.993	19.995	100.019	20.184	-0.019	0.507
1244.000	701.263	79.994	19.994	100.016	20.175	0.885	0.489
1246.001	702.262	79.993	19.995	100.008	20.179	0.572	0.526
1248.000	703.248	79.996	19.996	100.022	20.184	0.049	0.511
1250.000	704.290	79.997	19.995	100.016	20.176	0.811	0.506
1252.001	705.257	79.996	19.996	100.011	20.177	0.775	0.466
1254.000	706.280	79.997	19.996	100.008	20.176	0.847	0.492
1256.001	707.323	79.995	19.995	100.020	20.178	0.676	0.560
1258.000	708.256	79.997	19.996	100.012	20.179	0.506	0.487
1260.000	709.273	79.996	19.996	100.007	20.177	0.739	0.499
1262.000	710.313	79.998	19.996	100.017	20.177	0.778	0.529
1264.000	711.280	79.996	19.995	100.012	20.175	0.899	0.522
1266.000	712.331	79.996	19.996	100.003	20.175	0.902	0.541
1268.000	713.348	79.996	19.994	100.008	20.180	0.448	0.537
1270.001	714.357	79.997	19.995	100.017	20.179	0.555	0.530
1272.000	715.362	79.996	19.996	100.008	20.183	0.115	0.515
1274.000	716.344	79.996	19.995	100.005	20.174	1.039	0.483
1276.000	717.380	79.998	19.994	100.018	20.175	0.973	0.503
1278.000	718.392	79.998	19.995	100.012	20.180	0.445	0.517
1280.000	719.381	79.999	19.995	100.012	20.177	0.745	0.499
1282.000	720.410	80.000	19.995	100.011	20.179	0.558	0.500
1284.000	721.373	79.999	19.994	100.012	20.183	0.093	0.460
1286.000	722.432	79.999	19.996	100.028	20.178	0.594	0.507
1288.000	723.445	79.997	19.994	100.025	20.178	0.663	0.516
1290.000	724.451	79.995	19.995	100.025	20.179	0.522	0.511
1292.000	725.462	79.996	19.995	100.019	20.176	0.822	0.480
1294.000	726.464	79.995	19.994	100.025	20.177	0.772	0.501
1296.000	727.477	79.996	19.994	100.017	20.178	0.630	0.545
1298.000	728.550	79.994	19.996	100.019	20.173	1.152	0.525
1300.000	729.530	79.996	19.994	100.034	20.180	0.401	0.534
1302.000	730.544	79.992	19.994	100.032	20.171	1.314	0.499
1304.000	731.612	79.995	19.995	100.013	20.174	1.061	0.554
1306.000	732.576	79.996	19.995	100.014	20.173	1.097	0.467
1308.000	733.626	79.997	19.995	100.024	20.176	0.863	0.516
1310.000	734.702	79.995	19.994	100.012	20.176	0.830	0.500
1312.000	735.692	79.995	19.994	100.011	20.175	0.943	0.514
1314.000	736.775	79.994	19.995	100.010	20.174	1.003	0.527
1316.001	737.796	79.995	19.996	100.008	20.175	0.973	0.532
1318.000	738.858	79.994	19.997	100.009	20.173	1.165	0.504
1320.000	739.880	79.995	19.996	100.010	20.172	1.253	0.520
1322.000	740.914	79.994	19.995	100.011	20.178	0.594	0.506
1324.000	741.990	79.995	19.996	100.010	20.174	1.047	0.506
1326.000	743.026	79.996	19.995	100.010	20.175	0.965	0.536
1326.500	743.297	79.994	19.996	100.010	20.176	0.816	0.503