File: 01_Data/Cotton_Ball/MCC/Cotton_Ball_MCC_30K_min_210708_R1.txt
Sample ID:	C:\MCC\MCC Cal\Test\Cotton_Ball\Cotton_Ball_MCC_30K_min_21_07_08_R1.txt
Sample Weight (mg):	3.2
Heating Rate (C/s):	0.5
Combustor Temp (C):	900
N2 Flow Rate (cc/min):	80
O2 Flow Rate (cc/min):	20
Calibration File:	C:\MCC\MCC Cal\Coeff1 JN10440_30_210304.txt.txt
T Correction Coefficients:	0	1.024463	0
Time Shift (s):	14
*
Time (s)	Temperature (C)	N2 flow rate (cc/min)	O2 flow rate (cc/min)	Flow Rate (cc/min)	Oxygen (%)	HRR (W/g)	Heating rate (C/s)
0.000	110.929	79.993	19.995	99.920	20.228	0.451	-0.018
1.999	110.917	79.994	19.995	99.912	20.225	0.681	0.000
3.999	110.902	79.994	19.996	99.924	20.228	0.443	0.013
5.999	110.936	79.995	19.994	99.917	20.229	0.310	-0.005
7.999	110.889	79.994	19.994	99.909	20.228	0.446	-0.006
9.999	110.825	79.994	19.995	99.910	20.229	0.281	-0.034
11.999	110.824	79.996	19.991	99.913	20.231	0.139	-0.008
13.999	110.786	79.994	19.995	99.937	20.225	0.668	-0.012
15.999	110.782	79.993	19.995	99.954	20.224	0.842	-0.008
18.000	110.802	79.993	19.999	99.984	20.214	1.791	0.003
19.999	110.815	79.990	20.000	100.000	20.212	1.997	-0.011
21.999	110.889	79.994	19.995	100.037	20.212	2.005	0.034
23.999	110.965	79.999	19.996	100.070	20.206	2.545	0.019
25.999	111.109	79.992	19.997	100.082	20.204	2.746	0.071
28.000	111.236	79.995	19.996	100.084	20.203	2.843	0.054
29.999	111.417	80.002	19.991	100.087	20.198	3.362	0.101
31.999	111.591	79.995	19.992	100.095	20.198	3.351	0.106
33.999	111.820	79.997	19.996	100.094	20.194	3.776	0.109
35.999	112.075	79.997	19.996	100.095	20.193	3.830	0.142
37.999	112.353	79.992	19.998	100.119	20.190	4.144	0.132
39.999	112.634	79.992	20.000	100.124	20.191	4.045	0.162
41.999	112.976	80.000	19.992	100.121	20.188	4.277	0.139
44.000	113.316	79.995	19.993	100.129	20.185	4.659	0.167
45.999	113.734	79.996	19.994	100.131	20.185	4.619	0.193
48.000	114.107	79.995	19.996	100.136	20.186	4.486	0.213
49.999	114.561	79.996	19.992	100.160	20.186	4.534	0.221
51.999	115.021	79.991	19.996	100.156	20.181	5.052	0.243
53.999	115.493	79.996	19.993	100.146	20.181	5.013	0.259
55.999	115.987	79.995	19.997	100.130	20.185	4.616	0.269
57.999	116.495	79.992	19.998	100.136	20.184	4.745	0.291
59.999	117.039	79.994	19.996	100.148	20.187	4.438	0.259
61.999	117.622	79.994	19.996	100.131	20.186	4.556	0.296
63.999	118.230	79.994	19.993	100.150	20.180	5.096	0.301
65.999	118.765	79.986	19.991	100.149	20.184	4.735	0.285
68.000	119.369	79.993	19.995	100.134	20.184	4.698	0.301
70.000	119.987	79.995	19.997	100.149	20.182	4.877	0.280
71.999	120.677	79.996	19.994	100.161	20.182	4.923	0.368
73.999	121.316	79.993	19.997	100.146	20.180	5.091	0.345
75.999	121.998	79.993	19.997	100.154	20.182	4.909	0.347
77.999	122.655	79.995	19.995	100.164	20.184	4.711	0.341
79.999	123.362	79.991	20.000	100.163	20.182	4.864	0.376
81.999	124.075	79.994	19.995	100.160	20.182	4.893	0.334
83.999	124.834	79.994	19.991	100.162	20.183	4.832	0.348
85.999	125.555	79.992	20.001	100.161	20.179	5.233	0.377
87.999	126.301	79.989	19.997	100.160	20.183	4.837	0.412
90.000	127.041	79.995	19.992	100.162	20.180	5.107	0.331
91.999	127.896	79.995	20.000	100.164	20.179	5.169	0.411
93.999	128.648	79.994	19.996	100.167	20.178	5.282	0.389
96.000	129.425	79.999	19.991	100.165	20.181	5.014	0.404
97.999	130.197	79.992	20.001	100.168	20.178	5.289	0.411
99.999	130.982	79.990	19.996	100.161	20.180	5.143	0.425
101.999	131.827	79.997	19.993	100.165	20.178	5.271	0.417
103.999	132.636	79.996	19.996	100.169	20.179	5.191	0.394
105.999	133.460	79.995	19.998	100.170	20.178	5.295	0.410
107.999	134.319	79.996	19.995	100.168	20.179	5.204	0.395
109.999	135.177	79.995	19.994	100.173	20.181	5.057	0.412
112.001	136.050	79.994	19.992	100.172	20.180	5.065	0.421
113.999	136.925	79.990	19.998	100.177	20.179	5.212	0.411
115.999	137.798	79.995	19.995	100.185	20.180	5.129	0.459
118.000	138.677	79.996	19.994	100.171	20.180	5.059	0.452
119.999	139.556	79.995	19.995	100.182	20.179	5.217	0.454
121.999	140.502	79.995	19.994	100.173	20.179	5.204	0.473
123.999	141.396	79.995	19.995	100.172	20.175	5.581	0.450
125.999	142.360	79.996	19.995	100.174	20.176	5.538	0.456
127.999	143.277	79.999	19.993	100.173	20.174	5.664	0.484
130.000	144.204	79.997	19.993	100.168	20.176	5.450	0.472
132.000	145.164	79.997	19.994	100.173	20.177	5.417	0.478
134.000	146.086	79.994	19.994	100.169	20.175	5.621	0.456
136.000	147.043	79.996	19.995	100.167	20.173	5.805	0.476
138.000	147.952	79.993	19.994	100.166	20.177	5.421	0.461
140.000	148.945	79.991	19.997	100.164	20.173	5.763	0.508
142.000	149.892	79.992	19.996	100.149	20.173	5.755	0.462
144.000	150.873	79.994	19.995	100.086	20.173	5.763	0.486
146.000	151.820	79.992	19.996	100.232	20.176	5.490	0.484
148.000	152.792	79.992	19.995	100.183	20.175	5.600	0.467
150.000	153.789	79.993	19.992	100.165	20.172	5.872	0.512
152.000	154.753	79.994	19.995	100.164	20.175	5.634	0.485
154.000	155.737	79.995	19.994	100.163	20.175	5.592	0.502
156.000	156.668	79.993	19.994	100.163	20.175	5.560	0.500
158.000	157.679	79.993	19.994	100.163	20.175	5.621	0.495
160.000	158.664	79.994	19.995	100.163	20.175	5.608	0.505
162.000	159.634	79.994	19.995	100.163	20.178	5.268	0.466
164.000	160.627	79.990	19.996	100.167	20.179	5.171	0.495
166.000	161.620	79.992	19.997	100.169	20.178	5.340	0.471
168.000	162.627	79.993	19.996	100.167	20.177	5.442	0.511
170.000	163.608	79.992	19.995	100.166	20.176	5.530	0.491
172.000	164.666	79.992	19.995	100.167	20.175	5.613	0.508
174.000	165.667	79.992	19.998	100.161	20.179	5.217	0.495
176.000	166.687	79.992	19.997	100.163	20.179	5.190	0.483
178.000	167.703	79.992	19.996	100.165	20.178	5.288	0.508
180.000	168.714	79.994	19.994	100.162	20.178	5.272	0.498
182.000	169.728	79.994	19.994	100.164	20.180	5.071	0.502
184.000	170.745	79.994	19.994	100.163	20.180	5.087	0.517
186.000	171.740	79.994	19.995	100.162	20.177	5.363	0.488
188.000	172.771	79.994	19.994	100.158	20.179	5.216	0.532
190.000	173.795	79.994	19.996	100.144	20.180	5.119	0.494
192.000	174.823	79.995	19.996	100.142	20.178	5.296	0.512
194.000	175.819	79.993	19.996	100.136	20.180	5.124	0.520
196.000	176.796	79.997	19.995	100.130	20.180	5.146	0.506
198.000	177.783	79.995	19.996	100.149	20.179	5.175	0.484
200.000	178.806	79.993	19.997	100.143	20.180	5.122	0.500
202.000	179.832	79.999	19.993	100.130	20.180	5.098	0.510
204.000	180.809	79.995	19.995	100.132	20.178	5.269	0.505
206.000	181.823	79.995	19.996	100.130	20.184	4.731	0.507
208.000	182.808	79.995	19.994	100.123	20.182	4.878	0.471
210.000	183.780	79.995	19.995	100.130	20.181	4.996	0.502
212.000	184.797	79.997	19.995	100.139	20.184	4.755	0.503
214.000	185.831	79.997	19.995	100.136	20.184	4.694	0.510
216.000	186.864	79.997	19.995	100.128	20.183	4.860	0.523
218.000	187.872	79.994	19.993	100.136	20.183	4.779	0.531
220.000	188.840	79.994	19.994	100.128	20.180	5.063	0.510
222.000	189.853	79.993	19.995	100.126	20.181	5.025	0.512
224.000	190.900	79.993	19.995	100.143	20.182	4.905	0.538
226.000	191.859	79.995	19.995	100.134	20.179	5.199	0.499
228.000	192.871	79.993	19.995	100.131	20.183	4.785	0.502
230.000	193.882	79.992	19.996	100.051	20.182	4.942	0.494
232.000	194.888	79.994	19.995	100.199	20.185	4.645	0.507
234.000	195.816	79.994	19.995	100.137	20.182	4.945	0.484
236.000	196.841	79.994	19.996	100.126	20.184	4.718	0.489
238.000	197.776	79.993	19.996	100.133	20.183	4.857	0.474
240.000	198.822	79.994	19.995	100.127	20.183	4.782	0.527
242.000	199.784	79.994	19.997	100.124	20.181	4.991	0.491
244.000	200.736	79.991	19.997	100.126	20.184	4.688	0.471
246.000	201.742	79.992	19.994	100.123	20.184	4.728	0.518
248.000	202.715	79.992	19.994	100.124	20.183	4.771	0.487
250.000	203.704	79.993	19.994	100.124	20.184	4.688	0.507
252.000	204.697	79.992	19.995	100.128	20.184	4.709	0.482
254.000	205.638	79.995	19.994	100.127	20.185	4.594	0.501
256.000	206.685	79.995	19.996	100.116	20.186	4.501	0.515
258.000	207.662	79.992	19.997	100.117	20.188	4.343	0.498
260.000	208.655	79.993	19.998	100.121	20.185	4.594	0.477
262.000	209.618	79.993	19.998	100.121	20.184	4.718	0.500
264.000	210.611	79.996	19.995	100.123	20.183	4.816	0.527
266.000	211.596	79.995	19.996	100.120	20.178	5.260	0.460
268.000	212.580	79.994	19.995	100.121	20.187	4.442	0.500
270.000	213.557	79.995	19.995	100.120	20.184	4.728	0.489
272.000	214.530	79.995	19.996	100.123	20.182	4.942	0.514
274.000	215.483	79.993	20.000	100.123	20.181	4.998	0.469
276.000	216.444	79.994	19.997	100.110	20.187	4.389	0.488
278.000	217.420	79.995	19.995	100.113	20.189	4.249	0.515
280.000	218.401	79.994	19.995	100.120	20.189	4.198	0.480
282.000	219.383	79.995	19.998	100.122	20.188	4.370	0.497
284.000	220.332	79.994	19.997	100.112	20.187	4.468	0.499
286.000	221.327	79.996	19.994	100.123	20.184	4.680	0.515
288.000	222.310	79.993	19.998	100.121	20.185	4.656	0.487
290.000	223.305	79.998	19.993	100.114	20.182	4.891	0.502
292.000	224.300	79.994	19.996	100.121	20.181	5.001	0.486
294.000	225.274	79.994	19.998	100.111	20.179	5.228	0.482
296.000	226.262	79.996	19.995	100.116	20.182	4.889	0.500
298.000	227.233	79.996	19.995	100.123	20.180	5.087	0.472
300.000	228.233	79.995	19.994	100.109	20.181	4.996	0.524
302.000	229.246	79.993	19.996	100.125	20.182	4.873	0.538
304.000	230.193	79.993	19.995	100.126	20.179	5.170	0.463
306.000	231.206	79.992	19.994	100.126	20.181	4.998	0.526
308.000	232.188	79.994	19.995	100.125	20.179	5.215	0.483
310.000	233.168	79.992	19.996	100.127	20.180	5.084	0.507
312.000	234.173	79.994	19.996	100.129	20.180	5.102	0.519
314.000	235.155	79.992	19.996	100.128	20.179	5.166	0.470
316.000	236.147	79.995	19.996	100.126	20.179	5.196	0.479
318.000	237.168	79.993	19.996	100.122	20.183	4.824	0.516
320.000	238.156	79.994	19.995	100.119	20.181	4.979	0.498
322.000	239.124	79.992	19.996	100.119	20.178	5.330	0.465
324.000	240.145	79.994	19.995	100.114	20.181	4.966	0.486
326.000	241.123	79.995	19.996	100.116	20.182	4.899	0.468
328.000	242.141	79.993	19.997	100.116	20.178	5.332	0.502
330.000	243.160	79.993	19.996	100.115	20.179	5.169	0.509
332.000	244.166	79.994	19.996	100.119	20.180	5.096	0.496
334.000	245.170	79.994	19.996	100.120	20.177	5.406	0.498
336.000	246.164	79.994	19.995	100.115	20.175	5.556	0.482
338.000	247.179	79.995	19.994	100.119	20.175	5.615	0.492
340.000	248.195	79.994	19.996	100.120	20.176	5.517	0.497
342.000	249.194	79.994	19.996	100.113	20.175	5.607	0.517
344.000	250.213	79.994	19.996	100.103	20.175	5.624	0.514
346.000	251.254	79.995	19.996	100.100	20.170	6.068	0.505
348.000	252.206	79.995	19.996	100.101	20.172	5.899	0.484
350.000	253.230	79.994	19.996	100.114	20.172	5.864	0.494
352.000	254.211	79.993	19.996	100.114	20.168	6.271	0.507
354.000	255.230	79.994	19.995	100.115	20.170	6.118	0.512
356.000	256.189	79.994	19.995	100.118	20.168	6.260	0.509
358.000	257.250	79.994	19.995	100.123	20.165	6.523	0.533
360.000	258.214	79.993	19.995	100.109	20.168	6.290	0.512
362.000	259.262	79.995	19.995	100.120	20.167	6.357	0.546
364.000	260.270	79.995	19.993	100.121	20.167	6.376	0.533
366.000	261.201	79.995	19.995	100.112	20.167	6.330	0.481
368.000	262.210	79.995	19.994	100.123	20.163	6.789	0.488
370.000	263.251	79.994	19.993	100.119	20.165	6.589	0.521
372.000	264.204	79.995	19.994	100.119	20.162	6.875	0.481
374.000	265.261	79.994	19.994	100.119	20.161	6.961	0.494
376.000	266.244	79.995	19.993	100.124	20.161	6.950	0.514
378.000	267.223	79.993	19.995	100.105	20.159	7.202	0.517
380.000	268.275	79.994	19.995	100.115	20.156	7.443	0.513
382.000	269.243	79.993	19.995	100.116	20.153	7.734	0.495
384.000	270.230	79.995	19.994	100.112	20.153	7.705	0.495
386.000	271.275	79.992	19.995	100.115	20.149	8.130	0.523
388.000	272.328	79.993	19.995	100.116	20.146	8.438	0.529
390.000	273.277	79.994	19.994	100.123	20.144	8.662	0.491
392.000	274.289	79.991	19.995	100.124	20.144	8.665	0.488
394.000	275.283	79.993	19.995	100.125	20.139	9.074	0.521
396.000	276.293	79.994	19.996	100.126	20.139	9.132	0.487
398.000	277.265	79.994	19.995	100.124	20.133	9.695	0.495
400.000	278.291	79.995	19.995	100.124	20.131	9.917	0.510
402.000	279.264	79.994	19.996	100.125	20.131	9.856	0.497
404.000	280.276	79.993	19.995	100.124	20.129	10.081	0.524
406.000	281.291	79.993	19.995	100.140	20.124	10.617	0.515
408.000	282.295	79.994	19.996	100.141	20.121	10.910	0.519
410.000	283.300	79.994	19.996	100.128	20.114	11.539	0.547
412.000	284.236	79.991	19.995	100.134	20.115	11.449	0.459
414.000	285.244	79.991	19.996	100.137	20.108	12.168	0.495
416.000	286.248	79.992	19.996	100.138	20.106	12.320	0.518
418.000	287.260	79.992	19.996	100.152	20.103	12.615	0.499
420.000	288.243	79.996	19.994	100.162	20.097	13.193	0.496
422.000	289.243	79.994	19.995	100.156	20.089	13.990	0.489
424.000	290.240	79.994	19.994	100.157	20.086	14.278	0.514
426.000	291.245	79.994	19.995	100.165	20.078	15.040	0.503
428.000	292.269	79.995	19.995	100.166	20.073	15.551	0.490
430.000	293.262	79.995	19.996	100.164	20.068	16.045	0.500
432.000	294.300	79.993	19.995	100.166	20.057	17.082	0.504
434.000	295.278	79.993	19.996	100.162	20.054	17.408	0.496
436.000	296.290	79.994	19.996	100.167	20.046	18.244	0.502
438.000	297.268	79.994	19.996	100.173	20.039	18.862	0.484
440.000	298.285	79.993	19.995	100.169	20.033	19.473	0.509
442.000	299.278	79.994	19.996	100.174	20.025	20.247	0.506
444.000	300.258	79.994	19.995	100.186	20.018	20.896	0.464
446.000	301.246	79.996	19.995	100.186	20.011	21.606	0.466
448.000	302.259	79.996	19.995	100.193	20.005	22.192	0.490
450.000	303.266	79.996	19.994	100.197	19.994	23.242	0.511
452.000	304.260	79.995	19.994	100.198	19.984	24.224	0.491
454.000	305.269	79.994	19.995	100.205	19.976	25.031	0.500
456.000	306.254	79.995	19.995	100.212	19.964	26.257	0.514
458.000	307.254	79.995	19.997	100.211	19.953	27.276	0.474
460.000	308.292	79.994	19.996	100.207	19.941	28.437	0.508
462.000	309.320	79.994	19.996	100.225	19.931	29.447	0.501
464.000	310.335	79.993	19.996	100.229	19.912	31.315	0.514
466.000	311.321	79.994	19.995	100.238	19.904	32.081	0.512
468.000	312.370	79.994	19.995	100.239	19.886	33.838	0.535
470.000	313.394	79.992	19.995	100.247	19.875	34.990	0.506
472.000	314.375	79.993	19.995	100.257	19.855	36.862	0.498
474.000	315.359	79.994	19.995	100.280	19.838	38.525	0.511
476.000	316.387	79.994	19.995	100.282	19.819	40.381	0.492
478.000	317.400	79.994	19.995	100.282	19.801	42.172	0.480
480.000	318.435	79.995	19.995	100.297	19.778	44.398	0.527
482.000	319.408	79.995	19.994	100.311	19.759	46.348	0.484
484.000	320.444	79.994	19.995	100.303	19.738	48.410	0.517
486.000	321.429	79.995	19.995	100.303	19.715	50.628	0.480
488.000	322.479	79.994	19.996	100.325	19.692	52.850	0.531
490.000	323.478	79.992	19.995	100.330	19.671	54.942	0.513
492.000	324.475	79.992	19.997	100.342	19.647	57.269	0.516
494.000	325.486	79.994	19.997	100.354	19.626	59.365	0.484
496.000	326.456	79.991	19.995	100.354	19.599	61.952	0.481
498.000	327.483	79.994	19.996	100.364	19.579	63.908	0.542
500.000	328.485	79.994	19.996	100.362	19.558	66.001	0.491
502.000	329.527	79.994	19.996	100.364	19.537	68.000	0.530
504.000	330.504	79.996	19.995	100.364	19.519	69.774	0.510
506.000	331.529	79.994	19.995	100.365	19.498	71.808	0.517
508.000	332.489	79.995	19.995	100.382	19.482	73.445	0.515
510.000	333.523	79.995	19.995	100.370	19.463	75.234	0.485
512.000	334.566	79.995	19.995	100.378	19.448	76.696	0.543
514.000	335.578	79.994	19.995	100.359	19.435	78.019	0.516
516.000	336.580	79.994	19.995	100.358	19.424	79.030	0.518
518.000	337.583	79.994	19.995	100.356	19.414	80.045	0.511
520.000	338.580	79.993	19.996	100.350	19.408	80.608	0.490
522.000	339.579	79.994	19.997	100.331	19.406	80.776	0.508
524.000	340.562	79.996	19.996	100.318	19.405	80.849	0.516
526.000	341.622	79.996	19.996	100.316	19.409	80.489	0.525
528.000	342.613	79.996	19.996	100.312	19.417	79.740	0.494
530.000	343.604	79.997	19.995	100.302	19.422	79.215	0.504
532.000	344.585	79.997	19.995	100.284	19.434	78.030	0.479
534.000	345.617	79.995	19.994	100.277	19.446	76.820	0.523
536.000	346.608	79.996	19.995	100.272	19.462	75.281	0.515
538.000	347.605	79.994	19.995	100.270	19.479	73.564	0.500
540.000	348.611	79.994	19.995	100.252	19.498	71.760	0.526
542.000	349.612	79.994	19.994	100.244	19.513	70.230	0.529
544.000	350.625	79.994	19.995	100.232	19.535	68.063	0.510
546.000	351.622	79.993	19.995	100.213	19.561	65.591	0.468
548.000	352.678	79.994	19.996	100.206	19.584	63.324	0.537
550.000	353.676	79.993	19.996	100.201	19.608	60.973	0.492
552.000	354.680	79.992	19.995	100.184	19.637	58.165	0.505
554.000	355.675	79.992	19.996	100.174	19.666	55.326	0.510
556.000	356.662	79.994	19.995	100.169	19.691	52.884	0.493
558.000	357.701	79.993	19.994	100.166	19.716	50.401	0.517
560.000	358.716	79.994	19.996	100.160	19.742	47.866	0.509
562.000	359.742	79.993	19.994	100.147	19.769	45.179	0.521
564.000	360.709	79.994	19.994	100.132	19.799	42.325	0.479
566.000	361.765	79.994	19.994	100.128	19.823	39.926	0.479
568.000	362.761	79.994	19.996	100.126	19.847	37.570	0.512
570.000	363.774	79.994	19.995	100.115	19.875	34.814	0.510
572.000	364.772	79.993	19.994	100.106	19.900	32.383	0.515
574.000	365.789	79.994	19.994	100.107	19.923	30.157	0.503
576.000	366.842	79.993	19.995	100.094	19.951	27.414	0.520
578.000	367.845	79.994	19.995	100.088	19.970	25.619	0.529
580.000	368.859	79.995	19.996	100.078	19.989	23.694	0.516
582.000	369.879	79.995	19.995	100.081	20.009	21.821	0.515
584.000	370.874	79.995	19.996	100.081	20.030	19.741	0.504
586.000	371.885	79.994	19.996	100.072	20.044	18.359	0.504
588.000	372.947	79.995	19.995	100.076	20.062	16.662	0.499
590.000	373.956	79.996	19.996	100.073	20.076	15.215	0.511
592.000	375.000	79.994	19.995	100.075	20.089	13.952	0.531
594.000	375.994	79.994	19.995	100.067	20.098	13.069	0.498
596.000	377.041	79.994	19.995	100.072	20.105	12.384	0.546
598.000	378.038	79.994	19.997	100.059	20.116	11.345	0.523
600.000	379.053	79.996	19.995	100.069	20.127	10.273	0.475
602.000	380.113	79.995	19.996	100.074	20.135	9.504	0.535
604.000	381.101	79.996	19.996	100.066	20.137	9.309	0.523
606.000	382.099	79.995	19.996	100.066	20.141	8.901	0.492
608.000	383.135	79.995	19.995	100.077	20.150	8.067	0.530
610.000	384.098	79.995	19.996	100.069	20.149	8.111	0.465
612.000	385.127	79.996	19.995	100.059	20.155	7.583	0.507
614.000	386.156	79.996	19.996	100.062	20.157	7.307	0.543
616.000	387.172	79.995	19.996	100.068	20.154	7.601	0.548
618.000	388.202	79.994	19.996	100.075	20.155	7.539	0.480
620.000	389.209	79.993	19.995	100.062	20.162	6.898	0.528
622.000	390.246	79.994	19.994	100.063	20.158	7.291	0.512
624.000	391.282	79.994	19.994	100.057	20.159	7.192	0.505
626.000	392.297	79.994	19.995	100.062	20.160	7.048	0.535
628.000	393.366	79.994	19.995	100.053	20.157	7.304	0.533
630.000	394.371	79.994	19.995	100.054	20.161	6.986	0.550
632.000	395.394	79.993	19.994	100.068	20.155	7.574	0.534
634.000	396.459	79.994	19.995	100.057	20.163	6.775	0.525
636.000	397.473	79.994	19.995	100.054	20.165	6.596	0.518
638.000	398.507	79.995	19.995	100.064	20.161	6.956	0.573
640.000	399.499	79.994	19.995	100.053	20.160	7.056	0.529
642.000	400.511	79.994	19.995	100.051	20.161	6.960	0.429
644.000	401.589	79.995	19.995	100.056	20.163	6.745	0.613
646.000	402.253	79.995	19.995	100.058	20.164	6.614	0.425
648.000	403.599	79.993	19.996	100.051	20.161	6.965	0.341
650.000	404.347	79.993	19.994	100.053	20.163	6.778	0.275
652.000	405.758	79.993	19.994	100.074	20.164	6.674	0.425
654.000	406.606	79.994	19.994	100.053	20.163	6.796	0.630
656.000	407.712	79.995	19.995	100.053	20.161	6.968	0.551
658.000	408.747	79.995	19.995	100.059	20.163	6.719	0.502
660.000	409.737	79.997	19.995	100.069	20.163	6.778	0.511
662.000	410.737	79.997	19.994	100.063	20.165	6.547	0.493
664.000	411.762	79.998	19.995	100.056	20.164	6.622	0.474
666.000	412.803	79.996	19.995	100.070	20.163	6.759	0.456
668.000	413.827	79.996	19.995	100.068	20.164	6.646	0.512
670.000	414.848	79.994	19.996	100.066	20.164	6.686	0.510
672.000	415.877	79.994	19.995	100.048	20.165	6.577	0.500
674.000	416.928	79.994	19.995	100.054	20.166	6.484	0.559
676.000	417.976	79.996	19.996	100.060	20.162	6.857	0.529
678.000	418.983	79.995	19.996	100.056	20.164	6.638	0.504
680.000	420.028	79.995	19.995	100.048	20.166	6.454	0.526
682.000	421.044	79.996	19.995	100.048	20.166	6.457	0.511
684.000	422.088	79.996	19.995	100.057	20.166	6.435	0.481
686.000	423.148	79.995	19.994	100.057	20.166	6.467	0.529
688.000	424.169	79.998	19.995	100.051	20.161	6.911	0.529
690.000	425.195	79.997	19.995	100.048	20.164	6.654	0.504
692.000	426.245	79.995	19.996	100.048	20.161	6.955	0.494
694.000	427.276	79.994	19.995	100.054	20.161	6.972	0.512
696.000	428.338	79.994	19.996	100.050	20.164	6.673	0.520
698.000	429.338	79.993	19.996	100.048	20.162	6.892	0.493
700.000	430.389	79.994	19.996	100.057	20.161	6.935	0.545
702.000	431.409	79.994	19.996	100.060	20.162	6.814	0.527
704.000	432.443	79.993	19.997	100.057	20.158	7.205	0.547
706.000	433.466	79.993	19.997	100.047	20.162	6.863	0.537
708.000	434.514	79.992	19.995	100.049	20.159	7.138	0.549
710.000	435.578	79.994	19.995	100.045	20.161	6.980	0.514
712.000	436.589	79.994	19.995	100.046	20.165	6.568	0.511
714.000	437.614	79.994	19.995	100.050	20.162	6.811	0.508
716.000	438.660	79.994	19.995	100.051	20.163	6.772	0.539
718.000	439.657	79.995	19.994	100.046	20.162	6.895	0.507
720.000	440.701	79.994	19.995	100.046	20.161	6.964	0.518
722.000	441.722	79.993	19.996	100.046	20.165	6.587	0.503
724.000	442.792	79.995	19.996	100.044	20.166	6.438	0.529
726.000	443.827	79.994	19.996	100.047	20.166	6.494	0.524
728.000	444.840	79.993	19.994	100.055	20.166	6.424	0.516
730.000	445.872	79.993	19.995	100.049	20.165	6.545	0.515
732.000	446.862	79.994	19.995	100.049	20.168	6.280	0.510
734.000	447.846	79.994	19.996	100.048	20.166	6.464	0.514
736.000	448.954	79.993	19.995	100.050	20.165	6.569	0.528
738.000	449.973	79.996	19.996	100.050	20.162	6.839	0.525
740.000	450.990	79.997	19.994	100.051	20.162	6.830	0.511
742.000	451.988	79.996	19.994	100.049	20.164	6.659	0.521
744.000	452.984	79.996	19.995	100.049	20.162	6.833	0.500
746.000	453.985	79.996	19.994	100.049	20.164	6.662	0.504
748.000	455.050	79.996	19.995	100.049	20.166	6.429	0.523
750.000	456.015	79.996	19.995	100.048	20.164	6.635	0.464
752.000	457.013	79.994	19.994	100.048	20.167	6.371	0.512
754.000	458.034	79.994	19.995	100.049	20.163	6.713	0.523
756.000	459.010	79.994	19.995	100.048	20.168	6.256	0.494
758.000	460.028	79.995	19.995	100.046	20.168	6.258	0.469
760.000	461.052	79.995	19.996	100.045	20.169	6.151	0.503
762.000	462.055	79.995	19.996	100.044	20.169	6.191	0.501
764.000	463.078	79.996	19.996	100.045	20.168	6.306	0.511
766.000	464.128	79.998	19.995	100.045	20.170	6.095	0.516
768.000	465.077	79.996	19.996	100.044	20.168	6.226	0.497
770.000	466.119	79.998	19.995	100.040	20.169	6.138	0.532
772.000	467.114	79.996	19.994	100.040	20.171	5.965	0.488
774.000	468.131	79.996	19.995	100.043	20.168	6.234	0.501
776.000	469.145	79.994	19.995	100.034	20.175	5.574	0.533
778.000	470.144	79.994	19.996	100.031	20.173	5.737	0.492
780.000	471.183	79.994	19.996	100.038	20.172	5.860	0.515
782.000	472.201	79.994	19.996	100.046	20.170	6.109	0.522
784.000	473.204	79.995	19.996	100.048	20.171	5.999	0.497
786.000	474.251	79.992	19.997	100.042	20.175	5.617	0.534
788.000	475.259	79.994	19.996	100.042	20.174	5.662	0.521
790.000	476.325	79.995	19.996	100.044	20.172	5.927	0.531
792.000	477.346	79.993	19.997	100.043	20.176	5.451	0.526
794.000	478.366	79.994	19.995	100.045	20.179	5.158	0.498
796.000	479.352	79.994	19.995	100.046	20.171	5.975	0.528
798.000	480.372	79.994	19.995	100.040	20.176	5.524	0.505
800.000	481.365	79.993	19.995	100.048	20.176	5.513	0.476
802.000	482.382	79.995	19.995	100.043	20.176	5.470	0.527
804.000	483.406	79.993	19.995	100.049	20.175	5.556	0.503
806.000	484.428	79.993	19.996	100.049	20.173	5.743	0.508
808.000	485.423	79.994	19.995	100.047	20.179	5.171	0.501
810.000	486.446	79.993	19.995	100.044	20.177	5.368	0.486
812.000	487.495	79.995	19.996	100.045	20.176	5.486	0.492
814.000	488.507	79.993	19.995	100.048	20.178	5.277	0.495
816.000	489.520	79.994	19.994	100.050	20.180	5.068	0.506
818.000	490.558	79.997	19.994	100.059	20.176	5.493	0.536
820.000	491.576	79.996	19.995	100.041	20.178	5.301	0.504
822.000	492.596	79.997	19.995	100.039	20.179	5.162	0.518
824.000	493.630	79.996	19.994	100.041	20.180	5.112	0.519
826.000	494.650	79.996	19.995	100.032	20.182	4.940	0.495
828.000	495.683	79.998	19.995	100.025	20.179	5.240	0.512
830.000	496.745	79.995	19.995	100.041	20.178	5.275	0.515
832.000	497.763	79.995	19.995	100.034	20.178	5.319	0.523
834.000	498.799	79.996	19.994	100.046	20.180	5.074	0.532
836.000	499.804	79.995	19.994	100.041	20.181	5.047	0.501
838.000	500.825	79.995	19.994	100.035	20.183	4.783	0.509
840.000	501.841	79.995	19.995	100.044	20.184	4.753	0.536
842.000	502.901	79.995	19.995	100.030	20.182	4.863	0.548
844.000	503.871	79.997	19.994	100.027	20.183	4.805	0.499
846.000	504.915	79.997	19.996	100.019	20.182	4.925	0.502
848.000	505.948	79.998	19.995	100.035	20.184	4.667	0.504
850.000	506.974	79.996	19.995	100.033	20.184	4.750	0.504
852.000	507.977	79.997	19.995	100.031	20.185	4.647	0.523
854.000	509.009	79.996	19.996	100.033	20.185	4.602	0.517
856.000	510.014	79.994	19.996	100.043	20.183	4.796	0.516
858.000	511.061	79.995	19.995	100.037	20.181	5.021	0.535
860.000	512.044	79.994	19.995	100.013	20.183	4.767	0.509
862.000	513.012	79.993	19.996	100.032	20.184	4.676	0.507
864.000	514.085	79.993	19.996	100.036	20.181	5.008	0.511
866.000	515.150	79.995	19.995	100.041	20.184	4.687	0.557
868.000	516.194	79.994	19.996	100.039	20.186	4.553	0.526
870.000	517.164	79.995	19.996	100.047	20.186	4.522	0.508
872.000	518.155	79.993	19.996	100.038	20.188	4.300	0.498
874.000	519.193	79.993	19.997	100.036	20.184	4.738	0.516
876.000	520.229	79.991	19.997	100.048	20.183	4.769	0.501
878.000	521.265	79.992	19.995	100.045	20.184	4.686	0.504
880.000	522.296	79.994	19.996	100.047	20.185	4.644	0.520
882.000	523.318	79.994	19.996	100.048	20.187	4.387	0.525
884.000	524.341	79.993	19.995	100.043	20.186	4.497	0.509
886.000	525.364	79.994	19.995	100.029	20.186	4.531	0.489
888.000	526.373	79.993	19.995	100.019	20.187	4.404	0.493
890.000	527.372	79.994	19.995	100.015	20.189	4.259	0.502
892.000	528.428	79.994	19.995	100.037	20.188	4.331	0.516
894.000	529.441	79.994	19.995	100.026	20.186	4.467	0.519
896.000	530.473	79.996	19.995	100.031	20.187	4.457	0.540
898.000	531.495	79.995	19.995	100.033	20.188	4.288	0.531
900.000	532.527	79.996	19.995	100.034	20.186	4.489	0.518
902.000	533.539	79.997	19.995	100.026	20.186	4.559	0.524
904.000	534.610	79.996	19.995	100.033	20.188	4.329	0.548
906.000	535.636	79.997	19.995	100.027	20.189	4.227	0.540
908.000	536.632	79.995	19.995	100.034	20.191	4.064	0.486
910.000	537.681	79.995	19.995	100.029	20.191	4.014	0.530
912.000	538.679	79.995	19.994	100.044	20.189	4.184	0.502
914.000	539.711	79.995	19.994	100.044	20.186	4.542	0.497
916.000	540.697	79.994	19.994	100.040	20.189	4.241	0.496
918.000	541.742	79.996	19.995	100.024	20.187	4.390	0.513
920.000	542.795	79.996	19.995	100.038	20.185	4.601	0.520
922.000	543.812	79.996	19.994	100.042	20.189	4.181	0.532
924.000	544.838	79.996	19.994	100.034	20.192	3.936	0.503
926.000	545.839	79.997	19.995	100.042	20.193	3.858	0.478
928.000	546.867	79.997	19.994	100.047	20.191	4.046	0.525
930.000	547.879	79.995	19.995	100.027	20.191	4.054	0.519
932.000	548.928	79.995	19.995	100.029	20.193	3.872	0.509
934.000	549.941	79.994	19.995	100.030	20.191	4.070	0.528
936.000	550.968	79.995	19.996	100.027	20.190	4.112	0.501
938.000	551.990	79.994	19.996	100.035	20.188	4.302	0.517
940.000	553.087	79.993	19.996	100.040	20.187	4.449	0.554
942.000	554.087	79.993	19.995	100.046	20.193	3.800	0.510
944.000	555.142	79.995	19.995	100.035	20.191	4.016	0.531
946.000	556.152	79.995	19.995	100.045	20.189	4.195	0.517
948.000	557.204	79.994	19.994	100.030	20.190	4.099	0.537
950.000	558.216	79.997	19.996	100.035	20.190	4.146	0.517
952.000	559.277	79.995	19.996	100.042	20.191	4.000	0.503
954.000	560.271	79.994	19.995	100.033	20.191	4.000	0.505
956.000	561.353	79.994	19.996	100.037	20.191	4.074	0.537
958.000	562.382	79.993	19.996	100.024	20.187	4.419	0.502
960.000	563.371	79.994	19.996	100.034	20.189	4.262	0.508
962.000	564.403	79.994	19.996	100.024	20.189	4.259	0.504
964.000	565.425	79.994	19.997	100.032	20.188	4.307	0.512
966.000	566.469	79.993	19.996	100.031	20.188	4.344	0.550
968.000	567.490	79.993	19.996	100.017	20.190	4.154	0.512
970.000	568.506	79.994	19.996	100.039	20.189	4.200	0.529
972.000	569.537	79.996	19.995	100.028	20.186	4.468	0.498
974.000	570.554	79.995	19.995	100.042	20.188	4.294	0.519
976.000	571.573	79.993	19.995	100.034	20.192	3.916	0.481
978.000	572.583	79.996	19.995	100.022	20.190	4.163	0.516
980.000	573.628	79.996	19.996	100.014	20.191	4.045	0.523
982.000	574.704	79.997	19.995	100.030	20.191	4.002	0.566
984.000	575.754	79.995	19.995	100.036	20.192	3.935	0.535
986.000	576.699	79.997	19.994	100.024	20.190	4.143	0.469
988.000	577.723	79.995	19.994	100.018	20.195	3.670	0.489
990.000	578.755	79.997	19.994	100.025	20.192	3.935	0.516
992.000	579.726	79.996	19.995	100.013	20.187	4.427	0.478
994.000	580.736	79.996	19.996	100.021	20.192	3.928	0.513
996.000	581.737	79.995	19.995	100.020	20.189	4.257	0.492
998.000	582.722	79.995	19.994	100.011	20.191	4.037	0.488
1000.000	583.705	79.996	19.994	100.017	20.186	4.467	0.485
1002.000	584.729	79.997	19.995	100.022	20.192	3.917	0.484
1004.000	585.757	79.999	19.994	100.028	20.187	4.403	0.500
1006.000	586.716	79.997	19.994	100.035	20.192	3.941	0.494
1008.000	587.683	79.998	19.993	100.041	20.191	4.005	0.495
1010.000	588.717	79.997	19.994	100.036	20.188	4.310	0.492
1012.000	589.763	79.995	19.994	100.028	20.190	4.168	0.513
1014.000	590.725	79.994	19.994	100.024	20.192	3.962	0.499
1016.000	591.738	79.995	19.995	100.021	20.189	4.261	0.488
1018.000	592.717	79.994	19.994	100.032	20.190	4.091	0.516
1020.000	593.738	79.993	19.995	100.027	20.189	4.189	0.546
1022.000	594.786	79.994	19.996	100.033	20.188	4.315	0.523
1024.000	595.773	79.994	19.996	100.022	20.187	4.401	0.504
1025.999	596.766	79.995	19.996	100.012	20.189	4.259	0.489
1027.999	597.779	79.995	19.995	100.019	20.191	4.005	0.506
1029.999	598.816	79.995	19.996	100.032	20.191	4.063	0.501
1031.999	599.799	79.995	19.995	100.027	20.186	4.552	0.522
1033.999	600.826	79.995	19.996	100.038	20.189	4.181	0.503
1035.999	601.835	79.995	19.995	100.036	20.188	4.288	0.539
1037.999	602.855	79.995	19.995	100.019	20.190	4.151	0.495
1039.999	603.924	79.995	19.995	100.013	20.190	4.133	0.530
1042.000	604.906	79.995	19.996	100.016	20.188	4.323	0.509
1043.999	605.976	79.994	19.994	100.016	20.189	4.250	0.480
1045.999	607.022	79.992	19.996	100.018	20.185	4.619	0.500
1047.999	608.025	79.993	19.996	100.010	20.188	4.314	0.529
1049.999	609.093	79.993	19.997	100.022	20.186	4.480	0.568
1051.999	610.119	79.993	19.997	100.019	20.187	4.384	0.519
1053.999	611.103	79.996	19.996	100.013	20.188	4.328	0.508
1055.999	612.175	79.994	19.996	100.018	20.188	4.294	0.525
1057.999	613.201	79.995	19.995	100.017	20.189	4.264	0.510
1059.999	614.221	79.997	19.995	100.022	20.189	4.213	0.529
1061.999	615.255	79.995	19.994	100.021	20.189	4.227	0.499
1063.999	616.309	79.996	19.995	100.016	20.188	4.320	0.523
1065.999	617.308	79.995	19.994	100.029	20.186	4.499	0.501
1067.999	618.347	79.995	19.994	100.023	20.192	3.961	0.496
1069.999	619.372	79.994	19.995	100.013	20.188	4.304	0.517
1071.999	620.413	79.996	19.995	100.035	20.190	4.122	0.519
1073.999	621.415	79.995	19.995	100.025	20.189	4.248	0.512
1075.999	622.437	79.995	19.996	100.029	20.191	4.024	0.485
1077.999	623.440	79.996	19.995	100.022	20.191	4.042	0.464
1079.999	624.466	79.996	19.995	100.007	20.191	4.035	0.479
1081.999	625.470	79.997	19.995	100.024	20.189	4.213	0.521
1083.999	626.493	79.997	19.993	100.025	20.189	4.238	0.509
1085.999	627.517	79.997	19.995	100.032	20.191	4.042	0.520
1087.999	628.531	79.997	19.995	100.025	20.190	4.167	0.501
1089.999	629.539	79.997	19.994	100.038	20.191	4.063	0.494
1091.999	630.529	79.996	19.995	100.032	20.190	4.167	0.502
1093.999	631.546	79.994	19.994	100.027	20.192	3.903	0.476
1096.000	632.591	79.995	19.995	100.029	20.195	3.638	0.544
1097.999	633.575	79.994	19.994	100.021	20.194	3.697	0.506
1099.999	634.617	79.995	19.995	100.012	20.193	3.791	0.520
1101.999	635.618	79.995	19.994	100.020	20.191	4.044	0.505
1103.999	636.659	79.994	19.994	100.014	20.189	4.178	0.507
1105.999	637.657	79.995	19.995	100.014	20.190	4.170	0.501
1108.000	638.673	79.995	19.996	100.016	20.193	3.871	0.519
1109.999	639.681	79.995	19.995	100.023	20.195	3.685	0.523
1111.999	640.668	79.995	19.995	100.018	20.190	4.122	0.526
1113.999	641.715	79.995	19.996	100.013	20.195	3.655	0.532
1115.999	642.723	79.995	19.995	100.020	20.192	3.884	0.507
1117.999	643.689	79.994	19.994	100.018	20.190	4.095	0.486
1119.999	644.685	79.995	19.995	100.024	20.194	3.772	0.478
1121.999	645.670	79.995	19.996	100.026	20.193	3.826	0.553
1123.999	646.721	79.994	19.996	100.012	20.192	3.970	0.521
1125.999	647.718	79.995	19.995	100.015	20.192	3.957	0.508
1127.999	648.723	79.994	19.995	100.011	20.187	4.432	0.505
1129.999	649.732	79.995	19.995	100.011	20.188	4.333	0.531
1131.999	650.726	79.995	19.995	100.018	20.197	3.468	0.494
1133.999	651.748	79.996	19.996	100.026	20.193	3.785	0.492
1135.999	652.736	79.996	19.996	100.026	20.193	3.810	0.505
1138.000	653.705	79.996	19.996	100.022	20.195	3.647	0.502
1139.999	654.752	79.996	19.996	100.024	20.194	3.700	0.504
1141.999	655.756	79.995	19.996	100.022	20.194	3.708	0.526
1143.999	656.769	79.995	19.995	100.015	20.193	3.816	0.564
1145.999	657.796	79.996	19.995	100.026	20.198	3.369	0.504
1147.999	658.770	79.995	19.994	100.024	20.196	3.513	0.489
1149.999	659.824	79.995	19.994	100.011	20.194	3.759	0.490
1151.999	660.848	79.995	19.994	100.013	20.194	3.711	0.493
1153.999	661.853	79.995	19.996	100.027	20.193	3.817	0.521
1155.999	662.884	79.998	19.995	100.034	20.195	3.609	0.536
1157.999	663.885	79.997	19.995	100.020	20.193	3.844	0.519
1159.999	664.922	79.997	19.995	100.008	20.195	3.668	0.533
1161.999	665.941	79.997	19.995	100.013	20.193	3.863	0.527
1163.999	666.991	79.997	19.994	100.011	20.192	3.956	0.534
1165.999	668.005	79.996	19.994	100.007	20.191	4.053	0.510
1167.999	669.036	79.996	19.994	100.011	20.193	3.850	0.502
1169.999	670.087	79.995	19.995	100.014	20.193	3.842	0.517
1171.999	671.109	79.994	19.995	100.023	20.194	3.764	0.498
1173.999	672.170	79.993	19.994	100.020	20.197	3.487	0.520
1175.999	673.173	79.996	19.994	100.011	20.196	3.585	0.501
1177.999	674.233	79.994	19.994	100.019	20.192	3.919	0.477
1180.000	675.296	79.994	19.994	100.019	20.194	3.762	0.557
1181.999	676.297	79.995	19.993	100.021	20.191	4.002	0.506
1183.999	677.357	79.997	19.994	100.015	20.194	3.772	0.533
1185.999	678.371	79.995	19.993	100.028	20.192	3.962	0.530
1187.999	679.436	79.996	19.995	100.024	20.191	4.044	0.545
1189.999	680.462	79.996	19.995	100.017	20.190	4.135	0.525
1191.999	681.436	79.994	19.995	100.018	20.194	3.732	0.501
1193.999	682.496	79.996	19.996	100.015	20.195	3.593	0.542
1195.999	683.487	79.995	19.996	100.018	20.197	3.482	0.486
1197.999	684.503	79.994	19.995	100.011	20.195	3.613	0.508
1199.999	685.519	79.994	19.995	100.007	20.195	3.654	0.500
1201.999	686.528	79.994	19.995	100.006	20.194	3.756	0.513
1203.999	687.574	79.993	19.995	100.007	20.194	3.720	0.526
1205.999	688.598	79.994	19.996	100.021	20.191	4.053	0.511
1207.999	689.621	79.993	19.995	100.013	20.192	3.943	0.494
1210.000	690.612	79.995	19.996	99.946	20.189	4.175	0.480
1211.999	691.610	79.996	19.996	100.063	20.188	4.365	0.494
1214.000	692.672	79.996	19.995	100.087	20.188	4.285	0.543
1215.999	693.698	79.997	19.996	100.030	20.190	4.103	0.489
1217.999	694.697	79.996	19.995	100.021	20.191	4.026	0.523
1219.999	695.744	79.995	19.996	100.018	20.193	3.849	0.506
1221.999	696.759	79.997	19.995	100.016	20.193	3.868	0.518
1223.999	697.791	79.995	19.995	100.018	20.191	3.999	0.535
1225.999	698.754	79.995	19.995	100.005	20.195	3.639	0.499
1227.999	699.767	79.995	19.995	100.017	20.190	4.103	0.525
1229.999	700.814	79.996	19.997	100.014	20.193	3.799	0.534
1231.999	701.796	79.996	19.996	100.011	20.192	3.951	0.513
1233.999	702.853	79.996	19.996	100.010	20.191	3.986	0.508
1235.999	703.849	79.996	19.995	100.034	20.192	3.951	0.495
1237.999	704.849	79.996	19.995	100.029	20.192	3.890	0.489
1239.999	705.865	79.997	19.994	100.010	20.191	4.002	0.540
1241.999	706.838	79.997	19.994	100.025	20.187	4.368	0.486
1243.999	707.863	79.998	19.994	100.018	20.190	4.138	0.495
1245.999	708.858	79.996	19.994	100.015	20.186	4.477	0.488
1247.999	709.811	79.995	19.994	100.027	20.187	4.368	0.472
1249.999	710.833	79.996	19.995	100.023	20.185	4.611	0.498
1251.999	711.862	79.993	19.994	100.020	20.186	4.488	0.518
1253.999	712.840	79.994	19.995	100.018	20.187	4.456	0.479
1255.999	713.816	79.993	19.995	100.015	20.185	4.616	0.477
1257.999	714.825	79.996	19.995	100.020	20.184	4.699	0.486
1259.999	715.831	79.996	19.994	100.015	20.190	4.101	0.531
1262.000	716.861	79.994	19.995	100.008	20.186	4.513	0.531
1263.999	717.877	79.995	19.995	100.012	20.188	4.333	0.496
1265.999	718.838	79.996	19.995	100.010	20.186	4.477	0.513
1267.999	719.892	79.995	19.995	100.015	20.192	3.927	0.542
1269.999	720.875	79.995	19.994	100.008	20.185	4.632	0.509
1271.999	721.925	79.995	19.994	100.022	20.187	4.386	0.530
1273.999	722.910	79.995	19.994	100.017	20.189	4.178	0.514
1275.999	723.888	79.995	19.994	100.010	20.189	4.229	0.496
1277.999	724.916	79.994	19.995	100.007	20.188	4.319	0.505
1279.999	725.943	79.994	19.995	100.011	20.182	4.862	0.516
1281.999	726.956	79.994	19.996	100.013	20.186	4.493	0.519
1283.999	727.958	79.994	19.995	100.009	20.187	4.370	0.505
1285.999	728.978	79.993	19.995	100.014	20.186	4.523	0.521
1288.000	729.993	79.994	19.996	100.008	20.185	4.648	0.507
1289.999	730.991	79.995	19.996	100.008	20.182	4.918	0.513
1291.999	732.005	79.995	19.995	100.010	20.184	4.666	0.504
1294.000	732.983	79.994	19.995	100.018	20.182	4.907	0.494
1296.000	734.008	79.996	19.995	100.012	20.180	5.068	0.509
1298.000	735.012	79.996	19.995	100.014	20.183	4.835	0.479
1300.000	736.009	79.998	19.996	100.022	20.184	4.747	0.478
1302.000	737.001	79.995	19.994	100.008	20.184	4.691	0.491
1304.000	738.059	79.996	19.995	100.005	20.185	4.573	0.517
1306.000	739.059	79.995	19.996	100.021	20.186	4.550	0.511
1308.000	740.104	79.996	19.996	100.010	20.184	4.734	0.506
1310.000	741.053	79.989	19.997	100.013	20.183	4.808	0.513
1312.000	742.081	79.992	19.996	100.019	20.184	4.737	0.581
1314.000	743.155	79.994	19.995	100.010	20.186	4.492	0.504
1314.500	743.419	79.996	19.996	100.011	20.185	4.596	0.505