File: 01_Data/MDF/STA/N2/30K_min/MDF_STA_N2_30KData_211012_R1.csv
##Temp./Â°C,Time/min,DSC(subtr.2)/mW,Mass loss(subtr.2)/mg,Sensit./(uV/mW)
49.528,10.01,0.0419829,-0.01821,1.05401
50.028,10.98104,0.14105,-0.0202487,1.05402
50.528,11.18865,0.21368,-0.02013942,1.05403
51.028,11.3312,0.29347,-0.01977284,1.05404
51.528,11.4437,0.35022,-0.02190968,1.05405
52.028,11.5385,0.41132,-0.02073674,1.05405
52.528,11.62122,0.46824,-0.02048106,1.05406
53.028,11.6953,0.51932,-0.01947597,1.05406
53.528,11.7618,0.56288,-0.02332542,1.05406
54.028,11.82751,0.60725,-0.02043061,1.05406
54.528,11.88664,0.64983,-0.02058582,1.05406
55.028,11.94223,0.70617,-0.02194476,1.05406
55.528,11.9945,0.73597,-0.02495145,1.05406
56.028,12.04537,0.77134,-0.01734564,1.05405
56.528,12.09409,0.81391,-0.01953379,1.05405
57.028,12.1403,0.85364,-0.02061749,1.05404
57.528,12.18564,0.88333,-0.02167492,1.05403
58.028,12.2296,0.91643,-0.02218174,1.05402
58.528,12.27248,0.94782,-0.02127866,1.05401
59.028,12.3139,0.97897,-0.01836772,1.054
59.528,12.35402,1.00217,-0.02201314,1.05399
60.028,12.3931,1.03599,-0.03062522,1.05398
60.528,12.43149,1.06356,-0.02027302,1.05396
61.028,12.46913,1.09091,-0.01825338,1.05394
61.528,12.5064,1.12324,-0.02250418,1.05393
62.028,12.54348,1.1413,-0.02310712,1.05391
62.528,12.5795,1.17378,-0.02150895,1.05389
63.028,12.61496,1.19896,-0.01959384,1.05387
63.528,12.6495,1.22176,-0.0207066,1.05384
64.028,12.6837,1.25483,-0.02184648,1.05382
64.528,12.71745,1.27098,-0.0236752,1.0538
65.028,12.75105,1.28944,-0.02234801,1.05377
65.528,12.78396,1.3078,-0.0241281,1.05374
66.028,12.81684,1.33529,-0.02371702,1.05372
66.528,12.8492,1.34396,-0.0230574,1.05369
67.028,12.88129,1.37438,-0.0231314,1.05365
67.528,12.91314,1.38799,-0.02179545,1.05362
68.028,12.94484,1.41317,-0.02469346,1.05359
68.528,12.9763,1.43972,-0.02313433,1.05356
69.028,13.00726,1.45025,-0.02243803,1.05352
69.528,13.03783,1.4671,-0.02257146,1.05348
70.028,13.0681,1.48366,-0.02333778,1.05345
70.528,13.0981,1.51281,-0.02455091,1.05341
71.028,13.128,1.53561,-0.02400789,1.05337
71.528,13.1577,1.55478,-0.02390135,1.05332
72.028,13.1874,1.57306,-0.02457273,1.05328
72.528,13.2167,1.59087,-0.025507,1.05324
73.028,13.24579,1.61255,-0.02397326,1.05319
73.528,13.2746,1.62492,-0.02382822,1.05315
74.028,13.3033,1.6391,-0.0240093,1.0531
74.528,13.33196,1.66819,-0.02433774,1.05305
75.028,13.36036,1.67896,-0.02468565,1.053
75.528,13.3884,1.6956,-0.0244649,1.05295
76.028,13.4162,1.71909,-0.02413105,1.0529
76.528,13.4439,1.73455,-0.0248965,1.05285
77.028,13.4714,1.75143,-0.02455442,1.05279
77.528,13.4988,1.76715,-0.02574276,1.05274
78.028,13.526,1.79047,-0.025116,1.05268
78.528,13.55305,1.79627,-0.02500611,1.05262
79.028,13.57988,1.81565,-0.02544657,1.05256
79.528,13.6065,1.83227,-0.02486643,1.0525
80.028,13.6331,1.84973,-0.02540632,1.05244
80.528,13.6595,1.86863,-0.02530474,1.05238
81.028,13.68565,1.88381,-0.02540602,1.05231
81.528,13.7115,1.90319,-0.02651988,1.05225
82.028,13.73736,1.92164,-0.02726909,1.05218
82.528,13.76324,1.93031,-0.02674981,1.05212
83.028,13.78875,1.94539,-0.02752018,1.05205
83.528,13.8143,1.96572,-0.02744945,1.05198
84.028,13.83964,1.98344,-0.02710295,1.05191
84.528,13.86478,1.99794,-0.02708403,1.05184
85.028,13.8898,2.01859,-0.02664728,1.05176
85.528,13.91438,2.02598,-0.02754407,1.05169
86.028,13.9389,2.04223,-0.028738,1.05161
86.528,13.9634,2.05539,-0.02975286,1.05154
87.028,13.9879,2.0673,-0.03034225,1.05146
87.528,14.0122,2.0793,-0.03001096,1.05138
88.028,14.03633,2.10299,-0.03139308,1.0513
88.528,14.0602,2.11426,-0.0301597,1.05122
89.028,14.08399,2.13191,-0.02935458,1.05114
89.528,14.1076,2.13044,-0.02999587,1.05106
90.028,14.1311,2.14556,-0.03041234,1.05097
90.528,14.1546,2.16609,-0.03187317,1.05089
91.028,14.17806,2.17011,-0.0309288,1.0508
91.528,14.20125,2.1838,-0.03081749,1.05071
92.028,14.2242,2.1943,-0.03214087,1.05062
92.528,14.24707,2.20806,-0.03157819,1.05053
93.028,14.2698,2.22233,-0.03213505,1.05044
93.528,14.2925,2.23338,-0.03137997,1.05035
94.028,14.31514,2.24977,-0.03036985,1.05026
94.528,14.3376,2.25859,-0.03072526,1.05016
95.028,14.36,2.27634,-0.03115232,1.05007
95.528,14.3823,2.28238,-0.03179768,1.04997
96.028,14.4044,2.28876,-0.03182161,1.04987
96.528,14.4264,2.30354,-0.03212832,1.04977
97.028,14.4482,2.30679,-0.03209726,1.04967
97.528,14.4699,2.321,-0.03214689,1.04957
98.028,14.4916,2.32362,-0.03292699,1.04947
98.528,14.51322,2.33266,-0.03268541,1.04937
99.028,14.5347,2.34551,-0.03305938,1.04926
99.528,14.55605,2.36492,-0.03305003,1.04916
100.028,14.57739,2.3598,-0.0333195,1.04905
100.528,14.59852,2.36563,-0.03346422,1.04894
101.028,14.6196,2.37332,-0.03408022,1.04883
101.528,14.6408,2.38891,-0.03473906,1.04872
102.028,14.6618,2.39348,-0.03313128,1.04861
102.528,14.68265,2.39069,-0.0342004,1.0485
103.028,14.70354,2.4045,-0.03338241,1.04838
103.528,14.7243,2.41132,-0.03417732,1.04827
104.028,14.74485,2.4135,-0.03465161,1.04815
104.528,14.7654,2.41776,-0.03456227,1.04804
105.028,14.7859,2.4244,-0.03456058,1.04792
105.528,14.8063,2.4342,-0.0345653,1.0478
106.028,14.8267,2.4419,-0.03355764,1.04768
106.528,14.84694,2.44086,-0.03415926,1.04756
107.028,14.86714,2.45619,-0.03363015,1.04744
107.528,14.88724,2.45555,-0.03434646,1.04732
108.028,14.9073,2.45982,-0.03577776,1.04719
108.528,14.9273,2.46899,-0.03437553,1.04707
109.028,14.94736,2.47903,-0.03515592,1.04694
109.528,14.9672,2.48366,-0.03521105,1.04681
110.028,14.98701,2.50142,-0.03599415,1.04668
110.528,15.0067,2.51178,-0.03498429,1.04655
111.028,15.02644,2.51753,-0.03599238,1.04642
111.528,15.04601,2.52533,-0.03656102,1.04629
112.028,15.0656,2.53992,-0.03627404,1.04616
112.528,15.08521,2.54618,-0.03610337,1.04602
113.028,15.1046,2.55053,-0.03500734,1.04589
113.528,15.12403,2.55525,-0.03564395,1.04575
114.028,15.14354,2.56668,-0.03544746,1.04562
114.528,15.16291,2.57159,-0.03457992,1.04548
115.028,15.1821,2.585,-0.03609714,1.04534
115.528,15.20129,2.58562,-0.03612909,1.0452
116.028,15.22037,2.59301,-0.03673711,1.04506
116.528,15.2395,2.59207,-0.03671357,1.04491
117.028,15.25844,2.60319,-0.03707998,1.04477
117.528,15.2775,2.60166,-0.03775424,1.04463
118.028,15.2965,2.61061,-0.03718717,1.04448
118.528,15.3153,2.61502,-0.03697453,1.04433
119.028,15.33415,2.62412,-0.03761307,1.04419
119.528,15.3528,2.61937,-0.03721382,1.04404
120.028,15.3715,2.62766,-0.03878161,1.04389
120.528,15.39001,2.63443,-0.03805901,1.04374
121.028,15.4086,2.63332,-0.0373965,1.04359
121.528,15.42725,2.63819,-0.03740631,1.04343
122.028,15.44585,2.64192,-0.03738586,1.04328
122.528,15.46441,2.63812,-0.03706567,1.04312
123.028,15.48286,2.64605,-0.03747839,1.04297
123.528,15.5011,2.64466,-0.03736183,1.04281
124.028,15.5193,2.65654,-0.03610799,1.04265
124.528,15.5375,2.66561,-0.03652145,1.04249
125.028,15.55572,2.67266,-0.03771011,1.04233
125.528,15.5739,2.67211,-0.03796585,1.04217
126.028,15.592,2.68238,-0.03838152,1.04201
126.528,15.61024,2.68106,-0.03740325,1.04185
127.028,15.6283,2.6879,-0.03747849,1.04168
127.528,15.6463,2.68975,-0.03647708,1.04152
128.028,15.66433,2.6849,-0.03745449,1.04135
128.528,15.68225,2.69391,-0.03742191,1.04118
129.028,15.7001,2.69995,-0.03838735,1.04101
129.528,15.7179,2.69897,-0.03736811,1.04084
130.028,15.73565,2.69963,-0.03760902,1.04067
130.528,15.7531,2.70133,-0.03747804,1.0405
131.028,15.7708,2.70574,-0.03792569,1.04033
131.528,15.7884,2.71044,-0.03921672,1.04016
132.028,15.806,2.71907,-0.03970854,1.03998
132.528,15.82359,2.72042,-0.04029342,1.03981
133.028,15.84113,2.72227,-0.03926242,1.03963
133.528,15.8585,2.72819,-0.0391942,1.03945
134.028,15.876,2.73557,-0.04054184,1.03927
134.528,15.8934,2.74216,-0.04060785,1.0391
135.028,15.91071,2.74288,-0.03985852,1.03891
135.528,15.92813,2.74969,-0.04006235,1.03873
136.028,15.94565,2.74609,-0.04056766,1.03855
136.528,15.96291,2.75074,-0.04035405,1.03837
137.028,15.98011,2.7573,-0.0392695,1.03818
137.528,15.9973,2.75959,-0.03928209,1.038
138.028,16.01441,2.7689,-0.03946796,1.03781
138.528,16.03155,2.77386,-0.04050753,1.03762
139.028,16.0487,2.77703,-0.03917708,1.03744
139.528,16.0657,2.77972,-0.03923974,1.03725
140.028,16.08275,2.78422,-0.03849399,1.03706
140.528,16.09977,2.79319,-0.03915708,1.03686
141.028,16.11671,2.79537,-0.03916592,1.03667
141.528,16.1336,2.80095,-0.03927265,1.03648
142.028,16.1505,2.80961,-0.03949229,1.03628
142.528,16.1672,2.80995,-0.03915567,1.03609
143.028,16.1839,2.8196,-0.04041825,1.03589
143.528,16.20053,2.82104,-0.04057812,1.0357
144.028,16.21714,2.82332,-0.04072632,1.0355
144.528,16.23372,2.83332,-0.04199968,1.0353
145.028,16.2503,2.83933,-0.04153957,1.0351
145.528,16.26698,2.84943,-0.0404145,1.0349
146.028,16.2836,2.84834,-0.04050922,1.0347
146.528,16.30015,2.85868,-0.04179954,1.03449
147.028,16.3167,2.86486,-0.04138334,1.03429
147.528,16.33321,2.8724,-0.04041958,1.03408
148.028,16.34972,2.87719,-0.04046849,1.03388
148.528,16.36628,2.88125,-0.04011399,1.03367
149.028,16.3827,2.88561,-0.03910277,1.03346
149.528,16.39922,2.89024,-0.03914899,1.03325
150.028,16.4157,2.89972,-0.04008389,1.03304
150.528,16.43208,2.90926,-0.04044801,1.03283
151.028,16.44839,2.91318,-0.04047709,1.03262
151.528,16.46471,2.91739,-0.04055779,1.03241
152.028,16.48103,2.92454,-0.03941604,1.0322
152.528,16.49723,2.91976,-0.03906819,1.03198
153.028,16.5135,2.92888,-0.04040737,1.03177
153.528,16.5296,2.93445,-0.04058199,1.03155
154.028,16.54591,2.93819,-0.04073896,1.03133
154.528,16.56213,2.95082,-0.04059012,1.03112
155.028,16.57836,2.96059,-0.04057882,1.0309
155.528,16.59461,2.966,-0.04057694,1.03068
156.028,16.6109,2.97429,-0.04057305,1.03046
156.528,16.62709,2.97932,-0.04097559,1.03023
157.028,16.64317,2.97637,-0.0421755,1.03001
157.528,16.6592,2.9881,-0.04216084,1.02979
158.028,16.67526,2.99296,-0.04115,1.02956
158.528,16.69119,2.99774,-0.04214966,1.02934
159.028,16.7071,3.00474,-0.04211399,1.02911
159.528,16.72312,3.01433,-0.04213904,1.02888
160.028,16.7392,3.02148,-0.04206865,1.02865
160.528,16.7551,3.02747,-0.04293759,1.02843
161.028,16.771,3.03616,-0.04176843,1.0282
161.528,16.7869,3.04361,-0.04179738,1.02796
162.028,16.8028,3.04783,-0.04179081,1.02773
162.528,16.8185,3.05624,-0.04178993,1.0275
163.028,16.83432,3.05628,-0.04178997,1.02727
163.528,16.85015,3.06289,-0.04179,1.02703
164.028,16.86591,3.07063,-0.04179069,1.0268
164.528,16.88168,3.07962,-0.04179308,1.02656
165.028,16.89745,3.07667,-0.04175746,1.02632
165.528,16.91319,3.09175,-0.04215253,1.02608
166.028,16.92885,3.09459,-0.042126,1.02584
166.528,16.94451,3.10827,-0.04235666,1.0256
167.028,16.96027,3.1148,-0.04309483,1.02536
167.528,16.97591,3.12142,-0.04203104,1.02512
168.028,16.9915,3.12511,-0.04211551,1.02488
168.528,17.00715,3.12654,-0.04211001,1.02464
169.028,17.0228,3.13834,-0.04201375,1.02439
169.528,17.03833,3.1396,-0.04080627,1.02415
170.028,17.05386,3.15095,-0.04202949,1.0239
170.528,17.06936,3.1556,-0.04212039,1.02365
171.028,17.0849,3.16032,-0.04211931,1.02341
171.528,17.1004,3.16038,-0.04211909,1.02316
172.028,17.11584,3.17987,-0.0421736,1.02291
172.528,17.13131,3.185,-0.04135737,1.02266
173.028,17.14675,3.19887,-0.04181588,1.0224
173.528,17.1622,3.20109,-0.0420945,1.02215
174.028,17.17764,3.21339,-0.04212374,1.0219
174.528,17.19304,3.2075,-0.04212056,1.02165
175.028,17.20843,3.21074,-0.04211995,1.02139
175.528,17.22379,3.22121,-0.04211999,1.02113
176.028,17.23913,3.23262,-0.04212,1.02088
176.528,17.25443,3.24153,-0.04212012,1.02062
177.028,17.2697,3.24595,-0.0421199,1.02036
177.528,17.2849,3.25617,-0.04211308,1.0201
178.028,17.3001,3.26171,-0.04211864,1.01984
178.528,17.31533,3.27444,-0.04160435,1.01958
179.028,17.33049,3.28014,-0.04149062,1.01932
179.528,17.34569,3.28525,-0.04279537,1.01906
180.028,17.36093,3.28648,-0.04207844,1.0188
180.528,17.3761,3.2972,-0.04207329,1.01853
181.028,17.39128,3.29014,-0.04287772,1.01827
181.528,17.40638,3.30889,-0.04346736,1.018
182.028,17.42152,3.30784,-0.0434325,1.01773
182.528,17.4366,3.32482,-0.04342932,1.01747
183.028,17.4516,3.34007,-0.04342994,1.0172
183.528,17.46663,3.34701,-0.04343014,1.01693
184.028,17.4816,3.34899,-0.04343055,1.01666
184.528,17.49661,3.3534,-0.04342328,1.01639
185.028,17.5116,3.36703,-0.04390764,1.01612
185.528,17.52656,3.36565,-0.0448155,1.01584
186.028,17.54156,3.37408,-0.04474722,1.01557
186.528,17.55651,3.39017,-0.04484405,1.0153
187.028,17.57144,3.39358,-0.04364919,1.01502
187.528,17.58638,3.39617,-0.0432204,1.01474
188.028,17.60132,3.3979,-0.04441809,1.01447
188.528,17.61618,3.41156,-0.04465544,1.01419
189.028,17.63099,3.42121,-0.04465025,1.01391
189.528,17.64578,3.43039,-0.0446499,1.01363
190.028,17.6606,3.43719,-0.04465001,1.01335
190.528,17.67543,3.44212,-0.04464949,1.01307
191.028,17.69019,3.45252,-0.04464977,1.01279
191.528,17.70494,3.46125,-0.04471505,1.01251
192.028,17.71969,3.45929,-0.04594153,1.01223
192.528,17.73449,3.48874,-0.04593468,1.01194
193.028,17.74919,3.48821,-0.04596099,1.01166
193.528,17.76391,3.49142,-0.0459605,1.01137
194.028,17.7786,3.50121,-0.04595997,1.01109
194.528,17.79336,3.51572,-0.04596001,1.0108
195.028,17.80807,3.5237,-0.04595992,1.01051
195.528,17.8228,3.53433,-0.04595917,1.01022
196.028,17.83745,3.54688,-0.04596508,1.00993
196.528,17.85209,3.56124,-0.04599189,1.00964
197.028,17.86671,3.55682,-0.04547385,1.00935
197.528,17.8813,3.56158,-0.04569606,1.00906
198.028,17.89595,3.57793,-0.04597289,1.00877
198.528,17.91056,3.59017,-0.04595516,1.00848
199.028,17.92519,3.59945,-0.04624968,1.00818
199.528,17.9398,3.60009,-0.04726614,1.00789
200.028,17.95435,3.61534,-0.04827838,1.00759
200.528,17.96893,3.62058,-0.04860461,1.0073
201.028,17.98341,3.62943,-0.04847258,1.007
201.528,17.99791,3.63494,-0.04851753,1.0067
202.028,18.01237,3.64941,-0.04858257,1.0064
202.528,18.02688,3.66105,-0.04856613,1.0061
203.028,18.04137,3.66699,-0.04849227,1.0058
203.528,18.0559,3.67663,-0.04734587,1.0055
204.028,18.0704,3.69451,-0.04730658,1.0052
204.528,18.08492,3.70785,-0.04853193,1.0049
205.028,18.09941,3.71338,-0.04860072,1.00459
205.528,18.11391,3.72139,-0.04860051,1.00429
206.028,18.12836,3.73313,-0.04859996,1.00399
206.528,18.14276,3.74803,-0.04860005,1.00368
207.028,18.15716,3.74976,-0.04859959,1.00337
207.528,18.17162,3.75476,-0.04859815,1.00307
208.028,18.18603,3.76226,-0.04869257,1.00276
208.528,18.20044,3.77395,-0.04993341,1.00245
209.028,18.21483,3.78937,-0.0498851,1.00214
209.528,18.2292,3.78769,-0.04991096,1.00183
210.028,18.24355,3.79939,-0.04991081,1.00152
210.528,18.25789,3.81768,-0.04990864,1.00121
211.028,18.27225,3.83156,-0.04990401,1.0009
211.528,18.28657,3.84469,-0.05130237,1.00059
212.028,18.30092,3.85568,-0.05266752,1.00027
212.528,18.3153,3.86034,-0.05264167,0.99996
213.028,18.32959,3.86751,-0.05264936,0.99964
213.528,18.34392,3.88038,-0.05260957,0.99933
214.028,18.35821,3.88665,-0.05316143,0.99901
214.528,18.37252,3.89471,-0.05400293,0.9987
215.028,18.38681,3.90732,-0.05397589,0.99838
215.528,18.40107,3.91424,-0.05402926,0.99806
216.028,18.41538,3.92656,-0.05528405,0.99774
216.528,18.4297,3.93768,-0.0553911,0.99742
217.028,18.4439,3.94354,-0.05539281,0.9971
217.528,18.45818,3.95691,-0.05538459,0.99678
218.028,18.4724,3.9634,-0.05534386,0.99646
218.528,18.4866,3.96873,-0.05603764,0.99613
219.028,18.50085,3.9768,-0.05671296,0.99581
219.528,18.51502,3.98783,-0.05671008,0.99549
220.028,18.52927,3.99363,-0.05670732,0.99516
220.528,18.54344,4.01399,-0.05739074,0.99484
221.028,18.5575,4.02359,-0.05807237,0.99451
221.528,18.57163,4.02753,-0.05800518,0.99418
222.028,18.5858,4.02842,-0.0585771,0.99386
222.528,18.6,4.04079,-0.0593399,0.99353
223.028,18.6141,4.04644,-0.05934956,0.9932
223.528,18.6282,4.05391,-0.05930058,0.99287
224.028,18.64248,4.05979,-0.0602041,0.99254
224.528,18.65665,4.075,-0.06069558,0.99221
225.028,18.67078,4.08064,-0.06066178,0.99188
225.528,18.6849,4.08905,-0.0606521,0.99155
226.028,18.6991,4.09162,-0.06092044,0.99121
226.528,18.7132,4.09618,-0.06206478,0.99088
227.028,18.7273,4.10606,-0.06194967,0.99055
227.528,18.7414,4.10045,-0.06194319,0.99021
228.028,18.75543,4.12237,-0.0624833,0.98988
228.528,18.76945,4.1324,-0.06328527,0.98954
229.028,18.78335,4.13104,-0.06321601,0.9892
229.528,18.79736,4.13238,-0.06409019,0.98886
230.028,18.8114,4.13685,-0.06482821,0.98853
230.528,18.82545,4.14249,-0.06509316,0.98819
231.028,18.8396,4.14931,-0.06633984,0.98785
231.528,18.85364,4.16538,-0.06636982,0.98751
232.028,18.86778,4.1655,-0.06758203,0.98717
232.528,18.88195,4.1694,-0.0681898,0.98683
233.028,18.896,4.17212,-0.0694664,0.98648
233.528,18.90999,4.18008,-0.07030959,0.98614
234.028,18.92397,4.18572,-0.07148408,0.9858
234.528,18.93797,4.18512,-0.07221191,0.98545
235.028,18.95196,4.18913,-0.07215679,0.98511
235.528,18.96593,4.18833,-0.07249923,0.98476
236.028,18.9799,4.19433,-0.07348619,0.98442
236.528,18.99385,4.19917,-0.07347099,0.98407
237.028,19.00781,4.20117,-0.07366442,0.98373
237.528,19.02168,4.19767,-0.0748781,0.98338
238.028,19.03562,4.21157,-0.07468748,0.98303
238.528,19.04956,4.21363,-0.07584331,0.98268
239.028,19.06354,4.21797,-0.07731895,0.98233
239.528,19.0775,4.22392,-0.07898435,0.98198
240.028,19.09139,4.22718,-0.07922444,0.98163
240.528,19.1053,4.22968,-0.08060341,0.98128
241.028,19.11928,4.23118,-0.0809182,0.98093
241.528,19.13319,4.2293,-0.08244353,0.98057
242.028,19.1471,4.23675,-0.08282396,0.98022
242.528,19.16096,4.23274,-0.0844157,0.97987
243.028,19.17483,4.22849,-0.08427524,0.97951
243.528,19.18874,4.22779,-0.0848911,0.97916
244.028,19.20262,4.22895,-0.08592096,0.9788
244.528,19.2165,4.23381,-0.08627797,0.97845
245.028,19.23033,4.23946,-0.08765498,0.97809
245.528,19.24419,4.23364,-0.08849681,0.97773
246.028,19.258,4.23101,-0.08911478,0.97737
246.528,19.27188,4.23404,-0.09067501,0.97702
247.028,19.28574,4.23618,-0.09134577,0.97666
247.528,19.29955,4.23761,-0.09255188,0.9763
248.028,19.31342,4.24628,-0.09272063,0.97594
248.528,19.32723,4.24671,-0.09417151,0.97558
249.028,19.34106,4.24629,-0.0953238,0.97521
249.528,19.35492,4.24365,-0.09679496,0.97485
250.028,19.36875,4.23558,-0.09823836,0.97449
250.528,19.3826,4.24034,-0.09963958,0.97413
251.028,19.3964,4.22751,-0.10121,0.97376
251.528,19.41025,4.23175,-0.10182,0.9734
252.028,19.42408,4.2321,-0.10362,0.97303
252.528,19.4379,4.22983,-0.10495,0.97267
253.028,19.4517,4.22829,-0.10521,0.9723
253.528,19.46549,4.22757,-0.10648,0.97193
254.028,19.47931,4.22942,-0.1072,0.97157
254.528,19.493,4.23141,-0.10855,0.9712
255.028,19.50666,4.22812,-0.10912,0.97083
255.528,19.52029,4.22144,-0.11003,0.97046
256.028,19.53405,4.21751,-0.11158,0.97009
256.528,19.54779,4.2152,-0.11311,0.96972
257.028,19.5615,4.20937,-0.11392,0.96935
257.528,19.57528,4.21245,-0.11588,0.96898
258.028,19.58912,4.21613,-0.11814,0.96861
258.528,19.60302,4.20352,-0.11834,0.96824
259.028,19.61685,4.20191,-0.1198,0.96787
259.528,19.63065,4.19414,-0.12094,0.96749
260.028,19.6444,4.19213,-0.1227,0.96712
260.528,19.65813,4.18308,-0.12422,0.96674
261.028,19.6719,4.18782,-0.1267,0.96637
261.528,19.6856,4.18089,-0.12817,0.96599
262.028,19.6993,4.18033,-0.13046,0.96562
262.528,19.71301,4.17942,-0.13175,0.96524
263.028,19.7267,4.17188,-0.13351,0.96486
263.528,19.7404,4.16229,-0.13372,0.96449
264.028,19.75401,4.15892,-0.13415,0.96411
264.528,19.76775,4.15214,-0.13467,0.96373
265.028,19.78148,4.14743,-0.13614,0.96335
265.528,19.7952,4.14442,-0.13726,0.96297
266.028,19.8089,4.13764,-0.13918,0.96259
266.528,19.82258,4.11986,-0.14124,0.96221
267.028,19.83634,4.1205,-0.14487,0.96183
267.528,19.8501,4.11522,-0.1471,0.96145
268.028,19.86376,4.10346,-0.14958,0.96107
268.528,19.87744,4.11017,-0.15221,0.96068
269.028,19.8912,4.1017,-0.15356,0.9603
269.528,19.9049,4.08331,-0.15513,0.95992
270.028,19.9186,4.07514,-0.15683,0.95953
270.528,19.93221,4.06146,-0.15772,0.95915
271.028,19.9459,4.05205,-0.15924,0.95876
271.528,19.95949,4.04585,-0.16075,0.95838
272.028,19.9731,4.03649,-0.16184,0.95799
272.528,19.98676,4.02977,-0.16484,0.95761
273.028,20.0003,4.01763,-0.16802,0.95722
273.528,20.01405,4.01692,-0.17053,0.95683
274.028,20.02768,3.99973,-0.1729,0.95644
274.528,20.0413,3.99066,-0.17433,0.95606
275.028,20.055,3.97714,-0.1763,0.95567
275.528,20.06868,3.96468,-0.17836,0.95528
276.028,20.0823,3.95594,-0.18175,0.95489
276.528,20.09597,3.94183,-0.18312,0.9545
277.028,20.10962,3.92756,-0.18467,0.95411
277.528,20.1233,3.91027,-0.18672,0.95372
278.028,20.13692,3.89718,-0.18866,0.95332
278.528,20.15055,3.88806,-0.19274,0.95293
279.028,20.1642,3.87287,-0.19489,0.95254
279.528,20.17776,3.85465,-0.1979,0.95215
280.028,20.19131,3.83643,-0.20014,0.95175
280.528,20.20484,3.81095,-0.20453,0.95136
281.028,20.21837,3.79688,-0.20732,0.95096
281.528,20.2319,3.78576,-0.21049,0.95057
282.028,20.24548,3.76205,-0.21354,0.95017
282.528,20.25907,3.75151,-0.21584,0.94978
283.028,20.2727,3.73097,-0.21931,0.94938
283.528,20.28629,3.71294,-0.22304,0.94898
284.028,20.29992,3.6862,-0.22681,0.94859
284.528,20.31352,3.66784,-0.23133,0.94819
285.028,20.32714,3.64545,-0.23491,0.94779
285.528,20.3407,3.62173,-0.23763,0.94739
286.028,20.3543,3.59758,-0.24015,0.94699
286.528,20.36795,3.57426,-0.24264,0.94659
287.028,20.38158,3.5487,-0.24562,0.94619
287.528,20.39524,3.51672,-0.24944,0.94579
288.028,20.4089,3.49674,-0.25281,0.94539
288.528,20.42257,3.48289,-0.25646,0.94499
289.028,20.43626,3.45786,-0.26219,0.94459
289.528,20.44991,3.41663,-0.2664,0.94419
290.028,20.46356,3.38844,-0.27048,0.94379
290.528,20.47721,3.36095,-0.27424,0.94338
291.028,20.49079,3.33508,-0.27688,0.94298
291.528,20.50441,3.30664,-0.28008,0.94258
292.028,20.518,3.27494,-0.28464,0.94217
292.528,20.53155,3.24918,-0.28835,0.94177
293.028,20.54513,3.21929,-0.2924,0.94136
293.528,20.55871,3.1795,-0.29715,0.94096
294.028,20.57228,3.15608,-0.30113,0.94055
294.528,20.58589,3.12819,-0.30607,0.94015
295.028,20.59945,3.09217,-0.31186,0.93974
295.528,20.61307,3.06635,-0.31571,0.93933
296.028,20.62671,3.02868,-0.31918,0.93893
296.528,20.6403,3.00473,-0.32334,0.93852
297.028,20.65389,2.96007,-0.32732,0.93811
297.528,20.6675,2.92341,-0.33204,0.9377
298.028,20.6811,2.89538,-0.33729,0.93729
298.528,20.69463,2.87192,-0.34092,0.93689
299.028,20.70819,2.8393,-0.34562,0.93648
299.528,20.72176,2.80145,-0.35182,0.93607
300.028,20.73535,2.76942,-0.35682,0.93566
300.528,20.7489,2.74355,-0.36276,0.93524
301.028,20.7625,2.70933,-0.36891,0.93483
301.528,20.7761,2.67333,-0.37321,0.93442
302.028,20.78971,2.63822,-0.37819,0.93401
302.528,20.80325,2.61235,-0.38382,0.9336
303.028,20.81679,2.57871,-0.3883,0.93319
303.528,20.83034,2.5514,-0.39385,0.93277
304.028,20.84389,2.52387,-0.40103,0.93236
304.528,20.85744,2.48995,-0.40547,0.93195
305.028,20.871,2.46633,-0.41136,0.93153
305.528,20.88462,2.43968,-0.41693,0.93112
306.028,20.89829,2.40196,-0.42152,0.9307
306.528,20.91191,2.36955,-0.42726,0.93029
307.028,20.92551,2.34738,-0.43302,0.92987
307.528,20.93914,2.32396,-0.43775,0.92946
308.028,20.95274,2.29313,-0.44361,0.92904
308.528,20.9663,2.26663,-0.44964,0.92862
309.028,20.97984,2.24095,-0.45555,0.92821
309.528,20.99338,2.21683,-0.46307,0.92779
310.028,21.00692,2.1972,-0.46955,0.92737
310.528,21.0205,2.17629,-0.47504,0.92695
311.028,21.03404,2.15847,-0.48025,0.92654
311.528,21.04755,2.13307,-0.48475,0.92612
312.028,21.06111,2.10837,-0.48976,0.9257
312.528,21.0747,2.0899,-0.4963,0.92528
313.028,21.08825,2.06905,-0.50215,0.92486
313.528,21.10183,2.05718,-0.50791,0.92444
314.028,21.1154,2.03942,-0.51493,0.92402
314.528,21.12895,2.01595,-0.52104,0.9236
315.028,21.14258,2.00215,-0.52702,0.92318
315.528,21.15615,1.99251,-0.53453,0.92276
316.028,21.1697,1.9685,-0.54064,0.92234
316.528,21.18334,1.95995,-0.54759,0.92191
317.028,21.19693,1.94737,-0.55537,0.92149
317.528,21.2105,1.92927,-0.56115,0.92107
318.028,21.22409,1.9159,-0.56718,0.92065
318.528,21.2377,1.91074,-0.57472,0.92022
319.028,21.25119,1.89801,-0.58038,0.9198
319.528,21.2647,1.89327,-0.58646,0.91938
320.028,21.27812,1.88848,-0.59406,0.91895
320.528,21.29167,1.87828,-0.59972,0.91853
321.028,21.3052,1.86912,-0.60594,0.9181
321.528,21.3188,1.86353,-0.61367,0.91768
322.028,21.3324,1.85784,-0.6198,0.91725
322.528,21.34606,1.8586,-0.62646,0.91683
323.028,21.35979,1.85316,-0.63357,0.9164
323.528,21.37342,1.86415,-0.63847,0.91598
324.028,21.387,1.85843,-0.64476,0.91555
324.528,21.40059,1.84869,-0.65329,0.91512
325.028,21.41416,1.84245,-0.65991,0.9147
325.528,21.42771,1.84273,-0.66826,0.91427
326.028,21.44128,1.85493,-0.67732,0.91384
326.528,21.45482,1.85703,-0.68331,0.91341
327.028,21.4684,1.86321,-0.69057,0.91299
327.528,21.482,1.86279,-0.69949,0.91256
328.028,21.4956,1.86758,-0.70602,0.91213
328.528,21.50927,1.8823,-0.71357,0.9117
329.028,21.52293,1.89043,-0.72241,0.91127
329.528,21.53655,1.89605,-0.72878,0.91084
330.028,21.55017,1.899,-0.73666,0.91041
330.528,21.5638,1.90871,-0.74526,0.90998
331.028,21.5774,1.92452,-0.75162,0.90955
331.528,21.59095,1.93997,-0.7591,0.90912
332.028,21.60454,1.95136,-0.76771,0.90869
332.528,21.61812,1.96937,-0.77478,0.90826
333.028,21.6317,1.9889,-0.78373,0.90783
333.528,21.64528,2.00698,-0.79172,0.9074
334.028,21.65885,2.01099,-0.79772,0.90697
334.528,21.6725,2.02205,-0.80532,0.90653
335.028,21.6861,2.0532,-0.81353,0.9061
335.528,21.6997,2.0763,-0.82082,0.90567
336.028,21.71332,2.08789,-0.82999,0.90524
336.528,21.727,2.10698,-0.83854,0.9048
337.028,21.74062,2.12931,-0.84754,0.90437
337.528,21.75424,2.14399,-0.85729,0.90394
338.028,21.76785,2.1648,-0.8659,0.9035
338.528,21.7815,2.1887,-0.8734,0.90307
339.028,21.7951,2.21445,-0.88204,0.90263
339.528,21.80872,2.23619,-0.88959,0.9022
340.028,21.82234,2.24328,-0.8974,0.90177
340.528,21.83597,2.26998,-0.90746,0.90133
341.028,21.8495,2.2973,-0.91552,0.9009
341.528,21.8631,2.32541,-0.92334,0.90046
342.028,21.87678,2.34326,-0.93264,0.90002
342.528,21.8904,2.37292,-0.94043,0.89959
343.028,21.9041,2.39289,-0.94784,0.89915
343.528,21.91774,2.42141,-0.95816,0.89872
344.028,21.93147,2.44174,-0.96579,0.89828
344.528,21.94521,2.47146,-0.97404,0.89784
345.028,21.95884,2.49318,-0.98422,0.89741
345.528,21.97245,2.52473,-0.99305,0.89697
346.028,21.98612,2.55092,-1.00209,0.89653
346.528,21.99977,2.57849,-1.01333,0.8961
347.028,22.0135,2.60576,-1.02141,0.89566
347.528,22.02714,2.63567,-1.03075,0.89522
348.028,22.0408,2.65215,-1.04121,0.89478
348.528,22.05451,2.68733,-1.04897,0.89434
349.028,22.06822,2.72143,-1.05845,0.8939
349.528,22.0819,2.74074,-1.06977,0.89347
350.028,22.09555,2.77795,-1.07829,0.89303
350.528,22.10924,2.81334,-1.08862,0.89259
351.028,22.12294,2.8363,-1.10048,0.89215
351.528,22.13664,2.86813,-1.10934,0.89171
352.028,22.15031,2.89619,-1.11848,0.89127
352.528,22.16402,2.91886,-1.12854,0.89083
353.028,22.17774,2.9567,-1.1364,0.89039
353.528,22.19144,2.99083,-1.14642,0.88995
354.028,22.20516,3.02263,-1.15912,0.88951
354.528,22.21886,3.06299,-1.17016,0.88907
355.028,22.23255,3.09471,-1.18267,0.88863
355.528,22.24622,3.12135,-1.19366,0.88819
356.028,22.2599,3.16572,-1.2024,0.88775
356.528,22.27354,3.19752,-1.21332,0.88731
357.028,22.28722,3.23339,-1.22414,0.88686
357.528,22.3009,3.26966,-1.23438,0.88642
358.028,22.31462,3.29647,-1.24697,0.88598
358.528,22.32837,3.3387,-1.25717,0.88554
359.028,22.34212,3.3737,-1.26685,0.8851
359.528,22.35588,3.42141,-1.28044,0.88465
360.028,22.36961,3.46445,-1.2916,0.88421
360.528,22.3833,3.49521,-1.30301,0.88377
361.028,22.397,3.53586,-1.31708,0.88333
361.528,22.41075,3.57481,-1.32881,0.88288
362.028,22.42447,3.62356,-1.34109,0.88244
362.528,22.4382,3.66636,-1.35512,0.882
363.028,22.45195,3.70209,-1.36579,0.88155
363.528,22.46571,3.74253,-1.37793,0.88111
364.028,22.4795,3.78084,-1.39272,0.88067
364.528,22.49319,3.82637,-1.40346,0.88022
365.028,22.5068,3.87188,-1.4158,0.87978
365.528,22.5204,3.91789,-1.42982,0.87934
366.028,22.53417,3.96265,-1.44107,0.87889
366.528,22.5479,3.99897,-1.45477,0.87845
367.028,22.56162,4.04123,-1.47053,0.878
367.528,22.57538,4.08543,-1.48231,0.87756
368.028,22.58924,4.13174,-1.49658,0.87711
368.528,22.60313,4.18017,-1.51178,0.87667
369.028,22.617,4.22704,-1.52357,0.87622
369.528,22.63075,4.25634,-1.53877,0.87578
370.028,22.6446,4.3027,-1.55509,0.87533
370.528,22.65835,4.36666,-1.56838,0.87489
371.028,22.67212,4.40808,-1.58418,0.87444
371.528,22.68591,4.44845,-1.59951,0.874
372.028,22.69967,4.48654,-1.61268,0.87355
372.528,22.71345,4.52689,-1.62964,0.87311
373.028,22.72724,4.56843,-1.64597,0.87266
373.528,22.741,4.59336,-1.6606,0.87221
374.028,22.75483,4.63188,-1.67801,0.87177
374.528,22.76865,4.68343,-1.69238,0.87132
375.028,22.78248,4.70943,-1.7065,0.87088
375.528,22.79634,4.75312,-1.72354,0.87043
376.028,22.81018,4.79216,-1.73772,0.86998
376.528,22.824,4.82832,-1.75407,0.86954
377.028,22.83776,4.8498,-1.77441,0.86909
377.528,22.8516,4.88368,-1.78956,0.86864
378.028,22.8655,4.91254,-1.80697,0.8682
378.528,22.8793,4.93514,-1.82723,0.86775
379.028,22.8931,4.95975,-1.84181,0.8673
379.528,22.90695,4.97858,-1.85893,0.86685
380.028,22.9209,4.97839,-1.8793,0.86641
380.528,22.9348,4.99846,-1.89406,0.86596
381.028,22.94865,5.01672,-1.91179,0.86551
381.528,22.96252,5.02207,-1.93232,0.86507
382.028,22.97643,5.03102,-1.94731,0.86462
382.528,22.99035,5.03388,-1.96567,0.86417
383.028,23.0042,5.0261,-1.98517,0.86372
383.528,23.01807,5.00876,-2.00055,0.86327
384.028,23.032,4.98973,-2.01979,0.86283
384.528,23.04587,4.97741,-2.03916,0.86238
385.028,23.0597,4.95229,-2.05475,0.86193
385.528,23.07365,4.90606,-2.0742,0.86148
386.028,23.0876,4.86683,-2.09284,0.86103
386.528,23.10154,4.83296,-2.10945,0.86059
387.028,23.1155,4.78141,-2.12928,0.86014
387.528,23.1294,4.71909,-2.14538,0.85969
388.028,23.14335,4.6561,-2.16165,0.85924
388.528,23.15735,4.59403,-2.18187,0.85879
389.028,23.17126,4.5071,-2.19672,0.85834
389.528,23.18522,4.42304,-2.21315,0.85789
390.028,23.19914,4.32658,-2.23342,0.85745
390.528,23.2131,4.21749,-2.24799,0.857
391.028,23.22704,4.1082,-2.26569,0.85655
391.528,23.24097,3.996,-2.2851,0.8561
392.028,23.25495,3.87394,-2.29855,0.85565
392.528,23.26897,3.74199,-2.31429,0.8552
393.028,23.283,3.59136,-2.33093,0.85475
393.528,23.297,3.43871,-2.34245,0.8543
394.028,23.31101,3.27391,-2.35755,0.85385
394.528,23.32505,3.1238,-2.37345,0.8534
395.028,23.33906,2.95909,-2.38586,0.85296
395.528,23.35306,2.77812,-2.40033,0.85251
396.028,23.36704,2.60324,-2.41281,0.85206
396.528,23.38105,2.42504,-2.4234,0.85161
397.028,23.3951,2.25312,-2.43664,0.85116
397.528,23.40918,2.07428,-2.44787,0.85071
398.028,23.42324,1.87718,-2.4582,0.85026
398.528,23.43729,1.70479,-2.46928,0.84981
399.028,23.45141,1.52932,-2.47662,0.84936
399.528,23.46552,1.35803,-2.48445,0.84891
400.028,23.47963,1.18107,-2.49486,0.84846
400.528,23.4937,1.01742,-2.50334,0.84801
401.028,23.50778,0.87107,-2.51131,0.84756
401.528,23.52192,0.71632,-2.51847,0.84711
402.028,23.5361,0.58201,-2.52292,0.84666
402.528,23.55019,0.44267,-2.52824,0.84621
403.028,23.56431,0.32011,-2.53423,0.84576
403.528,23.57846,0.19424,-2.53777,0.84531
404.028,23.59261,0.08847735,-2.54198,0.84487
404.528,23.60677,-0.02102593,-2.54568,0.84442
405.028,23.62089,-0.11635,-2.54805,0.84397
405.528,23.63503,-0.19551,-2.55176,0.84352
406.028,23.6492,-0.28013,-2.55489,0.84307
406.528,23.66336,-0.3683,-2.55846,0.84262
407.028,23.67748,-0.43684,-2.56135,0.84217
407.528,23.69158,-0.49597,-2.56491,0.84172
408.028,23.7057,-0.56493,-2.56794,0.84127
408.528,23.71985,-0.62544,-2.57056,0.84082
409.028,23.73395,-0.68067,-2.57288,0.84037
409.528,23.7481,-0.73109,-2.57488,0.83992
410.028,23.76225,-0.77736,-2.57647,0.83947
410.528,23.77642,-0.81743,-2.57911,0.83902
411.028,23.7906,-0.86058,-2.58113,0.83857
411.528,23.80476,-0.89473,-2.58422,0.83812
412.028,23.81891,-0.92673,-2.58649,0.83767
412.528,23.83305,-0.96187,-2.58774,0.83722
413.028,23.84722,-1.00277,-2.59039,0.83677
413.528,23.86136,-1.03066,-2.59254,0.83632
414.028,23.8755,-1.05944,-2.59441,0.83587
414.528,23.88962,-1.0917,-2.59752,0.83542
415.028,23.90377,-1.11627,-2.59914,0.83497
415.528,23.9179,-1.15362,-2.60108,0.83452
416.028,23.9321,-1.17129,-2.60331,0.83407
416.528,23.94621,-1.19455,-2.60481,0.83362
417.028,23.9604,-1.21764,-2.60694,0.83318
417.528,23.9746,-1.24527,-2.60814,0.83273
418.028,23.9888,-1.26953,-2.60918,0.83228
418.528,24.00295,-1.28704,-2.60905,0.83183
419.028,24.01709,-1.30981,-2.61017,0.83138
419.528,24.03131,-1.33004,-2.61164,0.83093
420.028,24.0455,-1.34679,-2.61311,0.83048
420.528,24.05969,-1.37092,-2.61497,0.83003
421.028,24.07386,-1.39047,-2.61819,0.82958
421.528,24.0881,-1.41165,-2.61978,0.82913
422.028,24.10229,-1.43177,-2.62245,0.82868
422.528,24.1165,-1.44578,-2.62334,0.82823
423.028,24.1308,-1.46355,-2.62363,0.82779
423.528,24.14501,-1.4745,-2.62558,0.82734
424.028,24.15926,-1.49094,-2.62718,0.82689
424.528,24.17349,-1.50871,-2.63061,0.82644
425.028,24.18775,-1.5204,-2.6328,0.82599
425.528,24.20201,-1.53554,-2.63458,0.82554
426.028,24.21624,-1.55055,-2.63625,0.82509
426.528,24.23048,-1.57338,-2.63825,0.82464
427.028,24.24474,-1.58943,-2.64024,0.8242
427.528,24.2591,-1.5925,-2.64166,0.82375
428.028,24.2734,-1.61419,-2.64327,0.8233
428.528,24.2877,-1.62657,-2.6437,0.82285
429.028,24.30198,-1.6475,-2.64529,0.8224
429.528,24.31635,-1.65177,-2.64556,0.82195
430.028,24.33065,-1.66879,-2.64724,0.82151
430.528,24.34496,-1.67805,-2.64889,0.82106
431.028,24.35926,-1.69146,-2.64973,0.82061
431.528,24.37353,-1.70566,-2.65147,0.82016
432.028,24.3878,-1.71058,-2.65309,0.81971
432.528,24.40212,-1.71693,-2.65294,0.81927
433.028,24.4164,-1.73743,-2.65494,0.81882
433.528,24.4308,-1.75203,-2.65672,0.81837
434.028,24.44506,-1.7553,-2.65835,0.81792
434.528,24.45938,-1.76621,-2.66047,0.81748
435.028,24.47372,-1.77299,-2.66193,0.81703
435.528,24.48806,-1.7777,-2.66347,0.81658
436.028,24.50241,-1.78801,-2.6649,0.81613
436.528,24.51674,-1.7979,-2.66602,0.81569
437.028,24.5311,-1.80203,-2.6667,0.81524
437.528,24.54549,-1.81431,-2.669,0.81479
438.028,24.5599,-1.82029,-2.67172,0.81435
438.528,24.57424,-1.83378,-2.67381,0.8139
439.028,24.5886,-1.83814,-2.6764,0.81345
439.528,24.603,-1.82897,-2.67684,0.81301
440.028,24.61734,-1.83562,-2.67834,0.81256
440.528,24.6317,-1.84471,-2.67927,0.81211
441.028,24.64611,-1.84689,-2.67998,0.81167
441.528,24.66054,-1.8462,-2.68067,0.81122
442.028,24.67494,-1.85402,-2.68186,0.81077
442.528,24.6893,-1.86484,-2.68338,0.81033
443.028,24.70376,-1.86782,-2.68525,0.80988
443.528,24.71818,-1.86313,-2.68771,0.80944
444.028,24.73258,-1.86385,-2.68856,0.80899
444.528,24.74703,-1.86578,-2.68959,0.80855
445.028,24.76145,-1.87263,-2.6895,0.8081
445.528,24.77587,-1.87646,-2.68992,0.80765
446.028,24.79028,-1.87504,-2.69215,0.80721
446.528,24.80472,-1.87412,-2.69362,0.80676
447.028,24.81915,-1.87406,-2.69555,0.80632
447.528,24.83362,-1.87101,-2.69796,0.80587
448.028,24.84807,-1.87204,-2.69962,0.80543
448.528,24.86257,-1.87667,-2.70147,0.80499
449.028,24.87707,-1.87458,-2.70346,0.80454
449.528,24.89157,-1.87109,-2.70438,0.8041
450.028,24.90605,-1.86025,-2.70538,0.80365
450.528,24.92052,-1.86009,-2.70699,0.80321
451.028,24.935,-1.85974,-2.7082,0.80276
451.528,24.9495,-1.86468,-2.70941,0.80232
452.028,24.96394,-1.86184,-2.71105,0.80188
452.528,24.97839,-1.85187,-2.71287,0.80143
453.028,24.9929,-1.84751,-2.71445,0.80099
453.528,25.0074,-1.83647,-2.71595,0.80055
454.028,25.02192,-1.83443,-2.71709,0.8001
454.528,25.03644,-1.83986,-2.71713,0.79966
455.028,25.05097,-1.83803,-2.7184,0.79922
455.528,25.06551,-1.8256,-2.71834,0.79877
456.028,25.08001,-1.82629,-2.72032,0.79833
456.528,25.09453,-1.81995,-2.72139,0.79789
457.028,25.10906,-1.81539,-2.72254,0.79745
457.528,25.12358,-1.80891,-2.72435,0.797
458.028,25.13813,-1.80056,-2.72538,0.79656
458.528,25.15268,-1.79957,-2.72665,0.79612
459.028,25.16724,-1.79978,-2.72917,0.79568
459.528,25.18178,-1.78649,-2.73125,0.79524
460.028,25.1963,-1.7687,-2.73242,0.79479
460.528,25.21085,-1.76757,-2.73327,0.79435
461.028,25.22539,-1.77171,-2.73438,0.79391
461.528,25.23994,-1.7587,-2.73458,0.79347
462.028,25.25453,-1.74602,-2.73492,0.79303
462.528,25.26915,-1.74912,-2.73646,0.79259
463.028,25.2837,-1.73956,-2.73707,0.79215
463.528,25.2984,-1.73433,-2.73795,0.79171
464.028,25.313,-1.72671,-2.73982,0.79127
464.528,25.32767,-1.71511,-2.74163,0.79083
465.028,25.34233,-1.70822,-2.74277,0.79039
465.528,25.35699,-1.70126,-2.74455,0.78995
466.028,25.37163,-1.6886,-2.74632,0.78951
466.528,25.38625,-1.68729,-2.74652,0.78907
467.028,25.40086,-1.68525,-2.74767,0.78863
467.528,25.41551,-1.67747,-2.74767,0.78819
468.028,25.43013,-1.6667,-2.74918,0.78775
468.528,25.4447,-1.65551,-2.74983,0.78731
469.028,25.4593,-1.65799,-2.7513,0.78687
469.528,25.47393,-1.65248,-2.75349,0.78643
470.028,25.48861,-1.6367,-2.75502,0.786
470.528,25.50323,-1.63425,-2.75592,0.78556
471.028,25.5179,-1.62947,-2.7571,0.78512
471.528,25.53255,-1.6208,-2.7572,0.78468
472.028,25.5472,-1.61346,-2.75817,0.78424
472.528,25.56188,-1.61174,-2.75903,0.78381
473.028,25.57656,-1.6056,-2.76037,0.78337
473.528,25.59121,-1.59343,-2.76155,0.78293
474.028,25.60591,-1.58805,-2.76328,0.78249
474.528,25.62058,-1.57619,-2.76449,0.78206
475.028,25.63523,-1.57527,-2.76682,0.78162
475.528,25.64995,-1.57439,-2.76837,0.78119
476.028,25.66466,-1.55967,-2.76905,0.78075
476.528,25.67941,-1.55754,-2.76934,0.78031
477.028,25.69412,-1.55526,-2.76931,0.77988
477.528,25.70885,-1.54678,-2.76991,0.77944
478.028,25.7236,-1.54525,-2.77096,0.77901
478.528,25.73829,-1.54423,-2.77261,0.77857
479.028,25.75303,-1.52454,-2.77397,0.77814
479.528,25.76774,-1.52417,-2.77482,0.7777
480.028,25.78245,-1.52018,-2.77568,0.77727
480.528,25.7972,-1.51345,-2.77696,0.77683
481.028,25.812,-1.51706,-2.7771,0.7764
481.528,25.82674,-1.50761,-2.77757,0.77596
482.028,25.84146,-1.50743,-2.77893,0.77553
482.528,25.85615,-1.49579,-2.77958,0.7751
483.028,25.87092,-1.49175,-2.78064,0.77466
483.528,25.88565,-1.48426,-2.7813,0.77423
484.028,25.90042,-1.47856,-2.78243,0.7738
484.528,25.91519,-1.47255,-2.78369,0.77336
485.028,25.93,-1.47172,-2.78526,0.77293
485.528,25.9448,-1.46863,-2.78768,0.7725
486.028,25.95956,-1.46833,-2.78906,0.77207
486.528,25.97437,-1.47213,-2.79019,0.77163
487.028,25.98915,-1.45931,-2.79063,0.7712
487.528,26.00395,-1.44758,-2.79161,0.77077
488.028,26.0187,-1.44873,-2.79196,0.77034
488.528,26.0335,-1.44995,-2.79198,0.76991
489.028,26.04834,-1.45606,-2.79324,0.76948
489.528,26.06309,-1.44951,-2.79328,0.76905
490.028,26.07791,-1.45087,-2.79433,0.76862
490.528,26.0927,-1.44,-2.79502,0.76819
491.028,26.10753,-1.43862,-2.79665,0.76776
491.528,26.1223,-1.43858,-2.79743,0.76733
492.028,26.13717,-1.43905,-2.79762,0.7669
492.528,26.152,-1.44104,-2.79955,0.76647
493.028,26.16684,-1.44054,-2.80076,0.76604
493.528,26.1817,-1.44268,-2.80172,0.76561
494.028,26.19654,-1.43499,-2.80383,0.76518
494.528,26.21142,-1.42883,-2.80391,0.76475
495.028,26.22625,-1.42617,-2.80526,0.76432
495.528,26.2411,-1.42901,-2.80533,0.7639
496.028,26.25579,-1.42231,-2.80628,0.76347
496.528,26.2705,-1.41993,-2.80664,0.76304
497.028,26.28534,-1.42175,-2.80785,0.76261
497.528,26.30022,-1.41441,-2.80886,0.76219
498.028,26.31509,-1.42176,-2.81019,0.76176
498.528,26.32998,-1.42398,-2.81126,0.76133
499.028,26.34504,-1.42222,-2.8117,0.76091
499.528,26.3601,-1.42158,-2.81169,0.76048
500.028,26.37495,-1.42331,-2.81192,0.76006
500.528,26.3899,-1.4252,-2.81323,0.75963
501.028,26.4047,-1.42578,-2.81376,0.7592
501.528,26.4196,-1.43284,-2.81495,0.75878
502.028,26.4345,-1.42516,-2.81658,0.75835
502.528,26.44949,-1.42339,-2.8179,0.75793
503.028,26.46443,-1.42398,-2.81843,0.75751
503.528,26.47935,-1.42187,-2.81836,0.75708
504.028,26.4943,-1.42589,-2.81966,0.75666
504.528,26.5093,-1.42355,-2.82007,0.75623
505.028,26.52422,-1.42778,-2.82167,0.75581
505.528,26.5392,-1.42613,-2.82215,0.75539
506.028,26.5542,-1.43354,-2.82293,0.75496
506.528,26.56914,-1.42808,-2.82287,0.75454
507.028,26.5841,-1.42888,-2.82277,0.75412
507.528,26.59907,-1.43302,-2.82409,0.7537
508.028,26.61402,-1.44019,-2.82497,0.75328
508.528,26.62896,-1.43107,-2.82654,0.75285
509.028,26.6439,-1.42558,-2.82662,0.75243
509.528,26.65881,-1.42944,-2.82795,0.75201
510.028,26.6738,-1.42771,-2.82793,0.75159
510.528,26.6888,-1.42775,-2.82901,0.75117
511.028,26.7037,-1.43314,-2.82975,0.75075
511.528,26.7188,-1.44111,-2.83105,0.75033
512.028,26.7338,-1.44586,-2.83127,0.74991
512.528,26.7488,-1.438,-2.83238,0.74949
513.028,26.76385,-1.43952,-2.83234,0.74907
513.528,26.77885,-1.44277,-2.8334,0.74865
514.028,26.7939,-1.43758,-2.83399,0.74823
514.528,26.80885,-1.43666,-2.83542,0.74781
515.028,26.82387,-1.44039,-2.83592,0.7474
515.528,26.8389,-1.44752,-2.83738,0.74698
516.028,26.8539,-1.44855,-2.83909,0.74656
516.528,26.8689,-1.44789,-2.8399,0.74614
517.028,26.88397,-1.44321,-2.84084,0.74573
517.528,26.89905,-1.44226,-2.84073,0.74531
518.028,26.91409,-1.43996,-2.84175,0.74489
518.528,26.92912,-1.44068,-2.84209,0.74448
519.028,26.9442,-1.44656,-2.84208,0.74406
519.528,26.9593,-1.45076,-2.84209,0.74365
520.028,26.97433,-1.44351,-2.84257,0.74323
520.528,26.9894,-1.44575,-2.84377,0.74281
521.028,27.0044,-1.44821,-2.84543,0.7424
521.528,27.0194,-1.45274,-2.84673,0.74198
522.028,27.0345,-1.4509,-2.84729,0.74157
522.528,27.0495,-1.4524,-2.84829,0.74116
523.028,27.0646,-1.45453,-2.84885,0.74074
523.528,27.07964,-1.4582,-2.85017,0.74033
524.028,27.09477,-1.46142,-2.8506,0.73992
524.528,27.10987,-1.46602,-2.85128,0.7395
525.028,27.12495,-1.47256,-2.852,0.73909
525.528,27.14,-1.47697,-2.85228,0.73868
526.028,27.15509,-1.47685,-2.8535,0.73827
526.528,27.1703,-1.48275,-2.85461,0.73785
527.028,27.1854,-1.48136,-2.85502,0.73744
527.528,27.2006,-1.4826,-2.8574,0.73703
528.028,27.21572,-1.49114,-2.8577,0.73662
528.528,27.2309,-1.49367,-2.85849,0.73621
529.028,27.246,-1.50355,-2.85911,0.7358
529.528,27.2612,-1.50418,-2.85906,0.73539
530.028,27.27631,-1.50665,-2.85945,0.73498
530.528,27.2915,-1.51446,-2.85985,0.73457
531.028,27.30663,-1.51834,-2.85986,0.73416
531.528,27.32184,-1.5154,-2.86081,0.73375
532.028,27.33703,-1.52549,-2.86234,0.73334
532.528,27.3521,-1.54735,-2.86257,0.73294
533.028,27.36727,-1.54445,-2.8626,0.73253
533.528,27.3824,-1.54936,-2.86261,0.73212
534.028,27.39756,-1.55742,-2.86372,0.73171
534.528,27.41269,-1.56266,-2.86386,0.73131
535.028,27.4278,-1.56991,-2.86436,0.7309
535.528,27.44295,-1.56522,-2.86551,0.73049
536.028,27.4581,-1.56877,-2.86561,0.73009
536.528,27.4733,-1.57024,-2.86739,0.72968
537.028,27.4885,-1.57608,-2.86827,0.72928
537.528,27.50368,-1.58125,-2.86975,0.72887
538.028,27.5189,-1.58314,-2.86991,0.72847
538.528,27.53411,-1.59215,-2.87093,0.72806
539.028,27.54928,-1.60057,-2.87125,0.72766
539.528,27.56447,-1.60367,-2.87106,0.72725
540.028,27.57964,-1.60246,-2.87146,0.72685
540.528,27.5948,-1.61756,-2.87247,0.72645
541.028,27.61,-1.61719,-2.87312,0.72604
541.528,27.6252,-1.61153,-2.87457,0.72564
542.028,27.64047,-1.62558,-2.87466,0.72524
542.528,27.65565,-1.62673,-2.87466,0.72484
543.028,27.67087,-1.63549,-2.87466,0.72444
543.528,27.68611,-1.63455,-2.87466,0.72403
544.028,27.70135,-1.63696,-2.87515,0.72363
544.528,27.7166,-1.63402,-2.87699,0.72323
545.028,27.7318,-1.64062,-2.88122,0.72283
545.528,27.74711,-1.64041,-2.88403,0.72243
546.028,27.76235,-1.65971,-2.88342,0.72203
546.528,27.7776,-1.66015,-2.88048,0.72163
547.028,27.79285,-1.66021,-2.87668,0.72123
547.528,27.80807,-1.66737,-2.87516,0.72083
548.028,27.82331,-1.6715,-2.87565,0.72044
548.528,27.83853,-1.67823,-2.87646,0.72004
549.028,27.8538,-1.67442,-2.87997,0.71964
549.528,27.86905,-1.68568,-2.88238,0.71924
550.028,27.8843,-1.685,-2.88661,0.71884
550.528,27.8996,-1.70345,-2.88798,0.71845
551.028,27.91488,-1.69812,-2.88773,0.71805
551.528,27.9302,-1.70954,-2.88682,0.71766
552.028,27.94544,-1.71594,-2.88537,0.71726
552.528,27.9608,-1.72086,-2.8857,0.71686
553.028,27.9761,-1.7164,-2.88695,0.71647
553.528,27.99142,-1.71922,-2.88693,0.71607
554.028,28.00672,-1.74131,-2.88812,0.71568
554.528,28.022,-1.72764,-2.88815,0.71528
555.028,28.0373,-1.74275,-2.8881,0.71489
555.528,28.0526,-1.74863,-2.88922,0.7145
556.028,28.0679,-1.75875,-2.89093,0.7141
556.528,28.08318,-1.75316,-2.89157,0.71371
557.028,28.09849,-1.75206,-2.89174,0.71332
557.528,28.11383,-1.76013,-2.89324,0.71293
558.028,28.1291,-1.76451,-2.89275,0.71253
558.528,28.1445,-1.76936,-2.89324,0.71214
559.028,28.1598,-1.77295,-2.8935,0.71175
559.528,28.17512,-1.77253,-2.89473,0.71136
560.028,28.1905,-1.78382,-2.8961,0.71097
560.528,28.2058,-1.78478,-2.89669,0.71058
561.028,28.22117,-1.78089,-2.89936,0.71019
561.528,28.23648,-1.78064,-2.90072,0.7098
562.028,28.2518,-1.78429,-2.90281,0.70941
562.528,28.2672,-1.79625,-2.9043,0.70902
563.028,28.2825,-1.80057,-2.90455,0.70863
563.528,28.2979,-1.80673,-2.90216,0.70825
564.028,28.31328,-1.81099,-2.90054,0.70786
564.528,28.32866,-1.81052,-2.90082,0.70747
565.028,28.34406,-1.82064,-2.90201,0.70708
565.528,28.35942,-1.82905,-2.90252,0.7067
566.028,28.3748,-1.82667,-2.90258,0.70631
566.528,28.39015,-1.83088,-2.90384,0.70592
567.028,28.4055,-1.83718,-2.90381,0.70554
567.528,28.4209,-1.84192,-2.90383,0.70515
568.028,28.43627,-1.84343,-2.90393,0.70477
568.528,28.45168,-1.84773,-2.90519,0.70438
569.028,28.4671,-1.85124,-2.90584,0.704
569.528,28.48252,-1.85252,-2.90647,0.70361
570.028,28.4979,-1.8626,-2.90648,0.70323
570.528,28.5133,-1.86686,-2.90662,0.70285
571.028,28.52875,-1.87352,-2.90773,0.70247
571.528,28.5442,-1.87638,-2.90777,0.70208
572.028,28.55957,-1.87753,-2.90778,0.7017
572.528,28.575,-1.88732,-2.90783,0.70132
573.028,28.5905,-1.89725,-2.90924,0.70094
573.528,28.6059,-1.8865,-2.90918,0.70056
574.028,28.6213,-1.89586,-2.90967,0.70017
574.528,28.63669,-1.89622,-2.91074,0.69979
575.028,28.65216,-1.90332,-2.91082,0.69941
575.528,28.66757,-1.91399,-2.91214,0.69903
576.028,28.683,-1.91516,-2.91293,0.69866
576.528,28.69845,-1.91675,-2.91394,0.69828
577.028,28.71392,-1.91632,-2.91496,0.6979
577.528,28.72938,-1.91882,-2.91534,0.69752
578.028,28.74483,-1.93105,-2.91645,0.69714
578.528,28.7603,-1.9306,-2.91678,0.69676
579.028,28.77575,-1.93201,-2.91678,0.69639
579.528,28.7912,-1.93214,-2.91678,0.69601
580.028,28.80668,-1.94237,-2.91678,0.69563
580.528,28.8222,-1.95029,-2.9168,0.69526
581.028,28.8377,-1.95746,-2.91791,0.69488
581.528,28.85316,-1.94758,-2.91808,0.69451
582.028,28.86866,-1.95582,-2.91952,0.69413
582.528,28.8842,-1.95903,-2.91958,0.69376
583.028,28.89968,-1.95847,-2.92025,0.69338
583.528,28.91517,-1.96519,-2.92225,0.69301
584.028,28.9307,-1.9638,-2.92226,0.69263
584.528,28.9462,-1.96594,-2.92228,0.69226
585.028,28.96169,-1.96965,-2.92234,0.69189
585.528,28.9772,-1.97847,-2.92301,0.69152
586.028,28.99274,-1.97882,-2.92215,0.69114
586.528,29.00828,-1.98974,-2.92308,0.69077
587.028,29.02378,-1.99146,-2.92363,0.6904
587.528,29.03932,-1.99557,-2.92471,0.69003
588.028,29.0548,-1.99784,-2.92514,0.68966
588.528,29.0702,-2.00126,-2.92634,0.68929
589.028,29.0856,-2.01308,-2.92678,0.68892
589.528,29.10111,-2.01009,-2.92633,0.68855
590.028,29.1166,-2.00152,-2.9254,0.68818
590.528,29.13215,-2.00864,-2.92561,0.68781
591.028,29.14773,-2.01278,-2.92789,0.68744
591.528,29.1635,-2.01273,-2.92805,0.68708
592.028,29.17918,-2.01071,-2.92808,0.68671
592.528,29.1947,-2.01275,-2.9289,0.68634
593.028,29.2104,-2.01197,-2.92938,0.68597
593.528,29.226,-2.01188,-2.9294,0.68561
594.028,29.24157,-2.02783,-2.9294,0.68524
594.528,29.2572,-2.0325,-2.9293,0.68487
595.028,29.2728,-2.03355,-2.93059,0.68451
595.528,29.2884,-2.02247,-2.93082,0.68414
596.028,29.30398,-2.03597,-2.93074,0.68378
596.528,29.31955,-2.03194,-2.93176,0.68342
597.028,29.3351,-2.0286,-2.93126,0.68305
597.528,29.35071,-2.02391,-2.93081,0.68269
598.028,29.36635,-2.02813,-2.93139,0.68232
598.528,29.38195,-2.02095,-2.93217,0.68196
599.028,29.39753,-2.02942,-2.93389,0.6816
599.528,29.41315,-2.04005,-2.93533,0.68124
600.028,29.42881,-2.04373,-2.93555,0.68088
600.528,29.4444,-2.04664,-2.93673,0.68051
601.028,29.45995,-2.05162,-2.93663,0.68015
601.528,29.4756,-2.05471,-2.93663,0.67979
602.028,29.49118,-2.0558,-2.93663,0.67943
602.528,29.5068,-2.05712,-2.93663,0.67907
603.028,29.52238,-2.06041,-2.93663,0.67871
603.528,29.53803,-2.06472,-2.93665,0.67836
604.028,29.55367,-2.06331,-2.93694,0.678
604.528,29.56928,-2.06152,-2.93805,0.67764
605.028,29.585,-2.06574,-2.93801,0.67728
605.528,29.6006,-2.06452,-2.93877,0.67692
606.028,29.6162,-2.06658,-2.93941,0.67657
606.528,29.63185,-2.07642,-2.93937,0.67621
607.028,29.6475,-2.08002,-2.93937,0.67585
607.528,29.66315,-2.08176,-2.93937,0.6755
608.028,29.67878,-2.08486,-2.93937,0.67514
608.528,29.6944,-2.08307,-2.94025,0.67479
609.028,29.71002,-2.07922,-2.94091,0.67443
609.528,29.7257,-2.07863,-2.94153,0.67408
610.028,29.74127,-2.08182,-2.94372,0.67372
610.528,29.75693,-2.08766,-2.94363,0.67337
611.028,29.77259,-2.09557,-2.94362,0.67302
611.528,29.78827,-2.08728,-2.94416,0.67266
612.028,29.804,-2.09314,-2.94514,0.67231
612.528,29.81959,-2.08917,-2.94538,0.67196
613.028,29.8352,-2.08781,-2.94645,0.67161
613.528,29.85091,-2.08914,-2.94633,0.67126
614.028,29.8666,-2.09501,-2.94522,0.67091
614.528,29.88225,-2.10241,-2.94647,0.67055
615.028,29.8979,-2.09797,-2.94638,0.6702
615.528,29.91364,-2.10254,-2.94641,0.66986
616.028,29.92926,-2.11372,-2.94635,0.66951
616.528,29.94493,-2.11409,-2.94771,0.66916
617.028,29.96064,-2.11029,-2.94784,0.66881
617.528,29.9763,-2.11215,-2.94895,0.66846
618.028,29.9922,-2.11309,-2.94912,0.66811
618.228,29.9985,-2.11581,-2.94912,0.66797