File: 01_Data/MDF/STA/N2/30K_min/MDF_STA_N2_30KData_211012_R3.csv
##Temp./Â°C,Time/min,DSC(subtr.2)/mW,Mass loss(subtr.2)/mg,Sensit./(uV/mW)
49.556,10.01,-0.002171528,-0.01448,1.05401
50.056,10.97822,0.05228421,-0.01673365,1.05402
50.556,11.19011,0.09992643,-0.01688952,1.05403
51.056,11.3298,0.15122,-0.017107,1.05404
51.556,11.4437,0.18754,-0.01571572,1.05405
52.056,11.53946,0.23137,-0.01722534,1.05405
52.556,11.62299,0.26574,-0.01787241,1.05406
53.056,11.69708,0.30411,-0.01660755,1.05406
53.556,11.76569,0.33393,-0.0174673,1.05406
54.056,11.82875,0.36155,-0.01947709,1.05406
54.556,11.88758,0.39351,-0.01514326,1.05406
55.056,11.94298,0.4143,-0.01944324,1.05406
55.556,11.99611,0.45272,-0.01768157,1.05406
56.056,12.04688,0.47994,-0.017832,1.05405
56.556,12.0952,0.50261,-0.01764336,1.05405
57.056,12.1416,0.53169,-0.01812019,1.05404
57.556,12.18641,0.552,-0.01821545,1.05403
58.056,12.22954,0.57647,-0.01841142,1.05402
58.556,12.27188,0.59596,-0.01825055,1.05401
59.056,12.3136,0.61194,-0.01747713,1.054
59.556,12.35404,0.63569,-0.01965709,1.05399
60.056,12.39334,0.6506,-0.02027939,1.05398
60.556,12.4319,0.68217,-0.01926482,1.05396
61.056,12.46991,0.68986,-0.01590193,1.05394
61.556,12.50728,0.70659,-0.01731561,1.05393
62.056,12.5437,0.72998,-0.01918681,1.05391
62.556,12.57968,0.74037,-0.01976231,1.05389
63.056,12.61496,0.7543,-0.01807652,1.05387
63.556,12.64983,0.77309,-0.01886556,1.05384
64.056,12.68426,0.79602,-0.01899481,1.05382
64.556,12.7181,0.80892,-0.01849447,1.0538
65.056,12.75182,0.81937,-0.02063357,1.05377
65.556,12.7849,0.8361,-0.01952452,1.05374
66.056,12.8177,0.85131,-0.01811618,1.05371
66.556,12.8499,0.86956,-0.01874489,1.05368
67.056,12.8821,0.88518,-0.01872377,1.05365
67.556,12.9138,0.90096,-0.01784654,1.05362
68.056,12.9452,0.91101,-0.01845338,1.05359
68.556,12.97605,0.93333,-0.01844862,1.05355
69.056,13.00708,0.94279,-0.01995515,1.05352
69.556,13.0378,0.95011,-0.02251943,1.05348
70.056,13.06842,0.96301,-0.01997581,1.05344
70.556,13.0989,0.9781,-0.01944257,1.0534
71.056,13.12894,0.9913,-0.02135151,1.05336
71.556,13.1587,1.0001,-0.01977706,1.05332
72.056,13.1881,1.0109,-0.02031939,1.05328
72.556,13.21735,1.03433,-0.02036252,1.05324
73.056,13.2464,1.04838,-0.01985009,1.05319
73.556,13.2754,1.05666,-0.01854444,1.05314
74.056,13.30422,1.06627,-0.02029754,1.0531
74.556,13.33281,1.08302,-0.02077856,1.05305
75.056,13.36099,1.09636,-0.02076062,1.053
75.556,13.3888,1.11537,-0.01971747,1.05295
76.056,13.41675,1.12053,-0.0199979,1.0529
76.556,13.44454,1.13589,-0.02225996,1.05284
77.056,13.47219,1.14795,-0.02327386,1.05279
77.556,13.49961,1.1579,-0.0222518,1.05273
78.056,13.52677,1.1681,-0.02263684,1.05268
78.556,13.55381,1.18131,-0.02364968,1.05262
79.056,13.58061,1.19324,-0.02545751,1.05256
79.556,13.6073,1.20968,-0.02348811,1.0525
80.056,13.63381,1.21985,-0.02307804,1.05244
80.556,13.66024,1.23401,-0.02237913,1.05237
81.056,13.68666,1.2426,-0.02227179,1.05231
81.556,13.7129,1.26096,-0.02190542,1.05225
82.056,13.7389,1.27191,-0.02322762,1.05218
82.556,13.7647,1.2784,-0.02363077,1.05211
83.056,13.79018,1.28726,-0.02346393,1.05204
83.556,13.8156,1.29909,-0.02307633,1.05197
84.056,13.8408,1.31818,-0.02449002,1.0519
84.556,13.86589,1.32357,-0.02516471,1.05183
85.056,13.8909,1.33439,-0.02588799,1.05176
85.556,13.91585,1.33601,-0.02551317,1.05168
86.056,13.9404,1.35392,-0.02590361,1.05161
86.556,13.9648,1.36157,-0.02494897,1.05153
87.056,13.98908,1.37061,-0.02544896,1.05146
87.556,14.01321,1.37651,-0.02573758,1.05138
88.056,14.0373,1.3919,-0.02500251,1.0513
88.556,14.06129,1.40699,-0.02628926,1.05122
89.056,14.0851,1.40738,-0.02591513,1.05113
89.556,14.10873,1.4238,-0.02553811,1.05105
90.056,14.1322,1.4226,-0.02644134,1.05097
90.556,14.1556,1.43116,-0.02715874,1.05088
91.056,14.17884,1.44189,-0.02743119,1.05079
91.556,14.202,1.4561,-0.02716165,1.05071
92.056,14.2252,1.46233,-0.02582228,1.05062
92.556,14.24819,1.47032,-0.02621978,1.05053
93.056,14.27108,1.47716,-0.02824462,1.05044
93.556,14.2937,1.48536,-0.02960312,1.05034
94.056,14.31625,1.4904,-0.02857817,1.05025
94.556,14.33864,1.50046,-0.02963913,1.05016
95.056,14.3609,1.50248,-0.02813287,1.05006
95.556,14.3831,1.51081,-0.02794099,1.04996
96.056,14.4053,1.51227,-0.02704473,1.04987
96.556,14.4272,1.51965,-0.0273662,1.04977
97.056,14.44905,1.52562,-0.02897319,1.04967
97.556,14.4709,1.5348,-0.02791021,1.04957
98.056,14.4926,1.53088,-0.02882867,1.04946
98.556,14.51426,1.53705,-0.02843778,1.04936
99.056,14.5357,1.53971,-0.02900312,1.04925
99.556,14.55705,1.54751,-0.02906036,1.04915
100.056,14.57823,1.55023,-0.02994482,1.04904
100.556,14.5994,1.55431,-0.02964536,1.04893
101.056,14.6206,1.55589,-0.03028589,1.04883
101.556,14.6417,1.55281,-0.02907969,1.04872
102.056,14.6627,1.55829,-0.02906961,1.0486
102.556,14.68366,1.56109,-0.02954518,1.04849
103.056,14.7045,1.55687,-0.031069,1.04838
103.556,14.7253,1.57127,-0.0324655,1.04826
104.056,14.746,1.57015,-0.03224105,1.04815
104.556,14.7665,1.57363,-0.03109289,1.04803
105.056,14.78711,1.57992,-0.03073399,1.04791
105.556,14.8076,1.57025,-0.02965725,1.04779
106.056,14.82799,1.57243,-0.03005893,1.04767
106.556,14.8483,1.58066,-0.03134027,1.04755
107.056,14.8686,1.57633,-0.03149278,1.04743
107.556,14.8887,1.58647,-0.03011027,1.04731
108.056,14.9087,1.59098,-0.03142294,1.04718
108.556,14.9287,1.5841,-0.03073995,1.04706
109.056,14.94859,1.58397,-0.03171626,1.04693
109.556,14.96848,1.59197,-0.03180896,1.0468
110.056,14.98831,1.59227,-0.03154897,1.04668
110.556,15.00809,1.59855,-0.03153567,1.04655
111.056,15.02775,1.59696,-0.03162589,1.04642
111.556,15.0474,1.60769,-0.03156772,1.04628
112.056,15.067,1.61554,-0.03157896,1.04615
112.556,15.08663,1.61429,-0.03318121,1.04602
113.056,15.10617,1.61966,-0.0334153,1.04588
113.556,15.1256,1.62952,-0.03347565,1.04575
114.056,15.14499,1.62984,-0.0332582,1.04561
114.556,15.16425,1.63017,-0.03454344,1.04547
115.056,15.1834,1.63223,-0.03296525,1.04533
115.556,15.20255,1.63707,-0.03337963,1.04519
116.056,15.2216,1.64712,-0.03303031,1.04505
116.556,15.2407,1.64095,-0.03302092,1.04491
117.056,15.25983,1.64073,-0.03169884,1.04476
117.556,15.27886,1.65316,-0.03342102,1.04462
118.056,15.2978,1.65459,-0.03400293,1.04447
118.556,15.3167,1.6493,-0.03364363,1.04433
119.056,15.3356,1.65844,-0.03361396,1.04418
119.556,15.35426,1.6531,-0.03202082,1.04403
120.056,15.37297,1.64976,-0.0321517,1.04388
120.556,15.39165,1.64909,-0.03365015,1.04373
121.056,15.41025,1.64661,-0.03323157,1.04358
121.556,15.42879,1.64896,-0.0335673,1.04342
122.056,15.4474,1.65363,-0.03351211,1.04327
122.556,15.46592,1.6508,-0.03458369,1.04311
123.056,15.48434,1.65635,-0.03345907,1.04296
123.556,15.5028,1.6531,-0.03419992,1.0428
124.056,15.5211,1.65848,-0.03499993,1.04264
124.556,15.5394,1.65329,-0.03402173,1.04248
125.056,15.5575,1.65437,-0.03516751,1.04232
125.556,15.5756,1.65073,-0.03515325,1.04216
126.056,15.59371,1.65093,-0.03533379,1.042
126.556,15.6118,1.6545,-0.0348861,1.04184
127.056,15.6298,1.65219,-0.03486977,1.04167
127.556,15.6478,1.65534,-0.03486761,1.04151
128.056,15.6658,1.64929,-0.03483368,1.04134
128.556,15.6837,1.65745,-0.03522633,1.04117
129.056,15.70161,1.65857,-0.03533212,1.041
129.556,15.71943,1.66261,-0.03531521,1.04084
130.056,15.73719,1.66301,-0.03488181,1.04066
130.556,15.755,1.6633,-0.03382916,1.04049
131.056,15.7727,1.65688,-0.03510735,1.04032
131.556,15.79025,1.66504,-0.03423296,1.04015
132.056,15.8078,1.66425,-0.03562399,1.03997
132.556,15.8254,1.66975,-0.03476891,1.0398
133.056,15.84286,1.67044,-0.03458655,1.03962
133.556,15.8604,1.67435,-0.03565197,1.03944
134.056,15.8779,1.66349,-0.03564825,1.03926
134.556,15.8954,1.66808,-0.03558475,1.03909
135.056,15.91276,1.67293,-0.03436029,1.0389
135.556,15.9301,1.67536,-0.03564216,1.03872
136.056,15.9474,1.67513,-0.03563621,1.03854
136.556,15.96459,1.67787,-0.03568388,1.03836
137.056,15.98175,1.67965,-0.03588311,1.03817
137.556,15.99896,1.68519,-0.0372119,1.03799
138.056,16.01608,1.68631,-0.03726708,1.0378
138.556,16.03319,1.68352,-0.03727532,1.03761
139.056,16.0503,1.68116,-0.03572963,1.03742
139.556,16.0673,1.68547,-0.03577414,1.03724
140.056,16.08436,1.6865,-0.0349682,1.03704
140.556,16.1014,1.69832,-0.03444939,1.03685
141.056,16.1183,1.69704,-0.03439647,1.03666
141.556,16.13521,1.69197,-0.03566501,1.03647
142.056,16.15212,1.69299,-0.03513466,1.03627
142.556,16.16895,1.70602,-0.03462409,1.03608
143.056,16.1858,1.71897,-0.03576332,1.03588
143.556,16.20253,1.7099,-0.03594174,1.03568
144.056,16.2193,1.71051,-0.03656912,1.03549
144.556,16.23593,1.72192,-0.03733228,1.03529
145.056,16.25258,1.7124,-0.03729299,1.03509
145.556,16.26925,1.72454,-0.03729111,1.03489
146.056,16.28588,1.72794,-0.03733447,1.03468
146.556,16.30249,1.72412,-0.03637046,1.03448
147.056,16.31908,1.73186,-0.03575965,1.03428
147.556,16.33559,1.73519,-0.03458479,1.03407
148.056,16.3521,1.74021,-0.03430395,1.03387
148.556,16.3686,1.74093,-0.03518887,1.03366
149.056,16.3851,1.7429,-0.03565551,1.03345
149.556,16.40155,1.75213,-0.03564776,1.03324
150.056,16.41801,1.74745,-0.03567594,1.03303
150.556,16.43443,1.75921,-0.03612773,1.03282
151.056,16.45081,1.76447,-0.03591184,1.03261
151.556,16.46714,1.76466,-0.03606629,1.0324
152.056,16.48346,1.76713,-0.0370471,1.03218
152.556,16.49971,1.76964,-0.03632383,1.03197
153.056,16.51601,1.78394,-0.03559768,1.03175
153.556,16.53225,1.77075,-0.03563649,1.03154
154.056,16.54842,1.79534,-0.0356415,1.03132
154.556,16.56466,1.78368,-0.03566132,1.0311
155.056,16.58066,1.79293,-0.03567932,1.03088
155.556,16.5967,1.79872,-0.03702667,1.03066
156.056,16.61285,1.79687,-0.03579405,1.03044
156.556,16.62895,1.79682,-0.03565198,1.03022
157.056,16.64507,1.80606,-0.03573408,1.03
157.556,16.6611,1.81175,-0.03500652,1.02977
158.056,16.6773,1.81543,-0.03569002,1.02955
158.556,16.69335,1.82402,-0.03567587,1.02932
159.056,16.70932,1.82765,-0.0369168,1.0291
159.556,16.72532,1.82794,-0.03693661,1.02887
160.056,16.74125,1.83217,-0.03695932,1.02864
160.556,16.75715,1.839,-0.03695367,1.02841
161.056,16.7731,1.8387,-0.03689976,1.02818
161.556,16.78896,1.84351,-0.03785604,1.02795
162.056,16.80481,1.84902,-0.03828694,1.02772
162.556,16.82068,1.85715,-0.038281,1.02749
163.056,16.83655,1.86741,-0.03825428,1.02725
163.556,16.8524,1.86789,-0.03809499,1.02702
164.056,16.86823,1.86997,-0.03697028,1.02678
164.556,16.88406,1.8786,-0.03679058,1.02655
165.056,16.8998,1.88656,-0.03543894,1.02631
165.556,16.91554,1.89303,-0.03546083,1.02607
166.056,16.93129,1.89582,-0.03547738,1.02583
166.556,16.947,1.89784,-0.03660938,1.02559
167.056,16.96265,1.90875,-0.03675608,1.02535
167.556,16.97821,1.91224,-0.03474858,1.02511
168.056,16.99382,1.91736,-0.0331804,1.02487
168.556,17.00936,1.92111,-0.03230943,1.02462
169.056,17.02487,1.92179,-0.03305967,1.02438
169.556,17.04035,1.91973,-0.03592479,1.02413
170.056,17.0559,1.92362,-0.03802815,1.02389
170.556,17.07149,1.92479,-0.03967835,1.02364
171.056,17.08703,1.93655,-0.04116589,1.02339
171.556,17.10254,1.94365,-0.03997001,1.02314
172.056,17.1181,1.93739,-0.03905829,1.02289
172.556,17.1336,1.95457,-0.03758084,1.02264
173.056,17.1491,1.95878,-0.03803905,1.02239
173.556,17.1645,1.95377,-0.03790813,1.02214
174.056,17.1799,1.95971,-0.03772948,1.02189
174.556,17.19535,1.97671,-0.03772782,1.02163
175.056,17.21075,1.98031,-0.03772989,1.02138
175.556,17.2261,1.98089,-0.03773143,1.02112
176.056,17.24147,1.98429,-0.03773535,1.02086
176.556,17.25677,1.98624,-0.03755917,1.02061
177.056,17.27209,1.99268,-0.03716149,1.02035
177.556,17.2873,1.99976,-0.03777192,1.02009
178.056,17.30248,2.01251,-0.03772697,1.01983
178.556,17.31765,2.01369,-0.03778349,1.01957
179.056,17.33285,2.01761,-0.03691909,1.01931
179.556,17.34802,2.02904,-0.03673373,1.01904
180.056,17.3632,2.02879,-0.03673958,1.01878
180.556,17.37836,2.03301,-0.03673709,1.01852
181.056,17.39353,2.03316,-0.03669809,1.01825
181.556,17.40871,2.05112,-0.03730829,1.01799
182.056,17.4238,2.06096,-0.03844118,1.01772
182.556,17.43893,2.06514,-0.03937137,1.01745
183.056,17.454,2.05954,-0.04019672,1.01718
183.556,17.46902,2.07045,-0.04093087,1.01691
184.056,17.48404,2.07626,-0.04088626,1.01664
184.556,17.499,2.08237,-0.03955419,1.01637
185.056,17.51395,2.08848,-0.03950908,1.0161
185.556,17.52891,2.0865,-0.03947845,1.01583
186.056,17.5439,2.10416,-0.03947955,1.01555
186.556,17.55883,2.11157,-0.03947973,1.01528
187.056,17.57375,2.10683,-0.0394743,1.01501
187.556,17.58871,2.11949,-0.039497,1.01473
188.056,17.60369,2.12385,-0.03982236,1.01445
188.556,17.6186,2.12451,-0.04049855,1.01418
189.056,17.63344,2.13068,-0.04047766,1.0139
189.556,17.64828,2.13807,-0.04046931,1.01362
190.056,17.66314,2.14378,-0.04046974,1.01334
190.556,17.67793,2.15052,-0.04047056,1.01306
191.056,17.69274,2.15708,-0.04047509,1.01278
191.556,17.7075,2.168,-0.04043904,1.01249
192.056,17.7224,2.16397,-0.04083787,1.01221
192.556,17.7371,2.17635,-0.04074524,1.01193
193.056,17.75186,2.18715,-0.04161689,1.01164
193.556,17.76663,2.19987,-0.04203137,1.01136
194.056,17.78134,2.19179,-0.04075329,1.01107
194.556,17.79606,2.20072,-0.04082911,1.01078
195.056,17.8108,2.21839,-0.04081046,1.0105
195.556,17.8255,2.2395,-0.04081593,1.01021
196.056,17.84013,2.22845,-0.04046886,1.00992
196.556,17.8548,2.23013,-0.03945063,1.00963
197.056,17.8694,2.24466,-0.04076511,1.00934
197.556,17.88401,2.25254,-0.04077695,1.00905
198.056,17.89857,2.26753,-0.04079733,1.00875
198.556,17.91318,2.27715,-0.04145147,1.00846
199.056,17.92782,2.28198,-0.0421612,1.00817
199.556,17.94246,2.29049,-0.04212343,1.00787
200.056,17.95704,2.28789,-0.04225129,1.00757
200.556,17.97162,2.30312,-0.04349804,1.00728
201.056,17.98621,2.31151,-0.04341017,1.00698
201.556,18.00071,2.31703,-0.0434293,1.00668
202.056,18.0152,2.32235,-0.04343046,1.00638
202.556,18.02968,2.32636,-0.04342999,1.00609
203.056,18.0442,2.33925,-0.04342999,1.00579
203.556,18.05871,2.34485,-0.04343,1.00548
204.056,18.0732,2.35585,-0.04343,1.00518
204.556,18.08773,2.36746,-0.04343,1.00488
205.056,18.10224,2.3679,-0.04342999,1.00458
205.556,18.11674,2.37425,-0.04343008,1.00427
206.056,18.13126,2.38531,-0.04343025,1.00397
206.556,18.14569,2.38996,-0.04342605,1.00366
207.056,18.16018,2.39926,-0.04377655,1.00336
207.556,18.17461,2.40941,-0.04496572,1.00305
208.056,18.18904,2.4145,-0.04509791,1.00274
208.556,18.20339,2.42494,-0.0464839,1.00243
209.056,18.21777,2.43086,-0.04685146,1.00213
209.556,18.23216,2.43411,-0.04786575,1.00182
210.056,18.24648,2.45519,-0.04785601,1.00151
210.556,18.26081,2.46157,-0.04709582,1.00119
211.056,18.2752,2.47091,-0.04634336,1.00088
211.556,18.28951,2.47729,-0.0463996,1.00057
212.056,18.30385,2.48033,-0.04632732,1.00026
212.556,18.31816,2.48498,-0.04720713,0.99994
213.056,18.3325,2.49272,-0.04772362,0.99963
213.556,18.34686,2.50867,-0.04765827,0.99931
214.056,18.36114,2.50509,-0.04846516,0.999
214.556,18.3754,2.51377,-0.04907563,0.99868
215.056,18.3897,2.51795,-0.04902934,0.99836
215.556,18.404,2.53361,-0.0490305,0.99804
216.056,18.41825,2.54343,-0.04902483,0.99772
216.556,18.4325,2.54963,-0.04898132,0.9974
217.056,18.44678,2.55912,-0.04969729,0.99708
217.556,18.4611,2.56141,-0.05034832,0.99676
218.056,18.47535,2.56683,-0.05024441,0.99644
218.556,18.48961,2.57406,-0.05129655,0.99612
219.056,18.50388,2.58068,-0.05167752,0.99579
219.556,18.51815,2.58844,-0.05162022,0.99547
220.056,18.53239,2.59421,-0.05250592,0.99514
220.556,18.54661,2.59963,-0.05301004,0.99482
221.056,18.56079,2.60457,-0.05298037,0.99449
221.556,18.575,2.62115,-0.05366167,0.99417
222.056,18.58915,2.62699,-0.05396937,0.99384
222.556,18.60332,2.62231,-0.0539644,0.99351
223.056,18.61746,2.63522,-0.05395935,0.99318
223.556,18.6316,2.64748,-0.05395973,0.99285
224.056,18.64575,2.65456,-0.05396253,0.99252
224.556,18.65992,2.65669,-0.05395957,0.99219
225.056,18.674,2.66476,-0.05385405,0.99186
225.556,18.68818,2.66019,-0.05505696,0.99153
226.056,18.70225,2.67434,-0.05619338,0.99119
226.556,18.7164,2.68612,-0.05725397,0.99086
227.056,18.73047,2.68203,-0.05717115,0.99053
227.556,18.74458,2.69574,-0.05837693,0.99019
228.056,18.7587,2.69539,-0.05847044,0.98986
228.556,18.77281,2.70128,-0.05858539,0.98952
229.056,18.7869,2.70904,-0.0596328,0.98918
229.556,18.80101,2.70955,-0.05975403,0.98885
230.056,18.81506,2.72011,-0.06028616,0.98851
230.556,18.82911,2.72098,-0.06131135,0.98817
231.056,18.84319,2.73449,-0.06156084,0.98783
231.556,18.85715,2.73314,-0.06269259,0.98749
232.056,18.87118,2.73585,-0.06274373,0.98715
232.556,18.88523,2.73855,-0.06362027,0.98681
233.056,18.89929,2.74178,-0.06406155,0.98647
233.556,18.91331,2.74678,-0.06405073,0.98612
234.056,18.92728,2.74991,-0.06408094,0.98578
234.556,18.94136,2.74816,-0.06465283,0.98544
235.056,18.9554,2.75451,-0.0670915,0.98509
235.556,18.96935,2.75585,-0.06826518,0.98475
236.056,18.9833,2.76088,-0.06901618,0.9844
236.556,18.99728,2.77081,-0.07036218,0.98405
237.056,19.01126,2.76746,-0.06941587,0.98371
237.556,19.0252,2.77529,-0.07056161,0.98336
238.056,19.03913,2.77713,-0.07060009,0.98301
238.556,19.0531,2.78061,-0.07181632,0.98266
239.056,19.06707,2.78122,-0.07195478,0.98231
239.556,19.08101,2.77579,-0.07195252,0.98196
240.056,19.09497,2.77233,-0.07287166,0.98161
240.556,19.1089,2.77136,-0.0733738,0.98126
241.056,19.12285,2.7839,-0.07449911,0.98091
241.556,19.1368,2.79653,-0.07508772,0.98055
242.056,19.15072,2.79144,-0.07631551,0.9802
242.556,19.16465,2.77871,-0.07708761,0.97985
243.056,19.1786,2.78563,-0.07846993,0.97949
243.556,19.19255,2.7898,-0.07922873,0.97914
244.056,19.20647,2.78494,-0.08021276,0.97878
244.556,19.22041,2.78292,-0.08051104,0.97843
245.056,19.23433,2.78199,-0.08100992,0.97807
245.556,19.24821,2.78615,-0.08121517,0.97771
246.056,19.26205,2.78896,-0.08146384,0.97735
246.556,19.27593,2.78611,-0.08398182,0.977
247.056,19.28979,2.78177,-0.0857477,0.97664
247.556,19.3036,2.7883,-0.08665153,0.97628
248.056,19.3174,2.7829,-0.08800807,0.97592
248.556,19.33126,2.7816,-0.08819948,0.97555
249.056,19.34509,2.78353,-0.08948243,0.97519
249.556,19.3589,2.77742,-0.08878683,0.97483
250.056,19.37278,2.78543,-0.08978972,0.97447
250.556,19.38665,2.78859,-0.09106307,0.97411
251.056,19.40044,2.78773,-0.09219441,0.97374
251.556,19.41429,2.78669,-0.09411875,0.97338
252.056,19.42812,2.78275,-0.09601625,0.97301
252.556,19.4419,2.77958,-0.09745578,0.97265
253.056,19.4557,2.76772,-0.09925047,0.97228
253.556,19.46946,2.76488,-0.10053,0.97191
254.056,19.48328,2.76422,-0.10103,0.97155
254.556,19.49708,2.76415,-0.10116,0.97118
255.056,19.5108,2.76288,-0.10238,0.97081
255.556,19.52466,2.75045,-0.10233,0.97044
256.056,19.5384,2.743,-0.10393,0.97007
256.556,19.55219,2.74375,-0.10464,0.9697
257.056,19.56596,2.74067,-0.1066,0.96933
257.556,19.5797,2.74075,-0.10953,0.96896
258.056,19.59348,2.74943,-0.11033,0.96859
258.556,19.60728,2.74916,-0.11119,0.96822
259.056,19.621,2.73875,-0.11252,0.96784
259.556,19.63481,2.72444,-0.11327,0.96747
260.056,19.64857,2.71471,-0.11475,0.9671
260.556,19.66232,2.70991,-0.11646,0.96672
261.056,19.6761,2.70842,-0.11855,0.96635
261.556,19.6898,2.71699,-0.12019,0.96597
262.056,19.70349,2.7061,-0.12247,0.9656
262.556,19.7172,2.69446,-0.12412,0.96522
263.056,19.73094,2.69106,-0.12619,0.96484
263.556,19.74468,2.69221,-0.12728,0.96447
264.056,19.75839,2.68241,-0.12953,0.96409
264.556,19.77211,2.67563,-0.13151,0.96371
265.056,19.78585,2.66785,-0.13309,0.96333
265.556,19.79952,2.6669,-0.1335,0.96295
266.056,19.8133,2.66072,-0.13414,0.96257
266.556,19.82698,2.65028,-0.13504,0.96219
267.056,19.8407,2.64035,-0.13527,0.96181
267.556,19.85436,2.64027,-0.13651,0.96143
268.056,19.86805,2.63371,-0.13902,0.96105
268.556,19.88178,2.61758,-0.14071,0.96066
269.056,19.89552,2.61795,-0.14359,0.96028
269.556,19.90919,2.60883,-0.14598,0.9599
270.056,19.92289,2.6033,-0.14802,0.95951
270.556,19.9366,2.59599,-0.14935,0.95913
271.056,19.95034,2.58829,-0.15185,0.95874
271.556,19.964,2.57131,-0.15399,0.95836
272.056,19.97768,2.56815,-0.15617,0.95797
272.556,19.99135,2.54998,-0.15844,0.95758
273.056,20.00499,2.54105,-0.16102,0.9572
273.556,20.01866,2.52966,-0.16517,0.95681
274.056,20.03227,2.52203,-0.16677,0.95642
274.556,20.04597,2.51133,-0.16842,0.95603
275.056,20.0596,2.50097,-0.16975,0.95565
275.556,20.07328,2.48206,-0.17121,0.95526
276.056,20.08697,2.47328,-0.17403,0.95487
276.556,20.10064,2.46146,-0.1763,0.95448
277.056,20.1143,2.45259,-0.17951,0.95408
277.556,20.12799,2.43749,-0.18123,0.95369
278.056,20.1416,2.42427,-0.18383,0.9533
278.556,20.15525,2.41064,-0.18674,0.95291
279.056,20.1689,2.39346,-0.18928,0.95252
279.556,20.1825,2.37236,-0.19222,0.95212
280.056,20.19613,2.34733,-0.19412,0.95173
280.556,20.20978,2.3347,-0.19673,0.95134
281.056,20.22342,2.31941,-0.1984,0.95094
281.556,20.23708,2.30447,-0.20157,0.95055
282.056,20.25072,2.28722,-0.20397,0.95015
282.556,20.26435,2.27092,-0.20748,0.94976
283.056,20.27797,2.24416,-0.21,0.94936
283.556,20.29159,2.21369,-0.21395,0.94896
284.056,20.3052,2.20162,-0.2176,0.94856
284.556,20.31883,2.18687,-0.22018,0.94817
285.056,20.33245,2.16389,-0.22319,0.94777
285.556,20.34609,2.13824,-0.22549,0.94737
286.056,20.35962,2.11897,-0.22836,0.94697
286.556,20.37322,2.08368,-0.23252,0.94657
287.056,20.38683,2.06591,-0.23607,0.94617
287.556,20.4004,2.05247,-0.24046,0.94577
288.056,20.41406,2.03264,-0.24518,0.94537
288.556,20.42769,2.00214,-0.24937,0.94497
289.056,20.44134,1.97243,-0.25337,0.94457
289.556,20.45506,1.95451,-0.25733,0.94417
290.056,20.46868,1.91408,-0.26008,0.94376
290.556,20.4823,1.8812,-0.26379,0.94336
291.056,20.49597,1.85813,-0.26786,0.94296
291.556,20.50955,1.83087,-0.27165,0.94256
292.056,20.52313,1.81463,-0.27675,0.94215
292.556,20.5367,1.77925,-0.28128,0.94175
293.056,20.5503,1.75674,-0.28448,0.94134
293.556,20.5639,1.73368,-0.28827,0.94094
294.056,20.57745,1.6853,-0.29176,0.94053
294.556,20.59102,1.6446,-0.2955,0.94012
295.056,20.6046,1.62069,-0.30097,0.93972
295.556,20.6182,1.5957,-0.3059,0.93931
296.056,20.63179,1.57616,-0.31077,0.9389
296.556,20.64535,1.55279,-0.31627,0.9385
297.056,20.65894,1.50963,-0.32024,0.93809
297.556,20.67253,1.47981,-0.32411,0.93768
298.056,20.6861,1.45166,-0.32891,0.93727
298.556,20.69971,1.41371,-0.33346,0.93686
299.056,20.7133,1.37891,-0.33846,0.93645
299.556,20.7269,1.34563,-0.34462,0.93604
300.056,20.7405,1.32383,-0.34928,0.93563
300.556,20.7541,1.28247,-0.35397,0.93522
301.056,20.76761,1.24916,-0.3596,0.93481
301.556,20.78117,1.21299,-0.36385,0.9344
302.056,20.7947,1.18665,-0.36868,0.93399
302.556,20.80828,1.16833,-0.37457,0.93358
303.056,20.8218,1.13909,-0.37861,0.93316
303.556,20.8354,1.11004,-0.3829,0.93275
304.056,20.84899,1.08303,-0.38835,0.93234
304.556,20.86255,1.05063,-0.39278,0.93192
305.056,20.87612,1.02824,-0.39827,0.93151
305.556,20.88968,1.00364,-0.4058,0.93109
306.056,20.90325,0.9779,-0.41078,0.93068
306.556,20.91682,0.9495,-0.41625,0.93026
307.056,20.93037,0.91954,-0.42277,0.92985
307.556,20.9439,0.89004,-0.42791,0.92943
308.056,20.9575,0.87482,-0.43429,0.92902
308.556,20.97106,0.84786,-0.44094,0.9286
309.056,20.98466,0.82995,-0.44602,0.92818
309.556,20.99822,0.81017,-0.4509,0.92777
310.056,21.0118,0.7813,-0.45685,0.92735
310.556,21.02535,0.76574,-0.46122,0.92693
311.056,21.03895,0.75062,-0.46647,0.92651
311.556,21.0525,0.73143,-0.47266,0.92609
312.056,21.06609,0.69679,-0.47795,0.92568
312.556,21.07961,0.67582,-0.48469,0.92526
313.056,21.09314,0.66554,-0.49209,0.92484
313.556,21.10669,0.6537,-0.49737,0.92442
314.056,21.12025,0.63892,-0.50359,0.924
314.556,21.13381,0.62547,-0.51017,0.92358
315.056,21.14736,0.6074,-0.51555,0.92316
315.556,21.161,0.59318,-0.52211,0.92273
316.056,21.17459,0.57495,-0.52889,0.92231
316.556,21.1882,0.56612,-0.53399,0.92189
317.056,21.20176,0.55648,-0.53989,0.92147
317.556,21.2153,0.54431,-0.54633,0.92105
318.056,21.22891,0.53397,-0.55208,0.92062
318.556,21.2425,0.53407,-0.55932,0.9202
319.056,21.25602,0.52451,-0.56669,0.91978
319.556,21.26963,0.51417,-0.57282,0.91935
320.056,21.2832,0.49904,-0.57996,0.91893
320.556,21.29674,0.49849,-0.58692,0.9185
321.056,21.31028,0.50118,-0.5931,0.91808
321.556,21.32387,0.50263,-0.6005,0.91766
322.056,21.3374,0.49676,-0.60787,0.91723
322.556,21.351,0.48456,-0.61382,0.9168
323.056,21.36456,0.48385,-0.62074,0.91638
323.556,21.37813,0.48645,-0.62717,0.91595
324.056,21.39176,0.48552,-0.63355,0.91553
324.556,21.40535,0.48203,-0.64141,0.9151
325.056,21.41892,0.49179,-0.64771,0.91467
325.556,21.4325,0.50198,-0.65412,0.91425
326.056,21.44613,0.50338,-0.66241,0.91382
326.556,21.45975,0.50206,-0.66941,0.91339
327.056,21.47335,0.49664,-0.67666,0.91296
327.556,21.4869,0.49907,-0.68498,0.91253
328.056,21.5005,0.51834,-0.6907,0.91211
328.556,21.51417,0.52621,-0.6968,0.91168
329.056,21.52778,0.53361,-0.70383,0.91125
329.556,21.54133,0.5468,-0.71018,0.91082
330.056,21.55495,0.55375,-0.71753,0.91039
330.556,21.56859,0.55799,-0.72686,0.90996
331.056,21.58223,0.57351,-0.73396,0.90953
331.556,21.59581,0.58869,-0.74185,0.9091
332.056,21.60942,0.60213,-0.75102,0.90867
332.556,21.62304,0.61767,-0.75728,0.90824
333.056,21.63664,0.62613,-0.76435,0.9078
333.556,21.65025,0.63777,-0.77255,0.90737
334.056,21.66386,0.6695,-0.77872,0.90694
334.556,21.67749,0.68692,-0.78636,0.90651
335.056,21.69112,0.70039,-0.7961,0.90608
335.556,21.7047,0.71955,-0.80264,0.90564
336.056,21.7183,0.73837,-0.81027,0.90521
336.556,21.73184,0.75696,-0.81903,0.90478
337.056,21.74546,0.77591,-0.82561,0.90435
337.556,21.7591,0.79631,-0.83405,0.90391
338.056,21.77272,0.81875,-0.84384,0.90348
338.556,21.78642,0.84159,-0.85089,0.90304
339.056,21.80007,0.87582,-0.85944,0.90261
339.556,21.81385,0.89428,-0.86948,0.90218
340.056,21.8276,0.92224,-0.87733,0.90174
340.556,21.8412,0.92887,-0.88752,0.90131
341.056,21.85489,0.96021,-0.89624,0.90087
341.556,21.86854,0.99279,-0.90282,0.90044
342.056,21.88216,1.01435,-0.91089,0.9
342.556,21.89584,1.03361,-0.91919,0.89956
343.056,21.90948,1.05694,-0.92642,0.89913
343.556,21.92313,1.09454,-0.93592,0.89869
344.056,21.93679,1.11895,-0.94509,0.89826
344.556,21.95045,1.14812,-0.95334,0.89782
345.056,21.96414,1.17048,-0.96267,0.89738
345.556,21.97781,1.1932,-0.97133,0.89695
346.056,21.99147,1.22917,-0.97919,0.89651
346.556,22.00516,1.25374,-0.98896,0.89607
347.056,22.0188,1.2794,-0.9973,0.89563
347.556,22.0325,1.30913,-1.00577,0.8952
348.056,22.04615,1.34101,-1.01713,0.89476
348.556,22.0598,1.37474,-1.02677,0.89432
349.056,22.0735,1.40405,-1.03613,0.89388
349.556,22.08717,1.43133,-1.04712,0.89344
350.056,22.10088,1.46704,-1.05548,0.893
350.556,22.11463,1.48957,-1.06505,0.89256
351.056,22.12835,1.52952,-1.07654,0.89212
351.556,22.142,1.5569,-1.08479,0.89169
352.056,22.15576,1.58608,-1.09393,0.89125
352.556,22.16951,1.61252,-1.10518,0.89081
353.056,22.1832,1.64542,-1.11315,0.89037
353.556,22.19691,1.67373,-1.12228,0.88993
354.056,22.2106,1.70065,-1.13418,0.88949
354.556,22.2243,1.73666,-1.14318,0.88904
355.056,22.23809,1.76872,-1.1543,0.8886
355.556,22.25175,1.80727,-1.1671,0.88816
356.056,22.26539,1.83335,-1.17622,0.88772
356.556,22.2791,1.87368,-1.18692,0.88728
357.056,22.2928,1.9164,-1.19895,0.88684
357.556,22.30658,1.95148,-1.20807,0.8864
358.056,22.32026,1.98141,-1.21929,0.88596
358.556,22.33398,2.02397,-1.23132,0.88551
359.056,22.34781,2.051,-1.24085,0.88507
359.556,22.36158,2.09097,-1.25298,0.88463
360.056,22.37535,2.13877,-1.26512,0.88419
360.556,22.38914,2.17097,-1.27577,0.88374
361.056,22.40292,2.20818,-1.28912,0.8833
361.556,22.41668,2.25444,-1.30156,0.88286
362.056,22.43042,2.28417,-1.31209,0.88242
362.556,22.44418,2.32215,-1.32513,0.88197
363.056,22.4579,2.36627,-1.33663,0.88153
363.556,22.47168,2.39975,-1.34777,0.88109
364.056,22.48541,2.4446,-1.36221,0.88064
364.556,22.49921,2.48995,-1.37504,0.8802
365.056,22.51299,2.53976,-1.38781,0.87976
365.556,22.52678,2.57721,-1.40284,0.87931
366.056,22.54056,2.61438,-1.41346,0.87887
366.556,22.55432,2.65291,-1.42381,0.87842
367.056,22.56811,2.68823,-1.43715,0.87798
367.556,22.58186,2.73657,-1.44869,0.87753
368.056,22.59562,2.78357,-1.46249,0.87709
368.556,22.6094,2.83262,-1.47996,0.87664
369.056,22.6232,2.88239,-1.49271,0.8762
369.556,22.63694,2.91595,-1.50732,0.87575
370.056,22.6508,2.96126,-1.52467,0.87531
370.556,22.66461,3.00655,-1.53694,0.87486
371.056,22.67844,3.0489,-1.55134,0.87442
371.556,22.69227,3.09672,-1.56711,0.87397
372.056,22.70607,3.13452,-1.57972,0.87353
372.556,22.71987,3.17173,-1.59565,0.87308
373.056,22.73369,3.21111,-1.61201,0.87264
373.556,22.74745,3.24984,-1.62498,0.87219
374.056,22.76127,3.29523,-1.64108,0.87174
374.556,22.7751,3.32649,-1.6582,0.8713
375.056,22.78895,3.35961,-1.67248,0.87085
375.556,22.8028,3.39157,-1.69026,0.8704
376.056,22.8167,3.43512,-1.70719,0.86996
376.556,22.83052,3.47146,-1.72202,0.86951
377.056,22.84434,3.4876,-1.73947,0.86906
377.556,22.85815,3.52358,-1.75493,0.86862
378.056,22.872,3.5554,-1.76996,0.86817
378.556,22.88587,3.5815,-1.78788,0.86772
379.056,22.89979,3.59522,-1.80281,0.86728
379.556,22.9136,3.60968,-1.81823,0.86683
380.056,22.92754,3.63116,-1.83783,0.86638
380.556,22.94144,3.64065,-1.8534,0.86594
381.056,22.9554,3.65338,-1.87046,0.86549
381.556,22.96929,3.65905,-1.89084,0.86504
382.056,22.98315,3.66129,-1.90541,0.86459
382.556,22.99707,3.65087,-1.92194,0.86414
383.056,23.01098,3.64721,-1.9413,0.8637
383.556,23.02485,3.64918,-1.95571,0.86325
384.056,23.0387,3.63493,-1.97387,0.8628
384.556,23.05264,3.61084,-1.99493,0.86235
385.056,23.06655,3.59047,-2.01129,0.86191
385.556,23.08044,3.55483,-2.02916,0.86146
386.056,23.09433,3.52101,-2.04717,0.86101
386.556,23.10819,3.46441,-2.06176,0.86056
387.056,23.1222,3.42268,-2.08061,0.86011
387.556,23.13616,3.37295,-2.09842,0.85966
388.056,23.15011,3.32217,-2.11301,0.85922
388.556,23.1641,3.24357,-2.13105,0.85877
389.056,23.17811,3.17441,-2.14676,0.85832
389.556,23.19214,3.08051,-2.16203,0.85787
390.056,23.20615,2.99526,-2.18152,0.85742
390.556,23.22016,2.903,-2.19761,0.85697
391.056,23.23418,2.80636,-2.21386,0.85652
391.556,23.24819,2.6992,-2.23176,0.85607
392.056,23.2622,2.58147,-2.24395,0.85563
392.556,23.2762,2.4538,-2.25759,0.85518
393.056,23.29026,2.32189,-2.27451,0.85473
393.556,23.3043,2.18254,-2.28728,0.85428
394.056,23.31829,2.04334,-2.30226,0.85383
394.556,23.33236,1.896,-2.31823,0.85338
395.056,23.3464,1.73931,-2.3288,0.85293
395.556,23.36045,1.5725,-2.34105,0.85248
396.056,23.3745,1.41461,-2.35425,0.85203
396.556,23.38855,1.24364,-2.36394,0.85158
397.056,23.40266,1.07382,-2.37513,0.85113
397.556,23.4167,0.90268,-2.38563,0.85068
398.056,23.43079,0.73717,-2.39418,0.85023
398.556,23.44489,0.56669,-2.40463,0.84979
399.056,23.45901,0.40888,-2.41347,0.84934
399.556,23.4731,0.24786,-2.42151,0.84889
400.056,23.48728,0.09056075,-2.43049,0.84844
400.556,23.5014,-0.04597816,-2.43695,0.84799
401.056,23.51555,-0.19691,-2.44404,0.84754
401.556,23.5297,-0.33982,-2.45148,0.84709
402.056,23.54385,-0.46398,-2.45567,0.84664
402.556,23.55797,-0.59345,-2.46019,0.84619
403.056,23.57209,-0.71062,-2.46529,0.84574
403.556,23.58618,-0.80688,-2.46916,0.84529
404.056,23.60031,-0.91873,-2.47375,0.84484
404.556,23.61444,-1.00461,-2.47778,0.84439
405.056,23.62859,-1.09231,-2.4806,0.84394
405.556,23.64274,-1.18206,-2.48355,0.84349
406.056,23.6569,-1.26254,-2.48636,0.84304
406.556,23.67108,-1.32811,-2.48939,0.84259
407.056,23.68522,-1.3864,-2.49249,0.84214
407.556,23.69941,-1.45238,-2.49653,0.84169
408.056,23.71356,-1.5068,-2.49863,0.84124
408.556,23.72775,-1.55193,-2.50137,0.84079
409.056,23.74188,-1.59762,-2.50264,0.84034
409.556,23.75606,-1.65717,-2.50465,0.83989
410.056,23.77025,-1.69387,-2.50702,0.83944
410.556,23.78439,-1.74352,-2.5086,0.83899
411.056,23.79854,-1.77939,-2.51097,0.83854
411.556,23.81269,-1.81362,-2.51288,0.83809
412.056,23.82686,-1.84014,-2.51491,0.83765
412.556,23.84101,-1.87468,-2.51645,0.8372
413.056,23.85516,-1.91043,-2.51808,0.83675
413.556,23.8693,-1.93622,-2.52016,0.8363
414.056,23.8835,-1.96963,-2.52141,0.83585
414.556,23.89764,-1.99672,-2.52384,0.8354
415.056,23.9118,-2.01557,-2.52572,0.83495
415.556,23.92601,-2.03977,-2.52767,0.8345
416.056,23.94021,-2.06396,-2.52917,0.83405
416.556,23.9544,-2.09166,-2.53094,0.8336
417.056,23.96861,-2.10195,-2.53314,0.83315
417.556,23.98284,-2.13758,-2.53423,0.8327
418.056,23.99705,-2.1535,-2.5356,0.83225
418.556,24.01125,-2.17405,-2.53703,0.8318
419.056,24.02544,-2.19531,-2.53835,0.83135
419.556,24.03964,-2.21603,-2.53985,0.8309
420.056,24.0538,-2.23492,-2.54159,0.83045
420.556,24.06803,-2.24993,-2.54307,0.83001
421.056,24.08227,-2.26337,-2.54425,0.82956
421.556,24.0965,-2.28311,-2.54588,0.82911
422.056,24.11071,-2.30257,-2.54788,0.82866
422.556,24.12494,-2.31677,-2.54979,0.82821
423.056,24.13919,-2.33089,-2.55174,0.82776
423.556,24.15348,-2.34788,-2.55423,0.82731
424.056,24.16769,-2.37068,-2.55563,0.82686
424.556,24.1819,-2.38635,-2.55706,0.82641
425.056,24.19621,-2.40229,-2.55716,0.82596
425.556,24.2105,-2.41807,-2.55926,0.82552
426.056,24.22476,-2.43122,-2.55965,0.82507
426.556,24.23902,-2.45226,-2.5612,0.82462
427.056,24.25315,-2.45344,-2.5623,0.82417
427.556,24.26744,-2.46716,-2.56476,0.82372
428.056,24.28173,-2.48146,-2.56713,0.82327
428.556,24.29599,-2.49076,-2.56946,0.82283
429.056,24.31028,-2.50333,-2.57206,0.82238
429.556,24.32456,-2.52192,-2.57301,0.82193
430.056,24.33894,-2.52666,-2.57374,0.82148
430.556,24.35325,-2.54188,-2.57532,0.82103
431.056,24.36755,-2.55401,-2.57667,0.82058
431.556,24.38189,-2.56279,-2.57772,0.82014
432.056,24.39624,-2.57117,-2.57922,0.81969
432.556,24.41055,-2.58188,-2.58085,0.81924
433.056,24.42493,-2.59858,-2.58232,0.81879
433.556,24.43923,-2.6049,-2.58318,0.81835
434.056,24.45359,-2.60567,-2.58468,0.8179
434.556,24.46795,-2.62079,-2.58614,0.81745
435.056,24.4823,-2.63089,-2.58699,0.817
435.556,24.4967,-2.64364,-2.5882,0.81656
436.056,24.511,-2.65052,-2.58997,0.81611
436.556,24.5254,-2.65848,-2.59057,0.81566
437.056,24.53974,-2.66628,-2.59174,0.81521
437.556,24.55405,-2.66882,-2.59419,0.81477
438.056,24.5684,-2.67209,-2.5963,0.81432
438.556,24.58276,-2.67451,-2.59831,0.81387
439.056,24.59713,-2.68421,-2.60072,0.81343
439.556,24.6115,-2.68765,-2.60288,0.81298
440.056,24.62591,-2.69061,-2.60436,0.81253
440.556,24.6403,-2.69444,-2.6054,0.81209
441.056,24.6546,-2.69971,-2.60634,0.81164
441.556,24.66885,-2.70606,-2.60621,0.8112
442.056,24.6832,-2.70599,-2.6066,0.81075
442.556,24.69765,-2.70737,-2.60761,0.8103
443.056,24.71206,-2.70937,-2.60894,0.80986
443.556,24.72644,-2.71021,-2.61166,0.80941
444.056,24.74098,-2.70865,-2.61315,0.80897
444.556,24.75551,-2.71208,-2.6154,0.80852
445.056,24.76997,-2.7135,-2.61722,0.80808
445.556,24.78442,-2.714,-2.61978,0.80763
446.056,24.79885,-2.71907,-2.62143,0.80718
446.556,24.81328,-2.72238,-2.62319,0.80674
447.056,24.82769,-2.72542,-2.62388,0.80629
447.556,24.84212,-2.72849,-2.62436,0.80585
448.056,24.85654,-2.71872,-2.62587,0.8054
448.556,24.87092,-2.71994,-2.6274,0.80496
449.056,24.88534,-2.714,-2.62916,0.80452
449.556,24.89979,-2.71271,-2.63103,0.80407
450.056,24.9143,-2.71165,-2.63235,0.80363
450.556,24.92871,-2.71018,-2.63354,0.80318
451.056,24.9432,-2.7096,-2.63506,0.80274
451.556,24.95767,-2.70913,-2.63573,0.80229
452.056,24.97222,-2.70665,-2.63629,0.80185
452.556,24.9867,-2.70968,-2.63675,0.80141
453.056,25.00124,-2.70322,-2.63815,0.80096
453.556,25.01574,-2.70058,-2.63959,0.80052
454.056,25.03021,-2.69856,-2.64038,0.80008
454.556,25.0447,-2.69347,-2.64218,0.79963
455.056,25.05922,-2.69111,-2.6437,0.79919
455.556,25.0737,-2.68864,-2.64462,0.79875
456.056,25.08821,-2.68098,-2.64548,0.79831
456.556,25.10275,-2.67626,-2.64695,0.79786
457.056,25.11734,-2.667,-2.64777,0.79742
457.556,25.13191,-2.65774,-2.64908,0.79698
458.056,25.14645,-2.6594,-2.65043,0.79654
458.556,25.16105,-2.65517,-2.65096,0.79609
459.056,25.1756,-2.6521,-2.65259,0.79565
459.556,25.1902,-2.64311,-2.6542,0.79521
460.056,25.20478,-2.63741,-2.65546,0.79477
460.556,25.21934,-2.62524,-2.65668,0.79433
461.056,25.23391,-2.62467,-2.65796,0.79389
461.556,25.24841,-2.61713,-2.65876,0.79344
462.056,25.26295,-2.61233,-2.6607,0.793
462.556,25.2775,-2.6088,-2.66207,0.79256
463.056,25.29208,-2.60173,-2.66294,0.79212
463.556,25.30669,-2.59645,-2.66404,0.79168
464.056,25.32129,-2.58834,-2.6644,0.79124
464.556,25.33592,-2.58303,-2.66546,0.7908
465.056,25.35056,-2.57755,-2.66577,0.79036
465.556,25.3652,-2.5781,-2.66713,0.78992
466.056,25.37979,-2.56772,-2.66842,0.78948
466.556,25.39436,-2.56218,-2.66966,0.78904
467.056,25.40896,-2.56262,-2.67142,0.7886
467.556,25.4236,-2.55886,-2.67314,0.78816
468.056,25.43818,-2.55667,-2.67357,0.78772
468.556,25.45277,-2.54618,-2.67501,0.78729
469.056,25.4674,-2.54394,-2.67532,0.78685
469.556,25.48206,-2.54139,-2.67673,0.78641
470.056,25.49673,-2.53122,-2.67841,0.78597
470.556,25.5114,-2.52412,-2.68002,0.78553
471.056,25.52606,-2.51936,-2.68163,0.78509
471.556,25.54071,-2.51298,-2.68294,0.78466
472.056,25.5554,-2.50498,-2.68345,0.78422
472.556,25.57009,-2.50264,-2.68446,0.78378
473.056,25.58474,-2.50041,-2.68493,0.78334
473.556,25.59945,-2.49016,-2.68599,0.78291
474.056,25.61417,-2.48601,-2.68685,0.78247
474.556,25.6289,-2.48129,-2.68753,0.78203
475.056,25.64359,-2.47406,-2.68873,0.7816
475.556,25.6583,-2.46947,-2.68947,0.78116
476.056,25.67299,-2.46655,-2.69127,0.78072
476.556,25.6876,-2.46763,-2.69166,0.78029
477.056,25.70232,-2.45994,-2.69285,0.77985
477.556,25.717,-2.46193,-2.69288,0.77942
478.056,25.7317,-2.45926,-2.69453,0.77898
478.556,25.7464,-2.45737,-2.69455,0.77855
479.056,25.7611,-2.44003,-2.69587,0.77811
479.556,25.77587,-2.4395,-2.69641,0.77768
480.056,25.79058,-2.43295,-2.69725,0.77724
480.556,25.8053,-2.43208,-2.69891,0.77681
481.056,25.82007,-2.42328,-2.70081,0.77637
481.556,25.83484,-2.41786,-2.7026,0.77594
482.056,25.8496,-2.41516,-2.70427,0.77551
482.556,25.86435,-2.41326,-2.70493,0.77507
483.056,25.87906,-2.41283,-2.70612,0.77464
483.556,25.89382,-2.41199,-2.70618,0.77421
484.056,25.9086,-2.40812,-2.70759,0.77377
484.556,25.9234,-2.40756,-2.70761,0.77334
485.056,25.93812,-2.40175,-2.7086,0.77291
485.556,25.95291,-2.39964,-2.7092,0.77247
486.056,25.96775,-2.39811,-2.71001,0.77204
486.556,25.98256,-2.39064,-2.70972,0.77161
487.056,25.9973,-2.39169,-2.71129,0.77118
487.556,26.01212,-2.39048,-2.71161,0.77075
488.056,26.0269,-2.39333,-2.71314,0.77032
488.556,26.04168,-2.38463,-2.71326,0.76988
489.056,26.05649,-2.37582,-2.71545,0.76945
489.556,26.0713,-2.37849,-2.71642,0.76902
490.056,26.08606,-2.37999,-2.718,0.76859
490.556,26.10087,-2.38029,-2.72031,0.76816
491.056,26.11564,-2.36831,-2.72129,0.76773
491.556,26.13044,-2.36642,-2.72185,0.7673
492.056,26.14524,-2.36486,-2.72188,0.76687
492.556,26.16006,-2.37512,-2.72186,0.76644
493.056,26.1749,-2.37603,-2.72386,0.76601
493.556,26.18971,-2.3738,-2.72471,0.76559
494.056,26.20465,-2.37362,-2.72575,0.76516
494.556,26.21947,-2.37353,-2.72603,0.76473
495.056,26.23433,-2.37315,-2.72596,0.7643
495.556,26.2492,-2.37407,-2.72693,0.76387
496.056,26.26405,-2.37668,-2.72742,0.76344
496.556,26.2789,-2.37868,-2.72788,0.76302
497.056,26.29375,-2.3738,-2.72771,0.76259
497.556,26.3087,-2.3764,-2.7294,0.76216
498.056,26.3235,-2.36833,-2.73091,0.76174
498.556,26.33833,-2.37136,-2.73247,0.76131
499.056,26.35323,-2.37169,-2.73363,0.76088
499.556,26.36808,-2.365,-2.73438,0.76046
500.056,26.383,-2.36352,-2.73499,0.76003
500.556,26.3979,-2.38255,-2.7358,0.75961
501.056,26.41279,-2.38218,-2.73647,0.75918
501.556,26.4277,-2.37423,-2.73645,0.75876
502.056,26.4426,-2.37579,-2.73645,0.75833
502.556,26.45748,-2.38145,-2.73648,0.75791
503.056,26.47219,-2.3768,-2.73663,0.75748
503.556,26.487,-2.38668,-2.73795,0.75706
504.056,26.50198,-2.3875,-2.73858,0.75663
504.556,26.5169,-2.38528,-2.73983,0.75621
505.056,26.5319,-2.38451,-2.74029,0.75579
505.556,26.54683,-2.38278,-2.74223,0.75536
506.056,26.5619,-2.38973,-2.74346,0.75494
506.556,26.57698,-2.39097,-2.7444,0.75452
507.056,26.59188,-2.39317,-2.74585,0.7541
507.556,26.60681,-2.39641,-2.74612,0.75367
508.056,26.62175,-2.39358,-2.74732,0.75325
508.556,26.63672,-2.38889,-2.74801,0.75283
509.056,26.6517,-2.4001,-2.74884,0.75241
509.556,26.66657,-2.39716,-2.74919,0.75199
510.056,26.6815,-2.39664,-2.7504,0.75157
510.556,26.6965,-2.39902,-2.75107,0.75115
511.056,26.7115,-2.40866,-2.75216,0.75073
511.556,26.72646,-2.40431,-2.75345,0.75031
512.056,26.7414,-2.40752,-2.755,0.74989
512.556,26.7565,-2.40829,-2.75579,0.74947
513.056,26.77154,-2.40773,-2.75701,0.74905
513.556,26.7866,-2.41499,-2.757,0.74863
514.056,26.80159,-2.41929,-2.75618,0.74821
514.556,26.81663,-2.41719,-2.75552,0.74779
515.056,26.8317,-2.41554,-2.75675,0.74737
515.556,26.8467,-2.41827,-2.75692,0.74696
516.056,26.8617,-2.42643,-2.75795,0.74654
516.556,26.8767,-2.42589,-2.75894,0.74612
517.056,26.8918,-2.42775,-2.76088,0.7457
517.556,26.9068,-2.42595,-2.76181,0.74529
518.056,26.9219,-2.43238,-2.76372,0.74487
518.556,26.93693,-2.43334,-2.76359,0.74445
519.056,26.95198,-2.44179,-2.76451,0.74404
519.556,26.96708,-2.43522,-2.76518,0.74362
520.056,26.9821,-2.4365,-2.76606,0.74321
520.556,26.9972,-2.44371,-2.76679,0.74279
521.056,27.01225,-2.44889,-2.7669,0.74238
521.556,27.02735,-2.44698,-2.76801,0.74196
522.056,27.04245,-2.44693,-2.76803,0.74155
522.556,27.0575,-2.46701,-2.76799,0.74113
523.056,27.0726,-2.46839,-2.76893,0.74072
523.556,27.0876,-2.46914,-2.76861,0.74031
524.056,27.10267,-2.47047,-2.77001,0.73989
524.556,27.11771,-2.4738,-2.77072,0.73948
525.056,27.1328,-2.48266,-2.77139,0.73907
525.556,27.1479,-2.49318,-2.77248,0.73866
526.056,27.16295,-2.49693,-2.77441,0.73824
526.556,27.17807,-2.49924,-2.77564,0.73783
527.056,27.19319,-2.48986,-2.77592,0.73742
527.556,27.20836,-2.49267,-2.77727,0.73701
528.056,27.2234,-2.50649,-2.77734,0.7366
528.556,27.2386,-2.50301,-2.77757,0.73619
529.056,27.2538,-2.50787,-2.77897,0.73578
529.556,27.2689,-2.51155,-2.77954,0.73537
530.056,27.28405,-2.5146,-2.78057,0.73496
530.556,27.2992,-2.52641,-2.78113,0.73455
531.056,27.31437,-2.54297,-2.7819,0.73414
531.556,27.32944,-2.54379,-2.78187,0.73373
532.056,27.34463,-2.54377,-2.78074,0.73332
532.556,27.3598,-2.54937,-2.78162,0.73291
533.056,27.37493,-2.54933,-2.78218,0.73251
533.556,27.3901,-2.55426,-2.78505,0.7321
534.056,27.40527,-2.55757,-2.78498,0.73169
534.556,27.42047,-2.56984,-2.78504,0.73128
535.056,27.4356,-2.57668,-2.78503,0.73088
535.556,27.45079,-2.58328,-2.78502,0.73047
536.056,27.46598,-2.58046,-2.78582,0.73007
536.556,27.48115,-2.57354,-2.78702,0.72966
537.056,27.4963,-2.57534,-2.78864,0.72925
537.556,27.5115,-2.57839,-2.79023,0.72885
538.056,27.5267,-2.58375,-2.79064,0.72844
538.556,27.5418,-2.59613,-2.79114,0.72804
539.056,27.55702,-2.60255,-2.79201,0.72764
539.556,27.5722,-2.60457,-2.79197,0.72723
540.056,27.5874,-2.61055,-2.79186,0.72683
540.556,27.6027,-2.61652,-2.7931,0.72642
541.056,27.61791,-2.61358,-2.79326,0.72602
541.556,27.63317,-2.6232,-2.79326,0.72562
542.056,27.64838,-2.62676,-2.79347,0.72522
542.556,27.6636,-2.63568,-2.79482,0.72481
543.056,27.6788,-2.64563,-2.79462,0.72441
543.556,27.69391,-2.65481,-2.79608,0.72401
544.056,27.70913,-2.65769,-2.7962,0.72361
544.556,27.72435,-2.65961,-2.79727,0.72321
545.056,27.73961,-2.65866,-2.79766,0.72281
545.556,27.7549,-2.67227,-2.79814,0.72241
546.056,27.7702,-2.67447,-2.79919,0.72201
546.556,27.7855,-2.67908,-2.80022,0.72161
547.056,27.80081,-2.67609,-2.8007,0.72121
547.556,27.81604,-2.69275,-2.8011,0.72081
548.056,27.8313,-2.68771,-2.80172,0.72041
548.556,27.84651,-2.69852,-2.80172,0.72002
549.056,27.8618,-2.7022,-2.80176,0.71962
549.556,27.8769,-2.70186,-2.80207,0.71922
550.056,27.8922,-2.70378,-2.80266,0.71882
550.556,27.9075,-2.70938,-2.80382,0.71843
551.056,27.9228,-2.71395,-2.80474,0.71803
551.556,27.9381,-2.71604,-2.80538,0.71763
552.056,27.95337,-2.72085,-2.80561,0.71724
552.556,27.9687,-2.72401,-2.80673,0.71684
553.056,27.984,-2.73383,-2.80679,0.71645
553.556,27.9993,-2.74032,-2.80803,0.71605
554.056,28.0146,-2.74239,-2.80807,0.71566
554.556,28.02986,-2.74759,-2.80806,0.71526
555.056,28.0452,-2.75944,-2.80952,0.71487
555.556,28.06049,-2.76246,-2.81,0.71448
556.056,28.07575,-2.76479,-2.81223,0.71408
556.556,28.091,-2.7758,-2.81235,0.71369
557.056,28.1064,-2.78359,-2.81236,0.7133
557.556,28.1217,-2.79637,-2.81237,0.7129
558.056,28.13705,-2.79814,-2.81312,0.71251
558.556,28.1524,-2.80305,-2.81237,0.71212
559.056,28.16777,-2.81145,-2.8141,0.71173
559.556,28.1831,-2.8207,-2.81552,0.71134
560.056,28.1985,-2.83047,-2.81599,0.71095
560.556,28.21384,-2.83735,-2.8167,0.71056
561.056,28.22924,-2.83593,-2.81667,0.71017
561.556,28.2446,-2.84185,-2.81526,0.70978
562.056,28.2599,-2.84461,-2.81662,0.70939
562.556,28.27525,-2.85149,-2.81665,0.709
563.056,28.2905,-2.86105,-2.81819,0.70861
563.556,28.30588,-2.87007,-2.81813,0.70822
564.056,28.3212,-2.8779,-2.8186,0.70784
564.556,28.33656,-2.88493,-2.81969,0.70745
565.056,28.35195,-2.8933,-2.81974,0.70706
565.556,28.3673,-2.89644,-2.82096,0.70667
566.056,28.3827,-2.89121,-2.82098,0.70629
566.556,28.3981,-2.90294,-2.82151,0.7059
567.056,28.4135,-2.90862,-2.8225,0.70552
567.556,28.4289,-2.91787,-2.82267,0.70513
568.056,28.44427,-2.91979,-2.82411,0.70475
568.556,28.45962,-2.92766,-2.82397,0.70436
569.056,28.475,-2.93125,-2.82507,0.70398
569.556,28.4904,-2.93102,-2.82539,0.70359
570.056,28.50579,-2.942,-2.82596,0.70321
570.556,28.52117,-2.95071,-2.82672,0.70283
571.056,28.5366,-2.96279,-2.82672,0.70244
571.556,28.55205,-2.97212,-2.82672,0.70206
572.056,28.56745,-2.97741,-2.828,0.70168
572.556,28.58285,-2.98393,-2.82816,0.7013
573.056,28.5982,-2.9905,-2.82908,0.70092
573.556,28.61363,-2.99244,-2.82965,0.70053
574.056,28.62902,-2.99248,-2.82867,0.70015
574.556,28.64442,-3.00027,-2.82827,0.69977
575.056,28.6599,-3.01612,-2.82978,0.69939
575.556,28.67537,-3.02441,-2.82971,0.69901
576.056,28.69083,-3.02619,-2.83051,0.69863
576.556,28.70631,-3.03394,-2.83114,0.69826
577.056,28.7218,-3.03801,-2.83111,0.69788
577.556,28.7373,-3.05011,-2.831,0.6975
578.056,28.7527,-3.05268,-2.83242,0.69712
578.556,28.76815,-3.05738,-2.83284,0.69674
579.056,28.7836,-3.05666,-2.83417,0.69637
579.556,28.79904,-3.06325,-2.83405,0.69599
580.056,28.81448,-3.07524,-2.83397,0.69561
580.556,28.83,-3.0869,-2.83505,0.69524
581.056,28.8454,-3.0985,-2.83568,0.69486
581.556,28.8609,-3.11157,-2.83672,0.69449
582.056,28.87635,-3.11186,-2.83674,0.69411
582.556,28.89187,-3.10961,-2.83866,0.69374
583.056,28.9074,-3.11103,-2.83896,0.69336
583.556,28.92288,-3.11855,-2.84015,0.69299
584.056,28.9384,-3.13233,-2.84016,0.69261
584.556,28.95392,-3.13499,-2.83888,0.69224
585.056,28.96945,-3.14366,-2.83878,0.69187
585.556,28.98491,-3.15072,-2.83878,0.6915
586.056,29.00045,-3.15504,-2.83878,0.69112
586.556,29.0159,-3.1593,-2.83911,0.69075
587.056,29.0315,-3.16375,-2.84011,0.69038
587.556,29.04697,-3.17299,-2.84076,0.69001
588.056,29.0625,-3.18339,-2.8415,0.68964
588.556,29.0781,-3.18747,-2.84231,0.68927
589.056,29.09352,-3.19294,-2.84297,0.6889
589.556,29.1091,-3.19826,-2.84445,0.68853
590.056,29.1246,-3.20607,-2.84313,0.68816
590.556,29.14012,-3.20805,-2.84416,0.68779
591.056,29.15561,-3.22031,-2.84449,0.68742
591.556,29.17111,-3.22845,-2.84448,0.68705
592.056,29.18668,-3.23698,-2.84444,0.68669
592.556,29.2022,-3.241,-2.84538,0.68632
593.056,29.2177,-3.24805,-2.84596,0.68595
593.556,29.2332,-3.2548,-2.84737,0.68559
594.056,29.2487,-3.25565,-2.84755,0.68522
594.556,29.26432,-3.259,-2.84746,0.68485
595.056,29.27986,-3.268,-2.84853,0.68449
595.556,29.2954,-3.27545,-2.84852,0.68412
596.056,29.311,-3.28866,-2.84854,0.68376
596.556,29.32668,-3.3,-2.84854,0.68339
597.056,29.3422,-3.31277,-2.84853,0.68303
597.556,29.35775,-3.31901,-2.84875,0.68267
598.056,29.37337,-3.31947,-2.85037,0.6823
598.556,29.38893,-3.33206,-2.85172,0.68194
599.056,29.40452,-3.33949,-2.85174,0.68158
599.556,29.42013,-3.34081,-2.85173,0.68122
600.056,29.43576,-3.3506,-2.85283,0.68086
600.556,29.45141,-3.36117,-2.85304,0.68049
601.056,29.46702,-3.37701,-2.8542,0.68013
601.556,29.4826,-3.38375,-2.85442,0.67977
602.056,29.49829,-3.38519,-2.85328,0.67941
602.556,29.514,-3.38823,-2.85318,0.67905
603.056,29.52954,-3.3926,-2.85315,0.67869
603.556,29.54513,-3.39303,-2.85311,0.67833
604.056,29.56076,-3.39652,-2.85389,0.67798
604.556,29.5764,-3.39768,-2.85473,0.67762
605.056,29.592,-3.40732,-2.85521,0.67726
605.556,29.60765,-3.41517,-2.85604,0.6769
606.056,29.62333,-3.41822,-2.85601,0.67655
606.556,29.639,-3.42643,-2.856,0.67619
607.056,29.6547,-3.42259,-2.85698,0.67583
607.556,29.67032,-3.42242,-2.85887,0.67548
608.056,29.6859,-3.4333,-2.85894,0.67512
608.556,29.7016,-3.44633,-2.86027,0.67477
609.056,29.7173,-3.45573,-2.85944,0.67441
609.556,29.7329,-3.45689,-2.85884,0.67406
610.056,29.74861,-3.46214,-2.85885,0.6737
610.556,29.7643,-3.46873,-2.85886,0.67335
611.056,29.7799,-3.47349,-2.85885,0.673
611.556,29.7956,-3.47824,-2.85995,0.67264
612.056,29.81128,-3.48745,-2.86016,0.67229
612.556,29.827,-3.49501,-2.86139,0.67194
613.056,29.8427,-3.49418,-2.86158,0.67159
613.556,29.8584,-3.49427,-2.86038,0.67124
614.056,29.8741,-3.49912,-2.86181,0.67089
614.556,29.8898,-3.49978,-2.86191,0.67054
615.056,29.9055,-3.51727,-2.86339,0.67019
615.556,29.9212,-3.52087,-2.86354,0.66984
616.056,29.93685,-3.5249,-2.86483,0.66949
616.556,29.95256,-3.52244,-2.86488,0.66914
617.056,29.9682,-3.54098,-2.86488,0.66879
617.556,29.9839,-3.53954,-2.86488,0.66844
618.056,29.9998,-3.5436,-2.86488,0.66809