File: 01_Data/MDF/STA/N2/30K_min/MDF_STA_N2_30KData_211012_R2.csv
##Temp./Â°C,Time/min,DSC(subtr.2)/mW,Mass loss(subtr.2)/mg,Sensit./(uV/mW)
49.498,10.01,0.07962281,-0.02842,1.05401
49.998,10.9727,0.18795,-0.03094977,1.05402
50.498,11.18187,0.27999,-0.03387661,1.05403
50.998,11.3279,0.36279,-0.03320802,1.05404
51.498,11.4404,0.43945,-0.03482062,1.05405
51.998,11.53704,0.49498,-0.03289376,1.05405
52.498,11.61912,0.56663,-0.03029132,1.05406
52.998,11.69449,0.62873,-0.03284022,1.05406
53.498,11.76257,0.67819,-0.03388837,1.05406
53.998,11.8253,0.72765,-0.03352711,1.05406
54.498,11.88448,0.78413,-0.03221275,1.05406
54.998,11.94074,0.83794,-0.03422664,1.05406
55.498,11.99363,0.87771,-0.03555276,1.05406
55.998,12.04429,0.91916,-0.03014926,1.05405
56.498,12.09291,0.9642,-0.03227783,1.05405
56.998,12.1395,1.00508,-0.03547055,1.05404
57.498,12.1844,1.04649,-0.0354787,1.05403
57.998,12.22828,1.08695,-0.03384561,1.05402
58.498,12.2714,1.11771,-0.03403035,1.05401
58.998,12.31291,1.15611,-0.03263077,1.054
59.498,12.353,1.18153,-0.0330248,1.05399
59.998,12.39211,1.22138,-0.04184867,1.05398
60.498,12.4309,1.25047,-0.03316342,1.05396
60.998,12.46906,1.2864,-0.03077375,1.05395
61.498,12.5059,1.31758,-0.03537021,1.05393
61.998,12.54245,1.34597,-0.03629291,1.05391
62.498,12.5787,1.37975,-0.03598951,1.05389
62.998,12.6142,1.4045,-0.03466126,1.05387
63.498,12.64922,1.42561,-0.03366802,1.05385
63.998,12.68367,1.45937,-0.03540113,1.05382
64.498,12.7174,1.48708,-0.03689661,1.0538
64.998,12.7509,1.51069,-0.03519758,1.05377
65.498,12.78403,1.53643,-0.03633216,1.05375
65.998,12.8169,1.56701,-0.03612951,1.05372
66.498,12.84925,1.58655,-0.03554271,1.05369
66.998,12.88144,1.60546,-0.03635701,1.05366
67.498,12.91319,1.63164,-0.03681391,1.05362
67.998,12.94479,1.65856,-0.03714836,1.05359
68.498,12.97621,1.68456,-0.03326957,1.05356
68.998,13.0074,1.69872,-0.03262704,1.05352
69.498,13.03839,1.72414,-0.03610789,1.05349
69.998,13.0689,1.74108,-0.03673242,1.05345
70.498,13.0991,1.77625,-0.03665979,1.05341
70.998,13.12889,1.79371,-0.03720632,1.05337
71.498,13.15869,1.80856,-0.03744268,1.05333
71.998,13.1882,1.82829,-0.03844984,1.05328
72.498,13.21761,1.85294,-0.03868225,1.05324
72.998,13.24678,1.87695,-0.03714685,1.0532
73.498,13.27571,1.90233,-0.03654004,1.05315
73.998,13.3047,1.91417,-0.03553914,1.0531
74.498,13.33337,1.94073,-0.03545749,1.05305
74.998,13.36183,1.95865,-0.03564697,1.053
75.498,13.38984,1.97937,-0.03674879,1.05295
75.998,13.4176,2.00053,-0.0394123,1.0529
76.498,13.44549,2.01631,-0.03983118,1.05285
76.998,13.4732,2.04475,-0.03858348,1.05279
77.498,13.5008,2.06479,-0.0384442,1.05274
77.998,13.5281,2.08282,-0.03869299,1.05268
78.498,13.55502,2.09784,-0.03802721,1.05262
78.998,13.58198,2.1175,-0.03848278,1.05257
79.498,13.6088,2.13732,-0.03952463,1.05251
79.998,13.63548,2.15055,-0.04108649,1.05244
80.498,13.66195,2.17612,-0.04013967,1.05238
80.998,13.6882,2.19633,-0.03955836,1.05232
81.498,13.7143,2.21628,-0.0395788,1.05225
81.998,13.7401,2.2384,-0.0397036,1.05219
82.498,13.76596,2.24402,-0.04096056,1.05212
82.998,13.79155,2.26445,-0.0412427,1.05205
83.498,13.81696,2.29424,-0.04135044,1.05198
83.998,13.8418,2.31207,-0.04124789,1.05191
84.498,13.867,2.32319,-0.04115745,1.05184
84.998,13.892,2.34227,-0.04109929,1.05177
85.498,13.917,2.35437,-0.04236972,1.05169
85.998,13.942,2.37314,-0.04204689,1.05162
86.498,13.96638,2.38954,-0.04192679,1.05154
86.998,13.9908,2.41325,-0.04332316,1.05146
87.498,14.01491,2.42146,-0.04292657,1.05139
87.998,14.03895,2.44894,-0.0427293,1.05131
88.498,14.0629,2.46426,-0.042679,1.05123
88.998,14.08663,2.48206,-0.04173857,1.05114
89.498,14.1101,2.48832,-0.04290451,1.05106
89.998,14.13379,2.50409,-0.04394647,1.05098
90.498,14.15726,2.52456,-0.04482656,1.05089
90.998,14.18069,2.53144,-0.04393296,1.0508
91.498,14.20406,2.55131,-0.04445562,1.05072
91.998,14.227,2.56747,-0.04490739,1.05063
92.498,14.2499,2.58097,-0.0448678,1.05054
92.998,14.27273,2.59573,-0.04608954,1.05045
93.498,14.29539,2.60633,-0.04602712,1.05035
93.998,14.31805,2.6283,-0.04512463,1.05026
94.498,14.3407,2.64126,-0.04578794,1.05017
94.998,14.363,2.65507,-0.04579021,1.05007
95.498,14.3853,2.669,-0.04612764,1.04997
95.998,14.40746,2.67929,-0.04754431,1.04988
96.498,14.42945,2.69673,-0.04724427,1.04978
96.998,14.45134,2.71048,-0.04820793,1.04968
97.498,14.47311,2.72424,-0.04786105,1.04958
97.998,14.4948,2.73106,-0.04814301,1.04947
98.498,14.51653,2.74829,-0.04795423,1.04937
98.998,14.5381,2.76504,-0.04812327,1.04927
99.498,14.5595,2.77996,-0.04786377,1.04916
99.998,14.5809,2.77859,-0.04797536,1.04905
100.498,14.6021,2.79132,-0.04640868,1.04895
100.998,14.6232,2.80224,-0.04728352,1.04884
101.498,14.64419,2.81109,-0.04631941,1.04873
101.998,14.66523,2.82683,-0.04631435,1.04862
102.498,14.68615,2.82967,-0.04679478,1.0485
102.998,14.70704,2.84262,-0.04718921,1.04839
103.498,14.7279,2.84872,-0.04733662,1.04828
103.998,14.7486,2.85237,-0.04807364,1.04816
104.498,14.7691,2.86202,-0.04931767,1.04805
104.998,14.78961,2.8742,-0.04938937,1.04793
105.498,14.81003,2.88486,-0.04804985,1.04781
105.998,14.83045,2.89716,-0.04841633,1.04769
106.498,14.85072,2.9002,-0.04929151,1.04757
106.998,14.87098,2.91073,-0.04923945,1.04745
107.498,14.89119,2.91409,-0.04967332,1.04732
107.998,14.9112,2.92337,-0.04952148,1.0472
108.498,14.9311,2.93192,-0.04960815,1.04707
108.998,14.95113,2.94107,-0.04953828,1.04695
109.498,14.97095,2.94843,-0.05070629,1.04682
109.998,14.9908,2.96095,-0.04957995,1.04669
110.498,15.0107,2.96303,-0.04838598,1.04656
110.998,15.0306,2.97711,-0.04933908,1.04643
111.498,15.05025,2.9876,-0.05048375,1.0463
111.998,15.0699,2.99942,-0.05089938,1.04617
112.498,15.08937,3.00535,-0.05030684,1.04603
112.998,15.1089,3.02151,-0.05015525,1.0459
113.498,15.12831,3.03333,-0.0497499,1.04576
113.998,15.14761,3.03766,-0.04950191,1.04562
114.498,15.16699,3.05409,-0.04933619,1.04549
114.998,15.1862,3.06862,-0.04974392,1.04535
115.498,15.20546,3.08174,-0.05100133,1.04521
115.998,15.22456,3.07985,-0.05074069,1.04507
116.498,15.24366,3.08706,-0.05060559,1.04492
116.998,15.26261,3.10165,-0.05115867,1.04478
117.498,15.28157,3.10352,-0.05159639,1.04464
117.998,15.30042,3.11478,-0.05188689,1.04449
118.498,15.31935,3.12692,-0.05193395,1.04434
118.998,15.33815,3.13888,-0.05121549,1.0442
119.498,15.35694,3.14332,-0.04864951,1.04405
119.998,15.3757,3.15269,-0.04768274,1.0439
120.498,15.3944,3.15474,-0.05003052,1.04375
120.998,15.4131,3.15297,-0.05451545,1.04359
121.498,15.43174,3.15743,-0.05687006,1.04344
121.998,15.45025,3.16429,-0.05459324,1.04329
122.498,15.46875,3.17376,-0.05299374,1.04313
122.998,15.48719,3.17534,-0.05244544,1.04298
123.498,15.50567,3.18367,-0.05205194,1.04282
123.998,15.524,3.18604,-0.05067803,1.04266
124.498,15.54231,3.19021,-0.05167622,1.0425
124.998,15.56054,3.20019,-0.0523137,1.04234
125.498,15.5787,3.20895,-0.0532361,1.04218
125.998,15.5969,3.22281,-0.05210334,1.04202
126.498,15.615,3.2326,-0.05077616,1.04186
126.998,15.63304,3.2321,-0.0500309,1.04169
127.498,15.65104,3.23457,-0.05076823,1.04153
127.998,15.669,3.23772,-0.0513505,1.04136
128.498,15.68687,3.249,-0.05147852,1.04119
128.998,15.70474,3.25902,-0.05279489,1.04102
129.498,15.7226,3.25663,-0.05174512,1.04086
129.998,15.74044,3.26244,-0.05192813,1.04068
130.498,15.7582,3.2669,-0.05217032,1.04051
130.998,15.7759,3.28026,-0.05245231,1.04034
131.498,15.7935,3.27893,-0.05288429,1.04017
131.998,15.8111,3.28719,-0.05407233,1.03999
132.498,15.82865,3.29049,-0.05442015,1.03982
132.998,15.84617,3.29757,-0.05344841,1.03964
133.498,15.8637,3.30392,-0.05342968,1.03946
133.998,15.8811,3.31266,-0.05441528,1.03929
134.498,15.8985,3.31833,-0.05440482,1.03911
134.998,15.916,3.3226,-0.05431326,1.03893
135.498,15.93339,3.33106,-0.05561145,1.03874
135.998,15.9507,3.32227,-0.05573561,1.03856
136.498,15.968,3.34238,-0.0552419,1.03838
136.998,15.98528,3.35395,-0.05423699,1.03819
137.498,16.00239,3.35703,-0.05418723,1.03801
137.998,16.01951,3.36451,-0.05350636,1.03782
138.498,16.03656,3.37119,-0.0527437,1.03763
138.998,16.05359,3.37565,-0.05070254,1.03745
139.498,16.07068,3.38627,-0.04829422,1.03726
139.998,16.08773,3.38357,-0.05040292,1.03707
140.498,16.10476,3.38787,-0.05491331,1.03688
140.998,16.12163,3.39732,-0.05904102,1.03668
141.498,16.1385,3.40259,-0.05922578,1.03649
141.998,16.1554,3.41938,-0.05823627,1.0363
142.498,16.17224,3.41603,-0.0564523,1.0361
142.998,16.18911,3.43097,-0.05735304,1.0359
143.498,16.206,3.43074,-0.05725629,1.03571
143.998,16.223,3.44117,-0.05657865,1.03551
144.498,16.23978,3.44808,-0.05739777,1.03531
144.998,16.2565,3.45418,-0.05589133,1.03511
145.498,16.27319,3.46457,-0.05569564,1.03491
145.998,16.28959,3.47329,-0.05483028,1.03471
146.498,16.306,3.48516,-0.05590397,1.0345
146.998,16.32239,3.49488,-0.05573862,1.0343
147.498,16.33889,3.5009,-0.05456049,1.0341
147.998,16.35546,3.50535,-0.05453219,1.03389
148.498,16.37213,3.51555,-0.05452062,1.03368
148.998,16.38886,3.51606,-0.05452094,1.03348
149.498,16.40554,3.53061,-0.0546013,1.03327
149.998,16.42216,3.54012,-0.05592348,1.03306
150.498,16.4385,3.54881,-0.05583224,1.03285
150.998,16.4548,3.56,-0.05583821,1.03264
151.498,16.47121,3.57131,-0.05584001,1.03242
151.998,16.48751,3.57565,-0.05569943,1.03221
152.498,16.50374,3.58443,-0.05473494,1.03199
152.998,16.52006,3.59148,-0.05594992,1.03178
153.498,16.53637,3.60263,-0.05631225,1.03156
153.998,16.55255,3.60657,-0.05672748,1.03135
154.498,16.56876,3.61981,-0.05592466,1.03113
154.998,16.585,3.61993,-0.05594333,1.03091
155.498,16.6012,3.6292,-0.05595205,1.03069
155.998,16.61732,3.63872,-0.05591292,1.03047
156.498,16.6334,3.65017,-0.05700508,1.03025
156.998,16.64951,3.65437,-0.05685774,1.03002
157.498,16.66558,3.66171,-0.05679959,1.0298
157.998,16.68165,3.67211,-0.0576276,1.02958
158.498,16.69768,3.67561,-0.05816259,1.02935
158.998,16.71371,3.68595,-0.058138,1.02912
159.498,16.72973,3.70297,-0.05814432,1.0289
159.998,16.74568,3.70714,-0.05871342,1.02867
160.498,16.7616,3.71839,-0.05911012,1.02844
160.998,16.77751,3.72577,-0.05913539,1.02821
161.498,16.79341,3.73689,-0.05914754,1.02798
161.998,16.80924,3.74243,-0.05883325,1.02775
162.498,16.8251,3.75734,-0.05849543,1.02751
162.998,16.84101,3.75461,-0.05772453,1.02728
163.498,16.85685,3.75705,-0.05711697,1.02705
163.998,16.87261,3.77325,-0.05714525,1.02681
164.498,16.88842,3.78994,-0.0571569,1.02657
164.998,16.90423,3.79609,-0.05728601,1.02634
165.498,16.92001,3.80243,-0.05747998,1.0261
165.998,16.93562,3.81533,-0.05742936,1.02586
166.498,16.9514,3.82678,-0.05825438,1.02562
166.998,16.9671,3.83507,-0.05888015,1.02538
167.498,16.98276,3.84227,-0.05791829,1.02514
167.998,16.99842,3.84796,-0.05747396,1.02489
168.498,17.014,3.85252,-0.05748084,1.02465
168.998,17.02971,3.86966,-0.05749422,1.02441
169.498,17.04526,3.88229,-0.05797957,1.02416
169.998,17.06079,3.87525,-0.05881016,1.02392
170.498,17.07634,3.88757,-0.05843699,1.02367
170.998,17.09181,3.90478,-0.05744101,1.02342
171.498,17.10734,3.913,-0.05748696,1.02317
171.998,17.12282,3.92015,-0.057477,1.02292
172.498,17.1383,3.93228,-0.05768573,1.02267
172.998,17.15374,3.9397,-0.05889735,1.02242
173.498,17.16919,3.95451,-0.0587962,1.02217
173.998,17.1846,3.9582,-0.05879652,1.02191
174.498,17.2,3.96978,-0.0588,1.02166
174.998,17.21538,3.97549,-0.05889391,1.02141
175.498,17.23079,3.98723,-0.05774827,1.02115
175.998,17.2461,3.99286,-0.05747473,1.02089
176.498,17.2614,4.01424,-0.05747968,1.02064
176.998,17.27675,4.02438,-0.05748012,1.02038
177.498,17.29206,4.03505,-0.05748022,1.02012
177.998,17.3073,4.03679,-0.05747817,1.01986
178.498,17.32258,4.0519,-0.05746598,1.0196
178.998,17.33785,4.05401,-0.05772963,1.01934
179.498,17.3531,4.05394,-0.05816173,1.01907
179.998,17.3683,4.06738,-0.05814798,1.01881
180.498,17.3835,4.07861,-0.05830303,1.01855
180.998,17.39868,4.08448,-0.05941081,1.01828
181.498,17.41381,4.09783,-0.05944592,1.01802
181.998,17.4289,4.10347,-0.05946073,1.01775
182.498,17.44404,4.11588,-0.05946027,1.01748
182.998,17.45908,4.13126,-0.05945999,1.01721
183.498,17.47418,4.13847,-0.05945999,1.01694
183.998,17.48921,4.14524,-0.05946,1.01667
184.498,17.50423,4.15231,-0.05946,1.0164
184.998,17.51922,4.15448,-0.05946,1.01613
185.498,17.53421,4.16566,-0.05946011,1.01586
185.998,17.5492,4.18468,-0.0594598,1.01559
186.498,17.56421,4.18758,-0.05945417,1.01531
186.998,17.57915,4.19368,-0.05947131,1.01504
187.498,17.59411,4.20429,-0.05982649,1.01476
187.998,17.6091,4.21452,-0.06076659,1.01448
188.498,17.62396,4.22688,-0.06052897,1.01421
188.998,17.6388,4.23151,-0.06010429,1.01393
189.498,17.6536,4.24196,-0.06011488,1.01365
189.998,17.66841,4.25661,-0.06012052,1.01337
190.498,17.68319,4.25817,-0.06012138,1.01309
190.998,17.69799,4.27578,-0.06011398,1.01281
191.498,17.71278,4.27474,-0.06072359,1.01253
191.998,17.7275,4.28415,-0.06147676,1.01224
192.498,17.74231,4.30358,-0.06143604,1.01196
192.998,17.75692,4.31208,-0.06142885,1.01168
193.498,17.7716,4.31814,-0.06142992,1.01139
193.998,17.7863,4.33226,-0.0614299,1.0111
194.498,17.80102,4.33786,-0.06142967,1.01082
194.998,17.81576,4.35576,-0.06143672,1.01053
195.498,17.83044,4.36776,-0.06106222,1.01024
195.998,17.8452,4.379,-0.06001588,1.00995
196.498,17.85999,4.3895,-0.06011019,1.00966
196.998,17.87451,4.38768,-0.06051451,1.00937
197.498,17.88917,4.40417,-0.06143724,1.00908
197.998,17.90381,4.41762,-0.06176874,1.00879
198.498,17.91845,4.43034,-0.0627058,1.00849
198.998,17.93308,4.4407,-0.06366099,1.0082
199.498,17.94766,4.45169,-0.06409317,1.0079
199.998,17.9624,4.45854,-0.06406674,1.00761
200.498,17.977,4.46502,-0.06411991,1.00731
200.998,17.9915,4.46997,-0.06328491,1.00702
201.498,18.006,4.48969,-0.06270933,1.00672
201.998,18.02054,4.50714,-0.06274889,1.00642
202.498,18.0351,4.51822,-0.06275263,1.00612
202.998,18.04958,4.52285,-0.06274842,1.00582
203.498,18.0641,4.53342,-0.06267334,1.00552
203.998,18.07861,4.54585,-0.06360696,1.00522
204.498,18.09315,4.55909,-0.06401568,1.00492
204.998,18.10763,4.56224,-0.06482913,1.00461
205.498,18.12211,4.5801,-0.06538483,1.00431
205.998,18.1365,4.58945,-0.06537891,1.004
206.498,18.15094,4.60229,-0.06537995,1.0037
206.998,18.1653,4.60912,-0.06538003,1.00339
207.498,18.17977,4.61588,-0.06538,1.00309
207.998,18.1941,4.63134,-0.06538,1.00278
208.498,18.20852,4.65233,-0.06538,1.00247
208.998,18.22296,4.65778,-0.06537998,1.00216
209.498,18.23735,4.66601,-0.06538013,1.00185
209.998,18.25177,4.68037,-0.06538067,1.00154
210.498,18.26614,4.69295,-0.06537257,1.00123
210.998,18.2805,4.70793,-0.06575328,1.00092
211.498,18.29485,4.71807,-0.06678295,1.00061
211.998,18.3092,4.73781,-0.0666835,1.00029
212.498,18.3235,4.73816,-0.06662028,0.99998
212.998,18.3378,4.746,-0.06746686,0.99966
213.498,18.3521,4.75794,-0.06801635,0.99935
213.998,18.36647,4.76893,-0.06800435,0.99903
214.498,18.3808,4.78493,-0.06841248,0.99871
214.998,18.395,4.79592,-0.06956638,0.9984
215.498,18.40931,4.80187,-0.06940214,0.99808
215.998,18.42362,4.8151,-0.07063543,0.99776
216.498,18.43789,4.83044,-0.07075279,0.99744
216.998,18.45212,4.83587,-0.07074753,0.99712
217.498,18.46642,4.84743,-0.07077606,0.9968
217.998,18.48066,4.85436,-0.07079203,0.99648
218.498,18.495,4.86457,-0.07200471,0.99615
218.998,18.50924,4.87577,-0.07207097,0.99583
219.498,18.52347,4.88535,-0.07207179,0.99551
219.998,18.5377,4.89185,-0.0720639,0.99518
220.498,18.55185,4.90659,-0.07257633,0.99486
220.998,18.56604,4.9243,-0.07346566,0.99453
221.498,18.5802,4.93109,-0.07339055,0.9942
221.998,18.59434,4.93209,-0.07340997,0.99388
222.498,18.6085,4.94318,-0.07332642,0.99355
222.998,18.62267,4.95345,-0.07456272,0.99322
223.498,18.63681,4.95981,-0.07467094,0.99289
223.998,18.6509,4.96672,-0.0754515,0.99256
224.498,18.66505,4.97886,-0.07631214,0.99223
224.998,18.6792,4.98622,-0.07623383,0.9919
225.498,18.69312,4.9949,-0.07687922,0.99157
225.998,18.70717,5.00314,-0.07764068,0.99123
226.498,18.7213,5.01979,-0.0776609,0.9909
226.998,18.7354,5.02391,-0.07899373,0.99057
227.498,18.74956,5.0336,-0.07909127,0.99023
227.998,18.76363,5.0376,-0.07909254,0.9899
228.498,18.7778,5.03942,-0.07908409,0.98956
228.998,18.79205,5.04585,-0.07905121,0.98922
229.498,18.80613,5.05919,-0.07968069,0.98888
229.998,18.82016,5.06914,-0.0804106,0.98855
230.498,18.83415,5.07699,-0.08043512,0.98821
230.998,18.84818,5.0837,-0.08177381,0.98787
231.498,18.8622,5.08687,-0.08190548,0.98753
231.998,18.87615,5.09407,-0.08327906,0.98719
232.498,18.89017,5.10184,-0.08458163,0.98685
232.998,18.90415,5.1036,-0.08473326,0.9865
233.498,18.9182,5.11648,-0.08628812,0.98616
233.998,18.9323,5.11718,-0.08637306,0.98582
234.498,18.94631,5.12598,-0.08703829,0.98548
234.998,18.96031,5.12833,-0.08786346,0.98513
235.498,18.97433,5.13084,-0.08787985,0.98479
235.998,18.98829,5.13483,-0.08925659,0.98444
236.498,19.00226,5.13937,-0.0894684,0.98409
236.998,19.0162,5.15006,-0.0908723,0.98375
237.498,19.03015,5.15692,-0.0914966,0.9834
237.998,19.04413,5.16289,-0.09316004,0.98305
238.498,19.05809,5.16698,-0.09342891,0.9827
238.998,19.07207,5.1668,-0.09550354,0.98235
239.498,19.08602,5.17365,-0.09564728,0.982
239.998,19.09998,5.17615,-0.0956499,0.98165
240.498,19.1139,5.18289,-0.09556875,0.9813
240.998,19.12779,5.18615,-0.09650331,0.98095
241.498,19.1417,5.18206,-0.09719406,0.9806
241.998,19.15558,5.19869,-0.09838309,0.98024
242.498,19.16949,5.18884,-0.09892373,0.97989
242.998,19.18338,5.18389,-0.10031,0.97953
243.498,19.1973,5.19354,-0.10061,0.97918
243.998,19.21121,5.19274,-0.10206,0.97882
244.498,19.2251,5.20414,-0.1025,0.97847
244.998,19.23894,5.20486,-0.10361,0.97811
245.498,19.25282,5.20245,-0.10474,0.97775
245.998,19.26662,5.20409,-0.10524,0.9774
246.498,19.28046,5.20833,-0.10655,0.97704
246.998,19.2943,5.20386,-0.10755,0.97668
247.498,19.30817,5.21993,-0.10875,0.97632
247.998,19.32206,5.22755,-0.10967,0.97596
248.498,19.3359,5.2229,-0.11042,0.9756
248.998,19.34978,5.22046,-0.11065,0.97524
249.498,19.3637,5.21254,-0.11217,0.97487
249.998,19.37751,5.21434,-0.11439,0.97451
250.498,19.39134,5.2089,-0.11594,0.97415
250.998,19.40514,5.21067,-0.1179,0.97378
251.498,19.41891,5.21734,-0.11946,0.97342
251.998,19.43274,5.21587,-0.11977,0.97305
252.498,19.44655,5.21703,-0.12107,0.97269
252.998,19.46034,5.21468,-0.12111,0.97232
253.498,19.47411,5.21683,-0.12217,0.97196
253.998,19.48791,5.2201,-0.12228,0.97159
254.498,19.50171,5.22014,-0.12234,0.97122
254.998,19.5155,5.21427,-0.12358,0.97085
255.498,19.5293,5.20757,-0.12527,0.97048
255.998,19.5431,5.20383,-0.12781,0.97012
256.498,19.55694,5.20562,-0.12933,0.96975
256.998,19.57072,5.19726,-0.13007,0.96938
257.498,19.58449,5.20195,-0.13235,0.969
257.998,19.5982,5.18803,-0.13267,0.96863
258.498,19.61186,5.19641,-0.13448,0.96826
258.998,19.62558,5.19006,-0.13564,0.96789
259.498,19.63928,5.18667,-0.13671,0.96751
259.998,19.65299,5.18163,-0.13892,0.96714
260.498,19.66667,5.17895,-0.14046,0.96677
260.998,19.6804,5.1778,-0.14156,0.96639
261.498,19.69419,5.17392,-0.1437,0.96602
261.998,19.70794,5.18369,-0.14549,0.96564
262.498,19.72164,5.18001,-0.1459,0.96526
262.998,19.73537,5.17231,-0.1471,0.96489
263.498,19.74911,5.16262,-0.14609,0.96451
263.998,19.76285,5.16124,-0.14751,0.96413
264.498,19.77658,5.15432,-0.14873,0.96375
264.998,19.79027,5.15456,-0.15022,0.96337
265.498,19.804,5.14357,-0.15289,0.963
265.998,19.8178,5.13057,-0.15474,0.96262
266.498,19.83146,5.12887,-0.15765,0.96223
266.998,19.8452,5.12958,-0.15973,0.96185
267.498,19.859,5.12688,-0.16143,0.96147
267.998,19.87272,5.11766,-0.16375,0.96109
268.498,19.88653,5.12251,-0.1652,0.96071
268.998,19.90026,5.1033,-0.16708,0.96032
269.498,19.91398,5.09845,-0.16879,0.95994
269.998,19.92773,5.08786,-0.1706,0.95956
270.498,19.94139,5.07937,-0.17246,0.95917
270.998,19.95508,5.06396,-0.17411,0.95879
271.498,19.9687,5.05746,-0.17591,0.9584
271.998,19.98238,5.05049,-0.17714,0.95802
272.498,19.99605,5.04878,-0.18015,0.95763
272.998,20.00975,5.03027,-0.18389,0.95724
273.498,20.02346,5.02433,-0.1862,0.95686
273.998,20.03715,5.01035,-0.18959,0.95647
274.498,20.05079,5.02055,-0.19114,0.95608
274.998,20.06448,4.99755,-0.19182,0.95569
275.498,20.0781,4.98598,-0.1938,0.9553
275.998,20.09181,4.96216,-0.19549,0.95491
276.498,20.10543,4.95153,-0.19846,0.95452
276.998,20.11908,4.93786,-0.20076,0.95413
277.498,20.13276,4.9234,-0.20411,0.95374
277.998,20.14644,4.9105,-0.20563,0.95335
278.498,20.16006,4.89399,-0.2082,0.95295
278.998,20.17369,4.87967,-0.21058,0.95256
279.498,20.18735,4.86832,-0.21326,0.95217
279.998,20.20101,4.84212,-0.21698,0.95178
280.498,20.2146,4.8258,-0.22019,0.95138
280.998,20.2282,4.81456,-0.22372,0.95099
281.498,20.24185,4.79724,-0.22596,0.95059
281.998,20.2555,4.77845,-0.22954,0.9502
282.498,20.26911,4.75783,-0.23219,0.9498
282.998,20.28272,4.73527,-0.23623,0.9494
283.498,20.2963,4.7189,-0.23875,0.94901
283.998,20.30997,4.69779,-0.24262,0.94861
284.498,20.32364,4.67499,-0.24567,0.94821
284.998,20.33725,4.64779,-0.24904,0.94782
285.498,20.3509,4.62634,-0.25214,0.94742
285.998,20.36455,4.60326,-0.25334,0.94702
286.498,20.37817,4.58053,-0.25689,0.94662
286.998,20.39181,4.55075,-0.26024,0.94622
287.498,20.40539,4.51791,-0.26485,0.94582
287.998,20.419,4.51219,-0.26853,0.94542
288.498,20.43259,4.48636,-0.27224,0.94502
288.998,20.4462,4.45431,-0.27681,0.94462
289.498,20.45978,4.42602,-0.2803,0.94421
289.998,20.4734,4.39869,-0.28428,0.94381
290.498,20.48699,4.37499,-0.2894,0.94341
290.998,20.50059,4.34411,-0.29289,0.94301
291.498,20.5142,4.31711,-0.29623,0.9426
291.998,20.52775,4.28995,-0.30067,0.9422
292.498,20.54133,4.26234,-0.30455,0.94179
292.998,20.55494,4.2269,-0.30917,0.94139
293.498,20.56854,4.19255,-0.31453,0.94098
293.998,20.5822,4.16231,-0.31783,0.94058
294.498,20.59573,4.12828,-0.32164,0.94017
294.998,20.60933,4.09788,-0.32642,0.93977
295.498,20.6229,4.06527,-0.32984,0.93936
295.998,20.63649,4.03717,-0.33309,0.93895
296.498,20.65007,3.99921,-0.33819,0.93854
296.998,20.66364,3.96245,-0.34226,0.93814
297.498,20.6772,3.93823,-0.34706,0.93773
297.998,20.69079,3.90869,-0.35342,0.93732
298.498,20.70437,3.87953,-0.35824,0.93691
298.998,20.71797,3.83779,-0.36397,0.9365
299.498,20.73154,3.80731,-0.37047,0.93609
299.998,20.7451,3.77419,-0.3746,0.93568
300.498,20.7587,3.74088,-0.37877,0.93527
300.998,20.77226,3.71257,-0.38326,0.93486
301.498,20.7858,3.67764,-0.38717,0.93445
301.998,20.79941,3.65175,-0.39232,0.93404
302.498,20.81298,3.61004,-0.39813,0.93362
302.998,20.82655,3.57985,-0.4025,0.93321
303.498,20.84018,3.55335,-0.40945,0.9328
303.998,20.8537,3.53142,-0.416,0.93238
304.498,20.86732,3.50891,-0.42152,0.93197
304.998,20.88089,3.46852,-0.42752,0.93156
305.498,20.8945,3.43707,-0.43278,0.93114
305.998,20.90803,3.40181,-0.43667,0.93073
306.498,20.92156,3.37445,-0.44172,0.93031
306.998,20.93511,3.35242,-0.44706,0.9299
307.498,20.94868,3.32603,-0.45191,0.92948
307.998,20.9622,3.29024,-0.45829,0.92907
308.498,20.97566,3.26947,-0.46485,0.92865
308.998,20.98909,3.24664,-0.47067,0.92823
309.498,21.00252,3.22479,-0.47764,0.92781
309.998,21.01608,3.20056,-0.48441,0.9274
310.498,21.0296,3.1761,-0.4895,0.92698
310.998,21.04314,3.15575,-0.49442,0.92656
311.498,21.05675,3.13999,-0.50031,0.92614
311.998,21.07038,3.10992,-0.5056,0.92572
312.498,21.08408,3.10033,-0.51233,0.9253
312.998,21.09771,3.08068,-0.51855,0.92489
313.498,21.11122,3.06907,-0.52381,0.92447
313.998,21.12479,3.04321,-0.53005,0.92405
314.498,21.13834,3.01902,-0.53539,0.92362
314.998,21.15188,3.00245,-0.54083,0.9232
315.498,21.16545,2.98723,-0.54805,0.92278
315.998,21.17902,2.97114,-0.55539,0.92236
316.498,21.19259,2.96864,-0.56293,0.92194
316.998,21.20618,2.94952,-0.57113,0.92152
317.498,21.21973,2.93401,-0.57739,0.9211
317.998,21.2333,2.92001,-0.5832,0.92067
318.498,21.24691,2.90513,-0.58946,0.92025
318.998,21.2605,2.90466,-0.59423,0.91983
319.498,21.27403,2.89691,-0.59996,0.9194
319.998,21.28762,2.885,-0.60831,0.91898
320.498,21.3012,2.87494,-0.61541,0.91855
320.998,21.31475,2.86175,-0.62174,0.91813
321.498,21.32828,2.86238,-0.62973,0.9177
321.998,21.34181,2.86777,-0.63513,0.91728
322.498,21.35535,2.85776,-0.64119,0.91685
322.998,21.36891,2.85598,-0.64908,0.91643
323.498,21.38244,2.85124,-0.65518,0.916
323.998,21.396,2.84687,-0.66216,0.91558
324.498,21.4096,2.85189,-0.6703,0.91515
324.998,21.4232,2.84544,-0.6764,0.91472
325.498,21.4368,2.84274,-0.68419,0.9143
325.998,21.4504,2.85548,-0.69323,0.91387
326.498,21.464,2.85972,-0.70001,0.91344
326.998,21.47764,2.85729,-0.70803,0.91301
327.498,21.49127,2.86011,-0.71668,0.91258
327.998,21.5048,2.87438,-0.72246,0.91216
328.498,21.51844,2.8859,-0.72908,0.91173
328.998,21.53201,2.88247,-0.737,0.9113
329.498,21.54566,2.88855,-0.74333,0.91087
329.998,21.55925,2.90076,-0.75149,0.91044
330.498,21.57284,2.90984,-0.76056,0.91001
330.998,21.58645,2.93099,-0.76692,0.90958
331.498,21.6001,2.93556,-0.77432,0.90915
331.998,21.61366,2.9604,-0.78206,0.90872
332.498,21.62726,2.97326,-0.78905,0.90829
332.998,21.64084,2.99149,-0.79796,0.90785
333.498,21.6544,2.99947,-0.80783,0.90742
333.998,21.66801,3.00885,-0.81539,0.90699
334.498,21.6816,3.03992,-0.82408,0.90656
334.998,21.69519,3.05611,-0.83181,0.90613
335.498,21.70881,3.06635,-0.83785,0.90569
335.998,21.72239,3.08931,-0.84539,0.90526
336.498,21.73604,3.10721,-0.85466,0.90483
336.998,21.7497,3.12526,-0.86315,0.9044
337.498,21.76334,3.14161,-0.87339,0.90396
337.998,21.77698,3.16739,-0.88231,0.90353
338.498,21.79066,3.19879,-0.88972,0.90309
338.998,21.80435,3.2228,-0.89851,0.90266
339.498,21.81798,3.2407,-0.90682,0.90223
339.998,21.83164,3.25888,-0.91495,0.90179
340.498,21.84528,3.28838,-0.92492,0.90136
340.998,21.85891,3.31502,-0.93302,0.90092
341.498,21.87258,3.3357,-0.94064,0.90049
341.998,21.88624,3.36525,-0.95021,0.90005
342.498,21.89992,3.38537,-0.95687,0.89962
342.998,21.91358,3.4139,-0.96478,0.89918
343.498,21.9272,3.43843,-0.97558,0.89874
343.998,21.9409,3.46537,-0.98409,0.89831
344.498,21.95457,3.49498,-0.99299,0.89787
344.998,21.96821,3.52117,-1.00408,0.89743
345.498,21.98186,3.54641,-1.01152,0.897
345.998,21.99553,3.57807,-1.02009,0.89656
346.498,22.00921,3.60915,-1.03102,0.89612
346.998,22.0229,3.64231,-1.0396,0.89568
347.498,22.0366,3.65506,-1.04925,0.89525
347.998,22.05024,3.69093,-1.06018,0.89481
348.498,22.06393,3.72016,-1.06807,0.89437
348.998,22.0776,3.74775,-1.07755,0.89393
349.498,22.0913,3.77979,-1.08935,0.89349
349.998,22.105,3.81842,-1.09786,0.89305
350.498,22.11867,3.84941,-1.10787,0.89261
350.998,22.13233,3.87297,-1.11844,0.89218
351.498,22.14604,3.90145,-1.12539,0.89174
351.998,22.15975,3.92408,-1.13384,0.8913
352.498,22.1735,3.96761,-1.14553,0.89086
352.998,22.18715,3.99419,-1.15539,0.89042
353.498,22.20083,4.03036,-1.16812,0.88998
353.998,22.2146,4.06962,-1.18208,0.88954
354.498,22.2283,4.1092,-1.19125,0.8891
354.998,22.242,4.13742,-1.20169,0.88866
355.498,22.25573,4.17613,-1.2122,0.88821
355.998,22.2695,4.2142,-1.22109,0.88777
356.498,22.28322,4.24665,-1.23275,0.88733
356.998,22.2969,4.27906,-1.24403,0.88689
357.498,22.31063,4.30914,-1.25437,0.88645
357.998,22.3244,4.35493,-1.2672,0.88601
358.498,22.33809,4.39796,-1.27779,0.88557
358.998,22.35182,4.43728,-1.28849,0.88512
359.498,22.36555,4.47892,-1.30168,0.88468
359.998,22.3793,4.51464,-1.31246,0.88424
360.498,22.39307,4.55833,-1.32327,0.8838
360.998,22.40677,4.59274,-1.33739,0.88335
361.498,22.42057,4.63764,-1.34925,0.88291
361.998,22.43429,4.67918,-1.36073,0.88247
362.498,22.44805,4.72106,-1.37488,0.88202
362.998,22.4618,4.76196,-1.38585,0.88158
363.498,22.47556,4.79346,-1.39829,0.88114
363.998,22.48934,4.8269,-1.41385,0.88069
364.498,22.50307,4.87794,-1.4254,0.88025
364.998,22.51683,4.92968,-1.43768,0.87981
365.498,22.53057,4.97719,-1.45224,0.87936
365.998,22.54438,5.01899,-1.4633,0.87892
366.498,22.5582,5.05545,-1.47601,0.87847
366.998,22.57196,5.10223,-1.49136,0.87803
367.498,22.58571,5.14501,-1.50454,0.87759
367.998,22.5995,5.1818,-1.51914,0.87714
368.498,22.61332,5.22654,-1.53528,0.8767
368.998,22.62715,5.27031,-1.54747,0.87625
369.498,22.64091,5.31058,-1.56207,0.87581
369.998,22.65468,5.36512,-1.57788,0.87536
370.498,22.66852,5.4097,-1.59066,0.87492
370.998,22.68228,5.45016,-1.60619,0.87447
371.498,22.69604,5.49155,-1.62135,0.87402
371.998,22.70984,5.53143,-1.63449,0.87358
372.498,22.7236,5.56749,-1.65114,0.87313
372.998,22.73743,5.60785,-1.66703,0.87269
373.498,22.75125,5.64863,-1.68187,0.87224
373.998,22.7651,5.68329,-1.70037,0.8718
374.498,22.77897,5.7234,-1.71604,0.87135
374.998,22.7928,5.75642,-1.73091,0.8709
375.498,22.80668,5.79676,-1.74821,0.87046
375.998,22.82055,5.83531,-1.76288,0.87001
376.498,22.83438,5.86393,-1.7785,0.86956
376.998,22.84824,5.89646,-1.79771,0.86912
377.498,22.86204,5.92635,-1.81242,0.86867
377.998,22.87591,5.94266,-1.82938,0.86822
378.498,22.88975,5.9629,-1.84888,0.86778
378.998,22.9036,6.00242,-1.86383,0.86733
379.498,22.9174,6.00772,-1.88127,0.86688
379.998,22.93126,6.01955,-1.90177,0.86643
380.498,22.9451,6.04072,-1.91646,0.86599
380.998,22.95899,6.04655,-1.93464,0.86554
381.498,22.97286,6.05077,-1.95542,0.86509
381.998,22.9867,6.05416,-1.97114,0.86464
382.498,23.0007,6.05208,-1.99002,0.8642
382.998,23.01454,6.04175,-2.00954,0.86375
383.498,23.02841,6.02866,-2.02495,0.8633
383.998,23.04231,6.00972,-2.04485,0.86285
384.498,23.05623,5.99202,-2.06361,0.86241
384.998,23.07013,5.96356,-2.07961,0.86196
385.498,23.08409,5.92151,-2.09935,0.86151
385.998,23.098,5.88184,-2.11715,0.86106
386.498,23.11195,5.83584,-2.13345,0.86061
386.998,23.12586,5.79344,-2.15352,0.86016
387.498,23.13978,5.72327,-2.17013,0.85972
387.998,23.15372,5.66404,-2.1872,0.85927
388.498,23.16766,5.59486,-2.20732,0.85882
388.998,23.1816,5.51128,-2.22219,0.85837
389.498,23.19555,5.42014,-2.2393,0.85792
389.998,23.20955,5.31776,-2.25888,0.85747
390.498,23.22352,5.2199,-2.27348,0.85702
390.998,23.2374,5.12088,-2.29057,0.85658
391.498,23.2513,5.00041,-2.31025,0.85613
391.998,23.26521,4.87461,-2.32434,0.85568
392.498,23.2791,4.74864,-2.34049,0.85523
392.998,23.293,4.59819,-2.35661,0.85478
393.498,23.30695,4.44225,-2.36933,0.85433
393.998,23.32098,4.29726,-2.38553,0.85388
394.498,23.33501,4.13742,-2.40161,0.85343
394.998,23.3491,3.97076,-2.41327,0.85298
395.498,23.36315,3.80066,-2.42645,0.85253
395.998,23.3772,3.63693,-2.4386,0.85208
396.498,23.39131,3.4569,-2.44977,0.85163
396.998,23.40535,3.29098,-2.46354,0.85119
397.498,23.41937,3.11189,-2.47425,0.85074
397.998,23.43349,2.94093,-2.48389,0.85029
398.498,23.44753,2.77242,-2.49507,0.84984
398.998,23.46165,2.59769,-2.50342,0.84939
399.498,23.47578,2.42605,-2.51255,0.84894
399.998,23.48986,2.2622,-2.5238,0.84849
400.498,23.50406,2.10265,-2.53053,0.84804
400.998,23.51814,1.95922,-2.53811,0.84759
401.498,23.53225,1.8256,-2.54657,0.84714
401.998,23.5464,1.68787,-2.55231,0.84669
402.498,23.5606,1.55097,-2.55871,0.84624
402.998,23.5747,1.43189,-2.56314,0.84579
403.498,23.58887,1.31589,-2.5651,0.84534
403.998,23.60301,1.20606,-2.56856,0.84489
404.498,23.6172,1.11219,-2.57289,0.84444
404.998,23.63133,1.01837,-2.57731,0.84399
405.498,23.64545,0.94167,-2.5824,0.84354
405.998,23.65962,0.85829,-2.58581,0.84309
406.498,23.67375,0.77429,-2.58857,0.84264
406.998,23.68788,0.70181,-2.59205,0.84219
407.498,23.70201,0.64411,-2.59504,0.84174
407.998,23.71613,0.59134,-2.59832,0.84129
408.498,23.73027,0.52881,-2.60081,0.84085
408.998,23.74442,0.4742,-2.60234,0.8404
409.498,23.7586,0.42739,-2.60381,0.83995
409.998,23.77275,0.38739,-2.60581,0.8395
410.498,23.7869,0.33657,-2.60758,0.83905
410.998,23.8011,0.29204,-2.60887,0.8386
411.498,23.81522,0.26036,-2.61221,0.83815
411.998,23.82936,0.22597,-2.61576,0.8377
412.498,23.8435,0.20161,-2.61856,0.83725
412.998,23.85763,0.15477,-2.62098,0.8368
413.498,23.8718,0.11579,-2.622,0.83635
413.998,23.88599,0.08439581,-2.62232,0.8359
414.498,23.90016,0.06376607,-2.62395,0.83545
414.998,23.91434,0.04316918,-2.62603,0.835
415.498,23.92853,0.008873024,-2.6293,0.83455
415.998,23.94271,-0.02369104,-2.63078,0.8341
416.498,23.9569,-0.0370936,-2.63307,0.83365
416.998,23.9711,-0.07342298,-2.63475,0.8332
417.498,23.98527,-0.09797664,-2.63713,0.83275
417.998,23.99953,-0.11394,-2.63794,0.8323
418.498,24.01378,-0.14116,-2.63892,0.83185
418.998,24.02804,-0.16477,-2.64102,0.83141
419.498,24.0423,-0.18425,-2.64299,0.83096
419.998,24.05653,-0.19611,-2.64586,0.83051
420.498,24.07076,-0.2162,-2.64945,0.83006
420.998,24.08486,-0.23554,-2.65108,0.82961
421.498,24.09902,-0.25558,-2.65266,0.82916
421.998,24.1132,-0.27153,-2.65369,0.82871
422.498,24.12744,-0.28617,-2.6539,0.82826
422.998,24.14169,-0.30572,-2.65545,0.82781
423.498,24.1559,-0.32936,-2.65665,0.82736
423.998,24.17023,-0.35164,-2.65806,0.82691
424.498,24.18457,-0.3611,-2.66035,0.82647
424.998,24.1988,-0.39342,-2.66144,0.82602
425.498,24.2131,-0.3932,-2.66336,0.82557
425.998,24.22726,-0.42019,-2.66513,0.82512
426.498,24.2415,-0.44892,-2.66724,0.82467
426.998,24.25575,-0.4503,-2.66828,0.82422
427.498,24.27003,-0.47331,-2.66878,0.82377
427.998,24.28428,-0.48851,-2.6708,0.82333
428.498,24.29857,-0.50578,-2.67305,0.82288
428.998,24.31289,-0.51842,-2.67449,0.82243
429.498,24.32721,-0.53536,-2.67671,0.82198
429.998,24.34151,-0.55093,-2.67787,0.82153
430.498,24.35581,-0.54904,-2.67992,0.82108
430.998,24.3702,-0.56261,-2.6823,0.82064
431.498,24.38447,-0.5792,-2.68379,0.82019
431.998,24.39875,-0.59225,-2.68491,0.81974
432.498,24.41304,-0.62123,-2.68556,0.81929
432.998,24.42735,-0.62648,-2.68693,0.81885
433.498,24.4417,-0.62435,-2.68754,0.8184
433.998,24.45597,-0.63413,-2.68884,0.81795
434.498,24.47029,-0.64871,-2.69108,0.8175
434.998,24.48463,-0.65605,-2.69239,0.81706
435.498,24.49895,-0.66983,-2.6938,0.81661
435.998,24.5133,-0.68098,-2.69606,0.81616
436.498,24.52759,-0.68149,-2.69752,0.81571
436.998,24.5418,-0.69211,-2.69849,0.81527
437.498,24.55602,-0.6984,-2.7011,0.81482
437.998,24.5702,-0.70842,-2.70325,0.81437
438.498,24.58435,-0.7215,-2.70423,0.81393
438.998,24.59854,-0.72114,-2.70505,0.81348
439.498,24.61285,-0.7338,-2.70662,0.81303
439.998,24.6273,-0.73585,-2.70791,0.81259
440.498,24.64172,-0.7364,-2.70955,0.81214
440.998,24.65624,-0.73861,-2.7117,0.81169
441.498,24.67077,-0.74104,-2.71355,0.81125
441.998,24.68532,-0.74889,-2.71508,0.8108
442.498,24.69975,-0.76249,-2.71603,0.81036
442.998,24.71414,-0.76644,-2.71704,0.80991
443.498,24.72855,-0.76709,-2.71808,0.80946
443.998,24.74295,-0.77157,-2.71869,0.80902
444.498,24.7574,-0.77311,-2.72019,0.80857
444.998,24.7717,-0.77471,-2.72068,0.80813
445.498,24.78614,-0.77644,-2.72301,0.80768
445.998,24.80053,-0.77709,-2.72557,0.80724
446.498,24.81491,-0.78066,-2.72729,0.80679
446.998,24.82921,-0.77398,-2.7305,0.80635
447.498,24.84365,-0.77809,-2.73249,0.8059
447.998,24.8581,-0.77591,-2.73371,0.80546
448.498,24.87259,-0.7754,-2.7354,0.80501
448.998,24.88706,-0.77238,-2.73505,0.80457
449.498,24.9015,-0.76795,-2.73472,0.80412
449.998,24.91613,-0.76789,-2.73594,0.80368
450.498,24.93066,-0.76735,-2.73786,0.80323
450.998,24.94514,-0.77099,-2.73931,0.80279
451.498,24.9596,-0.76749,-2.74135,0.80235
451.998,24.97409,-0.76417,-2.74228,0.8019
452.498,24.9886,-0.76071,-2.7434,0.80146
452.998,25.00305,-0.75529,-2.74344,0.80102
453.498,25.01751,-0.74975,-2.74503,0.80057
453.998,25.03199,-0.75449,-2.74609,0.80013
454.498,25.04652,-0.75466,-2.7483,0.79969
454.998,25.06106,-0.743,-2.75011,0.79924
455.498,25.07558,-0.73851,-2.75167,0.7988
455.998,25.09013,-0.74156,-2.7527,0.79836
456.498,25.10466,-0.73632,-2.75366,0.79791
456.998,25.1192,-0.73494,-2.75469,0.79747
457.498,25.13371,-0.73534,-2.75541,0.79703
457.998,25.1482,-0.73475,-2.75697,0.79659
458.498,25.1628,-0.72773,-2.75909,0.79615
458.998,25.17732,-0.71753,-2.76034,0.7957
459.498,25.19187,-0.70572,-2.76184,0.79526
459.998,25.2064,-0.6956,-2.76348,0.79482
460.498,25.221,-0.69928,-2.76508,0.79438
460.998,25.23558,-0.69416,-2.76675,0.79394
461.498,25.2501,-0.68265,-2.76541,0.7935
461.998,25.26471,-0.68165,-2.76694,0.79306
462.498,25.27926,-0.67384,-2.76764,0.79261
462.998,25.29383,-0.671,-2.76896,0.79217
463.498,25.3084,-0.66765,-2.7717,0.79173
463.998,25.32302,-0.66511,-2.77299,0.79129
464.498,25.33765,-0.65232,-2.77392,0.79085
464.998,25.35225,-0.65336,-2.7745,0.79041
465.498,25.36685,-0.6483,-2.77578,0.78997
465.998,25.3815,-0.63208,-2.77777,0.78953
466.498,25.39609,-0.62776,-2.77901,0.78909
466.998,25.4107,-0.62355,-2.78094,0.78865
467.498,25.42526,-0.6199,-2.78211,0.78821
467.998,25.43988,-0.59963,-2.78307,0.78778
468.498,25.45453,-0.59883,-2.7841,0.78734
468.998,25.46912,-0.60198,-2.78479,0.7869
469.498,25.48374,-0.59954,-2.78639,0.78646
469.998,25.49836,-0.59306,-2.78782,0.78602
470.498,25.51302,-0.59296,-2.78902,0.78558
470.998,25.52766,-0.58286,-2.79048,0.78515
471.498,25.5423,-0.56979,-2.79114,0.78471
471.998,25.55696,-0.56536,-2.79226,0.78427
472.498,25.5716,-0.5601,-2.79219,0.78383
472.998,25.58628,-0.54743,-2.79332,0.78339
473.498,25.6009,-0.53867,-2.79414,0.78296
473.998,25.6156,-0.53616,-2.79566,0.78252
474.498,25.6303,-0.53435,-2.79793,0.78208
474.998,25.64498,-0.52685,-2.79967,0.78165
475.498,25.6597,-0.52748,-2.80041,0.78121
475.998,25.6744,-0.53144,-2.80075,0.78078
476.498,25.68907,-0.52412,-2.80223,0.78034
476.998,25.7038,-0.51138,-2.80226,0.7799
477.498,25.71844,-0.50534,-2.80379,0.77947
477.998,25.73314,-0.50606,-2.80418,0.77903
478.498,25.74786,-0.50257,-2.8054,0.7786
478.998,25.76259,-0.49491,-2.80641,0.77816
479.498,25.77734,-0.48903,-2.80705,0.77773
479.998,25.79206,-0.48086,-2.80853,0.77729
480.498,25.80685,-0.48111,-2.81003,0.77686
480.998,25.82161,-0.47488,-2.8111,0.77642
481.498,25.83636,-0.47583,-2.81186,0.77599
481.998,25.85117,-0.45833,-2.81227,0.77556
482.498,25.86595,-0.45519,-2.81346,0.77512
482.998,25.88075,-0.45198,-2.81339,0.77469
483.498,25.8955,-0.45242,-2.8146,0.77426
483.998,25.9103,-0.44556,-2.81466,0.77382
484.498,25.92504,-0.44699,-2.81582,0.77339
484.998,25.93978,-0.44319,-2.81803,0.77296
485.498,25.95458,-0.44507,-2.81963,0.77252
485.998,25.96937,-0.44651,-2.82119,0.77209
486.498,25.98416,-0.44546,-2.82139,0.77166
486.998,25.99896,-0.4302,-2.82273,0.77123
487.498,26.01384,-0.43134,-2.82294,0.7708
487.998,26.0287,-0.42844,-2.82467,0.77037
488.498,26.04354,-0.43136,-2.8256,0.76993
488.998,26.05837,-0.43401,-2.82664,0.7695
489.498,26.07326,-0.42916,-2.82763,0.76907
489.998,26.08814,-0.4222,-2.82815,0.76864
490.498,26.10294,-0.43073,-2.82912,0.76821
490.998,26.11775,-0.43547,-2.82971,0.76778
491.498,26.13254,-0.4268,-2.82996,0.76735
491.998,26.14736,-0.42591,-2.83062,0.76692
492.498,26.16218,-0.42215,-2.83194,0.76649
492.998,26.17701,-0.42215,-2.83347,0.76606
493.498,26.19184,-0.42092,-2.83481,0.76564
493.998,26.20669,-0.41857,-2.83624,0.76521
494.498,26.22155,-0.41315,-2.83733,0.76478
494.998,26.23645,-0.41295,-2.83844,0.76435
495.498,26.25133,-0.4152,-2.83963,0.76392
495.998,26.26618,-0.41221,-2.83949,0.76349
496.498,26.2811,-0.42095,-2.84033,0.76307
496.998,26.29601,-0.41393,-2.8412,0.76264
497.498,26.31089,-0.41991,-2.84303,0.76221
497.998,26.32575,-0.42374,-2.84414,0.76179
498.498,26.34065,-0.42366,-2.84513,0.76136
498.998,26.3555,-0.42152,-2.84685,0.76093
499.498,26.3704,-0.42116,-2.84806,0.76051
499.998,26.38526,-0.41715,-2.84843,0.76008
500.498,26.4002,-0.41988,-2.84844,0.75966
500.998,26.4151,-0.42481,-2.84736,0.75923
501.498,26.43001,-0.4253,-2.84746,0.7588
501.998,26.44492,-0.42204,-2.8485,0.75838
502.498,26.4599,-0.42476,-2.8491,0.75796
502.998,26.4749,-0.42523,-2.85053,0.75753
503.498,26.4898,-0.42325,-2.85095,0.75711
503.998,26.5047,-0.42152,-2.85225,0.75668
504.498,26.51965,-0.41879,-2.8529,0.75626
504.998,26.5346,-0.41762,-2.85439,0.75584
505.498,26.5495,-0.43085,-2.85577,0.75541
505.998,26.5644,-0.43649,-2.85665,0.75499
506.498,26.5793,-0.43567,-2.85735,0.75457
506.998,26.59403,-0.43848,-2.85736,0.75414
507.498,26.6088,-0.44183,-2.85877,0.75372
507.998,26.62364,-0.44435,-2.85886,0.7533
508.498,26.6386,-0.43805,-2.86028,0.75288
508.998,26.6536,-0.43991,-2.86037,0.75246
509.498,26.66868,-0.44102,-2.86062,0.75204
509.998,26.68382,-0.43678,-2.86205,0.75162
510.498,26.6989,-0.44544,-2.86379,0.75119
510.998,26.714,-0.44824,-2.86483,0.75077
511.498,26.729,-0.45545,-2.86578,0.75035
511.998,26.74401,-0.45453,-2.86698,0.74993
512.498,26.75896,-0.45312,-2.86744,0.74952
512.998,26.77393,-0.45722,-2.86762,0.7491
513.498,26.78892,-0.45651,-2.8687,0.74868
513.998,26.8039,-0.46193,-2.86875,0.74826
514.498,26.81891,-0.46302,-2.87009,0.74784
514.998,26.8339,-0.46639,-2.8705,0.74742
515.498,26.8489,-0.46526,-2.87169,0.747
515.998,26.86395,-0.47123,-2.87252,0.74659
516.498,26.879,-0.47575,-2.87326,0.74617
516.998,26.89402,-0.47096,-2.87325,0.74575
517.498,26.909,-0.47255,-2.87324,0.74533
517.998,26.9241,-0.46812,-2.87325,0.74492
518.498,26.9391,-0.47324,-2.87346,0.7445
518.998,26.9542,-0.47948,-2.87538,0.74409
519.498,26.96926,-0.47955,-2.8769,0.74367
519.998,26.98432,-0.47506,-2.87798,0.74325
520.498,26.9994,-0.48078,-2.87923,0.74284
520.998,27.0145,-0.4818,-2.88068,0.74242
521.498,27.02954,-0.48414,-2.8812,0.74201
521.998,27.0446,-0.4935,-2.88196,0.7416
522.498,27.0597,-0.49407,-2.88189,0.74118
522.998,27.07477,-0.4982,-2.88229,0.74077
523.498,27.0898,-0.49878,-2.88387,0.74035
523.998,27.1049,-0.502,-2.88503,0.73994
524.498,27.12,-0.51377,-2.88585,0.73953
524.998,27.13513,-0.51749,-2.88718,0.73912
525.498,27.15025,-0.51869,-2.88728,0.7387
525.998,27.1653,-0.53672,-2.88728,0.73829
526.498,27.1805,-0.53741,-2.88728,0.73788
526.998,27.19561,-0.53224,-2.8882,0.73747
527.498,27.2107,-0.54394,-2.88899,0.73706
527.998,27.22585,-0.54846,-2.89009,0.73665
528.498,27.24097,-0.56039,-2.89154,0.73624
528.998,27.25613,-0.56629,-2.89236,0.73582
529.498,27.27125,-0.56457,-2.89389,0.73541
529.998,27.2864,-0.57474,-2.89416,0.73501
530.498,27.3015,-0.58199,-2.89393,0.7346
530.998,27.3167,-0.5819,-2.89526,0.73419
531.498,27.33183,-0.59054,-2.89566,0.73378
531.998,27.34698,-0.60089,-2.8968,0.73337
532.498,27.36216,-0.60997,-2.89692,0.73296
532.998,27.3773,-0.61724,-2.89694,0.73255
533.498,27.39247,-0.62,-2.89761,0.73215
533.998,27.40765,-0.62061,-2.89865,0.73174
534.498,27.42285,-0.62819,-2.90001,0.73133
534.998,27.43805,-0.63303,-2.90023,0.73092
535.498,27.4532,-0.63835,-2.90023,0.73052
535.998,27.4684,-0.63685,-2.90039,0.73011
536.498,27.4836,-0.64665,-2.90273,0.72971
536.998,27.4988,-0.65227,-2.90291,0.7293
537.498,27.51397,-0.65738,-2.90419,0.7289
537.998,27.5292,-0.66962,-2.90423,0.72849
538.498,27.5444,-0.67594,-2.90566,0.72809
538.998,27.55965,-0.68251,-2.90656,0.72768
539.498,27.57487,-0.67803,-2.9063,0.72728
539.998,27.59003,-0.69488,-2.90614,0.72687
540.498,27.60528,-0.69364,-2.90721,0.72647
540.998,27.62047,-0.69767,-2.90746,0.72607
541.498,27.6357,-0.70296,-2.90754,0.72567
541.998,27.6508,-0.70465,-2.90893,0.72526
542.498,27.66605,-0.71493,-2.90892,0.72486
542.998,27.6813,-0.71976,-2.91047,0.72446
543.498,27.6965,-0.72787,-2.91116,0.72406
543.998,27.71177,-0.72368,-2.9138,0.72366
544.498,27.72703,-0.72993,-2.916,0.72326
544.998,27.74232,-0.73627,-2.91815,0.72286
545.498,27.7576,-0.75108,-2.91844,0.72246
545.998,27.7729,-0.76342,-2.91508,0.72206
546.498,27.78813,-0.7668,-2.91116,0.72166
546.998,27.8034,-0.77739,-2.90863,0.72126
547.498,27.81865,-0.7765,-2.90913,0.72086
547.998,27.8339,-0.78448,-2.90976,0.72046
548.498,27.84915,-0.79099,-2.91259,0.72006
548.998,27.86438,-0.80225,-2.91468,0.71966
549.498,27.8796,-0.79989,-2.91821,0.71927
549.998,27.8949,-0.80221,-2.92072,0.71887
550.498,27.91015,-0.80927,-2.9206,0.71847
550.998,27.92545,-0.82551,-2.91979,0.71808
551.498,27.94074,-0.82697,-2.91911,0.71768
551.998,27.95605,-0.83172,-2.92009,0.71728
552.498,27.97141,-0.83569,-2.92071,0.71689
552.998,27.9868,-0.84058,-2.92233,0.71649
553.498,28.00202,-0.85206,-2.92252,0.7161
553.998,28.0173,-0.8454,-2.92367,0.7157
554.498,28.03257,-0.85446,-2.92367,0.71531
554.998,28.04784,-0.86388,-2.92436,0.71491
555.498,28.0631,-0.86794,-2.92751,0.71452
555.998,28.07837,-0.86947,-2.92781,0.71413
556.498,28.0937,-0.87271,-2.92867,0.71373
556.998,28.109,-0.88059,-2.92861,0.71334
557.498,28.1244,-0.89074,-2.9284,0.71295
557.998,28.1397,-0.90041,-2.92732,0.71256
558.498,28.155,-0.90213,-2.92722,0.71217
558.998,28.1703,-0.90258,-2.92856,0.71178
559.498,28.1856,-0.91261,-2.92916,0.71138
559.998,28.2009,-0.91763,-2.93052,0.71099
560.498,28.21626,-0.91819,-2.93111,0.7106
560.998,28.23155,-0.91899,-2.93313,0.71021
561.498,28.2469,-0.92361,-2.93596,0.70982
561.998,28.2622,-0.93232,-2.93952,0.70943
562.498,28.2775,-0.93992,-2.93909,0.70905
562.998,28.29285,-0.94988,-2.93709,0.70866
563.498,28.3082,-0.9503,-2.93472,0.70827
563.998,28.32354,-0.9491,-2.93291,0.70788
564.498,28.3389,-0.95993,-2.93456,0.70749
564.998,28.3543,-0.96624,-2.93621,0.70711
565.498,28.3696,-0.96623,-2.93759,0.70672
565.998,28.385,-0.98037,-2.93765,0.70633
566.498,28.40038,-0.98655,-2.93896,0.70595
566.998,28.41572,-0.99226,-2.93892,0.70556
567.498,28.43106,-0.99736,-2.93894,0.70518
567.998,28.44645,-1.00195,-2.93999,0.70479
568.498,28.46179,-1.00781,-2.94038,0.70441
568.998,28.47713,-1.0057,-2.94176,0.70402
569.498,28.4924,-1.01183,-2.94188,0.70364
569.998,28.5078,-1.01843,-2.94311,0.70325
570.498,28.52321,-1.03287,-2.9432,0.70287
570.998,28.53857,-1.0356,-2.94322,0.70249
571.498,28.55395,-1.04247,-2.94318,0.70211
571.998,28.56942,-1.04689,-2.94383,0.70172
572.498,28.58492,-1.05771,-2.94459,0.70134
572.998,28.60036,-1.0676,-2.94454,0.70096
573.498,28.61572,-1.06782,-2.9445,0.70058
573.998,28.6311,-1.06772,-2.9453,0.7002
574.498,28.6466,-1.0747,-2.94612,0.69982
574.998,28.66201,-1.08829,-2.94663,0.69944
575.498,28.6774,-1.09276,-2.9477,0.69906
575.998,28.6929,-1.10037,-2.94789,0.69868
576.498,28.7083,-1.09684,-2.94933,0.6983
576.998,28.72372,-1.09867,-2.95018,0.69792
577.498,28.73916,-1.11608,-2.95103,0.69754
577.998,28.7546,-1.1142,-2.95102,0.69716
578.498,28.77001,-1.12232,-2.95101,0.69679
578.998,28.7854,-1.1164,-2.9513,0.69641
579.498,28.80081,-1.13158,-2.95235,0.69603
579.998,28.8163,-1.13478,-2.95219,0.69566
580.498,28.83175,-1.14904,-2.95369,0.69528
580.998,28.84719,-1.1415,-2.95397,0.6949
581.498,28.86275,-1.14941,-2.95457,0.69453
581.998,28.8783,-1.15946,-2.95531,0.69415
582.498,28.89378,-1.1692,-2.95522,0.69378
582.998,28.9092,-1.17122,-2.95619,0.6934
583.498,28.9247,-1.18088,-2.95742,0.69303
583.998,28.94025,-1.18202,-2.95791,0.69266
584.498,28.9558,-1.18969,-2.95791,0.69228
584.998,28.97127,-1.19295,-2.95791,0.69191
585.498,28.98682,-1.20343,-2.95801,0.69154
585.998,29.00238,-1.20743,-2.95812,0.69117
586.498,29.0179,-1.21507,-2.95935,0.69079
586.998,29.03332,-1.2227,-2.95946,0.69042
587.498,29.0488,-1.22724,-2.96069,0.69005
587.998,29.0643,-1.22813,-2.96075,0.68968
588.498,29.07977,-1.23394,-2.96077,0.68931
588.998,29.09528,-1.24432,-2.96159,0.68894
589.498,29.11082,-1.24397,-2.96072,0.68857
589.998,29.12642,-1.24452,-2.96081,0.6882
590.498,29.14193,-1.24574,-2.96143,0.68783
590.998,29.15752,-1.24889,-2.96343,0.68747
591.498,29.173,-1.24698,-2.96342,0.6871
591.998,29.1886,-1.24979,-2.96334,0.68673
592.498,29.2042,-1.24832,-2.96464,0.68636
592.998,29.2198,-1.25997,-2.96471,0.686
593.498,29.23538,-1.26669,-2.96592,0.68563
593.998,29.251,-1.27816,-2.96624,0.68526
594.498,29.26655,-1.28297,-2.96736,0.6849
594.998,29.28208,-1.27657,-2.96766,0.68453
595.498,29.2976,-1.28399,-2.96764,0.68417
595.998,29.31314,-1.28981,-2.9686,0.6838
596.498,29.3286,-1.2882,-2.96878,0.68344
596.998,29.34419,-1.2853,-2.9676,0.68307
597.498,29.3598,-1.2928,-2.96768,0.68271
597.998,29.3754,-1.29446,-2.96879,0.68235
598.498,29.39098,-1.29477,-2.96908,0.68198
598.998,29.40655,-1.30304,-2.97159,0.68162
599.498,29.4222,-1.30932,-2.97241,0.68126
599.998,29.4378,-1.31639,-2.97343,0.6809
600.498,29.4533,-1.32361,-2.97339,0.68054
600.998,29.46892,-1.32868,-2.97338,0.68018
601.498,29.4845,-1.33676,-2.97347,0.67981
601.998,29.50007,-1.33736,-2.9724,0.67945
602.498,29.51561,-1.34385,-2.97242,0.6791
602.998,29.53118,-1.34468,-2.97238,0.67874
603.498,29.5468,-1.35415,-2.97319,0.67838
603.998,29.56226,-1.35664,-2.97415,0.67802
604.498,29.57783,-1.35118,-2.97463,0.67766
604.998,29.59344,-1.35579,-2.97552,0.6773
605.498,29.6091,-1.35352,-2.97547,0.67694
605.998,29.62469,-1.366,-2.97547,0.67659
606.498,29.6403,-1.37075,-2.97547,0.67623
606.998,29.6559,-1.37395,-2.97564,0.67587
607.498,29.6715,-1.37989,-2.97617,0.67552
607.998,29.6871,-1.38575,-2.97732,0.67516
608.498,29.70273,-1.39152,-2.97745,0.67481
608.998,29.7184,-1.37818,-2.97852,0.67445
609.498,29.73405,-1.3935,-2.97928,0.6741
609.998,29.74987,-1.3939,-2.97985,0.67374
610.498,29.7656,-1.4031,-2.97987,0.67339
610.998,29.78122,-1.40682,-2.9799,0.67304
611.498,29.79686,-1.40906,-2.98103,0.67268
611.998,29.8125,-1.4002,-2.98115,0.67233
612.498,29.82818,-1.39892,-2.98138,0.67198
612.998,29.84383,-1.39921,-2.98266,0.67163
613.498,29.8595,-1.39992,-2.98154,0.67128
613.998,29.8752,-1.41202,-2.98116,0.67093
614.498,29.89087,-1.40728,-2.98116,0.67058
614.998,29.90655,-1.41272,-2.98155,0.67023
615.498,29.9222,-1.41692,-2.98252,0.66988
615.998,29.9379,-1.42445,-2.98249,0.66953
616.498,29.9535,-1.43709,-2.98264,0.66918
616.998,29.96915,-1.43312,-2.98377,0.66883
617.498,29.98477,-1.43265,-2.98379,0.66848
617.898,29.9974,-1.44121,-2.9838,0.6682