File: 01_Data/Vinyl_Plan_Flooring/Cone/Vinyl_Plan_Flooring_Cone_HF50Scan_220311_R1.csv
Names,Time,Stack TC,Smoke TC,Exh Press,Smoke Comp,Smoke Meas,CO Meter,CO2 Meter,O2 Meter,Sample Mass,Ext Coeff,Start Test,Flame Verif
Chan Gain,,500,500,1,1,1,1,1,1,1,1,1.0,1.0
Offset,,0,0,0.136191,0,0,0,0,0,0,0,0.0,0.0
Gain,,1,1,25.011,13.291,13.2919,1,1,1,1.00093,1.00758,1.0,1.0
Units,sec,C,C,Pa,%,%,%,%,%,g,/m,,
Baseline,,27.3259,28.4821,168.852,100.392,94.165,0.000550325,0.0417386,21.0837,-1.39609,0.566044,,
2,0.25,25.2006,26.6339,173.268,100.026,94.6947,0.000599968,0.0415046,21.0852,487.462,0.484098,0.0,0.0
4,0.75,25.3311,26.5773,172.735,99.9887,93.7155,0.000581961,0.0416161,21.0852,487.442,0.572672,0.0,0.0
6,1.25,25.5992,27.0943,165.89,99.9335,93.9248,0.000567375,0.0416636,21.0852,487.412,0.548075,0.0,0.0
8,1.75,25.5992,27.0914,163.195,99.9011,93.7727,0.000570067,0.0417313,21.0852,487.432,0.559531,0.0,0.0
10,2.25,25.3865,26.6659,171.533,99.8471,94.2027,0.000572247,0.0417861,21.0852,487.452,0.514323,0.0,0.0
12,2.75,25.7691,26.3545,164.636,99.8114,94.1134,0.000604254,0.0418163,21.0849,487.452,0.51954,0.0,0.0
14,3.25,25.5902,26.1259,159.048,99.7486,93.6944,0.00063018,0.0418279,21.0846,487.442,0.55341,0.0,0.0
16,3.75,25.384,26.6257,170.653,99.6946,93.4887,0.000681446,0.0418374,21.0838,487.472,0.568051,0.0,0.0
18,4.25,25.4529,26.6387,168.197,99.648,93.2985,0.000722971,0.041845,21.0827,487.442,0.581918,0.0,0.0
20,4.75,25.7074,26.5085,171.161,99.6269,93.3224,0.000818428,0.0418512,21.0818,487.432,0.57778,0.0,0.0
22,5.25,25.8136,27.0126,170.243,99.6192,93.3277,0.000895748,0.0418491,21.0812,487.422,0.576596,0.0,0.0
24,5.75,25.4723,26.5541,164.883,99.6265,93.967,0.00127252,0.0418409,21.0806,487.442,0.516909,0.0,0.0
26,6.25,25.7322,27.2658,167.422,99.6346,93.5966,0.00186044,0.0419483,21.0784,487.432,0.552531,0.0,0.0
28,6.75,25.8248,26.8172,170.798,99.6528,93.1914,0.00233665,0.0421378,21.0766,487.422,0.592501,0.0,0.0
30,7.25,25.6884,26.4741,168.508,99.6374,92.5184,0.00404324,0.0434047,21.0751,487.422,0.655188,0.0,0.0
32,7.75,25.0721,26.3982,169.493,99.6549,92.1258,0.00661436,0.0454328,21.0681,487.392,0.694326,0.0,0.0
34,8.25,25.9414,26.9442,165.845,99.6613,91.2228,0.0106114,0.0534186,21.0625,487.362,0.781956,0.0,1.0
36,8.75,25.881,26.7919,152.642,99.6626,89.812,0.0155721,0.0655958,21.0579,487.452,0.919822,0.0,1.0
38,9.25,25.8326,27.0466,165.458,99.6707,85.4117,0.0195902,0.0754594,21.0281,487.342,1.36455,0.0,1.0
40,9.75,26.1784,27.056,156.64,99.6812,73.3387,0.0262469,0.122595,21.0039,486.942,2.7124,0.0,1.0
42,10.25,26.5648,27.5294,135.069,99.697,65.1996,0.0347007,0.160775,20.9172,486.661,3.75351,0.0,1.0
44,10.75,26.9267,28.1576,127.643,99.7007,53.5343,0.0428254,0.213525,20.8471,486.521,5.49616,0.0,1.0
46,11.25,27.975,28.8225,130.449,99.7129,50.0811,0.0505557,0.275894,20.7214,486.231,6.08657,0.0,1.0
48,11.75,29.3455,29.6177,136.742,99.7133,42.787,0.0568174,0.326412,20.6196,485.951,7.47786,0.0,1.0
50,12.25,30.0088,30.2568,136.674,99.7352,44.1146,0.0625501,0.367333,20.5372,485.77,7.20972,0.0,1.0
52,12.75,30.0466,30.82,139.739,99.7469,41.005,0.0671937,0.416583,20.4704,485.57,7.85683,0.0,1.0
54,13.25,31.3468,31.9468,146.18,99.7713,38.7915,0.0700872,0.453019,20.4164,485.41,8.34947,0.0,0.0
56,13.75,32.1229,32.4558,141.253,99.7709,33.9498,0.072431,0.479421,20.3725,485.27,9.52775,0.0,0.0
58,14.25,32.2298,33.0991,145.231,99.8021,28.1914,0.0743294,0.500807,20.3371,485.13,11.1733,0.0,0.0
60,14.75,33.1767,33.7862,142.665,99.7976,28.2684,0.0734867,0.508335,20.3149,485.05,11.1488,0.0,0.0
62,15.25,33.3721,34.4633,149.088,99.8329,26.1263,0.0728041,0.514432,20.3028,484.9,11.8484,0.0,0.0
64,15.75,34.2549,35.3692,153.094,99.8272,24.4084,0.0707642,0.513754,20.2962,484.81,12.449,0.0,0.0
66,16.25,34.0911,35.2743,149.565,99.8666,31.0288,0.0691119,0.513204,20.2939,484.719,10.3314,0.0,0.0
68,16.75,34.7269,35.7869,142.508,99.865,31.391,0.0671879,0.511444,20.292,484.609,10.2287,0.0,0.0
70,17.25,35.0649,36.4219,139.575,99.8921,32.025,0.0651026,0.508834,20.2913,484.499,10.0543,0.0,0.0
72,17.75,35.4969,36.704,146.931,99.8848,37.366,0.0631746,0.506721,20.2908,484.359,8.69041,0.0,0.0
74,18.25,36.0535,37.345,147.973,99.9112,36.4964,0.0613981,0.505618,20.2904,484.279,8.90088,0.0,0.0
76,18.75,36.1636,38.0279,147.189,99.9185,39.4202,0.0599591,0.504724,20.29,484.129,8.22039,0.0,0.0
78,19.25,37.1466,38.6396,146.287,99.9384,39.318,0.0586249,0.505071,20.2898,484.059,8.2451,0.0,0.0
80,19.75,37.6058,39.2473,142.728,99.9315,36.8716,0.0575442,0.506316,20.2895,483.949,8.81228,0.0,0.0
82,20.25,37.4567,38.9985,146.478,99.9534,38.8065,0.056701,0.507324,20.287,483.819,8.36217,0.0,0.0
84,20.75,38.003,40.0638,147.352,99.966,41.162,0.056018,0.51112,20.2829,483.689,7.84244,0.0,0.0
86,21.25,38.8718,40.4816,137.865,99.9765,39.3963,0.0554648,0.514194,20.2795,483.588,8.23089,0.0,0.0
88,21.75,38.6543,40.3717,143.481,99.9741,39.9593,0.0551838,0.520544,20.2706,483.488,8.10526,0.0,0.0
90,22.25,39.6988,41.3284,137.323,100.002,41.1478,0.0549563,0.525687,20.2633,483.338,7.84868,0.0,0.0
92,22.75,39.5636,41.299,146.18,100.009,42.8932,0.0549336,0.534761,20.254,483.208,7.48207,0.0,0.0
94,23.25,39.9177,41.9008,139.951,100.032,44.2907,0.0549152,0.542112,20.2432,483.078,7.20076,0.0,0.0
96,23.75,41.2374,42.8189,134.511,100.039,41.0135,0.0550115,0.550461,20.232,482.968,7.88083,0.0,0.0
98,24.25,41.5512,43.3476,134.519,100.056,42.3976,0.0550895,0.55938,20.2205,482.848,7.58904,0.0,0.0
100,24.75,42.0203,43.8887,140.159,100.043,41.1214,0.0552021,0.566604,20.2089,482.728,7.85793,0.0,0.0
102,25.25,42.5376,44.5521,137.59,100.063,38.8004,0.0552934,0.574185,20.1974,482.578,8.37327,0.0,0.0
104,25.75,42.9419,44.6473,146.617,100.072,40.2392,0.0553441,0.581883,20.1881,482.477,8.0522,0.0,0.0
106,26.25,43.4482,45.6155,139.456,100.087,39.434,0.0553852,0.588832,20.1806,482.357,8.23218,0.0,0.0
108,26.75,43.8398,46.1338,129.688,100.078,40.7142,0.0553494,0.595102,20.1745,482.207,7.94906,0.0,0.0
110,27.25,44.9871,46.3847,140.654,100.1,42.2661,0.0552582,0.600437,20.1695,482.057,7.62035,0.0,0.0
112,27.75,44.6106,46.6619,138.925,100.084,40.7032,0.0551843,0.604989,20.1655,481.927,7.95197,0.0,0.0
114,28.25,45.6801,47.607,140.666,100.098,41.3157,0.0549505,0.608665,20.1624,481.787,7.82118,0.0,0.0
116,28.75,45.7155,48.1957,145.339,100.091,37.648,0.0546046,0.611634,20.16,481.667,8.64219,0.0,0.0
118,29.25,45.9604,48.5881,145.582,100.102,36.8878,0.0541285,0.61365,20.1581,481.557,8.82344,0.0,0.0
120,29.75,46.8288,49.1519,139.641,100.086,36.7069,0.0535666,0.614933,20.1583,481.396,8.8655,0.0,0.0
122,30.25,46.5826,49.2151,145.198,100.089,38.7209,0.0528935,0.615973,20.1585,481.296,8.39369,0.0,0.0
124,30.75,46.8945,49.9669,139.253,100.073,35.548,0.0521519,0.614801,20.1631,481.186,9.14793,0.0,0.0
126,31.25,47.2475,49.8536,146.345,100.082,35.118,0.0513163,0.613852,20.1668,481.066,9.25624,0.0,0.0
128,31.75,48.3522,51.4703,148.295,100.081,35.5107,0.0504279,0.61161,20.1698,480.936,9.15786,0.0,0.0
130,32.25,48.4283,51.3705,146.699,100.065,34.2499,0.0497084,0.608468,20.178,480.846,9.47599,0.0,0.0
132,32.75,48.8131,51.703,150.472,100.061,35.2579,0.0491256,0.605352,20.1846,480.716,9.21927,0.0,0.0
134,33.25,48.2301,50.4911,145,100.051,31.6762,0.0479948,0.602313,20.1923,480.626,10.1652,0.0,0.0
136,33.75,48.8445,51.6936,144.327,100.025,34.1441,0.0470789,0.599691,20.2005,480.506,9.49977,0.0,0.0
138,34.25,48.7918,52.0256,142.364,100.02,33.9441,0.0461307,0.597424,20.2076,480.415,9.55126,0.0,0.0
140,34.75,49.6646,52.6193,146.238,100.009,34.626,0.0451768,0.595587,20.2138,480.325,9.37454,0.0,0.0
142,35.25,50.1227,52.6902,143.935,99.9846,36.9657,0.0444042,0.5941,20.2188,480.255,8.79445,0.0,0.0
144,35.75,50.3225,53.0901,142.284,99.9599,36.367,0.0433104,0.593313,20.2231,480.105,8.93658,0.0,0.0
146,36.25,50.2209,53.0485,141.566,99.9441,36.0315,0.0424243,0.592675,20.2267,480.015,9.01709,0.0,0.0
148,36.75,50.4056,53.5159,141.419,99.9177,36.9247,0.0413419,0.592129,20.2297,479.925,8.79833,0.0,0.0
150,37.25,51.3752,54.1707,141.833,99.8974,37.7692,0.0404652,0.59166,20.2353,479.825,8.59666,0.0,0.0
152,37.75,51.7516,54.6615,145.825,99.8674,38.944,0.0394864,0.591279,20.2397,479.735,8.3233,0.0,0.0
154,38.25,51.5442,54.587,143.488,99.8439,40.8858,0.0384518,0.589511,20.2469,479.585,7.89116,0.0,0.0
156,38.75,51.895,55.1406,147.317,99.8191,42.6779,0.0374027,0.588078,20.2527,479.505,7.50981,0.0,0.0
158,39.25,52.7752,55.4537,146.106,99.8029,45.048,0.036363,0.584093,20.2643,479.415,7.03068,0.0,0.0
160,39.75,52.2244,55.3971,145.778,99.7575,42.6113,0.035289,0.580864,20.2736,479.355,7.51814,0.0,0.0
162,40.25,52.0461,55.4642,140.66,99.7445,42.9277,0.0342104,0.576467,20.2874,479.254,7.4516,0.0,0.0
164,40.75,51.9071,55.271,152.653,99.7088,47.0616,0.0331145,0.571299,20.2985,479.174,6.63585,0.0,0.0
166,41.25,52.7623,56.1772,150.386,99.6662,49.1429,0.0320268,0.565668,20.3133,479.114,6.24959,0.0,0.0
168,41.75,52.4397,55.8861,153.783,99.6386,49.1624,0.0311458,0.559806,20.3253,479.004,6.24364,0.0,0.0
170,42.25,53.0428,56.8547,145.854,99.6139,48.6943,0.0299297,0.553472,20.3379,478.954,6.326,0.0,0.0
172,42.75,53.5067,57.0293,148.255,99.5977,50.3821,0.0289447,0.546915,20.3505,478.874,6.02339,0.0,0.0
174,43.25,53.0756,56.8669,153.299,99.5474,53.1356,0.0277792,0.539894,20.3608,478.784,5.54863,0.0,0.0
176,43.75,52.9183,56.8537,154.661,99.5206,54.8198,0.0268352,0.532668,20.3744,478.734,5.27046,0.0,0.0
178,44.25,52.8387,56.4425,145.591,99.4825,55.2335,0.0258212,0.526814,20.3855,478.674,5.20062,0.0,0.0
180,44.75,52.8516,56.5613,152.769,99.4488,54.4267,0.0247755,0.517974,20.4002,478.624,5.32768,0.0,0.0
182,45.25,53.4737,57.1376,153.114,99.4034,57.265,0.0237249,0.510814,20.4121,478.534,4.87435,0.0,0.0
184,45.75,53.6928,57.6889,148.975,99.3786,57.9322,0.0226907,0.502613,20.4298,478.474,4.76976,0.0,0.0
186,46.25,53.2472,57.3064,146.921,99.3348,57.7282,0.0216617,0.493809,20.4441,478.454,4.79705,0.0,0.0
188,46.75,53.2575,57.0622,152.613,99.3158,59.2372,0.020656,0.48409,20.4636,478.404,4.56729,0.0,0.0
190,47.25,53.4336,57.4434,151.596,99.2703,62.5399,0.0196626,0.473889,20.4795,478.314,4.08372,0.0,0.0
192,47.75,53.4379,57.5095,153.931,99.2424,63.9357,0.0186971,0.462986,20.4994,478.314,3.88614,0.0,0.0
194,48.25,53.8419,57.6979,151.326,99.2192,65.198,0.0179151,0.451778,20.5156,478.243,3.71127,0.0,0.0
196,48.75,53.378,57.4541,154.882,99.1815,65.8117,0.0170422,0.440272,20.5287,478.243,3.6251,0.0,0.0
198,49.25,53.9105,57.6222,154.114,99.1478,68.2391,0.0161197,0.428768,20.5455,478.193,3.30198,0.0,0.0
200,49.75,53.6022,57.5822,151.781,99.1296,67.1941,0.0152461,0.417121,20.5591,478.143,3.43674,0.0,0.0
202,50.25,53.7585,57.5337,153.615,99.0902,67.9214,0.0144248,0.405592,20.5759,478.103,3.33808,0.0,0.0
204,50.75,53.4241,56.9865,157.408,99.0712,69.8101,0.0137594,0.396253,20.5895,478.093,3.09397,0.0,0.0
206,51.25,53.284,57.3162,160.43,99.031,72.0776,0.0129844,0.385307,20.605,478.063,2.80787,0.0,0.0
208,51.75,53.5146,57.2461,156.318,99.0185,73.7233,0.0123566,0.373397,20.6215,478.043,2.60722,0.0,0.0
210,52.25,53.588,57.1751,154.841,98.973,75.2164,0.0116473,0.363749,20.6398,478.003,2.42595,0.0,0.0
212,52.75,53.2857,57.1118,157.027,98.9653,74.5771,0.0110728,0.350183,20.659,477.973,2.5007,0.0,0.0
214,53.25,53.0668,57.1657,160.037,98.9207,77.1298,0.010439,0.339194,20.6774,477.983,2.19925,0.0,0.0
216,53.75,53.069,56.6571,156.877,98.9049,76.3262,0.00970683,0.326231,20.7023,477.953,2.2904,0.0,0.0
218,54.25,53.1267,57.2078,155.416,98.8826,77.2231,0.00941834,0.315731,20.7089,477.943,2.18516,0.0,0.0
220,54.75,52.7195,56.323,152.193,98.8615,79.218,0.00892503,0.303796,20.7229,477.903,1.95785,0.0,0.0
222,55.25,52.6291,56.5611,156.415,98.8384,78.844,0.00852544,0.294129,20.7366,477.903,1.9976,0.0,0.0
224,55.75,52.6493,56.9626,156.66,98.823,79.6228,0.00820178,0.283479,20.7476,477.883,1.90935,0.0,0.0
226,56.25,52.5576,56.316,158.988,98.8047,79.6456,0.00772551,0.274852,20.7584,477.853,1.9052,0.0,0.0
228,56.75,52.4562,56.4284,157.522,98.8047,81.2916,0.00733973,0.261071,20.7687,477.833,1.72439,0.0,0.0
230,57.25,51.7647,56.0593,163,98.786,81.8754,0.00694542,0.257364,20.7771,477.833,1.65948,0.0,0.0
232,57.75,51.8928,56.3417,153.498,98.799,83.5413,0.00662602,0.251025,20.7874,477.813,1.48261,0.0,0.0
234,58.25,51.7632,56.1079,164.562,98.767,83.4646,0.00632173,0.24589,20.7957,477.833,1.48786,0.0,0.0
236,58.75,52.0374,56.2107,160.496,98.7755,84.66,0.00603424,0.236775,20.8083,477.823,1.36293,0.0,0.0
238,59.25,51.4958,55.5142,163.941,98.7641,86.1934,0.00576628,0.229392,20.8184,477.793,1.20327,0.0,0.0
240,59.75,51.5815,55.5378,167.73,98.7731,86.2437,0.00551764,0.22184,20.8329,477.793,1.19892,0.0,0.0
242,60.25,51.4775,55.3515,162.575,98.7544,87.9339,0.00529289,0.214309,20.8446,477.783,1.0257,0.0,0.0
244,60.75,50.8756,54.9411,159.788,98.7783,87.4683,0.00508982,0.207038,20.8576,477.773,1.07477,0.0,0.0
246,61.25,50.6279,54.7425,165.519,98.7654,88.946,0.00491367,0.200096,20.8682,477.753,0.925534,0.0,0.0
248,61.75,50.4037,54.8518,162.868,98.7812,89.6283,0.00476048,0.194472,20.8803,477.753,0.859412,0.0,0.0
250,62.25,50.5738,54.6945,165.364,98.7718,90.483,0.0046364,0.187808,20.8901,477.753,0.774695,0.0,0.0
252,62.75,50.1586,54.3495,161.536,98.7913,90.5507,0.00452747,0.181427,20.898,477.733,0.769822,0.0,0.0
254,63.25,50.3587,54.9102,165.003,98.7881,90.2294,0.00443165,0.175373,20.9067,477.713,0.800946,0.0,0.0
256,63.75,49.8873,54.0081,162.049,98.8083,91.4334,0.00434821,0.169611,20.9137,477.703,0.685609,0.0,0.0
258,64.25,49.9246,54.1117,162.246,98.8173,91.435,0.00427538,0.16417,20.922,477.683,0.68625,0.0,0.0
260,64.75,49.3414,53.9604,166.322,98.8396,92.2625,0.00420603,0.159764,20.9288,477.703,0.608616,0.0,0.0
262,65.25,49.4794,53.5835,162.193,98.8396,91.2882,0.00414053,0.154303,20.9369,477.683,0.702451,0.0,0.0
264,65.75,49.2435,53.7184,163.562,98.8757,91.6528,0.004081,0.149879,20.9435,477.693,0.670441,0.0,0.0
266,66.25,48.7876,53.5866,165.893,98.8878,91.8633,0.00402696,0.145328,20.9515,477.673,0.651251,0.0,0.0
268,66.75,48.9692,52.967,168.405,98.9158,91.8739,0.00398319,0.14077,20.958,477.653,0.652738,0.0,0.0
270,67.25,48.7859,52.7989,165.862,98.9199,91.5713,0.00394035,0.136409,20.9654,477.663,0.682259,0.0,0.0
272,67.75,48.6096,52.4916,169.247,98.9734,91.8163,0.00392209,0.132273,20.9686,477.643,0.663426,0.0,0.0
274,68.25,48.5987,52.0778,166.789,98.9791,91.8163,0.00388718,0.128923,20.974,477.623,0.663932,0.0,0.0
276,68.75,47.797,52.1149,170.956,99.016,91.564,0.0038589,0.124997,20.9802,477.613,0.691549,0.0,0.0
278,69.25,47.9815,52.0436,162.987,99.0363,91.4309,0.003836,0.121817,20.9852,477.603,0.706211,0.0,0.0
280,69.75,47.7595,51.7853,168.338,99.0988,91.9765,0.00380999,0.118421,20.9898,477.613,0.659202,0.0,0.0
282,70.25,47.0353,51.0911,163.279,99.113,92.2215,0.00378893,0.11567,20.9939,477.613,0.636954,0.0,0.0
284,70.75,47.4476,51.4048,167.122,99.1641,92.3132,0.00375958,0.114103,20.9972,477.593,0.632728,0.0,0.0
286,71.25,46.8473,50.7974,171.472,99.1754,92.095,0.00373581,0.111423,21.0013,477.593,0.654661,0.0,0.0
288,71.75,46.1912,50.4368,165.872,99.231,92.9359,0.0036834,0.109253,21.0052,477.593,0.579277,0.0,0.0
290,72.25,46.7383,50.5511,172.215,99.2424,92.7192,0.00364095,0.106762,21.0087,477.593,0.600913,0.0,0.0
292,72.75,46.3502,50.5717,167.8,99.2959,92.7322,0.00357221,0.104744,21.0123,477.573,0.604442,0.0,0.0
294,73.25,46.5066,50.4191,167.814,99.3186,92.8227,0.00351654,0.102818,21.0158,477.573,0.597847,0.0,0.0
296,73.75,46.2248,50.6964,163.088,99.3669,92.4649,0.00344815,0.100997,21.0187,477.573,0.636274,0.0,0.0
298,74.25,46.2969,50.526,165.244,99.3973,93.5613,0.00339276,0.0993179,21.021,477.563,0.534791,0.0,0.0
300,74.75,45.9705,49.7883,168.074,99.4675,92.9383,0.00334273,0.0977747,21.0229,477.573,0.600083,0.0,0.0
302,75.25,44.9015,48.9824,165.236,99.4804,92.63,0.00329756,0.096336,21.0253,477.553,0.630603,0.0,0.0
304,75.75,45.3474,49.3665,169.403,99.5433,93.4283,0.00326098,0.0950006,21.0272,477.553,0.560344,0.0,0.0
306,76.25,45.2968,49.8672,162.408,99.581,92.4755,0.00323135,0.0936869,21.0288,477.543,0.654294,0.0,0.0
308,76.75,45.0539,48.9259,165.855,99.6277,93.2328,0.00320734,0.0924138,21.0309,477.543,0.586346,0.0,0.0
310,77.25,44.7118,49.2857,167.054,99.6545,93.3269,0.00318661,0.0912014,21.0327,477.533,0.579805,0.0,0.0
312,77.75,44.4186,48.4938,168.298,99.7064,93.2993,0.00316866,0.0900562,21.0341,477.513,0.587021,0.0,0.0
314,78.25,44.5929,48.3142,165.635,99.7425,93.363,0.00315412,0.0891287,21.0353,477.523,0.584189,0.0,0.0
316,78.75,44.2219,47.9974,160.898,99.792,93.0531,0.00314234,0.0879509,21.0362,477.523,0.617959,0.0,0.0
318,79.25,43.2394,46.7198,168.373,99.826,93.6806,0.00311565,0.0869968,21.0368,477.533,0.561573,0.0,0.0
320,79.75,43.3908,46.9966,172.29,99.8893,93.3135,0.00309403,0.0860504,21.0372,477.523,0.601877,0.0,0.0
322,80.25,43.3953,47.2012,168.49,99.9169,93.3991,0.00307163,0.0851275,21.0376,477.523,0.596213,0.0,0.0
324,80.75,43.6997,46.8284,166.558,99.9651,93.3934,0.00305348,0.08438,21.0379,477.513,0.601018,0.0,0.0
326,81.25,43.3407,46.9735,169.439,100.006,93.8895,0.00303633,0.0837745,21.0383,477.523,0.557816,0.0,0.0
328,81.75,42.9814,47.1391,167.751,100.05,93.595,0.00302243,0.0829956,21.0389,477.523,0.589417,0.0,0.0
330,82.25,43.2561,46.1591,166.68,100.097,93.3861,0.00300506,0.0823647,21.0396,477.523,0.613357,0.0,0.0
332,82.75,42.8371,46.6637,167.473,100.128,93.1918,0.00299099,0.0816888,21.0404,477.513,0.634487,0.0,0.0
334,83.25,42.4684,46.1302,168.352,100.164,93.5317,0.00297959,0.0811414,21.041,477.513,0.605529,0.0,0.0
336,83.75,42.3269,46.6052,167.267,100.2,93.6769,0.002952,0.0805334,21.0415,477.533,0.594966,0.0,0.0
338,84.25,42.5744,45.919,170.613,100.249,94.3949,0.00292966,0.0800408,21.0419,477.513,0.531846,0.0,0.0
340,84.75,42.0156,45.8549,166.005,100.283,94.3353,0.00291241,0.0795913,21.0421,477.513,0.5404,0.0,0.0
342,85.25,41.7706,45.7973,169.65,100.329,94.1487,0.00288291,0.0791817,21.0424,477.513,0.561902,0.0,0.0
344,85.75,41.8159,45.4944,165.819,100.362,93.511,0.00285901,0.0787849,21.0426,477.503,0.624897,0.0,0.0
346,86.25,41.4543,45.4421,164.139,100.387,94.1065,0.00280787,0.0784051,21.0433,477.493,0.570971,0.0,0.0
348,86.75,41.7303,45.1778,168.947,100.424,94.2647,0.00275488,0.0780974,21.0438,477.493,0.559411,0.0,0.0
350,87.25,41.1067,45.1593,164.135,100.464,94.1868,0.00270154,0.0776974,21.0442,477.493,0.570286,0.0,0.0
352,87.75,41.053,45.0998,167.522,100.494,93.8019,0.00265833,0.0775268,21.0446,477.493,0.609123,0.0,0.0
354,88.25,41.0542,44.846,165.408,100.526,93.8489,0.00261479,0.0771775,21.0448,477.483,0.607437,0.0,0.0
356,88.75,41.2328,44.6505,163.785,100.544,94.3888,0.00257952,0.0768425,21.0451,477.473,0.558306,0.0,0.0
358,89.25,40.9081,44.6514,170.755,100.585,94.6935,0.00256072,0.0765712,21.0452,477.443,0.533427,0.0,0.0
360,89.75,40.6075,44.2109,163.592,100.588,94.2878,0.00254549,0.0762967,21.0454,477.443,0.571654,0.0,0.0
362,90.25,39.8348,44.6983,170.214,100.623,95.0618,0.00253316,0.0760743,21.0455,477.443,0.502501,0.0,0.0
364,90.75,40.3962,43.9245,169.037,100.638,94.0716,0.00255257,0.075853,21.0456,477.443,0.596398,0.0,0.0
366,91.25,40.1615,44.2246,167.145,100.677,94.0587,0.00256829,0.0756738,21.0457,477.433,0.601036,0.0,0.0
368,91.75,40.2456,43.8782,166.077,100.686,95.0849,0.00259691,0.0755423,21.0457,477.433,0.505871,0.0,0.0
370,92.25,39.7328,44.002,165.033,100.706,94.4367,0.0026201,0.0754358,21.0456,477.433,0.568076,0.0,0.0
372,92.75,39.8771,44.122,170.624,100.713,94.2169,0.00265967,0.0753708,21.0457,477.433,0.589316,0.0,0.0
374,93.25,39.8569,43.8839,168.814,100.741,94.3738,0.00269173,0.0753372,21.046,477.423,0.577058,0.0,0.0
376,93.75,39.677,43.5458,166.885,100.744,93.9435,0.00272993,0.0753099,21.0463,477.403,0.617741,0.0,0.0
378,94.25,39.6157,43.0498,160.107,100.754,93.7666,0.00276087,0.0752468,21.0465,477.423,0.635286,0.0,0.0
380,94.75,39.6677,43.0557,163.198,100.759,94.7458,0.00277981,0.0751956,21.0467,477.423,0.543857,0.0,0.0
382,95.25,39.4991,43.1562,165.867,100.773,94.4602,0.00279516,0.0751181,21.0469,477.423,0.571781,0.0,0.0
384,95.75,39.5566,43.0117,163.477,100.78,94.2327,0.00279729,0.0750229,21.047,477.413,0.593739,0.0,0.0
386,96.25,39.513,43.2858,167.432,100.789,94.3978,0.00278974,0.0749183,21.0471,477.413,0.579051,0.0,0.0
388,96.75,39.0252,42.7743,167.499,100.778,95.3388,0.00278363,0.0748336,21.0472,477.423,0.490378,0.0,0.0
390,97.25,38.9147,42.3656,166.935,100.793,95.1539,0.00275745,0.0747146,21.0472,477.403,0.508824,0.0,0.0
392,97.75,39.0276,42.5761,160.52,100.774,94.4769,0.00271714,0.0745727,21.0473,477.403,0.57026,0.0,0.0
394,98.25,38.3603,42.0892,167.444,100.782,94.6923,0.00267034,0.0744362,21.0473,477.413,0.550844,0.0,0.0
396,98.75,38.6209,42.3548,167.628,100.769,94.2895,0.00261972,0.0743061,21.0473,477.413,0.587419,0.0,0.0
398,99.25,38.7221,42.5791,166.925,100.781,93.9025,0.00256908,0.0742007,21.0474,477.413,0.624835,0.0,0.0
400,99.75,38.4199,41.8767,165.15,100.766,94.0465,0.00251939,0.0740469,21.0474,477.413,0.609939,0.0,0.0
402,100.25,38.7269,41.8901,165.555,100.774,94.2781,0.00247914,0.0739224,21.0474,477.403,0.588874,0.0,0.0
404,100.75,38.3073,42.1269,168.584,100.757,94.4464,0.00244775,0.073771,21.0474,477.413,0.571613,0.0,0.0
406,101.25,38.4624,41.6442,165.478,100.756,94.0104,0.00242234,0.073603,21.0477,477.403,0.612443,0.0,0.0
408,101.75,38.0552,41.4477,168.367,100.735,94.4846,0.00240175,0.0734309,21.0481,477.403,0.56616,0.0,0.0
410,102.25,37.9558,41.4346,164.381,100.733,94.4371,0.00240337,0.073259,21.0486,477.393,0.570386,0.0,0.0
412,102.75,37.9386,41.3997,172.101,100.713,94.0639,0.00240469,0.0731198,21.0492,477.383,0.603638,0.0,0.0
414,103.25,37.4906,40.8159,165.382,100.719,94.3807,0.00242774,0.0728976,21.0497,477.383,0.574455,0.0,0.0
416,103.75,37.4023,40.8051,166.96,100.68,94.3353,0.00244641,0.0727176,21.05,477.383,0.575293,0.0,0.0
418,104.25,37.7373,41.257,167.055,100.677,94.8375,0.00246153,0.0725717,21.0504,477.393,0.528118,0.0,0.0
420,104.75,37.2892,40.8624,157.878,100.659,94.5446,0.00249822,0.0723672,21.0506,477.383,0.553887,0.0,0.0
422,105.25,37.4177,40.7138,165.322,100.651,94.158,0.00252793,0.0721238,21.0508,477.373,0.589423,0.0,0.0
424,105.75,38.0228,40.596,164.778,100.63,94.5012,0.00254382,0.071905,21.0509,477.363,0.555381,0.0,0.0
426,106.25,37.2972,40.9119,162.313,100.621,94.2627,0.00257098,0.0717083,21.0511,477.373,0.576898,0.0,0.0
428,106.75,36.9119,40.4429,168.276,100.587,94.6882,0.00259298,0.0715922,21.0512,477.353,0.534168,0.0,0.0
430,107.25,36.7484,39.8824,166.68,100.58,94.6018,0.00261447,0.071537,21.0513,477.353,0.541631,0.0,0.0
432,107.75,36.3609,39.5689,164.648,100.568,94.7507,0.00263059,0.0714924,21.0514,477.353,0.526663,0.0,0.0
434,108.25,37.243,40.3819,164.746,100.543,94.3929,0.00264249,0.0714706,21.0514,477.343,0.55789,0.0,0.0
436,108.75,37.4602,40.057,170.683,100.52,94.5844,0.0026502,0.0714681,21.0515,477.343,0.537913,0.0,0.0
438,109.25,36.6782,40.344,168.647,100.505,93.8234,0.0026547,0.0714711,21.0515,477.343,0.60799,0.0,0.0
440,109.75,37.0247,39.5957,167.289,100.475,93.9463,0.00265835,0.07148,21.0516,477.343,0.593778,0.0,0.0
442,110.25,37.1922,39.7746,169.846,100.459,94.3337,0.00266131,0.0714872,21.0516,477.343,0.556053,0.0,0.0
444,110.75,36.8683,39.4827,166.822,100.433,94.8152,0.0026637,0.0713973,21.0516,477.323,0.508736,0.0,0.0
446,111.25,35.7833,39.5553,170.227,100.432,94.6943,0.00266757,0.0713244,21.0516,477.323,0.519904,0.0,0.0
448,111.75,35.9965,39.137,165.5,100.392,94.0871,0.00267244,0.0711697,21.0516,477.313,0.573264,0.0,0.0
450,112.25,36.158,39.5828,168.909,100.376,94.1017,0.00267639,0.0710155,21.0516,477.313,0.5705,0.0,0.0
452,112.75,35.9863,39.4205,166.218,100.346,94.0331,0.00267959,0.0708647,21.0517,477.313,0.574298,0.0,0.0
454,113.25,35.9826,38.395,164.125,100.351,94.412,0.00268282,0.0707426,21.0517,477.323,0.539188,0.0,0.0
456,113.75,36.3429,38.8946,166.921,100.31,93.1983,0.00268602,0.0706509,21.0517,477.313,0.649933,0.0,0.0
458,114.25,36.3347,39.3286,164.061,100.297,93.6323,0.00268732,0.0705831,21.0517,477.303,0.607688,0.0,0.0
460,114.75,36.0548,38.8544,165.416,100.271,94.3134,0.00268722,0.0705281,21.0517,477.303,0.54138,0.0,0.0
462,115.25,36.4022,39.2813,170.427,100.257,93.5451,0.00268713,0.070511,21.0517,477.293,0.612421,0.0,0.0
464,115.75,35.836,38.7836,167.265,100.228,94.1179,0.00268707,0.0704971,21.0517,477.303,0.555895,0.0,0.0
466,116.25,35.9586,38.8329,167.094,100.22,93.896,0.00268701,0.0705269,21.0517,477.303,0.576076,0.0,0.0
468,116.75,35.7386,38.685,164.976,100.188,94.0234,0.00268697,0.070551,21.0517,477.303,0.561305,0.0,0.0
470,117.25,36.0923,39.2046,167.265,100.17,93.4283,0.00268693,0.0705295,21.0517,477.303,0.615846,0.0,0.0
472,117.75,35.8194,38.962,167.201,100.157,93.8773,0.0026869,0.0705121,21.0517,477.293,0.572251,0.0,0.0
474,118.25,35.7557,38.6871,166.648,100.136,93.3265,0.0026661,0.0704023,21.0521,477.283,0.622477,0.0,0.0
476,118.75,35.4403,38.6287,166.582,100.111,94.2955,0.0026409,0.0703133,21.0525,477.283,0.528954,0.0,0.0
478,119.25,35.8117,38.3779,169.468,100.104,93.9451,0.00261296,0.0701182,21.0528,477.293,0.561258,0.0,0.0
480,119.75,35.2755,38.5047,162.443,100.092,93.6307,0.00259033,0.0699602,21.053,477.283,0.589808,0.0,0.0
482,120.25,35.6102,38.0964,163.947,100.059,94.2075,0.00256101,0.0697501,21.0532,477.273,0.532589,0.0,0.0
484,120.75,35.206,38.1523,169.884,100.058,94.4692,0.00253726,0.06958,21.0534,477.273,0.508005,0.0,0.0
486,121.25,35.4687,38.5454,164.866,100.026,95.3977,0.00251605,0.0694422,21.0537,477.263,0.418729,0.0,0.0
488,121.75,35.2983,38.4202,163.421,100.044,93.7074,0.0024971,0.0691802,21.0542,477.253,0.578346,0.0,0.0
490,122.25,34.7693,38.0388,168.513,100.002,93.4948,0.00248175,0.0689681,21.0546,477.253,0.594654,0.0,0.0
492,122.75,34.7888,38.2997,168.346,99.998,93.7009,0.00246932,0.0687552,21.0551,477.243,0.574874,0.0,0.0
494,123.25,34.6509,38.4171,168.36,99.983,93.5455,0.00246182,0.0685828,21.0555,477.253,0.588212,0.0,0.0
496,123.75,34.8567,37.9559,164.348,99.9749,93.4851,0.00245805,0.0684158,21.0559,477.263,0.593208,0.0,0.0
498,124.25,35.1785,38.0324,170.038,100.002,94.5174,0.002455,0.0682806,21.0561,477.233,0.498544,0.0,0.0
500,124.75,34.988,37.659,167.773,100.043,94.1126,0.00245254,0.0681499,21.0563,477.233,0.540101,0.0,0.0
502,125.25,35.1808,37.2429,169.101,100.086,94.0153,0.00245439,0.068025,21.0565,477.213,0.553081,0.0,0.0
504,125.75,34.6961,37.599,166.943,100.123,93.8741,0.00245937,0.0678735,21.0563,477.203,0.569585,0.0,0.0
506,126.25,35.1554,37.8543,163.614,100.151,93.9053,0.00245761,0.0677055,21.0561,477.213,0.569079,0.0,0.0
508,126.75,34.6475,37.3671,165.45,100.21,94.0838,0.00244816,0.0675694,21.0565,477.203,0.557557,0.0,0.0
510,127.25,34.9477,37.1221,170.45,100.242,94.6963,0.00244562,0.0674591,21.0566,477.203,0.502993,0.0,0.0
512,127.75,34.1098,37.6839,161.956,100.269,93.6709,0.00242418,0.0673016,21.0568,477.203,0.60162,0.0,0.0
514,128.25,34.7176,37.5444,169.674,100.286,94.7446,0.00240682,0.0671739,21.057,477.203,0.502386,0.0,0.0
516,128.75,34.3705,37.3548,167.612,100.33,94.0368,0.00238421,0.0670346,21.0571,477.213,0.572561,0.0,0.0
518,129.25,34.9263,37.0813,166.429,100.344,94.4525,0.00236591,0.0668894,21.0572,477.213,0.534748,0.0,0.0
520,129.75,34.6006,37.4441,163.404,100.38,94.4197,0.00235473,0.0666642,21.0573,477.203,0.541003,0.0,0.0
522,130.25,34.8243,37.3003,162.734,100.395,93.9986,0.00234569,0.0665674,21.0574,477.193,0.581825,0.0,0.0
524,130.75,34.3396,37.3464,160.882,100.427,94.0895,0.00234812,0.0664017,21.0575,477.193,0.576142,0.0,0.0
526,131.25,34.2093,37.1612,162.304,100.44,95.4358,0.00235009,0.0662403,21.0575,477.172,0.451714,0.0,0.0
528,131.75,34.4665,36.2328,167.855,100.472,95.0768,0.00235169,0.0661095,21.0575,477.172,0.487842,0.0,0.0
530,132.25,34.2775,36.7786,171.285,100.484,94.315,0.00236527,0.0659626,21.0576,477.182,0.559942,0.0,0.0
532,132.75,33.8343,36.4111,172.006,100.505,94.0818,0.00237627,0.0658436,21.0576,477.172,0.583683,0.0,0.0
534,133.25,34.6051,37.3248,166.345,100.503,94.8695,0.00238775,0.0657042,21.0576,477.162,0.509843,0.0,0.0
536,133.75,34.3355,36.5634,165.555,100.527,94.2611,0.00239936,0.0655524,21.0575,477.172,0.568781,0.0,0.0
538,134.25,34.0978,36.7427,168.826,100.516,94.8529,0.0024062,0.0654295,21.0573,477.152,0.512498,0.0,0.0
540,134.75,34.2741,36.4603,162.13,100.539,94.5539,0.00240942,0.0653163,21.0572,477.152,0.542468,0.0,0.0
542,135.25,33.654,36.7224,164.917,100.525,94.0392,0.00240304,0.0652246,21.0572,477.132,0.589503,0.0,0.0
544,135.75,33.7977,36.8701,166.819,100.54,94.5462,0.00238978,0.0651355,21.0571,477.142,0.543259,0.0,0.0
546,136.25,33.7646,36.231,168.043,100.526,94.7267,0.00236317,0.06505,21.057,477.152,0.525188,0.0,0.0
548,136.75,33.5142,36.5441,164.243,100.538,94.1313,0.00234163,0.0649737,21.057,477.142,0.581994,0.0,0.0
550,137.25,34.0848,36.2459,166.103,100.507,94.339,0.00231685,0.0649053,21.0572,477.132,0.559769,0.0,0.0
552,137.75,33.5591,36.535,172.163,100.522,94.3905,0.00229679,0.0648284,21.0576,477.142,0.556228,0.0,0.0
554,138.25,33.2231,35.4205,165.257,100.501,94.6785,0.00228054,0.0647467,21.0579,477.142,0.527447,0.0,0.0
556,138.75,32.9023,35.6901,164.11,100.516,94.0509,0.00226673,0.0646447,21.0581,477.122,0.587612,0.0,0.0
558,139.25,33.6956,36.2561,166.027,100.487,94.431,0.00225497,0.0645297,21.0583,477.132,0.549362,0.0,0.0
560,139.75,33.7877,36.3482,167.815,100.486,94.7393,0.0022525,0.0644078,21.0585,477.142,0.52052,0.0,0.0
562,140.25,33.9421,36.5275,169.339,100.441,95.3693,0.00225686,0.0642833,21.0586,477.132,0.457948,0.0,0.0
564,140.75,33.7281,35.7689,170.63,100.441,94.5848,0.00226039,0.0641824,21.0587,477.122,0.530989,0.0,0.0
566,141.25,33.9681,36.213,169.304,100.403,94.8643,0.00227545,0.0640325,21.0588,477.132,0.501556,0.0,0.0
568,141.75,33.9718,36.3631,164.973,100.392,94.1053,0.00229022,0.0639111,21.0589,477.122,0.571585,0.0,0.0
570,142.25,33.4048,35.3868,172.284,100.361,94.2104,0.00230449,0.0637625,21.0589,477.132,0.558938,0.0,0.0
572,142.75,33.2503,35.1624,163.866,100.346,94.0956,0.00231606,0.0635969,21.059,477.142,0.568393,0.0,0.0
574,143.25,33.5211,36.0493,167.011,100.293,94.8776,0.00232786,0.0634628,21.0592,477.132,0.490626,0.0,0.0
576,143.75,33.5372,35.9683,168.742,100.27,93.5832,0.00233743,0.0632996,21.0597,477.132,0.609999,0.0,0.0
578,144.25,33.4661,35.8988,159.99,100.218,93.9775,0.00233297,0.0631674,21.06,477.132,0.568262,0.0,0.0
580,144.75,33.5852,36.0401,166.957,100.204,94.0173,0.00232936,0.0629922,21.0603,477.132,0.563272,0.0,0.0
582,145.25,33.4776,36.2986,168.521,100.148,93.4401,0.0023085,0.0628503,21.0605,477.132,0.612765,0.0,0.0
584,145.75,33.5186,35.5001,170.15,100.13,93.971,0.00229236,0.0626923,21.0607,477.142,0.561071,0.0,0.0
586,146.25,32.9494,35.1757,164.584,100.062,94.5247,0.00226475,0.0625255,21.0609,477.122,0.503165,0.0,0.0
588,146.75,32.8166,35.1328,167.829,100.029,93.7366,0.00221437,0.0623474,21.061,477.122,0.574231,0.0,0.0
590,147.25,33.4759,35.4799,168.334,99.9708,94.0465,0.00217356,0.0621645,21.0611,477.122,0.539931,0.0,0.0
592,147.75,33.485,35.6459,168.518,99.94,93.4948,0.0021405,0.0619804,21.0612,477.122,0.589203,0.0,0.0
594,148.25,33.5665,35.7869,164.953,99.8808,93.5516,0.00209706,0.061799,21.0612,477.112,0.578598,0.0,0.0
596,148.75,32.5049,35.7945,163.371,99.8406,93.6007,0.00204688,0.0616521,21.0614,477.112,0.570408,0.0,0.0
598,149.25,33.6172,35.7837,165.187,99.7818,94.023,0.00200623,0.0614514,21.0616,477.112,0.525416,0.0,0.0
600,149.75,33.1185,34.9961,164.958,99.7222,94.072,0.00196722,0.0612888,21.0622,477.102,0.515521,0.0,0.0
602,150.25,32.1379,34.8905,169.912,99.6735,93.7195,0.00193883,0.0611571,21.0627,477.102,0.544387,0.0,0.0
604,150.75,32.7625,34.8921,168.034,99.6861,93.4644,0.00191871,0.0610289,21.0631,477.092,0.569596,0.0,0.0
606,151.25,32.9541,35.4373,171.048,99.6877,93.8372,0.00190498,0.0609057,21.0634,477.102,0.534558,0.0,0.0
608,151.75,33.0745,35.4451,168.6,99.6877,93.7698,0.0018924,0.0608059,21.0641,477.102,0.540904,0.0,0.0
610,152.25,32.7684,35.4314,167.485,99.6926,93.7658,0.00188902,0.0606297,21.0646,477.092,0.541716,0.0,0.0
612,152.75,33.1068,35.5926,162.779,99.7015,93.8911,0.00187299,0.060487,21.0651,477.092,0.530701,0.0,0.0
614,153.25,32.8744,35.5849,167.558,99.7137,94.4038,0.00185078,0.0602897,21.0655,477.092,0.483646,0.0,0.0
616,153.75,33.0521,35.4095,171.711,99.7287,93.4616,0.00183279,0.0601156,21.0658,477.112,0.57364,0.0,0.0
618,154.25,32.7335,35.2232,164.356,99.7246,93.29,0.00180119,0.0599616,21.066,477.092,0.589521,0.0,0.0
620,154.75,32.8161,35.458,169.883,99.7352,94.0895,0.00177559,0.0598369,21.0662,477.092,0.515032,0.0,0.0
622,155.25,32.7133,34.8921,169.237,99.7494,93.7005,0.00175486,0.0596951,21.0664,477.102,0.552907,0.0,0.0
624,155.75,33.1542,35.1976,165.764,99.7534,93.8607,0.00173807,0.0595802,21.0665,477.082,0.538167,0.0,0.0
626,156.25,32.8534,34.7074,165.074,99.7814,94.5207,0.00173176,0.0594871,21.0666,477.092,0.478718,0.0,0.0
628,156.75,32.6594,35.0296,167.019,99.7867,94.0201,0.00172665,0.0593164,21.0667,477.092,0.526114,0.0,0.0
630,157.25,32.849,35.4744,164.572,99.8126,93.8157,0.00172572,0.0591782,21.0667,477.102,0.547653,0.0,0.0
632,157.75,32.9143,34.9477,168.268,99.8118,93.3662,0.00172784,0.0590254,21.0668,477.092,0.590025,0.0,0.0
634,158.25,32.7553,34.7113,171.248,99.8301,93.7394,0.00173148,0.0589016,21.0668,477.082,0.556385,0.0,0.0
636,158.75,32.6318,34.6463,163.785,99.8345,93.8644,0.00173616,0.0587583,21.0669,477.082,0.545007,0.0,0.0
638,159.25,32.893,34.626,170.726,99.8512,94.0789,0.00173995,0.0586036,21.0669,477.082,0.526297,0.0,0.0
640,159.75,32.9225,35.1307,168.931,99.8601,93.8919,0.00174622,0.0584712,21.0669,477.082,0.544673,0.0,0.0
642,160.25,32.5455,34.919,168.663,99.8812,93.851,0.00175418,0.0583574,21.067,477.092,0.550396,0.0,0.0
644,160.75,32.0802,34.1361,169.216,99.8925,93.909,0.00176255,0.0582366,21.067,477.102,0.545941,0.0,0.0
646,161.25,32.4684,34.2888,166.471,99.9035,93.881,0.00177105,0.058113,21.067,477.092,0.549545,0.0,0.0
648,161.75,32.5802,34.3989,167.118,99.925,94.2891,0.00177731,0.0580129,21.067,477.092,0.513111,0.0,0.0
650,162.25,32.8947,34.4018,169.403,99.9412,94.298,0.00178179,0.0578909,21.067,477.092,0.513709,0.0,0.0
652,162.75,32.1913,34.8481,170.885,99.9424,94.2347,0.00177902,0.0577922,21.067,477.072,0.51975,0.0,0.0
654,163.25,32.9232,35.0194,166.361,99.9664,94.4266,0.00177102,0.0576835,21.0675,477.092,0.503889,0.0,0.0
656,163.75,32.2397,34.6827,165.952,99.9773,94.0242,0.00176453,0.0575698,21.0678,477.102,0.542602,0.0,0.0
658,164.25,32.4943,34.5839,158.267,100,93.6834,0.00173861,0.057449,21.0681,477.102,0.576733,0.0,0.0
660,164.75,32.13,34.4984,167.854,99.985,94.2903,0.00171761,0.0573254,21.0684,477.092,0.518305,0.0,0.0
662,165.25,32.3575,34.371,168.718,100.005,94.0944,0.00168609,0.0571966,21.0685,477.092,0.538445,0.0,0.0
664,165.75,31.9272,34.7118,162.058,100.008,94.0684,0.00166057,0.0570665,21.0685,477.082,0.541172,0.0,0.0
666,166.25,32.5509,34.6148,165.921,100.032,93.7678,0.0016399,0.0569182,21.0685,477.062,0.571573,0.0,0.0
668,166.75,32.4531,34.3349,165.232,100.041,94.1236,0.00161464,0.0567594,21.0685,477.052,0.538857,0.0,0.0
670,167.25,31.7939,34.0239,165.963,100.057,94.3045,0.00159419,0.0566308,21.0685,477.042,0.523355,0.0,0.0
672,167.75,32.3948,34.465,175.69,100.056,94.6517,0.00157398,0.0564579,21.0685,477.052,0.4908,0.0,0.0
674,168.25,32.2381,33.6952,165.977,100.079,94.4546,0.0015576,0.0563178,21.0685,477.042,0.511198,0.0,0.0
676,168.75,32.6587,34.1826,168.928,100.071,93.9568,0.00154242,0.0562115,21.0685,477.032,0.557213,0.0,0.0
678,169.25,32.2555,34.0882,170.623,100.095,94.1422,0.0015284,0.0561319,21.0685,477.042,0.541942,0.0,0.0
680,169.75,31.4967,34.4066,174.332,100.086,94.2392,0.00151218,0.0560673,21.0685,477.042,0.532021,0.0,0.0
682,170.25,32.3027,34.439,171.923,100.104,94.0858,0.00149905,0.0559879,21.0685,477.042,0.548025,0.0,0.0
684,170.75,31.2456,34.1487,165.813,100.095,93.8356,0.00148841,0.0559235,21.0685,477.042,0.570743,0.0,0.0
686,171.25,32.2103,34.2017,167.474,100.093,94.4675,0.00146653,0.0558356,21.0685,477.032,0.511272,0.0,0.0
688,171.75,32.2191,33.6629,167.953,100.091,94.8533,0.0014546,0.0557322,21.0686,477.032,0.47504,0.0,0.0
690,172.25,32.1528,33.9288,168.73,100.1,94.2416,0.00143419,0.055627,21.0687,477.032,0.533011,0.0,0.0
692,172.75,32.1386,34.19,165.722,100.086,94.5645,0.00141159,0.0555224,21.0691,477.032,0.501598,0.0,0.0
694,173.25,32.0712,34.2723,167.79,100.089,94.7868,0.00139328,0.0554377,21.0696,477.032,0.481098,0.0,0.0
696,173.75,31.9669,34.2564,166.808,100.072,94.6687,0.00136441,0.0553691,21.07,477.032,0.490607,0.0,0.0
698,174.25,31.671,33.6378,164.832,100.073,93.6526,0.00132837,0.0553408,21.0703,477.022,0.586057,0.0,0.0
700,174.75,32.1013,34.1781,168.868,100.057,94.0173,0.00129919,0.0553178,21.0706,477.022,0.550312,0.0,0.0
702,175.25,31.2486,33.2959,169.958,100.064,94.5085,0.00126091,0.0552448,21.0708,477.022,0.504825,0.0,0.0
704,175.75,31.1635,33.419,168.03,100.028,94.3609,0.0012299,0.0551857,21.071,477.012,0.515492,0.0,0.0
706,176.25,31.9372,33.8468,169.795,100.033,94.373,0.00120115,0.0550948,21.0712,477.012,0.514818,0.0,0.0
708,176.75,31.8341,33.2391,164.053,99.9948,94.3755,0.00117786,0.0549827,21.0715,477.012,0.511184,0.0,0.0
710,177.25,31.4802,33.3445,166.016,99.9919,93.449,0.00115899,0.0548918,21.0717,477.012,0.598128,0.0,0.0
712,177.75,31.2444,33.8526,166.581,99.9603,94.7685,0.00114371,0.0547828,21.0718,477.022,0.471403,0.0,0.0
714,178.25,32.2973,33.3906,168.344,99.9518,94.1418,0.00113376,0.0546627,21.072,477.012,0.529292,0.0,0.0
716,178.75,31.8601,33.6171,166.49,99.9197,95.0318,0.0011257,0.0545512,21.0721,477.012,0.443297,0.0,0.0
718,179.25,31.9951,33.3388,169.344,99.9136,94.4712,0.00111796,0.0544479,21.0722,477.012,0.495051,0.0,0.0
720,179.75,31.923,33.5991,164.903,99.8686,94.6432,0.00111169,0.05435,21.0723,477.012,0.474991,0.0,0.0
722,180.25,31.8779,33.7457,166.355,99.8792,93.7183,0.00110661,0.0542578,21.0723,477.012,0.562718,0.0,0.0
724,180.75,31.2559,33.517,167.262,99.8362,94.1848,0.00110734,0.0541423,21.0724,477.022,0.515028,0.0,0.0
726,181.25,31.1245,32.952,168.539,99.8228,93.7005,0.00110794,0.0540488,21.0724,477.012,0.55941,0.0,0.0
728,181.75,30.9523,32.7817,169.985,99.7871,94.2635,0.00112297,0.0539445,21.0724,477.022,0.503301,0.0,0.0
730,182.25,32.0079,33.9216,170.138,99.7814,93.6019,0.00113515,0.0538342,21.0725,477.012,0.56505,0.0,0.0
732,182.75,31.4173,33.6302,173.858,99.7421,94.7036,0.00114987,0.0537235,21.0725,477.012,0.458141,0.0,0.0
734,183.25,31.5633,33.5394,166.7,99.7222,94.3515,0.00116179,0.0536145,21.0725,477.022,0.489301,0.0,0.0
736,183.75,31.6568,33.1866,171.987,99.6837,93.9224,0.00116902,0.0535262,21.0725,477.022,0.526179,0.0,0.0
738,184.25,31.9437,33.3908,172.694,99.6634,93.5378,0.00117487,0.0534139,21.0725,477.002,0.560642,0.0,0.0
740,184.75,31.6781,33.2333,164.54,99.6309,93.3062,0.00117113,0.0533229,21.0725,477.012,0.579676,0.0,0.0
742,185.25,31.0885,32.8622,167.548,99.609,93.9938,0.00116809,0.0532493,21.0725,477.012,0.512843,0.0,0.0
744,185.75,30.7791,32.6761,170.233,99.5725,93.666,0.00114502,0.0531896,21.0726,477.012,0.540476,0.0,0.0
746,186.25,31.93,33.4295,167.457,99.5474,93.4214,0.00112633,0.0531141,21.073,477.022,0.561355,0.0,0.0
748,186.75,31.5647,33.2698,163.925,99.5109,93.8923,,0.053053,,477.012,0.513671,0.0,0.0
750,187.25,31.3273,33.5149,165.322,99.4886,93.3196,,0.0529219,,477.022,0.56577,0.0,0.0
752,187.75,31.7466,33.2553,164.555,99.4577,93.969,,0.0528158,,477.002,0.501736,0.0,0.0
754,188.25,31.3913,33.3767,163.92,99.4293,94.0372,,0.0527013,,477.012,0.492805,0.0,0.0
756,188.75,31.0791,33.4933,172.983,99.3831,94.1057,,0.0525828,,477.002,0.482254,0.0,0.0
758,189.25,31.9237,33.263,166.413,99.3446,93.6161,,0.0524868,,477.012,0.524929,0.0,0.0
760,189.75,31.95,33.6456,168.38,99.3162,93.595,,,,477.012,0.524395,0.0,0.0
762,190.25,31.1984,33.2426,163.952,99.289,94.0319,,,,477.012,0.480817,0.0,0.0
764,190.75,31.5195,33.3954,166.135,99.2497,93.4023,,,,477.012,0.536687,0.0,0.0
766,191.25,31.7171,33.2798,170.71,99.216,94.2408,,,,477.002,0.454701,0.0,0.0
768,191.75,31.2897,33.2229,165.245,99.1925,93.6717,,,,476.992,0.506142,0.0,0.0
770,192.25,31.7472,33.497,168.367,99.1608,92.9091,,,,477.002,0.575572,0.0,0.0
772,192.75,31.4688,33.5094,166.937,99.1365,93.7005,,,,477.002,0.498435,0.0,0.0
774,193.25,31.6575,33.2188,173.115,99.1044,93.3054,,,,477.002,0.532924,0.0,0.0
776,193.75,31.7263,33.024,165.049,99.0687,93.7581,,,,477.002,0.486963,0.0,0.0
778,194.25,31.0876,33.2008,168.024,99.0318,93.4968,,,,476.992,0.508329,0.0,0.0
780,194.75,31.342,32.8408,164.12,99.0091,92.8263,,,,476.992,0.569915,0.0,0.0
782,195.25,31.1216,33.5775,168.432,98.9856,93.9276,,,,476.972,0.463572,0.0,0.0
784,195.75,31.6869,32.8183,166.303,98.9609,93.6733,,,,476.992,0.485327,0.0,0.0
786,196.25,31.7887,33.3153,168.63,98.9308,93.3334,,,,476.982,0.514778,0.0,0.0
788,196.75,31.6163,33.257,173.745,98.9166,93.2376,,,,476.982,0.522579,0.0,0.0
790,197.25,31.1578,32.8022,164.837,98.8887,92.9103,,,,476.992,0.551164,0.0,0.0