File: 01_Data/Vinyl_Plan_Flooring/Cone/Vinyl_Plan_Flooring_Cone_HF25Scan_220311_R1.csv
Names,Time,Stack TC,Smoke TC,Exh Press,Smoke Comp,Smoke Meas,CO Meter,CO2 Meter,O2 Meter,Sample Mass,Ext Coeff,Start Test,Flame Verif
Chan Gain,,500,500,1,1,1,1,1,1,1,1,1.0,1.0
Offset,,0,0,0.136191,0,0,0,0,0,0,0,0.0,0.0
Gain,,1,1,25.011,13.291,13.2919,1,1,1,1.00093,1.00758,1.0,1.0
Units,sec,C,C,Pa,%,%,%,%,%,g,/m,,
Baseline,,18.0558,18.6609,176.195,99.6913,96.6602,0.000551276,0.0407727,21.0845,-1.05352,0.272938,,
3,0.5,16.3028,17.249,172.307,99.4399,96.5655,0.000452688,0.0466195,21.077,488.403,0.259247,0.0,0.0
6,1.25,17.0171,16.868,171.378,99.506,96.531,0.000440748,0.0476727,21.0759,488.273,0.268278,0.0,0.0
9,2,16.2794,17.2987,175.041,99.5717,96.6361,0.000450702,0.0488277,21.075,488.353,0.264499,0.0,0.0
12,2.75,16.5577,16.9015,179.628,99.6289,96.8977,0.000477537,0.0498462,21.0745,488.423,0.245676,0.0,0.0
15,3.5,16.2225,16.6531,173.199,99.706,97.2603,0.000510467,0.0506854,21.074,488.353,0.219494,0.0,0.0
18,4.25,16.8536,17.3236,169.471,99.7782,96.9942,0.000557329,0.0513339,21.0737,488.343,0.250107,0.0,0.0
21,5,16.4415,16.6225,174.799,99.8431,97.2559,0.000612202,0.0517291,21.0735,488.363,0.232044,0.0,0.0
24,5.75,16.6666,17.2401,174.525,99.897,97.5508,0.000659467,0.05191,21.0733,488.383,0.210059,0.0,0.0
27,6.5,16.9351,17.18,178.414,99.9583,98.0047,0.00069702,0.0518586,21.0732,488.373,0.174447,0.0,0.0
30,7.25,16.645,17.2458,177.231,100.029,98.0607,0.000724396,0.0515496,21.0736,488.353,0.175673,0.0,0.0
33,8,16.6514,17.31,175.495,100.077,97.6838,0.000751616,0.0510945,21.074,488.343,0.213896,0.0,0.0
36,8.75,16.9557,17.0196,175.331,100.133,97.7629,0.000774556,0.0505673,21.0746,488.353,0.21172,0.0,0.0
39,9.5,16.5982,17.2006,174.996,100.179,98.2233,0.000794466,0.0499389,21.0754,488.313,0.174276,0.0,0.0
42,10.25,16.5872,17.3629,178.756,100.232,97.8286,0.000814429,0.0493767,21.076,488.313,0.214548,0.0,0.0
45,11,16.8969,17.3182,177.511,100.27,97.9086,0.000823247,0.0486769,21.0764,488.283,0.210658,0.0,0.0
48,11.75,16.7442,17.2096,174.588,100.325,98.0749,0.000819868,0.0481668,21.0767,488.283,0.200518,0.0,0.0
51,12.5,16.5527,16.8114,177.695,100.342,97.9649,0.000798415,0.047505,21.0769,488.253,0.211931,0.0,0.0
54,13.25,17.1713,17.0679,174.174,100.389,97.8708,0.000764628,0.0469228,21.0773,488.293,0.224569,0.0,0.0
57,14,17.3702,16.9474,177.119,100.418,97.9941,0.000732261,0.0463277,21.078,488.343,0.215939,0.0,0.0
60,14.75,17.1303,17.4436,170.004,100.444,97.7463,0.000684518,0.0457179,21.079,488.313,0.240641,0.0,0.0
63,15.5,16.5213,17.2163,170.98,100.457,97.8169,0.000637626,0.0451484,21.0798,488.323,0.235403,0.0,0.0
66,16.25,17.1684,17.3037,177.548,100.498,97.9564,0.000598289,0.044648,21.0805,488.273,0.226372,0.0,0.0
69,17,17.2845,17.0411,172.208,100.518,97.5479,0.000562717,0.044202,21.0809,488.293,0.265124,0.0,0.0
72,17.75,16.5729,17.4885,173.111,100.527,97.3139,0.000536785,0.0438422,21.0815,488.283,0.287142,0.0,0.0
75,18.5,16.706,17.5424,177.782,100.547,97.2648,0.000520298,0.0434642,21.0823,488.283,0.293347,0.0,0.0
78,19.25,16.4168,16.9112,177.297,100.555,97.2145,0.000511217,0.0430728,21.0829,488.293,0.298561,0.0,0.0
81,20,17.2731,16.7879,175.578,100.56,97.4348,0.000508864,0.0427875,21.0832,488.353,0.279021,0.0,0.0
84,20.75,17.2607,17.0706,170.615,100.561,96.6271,0.000512188,0.0424712,21.083,488.353,0.352694,0.0,0.0
87,21.5,17.0213,17.7557,175.643,100.553,95.942,0.000524187,0.0421946,21.0827,488.333,0.414907,0.0,0.0
90,22.25,17.1118,17.6242,180.758,100.553,95.8779,0.000558274,0.0422244,21.0817,488.303,0.420778,0.0,0.0
93,23,16.8409,17.7668,178.886,100.547,95.7623,0.000605987,0.0423323,21.0806,488.313,0.430907,0.0,0.0
96,23.75,17.055,17.5673,169.613,100.531,93.8258,0.00076865,0.0425757,21.0798,488.303,0.610113,0.0,0.0
99,24.5,16.6946,17.4794,171.194,100.506,92.5189,0.000887232,0.0429269,21.0774,488.303,0.731848,0.0,0.0
102,25.25,16.7312,17.0795,173.022,100.495,91.0549,0.00184603,0.0444391,21.0749,488.363,0.871856,0.0,0.0
105,26,17.0348,17.5534,175.126,100.475,91.005,0.00354976,0.0488202,21.0668,488.263,0.874952,0.0,0.0
108,26.75,17.2657,17.6048,169.111,100.447,95.839,0.00522012,0.0534117,21.0493,488.233,0.415093,0.0,1.0
111,27.5,17.0061,17.967,166.351,100.411,93.1026,0.00919584,0.0689507,21.0317,487.983,0.667947,0.0,1.0
114,28.25,17.7249,18.0031,165.052,100.371,89.2385,0.0134824,0.0885413,20.9879,488.023,1.03903,0.0,1.0
117,29,18.1591,18.5617,159.09,100.352,82.0404,0.0189813,0.116952,20.9397,487.712,1.7807,0.0,1.0
120,29.75,18.354,18.6837,159.44,100.311,73.7703,0.0264028,0.15845,20.8766,487.502,2.71618,0.0,1.0
123,30.5,19.1994,19.2935,155.51,100.273,70.8067,0.0333699,0.188702,20.7915,487.182,3.07526,0.0,1.0
126,31.25,19.4635,19.4984,145.042,100.234,51.8903,0.0391127,0.240185,20.7295,486.902,5.819,0.0,0.0
129,32,20.3366,20.6429,151.9,100.204,48.2513,0.0432993,0.28739,20.6674,486.681,6.45894,0.0,0.0
132,32.75,20.3927,20.658,153.319,100.165,50.2896,0.0467633,0.326025,20.615,486.521,6.08981,0.0,0.0
135,33.5,21.1159,21.6567,154.676,100.114,52.7336,0.0484713,0.354359,20.5785,486.371,5.66588,0.0,0.0
138,34.25,21.8528,22.195,159.912,100.067,51.7812,0.0488471,0.369294,20.5519,486.171,5.82282,0.0,0.0
141,35,22.574,22.9447,159.361,100.032,44.8229,0.0482301,0.377742,20.5423,486.061,7.09523,0.0,0.0
144,35.75,22.9946,23.1761,158.642,100.008,46.2503,0.0464443,0.380339,20.5394,485.871,6.81603,0.0,0.0
147,36.5,23.258,23.5816,154.355,99.9619,46.544,0.0447856,0.376141,20.5436,485.831,6.756,0.0,0.0
150,37.25,24.1901,24.7822,156.105,99.9076,46.3464,0.042966,0.371219,20.5467,485.75,6.78879,0.0,0.0
153,38,24.0568,24.9571,157.326,99.8901,47.5151,0.0410535,0.367583,20.549,485.59,6.56714,0.0,0.0
156,38.75,24.6595,25.4778,159.077,99.8719,46.3043,0.0396592,0.365452,20.5506,485.51,6.79368,0.0,0.0
159,39.5,25.1106,25.8577,156.578,99.837,49.2816,0.0388531,0.364822,20.55,485.41,6.2398,0.0,0.0
162,40.25,25.3382,26.4908,151.123,99.824,48.7401,0.0378076,0.366511,20.5476,485.25,6.33631,0.0,0.0
165,41,25.715,26.9275,158.529,99.7936,51.7102,0.0370556,0.367743,20.5433,485.14,5.8108,0.0,0.0
168,41.75,26.7378,27.7217,155.502,99.7778,52.7973,0.0365743,0.371861,20.5385,485.02,5.62552,0.0,0.0
171,42.5,26.8114,27.9398,153.127,99.8094,52.6204,0.0362354,0.373966,20.5322,484.9,5.65798,0.0,0.0
174,43.25,27.6298,28.4398,154.893,99.8735,55.1508,0.0359464,0.378892,20.5232,484.78,5.24854,0.0,0.0
177,44,27.5783,28.6231,151.668,99.94,54.2036,0.0358396,0.384093,20.52,484.669,5.40753,0.0,0.0
180,44.75,28.2054,29.1218,159.832,100.018,55.2133,0.0356777,0.388817,20.5162,484.519,5.25134,0.0,0.0
183,45.5,28.9495,29.5164,159.806,100.075,58.5318,0.0355597,0.392429,20.5134,484.419,4.74049,0.0,0.0
186,46.25,28.9559,30.0384,153.125,100.134,56.8585,0.0353441,0.395627,20.5114,484.239,5.00203,0.0,0.0
189,47,29.7221,30.7497,157.634,100.18,59.2181,0.0351474,0.396664,20.51,484.139,4.64672,0.0,0.0
192,47.75,30.156,30.8334,148.714,100.249,56.1482,0.0349364,0.397862,20.5094,484.019,5.12329,0.0,0.0
195,48.5,30.6377,31.657,156.533,100.256,59.7077,0.0346192,0.397685,20.5097,483.899,4.5806,0.0,0.0
198,49.25,31.0835,31.6719,149.066,100.293,58.8721,0.0343139,0.396627,20.5138,483.769,4.7085,0.0,0.0
201,50,30.9819,32.3997,147.283,100.318,57.8337,0.0339643,0.394266,20.5184,483.608,4.86793,0.0,0.0
204,50.75,31.6459,32.6118,166.059,100.338,62.0206,0.0335432,0.390536,20.5245,483.448,4.25191,0.0,0.0
207,51.5,31.8491,32.7308,158.658,100.359,56.8946,0.0331338,0.387817,20.5315,483.338,5.01626,0.0,0.0
210,52.25,32.0613,33.3339,159.598,100.361,58.7484,0.0327917,0.384213,20.5373,483.238,4.73309,0.0,0.0
213,53,32.1113,34.0279,151.942,100.38,56.1519,0.0324276,0.380911,20.5427,483.158,5.13429,0.0,0.0
216,53.75,32.6716,34.403,155.536,100.368,60.4983,0.0320773,0.377871,20.548,483.028,4.47424,0.0,0.0
219,54.5,32.4126,34.0121,160.571,100.373,55.7897,0.0317604,0.375065,20.5524,482.898,5.19082,0.0,0.0
222,55.25,33.3802,34.6183,157.031,100.354,59.5674,0.0315294,0.372725,20.5565,482.758,4.61005,0.0,0.0
225,56,33.2407,35.1088,147.599,100.339,54.1821,0.0312358,0.370894,20.5601,482.658,5.44623,0.0,0.0
228,56.75,33.4437,35.5432,153.537,100.328,55.859,0.0309438,0.370002,20.563,482.527,5.17587,0.0,0.0
231,57.5,33.7765,35.5181,156.897,100.3,57.2098,0.0306372,0.36945,20.5652,482.447,4.96222,0.0,0.0
234,58.25,33.6386,35.556,156.479,100.272,57.1356,0.03031,0.36909,20.567,482.347,4.97123,0.0,0.0
237,59,34.6211,36.2015,159.354,100.233,56.4318,0.0298329,0.368303,20.5687,482.247,5.07738,0.0,0.0
240,59.75,34.6382,36.483,162.964,100.197,56.7125,0.029485,0.367111,20.5726,482.117,5.0303,0.0,0.0
243,60.5,34.4648,36.7729,155.955,100.154,58.0081,0.028974,0.365566,20.5765,482.007,4.8269,0.0,0.0
246,61.25,35.1541,36.9876,157.497,100.1,56.3064,0.0284017,0.362792,20.5826,481.897,5.08529,0.0,0.0
249,62,34.6253,36.6546,160.089,100.05,57.7525,0.0280012,0.36077,20.5873,481.767,4.85676,0.0,0.0
252,62.75,35.0664,37.1248,154.957,99.9952,59.0169,0.0273312,0.35602,20.5949,481.677,4.66047,0.0,0.0
255,63.5,35.6358,37.5998,159.461,99.9424,58.3537,0.0265645,0.351898,20.6035,481.567,4.7557,0.0,0.0
258,64.25,34.9361,37.8327,157.55,99.8869,58.8263,0.0259246,0.347764,20.6112,481.476,4.67949,0.0,0.0
261,65,35.5025,37.3876,158.347,99.8098,59.0043,0.0252325,0.345306,20.6173,481.366,4.64596,0.0,0.0
264,65.75,36.0265,38.3266,168.128,99.7433,56.0825,0.0246161,0.341804,20.6218,481.256,5.08893,0.0,0.0
267,66.5,35.761,38.3706,154.084,99.7121,55.9304,0.0241191,0.338877,20.6251,481.186,5.11017,0.0,0.0
270,67.25,36.314,37.8547,163.069,99.6204,59.354,0.0236169,0.336834,20.6274,481.096,4.57694,0.0,0.0
273,68,36.2374,38.7863,152.222,99.5628,57.3514,0.0232169,0.335553,20.6292,481.006,4.87519,0.0,0.0
276,68.75,36.9391,38.6668,156.68,99.5664,54.761,0.0228673,0.334708,20.6304,480.906,5.28402,0.0,0.0
279,69.5,35.8934,38.5474,167.341,99.5567,60.1604,0.022517,0.334319,20.6314,480.816,4.45202,0.0,0.0
282,70.25,37.2716,38.3443,164.833,99.5754,55.6335,0.0223379,0.334112,20.631,480.706,5.14509,0.0,0.0
285,71,36.0341,38.7683,162.038,99.5798,54.187,0.0220452,0.33409,20.6305,480.626,5.37833,0.0,0.0
288,71.75,36.5292,38.994,162.158,99.5835,56.9802,0.0217571,0.334303,20.6301,480.526,4.93441,0.0,0.0
291,72.5,36.6079,39.2454,157.309,99.6013,56.3888,0.0214619,0.334458,20.6299,480.456,5.02821,0.0,0.0
294,73.25,37.2654,39.4024,161.634,99.6123,55.5301,0.0212471,0.334441,20.6297,480.305,5.16482,0.0,0.0
297,74,37.7607,39.6481,158.659,99.6196,56.689,0.020876,0.334186,20.6302,480.165,4.98291,0.0,0.0
300,74.75,37.5631,40.1895,154.692,99.6289,55.2003,0.0203953,0.333597,20.6315,480.145,5.21894,0.0,0.0
303,75.5,37.7471,39.548,163.575,99.639,60.4224,0.0198548,0.331621,20.634,480.075,4.42091,0.0,0.0
306,76.25,37.532,39.9291,155.82,99.6459,58.2385,0.0191629,0.329958,20.639,479.985,4.7469,0.0,0.0
309,77,37.5906,39.9698,162.457,99.6658,60.2853,0.0184417,0.327201,20.6458,479.925,4.44336,0.0,0.0
312,77.75,38.1546,40.013,160.53,99.6658,60.5729,0.0177031,0.323531,20.652,479.895,4.4013,0.0,0.0
315,78.5,37.428,39.9668,157.454,99.6853,64.0874,0.0171646,0.319388,20.658,479.855,3.90455,0.0,0.0
318,79.25,37.4874,40.2762,157.095,99.6995,62.9755,0.0161952,0.315067,20.6647,479.825,4.06049,0.0,0.0
321,80,37.5998,40.3557,160.919,99.7023,65.5959,0.015366,0.309709,20.6739,479.765,3.70042,0.0,0.0
324,80.75,37.6885,40.054,160.608,99.7112,67.5669,0.014552,0.304928,20.6807,479.685,3.43955,0.0,0.0
327,81.5,37.5343,40.1532,161.447,99.7299,67.7783,0.013828,0.299947,20.6896,479.645,3.4136,0.0,0.0
330,82.25,37.9886,40.2687,160.096,99.7453,68.0841,0.0130771,0.296315,20.6992,479.615,3.37518,0.0,0.0
333,83,37.5157,40.443,162.618,99.7595,69.8442,0.0123264,0.29019,20.7091,479.545,3.15085,0.0,0.0
336,83.75,37.5149,40.3945,159.746,99.7538,70.3366,0.0116321,0.284735,20.7192,479.475,3.08825,0.0,0.0
339,84.5,37.5756,40.5622,170.1,99.7684,73.6397,0.0109869,0.279065,20.7335,479.445,2.68393,0.0,0.0
342,85.25,37.5344,40.3544,164.048,99.7924,76.0516,0.0103859,0.272348,20.7462,479.365,2.40121,0.0,0.0
345,86,37.4941,40.417,165.677,99.7822,82.4445,0.00971811,0.265184,20.7595,479.365,1.68694,0.0,0.0
348,86.75,37.1979,40.3493,168.214,99.796,81.2401,0.0091489,0.257968,20.7729,479.344,1.81823,0.0,0.0
351,87.5,37.3848,40.4509,170.379,99.7891,82.4027,0.00859303,0.250061,20.7837,479.324,1.69203,0.0,0.0
354,88.25,36.8199,40.0679,163.212,99.8106,83.7478,0.00809656,0.243016,20.7931,479.284,1.55083,0.0,0.0
357,89,37.0677,40.0094,169.472,99.8094,82.7357,0.00757861,0.236843,20.8019,479.254,1.65818,0.0,0.0
360,89.75,37.2676,40.1583,166.87,99.8204,82.5799,0.00708756,0.231502,20.8092,479.214,1.67581,0.0,0.0
363,90.5,37.2011,39.7032,160.708,99.8212,82.5236,0.00670415,0.227002,20.8149,479.204,1.68192,0.0,0.0
366,91.25,36.8157,39.8713,164.907,99.8374,80.4503,0.00638115,0.223463,20.8196,479.164,1.90823,0.0,0.0
369,92,36.916,39.7659,155.073,99.8366,81.8822,0.00609971,0.220292,20.8238,479.144,1.75223,0.0,0.0
372,92.75,36.7811,39.6819,165.022,99.8459,83.9254,0.00585367,0.217729,20.8282,479.114,1.53522,0.0,0.0
375,93.5,36.303,39.2081,166.201,99.8406,83.5652,0.00565689,0.214745,20.8329,479.104,1.57277,0.0,0.0
378,94.25,36.7715,39.2671,168.941,99.8487,84.5485,0.00549201,0.211571,20.836,479.094,1.4701,0.0,0.0
381,95,36.8421,39.6846,168.229,99.852,85.4409,0.00520286,0.208415,20.8417,479.064,1.37759,0.0,0.0
384,95.75,36.5135,39.5386,162.16,99.8524,84.8418,0.00503415,0.205403,20.8451,479.014,1.43982,0.0,0.0
387,96.5,36.6956,39.1243,166.787,99.8459,85.8757,0.00479488,0.202184,20.8497,479.004,1.33218,0.0,0.0
390,97.25,36.3786,38.8607,165.954,99.854,87.8094,0.00458795,0.200234,20.8543,478.984,1.13609,0.0,0.0
393,98,36.2152,38.7597,172.329,99.8589,89.6457,0.00441383,0.195756,20.8602,478.984,0.953597,0.0,0.0
396,98.75,35.9306,38.8917,165.47,99.8573,88.5055,0.0042676,0.19335,20.8667,478.964,1.06659,0.0,0.0
399,99.5,36.2423,38.8538,164.201,99.8512,89.262,0.00415485,0.189875,20.873,478.954,0.990829,0.0,0.0
402,100.25,36.2783,38.705,163.72,99.8585,89.4015,0.00407004,0.186104,20.8789,478.954,0.97767,0.0,0.0
405,101,35.6286,38.3227,166.245,99.8617,90.2818,0.0040082,0.182519,20.8831,478.904,0.89136,0.0,0.0
408,101.75,35.1686,37.8309,167.922,99.8629,91.8402,0.00396313,0.179026,20.8881,478.884,0.740201,0.0,0.0
411,102.5,35.3597,38.2821,166.822,99.8548,91.0172,0.00393092,0.175587,20.8918,478.874,0.819046,0.0,0.0
414,103.25,35.6173,38.3526,174.151,99.8495,92.0195,0.00390854,0.17169,20.8958,478.884,0.721778,0.0,0.0
417,104,35.1277,38.3848,164.086,99.8609,93.3496,0.00389924,0.168848,20.9001,478.844,0.595944,0.0,0.0
420,104.75,35.5058,37.758,174.1,99.865,92.3525,0.0038957,0.165725,20.9037,478.834,0.691214,0.0,0.0
423,105.5,34.8421,38.0329,165.792,99.8706,92.9363,0.00389866,0.16165,20.9102,478.814,0.636028,0.0,0.0
426,106.25,34.7514,37.7052,168.857,99.8621,93.5325,0.00392187,0.157805,20.9193,478.814,0.578749,0.0,0.0
429,107,34.8737,37.9376,175.05,99.8731,93.4689,0.0039581,0.153508,20.9278,478.814,0.585738,0.0,0.0
432,107.75,34.4278,36.8958,175.413,99.8743,92.6917,0.00398452,0.14852,20.9358,478.814,0.659644,0.0,0.0
435,108.5,34.5315,37.4904,167.167,99.8775,94.0262,0.00400377,0.143616,20.9437,478.764,0.533586,0.0,0.0
438,109.25,34.2907,37.3309,168.653,99.8642,94.5109,0.00399812,0.13888,20.9501,478.774,0.486954,0.0,0.0
441,110,33.9909,36.8347,171.063,99.8755,94.9369,0.00397913,0.134366,20.956,478.774,0.448218,0.0,0.0
444,110.75,33.8591,36.6183,172.883,99.8723,95.5035,0.00395421,0.129658,20.9622,478.734,0.395331,0.0,0.0
447,111.5,33.6635,36.7592,165.909,99.8747,95.8491,0.00392201,0.125012,20.9685,478.724,0.36362,0.0,0.0
450,112.25,33.5025,36.5718,176.679,99.8755,95.7473,0.00389116,0.121108,20.9738,478.674,0.373086,0.0,0.0
453,113,33.2896,36.2758,177.43,99.8869,95.5964,0.00386553,0.116614,20.9803,478.644,0.388031,0.0,0.0
456,113.75,33.82,36.739,169.09,99.8962,95.7303,0.00383457,0.11259,20.9858,478.694,0.376488,0.0,0.0
459,114.5,33.1859,36.7983,167.055,99.8934,96.2223,0.00380217,0.109336,20.991,478.704,0.330926,0.0,0.0
462,115.25,32.7529,36.0933,166.653,99.8844,95.7461,0.00377436,0.105779,20.9959,478.704,0.373988,0.0,0.0
465,116,32.9241,35.0979,172.632,99.8925,96.3298,0.00373688,0.102669,21.0002,478.734,0.320987,0.0,0.0
468,116.75,32.0907,35.4705,173.041,99.8917,96.3254,0.00369318,0.0995193,21.0045,478.694,0.321324,0.0,0.0
471,117.5,32.1615,35.2136,170.759,99.8873,95.4962,0.00364585,0.0959644,21.0096,478.694,0.397335,0.0,0.0
474,118.25,32.5393,34.9788,173.081,99.8857,94.8513,0.00357984,0.0924786,21.0141,478.714,0.457087,0.0,0.0
477,119,32.2462,34.2687,171.701,99.882,95.8293,0.00351086,0.0895563,21.0186,478.684,0.366099,0.0,0.0
480,119.75,31.9302,34.2138,173.564,99.8901,95.9903,0.0034433,0.0863877,21.023,478.684,0.351977,0.0,0.0
483,120.5,31.6958,34.6041,172.893,99.8962,95.929,0.00337971,0.0837748,21.0268,478.704,0.358157,0.0,0.0
486,121.25,31.2986,33.9624,174.074,99.8889,96.3996,0.00332111,0.0813516,21.0305,478.684,0.314264,0.0,0.0
489,122,31.1202,33.9477,175.714,99.8857,96.2698,0.00327839,0.07896,21.0336,478.674,0.325886,0.0,0.0
492,122.75,31.263,34.123,177.64,99.8986,96.4677,0.00323132,0.0769154,21.0358,478.644,0.308879,0.0,0.0
495,123.5,30.8668,33.701,173.916,99.8958,96.6373,0.00319022,0.0751454,21.0374,478.644,0.293107,0.0,0.0
498,124.25,30.8015,33.4126,171.608,99.8824,96.6004,0.00316025,0.0735966,21.0391,478.664,0.295299,0.0,0.0
501,125,30.5395,33.328,178.237,99.9023,96.5627,0.00314714,0.0721942,21.0404,478.654,0.30051,0.0,0.0
504,125.75,30.5084,33.1142,172.272,99.8946,96.484,0.00314494,0.0710553,21.0409,478.654,0.307035,0.0,0.0
507,126.5,29.4866,32.8899,180.303,99.8917,96.6056,0.00315034,0.0699655,21.0417,478.654,0.295643,0.0,0.0
510,127.25,29.7984,32.8528,180.568,99.8974,96.7196,0.00316089,0.0690604,21.0433,478.644,0.285723,0.0,0.0
513,128,29.8887,32.8108,172.099,99.8905,96.6401,0.00317033,0.068185,21.0452,478.634,0.292381,0.0,0.0
516,128.75,29.9819,32.4392,171.91,99.8962,96.7298,0.00317231,0.0671783,21.0469,478.614,0.284688,0.0,0.0
519,129.5,29.8859,31.9999,176.438,99.9039,96.6535,0.00317166,0.0661915,21.0481,478.594,0.292341,0.0,0.0
522,130.25,29.5288,32.0022,167.033,99.8958,96.7257,0.00315527,0.0653494,21.049,478.614,0.285023,0.0,0.0
525,131,29.1611,31.3711,175.09,99.8901,97.494,0.00313007,0.0645827,21.0497,478.634,0.214596,0.0,0.0
528,131.75,28.7779,31.7888,177.125,99.8966,97.1017,0.00310069,0.063852,21.0507,478.624,0.250802,0.0,0.0
531,132.5,28.6613,31.6799,175.754,99.9015,96.2637,0.00305723,0.0628918,21.0522,478.594,0.327844,0.0,0.0
534,133.25,28.5727,31.0662,175.708,99.8966,97.3175,0.00300006,0.0620413,21.0539,478.624,0.231181,0.0,0.0
537,134,27.8274,31.1159,172.074,99.8808,97.0036,0.00293085,0.0611639,21.0551,478.634,0.258342,0.0,0.0
540,134.75,27.8793,30.2263,171.734,99.8966,96.172,0.00284985,0.060361,21.056,478.614,0.335835,0.0,0.0
543,135.5,27.9163,30.3338,177.017,99.8954,96.1055,0.00277776,0.0596559,21.0567,478.614,0.341843,0.0,0.0
546,136.25,26.5491,30.1969,172.066,99.8938,96.6827,0.00272522,0.0590561,21.0572,478.624,0.288773,0.0,0.0
549,137,27.0399,29.6803,173.135,99.8994,97.092,0.00269206,0.0585509,21.0575,478.604,0.25194,0.0,0.0
552,137.75,27.6216,30.1494,175.209,99.8913,96.8174,0.00267668,0.0581536,21.0578,478.614,0.276255,0.0,0.0
555,138.5,27.2838,29.6682,174.662,99.8986,96.6641,0.00266373,0.0577087,21.058,478.614,0.290911,0.0,0.0
558,139.25,27.3588,29.9744,171.942,99.8974,96.0459,0.00264914,0.0573414,21.0588,478.604,0.347508,0.0,0.0
561,140,26.8527,29.6755,169.218,99.8966,96.5651,0.00262971,0.0570003,21.0593,478.594,0.299785,0.0,0.0
564,140.75,27.1804,29.6672,170.338,99.8913,96.3797,0.00260509,0.0566972,21.0597,478.584,0.316301,0.0,0.0
567,141.5,26.9204,29.1433,176.221,99.899,96.9444,0.00258592,0.0563886,21.0607,478.594,0.265355,0.0,0.0
570,142.25,26.9437,29.3229,170.234,99.9011,97.2583,0.00257142,0.0560536,21.0613,478.564,0.236956,0.0,0.0
573,143,27.2296,29.0505,175.018,99.8962,97.0494,0.00256248,0.0556462,21.0618,478.564,0.255529,0.0,0.0
576,143.75,27.2222,29.1663,177.085,99.8893,97.0308,0.00255228,0.0552654,21.0623,478.554,0.25662,0.0,0.0
579,144.5,26.6405,28.6382,168.5,99.9088,96.9387,0.00254598,0.0549633,21.0625,478.554,0.266734,0.0,0.0
582,145.25,26.3685,28.3652,168.574,99.9035,96.5606,0.00252971,0.0547625,21.0629,478.564,0.300803,0.0,0.0
585,146,25.8388,28.7167,173.161,99.9132,97.5516,0.00250246,0.0546161,21.0636,478.544,0.211421,0.0,0.0
588,146.75,25.8747,28.9614,174.219,99.8958,97.0466,0.00244778,0.0542361,21.0644,478.594,0.255752,0.0,0.0
591,147.5,25.9104,28.4121,176.569,99.9035,97.1723,0.00240792,0.0540984,21.0649,478.564,0.244989,0.0,0.0
594,148.25,25.6312,28.138,173.773,99.9108,97.1374,0.00233363,0.0537842,21.0653,478.574,0.248809,0.0,0.0
597,149,25.6427,28.0682,172.878,99.8905,97.0579,0.00226242,0.0535145,21.0658,478.584,0.254252,0.0,0.0
600,149.75,24.9868,27.6984,172.474,99.8901,96.6202,0.00219938,0.053219,21.0662,478.584,0.294163,0.0,0.0
603,150.5,25.6902,27.5181,173.057,99.8986,96.8843,0.00214685,0.0529688,21.0664,478.584,0.270794,0.0,0.0
606,151.25,25.2514,27.3194,174.924,99.899,97.3646,0.00210856,0.0527507,21.0671,478.574,0.227124,0.0,0.0
609,152,25.3767,27.4114,173.974,99.908,97.0478,0.00206327,0.0525306,21.0677,478.594,0.256719,0.0,0.0
612,152.75,25.5144,27.3321,174.322,99.9039,96.8531,0.00201199,0.0523121,21.0682,478.564,0.274109,0.0,0.0
615,153.5,25.3522,27.0103,176.553,99.9055,97.0608,0.00196682,0.0521528,21.0686,478.554,0.255321,0.0,0.0
618,154.25,24.6914,27.1026,175.4,99.9051,97.0324,0.00188543,0.0519398,21.0688,478.564,0.257871,0.0,0.0
621,155,24.5536,27.0464,178.442,99.8958,97.0656,0.00179206,0.0517488,21.0688,478.574,0.254017,0.0,0.0
624,155.75,24.9753,26.7652,176.015,99.8958,96.8162,0.00170948,0.0515485,21.0687,478.564,0.276762,0.0,0.0
627,156.5,24.677,27.0038,171.114,99.9047,96.7387,0.00164299,0.0513611,21.0687,478.594,0.284627,0.0,0.0
630,157.25,24.7311,26.6631,172.808,99.9088,97.5321,0.00155524,0.0511853,21.0687,478.574,0.21279,0.0,0.0
633,158,24.9882,26.3968,174.424,99.8913,96.5416,0.00148662,0.0510205,21.0687,478.554,0.301471,0.0,0.0
636,158.75,24.5924,26.6707,169.447,99.8946,96.5095,0.00142446,0.0508036,21.0687,478.554,0.304694,0.0,0.0
639,159.5,23.8687,26.2695,171.465,99.8905,96.7403,0.00136567,0.0506642,21.0691,478.534,0.283222,0.0,0.0
642,160.25,24.3365,26.2541,170.304,99.8905,96.7999,0.00130862,0.0504664,21.0696,478.404,0.277776,0.0,0.0
645,161,23.7728,25.8426,172.681,99.8852,97.4348,0.0012359,0.0502545,21.07,478.394,0.219536,0.0,0.0
648,161.75,23.562,25.4813,177.523,99.8861,97.4818,0.0011635,0.050071,21.0702,478.344,0.215341,0.0,0.0
651,162.5,24.6906,26.169,173.909,99.8852,97.0056,0.00109991,0.0498792,21.0704,478.434,0.258551,0.0,0.0
654,163.25,23.756,26.0697,173.361,99.8881,96.8843,0.00104919,0.049753,21.0706,478.484,0.269861,0.0,0.0
657,164,24.0292,25.9171,171.791,99.8783,96.7054,0.00102312,0.0496168,21.0707,478.534,0.285333,0.0,0.0
660,164.75,23.8618,26.0155,174.036,99.8775,97.1967,0.00100876,0.049432,21.0712,478.524,0.24048,0.0,0.0
663,165.5,23.7864,26.0202,163.99,99.865,96.791,0.00104497,0.0492586,21.0718,478.474,0.27633,0.0,0.0
666,166.25,23.5003,25.9699,175.944,99.8775,97.2563,0.00108989,0.0491187,21.0722,478.384,0.235059,0.0,0.0
669,167,23.7587,25.902,175.067,99.8788,96.4649,0.0011543,0.0490109,21.0725,478.354,0.307381,0.0,0.0
672,167.75,23.4488,25.3937,182.684,99.8792,96.4957,0.00123763,0.0489129,21.0727,478.544,0.304593,0.0,0.0
675,168.5,23.8162,25.3486,174.838,99.8678,96.7772,0.00131174,0.0488416,21.0729,478.544,0.277841,0.0,0.0
678,169.25,23.326,25.7629,166.358,99.8739,97.4441,0.00137146,0.0487315,21.073,478.554,0.217684,0.0,0.0
681,170,23.5396,25.2112,174.282,99.8832,96.6284,0.00140287,0.0486241,21.0731,478.574,0.292811,0.0,0.0
684,170.75,23.5042,25.0974,177.502,99.8751,97.2616,0.00142577,0.0485272,21.0731,478.584,0.234365,0.0,0.0
687,171.5,23.3993,25.2749,175.153,99.8654,97.2749,0.00138877,0.0484443,21.0732,478.574,0.232287,0.0,0.0
690,172.25,23.4852,25.3968,172.052,99.8735,96.5854,0.0013618,0.0484032,21.0732,478.594,0.295883,0.0,0.0
693,173,23.4038,24.6937,171.352,99.8836,96.6413,0.00128331,0.048359,21.0733,478.584,0.29166,0.0,0.0
696,173.75,23.3035,24.6056,176.547,99.8727,97.35,0.00120186,0.0483023,21.0734,478.584,0.226117,0.0,0.0
699,174.5,22.5627,24.3929,171.333,99.8658,97.1322,0.00113215,0.048261,21.0734,478.554,0.245305,0.0,0.0
702,175.25,22.7647,24.7576,168.944,99.8719,96.9078,0.00105369,0.0481729,21.0734,478.504,0.26628,0.0,0.0
705,176,22.6497,24.3816,176.606,99.869,96.6255,0.000997772,0.0480944,21.0741,478.474,0.291814,0.0,0.0
708,176.75,23.0715,24.845,173.139,99.8836,96.3489,0.000959184,0.0480128,21.0745,478.474,0.318447,0.0,0.0
711,177.5,23.0068,24.3621,172.294,99.8589,97.0113,0.000962151,0.0479262,21.0749,478.524,0.255701,0.0,0.0
714,178.25,22.904,24.7864,170.208,99.8577,97.1423,0.000994616,0.0478372,21.0751,478.524,0.243665,0.0,0.0
717,179,22.5239,24.33,176.273,99.8783,96.8835,0.0010312,0.0477479,21.0753,478.494,0.269073,0.0,0.0
720,179.75,22.7432,24.3587,171.281,99.8646,97.221,0.00109548,0.0476557,21.0755,478.424,0.237118,0.0,0.0
723,180.5,22.4244,24.6232,174.055,99.8589,97.0064,0.00116797,0.047577,21.0756,478.294,0.256144,0.0,0.0
726,181.25,22.4511,24.0171,172.979,99.8443,96.7574,0.0012372,0.0475196,21.0756,478.594,0.277573,0.0,0.0
729,182,22.2728,24.7497,172.419,99.8544,96.8044,0.00129459,0.0473964,21.0757,478.544,0.274174,0.0,0.0
732,182.75,22.4953,23.9269,180.593,99.8589,96.6044,0.00132604,0.0472719,21.0757,478.494,0.292846,0.0,0.0
735,183.5,22.3906,24.1169,179.289,99.8374,96.744,0.00133811,0.0471812,21.0757,478.514,0.278187,0.0,0.0
738,184.25,22.8567,23.9359,175.869,99.8386,96.5059,0.00132832,0.0470764,21.0762,478.544,0.300074,0.0,0.0
741,185,22.3682,23.886,166.156,99.8427,97.2754,0.00129004,0.0469864,21.0767,478.554,0.230239,0.0,0.0
744,185.75,22.3071,23.8129,175.812,99.8281,97.191,0.00126214,0.0469151,21.0771,478.534,0.236617,0.0,0.0
747,186.5,22.2953,24.0172,180.53,99.8272,97.2141,0.00121412,0.0468631,21.0774,478.544,0.234442,0.0,0.0
750,187.25,21.5304,23.2828,171.672,99.8106,96.849,0.00117784,0.0467865,21.0776,478.524,0.266223,0.0,0.0
753,188,22.1733,23.7488,166.903,99.8272,96.4949,0.00114921,0.0467307,21.0775,478.504,0.300071,0.0,0.0
756,188.75,21.3482,23.59,175.049,99.8118,97.4246,0.00115016,0.0466707,21.0771,478.514,0.213957,0.0,0.0
759,189.5,22.175,23.7249,170.359,99.8078,97.4652,0.00117549,0.0466269,21.0767,478.494,0.209919,0.0,0.0
762,190.25,21.6087,24.2971,174.197,99.7851,96.6024,0.00122017,0.0465563,21.0765,478.504,0.286495,0.0,0.0
765,191,21.5806,22.7164,176.939,99.7952,96.5825,0.00127352,0.0464643,21.0763,478.514,0.289212,0.0,0.0
768,191.75,21.7699,23.2197,175.989,99.7911,96.9131,0.00130513,0.0463798,21.0762,478.474,0.258652,0.0,0.0
771,192.5,21.5242,22.7892,171.617,99.7834,96.9366,0.00132506,0.0462989,21.0761,478.414,0.255824,0.0,0.0
774,193.25,21.8569,23.3361,169.705,99.7664,96.9091,0.00129348,0.046267,21.076,478.444,0.25683,0.0,0.0
777,194,22.2516,22.9806,166.309,99.7546,96.5286,0.00125081,0.0462482,21.076,478.424,0.290558,0.0,0.0
780,194.75,21.313,23.3448,164.165,99.7498,96.8571,0.00116395,0.0462223,21.0759,478.464,0.260093,0.0,0.0
783,195.5,20.9781,22.9384,169.382,99.7461,96.6588,0.00107688,0.0461455,21.076,478.434,0.277889,0.0,0.0
786,196.25,22.1822,23.3028,176.62,99.7287,97.0003,0.00100995,0.0460894,21.0763,478.514,0.245169,0.0,0.0
789,197,21.6455,23.2233,173.629,99.7267,96.8632,0.000982951,0.0460486,21.0766,478.534,0.257489,0.0,0.0
792,197.75,21.4449,23.1469,176.091,99.7275,96.7829,0.000972565,0.0460188,21.0767,478.524,0.264892,0.0,0.0
795,198.5,21.136,22.0741,173.484,99.7238,97.1752,0.000997834,0.0459585,21.0768,478.524,0.22882,0.0,0.0
798,199.25,21.4802,23.2442,177.05,99.7076,96.66,0.00102647,0.0459216,21.0769,478.594,0.274363,0.0,0.0
801,200,21.4704,23.189,177.614,99.6881,96.4,0.0010648,0.0459069,21.077,478.574,0.296444,0.0,0.0
804,200.75,21.7154,22.5613,174.283,99.7019,96.7691,0.00110124,0.0458691,21.077,478.564,0.263887,0.0,0.0
807,201.5,21.6585,22.9536,178.951,99.6784,96.6507,0.00113333,0.0458372,21.0775,478.534,0.272626,0.0,0.0
810,202.25,21.3031,22.8905,177.372,99.6755,96.6864,0.00116001,0.045826,21.078,478.494,0.269111,0.0,0.0
813,203,20.9724,23.3434,171.27,99.6626,96.5635,0.00117426,0.0458586,21.0784,478.474,0.279203,0.0,0.0
816,203.75,21.921,22.9345,172.478,99.6561,97.1285,0.00117495,0.0458996,21.0787,478.444,0.227059,0.0,0.0
819,204.5,21.0481,22.6554,175.346,99.6528,96.8068,0.00116366,0.0458909,21.0789,478.454,0.256091,0.0,0.0
822,205.25,21.3805,23.06,171.821,99.6472,96.6454,0.00114233,0.0458303,21.0791,478.494,0.27034,0.0,0.0
825,206,21.3902,22.8958,170.19,99.6358,96.5014,0.0011043,0.045756,21.0792,478.504,0.282511,0.0,0.0
828,206.75,21.1246,22.7833,172.841,99.6346,97.0953,0.00107658,0.0456896,21.0793,478.534,0.228179,0.0,0.0
831,207.5,21.4259,22.6532,177.773,99.6273,96.6929,0.00103094,0.0456798,21.0793,478.534,0.264238,0.0,0.0
834,208.25,21.3728,22.6198,176.025,99.6196,96.6377,0.000986817,0.0456727,21.0794,478.544,0.268597,0.0,0.0
837,209,21.2894,22.9085,171.945,99.6017,96.4888,0.000961563,0.0456675,21.0794,478.464,0.280639,0.0,0.0
840,209.75,21.3458,22.6276,173.778,99.6115,96.735,0.000957688,0.0455864,21.0794,478.414,0.258978,0.0,0.0
843,210.5,21.6337,22.2194,172.118,99.6054,96.7533,0.000970628,0.0455273,21.0794,478.394,0.256771,0.0,0.0
846,211.25,21.3909,22.3868,176.573,99.5997,96.9508,0.000996422,0.0454456,21.0794,478.494,0.238239,0.0,0.0
849,212,21.2261,22.1525,172.574,99.5859,95.7936,0.00103252,0.0454267,21.0795,478.494,0.343152,0.0,0.0
852,212.75,21.5078,22.682,174.625,99.5818,96.0325,0.00105641,0.0454373,21.0795,478.484,0.320776,0.0,0.0
855,213.5,21.3602,22.2865,175.608,99.5928,96.4629,0.00107279,0.0454573,21.0799,478.444,0.282226,0.0,0.0
858,214.25,21.1144,21.6928,175.741,99.5786,96.6142,0.00105685,0.0454332,21.0804,478.464,0.267114,0.0,0.0
861,215,20.9914,21.7439,172.335,99.5721,97.451,0.00102124,0.0454228,21.0808,478.484,0.190313,0.0,0.0
864,215.75,21.1829,22.4014,176.511,99.5981,97.2928,0.000974566,0.0454273,21.0811,478.534,0.206977,0.0,0.0
867,216.5,20.9441,22.1069,174.039,99.6382,96.8012,0.000926727,0.045508,21.0813,478.534,0.255314,0.0,0.0
870,217.25,20.9619,21.8159,175.539,99.6865,96.5708,0.000891852,0.0455667,21.0814,478.514,0.280657,0.0,0.0
873,218,20.99,22.6414,169.959,99.721,96.5825,0.000902698,0.0455903,21.0815,478.484,0.282635,0.0,0.0
876,218.75,20.9857,21.5793,175.84,99.7477,97.2539,0.000928465,0.0456074,21.0816,478.484,0.223787,0.0,0.0
879,219.5,21.0843,21.9337,173.39,99.8037,96.9557,0.000991834,0.0455985,21.0816,478.474,0.255882,0.0,0.0
882,220.25,20.6011,22.079,175.059,99.8406,96.6466,0.00106205,0.0455555,21.0817,478.444,0.287372,0.0,0.0
885,221,20.8043,21.4646,178.87,99.884,97.0348,0.00112729,0.0455241,21.0817,478.464,0.255783,0.0,0.0
888,221.75,21.0387,21.9108,172.598,99.9055,96.9326,0.00119888,0.0455205,21.0817,478.494,0.267001,0.0,0.0
891,222.5,20.3018,22.1115,176.06,99.9546,97.0948,0.0012632,0.0454793,21.0818,478.494,0.25656,0.0,0.0
894,223.25,20.992,21.8475,180.037,99.9996,97.2514,0.00130401,0.045435,21.0818,478.494,0.246299,0.0,0.0
897,224,20.2775,21.3284,178.627,100.019,96.6336,0.00132306,0.0453783,21.0818,478.524,0.304308,0.0,0.0
900,224.75,20.2473,21.118,173.564,100.038,96.7999,0.00132428,0.0453563,21.0818,478.494,0.29083,0.0,0.0
903,225.5,20.515,21.6282,174.15,100.087,97.1512,0.00131789,0.0453402,21.0818,478.374,0.26315,0.0,0.0
906,226.25,20.1977,20.905,169.384,100.124,96.9829,0.00130693,0.0453286,21.0818,478.474,0.281736,0.0,0.0
909,227,19.8394,21.5999,175.432,100.139,96.2576,0.00129348,0.0453497,21.0818,478.494,0.349371,0.0,0.0
912,227.75,20.5029,20.862,169.227,100.156,97.1549,0.00127538,0.0453812,21.0818,478.494,0.268905,0.0,0.0
915,228.5,20.6103,22.0412,176.392,100.186,96.7971,0.00124799,0.0454092,21.0818,478.514,0.304125,0.0,0.0
918,229.25,20.6275,21.4394,174.459,100.221,97.0681,0.00121832,0.0454175,21.0818,478.534,0.282495,0.0,0.0
921,230,19.8713,21.1813,167.464,100.233,97.0555,0.00119191,0.0454092,21.0818,478.534,0.284749,0.0,0.0
924,230.75,20.01,20.7704,172.846,100.252,97.5869,0.00117157,0.0453788,21.0818,478.504,0.238098,0.0,0.0
927,231.5,20.8595,21.8286,172.403,100.273,97.1812,0.0011602,0.0453161,21.0818,478.464,0.276844,0.0,0.0
930,232.25,20.3704,21.7079,174.128,100.295,97.0226,0.00115919,0.0452672,21.0818,478.424,0.29321,0.0,0.0
933,233,20.4188,21.6956,178.185,100.318,97.1756,0.00116922,0.045256,21.0818,478.464,0.281328,0.0,0.0
936,233.75,20.1815,21.033,173.997,100.324,96.8369,0.00118963,0.0452207,21.0818,478.454,0.312652,0.0,0.0
939,234.5,19.7859,20.5116,178.68,100.344,96.533,0.00122112,0.0451564,21.0818,478.464,0.342177,0.0,0.0
942,235.25,20.5369,21.6455,167.496,100.352,97.4656,0.00127248,0.0450979,21.0818,478.324,0.257954,0.0,0.0
945,236,20.7318,21.7979,177.324,100.369,97.857,0.00133764,0.0450939,21.0818,478.163,0.223993,0.0,0.0
948,236.75,19.9611,21.7411,172.521,100.371,96.9918,0.00138758,0.0450369,21.0818,478.273,0.302665,0.0,0.0
951,237.5,20.3457,21.2516,175.318,100.387,97.6818,0.00141351,0.0449722,21.0818,478.294,0.241477,0.0,0.0
954,238.25,19.9617,20.9694,173.829,100.394,97.8871,0.00141273,0.0449115,21.0818,478.364,0.223532,0.0,0.0
957,239,20.4003,21.3804,173.017,100.397,97.7065,0.00138546,0.044875,21.0818,478.364,0.24006,0.0,0.0
960,239.75,20.8303,21.1756,173.722,100.408,96.8073,0.00135419,0.0448542,21.0818,478.384,0.322821,0.0,0.0
963,240.5,20.663,21.2326,179.055,100.402,97.161,0.00131863,0.0448969,21.0818,478.374,0.290014,0.0,0.0
966,241.25,20.2294,21.3611,175.853,100.407,97.3106,0.00127086,0.0449823,21.0816,478.414,0.276837,0.0,0.0
969,242,20.1232,21.2626,173.088,100.409,97.3317,0.00121544,0.0450676,21.0812,478.424,0.275137,0.0,0.0
972,242.75,20.4822,20.9806,172.281,100.414,97.5455,,0.0451877,,478.414,0.256138,0.0,0.0
975,243.5,20.8565,21.008,169.08,100.396,97.3983,,0.0452753,,478.424,0.267919,0.0,0.0
978,244.25,20.1828,20.8799,175.075,100.402,97.4076,,0.0453256,,478.354,0.267573,0.0,0.0
981,245,19.7803,20.7413,175.874,100.399,97.5974,,0.0453565,,478.444,0.250115,0.0,0.0
984,245.75,20.1676,20.5889,174.989,100.397,96.8137,,,,478.484,0.321193,0.0,0.0
987,246.5,19.9767,21.145,175.163,100.376,97.3159,,,,478.534,0.273609,0.0,0.0
990,247.25,20.3944,20.9035,175.178,100.378,96.4864,,,,478.504,0.349485,0.0,0.0
993,248,20.2739,20.8588,168.25,100.364,96.703,,,,478.504,0.328451,0.0,0.0
996,248.75,19.8652,20.9972,172.807,100.349,97.1155,,,,478.514,0.28947,0.0,0.0
999,249.5,19.9784,20.7635,173.63,100.331,96.4872,,,,478.504,0.345232,0.0,0.0
1002,250.25,20.2087,21.2799,175.062,100.321,97.0028,,,,478.504,0.297309,0.0,0.0
1005,251,19.6751,20.565,170.901,100.306,96.6235,,,,478.464,0.330576,0.0,0.0
1008,251.75,20.0701,21.0884,172.461,100.292,96.7484,,,,478.434,0.317905,0.0,0.0
1011,252.5,20.1704,20.616,167.327,100.27,96.7379,,,,478.464,0.316973,0.0,0.0
1014,253.25,20.2009,21.1933,176.891,100.245,96.2783,,,,478.434,0.356846,0.0,0.0