File: 01_Data/Vinyl_Plan_Flooring/Cone/Vinyl_Plan_Flooring_Cone_HF75Scan_220311_R1.csv
Names,Time,Stack TC,Smoke TC,Exh Press,Smoke Comp,Smoke Meas,CO Meter,CO2 Meter,O2 Meter,Sample Mass,Ext Coeff,Start Test,Flame Verif
Chan Gain,,500,500,1,1,1,1,1,1,1,1,1.0,1.0
Offset,,0,0,0.136191,0,0,0,0,0,0,0,0.0,0.0
Gain,,1,1,25.011,13.291,13.2919,1,1,1,1.00093,1.00758,1.0,1.0
Units,sec,C,C,Pa,%,%,%,%,%,g,/m,,
Baseline,,40.0143,42.0272,161.099,99.9028,93.7389,0.000769124,0.0403635,21.0873,-3.49394,0.562992,,
2,0.25,36.0904,38.3211,165.616,100.052,94.3325,0.00040975,0.0418252,21.0849,485.41,0.520265,0.0,0.0
4,0.75,36.2838,37.8982,158.342,100.054,93.8514,0.000407254,0.04189,21.0849,485.45,0.565635,0.0,0.0
6,1.25,36.4686,38.3455,160.308,100.043,93.883,0.00062827,0.0419424,21.0861,485.44,0.561653,0.0,0.0
8,1.75,36.4074,38.5962,163.876,100.045,93.5261,0.000807293,0.0419984,21.0881,485.43,0.5955,0.0,0.0
10,2.25,36.2686,38.1917,154.977,100.035,93.9678,0.00226719,0.0420438,21.0892,485.43,0.552994,0.0,0.0
12,2.75,36.3521,37.9767,162.303,100.038,93.9171,0.00344971,0.0420806,21.0896,485.43,0.558016,0.0,0.0
14,3.25,36.1162,38.4798,160.461,100.032,93.9447,0.00683861,0.0421103,21.0864,485.41,0.554955,0.0,0.0
16,3.75,36.8256,38.4779,166.355,100.025,92.9468,0.00958361,0.0455953,21.0807,485.26,0.648656,0.0,0.0
18,4.25,36.6659,38.2678,162.001,100.017,92.2905,0.0118071,0.0484181,21.076,485.36,0.710641,0.0,1.0
20,4.75,36.6404,38.5137,157.837,100.019,87.2857,0.0188178,0.062904,21.0484,485.28,1.20353,0.0,1.0
22,5.25,37.007,37.955,153.342,100.009,79.5843,0.0244966,0.0746376,21.0047,485.07,2.0191,0.0,1.0
24,5.75,37.2973,38.3405,140.434,100.009,61.9164,0.0325246,0.0984179,20.9295,484.729,4.23775,0.0,1.0
26,6.25,37.4622,38.9585,137.418,100.008,41.7197,0.0390273,0.130528,20.8329,484.459,7.72721,0.0,1.0
28,6.75,37.5869,39.7552,126.241,99.9992,34.4536,0.0466451,0.156538,20.7325,484.149,9.41776,0.0,1.0
30,7.25,38.7836,40.031,123.927,100.004,35.2823,0.0528155,0.20702,20.6311,483.889,9.20811,0.0,1.0
32,7.75,38.8631,41.3505,133.696,99.9822,33.0484,0.0582181,0.24791,20.5491,483.669,9.78427,0.0,1.0
34,8.25,40.5856,41.4189,133.093,99.9822,21.3669,0.0629583,0.298649,20.4662,483.478,13.639,0.0,1.0
36,8.75,40.6829,42.5193,130.696,99.9753,17.1909,0.0666737,0.339747,20.399,483.268,15.5604,0.0,0.0
38,9.25,41.6957,43.1416,133.936,99.9733,13.0643,0.0695715,0.38054,20.3393,483.118,17.9863,0.0,0.0
40,9.75,42.4044,44.2472,134.982,99.985,14.9295,0.0715313,0.413582,20.291,483.008,16.8078,0.0,0.0
42,10.25,42.8752,44.7707,140.593,99.9574,17.0728,0.0727699,0.44332,20.2494,482.828,15.6197,0.0,0.0
44,10.75,44.2201,45.8455,133.129,99.9595,19.7034,0.0737732,0.470083,20.2137,482.678,14.3533,0.0,0.0
46,11.25,44.6231,46.3887,133.057,99.9505,23.1773,0.0739677,0.494448,20.1848,482.537,12.9174,0.0,0.0
48,11.75,45.4114,47.5845,134.11,99.9416,26.7627,0.0735688,0.516601,20.1578,482.407,11.6453,0.0,0.0
50,12.25,45.9417,48.0445,129.278,99.942,24.8169,0.0732458,0.536834,20.1359,482.287,12.3125,0.0,0.0
52,12.75,46.3923,48.6897,127.474,99.9274,27.5107,0.0724244,0.555284,20.1164,482.127,11.4004,0.0,0.0
54,13.25,47.1572,49.2996,126.493,99.9213,32.7819,0.071759,0.570228,20.099,481.977,9.85045,0.0,0.0
56,13.75,47.6453,50.4091,128.065,99.9234,30.858,0.0709743,0.586222,20.081,481.857,10.3852,0.0,0.0
58,14.25,48.6597,50.93,127.454,99.9218,32.8351,0.0703387,0.602678,20.0628,481.747,9.83617,0.0,0.0
60,14.75,49.0516,51.8114,127.598,99.9023,33.6009,0.0697816,0.616006,20.0405,481.577,9.63067,0.0,0.0
62,15.25,50.2039,52.6474,134.627,99.9128,35.7772,0.0693671,0.633324,20.0224,481.446,9.07694,0.0,0.0
64,15.75,51.0256,53.4724,124.09,99.8986,37.5161,0.0690645,0.647351,20.0034,481.266,8.6562,0.0,0.0
66,16.25,51.5121,54.231,126.117,99.9019,38.5919,0.068863,0.663705,19.9879,481.126,8.40662,0.0,0.0
68,16.75,52.2326,54.7883,126.718,99.895,37.9291,0.068739,0.676951,19.9754,481.006,8.55912,0.0,0.0
70,17.25,52.7937,55.6579,136.88,99.8954,39.8997,0.0686386,0.691297,19.9653,480.866,8.1115,0.0,0.0
72,17.75,53.5227,56.6185,132.222,99.8812,38.4791,0.0685958,0.702918,19.961,480.726,8.43065,0.0,0.0
74,18.25,54.0755,57.032,128.083,99.8909,39.1902,0.0683359,0.714481,19.9536,480.576,8.26967,0.0,0.0
76,18.75,54.8951,57.5767,128.765,99.8974,39.3752,0.0678943,0.723848,19.9476,480.415,8.22863,0.0,0.0
78,19.25,55.3484,58.4885,126.757,99.8885,35.7143,0.0673288,0.732028,19.9449,480.225,9.09033,0.0,0.0
80,19.75,56.6825,59.4634,136.71,99.8848,36.9393,0.0668707,0.738654,19.9446,480.085,8.79193,0.0,0.0
82,20.25,56.4366,59.7001,131.691,99.8877,34.8389,0.0658631,0.742203,19.9483,479.955,9.30959,0.0,0.0
84,20.75,57.1587,60.7447,135.127,99.8739,34.1287,0.0650469,0.743716,19.9548,479.825,9.49042,0.0,0.0
86,21.25,57.3792,60.9089,131.365,99.8828,32.788,0.0636126,0.746303,19.9674,479.685,9.8454,0.0,0.0
88,21.75,58.6078,62.2902,136.639,99.8873,31.9475,0.0624507,0.743731,19.9841,479.545,10.0753,0.0,0.0
90,22.25,58.8868,62.6951,140.01,99.8735,30.2248,0.0608748,0.741648,19.9976,479.435,10.564,0.0,0.0
92,22.75,58.5839,62.6673,135.57,99.856,31.0977,0.0595984,0.736201,20.0118,479.314,10.3108,0.0,0.0
94,23.25,59.1728,62.9631,133.091,99.8678,34.299,0.0585645,0.731788,20.0263,479.204,9.44587,0.0,0.0
96,23.75,60.0255,64.1568,133.421,99.8601,36.0611,0.0573902,0.725984,20.038,479.074,9.0024,0.0,0.0
98,24.25,60.3267,64.3959,137.9,99.8573,35.3934,0.0561359,0.721282,20.0496,478.954,9.16733,0.0,0.0
100,24.75,60.6172,64.7389,133.17,99.8524,38.6434,0.05512,0.716964,20.059,478.854,8.39045,0.0,0.0
102,25.25,60.9471,65.1975,141.356,99.8633,38.0207,0.0541736,0.713467,20.0667,478.744,8.53499,0.0,0.0
104,25.75,61.1471,65.1992,136.385,99.8471,39.206,0.053296,0.710634,20.0728,478.604,8.26223,0.0,0.0
106,26.25,61.4072,65.7188,136.964,99.8463,40.6704,0.0525288,0.710525,20.0778,478.524,7.93806,0.0,0.0
108,26.75,61.5907,65.7112,133.707,99.8341,43.5346,0.0518567,0.710437,20.0819,478.414,7.33548,0.0,0.0
110,27.25,62.7537,67.1371,138.654,99.8491,47.3411,0.0512561,0.710366,20.0852,478.324,6.59595,0.0,0.0
112,27.75,62.1545,66.5209,135.897,99.8325,43.4762,0.0507191,0.712468,20.0878,478.193,7.3472,0.0,0.0
114,28.25,62.2355,66.7203,141.882,99.841,44.5393,0.0502272,0.714171,20.09,478.083,7.13442,0.0,0.0
116,28.75,62.1084,66.7003,139.435,99.8264,45.4816,0.0497776,0.71616,20.0917,477.963,6.94809,0.0,0.0
118,29.25,63.0087,67.5576,140.322,99.8366,47.3715,0.0493481,0.718319,20.0931,477.863,6.58915,0.0,0.0
120,29.75,63.4454,67.589,132.999,99.8228,48.543,0.0489413,0.720068,20.0943,477.733,6.37202,0.0,0.0
122,30.25,65.1166,69.3702,135.177,99.8386,49.787,0.0485216,0.721941,20.0952,477.653,6.14976,0.0,0.0
124,30.75,63.6103,68.3302,136.722,99.8228,53.1279,0.0481003,0.723458,20.0986,477.513,5.57433,0.0,0.0
126,31.25,64.2014,68.9149,133.976,99.835,53.7895,0.0477591,0.724583,20.1014,477.403,5.46603,0.0,0.0
128,31.75,64.1767,69.0281,132.058,99.8252,55.1634,0.0474827,0.725494,20.1036,477.313,5.24225,0.0,0.0
130,32.25,65.2804,70.1368,142.014,99.8305,58.8453,0.0468364,0.7253,20.109,477.213,4.67164,0.0,0.0
132,32.75,64.9598,69.8692,134.939,99.8187,57.916,0.046313,0.725143,20.1133,477.122,4.81129,0.0,0.0
134,33.25,65.1501,70.005,137.017,99.835,59.6408,0.0454792,0.723078,20.1194,477.052,4.55336,0.0,0.0
136,33.75,65.6577,70.3949,143.607,99.8354,59.6209,0.0448039,0.721406,20.1265,476.932,4.55634,0.0,0.0
138,34.25,65.4284,70.4474,141.648,99.8268,60.143,0.0439648,0.716963,20.135,476.872,4.47853,0.0,0.0
140,34.75,65.6392,70.5847,143.258,99.8175,60.5048,0.0430223,0.713364,20.1445,476.742,4.42469,0.0,0.0
142,35.25,65.1414,70.3424,137.48,99.8277,61.2187,0.0417392,0.710449,20.1584,476.662,4.32191,0.0,0.0
144,35.75,66.0236,71.3618,141.06,99.8187,60.4415,0.0406998,0.701559,20.1754,476.592,4.43405,0.0,0.0
146,36.25,66.4942,71.5359,137.468,99.809,60.3352,0.0392837,0.694358,20.1952,476.512,4.44874,0.0,0.0
148,36.75,66.3976,71.5126,139.65,99.8102,60.0898,0.0381366,0.684998,20.2168,476.432,4.48487,0.0,0.0
150,37.25,66.3696,71.6518,144.427,99.8212,60.9842,0.0365614,0.674242,20.2405,476.372,4.35525,0.0,0.0
152,37.75,66.8158,71.7341,144.411,99.811,58.6437,0.0352855,0.661289,20.2654,476.272,4.70025,0.0,0.0
154,38.25,66.6726,71.7567,144.639,99.8171,58.2584,0.034252,0.646979,20.2856,476.252,4.75905,0.0,0.0
156,38.75,66.8832,71.91,150.484,99.8094,57.1072,0.032405,0.631679,20.3071,476.212,4.93477,0.0,0.0
158,39.25,66.5875,71.7522,145.947,99.8248,57.4146,0.030909,0.615948,20.3291,476.152,4.88867,0.0,0.0
160,39.75,66.8048,72.38,149.396,99.8045,60.2586,0.0290472,0.599194,20.352,476.091,4.45958,0.0,0.0
162,40.25,67.1041,72.3946,149.479,99.809,57.1794,0.0275392,0.582014,20.3753,476.071,4.92357,0.0,0.0
164,40.75,66.9168,72.1606,146.099,99.8057,59.0173,0.0257263,0.568098,20.3999,475.991,4.64365,0.0,0.0
166,41.25,66.6935,71.8142,149.549,99.8122,61.8377,0.0242579,0.547881,20.4252,475.941,4.23163,0.0,0.0
168,41.75,66.7022,72.1617,149.661,99.8204,62.7492,0.0225829,0.531505,20.4456,475.901,4.10302,0.0,0.0
170,42.25,66.3731,72.3489,147.99,99.8155,63.5933,0.0212261,0.513589,20.4755,475.871,3.98449,0.0,0.0
172,42.75,66.6428,71.7826,151.006,99.8216,66.2032,0.0201272,0.494891,20.4997,475.851,3.62954,0.0,0.0
174,43.25,66.7591,72.2098,150.606,99.8118,66.8364,0.0186506,0.476078,20.5299,475.811,3.54455,0.0,0.0
176,43.75,66.3754,72.0726,154.533,99.8005,68.8065,0.0174546,0.457539,20.5544,475.811,3.28677,0.0,0.0
178,44.25,66.3003,71.6046,153.055,99.8082,70.7982,0.0160763,0.439327,20.5742,475.771,3.03525,0.0,0.0
180,44.75,66.2413,71.707,151.566,99.807,71.9239,0.0149599,0.4217,20.5987,475.761,2.89572,0.0,0.0
182,45.25,66.3587,71.9988,151.664,99.8151,76.1968,0.0140556,0.407422,20.6186,475.731,2.38636,0.0,0.0
184,45.75,66.0628,71.7207,153.008,99.8139,79.1389,0.0129191,0.388293,20.6347,475.681,2.05141,0.0,0.0
186,46.25,66.1658,71.6784,149.437,99.8236,80.3299,0.0119986,0.372799,20.6533,475.671,1.92026,0.0,0.0
188,46.75,66.1145,71.7973,153.583,99.8114,83.4115,0.0112529,0.354912,20.6734,475.691,1.58646,0.0,0.0
190,47.25,65.6581,70.9996,152.861,99.8199,83.8804,0.0104035,0.340423,20.6931,475.651,1.53767,0.0,0.0
192,47.75,65.5949,71.1344,150.02,99.8126,85.3131,0.00971554,0.328687,20.7121,475.651,1.38733,0.0,0.0
194,48.25,65.5253,71.0282,153.469,99.8301,86.1796,0.00908484,0.31287,20.7312,475.621,1.29957,0.0,0.0
196,48.75,65.102,70.4395,149.492,99.8191,87.1774,0.00850788,0.300058,20.7501,475.611,1.19685,0.0,0.0
198,49.25,64.7702,70.3471,158.707,99.8183,88.5923,0.00798499,0.28968,20.7653,475.591,1.05448,0.0,0.0
200,49.75,64.8666,70.4346,158.212,99.8155,87.8548,0.00751145,0.278303,20.7848,475.571,1.12811,0.0,0.0
202,50.25,64.7779,70.3108,157.504,99.8171,88.9419,0.00708681,0.266413,20.8005,475.581,1.01956,0.0,0.0
204,50.75,64.7027,70.378,156.439,99.8293,89.2056,0.00670589,0.254131,20.8182,475.581,0.994474,0.0,0.0
206,51.25,64.1409,70.2126,156.804,99.8358,89.1249,0.00636935,0.244182,20.8325,475.551,1.00305,0.0,0.0
208,51.75,64.2907,69.742,155.976,99.8212,89.9629,0.00607157,0.234687,20.8476,475.561,0.919039,0.0,0.0
210,52.25,63.9689,69.2958,155.171,99.8358,90.0327,0.00583037,0.225702,20.8599,475.531,0.913479,0.0,0.0
212,52.75,63.817,69.1646,158.558,99.8325,90.8797,0.00562394,0.217152,20.8698,475.511,0.830435,0.0,0.0
214,53.25,63.3528,68.6481,153.222,99.8386,91.1024,0.00537127,0.20908,20.8863,475.521,0.809342,0.0,0.0
216,53.75,63.633,68.994,156.791,99.837,91.7473,0.0053033,0.20149,20.8908,475.481,0.746847,0.0,0.0
218,54.25,63.4726,68.4626,153.352,99.8362,91.9072,0.00520065,0.194394,20.901,475.501,0.731391,0.0,0.0
220,54.75,63.1373,68.559,155.401,99.8487,92.187,0.00511751,0.188647,20.9093,475.491,0.70563,0.0,0.0
222,55.25,62.9645,68.1224,153.499,99.8406,92.0767,0.00504966,0.181777,20.9172,475.471,0.715496,0.0,0.0
224,55.75,62.316,67.8781,159.003,99.8593,93.0539,0.00503141,0.176212,20.9247,475.491,0.623843,0.0,0.0
226,56.25,62.5189,68.0148,152.883,99.8382,92.531,0.00500761,0.168713,20.9324,475.431,0.671779,0.0,0.0
228,56.75,62.3098,67.7502,154.244,99.8532,92.6543,0.00498834,0.166022,20.94,475.441,0.661337,0.0,0.0
230,57.25,61.4487,66.7898,160.217,99.8443,92.7983,0.00496778,0.161419,20.9472,475.461,0.646821,0.0,0.0
232,57.75,61.5492,66.9533,160.11,99.8564,92.1501,0.00495113,0.156489,20.9538,475.461,0.709852,0.0,0.0
234,58.25,61.6236,67.2586,160.689,99.8544,92.5951,0.00492529,0.152496,20.9601,475.431,0.667096,0.0,0.0
236,58.75,61.6593,66.8497,158.362,99.8617,93.2737,0.00490435,0.148078,20.9661,475.451,0.603201,0.0,0.0
238,59.25,61.3035,66.6279,158.745,99.8512,92.6592,0.00488739,0.1445,20.9709,475.431,0.660693,0.0,0.0
240,59.75,61.2354,66.6538,164.14,99.8637,93.2364,0.00485142,0.140744,20.9753,475.431,0.606918,0.0,0.0
242,60.25,60.5907,66.1069,157.83,99.8589,92.9715,0.00482228,0.137702,20.9792,475.411,0.631632,0.0,0.0
244,60.75,60.7011,65.9632,159.949,99.8763,93.3439,0.00478386,0.134495,20.9832,475.411,0.597846,0.0,0.0
246,61.25,59.9461,65.6153,157.971,99.8727,93.666,0.00474429,0.131897,20.9869,475.411,0.56708,0.0,0.0
248,61.75,59.6913,65.1203,157.642,99.8792,93.1269,0.00470464,0.129374,20.9905,475.401,0.61867,0.0,0.0
250,62.25,60.0388,65.3181,160.314,99.8698,93.3135,0.00466539,0.126952,20.9933,475.401,0.600153,0.0,0.0
252,62.75,59.8607,65.1786,159.645,99.8808,93.163,0.00464527,0.12499,20.995,475.391,0.615388,0.0,0.0
254,63.25,59.6484,64.902,159.183,99.8775,93.6348,0.00461086,0.122717,20.9979,475.381,0.570457,0.0,0.0
256,63.75,59.8363,64.2543,158.648,99.8917,92.8397,0.00456696,0.120875,21.0007,475.371,0.647081,0.0,0.0
258,64.25,58.6822,63.8852,158.236,99.8763,92.9338,0.0045314,0.118882,21.0034,475.361,0.636763,0.0,0.0
260,64.75,58.286,63.7248,159.029,99.8978,93.8562,0.00447794,0.117268,21.0058,475.361,0.551372,0.0,0.0
262,65.25,57.7451,63.0605,161.331,99.8832,92.8328,0.00443464,0.11557,21.0079,475.331,0.646984,0.0,0.0
264,65.75,57.6974,62.8498,156.983,99.8982,93.2543,0.00439957,0.114846,21.0097,475.321,0.608277,0.0,0.0
266,66.25,58.2116,63.4374,160.893,99.8934,94.1333,0.00431328,0.113352,21.0111,475.321,0.524925,0.0,0.0
268,66.75,57.4064,62.7661,154.924,99.9136,94.1844,0.0042434,0.111912,21.0122,475.311,0.521922,0.0,0.0
270,67.25,58.0672,62.9703,160.6,99.9076,93.2823,0.00416931,0.110526,21.0132,475.301,0.606449,0.0,0.0
272,67.75,57.5821,62.3378,156.171,99.9169,94.2891,0.00409357,0.109206,21.0148,475.311,0.512394,0.0,0.0
274,68.25,57.2822,62.6685,159.538,99.925,92.9411,0.00402123,0.107968,21.0161,475.291,0.640375,0.0,0.0
276,68.75,57.2775,62.298,157.011,99.9295,93.808,0.00395274,0.106815,21.0172,475.301,0.558717,0.0,0.0
278,69.25,56.8555,62.0135,158.424,99.9226,93.7009,0.00389726,0.10588,21.0181,475.281,0.568202,0.0,0.0
280,69.75,56.9868,62.4486,157.703,99.925,92.7403,0.00384909,0.104978,21.0188,475.281,0.65949,0.0,0.0
282,70.25,56.563,62.0301,160.019,99.9319,93.4133,0.00380716,0.104115,21.0206,475.291,0.596198,0.0,0.0
284,70.75,56.6011,61.579,161.223,99.9404,93.2372,0.00377126,0.103241,21.022,475.301,0.613623,0.0,0.0
286,71.25,56.3587,61.0578,155.094,99.94,93.9783,0.00374043,0.102376,21.0236,475.271,0.543612,0.0,0.0
288,71.75,56.4763,61.3589,157.791,99.9542,93.3135,0.00371481,0.101675,21.0249,475.251,0.607616,0.0,0.0
290,72.25,55.9862,61.4105,160.182,99.94,93.0604,0.00369348,0.100947,21.0264,475.301,0.630368,0.0,0.0
292,72.75,56.1416,60.8882,159.416,99.9611,94.0226,0.00367621,0.100213,21.0276,475.301,0.541321,0.0,0.0
294,73.25,55.4626,60.7985,157.82,99.9574,93.2109,0.00366221,0.0995456,21.0286,475.271,0.617629,0.0,0.0
296,73.75,55.4827,60.4247,164.771,99.9785,93.8076,0.00362755,0.0989395,21.0294,475.251,0.563096,0.0,0.0
298,74.25,55.5748,60.0065,160.565,99.9656,93.5265,0.00359947,0.0984485,21.0301,475.251,0.588473,0.0,0.0
300,74.75,55.1717,60.2539,159.092,99.9866,94.1236,0.00354851,0.0978848,21.0306,475.251,0.534089,0.0,0.0
302,75.25,55.3772,60.3297,163.791,99.9733,93.6676,0.00350723,0.0974282,21.031,475.231,0.575824,0.0,0.0
304,75.75,54.8831,59.8365,160.294,99.985,93.1192,0.00346275,0.0968234,21.0314,475.241,0.628764,0.0,0.0
306,76.25,55.006,59.6461,165.329,99.9814,93.4632,0.00342673,0.0963334,21.0316,475.231,0.595853,0.0,0.0
308,76.75,54.7141,59.4592,156.985,99.9915,92.9829,0.00339948,0.0959365,21.0319,475.201,0.642285,0.0,0.0
310,77.25,54.4522,59.4404,156.264,99.9903,93.6684,0.00337916,0.0955183,21.0325,475.191,0.577253,0.0,0.0
312,77.75,54.7554,59.3755,156.553,99.998,93.6299,0.00335947,0.0951796,21.033,475.181,0.581572,0.0,0.0
314,78.25,54.1627,59.4325,156.586,99.9927,93.5183,0.00334062,0.0948914,21.0334,475.191,0.591641,0.0,0.0
316,78.75,54.2197,59.2923,156.282,99.9919,93.7094,0.00332083,0.0946579,21.0337,475.171,0.573532,0.0,0.0
318,79.25,54.3508,58.6334,158.301,99.9952,93.3293,0.00330074,0.0944688,21.034,475.171,0.609739,0.0,0.0
320,79.75,53.8989,59.084,156.056,100.011,93.5171,0.00328446,0.0943157,21.0342,475.171,0.593406,0.0,0.0
322,80.25,54.134,58.5951,152.582,100.012,93.7427,0.00326741,0.0941916,21.0344,475.171,0.572152,0.0,0.0
324,80.75,53.966,58.7789,154.118,100.016,93.4246,0.00325011,0.0940911,21.0345,475.171,0.602545,0.0,0.0
326,81.25,53.6696,58.4155,162.179,100.007,93.578,0.0032361,0.0940097,21.0347,475.171,0.587299,0.0,0.0
328,81.75,53.1571,58.0454,162.943,100.024,93.275,0.00322475,0.0939161,21.0348,475.161,0.617434,0.0,0.0
330,82.25,53.0569,58.1793,158.777,100.019,93.3013,0.0032175,0.0938403,21.0348,475.151,0.614505,0.0,0.0
332,82.75,53.1545,57.725,159.331,100.032,93.1549,0.00321336,0.0938008,21.0349,475.131,0.629572,0.0,0.0
334,83.25,53.311,57.7752,159.244,100.021,94.4144,0.00321324,0.0937884,21.0349,475.111,0.509832,0.0,0.0
336,83.75,53.0405,57.7452,158.114,100.035,93.5869,0.00321604,0.0937783,21.035,475.111,0.588894,0.0,0.0
338,84.25,52.5753,57.4857,160.532,100.024,93.4445,0.00321831,0.0938393,21.035,475.101,0.601382,0.0,0.0
340,84.75,52.5212,57.108,164.377,100.031,93.0908,0.00323609,0.0938886,21.0348,475.101,0.635546,0.0,0.0
342,85.25,52.3521,56.9864,158.555,100.044,93.3115,0.00325049,0.0939701,21.0344,475.081,0.615767,0.0,0.0
344,85.75,52.6098,57.2373,167.976,100.041,93.6563,0.00326583,0.0940361,21.0341,475.081,0.582846,0.0,0.0
346,86.25,52.0387,57.0151,159.175,100.035,93.7471,0.00327826,0.0940757,21.0339,475.091,0.573738,0.0,0.0
348,86.75,51.9094,56.8951,159.573,100.04,93.6842,0.00328832,0.0941078,21.0337,475.071,0.58017,0.0,0.0
350,87.25,51.8882,56.7119,161.205,100.042,93.6956,0.00327441,0.0941476,21.0335,475.081,0.579277,0.0,0.0
352,87.75,52.195,56.9929,162.416,100.041,94.1949,0.00326848,0.0941799,21.0334,475.081,0.532156,0.0,0.0
354,88.25,51.9646,56.5233,158.377,100.049,93.9568,0.00324608,0.094206,21.0333,475.081,0.555278,0.0,0.0
356,88.75,51.921,56.4606,162.357,100.05,93.3711,0.00321691,0.0942272,21.0332,475.051,0.610586,0.0,0.0
358,89.25,51.6778,56.4005,159.439,100.044,93.5557,0.0031849,0.0942225,21.0332,475.051,0.592632,0.0,0.0
360,89.75,52.245,56.5527,159.823,100.037,93.885,0.00315143,0.094199,21.0335,475.071,0.560924,0.0,0.0
362,90.25,51.5373,55.7199,162.724,100.052,93.2056,0.00311916,0.0941801,21.0338,475.061,0.626518,0.0,0.0
364,90.75,51.91,56.136,161.536,100.05,93.1541,0.00308839,0.0940992,21.0341,475.061,0.631189,0.0,0.0
366,91.25,51.1738,55.5444,157.245,100.053,93.4798,0.00305766,0.093961,21.0343,475.051,0.600589,0.0,0.0
368,91.75,51.0302,56.002,160.086,100.044,93.5155,0.00302756,0.09382,21.0345,475.041,0.596463,0.0,0.0
370,92.25,50.5808,54.9101,157.247,100.047,93.3743,0.00300317,0.0936796,21.0346,475.02,0.6101,0.0,0.0
372,92.75,50.8489,54.8417,157.525,100.056,92.8847,0.00298213,0.0935658,21.0347,474.99,0.657283,0.0,0.0
374,93.25,50.8182,55.415,165.674,100.049,93.2952,0.00296393,0.0933632,21.0347,475.02,0.617698,0.0,0.0
376,93.75,50.8238,55.369,156.339,100.043,93.1784,0.00294919,0.0931991,21.0346,475.03,0.628271,0.0,0.0
378,94.25,50.6016,54.8705,159.862,100.05,93.0766,0.00293725,0.0929694,21.0346,475.02,0.638543,0.0,0.0
380,94.75,50.7575,54.6326,160.795,100.039,94.0384,0.00293369,0.0927834,21.0346,475.01,0.546716,0.0,0.0
382,95.25,50.5915,55.2111,157.823,100.054,93.3301,0.00293081,0.0926328,21.0346,475.01,0.614824,0.0,0.0
384,95.75,50.2739,54.7483,160.516,100.041,93.8558,0.00292848,0.0924417,21.0346,475.01,0.564104,0.0,0.0
386,96.25,50.177,54.0181,156.064,100.049,94.3089,0.00292659,0.092287,21.0345,474.99,0.522184,0.0,0.0
388,96.75,49.9173,54.372,159.456,100.039,93.0965,0.00291894,0.0921064,21.0345,474.98,0.635688,0.0,0.0
390,97.25,50.6284,54.3859,158.503,100.037,92.9659,0.00291275,0.0919601,21.0345,474.98,0.647954,0.0,0.0
392,97.75,50.2539,54.6283,159.891,100.03,93.879,0.00291262,0.0918417,21.0345,474.99,0.560888,0.0,0.0
394,98.25,49.8756,54.3909,157.798,100.032,93.5001,0.00291252,0.0916629,21.0345,474.99,0.596808,0.0,0.0
396,98.75,50.1825,54.2564,156.91,100.032,93.6623,0.00292591,0.0915181,21.0347,474.99,0.581484,0.0,0.0
398,99.25,50.4626,54.0465,163.346,100.028,93.6145,0.00293675,0.0913456,21.0351,475,0.585715,0.0,0.0
400,99.75,49.8465,53.8297,163.624,100.025,94.1227,0.00295198,0.0912058,21.0355,474.98,0.537572,0.0,0.0
402,100.25,49.1775,53.1874,156.269,100.037,93.8043,0.00297011,0.0910513,21.0357,474.97,0.568598,0.0,0.0
404,100.75,49.007,53.3786,154.206,100.007,93.5086,0.0029848,0.0909261,21.0359,474.99,0.593816,0.0,0.0
406,101.25,49.7801,53.9669,164.23,100.025,94.0558,0.00299425,0.0907883,21.0361,474.95,0.543858,0.0,0.0
408,101.75,49.6336,53.9682,162.73,100.001,93.5593,0.0030019,0.0906441,21.0362,474.95,0.588489,0.0,0.0
410,102.25,48.9907,53.6543,163.384,100.012,94.4643,0.00299708,0.0905127,21.0364,474.95,0.50441,0.0,0.0
412,102.75,49.0667,53.3894,161.51,100.008,94.1118,0.00299317,0.0903933,21.0364,474.93,0.537095,0.0,0.0
414,103.25,49.0319,52.967,158.579,100.016,94.2444,0.00297532,0.0902675,21.0365,474.93,0.525363,0.0,0.0
416,103.75,48.4588,52.5368,158.99,100.007,93.5467,0.00296086,0.0901394,21.0366,474.93,0.590213,0.0,0.0
418,104.25,49.5916,53.5076,159.652,99.998,94.1357,0.00293324,0.0900357,21.0366,474.9,0.533951,0.0,0.0
420,104.75,49.0072,53.2888,162.362,99.985,93.8952,0.00291087,0.0899655,21.0367,474.91,0.555417,0.0,0.0
422,105.25,49.1965,53.0368,159.006,99.9911,93.9248,0.0028773,0.0899087,21.0367,474.9,0.553168,0.0,0.0
424,105.75,48.5565,52.9352,156.716,99.972,94.3365,0.00283622,0.0898074,21.0367,474.88,0.512824,0.0,0.0
426,106.25,48.7567,53.129,160.132,99.9822,93.8193,0.00278814,0.0897254,21.0367,474.86,0.56231,0.0,0.0
428,106.75,49.118,52.5455,159.265,99.9656,93.5605,0.00273589,0.08959,21.0368,474.86,0.585253,0.0,0.0
430,107.25,48.4012,52.7818,156.715,99.9793,93.5106,0.00269357,0.0894804,21.0368,474.86,0.591187,0.0,0.0
432,107.75,49.1512,52.6567,160.801,99.9497,93.7289,0.00262022,0.0893408,21.0368,474.87,0.567966,0.0,0.0
434,108.25,49.1664,52.4786,162.078,99.9619,93.6814,0.00256082,0.089182,21.0368,474.87,0.573519,0.0,0.0
436,108.75,48.2592,52.6476,166.591,99.9465,94.2603,0.00250114,0.0890243,21.0368,474.86,0.517713,0.0,0.0
438,109.25,48.6247,52.5608,162.2,99.9587,92.9655,0.0024424,0.0888705,21.0368,474.87,0.641038,0.0,0.0
440,109.75,48.4681,52.3957,160.513,99.9441,93.0709,0.00238328,0.0887459,21.0368,474.85,0.629726,0.0,0.0
442,110.25,48.6227,52.2682,162.324,99.9388,93.2076,0.00232499,0.0885072,21.0373,474.83,0.616287,0.0,0.0
444,110.75,48.4903,52.1729,161.773,99.9254,93.1119,0.00226752,0.0883138,21.0376,474.82,0.624185,0.0,0.0
446,111.25,48.1898,52.214,158.544,99.927,93.1845,0.00221174,0.0881209,21.0379,474.81,0.617439,0.0,0.0
448,111.75,48.106,51.7615,162.356,99.9112,93.7905,0.00216655,0.087932,21.0382,474.81,0.558746,0.0,0.0
450,112.25,47.8801,51.8549,160.391,99.9201,93.4814,0.00212021,0.0878008,21.0383,474.82,0.588711,0.0,0.0
452,112.75,47.9616,51.4802,156.806,99.9011,93.135,0.00208011,0.087714,21.0385,474.83,0.619838,0.0,0.0
454,113.25,48.1596,51.6128,156.199,99.9104,93.5102,0.00204532,0.087622,21.0386,474.82,0.585127,0.0,0.0
456,113.75,48.1236,51.7525,159.961,99.8921,93.1829,0.00201714,0.0875279,21.0387,474.81,0.614507,0.0,0.0
458,114.25,48.1073,51.3554,159.923,99.8897,93.4782,0.00198663,0.0874517,21.0388,474.78,0.586326,0.0,0.0
460,114.75,48.0062,51.7918,158.743,99.8852,93.3078,0.001955,0.0873211,21.0389,474.79,0.602055,0.0,0.0
462,115.25,47.653,51.6742,159.277,99.9116,93.2531,0.00192937,0.0872153,21.0389,474.79,0.609576,0.0,0.0
464,115.75,47.7567,51.6211,162.439,99.8808,94.083,0.00190862,0.087047,21.039,474.78,0.528536,0.0,0.0
466,116.25,47.9772,51.6625,158.117,99.8775,93.6047,0.00186869,0.0869106,21.0389,474.77,0.573292,0.0,0.0
468,116.75,47.7131,51.3813,157.516,99.8621,93.765,0.00183635,0.08669,21.0387,474.77,0.556813,0.0,0.0
470,117.25,47.7408,51.031,158.245,99.8662,92.9939,0.001798,0.0865113,21.0388,474.79,0.630157,0.0,0.0
472,117.75,47.2372,51.0793,160.139,99.8593,93.376,0.00176693,0.0863665,21.039,474.78,0.593305,0.0,0.0
474,118.25,47.0658,50.7695,158.526,99.8637,93.5001,0.00174298,0.0862203,21.0392,474.78,0.581958,0.0,0.0
476,118.75,47.364,50.8455,158.225,99.8451,93.8218,0.00172358,0.0860758,21.0394,474.79,0.549952,0.0,0.0
478,119.25,47.6692,51.28,152.933,99.8447,94.3527,0.00171638,0.0859587,21.0396,474.8,0.500038,0.0,0.0
480,119.75,47.6896,51.3313,161.525,99.8268,93.2247,0.00171054,0.0858639,21.0397,474.8,0.604765,0.0,0.0
482,120.25,47.2576,50.9358,157.027,99.8309,93.2563,0.00170774,0.0857871,21.0398,474.78,0.602126,0.0,0.0
484,120.75,47.6734,51.0907,155.537,99.8151,93.7735,0.0017072,0.0856422,21.0399,474.78,0.551844,0.0,0.0
486,121.25,47.246,50.7898,164.072,99.8139,93.5179,0.00170675,0.0855249,21.0399,474.76,0.575855,0.0,0.0
488,121.75,47.0415,50.5531,159.204,99.8057,92.7971,0.00170704,0.0853749,21.04,474.74,0.643525,0.0,0.0
490,122.25,47.3586,50.3395,161.221,99.7956,93.0652,0.00170784,0.0852533,21.04,474.74,0.617127,0.0,0.0
492,122.75,46.819,50.9545,157.635,99.7924,93.1736,0.0017085,0.0851042,21.04,474.73,0.60656,0.0,0.0
494,123.25,47.165,50.5746,160.663,99.7993,93.3869,0.00170903,0.0849377,21.0401,474.72,0.586954,0.0,0.0
496,123.75,46.508,50.25,159.577,99.7765,93.6567,0.00170689,0.0848029,21.0401,474.7,0.559449,0.0,0.0
498,124.25,46.7437,50.3153,157.506,99.7676,93.2421,0.00170286,0.0846662,21.0406,474.7,0.597867,0.0,0.0
500,124.75,46.7572,50.4971,159.836,99.7546,93.696,0.00169576,0.0845554,21.0409,474.68,0.553796,0.0,0.0
502,125.25,47.0661,50.73,155.766,99.7571,93.9122,0.00168654,0.084444,21.0412,474.65,0.533641,0.0,0.0
504,125.75,46.8168,50.4872,160.211,99.7465,93.1216,0.00167908,0.0843342,21.0415,474.65,0.607425,0.0,0.0
506,126.25,46.589,50.229,161.08,99.7388,93.5512,0.00166939,0.084238,21.0417,474.66,0.566066,0.0,0.0
508,126.75,47.1365,50.2434,156.781,99.7271,93.2506,0.00166154,0.0841536,21.0418,474.65,0.593466,0.0,0.0
510,127.25,46.9952,50.318,159.278,99.7234,92.9432,0.00166118,0.0840852,21.042,474.65,0.622332,0.0,0.0
512,127.75,46.2077,50.3716,153.681,99.7226,93.0405,0.00166088,0.0839473,21.0421,474.67,0.613009,0.0,0.0
514,128.25,46.2288,49.7294,159.08,99.6999,93.1492,0.00166064,0.0838356,21.0422,474.67,0.600674,0.0,0.0
516,128.75,45.6802,49.3151,158.719,99.7141,93.5666,0.00166896,0.0836351,21.0425,474.67,0.562416,0.0,0.0
518,129.25,46.4229,50.1208,160.244,99.6999,93.9706,0.0016757,0.0834726,21.0431,474.67,0.523077,0.0,0.0
520,129.75,46.3507,49.7695,162.042,99.693,92.8624,0.00168238,0.0832981,21.0436,474.65,0.627317,0.0,0.0
522,130.25,46.1872,49.6404,162.074,99.6869,93.2474,0.00168779,0.0831181,21.044,474.64,0.590213,0.0,0.0
524,130.75,46.6497,50.0133,158.302,99.6804,93.408,0.0016896,0.0828927,21.0443,474.62,0.574426,0.0,0.0
526,131.25,46.5136,49.8582,160.387,99.6609,94.0607,0.00168877,0.0826385,21.0446,474.62,0.511157,0.0,0.0
528,131.75,46.3,49.8077,162.87,99.6699,94.1012,0.00168618,0.0824326,21.0448,474.62,0.508139,0.0,0.0
530,132.25,45.7473,49.3835,158.758,99.6459,93.6737,0.00168235,0.0821421,21.045,474.63,0.546264,0.0,0.0
532,132.75,45.6483,48.8886,161.779,99.6516,93.5131,0.00167605,0.0819069,21.0451,474.6,0.561937,0.0,0.0
534,133.25,46.1995,49.2788,155.208,99.6277,93.0178,0.00166807,0.0817018,21.0452,474.61,0.60675,0.0,0.0
536,133.75,45.5237,49.5949,160.859,99.639,92.6012,0.0016616,0.0815227,21.0453,474.61,0.64743,0.0,0.0
538,134.25,45.889,49.5041,163.382,99.6119,92.8231,0.00165636,0.0813705,21.0454,474.6,0.623867,0.0,0.0
540,134.75,45.9393,49.1863,156.724,99.6046,93.606,0.00165212,0.0812406,21.0455,474.59,0.548987,0.0,0.0
542,135.25,45.7351,49.0105,165.566,99.5814,94.7839,0.00164996,0.0811209,21.0455,474.59,0.436404,0.0,0.0
544,135.75,45.7269,49.4221,156.165,99.5863,93.2344,0.00164937,0.081011,21.0455,474.58,0.582522,0.0,0.0
546,136.25,45.629,48.0488,156.926,99.5583,93.1297,0.00164633,0.080922,21.0456,474.59,0.589964,0.0,0.0
548,136.75,45.4138,48.6177,156.153,99.5612,93.5504,0.00164156,0.0808361,21.046,474.59,0.550384,0.0,0.0
550,137.25,46.0582,49.0033,159.399,99.523,92.6552,0.0016377,0.0807665,21.0464,474.59,0.631986,0.0,0.0
552,137.75,45.9612,49.2288,155.711,99.5307,92.6714,0.00162007,0.0806553,21.0467,474.58,0.631123,0.0,0.0
554,138.25,45.9557,48.9896,161.557,99.5105,93.3094,0.00160579,0.0805651,21.0472,474.56,0.568676,0.0,0.0
556,138.75,46.0826,49.2715,163.162,99.4983,92.8937,0.00159422,0.0804921,21.0478,474.56,0.607066,0.0,0.0
558,139.25,45.9158,48.4382,156.576,99.4825,93.2855,0.00157756,0.0802682,21.0484,474.54,0.568457,0.0,0.0
560,139.75,45.949,49.0481,161.366,99.4825,93.3354,0.00156407,0.0800868,21.049,474.54,0.563731,0.0,0.0
562,140.25,45.2676,48.7661,157.172,99.4711,93.6595,0.00156017,0.0798292,21.0495,474.54,0.532084,0.0,0.0
564,140.75,45.0714,48.4815,157.523,99.463,93.3995,0.00156335,0.0796206,21.0499,474.55,0.555934,0.0,0.0
566,141.25,45.8468,48.4906,156.391,99.4257,94.0193,0.0015704,0.0794516,21.0502,474.57,0.494158,0.0,0.0
568,141.75,45.8278,49.1592,160.518,99.4306,93.4445,0.00158014,0.0792713,21.0504,474.55,0.548791,0.0,0.0
570,142.25,46.0046,48.694,165.894,99.4087,92.8064,0.00158804,0.0790863,21.0506,474.57,0.607402,0.0,0.0
572,142.75,45.9236,48.1516,161.383,99.4123,92.9269,0.00158611,0.0788354,21.0508,474.54,0.59626,0.0,0.0
574,143.25,45.4308,48.3757,158.546,99.3896,92.7416,0.00157707,0.0785411,21.0509,474.55,0.611889,0.0,0.0
576,143.75,45.5364,48.5638,158.607,99.3892,92.8843,0.00155887,0.078245,21.051,474.55,0.598256,0.0,0.0
578,144.25,45.7127,48.7546,156.764,99.3515,93.034,0.00153435,0.0779532,21.0511,474.56,0.58067,0.0,0.0
580,144.75,45.6413,48.673,159.681,99.3551,92.5781,0.00150682,0.0777168,21.0512,474.55,0.624416,0.0,0.0
582,145.25,45.4623,48.7266,161.29,99.3442,93.4088,0.00147762,0.0774157,21.0517,474.52,0.544485,0.0,0.0
584,145.75,45.3582,48.5295,159.155,99.3332,93.0312,0.00144822,0.0771717,21.0521,474.52,0.579315,0.0,0.0
586,146.25,45.2143,48.6744,159.305,99.3231,92.9423,0.00141922,0.0769453,21.0524,474.52,0.586857,0.0,0.0
588,146.75,45.3167,48.565,157.718,99.3202,93.5837,0.00138872,0.0767359,21.0527,474.53,0.525827,0.0,0.0
590,147.25,45.5392,48.37,159.956,99.2882,92.7087,0.00135768,0.0765229,21.0531,474.55,0.605999,0.0,0.0
592,147.75,45.1511,47.8598,157.745,99.291,93.7504,0.00133254,0.0763115,21.0537,474.53,0.507498,0.0,0.0
594,148.25,45.2786,48.2238,159.974,99.2983,93.1695,0.00130733,0.0761331,21.0542,474.51,0.56308,0.0,0.0
596,148.75,45.6029,48.0045,162.125,99.2776,93.3423,0.00128691,0.075982,21.0546,474.51,0.544861,0.0,0.0
598,149.25,45.3143,48.3807,163.502,99.2618,92.7261,0.00127036,0.0758597,21.0549,474.49,0.60199,0.0,0.0
600,149.75,45.1828,47.9847,164.746,99.2659,92.9452,0.00127395,0.0757058,21.0551,474.52,0.581496,0.0,0.0
602,150.25,45.266,48.3281,161.176,99.2346,92.2268,0.00127685,0.0755811,21.0553,474.52,0.647294,0.0,0.0
604,150.75,45.1214,48.0329,161.418,99.2411,92.6596,0.00128176,0.0754513,21.0555,474.51,0.60649,0.0,0.0
606,151.25,44.9897,48.0096,158.26,99.2107,92.4304,0.00128804,0.0753201,21.0556,474.5,0.625669,0.0,0.0
608,151.75,45.1633,48.2345,162.142,99.2192,92.5391,0.00129184,0.0752139,21.0557,474.51,0.616039,0.0,0.0
610,152.25,45.4915,48.6892,160.712,99.2002,93.3853,0.00129378,0.0749635,21.0558,474.49,0.533891,0.0,0.0
612,152.75,45.3118,48.1696,161.235,99.1921,93.2551,0.00129598,0.0747606,21.0559,474.48,0.5455,0.0,0.0
614,153.25,44.9845,48.0265,158.574,99.1697,92.037,0.00129834,0.0745314,21.0559,474.49,0.659723,0.0,0.0
616,153.75,45.1928,47.7786,163.302,99.1815,92.688,0.00130345,0.0742874,21.056,474.48,0.59847,0.0,0.0
618,154.25,44.9709,48.226,158.364,99.1483,93.4591,0.00131046,0.0740753,21.0564,474.49,0.52228,0.0,0.0
620,154.75,45.2267,48.2179,162.263,99.1576,92.7464,0.00131742,0.0738906,21.0568,474.48,0.590769,0.0,0.0
622,155.25,45.0976,48.1823,159.1,99.1414,93.0717,0.0013242,0.0736905,21.0572,474.47,0.558376,0.0,0.0
624,155.75,44.8112,47.8817,154.55,99.1564,93.2502,0.0013297,0.073483,21.0574,474.44,0.54278,0.0,0.0
626,156.25,44.8977,47.792,155.034,99.1239,93.7938,0.00133051,0.0732645,21.0576,474.45,0.488519,0.0,0.0
628,156.75,45.045,48.1076,158.145,99.1158,93.5488,0.00133116,0.0730422,21.0578,474.42,0.510912,0.0,0.0
630,157.25,44.6235,47.0402,160.009,99.1016,92.8819,0.00132562,0.0728116,21.0579,474.43,0.572877,0.0,0.0
632,157.75,45.0497,47.9792,157.212,99.0947,92.5829,0.00132114,0.0725795,21.058,474.42,0.600757,0.0,0.0
634,158.25,44.6343,47.6727,163.694,99.0834,93.0482,0.00131751,0.0723915,21.0581,474.41,0.555438,0.0,0.0
636,158.75,44.8382,47.6837,154.762,99.0773,93.2531,0.00131214,0.0722119,21.0582,474.41,0.535459,0.0,0.0
638,159.25,45.1065,47.953,158.076,99.0631,93.4425,0.00130842,0.0720663,21.0583,474.42,0.516256,0.0,0.0
640,159.75,45.2661,47.8681,158.049,99.0639,93.4279,0.00130599,0.0718909,21.0583,474.41,0.51771,0.0,0.0
642,160.25,44.7425,47.7007,157.994,99.0383,93.1687,0.00130402,0.0716969,21.0583,474.43,0.539985,0.0,0.0
644,160.75,44.5335,47.6017,158.223,99.0367,93.202,0.00129879,0.0714606,21.0584,474.41,0.536685,0.0,0.0
646,161.25,44.7056,48.019,163.258,99.0201,92.7152,0.00129455,0.0711979,21.0584,474.42,0.581482,0.0,0.0
648,161.75,44.9846,47.7322,162.919,99.0168,93.7674,0.00129111,0.0709851,21.0584,474.4,0.481451,0.0,0.0
650,162.25,44.3113,47.1535,159.596,99.0002,93.5455,0.00126649,0.070758,21.0582,474.39,0.500905,0.0,0.0
652,162.75,45.0003,47.6457,158.823,99.0014,93.5658,0.00124655,0.0705741,21.0577,474.38,0.499098,0.0,0.0
654,163.25,44.8465,47.88,166.071,98.9836,93.5151,0.0012304,0.0703978,21.0574,474.38,0.502295,0.0,0.0
656,163.75,44.9013,47.504,158.973,98.9714,93.0389,0.00119791,0.070255,21.0575,474.39,0.546333,0.0,0.0
658,164.25,44.818,47.3957,157.535,98.9645,92.3854,0.0011716,0.0701393,21.0577,474.38,0.608014,0.0,0.0
660,164.75,44.8815,47.3836,153.557,98.9617,92.4649,0.00113817,0.0699636,21.0578,474.41,0.600158,0.0,0.0
662,165.25,43.9737,46.7769,169.661,98.9507,93.0652,0.00111109,0.0698213,21.0578,474.4,0.541981,0.0,0.0
664,165.75,44.1244,47.0501,159.062,98.93,93.2356,0.00109037,0.0696412,21.0579,474.38,0.523967,0.0,0.0
666,166.25,44.3303,47.4167,156.643,98.9317,92.1031,0.00107358,0.0694371,21.058,474.38,0.63213,0.0,0.0
668,166.75,44.0936,47.1805,159.809,98.9264,93.6583,0.00107089,0.0692718,21.0585,474.37,0.483665,0.0,0.0
670,167.25,44.4527,47.5566,160.306,98.9171,93.0287,0.00106871,0.0689602,21.0588,474.38,0.542441,0.0,0.0
672,167.75,45.0747,47.3989,158.379,98.9106,92.1931,0.00107301,0.0687079,21.0592,474.37,0.621609,0.0,0.0
674,168.25,44.5946,47.815,163.703,98.8943,92.2901,0.00107649,0.0684531,21.0594,474.36,0.610869,0.0,0.0
676,168.75,44.7775,47.814,159.179,98.8789,92.7205,0.00108416,0.0682015,21.0596,474.36,0.568371,0.0,0.0
678,169.25,44.5822,47.4667,156.636,98.8846,93.062,0.00109037,0.0679567,21.0598,474.34,0.536381,0.0,0.0
680,169.75,44.2938,47.2707,157.012,98.8668,92.6199,0.0010954,0.0677584,21.0599,474.34,0.576879,0.0,0.0
682,170.25,44.7651,47.1994,163.78,98.857,93.3435,0.00110676,0.0675432,21.0601,474.37,0.50722,0.0,0.0
684,170.75,44.6538,46.9934,162.331,98.8586,92.4913,0.00111595,0.0673689,21.0601,474.36,0.588431,0.0,0.0
686,171.25,43.7808,46.5223,157.027,98.8388,92.1582,0.00112276,0.0671594,21.0602,474.36,0.618536,0.0,0.0
688,171.75,43.6883,46.4003,161.799,98.8367,92.215,0.0011277,0.0669897,21.0603,474.35,0.61291,0.0,0.0
690,172.25,44.1879,46.977,155.591,98.8367,92.4836,0.00112724,0.0668522,21.0603,474.37,0.58721,0.0,0.0
692,172.75,44.6933,47.292,160.674,98.8258,92.6328,0.00112284,0.0665907,21.0608,474.37,0.571976,0.0,0.0
694,173.25,44.5509,47.1158,158.447,98.823,92.9221,,0.0663789,,474.34,0.544171,0.0,0.0
696,173.75,44.6679,47.6396,162.804,98.8039,92.7261,,0.0661283,,474.35,0.56112,0.0,0.0
698,174.25,44.667,47.1621,160.045,98.8128,92.3538,,0.0658542,,474.34,0.597484,0.0,0.0
700,174.75,44.4156,47.2915,160.325,98.7962,92.643,,0.065582,,474.34,0.56836,0.0,0.0
702,175.25,43.612,46.2398,163.159,98.797,92.7424,,0.0653162,,474.36,0.558956,0.0,0.0
704,175.75,44.0198,46.3832,157.415,98.7864,93.2912,,0.0651009,,474.36,0.505863,0.0,0.0
706,176.25,44.3784,47.0576,157.799,98.7917,92.5639,,,,474.36,0.57551,0.0,0.0
708,176.75,44.4845,46.6601,156.826,98.7763,92.7967,,,,474.36,0.551927,0.0,0.0
710,177.25,44.2489,47.0602,154.2,98.7856,92.2122,,,,474.37,0.60861,0.0,0.0
712,177.75,44.2973,46.7338,161.528,98.7654,92.4596,,,,474.36,0.583112,0.0,0.0
714,178.25,44.5113,46.3492,151.222,98.7848,92.6758,,,,474.35,0.56421,0.0,0.0
716,178.75,44.1332,47.3103,160.837,98.7589,92.0641,,,,474.33,0.620417,0.0,0.0
718,179.25,44.4453,46.458,161.07,98.754,92.8949,,,,474.34,0.540586,0.0,0.0
720,179.75,43.7461,46.8664,162.413,98.7471,92.2897,,,,474.34,0.59774,0.0,0.0
722,180.25,44.2074,46.4056,159.24,98.7678,92.8868,,,,474.34,0.542592,0.0,0.0
724,180.75,44.1434,46.6631,158.009,98.7362,92.5692,,,,474.34,0.570035,0.0,0.0
726,181.25,44.3049,46.4259,158.516,98.7499,92.8142,,,,474.33,0.547907,0.0,0.0
728,181.75,43.88,46.7631,156.989,98.728,92.2978,,,,474.34,0.595257,0.0,0.0
730,182.25,43.8879,46.6362,162.964,98.7398,91.8033,,,,474.32,0.643786,0.0,0.0
732,182.75,43.9374,47.0514,161.91,98.7215,91.6978,,,,474.33,0.652313,0.0,0.0
734,183.25,44.367,46.0481,158.314,98.7349,92.8568,,,,474.33,0.542508,0.0,0.0
736,183.75,44.2679,46.8097,158.612,98.724,92.1002,,,,474.32,0.61383,0.0,0.0