File: 01_Data/Triexta_Carpet_High_Pile/STA/N2/3K_min/Triexta_Carpet_High_Pile_STA_N2_3KData_220111_R1.csv
##Temp./Â°C,Time/min,Mass loss(subtr.2)/mg,DSC(subtr.2)/(mW/mg),Sensit./(uV/mW)
50.027,10.01667,0.0103,-0.002135582,1.06378
50.727,11.14658,0.01016296,0.02538261,1.06361
51.427,11.5404,0.01032059,0.03826829,1.06344
52.127,11.86138,0.009473105,0.04641906,1.06327
52.827,12.1546,0.01057497,0.05384506,1.0631
53.527,12.43487,0.01155792,0.05436996,1.06293
54.227,12.70721,0.01137854,0.0566288,1.06277
54.927,12.97332,0.01151782,0.05961498,1.0626
55.627,13.2355,0.01146122,0.06030713,1.06243
56.327,13.4943,0.01151339,0.06003577,1.06226
57.027,13.7485,0.01090278,0.06082845,1.06209
57.727,13.9986,0.00987026,0.06009225,1.06192
58.427,14.2476,0.01151927,0.06278478,1.06175
59.127,14.4965,0.01150599,0.06546347,1.06157
59.827,14.7429,0.01006058,0.06415438,1.0614
60.527,14.9879,0.01281009,0.06304277,1.06123
61.227,15.2308,0.01282966,0.06217142,1.06106
61.927,15.47294,0.0129723,0.06171057,1.06089
62.627,15.71384,0.01147009,0.06136568,1.06072
63.327,15.95405,0.01349005,0.06152809,1.06054
64.027,16.19375,0.01219059,0.06188486,1.06037
64.727,16.43282,0.01217994,0.06296287,1.0602
65.427,16.67132,0.01150736,0.06388098,1.06003
66.127,16.90752,0.01094976,0.06448836,1.05985
66.827,17.14193,0.01216999,0.06596654,1.05968
67.527,17.37613,0.01085996,0.06655708,1.05951
68.227,17.61126,0.01217047,0.06754277,1.05933
68.927,17.84798,0.01313785,0.06645135,1.05916
69.627,18.08374,0.01084773,0.06830821,1.05898
70.327,18.32145,0.01085731,0.06815156,1.05881
71.027,18.55876,0.01117987,0.06718261,1.05864
71.727,18.796,0.0125,0.06731644,1.05846
72.427,19.03153,0.01220877,0.06855047,1.05829
73.127,19.26665,0.01020006,0.0704937,1.05811
73.827,19.5017,0.01150719,0.07223306,1.05793
74.527,19.73637,0.01086005,0.07265348,1.05776
75.227,19.97103,0.01149407,0.07104702,1.05758
75.927,20.20525,0.01177033,0.07090512,1.05741
76.627,20.43892,0.0128346,0.07209363,1.05723
77.327,20.67245,0.0112208,0.0741258,1.05705
78.027,20.9059,0.01151996,0.07344267,1.05687
78.727,21.1397,0.01119408,0.07461878,1.0567
79.427,21.3737,0.009958276,0.07184205,1.05652
80.127,21.60833,0.009929515,0.07206827,1.05634
80.827,21.84383,0.01118993,0.07063092,1.05616
81.527,22.0787,0.0103042,0.07374011,1.05598
82.227,22.31315,0.01003396,0.07337361,1.05581
82.927,22.5476,0.01019653,0.0735827,1.05563
83.627,22.78252,0.01019264,0.07187294,1.05545
84.327,23.01738,0.01018999,0.07121911,1.05527
85.027,23.2512,0.01150975,0.07340027,1.05509
85.727,23.48477,0.01019299,0.07469138,1.05491
86.427,23.71796,0.01151998,0.0750411,1.05473
87.127,23.95113,0.009845598,0.07776738,1.05455
87.827,24.18446,0.01250344,0.07498467,1.05437
88.527,24.416,0.009882986,0.07544908,1.05418
89.227,24.64764,0.008326306,0.07614184,1.054
89.927,24.88066,0.00965,0.07552837,1.05382
90.627,25.1166,0.009650165,0.07511344,1.05364
91.327,25.35281,0.00970145,0.07490628,1.05346
92.027,25.58653,0.008656371,0.07380116,1.05327
92.727,25.81958,0.008754274,0.07505869,1.05309
93.427,26.0523,0.00933354,0.07542362,1.05291
94.127,26.28605,0.00798816,0.07505421,1.05272
94.827,26.5186,0.00865939,0.07782011,1.05254
95.527,26.75178,0.009933869,0.07830413,1.05236
96.227,26.98423,0.008623359,0.07663515,1.05217
96.927,27.2174,0.008659745,0.07548608,1.05199
97.627,27.45028,0.008657494,0.07560545,1.0518
98.327,27.6834,0.007348684,0.07868502,1.05162
99.027,27.91675,0.007350286,0.07796261,1.05143
99.727,28.1499,0.007340851,0.07977921,1.05125
100.427,28.38342,0.008661633,0.07797894,1.05106
101.127,28.61575,0.007349048,0.07996091,1.05087
101.827,28.8468,0.0073088,0.08039332,1.05069
102.527,29.0773,0.00628382,0.08217,1.0505
103.227,29.30823,0.00743239,0.08309623,1.05031
103.927,29.53942,0.006350243,0.08199784,1.05013
104.627,29.77115,0.0070876,0.08185392,1.04994
105.327,30.0033,0.0063312,0.08193943,1.04975
106.027,30.23595,0.00735,0.0817438,1.04956
106.727,30.46862,0.00635969,0.08092249,1.04937
107.427,30.70075,0.006370086,0.07889162,1.04918
108.127,30.93305,0.006359027,0.08082952,1.04899
108.827,31.16415,0.005700927,0.0811693,1.0488
109.527,31.3955,0.00503973,0.08200449,1.04861
110.227,31.6264,0.00504,0.08339051,1.04842
110.927,31.85748,0.006321809,0.08046363,1.04823
111.627,32.08905,0.005379195,0.08069186,1.04804
112.327,32.3202,0.005039846,0.08068796,1.04785
113.027,32.55056,0.003737083,0.08258161,1.04766
113.727,32.78168,0.003825495,0.08167252,1.04747
114.427,33.0133,0.00439,0.08229261,1.04727
115.127,33.2459,0.005115749,0.08274204,1.04708
115.827,33.4778,0.004371408,0.08216727,1.04689
116.527,33.70875,0.004362912,0.08358199,1.04669
117.227,33.94031,0.00339203,0.0832589,1.0465
117.927,34.1719,0.003059987,0.08456294,1.04631
118.627,34.40384,0.003060321,0.0872372,1.04611
119.327,34.6338,0.00306058,0.08671098,1.04592
120.027,34.8623,0.002408557,0.08550582,1.04572
120.727,35.09268,0.002084014,0.08807314,1.04553
121.427,35.32461,0.0007278876,0.08838057,1.04533
122.127,35.55704,0.00142056,0.08940292,1.04513
122.827,35.78818,0.001808645,0.0897045,1.04494
123.527,36.01896,0.00172634,0.09162332,1.04474
124.227,36.25012,0.0007600005,0.08917484,1.04454
124.927,36.48088,0.002072926,0.09123625,1.04435
125.627,36.71165,0.001792652,0.09131153,1.04415
126.327,36.94018,-0.0008447123,0.09274979,1.04395
127.027,37.16904,0.0004399747,0.09178797,1.04375
127.727,37.39865,0.0004342451,0.09319941,1.04355
128.427,37.63142,-0.0005504001,0.09390814,1.04335
129.127,37.8639,0.0002636733,0.09382129,1.04315
129.827,38.09446,-0.000828135,0.09426501,1.04295
130.527,38.3239,-0.002190005,0.09222676,1.04275
131.227,38.55277,-0.00318003,0.09355676,1.04255
131.927,38.78298,-0.002199912,0.09570803,1.04235
132.627,39.0133,-0.00219999,0.09412242,1.04215
133.327,39.24293,-0.003607526,0.09573159,1.04195
134.027,39.47233,-0.003155008,0.0959836,1.04174
134.727,39.70132,-0.002859902,0.09651768,1.04154
135.427,39.93172,-0.00284867,0.0984798,1.04134
136.127,40.16178,-0.002832925,0.0983549,1.04113
136.827,40.39225,-0.002926,0.10145,1.04093
137.527,40.62175,-0.004172019,0.10027,1.04073
138.227,40.85152,-0.00375245,0.10088,1.04052
138.927,41.0807,-0.003509992,0.10112,1.04032
139.627,41.31043,-0.003828093,0.10322,1.04011
140.327,41.54,-0.004248274,0.10147,1.0399
141.027,41.7699,-0.004169976,0.10018,1.0397
141.727,42.00013,-0.00483,0.10235,1.03949
142.427,42.23063,-0.004829542,0.10071,1.03929
143.127,42.46069,-0.00515993,0.09985178,1.03908
143.827,42.69207,-0.00516,0.10033,1.03887
144.527,42.92323,-0.00470468,0.10099,1.03866
145.227,43.15333,-0.006479996,0.10102,1.03845
145.927,43.38198,-0.004543867,0.1016,1.03824
146.627,43.61029,-0.00516012,0.10344,1.03804
147.327,43.84001,-0.006487921,0.10519,1.03783
148.027,44.0687,-0.00572092,0.10518,1.03762
148.727,44.2975,-0.006480208,0.1058,1.0374
149.427,44.52579,-0.00650535,0.10668,1.03719
150.127,44.75455,-0.00708276,0.10649,1.03698
150.827,44.98267,-0.00812008,0.10784,1.03677
151.527,45.21136,-0.007459999,0.10815,1.03656
152.227,45.44021,-0.007792512,0.10917,1.03635
152.927,45.66907,-0.009109606,0.10865,1.03613
153.627,45.89593,-0.008540996,0.10904,1.03592
154.327,46.12258,-0.009109965,0.11164,1.03571
155.027,46.3496,-0.00877992,0.11388,1.03549
155.727,46.57805,-0.009777905,0.11237,1.03528
156.427,46.8081,-0.009771145,0.11261,1.03506
157.127,47.0394,-0.01066389,0.11532,1.03485
157.827,47.27175,-0.008560009,0.1152,1.03463
158.527,47.50253,-0.009879868,0.11403,1.03441
159.227,47.73171,-0.008890097,0.11806,1.0342
159.927,47.95928,-0.009884231,0.11848,1.03398
160.627,48.1875,-0.009742775,0.12042,1.03376
161.327,48.4152,-0.01253275,0.12124,1.03354
162.027,48.64399,-0.01141198,0.1241,1.03332
162.727,48.87285,-0.01272986,0.12281,1.0331
163.427,49.10318,-0.01339174,0.1274,1.03289
164.127,49.33352,-0.01108911,0.12539,1.03267
164.827,49.564,-0.01376259,0.12671,1.03244
165.527,49.79305,-0.01379337,0.12713,1.03222
166.227,50.0216,-0.01421273,0.12915,1.032
166.927,50.24917,-0.01498485,0.13355,1.03178
167.627,50.47739,-0.01469999,0.13417,1.03156
168.327,50.7057,-0.01469296,0.13607,1.03134
169.027,50.93464,-0.01634,0.13795,1.03111
169.727,51.16268,-0.01633999,0.1343,1.03089
170.427,51.3911,-0.01569009,0.1334,1.03067
171.127,51.61955,-0.01675856,0.13239,1.03044
171.827,51.84895,-0.01667672,0.13158,1.03022
172.527,52.07778,-0.01798999,0.13031,1.02999
173.227,52.3065,-0.01846251,0.13175,1.02977
173.927,52.53447,-0.01869439,0.13126,1.02954
174.627,52.7627,-0.01865043,0.13115,1.02931
175.327,52.99145,-0.02088215,0.13127,1.02908
176.027,53.22045,-0.01964054,0.13324,1.02886
176.727,53.4505,-0.02063,0.13416,1.02863
177.427,53.6802,-0.02063053,0.1321,1.0284
178.127,53.91035,-0.02125665,0.13137,1.02817
178.827,54.13921,-0.0212898,0.13159,1.02794
179.527,54.36792,-0.0213086,0.13303,1.02771
180.227,54.59626,-0.02260061,0.13243,1.02748
180.927,54.825,-0.02256371,0.13456,1.02725
181.627,55.0527,-0.02391175,0.13632,1.02702
182.327,55.28031,-0.02390994,0.1379,1.02679
183.027,55.50724,-0.02413483,0.13889,1.02655
183.727,55.73539,-0.02425517,0.14049,1.02632
184.427,55.96284,-0.02491651,0.14199,1.02609
185.127,56.1904,-0.02560813,0.14324,1.02585
185.827,56.41795,-0.02551709,0.14369,1.02562
186.527,56.6465,-0.0268758,0.14364,1.02538
187.227,56.87519,-0.02819002,0.14627,1.02515
187.927,57.104,-0.02947628,0.14794,1.02491
188.627,57.33226,-0.02885,0.14764,1.02468
189.327,57.5605,-0.03149794,0.15066,1.02444
190.027,57.7886,-0.03052454,0.1512,1.0242
190.727,58.01784,-0.03280035,0.15235,1.02396
191.427,58.24801,-0.03171666,0.15127,1.02372
192.127,58.47832,-0.03354163,0.15284,1.02349
192.827,58.70816,-0.03487204,0.15314,1.02325
193.527,58.93675,-0.03486165,0.15463,1.02301
194.227,59.1647,-0.03608939,0.15828,1.02277
194.927,59.3919,-0.03661267,0.16018,1.02252
195.627,59.61942,-0.03739989,0.16184,1.02228
196.327,59.84709,-0.03806177,0.16549,1.02204
197.027,60.07521,-0.03924671,0.1648,1.0218
197.727,60.30359,-0.04052857,0.16699,1.02156
198.427,60.5315,-0.04068992,0.16831,1.02131
199.127,60.75909,-0.04136337,0.17329,1.02107
199.827,60.98636,-0.04266641,0.17603,1.02082
200.527,61.21386,-0.04398981,0.17562,1.02058
201.227,61.4411,-0.04529996,0.18068,1.02033
201.927,61.66919,-0.04670841,0.18294,1.02009
202.627,61.8972,-0.04794002,0.18582,1.01984
203.327,62.1251,-0.04893046,0.18643,1.01959
204.027,62.35266,-0.05028274,0.18953,1.01934
204.727,62.58048,-0.05123487,0.19167,1.0191
205.427,62.80803,-0.05157845,0.19496,1.01885
206.127,63.0349,-0.05418611,0.19875,1.0186
206.827,63.26171,-0.05550569,0.2017,1.01835
207.527,63.48891,-0.0542204,0.20668,1.0181
208.227,63.7164,-0.05681998,0.20854,1.01785
208.927,63.94452,-0.05812951,0.21308,1.01759
209.627,64.17228,-0.0594501,0.21948,1.01734
210.327,64.40026,-0.06110045,0.22411,1.01709
211.027,64.628,-0.0617251,0.22996,1.01684
211.727,64.85539,-0.06309746,0.23718,1.01658
212.427,65.08242,-0.06577231,0.24544,1.01633
213.127,65.30919,-0.06713003,0.25374,1.01607
213.827,65.53655,-0.06855983,0.2652,1.01582
214.527,65.76443,-0.07118848,0.27622,1.01556
215.227,65.99277,-0.07120142,0.28798,1.01531
215.927,66.2205,-0.07255832,0.29606,1.01505
216.627,66.44859,-0.07376185,0.3039,1.01479
217.327,66.67581,-0.07774259,0.3057,1.01453
218.027,66.90416,-0.07911,0.3105,1.01427
218.727,67.13223,-0.08270003,0.31629,1.01401
219.427,67.36109,-0.08404846,0.32045,1.01375
220.127,67.59029,-0.08781445,0.32827,1.01349
220.827,67.81956,-0.08830062,0.33511,1.01323
221.527,68.04858,-0.09095651,0.34641,1.01297
222.227,68.277,-0.0933863,0.35645,1.01271
222.927,68.50569,-0.09768337,0.37035,1.01245
223.627,68.73301,-0.0994738,0.38528,1.01218
224.327,68.9603,-0.10131,0.40757,1.01192
225.027,69.18764,-0.10542,0.43338,1.01165
225.727,69.418,-0.10802,0.4543,1.01139
226.427,69.648,-0.10968,0.4639,1.01112
227.127,69.87739,-0.11493,0.46456,1.01086
227.827,70.10476,-0.11673,0.46625,1.01059
228.527,70.33176,-0.12152,0.46305,1.01032
229.227,70.5587,-0.12544,0.46099,1.01005
229.927,70.7861,-0.12728,0.45799,1.00979
230.627,71.014,-0.13163,0.45885,1.00952
231.327,71.24172,-0.13588,0.46161,1.00925
232.027,71.4694,-0.13997,0.46372,1.00898
232.727,71.6974,-0.14527,0.46624,1.00871
233.427,71.92486,-0.14905,0.46999,1.00843
234.127,72.15204,-0.15267,0.47287,1.00816
234.827,72.37949,-0.1571,0.4788,1.00789
235.527,72.60769,-0.16241,0.48094,1.00762
236.227,72.83609,-0.16635,0.48425,1.00734
236.927,73.0642,-0.17157,0.48626,1.00707
237.627,73.29228,-0.17771,0.48681,1.00679
238.327,73.5199,-0.18167,0.49125,1.00652
239.027,73.74632,-0.18567,0.49045,1.00624
239.727,73.97292,-0.18937,0.49219,1.00596
240.427,74.19901,-0.19428,0.49115,1.00569
241.127,74.42636,-0.1983,0.48956,1.00541
241.827,74.65245,-0.20413,0.487,1.00513
242.527,74.87975,-0.2084,0.47767,1.00485
243.227,75.1066,-0.21253,0.46877,1.00457
243.927,75.33475,-0.21894,0.45678,1.00429
244.627,75.5625,-0.22287,0.4425,1.00401
245.327,75.78975,-0.22694,0.42505,1.00372
246.027,76.01653,-0.23232,0.40471,1.00344
246.727,76.24367,-0.23212,0.38366,1.00316
247.427,76.4709,-0.23474,0.36367,1.00287
248.127,76.697,-0.23869,0.34519,1.00259
248.827,76.92267,-0.24262,0.3273,1.00231
249.527,77.14833,-0.24331,0.30352,1.00202
250.227,77.3745,-0.24522,0.2719,1.00173
250.927,77.59994,-0.24658,0.24784,1.00145
251.627,77.82644,-0.2479,0.2262,1.00116
252.327,78.0539,-0.24921,0.20915,1.00087
253.027,78.28166,-0.25047,0.19678,1.00058
253.727,78.50828,-0.25324,0.18451,1.00029
254.427,78.73447,-0.25223,0.17745,1.0
255.127,78.961,-0.25448,0.17033,0.99971
255.827,79.1878,-0.25457,0.16249,0.99942
256.527,79.41458,-0.25514,0.15668,0.99913
257.227,79.6408,-0.25579,0.15389,0.99883
257.927,79.8682,-0.25673,0.14885,0.99854
258.627,80.09501,-0.25678,0.14335,0.99825
259.327,80.3233,-0.25668,0.14081,0.99795
260.027,80.5501,-0.25909,0.14138,0.99766
260.727,80.77716,-0.26036,0.13863,0.99736
261.427,81.00326,-0.26142,0.13778,0.99706
262.127,81.22973,-0.2604,0.13712,0.99677
262.827,81.45653,-0.2617,0.13355,0.99647
263.527,81.68372,-0.26303,0.12925,0.99617
264.227,81.9112,-0.26312,0.13074,0.99587
264.927,82.13894,-0.26303,0.12954,0.99557
265.627,82.36668,-0.26303,0.12573,0.99527
266.327,82.59361,-0.265,0.12664,0.99497
267.027,82.8214,-0.26467,0.12575,0.99467
267.727,83.0488,-0.2657,0.12547,0.99436
268.427,83.27678,-0.26739,0.12468,0.99406
269.127,83.50371,-0.26731,0.12465,0.99376
269.827,83.73092,-0.26862,0.12484,0.99345
270.527,83.958,-0.26758,0.12364,0.99315
271.227,84.18505,-0.26862,0.12384,0.99284
271.927,84.4123,-0.27055,0.12296,0.99253
272.627,84.63996,-0.26994,0.12296,0.99223
273.327,84.8677,-0.26994,0.11989,0.99192
274.027,85.09523,-0.27225,0.12244,0.99161
274.727,85.32288,-0.27092,0.12219,0.9913
275.427,85.55056,-0.27225,0.11998,0.99099
276.127,85.77762,-0.2723,0.12325,0.99068
276.827,86.00443,-0.27351,0.12442,0.99037
277.527,86.23161,-0.27473,0.12394,0.99006
278.227,86.4599,-0.27477,0.1235,0.98974
278.927,86.68862,-0.27466,0.12226,0.98943
279.627,86.91731,-0.27729,0.12252,0.98912
280.327,87.14483,-0.27711,0.12387,0.9888
281.027,87.37233,-0.27825,0.12336,0.98849
281.727,87.60033,-0.27861,0.12203,0.98817
282.427,87.82927,-0.27966,0.12231,0.98785
283.127,88.05874,-0.27715,0.12299,0.98754
283.827,88.28608,-0.27993,0.12056,0.98722
284.527,88.51387,-0.27992,0.12225,0.9869
285.227,88.7411,-0.28123,0.12343,0.98658
285.927,88.96992,-0.27997,0.12381,0.98626
286.627,89.19792,-0.28025,0.12424,0.98594
287.327,89.42564,-0.28223,0.12227,0.98562
288.027,89.65345,-0.28224,0.12155,0.98529
288.727,89.88158,-0.28223,0.12509,0.98497
289.427,90.10975,-0.28227,0.12406,0.98465
290.127,90.33774,-0.28423,0.12253,0.98432
290.827,90.5648,-0.28459,0.127,0.984
291.527,90.792,-0.28596,0.12569,0.98367
292.227,91.019,-0.28663,0.12829,0.98334
292.927,91.24681,-0.2876,0.12702,0.98302
293.627,91.4747,-0.28858,0.12621,0.98269
294.327,91.70291,-0.28989,0.12522,0.98236
295.027,91.93027,-0.28991,0.12494,0.98203
295.727,92.15716,-0.29089,0.12352,0.9817
296.427,92.38503,-0.29089,0.12694,0.98137
297.127,92.6143,-0.29155,0.12593,0.98104
297.827,92.84415,-0.29151,0.12481,0.9807
298.527,93.0728,-0.29286,0.12511,0.98037
299.227,93.30085,-0.29484,0.12436,0.98004
299.927,93.52877,-0.29484,0.12616,0.9797
300.627,93.75627,-0.29636,0.1263,0.97937
301.327,93.98456,-0.29555,0.12759,0.97903
302.027,94.21259,-0.29814,0.12866,0.97869
302.727,94.4412,-0.29847,0.12578,0.97836
303.427,94.6687,-0.2978,0.12467,0.97802
304.127,94.8955,-0.30011,0.12727,0.97768
304.827,95.12145,-0.30019,0.12632,0.97734
305.527,95.34774,-0.29977,0.12618,0.977
306.227,95.57514,-0.29972,0.12712,0.97666
306.927,95.80328,-0.30109,0.13002,0.97632
307.627,96.0315,-0.30241,0.12976,0.97597
308.327,96.26013,-0.30394,0.12783,0.97563
309.027,96.48942,-0.30449,0.12654,0.97529
309.727,96.71889,-0.30538,0.12759,0.97494
310.427,96.94834,-0.3057,0.12797,0.97459
311.127,97.17798,-0.30833,0.12954,0.97425
311.827,97.4076,-0.308,0.12834,0.9739
312.527,97.63709,-0.30866,0.12527,0.97355
313.227,97.86673,-0.3113,0.12664,0.9732
313.927,98.0968,-0.31097,0.12615,0.97286
314.627,98.32698,-0.31425,0.1279,0.97251
315.327,98.55574,-0.31425,0.13165,0.97215
316.027,98.78395,-0.31294,0.12996,0.9718
316.727,99.01146,-0.31543,0.12914,0.97145
317.427,99.23993,-0.31748,0.13031,0.9711
318.127,99.468,-0.31885,0.13188,0.97074
318.827,99.69539,-0.32018,0.13087,0.97039
319.527,99.92277,-0.32096,0.13099,0.97003
320.227,100.15,-0.32116,0.13096,0.96968
320.927,100.379,-0.32383,0.13154,0.96932
321.627,100.608,-0.32493,0.12903,0.96896
322.327,100.836,-0.32507,0.12826,0.9686
323.027,101.065,-0.32643,0.12707,0.96825
323.727,101.293,-0.32774,0.12926,0.96789
324.427,101.522,-0.33038,0.12835,0.96752
325.127,101.75,-0.33235,0.1298,0.96716
325.827,101.979,-0.3337,0.12844,0.9668
326.527,102.207,-0.3337,0.12973,0.96644
327.227,102.4354,-0.33765,0.12956,0.96607
327.927,102.665,-0.33794,0.12907,0.96571
328.627,102.894,-0.33916,0.13142,0.96534
329.327,103.125,-0.34333,0.1314,0.96498
330.027,103.3564,-0.34443,0.13182,0.96461
330.727,103.588,-0.34562,0.13109,0.96424
331.427,103.817,-0.34847,0.13179,0.96388
332.127,104.045,-0.34979,0.1351,0.96351
332.827,104.275,-0.35378,0.13528,0.96314
333.527,104.506,-0.35377,0.13658,0.96277
334.227,104.736,-0.35775,0.13835,0.96239
334.927,104.965,-0.36088,0.13668,0.96202
335.627,105.193,-0.36345,0.13832,0.96165
336.327,105.421,-0.36522,0.14033,0.96128
337.027,105.65,-0.36921,0.13869,0.9609
337.727,105.878,-0.37217,0.14011,0.96053
338.427,106.107,-0.37367,0.13767,0.96015
339.127,106.336,-0.37886,0.13567,0.95977
339.827,106.565,-0.38269,0.13668,0.9594
340.527,106.795,-0.38603,0.13721,0.95902
341.227,107.025,-0.39073,0.13834,0.95864
341.927,107.254,-0.39316,0.13949,0.95826
342.627,107.482,-0.39916,0.14018,0.95788
343.327,107.712,-0.40232,0.14222,0.9575
344.027,107.941,-0.40767,0.14367,0.95711
344.727,108.171,-0.41293,0.14397,0.95673
345.427,108.4011,-0.41867,0.1462,0.95635
346.127,108.63,-0.42441,0.14376,0.95596
346.827,108.8597,-0.42896,0.14628,0.95558
347.527,109.089,-0.43455,0.15182,0.95519
348.227,109.318,-0.44213,0.14956,0.9548
348.927,109.547,-0.44677,0.15186,0.95441
349.627,109.777,-0.45431,0.15373,0.95403
350.327,110.005,-0.4626,0.15579,0.95364
351.027,110.235,-0.46928,0.15714,0.95325
351.727,110.464,-0.47763,0.15508,0.95285
352.427,110.695,-0.48379,0.15861,0.95246
353.127,110.925,-0.49199,0.15995,0.95207
353.827,111.155,-0.5006,0.16325,0.95168
354.527,111.385,-0.51129,0.16422,0.95128
355.227,111.616,-0.51972,0.16606,0.95089
355.927,111.846,-0.5313,0.16545,0.95049
356.627,112.077,-0.5404,0.17156,0.95009
357.327,112.305,-0.55107,0.17321,0.9497
358.027,112.535,-0.56245,0.17761,0.9493
358.727,112.765,-0.57496,0.17633,0.9489
359.427,112.994,-0.5863,0.18304,0.9485
360.127,113.222,-0.59896,0.18132,0.9481
360.827,113.45,-0.61152,0.18717,0.9477
361.527,113.681,-0.62511,0.19075,0.94729
362.227,113.913,-0.63847,0.19104,0.94689
362.927,114.143,-0.65396,0.19626,0.94649
363.627,114.374,-0.67045,0.19754,0.94608
364.327,114.603,-0.6859,0.20159,0.94568
365.027,114.833,-0.70197,0.20374,0.94527
365.727,115.062,-0.71886,0.20863,0.94486
366.427,115.291,-0.73534,0.21282,0.94446
367.127,115.521,-0.75241,0.21629,0.94405
367.827,115.75,-0.77296,0.21707,0.94364
368.527,115.981,-0.78981,0.22162,0.94323
369.227,116.211,-0.80956,0.2225,0.94282
369.927,116.442,-0.83005,0.22689,0.9424
370.627,116.673,-0.84941,0.23253,0.94199
371.327,116.904,-0.87175,0.23299,0.94158
372.027,117.135,-0.89398,0.23637,0.94116
372.727,117.365,-0.91676,0.23997,0.94075
373.427,117.596,-0.94101,0.24145,0.94033
374.127,117.825,-0.96277,0.24388,0.93991
374.827,118.055,-0.98825,0.24475,0.9395
375.527,118.2844,-1.01143,0.24936,0.93908
376.227,118.514,-1.03593,0.25313,0.93866
376.927,118.744,-1.06032,0.25603,0.93824
377.627,118.974,-1.08631,0.25541,0.93782
378.327,119.204,-1.11191,0.25705,0.93739
379.027,119.4342,-1.13973,0.2597,0.93697
379.727,119.6641,-1.16521,0.26157,0.93655
380.427,119.894,-1.19162,0.26106,0.93612
381.127,120.125,-1.22057,0.26256,0.9357
381.827,120.355,-1.24709,0.26196,0.93527
382.527,120.585,-1.27364,0.26013,0.93485
383.227,120.815,-1.30058,0.25948,0.93442
383.927,121.045,-1.32904,0.25782,0.93399
384.627,121.276,-1.35645,0.2572,0.93356
385.327,121.507,-1.38472,0.25234,0.93313
386.027,121.738,-1.41257,0.24996,0.9327
386.727,121.968,-1.43947,0.25087,0.93227
387.427,122.198,-1.4681,0.24572,0.93183
388.127,122.426,-1.49524,0.24389,0.9314
388.827,122.655,-1.52082,0.23729,0.93097
389.527,122.885,-1.54566,0.23242,0.93053
390.227,123.117,-1.57314,0.22513,0.9301
390.927,123.348,-1.59838,0.22227,0.92966
391.627,123.578,-1.62526,0.21502,0.92922
392.327,123.809,-1.64815,0.21276,0.92878
393.027,124.039,-1.67386,0.21114,0.92834
393.727,124.27,-1.69517,0.20396,0.9279
394.427,124.502,-1.71791,0.20427,0.92746
395.127,124.733,-1.73937,0.19833,0.92702
395.827,124.9643,-1.76159,0.19467,0.92658
396.527,125.196,-1.78356,0.18995,0.92613
397.227,125.428,-1.80251,0.18474,0.92569
397.927,125.659,-1.82173,0.18359,0.92525
398.627,125.8877,-1.84101,0.18072,0.9248
399.327,126.1162,-1.85839,0.17873,0.92435
400.027,126.345,-1.87855,0.17389,0.9239
400.727,126.575,-1.89355,0.16874,0.92346
401.427,126.805,-1.91365,0.16684,0.92301
402.127,127.035,-1.9277,0.16447,0.92256
402.827,127.267,-1.94341,0.16527,0.92211
403.527,127.498,-1.96055,0.16089,0.92165
404.227,127.731,-1.97518,0.15772,0.9212
404.927,127.963,-1.98954,0.15632,0.92075
405.627,128.194,-2.00304,0.15394,0.92029
406.327,128.424,-2.01817,0.15343,0.91984
407.027,128.655,-2.03005,0.1511,0.91938
407.727,128.886,-2.04534,0.15113,0.91893
408.427,129.117,-2.05743,0.1496,0.91847
409.127,129.348,-2.06744,0.14782,0.91801
409.827,129.58,-2.08047,0.14801,0.91755
410.527,129.811,-2.092,0.14429,0.91709
411.227,130.0419,-2.10386,0.1434,0.91663
411.927,130.274,-2.11362,0.14676,0.91617
412.627,130.505,-2.12312,0.14404,0.9157
413.327,130.736,-2.13241,0.14182,0.91524
414.027,130.969,-2.14304,0.14076,0.91478
414.727,131.201,-2.15149,0.13757,0.91431
415.427,131.432,-2.16027,0.13754,0.91384
416.127,131.663,-2.16961,0.13366,0.91338
416.827,131.894,-2.17655,0.13066,0.91291
417.527,132.1248,-2.18467,0.12858,0.91244
418.227,132.3565,-2.19334,0.12741,0.91197
418.927,132.587,-2.20152,0.12685,0.9115
419.627,132.819,-2.20875,0.12527,0.91103
420.327,133.05,-2.21588,0.12329,0.91056
421.027,133.281,-2.22193,0.12029,0.91008
421.727,133.512,-2.23003,0.1203,0.90961
422.427,133.744,-2.23763,0.12013,0.90914
423.127,133.9754,-2.24607,0.1183,0.90866
423.827,134.207,-2.2515,0.11678,0.90818
424.527,134.4383,-2.25979,0.11742,0.90771
425.227,134.669,-2.26791,0.11679,0.90723
425.927,134.9,-2.27468,0.11817,0.90675
426.627,135.131,-2.28139,0.11567,0.90627
427.327,135.363,-2.28937,0.11906,0.90579
428.027,135.5945,-2.29677,0.11582,0.90531
428.727,135.827,-2.30363,0.11469,0.90483
429.427,136.059,-2.31154,0.11541,0.90434
430.127,136.292,-2.31735,0.11276,0.90386
430.827,136.524,-2.32629,0.11261,0.90338
431.527,136.756,-2.33163,0.10936,0.90289
432.227,136.987,-2.3394,0.11177,0.9024
432.927,137.218,-2.34789,0.10833,0.90192
433.627,137.449,-2.35241,0.11128,0.90143
434.327,137.681,-2.35948,0.1081,0.90094
435.027,137.911,-2.36578,0.1118,0.90045
435.727,138.143,-2.37259,0.11147,0.89996
436.427,138.374,-2.37861,0.1071,0.89947
437.127,138.607,-2.3837,0.10656,0.89897
437.827,138.839,-2.38965,0.10279,0.89848
438.527,139.072,-2.39555,0.10178,0.89799
439.227,139.305,-2.39881,0.09840651,0.89749
439.927,139.536,-2.40311,0.09744345,0.897
440.627,139.768,-2.40773,0.09439578,0.8965
441.327,139.999,-2.41164,0.09445083,0.896
442.027,140.23,-2.41634,0.0922785,0.8955
442.727,140.461,-2.41892,0.08993313,0.895
443.427,140.693,-2.42419,0.08587729,0.8945
444.127,140.926,-2.42676,0.0825949,0.894
444.827,141.16,-2.43107,0.07927704,0.8935
445.527,141.393,-2.43207,0.07668191,0.893
446.227,141.625,-2.43687,0.07604083,0.8925
446.927,141.856,-2.43861,0.07218022,0.89199
447.627,142.087,-2.4414,0.07004161,0.89149
448.327,142.3179,-2.44401,0.06894537,0.89098
449.027,142.549,-2.44436,0.06805874,0.89047
449.727,142.781,-2.44684,0.06386771,0.88997
450.427,143.012,-2.44831,0.05933698,0.88946
451.127,143.244,-2.44926,0.05807507,0.88895
451.827,143.475,-2.45046,0.05713877,0.88844
452.527,143.7064,-2.45229,0.05567469,0.88793
453.227,143.9379,-2.45386,0.05797744,0.88742
453.927,144.17,-2.45352,0.05397435,0.8869
454.627,144.402,-2.45555,0.05342503,0.88639
455.327,144.633,-2.45621,0.05385314,0.88587
456.027,144.865,-2.45752,0.05677599,0.88536
456.727,145.096,-2.45884,0.06110124,0.88484
457.427,145.328,-2.46013,0.05852929,0.88433
458.127,145.559,-2.46147,0.05710455,0.88381
458.827,145.792,-2.46279,0.05703313,0.88329
459.527,146.0245,-2.46416,0.06048431,0.88277
460.227,146.2564,-2.46576,0.06402605,0.88225
460.927,146.488,-2.46707,0.06888927,0.88173
461.627,146.72,-2.46754,0.06939471,0.88121
462.327,146.9527,-2.46908,0.071711,0.88068
463.027,147.186,-2.46937,0.07280659,0.88016
463.727,147.418,-2.46975,0.07228657,0.87964
464.427,147.65,-2.47036,0.07149074,0.87911
465.127,147.882,-2.47038,0.0737974,0.87858
465.827,148.115,-2.4702,0.07393415,0.87806
466.527,148.3471,-2.47332,0.07287224,0.87753
467.227,148.579,-2.475,0.07203766,0.877
467.927,148.812,-2.47534,0.07115612,0.87647
468.627,149.046,-2.47731,0.07279215,0.87594
469.327,149.279,-2.47595,0.07182518,0.87541
470.027,149.511,-2.47797,0.06836375,0.87488
470.727,149.742,-2.47891,0.07375778,0.87434
471.427,149.974,-2.4799,0.06928128,0.87381
472.127,150.205,-2.48012,0.06950081,0.87328
472.827,150.437,-2.48195,0.06664234,0.87274
473.527,150.669,-2.48275,0.06734085,0.8722
474.227,150.902,-2.48242,0.06709767,0.87167
474.927,151.1347,-2.48313,0.06857438,0.87113
475.627,151.368,-2.48571,0.06500996,0.87059
476.327,151.601,-2.48572,0.06737965,0.87005
477.027,151.833,-2.48571,0.06814369,0.86951
477.727,152.066,-2.48868,0.06450775,0.86897
478.427,152.298,-2.48799,0.06674554,0.86843
479.127,152.531,-2.48884,0.06416874,0.86788
479.827,152.763,-2.49032,0.06507414,0.86734
480.527,152.996,-2.49033,0.06383793,0.86679
481.227,153.227,-2.4906,0.06523435,0.86625
481.927,153.46,-2.49196,0.06420725,0.8657
482.627,153.692,-2.49359,0.06325513,0.86516
483.327,153.925,-2.49356,0.064662,0.86461
484.027,154.156,-2.49614,0.06282317,0.86406
484.727,154.389,-2.49494,0.05882823,0.86351
485.427,154.622,-2.49624,0.06224691,0.86296
486.127,154.856,-2.49801,0.05967254,0.86241
486.827,155.089,-2.49887,0.05533832,0.86185
487.527,155.322,-2.49954,0.05820621,0.8613
488.227,155.555,-2.50085,0.05906199,0.86075
488.927,155.789,-2.50282,0.06073377,0.86019
489.627,156.023,-2.50282,0.06036063,0.85964
490.327,156.257,-2.50414,0.05958299,0.85908
491.027,156.491,-2.50545,0.05714892,0.85852
491.727,156.725,-2.50547,0.05808298,0.85797
492.427,156.958,-2.5057,0.05804696,0.85741
493.127,157.19,-2.50875,0.05504111,0.85685
493.827,157.422,-2.50922,0.05864022,0.85629
494.527,157.655,-2.50899,0.0573267,0.85573
495.227,157.8862,-2.50954,0.0578711,0.85516
495.927,158.119,-2.5117,0.06168596,0.8546
496.627,158.351,-2.51171,0.06005186,0.85404
497.327,158.583,-2.51302,0.0581159,0.85347
498.027,158.8154,-2.51335,0.06004392,0.85291
498.727,159.047,-2.51422,0.06061227,0.85234
499.427,159.28,-2.51454,0.0613889,0.85177
500.127,159.512,-2.51599,0.06184755,0.8512
500.827,159.746,-2.51476,0.06311631,0.85064
501.527,159.98,-2.51688,0.06066702,0.85007
502.227,160.214,-2.51599,0.05979358,0.8495
502.927,160.4474,-2.51861,0.06275387,0.84892
503.627,160.681,-2.51977,0.06355163,0.84835
504.327,160.913,-2.52027,0.06237347,0.84778
505.027,161.146,-2.52158,0.06465162,0.84721
505.727,161.379,-2.52421,0.06350562,0.84663
506.427,161.613,-2.52462,0.06476088,0.84606
507.127,161.846,-2.52649,0.06226659,0.84548
507.827,162.078,-2.52522,0.06564787,0.8449
508.527,162.31,-2.52652,0.06533971,0.84433
509.227,162.543,-2.52816,0.06408026,0.84375
509.927,162.776,-2.52948,0.0650963,0.84317
510.627,163.01,-2.53088,0.06389237,0.84259
511.327,163.245,-2.53125,0.06356399,0.84201
512.027,163.481,-2.53095,0.06190093,0.84142
512.727,163.716,-2.53277,0.06282582,0.84084
513.427,163.951,-2.53408,0.0644791,0.84026
514.127,164.185,-2.5354,0.06562476,0.83967
514.827,164.418,-2.53677,0.0648695,0.83909
515.527,164.652,-2.53768,0.06758697,0.8385
516.227,164.885,-2.53858,0.06646556,0.83792
516.927,165.117,-2.53858,0.06715646,0.83733
517.627,165.3503,-2.54254,0.06832621,0.83674
518.327,165.584,-2.54387,0.06677387,0.83615
519.027,165.818,-2.54416,0.06976879,0.83556
519.727,166.052,-2.54549,0.06993574,0.83497
520.427,166.285,-2.54623,0.07010536,0.83438
521.127,166.519,-2.54681,0.07370273,0.83379
521.827,166.752,-2.54812,0.07052361,0.83319
522.527,166.986,-2.54942,0.07167502,0.8326
523.227,167.22,-2.55008,0.0722562,0.83201
523.927,167.4535,-2.55129,0.07189494,0.83141
524.627,167.6866,-2.55232,0.071368,0.83081
525.327,167.92,-2.55378,0.07336185,0.83022
526.027,168.153,-2.55503,0.07197687,0.82962
526.727,168.387,-2.55764,0.07425799,0.82902
527.427,168.62,-2.55734,0.07435784,0.82842
528.127,168.854,-2.55931,0.07446865,0.82782
528.827,169.088,-2.55964,0.07480335,0.82722
529.527,169.322,-2.56135,0.07730975,0.82662
530.227,169.556,-2.56328,0.07531469,0.82601
530.927,169.791,-2.56444,0.07756421,0.82541
531.627,170.025,-2.56489,0.07504792,0.82481
532.327,170.2581,-2.56485,0.0744642,0.8242
533.027,170.491,-2.56754,0.07482183,0.8236
533.727,170.724,-2.56888,0.07358165,0.82299
534.427,170.958,-2.57043,0.07447537,0.82238
535.127,171.193,-2.57252,0.07294776,0.82177
535.827,171.427,-2.57279,0.07401223,0.82117
536.527,171.662,-2.57512,0.07305732,0.82056
537.227,171.896,-2.57538,0.0701333,0.81995
537.927,172.129,-2.57709,0.06682276,0.81933
538.627,172.363,-2.57773,0.06685647,0.81872
539.327,172.5965,-2.58037,0.06822537,0.81811
540.027,172.829,-2.58169,0.06766274,0.8175
540.727,173.061,-2.58311,0.06411362,0.81688
541.427,173.295,-2.58565,0.06339091,0.81627
542.127,173.53,-2.58629,0.06496257,0.81565
542.827,173.765,-2.58762,0.06346918,0.81503
543.527,173.999,-2.58958,0.06321724,0.81442
544.227,174.234,-2.5909,0.06008126,0.8138
544.927,174.469,-2.59221,0.0611493,0.81318
545.627,174.705,-2.59593,0.06095917,0.81256
546.327,174.94,-2.59618,0.05807577,0.81194
547.027,175.174,-2.59715,0.05744424,0.81132
547.727,175.409,-2.59955,0.05889463,0.81069
548.427,175.643,-2.6011,0.05844727,0.81007
549.127,175.877,-2.6023,0.05693273,0.80945
549.827,176.11,-2.60488,0.05906359,0.80882
550.527,176.344,-2.60736,0.05754856,0.8082
551.227,176.578,-2.61102,0.05230202,0.80757
551.927,176.813,-2.6113,0.05396149,0.80695
552.627,177.049,-2.61393,0.05760019,0.80632
553.327,177.285,-2.61558,0.0581949,0.80569
554.027,177.521,-2.61687,0.05905075,0.80506
554.727,177.757,-2.62183,0.06050771,0.80443
555.427,177.992,-2.6217,0.0587605,0.8038
556.127,178.226,-2.62694,0.06319926,0.80317
556.827,178.46,-2.62924,0.06636868,0.80254
557.527,178.695,-2.63239,0.06932284,0.8019
558.227,178.93,-2.63598,0.06768616,0.80127
558.927,179.1652,-2.63952,0.06695253,0.80064
559.627,179.4,-2.64421,0.0679203,0.8
560.327,179.635,-2.64817,0.0648364,0.79937
561.027,179.87,-2.65212,0.06346616,0.79873
561.727,180.104,-2.65746,0.06210969,0.79809
562.427,180.336,-2.66024,0.05775881,0.79745
563.127,180.5685,-2.66539,0.05640682,0.79682
563.827,180.801,-2.67067,0.05631465,0.79618
564.527,181.034,-2.6736,0.05141586,0.79554
565.227,181.267,-2.67756,0.05259295,0.7949
565.927,181.502,-2.68283,0.05130053,0.79425
566.627,181.737,-2.68639,0.04668087,0.79361
567.327,181.972,-2.69186,0.04813032,0.79297
568.027,182.207,-2.69663,0.05134836,0.79232
568.727,182.442,-2.70208,0.04787344,0.79168
569.427,182.677,-2.70657,0.04199622,0.79103
570.127,182.913,-2.71166,0.04337687,0.79039
570.827,183.1482,-2.71741,0.04344586,0.78974
571.527,183.383,-2.72268,0.04148915,0.78909
572.227,183.617,-2.72691,0.04129938,0.78845
572.927,183.851,-2.73095,0.0416788,0.7878
573.627,184.085,-2.73698,0.03657301,0.78715
574.327,184.319,-2.74229,0.03483144,0.7865
575.027,184.5533,-2.74669,0.03260239,0.78585
575.727,184.787,-2.75139,0.0293825,0.78519
576.427,185.022,-2.75677,0.02726336,0.78454
577.127,185.256,-2.76062,0.02683391,0.78389
577.827,185.49,-2.76396,0.02745091,0.78323
578.527,185.722,-2.76778,0.02378829,0.78258
579.227,185.956,-2.77167,0.02314604,0.78192
579.927,186.193,-2.77402,0.02367703,0.78127
580.627,186.4299,-2.7767,0.02134091,0.78061
581.327,186.667,-2.77802,0.02887904,0.77995
582.027,186.901,-2.78197,0.03018311,0.77929
582.727,187.136,-2.78326,0.0396879,0.77864
583.427,187.37,-2.78349,0.04797749,0.77798
584.127,187.605,-2.78629,0.05193992,0.77731
584.827,187.8393,-2.78555,0.05147318,0.77665
585.527,188.075,-2.78586,0.0445615,0.77599
586.227,188.31,-2.78727,0.04342065,0.77533
586.927,188.546,-2.78855,0.03880815,0.77467
587.627,188.781,-2.78848,0.03883349,0.774
588.327,189.017,-2.78987,0.03619394,0.77334
589.027,189.253,-2.79086,0.03809309,0.77267
589.727,189.489,-2.79121,0.03478755,0.77201
590.427,189.7244,-2.79186,0.02986993,0.77134
591.127,189.959,-2.79347,0.02753552,0.77067
591.827,190.193,-2.79284,0.03090026,0.77
592.527,190.428,-2.79415,0.03066872,0.76934
593.227,190.661,-2.79548,0.03263136,0.76867
593.927,190.896,-2.79448,0.03601867,0.768
594.627,191.13,-2.79626,0.03467638,0.76733
595.327,191.365,-2.79645,0.03343322,0.76665
596.027,191.6,-2.78957,0.03231557,0.76598
596.727,191.836,-2.79342,0.0332643,0.76531
597.427,192.071,-2.7984,0.03198196,0.76464
598.127,192.306,-2.8034,0.03548281,0.76396
598.827,192.542,-2.80204,0.03631367,0.76329
599.527,192.779,-2.80139,0.03128695,0.76261
600.227,193.015,-2.80081,0.02763302,0.76193
600.927,193.25,-2.80006,0.02638449,0.76126
601.627,193.487,-2.80674,0.02845746,0.76058
602.327,193.723,-2.81027,0.02977486,0.7599
603.027,193.959,-2.81308,0.02925831,0.75922
603.727,194.1953,-2.80787,0.02747912,0.75854
604.427,194.431,-2.80786,0.02843907,0.75786
605.127,194.667,-2.80885,0.02663188,0.75718
605.827,194.903,-2.81005,0.02869536,0.7565
606.527,195.14,-2.80983,0.02801013,0.75582
607.227,195.376,-2.81204,0.02585706,0.75514
607.927,195.611,-2.81117,0.02662031,0.75445
608.627,195.846,-2.81412,0.02665277,0.75377
609.327,196.08,-2.81282,0.02925933,0.75308
610.027,196.314,-2.81541,0.02757572,0.7524
610.727,196.5487,-2.81543,0.02695052,0.75171
611.427,196.783,-2.81675,0.02746683,0.75102
612.127,197.019,-2.81806,0.02787489,0.75034
612.827,197.255,-2.81938,0.02477123,0.74965
613.527,197.491,-2.81879,0.0262834,0.74896
614.227,197.7276,-2.81931,0.02800651,0.74827
614.927,197.965,-2.82069,0.02499337,0.74758
615.627,198.201,-2.82064,0.02281968,0.74689
616.327,198.437,-2.82234,0.02179744,0.7462
617.027,198.672,-2.82382,0.02587347,0.74551
617.727,198.907,-2.82629,0.02562041,0.74481
618.427,199.142,-2.82694,0.02685096,0.74412
619.127,199.377,-2.82922,0.02599652,0.74343
619.827,199.611,-2.8276,0.02655725,0.74273
620.527,199.845,-2.83049,0.02679796,0.74204
621.227,200.081,-2.83153,0.02309149,0.74134
621.927,200.316,-2.83353,0.02533077,0.74065
622.627,200.553,-2.83484,0.02228703,0.73995
623.327,200.789,-2.83616,0.02446996,0.73925
624.027,201.025,-2.8366,0.02634149,0.73855
624.727,201.261,-2.84011,0.02719209,0.73785
625.427,201.497,-2.84146,0.03076102,0.73716
626.127,201.732,-2.8421,0.03262232,0.73646
626.827,201.967,-2.84242,0.03268812,0.73575
627.527,202.202,-2.84338,0.03288578,0.73505
628.227,202.437,-2.8453,0.03754226,0.73435
628.927,202.672,-2.84566,0.03797097,0.73365
629.627,202.907,-2.84701,0.04663978,0.73295
630.327,203.141,-2.84932,0.04570961,0.73224
631.027,203.376,-2.85065,0.04575741,0.73154
631.727,203.6097,-2.852,0.04670135,0.73083
632.427,203.8447,-2.85455,0.05034281,0.73013
633.127,204.08,-2.85552,0.04988385,0.72942
633.827,204.317,-2.85722,0.05559016,0.72872
634.527,204.554,-2.85887,0.05311093,0.72801
635.227,204.7918,-2.86124,0.05668733,0.7273
635.927,205.03,-2.86356,0.05987078,0.72659
636.627,205.267,-2.86545,0.05972245,0.72588
637.327,205.503,-2.86808,0.06013358,0.72517
638.027,205.739,-2.86973,0.06514929,0.72446
638.727,205.975,-2.87108,0.0694047,0.72375
639.427,206.211,-2.87298,0.0715859,0.72304
640.127,206.447,-2.87633,0.06956713,0.72233
640.827,206.683,-2.8776,0.07732161,0.72162
641.527,206.918,-2.87967,0.0827801,0.7209
642.227,207.154,-2.88288,0.08131011,0.72019
642.927,207.3895,-2.88453,0.08595126,0.71948
643.627,207.625,-2.88722,0.08696122,0.71876
644.327,207.86,-2.88926,0.08785843,0.71805
645.027,208.095,-2.89036,0.09072808,0.71733
645.727,208.33,-2.89308,0.09568968,0.71661
646.427,208.565,-2.89703,0.09623774,0.7159
647.127,208.8,-2.89803,0.10327,0.71518
647.827,209.036,-2.90044,0.10434,0.71446
648.527,209.272,-2.90231,0.1062,0.71374
649.227,209.509,-2.90495,0.1066,0.71302
649.927,209.747,-2.90757,0.10845,0.7123
650.627,209.983,-2.9102,0.10822,0.71158
651.327,210.219,-2.91161,0.11177,0.71086
652.027,210.456,-2.91151,0.10833,0.71014
652.727,210.692,-2.91557,0.10779,0.70942
653.427,210.928,-2.91583,0.1074,0.7087
654.127,211.164,-2.91844,0.10319,0.70797
654.827,211.401,-2.92105,0.09756448,0.70725
655.527,211.639,-2.92369,0.08774163,0.70653
656.227,211.876,-2.92467,0.08173476,0.7058
656.927,212.113,-2.92598,0.07457524,0.70508
657.627,212.349,-2.92729,0.06634755,0.70435
658.327,212.586,-2.92994,0.05359371,0.70362
659.027,212.823,-2.93063,0.04082006,0.7029
659.727,213.059,-2.9321,0.02662909,0.70217
660.427,213.294,-2.93258,0.00192764,0.70144
661.127,213.529,-2.93322,-0.01704773,0.70071
661.827,213.764,-2.93327,-0.02898158,0.69999
662.527,213.998,-2.93491,-0.03450506,0.69926
663.227,214.234,-2.9339,-0.04013531,0.69853
663.927,214.469,-2.93422,-0.0451405,0.6978
664.627,214.706,-2.93551,-0.04389447,0.69706
665.327,214.943,-2.93455,-0.04947447,0.69633
666.027,215.179,-2.93423,-0.0498605,0.6956
666.727,215.415,-2.93554,-0.05161874,0.69487
667.427,215.65,-2.93554,-0.04962979,0.69414
668.127,215.885,-2.93683,-0.05272977,0.6934
668.827,216.121,-2.9355,-0.05341283,0.69267
669.527,216.3583,-2.93589,-0.05538558,0.69193
670.227,216.5944,-2.93553,-0.05263943,0.6912
670.927,216.83,-2.93685,-0.05465862,0.69046
671.627,217.066,-2.93752,-0.05516171,0.68973
672.327,217.302,-2.93751,-0.05422671,0.68899
673.027,217.538,-2.93751,-0.0555323,0.68825
673.727,217.774,-2.93816,-0.05185262,0.68752
674.427,218.011,-2.93816,-0.05337543,0.68678
675.127,218.249,-2.9375,-0.05058598,0.68604
675.827,218.486,-2.93879,-0.05205997,0.6853
676.527,218.723,-2.93915,-0.04863829,0.68456
677.227,218.958,-2.9395,-0.05242545,0.68382
677.927,219.195,-2.93882,-0.05000825,0.68308
678.627,219.4302,-2.93882,-0.04657632,0.68234
679.327,219.666,-2.94014,-0.05236922,0.6816
680.027,219.901,-2.93948,-0.04871346,0.68086
680.727,220.137,-2.94077,-0.04900867,0.68012
681.427,220.3733,-2.94079,-0.05203696,0.67937
682.127,220.609,-2.93981,-0.05157838,0.67863
682.827,220.845,-2.94112,-0.0485225,0.67789
683.527,221.08,-2.93948,-0.04926495,0.67714
684.227,221.317,-2.93883,-0.04981505,0.6764
684.927,221.553,-2.94078,-0.0486898,0.67565
685.627,221.789,-2.93992,-0.05068355,0.67491
686.327,222.024,-2.94029,-0.05080019,0.67416
687.027,222.2601,-2.93976,-0.04958682,0.67342
687.727,222.497,-2.94181,-0.04922489,0.67267
688.427,222.733,-2.94244,-0.05156305,0.67192
689.127,222.971,-2.94244,-0.04683629,0.67117
689.827,223.208,-2.94277,-0.04995946,0.67043
690.527,223.446,-2.94245,-0.05095389,0.66968
691.227,223.684,-2.94215,-0.04924392,0.66893
691.927,223.921,-2.94245,-0.05275887,0.66818
692.627,224.158,-2.94491,-0.05240192,0.66743
693.327,224.394,-2.94342,-0.05336366,0.66668
694.027,224.629,-2.94343,-0.05215719,0.66593
694.727,224.865,-2.9431,-0.05527966,0.66518
695.427,225.101,-2.94442,-0.05743544,0.66443
696.127,225.338,-2.94442,-0.05407763,0.66367
696.827,225.573,-2.9431,-0.05401192,0.66292
697.527,225.808,-2.94507,-0.05110377,0.66217
698.227,226.043,-2.94507,-0.05275706,0.66142
698.927,226.278,-2.94639,-0.05380351,0.66066
699.627,226.513,-2.94639,-0.05220584,0.65991
700.327,226.749,-2.94573,-0.05773919,0.65915
701.027,226.986,-2.94441,-0.05272125,0.6584
701.727,227.224,-2.94441,-0.05527574,0.65764
702.427,227.462,-2.94441,-0.05243727,0.65689
703.127,227.699,-2.94441,-0.05306272,0.65613
703.827,227.937,-2.94314,-0.05681462,0.65538
704.527,228.174,-2.9454,-0.05536187,0.65462
705.227,228.4107,-2.94508,-0.06119991,0.65386
705.927,228.6463,-2.94504,-0.05515349,0.6531
706.627,228.881,-2.94483,-0.05357273,0.65235
707.327,229.116,-2.94541,-0.05545525,0.65159
708.027,229.351,-2.94541,-0.05408756,0.65083
708.727,229.587,-2.9441,-0.05250009,0.65007
709.427,229.823,-2.94639,-0.0571024,0.64931
710.127,230.059,-2.94784,-0.05529317,0.64855
710.827,230.2939,-2.9438,-0.05861874,0.64779
711.527,230.529,-2.94507,-0.05807264,0.64703
712.227,230.766,-2.94573,-0.05680562,0.64627
712.927,231.003,-2.94573,-0.05546636,0.64551
713.627,231.239,-2.9454,-0.05547676,0.64474
714.327,231.474,-2.94658,-0.05883663,0.64398
715.027,231.71,-2.9464,-0.0583061,0.64322
715.727,231.946,-2.9464,-0.05908384,0.64246
716.427,232.182,-2.94738,-0.0597812,0.64169
717.127,232.418,-2.94705,-0.06044234,0.64093
717.827,232.655,-2.9467,-0.06151533,0.64017
718.527,232.892,-2.94744,-0.05956785,0.6394
719.227,233.129,-2.94738,-0.06260846,0.63864
719.927,233.366,-2.9487,-0.05932013,0.63787
720.627,233.603,-2.94771,-0.059811,0.63711
721.327,233.84,-2.94903,-0.05858496,0.63634
722.027,234.079,-2.94866,-0.06167246,0.63558
722.727,234.317,-2.94873,-0.06150464,0.63481
723.427,234.555,-2.95005,-0.05941866,0.63404
724.127,234.792,-2.94971,-0.06161869,0.63328
724.827,235.029,-2.94961,-0.06792666,0.63251
725.527,235.265,-2.95001,-0.06348715,0.63174
726.227,235.501,-2.95001,-0.06740503,0.63097
726.927,235.7374,-2.95001,-0.06928734,0.6302
727.627,235.974,-2.95034,-0.06594288,0.62944
728.327,236.21,-2.95162,-0.06749818,0.62867
729.027,236.4451,-2.95034,-0.07107481,0.6279
729.727,236.681,-2.95134,-0.06795038,0.62713
730.427,236.9174,-2.95134,-0.07554551,0.62636
731.127,237.155,-2.95133,-0.07177554,0.62559
731.827,237.392,-2.95133,-0.07267499,0.62482
732.527,237.628,-2.95133,-0.07141433,0.62405
733.227,237.865,-2.9504,-0.06848078,0.62328
733.927,238.102,-2.95067,-0.06841484,0.6225
734.627,238.34,-2.95331,-0.07555578,0.62173
735.327,238.576,-2.95066,-0.07362501,0.62096
736.027,238.812,-2.95264,-0.07439474,0.62019
736.727,239.048,-2.95198,-0.06736236,0.61941
737.427,239.285,-2.9533,-0.06738964,0.61864
738.127,239.523,-2.95371,-0.07167993,0.61787
738.827,239.76,-2.95363,-0.06789207,0.6171
739.527,239.998,-2.95363,-0.0719379,0.61632
740.227,240.235,-2.95363,-0.07215495,0.61555
740.927,240.471,-2.95297,-0.07689408,0.61477
741.627,240.707,-2.95528,-0.07109636,0.614
742.327,240.9405,-2.95478,-0.06952632,0.61322
743.027,241.176,-2.95462,-0.06957386,0.61245
743.727,241.412,-2.95476,-0.07062727,0.61167
744.427,241.649,-2.95462,-0.07162332,0.6109
745.127,241.887,-2.95398,-0.07308475,0.61012
745.827,242.124,-2.95526,-0.07772605,0.60934
746.527,242.362,-2.95503,-0.07940211,0.60857
747.227,242.6,-2.95495,-0.08097456,0.60779
747.927,242.838,-2.95723,-0.0812407,0.60701
748.627,243.075,-2.95594,-0.08251248,0.60624
749.327,243.312,-2.95697,-0.08306953,0.60546
750.027,243.549,-2.95693,-0.08438948,0.60468
750.727,243.787,-2.9569,-0.08158798,0.6039
751.427,244.025,-2.9566,-0.08180953,0.60313
752.127,244.262,-2.95692,-0.08483627,0.60235
752.827,244.4984,-2.95696,-0.08453025,0.60157
753.527,244.736,-2.95724,-0.08494048,0.60079
754.227,244.974,-2.9563,-0.08715921,0.60001
754.927,245.213,-2.95725,-0.08832428,0.59923
755.627,245.449,-2.95659,-0.0813195,0.59845
756.327,245.685,-2.95626,-0.08184021,0.59767
757.027,245.921,-2.95725,-0.08901832,0.59689
757.727,246.158,-2.95594,-0.08634266,0.59611
758.427,246.395,-2.95594,-0.08559614,0.59533
759.127,246.632,-2.95627,-0.08541166,0.59455
759.827,246.869,-2.95627,-0.08438806,0.59377
760.527,247.107,-2.95627,-0.08292086,0.59299
761.227,247.344,-2.9566,-0.08700511,0.59221
761.927,247.581,-2.95627,-0.0918604,0.59142
762.627,247.817,-2.95528,-0.08847956,0.59064
763.327,248.053,-2.95445,-0.09065093,0.58986
764.027,248.289,-2.95527,-0.09234045,0.58908
764.727,248.526,-2.95528,-0.09214933,0.58829
765.427,248.764,-2.95528,-0.09672527,0.58751
766.127,249.001,-2.95529,-0.09731104,0.58673
766.827,249.2386,-2.95701,-0.09571366,0.58595
767.527,249.473,-2.9556,-0.09625074,0.58516
768.227,249.708,-2.95626,-0.09330213,0.58438
768.927,249.945,-2.95631,-0.09394993,0.5836
769.627,250.185,-2.9556,-0.09586629,0.58281
770.327,250.424,-2.95692,-0.09423319,0.58203
771.027,250.6627,-2.95685,-0.09691042,0.58124
771.727,250.901,-2.95692,-0.10318,0.58046
772.427,251.138,-2.95826,-0.1009,0.57967
773.127,251.376,-2.9579,-0.09605137,0.57889
773.827,251.612,-2.95826,-0.10046,0.5781
774.527,251.85,-2.95823,-0.10232,0.57732
775.227,252.0879,-2.95824,-0.10468,0.57653
775.927,252.326,-2.95791,-0.10436,0.57575
776.627,252.563,-2.95724,-0.10682,0.57496
777.327,252.8,-2.95955,-0.10452,0.57418
778.027,253.0358,-2.95857,-0.10734,0.57339
778.727,253.271,-2.96103,-0.1042,0.57261
779.427,253.507,-2.95923,-0.10577,0.57182
780.127,253.744,-2.95923,-0.09765078,0.57103
780.827,253.982,-2.95857,-0.10083,0.57025
781.527,254.219,-2.95855,-0.09472416,0.56946
782.227,254.457,-2.95912,-0.0912321,0.56867
782.927,254.693,-2.95955,-0.09135586,0.56789
783.627,254.929,-2.96119,-0.09006105,0.5671
784.327,255.165,-2.96119,-0.09181987,0.56631
785.027,255.403,-2.96253,-0.09006053,0.56553
785.727,255.641,-2.96112,-0.08544478,0.56474
786.427,255.878,-2.96189,-0.08554155,0.56395
787.127,256.116,-2.96383,-0.08026268,0.56316
787.827,256.355,-2.96285,-0.08179609,0.56237
788.527,256.594,-2.9643,-0.08789801,0.56159
789.227,256.833,-2.96286,-0.08878557,0.5608
789.927,257.071,-2.96387,-0.08664094,0.56001
790.627,257.31,-2.96243,-0.08413337,0.55922
791.327,257.547,-2.96275,-0.0884918,0.55843
792.027,257.783,-2.96285,-0.08961373,0.55765
792.727,258.019,-2.96284,-0.08494696,0.55686
793.427,258.255,-2.96092,-0.08695703,0.55607
794.127,258.4912,-2.96185,-0.08439798,0.55528
794.827,258.728,-2.96121,-0.08514864,0.55449
795.527,258.964,-2.96255,-0.08524509,0.5537
796.227,259.202,-2.96153,-0.08104265,0.55291
796.927,259.439,-2.96097,-0.08626401,0.55212
797.627,259.677,-2.96282,-0.0883107,0.55133
798.327,259.915,-2.96284,-0.08482694,0.55054
799.027,260.154,-2.96186,-0.08741366,0.54975
799.727,260.393,-2.96185,-0.08668182,0.54896
800.427,260.63,-2.96318,-0.08608548,0.54818
801.127,260.867,-2.96318,-0.0883906,0.54739
801.827,261.105,-2.96439,-0.08562433,0.5466
802.527,261.342,-2.96318,-0.08364479,0.54581
803.227,261.578,-2.96447,-0.08016799,0.54502
803.927,261.815,-2.96449,-0.08221184,0.54423
804.627,262.0514,-2.96483,-0.07879721,0.54344
805.327,262.2885,-2.9635,-0.08761421,0.54265
806.027,262.526,-2.96485,-0.08068841,0.54186
806.727,262.762,-2.96284,-0.08025462,0.54107
807.427,263,-2.96416,-0.07639439,0.54027
808.127,263.239,-2.96417,-0.07540549,0.53948
808.827,263.478,-2.96482,-0.08042009,0.53869
809.527,263.716,-2.96449,-0.08241642,0.5379
810.227,263.953,-2.96221,-0.08936058,0.53711
810.927,264.191,-2.96351,-0.08254278,0.53632
811.627,264.428,-2.96449,-0.08673735,0.53553
812.327,264.664,-2.96416,-0.08078859,0.53474
813.027,264.899,-2.96452,-0.0802003,0.53395
813.727,265.135,-2.96578,-0.07836634,0.53316
814.427,265.372,-2.96581,-0.07740617,0.53237
815.127,265.608,-2.96845,-0.08040062,0.53158
815.827,265.845,-2.96713,-0.0782585,0.53079
816.527,266.083,-2.96713,-0.07821474,0.53
817.227,266.322,-2.96858,-0.07736427,0.52921
817.927,266.561,-2.96845,-0.07506039,0.52842
818.627,266.8,-2.96844,-0.07785338,0.52762
819.327,267.038,-2.96745,-0.07550726,0.52683
820.027,267.276,-2.96877,-0.07767467,0.52604
820.727,267.513,-2.96876,-0.07920347,0.52525
821.427,267.749,-2.96877,-0.07873727,0.52446
822.127,267.986,-2.96877,-0.07733084,0.52367
822.827,268.224,-2.97008,-0.07800838,0.52288
823.527,268.463,-2.96797,-0.0801226,0.52209
824.227,268.7,-2.9691,-0.07411028,0.5213
824.927,268.938,-2.96946,-0.07178854,0.52051
825.627,269.176,-2.97088,-0.07416423,0.51971
826.327,269.415,-2.97041,-0.07190913,0.51892
827.027,269.653,-2.97074,-0.07000682,0.51813
827.727,269.893,-2.97074,-0.06959804,0.51734
828.427,270.13,-2.96942,-0.07080107,0.51655
829.127,270.368,-2.97074,-0.07401609,0.51576
829.827,270.605,-2.97206,-0.06995301,0.51497
830.527,270.842,-2.96969,-0.0675359,0.51418
831.227,271.078,-2.9714,-0.06744645,0.51339
831.927,271.315,-2.97107,-0.06935783,0.5126
832.627,271.551,-2.97107,-0.07020996,0.51181
833.327,271.787,-2.9711,-0.06907771,0.51102
834.027,272.023,-2.97239,-0.07032563,0.51022
834.727,272.261,-2.97242,-0.06639195,0.50943
835.427,272.499,-2.97374,-0.06643019,0.50864
836.127,272.737,-2.97371,-0.07273438,0.50785
836.827,272.976,-2.97558,-0.07174197,0.50706
837.527,273.215,-2.97502,-0.07144311,0.50627
838.227,273.454,-2.97641,-0.07440765,0.50548
838.927,273.693,-2.97543,-0.06998103,0.50469
839.627,273.932,-2.97509,-0.07569188,0.5039
840.327,274.171,-2.97533,-0.07760504,0.50311
841.027,274.409,-2.97461,-0.07833975,0.50232
841.727,274.648,-2.97502,-0.07593489,0.50153
842.427,274.885,-2.97502,-0.07761653,0.50074
843.127,275.121,-2.97469,-0.0733013,0.49995
843.827,275.356,-2.97535,-0.06834346,0.49916
844.527,275.593,-2.97535,-0.06892948,0.49837
845.227,275.8299,-2.97404,-0.0654933,0.49758
845.927,276.068,-2.97404,-0.06821352,0.49679
846.627,276.305,-2.97462,-0.06601216,0.496
847.327,276.542,-2.97475,-0.07013188,0.49521
847.627,276.643,-2.97404,-0.06863546,0.49487