File: 01_Data/Countertop_Plastic_Laminate_Laminate/MCC/Countertop_Plastic_Laminate_Laminate_MCC_30K_min_211103_R3.txt
Sample ID:	C:\MCC\MCC Cal\Countertop_Plastic_LaminateA_MCC_30K_min_211103_R3.txt
Sample Weight (mg):	4.62
Heating Rate (C/s):	0.5
Combustor Temp (C):	900
N2 Flow Rate (cc/min):	80
O2 Flow Rate (cc/min):	20
Calibration File:	C:\MCC\MCC Cal\Coeff1 JN10440_30_210304.txt.txt
T Correction Coefficients:	0	1.024463	0
Time Shift (s):	14
*
Time (s)	Temperature (C)	N2 flow rate (cc/min)	O2 flow rate (cc/min)	Flow Rate (cc/min)	Oxygen (%)	HRR (W/g)	Heating rate (C/s)
0.000	107.596	80.008	19.996	103.052	20.133	0.142	0.014
2.000	107.591	80.008	19.995	103.058	20.133	0.083	-0.036
4.000	107.612	80.009	19.995	103.054	20.135	-0.009	-0.019
6.000	107.605	80.010	19.995	103.057	20.135	-0.017	0.014
8.000	107.606	80.009	19.994	103.057	20.133	0.127	0.014
10.000	107.619	80.009	19.996	103.054	20.131	0.255	-0.012
12.000	107.616	80.009	19.995	103.068	20.130	0.287	-0.011
14.000	107.617	80.008	19.995	103.064	20.129	0.410	0.007
16.001	107.568	80.007	19.995	103.096	20.128	0.459	-0.012
18.001	107.665	80.007	19.995	103.140	20.126	0.599	0.023
20.000	107.710	80.006	19.995	103.174	20.120	0.989	0.023
22.001	107.804	80.006	19.996	103.211	20.110	1.694	0.045
24.000	107.926	80.005	19.996	103.234	20.108	1.866	0.062
26.000	108.059	80.004	19.996	103.249	20.103	2.201	0.074
28.000	108.261	80.005	19.996	103.252	20.100	2.390	0.095
30.000	108.463	80.006	19.995	103.251	20.099	2.479	0.112
32.000	108.741	80.007	19.995	103.261	20.100	2.409	0.124
34.000	108.976	80.005	19.996	103.242	20.097	2.588	0.122
36.000	109.338	80.006	19.996	103.268	20.094	2.823	0.187
38.000	109.639	80.006	19.995	103.281	20.093	2.870	0.184
40.000	109.969	80.006	19.995	103.264	20.094	2.809	0.178
42.000	110.346	80.006	19.995	103.285	20.092	2.959	0.170
44.000	110.741	80.006	19.994	103.275	20.098	2.560	0.200
46.000	111.184	80.007	19.994	103.270	20.096	2.723	0.198
48.000	111.570	80.006	19.994	103.274	20.097	2.651	0.172
50.000	112.035	80.007	19.994	103.259	20.096	2.657	0.209
52.000	112.560	80.007	19.994	103.257	20.095	2.755	0.248
54.000	112.979	80.007	19.993	103.263	20.094	2.806	0.246
56.000	113.509	80.008	19.994	103.273	20.095	2.778	0.252
58.000	114.041	80.007	19.995	103.272	20.094	2.863	0.301
60.000	114.520	80.006	19.996	103.265	20.093	2.907	0.259
62.000	115.094	80.008	19.995	103.269	20.093	2.892	0.261
64.000	115.627	80.008	19.994	103.291	20.088	3.225	0.270
66.000	116.206	80.008	19.994	103.281	20.090	3.080	0.282
68.000	116.793	80.008	19.995	103.291	20.089	3.195	0.314
70.001	117.431	80.009	19.993	103.289	20.088	3.266	0.290
72.000	118.053	80.009	19.993	103.281	20.086	3.394	0.327
74.001	118.663	80.007	19.994	103.295	20.089	3.163	0.328
76.001	119.289	80.006	19.994	103.299	20.088	3.270	0.310
78.000	119.939	80.008	19.994	103.318	20.086	3.382	0.329
80.000	120.641	80.007	19.994	103.304	20.085	3.433	0.341
82.000	121.323	80.007	19.994	103.308	20.084	3.550	0.371
84.000	122.044	80.007	19.994	103.324	20.090	3.142	0.372
86.000	122.789	80.008	19.995	103.307	20.084	3.493	0.370
88.000	123.522	80.008	19.995	103.298	20.084	3.546	0.373
90.001	124.285	80.009	19.994	103.301	20.087	3.351	0.379
92.000	125.048	80.008	19.995	103.296	20.086	3.409	0.377
94.000	125.808	80.009	19.996	103.307	20.083	3.597	0.384
96.000	126.563	80.008	19.994	103.302	20.083	3.624	0.381
98.000	127.385	80.009	19.994	103.297	20.084	3.559	0.400
100.001	128.191	80.008	19.994	103.315	20.083	3.629	0.405
102.001	129.000	80.007	19.995	103.330	20.082	3.702	0.428
104.000	129.798	80.005	19.993	103.330	20.081	3.755	0.404
106.000	130.660	80.007	19.994	103.337	20.082	3.698	0.429
108.000	131.506	80.006	19.994	103.346	20.083	3.619	0.433
110.000	132.355	80.006	19.994	103.326	20.084	3.519	0.434
112.000	133.277	80.006	19.995	103.332	20.083	3.596	0.450
114.000	134.117	80.007	19.995	103.331	20.084	3.503	0.456
116.000	135.034	80.006	19.995	103.321	20.086	3.386	0.425
118.001	135.920	80.006	19.996	103.318	20.087	3.314	0.430
120.000	136.837	80.007	19.995	103.329	20.082	3.645	0.465
122.000	137.766	80.006	19.996	103.307	20.086	3.395	0.506
124.001	138.701	80.008	19.995	103.320	20.082	3.696	0.465
126.001	139.624	80.007	19.996	103.308	20.085	3.479	0.468
128.000	140.588	80.008	19.995	103.318	20.085	3.430	0.494
130.000	141.497	80.007	19.996	103.323	20.084	3.515	0.451
132.000	142.419	80.007	19.994	103.311	20.088	3.270	0.469
134.000	143.425	80.006	19.995	103.320	20.087	3.329	0.477
136.000	144.369	80.007	19.995	103.321	20.083	3.607	0.480
138.000	145.307	80.007	19.995	103.312	20.088	3.278	0.462
140.000	146.309	80.007	19.995	103.323	20.091	3.074	0.485
142.000	147.298	80.007	19.995	103.313	20.089	3.206	0.485
144.000	148.251	80.007	19.994	103.303	20.086	3.418	0.479
146.000	149.257	80.008	19.994	103.306	20.085	3.475	0.514
148.000	150.250	80.008	19.996	103.299	20.085	3.461	0.495
150.000	151.185	80.008	19.994	103.300	20.089	3.213	0.472
152.000	152.197	80.009	19.995	103.307	20.087	3.316	0.497
154.000	153.191	80.007	19.995	103.297	20.086	3.414	0.478
156.000	154.197	80.009	19.994	103.319	20.084	3.512	0.501
158.000	155.158	80.006	19.995	103.300	20.081	3.713	0.490
160.000	156.113	80.007	19.995	103.303	20.079	3.888	0.456
162.000	157.128	80.008	19.995	103.301	20.083	3.624	0.488
164.000	158.126	80.007	19.995	103.296	20.081	3.715	0.493
166.000	159.112	80.006	19.995	103.296	20.081	3.758	0.501
168.000	160.091	80.008	19.995	103.298	20.082	3.689	0.495
170.000	161.131	80.007	19.994	103.292	20.080	3.775	0.502
172.000	162.080	80.007	19.995	103.290	20.080	3.775	0.483
174.000	163.067	80.008	19.994	103.300	20.083	3.603	0.479
176.000	164.090	80.009	19.994	103.299	20.084	3.523	0.524
178.000	165.079	80.009	19.994	103.310	20.081	3.748	0.491
180.000	166.094	80.010	19.995	103.306	20.084	3.550	0.500
182.000	167.138	80.009	19.994	103.294	20.083	3.566	0.557
184.000	168.060	80.009	19.994	103.292	20.082	3.643	0.466
186.000	169.086	80.009	19.995	103.283	20.086	3.378	0.512
188.000	170.075	80.008	19.995	103.289	20.084	3.499	0.505
190.000	171.070	80.006	19.995	103.297	20.083	3.571	0.486
192.000	172.097	80.008	19.995	103.315	20.083	3.594	0.496
194.000	173.099	80.007	19.995	103.308	20.086	3.421	0.522
196.000	174.091	80.008	19.994	103.303	20.084	3.557	0.519
198.000	175.160	80.007	19.994	103.307	20.082	3.692	0.519
200.000	176.200	80.006	19.995	103.294	20.084	3.535	0.541
202.000	177.226	80.007	19.995	103.298	20.084	3.555	0.504
204.000	178.291	80.007	19.995	103.299	20.082	3.682	0.516
206.000	179.336	80.007	19.995	103.294	20.085	3.429	0.521
208.000	180.347	80.007	19.995	103.290	20.082	3.663	0.525
210.000	181.410	80.007	19.995	103.296	20.085	3.482	0.559
212.000	182.427	80.007	19.996	103.305	20.085	3.476	0.516
214.000	183.507	80.008	19.995	103.284	20.082	3.644	0.528
216.000	184.564	80.006	19.995	103.291	20.084	3.516	0.529
218.000	185.645	80.006	19.996	103.292	20.078	3.926	0.563
220.000	186.667	80.006	19.996	103.289	20.082	3.657	0.541
222.000	187.763	80.005	19.996	103.287	20.084	3.512	0.501
224.000	188.779	80.006	19.995	103.292	20.082	3.691	0.546
226.000	189.835	80.008	19.996	103.294	20.083	3.585	0.546
228.000	190.849	80.007	19.995	103.290	20.084	3.540	0.529
230.000	191.889	80.007	19.995	103.280	20.079	3.853	0.499
232.000	192.971	80.008	19.995	103.284	20.082	3.648	0.516
234.000	194.015	80.009	19.994	103.286	20.082	3.644	0.548
236.000	195.036	80.007	19.994	103.260	20.082	3.677	0.511
238.000	196.058	80.007	19.995	103.289	20.083	3.585	0.533
240.000	197.107	80.008	19.994	103.270	20.085	3.426	0.543
242.000	198.126	80.006	19.994	103.273	20.085	3.426	0.506
244.000	199.120	80.007	19.994	103.282	20.082	3.666	0.491
246.000	200.187	80.006	19.994	103.266	20.082	3.672	0.539
248.000	201.190	80.008	19.995	103.257	20.081	3.738	0.499
250.000	202.189	80.008	19.994	103.260	20.079	3.883	0.495
252.000	203.241	80.008	19.995	103.256	20.080	3.788	0.522
254.000	204.274	80.009	19.996	103.255	20.076	4.054	0.520
256.000	205.297	80.009	19.995	103.261	20.080	3.819	0.519
258.000	206.294	80.009	19.994	103.261	20.082	3.683	0.492
260.000	207.321	80.009	19.993	103.253	20.079	3.904	0.488
262.001	208.366	80.011	19.994	103.269	20.080	3.785	0.541
264.000	209.344	80.012	19.995	103.273	20.081	3.770	0.506
266.000	210.350	80.009	19.994	103.257	20.082	3.649	0.508
268.000	211.361	80.009	19.994	103.266	20.079	3.881	0.516
270.000	212.333	80.008	19.995	103.254	20.078	3.976	0.493
272.000	213.329	80.008	19.994	103.253	20.082	3.692	0.510
274.000	214.360	80.008	19.994	103.262	20.077	3.993	0.496
276.000	215.335	80.007	19.994	103.253	20.078	3.978	0.465
278.000	216.323	80.008	19.995	103.258	20.079	3.881	0.492
280.000	217.315	80.007	19.995	103.256	20.079	3.853	0.515
282.000	218.312	80.008	19.995	103.266	20.080	3.829	0.510
284.000	219.281	80.007	19.995	103.255	20.080	3.806	0.513
286.000	220.290	80.009	19.995	103.261	20.080	3.806	0.470
288.000	221.256	80.007	19.996	103.258	20.078	3.940	0.491
290.000	222.236	80.006	19.995	103.257	20.078	3.953	0.492
292.000	223.228	80.007	19.994	103.256	20.077	4.048	0.459
294.000	224.228	80.007	19.995	103.263	20.077	4.047	0.511
296.000	225.200	80.008	19.995	103.255	20.076	4.064	0.475
298.000	226.191	80.007	19.995	103.255	20.077	4.017	0.473
300.000	227.175	80.007	19.995	103.253	20.078	3.964	0.501
302.000	228.148	80.007	19.996	103.253	20.076	4.091	0.476
304.000	229.174	80.006	19.995	103.255	20.075	4.161	0.489
306.000	230.096	80.005	19.996	103.246	20.075	4.184	0.453
308.000	231.074	80.006	19.996	103.256	20.074	4.244	0.504
310.000	232.002	80.006	19.995	103.253	20.072	4.345	0.450
312.000	233.032	80.007	19.995	103.255	20.072	4.384	0.495
314.000	233.938	80.007	19.996	103.255	20.073	4.312	0.472
316.000	234.921	80.007	19.997	103.255	20.071	4.450	0.497
318.000	235.862	80.008	19.997	103.253	20.071	4.448	0.483
320.000	236.780	80.009	19.996	103.265	20.072	4.365	0.486
322.000	237.749	80.008	19.996	103.260	20.071	4.435	0.455
324.001	238.688	80.007	19.995	103.251	20.072	4.396	0.465
326.000	239.665	80.009	19.995	103.252	20.072	4.384	0.481
328.000	240.565	80.009	19.994	103.254	20.068	4.673	0.469
330.000	241.518	80.009	19.994	103.248	20.067	4.732	0.468
332.000	242.488	80.009	19.995	103.253	20.066	4.813	0.476
334.000	243.440	80.008	19.995	103.252	20.064	4.902	0.474
336.000	244.398	80.008	19.995	103.254	20.065	4.874	0.471
338.000	245.361	80.008	19.994	103.254	20.066	4.780	0.485
340.000	246.285	80.009	19.994	103.255	20.064	4.916	0.486
342.000	247.227	80.010	19.995	103.254	20.060	5.222	0.474
344.000	248.159	80.010	19.994	103.255	20.057	5.430	0.455
346.000	249.091	80.010	19.994	103.250	20.056	5.467	0.455
348.000	250.082	80.011	19.995	103.263	20.056	5.511	0.485
350.000	251.069	80.010	19.995	103.265	20.054	5.602	0.490
352.000	252.047	80.009	19.995	103.257	20.056	5.504	0.519
354.000	252.941	80.009	19.994	103.257	20.052	5.782	0.453
356.000	253.894	80.009	19.995	103.274	20.049	5.989	0.462
358.000	254.804	80.008	19.994	103.268	20.049	5.995	0.446
360.000	255.783	80.009	19.995	103.263	20.047	6.100	0.485
362.000	256.738	80.009	19.994	103.269	20.043	6.360	0.461
364.000	257.711	80.008	19.995	103.270	20.038	6.737	0.504
366.000	258.695	80.007	19.994	103.264	20.041	6.526	0.479
368.001	259.621	80.008	19.994	103.286	20.039	6.653	0.469
370.000	260.591	80.008	19.995	103.273	20.038	6.715	0.471
372.000	261.550	80.007	19.995	103.280	20.034	7.008	0.440
374.000	262.507	80.008	19.995	103.280	20.034	7.004	0.479
376.000	263.440	80.007	19.994	103.273	20.035	6.974	0.474
378.000	264.490	80.007	19.994	103.288	20.026	7.574	0.490
380.000	265.437	80.008	19.995	103.288	20.021	7.913	0.489
382.000	266.436	80.008	19.996	103.288	20.024	7.701	0.517
384.000	267.408	80.007	19.995	103.278	20.019	8.095	0.493
386.000	268.411	80.006	19.995	103.270	20.015	8.365	0.505
388.000	269.400	80.009	19.995	103.290	20.012	8.537	0.538
390.000	270.385	80.008	19.995	103.291	20.013	8.509	0.514
392.000	271.398	80.009	19.995	103.284	20.008	8.838	0.510
394.000	272.345	80.009	19.994	103.300	20.009	8.766	0.487
396.000	273.348	80.009	19.995	103.293	20.003	9.190	0.467
398.000	274.370	80.010	19.994	103.291	20.000	9.391	0.534
400.000	275.334	80.009	19.995	103.290	19.998	9.525	0.516
402.000	276.336	80.009	19.995	103.292	19.994	9.819	0.470
404.000	277.363	80.008	19.995	103.292	19.991	10.041	0.508
406.000	278.366	80.010	19.996	103.289	19.987	10.328	0.498
408.000	279.358	80.009	19.995	103.305	19.981	10.686	0.494
410.000	280.299	80.008	19.996	103.282	19.978	10.951	0.459
412.000	281.283	80.009	19.996	103.303	19.973	11.242	0.478
414.000	282.324	80.007	19.996	103.321	19.971	11.405	0.505
416.000	283.308	80.008	19.996	103.305	19.968	11.600	0.503
418.000	284.340	80.007	19.995	103.307	19.962	12.013	0.531
420.000	285.303	80.008	19.995	103.318	19.958	12.337	0.506
422.000	286.297	80.010	19.995	103.309	19.954	12.632	0.477
424.000	287.321	80.009	19.995	103.325	19.950	12.854	0.524
426.000	288.297	80.009	19.994	103.320	19.945	13.203	0.493
428.000	289.327	80.010	19.995	103.313	19.940	13.547	0.492
430.000	290.324	80.012	19.994	103.328	19.934	14.027	0.494
432.000	291.339	80.010	19.994	103.323	19.927	14.451	0.489
434.000	292.399	80.007	19.995	103.322	19.923	14.761	0.503
436.000	293.387	80.008	19.994	103.321	19.920	14.942	0.520
438.000	294.418	80.006	19.994	103.333	19.911	15.625	0.517
440.000	295.417	80.006	19.995	103.333	19.908	15.823	0.477
442.000	296.423	80.005	19.995	103.334	19.901	16.276	0.509
444.000	297.435	80.009	19.995	103.334	19.898	16.509	0.511
446.000	298.403	80.007	19.994	103.338	19.887	17.279	0.494
448.000	299.431	80.006	19.994	103.338	19.882	17.617	0.476
450.000	300.462	80.007	19.995	103.363	19.874	18.166	0.522
452.000	301.430	80.008	19.995	103.364	19.868	18.605	0.478
454.000	302.448	80.009	19.994	103.339	19.857	19.406	0.518
456.000	303.480	80.008	19.994	103.350	19.851	19.818	0.533
458.000	304.491	80.009	19.994	103.369	19.842	20.399	0.527
460.000	305.456	80.009	19.995	103.370	19.835	20.909	0.486
462.000	306.448	80.007	19.994	103.370	19.828	21.370	0.489
464.000	307.428	80.009	19.995	103.371	19.816	22.254	0.455
466.000	308.426	80.008	19.994	103.371	19.809	22.748	0.486
468.000	309.413	80.007	19.995	103.375	19.803	23.179	0.487
470.000	310.429	80.006	19.995	103.398	19.790	24.031	0.493
472.000	311.402	80.007	19.995	103.389	19.783	24.529	0.491
474.000	312.424	80.007	19.995	103.401	19.774	25.166	0.521
476.000	313.454	80.007	19.996	103.402	19.764	25.892	0.489
478.000	314.458	80.009	19.996	103.397	19.752	26.711	0.510
480.000	315.417	80.007	19.996	103.400	19.744	27.305	0.520
482.000	316.375	80.010	19.995	103.405	19.737	27.751	0.463
484.000	317.375	80.010	19.995	103.410	19.727	28.506	0.494
486.000	318.402	80.007	19.995	103.415	19.713	29.429	0.516
488.000	319.414	80.006	19.994	103.422	19.703	30.135	0.499
490.001	320.387	80.007	19.995	103.437	19.691	31.006	0.500
492.000	321.407	80.009	19.995	103.446	19.681	31.687	0.519
494.000	322.379	80.010	19.995	103.446	19.672	32.321	0.489
496.000	323.428	80.007	19.995	103.453	19.659	33.238	0.512
498.000	324.392	80.006	19.995	103.449	19.645	34.237	0.504
500.000	325.432	80.008	19.995	103.452	19.635	34.921	0.512
502.000	326.396	80.005	19.995	103.468	19.627	35.462	0.473
504.000	327.464	80.006	19.996	103.472	19.615	36.324	0.535
506.000	328.448	80.009	19.995	103.456	19.600	37.325	0.482
508.000	329.520	80.010	19.994	103.459	19.589	38.127	0.528
510.001	330.500	80.007	19.995	103.466	19.574	39.154	0.497
512.000	331.471	80.008	19.995	103.480	19.559	40.192	0.506
514.000	332.549	80.009	19.995	103.477	19.547	41.083	0.536
516.000	333.542	80.009	19.995	103.481	19.536	41.854	0.536
518.000	334.578	80.007	19.995	103.480	19.528	42.395	0.522
520.000	335.580	80.009	19.995	103.480	19.519	42.998	0.482
522.000	336.616	80.008	19.995	103.477	19.507	43.818	0.538
524.000	337.620	80.008	19.995	103.466	19.499	44.376	0.506
526.000	338.565	80.007	19.995	103.469	19.496	44.588	0.492
528.000	339.589	80.007	19.994	103.470	19.490	45.038	0.491
530.000	340.607	80.007	19.994	103.458	19.486	45.258	0.478
532.000	341.652	80.007	19.994	103.451	19.483	45.466	0.496
534.001	342.644	80.007	19.995	103.452	19.486	45.308	0.510
536.000	343.625	80.009	19.995	103.446	19.490	44.968	0.485
538.000	344.616	80.007	19.995	103.422	19.496	44.581	0.496
540.000	345.604	80.010	19.996	103.418	19.506	43.878	0.499
542.000	346.673	80.010	19.994	103.407	19.515	43.262	0.531
544.000	347.637	80.007	19.995	103.401	19.525	42.505	0.467
546.000	348.608	80.007	19.995	103.374	19.538	41.608	0.496
548.000	349.632	80.007	19.994	103.366	19.555	40.447	0.492
550.000	350.651	80.008	19.994	103.350	19.571	39.307	0.527
552.000	351.649	80.008	19.995	103.330	19.593	37.767	0.496
554.000	352.699	80.004	19.995	103.324	19.616	36.180	0.539
556.000	353.738	80.007	19.994	103.318	19.634	34.887	0.540
558.000	354.692	80.007	19.995	103.295	19.660	33.112	0.504
560.001	355.679	80.005	19.995	103.278	19.683	31.514	0.496
562.000	356.697	80.005	19.994	103.280	19.706	29.852	0.497
564.000	357.686	80.006	19.994	103.269	19.730	28.240	0.492
566.000	358.680	80.011	19.995	103.265	19.749	26.863	0.469
568.000	359.721	80.008	19.994	103.257	19.772	25.307	0.501
570.000	360.733	80.010	19.994	103.256	19.792	23.878	0.523
572.000	361.704	80.006	19.995	103.257	19.812	22.521	0.511
574.000	362.730	80.011	19.994	103.238	19.825	21.567	0.516
576.000	363.763	80.009	19.995	103.246	19.843	20.303	0.533
578.000	364.724	80.008	19.995	103.250	19.858	19.295	0.494
580.000	365.747	80.006	19.995	103.242	19.875	18.126	0.510
582.000	366.742	80.009	19.996	103.245	19.889	17.124	0.488
584.000	367.754	80.009	19.995	103.238	19.902	16.244	0.499
586.000	368.775	80.007	19.995	103.245	19.908	15.780	0.520
588.000	369.739	80.005	19.995	103.226	19.921	14.898	0.449
590.000	370.753	80.010	19.994	103.232	19.929	14.317	0.505
592.000	371.781	80.009	19.994	103.234	19.938	13.667	0.485
594.000	372.818	80.009	19.994	103.231	19.945	13.233	0.510
596.000	373.854	80.009	19.995	103.220	19.952	12.730	0.530
598.000	374.878	80.010	19.995	103.217	19.956	12.427	0.505
600.000	375.903	80.008	19.996	103.215	19.958	12.272	0.528
602.000	376.928	80.010	19.995	103.215	19.961	12.101	0.504
604.001	377.915	80.007	19.996	103.220	19.966	11.764	0.540
606.000	378.910	80.008	19.996	103.221	19.971	11.376	0.523
608.000	379.928	80.008	19.996	103.213	19.975	11.156	0.494
610.000	380.936	80.009	19.995	103.212	19.978	10.923	0.504
612.000	381.937	80.007	19.996	103.215	19.981	10.712	0.513
614.000	382.969	80.006	19.996	103.216	19.981	10.702	0.505
616.000	383.967	80.007	19.995	103.219	19.983	10.551	0.516
618.000	384.991	80.008	19.995	103.222	19.987	10.294	0.511
620.000	386.013	80.006	19.995	103.213	19.987	10.284	0.509
622.000	387.010	80.007	19.994	103.215	19.988	10.220	0.494
624.000	388.019	80.010	19.994	103.217	19.985	10.396	0.518
626.000	389.047	80.006	19.995	103.230	19.984	10.475	0.495
628.000	390.019	80.005	19.994	103.221	19.985	10.415	0.494
630.000	391.045	80.008	19.995	103.215	19.985	10.449	0.488
632.000	392.085	80.007	19.994	103.210	19.986	10.387	0.524
634.001	393.098	80.006	19.995	103.215	19.985	10.426	0.491
636.000	394.105	80.010	19.993	103.217	19.986	10.366	0.524
638.000	395.119	80.008	19.994	103.214	19.985	10.435	0.513
640.000	396.096	80.006	19.994	103.220	19.980	10.761	0.484
642.000	397.127	80.007	19.994	103.217	19.982	10.658	0.514
644.000	398.118	80.008	19.994	103.218	19.981	10.738	0.496
646.000	399.164	80.007	19.994	103.219	19.981	10.723	0.501
648.000	400.139	80.006	19.995	103.218	19.981	10.698	0.512
650.000	401.136	80.009	19.994	103.215	19.982	10.615	0.497
652.000	402.145	80.009	19.995	103.214	19.978	10.943	0.507
654.000	403.130	80.010	19.995	103.216	19.980	10.789	0.505
656.000	404.123	80.009	19.995	103.218	19.976	11.023	0.494
658.001	405.155	80.010	19.995	103.216	19.975	11.127	0.514
660.000	406.165	80.007	19.995	103.213	19.976	11.063	0.514
662.000	407.156	80.009	19.995	103.210	19.975	11.142	0.496
664.000	408.212	80.007	19.995	103.212	19.972	11.335	0.525
666.000	409.202	80.005	19.995	103.215	19.970	11.453	0.510
668.000	410.194	80.007	19.995	103.215	19.969	11.549	0.513
670.000	411.221	80.010	19.995	103.213	19.970	11.475	0.511
672.000	412.232	80.012	19.995	103.213	19.966	11.777	0.482
674.000	413.271	80.006	19.996	103.213	19.967	11.656	0.500
676.000	414.294	80.010	19.995	103.220	19.966	11.725	0.540
678.000	415.245	80.012	19.995	103.218	19.967	11.689	0.457
680.000	416.274	80.011	19.995	103.230	19.965	11.842	0.519
682.000	417.273	80.010	19.995	103.221	19.964	11.919	0.497
684.000	418.323	80.011	19.994	103.212	19.961	12.070	0.505
686.000	419.351	80.009	19.994	103.214	19.961	12.105	0.513
688.000	420.383	80.008	19.995	103.221	19.962	12.044	0.534
690.000	421.440	80.007	19.995	103.217	19.958	12.328	0.531
692.000	422.408	80.005	19.995	103.216	19.957	12.360	0.512
694.000	423.442	80.007	19.994	103.215	19.958	12.315	0.508
696.000	424.450	80.006	19.995	103.217	19.955	12.530	0.518
698.000	425.460	80.006	19.995	103.217	19.958	12.337	0.493
700.000	426.476	80.006	19.995	103.218	19.957	12.356	0.527
702.000	427.487	80.004	19.995	103.220	19.956	12.454	0.494
704.000	428.495	80.008	19.996	103.213	19.954	12.558	0.510
706.000	429.490	80.008	19.995	103.211	19.954	12.585	0.492
708.000	430.521	80.005	19.996	103.218	19.956	12.456	0.549
710.000	431.498	80.005	19.995	103.217	19.956	12.444	0.491
712.000	432.517	80.007	19.995	103.219	19.955	12.489	0.494
714.000	433.540	80.006	19.996	103.216	19.953	12.668	0.491
716.000	434.582	80.009	19.995	103.218	19.957	12.342	0.520
718.000	435.636	80.008	19.995	103.218	19.956	12.448	0.527
720.000	436.619	80.008	19.995	103.214	19.955	12.523	0.493
722.000	437.625	80.008	19.995	103.209	19.956	12.437	0.476
724.000	438.684	80.006	19.995	103.207	19.955	12.506	0.531
726.000	439.673	80.006	19.995	103.205	19.954	12.588	0.505
728.000	440.638	80.010	19.995	103.206	19.955	12.548	0.486
730.000	441.644	80.009	19.994	103.186	19.952	12.728	0.502
732.000	442.685	80.009	19.995	103.206	19.955	12.496	0.516
734.000	443.670	80.008	19.995	103.211	19.957	12.364	0.496
736.000	444.646	80.011	19.994	103.206	19.957	12.362	0.496
738.000	445.652	80.009	19.995	103.205	19.957	12.389	0.502
740.000	446.711	80.010	19.995	103.186	19.959	12.204	0.547
742.000	447.691	80.012	19.994	103.208	19.959	12.219	0.525
744.000	448.712	80.009	19.995	103.204	19.961	12.083	0.498
746.000	449.675	80.012	19.995	103.197	19.965	11.792	0.468
748.000	450.697	80.010	19.994	103.198	19.968	11.634	0.523
750.000	451.739	80.008	19.994	103.202	19.966	11.749	0.483
752.000	452.750	80.009	19.994	103.192	19.971	11.401	0.534
754.000	453.756	80.008	19.995	103.203	19.970	11.449	0.480
756.000	454.792	80.012	19.994	103.210	19.971	11.429	0.519
758.000	455.789	80.009	19.994	103.210	19.972	11.307	0.534
760.000	456.829	80.010	19.995	103.193	19.974	11.217	0.511
762.000	457.872	80.010	19.994	103.199	19.973	11.242	0.524
764.000	458.836	80.010	19.994	103.191	19.974	11.202	0.511
766.000	459.929	80.010	19.994	103.188	19.975	11.122	0.519
768.000	460.943	80.008	19.995	103.199	19.980	10.773	0.507
770.000	461.918	80.008	19.995	103.190	19.983	10.597	0.461
772.000	462.998	80.007	19.995	103.192	19.984	10.490	0.513
774.000	464.008	80.006	19.995	103.195	19.983	10.570	0.513
776.000	465.021	80.006	19.995	103.183	19.986	10.345	0.549
778.000	466.039	80.006	19.995	103.187	19.990	10.050	0.521
780.000	467.098	80.006	19.995	103.202	19.987	10.259	0.576
782.000	468.174	80.007	19.996	103.212	19.992	9.952	0.540
784.000	469.205	80.007	19.995	103.205	19.993	9.872	0.534
786.000	470.221	80.007	19.994	103.196	19.997	9.606	0.501
788.000	471.281	80.008	19.996	103.190	19.993	9.857	0.548
790.000	472.306	80.008	19.995	103.203	19.993	9.892	0.527
792.000	473.385	80.007	19.995	103.208	19.995	9.751	0.518
794.000	474.398	80.008	19.995	103.194	19.997	9.561	0.528
796.000	475.461	80.007	19.995	103.201	19.997	9.577	0.516
798.000	476.526	80.006	19.995	103.189	19.999	9.452	0.534
800.000	477.571	80.008	19.995	103.193	19.993	9.863	0.555
802.000	478.581	80.006	19.996	103.182	19.996	9.654	0.491
804.000	479.601	80.008	19.996	103.201	19.999	9.440	0.528
806.000	480.631	80.007	19.996	103.197	20.000	9.350	0.476
808.000	481.683	80.006	19.996	103.174	20.002	9.238	0.540
810.000	482.694	80.006	19.995	103.192	20.005	9.001	0.527
812.000	483.691	80.007	19.995	103.189	20.003	9.193	0.492
814.000	484.725	80.009	19.995	103.182	20.003	9.172	0.520
816.000	485.760	80.008	19.995	103.188	20.006	8.970	0.503
818.000	486.800	80.010	19.994	103.177	20.007	8.897	0.508
820.000	487.833	80.009	19.994	103.187	20.010	8.682	0.528
822.000	488.860	80.008	19.994	103.191	20.008	8.831	0.507
824.000	489.854	80.009	19.994	103.179	20.015	8.354	0.491
826.000	490.902	80.009	19.994	103.181	20.011	8.599	0.498
828.000	491.862	80.009	19.993	103.193	20.008	8.832	0.475
830.000	492.919	80.009	19.995	103.190	20.012	8.550	0.489
832.000	493.957	80.008	19.995	103.186	20.017	8.218	0.502
834.000	494.973	80.008	19.994	103.194	20.014	8.409	0.514
836.000	496.031	80.008	19.994	103.197	20.019	8.056	0.490
838.000	497.050	80.008	19.994	103.185	20.018	8.125	0.518
840.000	498.033	80.009	19.995	103.179	20.020	8.004	0.476
842.000	498.999	80.009	19.995	103.179	20.019	8.042	0.466
844.000	500.065	80.009	19.994	103.182	20.019	8.084	0.507
846.000	501.089	80.010	19.994	103.184	20.019	8.044	0.518
848.000	502.064	80.008	19.995	103.182	20.019	8.040	0.479
850.000	503.076	80.009	19.994	103.174	20.020	7.974	0.488
852.000	504.093	80.010	19.994	103.174	20.018	8.106	0.524
854.000	505.084	80.008	19.994	103.174	20.021	7.893	0.510
856.000	506.119	80.008	19.994	103.180	20.025	7.611	0.480
858.000	507.083	80.008	19.994	103.175	20.024	7.706	0.490
860.000	508.129	80.007	19.994	103.181	20.024	7.736	0.501
862.000	509.093	80.008	19.994	103.174	20.025	7.664	0.482
864.000	510.128	80.007	19.996	103.171	20.028	7.454	0.512
866.000	511.089	80.007	19.996	103.176	20.026	7.569	0.449
868.000	512.084	80.008	19.995	103.175	20.026	7.571	0.521
870.000	513.080	80.007	19.996	103.173	20.025	7.626	0.509
872.001	514.065	80.010	19.995	103.171	20.028	7.460	0.483
874.000	515.080	80.007	19.994	103.179	20.026	7.545	0.495
876.000	516.107	80.007	19.994	103.169	20.027	7.468	0.513
878.000	517.166	80.009	19.995	103.174	20.029	7.341	0.500
880.000	518.138	80.008	19.995	103.174	20.030	7.275	0.509
882.000	519.150	80.007	19.994	103.172	20.031	7.228	0.520
884.000	520.163	80.008	19.995	103.176	20.029	7.390	0.478
886.000	521.244	80.007	19.996	103.175	20.032	7.167	0.519
888.000	522.278	80.006	19.995	103.180	20.035	6.954	0.528
890.000	523.274	80.006	19.996	103.178	20.036	6.901	0.495
892.000	524.284	80.006	19.996	103.180	20.034	7.020	0.516
894.000	525.308	80.007	19.995	103.172	20.036	6.865	0.518
896.000	526.341	80.008	19.996	103.171	20.038	6.703	0.528
898.000	527.356	80.008	19.995	103.175	20.040	6.601	0.513
900.000	528.416	80.007	19.996	103.170	20.041	6.550	0.529
902.000	529.458	80.008	19.996	103.174	20.042	6.466	0.516
904.000	530.471	80.007	19.995	103.172	20.041	6.553	0.502
906.000	531.514	80.008	19.994	103.176	20.042	6.457	0.522
908.000	532.549	80.008	19.994	103.175	20.042	6.462	0.533
910.000	533.592	80.008	19.993	103.178	20.043	6.351	0.505
912.000	534.646	80.010	19.994	103.175	20.044	6.302	0.568
914.000	535.603	80.008	19.994	103.177	20.047	6.107	0.487
916.000	536.658	80.008	19.994	103.176	20.048	6.026	0.504
918.000	537.667	80.009	19.994	103.175	20.047	6.115	0.521
920.000	538.641	80.009	19.995	103.165	20.051	5.839	0.493
922.000	539.684	80.010	19.995	103.174	20.054	5.612	0.502
924.000	540.697	80.010	19.994	103.176	20.052	5.757	0.493
926.000	541.695	80.011	19.995	103.169	20.050	5.873	0.474
928.000	542.701	80.009	19.994	103.171	20.051	5.805	0.503
930.000	543.733	80.010	19.994	103.172	20.053	5.650	0.491
932.000	544.733	80.010	19.994	103.168	20.055	5.556	0.510
934.000	545.747	80.009	19.995	103.172	20.056	5.501	0.520
936.000	546.760	80.008	19.996	103.160	20.057	5.438	0.524
938.000	547.722	80.007	19.994	103.170	20.056	5.499	0.510
940.000	548.735	80.009	19.996	103.177	20.058	5.325	0.510
942.000	549.744	80.009	19.995	103.171	20.060	5.210	0.512
944.000	550.744	80.008	19.994	103.168	20.059	5.291	0.472
946.000	551.741	80.008	19.994	103.169	20.058	5.327	0.497
948.000	552.757	80.009	19.995	103.166	20.060	5.174	0.530
950.000	553.736	80.008	19.993	103.174	20.060	5.177	0.504
952.000	554.757	80.009	19.995	103.173	20.064	4.885	0.513
954.000	555.834	80.008	19.995	103.176	20.063	5.015	0.512
956.000	556.870	80.009	19.995	103.175	20.063	5.017	0.524
958.000	557.902	80.007	19.995	103.180	20.062	5.088	0.534
960.000	558.934	80.007	19.994	103.174	20.063	5.006	0.507
962.000	559.940	80.007	19.996	103.163	20.063	5.006	0.481
964.000	561.012	80.006	19.996	103.180	20.061	5.130	0.532
966.000	562.123	80.006	19.995	103.167	20.065	4.872	0.538
968.000	563.163	80.007	19.996	103.185	20.063	4.991	0.573
970.000	564.173	80.005	19.995	103.176	20.064	4.929	0.525
972.000	565.217	80.006	19.994	103.176	20.064	4.937	0.512
974.000	566.274	80.007	19.995	103.176	20.063	4.985	0.537
976.000	567.359	80.007	19.995	103.167	20.061	5.155	0.513
978.000	568.387	80.007	19.995	103.178	20.062	5.060	0.510
980.000	569.441	80.008	19.995	103.181	20.063	5.016	0.533
982.000	570.520	80.008	19.995	103.166	20.064	4.948	0.509
984.000	571.604	80.007	19.995	103.152	20.059	5.242	0.551
986.000	572.652	80.010	19.995	103.166	20.066	4.758	0.524
988.000	573.748	80.008	19.996	103.162	20.062	5.023	0.523
990.000	574.810	80.009	19.996	103.161	20.062	5.023	0.547
992.000	575.851	80.008	19.995	103.153	20.068	4.665	0.527
994.000	576.919	80.007	19.996	103.161	20.068	4.603	0.544
996.001	577.981	80.008	19.995	103.162	20.067	4.675	0.533
998.000	579.023	80.007	19.996	103.158	20.069	4.561	0.516
1000.000	580.075	80.008	19.996	103.173	20.071	4.408	0.550
1002.000	581.073	80.007	19.995	103.166	20.066	4.747	0.493
1004.000	582.121	80.008	19.995	103.155	20.067	4.675	0.522
1006.000	583.156	80.010	19.994	103.164	20.071	4.422	0.511
1008.000	584.190	80.011	19.994	103.170	20.073	4.318	0.503
1010.000	585.223	80.009	19.995	103.147	20.070	4.493	0.522
1012.000	586.238	80.011	19.994	103.164	20.074	4.218	0.510
1014.000	587.261	80.010	19.995	103.157	20.074	4.229	0.521
1016.000	588.228	80.010	19.994	103.154	20.074	4.190	0.502
1018.000	589.244	80.010	19.995	103.174	20.074	4.201	0.531
1020.000	590.240	80.008	19.995	103.157	20.075	4.169	0.519
1022.000	591.246	80.008	19.995	103.162	20.074	4.209	0.504
1024.000	592.231	80.008	19.995	103.168	20.074	4.203	0.490
1026.000	593.241	80.007	19.997	103.167	20.075	4.184	0.502
1028.000	594.267	80.008	19.995	103.175	20.075	4.171	0.499
1030.000	595.288	80.007	19.995	103.166	20.074	4.230	0.513
1032.000	596.320	80.008	19.996	103.176	20.078	3.948	0.503
1034.001	597.327	80.007	19.994	103.175	20.076	4.075	0.512
1036.000	598.281	80.008	19.995	103.172	20.075	4.145	0.477
1038.000	599.294	80.006	19.995	103.176	20.079	3.867	0.482
1040.000	600.306	80.007	19.994	103.178	20.079	3.850	0.512
1042.000	601.292	80.008	19.993	103.169	20.082	3.655	0.479
1044.000	602.239	80.008	19.994	103.171	20.078	3.910	0.479
1046.000	603.248	80.007	19.994	103.174	20.078	3.937	0.480
1048.000	604.282	80.008	19.995	103.180	20.079	3.889	0.492
1050.000	605.261	80.008	19.995	103.168	20.079	3.852	0.519
1052.000	606.271	80.008	19.995	103.167	20.081	3.753	0.517
1054.000	607.261	80.008	19.995	103.159	20.078	3.918	0.517
1056.000	608.292	80.006	19.995	103.170	20.080	3.821	0.520
1058.000	609.295	80.007	19.995	103.173	20.083	3.598	0.518
1060.001	610.244	80.008	19.995	103.167	20.081	3.702	0.482
1062.000	611.310	80.010	19.996	103.161	20.084	3.519	0.531
1064.001	612.345	80.009	19.996	103.163	20.079	3.845	0.509
1066.000	613.340	80.009	19.995	103.172	20.080	3.818	0.528
1068.000	614.340	80.009	19.995	103.167	20.078	3.921	0.520
1070.001	615.362	80.012	19.995	103.167	20.080	3.833	0.514
1072.000	616.395	80.010	19.995	103.169	20.078	3.916	0.507
1074.000	617.379	80.010	19.994	103.163	20.083	3.591	0.509
1076.000	618.427	80.010	19.995	103.158	20.084	3.542	0.514
1078.001	619.419	80.009	19.996	103.171	20.081	3.757	0.500
1080.000	620.456	80.009	19.995	103.156	20.082	3.647	0.491
1082.000	621.455	80.010	19.996	103.170	20.081	3.749	0.514
1084.001	622.478	80.009	19.994	103.164	20.084	3.517	0.490
1086.001	623.563	80.009	19.995	103.176	20.086	3.411	0.529
1088.000	624.610	80.009	19.996	103.172	20.087	3.324	0.534
1090.000	625.614	80.008	19.995	103.171	20.084	3.515	0.538
1092.000	626.669	80.010	19.995	103.154	20.088	3.224	0.536
1094.000	627.719	80.012	19.995	103.166	20.087	3.327	0.527
1096.001	628.712	80.011	19.995	103.153	20.088	3.240	0.501
1098.000	629.751	80.010	19.995	103.155	20.085	3.428	0.508
1100.001	630.766	80.010	19.994	103.148	20.088	3.219	0.488
1102.000	631.859	80.010	19.994	103.165	20.088	3.236	0.550
1104.000	632.842	80.008	19.994	103.169	20.087	3.325	0.510
1106.000	633.889	80.007	19.994	103.172	20.084	3.506	0.535
1108.000	634.945	80.009	19.994	103.166	20.083	3.561	0.525
1110.001	636.045	80.009	19.995	103.177	20.086	3.376	0.537
1112.000	637.017	80.007	19.994	103.169	20.088	3.264	0.522
1114.000	638.061	80.009	19.994	103.174	20.088	3.262	0.529
1116.000	639.066	80.008	19.995	103.169	20.088	3.245	0.521
1118.000	640.087	80.011	19.995	103.168	20.087	3.334	0.490
1120.000	641.061	80.009	19.995	103.173	20.091	3.060	0.495
1122.000	642.063	80.009	19.995	103.168	20.088	3.213	0.515
1124.000	643.122	80.009	19.995	103.165	20.092	2.996	0.526
1126.001	644.085	80.008	19.995	103.174	20.088	3.240	0.486
1128.000	645.108	80.009	19.994	103.173	20.088	3.255	0.522
1130.000	646.096	80.008	19.994	103.175	20.088	3.230	0.511
1132.000	647.133	80.008	19.995	103.173	20.091	3.028	0.543
1134.000	648.131	80.008	19.995	103.175	20.090	3.129	0.493
1136.000	649.107	80.008	19.995	103.176	20.088	3.211	0.491
1138.001	650.151	80.007	19.995	103.176	20.090	3.090	0.529
1140.000	651.140	80.008	19.995	103.174	20.088	3.216	0.482
1142.001	652.095	80.008	19.995	103.153	20.090	3.107	0.472
1144.000	653.088	80.009	19.995	103.156	20.091	3.001	0.467
1146.001	654.093	80.008	19.994	103.152	20.093	2.899	0.529
1148.001	655.092	80.009	19.995	103.154	20.093	2.865	0.505
1150.000	656.095	80.009	19.995	103.140	20.090	3.100	0.524
1152.000	657.013	80.011	19.994	103.147	20.091	3.012	0.464
1154.000	657.984	80.010	19.995	103.161	20.089	3.169	0.508
1156.001	658.995	80.009	19.995	103.160	20.092	2.937	0.527
1158.000	659.931	80.010	19.995	103.141	20.097	2.597	0.481
1160.000	660.951	80.009	19.994	103.157	20.090	3.115	0.478
1162.000	661.948	80.008	19.995	103.152	20.093	2.911	0.487
1164.001	662.921	80.009	19.996	103.140	20.092	2.971	0.474
1166.000	663.949	80.008	19.995	103.151	20.089	3.168	0.509
1168.000	664.955	80.008	19.995	103.143	20.094	2.805	0.524
1170.000	665.939	80.009	19.995	103.161	20.094	2.797	0.476
1172.000	667.006	80.010	19.994	103.168	20.092	2.950	0.519
1174.000	668.010	80.009	19.995	103.169	20.097	2.646	0.487
1176.001	669.043	80.010	19.995	103.164	20.094	2.806	0.507
1178.000	670.080	80.010	19.994	103.173	20.097	2.589	0.516
1180.001	671.104	80.010	19.994	103.168	20.096	2.678	0.540
1182.000	672.122	80.011	19.995	103.151	20.094	2.801	0.517
1184.001	673.194	80.009	19.995	103.139	20.095	2.771	0.546
1186.000	674.254	80.008	19.996	103.147	20.096	2.665	0.550
1188.000	675.228	80.007	19.996	103.136	20.095	2.775	0.490
1190.000	676.286	80.007	19.996	103.134	20.096	2.691	0.534
1192.001	677.354	80.008	19.996	103.143	20.094	2.792	0.548
1194.000	678.381	80.007	19.995	103.145	20.094	2.803	0.516
1196.000	679.385	80.007	19.995	103.145	20.096	2.706	0.504
1198.001	680.500	80.008	19.994	103.152	20.097	2.637	0.541
1200.000	681.471	80.008	19.995	103.146	20.096	2.680	0.510
1202.000	682.521	80.009	19.993	103.160	20.098	2.550	0.557
1204.000	683.559	80.009	19.995	103.162	20.098	2.554	0.510
1206.000	684.575	80.009	19.994	103.152	20.098	2.544	0.483
1208.001	685.610	80.010	19.995	103.149	20.098	2.544	0.501
1210.000	686.624	80.009	19.994	103.152	20.094	2.831	0.507
1212.000	687.688	80.008	19.995	103.147	20.097	2.635	0.506
1214.000	688.682	80.008	19.995	103.151	20.097	2.644	0.510
1216.000	689.746	80.009	19.995	103.149	20.096	2.712	0.520
1218.000	690.762	80.008	19.995	103.159	20.101	2.352	0.528
1220.001	691.808	80.006	19.995	103.165	20.103	2.183	0.535
1222.001	692.814	80.009	19.995	103.164	20.104	2.119	0.521
1224.000	693.838	80.008	19.994	103.157	20.102	2.257	0.503
1226.000	694.903	80.007	19.995	103.168	20.102	2.235	0.522
1228.000	695.929	80.008	19.995	103.151	20.102	2.246	0.496
1230.000	696.976	80.009	19.993	103.163	20.099	2.468	0.510
1232.001	698.047	80.009	19.994	103.155	20.103	2.215	0.528
1234.001	699.058	80.009	19.994	103.158	20.101	2.357	0.504
1236.000	700.107	80.009	19.994	103.161	20.104	2.096	0.529
1238.000	701.126	80.009	19.994	103.159	20.103	2.208	0.489
1240.000	702.112	80.009	19.994	103.153	20.101	2.357	0.536
1242.000	703.140	80.010	19.993	103.140	20.101	2.306	0.527
1244.001	704.104	80.008	19.994	103.144	20.100	2.425	0.468
1246.000	705.144	80.010	19.994	103.143	20.101	2.353	0.491
1248.000	706.141	80.010	19.996	103.139	20.097	2.642	0.498
1250.000	707.146	80.009	19.995	103.138	20.098	2.513	0.490
1252.000	708.144	80.010	19.995	103.143	20.097	2.631	0.522
1254.001	709.131	80.011	19.995	103.151	20.096	2.676	0.515
1256.000	710.110	80.009	19.995	103.146	20.098	2.559	0.481
1258.000	711.090	80.010	19.994	103.135	20.095	2.751	0.470
1260.000	712.069	80.010	19.994	103.140	20.095	2.740	0.479
1262.000	713.047	80.010	19.995	103.135	20.101	2.372	0.493
1264.000	714.041	80.008	19.993	103.137	20.096	2.706	0.500
1266.001	715.039	80.010	19.995	103.134	20.098	2.521	0.508
1268.000	716.026	80.009	19.994	103.134	20.097	2.625	0.507
1270.000	717.081	80.009	19.995	103.138	20.097	2.619	0.512
1272.000	718.085	80.008	19.995	103.140	20.099	2.480	0.488
1274.000	719.072	80.007	19.995	103.140	20.096	2.661	0.492
1276.000	720.106	80.007	19.995	103.136	20.098	2.563	0.532
1278.000	721.088	80.006	19.995	103.136	20.101	2.361	0.506
1280.000	722.164	80.007	19.996	103.135	20.100	2.389	0.527
1282.000	723.172	80.006	19.995	103.147	20.101	2.306	0.489
1284.000	724.192	80.006	19.996	103.134	20.100	2.440	0.495
1286.001	725.244	80.007	19.996	103.137	20.103	2.181	0.511
1288.000	726.246	80.008	19.996	103.143	20.102	2.251	0.498
1290.000	727.262	80.007	19.995	103.132	20.105	2.057	0.475
1292.001	728.306	80.008	19.995	103.138	20.103	2.202	0.512
1294.000	729.332	80.007	19.996	103.138	20.106	1.992	0.480
1296.000	730.324	80.009	19.995	103.146	20.106	2.024	0.493
1298.001	731.317	80.006	19.995	103.147	20.106	2.009	0.493
1300.001	732.400	80.007	19.995	103.147	20.106	2.017	0.543
1302.000	733.356	80.007	19.994	103.140	20.103	2.206	0.507
1304.000	734.359	80.006	19.994	103.140	20.104	2.132	0.489
1306.000	735.371	80.007	19.994	103.135	20.105	2.036	0.483
1308.000	736.371	80.007	19.994	103.140	20.102	2.272	0.494
1310.001	737.360	80.008	19.995	103.141	20.103	2.232	0.476
1312.000	738.347	80.009	19.994	103.132	20.101	2.321	0.533
1314.000	739.348	80.009	19.994	103.135	20.107	1.947	0.489
1316.000	740.340	80.009	19.995	103.135	20.101	2.326	0.517
1318.000	741.359	80.010	19.995	103.134	20.104	2.151	0.495
1320.000	742.354	80.009	19.995	103.136	20.102	2.278	0.480
1322.000	743.358	80.009	19.995	103.135	20.104	2.119	0.516