File: 01_Data/PEX_Pipe/MCC/PEX_Pipe_MCC_30K_min_220128_R1.txt
Sample ID:	C:\MCC\MCC Cal\Test\PEX_Pipe_MCC_30K_min_220128_R1.txt
Sample Weight (mg):	4.27
Heating Rate (C/s):	0.5
Combustor Temp (C):	900
N2 Flow Rate (cc/min):	80
O2 Flow Rate (cc/min):	20
Calibration File:	C:\MCC\MCC Cal\Coeff1 JN10440_30_210304.txt.txt
T Correction Coefficients:	0	1.024463	0
Time Shift (s):	14
*
Time (s)	Temperature (C)	N2 flow rate (cc/min)	O2 flow rate (cc/min)	Flow Rate (cc/min)	Oxygen (%)	HRR (W/g)	Heating rate (C/s)
0.000	110.415	80.017	19.992	103.736	19.969	0.488	0.019
2.000	110.415	80.021	19.992	103.725	19.971	0.292	-0.019
4.000	110.360	80.007	19.996	103.733	19.970	0.384	-0.018
6.000	110.398	80.016	19.991	103.721	19.967	0.611	0.020
8.000	110.374	80.018	19.991	103.752	19.967	0.617	0.009
10.000	110.387	80.014	19.993	103.786	19.962	1.012	0.011
12.000	110.402	80.003	19.993	103.785	19.962	1.008	0.020
14.000	110.456	80.004	19.995	103.816	19.960	1.123	0.036
16.000	110.559	80.008	19.993	103.826	19.956	1.463	0.041
18.000	110.649	80.009	19.993	103.856	19.954	1.594	0.063
20.000	110.734	80.004	19.994	103.856	19.951	1.857	0.056
22.000	110.862	80.007	19.993	103.872	19.947	2.137	0.028
24.000	111.070	80.012	19.994	103.880	19.942	2.548	0.094
26.000	111.161	80.002	19.996	103.894	19.944	2.395	0.045
28.000	111.453	80.009	19.993	103.895	19.940	2.667	0.101
30.000	111.721	80.007	19.993	103.900	19.942	2.523	0.160
32.000	111.980	80.008	19.994	103.895	19.939	2.782	0.143
33.999	112.246	80.007	19.994	103.896	19.939	2.723	0.159
35.999	112.599	80.006	19.993	103.887	19.938	2.809	0.174
37.999	112.879	80.007	19.993	103.892	19.941	2.623	0.138
39.999	113.282	80.007	19.994	103.897	19.939	2.784	0.177
41.999	113.658	80.007	19.994	103.902	19.940	2.669	0.163
43.999	114.047	80.007	19.993	103.901	19.939	2.724	0.199
45.999	114.472	80.006	19.994	103.907	19.937	2.873	0.206
48.000	114.858	80.004	19.994	103.910	19.937	2.869	0.215
50.000	115.290	80.009	19.993	103.907	19.939	2.777	0.221
51.999	115.747	80.017	19.993	103.910	19.936	2.994	0.249
54.000	116.168	80.017	19.992	103.920	19.937	2.929	0.196
56.000	116.627	80.003	19.995	103.939	19.938	2.858	0.200
57.999	117.159	80.011	19.994	103.938	19.933	3.178	0.269
59.999	117.687	80.010	19.993	103.943	19.933	3.222	0.283
62.000	118.210	80.008	19.994	103.940	19.934	3.156	0.275
64.000	118.761	80.008	19.995	103.941	19.930	3.408	0.278
65.999	119.315	80.005	19.994	103.937	19.928	3.571	0.281
67.999	119.884	80.007	19.993	103.944	19.926	3.707	0.267
69.999	120.485	80.012	19.993	103.945	19.926	3.713	0.316
71.999	121.109	80.011	19.993	103.963	19.926	3.768	0.293
74.000	121.748	80.002	19.994	103.972	19.925	3.851	0.338
75.999	122.353	80.006	19.996	103.977	19.925	3.830	0.296
77.999	123.048	80.016	19.995	103.975	19.924	3.887	0.356
80.000	123.713	80.010	19.994	103.978	19.924	3.884	0.322
81.999	124.388	80.006	19.994	103.978	19.922	4.024	0.345
83.999	125.136	80.011	19.993	103.978	19.923	3.964	0.356
85.999	125.857	80.017	19.993	103.978	19.925	3.836	0.374
88.000	126.625	80.008	19.994	103.975	19.924	3.916	0.376
89.999	127.358	80.009	19.995	103.977	19.924	3.902	0.386
92.000	128.092	80.010	19.995	103.973	19.927	3.687	0.339
93.999	128.921	80.008	19.994	103.975	19.925	3.788	0.393
95.999	129.716	80.008	19.994	103.975	19.926	3.723	0.412
97.999	130.523	80.009	19.994	103.981	19.926	3.731	0.398
99.999	131.341	80.007	19.994	104.004	19.919	4.268	0.417
102.001	132.140	80.008	19.994	104.003	19.923	3.965	0.400
103.999	133.010	80.008	19.993	104.004	19.918	4.337	0.430
105.999	133.895	80.006	19.993	104.005	19.919	4.264	0.414
108.000	134.760	80.009	19.994	104.007	19.915	4.560	0.457
109.999	135.670	80.006	19.994	104.015	19.920	4.187	0.463
111.999	136.562	80.007	19.993	104.016	19.915	4.579	0.442
113.999	137.492	80.007	19.992	104.014	19.917	4.422	0.468
115.999	138.435	80.007	19.993	104.012	19.916	4.502	0.483
118.000	139.330	80.008	19.993	103.999	19.916	4.491	0.516
119.999	140.292	80.007	19.993	104.008	19.914	4.625	0.467
121.999	141.265	80.008	19.995	104.013	19.916	4.497	0.481
123.999	142.271	80.007	19.993	104.003	19.920	4.205	0.531
125.999	143.182	80.009	19.993	103.987	19.918	4.320	0.480
127.999	144.222	80.007	19.994	104.001	19.920	4.226	0.532
130.000	145.182	80.008	19.993	104.003	19.917	4.388	0.497
132.000	146.194	80.009	19.993	103.997	19.919	4.263	0.529
134.000	147.194	80.008	19.993	103.991	19.920	4.219	0.519
136.000	148.207	80.009	19.993	103.994	19.921	4.129	0.498
138.000	149.244	80.010	19.993	103.998	19.921	4.094	0.536
140.000	150.253	80.011	19.995	103.991	19.920	4.177	0.519
142.000	151.201	80.009	19.993	103.986	19.921	4.137	0.517
144.000	152.275	80.009	19.993	103.981	19.920	4.175	0.514
146.000	153.295	80.009	19.993	103.975	19.922	4.014	0.489
148.000	154.302	80.010	19.993	103.976	19.924	3.928	0.520
150.000	155.307	80.007	19.994	103.981	19.923	3.947	0.490
152.000	156.331	80.006	19.994	103.976	19.925	3.849	0.527
154.000	157.354	80.007	19.995	103.975	19.927	3.657	0.494
156.000	158.377	80.007	19.996	103.981	19.923	3.968	0.515
158.000	159.403	80.007	19.994	103.977	19.923	3.953	0.502
160.000	160.425	80.008	19.993	103.975	19.927	3.684	0.521
162.000	161.505	80.006	19.994	103.975	19.924	3.915	0.517
164.000	162.494	80.010	19.994	103.975	19.928	3.615	0.507
166.000	163.599	80.011	19.993	103.974	19.927	3.698	0.543
168.000	164.627	80.010	19.994	103.974	19.927	3.677	0.539
170.000	165.670	80.010	19.993	103.974	19.925	3.829	0.526
172.000	166.703	80.008	19.994	103.962	19.927	3.695	0.509
174.000	167.730	80.007	19.993	103.959	19.928	3.606	0.514
176.000	168.745	80.009	19.993	103.953	19.928	3.570	0.522
178.000	169.744	80.010	19.995	103.959	19.928	3.604	0.505
180.000	170.784	80.009	19.994	103.951	19.926	3.731	0.522
182.000	171.774	80.007	19.994	103.940	19.925	3.796	0.510
184.000	172.818	80.008	19.994	103.952	19.926	3.731	0.521
186.000	173.812	80.007	19.994	103.952	19.926	3.767	0.498
188.000	174.838	80.008	19.994	103.942	19.926	3.770	0.521
190.000	175.867	80.008	19.994	103.950	19.929	3.518	0.552
192.000	176.839	80.007	19.993	103.943	19.926	3.756	0.483
194.000	177.847	80.007	19.993	103.942	19.926	3.714	0.480
195.999	178.849	80.007	19.995	103.948	19.931	3.346	0.506
198.000	179.856	80.006	19.993	103.942	19.926	3.731	0.507
200.000	180.824	80.007	19.991	103.940	19.930	3.418	0.505
201.999	181.843	80.008	19.993	103.939	19.927	3.672	0.493
204.000	182.848	80.009	19.994	103.939	19.927	3.628	0.510
205.999	183.850	80.008	19.994	103.937	19.929	3.503	0.506
208.000	184.814	80.007	19.994	103.935	19.929	3.516	0.485
209.999	185.828	80.007	19.993	103.937	19.930	3.461	0.497
212.000	186.817	80.006	19.994	103.938	19.929	3.499	0.482
213.999	187.844	80.007	19.993	103.937	19.926	3.764	0.512
216.000	188.797	80.006	19.995	103.934	19.925	3.812	0.476
217.999	189.799	80.010	19.993	103.936	19.928	3.553	0.514
219.999	190.751	80.009	19.993	103.936	19.924	3.873	0.488
221.999	191.730	80.009	19.994	103.935	19.926	3.716	0.500
224.000	192.703	80.010	19.993	103.926	19.927	3.649	0.494
226.000	193.655	80.009	19.995	103.932	19.926	3.727	0.467
227.999	194.637	80.011	19.993	103.935	19.924	3.860	0.464
229.999	195.580	80.011	19.993	103.937	19.929	3.493	0.467
231.999	196.552	80.009	19.994	103.938	19.927	3.657	0.492
233.999	197.488	80.007	19.994	103.938	19.926	3.751	0.461
236.000	198.512	80.010	19.993	103.937	19.927	3.666	0.503
237.999	199.480	80.005	19.993	103.941	19.929	3.547	0.497
240.000	200.460	80.008	19.994	103.942	19.929	3.505	0.516
242.000	201.409	80.010	19.992	103.937	19.925	3.779	0.499
243.999	202.368	80.009	19.994	103.929	19.928	3.605	0.505
245.999	203.356	80.010	19.993	103.935	19.928	3.574	0.486
248.000	204.362	80.010	19.993	103.932	19.929	3.478	0.503
249.999	205.331	80.009	19.993	103.939	19.928	3.603	0.481
252.000	206.347	80.011	19.993	103.938	19.929	3.486	0.487
253.999	207.353	80.010	19.993	103.935	19.926	3.758	0.493
256.000	208.333	80.009	19.995	103.939	19.929	3.524	0.510
257.999	209.312	80.007	19.995	103.937	19.930	3.430	0.504
260.000	210.316	80.007	19.993	103.937	19.925	3.789	0.492
261.999	211.298	80.008	19.993	103.934	19.927	3.682	0.526
264.000	212.256	80.007	19.995	103.939	19.924	3.910	0.480
265.999	213.311	80.007	19.994	103.933	19.928	3.601	0.521
267.999	214.280	80.006	19.994	103.937	19.928	3.586	0.517
269.999	215.282	80.008	19.993	103.935	19.928	3.574	0.526
271.999	216.234	80.008	19.993	103.926	19.929	3.477	0.506
273.999	217.211	80.009	19.994	103.932	19.927	3.688	0.475
276.000	218.195	80.006	19.994	103.929	19.927	3.665	0.501
278.000	219.170	80.009	19.995	103.926	19.926	3.721	0.495
279.999	220.167	80.008	19.994	103.926	19.929	3.492	0.497
281.999	221.199	80.006	19.995	103.917	19.924	3.887	0.496
284.000	222.168	80.008	19.993	103.910	19.927	3.663	0.527
285.999	223.181	80.009	19.993	103.910	19.927	3.634	0.519
288.000	224.125	80.007	19.993	103.913	19.929	3.531	0.479
290.000	225.093	80.006	19.993	103.919	19.925	3.824	0.494
291.999	226.105	80.008	19.993	103.924	19.928	3.611	0.516
293.999	227.083	80.008	19.994	103.916	19.928	3.559	0.485
295.999	228.033	80.007	19.993	103.920	19.927	3.678	0.470
298.000	229.078	80.008	19.994	103.917	19.927	3.667	0.514
300.000	230.065	80.008	19.994	103.918	19.928	3.575	0.480
301.999	231.070	80.008	19.995	103.934	19.927	3.653	0.490
303.999	232.039	80.007	19.994	103.917	19.926	3.719	0.496
305.999	233.040	80.010	19.993	103.916	19.928	3.575	0.529
308.000	234.027	80.008	19.993	103.925	19.928	3.563	0.487
309.999	234.998	80.008	19.993	103.909	19.928	3.617	0.512
311.999	236.002	80.009	19.993	103.915	19.928	3.600	0.480
313.999	236.971	80.009	19.993	103.907	19.925	3.826	0.471
315.999	237.907	80.009	19.995	103.906	19.928	3.617	0.457
317.999	238.925	80.007	19.994	103.915	19.927	3.677	0.517
319.999	239.878	80.009	19.991	103.907	19.928	3.606	0.470
321.999	240.847	80.008	19.993	103.903	19.929	3.479	0.494
323.999	241.820	80.007	19.993	103.905	19.931	3.322	0.479
325.999	242.783	80.010	19.993	103.910	19.931	3.387	0.498
327.999	243.749	80.009	19.993	103.904	19.929	3.495	0.462
330.000	244.728	80.011	19.993	103.904	19.931	3.372	0.490
331.999	245.694	80.010	19.993	103.900	19.930	3.422	0.456
334.000	246.677	80.010	19.993	103.897	19.929	3.489	0.488
336.000	247.647	80.009	19.994	103.903	19.927	3.648	0.472
337.999	248.626	80.010	19.994	103.899	19.930	3.400	0.507
339.999	249.613	80.007	19.993	103.898	19.932	3.289	0.486
341.999	250.602	80.007	19.994	103.898	19.928	3.623	0.484
343.999	251.568	80.007	19.995	103.898	19.927	3.673	0.465
345.999	252.504	80.007	19.994	103.899	19.926	3.765	0.511
347.999	253.478	80.006	19.994	103.899	19.928	3.564	0.496
349.999	254.387	80.007	19.993	103.898	19.929	3.510	0.452
351.999	255.433	80.007	19.993	103.899	19.930	3.416	0.517
353.999	256.390	80.009	19.993	103.898	19.929	3.481	0.451
356.000	257.278	80.007	19.994	103.899	19.926	3.752	0.455
358.000	258.223	80.007	19.993	103.898	19.929	3.539	0.469
360.000	259.187	80.008	19.993	103.899	19.929	3.527	0.481
361.999	260.171	80.007	19.994	103.901	19.929	3.481	0.466
363.999	261.117	80.008	19.995	103.907	19.928	3.602	0.478
365.999	262.066	80.006	19.993	103.897	19.930	3.400	0.441
367.999	263.048	80.008	19.994	103.899	19.927	3.661	0.460
369.999	264.021	80.009	19.994	103.901	19.928	3.588	0.478
371.999	264.960	80.007	19.993	103.903	19.925	3.817	0.465
374.000	265.937	80.005	19.994	103.896	19.925	3.818	0.476
375.999	266.921	80.006	19.994	103.906	19.926	3.761	0.462
378.000	267.918	80.006	19.996	103.913	19.925	3.824	0.507
379.999	268.844	80.008	19.994	103.915	19.925	3.780	0.454
381.999	269.882	80.008	19.994	103.910	19.924	3.884	0.526
383.999	270.879	80.008	19.994	103.923	19.925	3.821	0.508
385.999	271.888	80.009	19.993	103.911	19.926	3.711	0.514
387.999	272.898	80.009	19.993	103.917	19.927	3.679	0.526
389.999	273.885	80.008	19.993	103.915	19.925	3.808	0.490
392.000	274.891	80.009	19.993	103.905	19.926	3.754	0.496
393.999	275.919	80.009	19.993	103.906	19.924	3.871	0.530
395.999	276.934	80.010	19.993	103.907	19.926	3.746	0.526
398.000	277.971	80.009	19.992	103.902	19.922	4.009	0.512
400.000	278.932	80.008	19.993	103.898	19.926	3.756	0.482
402.000	280.000	80.009	19.995	103.897	19.925	3.831	0.537
403.999	280.979	80.009	19.993	103.899	19.930	3.452	0.505
405.999	281.983	80.010	19.993	103.899	19.930	3.470	0.493
407.999	282.948	80.011	19.995	103.894	19.928	3.568	0.475
410.000	284.014	80.012	19.992	103.898	19.929	3.539	0.534
411.999	285.005	80.010	19.994	103.895	19.926	3.741	0.502
413.999	286.009	80.012	19.993	103.898	19.927	3.675	0.479
415.999	286.973	80.011	19.993	103.893	19.922	4.011	0.487
417.999	288.016	80.010	19.993	103.890	19.926	3.748	0.495
419.999	288.973	80.009	19.994	103.898	19.926	3.760	0.492
421.999	289.960	80.009	19.993	103.897	19.927	3.646	0.520
424.000	290.955	80.007	19.994	103.889	19.928	3.616	0.509
425.999	291.887	80.007	19.993	103.898	19.927	3.685	0.462
427.999	292.878	80.007	19.994	103.891	19.927	3.667	0.491
430.000	293.844	80.007	19.994	103.895	19.925	3.815	0.486
431.999	294.834	80.006	19.994	103.889	19.925	3.848	0.481
433.999	295.820	80.007	19.994	103.894	19.927	3.696	0.492
436.000	296.769	80.008	19.996	103.898	19.925	3.821	0.517
438.000	297.725	80.007	19.995	103.895	19.924	3.879	0.511
440.000	298.690	80.007	19.995	103.897	19.923	3.961	0.488
441.999	299.670	80.007	19.994	103.896	19.926	3.763	0.475
443.999	300.624	80.008	19.994	103.892	19.924	3.915	0.465
445.999	301.595	80.007	19.993	103.886	19.923	3.934	0.501
447.999	302.562	80.007	19.994	103.899	19.923	3.988	0.473
449.999	303.558	80.007	19.993	103.892	19.921	4.088	0.498
451.999	304.507	80.005	19.994	103.900	19.922	4.073	0.472
453.999	305.512	80.007	19.994	103.901	19.923	3.992	0.495
455.999	306.503	80.007	19.994	103.897	19.921	4.092	0.479
457.999	307.478	80.007	19.994	103.891	19.921	4.134	0.487
460.000	308.454	80.006	19.994	103.897	19.922	4.060	0.481
462.000	309.479	80.008	19.995	103.892	19.924	3.865	0.507
463.999	310.470	80.007	19.995	103.892	19.924	3.906	0.491
465.999	311.437	80.007	19.994	103.882	19.921	4.127	0.490
467.999	312.458	80.008	19.994	103.890	19.922	4.009	0.518
469.999	313.449	80.008	19.994	103.892	19.924	3.877	0.510
471.999	314.488	80.009	19.994	103.884	19.926	3.708	0.500
473.999	315.463	80.009	19.994	103.890	19.922	4.054	0.483
475.999	316.461	80.009	19.994	103.889	19.919	4.244	0.501
477.999	317.477	80.009	19.993	103.884	19.919	4.293	0.505
480.000	318.434	80.009	19.993	103.891	19.918	4.330	0.497
481.999	319.460	80.008	19.993	103.892	19.919	4.280	0.525
483.999	320.481	80.008	19.994	103.880	19.919	4.297	0.526
485.999	321.482	80.009	19.993	103.887	19.916	4.478	0.501
488.000	322.465	80.009	19.994	103.896	19.919	4.282	0.506
489.999	323.421	80.009	19.995	103.889	19.919	4.280	0.469
492.000	324.446	80.011	19.994	103.883	19.919	4.265	0.510
493.999	325.443	80.011	19.992	103.891	19.920	4.191	0.504
496.000	326.437	80.011	19.995	103.894	19.919	4.276	0.501
497.999	327.456	80.010	19.994	103.884	19.922	4.033	0.501
500.000	328.504	80.008	19.993	103.879	19.919	4.290	0.517
501.999	329.540	80.008	19.994	103.891	19.920	4.213	0.523
503.999	330.525	80.007	19.994	103.876	19.920	4.159	0.513
506.000	331.576	80.007	19.993	103.879	19.919	4.251	0.515
507.999	332.589	80.008	19.993	103.886	19.921	4.123	0.518
509.999	333.619	80.007	19.993	103.887	19.917	4.391	0.509
511.999	334.647	80.008	19.993	103.878	19.919	4.304	0.499
514.000	335.665	80.007	19.993	103.892	19.918	4.308	0.511
515.999	336.673	80.007	19.991	103.891	19.914	4.634	0.492
518.000	337.722	80.007	19.994	103.893	19.917	4.451	0.547
520.000	338.791	80.007	19.993	103.888	19.919	4.238	0.542
521.999	339.787	80.009	19.993	103.886	19.916	4.465	0.533
523.999	340.810	80.008	19.993	103.875	19.918	4.315	0.482
526.000	341.790	80.007	19.993	103.880	19.916	4.494	0.485
528.000	342.795	80.007	19.993	103.889	19.916	4.488	0.485
530.000	343.787	80.006	19.993	103.879	19.916	4.505	0.485
531.999	344.833	80.008	19.993	103.879	19.917	4.423	0.511
533.999	345.868	80.007	19.994	103.869	19.917	4.452	0.502
535.999	346.899	80.008	19.994	103.870	19.917	4.448	0.496
537.999	347.903	80.007	19.995	103.867	19.916	4.514	0.524
540.000	348.946	80.006	19.994	103.878	19.912	4.811	0.493
542.000	349.946	80.006	19.995	103.876	19.913	4.715	0.522
543.999	350.968	80.007	19.993	103.860	19.911	4.842	0.501
545.999	351.983	80.009	19.994	103.862	19.911	4.857	0.511
547.999	352.999	80.008	19.995	103.861	19.913	4.738	0.521
550.000	353.984	80.010	19.993	103.862	19.910	4.934	0.495
551.999	355.056	80.008	19.994	103.867	19.910	4.921	0.548
554.000	355.993	80.008	19.994	103.871	19.912	4.806	0.496
555.999	357.003	80.010	19.996	103.868	19.909	5.059	0.502
557.999	357.994	80.010	19.994	103.876	19.907	5.195	0.492
560.000	359.026	80.007	19.994	103.866	19.909	5.051	0.500
561.999	360.047	80.008	19.995	103.865	19.905	5.320	0.521
563.999	361.059	80.008	19.995	103.862	19.904	5.414	0.524
565.999	362.065	80.008	19.993	103.862	19.903	5.487	0.523
568.000	363.084	80.009	19.993	103.876	19.903	5.447	0.511
569.999	364.073	80.009	19.993	103.870	19.904	5.416	0.491
572.000	365.106	80.010	19.993	103.864	19.896	5.986	0.551
573.999	366.144	80.010	19.993	103.865	19.897	5.962	0.549
575.999	367.178	80.010	19.993	103.864	19.894	6.192	0.528
578.000	368.223	80.010	19.993	103.863	19.894	6.151	0.539
579.999	369.230	80.009	19.992	103.869	19.891	6.410	0.513
581.999	370.273	80.008	19.993	103.868	19.890	6.478	0.536
584.000	371.313	80.008	19.993	103.869	19.888	6.632	0.521
586.000	372.334	80.007	19.994	103.867	19.885	6.863	0.524
588.001	373.416	80.008	19.993	103.869	19.880	7.249	0.526
590.000	374.479	80.008	19.994	103.882	19.881	7.118	0.526
591.999	375.530	80.007	19.995	103.872	19.879	7.316	0.520
593.999	376.559	80.007	19.993	103.873	19.875	7.602	0.546
596.000	377.640	80.007	19.993	103.860	19.878	7.393	0.535
597.999	378.694	80.007	19.994	103.859	19.876	7.569	0.503
599.999	379.715	80.007	19.993	103.861	19.874	7.685	0.510
602.000	380.768	80.008	19.993	103.860	19.871	7.922	0.529
603.999	381.829	80.007	19.994	103.868	19.869	8.033	0.540
605.999	382.891	80.007	19.993	103.861	19.864	8.455	0.528
607.999	383.923	80.007	19.993	103.862	19.863	8.482	0.543
609.999	385.021	80.008	19.992	103.857	19.863	8.526	0.570
612.000	386.095	80.006	19.994	103.801	19.862	8.632	0.549
613.999	387.140	80.008	19.993	103.900	19.859	8.801	0.540
615.999	388.236	80.008	19.995	103.862	19.856	9.049	0.525
618.000	389.268	80.007	19.994	103.859	19.850	9.508	0.538
619.999	390.315	80.007	19.994	103.859	19.850	9.525	0.505
622.000	391.392	80.009	19.994	103.857	19.847	9.707	0.543
623.999	392.445	80.006	19.995	103.856	19.845	9.884	0.536
626.000	393.501	80.008	19.995	103.855	19.844	9.936	0.547
628.000	394.571	80.007	19.994	103.855	19.840	10.253	0.532
629.999	395.614	80.008	19.993	103.853	19.838	10.396	0.490
632.000	396.642	80.008	19.994	103.859	19.835	10.622	0.522
633.999	397.666	80.008	19.994	103.856	19.833	10.781	0.512
635.999	398.734	80.009	19.994	103.856	19.837	10.528	0.506
637.999	399.780	80.009	19.993	103.854	19.832	10.854	0.530
639.999	400.823	80.009	19.994	103.848	19.828	11.155	0.490
642.000	401.853	80.008	19.993	103.840	19.828	11.173	0.518
643.999	402.860	80.007	19.994	103.845	19.825	11.388	0.524
645.999	403.906	80.006	19.994	103.858	19.823	11.585	0.528
648.000	404.945	80.007	19.993	103.846	19.819	11.866	0.511
649.999	405.976	80.006	19.994	103.841	19.822	11.651	0.545
651.999	407.035	80.007	19.994	103.843	19.825	11.366	0.526
653.999	407.984	80.007	19.994	103.840	19.821	11.681	0.450
656.000	409.095	80.009	19.994	103.837	19.821	11.727	0.558
657.999	410.012	80.009	19.994	103.837	19.820	11.780	0.474
659.999	411.079	80.008	19.995	103.852	19.821	11.714	0.543
661.999	412.056	80.009	19.992	103.833	19.819	11.840	0.493
663.999	413.035	80.008	19.993	103.834	19.820	11.808	0.491
666.000	414.011	80.007	19.993	103.836	19.815	12.176	0.469
667.999	414.995	80.007	19.994	103.831	19.812	12.368	0.468
670.000	415.982	80.008	19.994	103.832	19.808	12.660	0.492
671.999	416.939	80.006	19.994	103.845	19.808	12.660	0.480
674.000	417.957	80.009	19.994	103.827	19.804	12.994	0.506
676.000	418.927	80.007	19.995	103.833	19.803	13.064	0.478
677.999	419.932	80.006	19.994	103.839	19.796	13.573	0.492
680.000	420.946	80.008	19.994	103.837	19.792	13.927	0.492
682.000	421.898	80.008	19.994	103.829	19.788	14.175	0.474
683.999	422.888	80.009	19.993	103.822	19.782	14.695	0.483
685.999	423.873	80.008	19.994	103.835	19.774	15.271	0.497
688.000	424.837	80.009	19.993	103.835	19.764	16.036	0.473
689.999	425.846	80.008	19.994	103.832	19.759	16.396	0.507
691.999	426.822	80.008	19.993	103.829	19.746	17.390	0.472
693.999	427.831	80.008	19.994	103.830	19.740	17.816	0.490
695.999	428.772	80.007	19.994	103.832	19.728	18.739	0.493
698.000	429.720	80.008	19.995	103.837	19.714	19.784	0.466
699.999	430.761	80.007	19.993	103.830	19.708	20.297	0.490
701.999	431.715	80.007	19.994	103.825	19.697	21.095	0.467
704.000	432.707	80.009	19.993	103.824	19.682	22.215	0.507
706.000	433.698	80.007	19.994	103.832	19.671	23.087	0.502
708.000	434.744	80.008	19.993	103.833	19.656	24.238	0.515
709.999	435.708	80.007	19.994	103.823	19.644	25.146	0.508
711.999	436.719	80.006	19.993	103.823	19.629	26.271	0.512
714.000	437.724	80.006	19.995	103.822	19.617	27.150	0.520
716.000	438.711	80.009	19.994	103.821	19.605	28.056	0.480
718.000	439.697	80.009	19.993	103.823	19.588	29.394	0.488
719.999	440.679	80.009	19.994	103.818	19.568	30.852	0.478
721.999	441.683	80.008	19.994	103.816	19.547	32.455	0.496
723.999	442.655	80.009	19.995	103.803	19.522	34.365	0.483
725.999	443.646	80.008	19.994	103.810	19.488	36.935	0.506
727.999	444.655	80.008	19.995	103.817	19.455	39.456	0.498
729.999	445.623	80.009	19.994	103.813	19.417	42.298	0.468
731.999	446.664	80.009	19.994	103.791	19.382	44.973	0.502
734.000	447.649	80.008	19.995	103.780	19.343	47.930	0.499
736.000	448.620	80.009	19.995	103.780	19.297	51.396	0.512
738.000	449.618	80.011	19.995	103.783	19.254	54.658	0.533
739.999	450.589	80.010	19.994	103.780	19.207	58.259	0.509
741.999	451.592	80.010	19.995	103.777	19.153	62.296	0.501
743.999	452.579	80.009	19.994	103.775	19.098	66.496	0.499
746.000	453.535	80.008	19.994	103.773	19.034	71.345	0.486
748.000	454.553	80.008	19.995	103.776	18.969	76.247	0.519
750.000	455.539	80.007	19.995	103.754	18.904	81.192	0.459
752.000	456.514	80.008	19.995	103.744	18.830	86.788	0.511
753.999	457.486	80.006	19.995	103.741	18.750	92.804	0.474
755.999	458.522	80.007	19.995	103.739	18.660	99.637	0.507
757.999	459.514	80.008	19.993	103.743	18.562	107.023	0.510
759.999	460.514	80.008	19.992	103.731	18.464	114.445	0.492
762.000	461.547	80.008	19.994	103.706	18.361	122.229	0.489
763.999	462.558	80.007	19.994	103.697	18.244	131.051	0.515
765.999	463.536	80.008	19.994	103.690	18.118	140.613	0.508
768.000	464.523	80.009	19.993	103.687	17.982	150.900	0.508
770.000	465.549	80.007	19.994	103.656	17.843	161.371	0.474
772.000	466.559	80.009	19.993	103.622	17.695	172.658	0.518
773.999	467.530	80.006	19.993	103.602	17.526	185.337	0.475
775.999	468.591	80.007	19.994	103.621	17.336	199.256	0.510
777.999	469.581	80.007	19.994	103.618	17.131	214.482	0.500
779.999	470.607	80.007	19.993	103.589	16.862	234.788	0.534
781.999	471.599	80.007	19.993	103.601	16.566	257.345	0.448
783.999	472.641	80.006	19.994	103.609	16.302	277.259	0.489
786.000	473.677	80.006	19.995	103.447	16.070	294.735	0.525
788.000	474.720	80.007	19.994	103.258	15.852	311.208	0.508
789.999	475.743	80.008	19.993	103.200	15.634	327.364	0.506
792.000	476.778	80.008	19.994	103.267	15.410	343.905	0.483
793.999	477.864	80.009	19.994	103.312	15.159	362.538	0.514
795.999	478.828	80.009	19.994	103.306	14.891	382.300	0.496
797.999	479.851	80.009	19.994	103.280	14.597	404.105	0.561
799.999	480.857	80.011	19.993	103.282	14.285	427.328	0.510
801.999	481.896	80.008	19.993	103.148	13.953	452.011	0.525
803.999	482.883	80.010	19.993	103.065	13.610	477.507	0.482
806.000	483.931	80.008	19.994	102.970	13.274	502.555	0.513
807.999	484.944	80.008	19.993	102.878	12.945	527.036	0.466
809.999	486.043	80.010	19.994	102.800	12.630	550.265	0.538
811.999	487.022	80.008	19.996	102.743	12.334	572.249	0.517
814.000	488.081	80.009	19.993	102.696	12.053	593.287	0.528
815.999	489.069	80.008	19.995	102.657	11.803	612.013	0.499
818.000	490.136	80.009	19.993	102.624	11.589	628.118	0.533
819.999	491.182	80.011	19.994	102.561	11.426	640.420	0.533
821.999	492.220	80.010	19.994	102.513	11.315	648.872	0.521
823.999	493.253	80.009	19.994	102.493	11.262	653.090	0.515
825.999	494.300	80.010	19.993	102.493	11.265	653.247	0.521
828.000	495.317	80.009	19.993	102.495	11.343	647.730	0.487
829.999	496.380	80.008	19.995	102.506	11.491	637.121	0.538
831.999	497.371	80.008	19.995	102.522	11.721	620.438	0.482
833.999	498.503	80.006	19.994	102.559	12.021	598.212	0.509
835.999	499.516	80.007	19.996	102.608	12.406	570.143	0.525
838.000	500.536	80.007	19.994	102.668	12.864	536.423	0.519
839.999	501.658	80.006	19.995	102.727	13.396	496.843	0.484
841.999	502.647	80.006	19.995	102.823	13.980	453.343	0.477
844.000	503.630	80.007	19.995	102.895	14.605	406.633	0.559
845.999	504.847	80.007	19.994	102.993	15.251	358.089	0.505
848.000	505.784	80.007	19.993	103.172	15.897	309.348	0.585
849.999	506.722	80.008	19.996	103.292	16.522	262.145	0.354
851.999	507.663	80.007	19.995	103.424	17.107	217.793	0.450
853.999	509.052	80.008	19.994	103.566	17.633	177.891	0.471
855.999	509.961	80.008	19.993	103.685	18.094	142.907	0.460
858.000	511.088	80.009	19.994	103.792	18.488	112.912	0.574
860.000	512.139	80.008	19.994	103.849	18.816	88.019	0.574
861.999	513.215	80.007	19.994	103.900	19.084	67.675	0.601
863.999	514.219	80.007	19.995	103.927	19.287	52.237	0.506
866.000	515.318	80.008	19.995	103.937	19.447	40.121	0.557
867.999	516.344	80.008	19.994	103.936	19.570	30.751	0.521
869.999	517.319	80.006	19.995	103.920	19.663	23.727	0.525
871.999	518.387	80.008	19.994	103.924	19.730	18.643	0.459
874.000	519.393	80.008	19.996	103.915	19.776	15.096	0.529
875.999	520.442	80.009	19.994	103.898	19.815	12.168	0.483
877.999	521.485	80.007	19.994	103.894	19.841	10.190	0.521
879.999	522.495	80.010	19.993	103.865	19.860	8.714	0.522
881.999	523.498	80.009	19.993	103.859	19.875	7.610	0.518
883.999	524.500	80.009	19.993	103.863	19.882	7.038	0.511
885.999	525.513	80.009	19.993	103.859	19.891	6.382	0.506
887.999	526.516	80.009	19.994	103.853	19.898	5.831	0.507
889.999	527.486	80.009	19.995	103.859	19.903	5.444	0.516
891.999	528.510	80.007	19.994	103.848	19.908	5.129	0.499
893.999	529.520	80.007	19.994	103.802	19.909	4.986	0.498
895.999	530.509	80.009	19.993	103.770	19.915	4.583	0.512
898.000	531.533	80.009	19.993	103.693	19.918	4.354	0.512
899.999	532.533	80.007	19.994	103.622	19.919	4.253	0.486
901.999	533.526	80.010	19.994	103.643	19.919	4.257	0.483
904.000	534.547	80.010	19.995	103.708	19.918	4.325	0.535
905.999	535.583	80.009	19.993	103.780	19.922	4.073	0.515
907.999	536.538	80.009	19.993	103.807	19.920	4.191	0.504
909.999	537.576	80.010	19.995	103.832	19.920	4.202	0.513
911.999	538.634	80.009	19.995	103.845	19.920	4.193	0.534
914.000	539.625	80.008	19.994	103.858	19.919	4.266	0.538
915.999	540.642	80.009	19.994	103.873	19.923	3.983	0.509
918.000	541.651	80.009	19.995	103.875	19.924	3.901	0.501
920.000	542.695	80.008	19.995	103.865	19.927	3.630	0.532
921.999	543.749	80.008	19.995	103.862	19.923	3.983	0.513
923.999	544.765	80.007	19.994	103.864	19.926	3.737	0.520
925.999	545.756	80.007	19.995	103.868	19.928	3.615	0.513
927.999	546.761	80.007	19.995	103.866	19.929	3.528	0.505
929.999	547.842	80.008	19.995	103.866	19.931	3.331	0.525
931.999	548.867	80.007	19.995	103.870	19.930	3.401	0.524
933.999	549.930	80.008	19.995	103.878	19.928	3.588	0.513
936.000	550.937	80.008	19.995	103.869	19.933	3.184	0.502
938.000	551.991	80.007	19.995	103.859	19.931	3.338	0.527
939.999	553.032	80.007	19.994	103.859	19.930	3.413	0.510
942.000	554.100	80.008	19.995	103.860	19.930	3.463	0.525
944.000	555.159	80.009	19.993	103.866	19.930	3.408	0.484
945.999	556.195	80.007	19.994	103.864	19.934	3.156	0.515
947.999	557.233	80.007	19.994	103.859	19.934	3.145	0.522
949.999	558.287	80.008	19.994	103.859	19.934	3.156	0.551
951.999	559.288	80.008	19.994	103.859	19.934	3.141	0.494
953.999	560.316	80.007	19.994	103.845	19.933	3.189	0.517
955.999	561.389	80.009	19.994	103.838	19.933	3.187	0.533
957.999	562.446	80.009	19.994	103.837	19.934	3.110	0.538
960.000	563.459	80.010	19.994	103.843	19.934	3.144	0.517
961.999	564.465	80.009	19.994	103.848	19.934	3.140	0.518
964.000	565.498	80.010	19.995	103.850	19.934	3.160	0.493
965.999	566.499	80.008	19.995	103.849	19.935	3.090	0.517
968.000	567.568	80.009	19.994	103.856	19.936	2.996	0.534
969.999	568.555	80.009	19.993	103.858	19.938	2.795	0.519
972.000	569.562	80.010	19.993	103.857	19.939	2.729	0.489
973.999	570.628	80.010	19.994	103.861	19.934	3.100	0.531
976.000	571.631	80.008	19.994	103.867	19.936	3.008	0.505
977.999	572.654	80.008	19.994	103.861	19.932	3.267	0.491
980.000	573.682	80.010	19.993	103.857	19.937	2.889	0.489
982.000	574.721	80.010	19.994	103.861	19.934	3.106	0.500
983.999	575.818	80.010	19.993	103.858	19.937	2.927	0.530
986.000	576.818	80.011	19.994	103.857	19.935	3.031	0.495
987.999	577.875	80.011	19.994	103.860	19.936	2.944	0.529
990.000	578.884	80.010	19.993	103.860	19.939	2.783	0.520
991.999	579.893	80.010	19.994	103.858	19.937	2.937	0.499
993.999	580.878	80.009	19.995	103.861	19.934	3.150	0.481
995.999	581.912	80.007	19.994	103.865	19.938	2.793	0.487
998.000	582.935	80.007	19.996	103.860	19.935	3.042	0.514
999.999	583.924	80.007	19.995	103.863	19.936	2.958	0.495
1002.000	584.965	80.008	19.996	103.855	19.939	2.743	0.510
1003.999	585.978	80.008	19.994	103.866	19.937	2.873	0.509
1006.000	586.958	80.008	19.997	103.858	19.940	2.666	0.503
1007.999	587.979	80.009	19.994	103.857	19.937	2.891	0.474
1010.000	589.019	80.008	19.995	103.861	19.936	2.948	0.530
1011.999	590.005	80.008	19.994	103.860	19.941	2.582	0.477
1014.000	591.052	80.008	19.995	103.858	19.940	2.693	0.528
1015.999	592.049	80.007	19.994	103.859	19.939	2.785	0.491
1018.000	593.069	80.007	19.993	103.858	19.941	2.626	0.500
1019.999	594.092	80.007	19.994	103.852	19.940	2.645	0.490
1021.999	595.179	80.007	19.995	103.861	19.941	2.620	0.530
1023.999	596.187	80.005	19.995	103.850	19.939	2.737	0.517
1025.999	597.181	80.006	19.995	103.857	19.940	2.683	0.533
1027.999	598.208	80.007	19.996	103.861	19.938	2.841	0.517
1029.999	599.198	80.006	19.996	103.861	19.940	2.658	0.503
1031.999	600.232	80.007	19.995	103.862	19.940	2.706	0.502
1034.000	601.230	80.007	19.996	103.860	19.940	2.687	0.515
1035.999	602.224	80.007	19.996	103.860	19.941	2.589	0.502
1037.999	603.200	80.009	19.994	103.854	19.940	2.689	0.501
1039.999	604.220	80.009	19.993	103.844	19.938	2.831	0.491
1042.001	605.169	80.008	19.994	103.855	19.940	2.707	0.492
1044.001	606.211	80.010	19.995	103.854	19.938	2.826	0.506
1046.000	607.178	80.010	19.994	103.855	19.940	2.697	0.484
1048.000	608.156	80.009	19.995	103.855	19.937	2.901	0.479
1050.000	609.185	80.010	19.994	103.850	19.940	2.709	0.501
1052.000	610.144	80.008	19.994	103.845	19.940	2.645	0.488
1054.000	611.138	80.009	19.994	103.838	19.940	2.699	0.480
1056.000	612.099	80.009	19.993	103.842	19.937	2.902	0.474
1058.000	613.045	80.008	19.993	103.835	19.935	3.018	0.461
1060.000	614.043	80.008	19.993	103.832	19.939	2.760	0.491
1062.001	615.056	80.010	19.993	103.850	19.939	2.716	0.524
1064.000	616.046	80.008	19.994	103.853	19.943	2.470	0.490
1066.000	617.048	80.010	19.994	103.850	19.940	2.666	0.510
1068.000	618.044	80.011	19.994	103.854	19.939	2.714	0.475
1070.000	619.004	80.009	19.993	103.850	19.939	2.737	0.505
1072.000	620.051	80.011	19.992	103.853	19.937	2.893	0.509
1074.000	621.053	80.010	19.992	103.853	19.938	2.793	0.499
1076.000	622.081	80.008	19.994	103.849	19.939	2.752	0.492
1078.000	623.135	80.007	19.994	103.841	19.936	2.972	0.547
1080.000	624.118	80.008	19.994	103.856	19.940	2.686	0.481
1082.000	625.122	80.008	19.993	103.846	19.938	2.862	0.491
1084.000	626.148	80.006	19.992	103.841	19.937	2.870	0.498
1086.000	627.200	80.006	19.993	103.849	19.937	2.879	0.520
1088.000	628.238	80.007	19.993	103.859	19.939	2.726	0.549
1090.000	629.267	80.007	19.994	103.850	19.941	2.605	0.515
1092.000	630.312	80.007	19.993	103.848	19.939	2.789	0.545
1094.000	631.337	80.007	19.993	103.849	19.937	2.910	0.529
1096.000	632.398	80.007	19.996	103.848	19.940	2.664	0.535
1098.000	633.441	80.008	19.995	103.860	19.941	2.574	0.523
1100.000	634.541	80.007	19.994	103.848	19.942	2.497	0.577
1102.000	635.587	80.006	19.993	103.858	19.941	2.576	0.529
1104.000	636.638	80.006	19.994	103.863	19.938	2.829	0.542
1106.000	637.663	80.006	19.994	103.857	19.945	2.280	0.527
1108.000	638.704	80.006	19.994	103.851	19.943	2.424	0.532
1110.000	639.736	80.007	19.995	103.856	19.944	2.372	0.521
1112.000	640.786	80.007	19.994	103.853	19.942	2.547	0.521
1114.000	641.812	80.006	19.994	103.857	19.940	2.703	0.512
1116.000	642.820	80.006	19.996	103.857	19.945	2.284	0.505
1118.000	643.847	80.008	19.994	103.854	19.940	2.647	0.513
1120.000	644.894	80.007	19.995	103.858	19.943	2.411	0.499
1122.000	645.856	80.008	19.995	103.851	19.945	2.278	0.503
1124.000	646.894	80.009	19.995	103.846	19.941	2.568	0.505
1126.000	647.948	80.009	19.995	103.854	19.941	2.628	0.517
1128.000	648.968	80.009	19.995	103.856	19.942	2.524	0.534
1130.000	649.975	80.009	19.994	103.857	19.942	2.488	0.537
1132.000	651.013	80.007	19.995	103.856	19.945	2.267	0.529
1134.000	652.004	80.008	19.993	103.856	19.945	2.278	0.504
1136.000	652.998	80.009	19.994	103.858	19.948	2.044	0.533
1138.000	654.024	80.007	19.994	103.849	19.945	2.299	0.512
1140.000	655.043	80.009	19.993	103.839	19.945	2.276	0.507
1142.000	656.129	80.009	19.994	103.850	19.943	2.418	0.519
1144.000	657.072	80.009	19.993	103.849	19.946	2.232	0.510
1146.000	658.205	80.010	19.994	103.860	19.945	2.280	0.523
1148.000	659.224	80.010	19.993	103.860	19.947	2.151	0.549
1150.000	660.315	80.011	19.994	103.862	19.948	2.074	0.520
1152.000	661.348	80.010	19.993	103.861	19.943	2.422	0.507
1154.000	662.441	80.010	19.992	103.857	19.944	2.395	0.501
1156.000	663.527	80.009	19.994	103.855	19.947	2.174	0.615
1158.000	664.556	80.007	19.994	103.860	19.944	2.378	0.515
1160.000	665.678	80.006	19.994	103.861	19.945	2.307	0.492
1162.000	666.754	80.007	19.995	103.861	19.944	2.403	0.581
1164.000	667.782	80.007	19.994	103.862	19.944	2.341	0.544
1166.000	668.855	80.007	19.993	103.863	19.944	2.366	0.552
1168.000	669.932	80.007	19.994	103.860	19.940	2.639	0.535
1170.001	670.994	80.007	19.994	103.844	19.944	2.405	0.534
1172.000	672.040	80.007	19.993	103.847	19.943	2.476	0.527
1174.000	673.100	80.008	19.993	103.852	19.944	2.357	0.545
1176.000	674.116	80.008	19.995	103.856	19.945	2.292	0.494
1178.000	675.163	80.007	19.994	103.854	19.945	2.311	0.481
1180.001	676.250	80.009	19.994	103.858	19.943	2.430	0.551
1182.000	677.232	80.007	19.996	103.855	19.946	2.234	0.505
1184.000	678.251	80.007	19.997	103.857	19.944	2.349	0.467
1186.000	679.319	80.007	19.996	103.853	19.945	2.291	0.527
1188.000	680.356	80.007	19.994	103.849	19.945	2.284	0.510
1190.001	681.416	80.008	19.994	103.859	19.943	2.422	0.528
1192.000	682.489	80.006	19.994	103.860	19.943	2.437	0.515
1194.000	683.547	80.007	19.994	103.861	19.939	2.720	0.526
1196.000	684.666	80.007	19.996	103.859	19.942	2.545	0.550
1198.000	685.764	80.007	19.995	103.860	19.943	2.420	0.539
1200.000	686.902	80.009	19.993	103.861	19.943	2.418	0.542
1202.000	688.022	80.008	19.995	103.860	19.941	2.622	0.563
1204.000	689.085	80.008	19.995	103.860	19.941	2.628	0.559
1206.000	690.260	80.010	19.994	103.854	19.940	2.697	0.589
1208.000	691.366	80.008	19.995	103.855	19.942	2.549	0.562
1210.000	692.472	80.009	19.995	103.858	19.941	2.601	0.558
1212.000	693.632	80.008	19.996	103.850	19.945	2.301	0.578
1214.001	694.766	80.007	19.994	103.841	19.945	2.284	0.572
1216.000	695.857	80.007	19.996	103.856	19.942	2.501	0.548
1218.000	696.939	80.007	19.996	103.859	19.947	2.174	0.516
1220.000	698.087	80.008	19.995	103.860	19.944	2.361	0.557
1222.000	699.220	80.008	19.995	103.857	19.942	2.522	0.570
1224.000	700.230	80.008	19.996	103.857	19.943	2.428	0.471
1226.000	701.408	80.009	19.992	103.860	19.947	2.169	0.535
1228.000	702.478	80.010	19.991	103.859	19.945	2.328	0.551
1230.000	703.571	80.009	19.994	103.859	19.943	2.432	0.595
1232.000	704.698	80.009	19.993	103.860	19.943	2.464	0.563
1234.000	705.799	80.009	19.994	103.855	19.942	2.514	0.543
1236.000	706.927	80.010	19.994	103.850	19.942	2.555	0.547
1238.000	707.962	80.008	19.994	103.855	19.945	2.278	0.536
1240.000	709.141	80.008	19.993	103.852	19.943	2.477	0.576
1242.000	710.202	80.008	19.994	103.859	19.946	2.227	0.533
1244.000	711.274	80.006	19.995	103.852	19.943	2.471	0.522
1246.000	712.392	80.008	19.994	103.845	19.944	2.375	0.552
1248.000	713.453	80.007	19.993	103.847	19.947	2.177	0.523
1250.001	714.519	80.007	19.993	103.835	19.947	2.165	0.546
1252.001	715.608	80.008	19.992	103.826	19.943	2.442	0.534
1254.000	716.661	80.007	19.994	103.832	19.944	2.382	0.487
1256.000	717.702	80.007	19.995	103.833	19.946	2.213	0.505
1258.000	718.683	80.009	19.993	103.824	19.944	2.371	0.541
1260.000	719.712	80.008	19.993	103.844	19.945	2.330	0.501
1262.000	720.749	80.008	19.993	103.826	19.947	2.144	0.504
1264.000	721.767	80.009	19.994	103.831	19.945	2.296	0.499
1266.000	722.743	80.008	19.993	103.830	19.947	2.179	0.494
1268.000	723.711	80.007	19.994	103.833	19.946	2.204	0.492
1270.000	724.689	80.007	19.994	103.849	19.947	2.152	0.495
1272.000	725.638	80.007	19.994	103.847	19.946	2.240	0.473
1274.000	726.587	80.007	19.994	103.829	19.947	2.113	0.475
1276.000	727.538	80.007	19.995	103.834	19.949	1.998	0.453
1278.000	728.501	80.007	19.994	103.836	19.949	1.986	0.460
1280.000	729.478	80.007	19.994	103.830	19.950	1.917	0.483
1282.000	730.394	80.008	19.994	103.840	19.947	2.125	0.479
1284.000	731.355	80.006	19.994	103.824	19.950	1.906	0.491
1286.000	732.269	80.009	19.994	103.841	19.947	2.109	0.451
1288.000	733.183	80.010	19.993	103.843	19.949	1.998	0.439
1290.000	734.061	80.007	19.993	103.834	19.948	2.040	0.466
1292.000	735.026	80.007	19.993	103.832	19.945	2.309	0.439
1294.000	735.912	80.007	19.993	103.828	19.947	2.165	0.463
1296.000	736.821	80.008	19.993	103.830	19.945	2.271	0.468
1298.000	737.707	80.008	19.993	103.839	19.949	2.023	0.431
1300.000	738.625	80.007	19.993	103.849	19.945	2.301	0.465
1302.000	739.545	80.009	19.995	103.836	19.948	2.036	0.437
1304.000	740.423	80.009	19.995	103.838	19.945	2.302	0.432
1306.000	741.308	80.008	19.994	103.837	19.947	2.175	0.464
1308.001	742.226	80.009	19.994	103.837	19.945	2.275	0.470
1310.000	743.156	80.010	19.994	103.842	19.949	1.973	0.456
1312.000	744.061	80.010	19.993	103.844	19.944	2.374	0.438