File: 01_Data/PEX_Pipe/MCC/PEX_Pipe_MCC_30K_min_220128_R2.txt
Sample ID:	C:\MCC\MCC Cal\Test\PEX_Pipe_MCC_30K_min_220128_R2.txt
Sample Weight (mg):	4.46
Heating Rate (C/s):	0.5
Combustor Temp (C):	900
N2 Flow Rate (cc/min):	80
O2 Flow Rate (cc/min):	20
Calibration File:	C:\MCC\MCC Cal\Coeff1 JN10440_30_210304.txt.txt
T Correction Coefficients:	0	1.024463	0
Time Shift (s):	14
*
Time (s)	Temperature (C)	N2 flow rate (cc/min)	O2 flow rate (cc/min)	Flow Rate (cc/min)	Oxygen (%)	HRR (W/g)	Heating rate (C/s)
0.000	110.455	80.005	19.991	103.733	19.978	0.473	-0.011
2.000	110.433	80.007	19.995	103.738	19.982	0.226	0.009
4.000	110.447	80.007	19.994	103.742	19.984	0.066	0.013
6.000	110.422	80.005	19.994	103.732	19.980	0.353	-0.005
8.000	110.457	80.006	19.995	103.741	19.981	0.323	0.020
10.000	110.437	80.005	19.992	103.746	19.978	0.487	0.013
12.000	110.451	80.006	19.994	103.776	19.977	0.607	0.018
14.000	110.451	80.005	19.994	103.774	19.973	0.892	0.002
16.000	110.462	80.008	19.996	103.786	19.973	0.900	0.001
18.000	110.535	80.009	19.995	103.797	19.969	1.144	0.030
20.000	110.537	80.008	19.993	103.819	19.970	1.065	0.023
22.000	110.601	80.009	19.993	103.825	19.968	1.235	0.029
24.000	110.681	80.009	19.993	103.831	19.968	1.263	0.024
26.002	110.761	80.008	19.994	103.822	19.964	1.495	0.016
28.000	110.904	80.008	19.995	103.842	19.961	1.752	0.059
30.000	111.017	80.008	19.994	103.860	19.956	2.087	0.070
32.000	111.212	80.008	19.993	103.887	19.953	2.341	0.112
34.000	111.404	80.007	19.995	103.902	19.951	2.496	0.111
36.000	111.616	80.008	19.995	103.908	19.948	2.720	0.108
38.001	111.894	80.007	19.994	103.905	19.949	2.622	0.113
40.000	112.122	80.008	19.994	103.923	19.947	2.791	0.134
42.000	112.437	80.009	19.994	103.935	19.948	2.680	0.160
44.001	112.753	80.007	19.992	103.941	19.945	2.914	0.165
46.000	113.055	80.009	19.994	103.939	19.942	3.088	0.173
48.000	113.439	80.008	19.993	103.942	19.943	3.048	0.199
50.001	113.837	80.009	19.993	103.950	19.941	3.161	0.189
52.000	114.299	80.008	19.994	103.946	19.942	3.127	0.252
54.000	114.721	80.010	19.993	103.938	19.938	3.421	0.221
56.001	115.199	80.007	19.995	103.948	19.940	3.243	0.236
58.000	115.673	80.007	19.994	103.944	19.940	3.303	0.224
60.001	116.165	80.006	19.995	103.953	19.939	3.325	0.258
62.001	116.718	80.007	19.995	103.970	19.935	3.665	0.283
64.000	117.221	80.006	19.995	103.969	19.934	3.693	0.268
66.000	117.804	80.005	19.994	103.979	19.936	3.580	0.283
68.001	118.368	80.007	19.995	103.978	19.936	3.539	0.271
70.000	118.991	80.007	19.995	103.977	19.933	3.751	0.312
72.000	119.562	80.009	19.993	103.978	19.935	3.642	0.301
74.001	120.230	80.007	19.994	103.981	19.934	3.672	0.303
76.001	120.879	80.006	19.994	103.987	19.933	3.764	0.357
78.001	121.551	80.006	19.993	103.988	19.932	3.854	0.332
80.000	122.269	80.008	19.994	103.982	19.932	3.852	0.346
82.000	122.937	80.007	19.993	103.986	19.929	4.040	0.343
84.001	123.635	80.007	19.993	104.002	19.926	4.264	0.380
86.001	124.406	80.005	19.994	103.995	19.931	3.919	0.373
88.000	125.179	80.006	19.994	103.994	19.926	4.307	0.389
90.000	125.922	80.006	19.994	104.001	19.929	4.086	0.389
92.001	126.693	80.004	19.994	104.000	19.928	4.122	0.373
94.000	127.499	80.008	19.995	103.994	19.928	4.138	0.421
96.001	128.285	80.007	19.994	103.999	19.926	4.270	0.385
98.000	129.099	80.007	19.994	103.982	19.928	4.112	0.427
100.000	129.915	80.008	19.994	103.983	19.929	4.071	0.420
102.000	130.762	80.009	19.993	103.998	19.931	3.893	0.439
104.001	131.589	80.008	19.994	103.995	19.928	4.155	0.437
106.000	132.369	80.009	19.993	103.999	19.930	4.032	0.402
108.000	133.261	80.011	19.994	104.002	19.928	4.175	0.453
110.001	134.103	80.009	19.993	103.993	19.929	4.085	0.417
112.000	135.002	80.009	19.993	103.980	19.929	4.097	0.451
114.001	135.884	80.009	19.994	103.984	19.929	4.071	0.465
116.000	136.769	80.009	19.994	103.987	19.929	4.065	0.467
118.001	137.647	80.008	19.993	103.995	19.928	4.125	0.438
120.001	138.560	80.008	19.994	103.982	19.928	4.117	0.456
122.000	139.455	80.008	19.994	103.986	19.930	3.977	0.431
124.001	140.366	80.008	19.994	103.979	19.929	4.085	0.443
126.000	141.264	80.009	19.993	103.984	19.928	4.145	0.434
128.000	142.197	80.009	19.994	103.981	19.932	3.871	0.484
130.000	143.111	80.010	19.993	103.988	19.930	4.025	0.474
132.001	144.074	80.010	19.993	103.979	19.931	3.910	0.456
134.000	144.975	80.009	19.993	103.977	19.930	4.021	0.484
136.000	145.897	80.008	19.996	103.983	19.930	4.029	0.494
138.000	146.832	80.008	19.994	103.989	19.929	4.079	0.483
140.000	147.796	80.006	19.994	103.979	19.928	4.110	0.463
142.000	148.757	80.006	19.993	103.989	19.927	4.215	0.500
144.000	149.747	80.007	19.994	103.999	19.929	4.051	0.498
146.000	150.647	80.007	19.994	103.985	19.928	4.175	0.464
148.001	151.614	80.007	19.993	103.983	19.929	4.075	0.476
150.000	152.528	80.007	19.993	103.994	19.932	3.835	0.451
152.000	153.480	80.007	19.994	103.986	19.929	4.063	0.454
154.000	154.487	80.007	19.996	103.987	19.930	4.009	0.497
156.000	155.464	80.008	19.996	103.981	19.929	4.035	0.465
158.000	156.415	80.006	19.997	103.978	19.926	4.261	0.489
160.000	157.384	80.005	19.996	103.982	19.930	3.991	0.508
162.000	158.361	80.007	19.996	103.976	19.927	4.189	0.504
164.000	159.358	80.007	19.994	103.976	19.928	4.107	0.499
166.000	160.368	80.008	19.994	103.977	19.929	4.083	0.511
168.000	161.324	80.007	19.993	103.983	19.934	3.679	0.445
170.000	162.336	80.008	19.994	103.976	19.933	3.789	0.515
172.000	163.290	80.006	19.995	103.978	19.931	3.921	0.461
174.000	164.324	80.005	19.994	103.979	19.933	3.785	0.495
176.000	165.293	80.008	19.993	103.977	19.930	3.995	0.477
178.000	166.305	80.008	19.993	103.978	19.931	3.927	0.512
180.000	167.307	80.007	19.994	103.975	19.935	3.666	0.518
182.000	168.338	80.008	19.994	103.976	19.931	3.912	0.507
184.000	169.306	80.009	19.994	103.977	19.932	3.885	0.517
186.000	170.312	80.009	19.993	103.971	19.932	3.887	0.496
188.000	171.247	80.008	19.993	103.966	19.934	3.735	0.501
190.000	172.218	80.008	19.993	103.968	19.930	3.973	0.506
192.000	173.206	80.008	19.993	103.953	19.933	3.761	0.521
194.000	174.198	80.008	19.993	103.973	19.931	3.961	0.504
196.000	175.179	80.008	19.994	103.977	19.931	3.921	0.483
198.000	176.151	80.009	19.994	103.967	19.933	3.751	0.463
200.000	177.128	80.008	19.994	103.979	19.934	3.684	0.493
202.000	178.131	80.008	19.994	103.979	19.932	3.881	0.517
204.000	179.093	80.007	19.993	103.971	19.930	4.015	0.488
206.000	180.114	80.009	19.993	103.973	19.932	3.880	0.493
208.000	181.122	80.010	19.994	103.974	19.934	3.728	0.497
210.000	182.103	80.010	19.994	103.961	19.933	3.786	0.498
212.000	183.063	80.009	19.993	103.960	19.932	3.850	0.495
214.000	184.109	80.010	19.993	103.968	19.935	3.654	0.498
216.000	185.060	80.009	19.993	103.959	19.932	3.842	0.505
218.000	186.100	80.008	19.993	103.946	19.935	3.608	0.508
220.000	187.126	80.009	19.993	103.944	19.935	3.598	0.511
222.000	188.101	80.006	19.994	103.941	19.936	3.558	0.502
224.000	189.087	80.008	19.994	103.941	19.937	3.502	0.516
226.000	190.056	80.007	19.994	103.942	19.938	3.386	0.516
228.000	191.048	80.006	19.993	103.941	19.937	3.492	0.494
230.001	192.025	80.007	19.994	103.937	19.936	3.578	0.510
232.000	193.032	80.007	19.994	103.940	19.940	3.250	0.496
234.000	194.012	80.006	19.994	103.940	19.940	3.280	0.498
236.000	195.003	80.008	19.994	103.938	19.938	3.426	0.480
238.000	195.981	80.006	19.994	103.938	19.941	3.192	0.494
240.000	197.002	80.008	19.994	103.939	19.938	3.398	0.530
242.000	197.930	80.006	19.995	103.944	19.934	3.672	0.495
244.000	198.943	80.007	19.995	103.940	19.936	3.596	0.496
246.000	199.949	80.008	19.994	103.938	19.937	3.452	0.501
248.000	200.916	80.008	19.995	103.938	19.937	3.520	0.485
250.000	201.888	80.006	19.994	103.954	19.941	3.180	0.488
252.000	202.901	80.006	19.995	103.942	19.939	3.328	0.490
254.000	203.845	80.007	19.995	103.940	19.937	3.510	0.514
256.000	204.808	80.006	19.996	103.947	19.939	3.368	0.469
258.000	205.780	80.006	19.995	103.941	19.936	3.552	0.472
260.000	206.817	80.008	19.996	103.940	19.939	3.366	0.473
262.000	207.822	80.007	19.994	103.942	19.937	3.452	0.499
264.000	208.788	80.008	19.994	103.941	19.938	3.436	0.504
266.000	209.771	80.008	19.993	103.941	19.934	3.694	0.487
268.000	210.788	80.009	19.993	103.941	19.937	3.504	0.514
270.000	211.757	80.008	19.993	103.944	19.936	3.548	0.474
272.000	212.706	80.011	19.992	103.940	19.936	3.588	0.482
274.000	213.729	80.009	19.993	103.940	19.939	3.372	0.504
276.000	214.731	80.009	19.993	103.939	19.937	3.522	0.496
278.000	215.674	80.005	19.994	103.939	19.936	3.558	0.491
280.000	216.661	80.008	19.994	103.940	19.939	3.318	0.515
282.000	217.658	80.007	19.993	103.942	19.938	3.438	0.489
284.000	218.604	80.008	19.993	103.931	19.942	3.102	0.468
286.000	219.643	80.007	19.993	103.940	19.943	3.068	0.519
288.000	220.590	80.008	19.992	103.937	19.945	2.936	0.498
290.000	221.605	80.009	19.992	103.933	19.941	3.222	0.491
292.000	222.566	80.009	19.994	103.933	19.940	3.294	0.468
294.000	223.587	80.010	19.994	103.923	19.941	3.178	0.510
296.000	224.585	80.011	19.994	103.919	19.939	3.344	0.491
298.000	225.532	80.011	19.993	103.930	19.939	3.336	0.494
300.000	226.502	80.009	19.992	103.932	19.939	3.374	0.455
302.000	227.463	80.008	19.993	103.937	19.936	3.526	0.469
304.000	228.509	80.008	19.992	103.935	19.938	3.428	0.486
306.000	229.500	80.008	19.994	103.938	19.934	3.682	0.512
308.000	230.488	80.008	19.992	103.939	19.938	3.450	0.520
310.000	231.497	80.006	19.993	103.938	19.934	3.682	0.493
312.000	232.499	80.006	19.994	103.939	19.936	3.570	0.488
314.000	233.468	80.007	19.994	103.936	19.939	3.376	0.471
316.000	234.478	80.008	19.996	103.939	19.939	3.358	0.469
318.000	235.460	80.007	19.995	103.939	19.940	3.302	0.475
320.000	236.507	80.008	19.994	103.936	19.941	3.232	0.518
322.000	237.531	80.008	19.995	103.938	19.938	3.384	0.503
324.000	238.505	80.007	19.994	103.936	19.937	3.470	0.525
326.000	239.512	80.008	19.994	103.939	19.940	3.244	0.521
328.000	240.526	80.008	19.994	103.938	19.939	3.329	0.502
330.000	241.552	80.006	19.994	103.931	19.938	3.406	0.500
332.000	242.592	80.007	19.994	103.929	19.939	3.373	0.528
334.000	243.581	80.008	19.994	103.933	19.938	3.439	0.480
336.000	244.567	80.006	19.994	103.939	19.935	3.647	0.493
338.000	245.577	80.006	19.994	103.922	19.938	3.445	0.465
340.000	246.655	80.007	19.994	103.923	19.939	3.323	0.530
342.000	247.655	80.006	19.995	103.926	19.938	3.441	0.517
344.000	248.644	80.005	19.994	103.919	19.939	3.355	0.502
346.000	249.699	80.007	19.995	103.922	19.938	3.449	0.511
348.000	250.700	80.007	19.995	103.916	19.940	3.245	0.511
350.000	251.765	80.008	19.994	103.911	19.939	3.373	0.546
352.000	252.755	80.009	19.994	103.908	19.935	3.663	0.513
354.000	253.752	80.008	19.994	103.904	19.935	3.609	0.486
356.000	254.753	80.008	19.994	103.905	19.938	3.425	0.504
358.000	255.803	80.008	19.994	103.906	19.940	3.297	0.523
360.000	256.773	80.009	19.994	103.905	19.941	3.199	0.498
362.000	257.810	80.008	19.994	103.904	19.937	3.515	0.523
364.000	258.829	80.009	19.993	103.913	19.939	3.355	0.471
366.000	259.811	80.008	19.993	103.902	19.937	3.489	0.486
368.000	260.809	80.008	19.993	103.903	19.937	3.510	0.483
370.000	261.815	80.008	19.994	103.902	19.939	3.369	0.518
372.000	262.850	80.010	19.994	103.907	19.939	3.331	0.515
374.000	263.830	80.010	19.992	103.904	19.939	3.327	0.522
376.000	264.810	80.010	19.994	103.909	19.941	3.213	0.508
378.000	265.853	80.011	19.995	103.904	19.936	3.537	0.544
380.000	266.795	80.010	19.994	103.899	19.941	3.203	0.507
382.000	267.822	80.010	19.993	103.898	19.940	3.269	0.523
384.000	268.818	80.008	19.993	103.900	19.939	3.357	0.527
386.000	269.823	80.007	19.995	103.902	19.941	3.175	0.493
388.000	270.845	80.009	19.994	103.905	19.935	3.609	0.518
390.000	271.890	80.006	19.992	103.905	19.939	3.375	0.523
392.000	272.876	80.007	19.992	103.908	19.940	3.251	0.466
394.000	273.856	80.007	19.996	103.905	19.935	3.636	0.491
396.000	274.855	80.008	19.995	103.907	19.937	3.479	0.504
398.000	275.863	80.008	19.994	103.905	19.936	3.555	0.503
400.000	276.857	80.008	19.993	103.903	19.937	3.521	0.490
402.000	277.837	80.007	19.993	103.906	19.938	3.407	0.475
404.000	278.831	80.008	19.993	103.905	19.936	3.570	0.504
406.000	279.827	80.007	19.994	103.905	19.936	3.529	0.509
408.000	280.813	80.006	19.994	103.903	19.936	3.582	0.488
410.000	281.807	80.007	19.994	103.902	19.936	3.570	0.526
412.000	282.796	80.007	19.993	103.905	19.936	3.560	0.505
414.000	283.761	80.009	19.995	103.897	19.937	3.502	0.487
416.000	284.768	80.007	19.996	103.899	19.940	3.287	0.453
418.000	285.722	80.006	19.993	103.903	19.940	3.237	0.484
420.000	286.767	80.006	19.994	103.899	19.941	3.207	0.504
422.000	287.791	80.007	19.995	103.899	19.938	3.401	0.497
424.000	288.750	80.007	19.993	103.900	19.941	3.195	0.517
426.000	289.777	80.006	19.994	103.899	19.936	3.532	0.526
428.000	290.798	80.009	19.994	103.899	19.938	3.442	0.543
430.000	291.778	80.009	19.995	103.898	19.937	3.494	0.525
432.000	292.824	80.008	19.993	103.899	19.935	3.606	0.534
434.001	293.795	80.009	19.994	103.897	19.938	3.420	0.500
436.000	294.831	80.009	19.996	103.896	19.940	3.293	0.513
438.000	295.814	80.009	19.994	103.898	19.939	3.351	0.518
440.000	296.783	80.009	19.995	103.898	19.938	3.413	0.474
442.000	297.758	80.007	19.995	103.898	19.941	3.171	0.478
444.000	298.768	80.008	19.995	103.897	19.941	3.207	0.513
446.000	299.761	80.007	19.995	103.897	19.936	3.529	0.533
448.000	300.766	80.009	19.995	103.898	19.937	3.492	0.469
450.000	301.804	80.009	19.993	103.900	19.936	3.566	0.516
452.000	302.769	80.010	19.993	103.900	19.936	3.584	0.484
454.000	303.743	80.010	19.993	103.898	19.940	3.239	0.468
456.000	304.794	80.011	19.995	103.900	19.936	3.526	0.515
458.000	305.766	80.010	19.994	103.898	19.934	3.728	0.511
460.000	306.771	80.011	19.993	103.899	19.936	3.566	0.504
462.000	307.745	80.010	19.994	103.900	19.934	3.694	0.498
464.000	308.747	80.009	19.993	103.900	19.936	3.547	0.484
466.000	309.761	80.009	19.993	103.899	19.937	3.469	0.501
468.000	310.770	80.008	19.994	103.900	19.934	3.714	0.523
470.000	311.810	80.007	19.993	103.897	19.940	3.243	0.539
472.000	312.832	80.007	19.995	103.904	19.939	3.313	0.540
474.000	313.795	80.007	19.994	103.903	19.934	3.718	0.465
476.000	314.813	80.007	19.994	103.903	19.939	3.357	0.497
478.000	315.828	80.006	19.995	103.902	19.936	3.568	0.498
480.000	316.850	80.006	19.995	103.901	19.937	3.474	0.482
482.000	317.853	80.008	19.995	103.899	19.941	3.225	0.513
484.000	318.838	80.008	19.993	103.898	19.935	3.596	0.499
486.000	319.884	80.008	19.993	103.898	19.934	3.738	0.540
488.000	320.865	80.009	19.994	103.900	19.933	3.764	0.489
490.000	321.930	80.009	19.993	103.891	19.933	3.802	0.556
492.000	322.944	80.008	19.994	103.899	19.934	3.712	0.546
494.000	324.014	80.008	19.993	103.894	19.929	4.057	0.593
496.000	325.023	80.007	19.996	103.899	19.934	3.726	0.557
498.000	325.949	80.007	19.994	103.896	19.935	3.640	0.530
500.000	326.973	80.007	19.994	103.892	19.942	3.110	0.503
502.000	327.958	80.006	19.995	103.883	19.934	3.678	0.494
504.000	328.984	80.006	19.996	103.895	19.932	3.875	0.513
506.000	329.989	80.007	19.995	103.884	19.933	3.770	0.508
508.000	331.004	80.008	19.996	103.893	19.933	3.772	0.492
510.001	332.034	80.009	19.994	103.879	19.933	3.792	0.505
512.000	333.065	80.009	19.994	103.879	19.928	4.110	0.503
514.000	334.135	80.009	19.995	103.885	19.933	3.758	0.521
516.000	335.097	80.009	19.993	103.889	19.931	3.896	0.518
518.000	336.113	80.008	19.994	103.889	19.928	4.120	0.516
520.000	337.108	80.008	19.994	103.892	19.929	4.034	0.511
522.000	338.102	80.009	19.993	103.897	19.932	3.860	0.484
524.000	339.128	80.008	19.995	103.895	19.929	4.066	0.497
526.001	340.110	80.008	19.994	103.898	19.927	4.224	0.492
528.000	341.155	80.008	19.994	103.895	19.926	4.266	0.517
530.000	342.171	80.007	19.994	103.890	19.926	4.259	0.527
532.000	343.169	80.009	19.995	103.901	19.926	4.264	0.495
534.000	344.171	80.007	19.995	103.901	19.929	4.080	0.497
536.000	345.192	80.009	19.995	103.898	19.925	4.393	0.515
538.000	346.218	80.010	19.994	103.900	19.926	4.301	0.495
540.000	347.214	80.010	19.994	103.900	19.925	4.327	0.511
542.000	348.254	80.010	19.992	103.890	19.923	4.502	0.528
544.000	349.281	80.011	19.994	103.899	19.923	4.501	0.498
546.000	350.339	80.010	19.993	103.895	19.918	4.845	0.497
548.000	351.346	80.009	19.994	103.896	19.920	4.707	0.517
550.000	352.374	80.009	19.992	103.890	19.919	4.787	0.490
552.000	353.417	80.009	19.993	103.879	19.920	4.713	0.506
554.000	354.463	80.010	19.994	103.887	19.916	5.027	0.507
556.000	355.455	80.008	19.994	103.887	19.917	4.908	0.479
558.000	356.555	80.008	19.995	103.890	19.917	4.946	0.505
560.000	357.537	80.008	19.993	103.886	19.915	5.055	0.505
562.000	358.584	80.008	19.994	103.884	19.916	4.980	0.528
564.000	359.628	80.008	19.994	103.890	19.913	5.264	0.524
566.000	360.643	80.007	19.994	103.884	19.910	5.437	0.520
568.000	361.687	80.008	19.995	103.883	19.907	5.630	0.511
570.000	362.706	80.009	19.994	103.874	19.904	5.899	0.499
572.000	363.762	80.009	19.995	103.875	19.903	5.929	0.542
574.000	364.782	80.008	19.994	103.883	19.903	5.948	0.546
576.000	365.813	80.008	19.994	103.879	19.900	6.189	0.510
578.000	366.814	80.007	19.994	103.879	19.900	6.138	0.489
580.000	367.889	80.008	19.995	103.880	19.896	6.431	0.537
582.000	368.932	80.008	19.994	103.867	19.899	6.274	0.540
584.000	369.922	80.008	19.994	103.875	19.894	6.610	0.503
586.000	370.962	80.007	19.992	103.877	19.895	6.550	0.558
588.000	371.996	80.007	19.994	103.883	19.891	6.803	0.508
590.000	373.041	80.008	19.994	103.870	19.892	6.787	0.521
592.000	374.058	80.008	19.994	103.866	19.886	7.201	0.516
594.000	375.071	80.008	19.995	103.871	19.882	7.448	0.505
596.000	376.097	80.008	19.994	103.875	19.883	7.396	0.500
598.000	377.113	80.010	19.993	103.866	19.882	7.484	0.482
600.000	378.116	80.008	19.993	103.862	19.878	7.789	0.515
602.000	379.125	80.008	19.994	103.875	19.877	7.867	0.473
604.000	380.192	80.008	19.995	103.868	19.875	8.019	0.533
606.000	381.208	80.008	19.995	103.872	19.873	8.147	0.496
608.001	382.188	80.009	19.994	103.867	19.869	8.391	0.484
610.000	383.212	80.009	19.993	103.861	19.869	8.443	0.474
612.000	384.276	80.009	19.995	103.864	19.864	8.788	0.528
614.000	385.288	80.008	19.994	103.864	19.862	8.962	0.506
616.000	386.310	80.011	19.995	103.861	19.862	8.907	0.515
618.000	387.291	80.011	19.994	103.865	19.861	9.031	0.506
620.000	388.321	80.011	19.994	103.859	19.857	9.327	0.513
622.000	389.338	80.010	19.995	103.865	19.856	9.363	0.493
624.000	390.350	80.010	19.995	103.860	19.853	9.555	0.509
626.000	391.370	80.010	19.994	103.860	19.851	9.744	0.498
628.000	392.397	80.009	19.994	103.858	19.850	9.800	0.497
630.000	393.416	80.009	19.994	103.857	19.851	9.729	0.525
632.000	394.468	80.007	19.996	103.858	19.847	10.030	0.511
634.000	395.481	80.008	19.995	103.859	19.849	9.914	0.505
636.000	396.531	80.008	19.996	103.860	19.847	10.032	0.506
638.001	397.536	80.007	19.995	103.859	19.842	10.360	0.501
640.000	398.540	80.009	19.994	103.859	19.842	10.368	0.501
642.000	399.518	80.007	19.994	103.860	19.840	10.524	0.483
644.000	400.577	80.008	19.995	103.858	19.837	10.749	0.501
646.000	401.598	80.008	19.995	103.863	19.837	10.755	0.507
648.000	402.640	80.009	19.993	103.863	19.834	10.959	0.508
650.000	403.644	80.008	19.993	103.861	19.835	10.909	0.519
652.000	404.634	80.009	19.994	103.865	19.829	11.309	0.493
654.000	405.620	80.009	19.992	103.861	19.828	11.379	0.491
656.000	406.667	80.009	19.993	103.859	19.836	10.810	0.517
658.000	407.669	80.009	19.994	103.856	19.832	11.145	0.544
660.000	408.678	80.008	19.996	103.861	19.832	11.089	0.498
662.001	409.721	80.007	19.994	103.863	19.834	10.943	0.508
664.000	410.684	80.009	19.993	103.863	19.835	10.925	0.483
666.000	411.724	80.008	19.994	103.864	19.835	10.863	0.513
668.000	412.726	80.007	19.995	103.864	19.833	11.031	0.492
670.000	413.710	80.008	19.994	103.865	19.829	11.308	0.509
672.000	414.669	80.008	19.994	103.862	19.824	11.721	0.466
674.000	415.685	80.009	19.994	103.863	19.820	12.003	0.491
676.000	416.703	80.008	19.995	103.862	19.814	12.420	0.484
678.000	417.731	80.010	19.994	103.860	19.811	12.634	0.527
680.000	418.769	80.010	19.995	103.858	19.809	12.777	0.520
682.000	419.796	80.010	19.994	103.855	19.805	13.052	0.512
684.000	420.822	80.009	19.994	103.855	19.802	13.291	0.527
686.000	421.856	80.009	19.992	103.854	19.798	13.580	0.505
688.000	422.878	80.008	19.994	103.859	19.798	13.584	0.503
690.001	423.889	80.006	19.995	103.844	19.790	14.156	0.524
692.000	424.891	80.007	19.995	103.858	19.782	14.757	0.526
694.001	425.925	80.009	19.994	103.855	19.775	15.271	0.493
696.000	426.960	80.007	19.994	103.854	19.769	15.717	0.496
698.000	428.002	80.008	19.994	103.838	19.765	16.003	0.558
700.001	428.982	80.008	19.994	103.843	19.755	16.685	0.519
702.000	429.998	80.010	19.995	103.846	19.747	17.318	0.514
704.000	430.987	80.011	19.995	103.851	19.742	17.660	0.494
706.000	432.002	80.010	19.994	103.853	19.731	18.458	0.502
708.000	433.008	80.011	19.993	103.853	19.721	19.202	0.473
710.000	434.062	80.008	19.993	103.846	19.706	20.288	0.524
712.000	435.056	80.007	19.995	103.850	19.696	21.016	0.509
714.000	436.056	80.007	19.994	103.829	19.686	21.734	0.498
716.000	437.101	80.007	19.993	103.831	19.676	22.470	0.532
718.000	438.116	80.005	19.995	103.840	19.664	23.346	0.522
720.000	439.083	80.007	19.994	103.858	19.640	25.058	0.473
722.000	440.117	80.005	19.994	103.857	19.623	26.293	0.522
724.000	441.135	80.006	19.994	103.838	19.600	27.983	0.526
726.000	442.125	80.005	19.994	103.825	19.572	30.003	0.491
728.000	443.098	80.007	19.994	103.830	19.540	32.300	0.496
730.000	444.157	80.008	19.994	103.828	19.511	34.450	0.524
732.001	445.167	80.008	19.994	103.838	19.480	36.669	0.524
734.000	446.133	80.009	19.994	103.830	19.447	39.035	0.504
736.000	447.125	80.008	19.996	103.819	19.408	41.884	0.501
738.000	448.133	80.009	19.995	103.822	19.367	44.862	0.494
740.000	449.091	80.009	19.994	103.824	19.324	47.981	0.501
742.000	450.086	80.008	19.993	103.821	19.275	51.570	0.494
744.000	451.109	80.008	19.994	103.820	19.225	55.203	0.516
746.000	452.117	80.008	19.994	103.800	19.177	58.638	0.505
748.000	453.174	80.008	19.994	103.780	19.124	62.517	0.505
750.000	454.174	80.007	19.995	103.782	19.054	67.547	0.507
752.000	455.214	80.007	19.995	103.801	18.983	72.773	0.513
754.000	456.194	80.007	19.993	103.815	18.910	78.088	0.497
756.000	457.220	80.007	19.996	103.775	18.832	83.694	0.506
758.000	458.272	80.008	19.994	103.743	18.752	89.379	0.509
760.000	459.309	80.010	19.995	103.752	18.647	96.963	0.551
762.000	460.282	80.009	19.995	103.779	18.515	106.537	0.492
764.000	461.280	80.010	19.994	103.811	18.364	117.538	0.493
766.000	462.398	80.010	19.994	103.799	18.235	126.831	0.558
768.000	463.383	80.011	19.992	103.678	18.117	135.384	0.507
770.000	464.388	80.009	19.993	103.577	17.982	145.133	0.474
772.000	465.429	80.009	19.993	103.608	17.842	155.345	0.518
774.000	466.473	80.010	19.993	103.665	17.701	165.572	0.560
776.000	467.489	80.009	19.994	103.672	17.558	175.857	0.497
778.000	468.520	80.009	19.995	103.592	17.406	186.728	0.505
780.000	469.604	80.010	19.994	103.586	17.245	198.283	0.541
782.000	470.555	80.008	19.994	103.593	17.058	211.846	0.480
784.000	471.544	80.011	19.993	103.608	16.846	227.115	0.458
786.000	472.624	80.010	19.994	103.611	16.623	243.033	0.535
788.000	473.640	80.011	19.994	103.541	16.401	258.934	0.530
790.000	474.676	80.011	19.994	103.480	16.158	276.427	0.528
792.000	475.703	80.009	19.994	103.459	15.898	295.162	0.497
794.000	476.719	80.009	19.993	103.433	15.631	314.058	0.514
796.000	477.744	80.008	19.996	103.384	15.344	334.647	0.526
798.000	478.769	80.007	19.995	103.315	15.046	355.889	0.533
800.000	479.774	80.007	19.993	103.268	14.748	377.119	0.515
802.000	480.841	80.008	19.995	103.265	14.437	399.162	0.539
804.000	481.839	80.008	19.995	103.162	14.111	422.332	0.523
806.000	482.879	80.007	19.996	103.095	13.777	446.000	0.504
808.000	483.874	80.009	19.993	103.041	13.431	470.607	0.485
810.000	484.861	80.008	19.995	102.971	13.074	496.033	0.511
812.000	485.872	80.007	19.995	102.890	12.719	521.267	0.520
814.000	486.901	80.008	19.995	102.820	12.386	544.904	0.500
816.000	487.901	80.008	19.995	102.740	12.056	568.425	0.517
818.000	488.920	80.007	19.995	102.676	11.752	589.942	0.507
820.000	489.905	80.008	19.995	102.623	11.475	609.719	0.499
822.000	490.919	80.007	19.993	102.575	11.237	626.942	0.504
824.000	491.949	80.008	19.994	102.527	11.055	640.335	0.501
826.000	492.950	80.008	19.994	102.488	10.926	649.784	0.509
828.000	493.957	80.007	19.994	102.458	10.873	653.679	0.500
830.000	494.987	80.007	19.993	102.425	10.882	653.430	0.536
832.000	496.007	80.009	19.995	102.429	10.955	648.623	0.489
834.000	497.042	80.007	19.994	102.469	11.101	638.542	0.496
836.000	498.014	80.009	19.994	102.522	11.326	622.845	0.513
838.000	499.023	80.009	19.995	102.534	11.627	601.603	0.526
840.000	499.997	80.009	19.995	102.570	11.990	575.783	0.507
842.000	500.989	80.009	19.993	102.645	12.427	545.255	0.466
844.000	502.037	80.008	19.994	102.720	12.930	509.648	0.523
846.001	503.053	80.010	19.994	102.784	13.507	468.634	0.496
848.000	504.032	80.009	19.993	102.857	14.131	424.027	0.508
850.000	505.010	80.009	19.995	102.903	14.773	378.006	0.527
852.000	506.117	80.009	19.995	103.039	15.448	329.384	0.544
854.000	507.116	80.009	19.993	103.200	16.101	282.206	0.541
856.000	508.073	80.008	19.994	103.343	16.720	237.312	0.551
858.000	509.199	80.009	19.993	103.486	17.294	195.647	0.544
860.000	510.252	80.009	19.993	103.605	17.805	158.510	0.446
862.000	511.744	80.008	19.993	103.728	18.246	126.461	0.550
864.000	512.295	80.010	19.993	103.825	18.616	99.529	0.613
866.001	513.119	80.012	19.992	103.888	18.923	77.188	0.053
868.000	514.316	80.012	19.993	103.930	19.166	59.569	0.447
870.000	515.289	80.010	19.994	103.939	19.356	45.735	0.447
872.000	516.494	80.011	19.994	103.946	19.501	35.195	0.566
874.000	517.399	80.010	19.996	103.936	19.606	27.516	0.480
876.000	518.497	80.008	19.995	103.936	19.687	21.634	0.503
878.000	519.610	80.009	19.994	103.926	19.745	17.428	0.506
880.000	520.537	80.008	19.996	103.908	19.787	14.388	0.485
882.000	521.674	80.007	19.994	103.905	19.818	12.143	0.514
884.000	522.705	80.008	19.995	103.902	19.843	10.300	0.535
886.000	523.840	80.008	19.994	103.898	19.860	9.069	0.518
888.000	524.852	80.008	19.995	103.898	19.872	8.244	0.491
890.000	525.956	80.008	19.994	103.891	19.884	7.311	0.545
892.000	527.001	80.010	19.996	103.882	19.887	7.096	0.525
894.000	528.095	80.008	19.994	103.885	19.893	6.656	0.554
896.000	529.150	80.009	19.994	103.883	19.904	5.902	0.550
898.000	530.251	80.009	19.994	103.871	19.909	5.544	0.518
900.000	531.321	80.009	19.995	103.878	19.915	5.068	0.507
902.000	532.387	80.008	19.995	103.865	19.911	5.380	0.509
904.000	533.462	80.009	19.996	103.841	19.915	5.105	0.515
906.000	534.535	80.008	19.994	103.785	19.918	4.880	0.542
908.000	535.646	80.008	19.995	103.711	19.918	4.861	0.532
910.001	536.732	80.007	19.996	103.639	19.919	4.793	0.525
912.000	537.809	80.008	19.994	103.649	19.917	4.909	0.558
914.000	538.919	80.007	19.996	103.731	19.919	4.829	0.567
916.000	539.966	80.007	19.996	103.802	19.922	4.550	0.529
918.000	541.014	80.009	19.995	103.843	19.921	4.629	0.514
920.000	542.087	80.010	19.995	103.872	19.926	4.300	0.533
922.000	543.153	80.009	19.994	103.891	19.922	4.545	0.537
924.000	544.224	80.009	19.994	103.899	19.926	4.284	0.545
926.000	545.278	80.009	19.994	103.900	19.926	4.306	0.516
928.000	546.361	80.009	19.993	103.905	19.925	4.334	0.545
930.001	547.431	80.011	19.994	103.900	19.924	4.419	0.577
932.000	548.499	80.010	19.993	103.900	19.927	4.222	0.553
934.000	549.579	80.009	19.994	103.901	19.928	4.140	0.533
936.000	550.649	80.009	19.995	103.900	19.928	4.124	0.562
938.000	551.679	80.009	19.994	103.898	19.926	4.296	0.506
940.000	552.726	80.010	19.995	103.895	19.927	4.199	0.531
942.000	553.818	80.009	19.994	103.897	19.930	3.992	0.533
944.000	554.876	80.010	19.994	103.897	19.929	4.056	0.544
946.000	555.888	80.011	19.994	103.896	19.931	3.931	0.510
948.000	556.942	80.011	19.993	103.896	19.928	4.127	0.528
950.000	557.987	80.012	19.994	103.890	19.931	3.935	0.542
952.000	559.023	80.012	19.993	103.891	19.928	4.160	0.513
954.000	560.021	80.011	19.994	103.891	19.930	4.021	0.514
956.000	561.072	80.010	19.993	103.890	19.928	4.134	0.513
958.000	562.124	80.009	19.995	103.883	19.928	4.152	0.497
960.000	563.177	80.008	19.995	103.893	19.926	4.276	0.506
962.000	564.173	80.009	19.994	103.874	19.928	4.154	0.466
964.000	565.211	80.009	19.994	103.869	19.935	3.663	0.507
966.000	566.237	80.007	19.994	103.872	19.931	3.937	0.504
968.000	567.307	80.009	19.996	103.864	19.930	3.996	0.541
970.001	568.244	80.007	19.996	103.868	19.930	3.965	0.484
972.000	569.294	80.009	19.996	103.863	19.932	3.861	0.525
974.000	570.320	80.009	19.994	103.866	19.930	3.969	0.508
976.000	571.351	80.009	19.995	103.868	19.932	3.871	0.527
978.000	572.407	80.009	19.996	103.876	19.933	3.766	0.539
980.000	573.456	80.010	19.996	103.888	19.932	3.820	0.519
982.000	574.463	80.009	19.995	103.885	19.932	3.870	0.521
984.000	575.506	80.008	19.994	103.881	19.931	3.900	0.514
986.000	576.541	80.008	19.993	103.878	19.935	3.642	0.517
988.001	577.563	80.008	19.994	103.887	19.933	3.806	0.492
990.000	578.580	80.007	19.994	103.895	19.932	3.830	0.534
992.001	579.586	80.006	19.995	103.892	19.934	3.700	0.479
994.000	580.597	80.008	19.995	103.893	19.933	3.808	0.515
996.000	581.634	80.007	19.995	103.890	19.932	3.836	0.504
998.000	582.631	80.008	19.995	103.890	19.931	3.898	0.523
1000.000	583.662	80.009	19.994	103.891	19.933	3.790	0.510
1002.000	584.681	80.008	19.996	103.890	19.931	3.932	0.521
1004.000	585.639	80.008	19.994	103.884	19.933	3.782	0.477
1006.000	586.680	80.011	19.996	103.894	19.932	3.836	0.528
1008.000	587.713	80.009	19.995	103.886	19.931	3.942	0.520
1010.000	588.692	80.009	19.994	103.886	19.932	3.834	0.526
1012.000	589.778	80.010	19.994	103.889	19.932	3.870	0.543
1014.000	590.781	80.009	19.994	103.893	19.930	3.994	0.496
1016.000	591.772	80.010	19.993	103.890	19.932	3.848	0.517
1018.000	592.792	80.009	19.994	103.885	19.934	3.704	0.531
1020.000	593.834	80.009	19.994	103.891	19.934	3.690	0.508
1022.000	594.829	80.008	19.994	103.884	19.933	3.759	0.503
1024.000	595.884	80.009	19.994	103.889	19.934	3.698	0.507
1026.000	596.907	80.010	19.995	103.894	19.934	3.700	0.515
1028.001	597.905	80.011	19.994	103.884	19.938	3.442	0.481
1030.001	598.984	80.011	19.994	103.885	19.933	3.750	0.496
1032.001	599.987	80.011	19.995	103.869	19.935	3.664	0.520
1034.000	601.080	80.011	19.994	103.876	19.929	4.093	0.543
1036.000	602.079	80.010	19.994	103.895	19.932	3.849	0.528
1038.001	603.086	80.009	19.994	103.887	19.932	3.849	0.497
1040.001	604.123	80.008	19.993	103.883	19.935	3.610	0.511
1042.001	605.139	80.010	19.995	103.890	19.935	3.649	0.528
1044.000	606.180	80.009	19.995	103.874	19.933	3.765	0.516
1046.000	607.153	80.009	19.995	103.877	19.933	3.771	0.510
1048.000	608.183	80.008	19.994	103.869	19.933	3.770	0.485
1050.000	609.224	80.009	19.994	103.879	19.934	3.669	0.505
1052.000	610.269	80.010	19.994	103.875	19.935	3.631	0.533
1054.000	611.298	80.009	19.994	103.872	19.934	3.701	0.522
1056.001	612.328	80.009	19.995	103.870	19.938	3.438	0.485
1058.000	613.352	80.009	19.994	103.884	19.936	3.525	0.522
1060.000	614.399	80.009	19.994	103.871	19.939	3.368	0.491
1062.000	615.376	80.009	19.994	103.869	19.937	3.490	0.504
1064.000	616.430	80.010	19.994	103.868	19.935	3.595	0.515
1066.000	617.426	80.008	19.996	103.869	19.940	3.266	0.509
1068.000	618.447	80.009	19.995	103.866	19.939	3.318	0.502
1070.000	619.466	80.010	19.995	103.865	19.935	3.647	0.495
1072.001	620.501	80.009	19.995	103.878	19.936	3.535	0.513
1074.000	621.494	80.008	19.995	103.867	19.935	3.649	0.507
1076.000	622.506	80.008	19.996	103.860	19.936	3.533	0.511
1078.000	623.500	80.009	19.995	103.863	19.935	3.605	0.489
1080.000	624.521	80.010	19.995	103.867	19.936	3.583	0.509
1082.000	625.544	80.009	19.995	103.861	19.936	3.575	0.516
1084.000	626.546	80.009	19.994	103.868	19.937	3.479	0.509
1086.000	627.503	80.009	19.995	103.861	19.935	3.659	0.486
1088.000	628.480	80.010	19.996	103.863	19.935	3.633	0.499
1090.000	629.526	80.009	19.994	103.865	19.936	3.527	0.513
1092.000	630.521	80.009	19.995	103.859	19.935	3.621	0.497
1094.000	631.485	80.009	19.995	103.864	19.936	3.555	0.482
1096.000	632.526	80.008	19.999	103.865	19.936	3.535	0.482
1098.000	633.537	80.009	19.995	103.869	19.937	3.471	0.501
1100.000	634.544	80.007	19.995	103.863	19.939	3.324	0.482
1102.000	635.565	80.009	19.994	103.866	19.938	3.386	0.504
1104.000	636.588	80.008	19.995	103.863	19.938	3.382	0.501
1106.000	637.639	80.010	19.994	103.864	19.940	3.272	0.527
1108.000	638.620	80.010	19.993	103.862	19.937	3.460	0.519
1110.000	639.606	80.011	19.993	103.870	19.939	3.344	0.476
1112.001	640.655	80.009	19.995	103.865	19.939	3.328	0.479
1114.000	641.626	80.012	19.994	103.877	19.935	3.602	0.477
1116.000	642.622	80.010	19.995	103.882	19.940	3.234	0.523
1118.000	643.667	80.010	19.993	103.876	19.939	3.332	0.519
1120.000	644.623	80.009	19.993	103.882	19.939	3.308	0.457
1122.000	645.628	80.009	19.995	103.892	19.938	3.414	0.487
1124.001	646.666	80.008	19.994	103.888	19.936	3.586	0.528
1126.000	647.657	80.008	19.994	103.891	19.938	3.438	0.522
1128.000	648.636	80.009	19.994	103.873	19.939	3.304	0.505
1130.000	649.658	80.008	19.994	103.880	19.937	3.470	0.489
1132.000	650.641	80.008	19.993	103.884	19.939	3.334	0.529
1134.000	651.697	80.007	19.995	103.879	19.938	3.386	0.491
1136.001	652.657	80.009	19.994	103.879	19.935	3.650	0.477
1138.000	653.632	80.008	19.995	103.877	19.936	3.568	0.459
1140.001	654.682	80.010	19.995	103.879	19.939	3.352	0.506
1142.000	655.726	80.010	19.994	103.880	19.938	3.416	0.535
1144.000	656.655	80.010	19.993	103.877	19.935	3.613	0.499
1146.000	657.658	80.010	19.992	103.875	19.937	3.501	0.488
1148.000	658.670	80.009	19.995	103.888	19.937	3.510	0.501
1150.000	659.622	80.010	19.994	103.884	19.939	3.354	0.469
1152.000	660.657	80.010	19.996	103.895	19.939	3.361	0.506
1154.000	661.616	80.009	19.994	103.881	19.937	3.458	0.467
1156.000	662.619	80.009	19.996	103.865	19.936	3.578	0.503
1158.000	663.599	80.007	19.995	103.872	19.937	3.514	0.496
1160.000	664.588	80.008	19.996	103.871	19.935	3.616	0.499
1162.000	665.606	80.007	19.995	103.867	19.935	3.656	0.493
1164.000	666.549	80.009	19.995	103.870	19.936	3.528	0.495
1166.001	667.614	80.009	19.995	103.886	19.934	3.696	0.517
1168.000	668.622	80.009	19.995	103.888	19.937	3.464	0.512
1170.000	669.651	80.010	19.995	103.890	19.936	3.534	0.520
1172.001	670.720	80.010	19.994	103.886	19.935	3.624	0.557
1174.000	671.798	80.009	19.994	103.895	19.935	3.612	0.526
1176.000	672.916	80.008	19.994	103.894	19.932	3.842	0.584
1178.000	674.009	80.008	19.994	103.899	19.933	3.740	0.565
1180.000	675.113	80.007	19.996	103.898	19.931	3.908	0.563
1182.001	676.272	80.008	19.995	103.894	19.936	3.588	0.585
1184.000	677.360	80.008	19.995	103.896	19.934	3.699	0.596
1186.000	678.459	80.007	19.996	103.899	19.935	3.612	0.545
1188.000	679.586	80.007	19.995	103.897	19.932	3.850	0.592
1190.001	680.700	80.009	19.996	103.902	19.935	3.600	0.531
1192.000	681.826	80.009	19.996	103.889	19.935	3.644	0.570
1194.001	682.944	80.011	19.995	103.878	19.934	3.688	0.550
1196.000	684.093	80.011	19.995	103.879	19.934	3.678	0.570
1198.000	685.242	80.010	19.994	103.886	19.934	3.714	0.580
1200.000	686.375	80.009	19.993	103.886	19.934	3.670	0.577
1202.000	687.485	80.009	19.993	103.885	19.933	3.779	0.564
1204.000	688.634	80.008	19.993	103.880	19.934	3.678	0.558
1206.000	689.769	80.009	19.994	103.879	19.931	3.888	0.572
1208.001	690.901	80.007	19.993	103.884	19.934	3.728	0.531
1210.000	692.014	80.007	19.994	103.885	19.936	3.562	0.557
1212.000	693.136	80.008	19.993	103.864	19.931	3.898	0.579
1214.001	694.284	80.009	19.993	103.880	19.935	3.662	0.560
1216.000	695.375	80.008	19.994	103.883	19.934	3.702	0.527
1218.000	696.491	80.007	19.994	103.886	19.932	3.823	0.538
1220.001	697.592	80.008	19.995	103.879	19.934	3.674	0.550
1222.001	698.664	80.006	19.996	103.888	19.933	3.785	0.513
1224.000	699.782	80.008	19.993	103.890	19.934	3.677	0.601
1226.001	700.824	80.007	19.994	103.890	19.934	3.708	0.552
1228.001	701.932	80.007	19.994	103.873	19.934	3.688	0.564
1230.001	702.965	80.008	19.994	103.880	19.933	3.811	0.534
1232.000	704.034	80.008	19.994	103.884	19.931	3.887	0.546
1234.000	705.052	80.007	19.993	103.871	19.931	3.905	0.523
1236.001	706.078	80.007	19.994	103.885	19.933	3.775	0.515
1238.000	707.130	80.008	19.994	103.887	19.935	3.631	0.510
1240.001	708.122	80.008	19.994	103.875	19.932	3.825	0.516
1242.001	709.147	80.009	19.993	103.877	19.936	3.554	0.546
1244.000	710.154	80.008	19.993	103.870	19.937	3.495	0.508
1246.000	711.187	80.008	19.994	103.866	19.934	3.675	0.520
1248.000	712.187	80.010	19.994	103.865	19.932	3.819	0.516
1250.000	713.197	80.009	19.994	103.877	19.932	3.819	0.485
1252.000	714.182	80.009	19.995	103.877	19.931	3.925	0.488
1254.000	715.237	80.010	19.994	103.872	19.932	3.853	0.492
1256.001	716.307	80.009	19.993	103.864	19.931	3.955	0.505
1258.001	717.215	80.008	19.993	103.880	19.933	3.785	0.490
1260.000	718.215	80.008	19.994	103.862	19.933	3.777	0.489
1262.000	719.194	80.008	19.993	103.860	19.933	3.809	0.483
1264.000	720.185	80.009	19.994	103.863	19.932	3.817	0.497
1266.001	721.149	80.010	19.993	103.864	19.931	3.935	0.497
1268.000	722.128	80.009	19.993	103.872	19.934	3.731	0.486
1270.000	723.084	80.009	19.993	103.862	19.931	3.925	0.490
1272.000	724.048	80.010	19.993	103.859	19.933	3.793	0.470
1274.000	725.029	80.010	19.993	103.862	19.933	3.788	0.483
1276.001	725.985	80.011	19.994	103.869	19.930	3.971	0.487
1278.000	726.983	80.011	19.994	103.866	19.930	3.985	0.483
1280.000	727.935	80.009	19.995	103.868	19.931	3.923	0.492
1282.000	728.955	80.009	19.994	103.870	19.933	3.811	0.498
1284.000	729.884	80.009	19.995	103.874	19.932	3.823	0.462
1286.001	730.896	80.007	19.995	103.882	19.932	3.825	0.511
1288.000	731.919	80.007	19.995	103.867	19.932	3.855	0.520
1290.000	732.890	80.007	19.994	103.882	19.930	4.013	0.501
1292.000	733.901	80.007	19.995	103.872	19.930	3.991	0.483
1294.000	734.927	80.008	19.993	103.873	19.933	3.751	0.529
1296.001	735.932	80.008	19.994	103.873	19.931	3.893	0.507
1298.001	736.960	80.008	19.994	103.875	19.929	4.061	0.477
1300.000	737.964	80.009	19.995	103.873	19.934	3.683	0.502
1302.000	738.977	80.009	19.993	103.867	19.931	3.905	0.471
1304.000	739.957	80.008	19.993	103.868	19.931	3.891	0.486
1306.001	741.001	80.009	19.993	103.864	19.932	3.870	0.519
1308.001	742.004	80.008	19.993	103.864	19.930	4.013	0.503
1310.000	743.003	80.009	19.993	103.866	19.932	3.841	0.490
1311.000	743.519	80.009	19.994	103.872	19.935	3.640	0.534