File: 01_Data/PEX_Pipe/MCC/PEX_Pipe_MCC_30K_min_220131_R3.txt
Sample ID:	C:\MCC\MCC Cal\Test\PEX_Pipe_MCC_30K_min_220131_R3.txt
Sample Weight (mg):	4.86
Heating Rate (C/s):	0.5
Combustor Temp (C):	900
N2 Flow Rate (cc/min):	80
O2 Flow Rate (cc/min):	20
Calibration File:	C:\MCC\MCC Cal\Coeff1 JN10440_30_210304.txt.txt
T Correction Coefficients:	0	1.024463	0
Time Shift (s):	14
*
Time (s)	Temperature (C)	N2 flow rate (cc/min)	O2 flow rate (cc/min)	Flow Rate (cc/min)	Oxygen (%)	HRR (W/g)	Heating rate (C/s)
0.000	114.302	80.000	19.996	103.772	20.116	0.024	-0.020
2.000	114.314	80.008	19.988	103.782	20.114	0.150	0.001
4.000	114.260	80.006	19.993	103.780	20.117	-0.038	0.000
6.000	114.297	80.004	19.992	103.787	20.115	0.046	0.008
8.000	114.244	80.007	19.996	103.771	20.112	0.267	-0.007
10.000	114.283	80.021	19.993	103.776	20.110	0.390	0.002
12.000	114.215	79.988	19.991	103.776	20.110	0.385	0.005
14.000	114.233	80.006	19.997	103.789	20.107	0.617	0.004
16.000	114.231	80.006	19.992	103.800	20.105	0.763	-0.014
18.000	114.256	80.003	19.996	103.751	20.108	0.541	0.023
20.000	114.267	80.004	19.994	103.824	20.106	0.662	0.002
22.000	114.278	80.005	19.992	103.870	20.105	0.750	-0.005
24.000	114.321	79.999	19.999	103.815	20.101	0.972	0.039
26.000	114.359	80.015	19.992	103.845	20.095	1.409	0.013
28.000	114.426	80.006	19.993	103.894	20.093	1.568	0.003
30.000	114.546	80.009	19.992	103.908	20.088	1.891	0.046
32.000	114.693	80.008	19.990	103.919	20.083	2.196	0.088
34.000	114.802	80.007	19.994	103.944	20.082	2.282	0.072
36.000	115.006	80.007	19.994	103.933	20.080	2.372	0.084
38.000	115.197	80.005	19.994	103.936	20.078	2.545	0.123
40.000	115.372	80.015	19.992	103.949	20.078	2.545	0.100
42.000	115.653	80.004	19.995	103.950	20.075	2.714	0.156
44.000	115.936	80.007	19.995	103.954	20.075	2.731	0.158
46.001	116.236	80.007	19.995	103.965	20.074	2.828	0.169
48.000	116.556	80.007	19.996	103.982	20.073	2.859	0.182
50.000	116.972	80.009	19.989	103.989	20.067	3.243	0.217
52.000	117.343	80.003	19.994	103.986	20.072	2.968	0.194
54.000	117.804	80.011	19.994	103.983	20.067	3.280	0.226
56.001	118.184	80.008	19.992	103.988	20.066	3.319	0.181
58.000	118.667	80.006	19.994	103.986	20.063	3.521	0.247
60.000	119.155	80.007	19.994	103.984	20.063	3.565	0.250
62.000	119.632	80.006	19.993	103.986	20.062	3.640	0.260
64.000	120.190	80.005	19.994	104.003	20.061	3.673	0.283
66.000	120.733	80.007	19.994	104.012	20.063	3.541	0.313
68.000	121.264	80.010	19.991	104.014	20.062	3.581	0.268
70.000	121.850	80.008	19.993	104.011	20.062	3.633	0.299
72.000	122.446	80.006	19.989	104.017	20.058	3.893	0.281
74.001	123.042	80.008	19.995	104.022	20.057	3.960	0.299
76.000	123.679	80.007	19.995	104.018	20.059	3.815	0.306
78.001	124.336	80.003	19.998	104.016	20.054	4.130	0.331
80.000	125.018	80.011	19.995	104.017	20.058	3.886	0.310
82.000	125.702	80.008	19.995	104.018	20.056	4.022	0.346
84.000	126.390	80.008	19.998	104.020	20.055	4.107	0.321
86.000	127.140	80.004	19.996	104.019	20.056	4.009	0.322
88.000	127.889	80.008	19.993	104.020	20.055	4.092	0.354
90.000	128.625	80.006	19.995	104.019	20.054	4.124	0.361
92.000	129.387	80.005	19.994	104.020	20.053	4.202	0.382
94.001	130.189	80.006	19.995	104.023	20.051	4.311	0.391
96.000	130.964	80.003	19.995	104.021	20.054	4.149	0.405
98.000	131.724	80.005	19.995	104.020	20.056	4.004	0.402
100.000	132.554	80.006	19.993	104.019	20.062	3.614	0.392
102.000	133.337	80.007	19.993	103.944	20.076	2.684	0.385
104.000	134.085	80.009	19.993	103.771	20.085	2.071	0.398
106.001	134.807	80.005	19.994	103.722	20.099	1.149	0.345
108.000	135.410	80.008	19.992	103.710	20.106	0.670	0.319
110.000	135.905	80.005	19.994	103.704	20.105	0.739	0.257
112.000	136.414	80.007	19.993	103.706	20.112	0.276	0.260
114.000	136.866	80.005	19.994	103.682	20.116	-0.002	0.219
116.000	137.283	80.004	19.995	103.680	20.116	0.027	0.226
118.000	137.594	80.006	19.994	103.678	20.116	-0.005	0.142
120.000	137.928	80.004	19.994	103.679	20.118	-0.156	0.183
122.001	138.140	80.005	19.994	103.679	20.117	-0.070	0.085
124.000	138.327	80.006	19.992	103.688	20.117	-0.079	0.069
126.000	138.535	80.007	19.993	103.676	20.118	-0.112	0.087
128.000	138.658	80.007	19.994	103.678	20.121	-0.302	0.070
130.000	138.791	80.006	19.993	103.676	20.121	-0.346	0.073
132.000	138.847	80.007	19.993	103.683	20.119	-0.221	0.056
134.000	138.937	80.007	19.994	103.674	20.118	-0.126	0.034
136.000	138.937	80.006	19.993	103.676	20.119	-0.225	-0.002
138.000	138.910	80.006	19.994	103.689	20.119	-0.220	-0.023
140.000	138.924	80.007	19.994	103.676	20.122	-0.392	-0.007
142.000	138.882	80.006	19.994	103.670	20.121	-0.309	-0.039
144.000	138.839	80.007	19.993	103.668	20.119	-0.216	-0.039
146.000	138.777	80.007	19.993	103.677	20.121	-0.307	-0.018
148.000	138.643	80.006	19.994	103.669	20.121	-0.313	-0.063
150.000	138.544	80.006	19.994	103.670	20.119	-0.181	-0.050
152.000	138.434	80.007	19.994	103.669	20.121	-0.357	-0.039
154.000	138.303	80.006	19.994	103.667	20.120	-0.282	-0.079
156.000	138.158	80.007	19.993	103.669	20.119	-0.192	-0.070
158.000	137.994	80.008	19.994	103.673	20.120	-0.249	-0.098
160.000	137.838	80.007	19.994	103.678	20.121	-0.346	-0.056
162.000	137.655	80.007	19.995	103.682	20.120	-0.247	-0.063
164.000	137.512	80.009	19.995	103.668	20.124	-0.531	-0.089
166.000	137.309	80.006	19.994	103.670	20.122	-0.386	-0.081
168.000	137.120	80.005	19.995	103.673	20.118	-0.154	-0.099
170.000	136.924	80.005	19.994	103.669	20.121	-0.298	-0.090
172.000	136.696	80.006	19.995	103.672	20.118	-0.119	-0.106
174.000	136.501	80.006	19.994	103.675	20.119	-0.185	-0.114
176.000	136.255	80.006	19.993	103.675	20.118	-0.154	-0.135
178.000	136.036	80.005	19.994	103.678	20.121	-0.335	-0.122
180.000	135.834	80.005	19.993	103.675	20.120	-0.263	-0.124
182.000	135.607	80.004	19.994	103.681	20.115	0.037	-0.113
184.000	135.358	80.006	19.993	103.686	20.118	-0.112	-0.104
186.000	135.112	80.004	19.993	103.687	20.119	-0.188	-0.128
188.000	134.891	80.005	19.993	103.691	20.117	-0.097	-0.125
190.000	134.653	80.007	19.993	103.680	20.115	0.075	-0.103
192.000	134.413	80.006	19.994	103.676	20.118	-0.157	-0.121
194.000	134.209	80.006	19.994	103.692	20.116	-0.015	-0.127
196.000	133.899	80.006	19.995	103.679	20.117	-0.066	-0.162
198.000	133.679	80.005	19.993	103.684	20.118	-0.124	-0.127
200.000	133.412	80.004	19.994	103.678	20.117	-0.046	-0.129
202.000	133.176	80.005	19.992	103.691	20.119	-0.165	-0.133
204.000	132.921	80.005	19.994	103.684	20.115	0.099	-0.111
206.000	132.711	80.005	19.994	103.690	20.116	0.000	-0.118
208.000	132.481	80.006	19.994	103.687	20.116	-0.018	-0.094
210.000	132.251	80.006	19.994	103.686	20.117	-0.073	-0.112
212.000	132.010	80.007	19.993	103.704	20.115	0.060	-0.118
214.000	131.805	80.008	19.994	103.686	20.113	0.210	-0.100
216.000	131.543	80.006	19.993	103.697	20.113	0.196	-0.120
218.000	131.302	80.007	19.994	103.693	20.115	0.099	-0.129
220.000	131.066	80.007	19.992	103.693	20.117	-0.091	-0.100
222.000	130.845	80.007	19.996	103.695	20.112	0.245	-0.111
224.000	130.592	80.007	19.994	103.696	20.112	0.284	-0.156
226.000	130.404	80.006	19.994	103.700	20.112	0.264	-0.074
228.000	130.163	80.005	19.994	103.691	20.113	0.210	-0.108
230.000	129.969	80.007	19.994	103.681	20.113	0.215	-0.095
232.000	129.685	80.006	19.994	103.693	20.113	0.212	-0.110
234.000	129.487	80.006	19.994	103.686	20.116	-0.007	-0.121
236.000	129.256	80.008	19.993	103.703	20.110	0.403	-0.101
238.000	129.017	80.007	19.995	103.698	20.091	1.663	-0.142
240.000	128.842	80.008	19.995	103.876	20.052	4.298	-0.079
242.000	128.783	80.007	19.995	104.478	20.016	6.728	-0.022
244.000	128.986	80.008	19.994	104.638	19.989	8.554	0.107
246.000	129.404	80.007	19.995	104.647	19.968	9.940	0.209
248.000	129.996	80.005	19.993	104.627	19.960	10.481	0.302
250.000	130.783	80.004	19.994	104.596	19.955	10.824	0.436
252.000	131.708	80.005	19.995	104.557	19.956	10.708	0.441
254.000	132.841	80.006	19.994	104.532	19.953	10.901	0.531
256.000	134.134	80.004	19.996	104.524	19.954	10.862	0.644
258.000	135.509	80.003	19.995	104.506	19.955	10.819	0.730
260.000	136.994	80.005	19.993	104.491	19.958	10.569	0.755
262.000	138.609	80.006	19.995	104.487	19.963	10.251	0.803
264.000	140.344	80.004	19.995	104.456	19.965	10.095	0.882
266.000	142.113	80.006	19.993	104.440	19.967	9.979	0.909
268.000	143.989	80.005	19.994	104.420	19.970	9.755	0.932
270.000	145.932	80.006	19.993	104.402	19.977	9.322	0.978
272.000	147.915	80.006	19.993	104.367	19.980	9.121	0.992
274.000	149.958	80.005	19.993	104.332	19.987	8.623	1.027
276.000	152.026	80.006	19.994	104.316	19.991	8.349	1.014
278.000	154.062	80.006	19.992	104.295	19.991	8.342	1.031
280.000	156.142	80.004	19.994	104.293	19.993	8.213	1.053
282.000	158.238	80.005	19.994	104.283	19.997	7.939	1.060
284.000	160.379	80.005	19.993	104.256	19.999	7.830	1.066
286.000	162.488	80.005	19.993	104.238	20.004	7.466	1.060
288.000	164.699	80.006	19.994	104.221	20.007	7.299	1.108
290.000	166.809	80.005	19.994	104.212	20.011	7.006	1.062
292.000	168.918	80.005	19.994	104.191	20.012	6.965	1.041
294.000	171.077	80.007	19.994	104.176	20.015	6.735	1.056
296.000	173.213	80.007	19.994	104.176	20.017	6.606	1.050
298.000	175.296	80.007	19.993	104.163	20.020	6.396	1.024
300.000	177.414	80.007	19.994	104.145	20.024	6.161	1.063
302.000	179.470	80.008	19.993	104.138	20.026	6.030	1.044
304.000	181.527	80.007	19.994	104.133	20.025	6.072	1.060
306.000	183.613	80.007	19.993	104.129	20.025	6.063	1.034
308.000	185.650	80.006	19.994	104.117	20.026	5.998	1.049
310.000	187.660	80.007	19.993	104.116	20.028	5.860	0.975
312.000	189.649	80.007	19.993	104.112	20.032	5.614	0.961
314.000	191.679	80.007	19.994	104.114	20.028	5.864	0.988
316.000	193.655	80.007	19.994	104.114	20.030	5.763	1.003
318.000	195.583	80.006	19.994	104.116	20.031	5.713	0.963
320.000	197.509	80.008	19.994	104.101	20.034	5.509	0.971
322.000	199.450	80.008	19.993	104.101	20.033	5.576	1.007
324.000	201.359	80.007	19.994	104.097	20.034	5.511	0.969
326.000	203.334	80.007	19.994	104.096	20.032	5.596	1.021
328.000	205.202	80.007	19.994	104.099	20.032	5.597	0.962
330.000	207.045	80.007	19.994	104.097	20.037	5.304	0.943
332.000	208.975	80.003	19.994	104.081	20.036	5.322	0.952
334.000	210.865	80.004	19.994	104.078	20.037	5.283	0.946
336.000	212.754	80.004	19.994	104.085	20.038	5.228	0.915
338.000	214.577	80.006	19.994	104.066	20.035	5.391	0.900
340.000	216.423	80.004	19.994	104.064	20.038	5.238	0.947
342.000	218.263	80.005	19.995	104.063	20.039	5.122	0.910
344.000	220.076	80.005	19.994	104.060	20.041	5.035	0.891
346.000	221.878	80.005	19.995	104.051	20.041	5.024	0.916
348.000	223.668	80.006	19.994	104.055	20.044	4.828	0.894
350.000	225.439	80.005	19.996	104.040	20.041	4.984	0.857
352.000	227.209	80.006	19.996	104.028	20.043	4.880	0.883
354.000	228.907	80.006	19.995	104.023	20.048	4.544	0.878
356.000	230.678	80.006	19.994	104.023	20.047	4.612	0.884
358.000	232.384	80.006	19.994	104.016	20.042	4.953	0.841
360.000	234.039	80.006	19.995	104.014	20.042	4.971	0.826
362.000	235.690	80.006	19.994	104.014	20.045	4.749	0.830
364.000	237.354	80.005	19.994	103.992	20.049	4.490	0.808
366.000	238.945	80.006	19.994	103.992	20.047	4.577	0.798
368.000	240.540	80.006	19.994	103.988	20.046	4.696	0.837
370.000	242.095	80.005	19.995	103.986	20.051	4.373	0.793
372.000	243.615	80.005	19.994	103.987	20.053	4.215	0.750
374.000	245.139	80.006	19.993	103.986	20.050	4.400	0.743
376.000	246.721	80.007	19.994	103.985	20.049	4.442	0.784
378.000	248.187	80.008	19.993	103.987	20.053	4.228	0.735
380.000	249.693	80.008	19.994	103.984	20.054	4.158	0.755
382.000	251.192	80.007	19.993	103.983	20.051	4.336	0.745
384.000	252.675	80.007	19.994	103.979	20.052	4.251	0.727
386.000	254.083	80.007	19.994	103.982	20.051	4.314	0.724
388.000	255.519	80.006	19.995	103.977	20.054	4.159	0.729
390.000	256.910	80.005	19.993	103.980	20.053	4.192	0.708
392.000	258.290	80.006	19.992	103.975	20.055	4.064	0.700
394.000	259.700	80.007	19.994	103.970	20.055	4.062	0.678
396.000	260.988	80.006	19.994	103.975	20.055	4.043	0.671
398.000	262.353	80.007	19.993	103.968	20.057	3.931	0.654
400.000	263.678	80.007	19.993	103.949	20.054	4.122	0.665
402.000	265.046	80.005	19.994	103.964	20.058	3.878	0.655
404.000	266.321	80.009	19.993	103.956	20.057	3.925	0.627
406.000	267.594	80.009	19.993	103.945	20.055	4.054	0.651
408.000	268.893	80.008	19.994	103.943	20.055	4.048	0.653
410.000	270.152	80.007	19.993	103.942	20.058	3.858	0.616
412.000	271.394	80.007	19.994	103.942	20.063	3.571	0.605
414.000	272.658	80.006	19.993	103.940	20.056	3.995	0.603
416.000	273.880	80.006	19.994	103.944	20.057	3.907	0.617
418.000	275.073	80.005	19.995	103.939	20.056	3.993	0.610
420.000	276.245	80.005	19.995	103.943	20.058	3.899	0.588
422.000	277.438	80.006	19.994	103.942	20.057	3.947	0.599
424.000	278.656	80.007	19.994	103.943	20.057	3.914	0.615
426.000	279.818	80.007	19.994	103.937	20.057	3.919	0.593
428.000	280.942	80.006	19.995	103.935	20.058	3.881	0.604
430.000	282.060	80.006	19.995	103.938	20.059	3.833	0.560
432.000	283.156	80.006	19.995	103.933	20.056	4.000	0.526
434.000	284.345	80.007	19.993	103.928	20.057	3.937	0.586
436.000	285.426	80.006	19.993	103.929	20.062	3.618	0.588
438.000	286.538	80.007	19.994	103.923	20.058	3.875	0.559
440.000	287.636	80.005	19.995	103.930	20.057	3.913	0.570
442.000	288.749	80.005	19.995	103.935	20.056	4.009	0.565
444.000	289.782	80.005	19.995	103.922	20.059	3.798	0.542
446.000	290.868	80.005	19.995	103.919	20.056	3.979	0.563
448.000	291.931	80.006	19.995	103.922	20.059	3.807	0.548
450.000	293.048	80.005	19.995	103.927	20.061	3.647	0.553
452.000	294.047	80.006	19.995	103.913	20.062	3.636	0.522
454.000	295.065	80.006	19.993	103.914	20.065	3.433	0.523
456.000	296.061	80.006	19.995	103.912	20.063	3.530	0.521
458.000	297.093	80.007	19.993	103.913	20.061	3.669	0.481
460.000	298.089	80.006	19.994	103.908	20.062	3.581	0.516
462.000	299.131	80.007	19.994	103.910	20.059	3.808	0.502
464.000	300.133	80.009	19.994	103.910	20.061	3.676	0.520
466.000	301.106	80.008	19.994	103.909	20.060	3.764	0.466
468.000	302.130	80.008	19.994	103.906	20.058	3.882	0.486
470.000	303.093	80.009	19.994	103.906	20.059	3.801	0.498
472.000	304.033	80.007	19.994	103.906	20.060	3.741	0.466
474.000	304.976	80.009	19.992	103.904	20.059	3.810	0.474
476.000	305.942	80.007	19.993	103.903	20.062	3.574	0.476
478.000	306.870	80.008	19.993	103.904	20.059	3.797	0.478
480.000	307.828	80.008	19.993	103.901	20.058	3.885	0.464
482.000	308.759	80.009	19.993	103.904	20.056	3.990	0.487
484.000	309.727	80.009	19.993	103.904	20.059	3.830	0.452
486.000	310.656	80.009	19.993	103.903	20.058	3.886	0.503
488.000	311.612	80.009	19.994	103.904	20.059	3.790	0.493
490.000	312.532	80.009	19.992	103.902	20.058	3.891	0.477
492.000	313.438	80.008	19.993	103.904	20.054	4.122	0.444
494.000	314.383	80.008	19.993	103.905	20.059	3.830	0.468
496.000	315.338	80.007	19.994	103.906	20.059	3.834	0.488
498.000	316.243	80.006	19.993	103.911	20.058	3.886	0.470
500.000	317.188	80.006	19.994	103.907	20.056	3.985	0.509
502.000	318.160	80.006	19.993	103.908	20.058	3.895	0.487
504.000	319.079	80.007	19.992	103.906	20.060	3.713	0.461
506.000	320.023	80.004	19.993	103.905	20.060	3.724	0.490
508.000	320.978	80.006	19.994	103.908	20.057	3.926	0.476
510.000	321.959	80.007	19.993	103.908	20.057	3.961	0.504
512.000	322.862	80.005	19.993	103.907	20.058	3.902	0.450
514.000	323.828	80.007	19.994	103.907	20.057	3.946	0.473
516.000	324.804	80.007	19.995	103.901	20.055	4.075	0.475
518.000	325.742	80.007	19.993	103.907	20.062	3.631	0.446
520.000	326.782	80.004	19.995	103.907	20.057	3.961	0.505
522.000	327.675	80.005	19.996	103.909	20.059	3.818	0.460
524.000	328.683	80.006	19.994	103.908	20.056	3.986	0.500
526.000	329.670	80.006	19.993	103.909	20.056	4.027	0.496
528.000	330.626	80.006	19.994	103.911	20.057	3.959	0.466
530.000	331.634	80.005	19.994	103.908	20.056	3.994	0.503
532.000	332.652	80.006	19.994	103.906	20.056	3.992	0.514
534.000	333.653	80.007	19.994	103.905	20.056	4.005	0.511
536.000	334.659	80.006	19.994	103.904	20.052	4.293	0.532
538.000	335.689	80.006	19.994	103.908	20.053	4.181	0.514
540.000	336.656	80.007	19.995	103.903	20.051	4.315	0.456
542.000	337.700	80.007	19.995	103.913	20.051	4.359	0.539
544.000	338.776	80.008	19.993	103.920	20.053	4.173	0.542
546.000	339.758	80.007	19.995	103.912	20.049	4.449	0.510
548.000	340.829	80.008	19.994	103.905	20.053	4.199	0.513
550.000	341.859	80.007	19.992	103.903	20.051	4.326	0.523
552.000	342.843	80.007	19.994	103.903	20.050	4.428	0.502
554.000	343.882	80.008	19.993	103.903	20.046	4.652	0.529
556.000	344.875	80.006	19.994	103.908	20.048	4.527	0.527
558.000	346.001	80.007	19.993	103.907	20.048	4.513	0.547
560.000	347.016	80.007	19.993	103.905	20.046	4.668	0.518
562.000	348.066	80.008	19.993	103.905	20.045	4.707	0.531
564.000	349.136	80.007	19.994	103.907	20.044	4.793	0.559
566.000	350.213	80.009	19.992	103.905	20.046	4.676	0.569
568.000	351.251	80.008	19.992	103.903	20.043	4.894	0.548
570.000	352.297	80.008	19.992	103.904	20.040	5.066	0.540
572.000	353.346	80.008	19.993	103.902	20.038	5.182	0.542
574.000	354.398	80.008	19.992	103.905	20.038	5.219	0.508
576.000	355.444	80.008	19.992	103.905	20.039	5.158	0.510
578.000	356.508	80.007	19.994	103.905	20.036	5.363	0.532
580.000	357.525	80.005	19.992	103.905	20.034	5.449	0.527
582.000	358.602	80.006	19.993	103.906	20.036	5.354	0.543
584.000	359.609	80.006	19.994	103.908	20.035	5.425	0.519
586.000	360.644	80.007	19.993	103.905	20.033	5.541	0.508
588.000	361.729	80.006	19.992	103.905	20.033	5.507	0.520
590.000	362.738	80.006	19.993	103.900	20.031	5.680	0.502
592.000	363.792	80.007	19.993	103.896	20.028	5.861	0.534
594.000	364.814	80.006	19.994	103.903	20.028	5.898	0.498
596.000	365.879	80.007	19.993	103.895	20.026	5.980	0.529
598.000	366.897	80.007	19.994	103.884	20.021	6.369	0.515
600.000	367.937	80.008	19.994	103.890	20.021	6.331	0.516
602.000	368.992	80.007	19.994	103.888	20.020	6.413	0.523
604.000	370.030	80.006	19.993	103.888	20.021	6.335	0.534
606.000	371.013	80.008	19.995	103.889	20.017	6.622	0.507
608.000	372.024	80.004	19.994	103.886	20.015	6.747	0.499
610.000	373.051	80.006	19.994	103.890	20.011	6.977	0.494
612.000	374.070	80.005	19.994	103.894	20.009	7.139	0.496
614.000	375.091	80.006	19.993	103.879	20.006	7.339	0.530
616.000	376.098	80.007	19.994	103.888	20.006	7.315	0.500
618.000	377.137	80.006	19.994	103.880	20.003	7.560	0.518
620.000	378.141	80.007	19.995	103.871	20.000	7.727	0.506
622.000	379.153	80.009	19.995	103.884	20.002	7.597	0.496
624.000	380.203	80.008	19.995	103.883	19.998	7.864	0.524
626.000	381.239	80.008	19.994	103.884	19.999	7.827	0.532
628.000	382.206	80.008	19.994	103.884	19.994	8.107	0.476
630.000	383.259	80.006	19.995	103.876	19.992	8.283	0.494
632.000	384.268	80.006	19.994	103.885	19.991	8.338	0.515
634.000	385.319	80.006	19.995	103.875	19.988	8.530	0.529
636.000	386.341	80.006	19.995	103.873	19.986	8.669	0.522
638.000	387.317	80.006	19.994	103.874	19.982	8.922	0.521
640.000	388.307	80.006	19.991	103.883	19.985	8.768	0.509
642.000	389.279	80.006	19.994	103.887	19.981	8.978	0.476
644.000	390.295	80.007	19.994	103.885	19.978	9.202	0.509
646.000	391.309	80.008	19.993	103.878	19.977	9.244	0.493
648.000	392.283	80.008	19.993	103.878	19.976	9.362	0.501
650.000	393.307	80.008	19.993	103.874	19.972	9.594	0.512
652.000	394.333	80.008	19.993	103.889	19.969	9.794	0.512
654.000	395.335	80.008	19.993	103.883	19.968	9.898	0.500
656.000	396.318	80.007	19.992	103.874	19.966	9.988	0.512
658.000	397.302	80.007	19.992	103.872	19.966	10.003	0.499
660.000	398.304	80.007	19.992	103.875	19.965	10.069	0.483
662.000	399.289	80.007	19.993	103.867	19.967	9.952	0.497
664.000	400.265	80.007	19.993	103.867	19.959	10.490	0.479
666.000	401.244	80.006	19.994	103.864	19.959	10.459	0.483
668.000	402.232	80.006	19.993	103.865	19.958	10.545	0.475
670.000	403.242	80.005	19.993	103.874	19.959	10.439	0.486
672.000	404.197	80.006	19.994	103.877	19.954	10.818	0.474
674.000	405.244	80.006	19.994	103.871	19.956	10.647	0.519
676.000	406.208	80.006	19.994	103.871	19.955	10.735	0.512
678.000	407.200	80.007	19.994	103.870	19.956	10.667	0.486
680.000	408.219	80.007	19.993	103.867	19.956	10.686	0.507
682.000	409.207	80.007	19.993	103.866	19.958	10.556	0.459
684.000	410.231	80.007	19.994	103.871	19.960	10.390	0.499
686.000	411.248	80.007	19.993	103.874	19.957	10.595	0.516
688.000	412.258	80.005	19.994	103.879	19.956	10.674	0.532
690.000	413.267	80.006	19.993	103.879	19.957	10.635	0.500
692.000	414.280	80.006	19.993	103.884	19.954	10.816	0.506
694.000	415.272	80.005	19.994	103.879	19.949	11.112	0.512
696.000	416.332	80.005	19.995	103.870	19.946	11.314	0.513
698.000	417.366	80.006	19.994	103.876	19.943	11.528	0.494
700.000	418.410	80.005	19.994	103.877	19.936	11.987	0.511
702.000	419.462	80.007	19.995	103.884	19.934	12.165	0.516
704.000	420.506	80.007	19.994	103.873	19.923	12.886	0.525
706.000	421.576	80.008	19.994	103.875	19.915	13.399	0.528
708.000	422.609	80.007	19.994	103.875	19.904	14.161	0.536
710.000	423.661	80.008	19.994	103.865	19.891	14.988	0.525
712.000	424.711	80.007	19.993	103.864	19.883	15.510	0.529
714.000	425.784	80.006	19.994	103.864	19.875	16.038	0.539
716.000	426.828	80.007	19.994	103.868	19.862	16.905	0.524
718.000	427.878	80.006	19.993	103.868	19.856	17.357	0.518
720.000	428.934	80.006	19.995	103.865	19.841	18.327	0.522
722.000	429.977	80.008	19.993	103.862	19.830	19.063	0.534
724.000	431.006	80.007	19.996	103.867	19.820	19.706	0.541
726.000	432.048	80.007	19.993	103.864	19.803	20.855	0.557
728.000	433.108	80.007	19.995	103.862	19.797	21.297	0.508
730.000	434.181	80.008	19.995	103.843	19.789	21.819	0.536
732.000	435.185	80.007	19.994	103.827	19.782	22.235	0.492
734.000	436.211	80.008	19.994	103.841	19.767	23.303	0.507
736.000	437.251	80.008	19.994	103.853	19.755	24.078	0.523
738.000	438.230	80.008	19.995	103.847	19.743	24.857	0.508
740.000	439.233	80.007	19.994	103.836	19.725	26.042	0.521
742.000	440.264	80.007	19.994	103.840	19.700	27.731	0.492
744.000	441.261	80.007	19.993	103.844	19.675	29.388	0.508
746.000	442.277	80.006	19.994	103.856	19.642	31.620	0.510
748.000	443.249	80.006	19.994	103.848	19.611	33.643	0.512
750.000	444.230	80.007	19.993	103.824	19.580	35.737	0.504
752.000	445.233	80.007	19.995	103.822	19.545	38.018	0.508
754.000	446.223	80.007	19.994	103.827	19.499	41.083	0.508
756.000	447.197	80.008	19.994	103.830	19.454	44.090	0.485
758.000	448.183	80.007	19.994	103.837	19.397	47.905	0.485
760.000	449.196	80.005	19.991	103.827	19.346	51.338	0.467
762.000	450.199	80.007	19.993	103.808	19.296	54.637	0.488
764.000	451.219	80.008	19.995	103.789	19.233	58.794	0.511
766.000	452.219	80.007	19.993	103.790	19.163	63.444	0.490
768.000	453.208	80.007	19.994	103.819	19.080	68.973	0.486
770.000	454.210	80.006	19.994	103.828	19.003	74.143	0.512
772.000	455.182	80.007	19.993	103.767	18.935	78.623	0.491
774.000	456.176	80.007	19.994	103.718	18.854	84.083	0.500
776.000	457.144	80.008	19.994	103.736	18.763	90.055	0.500
778.000	458.146	80.006	19.992	103.754	18.679	95.724	0.496
780.000	459.154	80.007	19.994	103.743	18.580	102.405	0.492
782.000	460.136	80.007	19.994	103.726	18.475	109.276	0.500
784.000	461.079	80.007	19.992	103.739	18.360	116.611	0.452
786.000	462.070	80.008	19.993	103.731	18.217	125.935	0.489
788.000	463.053	80.009	19.992	103.728	17.992	140.987	0.457
790.000	464.014	80.007	19.994	103.848	17.746	157.592	0.492
792.000	464.966	80.009	19.994	103.815	17.532	171.942	0.472
794.000	465.972	80.007	19.995	103.603	17.378	182.016	0.468
796.000	466.988	80.007	19.994	103.324	17.240	190.896	0.490
798.000	467.935	80.008	19.994	103.308	17.083	201.124	0.496
800.000	468.936	80.008	19.995	103.521	16.898	213.453	0.493
802.000	469.931	80.008	19.994	103.632	16.711	226.264	0.481
804.000	470.931	80.008	19.993	103.597	16.529	238.411	0.495
806.000	471.925	80.008	19.995	103.475	16.376	248.347	0.493
808.000	472.895	80.009	19.994	103.329	16.217	258.380	0.471
810.000	473.880	80.010	19.995	103.296	15.989	272.909	0.479
812.000	474.882	80.010	19.994	103.426	15.701	291.762	0.480
814.000	475.855	80.008	19.994	103.553	15.370	313.469	0.478
816.000	476.884	80.009	19.996	103.486	15.010	337.118	0.495
818.000	477.861	80.009	19.996	103.332	14.645	361.143	0.522
820.000	478.908	80.006	19.994	103.087	14.281	384.949	0.527
822.000	479.892	80.007	19.996	102.966	13.916	408.754	0.512
824.000	480.860	80.005	19.995	102.907	13.548	432.793	0.483
826.000	481.951	80.006	19.994	102.873	13.176	457.048	0.521
828.000	482.965	80.006	19.995	102.832	12.808	481.052	0.488
830.000	484.004	80.006	19.995	102.794	12.452	504.205	0.503
832.000	485.018	80.005	19.993	102.720	12.091	527.699	0.521
834.000	486.035	80.007	19.994	102.665	11.746	550.074	0.513
836.000	487.095	80.007	19.994	102.614	11.411	572.000	0.477
838.000	488.060	80.007	19.993	102.566	11.105	592.127	0.508
840.000	489.021	80.007	19.993	102.509	10.829	610.214	0.482
842.000	490.096	80.007	19.994	102.451	10.598	625.357	0.499
844.000	491.045	80.006	19.993	102.394	10.410	637.878	0.490
846.000	492.056	80.007	19.992	102.363	10.267	647.329	0.490
848.000	493.110	80.006	19.994	102.358	10.182	653.186	0.513
850.000	494.073	80.005	19.994	102.353	10.170	654.323	0.533
852.000	495.121	80.007	19.994	102.342	10.223	651.322	0.512
854.000	496.074	80.005	19.993	102.356	10.372	642.208	0.489
856.000	497.068	80.007	19.994	102.373	10.607	627.421	0.486
858.000	498.035	80.006	19.995	102.392	10.940	606.499	0.496
860.000	499.039	80.006	19.995	102.448	11.372	578.649	0.490
862.000	500.079	80.006	19.994	102.517	11.905	544.306	0.510
864.000	501.026	80.007	19.994	102.606	12.516	504.603	0.509
866.000	502.020	80.008	19.993	102.717	13.192	460.282	0.492
868.000	503.015	80.009	19.994	102.865	13.919	412.537	0.504
870.000	504.015	80.009	19.993	103.015	14.661	363.491	0.468
872.000	505.033	80.010	19.993	103.156	15.396	314.823	0.531
874.000	506.049	80.009	19.993	103.344	16.105	267.666	0.545
876.000	507.040	80.007	19.994	103.489	16.768	223.470	0.508
878.000	508.123	80.008	19.994	103.626	17.368	183.466	0.526
880.000	509.137	80.007	19.994	103.746	17.896	148.223	0.537
882.000	510.174	80.008	19.996	103.857	18.348	117.988	0.520
884.000	511.189	80.008	19.994	103.921	18.732	92.349	0.515
886.000	512.174	80.008	19.994	103.961	19.040	71.779	0.471
888.000	513.210	80.007	19.995	103.984	19.285	55.406	0.505
890.000	514.253	80.009	19.994	103.985	19.480	42.433	0.510
892.000	515.288	80.009	19.994	103.972	19.625	32.781	0.511
894.000	516.358	80.008	19.994	103.957	19.736	25.361	0.540
896.000	517.321	80.009	19.993	103.944	19.815	20.102	0.532
898.000	518.297	80.009	19.992	103.915	19.876	16.001	0.460
900.000	519.316	80.007	19.993	103.900	19.919	13.146	0.471
902.000	520.308	80.007	19.993	103.900	19.955	10.710	0.507
904.000	521.375	80.006	19.993	103.903	19.980	9.073	0.496
906.000	522.249	80.006	19.993	103.885	19.995	8.047	0.515
908.000	523.344	80.007	19.993	103.877	20.009	7.148	0.559
910.000	524.242	80.006	19.994	103.869	20.024	6.145	0.516
912.000	525.261	80.005	19.993	103.868	20.036	5.355	0.476
914.000	526.230	80.006	19.994	103.867	20.037	5.269	0.449
916.000	527.273	80.006	19.994	103.867	20.042	4.942	0.576
918.000	528.240	80.007	19.996	103.862	20.042	4.913	0.516
920.000	528.799	80.007	19.995	103.852	20.045	4.710	0.201
922.000	530.278	80.009	19.994	103.851	20.046	4.690	0.571
924.000	531.339	80.007	19.994	103.854	20.051	4.299	0.549
926.000	532.200	80.008	19.993	103.843	20.053	4.164	0.492
928.000	533.108	80.007	19.994	103.840	20.056	4.009	0.391
930.000	534.170	80.008	19.994	103.825	20.058	3.867	0.463
932.000	535.167	80.009	19.994	103.803	20.059	3.780	0.500
934.000	536.093	80.008	19.994	103.751	20.061	3.664	0.457
936.000	537.123	80.007	19.994	103.665	20.064	3.460	0.427
938.000	538.160	80.006	19.994	103.600	20.061	3.686	0.445
940.000	539.123	80.005	19.993	103.618	20.065	3.395	0.496
942.000	540.176	80.007	19.995	103.722	20.065	3.410	0.529
944.000	541.155	80.007	19.994	103.804	20.066	3.313	0.534
946.000	542.185	80.007	19.994	103.831	20.064	3.452	0.542
948.000	543.192	80.008	19.993	103.852	20.066	3.323	0.504
950.000	544.233	80.009	19.994	103.866	20.065	3.404	0.490
952.000	545.274	80.010	19.994	103.871	20.067	3.272	0.549
954.000	546.320	80.009	19.994	103.878	20.067	3.299	0.549
956.000	547.324	80.009	19.994	103.885	20.067	3.294	0.514
958.000	548.439	80.009	19.993	103.871	20.066	3.316	0.540
960.000	549.501	80.008	19.993	103.879	20.070	3.087	0.515
962.000	550.608	80.008	19.993	103.880	20.069	3.116	0.551
964.000	551.639	80.009	19.993	103.869	20.068	3.211	0.546
966.000	552.717	80.008	19.993	103.869	20.070	3.089	0.523
968.000	553.822	80.008	19.993	103.873	20.071	3.023	0.531
970.000	554.887	80.009	19.992	103.868	20.067	3.257	0.529
972.000	555.913	80.009	19.992	103.868	20.071	3.015	0.533
974.000	557.015	80.010	19.992	103.870	20.072	2.916	0.540
976.000	558.037	80.008	19.993	103.867	20.073	2.841	0.487
978.000	559.111	80.008	19.993	103.869	20.072	2.929	0.504
980.000	560.116	80.009	19.994	103.871	20.074	2.836	0.512
982.000	561.185	80.008	19.995	103.868	20.077	2.630	0.516
984.000	562.177	80.006	19.994	103.866	20.072	2.940	0.499
986.000	563.251	80.006	19.995	103.865	20.073	2.872	0.492
988.001	564.261	80.006	19.994	103.865	20.072	2.953	0.491
990.000	565.316	80.007	19.995	103.865	20.071	2.986	0.502
992.000	566.309	80.007	19.993	103.863	20.074	2.836	0.503
994.000	567.346	80.006	19.996	103.864	20.073	2.889	0.512
996.000	568.446	80.008	19.994	103.864	20.072	2.934	0.560
998.000	569.431	80.006	19.996	103.863	20.073	2.855	0.522
1000.000	570.472	80.005	19.993	103.864	20.072	2.963	0.511
1002.000	571.509	80.008	19.996	103.864	20.070	3.068	0.514
1004.000	572.551	80.007	19.995	103.860	20.071	2.978	0.514
1006.000	573.592	80.006	19.994	103.859	20.074	2.834	0.540
1008.000	574.653	80.006	19.995	103.842	20.075	2.737	0.527
1010.000	575.726	80.006	19.996	103.835	20.071	3.001	0.521
1012.000	576.778	80.006	19.995	103.841	20.072	2.951	0.501
1014.000	577.836	80.006	19.996	103.859	20.076	2.671	0.528
1016.000	578.882	80.007	19.996	103.863	20.075	2.729	0.519
1018.000	579.951	80.006	19.995	103.866	20.075	2.731	0.528
1020.000	581.034	80.006	19.993	103.880	20.076	2.674	0.544
1022.000	582.152	80.007	19.995	103.869	20.076	2.671	0.551
1024.000	583.218	80.007	19.993	103.875	20.077	2.577	0.543
1026.001	584.304	80.007	19.994	103.872	20.078	2.524	0.560
1028.000	585.470	80.007	19.995	103.873	20.074	2.830	0.582
1030.000	586.582	80.008	19.995	103.868	20.074	2.808	0.592
1032.000	587.689	80.008	19.994	103.867	20.072	2.920	0.555
1034.000	588.754	80.008	19.994	103.866	20.077	2.607	0.525
1036.000	589.897	80.007	19.995	103.868	20.072	2.957	0.569
1038.000	590.975	80.009	19.994	103.868	20.074	2.825	0.523
1040.000	592.123	80.008	19.993	103.869	20.074	2.817	0.542
1042.000	593.213	80.007	19.994	103.867	20.074	2.803	0.561
1044.000	594.346	80.008	19.994	103.870	20.074	2.819	0.560
1046.000	595.479	80.007	19.994	103.869	20.075	2.757	0.548
1048.000	596.564	80.008	19.994	103.871	20.075	2.718	0.521
1050.000	597.648	80.008	19.994	103.864	20.074	2.826	0.519
1052.000	598.757	80.008	19.993	103.865	20.080	2.434	0.575
1054.000	599.828	80.010	19.995	103.862	20.075	2.729	0.535
1056.000	600.920	80.010	19.992	103.866	20.077	2.570	0.535
1058.000	601.952	80.009	19.992	103.865	20.076	2.636	0.526
1060.000	603.044	80.009	19.991	103.859	20.080	2.397	0.549
1062.000	604.094	80.010	19.994	103.855	20.074	2.793	0.526
1064.000	605.142	80.008	19.994	103.853	20.079	2.471	0.530
1066.000	606.185	80.007	19.995	103.857	20.079	2.498	0.533
1068.000	607.195	80.007	19.995	103.865	20.077	2.593	0.484
1070.000	608.247	80.007	19.994	103.866	20.079	2.496	0.501
1072.000	609.260	80.007	19.994	103.864	20.080	2.428	0.468
1074.000	610.301	80.006	19.995	103.865	20.079	2.471	0.521
1076.000	611.297	80.006	19.994	103.865	20.079	2.482	0.496
1078.000	612.266	80.007	19.994	103.858	20.083	2.194	0.482
1080.000	613.290	80.008	19.994	103.854	20.078	2.507	0.509
1082.001	614.299	80.008	19.994	103.847	20.083	2.186	0.535
1084.001	615.274	80.008	19.993	103.849	20.082	2.284	0.496
1086.000	616.266	80.008	19.994	103.860	20.079	2.473	0.501
1088.000	617.236	80.008	19.994	103.858	20.081	2.317	0.478
1090.000	618.170	80.008	19.993	103.865	20.079	2.476	0.480
1092.000	619.145	80.006	19.995	103.852	20.080	2.429	0.475
1094.000	620.115	80.006	19.994	103.863	20.082	2.258	0.496
1096.000	621.047	80.005	19.996	103.866	20.083	2.192	0.480
1098.001	622.030	80.007	19.995	103.866	20.083	2.212	0.465
1100.000	622.959	80.005	19.996	103.866	20.082	2.269	0.498
1102.000	623.918	80.005	19.994	103.863	20.083	2.214	0.478
1104.000	624.888	80.005	19.995	103.863	20.081	2.308	0.488
1106.000	625.847	80.006	19.994	103.864	20.079	2.498	0.485
1108.000	626.868	80.006	19.994	103.869	20.081	2.315	0.500
1110.000	627.871	80.008	19.994	103.868	20.081	2.304	0.515
1112.000	628.807	80.009	19.994	103.864	20.081	2.322	0.493
1114.000	629.811	80.008	19.995	103.862	20.080	2.414	0.497
1116.000	630.800	80.009	19.994	103.864	20.083	2.234	0.486
1118.000	631.787	80.009	19.994	103.860	20.081	2.353	0.488
1120.000	632.810	80.008	19.993	103.863	20.083	2.214	0.523
1122.000	633.805	80.009	19.995	103.866	20.081	2.324	0.508
1124.000	634.817	80.008	19.993	103.862	20.081	2.356	0.546
1126.000	635.836	80.008	19.994	103.860	20.079	2.484	0.503
1128.000	636.786	80.007	19.994	103.864	20.083	2.225	0.470
1130.000	637.860	80.008	19.994	103.865	20.083	2.220	0.510
1132.000	638.812	80.008	19.995	103.865	20.082	2.238	0.495
1134.000	639.834	80.008	19.994	103.871	20.084	2.159	0.516
1136.000	640.849	80.009	19.994	103.871	20.082	2.284	0.521
1138.000	641.870	80.009	19.994	103.863	20.086	2.022	0.505
1140.000	642.834	80.009	19.994	103.863	20.085	2.064	0.474
1142.000	643.876	80.010	19.994	103.865	20.084	2.168	0.502
1144.001	644.878	80.009	19.993	103.865	20.087	1.963	0.491
1146.000	645.883	80.007	19.993	103.865	20.086	1.981	0.502
1148.001	646.874	80.006	19.994	103.867	20.082	2.251	0.511
1150.001	647.942	80.007	19.994	103.865	20.085	2.036	0.539
1152.000	648.966	80.007	19.994	103.867	20.084	2.159	0.545
1154.000	649.984	80.007	19.995	103.867	20.083	2.176	0.476
1156.000	651.028	80.006	19.995	103.866	20.084	2.121	0.510
1158.000	652.050	80.007	19.995	103.867	20.086	2.000	0.545
1160.000	653.074	80.006	19.994	103.868	20.086	1.985	0.517
1162.000	654.094	80.007	19.994	103.873	20.086	2.014	0.525
1164.001	655.195	80.007	19.994	103.870	20.082	2.249	0.532
1166.001	656.202	80.007	19.995	103.873	20.087	1.908	0.522
1168.000	657.248	80.006	19.994	103.873	20.083	2.212	0.540
1170.001	658.313	80.007	19.993	103.868	20.083	2.178	0.521
1172.000	659.329	80.006	19.995	103.867	20.082	2.276	0.538
1174.000	660.381	80.005	19.994	103.866	20.084	2.108	0.541
1176.000	661.395	80.008	19.995	103.867	20.081	2.304	0.455
1178.000	662.360	80.007	19.994	103.870	20.083	2.209	0.494
1180.000	663.470	80.007	19.993	103.871	20.084	2.128	0.541
1182.000	664.421	80.007	19.995	103.864	20.083	2.198	0.468
1184.000	665.486	80.006	19.995	103.855	20.081	2.337	0.484
1186.000	666.503	80.006	19.994	103.864	20.082	2.243	0.453
1188.000	667.546	80.008	19.996	103.865	20.084	2.168	0.529
1190.000	668.564	80.006	19.995	103.863	20.084	2.126	0.530
1192.000	669.543	80.009	19.996	103.863	20.082	2.282	0.505
1194.000	670.602	80.009	19.995	103.863	20.083	2.205	0.468
1196.000	671.587	80.008	19.995	103.862	20.082	2.284	0.500
1198.000	672.586	80.008	19.995	103.864	20.081	2.337	0.481
1200.000	673.640	80.008	19.996	103.870	20.080	2.430	0.506
1202.000	674.702	80.007	19.995	103.865	20.081	2.311	0.543
1204.000	675.698	80.007	19.995	103.864	20.077	2.577	0.522
1206.001	676.748	80.008	19.995	103.865	20.077	2.623	0.530
1208.000	677.770	80.009	19.994	103.869	20.080	2.409	0.506
1210.000	678.835	80.007	19.994	103.867	20.082	2.236	0.506
1212.000	679.794	80.007	19.995	103.863	20.084	2.148	0.513
1214.000	680.890	80.008	19.995	103.865	20.084	2.159	0.530
1216.001	681.931	80.009	19.993	103.867	20.084	2.154	0.542
1218.000	682.972	80.009	19.994	103.866	20.079	2.473	0.541
1220.000	683.984	80.011	19.993	103.867	20.080	2.392	0.501
1222.000	685.022	80.009	19.992	103.872	20.081	2.311	0.499
1224.000	686.103	80.008	19.993	103.868	20.083	2.233	0.513
1226.001	687.203	80.008	19.993	103.877	20.084	2.128	0.523
1228.000	688.244	80.009	19.994	103.878	20.084	2.165	0.506
1230.000	689.261	80.006	19.994	103.871	20.081	2.335	0.515
1232.000	690.301	80.006	19.994	103.866	20.082	2.264	0.500
1234.000	691.341	80.007	19.994	103.872	20.082	2.291	0.511
1236.000	692.376	80.007	19.994	103.878	20.082	2.299	0.496
1238.000	693.474	80.005	19.994	103.875	20.083	2.190	0.551
1240.000	694.505	80.005	19.993	103.869	20.080	2.429	0.522
1242.000	695.540	80.008	19.995	103.873	20.081	2.326	0.537
1244.000	696.540	80.008	19.994	103.867	20.083	2.227	0.505
1246.000	697.610	80.009	19.994	103.865	20.082	2.265	0.535
1248.000	698.601	80.008	19.993	103.867	20.080	2.396	0.540
1250.000	699.654	80.006	19.994	103.865	20.082	2.275	0.523
1252.000	700.713	80.007	19.994	103.864	20.078	2.533	0.529
1254.000	701.697	80.007	19.994	103.865	20.081	2.306	0.486
1256.000	702.747	80.006	19.994	103.864	20.081	2.363	0.524
1258.000	703.773	80.007	19.995	103.862	20.078	2.566	0.499
1260.000	704.813	80.006	19.994	103.859	20.082	2.273	0.514
1262.000	705.819	80.007	19.995	103.859	20.082	2.260	0.523
1264.000	706.853	80.006	19.995	103.863	20.084	2.146	0.498
1266.001	707.868	80.007	19.994	103.863	20.083	2.170	0.516
1268.000	708.859	80.006	19.995	103.862	20.083	2.218	0.517
1270.000	709.886	80.008	19.994	103.863	20.080	2.392	0.528
1272.000	710.870	80.008	19.995	103.864	20.081	2.308	0.467
1274.000	711.902	80.008	19.994	103.854	20.082	2.262	0.503
1276.000	712.910	80.008	19.994	103.862	20.081	2.364	0.517
1278.000	713.916	80.010	19.995	103.862	20.082	2.298	0.496
1280.000	714.951	80.009	19.994	103.864	20.081	2.324	0.502
1282.000	716.000	80.008	19.995	103.864	20.080	2.370	0.500
1284.001	717.035	80.007	19.994	103.860	20.079	2.450	0.562
1286.000	717.990	80.007	19.995	103.864	20.081	2.326	0.500
1288.000	719.009	80.007	19.995	103.865	20.081	2.362	0.499
1290.000	719.959	80.006	19.995	103.855	20.081	2.352	0.455
1292.000	720.979	80.007	19.995	103.862	20.082	2.247	0.505
1294.000	721.959	80.008	19.995	103.863	20.080	2.408	0.476
1296.000	722.948	80.007	19.994	103.855	20.081	2.361	0.512
1298.000	723.979	80.009	19.995	103.863	20.081	2.344	0.504
1300.000	724.950	80.009	19.992	103.851	20.082	2.256	0.475
1302.000	725.901	80.010	19.993	103.866	20.080	2.403	0.486
1304.000	726.885	80.010	19.993	103.865	20.084	2.154	0.486
1306.000	727.895	80.009	19.994	103.864	20.081	2.341	0.520
1308.000	728.851	80.009	19.993	103.865	20.082	2.242	0.484
1310.000	729.787	80.008	19.993	103.863	20.083	2.214	0.506
1312.000	730.887	80.008	19.993	103.861	20.079	2.443	0.541
1314.001	731.849	80.006	19.993	103.863	20.080	2.410	0.498
1316.000	732.886	80.008	19.993	103.859	20.077	2.634	0.518
1318.000	733.931	80.006	19.993	103.862	20.081	2.350	0.528
1320.000	734.948	80.008	19.993	103.861	20.081	2.335	0.525
1322.001	736.008	80.007	19.995	103.864	20.085	2.044	0.516
1324.000	737.045	80.006	19.994	103.863	20.081	2.343	0.497
1326.000	738.087	80.008	19.993	103.861	20.082	2.249	0.523
1328.000	739.161	80.008	19.994	103.858	20.083	2.227	0.528
1330.000	740.202	80.009	19.994	103.861	20.084	2.161	0.518
1332.000	741.289	80.007	19.994	103.865	20.080	2.370	0.562
1334.000	742.331	80.007	19.994	103.864	20.080	2.384	0.537
1336.001	743.371	80.008	19.995	103.867	20.081	2.320	0.494
1336.501	743.642	80.008	19.994	103.866	20.080	2.410	0.505