File: 01_Data/Wood_Veneer_MDF/MCC/Wood_Veneer_MDF_MCC_30K_min_220315_R3.txt
Sample ID:	C:\MCC\MCC Cal\Test\Wood_Veneer_MDF_MCC_30K_min_220315_R3.txt
Sample Weight (mg):	4.51
Heating Rate (C/s):	0.5
Combustor Temp (C):	900
N2 Flow Rate (cc/min):	80
O2 Flow Rate (cc/min):	20
Calibration File:	C:\MCC\MCC Cal\Coeff1 JN10440_30_210304.txt.txt
T Correction Coefficients:	0	1.024463	0
Time Shift (s):	14
*
Time (s)	Temperature (C)	N2 flow rate (cc/min)	O2 flow rate (cc/min)	Flow Rate (cc/min)	Oxygen (%)	HRR (W/g)	Heating rate (C/s)
-0.001	107.620	80.008	19.998	103.600	20.185	-0.183	-0.017
2.000	107.645	80.008	19.993	103.599	20.187	-0.322	-0.010
4.000	107.638	80.000	19.994	103.606	20.185	-0.164	0.021
6.000	107.602	80.003	19.995	103.598	20.183	-0.020	0.023
7.999	107.616	80.010	19.995	103.597	20.183	-0.004	-0.049
9.999	107.611	80.012	19.992	103.596	20.180	0.219	-0.011
11.999	107.642	80.004	19.994	103.595	20.180	0.182	0.023
13.999	107.627	80.006	19.993	103.599	20.181	0.121	-0.012
15.999	107.686	80.011	19.993	103.604	20.181	0.133	-0.000
18.000	107.668	80.008	19.994	103.607	20.177	0.410	-0.022
20.000	107.657	80.005	19.993	103.555	20.175	0.528	0.023
21.999	107.655	80.004	19.995	103.669	20.175	0.547	-0.004
23.999	107.673	80.007	19.994	103.692	20.169	0.962	-0.024
26.000	107.697	80.007	19.994	103.671	20.169	0.958	-0.011
28.000	107.800	80.009	19.996	103.696	20.167	1.136	0.039
30.000	107.877	80.007	19.994	103.717	20.162	1.462	0.053
31.999	107.953	80.007	19.993	103.714	20.155	2.002	0.045
34.000	108.085	80.007	19.993	103.747	20.156	1.936	0.097
35.999	108.209	80.007	19.994	103.766	20.153	2.159	0.055
37.999	108.397	80.007	19.993	103.766	20.152	2.208	0.087
39.999	108.624	80.007	19.994	103.779	20.150	2.363	0.104
41.999	108.855	80.004	19.993	103.789	20.147	2.584	0.109
44.000	109.108	80.006	19.994	103.802	20.143	2.873	0.131
46.000	109.427	80.004	19.994	103.831	20.139	3.155	0.187
47.999	109.765	80.007	19.994	103.828	20.141	2.983	0.167
49.999	110.096	80.005	19.992	103.829	20.139	3.134	0.173
52.000	110.498	80.008	19.994	103.831	20.143	2.885	0.199
53.999	110.868	80.008	19.995	103.831	20.139	3.149	0.191
56.000	111.317	80.008	19.994	103.829	20.136	3.378	0.230
57.999	111.721	80.008	19.995	103.832	20.136	3.333	0.207
59.999	112.175	80.008	19.995	103.838	20.134	3.542	0.207
62.000	112.675	79.999	19.995	103.835	20.137	3.277	0.261
63.999	113.204	80.004	19.994	103.835	20.137	3.265	0.276
65.999	113.733	80.004	19.994	103.838	20.134	3.539	0.250
67.999	114.284	80.005	19.993	103.828	20.132	3.633	0.255
69.999	114.824	80.000	19.995	103.834	20.132	3.637	0.275
71.999	115.419	80.007	19.992	103.836	20.133	3.589	0.282
73.999	116.003	80.006	19.993	103.846	20.132	3.669	0.297
75.999	116.585	80.006	19.994	103.857	20.129	3.882	0.306
78.000	117.273	80.009	19.993	103.857	20.131	3.720	0.338
79.999	117.879	80.005	19.993	103.855	20.128	3.961	0.314
81.999	118.568	80.008	19.994	103.867	20.129	3.872	0.299
83.999	119.209	80.006	19.995	103.871	20.125	4.130	0.346
85.999	119.902	80.004	19.995	103.870	20.128	3.972	0.339
87.999	120.568	79.998	19.998	103.874	20.125	4.119	0.324
89.999	121.314	80.014	19.994	103.887	20.126	4.074	0.356
91.999	122.053	80.007	19.995	103.871	20.128	3.916	0.361
93.999	122.813	79.998	19.995	103.867	20.124	4.195	0.376
95.999	123.589	80.003	19.994	103.873	20.122	4.403	0.394
97.999	124.300	80.005	19.995	103.879	20.123	4.284	0.357
99.999	125.105	80.007	19.993	103.877	20.125	4.144	0.424
101.999	125.914	80.006	19.993	103.885	20.124	4.254	0.398
103.999	126.744	80.008	19.993	103.888	20.123	4.274	0.414
105.999	127.546	80.006	19.993	103.872	20.123	4.272	0.425
107.999	128.434	80.010	19.993	103.881	20.120	4.517	0.479
109.999	129.224	80.005	19.993	103.878	20.119	4.582	0.418
111.999	130.086	80.005	19.994	103.874	20.120	4.534	0.422
113.999	130.982	80.013	19.992	103.874	20.123	4.265	0.443
115.999	131.862	80.008	19.993	103.885	20.122	4.354	0.458
117.999	132.768	80.008	19.993	103.892	20.120	4.507	0.469
119.999	133.661	80.006	19.994	103.900	20.121	4.417	0.442
122.000	134.574	80.003	19.995	103.887	20.117	4.720	0.429
124.000	135.506	80.007	19.993	103.885	20.118	4.659	0.465
125.999	136.459	80.004	19.992	103.889	20.118	4.629	0.458
127.999	137.368	80.007	19.993	103.879	20.117	4.734	0.476
129.999	138.318	80.006	19.994	103.884	20.121	4.417	0.455
131.999	139.265	80.007	19.993	103.879	20.116	4.793	0.499
133.999	140.216	80.007	19.992	103.874	20.121	4.447	0.482
135.999	141.218	80.005	19.993	103.892	20.117	4.702	0.496
137.999	142.154	80.010	19.993	103.898	20.115	4.902	0.473
139.999	143.205	80.009	19.993	103.894	20.119	4.583	0.504
141.999	144.233	80.008	19.994	103.899	20.114	4.909	0.502
143.999	145.237	80.008	19.994	103.895	20.117	4.712	0.548
145.999	146.204	80.007	19.994	103.888	20.119	4.604	0.474
147.999	147.183	80.008	19.996	103.870	20.116	4.794	0.483
149.999	148.169	80.006	19.996	103.878	20.116	4.780	0.457
151.999	149.228	80.007	19.995	103.879	20.113	4.988	0.534
153.999	150.242	80.007	19.994	103.872	20.116	4.784	0.499
155.999	151.259	80.008	19.995	103.871	20.116	4.807	0.512
157.999	152.235	80.007	19.995	103.873	20.116	4.800	0.512
159.999	153.253	80.007	19.994	103.875	20.119	4.606	0.511
161.999	154.275	80.007	19.994	103.869	20.115	4.856	0.500
163.999	155.282	80.007	19.993	103.868	20.115	4.878	0.500
166.000	156.307	80.007	19.994	103.866	20.116	4.776	0.521
167.999	157.287	80.005	19.994	103.866	20.113	5.015	0.508
169.999	158.296	80.005	19.994	103.861	20.113	5.028	0.513
171.999	159.335	80.009	19.994	103.865	20.115	4.870	0.519
173.999	160.359	80.004	19.993	103.872	20.116	4.799	0.522
175.999	161.357	80.002	19.994	103.874	20.113	5.048	0.529
177.999	162.375	80.010	19.995	103.868	20.114	4.953	0.528
179.999	163.370	80.004	19.996	103.868	20.115	4.838	0.532
181.999	164.391	80.004	19.996	103.854	20.111	5.171	0.522
183.999	165.390	80.005	19.995	103.857	20.115	4.891	0.518
185.999	166.368	80.006	19.995	103.847	20.115	4.899	0.512
187.999	167.406	80.004	19.995	103.857	20.113	4.990	0.496
189.999	168.376	80.008	19.994	103.837	20.109	5.284	0.488
191.999	169.385	80.006	19.993	103.853	20.108	5.343	0.504
193.999	170.380	80.008	19.993	103.854	20.108	5.404	0.495
195.999	171.360	80.009	19.992	103.858	20.107	5.457	0.489
197.999	172.356	80.005	19.994	103.848	20.107	5.454	0.502
199.999	173.372	80.006	19.994	103.856	20.109	5.322	0.502
201.999	174.333	80.008	19.994	103.859	20.105	5.601	0.510
203.999	175.348	80.009	19.994	103.842	20.107	5.428	0.503
205.999	176.272	80.006	19.995	103.830	20.106	5.540	0.468
207.999	177.286	80.007	19.994	103.843	20.103	5.707	0.523
209.999	178.244	80.002	19.995	103.843	20.102	5.833	0.504
211.999	179.205	80.008	19.994	103.838	20.101	5.876	0.482
213.999	180.221	80.013	19.993	103.846	20.102	5.837	0.522
215.999	181.165	80.009	19.993	103.842	20.100	5.960	0.492
217.999	182.169	80.011	19.993	103.850	20.100	5.938	0.476
219.999	183.136	79.997	19.994	103.851	20.098	6.107	0.476
221.999	184.098	80.010	19.992	103.839	20.099	5.992	0.483
223.999	185.108	80.006	19.993	103.847	20.098	6.060	0.496
225.999	186.075	80.002	19.994	103.842	20.096	6.238	0.501
228.000	187.070	80.003	19.993	103.852	20.095	6.339	0.482
229.999	188.068	80.008	19.994	103.844	20.094	6.361	0.480
231.999	189.034	79.998	19.994	103.847	20.090	6.681	0.522
233.999	189.966	80.014	19.992	103.849	20.088	6.829	0.488
235.999	190.969	80.004	19.993	103.846	20.087	6.896	0.471
237.999	191.962	80.007	19.993	103.841	20.084	7.078	0.476
239.999	192.911	80.011	19.995	103.829	20.084	7.090	0.507
241.999	193.914	80.007	19.995	103.861	20.083	7.190	0.475
243.999	194.858	80.004	19.995	103.853	20.082	7.233	0.506
245.999	195.799	80.008	19.995	103.845	20.082	7.269	0.461
247.999	196.807	80.004	19.994	103.856	20.079	7.487	0.467
249.999	197.714	80.005	19.994	103.851	20.077	7.586	0.461
251.999	198.695	80.001	19.995	103.860	20.076	7.700	0.491
253.999	199.664	80.009	19.994	103.862	20.078	7.529	0.477
255.999	200.670	80.011	19.993	103.848	20.071	8.027	0.493
258.000	201.651	80.003	19.995	103.845	20.076	7.685	0.500
259.999	202.624	80.005	19.993	103.851	20.071	8.058	0.514
261.999	203.597	80.001	19.994	103.845	20.070	8.097	0.468
263.999	204.569	80.004	19.995	103.842	20.069	8.186	0.527
266.000	205.550	80.008	19.994	103.844	20.065	8.429	0.499
267.999	206.556	80.009	19.996	103.855	20.066	8.412	0.489
269.999	207.542	80.003	19.995	103.858	20.064	8.554	0.514
271.999	208.518	80.003	19.996	103.849	20.062	8.705	0.492
273.999	209.518	80.008	19.993	103.845	20.059	8.894	0.513
275.999	210.465	80.017	19.993	103.840	20.061	8.745	0.507
277.999	211.450	80.013	19.995	103.836	20.056	9.132	0.500
279.999	212.450	80.018	19.992	103.858	20.055	9.151	0.532
281.999	213.426	79.991	19.995	103.863	20.051	9.478	0.480
283.999	214.450	80.006	19.993	103.834	20.048	9.704	0.545
285.999	215.470	80.014	19.993	103.852	20.043	10.023	0.516
287.999	216.411	80.003	19.994	103.852	20.041	10.199	0.462
289.999	217.466	80.008	19.993	103.861	20.039	10.312	0.535
291.999	218.461	80.003	19.994	103.857	20.034	10.690	0.491
294.000	219.470	80.010	19.993	103.839	20.034	10.688	0.511
296.000	220.523	80.019	19.993	103.865	20.030	10.964	0.543
297.999	221.476	80.014	19.994	103.856	20.032	10.862	0.515
300.000	222.446	80.007	19.994	103.862	20.028	11.107	0.490
302.000	223.502	80.015	19.992	103.849	20.028	11.136	0.483
303.999	224.477	80.003	19.995	103.858	20.021	11.616	0.493
305.999	225.526	80.001	19.992	103.842	20.028	11.147	0.506
308.000	226.573	80.010	19.993	103.856	20.024	11.429	0.571
309.999	227.497	80.008	19.994	103.853	20.024	11.433	0.512
311.999	228.610	80.007	19.993	103.856	20.018	11.814	0.528
313.999	229.613	80.003	19.995	103.851	20.020	11.669	0.523
315.999	230.647	80.002	19.994	103.841	20.021	11.630	0.492
317.999	231.690	79.996	19.994	103.853	20.017	11.928	0.500
319.999	232.666	79.997	19.993	103.854	20.017	11.920	0.503
322.000	233.644	80.007	19.993	103.856	20.019	11.800	0.490
323.999	234.670	80.010	19.992	103.840	20.015	12.049	0.504
325.999	235.687	79.999	19.992	103.854	20.015	12.075	0.494
327.999	236.679	80.015	19.996	103.850	20.014	12.122	0.552
330.000	237.689	80.009	19.994	103.857	20.010	12.388	0.521
332.000	238.691	80.011	19.993	103.847	20.010	12.428	0.514
333.999	239.707	80.015	19.993	103.837	20.007	12.631	0.511
335.999	240.701	80.012	19.994	103.839	20.006	12.679	0.544
337.999	241.694	80.005	19.995	103.838	20.004	12.826	0.488
340.000	242.709	80.001	19.994	103.838	20.003	12.938	0.491
341.999	243.701	80.006	19.994	103.842	19.997	13.326	0.464
343.999	244.662	80.003	19.994	103.849	20.000	13.124	0.497
345.999	245.693	80.006	19.994	103.858	19.998	13.304	0.501
347.999	246.710	80.007	19.995	103.853	19.992	13.700	0.491
350.000	247.666	80.019	19.992	103.850	19.989	13.953	0.509
351.999	248.654	80.007	19.993	103.840	19.990	13.849	0.514
353.999	249.663	80.007	19.992	103.839	19.985	14.198	0.516
356.000	250.661	80.012	19.995	103.855	19.982	14.449	0.503
358.000	251.696	80.019	19.990	103.860	19.981	14.528	0.538
359.999	252.651	80.015	19.993	103.867	19.977	14.779	0.523
361.999	253.572	80.002	19.995	103.866	19.974	15.015	0.496
363.999	254.594	80.011	19.991	103.846	19.974	15.014	0.511
365.999	255.538	80.008	19.995	103.865	19.970	15.261	0.472
367.999	256.562	80.001	19.995	103.867	19.965	15.681	0.507
369.999	257.505	80.007	19.994	103.867	19.961	15.912	0.461
371.999	258.513	80.019	19.993	103.868	19.957	16.215	0.482
374.000	259.502	80.000	19.995	103.870	19.950	16.695	0.504
376.000	260.522	80.015	19.993	103.875	19.949	16.798	0.520
378.000	261.490	80.020	19.994	103.870	19.943	17.230	0.512
379.999	262.494	80.015	19.993	103.868	19.936	17.753	0.490
381.999	263.435	80.001	19.993	103.879	19.933	17.958	0.512
383.999	264.414	80.009	19.991	103.876	19.927	18.393	0.494
386.000	265.414	80.015	19.992	103.881	19.921	18.784	0.508
388.000	266.401	80.002	19.996	103.880	19.920	18.918	0.500
390.000	267.419	80.008	19.992	103.891	19.914	19.344	0.485
391.999	268.422	80.006	19.993	103.879	19.910	19.621	0.496
393.999	269.365	80.003	19.993	103.887	19.905	19.974	0.484
395.999	270.407	80.016	19.993	103.902	19.897	20.525	0.522
397.999	271.426	80.006	19.994	103.893	19.891	20.997	0.510
399.999	272.414	80.007	19.993	103.888	19.888	21.213	0.520
401.999	273.394	80.005	19.993	103.887	19.881	21.719	0.503
403.999	274.380	80.007	19.993	103.903	19.879	21.851	0.480
405.999	275.350	80.001	19.994	103.904	19.869	22.528	0.505
407.999	276.360	80.007	19.994	103.905	19.862	23.060	0.503
409.999	277.347	80.006	19.992	103.906	19.856	23.507	0.506
411.999	278.293	80.003	19.993	103.907	19.851	23.831	0.472
414.000	279.348	80.012	19.993	103.904	19.842	24.494	0.524
415.999	280.338	80.005	19.992	103.911	19.833	25.180	0.497
417.999	281.317	80.014	19.995	103.922	19.828	25.493	0.497
419.999	282.379	80.001	19.993	103.915	19.822	25.940	0.515
422.000	283.337	80.009	19.993	103.917	19.813	26.571	0.462
423.999	284.340	80.004	19.996	103.915	19.807	27.009	0.502
425.999	285.331	80.015	19.993	103.917	19.799	27.618	0.523
428.000	286.346	80.000	19.994	103.910	19.794	27.928	0.492
429.999	287.365	79.985	19.995	103.916	19.787	28.457	0.532
431.999	288.378	80.002	19.992	103.933	19.781	28.918	0.512
433.999	289.399	80.006	19.994	103.921	19.774	29.383	0.532
435.999	290.398	79.998	19.993	103.936	19.766	29.977	0.517
437.999	291.408	80.008	19.992	103.926	19.761	30.356	0.504
439.999	292.456	80.001	19.994	103.934	19.752	30.982	0.506
441.999	293.425	80.009	19.995	103.932	19.745	31.517	0.511
444.000	294.453	80.008	19.993	103.930	19.735	32.173	0.518
446.000	295.474	80.007	19.994	103.926	19.731	32.507	0.526
447.999	296.515	80.014	19.994	103.929	19.723	33.030	0.554
449.999	297.508	80.006	19.995	103.948	19.715	33.619	0.493
451.999	298.529	80.004	19.992	103.948	19.712	33.823	0.502
453.999	299.493	79.997	19.994	103.946	19.705	34.354	0.458
455.999	300.517	80.003	19.995	103.939	19.697	34.955	0.469
457.999	301.522	80.014	19.993	103.942	19.691	35.371	0.499
460.000	302.477	80.002	19.994	103.951	19.684	35.853	0.478
461.999	303.529	80.014	19.993	103.940	19.677	36.383	0.508
464.000	304.516	80.011	19.995	103.939	19.666	37.131	0.500
465.999	305.555	80.009	19.995	103.940	19.661	37.529	0.526
468.000	306.521	80.008	19.994	103.944	19.656	37.905	0.446
469.999	307.521	80.004	19.994	103.945	19.646	38.637	0.499
472.000	308.548	80.004	19.994	103.945	19.637	39.258	0.532
473.999	309.513	80.004	19.994	103.945	19.632	39.604	0.507
475.999	310.533	80.004	19.993	103.953	19.622	40.313	0.479
477.999	311.486	80.003	19.994	103.950	19.616	40.786	0.493
480.000	312.567	80.007	19.993	103.951	19.606	41.467	0.507
482.000	313.592	80.005	19.993	103.949	19.601	41.881	0.504
483.999	314.611	80.004	19.993	103.948	19.592	42.523	0.527
485.999	315.615	80.009	19.993	103.958	19.585	42.985	0.523
487.999	316.601	80.007	19.993	103.963	19.581	43.271	0.487
489.999	317.609	80.006	19.993	103.978	19.573	43.871	0.477
492.000	318.602	80.004	19.993	103.983	19.568	44.232	0.499
493.999	319.630	80.003	19.993	103.973	19.554	45.208	0.511
496.000	320.660	80.006	19.992	103.983	19.545	45.889	0.500
497.999	321.675	80.007	19.993	103.987	19.536	46.528	0.492
499.999	322.760	80.004	19.994	103.985	19.526	47.286	0.525
501.999	323.758	80.006	19.993	103.986	19.513	48.171	0.536
503.999	324.778	80.000	19.995	103.988	19.507	48.659	0.503
506.000	325.805	80.021	19.991	103.990	19.498	49.286	0.494
507.999	326.848	80.006	19.995	104.001	19.488	50.009	0.519
510.000	327.815	79.997	19.995	103.997	19.475	50.916	0.495
511.999	328.863	80.004	19.993	103.998	19.466	51.606	0.509
513.999	329.870	80.004	19.993	104.018	19.450	52.754	0.509
515.999	330.900	80.001	19.993	104.024	19.445	53.091	0.489
518.000	331.953	80.008	19.993	104.026	19.433	54.001	0.495
519.999	333.000	80.011	19.993	104.028	19.417	55.111	0.534
521.999	333.999	80.013	19.992	104.028	19.400	56.347	0.531
523.999	335.024	80.012	19.993	104.037	19.389	57.150	0.527
525.999	336.041	80.003	19.993	104.043	19.380	57.787	0.539
527.999	337.030	79.998	19.995	104.044	19.364	58.934	0.509
530.000	338.097	80.008	19.995	104.043	19.349	60.002	0.537
531.999	339.137	80.005	19.993	104.048	19.335	61.067	0.512
533.999	340.156	80.010	19.995	104.063	19.321	62.072	0.517
535.999	341.125	79.995	19.994	104.069	19.306	63.116	0.499
538.000	342.141	79.988	19.995	104.068	19.294	64.022	0.480
539.999	343.135	80.002	19.994	104.065	19.280	65.022	0.466
542.000	344.134	80.010	19.994	104.063	19.264	66.141	0.495
544.000	345.121	80.010	19.993	104.067	19.249	67.263	0.513
545.999	346.081	80.021	19.992	104.058	19.240	67.903	0.487
548.000	347.076	80.016	19.992	104.084	19.228	68.723	0.492
550.000	348.086	80.017	19.993	104.079	19.213	69.788	0.494
551.999	349.007	79.996	19.995	104.074	19.208	70.162	0.487
553.999	350.057	80.006	19.994	104.069	19.196	71.038	0.455
555.999	351.080	80.012	19.992	104.067	19.191	71.361	0.525
557.999	352.041	80.004	19.994	104.075	19.190	71.449	0.506
559.999	353.054	80.011	19.995	104.052	19.184	71.894	0.545
561.999	354.002	80.006	19.994	104.062	19.180	72.191	0.478
564.000	354.988	80.008	19.997	104.079	19.183	71.925	0.478
566.000	356.028	80.012	19.993	104.059	19.185	71.809	0.497
567.999	356.962	79.999	19.997	104.059	19.189	71.504	0.481
569.999	357.951	80.014	19.993	104.047	19.199	70.761	0.478
571.999	358.929	80.017	19.993	104.026	19.213	69.751	0.464
573.999	359.938	80.003	19.995	104.028	19.227	68.702	0.482
575.999	360.929	80.025	19.990	104.005	19.248	67.225	0.495
578.000	361.908	80.016	19.993	103.993	19.268	65.773	0.497
579.999	362.870	80.006	19.994	103.982	19.301	63.373	0.484
582.000	363.847	80.006	19.993	103.960	19.324	61.719	0.483
583.999	364.856	79.996	19.993	103.951	19.360	59.078	0.509
585.999	365.827	80.000	19.994	103.920	19.394	56.691	0.470
588.000	366.788	80.019	19.991	103.906	19.432	53.905	0.473
590.000	367.812	79.985	19.995	103.890	19.474	50.912	0.499
592.000	368.829	80.005	19.994	103.862	19.514	48.028	0.528
594.000	369.833	80.011	19.996	103.843	19.555	45.092	0.505
595.999	370.795	80.003	19.994	103.830	19.595	42.193	0.466
598.000	371.810	80.018	19.993	103.820	19.638	39.118	0.498
600.000	372.829	80.008	19.994	103.816	19.677	36.293	0.493
602.000	373.853	80.003	19.992	103.798	19.717	33.422	0.511
603.999	374.863	80.007	19.994	103.798	19.752	30.965	0.499
605.999	375.799	80.005	19.994	103.792	19.781	28.842	0.460
608.000	376.846	80.004	19.996	103.783	19.810	26.756	0.509
610.000	377.852	80.018	19.993	103.786	19.836	24.882	0.502
612.000	378.913	80.001	19.993	103.784	19.858	23.334	0.528
614.000	379.933	79.985	19.994	103.785	19.875	22.116	0.491
615.999	380.959	79.999	19.994	103.776	19.894	20.723	0.538
617.999	381.966	80.002	19.993	103.775	19.905	19.971	0.518
619.999	382.992	80.007	19.993	103.777	19.919	18.944	0.522
621.999	384.037	80.004	19.994	103.780	19.925	18.501	0.530
624.000	385.061	80.006	19.994	103.772	19.937	17.656	0.521
625.999	386.060	80.012	19.995	103.781	19.940	17.455	0.512
627.999	387.080	80.014	19.995	103.787	19.944	17.142	0.500
629.999	388.140	80.017	19.993	103.777	19.947	16.950	0.538
631.999	389.168	80.009	19.994	103.781	19.953	16.521	0.545
633.999	390.214	80.002	19.995	103.773	19.959	16.064	0.515
635.999	391.189	80.009	19.995	103.755	19.960	16.028	0.492
637.999	392.217	80.010	19.993	103.782	19.961	15.893	0.483
639.999	393.238	80.012	19.993	103.777	19.964	15.712	0.490
641.999	394.300	80.005	19.993	103.773	19.970	15.300	0.542
643.999	395.308	80.000	19.994	103.781	19.965	15.600	0.505
645.999	396.371	79.997	19.995	103.792	19.971	15.189	0.511
647.999	397.361	80.013	19.993	103.773	19.971	15.190	0.534
649.999	398.373	80.002	19.994	103.771	19.970	15.293	0.513
651.999	399.405	79.997	19.995	103.777	19.974	14.992	0.512
653.999	400.435	79.998	19.996	103.757	19.976	14.851	0.515
656.000	401.413	80.020	19.993	103.773	19.974	15.013	0.472
657.999	402.454	80.008	19.995	103.773	19.973	15.074	0.510
659.999	403.447	80.017	19.993	103.770	19.973	15.071	0.532
662.000	404.426	80.003	19.995	103.781	19.974	14.993	0.503
663.999	405.403	79.997	19.996	103.773	19.976	14.860	0.465
666.000	406.450	80.011	19.994	103.752	19.975	14.928	0.502
667.999	407.438	80.017	19.994	103.765	19.977	14.778	0.509
669.999	408.459	80.027	19.993	103.757	19.975	14.944	0.538
671.999	409.395	80.009	19.993	103.755	19.978	14.715	0.504
673.999	410.353	80.003	19.993	103.756	19.977	14.776	0.490
676.000	411.328	80.016	19.991	103.758	19.978	14.692	0.492
678.000	412.297	80.015	19.992	103.761	19.984	14.308	0.487
679.999	413.279	80.007	19.994	103.760	19.981	14.463	0.470
681.999	414.202	80.010	19.994	103.761	19.985	14.206	0.472
684.000	415.204	79.998	19.991	103.761	19.987	14.061	0.476
686.000	416.181	80.008	19.993	103.757	19.985	14.186	0.495
687.999	417.117	79.996	19.996	103.770	19.987	14.028	0.451
689.999	418.123	80.001	19.995	103.775	19.987	14.024	0.470
691.999	419.114	80.006	19.994	103.763	19.984	14.284	0.511
693.999	420.108	79.999	19.996	103.757	19.986	14.145	0.533
695.999	421.078	80.011	19.993	103.751	19.986	14.137	0.483
697.999	422.046	80.009	19.994	103.757	19.985	14.235	0.483
699.999	423.014	80.008	19.994	103.760	19.987	14.023	0.502
701.999	423.989	80.005	19.994	103.776	19.987	14.077	0.481
703.999	424.929	80.012	19.992	103.762	19.989	13.907	0.492
706.000	425.928	80.010	19.992	103.762	19.987	14.022	0.504
708.000	426.919	80.004	19.995	103.764	19.989	13.903	0.509
710.000	427.898	80.011	19.993	103.777	19.988	14.000	0.465
712.000	428.907	80.009	19.995	103.767	19.989	13.914	0.517
713.999	429.875	80.009	19.993	103.773	19.989	13.908	0.489
715.999	430.866	80.007	19.994	103.776	19.995	13.506	0.506
717.999	431.876	80.008	19.993	103.767	19.991	13.736	0.486
719.999	432.893	80.006	19.993	103.772	19.991	13.736	0.499
721.999	433.904	80.008	19.993	103.759	19.995	13.453	0.526
723.999	434.927	80.009	19.994	103.772	19.993	13.654	0.538
726.000	435.959	80.003	19.995	103.763	19.993	13.642	0.499
728.000	436.936	80.007	19.993	103.750	19.991	13.783	0.486
729.999	437.913	80.007	19.994	103.752	19.997	13.320	0.490
731.999	438.852	80.007	19.995	103.752	19.994	13.541	0.503
733.999	439.824	80.008	19.994	103.754	19.997	13.334	0.478
735.999	440.798	80.006	19.994	103.761	19.995	13.463	0.478
738.000	441.756	80.008	19.995	103.757	19.996	13.395	0.451
740.000	442.717	79.998	19.994	103.751	19.995	13.504	0.459
742.000	443.641	80.007	19.994	103.757	19.993	13.613	0.469
743.999	444.601	80.006	19.994	103.751	19.995	13.513	0.463
746.000	445.565	80.003	19.995	103.756	19.996	13.412	0.471
747.999	446.487	80.006	19.997	103.769	19.991	13.766	0.447
749.999	447.445	80.005	19.995	103.754	19.996	13.406	0.478
752.000	448.453	80.003	19.994	103.754	19.994	13.571	0.503
754.000	449.329	79.999	19.997	103.754	19.997	13.337	0.457
755.999	450.331	80.005	19.995	103.752	19.999	13.181	0.441
757.999	451.325	80.006	19.993	103.759	19.995	13.447	0.500
760.000	452.283	80.007	19.995	103.752	19.995	13.501	0.493
762.000	453.280	80.009	19.996	103.765	19.997	13.373	0.471
764.000	454.220	80.008	19.993	103.752	19.998	13.241	0.496
765.999	455.216	80.007	19.995	103.755	19.996	13.430	0.513
768.000	456.198	80.010	19.993	103.754	20.000	13.100	0.475
769.999	457.192	80.015	19.993	103.760	20.000	13.113	0.485
771.999	458.160	80.009	19.994	103.763	19.996	13.389	0.490
773.999	459.191	80.009	19.993	103.760	19.997	13.361	0.538
775.999	460.180	80.003	19.992	103.755	20.004	12.805	0.493
777.999	461.192	80.009	19.993	103.762	20.001	13.049	0.508
779.999	462.216	80.009	19.994	103.757	20.004	12.810	0.514
782.000	463.183	80.012	19.992	103.753	20.001	13.049	0.493
783.999	464.219	80.010	19.993	103.755	20.001	13.057	0.512
785.999	465.187	80.002	19.994	103.759	20.002	12.996	0.483
787.999	466.192	80.006	19.994	103.765	20.004	12.809	0.547
789.999	467.218	80.008	19.993	103.758	20.007	12.586	0.511
791.999	468.190	80.008	19.993	103.758	20.004	12.837	0.498
793.999	469.205	80.009	19.994	103.759	20.003	12.900	0.523
795.999	470.233	80.013	19.993	103.760	20.004	12.872	0.497
797.999	471.216	80.010	19.993	103.762	20.006	12.702	0.504
799.999	472.252	80.008	19.993	103.761	20.005	12.736	0.489
802.000	473.284	80.008	19.993	103.757	20.002	12.993	0.540
803.999	474.369	80.005	19.993	103.754	20.002	12.988	0.496
806.000	475.416	80.006	19.993	103.756	20.001	13.062	0.507
807.999	476.419	80.008	19.994	103.769	20.004	12.825	0.516
809.999	477.416	80.007	19.994	103.765	20.005	12.727	0.555
811.999	478.452	80.006	19.993	103.753	20.006	12.725	0.532
813.999	479.516	80.008	19.994	103.751	20.002	12.968	0.501
815.999	480.481	80.007	19.993	103.754	20.006	12.659	0.517
817.999	481.486	80.008	19.993	103.752	20.008	12.571	0.498
820.000	482.506	80.006	19.993	103.750	20.007	12.628	0.446
821.999	483.505	80.005	19.993	103.751	20.007	12.586	0.537
823.999	484.510	80.004	19.995	103.753	20.008	12.528	0.455
825.999	485.550	80.005	19.995	103.753	20.009	12.440	0.505
827.999	486.547	80.008	19.995	103.752	20.008	12.567	0.517
829.999	487.491	80.006	19.993	103.752	20.004	12.816	0.483
832.000	488.480	80.007	19.994	103.747	20.003	12.893	0.477
833.999	489.468	80.003	19.994	103.744	20.006	12.715	0.481
835.999	490.426	80.005	19.994	103.752	20.011	12.357	0.407
838.000	491.439	80.007	19.994	103.754	20.008	12.579	0.463
840.000	492.320	80.005	19.994	103.741	20.012	12.256	0.422
841.999	493.703	80.008	19.994	103.751	20.014	12.146	0.666
844.000	494.506	80.007	19.994	103.764	20.009	12.509	1.011
845.999	495.096	80.005	19.994	103.754	20.008	12.562	0.613
847.999	496.276	80.007	19.994	103.741	20.012	12.271	0.487
849.999	497.337	80.005	19.994	103.758	20.011	12.330	0.509
851.999	498.364	80.007	19.995	103.772	20.008	12.533	0.493
854.000	499.383	80.006	19.994	103.775	20.009	12.494	0.520
855.999	500.467	80.009	19.995	103.768	20.005	12.743	0.532
857.999	501.484	80.006	19.995	103.781	20.009	12.467	0.522
859.999	502.599	80.007	19.994	103.771	20.009	12.475	0.568
861.999	503.612	80.010	19.993	103.774	20.005	12.781	0.522
863.999	504.736	80.006	19.994	103.780	20.009	12.477	0.551
865.999	505.843	80.001	19.994	103.787	20.006	12.716	0.513
867.999	506.923	80.007	19.995	103.758	20.008	12.571	0.573
869.999	508.022	80.006	19.994	103.770	20.009	12.505	0.520
871.999	509.154	80.008	19.993	103.762	20.004	12.852	0.567
873.999	510.179	80.010	19.994	103.750	20.009	12.494	0.526
875.999	511.257	80.010	19.993	103.751	20.007	12.585	0.507
877.999	512.344	80.010	19.993	103.750	20.007	12.647	0.553
879.999	513.390	80.008	19.993	103.753	20.004	12.803	0.499
882.000	514.514	80.008	19.994	103.753	20.007	12.594	0.570
883.999	515.584	80.009	19.994	103.747	20.005	12.754	0.542
885.999	516.646	80.005	19.994	103.751	20.007	12.616	0.564
887.999	517.674	80.007	19.994	103.749	20.006	12.656	0.507
890.000	518.753	80.008	19.992	103.753	20.005	12.778	0.536
891.999	519.742	80.006	19.994	103.751	20.004	12.823	0.520
894.000	520.819	80.006	19.993	103.750	20.005	12.759	0.555
895.999	521.822	80.005	19.992	103.749	20.004	12.860	0.524
897.999	522.806	80.006	19.994	103.747	20.004	12.835	0.493
899.999	523.827	80.008	19.992	103.743	20.008	12.550	0.499
901.999	524.831	80.008	19.995	103.752	20.008	12.583	0.499
903.999	525.840	80.007	19.993	103.753	20.011	12.335	0.506
905.999	526.791	80.008	19.994	103.753	20.008	12.570	0.472
907.999	527.822	80.007	19.993	103.748	20.008	12.568	0.503
910.000	528.807	80.007	19.992	103.754	20.007	12.590	0.501
911.999	529.863	80.006	19.994	103.752	20.007	12.621	0.509
913.999	530.835	80.006	19.995	103.753	20.005	12.753	0.503
916.000	531.852	80.006	19.994	103.756	20.002	12.987	0.523
917.999	532.830	80.004	19.993	103.758	20.006	12.692	0.497
919.999	533.868	80.004	19.994	103.763	20.002	12.985	0.475
922.000	534.924	80.003	19.994	103.760	20.003	12.878	0.523
923.999	535.971	80.005	19.995	103.755	20.002	13.012	0.535
925.999	537.009	80.005	19.995	103.753	20.003	12.903	0.536
927.999	538.029	80.006	19.996	103.756	20.002	12.965	0.529
930.000	539.143	80.006	19.995	103.752	20.004	12.862	0.542
931.999	540.173	80.009	19.994	103.750	20.005	12.733	0.541
933.999	541.200	80.005	19.995	103.749	20.004	12.816	0.546
935.999	542.303	80.009	19.994	103.749	20.003	12.934	0.545
937.999	543.315	80.009	19.994	103.749	20.004	12.822	0.539
939.999	544.349	80.008	19.993	103.747	20.003	12.889	0.529
941.999	545.412	80.006	19.995	103.749	20.006	12.693	0.503
943.999	546.451	80.007	19.994	103.758	20.003	12.928	0.515
945.999	547.549	80.007	19.995	103.755	20.005	12.776	0.576
947.999	548.545	80.008	19.995	103.748	20.004	12.858	0.498
949.999	549.580	80.007	19.995	103.731	20.000	13.153	0.501
951.999	550.639	80.008	19.994	103.736	20.002	12.968	0.516
953.999	551.664	80.008	19.993	103.745	20.003	12.918	0.528
956.000	552.633	80.008	19.994	103.749	20.001	13.081	0.504
957.999	553.669	80.009	19.994	103.748	20.001	13.077	0.510
960.000	554.724	80.008	19.993	103.750	19.999	13.175	0.547
961.999	555.786	80.009	19.993	103.752	20.003	12.897	0.538
963.999	556.816	80.010	19.992	103.746	19.998	13.298	0.515
965.999	557.844	80.007	19.994	103.748	20.001	13.017	0.538
968.000	558.892	80.009	19.993	103.751	19.997	13.324	0.534
969.999	559.858	80.008	19.993	103.753	19.995	13.463	0.481
972.000	560.923	80.006	19.992	103.751	19.998	13.238	0.539
973.999	561.947	80.004	19.994	103.753	19.995	13.488	0.528
975.999	563.008	80.007	19.992	103.753	19.998	13.290	0.509
977.999	564.046	80.006	19.994	103.756	19.996	13.419	0.514
979.999	565.049	80.007	19.993	103.755	19.993	13.609	0.496
981.999	566.118	80.006	19.994	103.754	19.994	13.534	0.552
983.999	567.155	80.003	19.995	103.756	19.996	13.377	0.547
985.999	568.193	80.006	19.993	103.722	19.994	13.517	0.525
987.999	569.271	80.007	19.995	103.736	19.997	13.317	0.549
989.999	570.331	80.008	19.995	103.821	19.996	13.412	0.531
991.999	571.371	80.007	19.994	103.745	19.996	13.419	0.517
993.999	572.431	80.008	19.995	103.748	20.000	13.120	0.524
995.999	573.465	80.009	19.995	103.751	19.996	13.374	0.534
997.999	574.565	80.007	19.994	103.761	19.994	13.541	0.555
999.999	575.632	80.008	19.996	103.752	19.997	13.351	0.523
1001.999	576.668	80.008	19.994	103.744	19.997	13.321	0.536
1003.999	577.661	80.009	19.993	103.752	19.994	13.542	0.507
1005.999	578.694	80.007	19.993	103.753	19.995	13.490	0.522
1007.999	579.706	80.004	19.994	103.741	19.995	13.450	0.508
1009.999	580.737	80.007	19.994	103.748	19.993	13.635	0.504
1012.000	581.765	80.007	19.993	103.752	19.994	13.567	0.521
1014.000	582.803	80.008	19.994	103.749	19.993	13.595	0.503
1015.999	583.834	80.008	19.996	103.751	19.996	13.409	0.506
1017.999	584.865	80.007	19.993	103.750	19.990	13.839	0.515
1019.999	585.902	80.009	19.995	103.746	19.988	13.978	0.499
1021.999	586.945	80.008	19.995	103.746	19.988	14.015	0.528
1023.999	587.946	80.009	19.994	103.749	19.985	14.230	0.503
1025.999	589.004	80.008	19.993	103.750	19.986	14.105	0.528
1027.999	590.065	80.006	19.994	103.750	19.989	13.914	0.523
1030.000	591.074	80.008	19.994	103.739	19.986	14.119	0.499
1032.000	592.115	80.008	19.994	103.743	19.984	14.251	0.503
1034.000	593.174	80.009	19.994	103.748	19.986	14.158	0.522
1035.999	594.217	80.008	19.994	103.748	19.988	13.999	0.541
1037.999	595.200	80.009	19.993	103.750	19.985	14.196	0.520
1039.999	596.277	80.008	19.995	103.752	19.987	14.043	0.519
1042.000	597.307	80.009	19.993	103.750	19.987	14.045	0.501
1043.999	598.303	80.010	19.994	103.750	19.984	14.263	0.482
1046.000	599.373	80.008	19.995	103.750	19.984	14.236	0.502
1048.000	600.434	80.008	19.996	103.748	19.984	14.269	0.523
1049.999	601.456	80.007	19.995	103.755	19.984	14.285	0.533
1052.000	602.553	80.007	19.995	103.754	19.984	14.277	0.523
1053.999	603.561	80.006	19.994	103.752	19.985	14.218	0.514
1055.999	604.559	80.004	19.995	103.699	19.986	14.148	0.516
1058.000	605.584	80.005	19.994	103.771	19.983	14.361	0.510
1059.999	606.614	80.007	19.994	103.781	19.984	14.301	0.503
1061.999	607.614	80.007	19.994	103.749	19.982	14.447	0.492
1063.999	608.667	80.008	19.993	103.750	19.982	14.381	0.533
1065.999	609.670	80.005	19.994	103.750	19.983	14.359	0.528
1068.000	610.685	80.007	19.995	103.748	19.978	14.709	0.512
1069.999	611.649	80.006	19.993	103.750	19.978	14.671	0.521
1071.999	612.722	80.008	19.994	103.751	19.979	14.621	0.529
1073.999	613.715	80.009	19.993	103.751	19.980	14.567	0.513
1076.000	614.746	80.008	19.993	103.751	19.976	14.859	0.527
1077.999	615.758	80.007	19.995	103.750	19.974	14.991	0.501
1079.999	616.756	80.010	19.996	103.748	19.974	14.973	0.455
1081.999	617.782	80.008	19.992	103.741	19.974	14.958	0.510
1084.000	618.818	80.007	19.993	103.733	19.974	14.984	0.526
1085.999	619.871	80.006	19.991	103.748	19.974	14.953	0.546
1088.000	620.816	80.007	19.997	103.743	19.974	14.991	0.497
1089.999	621.832	80.003	19.997	103.744	19.976	14.817	0.504
1091.999	622.836	80.007	19.993	103.737	19.975	14.913	0.506
1093.999	623.883	80.008	19.993	103.750	19.972	15.135	0.501
1096.000	624.895	80.014	19.989	103.741	19.973	15.059	0.523
1097.999	625.875	80.009	19.992	103.753	19.973	15.032	0.495
1099.999	626.911	80.009	19.994	103.752	19.974	14.965	0.496
1102.000	627.945	80.008	19.994	103.755	19.974	15.000	0.515
1103.999	629.010	80.009	19.993	103.751	19.972	15.098	0.563
1105.999	630.015	80.012	19.991	103.752	19.973	15.065	0.530
1107.999	631.027	80.009	19.997	103.752	19.971	15.219	0.523
1110.000	632.051	80.012	19.994	103.753	19.970	15.270	0.501
1111.999	633.127	80.004	19.997	103.751	19.969	15.345	0.516
1113.999	634.155	80.010	19.993	103.752	19.970	15.291	0.507
1115.999	635.216	80.007	19.992	103.756	19.969	15.363	0.537
1118.000	636.279	80.014	19.992	103.750	19.966	15.574	0.527
1120.000	637.274	80.008	19.990	103.755	19.967	15.511	0.498
1122.000	638.315	80.008	19.993	103.749	19.969	15.312	0.496
1123.999	639.330	80.010	19.996	103.744	19.963	15.793	0.514
1125.999	640.395	80.006	19.990	103.744	19.965	15.635	0.508
1128.000	641.389	80.008	19.992	103.746	19.965	15.635	0.525
1129.999	642.384	80.011	19.993	103.745	19.967	15.484	0.494
1131.999	643.402	80.006	19.994	103.742	19.967	15.489	0.525
1133.999	644.407	80.005	19.994	103.746	19.965	15.622	0.526
1135.999	645.449	80.010	19.990	103.744	19.967	15.524	0.494
1137.999	646.435	80.002	20.001	103.745	19.969	15.372	0.499
1140.000	647.469	80.007	19.994	103.742	19.972	15.143	0.517
1141.999	648.478	80.007	19.993	103.748	19.972	15.119	0.510
1143.999	649.548	80.007	19.996	103.742	19.973	15.053	0.527
1145.999	650.553	80.010	19.993	103.748	19.971	15.178	0.529
1147.999	651.609	80.008	19.996	103.751	19.971	15.168	0.522
1149.999	652.651	80.008	19.995	103.748	19.968	15.434	0.506
1152.000	653.705	80.007	19.995	103.747	19.967	15.481	0.531
1153.999	654.772	80.012	19.991	103.747	19.966	15.533	0.560
1155.999	655.785	80.004	19.994	103.749	19.966	15.589	0.513
1157.999	656.856	80.008	19.996	103.747	19.966	15.542	0.501
1159.999	657.911	80.006	19.994	103.747	19.967	15.460	0.542
1161.999	658.927	80.002	19.992	103.748	19.963	15.754	0.527
1163.999	659.990	80.007	19.994	103.745	19.966	15.579	0.532
1166.000	661.020	80.006	19.989	103.749	19.965	15.643	0.526
1167.999	662.054	80.007	19.995	103.756	19.965	15.655	0.523
1169.999	663.086	80.007	19.991	103.749	19.964	15.706	0.518
1172.000	664.136	80.005	19.994	103.734	19.966	15.550	0.544
1174.000	665.147	80.005	19.998	103.741	19.963	15.802	0.508
1175.999	666.187	80.003	19.996	103.749	19.965	15.658	0.520
1177.999	667.180	80.007	19.993	103.750	19.963	15.801	0.509
1180.000	668.271	80.006	19.996	103.753	19.968	15.383	0.520
1182.000	669.284	80.011	19.990	103.743	19.965	15.664	0.530
1183.999	670.317	80.007	19.990	103.754	19.966	15.584	0.495
1185.999	671.311	80.001	19.996	103.745	19.961	15.941	0.497
1188.000	672.337	80.009	19.987	103.743	19.963	15.805	0.494
1189.999	673.376	80.007	19.993	103.744	19.962	15.815	0.517
1192.000	674.383	80.007	19.992	103.731	19.958	16.138	0.490
1193.999	675.451	80.008	19.993	103.738	19.960	15.976	0.520
1195.999	676.422	80.008	19.993	103.741	19.962	15.849	0.484
1197.999	677.426	80.010	19.995	103.731	19.957	16.200	0.483
1200.000	678.427	80.005	19.994	103.734	19.957	16.177	0.513
1202.000	679.377	80.008	19.994	103.726	19.957	16.198	0.486
1203.999	680.367	80.011	19.992	103.731	19.962	15.860	0.491
1205.999	681.322	80.010	19.994	103.740	19.960	16.018	0.487
1207.999	682.335	80.015	19.991	103.726	19.961	15.905	0.514
1209.999	683.313	80.010	19.995	103.731	19.956	16.298	0.523
1211.999	684.235	80.011	19.993	103.730	19.955	16.320	0.469
1214.000	685.236	80.011	19.993	103.728	19.959	16.044	0.490
1215.999	686.201	80.011	19.992	103.732	19.958	16.157	0.462
1217.999	687.198	80.008	19.996	103.739	19.955	16.348	0.493
1219.999	688.167	80.007	19.995	103.737	19.953	16.467	0.488
1221.999	689.162	80.007	19.994	103.742	19.958	16.162	0.481
1224.000	690.150	80.009	19.993	103.742	19.954	16.454	0.472
1225.999	691.107	80.007	19.997	103.728	19.956	16.256	0.480
1227.999	692.157	80.008	19.998	103.735	19.952	16.597	0.522
1229.999	693.170	80.007	19.996	103.751	19.955	16.364	0.517
1231.999	694.134	80.008	19.989	103.738	19.950	16.694	0.531
1234.000	695.130	80.008	19.993	103.733	19.952	16.534	0.530
1235.999	696.141	80.007	19.996	103.734	19.950	16.704	0.493
1237.999	697.159	80.007	19.995	103.729	19.948	16.834	0.482
1240.000	698.153	80.007	19.994	103.721	19.951	16.641	0.516
1241.999	699.155	80.007	19.994	103.735	19.950	16.709	0.533
1243.999	700.140	80.005	19.996	103.749	19.945	17.085	0.486
1245.999	701.111	80.004	19.994	103.737	19.946	16.979	0.507
1247.999	702.160	80.006	19.995	103.718	19.950	16.680	0.512
1249.999	703.145	80.007	19.996	103.724	19.948	16.855	0.486
1252.000	704.146	80.003	19.989	103.737	19.947	16.921	0.514
1253.999	705.154	80.006	19.992	103.746	19.947	16.929	0.503
1255.999	706.144	80.006	19.995	103.748	19.947	16.944	0.499
1257.999	707.155	80.007	19.993	103.745	19.948	16.821	0.489
1260.000	708.165	80.008	19.993	103.752	19.951	16.658	0.529
1261.999	709.190	80.008	19.993	103.751	19.950	16.730	0.493
1263.999	710.227	80.010	19.994	103.739	19.946	16.960	0.548
1265.999	711.227	80.010	19.994	103.741	19.948	16.844	0.518
1268.000	712.232	80.009	19.992	103.743	19.947	16.928	0.500
1270.000	713.260	80.008	19.994	103.739	19.944	17.138	0.491
1271.999	714.297	80.010	19.994	103.735	19.944	17.149	0.526
1273.999	715.354	80.008	19.994	103.727	19.942	17.289	0.554
1275.999	716.355	80.009	19.994	103.728	19.940	17.431	0.496
1277.999	717.384	80.009	19.993	103.738	19.936	17.744	0.509
1279.999	718.354	80.009	19.994	103.743	19.936	17.693	0.503
1281.999	719.378	80.009	19.993	103.735	19.935	17.768	0.508
1283.999	720.392	80.009	19.995	103.716	19.937	17.642	0.512
1286.000	721.365	80.009	19.994	103.722	19.934	17.861	0.510
1288.000	722.338	80.009	19.994	103.737	19.935	17.765	0.528
1290.000	723.321	80.009	19.992	103.742	19.935	17.754	0.505
1291.999	724.326	80.009	19.994	103.743	19.938	17.581	0.508
1293.999	725.320	80.010	19.995	103.732	19.937	17.609	0.527
1295.999	726.278	80.010	19.993	103.717	19.935	17.802	0.486
1297.999	727.314	80.011	19.993	103.724	19.937	17.612	0.507
1299.999	728.350	80.011	19.993	103.717	19.939	17.500	0.506
1302.000	729.336	80.009	19.994	103.733	19.935	17.787	0.486
1303.999	730.372	80.008	19.993	103.748	19.937	17.647	0.540
1305.999	731.385	80.007	19.994	103.740	19.934	17.860	0.508
1307.999	732.431	80.008	19.992	103.741	19.933	17.897	0.502
1309.999	733.468	80.007	19.993	103.745	19.934	17.856	0.554
1311.999	734.500	80.006	19.994	103.736	19.933	17.920	0.516
1313.999	735.495	80.008	19.993	103.743	19.935	17.794	0.510
1316.000	736.438	80.006	19.994	103.736	19.935	17.798	0.471
1317.999	737.475	80.006	19.994	103.734	19.937	17.643	0.535
1319.999	738.482	80.007	19.993	103.725	19.935	17.808	0.495
1321.999	739.477	80.007	19.994	103.721	19.936	17.745	0.484
1324.000	740.546	80.006	19.993	103.731	19.933	17.944	0.510
1325.999	741.568	80.006	19.994	103.730	19.931	18.036	0.556
1327.999	742.581	80.007	19.993	103.738	19.931	18.075	0.535
1329.999	743.620	80.007	19.995	103.742	19.939	17.492	0.544