File: 01_Data/Wood_Veneer_MDF/MCC/Wood_Veneer_MDF_MCC_30K_min_220315_R2.txt
Sample ID:	C:\MCC\MCC Cal\Test\Wood_Veneer_MDF_MCC_30K_min_220315_R2.txt
Sample Weight (mg):	4.66
Heating Rate (C/s):	0.5
Combustor Temp (C):	900
N2 Flow Rate (cc/min):	80
O2 Flow Rate (cc/min):	20
Calibration File:	C:\MCC\MCC Cal\Coeff1 JN10440_30_210304.txt.txt
T Correction Coefficients:	0	1.024463	0
Time Shift (s):	14
*
Time (s)	Temperature (C)	N2 flow rate (cc/min)	O2 flow rate (cc/min)	Flow Rate (cc/min)	Oxygen (%)	HRR (W/g)	Heating rate (C/s)
0.000	116.556	80.012	19.993	103.715	19.888	-0.263	0.018
2.000	116.511	80.012	19.995	103.712	19.884	0.030	-0.005
4.000	116.479	80.012	19.996	103.719	19.888	-0.221	-0.009
6.000	116.453	80.017	19.994	103.725	19.887	-0.174	-0.029
8.000	116.485	80.014	19.993	103.716	19.885	-0.047	-0.006
10.000	116.447	80.015	19.993	103.738	19.882	0.165	0.010
12.000	116.401	80.016	19.993	103.753	19.880	0.326	-0.038
14.000	116.385	80.015	19.989	103.788	19.874	0.765	0.010
16.000	116.366	80.016	19.992	103.827	19.870	0.987	0.018
18.000	116.466	80.017	19.993	103.856	19.867	1.235	0.033
20.000	116.568	80.019	19.991	103.822	19.868	1.159	0.087
22.001	116.632	80.012	19.990	103.765	19.865	1.365	0.042
24.000	116.736	80.012	19.992	103.855	19.867	1.195	0.034
26.000	116.857	80.016	19.992	103.853	19.864	1.462	0.009
28.000	117.015	80.014	19.994	103.867	19.868	1.178	0.080
30.000	117.192	80.016	19.993	103.872	19.869	1.085	0.098
32.000	117.420	80.016	19.995	103.867	19.866	1.318	0.067
34.000	117.625	80.021	19.992	103.844	19.863	1.470	0.098
36.001	117.839	80.018	19.990	103.835	19.866	1.298	0.104
38.000	118.073	80.017	19.991	103.847	19.860	1.706	0.135
40.000	118.285	80.017	19.991	103.880	19.862	1.590	0.160
42.000	118.610	80.019	19.995	103.894	19.856	1.977	0.167
44.000	118.949	80.017	19.994	103.905	19.854	2.147	0.167
46.000	119.244	80.013	19.993	103.915	19.852	2.269	0.142
48.000	119.612	80.017	19.990	103.943	19.848	2.528	0.188
50.001	120.001	80.014	19.992	103.944	19.849	2.451	0.201
52.000	120.404	80.016	19.994	103.945	19.850	2.430	0.173
54.000	120.872	80.013	19.996	103.956	19.843	2.869	0.233
56.001	121.318	80.012	19.991	103.952	19.848	2.534	0.228
58.000	121.790	80.012	19.990	103.951	19.845	2.765	0.223
60.000	122.306	80.013	19.994	103.960	19.847	2.594	0.261
62.000	122.861	80.013	19.993	103.952	19.840	3.135	0.293
64.000	123.401	80.015	19.994	103.956	19.846	2.693	0.290
66.000	124.003	80.013	19.994	103.950	19.845	2.741	0.263
68.000	124.443	80.015	19.992	103.947	19.843	2.917	0.198
70.000	125.300	80.009	20.004	103.943	19.844	2.841	0.331
72.000	125.878	80.015	19.993	103.946	19.843	2.881	0.300
74.001	126.419	80.013	19.993	103.962	19.844	2.851	0.284
76.000	127.002	80.005	20.004	103.977	19.840	3.117	0.303
78.001	127.688	80.012	19.995	103.958	19.839	3.177	0.292
80.000	128.471	80.012	19.993	103.951	19.844	2.844	0.303
82.001	129.122	80.015	19.994	103.970	19.842	2.997	0.441
84.000	129.868	80.015	19.993	103.976	19.836	3.367	0.386
86.001	130.526	80.014	19.995	103.975	19.838	3.226	0.399
88.000	131.298	80.014	19.994	103.981	19.844	2.815	0.380
90.001	132.011	80.014	19.992	103.978	19.840	3.120	0.403
92.000	132.759	80.015	19.992	103.979	19.840	3.095	0.397
94.000	133.548	80.016	19.992	103.979	19.840	3.090	0.387
96.000	134.365	80.016	19.994	103.976	19.839	3.189	0.396
98.001	135.155	80.016	19.991	103.975	19.837	3.323	0.404
100.000	135.960	80.014	19.989	103.984	19.838	3.225	0.446
102.000	136.794	80.018	19.993	103.972	19.838	3.243	0.428
104.000	137.596	80.015	19.991	103.983	19.837	3.333	0.459
106.000	138.474	80.017	19.993	103.985	19.840	3.111	0.415
108.001	139.291	80.013	19.993	103.984	19.839	3.210	0.414
110.000	140.157	80.015	19.994	103.980	19.835	3.441	0.441
112.001	141.032	80.015	19.993	103.978	19.837	3.325	0.425
114.001	141.942	80.015	19.994	103.977	19.837	3.332	0.444
116.000	142.794	80.020	19.992	103.973	19.837	3.304	0.455
118.001	143.719	80.015	19.992	103.979	19.837	3.306	0.458
120.000	144.619	80.014	19.994	103.999	19.839	3.169	0.479
122.000	145.550	80.017	19.993	103.975	19.837	3.343	0.480
124.000	146.475	80.014	19.993	103.973	19.837	3.284	0.480
126.000	147.374	80.015	19.993	103.954	19.841	3.017	0.442
128.000	148.319	80.015	19.992	103.973	19.837	3.286	0.488
130.000	149.257	80.014	19.993	103.960	19.838	3.267	0.467
132.000	150.221	80.015	19.991	103.962	19.843	2.906	0.463
134.000	151.139	80.015	19.992	103.956	19.844	2.845	0.471
136.000	152.137	80.014	19.993	103.945	19.838	3.233	0.489
138.000	153.098	80.015	19.994	103.954	19.840	3.112	0.482
140.000	154.063	80.012	19.996	103.958	19.836	3.398	0.505
142.000	154.986	80.013	19.993	103.962	19.836	3.409	0.493
144.000	155.980	80.014	19.994	103.952	19.838	3.220	0.520
146.000	156.927	80.012	19.993	103.947	19.836	3.417	0.538
148.000	158.019	80.014	19.994	103.960	19.834	3.491	0.614
150.000	158.983	80.015	19.994	103.949	19.834	3.527	0.491
152.000	159.998	80.013	19.993	103.946	19.832	3.637	0.587
154.000	160.735	80.012	19.995	103.951	19.830	3.834	0.378
156.001	161.843	80.014	19.994	103.951	19.836	3.391	0.512
158.000	162.862	80.011	19.992	103.948	19.834	3.529	0.490
160.000	163.831	80.012	19.995	103.951	19.834	3.533	0.522
162.000	164.838	80.010	20.001	103.949	19.832	3.633	0.536
164.000	165.857	80.013	19.999	103.967	19.832	3.675	0.491
166.000	166.830	80.008	19.999	103.953	19.833	3.586	0.487
168.000	167.831	80.012	19.992	103.955	19.830	3.783	0.495
170.000	168.876	80.017	19.991	103.949	19.831	3.764	0.528
172.000	169.889	80.019	19.991	103.967	19.828	3.917	0.515
174.000	170.883	80.012	19.991	103.951	19.829	3.883	0.511
176.000	171.865	80.015	19.993	103.948	19.832	3.631	0.511
178.000	172.865	80.014	19.993	103.948	19.832	3.667	0.500
180.000	173.863	80.013	19.994	103.951	19.826	4.054	0.484
182.000	174.905	80.013	19.993	103.945	19.824	4.215	0.510
184.000	175.916	80.015	19.995	103.944	19.827	4.033	0.497
186.000	176.896	80.012	19.994	103.946	19.828	3.966	0.487
188.000	177.894	80.015	19.994	103.947	19.823	4.267	0.500
190.000	178.923	80.014	19.994	103.949	19.824	4.213	0.522
192.000	179.975	80.016	19.994	103.946	19.826	4.095	0.535
194.000	180.922	80.016	19.993	103.945	19.822	4.334	0.485
196.000	181.918	80.014	19.993	103.945	19.818	4.666	0.498
198.000	182.944	80.015	19.993	103.940	19.817	4.679	0.520
200.000	183.932	80.015	19.994	103.942	19.819	4.587	0.490
202.000	184.927	80.016	19.994	103.943	19.817	4.715	0.499
204.000	185.920	80.016	19.994	103.943	19.817	4.690	0.503
206.000	187.031	80.011	20.002	103.943	19.816	4.788	0.544
208.000	187.961	80.017	19.994	103.941	19.814	4.927	0.461
210.000	188.940	80.013	19.997	103.937	19.812	5.084	0.503
212.000	189.942	80.016	19.994	103.934	19.810	5.189	0.481
214.000	190.957	80.013	19.993	103.942	19.809	5.272	0.502
216.000	191.950	80.013	19.994	103.937	19.806	5.478	0.504
218.000	192.942	80.013	19.993	103.931	19.807	5.402	0.503
220.000	193.943	80.012	19.993	103.938	19.803	5.690	0.502
222.000	194.929	80.017	19.993	103.938	19.805	5.569	0.506
224.000	195.927	80.013	19.996	103.943	19.805	5.520	0.511
226.000	196.874	80.013	19.993	103.939	19.803	5.650	0.496
228.000	197.846	80.013	19.994	103.936	19.801	5.846	0.472
230.000	198.862	80.014	19.994	103.922	19.798	6.047	0.497
232.000	199.793	80.013	19.995	103.934	19.797	6.122	0.490
234.000	200.769	80.013	19.993	103.941	19.797	6.071	0.467
236.000	201.798	80.013	19.992	103.930	19.794	6.280	0.522
238.000	202.782	80.014	19.992	103.923	19.794	6.328	0.497
240.000	203.791	80.013	19.994	103.943	19.791	6.545	0.491
242.000	204.761	80.015	19.993	103.930	19.788	6.706	0.506
244.001	205.704	80.011	19.994	103.928	19.788	6.740	0.496
246.000	206.693	80.012	19.994	103.915	19.787	6.786	0.492
248.000	207.746	80.012	19.994	103.914	19.787	6.799	0.495
250.000	208.682	80.012	19.995	103.922	19.781	7.215	0.456
252.000	209.682	80.014	19.994	103.937	19.780	7.306	0.488
254.000	210.639	80.012	19.993	103.934	19.779	7.355	0.483
256.000	211.660	80.013	19.993	103.933	19.782	7.121	0.470
258.000	212.671	80.013	19.993	103.940	19.778	7.417	0.514
260.000	213.650	80.014	19.994	103.935	19.779	7.321	0.488
262.000	214.669	80.015	19.995	103.922	19.775	7.611	0.509
264.000	215.620	80.015	19.994	103.928	19.777	7.506	0.473
266.000	216.613	80.014	19.992	103.925	19.775	7.659	0.514
268.000	217.591	80.015	19.994	103.931	19.774	7.681	0.504
270.000	218.584	80.015	19.994	103.920	19.774	7.664	0.509
272.001	219.599	80.013	19.994	103.926	19.775	7.638	0.516
274.000	220.576	80.015	19.994	103.938	19.776	7.568	0.455
276.000	221.588	80.014	19.994	103.932	19.773	7.790	0.478
278.000	222.561	80.013	19.994	103.929	19.773	7.783	0.483
280.000	223.535	80.014	19.995	103.919	19.772	7.852	0.526
282.000	224.499	80.013	19.995	103.918	19.769	8.011	0.509
284.000	225.496	80.015	19.994	103.906	19.771	7.901	0.492
286.000	226.505	80.015	19.994	103.922	19.773	7.766	0.510
288.000	227.485	80.014	19.994	103.929	19.770	7.997	0.464
290.000	228.523	80.017	19.994	103.921	19.772	7.841	0.488
292.000	229.480	80.016	19.993	103.932	19.767	8.172	0.501
294.000	230.515	80.017	19.994	103.933	19.764	8.398	0.524
296.000	231.488	80.015	19.993	103.928	19.763	8.430	0.486
298.000	232.517	80.013	19.993	103.918	19.764	8.382	0.492
300.000	233.478	80.013	19.995	103.931	19.762	8.518	0.493
302.000	234.513	80.014	19.994	103.932	19.757	8.854	0.490
304.000	235.533	80.013	19.993	103.914	19.756	8.963	0.511
306.000	236.479	80.014	19.992	103.919	19.756	8.920	0.488
308.000	237.456	80.012	19.993	103.930	19.753	9.130	0.477
310.000	238.471	80.013	19.993	103.920	19.752	9.218	0.503
312.000	239.450	80.012	19.993	103.920	19.752	9.247	0.476
314.000	240.444	80.015	19.993	103.924	19.748	9.491	0.506
316.000	241.428	80.014	19.994	103.912	19.745	9.730	0.489
318.000	242.377	80.013	19.994	103.923	19.746	9.657	0.488
320.000	243.439	80.014	19.993	103.922	19.743	9.865	0.541
322.000	244.359	80.013	19.994	103.932	19.739	10.164	0.474
324.001	245.392	80.012	19.992	103.931	19.738	10.209	0.496
326.000	246.372	80.014	19.992	103.926	19.735	10.409	0.512
328.000	247.332	80.013	19.993	103.930	19.733	10.572	0.479
330.000	248.349	80.013	19.993	103.923	19.733	10.565	0.495
332.000	249.340	80.013	19.993	103.940	19.728	10.930	0.493
334.000	250.292	80.014	19.993	103.927	19.723	11.211	0.482
336.000	251.310	80.012	19.994	103.931	19.720	11.436	0.508
338.000	252.317	80.013	19.993	103.943	19.719	11.532	0.503
340.000	253.340	80.013	19.993	103.943	19.719	11.554	0.510
342.000	254.307	80.014	19.995	103.943	19.713	11.916	0.507
344.000	255.307	80.014	19.993	103.931	19.708	12.276	0.509
346.000	256.288	80.014	19.994	103.932	19.706	12.400	0.502
348.000	257.256	80.013	19.994	103.933	19.703	12.608	0.465
350.000	258.224	80.015	19.994	103.939	19.700	12.859	0.478
352.000	259.283	80.014	19.994	103.940	19.693	13.354	0.535
354.000	260.257	80.014	19.994	103.942	19.692	13.376	0.476
356.000	261.262	80.014	19.993	103.938	19.683	14.037	0.504
358.000	262.210	80.014	19.994	103.941	19.680	14.266	0.507
360.000	263.227	80.013	19.995	103.946	19.677	14.481	0.515
362.000	264.193	80.014	19.994	103.954	19.673	14.752	0.484
364.000	265.223	80.014	19.994	103.946	19.667	15.145	0.485
366.000	266.174	80.014	19.993	103.948	19.664	15.343	0.438
368.000	267.175	80.014	19.994	103.944	19.658	15.805	0.485
370.000	268.167	80.015	19.994	103.949	19.656	15.938	0.481
372.000	269.132	80.016	19.994	103.950	19.650	16.297	0.486
374.000	270.158	80.014	19.994	103.956	19.645	16.684	0.513
376.000	271.206	80.013	19.994	103.959	19.640	16.998	0.516
378.000	272.216	80.012	19.994	103.969	19.633	17.505	0.524
380.000	273.152	80.011	19.994	103.965	19.625	18.071	0.463
382.000	274.141	80.012	19.995	103.952	19.621	18.316	0.463
384.000	275.152	80.012	19.994	103.964	19.616	18.724	0.516
386.000	276.155	80.011	19.994	103.973	19.612	18.959	0.491
388.000	277.130	80.012	19.993	103.974	19.608	19.242	0.480
390.000	278.128	80.012	19.995	103.972	19.598	19.943	0.496
392.000	279.098	80.013	19.993	103.972	19.593	20.316	0.503
394.000	280.109	80.012	19.994	103.971	19.588	20.646	0.497
396.000	281.064	80.014	19.993	103.983	19.582	21.052	0.466
398.000	282.066	80.014	19.993	103.972	19.575	21.565	0.459
400.000	283.040	80.012	19.993	103.969	19.570	21.893	0.509
402.000	284.035	80.013	19.993	103.976	19.568	22.040	0.513
404.000	284.979	80.014	19.993	103.979	19.560	22.565	0.458
406.000	285.943	80.014	19.995	103.978	19.555	22.955	0.460
408.000	286.940	80.014	19.993	103.971	19.549	23.359	0.486
410.000	287.899	80.014	19.994	103.974	19.544	23.719	0.494
412.000	288.843	80.012	19.994	103.981	19.539	24.094	0.473
414.001	289.786	80.013	19.994	103.980	19.532	24.538	0.460
416.000	290.795	80.012	19.995	103.982	19.527	24.927	0.456
418.000	291.764	80.011	19.993	103.982	19.521	25.295	0.499
420.000	292.748	80.013	19.994	103.982	19.513	25.841	0.477
422.000	293.701	80.013	19.994	103.988	19.508	26.209	0.491
424.000	294.690	80.014	19.993	103.982	19.501	26.674	0.486
426.000	295.619	80.015	19.993	103.981	19.496	27.059	0.490
428.000	296.574	80.014	19.993	103.984	19.488	27.580	0.487
430.000	297.543	80.013	19.993	103.982	19.486	27.743	0.492
432.000	298.543	80.013	19.994	103.982	19.480	28.139	0.484
434.000	299.477	80.013	19.994	103.985	19.475	28.510	0.484
436.000	300.415	80.012	19.994	103.986	19.467	29.073	0.455
438.000	301.388	80.013	19.994	103.985	19.465	29.225	0.482
440.000	302.350	80.012	19.995	103.984	19.458	29.694	0.493
442.000	303.341	80.013	19.995	103.986	19.452	30.103	0.501
444.000	304.321	80.013	19.994	103.993	19.451	30.213	0.494
446.000	305.312	80.013	19.995	103.988	19.445	30.588	0.524
448.000	306.281	80.014	19.994	103.991	19.434	31.398	0.471
450.000	307.283	80.015	19.994	103.986	19.427	31.842	0.516
452.000	308.268	80.013	19.994	103.984	19.423	32.149	0.494
454.000	309.260	80.015	19.993	103.979	19.417	32.579	0.492
456.000	310.212	80.013	19.993	104.003	19.412	32.943	0.502
458.000	311.195	80.014	19.993	104.007	19.405	33.392	0.477
460.000	312.226	80.013	19.994	104.001	19.398	33.876	0.514
462.001	313.204	80.012	19.994	104.016	19.394	34.198	0.478
464.000	314.191	80.012	19.994	104.022	19.388	34.564	0.488
466.000	315.197	80.011	19.995	104.019	19.382	35.042	0.511
468.000	316.192	80.012	19.994	104.020	19.375	35.466	0.507
470.000	317.165	80.011	19.994	104.012	19.364	36.254	0.495
472.000	318.174	80.012	19.995	104.016	19.359	36.611	0.506
474.000	319.151	80.011	19.995	104.007	19.350	37.250	0.495
476.000	320.165	80.012	19.994	104.023	19.343	37.714	0.508
478.000	321.182	80.010	19.994	104.034	19.333	38.437	0.506
480.000	322.196	80.011	19.995	104.031	19.323	39.118	0.505
482.000	323.155	80.011	19.995	104.035	19.316	39.617	0.496
484.000	324.159	80.011	19.996	104.041	19.307	40.207	0.490
486.000	325.174	80.013	19.994	104.052	19.296	41.039	0.493
488.000	326.165	80.012	19.993	104.052	19.285	41.799	0.516
490.000	327.200	80.013	19.993	104.050	19.274	42.566	0.517
492.000	328.151	80.012	19.993	104.057	19.268	42.995	0.489
494.000	329.190	80.012	19.993	104.063	19.253	44.033	0.513
496.000	330.192	80.013	19.995	104.043	19.239	44.984	0.511
498.000	331.178	80.012	19.993	104.063	19.228	45.757	0.496
500.000	332.217	80.012	19.994	104.064	19.216	46.613	0.566
502.000	333.189	80.012	19.994	104.065	19.203	47.486	0.517
504.000	334.193	80.012	19.994	104.076	19.192	48.264	0.517
506.000	335.226	80.014	19.994	104.078	19.184	48.845	0.501
508.000	336.209	80.013	19.993	104.087	19.170	49.836	0.500
510.000	337.191	80.014	19.992	104.102	19.152	51.052	0.497
512.000	338.192	80.014	19.993	104.101	19.144	51.651	0.500
514.000	339.186	80.013	19.993	104.101	19.131	52.531	0.497
516.000	340.188	80.013	19.993	104.108	19.119	53.349	0.480
518.000	341.173	80.012	19.994	104.119	19.104	54.455	0.492
520.000	342.210	80.013	19.993	104.119	19.093	55.213	0.511
522.000	343.172	80.013	19.994	104.133	19.080	56.096	0.473
524.000	344.149	80.014	19.993	104.148	19.071	56.744	0.475
526.000	345.130	80.013	19.991	104.132	19.059	57.546	0.490
528.000	346.152	80.014	19.993	104.127	19.050	58.211	0.488
530.000	347.211	80.016	19.993	104.133	19.044	58.584	0.546
532.000	348.178	80.016	19.993	104.141	19.031	59.503	0.488
534.001	349.156	80.016	19.993	104.137	19.025	59.948	0.529
536.000	350.155	80.015	19.994	104.137	19.025	59.887	0.501
538.000	351.142	80.014	19.992	104.136	19.020	60.243	0.507
540.000	352.142	80.013	19.994	104.131	19.026	59.848	0.500
542.000	353.175	80.013	19.994	104.129	19.026	59.847	0.511
544.000	354.192	80.012	19.994	104.120	19.027	59.770	0.490
546.000	355.163	80.012	19.995	104.111	19.038	59.001	0.502
548.000	356.157	80.012	19.994	104.089	19.047	58.322	0.481
550.000	357.154	80.011	19.994	104.080	19.059	57.470	0.508
552.000	358.154	80.012	19.994	104.071	19.074	56.404	0.521
554.000	359.192	80.011	19.994	104.059	19.097	54.809	0.519
556.000	360.157	80.011	19.994	104.059	19.121	53.167	0.512
558.000	361.150	80.011	19.995	104.031	19.142	51.679	0.493
560.000	362.141	80.012	19.994	104.013	19.172	49.570	0.514
562.000	363.154	80.013	19.996	103.990	19.201	47.543	0.508
564.000	364.142	80.011	19.994	103.982	19.235	45.218	0.508
566.000	365.159	80.010	19.997	103.969	19.274	42.454	0.504
568.000	366.164	80.011	19.995	103.943	19.311	39.887	0.506
570.000	367.153	80.010	19.994	103.939	19.351	37.093	0.510
572.000	368.121	80.012	19.994	103.912	19.393	34.218	0.488
574.000	369.111	80.015	19.992	103.905	19.431	31.560	0.466
576.000	370.063	80.011	19.994	103.883	19.469	28.902	0.467
578.000	371.064	80.011	19.994	103.892	19.508	26.173	0.495
580.000	372.077	80.014	19.994	103.884	19.543	23.758	0.497
582.000	373.099	80.012	19.994	103.869	19.579	21.230	0.538
584.000	374.092	80.014	19.997	103.867	19.608	19.223	0.484
586.000	375.132	80.012	19.992	103.863	19.642	16.883	0.499
588.000	376.138	80.013	19.993	103.839	19.666	15.223	0.520
590.000	377.145	80.015	19.993	103.852	19.690	13.545	0.506
592.000	378.162	80.015	19.994	103.853	19.710	12.128	0.520
594.000	379.185	80.013	19.994	103.845	19.731	10.708	0.507
596.000	380.163	80.014	19.993	103.834	19.745	9.678	0.533
598.000	381.197	80.011	19.993	103.828	19.759	8.761	0.531
600.000	382.143	80.012	19.995	103.834	19.768	8.073	0.488
602.000	383.203	80.013	19.994	103.830	19.778	7.380	0.505
604.000	384.189	80.013	19.994	103.825	19.787	6.807	0.501
606.000	385.186	80.011	19.995	103.825	19.792	6.458	0.527
608.000	386.207	80.015	19.993	103.829	19.797	6.080	0.476
610.000	387.196	80.014	19.992	103.830	19.799	5.917	0.485
612.000	388.161	80.013	19.997	103.819	19.806	5.438	0.484
614.000	389.173	80.018	19.993	103.823	19.810	5.153	0.505
616.000	390.218	80.016	19.994	103.825	19.814	4.899	0.485
618.000	391.190	80.016	19.993	103.825	19.813	5.001	0.507
620.000	392.219	80.011	19.992	103.826	19.815	4.808	0.516
622.000	393.212	80.015	19.994	103.825	19.814	4.899	0.504
624.000	394.184	80.012	19.995	103.825	19.817	4.728	0.468
626.000	395.257	80.013	19.992	103.827	19.817	4.672	0.512
628.000	396.255	80.010	19.997	103.828	19.819	4.549	0.520
630.000	397.256	80.012	19.993	103.827	19.822	4.384	0.479
632.000	398.271	80.013	19.995	103.830	19.825	4.168	0.493
634.000	399.260	80.011	19.994	103.826	19.826	4.083	0.509
636.000	400.234	80.012	19.993	103.832	19.825	4.130	0.494
638.000	401.222	80.011	19.996	103.830	19.829	3.877	0.491
640.000	402.251	80.012	19.995	103.831	19.830	3.779	0.491
642.000	403.248	80.014	19.993	103.829	19.834	3.532	0.498
644.000	404.246	80.015	19.991	103.830	19.837	3.317	0.508
646.000	405.226	80.016	19.995	103.828	19.838	3.241	0.486
648.000	406.295	80.014	19.994	103.829	19.839	3.173	0.525
650.000	407.249	80.007	19.988	103.836	19.838	3.273	0.489
652.000	408.220	80.014	19.992	103.833	19.844	2.807	0.477
654.000	409.178	80.013	19.991	103.831	19.842	2.974	0.493
656.000	410.241	80.011	19.990	103.833	19.844	2.811	0.512
658.000	411.260	80.010	19.995	103.835	19.846	2.667	0.488
660.000	412.232	80.014	19.991	103.827	19.845	2.775	0.471
662.000	413.248	80.011	19.994	103.828	19.847	2.614	0.538
664.000	414.200	80.010	19.998	103.827	19.847	2.588	0.477
666.000	415.210	80.013	19.997	103.827	19.848	2.519	0.504
668.000	416.204	80.010	19.997	103.826	19.848	2.521	0.508
670.000	417.205	80.010	20.000	103.825	19.849	2.487	0.510
672.000	418.247	80.014	19.994	103.822	19.852	2.292	0.518
674.000	419.239	80.010	19.994	103.822	19.852	2.294	0.509
676.000	420.275	80.012	19.989	103.827	19.854	2.162	0.518
678.000	421.315	80.011	19.999	103.827	19.853	2.203	0.497
680.000	422.351	80.013	19.989	103.821	19.852	2.237	0.535
682.000	423.325	80.007	19.997	103.822	19.855	2.084	0.519
684.000	424.375	80.010	19.995	103.818	19.856	1.988	0.533
686.000	425.402	80.013	19.993	103.824	19.856	1.974	0.517
688.000	426.403	80.019	19.994	103.811	19.859	1.760	0.513
690.000	427.417	80.016	19.990	103.814	19.862	1.543	0.497
692.000	428.438	80.013	19.994	103.828	19.861	1.636	0.534
694.000	429.422	80.013	19.989	103.822	19.859	1.753	0.475
696.000	430.465	80.017	19.994	103.827	19.865	1.378	0.520
698.000	431.477	80.009	19.996	103.829	19.866	1.323	0.508
700.000	432.512	80.012	19.992	103.822	19.869	1.079	0.509
702.000	433.534	80.011	19.991	103.829	19.866	1.295	0.494
704.000	434.604	80.013	19.991	103.829	19.866	1.304	0.516
706.000	435.639	80.014	19.992	103.822	19.864	1.454	0.525
708.000	436.589	80.006	19.999	103.824	19.867	1.193	0.492
710.000	437.647	80.010	19.992	103.831	19.869	1.068	0.547
712.000	438.653	80.012	19.990	103.833	19.870	0.997	0.511
714.000	439.683	80.013	19.989	103.829	19.869	1.079	0.501
716.000	440.683	80.013	19.992	103.828	19.866	1.266	0.503
718.000	441.736	80.013	19.991	103.829	19.869	1.067	0.522
720.000	442.716	80.014	19.991	103.829	19.871	0.935	0.517
722.000	443.772	80.011	19.993	103.815	19.873	0.829	0.511
724.000	444.812	80.013	19.994	103.812	19.873	0.774	0.512
726.000	445.841	80.016	19.990	103.816	19.873	0.787	0.506
728.000	446.851	80.014	19.991	103.809	19.873	0.793	0.503
730.000	447.866	80.012	19.995	103.807	19.877	0.562	0.524
732.000	448.912	80.011	19.994	103.818	19.875	0.636	0.552
734.000	449.918	80.013	19.995	103.819	19.874	0.727	0.495
736.000	450.958	80.012	19.998	103.805	19.875	0.644	0.521
738.000	451.977	80.010	19.997	103.805	19.877	0.534	0.529
740.000	452.977	80.013	19.992	103.799	19.877	0.505	0.499
742.000	454.013	80.014	19.995	103.818	19.876	0.590	0.504
744.001	455.039	80.015	19.995	103.813	19.881	0.250	0.504
746.000	456.062	80.012	19.996	103.813	19.879	0.424	0.519
748.000	457.095	80.012	19.993	103.819	19.885	-0.004	0.510
750.000	458.169	80.016	19.994	103.813	19.886	-0.114	0.543
752.000	459.161	80.013	19.996	103.803	19.886	-0.108	0.495
754.000	460.137	80.004	20.003	103.819	19.886	-0.110	0.478
756.000	461.228	80.016	19.994	103.822	19.884	0.013	0.521
758.000	462.243	80.014	19.994	103.812	19.891	-0.441	0.506
760.000	463.288	80.012	19.991	103.802	19.887	-0.185	0.515
762.000	464.310	80.007	20.002	103.801	19.891	-0.424	0.486
764.000	465.305	80.015	19.994	103.794	19.891	-0.420	0.520
766.000	466.317	80.011	19.994	103.797	19.891	-0.471	0.490
768.000	467.378	80.011	19.994	103.808	19.894	-0.670	0.538
770.000	468.378	80.013	19.991	103.800	19.894	-0.681	0.523
772.000	469.413	80.018	19.987	103.810	19.899	-1.009	0.484
774.000	470.400	80.016	19.989	103.801	19.900	-1.100	0.483
776.000	471.405	80.014	19.994	103.793	19.902	-1.202	0.503
778.000	472.435	80.013	19.993	103.813	19.906	-1.452	0.514
780.000	473.457	80.014	19.993	103.821	19.905	-1.429	0.529
782.000	474.509	80.009	19.995	103.815	19.906	-1.514	0.513
784.000	475.550	80.012	19.993	103.817	19.908	-1.598	0.506
786.000	476.548	80.014	19.991	103.805	19.910	-1.764	0.512
788.000	477.567	80.012	19.993	103.804	19.907	-1.567	0.508
790.000	478.569	80.012	19.994	103.805	19.913	-1.944	0.484
792.000	479.545	80.014	19.996	103.799	19.909	-1.707	0.510
794.000	480.573	80.019	19.993	103.809	19.910	-1.792	0.516
796.000	481.587	80.006	19.998	103.818	19.911	-1.822	0.484
798.000	482.610	80.011	19.994	103.801	19.913	-1.945	0.499
800.000	483.658	80.019	19.991	103.796	19.914	-2.038	0.502
802.000	484.651	80.010	19.995	103.823	19.912	-1.890	0.515
804.000	485.651	80.017	19.991	103.794	19.914	-2.059	0.527
806.000	486.713	80.016	19.995	103.800	19.915	-2.119	0.490
808.000	487.721	80.016	19.990	103.793	19.915	-2.127	0.515
810.000	488.744	80.015	19.994	103.793	19.914	-2.059	0.494
812.000	489.778	80.018	19.993	103.791	19.920	-2.445	0.529
814.000	490.787	80.013	19.994	103.796	19.915	-2.115	0.506
816.000	491.790	80.010	19.992	103.792	19.916	-2.199	0.504
818.000	492.863	80.011	19.994	103.803	19.920	-2.449	0.542
820.000	493.872	80.010	19.996	103.802	19.922	-2.625	0.515
822.000	494.925	80.010	19.993	103.795	19.922	-2.612	0.542
824.000	495.937	80.009	19.996	103.792	19.925	-2.782	0.518
826.000	496.992	80.014	19.989	103.797	19.926	-2.893	0.534
828.000	498.013	80.009	19.992	103.823	19.928	-3.020	0.513
830.000	499.058	80.014	19.993	103.820	19.925	-2.776	0.503
832.000	500.073	80.015	19.995	103.813	19.925	-2.829	0.521
834.000	501.110	80.012	19.994	103.793	19.927	-2.977	0.530
836.000	502.172	80.013	19.995	103.797	19.924	-2.742	0.493
838.000	503.248	80.010	19.992	103.792	19.927	-2.912	0.558
840.000	504.224	80.013	19.994	103.807	19.929	-3.064	0.497
842.000	505.280	80.014	19.994	103.797	19.926	-2.897	0.519
844.000	506.293	80.013	19.994	103.797	19.929	-3.094	0.497
846.000	507.348	80.013	19.992	103.796	19.928	-3.048	0.520
848.000	508.367	80.008	20.001	103.796	19.931	-3.207	0.540
850.000	509.400	80.015	19.993	103.802	19.933	-3.351	0.525
852.000	510.507	80.013	19.995	103.804	19.930	-3.175	0.523
854.000	511.539	80.017	19.993	103.795	19.933	-3.370	0.515
856.000	512.487	80.015	19.993	103.792	19.932	-3.308	0.511
858.000	513.586	80.017	19.994	103.791	19.930	-3.143	0.533
860.000	514.686	80.011	19.995	103.789	19.932	-3.281	0.565
862.000	515.732	80.014	19.998	103.786	19.933	-3.351	0.530
864.000	516.829	80.012	19.994	103.788	19.934	-3.423	0.555
866.000	517.893	80.015	19.993	103.789	19.933	-3.382	0.522
868.000	518.923	80.010	19.998	103.798	19.935	-3.472	0.537
870.000	519.966	80.017	19.991	103.796	19.937	-3.622	0.502
872.000	521.056	80.012	19.994	103.793	19.933	-3.382	0.560
874.000	522.111	80.014	19.994	103.801	19.935	-3.493	0.525
876.000	523.143	80.015	19.993	103.796	19.937	-3.646	0.545
878.000	524.198	80.011	19.993	103.791	19.936	-3.578	0.554
880.000	525.289	80.011	19.994	103.790	19.938	-3.698	0.576
882.000	526.291	80.014	19.992	103.789	19.935	-3.482	0.511
884.000	527.366	80.015	19.992	103.790	19.937	-3.671	0.528
886.000	528.355	80.016	19.989	103.792	19.936	-3.592	0.545
888.000	529.439	80.013	19.990	103.791	19.938	-3.722	0.492
890.001	530.501	80.014	19.996	103.792	19.940	-3.849	0.497
892.000	531.549	80.009	19.994	103.792	19.940	-3.853	0.538
894.000	532.600	80.010	19.994	103.791	19.938	-3.701	0.520
896.000	533.658	80.012	19.993	103.794	19.937	-3.635	0.521
898.000	534.684	80.010	20.000	103.796	19.932	-3.302	0.530
900.000	535.738	80.012	19.994	103.794	19.937	-3.609	0.532
902.000	536.795	80.012	20.000	103.795	19.938	-3.733	0.510
904.000	537.854	80.017	19.990	103.792	19.937	-3.661	0.528
906.000	538.903	80.011	19.999	103.793	19.942	-3.977	0.538
908.000	539.958	80.016	19.994	103.797	19.941	-3.936	0.516
910.000	540.975	80.014	19.993	103.793	19.941	-3.943	0.519
912.000	541.999	80.012	19.993	103.790	19.941	-3.917	0.492
914.000	543.044	80.012	19.994	103.791	19.940	-3.817	0.521
916.000	544.138	80.017	19.989	103.784	19.940	-3.856	0.544
918.000	545.092	80.009	20.001	103.791	19.940	-3.881	0.477
920.000	546.162	80.010	19.994	103.786	19.940	-3.822	0.531
922.000	547.230	80.012	19.993	103.786	19.943	-4.087	0.525
924.000	548.226	80.011	19.996	103.789	19.940	-3.877	0.528
926.000	549.271	80.012	19.996	103.788	19.943	-4.061	0.527
928.000	550.305	80.012	19.993	103.786	19.942	-3.960	0.519
930.000	551.344	80.012	19.990	103.790	19.941	-3.896	0.495
932.000	552.327	80.013	19.998	103.790	19.944	-4.159	0.494
934.001	553.352	80.017	19.994	103.792	19.943	-4.070	0.532
936.000	554.395	80.018	19.992	103.792	19.945	-4.182	0.528
938.000	555.446	80.015	19.993	103.787	19.943	-4.087	0.541
940.000	556.439	80.016	19.992	103.787	19.945	-4.225	0.505
942.000	557.431	80.015	19.994	103.785	19.946	-4.256	0.492
944.000	558.439	80.010	19.992	103.782	19.945	-4.218	0.508
946.000	559.422	80.013	19.996	103.783	19.946	-4.290	0.478
948.000	560.469	80.014	19.993	103.785	19.941	-3.921	0.512
950.000	561.474	80.013	19.995	103.788	19.946	-4.275	0.492
952.000	562.468	80.011	19.996	103.790	19.945	-4.229	0.453
954.000	563.479	80.009	20.000	103.786	19.947	-4.368	0.512
956.000	564.463	80.014	19.992	103.785	19.948	-4.401	0.514
958.000	565.508	80.014	19.990	103.789	19.948	-4.437	0.543
960.000	566.531	80.012	19.996	103.792	19.945	-4.201	0.527
962.001	567.552	80.013	19.993	103.787	19.946	-4.254	0.530
964.000	568.548	80.013	19.994	103.798	19.946	-4.231	0.511
966.000	569.606	80.012	19.991	103.792	19.944	-4.099	0.521
968.000	570.679	80.012	19.994	103.788	19.946	-4.244	0.543
970.000	571.723	80.007	19.990	103.785	19.948	-4.411	0.557
972.000	572.772	80.011	19.990	103.786	19.946	-4.288	0.524
974.000	573.779	80.009	19.990	103.790	19.944	-4.126	0.525
976.000	574.859	80.013	19.991	103.790	19.944	-4.112	0.514
978.000	575.915	80.012	19.989	103.792	19.947	-4.364	0.541
980.000	576.904	80.008	19.995	103.793	19.949	-4.483	0.506
982.000	577.972	80.012	19.997	103.788	19.947	-4.344	0.548
984.000	578.963	80.012	19.992	103.774	19.944	-4.153	0.516
986.000	579.968	80.016	19.992	103.776	19.947	-4.326	0.508
988.000	581.000	80.012	19.991	103.792	19.946	-4.255	0.482
990.000	582.037	80.011	19.996	103.790	19.946	-4.254	0.514
992.000	583.138	80.012	19.997	103.785	19.943	-4.047	0.546
994.000	584.134	80.015	19.994	103.788	19.944	-4.115	0.519
996.000	585.238	80.015	19.994	103.788	19.948	-4.399	0.569
998.000	586.239	80.014	19.992	103.785	19.944	-4.148	0.503
1000.000	587.253	80.014	19.994	103.787	19.949	-4.452	0.520
1002.000	588.318	80.013	19.992	103.784	19.949	-4.469	0.563
1004.000	589.338	80.014	19.996	103.787	19.952	-4.688	0.510
1006.000	590.379	80.018	19.993	103.786	19.949	-4.496	0.523
1008.000	591.426	80.012	19.994	103.785	19.951	-4.626	0.534
1010.000	592.389	80.016	19.994	103.786	19.949	-4.486	0.491
1012.000	593.435	80.012	19.995	103.774	19.951	-4.645	0.496
1014.000	594.527	80.018	19.994	103.762	19.948	-4.409	0.511
1016.000	595.538	80.013	19.995	103.775	19.950	-4.511	0.510
1018.000	596.510	80.015	19.996	103.783	19.948	-4.394	0.459
1020.001	597.560	80.014	19.994	103.780	19.950	-4.535	0.504
1022.000	598.555	80.021	19.989	103.785	19.949	-4.471	0.518
1024.000	599.536	80.011	19.990	103.789	19.947	-4.335	0.488
1026.001	600.556	80.011	19.995	103.793	19.953	-4.748	0.518
1028.000	601.525	80.012	19.998	103.790	19.952	-4.687	0.466
1030.000	602.558	80.012	19.993	103.785	19.950	-4.568	0.520
1032.000	603.592	80.009	19.995	103.782	19.957	-5.060	0.523
1034.000	604.580	80.014	19.994	103.788	19.952	-4.672	0.504
1036.000	605.610	80.012	19.991	103.786	19.957	-5.018	0.511
1038.001	606.602	80.014	19.995	103.789	19.953	-4.727	0.509
1040.000	607.597	80.009	19.994	103.788	19.951	-4.607	0.518
1042.000	608.621	80.012	19.992	103.789	19.950	-4.526	0.541
1044.000	609.619	80.012	19.995	103.785	19.949	-4.469	0.506
1046.000	610.633	80.011	19.998	103.783	19.953	-4.763	0.521
1048.000	611.699	80.016	19.989	103.780	19.948	-4.373	0.545
1050.000	612.692	80.016	19.994	103.791	19.955	-4.924	0.495
1052.001	613.695	80.011	19.993	103.774	19.954	-4.797	0.498
1054.000	614.718	80.010	19.993	103.774	19.953	-4.739	0.491
1056.000	615.760	80.010	19.997	103.785	19.953	-4.734	0.529
1058.000	616.745	80.012	19.995	103.788	19.955	-4.884	0.482
1060.000	617.767	80.015	19.995	103.788	19.953	-4.770	0.516
1062.000	618.762	80.012	19.994	103.791	19.954	-4.811	0.517
1064.000	619.797	80.016	19.993	103.775	19.955	-4.917	0.508
1066.000	620.776	80.015	19.995	103.772	19.953	-4.751	0.472
1068.000	621.794	80.012	19.995	103.789	19.958	-5.131	0.508
1070.000	622.795	80.012	20.000	103.787	19.955	-4.920	0.514
1072.001	623.815	80.012	19.997	103.775	19.955	-4.906	0.498
1074.000	624.865	80.014	19.996	103.771	19.954	-4.838	0.509
1076.001	625.876	80.007	19.994	103.772	19.955	-4.923	0.548
1078.001	626.872	80.015	19.992	103.780	19.954	-4.791	0.494
1080.000	627.914	80.015	19.994	103.786	19.958	-5.090	0.505
1082.001	628.961	80.014	19.993	103.784	19.955	-4.916	0.515
1084.001	629.988	80.014	19.989	103.786	19.957	-5.046	0.507
1086.000	630.986	80.012	19.992	103.790	19.954	-4.818	0.489
1088.000	632.013	80.012	19.993	103.788	19.953	-4.729	0.520
1090.001	633.060	80.012	19.990	103.787	19.956	-4.978	0.541
1092.000	634.088	80.011	19.993	103.790	19.955	-4.902	0.486
1094.000	635.109	80.013	19.992	103.785	19.954	-4.821	0.532
1096.000	636.179	80.014	19.993	103.789	19.958	-5.105	0.548
1098.001	637.240	80.015	19.991	103.785	19.955	-4.888	0.515
1100.000	638.237	80.013	19.993	103.788	19.956	-4.980	0.513
1102.000	639.271	80.014	19.992	103.785	19.954	-4.821	0.512
1104.001	640.340	80.011	19.992	103.780	19.952	-4.668	0.502
1106.000	641.385	80.009	19.994	103.781	19.957	-5.061	0.549
1108.000	642.467	80.011	19.994	103.789	19.957	-5.062	0.529
1110.000	643.475	80.012	19.992	103.782	19.958	-5.126	0.502
1112.000	644.514	80.006	19.995	103.784	19.961	-5.323	0.509
1114.000	645.513	80.013	19.994	103.789	19.960	-5.256	0.509
1116.001	646.504	80.008	20.004	103.783	19.960	-5.221	0.519
1118.000	647.578	80.011	19.987	103.782	19.961	-5.328	0.502
1120.001	648.601	80.009	19.996	103.790	19.959	-5.179	0.517
1122.001	649.638	80.015	19.994	103.787	19.963	-5.455	0.529
1124.000	650.696	80.017	19.993	103.785	19.962	-5.359	0.524
1126.000	651.756	80.012	19.995	103.786	19.963	-5.415	0.535
1128.000	652.759	80.013	19.992	103.787	19.968	-5.821	0.537
1130.000	653.794	80.013	19.996	103.786	19.962	-5.355	0.508
1132.000	654.859	80.010	19.995	103.781	19.962	-5.353	0.520
1134.000	655.883	80.011	19.992	103.781	19.959	-5.145	0.517
1136.000	656.922	80.015	19.994	103.785	19.959	-5.186	0.517
1138.000	657.990	80.011	19.995	103.774	19.957	-5.046	0.521
1140.001	659.003	80.012	19.996	103.780	19.961	-5.294	0.516
1142.000	660.075	80.009	19.999	103.781	19.959	-5.195	0.528
1144.000	661.129	80.011	19.995	103.782	19.960	-5.239	0.530
1146.000	662.151	80.014	19.995	103.786	19.960	-5.235	0.531
1148.000	663.228	80.013	19.994	103.784	19.959	-5.173	0.522
1150.000	664.263	80.014	19.994	103.788	19.959	-5.143	0.529
1152.001	665.300	80.012	19.993	103.783	19.959	-5.135	0.526
1154.001	666.371	80.014	19.991	103.780	19.961	-5.305	0.561
1156.001	667.395	80.015	19.992	103.783	19.960	-5.259	0.523
1158.000	668.454	80.013	19.991	103.784	19.961	-5.311	0.515
1160.001	669.494	80.015	19.993	103.782	19.958	-5.097	0.512
1162.000	670.518	80.016	19.989	103.780	19.960	-5.267	0.522
1164.000	671.544	80.016	19.992	103.785	19.959	-5.138	0.492
1166.001	672.559	80.013	19.991	103.767	19.959	-5.203	0.519
1168.000	673.631	80.014	19.992	103.772	19.963	-5.418	0.514
1170.000	674.609	80.012	19.993	103.782	19.957	-5.014	0.516
1172.000	675.647	80.015	19.992	103.773	19.956	-4.978	0.506
1174.001	676.645	80.011	19.994	103.771	19.958	-5.125	0.511
1176.000	677.700	80.016	19.994	103.767	19.960	-5.265	0.518
1178.001	678.642	80.016	19.994	103.779	19.962	-5.352	0.478
1180.000	679.744	80.005	19.989	103.761	19.961	-5.333	0.519
1182.000	680.774	80.015	19.996	103.780	19.963	-5.474	0.528
1184.001	681.704	80.018	19.996	103.770	19.964	-5.535	0.510
1186.000	682.755	80.015	19.992	103.759	19.964	-5.537	0.494
1188.000	683.729	80.012	19.991	103.768	19.963	-5.453	0.488
1190.001	684.770	80.010	20.000	103.763	19.964	-5.540	0.511
1192.000	685.819	80.013	19.994	103.758	19.962	-5.351	0.533
1194.000	686.796	80.012	19.995	103.755	19.961	-5.308	0.473
1196.001	687.822	80.011	19.994	103.764	19.962	-5.380	0.475
1198.000	688.827	80.014	19.995	103.764	19.963	-5.454	0.491
1200.001	689.893	80.013	19.993	103.776	19.964	-5.520	0.524
1202.000	690.895	80.012	19.996	103.761	19.959	-5.187	0.504
1204.001	691.903	80.011	19.997	103.754	19.957	-5.034	0.498
1206.000	692.904	80.012	19.996	103.763	19.964	-5.539	0.510
1208.000	693.951	80.009	19.989	103.765	19.962	-5.407	0.546
1210.001	694.990	80.012	19.997	103.755	19.965	-5.579	0.525
1212.000	695.988	80.012	19.994	103.757	19.966	-5.638	0.522
1214.000	696.980	80.014	19.996	103.758	19.964	-5.537	0.487
1216.000	697.962	80.017	19.990	103.757	19.967	-5.712	0.486
1218.000	698.984	80.014	19.994	103.770	19.964	-5.543	0.497
1220.001	699.987	80.013	19.996	103.769	19.963	-5.469	0.506
1222.000	700.971	80.013	19.995	103.771	19.965	-5.611	0.488
1224.001	701.953	80.012	19.994	103.757	19.967	-5.732	0.482
1226.000	702.933	80.014	19.995	103.765	19.964	-5.507	0.501
1228.000	703.936	80.012	19.994	103.768	19.963	-5.462	0.502
1230.000	704.942	80.013	19.993	103.763	19.958	-5.104	0.513
1232.000	705.920	80.015	19.989	103.764	19.960	-5.242	0.495
1234.000	706.932	80.010	19.993	103.756	19.961	-5.333	0.522
1236.001	707.898	80.012	19.994	103.760	19.960	-5.248	0.532
1238.001	708.898	80.017	19.993	103.772	19.962	-5.399	0.494
1240.000	709.827	80.016	19.991	103.774	19.961	-5.325	0.465
1242.000	710.797	80.013	19.997	103.769	19.958	-5.130	0.487
1244.000	711.814	80.010	19.996	103.763	19.961	-5.303	0.493
1246.000	712.804	80.013	19.994	103.768	19.961	-5.340	0.479
1248.000	713.845	80.014	19.994	103.778	19.961	-5.300	0.493
1250.000	714.836	80.014	19.995	103.765	19.962	-5.377	0.495
1252.001	715.898	80.010	19.994	103.757	19.963	-5.461	0.534
1254.000	716.894	80.017	19.992	103.764	19.962	-5.385	0.531
1256.000	717.882	80.010	19.991	103.763	19.961	-5.276	0.474
1258.001	718.921	80.013	19.992	103.761	19.960	-5.256	0.501
1260.000	719.930	80.015	19.994	103.766	19.960	-5.214	0.486
1262.000	720.933	80.016	19.994	103.767	19.960	-5.229	0.513
1264.001	721.937	80.009	19.992	103.755	19.959	-5.162	0.505
1266.001	722.958	80.010	19.995	103.759	19.959	-5.185	0.503
1268.001	723.962	80.013	19.993	103.775	19.961	-5.318	0.515
1270.000	724.978	80.016	19.997	103.759	19.961	-5.314	0.492
1272.001	726.000	80.013	19.991	103.771	19.959	-5.179	0.521
1274.000	726.975	80.011	19.992	103.760	19.961	-5.297	0.486
1276.000	728.026	80.018	19.993	103.752	19.957	-5.030	0.516
1278.001	729.072	80.012	19.991	103.757	19.956	-4.989	0.530
1280.001	730.071	80.014	19.993	103.768	19.962	-5.348	0.512
1282.000	731.094	80.018	19.994	103.757	19.957	-5.034	0.503
1284.000	732.110	80.010	19.992	103.768	19.956	-4.980	0.489
1286.000	733.127	80.014	19.995	103.764	19.959	-5.142	0.489
1288.000	734.156	80.011	19.990	103.774	19.959	-5.187	0.541
1290.000	735.133	80.014	19.995	103.777	19.958	-5.121	0.523
1292.001	736.135	80.012	19.993	103.766	19.958	-5.130	0.521
1294.000	737.212	80.018	19.991	103.766	19.956	-4.981	0.543
1296.000	738.216	80.012	19.996	103.778	19.960	-5.232	0.516
1298.000	739.218	80.010	19.995	103.771	19.955	-4.886	0.490
1300.000	740.269	80.009	19.996	103.767	19.959	-5.198	0.485
1302.001	741.308	80.010	19.994	103.761	19.957	-5.060	0.510
1304.000	742.265	80.013	19.997	103.754	19.960	-5.238	0.506
1306.000	743.285	80.013	19.996	103.750	19.956	-4.928	0.518
1307.000	743.777	80.012	19.993	103.756	19.958	-5.117	0.515