File: 01_Data/Wood_Veneer_MDF/MCC/Wood_Veneer_MDF_MCC_30K_min_220315_R1.txt
Sample ID:	C:\MCC\MCC Cal\Test\Wood_Veneer_MDF_MCC_30K_min_220315_R1.txt
Sample Weight (mg):	4.43
Heating Rate (C/s):	0.5
Combustor Temp (C):	900
N2 Flow Rate (cc/min):	80
O2 Flow Rate (cc/min):	20
Calibration File:	C:\MCC\MCC Cal\Coeff1 JN10440_30_210304.txt.txt
T Correction Coefficients:	0	1.024463	0
Time Shift (s):	14
*
Time (s)	Temperature (C)	N2 flow rate (cc/min)	O2 flow rate (cc/min)	Flow Rate (cc/min)	Oxygen (%)	HRR (W/g)	Heating rate (C/s)
0.000	108.771	80.015	19.994	103.855	19.959	-0.121	0.026
2.000	108.731	80.015	19.995	103.859	19.955	0.159	-0.022
3.999	108.728	80.015	19.994	103.858	19.959	-0.098	-0.017
5.999	108.722	80.015	19.994	103.862	19.950	0.530	-0.011
7.999	108.734	80.015	19.993	103.882	19.950	0.566	0.036
10.000	108.727	80.015	19.994	103.876	19.951	0.448	-0.019
11.999	108.726	80.014	19.994	103.894	19.946	0.833	-0.013
14.000	108.731	80.013	19.993	103.905	19.949	0.624	-0.004
15.999	108.796	80.013	19.994	103.932	19.944	0.979	0.027
17.999	108.839	80.013	19.993	103.943	19.942	1.118	0.039
19.999	108.896	80.014	19.993	103.950	19.939	1.352	0.058
22.000	109.004	80.012	19.992	104.005	19.932	1.836	0.081
23.999	109.150	80.013	19.993	103.981	19.930	1.998	0.077
25.999	109.323	80.012	19.993	104.000	19.928	2.125	0.084
27.999	109.514	80.014	19.992	104.018	19.927	2.190	0.089
29.999	109.711	80.014	19.993	104.030	19.923	2.534	0.061
31.999	109.938	80.014	19.993	104.038	19.924	2.467	0.127
33.999	110.202	80.013	19.993	104.029	19.924	2.421	0.126
36.000	110.534	80.013	19.993	104.038	19.918	2.860	0.164
37.999	110.735	80.013	19.994	104.040	19.921	2.686	0.093
40.000	111.089	80.014	19.993	104.039	19.916	3.052	0.132
42.001	111.466	80.013	19.993	104.043	19.918	2.908	0.165
43.999	111.785	80.014	19.993	104.055	19.919	2.785	0.163
45.999	112.203	80.014	19.993	104.058	19.915	3.142	0.250
48.000	112.626	80.012	19.992	104.064	19.916	3.028	0.271
49.999	113.082	80.013	19.993	104.061	19.915	3.090	0.264
51.999	113.479	80.012	19.993	104.076	19.914	3.216	0.240
53.999	113.956	80.013	19.993	104.084	19.914	3.187	0.239
55.999	114.490	80.014	19.994	104.099	19.912	3.328	0.250
57.999	114.978	80.014	19.994	104.092	19.910	3.496	0.244
60.001	115.506	80.015	19.995	104.100	19.908	3.632	0.239
61.999	116.108	80.015	19.994	104.100	19.912	3.316	0.312
63.999	116.730	80.015	19.993	104.108	19.910	3.503	0.293
65.999	117.306	80.016	19.994	104.103	19.911	3.432	0.283
67.999	117.903	80.014	19.993	104.096	19.909	3.541	0.331
69.999	118.572	80.015	19.993	104.111	19.906	3.757	0.325
71.999	119.290	80.015	19.994	104.104	19.910	3.483	0.358
73.999	119.950	80.015	19.993	104.096	19.912	3.324	0.370
75.999	120.661	80.015	19.994	104.095	19.909	3.522	0.365
77.999	121.381	80.014	19.994	104.098	19.908	3.647	0.371
79.999	122.124	80.015	19.994	104.100	19.912	3.336	0.387
81.999	122.886	80.015	19.994	104.098	19.910	3.504	0.380
83.999	123.680	80.015	19.994	104.100	19.910	3.504	0.395
85.999	124.412	80.017	19.993	104.112	19.913	3.253	0.384
87.999	125.218	80.017	19.993	104.105	19.908	3.632	0.425
89.999	126.008	80.015	19.993	104.104	19.909	3.568	0.383
91.999	126.815	80.017	19.994	104.110	19.907	3.668	0.403
93.999	127.619	80.016	19.994	104.114	19.908	3.648	0.393
95.999	128.450	80.016	19.994	104.111	19.909	3.580	0.400
97.999	129.347	80.013	19.996	104.120	19.907	3.658	0.411
99.999	130.219	80.012	19.994	104.126	19.909	3.550	0.466
101.999	131.062	80.013	19.994	104.121	19.911	3.382	0.449
104.000	131.961	80.013	19.995	104.110	19.909	3.514	0.439
106.000	132.873	80.014	19.995	104.114	19.906	3.733	0.428
107.999	133.756	80.013	19.994	104.125	19.908	3.645	0.467
110.000	134.669	80.013	19.994	104.107	19.909	3.523	0.472
111.999	135.609	80.014	19.993	104.102	19.910	3.458	0.464
113.999	136.526	80.013	19.993	104.110	19.904	3.948	0.479
115.999	137.481	80.013	19.992	104.115	19.909	3.533	0.491
117.999	138.400	80.014	19.993	104.101	19.911	3.392	0.460
119.999	139.348	80.013	19.993	104.101	19.908	3.653	0.463
121.999	140.291	80.014	19.993	104.100	19.909	3.513	0.437
123.999	141.281	80.014	19.993	104.102	19.912	3.316	0.475
125.999	142.254	80.013	19.993	104.099	19.907	3.681	0.505
127.999	143.275	80.013	19.993	104.100	19.909	3.515	0.496
130.000	144.285	80.015	19.994	104.099	19.912	3.338	0.494
132.000	145.273	80.013	19.994	104.101	19.909	3.531	0.512
134.000	146.219	80.013	19.993	104.101	19.909	3.531	0.512
136.000	147.181	80.012	19.994	104.099	19.912	3.350	0.451
138.000	148.219	80.012	19.993	104.097	19.907	3.721	0.507
140.000	149.232	80.013	19.993	104.097	19.909	3.543	0.528
142.000	150.293	80.014	19.994	104.097	19.907	3.671	0.548
144.000	151.254	80.015	19.993	104.097	19.912	3.309	0.524
146.000	152.212	80.015	19.994	104.097	19.913	3.254	0.505
148.000	153.212	80.015	19.993	104.095	19.915	3.090	0.473
150.000	154.196	80.014	19.993	104.095	19.913	3.234	0.459
152.000	155.222	80.017	19.992	104.095	19.914	3.210	0.490
154.000	156.217	80.014	19.993	104.081	19.913	3.245	0.530
156.000	157.280	80.015	19.994	104.091	19.910	3.459	0.498
158.000	158.274	80.015	19.993	104.090	19.912	3.322	0.514
160.000	159.260	80.014	19.993	104.091	19.912	3.329	0.481
162.000	160.331	80.014	19.993	104.089	19.910	3.437	0.514
164.000	161.338	80.015	19.994	104.081	19.911	3.377	0.557
166.000	162.307	80.014	19.994	104.079	19.915	3.104	0.474
168.000	163.296	80.014	19.993	104.091	19.914	3.156	0.494
170.000	164.355	80.016	19.994	104.094	19.913	3.249	0.510
172.000	165.368	80.015	19.993	104.084	19.911	3.377	0.514
174.000	166.363	80.015	19.993	104.075	19.911	3.400	0.495
176.000	167.384	80.016	19.994	104.067	19.910	3.478	0.511
178.000	168.339	80.015	19.993	104.075	19.911	3.387	0.470
180.000	169.342	80.015	19.994	104.074	19.912	3.301	0.485
182.000	170.347	80.014	19.993	104.080	19.907	3.682	0.494
184.000	171.375	80.013	19.993	104.067	19.905	3.814	0.505
186.000	172.318	80.013	19.995	104.064	19.905	3.805	0.477
188.000	173.365	80.012	19.994	104.066	19.906	3.759	0.490
190.000	174.335	80.012	19.993	104.068	19.904	3.895	0.482
192.000	175.338	80.012	19.994	104.075	19.902	4.078	0.517
194.000	176.327	80.013	19.994	104.071	19.904	3.925	0.506
196.000	177.270	80.014	19.995	104.066	19.902	4.023	0.471
198.000	178.281	80.013	19.994	104.060	19.903	4.013	0.518
200.000	179.289	80.013	19.995	104.061	19.901	4.158	0.498
202.000	180.277	80.014	19.994	104.059	19.898	4.358	0.500
204.000	181.286	80.012	19.995	104.066	19.896	4.488	0.482
206.000	182.224	80.013	19.994	104.072	19.896	4.529	0.505
208.000	183.243	80.014	19.994	104.073	19.896	4.471	0.487
210.000	184.233	80.014	19.994	104.068	19.890	4.952	0.506
212.000	185.189	80.013	19.994	104.062	19.888	5.074	0.465
214.000	186.234	80.013	19.994	104.066	19.888	5.090	0.524
216.000	187.191	80.015	19.993	104.059	19.885	5.282	0.479
218.000	188.159	80.013	19.993	104.059	19.884	5.361	0.456
220.000	189.179	80.013	19.993	104.064	19.884	5.345	0.523
222.000	190.129	80.013	19.994	104.068	19.884	5.341	0.498
224.000	191.132	80.015	19.993	104.060	19.882	5.532	0.512
226.000	192.075	80.015	19.994	104.065	19.875	6.053	0.475
228.000	193.060	80.015	19.994	104.074	19.879	5.744	0.501
230.000	194.067	80.015	19.993	104.062	19.878	5.849	0.497
232.000	194.995	80.014	19.994	104.060	19.874	6.119	0.479
234.000	196.016	80.016	19.993	104.063	19.873	6.163	0.506
236.000	197.044	80.015	19.992	104.063	19.869	6.466	0.500
238.000	197.992	80.015	19.994	104.060	19.866	6.687	0.456
240.000	198.940	80.015	19.993	104.059	19.863	6.893	0.463
242.000	199.968	80.014	19.994	104.059	19.861	7.066	0.491
244.000	200.929	80.015	19.993	104.061	19.863	6.929	0.482
246.000	201.903	80.017	19.993	104.067	19.860	7.148	0.486
248.000	202.898	80.015	19.994	104.063	19.860	7.118	0.477
250.000	203.911	80.015	19.993	104.073	19.863	6.916	0.502
252.000	204.874	80.015	19.993	104.062	19.859	7.198	0.468
254.000	205.889	80.016	19.993	104.066	19.857	7.367	0.516
256.000	206.833	80.017	19.992	104.064	19.857	7.377	0.494
258.000	207.878	80.016	19.993	104.060	19.857	7.363	0.509
260.000	208.852	80.016	19.992	104.059	19.849	7.965	0.485
262.000	209.845	80.017	19.993	104.058	19.851	7.824	0.530
264.000	210.805	80.015	19.994	104.057	19.852	7.714	0.488
266.000	211.809	80.016	19.994	104.056	19.850	7.865	0.498
268.000	212.821	80.014	19.994	104.055	19.851	7.768	0.502
270.000	213.844	80.015	19.995	104.056	19.848	8.017	0.501
272.000	214.825	80.014	19.995	104.056	19.847	8.119	0.484
274.000	215.828	80.013	19.995	104.055	19.846	8.192	0.499
276.000	216.812	80.014	19.994	104.056	19.847	8.093	0.500
278.000	217.841	80.013	19.994	104.057	19.849	7.945	0.511
280.000	218.781	80.015	19.993	104.057	19.846	8.179	0.481
282.000	219.809	80.015	19.994	104.057	19.846	8.137	0.493
284.000	220.808	80.014	19.994	104.055	19.847	8.103	0.514
286.000	221.791	80.015	19.996	104.058	19.846	8.155	0.501
288.000	222.759	80.014	19.995	104.062	19.845	8.213	0.521
290.000	223.768	80.014	19.995	104.056	19.846	8.171	0.492
292.000	224.753	80.014	19.995	104.056	19.844	8.315	0.493
294.000	225.793	80.013	19.995	104.056	19.842	8.448	0.501
296.000	226.762	80.014	19.994	104.056	19.841	8.516	0.509
298.000	227.783	80.013	19.995	104.056	19.843	8.418	0.543
300.000	228.780	80.013	19.995	104.057	19.839	8.680	0.483
302.000	229.756	80.014	19.994	104.059	19.838	8.771	0.471
304.000	230.807	80.013	19.994	104.058	19.836	8.889	0.530
306.000	231.810	80.012	19.994	104.054	19.837	8.849	0.497
308.000	232.786	80.014	19.994	104.059	19.837	8.845	0.506
310.000	233.751	80.014	19.993	104.060	19.836	8.913	0.475
312.000	234.782	80.015	19.993	104.061	19.833	9.125	0.514
314.000	235.759	80.015	19.993	104.061	19.836	8.859	0.492
316.000	236.742	80.016	19.993	104.059	19.835	8.943	0.489
318.000	237.749	80.015	19.995	104.063	19.830	9.346	0.473
320.000	238.792	80.014	19.993	104.062	19.828	9.445	0.517
322.000	239.763	80.016	19.993	104.063	19.826	9.605	0.530
324.000	240.732	80.015	19.993	104.063	19.822	9.894	0.494
326.000	241.754	80.017	19.994	104.067	19.819	10.125	0.488
328.000	242.761	80.015	19.992	104.062	19.820	10.045	0.504
330.000	243.758	80.018	19.993	104.058	19.817	10.282	0.478
332.000	244.730	80.015	19.994	104.059	19.811	10.700	0.505
334.000	245.748	80.015	19.993	104.074	19.811	10.764	0.513
336.000	246.752	80.015	19.993	104.081	19.806	11.123	0.514
338.000	247.707	80.016	19.993	104.067	19.805	11.140	0.495
340.000	248.730	80.018	19.993	104.071	19.804	11.255	0.533
342.000	249.689	80.018	19.993	104.075	19.801	11.480	0.491
344.000	250.769	80.018	19.993	104.091	19.796	11.850	0.535
346.000	251.737	80.017	19.993	104.081	19.793	12.052	0.459
348.000	252.696	80.015	19.992	104.090	19.795	11.928	0.489
350.000	253.731	80.015	19.993	104.090	19.785	12.658	0.497
352.000	254.675	80.015	19.994	104.074	19.786	12.583	0.474
354.000	255.696	80.015	19.993	104.087	19.781	12.909	0.492
356.000	256.646	80.014	19.994	104.086	19.776	13.295	0.463
358.000	257.684	80.014	19.994	104.082	19.775	13.391	0.511
360.000	258.687	80.013	19.995	104.092	19.770	13.738	0.525
362.000	259.714	80.015	19.994	104.089	19.765	14.105	0.496
364.000	260.641	80.013	19.994	104.096	19.762	14.344	0.471
366.000	261.681	80.014	19.994	104.083	19.757	14.697	0.502
368.000	262.682	80.016	19.994	104.094	19.752	15.077	0.532
370.000	263.614	80.014	19.994	104.095	19.749	15.292	0.513
372.000	264.598	80.016	19.994	104.095	19.745	15.558	0.486
374.000	265.564	80.014	19.994	104.095	19.739	16.013	0.477
376.000	266.569	80.016	19.993	104.092	19.736	16.246	0.452
378.000	267.530	80.013	19.994	104.098	19.729	16.760	0.497
380.000	268.490	80.012	19.994	104.096	19.725	17.023	0.511
382.000	269.458	80.011	19.994	104.098	19.719	17.444	0.468
384.000	270.433	80.013	19.993	104.099	19.713	17.943	0.479
386.000	271.419	80.015	19.993	104.099	19.709	18.231	0.502
388.000	272.364	80.012	19.995	104.104	19.701	18.834	0.470
390.000	273.345	80.013	19.993	104.106	19.698	18.990	0.476
392.000	274.275	80.014	19.995	104.100	19.692	19.487	0.476
394.000	275.221	80.013	19.994	104.101	19.685	19.956	0.492
396.000	276.162	80.013	19.995	104.103	19.682	20.221	0.457
398.000	277.082	80.033	19.999	104.100	19.675	20.680	0.443
400.000	278.059	80.034	19.996	104.115	19.667	21.291	0.495
402.000	279.033	80.015	19.994	104.119	19.664	21.530	0.504
404.000	279.958	80.016	19.995	104.110	19.657	22.004	0.488
406.000	280.909	80.015	19.996	104.108	19.654	22.235	0.492
408.000	281.804	80.014	19.994	104.124	19.649	22.652	0.455
410.000	282.797	80.014	19.994	104.125	19.645	22.930	0.493
412.000	283.778	80.015	19.993	104.128	19.641	23.240	0.514
414.000	284.703	80.015	19.994	104.131	19.633	23.826	0.461
416.000	285.673	80.011	19.993	104.134	19.624	24.456	0.485
418.000	286.624	80.015	19.992	104.134	19.620	24.712	0.508
420.000	287.632	80.016	19.995	104.134	19.615	25.121	0.495
422.000	288.585	80.016	19.994	104.140	19.612	25.367	0.476
424.000	289.594	80.014	19.993	104.136	19.603	26.026	0.524
426.000	290.547	80.017	19.992	104.134	19.598	26.337	0.495
428.000	291.500	80.016	19.993	104.134	19.593	26.717	0.476
430.000	292.485	80.019	19.993	104.133	19.583	27.457	0.501
432.000	293.465	80.015	19.994	104.135	19.576	27.972	0.477
434.000	294.463	80.017	19.994	104.135	19.570	28.442	0.522
436.000	295.493	80.015	19.994	104.137	19.564	28.888	0.491
438.000	296.422	80.014	19.993	104.139	19.558	29.268	0.500
440.000	297.387	80.012	19.993	104.139	19.551	29.833	0.476
442.000	298.393	80.014	19.993	104.139	19.545	30.229	0.515
444.000	299.419	80.014	19.993	104.143	19.541	30.545	0.511
446.000	300.364	80.014	19.992	104.148	19.535	30.970	0.510
448.000	301.355	80.012	19.993	104.143	19.529	31.456	0.491
450.000	302.325	80.013	19.994	104.141	19.523	31.859	0.515
452.000	303.321	80.013	19.993	104.153	19.511	32.720	0.518
454.000	304.273	80.014	19.993	104.144	19.504	33.248	0.517
456.000	305.252	80.012	19.995	104.146	19.501	33.509	0.504
458.000	306.284	80.014	19.994	104.153	19.493	34.029	0.528
460.000	307.262	80.013	19.994	104.151	19.488	34.404	0.471
462.000	308.238	80.014	19.995	104.161	19.482	34.875	0.507
464.000	309.243	80.012	19.994	104.151	19.478	35.199	0.519
466.000	310.191	80.013	19.995	104.154	19.467	35.958	0.488
468.000	311.219	80.012	19.995	104.156	19.461	36.417	0.519
470.000	312.231	80.011	19.994	104.161	19.453	37.023	0.517
472.000	313.258	80.012	19.995	104.172	19.444	37.645	0.481
474.000	314.291	80.014	19.995	104.173	19.434	38.413	0.525
476.000	315.298	80.014	19.995	104.174	19.426	38.970	0.515
478.000	316.313	80.015	19.995	104.174	19.419	39.489	0.507
480.000	317.341	80.015	19.994	104.176	19.411	40.066	0.532
482.000	318.336	80.014	19.993	104.178	19.400	40.873	0.507
484.000	319.384	80.014	19.994	104.186	19.392	41.487	0.527
486.000	320.419	80.015	19.994	104.181	19.382	42.250	0.524
488.000	321.439	80.016	19.993	104.181	19.373	42.886	0.526
490.000	322.449	80.016	19.994	104.193	19.362	43.721	0.510
492.000	323.499	80.015	19.995	104.208	19.350	44.552	0.530
494.000	324.537	80.014	19.995	104.210	19.340	45.320	0.519
496.000	325.516	80.013	19.994	104.211	19.326	46.355	0.484
498.000	326.586	80.013	19.994	104.211	19.315	47.152	0.529
500.000	327.575	80.013	19.995	104.214	19.304	48.003	0.498
502.000	328.636	80.014	19.995	104.217	19.292	48.828	0.493
504.000	329.661	80.015	19.994	104.231	19.278	49.892	0.498
506.000	330.701	80.015	19.994	104.232	19.262	51.067	0.491
508.000	331.679	80.017	19.993	104.237	19.249	52.041	0.464
510.000	332.703	80.017	19.993	104.249	19.231	53.339	0.526
512.000	333.734	80.017	19.993	104.252	19.219	54.201	0.531
514.000	334.765	80.017	19.992	104.245	19.207	55.074	0.523
516.000	335.805	80.016	19.993	104.252	19.194	56.100	0.513
518.000	336.746	80.015	19.993	104.253	19.178	57.227	0.497
520.000	337.738	80.014	19.994	104.253	19.165	58.227	0.491
522.000	338.770	80.015	19.993	104.256	19.153	59.102	0.505
524.000	339.715	80.014	19.994	104.256	19.138	60.183	0.465
526.000	340.753	80.015	19.994	104.267	19.127	61.016	0.497
528.000	341.736	80.014	19.993	104.288	19.118	61.641	0.509
530.000	342.728	80.016	19.993	104.289	19.104	62.694	0.506
532.000	343.701	80.014	19.994	104.288	19.096	63.255	0.489
534.000	344.665	80.015	19.994	104.290	19.084	64.163	0.488
536.000	345.696	80.015	19.994	104.288	19.075	64.792	0.517
538.000	346.701	80.015	19.994	104.287	19.068	65.276	0.483
540.000	347.716	80.015	19.994	104.288	19.064	65.620	0.498
542.000	348.739	80.017	19.993	104.290	19.062	65.731	0.497
544.000	349.757	80.017	19.993	104.284	19.058	66.047	0.498
546.000	350.785	80.015	19.993	104.282	19.058	66.009	0.513
548.000	351.782	80.013	19.993	104.268	19.057	66.079	0.531
550.000	352.856	80.014	19.993	104.254	19.063	65.596	0.511
552.000	353.877	80.014	19.994	104.248	19.078	64.525	0.512
554.000	354.908	80.015	19.993	104.231	19.091	63.569	0.503
556.000	355.900	80.014	19.994	104.223	19.108	62.321	0.494
558.000	356.931	80.015	19.994	104.212	19.127	60.918	0.506
560.000	357.957	80.014	19.994	104.187	19.151	59.153	0.500
562.000	358.984	80.014	19.993	104.173	19.178	57.113	0.521
564.000	359.991	80.015	19.994	104.156	19.215	54.419	0.508
566.000	361.043	80.014	19.994	104.134	19.251	51.766	0.522
568.000	362.043	80.015	19.994	104.118	19.287	49.113	0.489
570.000	363.069	80.016	19.994	104.100	19.329	46.039	0.564
572.000	364.098	80.015	19.993	104.086	19.372	42.907	0.522
574.000	365.097	80.014	19.993	104.061	19.412	39.940	0.521
576.000	366.141	80.016	19.994	104.053	19.454	36.839	0.515
578.000	367.157	80.015	19.994	104.037	19.499	33.582	0.501
580.000	368.190	80.015	19.995	104.020	19.540	30.567	0.510
582.000	369.207	80.015	19.994	104.010	19.572	28.226	0.534
584.000	370.230	80.014	19.994	104.008	19.614	25.155	0.508
586.000	371.225	80.014	19.994	104.001	19.649	22.594	0.512
588.000	372.229	80.015	19.993	103.998	19.683	20.124	0.486
590.000	373.267	80.015	19.994	103.983	19.708	18.297	0.502
592.000	374.299	80.016	19.995	103.979	19.729	16.697	0.546
594.000	375.319	80.018	19.994	103.978	19.748	15.318	0.495
596.000	376.344	80.016	19.994	103.978	19.764	14.137	0.499
598.000	377.352	80.017	19.995	103.972	19.782	12.871	0.528
600.000	378.371	80.016	19.994	103.972	19.791	12.152	0.514
602.000	379.388	80.015	19.994	103.971	19.799	11.612	0.497
604.000	380.413	80.015	19.994	103.975	19.811	10.723	0.503
606.000	381.385	80.014	19.995	103.977	19.819	10.121	0.475
608.000	382.407	80.013	19.994	103.977	19.826	9.633	0.514
610.000	383.408	80.014	19.994	103.979	19.827	9.554	0.519
612.000	384.374	80.015	19.994	103.977	19.839	8.701	0.465
614.000	385.399	80.015	19.993	103.979	19.838	8.712	0.518
616.000	386.366	80.014	19.994	103.976	19.837	8.796	0.484
618.000	387.396	80.016	19.994	103.981	19.847	8.111	0.513
620.000	388.399	80.015	19.994	103.979	19.846	8.136	0.505
622.000	389.419	80.015	19.995	103.980	19.849	7.924	0.515
624.000	390.416	80.015	19.994	103.975	19.853	7.640	0.521
626.000	391.437	80.015	19.994	103.976	19.858	7.300	0.537
628.000	392.449	80.015	19.994	103.980	19.857	7.383	0.521
630.000	393.485	80.016	19.993	103.980	19.855	7.486	0.541
632.000	394.516	80.015	19.994	103.967	19.855	7.525	0.525
634.000	395.515	80.016	19.993	103.971	19.862	6.997	0.487
636.000	396.566	80.015	19.993	103.974	19.858	7.266	0.541
638.000	397.542	80.014	19.993	103.974	19.864	6.809	0.487
640.000	398.592	80.014	19.994	103.963	19.865	6.781	0.501
642.000	399.629	80.013	19.994	103.979	19.867	6.588	0.498
644.000	400.612	80.014	19.993	103.979	19.867	6.635	0.490
646.000	401.586	80.014	19.995	103.981	19.868	6.530	0.482
648.000	402.688	80.016	19.994	103.981	19.868	6.566	0.535
650.000	403.639	80.015	19.993	103.974	19.870	6.363	0.462
652.000	404.646	80.017	19.993	103.966	19.872	6.217	0.494
654.000	405.671	80.016	19.993	103.970	19.874	6.115	0.517
656.000	406.734	80.016	19.994	103.962	19.875	6.052	0.534
658.000	407.731	80.015	19.992	103.974	19.875	6.004	0.512
660.000	408.740	80.015	19.993	103.964	19.878	5.798	0.509
662.000	409.742	80.016	19.995	103.979	19.876	5.959	0.497
664.000	410.800	80.015	19.995	103.967	19.875	6.033	0.527
666.000	411.823	80.015	19.994	103.972	19.880	5.670	0.530
668.000	412.873	80.016	19.994	103.973	19.879	5.760	0.522
670.000	413.844	80.016	19.994	103.969	19.882	5.489	0.466
672.000	414.833	80.016	19.994	103.960	19.880	5.681	0.525
674.000	415.877	80.017	19.994	103.957	19.881	5.572	0.528
676.000	416.854	80.016	19.993	103.949	19.884	5.393	0.503
678.000	417.880	80.016	19.992	103.953	19.884	5.385	0.521
680.000	418.870	80.017	19.993	103.953	19.881	5.578	0.518
682.000	419.878	80.017	19.994	103.945	19.885	5.282	0.488
684.000	420.951	80.015	19.994	103.941	19.884	5.353	0.541
686.000	421.931	80.015	19.994	103.942	19.886	5.254	0.504
688.000	422.903	80.013	19.994	103.948	19.885	5.326	0.489
690.000	423.919	80.014	19.994	103.942	19.889	4.988	0.492
692.000	424.925	80.014	19.995	103.950	19.891	4.857	0.521
694.000	425.888	80.014	19.995	103.954	19.888	5.085	0.483
696.000	426.924	80.011	19.994	103.949	19.891	4.838	0.504
698.000	427.915	80.012	19.994	103.964	19.890	4.933	0.523
700.000	428.954	80.014	19.995	103.957	19.893	4.704	0.538
702.000	429.973	80.014	19.994	103.948	19.892	4.761	0.530
704.000	431.017	80.015	19.993	103.956	19.895	4.576	0.497
706.000	432.034	80.015	19.994	103.961	19.893	4.680	0.495
708.000	433.071	80.015	19.994	103.971	19.897	4.417	0.519
710.000	434.161	80.015	19.994	103.951	19.899	4.256	0.544
712.000	435.186	80.014	19.994	103.950	19.897	4.397	0.541
714.000	436.251	80.014	19.994	103.948	19.900	4.215	0.553
716.000	437.273	80.014	19.994	103.945	19.898	4.315	0.538
718.000	438.283	80.013	19.993	103.946	19.902	4.028	0.498
720.000	439.336	80.013	19.994	103.947	19.899	4.261	0.498
722.000	440.388	80.013	19.994	103.958	19.903	4.006	0.508
724.000	441.423	80.013	19.994	103.947	19.903	3.986	0.516
726.000	442.463	80.014	19.994	103.946	19.905	3.835	0.522
728.000	443.521	80.015	19.994	103.946	19.902	4.076	0.516
730.000	444.539	80.015	19.994	103.943	19.905	3.803	0.493
732.000	445.612	80.015	19.993	103.942	19.911	3.422	0.537
734.000	446.642	80.016	19.993	103.941	19.910	3.450	0.523
736.000	447.680	80.016	19.994	103.943	19.910	3.468	0.521
738.000	448.743	80.017	19.993	103.940	19.910	3.492	0.507
740.000	449.775	80.017	19.994	103.939	19.913	3.241	0.489
742.000	450.781	80.017	19.993	103.942	19.915	3.086	0.475
744.000	451.842	80.015	19.993	103.941	19.914	3.199	0.549
746.000	452.874	80.017	19.993	103.939	19.913	3.257	0.505
748.000	453.919	80.017	19.993	103.940	19.912	3.313	0.529
750.000	454.945	80.016	19.993	103.940	19.915	3.137	0.557
752.000	455.964	80.016	19.994	103.939	19.914	3.205	0.511
754.000	456.947	80.015	19.993	103.939	19.918	2.896	0.486
756.000	458.004	80.018	19.993	103.938	19.918	2.857	0.522
758.000	459.031	80.017	19.994	103.938	19.919	2.845	0.512
760.000	459.993	80.017	19.994	103.937	19.922	2.598	0.491
762.000	461.003	80.017	19.993	103.935	19.922	2.584	0.503
764.000	462.004	80.018	19.993	103.939	19.922	2.586	0.507
766.000	463.027	80.016	19.995	103.939	19.922	2.624	0.507
768.000	464.010	80.015	19.994	103.938	19.927	2.227	0.503
770.000	465.000	80.015	19.993	103.936	19.926	2.331	0.498
772.000	466.039	80.014	19.995	103.938	19.929	2.092	0.488
774.000	467.037	80.014	19.994	103.941	19.927	2.193	0.491
776.000	468.055	80.014	19.994	103.939	19.926	2.293	0.523
778.000	469.043	80.014	19.993	103.941	19.928	2.116	0.520
780.000	470.036	80.014	19.993	103.943	19.925	2.392	0.497
782.000	471.040	80.015	19.993	103.942	19.930	2.018	0.529
784.000	472.025	80.013	19.994	103.941	19.929	2.084	0.497
786.000	473.055	80.014	19.994	103.942	19.931	1.966	0.516
788.000	474.068	80.013	19.995	103.937	19.931	1.920	0.522
790.000	475.091	80.013	19.995	103.939	19.935	1.663	0.510
792.000	476.104	80.013	19.994	103.941	19.931	1.902	0.507
794.000	477.110	80.013	19.995	103.939	19.932	1.847	0.534
796.000	478.099	80.014	19.995	103.939	19.934	1.737	0.491
798.000	479.113	80.014	19.994	103.936	19.936	1.588	0.518
800.000	480.114	80.014	19.995	103.933	19.935	1.603	0.493
802.000	481.139	80.013	19.994	103.926	19.938	1.444	0.508
804.000	482.197	80.014	19.993	103.937	19.940	1.243	0.545
806.000	483.168	80.015	19.994	103.940	19.939	1.339	0.500
808.000	484.197	80.014	19.993	103.937	19.939	1.315	0.510
810.000	485.198	80.014	19.993	103.932	19.942	1.096	0.520
812.000	486.234	80.014	19.994	103.937	19.942	1.098	0.516
814.000	487.228	80.015	19.994	103.930	19.940	1.289	0.486
816.000	488.293	80.017	19.994	103.933	19.939	1.361	0.537
818.000	489.331	80.016	19.994	103.938	19.940	1.239	0.561
820.000	490.314	80.017	19.993	103.935	19.942	1.117	0.494
822.000	491.343	80.016	19.993	103.927	19.942	1.131	0.485
824.000	492.406	80.016	19.994	103.937	19.946	0.827	0.540
826.000	493.442	80.015	19.994	103.939	19.946	0.843	0.549
828.000	494.429	80.014	19.994	103.939	19.940	1.237	0.523
830.000	495.483	80.015	19.993	103.939	19.946	0.805	0.499
832.000	496.497	80.016	19.994	103.935	19.944	1.014	0.488
834.000	497.519	80.015	19.995	103.935	19.947	0.789	0.542
836.000	498.535	80.016	19.993	103.944	19.947	0.767	0.514
838.000	499.568	80.015	19.994	103.933	19.942	1.121	0.502
840.000	500.617	80.017	19.993	103.930	19.947	0.723	0.510
842.000	501.621	80.016	19.993	103.937	19.948	0.671	0.474
844.000	502.651	80.016	19.993	103.930	19.947	0.741	0.510
846.000	503.681	80.017	19.994	103.930	19.947	0.747	0.523
848.000	504.685	80.017	19.992	103.932	19.946	0.825	0.497
850.000	505.781	80.017	19.994	103.929	19.947	0.723	0.527
852.000	506.759	80.016	19.991	103.930	19.945	0.914	0.477
854.000	507.808	80.015	19.993	103.930	19.946	0.825	0.513
856.000	508.876	80.014	19.994	103.932	19.950	0.536	0.531
858.000	509.881	80.012	19.993	103.933	19.946	0.846	0.516
860.000	510.885	80.013	19.993	103.907	19.948	0.711	0.482
862.000	511.942	80.014	19.995	103.916	19.948	0.687	0.532
864.000	512.909	80.015	19.996	103.922	19.951	0.470	0.507
866.000	513.931	80.014	19.994	103.925	19.951	0.472	0.517
868.000	514.990	80.016	19.994	103.917	19.950	0.534	0.529
870.000	516.017	80.015	19.993	103.921	19.949	0.611	0.533
872.000	517.028	80.015	19.996	103.925	19.951	0.480	0.510
874.000	518.066	80.016	19.993	103.909	19.951	0.450	0.533
876.000	519.071	80.015	19.993	103.906	19.948	0.687	0.507
878.000	520.097	80.016	19.992	103.910	19.948	0.669	0.521
880.000	521.068	80.015	19.993	103.906	19.947	0.749	0.503
882.000	522.070	80.015	19.993	103.917	19.951	0.462	0.497
884.000	523.065	80.014	19.993	103.917	19.953	0.337	0.505
886.000	524.095	80.013	19.995	103.911	19.951	0.456	0.494
888.000	525.084	80.014	19.995	103.923	19.950	0.576	0.507
890.000	526.048	80.015	19.993	103.927	19.949	0.633	0.490
892.000	527.099	80.015	19.995	103.897	19.947	0.735	0.500
894.000	528.075	80.014	19.995	103.910	19.948	0.709	0.478
896.000	529.098	80.015	19.995	103.928	19.953	0.337	0.496
898.000	530.156	80.016	19.995	103.920	19.951	0.460	0.490
900.000	531.123	80.016	19.994	103.919	19.954	0.213	0.478
902.000	532.142	80.017	19.993	103.904	19.951	0.492	0.510
904.000	533.148	80.017	19.994	103.918	19.954	0.271	0.490
906.000	534.155	80.017	19.994	103.910	19.952	0.372	0.519
908.000	535.155	80.016	19.995	103.906	19.952	0.408	0.514
910.000	536.176	80.015	19.993	103.916	19.949	0.602	0.533
912.000	537.191	80.016	19.994	103.916	19.952	0.390	0.490
914.000	538.175	80.016	19.994	103.922	19.954	0.283	0.517
916.000	539.216	80.015	19.993	103.921	19.953	0.303	0.537
918.000	540.200	80.015	19.994	103.924	19.953	0.335	0.499
920.000	541.214	80.016	19.994	103.920	19.953	0.301	0.482
922.000	542.221	80.016	19.994	103.922	19.953	0.297	0.504
924.000	543.258	80.016	19.992	103.924	19.953	0.315	0.507
926.000	544.292	80.018	19.993	103.913	19.953	0.349	0.493
928.000	545.328	80.017	19.992	103.910	19.950	0.544	0.532
930.000	546.335	80.017	19.995	103.906	19.952	0.408	0.517
932.000	547.423	80.017	19.994	103.903	19.953	0.323	0.570
934.000	548.428	80.016	19.995	103.925	19.954	0.271	0.499
936.000	549.476	80.015	19.995	103.922	19.954	0.231	0.501
938.000	550.524	80.015	19.994	103.908	19.956	0.068	0.525
940.000	551.535	80.016	19.994	103.911	19.956	0.104	0.521
942.000	552.535	80.015	19.993	103.918	19.954	0.233	0.502
944.000	553.655	80.015	19.993	103.913	19.954	0.213	0.550
946.000	554.680	80.015	19.994	103.917	19.953	0.323	0.529
948.000	555.764	80.015	19.994	103.907	19.958	-0.078	0.512
950.000	556.781	80.014	19.996	103.901	19.959	-0.102	0.499
952.000	557.829	80.015	19.995	103.913	19.960	-0.161	0.532
954.000	558.872	80.015	19.993	103.910	19.956	0.082	0.510
956.000	559.918	80.015	19.995	103.902	19.960	-0.165	0.534
958.000	560.924	80.014	19.994	103.903	19.961	-0.239	0.526
960.000	561.945	80.016	19.995	103.909	19.958	-0.018	0.506
962.000	563.003	80.015	19.994	103.901	19.960	-0.173	0.500
964.000	564.055	80.015	19.994	103.909	19.954	0.259	0.493
966.000	565.060	80.014	19.994	103.908	19.958	-0.014	0.492
968.000	566.092	80.014	19.995	103.903	19.957	0.030	0.524
970.000	567.128	80.015	19.995	103.912	19.957	0.032	0.514
972.000	568.139	80.016	19.993	103.909	19.958	-0.066	0.493
974.000	569.113	80.014	19.994	103.904	19.959	-0.137	0.473
976.000	570.152	80.015	19.993	103.910	19.962	-0.325	0.535
978.000	571.186	80.015	19.993	103.909	19.960	-0.197	0.515
980.000	572.215	80.016	19.995	103.912	19.961	-0.293	0.520
982.000	573.211	80.015	19.993	103.911	19.959	-0.088	0.519
984.000	574.277	80.016	19.994	103.911	19.955	0.137	0.552
986.000	575.341	80.015	19.994	103.907	19.953	0.289	0.521
988.000	576.376	80.015	19.992	103.915	19.958	-0.034	0.530
990.000	577.365	80.015	19.995	103.909	19.956	0.102	0.491
992.000	578.382	80.015	19.994	103.915	19.956	0.127	0.530
994.000	579.440	80.014	19.995	103.909	19.956	0.125	0.518
996.000	580.430	80.015	19.995	103.905	19.958	-0.082	0.484
998.000	581.428	80.016	19.996	103.903	19.959	-0.127	0.471
1000.000	582.418	80.017	19.994	103.907	19.960	-0.185	0.490
1002.000	583.480	80.016	19.994	103.910	19.959	-0.149	0.534
1004.000	584.456	80.018	19.991	103.904	19.957	0.008	0.487
1006.000	585.488	80.018	19.995	103.904	19.959	-0.129	0.517
1008.000	586.460	80.018	19.994	103.909	19.960	-0.169	0.500
1010.000	587.441	80.016	19.996	103.910	19.957	0.010	0.474
1012.000	588.469	80.018	19.992	103.907	19.956	0.110	0.523
1014.000	589.475	80.018	19.995	103.894	19.958	-0.044	0.510
1016.000	590.523	80.017	19.995	103.915	19.957	0.024	0.498
1018.000	591.488	80.017	19.994	103.932	19.958	-0.016	0.494
1020.000	592.507	80.016	19.995	103.923	19.959	-0.135	0.485
1022.000	593.438	80.015	19.994	103.903	19.963	-0.390	0.465
1024.000	594.509	80.016	19.993	103.910	19.962	-0.305	0.499
1025.999	595.497	80.014	19.996	103.904	19.957	0.060	0.511
1027.999	596.531	80.013	19.992	103.902	19.953	0.285	0.516
1029.999	597.493	80.014	19.995	103.902	19.955	0.165	0.505
1031.999	598.521	80.015	19.991	103.905	19.958	-0.018	0.486
1034.000	599.539	80.015	19.993	103.914	19.958	-0.082	0.504
1036.000	600.564	80.014	19.993	103.905	19.962	-0.362	0.481
1038.000	601.545	80.015	19.993	103.906	19.961	-0.285	0.487
1040.000	602.584	80.014	19.994	103.910	19.962	-0.321	0.487
1041.999	603.584	80.015	19.993	103.915	19.961	-0.269	0.520
1043.999	604.604	80.016	19.993	103.910	19.962	-0.349	0.517
1045.999	605.635	80.015	19.994	103.907	19.961	-0.237	0.504
1047.999	606.708	80.015	19.995	103.917	19.958	-0.026	0.534
1050.000	607.712	80.014	19.995	103.905	19.959	-0.127	0.518
1052.000	608.737	80.014	19.995	103.906	19.957	0.048	0.516
1054.000	609.791	80.012	19.994	103.906	19.959	-0.123	0.520
1055.999	610.765	80.014	19.994	103.910	19.960	-0.199	0.510
1057.999	611.799	80.014	19.994	103.910	19.960	-0.203	0.484
1059.999	612.816	80.014	19.996	103.905	19.960	-0.201	0.499
1061.999	613.845	80.015	19.992	103.905	19.958	-0.038	0.530
1063.999	614.820	80.015	19.995	103.905	19.960	-0.165	0.498
1065.999	615.815	80.016	19.993	103.907	19.959	-0.141	0.488
1067.999	616.861	80.016	19.994	103.908	19.958	-0.054	0.508
1069.999	617.863	80.018	19.992	103.904	19.960	-0.183	0.499
1071.999	618.864	80.017	19.995	103.903	19.958	-0.010	0.518
1073.999	619.898	80.016	19.993	103.901	19.959	-0.145	0.499
1075.999	620.830	80.017	19.994	103.900	19.958	-0.058	0.455
1077.999	621.841	80.017	19.994	103.900	19.957	0.064	0.502
1079.999	622.887	80.016	19.993	103.902	19.961	-0.251	0.543
1082.000	623.926	80.016	19.995	103.901	19.962	-0.341	0.503
1083.999	624.954	80.015	19.995	103.904	19.965	-0.577	0.536
1086.000	625.929	80.016	19.993	103.903	19.964	-0.478	0.489
1088.000	626.997	80.016	19.996	103.903	19.962	-0.331	0.559
1089.999	628.032	80.016	19.998	103.901	19.960	-0.221	0.529
1091.999	629.058	80.017	19.994	103.900	19.962	-0.366	0.510
1094.000	630.126	80.018	19.994	103.901	19.962	-0.335	0.524
1095.999	631.167	80.017	19.995	103.901	19.965	-0.564	0.533
1097.999	632.167	80.018	19.994	103.902	19.959	-0.151	0.477
1099.999	633.213	80.017	19.995	103.905	19.963	-0.434	0.518
1101.999	634.220	80.017	19.993	103.903	19.962	-0.319	0.500
1103.999	635.292	80.017	19.993	103.904	19.965	-0.583	0.512
1105.999	636.338	80.015	19.993	103.904	19.963	-0.444	0.533
1107.999	637.390	80.015	19.993	103.907	19.965	-0.570	0.533
1109.999	638.424	80.016	19.994	103.905	19.961	-0.295	0.532
1111.999	639.449	80.016	19.994	103.904	19.963	-0.442	0.495
1113.999	640.490	80.013	19.993	103.904	19.964	-0.514	0.528
1116.000	641.499	80.016	19.994	103.904	19.961	-0.279	0.492
1117.999	642.568	80.014	19.995	103.905	19.962	-0.372	0.490
1119.999	643.592	80.014	19.994	103.905	19.961	-0.249	0.522
1121.999	644.652	80.015	19.993	103.905	19.965	-0.558	0.531
1124.000	645.631	80.016	19.994	103.905	19.966	-0.659	0.501
1125.999	646.664	80.015	19.995	103.906	19.968	-0.751	0.529
1127.999	647.673	80.016	19.994	103.904	19.963	-0.400	0.506
1129.999	648.680	80.017	19.994	103.901	19.966	-0.635	0.517
1132.000	649.737	80.016	19.993	103.898	19.966	-0.631	0.548
1134.000	650.736	80.017	19.994	103.901	19.965	-0.587	0.500
1135.999	651.756	80.018	19.994	103.901	19.963	-0.428	0.480
1137.999	652.792	80.015	19.993	103.901	19.964	-0.482	0.517
1139.999	653.871	80.015	19.993	103.902	19.965	-0.528	0.497
1141.999	654.889	80.017	19.994	103.902	19.962	-0.372	0.533
1143.999	655.941	80.014	19.993	103.902	19.961	-0.261	0.531
1145.999	656.962	80.019	19.993	103.902	19.967	-0.679	0.549
1148.000	657.953	80.017	19.993	103.901	19.965	-0.585	0.527
1149.999	658.982	80.017	19.994	103.900	19.963	-0.390	0.502
1152.000	660.032	80.015	19.995	103.900	19.963	-0.402	0.529
1153.999	661.005	80.017	19.994	103.900	19.965	-0.591	0.519
1156.000	662.032	80.017	19.994	103.898	19.965	-0.566	0.511
1157.999	663.024	80.016	19.995	103.900	19.966	-0.609	0.515
1159.999	664.044	80.015	19.994	103.899	19.966	-0.629	0.496
1162.000	665.048	80.017	19.994	103.899	19.966	-0.637	0.488
1163.999	666.071	80.015	19.994	103.898	19.967	-0.705	0.498
1165.999	667.073	80.016	19.994	103.900	19.966	-0.637	0.482
1167.999	668.078	80.014	19.993	103.903	19.959	-0.147	0.515
1170.000	669.103	80.017	19.994	103.899	19.961	-0.281	0.516
1171.999	670.124	80.016	19.995	103.904	19.963	-0.416	0.519
1174.000	671.133	80.018	19.995	103.904	19.965	-0.568	0.513
1175.999	672.084	80.017	19.994	103.903	19.967	-0.689	0.488
1177.999	673.072	80.017	19.994	103.901	19.964	-0.496	0.466
1179.999	674.082	80.017	19.994	103.901	19.964	-0.506	0.527
1182.000	675.062	80.017	19.994	103.900	19.964	-0.486	0.480
1183.999	676.110	80.016	19.992	103.901	19.966	-0.623	0.528
1185.999	677.072	80.015	19.994	103.896	19.967	-0.707	0.472
1188.000	678.065	80.015	19.995	103.897	19.965	-0.556	0.494
1189.999	679.057	80.014	19.994	103.898	19.967	-0.681	0.497
1191.999	680.004	80.014	19.995	103.900	19.969	-0.814	0.492
1193.999	680.984	80.016	19.995	103.897	19.967	-0.673	0.503
1196.000	682.006	80.016	19.994	103.898	19.967	-0.713	0.506
1197.999	683.009	80.015	19.994	103.898	19.963	-0.392	0.524
1199.999	683.980	80.015	19.993	103.898	19.966	-0.623	0.454
1202.000	684.957	80.016	19.993	103.896	19.966	-0.597	0.503
1203.999	685.939	80.016	19.994	103.901	19.962	-0.319	0.525
1206.000	686.952	80.015	19.993	103.901	19.963	-0.390	0.518
1207.999	687.944	80.015	19.994	103.899	19.964	-0.458	0.515
1209.999	688.933	80.014	19.994	103.901	19.963	-0.390	0.512
1211.999	689.913	80.015	19.993	103.900	19.964	-0.498	0.502
1213.999	690.881	80.015	19.994	103.900	19.965	-0.571	0.507
1215.999	691.891	80.015	19.994	103.894	19.965	-0.554	0.519
1217.999	692.863	80.015	19.993	103.899	19.969	-0.828	0.509
1219.999	693.839	80.015	19.994	103.892	19.967	-0.693	0.491
1221.999	694.855	80.014	19.994	103.884	19.964	-0.516	0.518
1223.999	695.820	80.014	19.993	103.893	19.967	-0.677	0.478
1225.999	696.814	80.015	19.994	103.885	19.967	-0.681	0.471
1228.000	697.806	80.015	19.996	103.898	19.968	-0.759	0.500
1230.000	698.825	80.016	19.993	103.902	19.966	-0.651	0.532
1231.999	699.777	80.016	19.994	103.898	19.966	-0.663	0.505
1233.999	700.786	80.018	19.993	103.897	19.968	-0.755	0.495
1236.000	701.746	80.017	19.993	103.901	19.967	-0.723	0.504
1237.999	702.746	80.015	19.993	103.902	19.968	-0.808	0.478
1239.999	703.754	80.017	19.993	103.901	19.970	-0.932	0.484
1241.999	704.776	80.015	19.994	103.895	19.970	-0.940	0.527
1243.999	705.764	80.015	19.994	103.896	19.970	-0.894	0.529
1245.999	706.763	80.016	19.993	103.898	19.971	-1.028	0.527
1247.999	707.749	80.017	19.994	103.903	19.965	-0.552	0.521
1250.000	708.754	80.018	19.993	103.896	19.964	-0.466	0.501
1252.000	709.782	80.016	19.994	103.900	19.969	-0.840	0.554
1253.999	710.770	80.015	19.994	103.904	19.967	-0.721	0.493
1255.999	711.782	80.015	19.994	103.903	19.969	-0.838	0.509
1257.999	712.866	80.018	19.994	103.900	19.971	-0.994	0.529
1259.999	713.876	80.018	19.994	103.903	19.971	-0.980	0.544
1261.999	714.901	80.018	19.994	103.900	19.967	-0.695	0.510
1263.999	715.962	80.019	19.994	103.897	19.969	-0.860	0.519
1265.999	717.033	80.018	19.994	103.895	19.968	-0.802	0.507
1267.999	718.061	80.016	19.993	103.895	19.970	-0.944	0.530
1269.999	719.131	80.015	19.994	103.897	19.970	-0.888	0.550
1271.999	720.121	80.016	19.993	103.890	19.964	-0.486	0.520
1273.999	721.154	80.016	19.994	103.888	19.964	-0.478	0.495
1275.999	722.200	80.017	19.995	103.891	19.966	-0.599	0.520
1277.999	723.187	80.015	19.993	103.900	19.962	-0.323	0.498
1279.999	724.194	80.015	19.995	103.899	19.962	-0.321	0.496
1281.999	725.266	80.015	19.994	103.899	19.965	-0.530	0.558
1283.999	726.268	80.013	19.994	103.901	19.965	-0.589	0.490
1285.999	727.293	80.014	19.994	103.895	19.964	-0.476	0.520
1287.999	728.355	80.015	19.995	103.898	19.963	-0.428	0.537
1289.999	729.403	80.015	19.995	103.897	19.963	-0.400	0.533
1291.999	730.437	80.012	19.994	103.897	19.962	-0.344	0.523
1293.999	731.533	80.013	19.995	103.895	19.961	-0.273	0.519
1295.999	732.585	80.014	19.993	103.899	19.960	-0.217	0.519
1297.999	733.680	80.016	19.995	103.898	19.963	-0.398	0.527
1299.999	734.732	80.014	19.993	103.902	19.960	-0.217	0.545
1301.999	735.758	80.015	19.994	103.902	19.961	-0.289	0.517
1303.999	736.784	80.015	19.993	103.902	19.962	-0.345	0.520
1305.999	737.809	80.016	19.994	103.901	19.962	-0.344	0.513
1307.999	738.890	80.015	19.993	103.900	19.968	-0.800	0.530
1309.999	739.892	80.014	19.993	103.888	19.962	-0.309	0.516
1312.000	740.969	80.014	19.993	103.900	19.961	-0.279	0.527
1313.999	741.991	80.016	19.994	103.903	19.961	-0.243	0.536
1315.999	743.014	80.015	19.993	103.900	19.961	-0.301	0.487
1316.999	743.560	80.015	19.993	103.896	19.961	-0.263	0.529