File: 01_Data/Bamboo_Rug_B/STA/N2/10K_min/Bamboo_Rug_B_STA_N2_10KData_220124_R2.csv
##Temp./Â°C,Time/min,Mass loss(subtr.2)/mg,DSC(subtr.2)/(mW/mg),Sensit./(uV/mW)
49.171,10.01,0.00591,0.004849158,1.07448
49.871,10.76309,0.006739625,0.0344922,1.07443
50.571,10.96759,0.00534367,0.06102941,1.07438
51.271,11.1211,0.00689461,0.08183442,1.07433
51.971,11.25007,0.007012226,0.09960847,1.07428
52.671,11.36561,0.00813476,0.11494,1.07423
53.371,11.4726,0.006068605,0.12786,1.07417
54.071,11.57285,0.006005597,0.13978,1.07412
54.771,11.6678,0.00596602,0.14705,1.07406
55.471,11.75905,0.006158114,0.15663,1.074
56.171,11.847,0.005855848,0.16296,1.07395
56.871,11.9336,0.00631893,0.16988,1.07389
57.571,12.0185,0.006345611,0.17911,1.07383
58.271,12.1015,0.004946848,0.18241,1.07376
58.971,12.18317,0.004948955,0.18774,1.0737
59.671,12.26361,0.006373043,0.19485,1.07364
60.371,12.34339,0.004889188,0.19804,1.07357
61.071,12.42233,0.006241194,0.20351,1.07351
61.771,12.50075,0.00637653,0.20626,1.07344
62.471,12.57848,0.006875047,0.21086,1.07337
63.171,12.65584,0.00634915,0.21477,1.0733
63.871,12.73258,0.005267882,0.21718,1.07323
64.571,12.8088,0.00641486,0.22065,1.07316
65.271,12.88462,0.00636581,0.22178,1.07308
65.971,12.96038,0.00635073,0.22668,1.07301
66.671,13.03615,0.004940972,0.2272,1.07293
67.371,13.1116,0.00588036,0.22973,1.07286
68.071,13.18687,0.00360395,0.22996,1.07278
68.771,13.2618,0.003656209,0.23216,1.0727
69.471,13.3364,0.005043492,0.23221,1.07262
70.171,13.4111,0.003719722,0.23341,1.07254
70.871,13.48519,0.00372953,0.23349,1.07246
71.571,13.5593,0.0050408,0.23376,1.07237
72.271,13.63313,0.00504454,0.23596,1.07229
72.971,13.70701,0.003723372,0.23583,1.0722
73.671,13.78081,0.003742217,0.23794,1.07211
74.371,13.8545,0.00422945,0.23728,1.07203
75.071,13.92806,0.004269997,0.23741,1.07194
75.771,14.0015,0.004820729,0.23971,1.07185
76.471,14.0746,0.005039126,0.23974,1.07175
77.171,14.1469,0.00372836,0.24213,1.07166
77.871,14.2196,0.004675884,0.24296,1.07157
78.571,14.2921,0.003729176,0.24563,1.07147
79.271,14.3651,0.002416277,0.2468,1.07138
79.971,14.43754,0.003730271,0.24547,1.07128
80.671,14.5099,0.003729884,0.24545,1.07118
81.371,14.5821,0.002409587,0.24825,1.07108
82.071,14.6539,0.002409662,0.24806,1.07098
82.771,14.7253,0.00365008,0.24976,1.07088
83.471,14.79664,0.00240785,0.25016,1.07078
84.171,14.86786,0.002020493,0.25034,1.07067
84.871,14.93896,0.001092681,0.25014,1.07057
85.571,15.0098,0.001078778,0.25189,1.07046
86.271,15.0804,0.00109041,0.25135,1.07035
86.971,15.1508,0.001077757,0.25211,1.07025
87.671,15.22125,0.000760125,0.25113,1.07014
88.371,15.29175,0.0008061189,0.25143,1.07002
89.071,15.3621,-0.0002887511,0.25215,1.06991
89.771,15.4323,0.001099832,0.25039,1.0698
90.471,15.5027,-6.514845e-05,0.25177,1.06969
91.171,15.573,-0.0002200181,0.25164,1.06957
91.871,15.64286,-5.28349e-05,0.25328,1.06945
92.571,15.7125,0.0004397632,0.24995,1.06934
93.271,15.7822,0.001744563,0.25143,1.06922
93.971,15.8518,0.0004300536,0.2526,1.0691
94.671,15.92107,-0.0006423308,0.25162,1.06898
95.371,15.9899,-0.000889995,0.2528,1.06886
96.071,16.05896,0.0004275751,0.25093,1.06873
96.771,16.12782,-0.0002203644,0.25154,1.06861
97.471,16.197,-0.0008692835,0.25359,1.06848
98.171,16.2658,-0.002200693,0.25417,1.06836
98.871,16.33474,-0.001652121,0.25496,1.06823
99.571,16.4034,-0.00219004,0.25448,1.0681
100.271,16.47205,-0.002189971,0.25395,1.06797
100.971,16.5405,-0.001498495,0.25552,1.06784
101.671,16.60904,-0.0008799961,0.25592,1.06771
102.371,16.67788,-0.002240371,0.25538,1.06757
103.071,16.7467,-0.003570325,0.25466,1.06744
103.771,16.81568,-0.002194072,0.25428,1.0673
104.471,16.88415,-0.00351024,0.25534,1.06717
105.171,16.95296,-0.00254566,0.25448,1.06703
105.871,17.02135,-0.00253344,0.2532,1.06689
106.571,17.09027,-0.003492823,0.25797,1.06675
107.271,17.15897,-0.003796286,0.25593,1.06661
107.971,17.22788,-0.004166047,0.25667,1.06647
108.671,17.29641,-0.004204749,0.25593,1.06632
109.371,17.36495,-0.002474731,0.25747,1.06618
110.071,17.43338,-0.00384051,0.2581,1.06603
110.771,17.50188,-0.00384522,0.25726,1.06589
111.471,17.57014,-0.00515992,0.25738,1.06574
112.171,17.63885,-0.005162042,0.2578,1.06559
112.871,17.70743,-0.004030061,0.26001,1.06544
113.571,17.77634,-0.004829936,0.25842,1.06529
114.271,17.84468,-0.004829991,0.25881,1.06514
114.971,17.91311,-0.004190157,0.26004,1.06498
115.671,17.9812,-0.003869777,0.26073,1.06483
116.371,18.0492,-0.005133383,0.25966,1.06468
117.071,18.11756,-0.005159601,0.26089,1.06452
117.771,18.18606,-0.005088639,0.26126,1.06436
118.471,18.2546,-0.005160009,0.26389,1.0642
119.171,18.3228,-0.005160001,0.26172,1.06404
119.871,18.3909,-0.005158895,0.26378,1.06388
120.571,18.459,-0.006466976,0.26474,1.06372
121.271,18.52739,-0.00516007,0.26421,1.06356
121.971,18.59587,-0.005160985,0.26544,1.06339
122.671,18.66435,-0.00645589,0.26517,1.06323
123.371,18.73248,-0.005183508,0.26626,1.06306
124.071,18.8005,-0.005159999,0.26625,1.06289
124.771,18.86841,-0.005159808,0.2666,1.06272
125.471,18.93615,-0.006616236,0.26756,1.06255
126.171,19.0042,-0.00515996,0.2706,1.06238
126.871,19.07218,-0.005160004,0.26906,1.06221
127.571,19.14038,-0.00515414,0.26929,1.06204
128.271,19.20826,-0.00667473,0.27114,1.06186
128.971,19.27619,-0.007789899,0.27069,1.06169
129.671,19.34411,-0.0077864,0.27087,1.06151
130.371,19.412,-0.00648841,0.27158,1.06134
131.071,19.4801,-0.00648,0.27178,1.06116
131.771,19.54747,-0.006479979,0.27147,1.06098
132.471,19.6152,-0.006792409,0.27544,1.0608
133.171,19.6831,-0.00747433,0.27478,1.06062
133.871,19.75104,-0.006149725,0.27616,1.06043
134.571,19.819,-0.00615,0.27745,1.06025
135.271,19.8866,-0.00615055,0.27725,1.06006
135.971,19.95451,-0.005185031,0.27916,1.05988
136.671,20.02208,-0.00647311,0.27964,1.05969
137.371,20.08946,-0.00646999,0.28205,1.0595
138.071,20.1569,-0.00714589,0.28269,1.05931
138.771,20.22435,-0.0077943,0.28393,1.05912
139.471,20.29189,-0.00714105,0.28513,1.05893
140.171,20.3595,-0.00713999,0.28354,1.05874
140.871,20.4268,-0.007807474,0.28605,1.05855
141.571,20.4943,-0.008449991,0.28531,1.05835
142.271,20.56154,-0.008451498,0.2865,1.05816
142.971,20.62898,-0.00778904,0.28682,1.05796
143.671,20.6963,-0.00792969,0.28878,1.05776
144.371,20.76315,-0.007791085,0.28849,1.05756
145.071,20.83044,-0.00779999,0.29048,1.05736
145.771,20.8976,-0.008122245,0.29057,1.05716
146.471,20.96529,-0.007790571,0.29326,1.05696
147.171,21.03254,-0.009197456,0.29242,1.05676
147.871,21.1,-0.00911,0.29377,1.05655
148.571,21.16713,-0.009108698,0.29434,1.05635
149.271,21.23444,-0.008444965,0.29667,1.05614
149.971,21.30163,-0.008418297,0.29814,1.05593
150.671,21.36905,-0.007796573,0.29802,1.05572
151.371,21.4363,-0.009099277,0.30063,1.05551
152.071,21.50338,-0.0091,0.29915,1.0553
152.771,21.5705,-0.0091,0.30079,1.05509
153.471,21.63766,-0.0091,0.30241,1.05488
154.171,21.7049,-0.009099546,0.30353,1.05466
154.871,21.7722,-0.01042598,0.30408,1.05445
155.571,21.8394,-0.0104137,0.30452,1.05423
156.271,21.9065,-0.00838281,0.30464,1.05402
156.971,21.97353,-0.009744306,0.30399,1.0538
157.671,22.04062,-0.009770129,0.3057,1.05358
158.371,22.1076,-0.0107679,0.30928,1.05336
159.071,22.17449,-0.01046985,0.30916,1.05314
159.771,22.24149,-0.01042371,0.30917,1.05292
160.471,22.30872,-0.01043813,0.30943,1.05269
161.171,22.37594,-0.0117392,0.30931,1.05247
161.871,22.44303,-0.01174,0.3107,1.05224
162.571,22.51016,-0.01174,0.31203,1.05202
163.271,22.57745,-0.01174003,0.31319,1.05179
163.971,22.64455,-0.01132791,0.31433,1.05156
164.671,22.71183,-0.01056591,0.31316,1.05133
165.371,22.77886,-0.01140997,0.31606,1.0511
166.071,22.84616,-0.01137684,0.31594,1.05087
166.771,22.91328,-0.01305815,0.31854,1.05063
167.471,22.98056,-0.01306068,0.31653,1.0504
168.171,23.04778,-0.0117404,0.3186,1.05017
168.871,23.11506,-0.01301724,0.31955,1.04993
169.571,23.1822,-0.01437023,0.32093,1.04969
170.271,23.24946,-0.01438523,0.32117,1.04945
170.971,23.31648,-0.01304982,0.32,1.04922
171.671,23.38363,-0.0130463,0.3224,1.04898
172.371,23.45081,-0.01370944,0.32362,1.04873
173.071,23.51822,-0.0137292,0.3256,1.04849
173.771,23.5854,-0.01502988,0.32562,1.04825
174.471,23.65212,-0.01503,0.32529,1.048
175.171,23.71912,-0.01503,0.3268,1.04776
175.871,23.7864,-0.01503,0.32786,1.04751
176.571,23.85415,-0.01504138,0.3305,1.04727
177.271,23.92178,-0.01634449,0.3307,1.04702
177.971,23.98876,-0.01502845,0.32956,1.04677
178.671,24.05576,-0.0140431,0.33225,1.04652
179.371,24.12278,-0.01536654,0.33103,1.04627
180.071,24.18998,-0.01536001,0.32733,1.04601
180.771,24.25714,-0.01803802,0.32942,1.04576
181.471,24.32433,-0.01798996,0.33311,1.0455
182.171,24.39151,-0.01809685,0.33517,1.04525
182.871,24.45879,-0.01931394,0.33272,1.04499
183.571,24.5258,-0.01798966,0.33342,1.04473
184.271,24.5929,-0.01889177,0.33406,1.04448
184.971,24.65985,-0.01799004,0.3359,1.04422
185.671,24.72682,-0.01799,0.33663,1.04396
186.371,24.79372,-0.01798721,0.33992,1.04369
187.071,24.86052,-0.019311,0.33959,1.04343
187.771,24.9271,-0.02060704,0.33995,1.04317
188.471,24.99384,-0.02063076,0.34236,1.0429
189.171,25.06032,-0.02194751,0.3424,1.04264
189.871,25.1269,-0.02195,0.34275,1.04237
190.571,25.19355,-0.02195,0.34692,1.0421
191.271,25.26021,-0.02195,0.3465,1.04183
191.971,25.32643,-0.02195,0.34623,1.04156
192.671,25.39304,-0.02195,0.34811,1.04129
193.371,25.45972,-0.02195,0.34947,1.04102
194.071,25.52684,-0.02195007,0.35164,1.04075
194.771,25.59366,-0.02289829,0.35089,1.04047
195.471,25.66045,-0.02424261,0.35329,1.0402
196.171,25.72717,-0.02456961,0.3531,1.03992
196.871,25.7939,-0.02457,0.35416,1.03965
197.571,25.86064,-0.02457,0.35476,1.03937
198.271,25.92748,-0.02456426,0.35471,1.03909
198.971,25.99405,-0.02622305,0.35679,1.03881
199.671,26.06056,-0.02622251,0.35895,1.03853
200.371,26.12704,-0.02753027,0.35651,1.03825
201.071,26.19371,-0.0275297,0.36071,1.03796
201.771,26.26046,-0.02720937,0.35952,1.03768
202.471,26.32722,-0.02764234,0.36189,1.03739
203.171,26.3939,-0.02851993,0.36227,1.03711
203.871,26.4602,-0.02851998,0.36236,1.03682
204.571,26.52698,-0.02854534,0.36197,1.03653
205.271,26.59372,-0.0298009,0.36102,1.03625
205.971,26.6605,-0.03114923,0.36118,1.03596
206.671,26.7274,-0.03082036,0.36321,1.03566
207.371,26.79415,-0.03082984,0.36392,1.03537
208.071,26.86115,-0.03279305,0.36284,1.03508
208.771,26.9281,-0.03312609,0.36476,1.03479
209.471,26.9952,-0.03378706,0.36411,1.03449
210.171,27.06216,-0.03319002,0.36248,1.0342
210.871,27.12919,-0.03404532,0.36252,1.0339
211.571,27.1959,-0.0357604,0.36411,1.0336
212.271,27.26302,-0.0357173,0.36488,1.0333
212.971,27.33,-0.03774063,0.36676,1.033
213.671,27.3971,-0.03773999,0.36676,1.0327
214.371,27.46402,-0.03774109,0.36693,1.0324
215.071,27.5311,-0.0388302,0.36876,1.0321
215.771,27.5983,-0.04101946,0.36877,1.03179
216.471,27.66521,-0.04195904,0.36913,1.03149
217.171,27.73201,-0.04135996,0.37109,1.03118
217.871,27.7987,-0.04136061,0.37184,1.03088
218.571,27.86559,-0.04266803,0.37183,1.03057
219.271,27.9325,-0.04330071,0.3731,1.03026
219.971,27.99948,-0.04496994,0.37417,1.02995
220.671,28.06568,-0.04497,0.37673,1.02964
221.371,28.13252,-0.04497461,0.37813,1.02933
222.071,28.19919,-0.04659175,0.37867,1.02902
222.771,28.2664,-0.04762267,0.38038,1.0287
223.471,28.3329,-0.04816551,0.38151,1.02839
224.171,28.39963,-0.04987827,0.38199,1.02807
224.871,28.46647,-0.0518926,0.38283,1.02776
225.571,28.5335,-0.05189035,0.38479,1.02744
226.271,28.6003,-0.05056883,0.3881,1.02712
226.971,28.66708,-0.05166793,0.39047,1.0268
227.671,28.7338,-0.05320003,0.39302,1.02648
228.371,28.80043,-0.05322666,0.39294,1.02616
229.071,28.86723,-0.05442368,0.39457,1.02584
229.771,28.93358,-0.0568312,0.39495,1.02552
230.471,29.00011,-0.05683023,0.39717,1.02519
231.171,29.06693,-0.05814215,0.39751,1.02487
231.871,29.1338,-0.05918275,0.3992,1.02454
232.571,29.20082,-0.05979205,0.39823,1.02422
233.271,29.2675,-0.06110179,0.40053,1.02389
233.971,29.3346,-0.06105358,0.40209,1.02356
234.671,29.4017,-0.06242066,0.4043,1.02323
235.371,29.46837,-0.0650392,0.40826,1.0229
236.071,29.5351,-0.06636047,0.41027,1.02257
236.771,29.60175,-0.0664287,0.41254,1.02224
237.471,29.6685,-0.06824669,0.41782,1.0219
238.171,29.7353,-0.06972284,0.4236,1.02157
238.871,29.80193,-0.07096989,0.42441,1.02123
239.571,29.8686,-0.07096532,0.43149,1.0209
240.271,29.93548,-0.07283881,0.43608,1.02056
240.971,30.00258,-0.07420969,0.44286,1.02022
241.671,30.06942,-0.07686362,0.44918,1.01988
242.371,30.1362,-0.07788515,0.45745,1.01954
243.071,30.20311,-0.07834459,0.4647,1.0192
243.771,30.27001,-0.08094992,0.47413,1.01886
244.471,30.33735,-0.0835654,0.4879,1.01852
245.171,30.40423,-0.08458051,0.4985,1.01818
245.871,30.47107,-0.08488997,0.50902,1.01783
246.571,30.5378,-0.08640012,0.5224,1.01749
247.271,30.6046,-0.08855915,0.53761,1.01714
247.971,30.6718,-0.09017542,0.556,1.01679
248.671,30.73882,-0.09283216,0.57657,1.01644
249.371,30.806,-0.09410823,0.60103,1.0161
250.071,30.87302,-0.0954962,0.62352,1.01575
250.771,30.94016,-0.09883488,0.63944,1.01539
251.471,31.00733,-0.10057,0.6507,1.01504
252.171,31.0744,-0.10353,0.65787,1.01469
252.871,31.1414,-0.10496,0.65385,1.01434
253.571,31.20839,-0.10753,0.6411,1.01398
254.271,31.2754,-0.10922,0.62005,1.01363
254.971,31.34242,-0.11162,0.59555,1.01327
255.671,31.40925,-0.11407,0.56749,1.01291
256.371,31.47595,-0.11696,0.53944,1.01255
257.071,31.5425,-0.11756,0.51362,1.01219
257.771,31.6091,-0.12026,0.48932,1.01183
258.471,31.67571,-0.12289,0.47037,1.01147
259.171,31.7422,-0.126,0.45414,1.01111
259.871,31.8086,-0.1299,0.44546,1.01075
260.571,31.875,-0.13258,0.43831,1.01039
261.271,31.9415,-0.13437,0.42957,1.01002
261.971,32.008,-0.13781,0.42823,1.00966
262.671,32.07452,-0.14052,0.42429,1.00929
263.371,32.14113,-0.14367,0.42418,1.00892
264.071,32.20782,-0.14806,0.42383,1.00855
264.771,32.27451,-0.15129,0.42364,1.00818
265.471,32.34117,-0.15465,0.42424,1.00781
266.171,32.40735,-0.15793,0.42529,1.00744
266.871,32.47398,-0.16196,0.42495,1.00707
267.571,32.5406,-0.16571,0.42681,1.0067
268.271,32.60759,-0.17105,0.42908,1.00633
268.971,32.67425,-0.17469,0.42946,1.00595
269.671,32.741,-0.17955,0.43103,1.00558
270.371,32.80775,-0.18344,0.42989,1.0052
271.071,32.87467,-0.18835,0.43055,1.00482
271.771,32.94168,-0.19379,0.43232,1.00445
272.471,33.0088,-0.19822,0.43279,1.00407
273.171,33.07588,-0.20263,0.43655,1.00369
273.871,33.1429,-0.20832,0.43575,1.00331
274.571,33.2095,-0.2134,0.43419,1.00293
275.271,33.27648,-0.21967,0.43499,1.00254
275.971,33.34296,-0.22504,0.43679,1.00216
276.671,33.41018,-0.23058,0.43821,1.00178
277.371,33.47742,-0.23652,0.43795,1.00139
278.071,33.54497,-0.24194,0.43878,1.00101
278.771,33.61181,-0.24773,0.43975,1.00062
279.471,33.6787,-0.25327,0.44046,1.00023
280.171,33.7458,-0.25909,0.44127,0.99984
280.871,33.8127,-0.26565,0.44051,0.99945
281.571,33.87944,-0.27165,0.44247,0.99906
282.271,33.94624,-0.27799,0.44212,0.99867
282.971,34.01335,-0.28414,0.44428,0.99828
283.671,34.08034,-0.29114,0.44286,0.99789
284.371,34.1475,-0.29628,0.44314,0.99749
285.071,34.2146,-0.30274,0.44146,0.9971
285.771,34.28178,-0.31069,0.44404,0.99671
286.471,34.34872,-0.31621,0.44339,0.99631
287.171,34.41553,-0.3232,0.44341,0.99591
287.871,34.4824,-0.32946,0.44448,0.99551
288.571,34.54953,-0.33603,0.44303,0.99512
289.271,34.6166,-0.34386,0.44381,0.99472
289.971,34.68378,-0.35122,0.44542,0.99432
290.671,34.7509,-0.3587,0.44257,0.99392
291.371,34.8178,-0.36651,0.44408,0.99351
292.071,34.8846,-0.37242,0.44296,0.99311
292.771,34.95146,-0.37902,0.44349,0.99271
293.471,35.01834,-0.38723,0.44616,0.9923
294.171,35.08534,-0.39406,0.44472,0.9919
294.871,35.15252,-0.40104,0.44656,0.99149
295.571,35.21958,-0.41041,0.44748,0.99108
296.271,35.28653,-0.41777,0.44729,0.99068
296.971,35.35353,-0.4249,0.44662,0.99027
297.671,35.4205,-0.4332,0.44952,0.98986
298.371,35.48752,-0.43854,0.44869,0.98945
299.071,35.5545,-0.44664,0.45134,0.98904
299.771,35.6214,-0.45499,0.44921,0.98862
300.471,35.68854,-0.46369,0.45404,0.98821
301.171,35.75546,-0.47183,0.45651,0.9878
301.871,35.8224,-0.48101,0.45609,0.98738
302.571,35.88928,-0.48813,0.46051,0.98697
303.271,35.9563,-0.49664,0.46077,0.98655
303.971,36.02353,-0.50545,0.46305,0.98613
304.671,36.09075,-0.51308,0.46394,0.98572
305.371,36.15788,-0.52194,0.46923,0.9853
306.071,36.225,-0.53057,0.46868,0.98488
306.771,36.29201,-0.54065,0.47091,0.98446
307.471,36.35905,-0.54805,0.47466,0.98404
308.171,36.42592,-0.55758,0.47798,0.98362
308.871,36.49295,-0.56818,0.48152,0.98319
309.571,36.5599,-0.57837,0.48529,0.98277
310.271,36.62723,-0.58796,0.48627,0.98235
310.971,36.69463,-0.59772,0.49054,0.98192
311.671,36.76201,-0.60749,0.49481,0.98149
312.371,36.8294,-0.61775,0.49674,0.98107
313.071,36.89666,-0.62789,0.50081,0.98064
313.771,36.96402,-0.63849,0.50615,0.98021
314.471,37.03123,-0.64796,0.50995,0.97978
315.171,37.09864,-0.65889,0.51616,0.97935
315.871,37.16616,-0.66953,0.52004,0.97892
316.571,37.23384,-0.68213,0.52548,0.97849
317.271,37.30142,-0.69282,0.53228,0.97806
317.971,37.36886,-0.70292,0.53834,0.97763
318.671,37.43614,-0.71618,0.54527,0.97719
319.371,37.5035,-0.72934,0.5514,0.97676
320.071,37.57087,-0.74182,0.56052,0.97632
320.771,37.63855,-0.75514,0.56928,0.97589
321.471,37.70602,-0.76879,0.5768,0.97545
322.171,37.7736,-0.78087,0.58339,0.97501
322.871,37.84094,-0.79549,0.59447,0.97457
323.571,37.90854,-0.81078,0.60277,0.97413
324.271,37.97596,-0.82613,0.61285,0.97369
324.971,38.04332,-0.84164,0.62044,0.97325
325.671,38.1109,-0.85773,0.63186,0.97281
326.371,38.17868,-0.87497,0.64434,0.97237
327.071,38.24643,-0.88918,0.65843,0.97193
327.771,38.31384,-0.90787,0.67036,0.97148
328.471,38.38107,-0.92545,0.68208,0.97104
329.171,38.44855,-0.94336,0.69812,0.97059
329.871,38.51605,-0.96426,0.71211,0.97014
330.571,38.58358,-0.98545,0.72977,0.9697
331.271,38.65117,-1.00634,0.74207,0.96925
331.971,38.7188,-1.02848,0.75964,0.9688
332.671,38.78645,-1.05068,0.77662,0.96835
333.371,38.85403,-1.07555,0.79523,0.9679
334.071,38.92158,-1.09961,0.81102,0.96745
334.771,38.98932,-1.12625,0.82989,0.967
335.471,39.05685,-1.15338,0.84314,0.96655
336.171,39.1246,-1.18037,0.85956,0.96609
336.871,39.19238,-1.21012,0.87463,0.96564
337.571,39.25995,-1.24207,0.8855,0.96519
338.271,39.32756,-1.27147,0.89807,0.96473
338.971,39.39501,-1.30473,0.90415,0.96427
339.671,39.46275,-1.33988,0.90818,0.96382
340.371,39.53047,-1.37259,0.90688,0.96336
341.071,39.5983,-1.4085,0.90168,0.9629
341.771,39.66594,-1.44477,0.89119,0.96244
342.471,39.73353,-1.48093,0.8734,0.96198
343.171,39.80086,-1.51611,0.85259,0.96152
343.871,39.8682,-1.55478,0.82183,0.96106
344.571,39.93566,-1.59062,0.78175,0.9606
345.271,40.00316,-1.62438,0.73338,0.96014
345.971,40.07074,-1.65942,0.68533,0.95967
346.671,40.1381,-1.69333,0.63451,0.95921
347.371,40.20537,-1.72241,0.588,0.95874
348.071,40.27274,-1.75356,0.54242,0.95828
348.771,40.33997,-1.7813,0.50379,0.95781
349.471,40.40735,-1.80737,0.46534,0.95734
350.171,40.47459,-1.83139,0.4327,0.95688
350.871,40.54195,-1.85524,0.40225,0.95641
351.571,40.6092,-1.87753,0.37429,0.95594
352.271,40.67671,-1.89613,0.35086,0.95547
352.971,40.74432,-1.91427,0.33144,0.955
353.671,40.81208,-1.93144,0.31368,0.95453
354.371,40.87907,-1.94749,0.29656,0.95405
355.071,40.94661,-1.96086,0.28178,0.95358
355.771,41.0139,-1.9739,0.26677,0.95311
356.471,41.082,-1.9869,0.25569,0.95263
357.171,41.15007,-1.99926,0.24759,0.95216
357.871,41.2183,-2.00908,0.23642,0.95168
358.571,41.2866,-2.02081,0.23173,0.9512
359.271,41.3548,-2.03055,0.22498,0.95073
359.971,41.42321,-2.04078,0.22143,0.95025
360.671,41.49149,-2.04942,0.21499,0.94977
361.371,41.5599,-2.0599,0.2119,0.94929
362.071,41.62828,-2.06823,0.2098,0.94881
362.771,41.6968,-2.07485,0.20894,0.94833
363.471,41.76509,-2.08513,0.20625,0.94785
364.171,41.8334,-2.09189,0.20432,0.94737
364.871,41.90184,-2.09839,0.2027,0.94688
365.571,41.97047,-2.10658,0.20115,0.9464
366.271,42.03929,-2.11511,0.20049,0.94592
366.971,42.10792,-2.12353,0.19984,0.94543
367.671,42.1764,-2.13097,0.20156,0.94495
368.371,42.24476,-2.13865,0.20145,0.94446
369.071,42.31301,-2.14845,0.20181,0.94397
369.771,42.38147,-2.15439,0.19952,0.94349
370.471,42.44992,-2.16103,0.2001,0.943
371.171,42.51833,-2.16773,0.1989,0.94251
371.871,42.5867,-2.17653,0.19907,0.94202
372.571,42.6544,-2.18304,0.1969,0.94153
373.271,42.72268,-2.19197,0.19661,0.94104
373.971,42.7906,-2.19873,0.19988,0.94055
374.671,42.85941,-2.20772,0.1995,0.94005
375.371,42.9277,-2.21374,0.19848,0.93956
376.071,42.99606,-2.22065,0.20028,0.93907
376.771,43.06393,-2.22811,0.20089,0.93857
377.471,43.1319,-2.23612,0.20027,0.93808
378.171,43.19996,-2.24417,0.19927,0.93758
378.871,43.26817,-2.25339,0.19982,0.93708
379.571,43.3364,-2.26091,0.19988,0.93659
380.271,43.40399,-2.2638,0.2008,0.93609
380.971,43.47175,-2.27596,0.19824,0.93559
381.671,43.53971,-2.28386,0.19914,0.93509
382.371,43.60808,-2.29242,0.1989,0.93459
383.071,43.6764,-2.29778,0.19749,0.93409
383.771,43.74471,-2.30612,0.19635,0.93359
384.471,43.81285,-2.31315,0.19592,0.93309
385.171,43.881,-2.32107,0.1965,0.93259
385.871,43.94915,-2.32854,0.19367,0.93208
386.571,44.0175,-2.33812,0.1948,0.93158
387.271,44.08567,-2.34419,0.19491,0.93108
387.971,44.1539,-2.35356,0.19514,0.93057
388.671,44.22195,-2.36176,0.19036,0.93007
389.371,44.29011,-2.36969,0.19019,0.92956
390.071,44.35821,-2.37752,0.19132,0.92905
390.771,44.4266,-2.38608,0.18758,0.92855
391.471,44.49478,-2.39491,0.18859,0.92804
392.171,44.56297,-2.40206,0.18808,0.92753
392.871,44.631,-2.41041,0.18939,0.92702
393.571,44.6991,-2.4189,0.18677,0.92651
394.271,44.76712,-2.42791,0.18951,0.926
394.971,44.83527,-2.4368,0.18834,0.92549
395.671,44.90331,-2.44357,0.18506,0.92498
396.371,44.9715,-2.45366,0.18832,0.92446
397.071,45.03971,-2.46098,0.18807,0.92395
397.771,45.10791,-2.46984,0.18668,0.92344
398.471,45.17629,-2.47912,0.1859,0.92292
399.171,45.2445,-2.48807,0.18508,0.92241
399.871,45.3131,-2.49711,0.18565,0.92189
400.571,45.38145,-2.50736,0.18733,0.92137
401.271,45.44968,-2.51593,0.18554,0.92086
401.971,45.5177,-2.52482,0.18626,0.92034
402.671,45.58627,-2.53363,0.18559,0.91982
403.371,45.6548,-2.545,0.18722,0.9193
404.071,45.72313,-2.55358,0.18683,0.91878
404.771,45.79142,-2.56444,0.18603,0.91826
405.471,45.85966,-2.57384,0.18616,0.91774
406.171,45.92804,-2.58118,0.18594,0.91722
406.871,45.9965,-2.59201,0.1871,0.9167
407.571,46.0651,-2.60338,0.18863,0.91618
408.271,46.13347,-2.61341,0.19099,0.91565
408.971,46.2019,-2.62316,0.19049,0.91513
409.671,46.2701,-2.63358,0.19126,0.91461
410.371,46.33855,-2.64449,0.1918,0.91408
411.071,46.40699,-2.65285,0.19257,0.91356
411.771,46.4756,-2.66382,0.19169,0.91303
412.471,46.54421,-2.67276,0.19378,0.9125
413.171,46.61272,-2.68471,0.19213,0.91198
413.871,46.68124,-2.69333,0.19423,0.91145
414.571,46.74969,-2.70371,0.19321,0.91092
415.271,46.8181,-2.71493,0.19337,0.91039
415.971,46.88626,-2.72552,0.19538,0.90986
416.671,46.95476,-2.73489,0.19377,0.90933
417.371,47.02346,-2.74558,0.19424,0.9088
418.071,47.09212,-2.75486,0.1954,0.90827
418.771,47.1607,-2.76547,0.19466,0.90774
419.471,47.22909,-2.77558,0.19636,0.90721
420.171,47.2976,-2.78502,0.19712,0.90667
420.871,47.36627,-2.79491,0.19479,0.90614
421.571,47.43488,-2.80378,0.19482,0.90561
422.271,47.5034,-2.81361,0.19651,0.90507
422.971,47.5719,-2.82311,0.19469,0.90454
423.671,47.64054,-2.83197,0.19486,0.904
424.371,47.70921,-2.84133,0.19584,0.90346
425.071,47.77782,-2.84993,0.19904,0.90293
425.771,47.84615,-2.8582,0.19686,0.90239
426.471,47.91479,-2.86471,0.19862,0.90185
427.171,47.98342,-2.87687,0.19538,0.90131
427.871,48.05218,-2.88444,0.19468,0.90077
428.571,48.12088,-2.8935,0.19545,0.90023
429.271,48.18954,-2.90224,0.19565,0.89969
429.971,48.25812,-2.90936,0.19314,0.89915
430.671,48.3266,-2.91867,0.19431,0.89861
431.371,48.39502,-2.92708,0.19217,0.89807
432.071,48.46355,-2.93381,0.1892,0.89753
432.771,48.53203,-2.94143,0.18943,0.89698
433.471,48.60042,-2.94843,0.18919,0.89644
434.171,48.6688,-2.95656,0.18488,0.89589
434.871,48.73723,-2.96374,0.1854,0.89535
435.571,48.80573,-2.97166,0.18395,0.8948
436.271,48.87404,-2.97737,0.18257,0.89426
436.971,48.9422,-2.98557,0.1805,0.89371
437.671,49.01052,-2.99305,0.18088,0.89317
438.371,49.079,-2.99834,0.1782,0.89262
439.071,49.14756,-3.00579,0.17762,0.89207
439.771,49.21595,-3.01106,0.1736,0.89152
440.471,49.2841,-3.01709,0.17096,0.89097
441.171,49.35249,-3.02151,0.16907,0.89042
441.871,49.42089,-3.03103,0.16482,0.88987
442.571,49.4895,-3.03567,0.16214,0.88932
443.271,49.55814,-3.0428,0.16049,0.88877
443.971,49.62678,-3.04922,0.15531,0.88822
444.671,49.6952,-3.0531,0.151,0.88767
445.371,49.7637,-3.05973,0.14834,0.88711
446.071,49.8324,-3.06585,0.14312,0.88656
446.771,49.9012,-3.07044,0.13963,0.88601
447.471,49.9698,-3.07513,0.13346,0.88545
448.171,50.03848,-3.0811,0.12894,0.8849
448.871,50.10723,-3.08507,0.12559,0.88434
449.571,50.17613,-3.09036,0.12443,0.88379
450.271,50.2447,-3.09501,0.11974,0.88323
450.971,50.31259,-3.09883,0.11335,0.88267
451.671,50.38139,-3.10237,0.10967,0.88212
452.371,50.4501,-3.10577,0.10572,0.88156
453.071,50.51938,-3.11025,0.10407,0.881
453.771,50.58806,-3.11454,0.09854378,0.88044
454.471,50.6567,-3.11933,0.09464301,0.87988
455.171,50.7254,-3.12167,0.09016009,0.87932
455.871,50.7938,-3.12601,0.0881801,0.87876
456.571,50.86255,-3.12925,0.08618,0.8782
457.271,50.9313,-3.13289,0.08167966,0.87764
457.971,51.0002,-3.13571,0.07767033,0.87708
458.671,51.06881,-3.13861,0.0765557,0.87652
459.371,51.1376,-3.14161,0.07340264,0.87595
460.071,51.20622,-3.14467,0.07094678,0.87539
460.771,51.27497,-3.14736,0.0694149,0.87483
461.471,51.3437,-3.15097,0.07003372,0.87426
462.171,51.41253,-3.15235,0.06582644,0.8737
462.871,51.48122,-3.15505,0.06451196,0.87313
463.571,51.54997,-3.15775,0.06439756,0.87257
464.271,51.61891,-3.16083,0.06038936,0.872
464.971,51.68795,-3.16301,0.05938775,0.87143
465.671,51.75713,-3.16536,0.05719325,0.87087
466.371,51.82629,-3.16786,0.05758463,0.8703
467.071,51.8954,-3.17024,0.05616718,0.86973
467.771,51.96437,-3.17176,0.05553301,0.86916
468.471,52.03332,-3.17311,0.05273476,0.86859
469.171,52.10252,-3.17462,0.05173642,0.86802
469.871,52.17181,-3.17746,0.05140192,0.86745
470.571,52.24119,-3.17826,0.04884138,0.86688
471.271,52.31049,-3.18024,0.04907502,0.86631
471.971,52.37962,-3.18186,0.04764491,0.86574
472.671,52.44866,-3.18289,0.04393023,0.86517
473.371,52.51765,-3.18495,0.04323394,0.8646
474.071,52.5869,-3.18703,0.04579514,0.86403
474.771,52.65614,-3.18836,0.04410055,0.86345
475.471,52.7254,-3.18969,0.04279214,0.86288
476.171,52.7944,-3.19183,0.0427376,0.8623
476.871,52.86359,-3.19371,0.04310165,0.86173
477.571,52.9328,-3.19506,0.04227613,0.86115
478.271,53.00205,-3.19588,0.04098389,0.86058
478.971,53.0712,-3.19778,0.03845148,0.86
479.671,53.14045,-3.19912,0.03904306,0.85943
480.371,53.20964,-3.20041,0.03973681,0.85885
481.071,53.27875,-3.20168,0.04040783,0.85827
481.771,53.3476,-3.2029,0.04086463,0.8577
482.471,53.41624,-3.20404,0.04087483,0.85712
483.171,53.48517,-3.20537,0.03909237,0.85654
483.871,53.55384,-3.20668,0.04040939,0.85596
484.571,53.62345,-3.20794,0.03900439,0.85538
485.271,53.69276,-3.20933,0.04220212,0.8548
485.971,53.762,-3.21063,0.04058717,0.85422
486.671,53.831,-3.21194,0.04311382,0.85364
487.371,53.8999,-3.21227,0.04253016,0.85306
488.071,53.9692,-3.21359,0.04544852,0.85248
488.771,54.03826,-3.21487,0.04624556,0.8519
489.471,54.1076,-3.21481,0.04681449,0.85131
490.171,54.17675,-3.21496,0.04794211,0.85073
490.871,54.2459,-3.21753,0.04809346,0.85015
491.571,54.3149,-3.21849,0.04838812,0.84956
492.271,54.3841,-3.21984,0.05131258,0.84898
492.971,54.45318,-3.22117,0.05304213,0.84839
493.671,54.52242,-3.22247,0.05219639,0.84781
494.371,54.5914,-3.22247,0.05207186,0.84722
495.071,54.66046,-3.22379,0.05149581,0.84664
495.771,54.7293,-3.2251,0.05336537,0.84605
496.471,54.79844,-3.22644,0.05360803,0.84547
497.171,54.86755,-3.22773,0.05874428,0.84488
497.871,54.93675,-3.22932,0.05567161,0.84429
498.571,55.00603,-3.22938,0.05390865,0.8437
499.271,55.07521,-3.2307,0.05658722,0.84312
499.971,55.14439,-3.23114,0.05535879,0.84253
500.671,55.21363,-3.23213,0.05642484,0.84194
501.371,55.28289,-3.23306,0.05438498,0.84135
502.071,55.3524,-3.23442,0.05448314,0.84076
502.771,55.42182,-3.23574,0.055613,0.84017
503.471,55.4913,-3.23444,0.05279913,0.83958
504.171,55.5604,-3.23575,0.05387867,0.83899
504.871,55.62965,-3.23813,0.0546159,0.8384
505.571,55.699,-3.23947,0.05387544,0.8378
506.271,55.7683,-3.23948,0.05545974,0.83721
506.971,55.8375,-3.24123,0.05505429,0.83662
507.671,55.90661,-3.24253,0.05542341,0.83603
508.371,55.9759,-3.2431,0.05439942,0.83543
509.071,56.0452,-3.24389,0.0532078,0.83484
509.771,56.1144,-3.24386,0.05217728,0.83425
510.471,56.1834,-3.24402,0.05282425,0.83365
511.171,56.2526,-3.24634,0.05537167,0.83306
511.871,56.3217,-3.2465,0.05062447,0.83246
512.571,56.39095,-3.2465,0.05486683,0.83187
513.271,56.46009,-3.24781,0.05058835,0.83127
513.971,56.5293,-3.24778,0.0539889,0.83068
514.671,56.5983,-3.24934,0.05280095,0.83008
515.371,56.66766,-3.25045,0.05139941,0.82948
516.071,56.7367,-3.25048,0.05151217,0.82888
516.771,56.80615,-3.25175,0.05154173,0.82829
517.471,56.8753,-3.25308,0.05023999,0.82769
518.171,56.9448,-3.25439,0.04750988,0.82709
518.871,57.014,-3.25406,0.05042375,0.82649
519.571,57.08324,-3.25538,0.04817377,0.82589
520.271,57.15246,-3.25505,0.0485085,0.82529
520.971,57.22178,-3.25617,0.04506879,0.82469
521.671,57.29113,-3.2568,0.04582689,0.82409
522.371,57.3605,-3.25768,0.04732102,0.82349
523.071,57.42997,-3.259,0.04273548,0.82289
523.771,57.4994,-3.259,0.04363802,0.82229
524.471,57.5686,-3.259,0.0455263,0.82169
525.171,57.63779,-3.26032,0.04651321,0.82109
525.871,57.707,-3.26154,0.04495811,0.82048
526.571,57.77632,-3.26199,0.04325516,0.81988
527.271,57.84559,-3.26295,0.04265096,0.81928
527.971,57.915,-3.26426,0.04258088,0.81868
528.671,57.9845,-3.26558,0.0418216,0.81807
529.371,58.05396,-3.26558,0.03883573,0.81747
530.071,58.12353,-3.26689,0.03922762,0.81686
530.771,58.1932,-3.26623,0.03817174,0.81626
531.471,58.26285,-3.26754,0.0382933,0.81565
532.171,58.33256,-3.26623,0.03563395,0.81505
532.871,58.40217,-3.26755,0.03541754,0.81444
533.571,58.47178,-3.26887,0.03690994,0.81384
534.271,58.54136,-3.2702,0.0392074,0.81323
534.971,58.61099,-3.2715,0.03541715,0.81262
535.671,58.68062,-3.2715,0.03497491,0.81202
536.371,58.7503,-3.27283,0.03299933,0.81141
537.071,58.8199,-3.27282,0.03603932,0.8108
537.771,58.8896,-3.27283,0.03603972,0.8102
538.471,58.95925,-3.2728,0.03644818,0.80959
539.171,59.0288,-3.27545,0.03709125,0.80898
539.871,59.0983,-3.2754,0.03528252,0.80837
540.571,59.1679,-3.27546,0.03597386,0.80776
541.271,59.2374,-3.27676,0.0359737,0.80715
541.971,59.30709,-3.27685,0.03373305,0.80654
542.671,59.37664,-3.27939,0.03454035,0.80593
543.371,59.44605,-3.27808,0.03328449,0.80532
544.071,59.5156,-3.27807,0.03458158,0.80471
544.771,59.58514,-3.27941,0.03424005,0.8041
545.471,59.65495,-3.28006,0.03042249,0.80349
546.171,59.72472,-3.28006,0.03456685,0.80288
546.871,59.7946,-3.28047,0.03163317,0.80226
547.571,59.8642,-3.28143,0.03327021,0.80165
548.271,59.93404,-3.28397,0.03133695,0.80104
548.971,60.0038,-3.28404,0.03137082,0.80043
549.671,60.0739,-3.28303,0.03509238,0.79981
550.371,60.1436,-3.28403,0.03426712,0.7992
551.071,60.2134,-3.28535,0.03363682,0.79859
551.771,60.28297,-3.28664,0.03206646,0.79797
552.471,60.3528,-3.28664,0.03245585,0.79736
553.171,60.42253,-3.28751,0.03311949,0.79675
553.871,60.49213,-3.28796,0.03209925,0.79613
554.571,60.56185,-3.28931,0.03365804,0.79552
555.271,60.6316,-3.28927,0.03296472,0.7949
555.971,60.7014,-3.28925,0.03381232,0.79428
556.671,60.77084,-3.28993,0.03181586,0.79367
557.371,60.84061,-3.29125,0.03024215,0.79305
558.071,60.91044,-3.29128,0.03072496,0.79244
558.771,60.9806,-3.29256,0.03191094,0.79182
559.471,61.0505,-3.29256,0.02981156,0.7912
560.171,61.1204,-3.29389,0.02965894,0.79059
560.871,61.19024,-3.29389,0.03337243,0.78997
561.571,61.2602,-3.29454,0.03206423,0.78935
562.271,61.33021,-3.29454,0.03203128,0.78873
562.971,61.4001,-3.29586,0.0304577,0.78811
563.671,61.47002,-3.29717,0.03261183,0.7875
564.371,61.5396,-3.29619,0.03191037,0.78688
565.071,61.6097,-3.2975,0.03194898,0.78626
565.771,61.6797,-3.29717,0.03343014,0.78564
566.471,61.75,-3.29793,0.0367424,0.78502
567.171,61.82,-3.29793,0.0310796,0.7844
567.871,61.8902,-3.29859,0.033494,0.78378
568.571,61.9598,-3.29859,0.03496447,0.78316
569.271,62.02991,-3.3009,0.03568128,0.78254
569.971,62.09984,-3.30187,0.0313881,0.78192
570.671,62.1702,-3.30221,0.03431266,0.7813
571.371,62.24,-3.30221,0.03432379,0.78067
572.071,62.30985,-3.30354,0.03320081,0.78005
572.771,62.3798,-3.30419,0.03443959,0.77943
573.471,62.44987,-3.30353,0.03129331,0.77881
574.171,62.52006,-3.30353,0.033951,0.77819
574.871,62.59049,-3.30389,0.03662555,0.77756
575.571,62.6608,-3.3055,0.03073335,0.77694
576.271,62.73114,-3.3055,0.0330548,0.77632
576.971,62.80126,-3.30682,0.02805625,0.7757
577.671,62.8713,-3.30803,0.02793346,0.77507
578.371,62.94119,-3.30683,0.02413043,0.77445
579.071,63.011,-3.30814,0.02504228,0.77382
579.771,63.0809,-3.30945,0.02596819,0.7732
580.471,63.15084,-3.30946,0.02268539,0.77258
581.171,63.22076,-3.30945,0.02057052,0.77195
581.871,63.2907,-3.31077,0.01969828,0.77133
582.571,63.36042,-3.3121,0.01729309,0.7707
583.271,63.43031,-3.31208,0.01950551,0.77008
583.971,63.5,-3.31341,0.01208727,0.76945
584.671,63.56974,-3.31439,0.01578239,0.76882
585.371,63.6395,-3.31438,0.01440314,0.7682
586.071,63.7094,-3.3144,0.00748684,0.76757
586.771,63.7796,-3.3157,0.00715923,0.76695
587.471,63.84949,-3.3157,0.007616677,0.76632
588.171,63.9194,-3.3157,0.007611077,0.76569
588.871,63.9893,-3.31702,0.00692863,0.76507
589.571,64.05926,-3.31861,0.006206528,0.76444
590.271,64.12918,-3.32094,0.004421652,0.76381
590.971,64.19889,-3.32097,0.003417248,0.76318
591.671,64.2688,-3.31997,0.005834185,0.76256
592.371,64.33877,-3.32129,0.002961325,0.76193
593.071,64.40884,-3.32261,0.004840035,0.7613
593.771,64.47878,-3.32229,0.000449227,0.76067
594.471,64.5488,-3.32327,0.000560204,0.76004
595.171,64.61887,-3.32357,0.001178031,0.75941
595.871,64.68881,-3.32492,3.511502e-05,0.75879
596.571,64.75885,-3.32622,-0.001251078,0.75816
597.271,64.82893,-3.32622,0.001378237,0.75753
597.971,64.89915,-3.32489,-0.003541733,0.7569
598.671,64.96936,-3.32621,0.00168122,0.75627
599.371,65.0395,-3.32887,-9.664491e-06,0.75564
600.071,65.1097,-3.32788,0.002225267,0.75501
600.771,65.1799,-3.32788,-0.00096183,0.75438
601.471,65.25023,-3.32886,6.733393e-05,0.75375
602.171,65.32058,-3.3292,0.000243851,0.75312
602.871,65.39107,-3.32918,0.00124519,0.75249
603.571,65.46125,-3.33096,0.001529613,0.75185
604.271,65.53148,-3.33183,0.005336058,0.75122
604.971,65.60169,-3.33321,0.002182608,0.75059
605.671,65.67193,-3.33314,0.00430439,0.74996
606.371,65.74235,-3.33309,0.005332388,0.74933
607.071,65.81255,-3.33446,0.006987809,0.7487
607.771,65.88284,-3.33579,0.008684515,0.74806
608.471,65.95273,-3.3352,0.00938936,0.74743
609.171,66.02271,-3.33577,0.01005431,0.7468
609.871,66.09263,-3.33708,0.01062276,0.74617
610.571,66.1628,-3.33609,0.016299,0.74553
611.271,66.23266,-3.33743,0.01741589,0.7449
611.971,66.30252,-3.33743,0.0193627,0.74427
612.671,66.3722,-3.33711,0.02111101,0.74364
613.371,66.44206,-3.33706,0.02259966,0.743
614.071,66.5119,-3.33841,0.02166941,0.74237
614.771,66.5818,-3.33848,0.02550904,0.74173
615.471,66.6516,-3.33973,0.02817899,0.7411
616.171,66.72134,-3.33973,0.02693908,0.74047
616.871,66.79126,-3.34104,0.0275313,0.73983
617.571,66.86145,-3.33973,0.03258343,0.7392
618.271,66.93174,-3.3407,0.03071242,0.73856
618.971,67.00197,-3.34137,0.03144708,0.73793
619.671,67.07221,-3.34235,0.03412478,0.73729
620.371,67.1424,-3.34312,0.03384183,0.73666
621.071,67.2127,-3.34236,0.03465848,0.73602
621.771,67.28283,-3.34236,0.03178884,0.73539
622.471,67.35322,-3.34189,0.03276808,0.73475
623.171,67.4236,-3.34236,0.03098828,0.73412
623.871,67.494,-3.3436,0.03468422,0.73348
624.571,67.56427,-3.34466,0.03333262,0.73285
625.271,67.63445,-3.34608,0.0358918,0.73221
625.971,67.7045,-3.34598,0.03317913,0.73158
626.671,67.77458,-3.34598,0.03534236,0.73094
627.371,67.8442,-3.34598,0.03044095,0.7303
628.071,67.91463,-3.34598,0.03411711,0.72967
628.771,67.9849,-3.34607,0.0332721,0.72903
629.471,68.05575,-3.34599,0.0332381,0.72839
630.171,68.12589,-3.34598,0.03281874,0.72776
630.871,68.196,-3.34731,0.03224461,0.72712
631.571,68.2664,-3.3473,0.03001728,0.72648
632.271,68.3368,-3.34732,0.03168663,0.72585
632.971,68.40737,-3.34763,0.02861139,0.72521
633.671,68.47775,-3.34763,0.02983975,0.72457
634.371,68.54807,-3.34764,0.02826377,0.72393
635.071,68.61834,-3.34897,0.02847927,0.7233
635.771,68.68861,-3.34895,0.03181669,0.72266
636.471,68.75886,-3.34894,0.02984771,0.72202
637.171,68.8291,-3.35052,0.02931815,0.72138
637.871,68.8993,-3.35158,0.03088731,0.72075
638.571,68.9696,-3.35123,0.02890141,0.72011
639.271,69.03976,-3.35124,0.03022855,0.71947
639.971,69.11,-3.35124,0.0318424,0.71883
640.671,69.18011,-3.35124,0.0311387,0.71819
641.371,69.2505,-3.35157,0.03002643,0.71755
642.071,69.32075,-3.35289,0.03328688,0.71691
642.771,69.39111,-3.35289,0.03192833,0.71628
643.471,69.46144,-3.35289,0.0315057,0.71564
644.171,69.53181,-3.35287,0.03298078,0.715
644.871,69.60221,-3.35288,0.0345949,0.71436
645.571,69.67264,-3.35419,0.03231476,0.71372
646.271,69.7432,-3.35418,0.0320261,0.71308
646.971,69.8136,-3.35453,0.02948358,0.71244
647.671,69.8841,-3.35453,0.03359736,0.7118
648.371,69.9545,-3.35453,0.03374668,0.71116
649.071,70.02495,-3.35463,0.03149675,0.71052
649.771,70.09529,-3.35456,0.03282997,0.70988
650.471,70.1656,-3.35453,0.03288371,0.70924
651.171,70.23611,-3.35486,0.03248757,0.7086
651.871,70.3065,-3.35582,0.03135004,0.70796
652.571,70.3767,-3.35586,0.0293901,0.70732
653.271,70.44703,-3.35586,0.02919357,0.70668
653.971,70.5175,-3.35586,0.03111393,0.70604
654.671,70.58801,-3.35586,0.02898341,0.7054
655.371,70.65833,-3.3571,0.03042914,0.70476
656.071,70.72861,-3.35717,0.02743014,0.70412
656.771,70.79896,-3.35717,0.02890311,0.70348
657.471,70.8695,-3.35849,0.03056629,0.70284
658.171,70.93992,-3.35914,0.02782918,0.7022
658.871,71.01032,-3.35914,0.0316287,0.70156
659.571,71.08077,-3.35914,0.03583248,0.70092
660.271,71.1512,-3.36048,0.02888227,0.70028
660.971,71.22157,-3.35914,0.03028363,0.69964
661.671,71.2919,-3.35914,0.02739065,0.699
662.371,71.3622,-3.35983,0.03049116,0.69836
663.071,71.4325,-3.36112,0.02952926,0.69772
663.771,71.5025,-3.36112,0.03312106,0.69707
664.471,71.57258,-3.36114,0.03372747,0.69643
665.171,71.64294,-3.3622,0.03282573,0.69579
665.871,71.71338,-3.36112,0.03637675,0.69515
666.571,71.78369,-3.36112,0.03143388,0.69451
667.271,71.8536,-3.36277,0.03516851,0.69387
667.971,71.92365,-3.36358,0.03473766,0.69323
668.671,71.99378,-3.36242,0.03232606,0.69258
669.371,72.06399,-3.36177,0.03547274,0.69194
670.071,72.13417,-3.36177,0.0339837,0.6913
670.771,72.20408,-3.36177,0.03267331,0.69066
671.471,72.2741,-3.3631,0.03376939,0.69002
672.171,72.34421,-3.36309,0.0312024,0.68938
672.871,72.41466,-3.36309,0.03253339,0.68873
673.571,72.48512,-3.36309,0.03403782,0.68809
674.271,72.55556,-3.36411,0.03215355,0.68745
674.971,72.62576,-3.3644,0.03327541,0.68681
675.671,72.69605,-3.3644,0.03122187,0.68617
676.371,72.76625,-3.36447,0.03009845,0.68553
677.071,72.8366,-3.36506,0.03322585,0.68488
677.771,72.90689,-3.36507,0.02990848,0.68424
678.471,72.97743,-3.36441,0.0323892,0.6836
679.171,73.04794,-3.36441,0.03112239,0.68296
679.871,73.11851,-3.36446,0.02994424,0.68232
680.571,73.18894,-3.36506,0.03179869,0.68167
681.271,73.2594,-3.36507,0.03395085,0.68103
681.971,73.32965,-3.36638,0.03086307,0.68039
682.671,73.40006,-3.3677,0.02957034,0.67975
683.371,73.47074,-3.36635,0.0326119,0.6791
684.071,73.54132,-3.36572,0.03178964,0.67846
684.771,73.61203,-3.36669,0.03182498,0.67782
685.471,73.68255,-3.36704,0.03324428,0.67718
686.171,73.75321,-3.36833,0.03125976,0.67654
686.871,73.82393,-3.36832,0.02873806,0.67589
687.571,73.89475,-3.36704,0.0331268,0.67525
688.271,73.96534,-3.36834,0.03027293,0.67461
688.971,74.03578,-3.36836,0.02867222,0.67397
689.671,74.10635,-3.367,0.02981818,0.67332
690.371,74.17737,-3.36834,0.02949194,0.67268
691.071,74.24843,-3.36967,0.0337305,0.67204
691.771,74.31955,-3.37098,0.02945809,0.6714
692.471,74.39044,-3.36967,0.03163263,0.67075
693.171,74.46117,-3.3683,0.02930997,0.67011
693.871,74.53182,-3.36835,0.02983741,0.66947
694.571,74.60275,-3.36923,0.0278764,0.66883
695.271,74.67365,-3.37066,0.02502269,0.66818
695.971,74.74455,-3.37196,0.02562415,0.66754
696.671,74.81524,-3.37197,0.02465554,0.6669
697.371,74.88597,-3.37197,0.02533107,0.66626
698.071,74.95661,-3.37197,0.02568378,0.66561
698.771,75.02709,-3.37068,0.02324764,0.66497
699.471,75.09775,-3.37066,0.02894202,0.66433
700.171,75.16794,-3.37328,0.02566936,0.66369
700.871,75.2385,-3.37329,0.02501768,0.66304
701.571,75.30875,-3.37329,0.0284474,0.6624
702.271,75.3793,-3.37329,0.02563348,0.66176
702.971,75.44968,-3.37395,0.02428469,0.66112
703.671,75.52009,-3.37296,0.02564225,0.66048
704.371,75.59062,-3.37362,0.02307061,0.65983
705.071,75.66114,-3.37365,0.02563885,0.65919
705.771,75.73169,-3.37559,0.02355664,0.65855
706.471,75.8021,-3.37495,0.02270874,0.65791
707.171,75.87256,-3.37493,0.02226872,0.65726
707.871,75.94277,-3.37362,0.02250705,0.65662
708.571,76.01326,-3.37389,0.01959024,0.65598
709.271,76.08369,-3.37494,0.02364242,0.65534
709.971,76.15423,-3.37594,0.01940071,0.65469
710.671,76.22454,-3.37625,0.02079134,0.65405
711.371,76.29504,-3.37494,0.01988776,0.65341
712.071,76.3656,-3.37494,0.01930864,0.65277
712.771,76.4363,-3.37494,0.02262818,0.65213
713.471,76.50695,-3.3772,0.01758329,0.65148
714.171,76.57768,-3.37724,0.01738867,0.65084
714.871,76.64837,-3.37724,0.01543469,0.6502
715.571,76.71913,-3.37724,0.01484344,0.64956
716.271,76.78968,-3.37724,0.01317883,0.64892
716.971,76.86069,-3.37592,0.0159589,0.64827
717.671,76.93168,-3.37592,0.008992896,0.64763
718.371,77.00279,-3.37593,0.00700386,0.64699
719.071,77.07376,-3.37658,0.00934343,0.64635
719.771,77.14489,-3.37691,0.008243115,0.64571
720.471,77.21608,-3.37762,0.007269871,0.64507
721.171,77.2873,-3.37861,0.00639962,0.64442
721.871,77.35846,-3.37921,0.002217228,0.64378
722.571,77.42953,-3.37986,-0.000468882,0.64314
723.271,77.50061,-3.37918,0.003500744,0.6425
723.971,77.5717,-3.37921,0.007673062,0.64186
724.671,77.64308,-3.37789,0.006101351,0.64122
725.371,77.71432,-3.3779,0.004457815,0.64058
726.071,77.78531,-3.3779,0.00620053,0.63993
726.771,77.85632,-3.37924,0.005878409,0.63929
727.471,77.92715,-3.38053,0.00287369,0.63865
728.171,77.99834,-3.38037,0.005981569,0.63801
728.871,78.06936,-3.37988,0.003610666,0.63737
729.571,78.14053,-3.3799,-0.00106599,0.63673
730.271,78.21164,-3.38053,-0.00230736,0.63609
730.971,78.28269,-3.38053,-0.0033691,0.63545
731.671,78.3537,-3.38053,-0.005455161,0.63481
732.371,78.42446,-3.37911,-0.00600241,0.63417
733.071,78.49501,-3.37921,-0.005031945,0.63353
733.771,78.56603,-3.37911,-0.00312259,0.63289
734.471,78.63693,-3.38053,-0.00609759,0.63224
735.171,78.7082,-3.38053,-0.005180349,0.6316
735.871,78.77909,-3.38053,-0.008683676,0.63096
736.571,78.85024,-3.38053,-0.006805478,0.63032
737.271,78.9212,-3.38185,-0.01111499,0.62968
737.971,78.99201,-3.38185,-0.00825285,0.62904
738.671,79.06266,-3.38185,-0.0020246,0.6284
739.371,79.13329,-3.38298,-0.006168287,0.62776
740.071,79.20403,-3.38184,-0.006893225,0.62712
740.771,79.27469,-3.38227,-0.00533879,0.62648
741.471,79.34533,-3.38316,-0.009029211,0.62584
742.171,79.41547,-3.38217,-0.00865248,0.6252
742.871,79.48621,-3.38217,-0.00680221,0.62456
743.571,79.55696,-3.38219,-0.004647509,0.62392
744.271,79.62836,-3.38167,-0.006562976,0.62328
744.971,79.69926,-3.38217,-0.008874505,0.62265
745.671,79.77036,-3.38219,-0.006308995,0.62201
746.371,79.84128,-3.3835,-0.00771873,0.62137
747.071,79.9121,-3.38218,-0.00543433,0.62073
747.771,79.9826,-3.38219,-0.00721101,0.62009
748.471,80.05341,-3.38414,-0.01016816,0.61945
749.171,80.12446,-3.3825,-0.006760487,0.61881
749.871,80.19577,-3.38315,-0.007618858,0.61817
750.571,80.2667,-3.38415,-0.01067538,0.61753
751.271,80.33759,-3.38592,-0.009488935,0.6169
751.971,80.40852,-3.38626,-0.008809696,0.61626
752.671,80.47968,-3.38415,-0.01088124,0.61562
753.371,80.55083,-3.38515,-0.01055284,0.61498
754.071,80.62212,-3.38578,-0.009533414,0.61434
754.771,80.69301,-3.38612,-0.01160859,0.6137
755.471,80.76419,-3.38626,-0.01153993,0.61307
756.171,80.83521,-3.38515,-0.01335073,0.61243
756.871,80.9064,-3.38514,-0.01562511,0.61179
757.571,80.9773,-3.38514,-0.01361285,0.61115
758.271,81.04812,-3.38612,-0.01092668,0.61051
758.971,81.11883,-3.38612,-0.01448166,0.60988
759.671,81.18945,-3.38612,-0.01549128,0.60924
760.371,81.2601,-3.38777,-0.01621053,0.6086
761.071,81.3308,-3.38646,-0.01732549,0.60797
761.771,81.4016,-3.38751,-0.01638935,0.60733
762.471,81.47233,-3.38645,-0.01588069,0.60669
763.171,81.54311,-3.38648,-0.01395303,0.60606
763.871,81.61394,-3.38743,-0.01589965,0.60542
764.571,81.6849,-3.38745,-0.01541907,0.60478
765.271,81.756,-3.38776,-0.01554357,0.60415
765.971,81.82693,-3.38776,-0.01679124,0.60351
766.671,81.89793,-3.38908,-0.01979519,0.60287
767.371,81.96894,-3.38844,-0.02248097,0.60224
768.071,82.0402,-3.38908,-0.02194808,0.6016
768.771,82.1112,-3.38908,-0.01978902,0.60096
769.471,82.18226,-3.38908,-0.02262323,0.60033
770.171,82.25329,-3.38908,-0.02185051,0.59969
770.871,82.3244,-3.3904,-0.02073655,0.59906
771.571,82.39577,-3.38907,-0.02497416,0.59842
772.271,82.467,-3.3904,-0.0184626,0.59779
772.971,82.53819,-3.3904,-0.01852612,0.59715
773.671,82.6093,-3.38975,-0.01997792,0.59652
774.371,82.68037,-3.39106,-0.02063282,0.59588
775.071,82.75163,-3.39107,-0.01971686,0.59525
775.771,82.82284,-3.3904,-0.02112022,0.59461
776.471,82.89421,-3.39172,-0.02098441,0.59398
777.171,82.96547,-3.39173,-0.02408741,0.59334
777.871,83.03676,-3.38908,-0.0233079,0.59271
778.571,83.1078,-3.39044,-0.02471433,0.59208
779.271,83.17883,-3.3904,-0.02418329,0.59144
779.971,83.2497,-3.3904,-0.02738172,0.59081
780.671,83.32061,-3.39172,-0.02756047,0.59018
781.371,83.39149,-3.39172,-0.02692351,0.58954
782.071,83.4623,-3.39172,-0.02520556,0.58891
782.771,83.53314,-3.39172,-0.02697256,0.58828
783.471,83.60407,-3.39172,-0.0272936,0.58764
784.171,83.67526,-3.39172,-0.02904628,0.58701
784.871,83.7462,-3.39303,-0.02856655,0.58638
785.571,83.8173,-3.39303,-0.02634626,0.58574
786.271,83.8882,-3.3922,-0.03497777,0.58511
786.971,83.9592,-3.3923,-0.03241541,0.58448
787.671,84.02995,-3.3927,-0.03376252,0.58385
788.371,84.10076,-3.39402,-0.0335144,0.58322
789.071,84.1717,-3.39204,-0.03816118,0.58258
789.771,84.24275,-3.39326,-0.03903503,0.58195
790.471,84.3138,-3.39304,-0.03955989,0.58132
791.171,84.38472,-3.3928,-0.03950411,0.58069
791.871,84.45566,-3.39172,-0.03745541,0.58006
792.571,84.5268,-3.39304,-0.04045142,0.57943
793.271,84.59812,-3.39303,-0.04236443,0.5788
793.971,84.6694,-3.39171,-0.04067418,0.57817
794.671,84.7407,-3.39307,-0.03865026,0.57753
795.371,84.81204,-3.39438,-0.0357458,0.5769
796.071,84.8832,-3.39433,-0.03803237,0.57627
796.771,84.95447,-3.39432,-0.03866237,0.57564
797.171,84.99481,-3.39435,-0.0388237,0.57528