File: 01_Data/Bamboo_Rug_B/STA/N2/10K_min/Bamboo_Rug_B_STA_N2_10KData_220125_R3.csv
##Temp./Â°C,Time/min,Mass loss(subtr.2)/mg,DSC(subtr.2)/(mW/mg),Sensit./(uV/mW)
49.296,10.00917,-0.00955,0.01920514,1.07447
49.996,10.76562,-0.009325335,0.054695,1.07442
50.696,10.9685,-0.00892799,0.0808536,1.07437
51.396,11.12124,-0.01035609,0.10088,1.07432
52.096,11.24959,-0.008811024,0.11825,1.07427
52.796,11.365,-0.00913443,0.13539,1.07422
53.496,11.47086,-0.00838284,0.1451,1.07416
54.196,11.5703,-0.007309709,0.15658,1.07411
54.896,11.66577,-0.008834999,0.16395,1.07405
55.596,11.75736,-0.01023629,0.17334,1.07399
56.296,11.846,-0.009666818,0.18137,1.07394
56.996,11.93192,-0.00850336,0.18962,1.07388
57.696,12.01586,-0.0070675,0.19463,1.07382
58.396,12.09844,-0.00846255,0.20056,1.07375
59.096,12.17953,-0.00847741,0.2075,1.07369
59.796,12.26016,-0.008260748,0.20882,1.07363
60.496,12.34056,-0.00824483,0.2142,1.07356
61.196,12.41952,-0.008234603,0.21874,1.07349
61.896,12.49803,-0.009500306,0.22122,1.07343
62.596,12.57586,-0.009600736,0.22434,1.07336
63.296,12.6532,-0.008981928,0.2284,1.07329
63.996,12.72981,-0.0082267,0.23208,1.07322
64.696,12.80644,-0.008238465,0.23434,1.07314
65.396,12.88238,-0.006802346,0.23646,1.07307
66.096,12.9587,-0.009440136,0.24031,1.07299
66.796,13.03501,-0.009389059,0.24055,1.07292
67.496,13.11007,-0.00939531,0.24229,1.07284
68.196,13.18534,-0.01064747,0.24403,1.07276
68.896,13.26075,-0.009430016,0.24552,1.07268
69.596,13.33659,-0.01073666,0.24399,1.0726
70.296,13.4115,-0.01083243,0.24692,1.07252
70.996,13.4858,-0.01066427,0.24432,1.07244
71.696,13.56,-0.01207102,0.24785,1.07236
72.396,13.63419,-0.01074948,0.24676,1.07227
73.096,13.7084,-0.01075857,0.24953,1.07219
73.796,13.78261,-0.01180696,0.24827,1.0721
74.496,13.8565,-0.01087047,0.25081,1.07201
75.196,13.93016,-0.009220814,0.25116,1.07192
75.896,14.0036,-0.01184312,0.25094,1.07183
76.596,14.07712,-0.01236922,0.2538,1.07174
77.296,14.1501,-0.01315969,0.25503,1.07165
77.996,14.22285,-0.0131218,0.25607,1.07155
78.696,14.2954,-0.01360049,0.25477,1.07146
79.396,14.36796,-0.01295142,0.25608,1.07136
80.096,14.43999,-0.01295,0.26014,1.07126
80.796,14.5121,-0.01290816,0.25828,1.07116
81.496,14.58417,-0.01492646,0.25854,1.07106
82.196,14.6566,-0.01491951,0.25991,1.07096
82.896,14.72824,-0.01624286,0.26008,1.07086
83.596,14.7995,-0.01492024,0.25955,1.07076
84.296,14.87096,-0.01630007,0.26046,1.07065
84.996,14.9426,-0.01621293,0.26042,1.07055
85.696,15.014,-0.01621605,0.26141,1.07044
86.396,15.08495,-0.01547179,0.26138,1.07033
87.096,15.15574,-0.01739448,0.26074,1.07023
87.796,15.2265,-0.01887071,0.26246,1.07012
88.496,15.29703,-0.020183,0.2602,1.07
89.196,15.3674,-0.02117206,0.26215,1.06989
89.896,15.4376,-0.01989398,0.26072,1.06978
90.596,15.50772,-0.01854995,0.26115,1.06967
91.296,15.57765,-0.01720178,0.25937,1.06955
91.996,15.6475,-0.01724404,0.25965,1.06943
92.696,15.71725,-0.0178751,0.26032,1.06932
93.396,15.78715,-0.01722986,0.25907,1.0692
94.096,15.85695,-0.01723023,0.26011,1.06908
94.796,15.9267,-0.01588425,0.2602,1.06896
95.496,15.9962,-0.01485607,0.25768,1.06883
96.196,16.06577,-0.01642774,0.25893,1.06871
96.896,16.13537,-0.01901546,0.25935,1.06859
97.596,16.20437,-0.0177911,0.25984,1.06846
98.296,16.27368,-0.01679132,0.25889,1.06833
98.996,16.34271,-0.01810806,0.25791,1.06821
99.696,16.41207,-0.01774656,0.25742,1.06808
100.396,16.4813,-0.01645476,0.25973,1.06795
101.096,16.55039,-0.01777225,0.25734,1.06781
101.796,16.61973,-0.01908577,0.25753,1.06768
102.496,16.68872,-0.01776263,0.25745,1.06755
103.196,16.75777,-0.01776977,0.25717,1.06741
103.896,16.82634,-0.01841929,0.26069,1.06728
104.596,16.89496,-0.01878897,0.25946,1.06714
105.296,16.96329,-0.01908051,0.25774,1.067
105.996,17.03184,-0.01909004,0.2608,1.06687
106.696,17.1002,-0.0198349,0.25856,1.06673
107.396,17.16892,-0.01909007,0.25986,1.06658
108.096,17.23775,-0.01878575,0.26141,1.06644
108.796,17.30645,-0.01774646,0.26099,1.0663
109.496,17.37518,-0.01844935,0.26243,1.06615
110.196,17.44371,-0.01909036,0.26231,1.06601
110.896,17.51239,-0.01909053,0.26367,1.06586
111.596,17.58087,-0.01875366,0.26399,1.06571
112.296,17.64896,-0.01877,0.26223,1.06556
112.996,17.7173,-0.01876998,0.26351,1.06541
113.696,17.78537,-0.01798969,0.26537,1.06526
114.396,17.85383,-0.01777975,0.26671,1.06511
115.096,17.92212,-0.01913964,0.26776,1.06496
115.796,17.99028,-0.01909,0.26827,1.0648
116.496,18.05848,-0.01908999,0.26866,1.06465
117.196,18.12655,-0.01842122,0.26894,1.06449
117.896,18.195,-0.01908991,0.26852,1.06433
118.596,18.26309,-0.01909,0.2679,1.06417
119.296,18.33111,-0.01908994,0.26927,1.06401
119.996,18.39909,-0.01744529,0.27012,1.06385
120.696,18.4675,-0.01780892,0.26957,1.06369
121.396,18.53567,-0.01789002,0.27289,1.06353
122.096,18.60366,-0.01788163,0.2706,1.06336
122.796,18.67151,-0.01751377,0.27149,1.0632
123.496,18.73963,-0.01787812,0.27323,1.06303
124.196,18.80823,-0.01758179,0.27244,1.06286
124.896,18.8768,-0.01756009,0.27381,1.06269
125.596,18.94514,-0.0189004,0.27551,1.06252
126.296,19.01248,-0.01754974,0.27486,1.06235
126.996,19.08051,-0.01755,0.27664,1.06218
127.696,19.14844,-0.01754997,0.27702,1.06201
128.396,19.217,-0.01633111,0.27653,1.06183
129.096,19.2851,-0.01681328,0.27735,1.06166
129.796,19.35325,-0.0175599,0.27671,1.06148
130.496,19.4212,-0.0175717,0.27887,1.0613
131.196,19.48929,-0.01623748,0.28081,1.06113
131.896,19.55726,-0.01621219,0.28125,1.06095
132.596,19.62526,-0.01657011,0.27925,1.06077
133.296,19.6931,-0.01765552,0.28341,1.06058
133.996,19.76097,-0.01753191,0.28223,1.0604
134.696,19.82882,-0.01758034,0.28368,1.06022
135.396,19.89675,-0.01755998,0.28369,1.06003
136.096,19.9645,-0.01756176,0.28301,1.05985
136.796,20.03217,-0.0188782,0.28327,1.05966
137.496,20.10004,-0.01888,0.28174,1.05947
138.196,20.16806,-0.01888004,0.28348,1.05928
138.896,20.236,-0.02004257,0.28587,1.05909
139.596,20.30361,-0.02019001,0.28719,1.0589
140.296,20.371,-0.02022885,0.28501,1.05871
140.996,20.4388,-0.02050732,0.28493,1.05851
141.696,20.50647,-0.02052001,0.28588,1.05832
142.396,20.57425,-0.02051997,0.28527,1.05812
143.096,20.64174,-0.02072235,0.28796,1.05792
143.796,20.70937,-0.0215097,0.2896,1.05773
144.496,20.7769,-0.02151657,0.28958,1.05753
145.196,20.8444,-0.02052186,0.28979,1.05733
145.896,20.91167,-0.0205208,0.29082,1.05712
146.596,20.97914,-0.02183003,0.2934,1.05692
147.296,21.04646,-0.02183,0.29223,1.05672
147.996,21.11376,-0.02183,0.29558,1.05651
148.696,21.18102,-0.02183,0.29572,1.05631
149.396,21.24851,-0.02183065,0.29777,1.0561
150.096,21.31588,-0.02314877,0.29867,1.05589
150.796,21.38343,-0.02315,0.30029,1.05569
151.496,21.45075,-0.02315,0.30003,1.05548
152.196,21.51811,-0.02315,0.29955,1.05527
152.896,21.58541,-0.02315,0.30016,1.05505
153.596,21.65254,-0.02315,0.30272,1.05484
154.296,21.72004,-0.02315002,0.3037,1.05463
154.996,21.7874,-0.0244935,0.30433,1.05441
155.696,21.8548,-0.02445066,0.30592,1.0542
156.396,21.92217,-0.02412982,0.30848,1.05398
157.096,21.9893,-0.02413,0.30737,1.05376
157.796,22.0566,-0.02413,0.31082,1.05354
158.496,22.1238,-0.02412954,0.30948,1.05332
159.196,22.19119,-0.02545563,0.3109,1.0531
159.896,22.25854,-0.0254494,0.31267,1.05288
160.596,22.32583,-0.02415762,0.31248,1.05265
161.296,22.39271,-0.02512785,0.31482,1.05243
161.996,22.45956,-0.02545985,0.31664,1.0522
162.696,22.52676,-0.02546006,0.31696,1.05197
163.396,22.5941,-0.02649873,0.31607,1.05175
164.096,22.6613,-0.02677002,0.31725,1.05152
164.796,22.72851,-0.02677,0.31958,1.05129
165.496,22.79567,-0.02676998,0.31942,1.05106
166.196,22.86306,-0.0269577,0.3217,1.05083
166.896,22.93015,-0.0280893,0.32202,1.05059
167.596,22.99756,-0.02940578,0.32197,1.05036
168.296,23.06468,-0.02941004,0.32313,1.05012
168.996,23.13188,-0.02917189,0.32414,1.04989
169.696,23.19898,-0.02842,0.325,1.04965
170.396,23.26628,-0.02843334,0.32514,1.04941
171.096,23.33375,-0.02972905,0.32557,1.04917
171.796,23.40126,-0.02971929,0.32866,1.04893
172.496,23.46849,-0.03038994,0.33007,1.04869
173.196,23.53537,-0.0303905,0.32839,1.04845
173.896,23.6023,-0.02905997,0.32914,1.0482
174.596,23.66946,-0.0297296,0.32983,1.04796
175.296,23.7366,-0.03104278,0.33061,1.04771
175.996,23.80355,-0.03105012,0.33241,1.04747
176.696,23.86994,-0.03235975,0.33218,1.04722
177.396,23.93694,-0.03237319,0.33308,1.04697
178.096,24.00411,-0.0310465,0.33667,1.04672
178.796,24.07154,-0.03105,0.33568,1.04647
179.496,24.1383,-0.03104988,0.33579,1.04622
180.196,24.2053,-0.03243535,0.33472,1.04597
180.896,24.2724,-0.03368438,0.33673,1.04571
181.596,24.3395,-0.03235989,0.33774,1.04546
182.296,24.40683,-0.03331734,0.34022,1.0452
182.996,24.4739,-0.03335,0.33899,1.04495
183.696,24.5411,-0.03335,0.33953,1.04469
184.396,24.60815,-0.03335,0.34019,1.04443
185.096,24.67523,-0.03335,0.34147,1.04417
185.796,24.74214,-0.03335,0.3399,1.04391
186.496,24.80911,-0.03335,0.34266,1.04365
187.196,24.8761,-0.03331545,0.34264,1.04338
187.896,24.9432,-0.03360176,0.34377,1.04312
188.596,25.01021,-0.03500002,0.34464,1.04286
189.296,25.07721,-0.03498502,0.34307,1.04259
189.996,25.14409,-0.03482068,0.34357,1.04232
190.696,25.21108,-0.03532022,0.34375,1.04205
191.396,25.27799,-0.03598562,0.34709,1.04178
192.096,25.34495,-0.03598,0.34831,1.04151
192.796,25.41166,-0.03598,0.34834,1.04124
193.496,25.47852,-0.03598,0.35066,1.04097
194.196,25.54534,-0.03597968,0.35173,1.0407
194.896,25.61233,-0.03698614,0.35301,1.04042
195.596,25.67906,-0.03795082,0.35272,1.04015
196.296,25.7457,-0.03829196,0.35541,1.03987
196.996,25.81235,-0.0395982,0.35547,1.0396
197.696,25.8791,-0.0396,0.35448,1.03932
198.396,25.94582,-0.03960007,0.35572,1.03904
199.096,26.01245,-0.04052886,0.35707,1.03876
199.796,26.07883,-0.04092,0.35914,1.03848
200.496,26.1455,-0.04092,0.35626,1.0382
201.196,26.21216,-0.04091776,0.36006,1.03791
201.896,26.2789,-0.04223256,0.36068,1.03763
202.596,26.3453,-0.04289028,0.36069,1.03734
203.296,26.41187,-0.04289005,0.36186,1.03706
203.996,26.4786,-0.04352463,0.36323,1.03677
204.696,26.54519,-0.04388786,0.36259,1.03648
205.396,26.6117,-0.0448886,0.36354,1.03619
206.096,26.6781,-0.04619009,0.36635,1.0359
206.796,26.74457,-0.04619001,0.3646,1.03561
207.496,26.81123,-0.04671653,0.36742,1.03532
208.196,26.8777,-0.04620452,0.3684,1.03503
208.896,26.94411,-0.04855153,0.36758,1.03473
209.596,27.0104,-0.04888334,0.37086,1.03444
210.296,27.0769,-0.04970627,0.37178,1.03414
210.996,27.1435,-0.05012996,0.37021,1.03385
211.696,27.2101,-0.05013,0.37211,1.03355
212.396,27.2766,-0.05012954,0.37391,1.03325
213.096,27.34323,-0.05145697,0.37501,1.03295
213.796,27.40976,-0.05145143,0.37543,1.03265
214.496,27.4765,-0.05272485,0.3786,1.03235
215.196,27.5432,-0.05407729,0.37913,1.03204
215.896,27.60957,-0.05538969,0.3765,1.03174
216.596,27.67629,-0.05637693,0.37927,1.03143
217.296,27.74281,-0.05670932,0.38042,1.03113
217.996,27.8096,-0.05671,0.38116,1.03082
218.696,27.87612,-0.05777967,0.38299,1.03051
219.396,27.94254,-0.05813266,0.38398,1.03021
220.096,28.00897,-0.05900154,0.3862,1.0299
220.796,28.0756,-0.05901137,0.38601,1.02959
221.496,28.14234,-0.0596839,0.38684,1.02927
222.196,28.209,-0.0609901,0.3886,1.02896
222.896,28.2754,-0.06098996,0.38983,1.02865
223.596,28.34164,-0.06119976,0.38951,1.02833
224.296,28.40813,-0.06328788,0.39067,1.02802
224.996,28.4744,-0.06459748,0.39183,1.0277
225.696,28.541,-0.06460866,0.39488,1.02738
226.396,28.6076,-0.06614423,0.39481,1.02707
227.096,28.6744,-0.06724881,0.39662,1.02675
227.796,28.741,-0.06683779,0.39807,1.02643
228.496,28.8075,-0.06724044,0.40129,1.02611
229.196,28.87384,-0.0685789,0.40221,1.02578
229.896,28.94036,-0.07123275,0.40291,1.02546
230.596,29.00705,-0.07178974,0.40269,1.02514
231.296,29.074,-0.07355056,0.40209,1.02481
231.996,29.14058,-0.07383688,0.40212,1.02449
232.696,29.2072,-0.07514019,0.40522,1.02416
233.396,29.27344,-0.07591535,0.40794,1.02383
234.096,29.34008,-0.07780353,0.40872,1.0235
234.796,29.40676,-0.07777677,0.41299,1.02317
235.496,29.4737,-0.0790937,0.41427,1.02284
236.196,29.5404,-0.07909023,0.41801,1.02251
236.896,29.60708,-0.08061789,0.42103,1.02218
237.596,29.67401,-0.08304142,0.4262,1.02184
238.296,29.7408,-0.08310746,0.42777,1.02151
238.996,29.8076,-0.08303755,0.43349,1.02117
239.696,29.8743,-0.08561119,0.44034,1.02084
240.396,29.941,-0.08698513,0.44591,1.0205
241.096,30.0077,-0.08824577,0.44779,1.02016
241.796,30.07433,-0.08962031,0.45834,1.01982
242.496,30.1411,-0.0909291,0.46539,1.01948
243.196,30.2077,-0.09219318,0.47196,1.01914
243.896,30.27448,-0.09365467,0.48129,1.0188
244.596,30.3413,-0.09503275,0.49401,1.01846
245.296,30.4083,-0.09630585,0.5048,1.01811
245.996,30.47515,-0.09728682,0.51685,1.01777
246.696,30.54216,-0.09984609,0.5318,1.01742
247.396,30.6094,-0.10169,0.54859,1.01708
248.096,30.6764,-0.10372,0.56569,1.01673
248.796,30.7434,-0.10665,0.58575,1.01638
249.496,30.81018,-0.10827,0.61035,1.01603
250.196,30.87712,-0.11037,0.63145,1.01568
250.896,30.94412,-0.11234,0.64878,1.01533
251.596,31.01107,-0.11373,0.66219,1.01498
252.296,31.07808,-0.11508,0.6668,1.01463
252.996,31.14527,-0.11817,0.65875,1.01427
253.696,31.21218,-0.11949,0.64568,1.01392
254.396,31.279,-0.12187,0.62503,1.01356
255.096,31.3455,-0.1233,0.59854,1.01321
255.796,31.41214,-0.1259,0.56954,1.01285
256.496,31.4787,-0.12774,0.54234,1.01249
257.196,31.54547,-0.13158,0.51697,1.01213
257.896,31.6119,-0.13444,0.49581,1.01177
258.596,31.6784,-0.13706,0.47766,1.01141
259.296,31.7448,-0.13986,0.46141,1.01105
259.996,31.8113,-0.14426,0.45286,1.01068
260.696,31.8778,-0.14574,0.44721,1.01032
261.396,31.9444,-0.14861,0.43998,1.00996
262.096,32.01095,-0.15232,0.43532,1.00959
262.796,32.0773,-0.15342,0.43489,1.00922
263.496,32.14375,-0.15851,0.43521,1.00886
264.196,32.21042,-0.16037,0.43546,1.00849
264.896,32.27714,-0.16507,0.43497,1.00812
265.596,32.34394,-0.16738,0.43497,1.00775
266.296,32.41061,-0.17188,0.43682,1.00738
266.996,32.47721,-0.17697,0.43508,1.00701
267.696,32.54401,-0.17904,0.43822,1.00663
268.396,32.6108,-0.1834,0.43761,1.00626
269.096,32.67788,-0.18883,0.43647,1.00588
269.796,32.74485,-0.19237,0.4409,1.00551
270.496,32.8113,-0.19752,0.44223,1.00513
271.196,32.8783,-0.20152,0.44222,1.00476
271.896,32.94535,-0.20586,0.4447,1.00438
272.596,33.013,-0.21108,0.44423,1.004
273.296,33.08024,-0.21644,0.44503,1.00362
273.996,33.14735,-0.22107,0.44649,1.00324
274.696,33.2144,-0.22474,0.44719,1.00286
275.396,33.2814,-0.23071,0.447,1.00247
276.096,33.3484,-0.23662,0.44982,1.00209
276.796,33.41557,-0.24108,0.4484,1.00171
277.496,33.48254,-0.24723,0.45279,1.00132
278.196,33.5494,-0.25272,0.45319,1.00094
278.896,33.61647,-0.25694,0.45144,1.00055
279.596,33.68356,-0.26409,0.45479,1.00016
280.296,33.75078,-0.2713,0.45298,0.99977
280.996,33.81801,-0.27889,0.4538,0.99938
281.696,33.88517,-0.2836,0.45578,0.99899
282.396,33.9523,-0.28889,0.45557,0.9986
283.096,34.01941,-0.29487,0.45653,0.99821
283.796,34.08672,-0.30097,0.45653,0.99782
284.496,34.15404,-0.30608,0.4572,0.99742
285.196,34.22117,-0.31387,0.45801,0.99703
285.896,34.2881,-0.3212,0.45605,0.99663
286.596,34.35536,-0.32746,0.45768,0.99624
287.296,34.42272,-0.33366,0.45868,0.99584
287.996,34.49,-0.34021,0.45588,0.99544
288.696,34.5571,-0.34903,0.4581,0.99504
289.396,34.6242,-0.35567,0.45619,0.99465
290.096,34.6915,-0.36164,0.45968,0.99424
290.796,34.7586,-0.3687,0.46097,0.99384
291.496,34.82563,-0.37557,0.46142,0.99344
292.196,34.89265,-0.38198,0.46062,0.99304
292.896,34.9597,-0.38914,0.46358,0.99263
293.596,35.02673,-0.39737,0.4631,0.99223
294.296,35.09373,-0.40556,0.46423,0.99182
294.996,35.1607,-0.41225,0.46497,0.99142
295.696,35.2278,-0.41777,0.46538,0.99101
296.396,35.29463,-0.4261,0.46645,0.9906
297.096,35.36181,-0.43507,0.46661,0.99019
297.796,35.42888,-0.44278,0.46804,0.98978
298.496,35.4959,-0.44947,0.46954,0.98937
299.196,35.56283,-0.45733,0.46888,0.98896
299.896,35.62965,-0.46513,0.47227,0.98855
300.596,35.69635,-0.47302,0.47613,0.98814
301.296,35.76338,-0.48101,0.47558,0.98772
301.996,35.83061,-0.4891,0.47709,0.98731
302.696,35.89788,-0.49682,0.47922,0.98689
303.396,35.96481,-0.50625,0.48016,0.98648
304.096,36.0317,-0.51351,0.48118,0.98606
304.796,36.09859,-0.52182,0.48286,0.98564
305.496,36.16608,-0.52891,0.48402,0.98522
306.196,36.23318,-0.53745,0.48867,0.9848
306.896,36.3007,-0.5459,0.49152,0.98438
307.596,36.3677,-0.55554,0.49265,0.98396
308.296,36.4351,-0.56651,0.49852,0.98354
308.996,36.50238,-0.57432,0.50007,0.98312
309.696,36.56965,-0.58349,0.50259,0.98269
310.396,36.63686,-0.59284,0.50581,0.98227
311.096,36.70397,-0.60279,0.51122,0.98184
311.796,36.77125,-0.61196,0.51427,0.98142
312.496,36.83842,-0.62212,0.51615,0.98099
313.196,36.90574,-0.63157,0.52154,0.98056
313.896,36.97319,-0.64045,0.52329,0.98014
314.596,37.04048,-0.6515,0.53044,0.97971
315.296,37.10788,-0.66217,0.53284,0.97928
315.996,37.17521,-0.6732,0.53989,0.97885
316.696,37.24266,-0.68461,0.54656,0.97841
317.396,37.31001,-0.69494,0.54975,0.97798
318.096,37.37735,-0.70638,0.55561,0.97755
318.796,37.4446,-0.71851,0.56341,0.97711
319.496,37.512,-0.72955,0.57166,0.97668
320.196,37.57913,-0.74148,0.5773,0.97624
320.896,37.64642,-0.75518,0.58751,0.97581
321.596,37.71371,-0.7687,0.59387,0.97537
322.296,37.78127,-0.78126,0.60323,0.97493
322.996,37.8485,-0.79472,0.61136,0.97449
323.696,37.91575,-0.80917,0.62003,0.97406
324.396,37.98294,-0.82251,0.63124,0.97361
325.096,38.05058,-0.8364,0.63991,0.97317
325.796,38.1182,-0.85336,0.65147,0.97273
326.496,38.18593,-0.86895,0.66076,0.97229
327.196,38.25369,-0.88598,0.67591,0.97185
327.896,38.32127,-0.90377,0.68886,0.9714
328.596,38.38886,-0.92018,0.69968,0.97096
329.296,38.45632,-0.93819,0.71549,0.97051
329.996,38.52367,-0.95757,0.73183,0.97007
330.696,38.59109,-0.97653,0.7457,0.96962
331.396,38.6586,-0.99536,0.76495,0.96917
332.096,38.72617,-1.01652,0.78187,0.96872
332.796,38.7939,-1.03765,0.79912,0.96827
333.496,38.86145,-1.06219,0.82031,0.96782
334.196,38.92937,-1.08596,0.83882,0.96737
334.896,38.99718,-1.10933,0.85814,0.96692
335.596,39.0651,-1.13521,0.87438,0.96647
336.296,39.13288,-1.16214,0.893,0.96601
336.996,39.20093,-1.19148,0.91452,0.96556
337.696,39.2686,-1.21997,0.93192,0.9651
338.396,39.33655,-1.25179,0.94424,0.96465
339.096,39.40421,-1.28327,0.95597,0.96419
339.796,39.47231,-1.31549,0.96827,0.96374
340.496,39.54007,-1.34675,0.97509,0.96328
341.196,39.60795,-1.38198,0.97869,0.96282
341.896,39.6759,-1.41916,0.97835,0.96236
342.596,39.7439,-1.45422,0.97106,0.9619
343.296,39.8118,-1.49098,0.95629,0.96144
343.996,39.87947,-1.52711,0.93661,0.96098
344.696,39.94709,-1.56189,0.90986,0.96052
345.396,40.0146,-1.59939,0.87909,0.96005
346.096,40.08213,-1.63554,0.84159,0.95959
346.796,40.14975,-1.66913,0.79895,0.95913
347.496,40.21751,-1.70279,0.75752,0.95866
348.196,40.28503,-1.73653,0.71056,0.95819
348.896,40.35226,-1.76725,0.66444,0.95773
349.596,40.41941,-1.79347,0.62183,0.95726
350.296,40.4868,-1.82096,0.57944,0.95679
350.996,40.55373,-1.8474,0.53863,0.95632
351.696,40.6212,-1.86992,0.50599,0.95585
352.396,40.68841,-1.89267,0.47386,0.95538
353.096,40.7562,-1.9143,0.44202,0.95491
353.796,40.82347,-1.93118,0.41587,0.95444
354.496,40.8909,-1.94829,0.38934,0.95397
355.196,40.95821,-1.96556,0.36777,0.9535
355.896,41.02583,-1.98054,0.34529,0.95302
356.596,41.09332,-1.99405,0.32882,0.95255
357.296,41.1608,-2.00716,0.31424,0.95207
357.996,41.2282,-2.01958,0.30209,0.9516
358.696,41.2956,-2.03014,0.2886,0.95112
359.396,41.36299,-2.04126,0.27841,0.95064
360.096,41.43043,-2.05138,0.27061,0.95016
360.796,41.49785,-2.05947,0.2662,0.94969
361.496,41.56544,-2.07022,0.25565,0.94921
362.196,41.63317,-2.07958,0.253,0.94873
362.896,41.70087,-2.08884,0.24972,0.94825
363.596,41.76847,-2.09747,0.2454,0.94776
364.296,41.83611,-2.10554,0.24288,0.94728
364.996,41.9039,-2.11464,0.24263,0.9468
365.696,41.9718,-2.12281,0.23961,0.94631
366.396,42.03938,-2.13068,0.23814,0.94583
367.096,42.10694,-2.13743,0.23629,0.94535
367.796,42.1746,-2.14529,0.2335,0.94486
368.496,42.2423,-2.15353,0.23255,0.94437
369.196,42.3099,-2.16144,0.23223,0.94389
369.896,42.37753,-2.16913,0.23305,0.9434
370.596,42.44512,-2.17641,0.23036,0.94291
371.296,42.51271,-2.18361,0.22873,0.94242
371.996,42.58034,-2.19025,0.22961,0.94193
372.696,42.6481,-2.19895,0.22966,0.94144
373.396,42.716,-2.20582,0.22953,0.94095
374.096,42.78406,-2.21436,0.22657,0.94046
374.796,42.85196,-2.22131,0.22574,0.93997
375.496,42.92006,-2.22903,0.22481,0.93947
376.196,42.98792,-2.23664,0.22551,0.93898
376.896,43.0559,-2.24371,0.22364,0.93848
377.596,43.12377,-2.25167,0.22388,0.93799
378.296,43.19166,-2.25864,0.22141,0.93749
378.996,43.25985,-2.26651,0.22115,0.937
379.696,43.32785,-2.27409,0.21895,0.9365
380.396,43.39605,-2.28158,0.22028,0.936
381.096,43.46403,-2.28884,0.21979,0.9355
381.796,43.53222,-2.29722,0.21826,0.935
382.496,43.60034,-2.30509,0.21863,0.9345
383.196,43.66865,-2.3129,0.21814,0.934
383.896,43.737,-2.32054,0.21556,0.9335
384.596,43.80532,-2.32671,0.21705,0.933
385.296,43.87345,-2.33647,0.21586,0.9325
385.996,43.94124,-2.3433,0.21265,0.93199
386.696,44.0094,-2.35203,0.21077,0.93149
387.396,44.07775,-2.35996,0.21318,0.93099
388.096,44.14654,-2.3665,0.21055,0.93048
388.796,44.2149,-2.37465,0.21013,0.92998
389.496,44.2834,-2.38298,0.20752,0.92947
390.196,44.3516,-2.39041,0.20657,0.92896
390.896,44.41997,-2.39867,0.20661,0.92845
391.596,44.488,-2.40651,0.20304,0.92795
392.296,44.5565,-2.41516,0.20331,0.92744
392.996,44.62487,-2.42381,0.20391,0.92693
393.696,44.69328,-2.43212,0.20572,0.92642
394.396,44.76142,-2.43957,0.20411,0.92591
395.096,44.8294,-2.44734,0.20583,0.9254
395.796,44.89765,-2.45615,0.2041,0.92488
396.496,44.96589,-2.46473,0.20246,0.92437
397.196,45.03407,-2.47331,0.2035,0.92386
397.896,45.10201,-2.48074,0.20348,0.92334
398.596,45.16987,-2.48979,0.2033,0.92283
399.296,45.23793,-2.49832,0.20008,0.92231
399.996,45.30607,-2.5067,0.20283,0.9218
400.696,45.3743,-2.51774,0.20255,0.92128
401.396,45.4425,-2.52652,0.20504,0.92077
402.096,45.5107,-2.53644,0.20255,0.92025
402.796,45.57891,-2.54536,0.20371,0.91973
403.496,45.64713,-2.55488,0.20501,0.91921
404.196,45.71541,-2.56476,0.20242,0.91869
404.896,45.78373,-2.57342,0.20271,0.91817
405.596,45.85197,-2.58346,0.20518,0.91765
406.296,45.92013,-2.59367,0.20308,0.91713
406.996,45.9884,-2.60151,0.20261,0.91661
407.696,46.05672,-2.61141,0.20171,0.91608
408.396,46.12522,-2.61764,0.20107,0.91556
409.096,46.19356,-2.63242,0.20408,0.91504
409.796,46.26193,-2.64099,0.20125,0.91451
410.496,46.33005,-2.64982,0.20123,0.91399
411.196,46.3983,-2.66045,0.20268,0.91346
411.896,46.4668,-2.67028,0.20193,0.91294
412.596,46.53562,-2.67848,0.20294,0.91241
413.296,46.60427,-2.68783,0.20521,0.91188
413.996,46.67281,-2.69785,0.20277,0.91135
414.696,46.74122,-2.7073,0.20726,0.91083
415.396,46.80969,-2.7168,0.20706,0.9103
416.096,46.87794,-2.7279,0.20624,0.90977
416.796,46.94644,-2.73764,0.20545,0.90924
417.496,47.0149,-2.74707,0.2077,0.90871
418.196,47.08343,-2.75578,0.20823,0.90818
418.896,47.15178,-2.76589,0.20777,0.90764
419.596,47.2201,-2.7759,0.20807,0.90711
420.296,47.28855,-2.78444,0.20613,0.90658
420.996,47.35685,-2.7938,0.21062,0.90604
421.696,47.4253,-2.8033,0.20784,0.90551
422.396,47.4938,-2.81041,0.21005,0.90498
423.096,47.5623,-2.81956,0.20866,0.90444
423.796,47.63085,-2.82864,0.20909,0.9039
424.496,47.69947,-2.83871,0.20745,0.90337
425.196,47.76793,-2.84671,0.205,0.90283
425.896,47.83655,-2.85496,0.20625,0.90229
426.596,47.90511,-2.8629,0.20787,0.90175
427.296,47.97397,-2.87146,0.20772,0.90122
427.996,48.0426,-2.87746,0.20487,0.90068
428.696,48.11153,-2.88574,0.20289,0.90014
429.396,48.1805,-2.89413,0.20627,0.8996
430.096,48.24945,-2.90332,0.20575,0.89906
430.796,48.31847,-2.91089,0.19973,0.89851
431.496,48.38728,-2.91888,0.20257,0.89797
432.196,48.45595,-2.92259,0.1978,0.89743
432.896,48.52463,-2.93293,0.1968,0.89689
433.596,48.5933,-2.94121,0.19672,0.89634
434.296,48.66237,-2.94868,0.19707,0.8958
434.996,48.7311,-2.95559,0.193,0.89525
435.696,48.7998,-2.96257,0.19342,0.89471
436.396,48.86858,-2.9661,0.19185,0.89416
437.096,48.9373,-2.97034,0.19048,0.89362
437.796,49.0061,-2.98257,0.18988,0.89307
438.496,49.0747,-2.9902,0.18694,0.89252
439.196,49.14327,-2.99339,0.18386,0.89197
439.896,49.2119,-2.99944,0.18062,0.89142
440.596,49.28049,-3.0061,0.17867,0.89087
441.296,49.3492,-3.01177,0.17585,0.89033
441.996,49.41778,-3.01712,0.17211,0.88977
442.696,49.48621,-3.02197,0.16812,0.88922
443.396,49.5548,-3.02548,0.16584,0.88867
444.096,49.6235,-3.02968,0.16354,0.88812
444.796,49.69229,-3.03981,0.15723,0.88757
445.496,49.76089,-3.04465,0.15576,0.88702
446.196,49.82958,-3.04933,0.15192,0.88646
446.896,49.89843,-3.0532,0.1462,0.88591
447.596,49.96716,-3.05836,0.14399,0.88535
448.296,50.03577,-3.06317,0.14139,0.8848
448.996,50.10423,-3.06752,0.13578,0.88424
449.696,50.17289,-3.07126,0.13063,0.88369
450.396,50.24158,-3.07637,0.12486,0.88313
451.096,50.31026,-3.07922,0.12014,0.88258
451.796,50.37888,-3.0826,0.12083,0.88202
452.496,50.4474,-3.08612,0.11537,0.88146
453.196,50.51603,-3.08927,0.11146,0.8809
453.896,50.58452,-3.09414,0.10898,0.88034
454.596,50.65312,-3.09745,0.10724,0.87978
455.296,50.7215,-3.1008,0.10342,0.87922
455.996,50.78999,-3.10423,0.0994319,0.87866
456.696,50.85863,-3.10717,0.09830816,0.8781
457.396,50.92751,-3.11081,0.09548339,0.87754
458.096,50.99642,-3.11324,0.09541911,0.87698
458.796,51.06535,-3.11618,0.09080332,0.87642
459.496,51.13426,-3.1188,0.08730742,0.87585
460.196,51.2032,-3.12297,0.08637461,0.87529
460.896,51.27176,-3.12583,0.08458696,0.87473
461.596,51.3405,-3.12831,0.08112539,0.87416
462.296,51.40922,-3.13045,0.08213287,0.8736
462.996,51.4783,-3.13327,0.08051929,0.87303
463.696,51.54746,-3.13481,0.07931652,0.87247
464.396,51.61676,-3.13883,0.07818989,0.8719
465.096,51.686,-3.13893,0.07477306,0.87133
465.796,51.7551,-3.14224,0.07481202,0.87077
466.496,51.82416,-3.1444,0.07166496,0.8702
467.196,51.89325,-3.14586,0.07104286,0.86963
467.896,51.96247,-3.14951,0.07065882,0.86906
468.596,52.03156,-3.15087,0.0683946,0.86849
469.296,52.10065,-3.15379,0.06795663,0.86792
469.996,52.16964,-3.15512,0.06858334,0.86735
470.696,52.23881,-3.15513,0.06619432,0.86678
471.396,52.3078,-3.15699,0.06332821,0.86621
472.096,52.3769,-3.15919,0.06304936,0.86564
472.796,52.44588,-3.16074,0.06213873,0.86507
473.496,52.515,-3.16193,0.06335214,0.8645
474.196,52.58413,-3.16474,0.05914375,0.86392
474.896,52.65322,-3.16599,0.06131767,0.86335
475.596,52.72205,-3.1673,0.05875622,0.86278
476.296,52.7907,-3.1691,0.05539561,0.8622
476.996,52.85991,-3.17129,0.05633015,0.86163
477.696,52.92925,-3.17257,0.05914333,0.86105
478.396,52.99847,-3.17257,0.05613388,0.86048
479.096,53.06745,-3.17391,0.0562799,0.8599
479.796,53.13596,-3.17519,0.05746561,0.85932
480.496,53.20515,-3.17749,0.05523817,0.85875
481.196,53.27409,-3.17643,0.0535539,0.85817
481.896,53.34339,-3.17907,0.05340188,0.85759
482.596,53.41256,-3.18061,0.0538404,0.85701
483.296,53.4817,-3.18068,0.05261957,0.85644
483.996,53.551,-3.18189,0.05592197,0.85586
484.696,53.62005,-3.18419,0.05333989,0.85528
485.396,53.68934,-3.18551,0.0542153,0.8547
486.096,53.7585,-3.18551,0.05279604,0.85412
486.796,53.82781,-3.18637,0.05350865,0.85354
487.496,53.8969,-3.18692,0.05448346,0.85295
488.196,53.96643,-3.18825,0.05513993,0.85237
488.896,54.0357,-3.18957,0.05490616,0.85179
489.596,54.10507,-3.18958,0.05472991,0.85121
490.296,54.1743,-3.19088,0.05632439,0.85063
490.996,54.2433,-3.19343,0.05431464,0.85004
491.696,54.31247,-3.1938,0.05736243,0.84946
492.396,54.38151,-3.19483,0.05480945,0.84887
493.096,54.4505,-3.19481,0.0551896,0.84829
493.796,54.5195,-3.19615,0.05826421,0.84771
494.496,54.58854,-3.19878,0.05942643,0.84712
495.196,54.65785,-3.19791,0.06179344,0.84653
495.896,54.72693,-3.19878,0.0600549,0.84595
496.596,54.79595,-3.20007,0.05990653,0.84536
497.296,54.8649,-3.20064,0.06292125,0.84477
497.996,54.93414,-3.20147,0.06150127,0.84419
498.696,55.00337,-3.20273,0.06380345,0.8436
499.396,55.0726,-3.2041,0.06529124,0.84301
500.096,55.1416,-3.20461,0.06520407,0.84242
500.796,55.2105,-3.20536,0.06555602,0.84183
501.496,55.27959,-3.20536,0.0649402,0.84124
502.196,55.34868,-3.20668,0.06398621,0.84065
502.896,55.418,-3.20847,0.0651611,0.84006
503.596,55.48715,-3.21032,0.06393094,0.83947
504.296,55.5565,-3.2103,0.06345254,0.83888
504.996,55.6257,-3.21162,0.06497074,0.83829
505.696,55.69503,-3.21231,0.06376525,0.8377
506.396,55.7641,-3.21288,0.06410851,0.83711
507.096,55.8333,-3.21425,0.06290116,0.83651
507.796,55.9024,-3.21425,0.06088669,0.83592
508.496,55.97178,-3.21556,0.06195481,0.83533
509.196,56.0411,-3.21589,0.0599712,0.83473
509.896,56.1105,-3.21589,0.06168345,0.83414
510.596,56.1797,-3.21627,0.0627132,0.83355
511.296,56.24895,-3.21721,0.06048255,0.83295
511.996,56.31805,-3.21852,0.06018098,0.83236
512.696,56.3873,-3.21933,0.05801835,0.83176
513.396,56.4565,-3.22119,0.0593211,0.83116
514.096,56.5258,-3.22248,0.05888187,0.83057
514.796,56.59499,-3.22342,0.05662325,0.82997
515.496,56.66421,-3.2252,0.05844667,0.82937
516.196,56.73349,-3.22511,0.05922548,0.82878
516.896,56.80276,-3.22373,0.05762089,0.82818
517.596,56.8721,-3.22511,0.05457557,0.82758
518.296,56.9415,-3.22617,0.05694531,0.82698
518.996,57.01093,-3.22741,0.05747573,0.82638
519.696,57.0803,-3.22873,0.05443232,0.82579
520.396,57.1495,-3.22942,0.0534558,0.82519
521.096,57.21865,-3.23004,0.05403573,0.82459
521.796,57.2878,-3.23082,0.05437981,0.82399
522.496,57.35685,-3.23136,0.0517674,0.82339
523.196,57.426,-3.23096,0.05197854,0.82278
523.896,57.49501,-3.23126,0.0503885,0.82218
524.596,57.5642,-3.23408,0.05315804,0.82158
525.296,57.63318,-3.23434,0.05447413,0.82098
525.996,57.7023,-3.23531,0.05203875,0.82038
526.696,57.7714,-3.23615,0.05306782,0.81977
527.396,57.84046,-3.23707,0.05216105,0.81917
528.096,57.9097,-3.23794,0.05137069,0.81857
528.796,57.97895,-3.23794,0.05068057,0.81796
529.496,58.0483,-3.23926,0.0511436,0.81736
530.196,58.11772,-3.2392,0.0517658,0.81676
530.896,58.18719,-3.24038,0.04978091,0.81615
531.596,58.2569,-3.23925,0.04658668,0.81555
532.296,58.32634,-3.24062,0.04670415,0.81494
532.996,58.39584,-3.24189,0.04709446,0.81434
533.696,58.46538,-3.24321,0.04544647,0.81373
534.396,58.53504,-3.24322,0.04626303,0.81312
535.096,58.60479,-3.24325,0.04662682,0.81252
535.796,58.67439,-3.24323,0.04413585,0.81191
536.496,58.74417,-3.24452,0.04386622,0.8113
537.196,58.81374,-3.24457,0.0427338,0.81069
537.896,58.88335,-3.24584,0.04522101,0.81009
538.596,58.9527,-3.24584,0.04589684,0.80948
539.296,59.02219,-3.24715,0.04868201,0.80887
539.996,59.0916,-3.24847,0.04644605,0.80826
540.696,59.16104,-3.24847,0.0430287,0.80765
541.396,59.2306,-3.24984,0.04529888,0.80704
542.096,59.30015,-3.24978,0.04636001,0.80643
542.796,59.3699,-3.24978,0.04351858,0.80582
543.496,59.4397,-3.24978,0.04447751,0.80521
544.196,59.5093,-3.25111,0.04515956,0.8046
544.896,59.57891,-3.25242,0.0464362,0.80399
545.596,59.64835,-3.25368,0.0439808,0.80338
546.296,59.71801,-3.25373,0.04445393,0.80277
546.996,59.7879,-3.25243,0.04628342,0.80216
547.696,59.85768,-3.25374,0.04633935,0.80154
548.396,59.92745,-3.25503,0.04347312,0.80093
549.096,59.997,-3.25583,0.04130383,0.80032
549.796,60.06663,-3.25637,0.04154285,0.79971
550.496,60.13638,-3.2568,0.04220988,0.79909
551.196,60.20635,-3.25769,0.04103692,0.79848
551.896,60.276,-3.25901,0.04251521,0.79786
552.596,60.3457,-3.259,0.04069945,0.79725
553.296,60.41542,-3.259,0.04401032,0.79664
553.996,60.48545,-3.259,0.04444559,0.79602
554.696,60.55543,-3.25903,0.04186659,0.79541
555.396,60.6256,-3.26032,0.04285507,0.79479
556.096,60.6954,-3.26168,0.04366106,0.79417
556.796,60.76523,-3.26154,0.04411987,0.79356
557.496,60.8351,-3.26164,0.04337006,0.79294
558.196,60.90523,-3.26164,0.04158724,0.79233
558.896,60.97517,-3.26295,0.04277578,0.79171
559.596,61.04505,-3.26295,0.04322546,0.79109
560.296,61.11476,-3.26426,0.04398334,0.79048
560.996,61.18459,-3.26426,0.0443434,0.78986
561.696,61.25433,-3.26426,0.04342183,0.78924
562.396,61.3242,-3.26563,0.04323,0.78862
563.096,61.39419,-3.26549,0.04390138,0.788
563.796,61.46419,-3.2669,0.0420911,0.78738
564.496,61.5342,-3.2669,0.04383263,0.78677
565.196,61.60416,-3.2669,0.04469404,0.78615
565.896,61.67397,-3.26794,0.04263911,0.78553
566.596,61.74389,-3.26689,0.0435129,0.78491
567.296,61.81389,-3.26732,0.04387568,0.78429
567.996,61.88389,-3.26821,0.04487011,0.78367
568.696,61.95374,-3.26887,0.04347474,0.78305
569.396,62.0235,-3.26952,0.04114523,0.78243
570.096,62.09316,-3.27084,0.0435571,0.78181
570.796,62.1631,-3.27084,0.0473166,0.78118
571.496,62.233,-3.27084,0.04644592,0.78056
572.196,62.30314,-3.27217,0.04777092,0.77994
572.896,62.37255,-3.2715,0.04525849,0.77932
573.596,62.44262,-3.27216,0.04373116,0.7787
574.296,62.5126,-3.27349,0.04300078,0.77808
574.996,62.58276,-3.27348,0.04069635,0.77745
575.696,62.6527,-3.27478,0.04035872,0.77683
576.396,62.7227,-3.27612,0.03686052,0.77621
577.096,62.79305,-3.27742,0.03549083,0.77558
577.796,62.8631,-3.27744,0.03399369,0.77496
578.496,62.9333,-3.2785,0.03189466,0.77434
579.196,63.00346,-3.28004,0.03228352,0.77371
579.896,63.07371,-3.27893,0.02885459,0.77309
580.596,63.1438,-3.28006,0.0272774,0.77246
581.296,63.2139,-3.28138,0.02509731,0.77184
581.996,63.28377,-3.2827,0.02410737,0.77121
582.696,63.3538,-3.28269,0.02337284,0.77059
583.396,63.42405,-3.284,0.02143999,0.76996
584.096,63.49439,-3.28533,0.02156971,0.76934
584.796,63.5644,-3.28532,0.02030983,0.76871
585.496,63.63448,-3.28664,0.01922346,0.76809
586.196,63.7045,-3.28664,0.01466433,0.76746
586.896,63.7747,-3.28803,0.02002224,0.76683
587.596,63.84471,-3.28863,0.01762847,0.76621
588.296,63.91463,-3.28994,0.01848512,0.76558
588.996,63.9846,-3.29125,0.01928186,0.76495
589.696,64.05474,-3.29059,0.01822912,0.76433
590.396,64.12512,-3.29112,0.01718694,0.7637
591.096,64.19547,-3.29193,0.02042154,0.76307
591.796,64.26554,-3.2919,0.02170291,0.76244
592.496,64.33561,-3.29322,0.02089749,0.76182
593.196,64.40567,-3.29257,0.02094172,0.76119
593.896,64.4757,-3.29385,0.02075119,0.76056
594.596,64.5458,-3.29389,0.02164098,0.75993
595.296,64.61561,-3.29449,0.02288317,0.7593
595.996,64.68575,-3.29585,0.02809797,0.75867
596.696,64.75579,-3.29675,0.02467514,0.75804
597.396,64.82592,-3.29749,0.02660302,0.75741
598.096,64.8961,-3.29887,0.02995212,0.75678
598.796,64.9662,-3.29881,0.02759676,0.75615
599.496,65.03635,-3.29876,0.02750735,0.75552
600.196,65.10639,-3.2998,0.02840565,0.75489
600.896,65.17635,-3.30065,0.03025053,0.75426
601.596,65.2462,-3.30052,0.03524183,0.75363
602.296,65.31626,-3.30079,0.03672398,0.753
602.996,65.38631,-3.30217,0.03817908,0.75237
603.696,65.45647,-3.30211,0.03678891,0.75174
604.396,65.5262,-3.30211,0.03980911,0.75111
605.096,65.59599,-3.30254,0.04045398,0.75048
605.796,65.66582,-3.30264,0.04456755,0.74985
606.496,65.7359,-3.30257,0.04325856,0.74922
607.196,65.8061,-3.30375,0.04427583,0.74858
607.896,65.87623,-3.3061,0.04565945,0.74795
608.596,65.94626,-3.30606,0.04974775,0.74732
609.296,66.01631,-3.30606,0.05311033,0.74669
609.996,66.08627,-3.30607,0.05619151,0.74605
610.696,66.1564,-3.30607,0.0559463,0.74542
611.396,66.22649,-3.30639,0.05509607,0.74479
612.096,66.2968,-3.3064,0.06107042,0.74416
612.796,66.367,-3.30868,0.05580374,0.74352
613.496,66.43715,-3.30756,0.0613629,0.74289
614.196,66.50729,-3.30869,0.06079834,0.74226
614.896,66.5775,-3.30952,0.0622282,0.74162
615.596,66.64766,-3.31126,0.06471104,0.74099
616.296,66.718,-3.31137,0.06271185,0.74035
616.996,66.78824,-3.31,0.06353874,0.73972
617.696,66.85856,-3.31264,0.06176703,0.73909
618.396,66.9289,-3.31264,0.06384346,0.73845
619.096,66.99931,-3.31264,0.06314143,0.73782
619.796,67.0697,-3.31264,0.06123843,0.73718
620.496,67.14,-3.31264,0.06441753,0.73655
621.196,67.21038,-3.31264,0.06326445,0.73591
621.896,67.2808,-3.31264,0.06209282,0.73528
622.596,67.35099,-3.31409,0.06319028,0.73464
623.296,67.42113,-3.31445,0.06515821,0.73401
623.996,67.49139,-3.31395,0.06550949,0.73337
624.696,67.56165,-3.31395,0.06407416,0.73273
625.396,67.632,-3.3139,0.0627932,0.7321
626.096,67.7021,-3.31527,0.06271306,0.73146
626.796,67.77248,-3.31656,0.06042893,0.73083
627.496,67.84286,-3.31658,0.06213218,0.73019
628.196,67.91319,-3.3179,0.06141221,0.72955
628.896,67.98352,-3.3179,0.0617448,0.72892
629.596,68.05389,-3.3179,0.06220119,0.72828
630.296,68.1242,-3.3179,0.06096311,0.72764
630.996,68.19442,-3.3179,0.06271668,0.72701
631.696,68.26468,-3.31922,0.06434667,0.72637
632.396,68.33505,-3.31922,0.06203879,0.72573
633.096,68.40522,-3.31922,0.0625599,0.7251
633.796,68.47539,-3.31922,0.06344645,0.72446
634.496,68.54558,-3.32053,0.06053968,0.72382
635.196,68.616,-3.32049,0.06202514,0.72318
635.896,68.68635,-3.32053,0.06088124,0.72255
636.596,68.75672,-3.32185,0.0614657,0.72191
637.296,68.82721,-3.32284,0.05994287,0.72127
637.996,68.8976,-3.32284,0.06332841,0.72063
638.696,68.96809,-3.32152,0.05963628,0.71999
639.396,69.03845,-3.32317,0.0591721,0.71935
640.096,69.10874,-3.32185,0.05760751,0.71872
640.796,69.17908,-3.32316,0.0558918,0.71808
641.496,69.24946,-3.32249,0.05780247,0.71744
642.196,69.32,-3.32218,0.05927991,0.7168
642.896,69.3903,-3.32353,0.0627258,0.71616
643.596,69.46073,-3.32482,0.05644532,0.71552
644.296,69.5312,-3.32482,0.05783772,0.71488
644.996,69.6019,-3.32449,0.05829921,0.71425
645.696,69.67259,-3.32446,0.05837516,0.71361
646.396,69.7433,-3.32317,0.05865775,0.71297
647.096,69.81385,-3.32341,0.0601929,0.71233
647.796,69.8843,-3.32578,0.0594546,0.71169
648.496,69.9549,-3.3258,0.05607624,0.71105
649.196,70.02544,-3.32556,0.05784374,0.71041
649.896,70.09616,-3.32507,0.05558967,0.70977
650.596,70.1669,-3.32754,0.05541576,0.70913
651.296,70.23779,-3.32893,0.05655044,0.70849
651.996,70.30843,-3.32692,0.05799253,0.70785
652.696,70.37894,-3.32689,0.05624029,0.70721
653.396,70.44945,-3.32689,0.05783642,0.70657
654.096,70.52006,-3.32821,0.05647306,0.70593
654.796,70.59045,-3.32821,0.05510198,0.70529
655.496,70.66135,-3.32691,0.05643956,0.70465
656.196,70.73204,-3.32683,0.05435866,0.70401
656.896,70.80277,-3.32814,0.05350344,0.70337
657.596,70.87306,-3.32821,0.05627516,0.70273
658.296,70.94379,-3.32821,0.05543811,0.70209
658.996,71.0146,-3.32821,0.05756095,0.70145
659.696,71.08547,-3.32821,0.0579916,0.70081
660.396,71.15605,-3.33026,0.0587019,0.70016
661.096,71.22677,-3.33018,0.05952801,0.69952
661.796,71.29729,-3.33149,0.05829843,0.69888
662.496,71.36797,-3.33154,0.05599424,0.69824
663.196,71.4385,-3.33019,0.05742512,0.6976
663.896,71.509,-3.33115,0.05897198,0.69696
664.596,71.57941,-3.33082,0.05782669,0.69632
665.296,71.64996,-3.33151,0.05967976,0.69568
665.996,71.72063,-3.33151,0.0560897,0.69504
666.696,71.7911,-3.33085,0.05629771,0.69439
667.396,71.8614,-3.33083,0.05840463,0.69375
668.096,71.93159,-3.33216,0.05874928,0.69311
668.796,72.00186,-3.3321,0.05846586,0.69247
669.496,72.0723,-3.33281,0.05942237,0.69183
670.196,72.14267,-3.33132,0.05964375,0.69119
670.896,72.21288,-3.33278,0.06095197,0.69055
671.596,72.28304,-3.33409,0.06076487,0.6899
672.296,72.35339,-3.33525,0.05803244,0.68926
672.996,72.4238,-3.33534,0.05848748,0.68862
673.696,72.49419,-3.33534,0.05747451,0.68798
674.396,72.56446,-3.33539,0.05882648,0.68734
675.096,72.6349,-3.33402,0.0582809,0.68669
675.796,72.70525,-3.33474,0.05933951,0.68605
676.496,72.7757,-3.33468,0.06098793,0.68541
677.196,72.8462,-3.33461,0.05750413,0.68477
677.896,72.9165,-3.33604,0.05581428,0.68413
678.596,72.98675,-3.33595,0.05554404,0.68348
679.296,73.05671,-3.33716,0.05490526,0.68284
679.996,73.12698,-3.33599,0.05931196,0.6822
680.696,73.19715,-3.33731,0.05551477,0.68156
681.396,73.26767,-3.33753,0.05848173,0.68092
682.096,73.33804,-3.33863,0.0552677,0.68027
682.796,73.4084,-3.33731,0.05522813,0.67963
683.496,73.47867,-3.33731,0.0577212,0.67899
684.196,73.5492,-3.33731,0.05749095,0.67835
684.896,73.6195,-3.33732,0.06339789,0.6777
685.596,73.69,-3.33822,0.05834482,0.67706
686.296,73.76082,-3.3387,0.05703458,0.67642
686.996,73.83205,-3.33878,0.05920425,0.67578
687.696,73.90294,-3.33995,0.05427066,0.67514
688.396,73.9734,-3.33995,0.05597003,0.67449
689.096,74.0437,-3.34074,0.05460816,0.67385
689.796,74.1144,-3.34126,0.05591235,0.67321
690.496,74.1849,-3.34126,0.05568854,0.67257
691.196,74.25577,-3.34129,0.05394971,0.67192
691.896,74.32625,-3.3399,0.05423701,0.67128
692.596,74.39703,-3.33994,0.05483281,0.67064
693.296,74.46771,-3.34061,0.05517059,0.67
693.996,74.53849,-3.34061,0.06024119,0.66935
694.696,74.60935,-3.34094,0.05662202,0.66871
695.396,74.68006,-3.34225,0.05892666,0.66807
696.096,74.75059,-3.34357,0.0531819,0.66743
696.796,74.82091,-3.34357,0.05772502,0.66678
697.496,74.89097,-3.34357,0.05775391,0.66614
698.196,74.9615,-3.34341,0.05623746,0.6655
698.896,75.03219,-3.34391,0.05614741,0.66486
699.596,75.1033,-3.34423,0.0554712,0.66421
700.296,75.17415,-3.34423,0.0549217,0.66357
700.996,75.24498,-3.34423,0.05332369,0.66293
701.696,75.31582,-3.34357,0.05272519,0.66229
702.396,75.3864,-3.34427,0.05663217,0.66165
703.096,75.45703,-3.34423,0.05038787,0.661
703.796,75.52764,-3.34423,0.0475769,0.66036
704.496,75.59814,-3.34424,0.04705168,0.65972
705.196,75.66869,-3.3462,0.04397294,0.65908
705.896,75.73929,-3.3462,0.04686428,0.65843
706.596,75.8099,-3.3462,0.03949779,0.65779
707.296,75.88064,-3.34617,0.04055478,0.65715
707.996,75.95137,-3.34521,0.04277961,0.65651
708.696,76.02205,-3.34521,0.03651242,0.65586
709.396,76.09268,-3.34653,0.0397803,0.65522
710.096,76.16336,-3.34653,0.03586977,0.65458
710.796,76.2341,-3.34784,0.03233807,0.65394
711.496,76.30489,-3.34784,0.03180288,0.6533
712.196,76.3758,-3.3468,0.0334006,0.65265
712.896,76.4469,-3.34622,0.03164186,0.65201
713.596,76.51787,-3.34751,0.03325575,0.65137
714.296,76.58851,-3.34751,0.03125502,0.65073
714.996,76.65901,-3.34751,0.02535698,0.65009
715.696,76.72955,-3.34883,0.02827152,0.64944
716.396,76.80009,-3.34817,0.02857538,0.6488
717.096,76.87094,-3.34817,0.02741739,0.64816
717.796,76.94148,-3.34949,0.02620933,0.64752
718.496,77.0122,-3.34949,0.0262873,0.64688
719.196,77.08292,-3.34949,0.02517373,0.64624
719.896,77.1539,-3.34949,0.02601204,0.64559
720.596,77.2248,-3.34956,0.02736843,0.64495
721.296,77.2956,-3.34884,0.02834069,0.64431
721.996,77.36668,-3.34878,0.0241867,0.64367
722.696,77.43751,-3.34949,0.01959127,0.64303
723.396,77.50835,-3.34949,0.02497116,0.64239
724.096,77.5789,-3.35015,0.01799505,0.64174
724.796,77.64973,-3.35114,0.01735739,0.6411
725.496,77.72036,-3.35016,0.01666335,0.64046
726.196,77.791,-3.35015,0.02163429,0.63982
726.896,77.86166,-3.35145,0.02119328,0.63918
727.596,77.93248,-3.35156,0.0211821,0.63854
728.296,78.00312,-3.35147,0.0173106,0.6379
728.996,78.07376,-3.3501,0.02006144,0.63726
729.696,78.14448,-3.35146,0.02328132,0.63662
730.396,78.21539,-3.35206,0.01979684,0.63597
731.096,78.2864,-3.35409,0.01892996,0.63533
731.796,78.35719,-3.35408,0.01808505,0.63469
732.496,78.42815,-3.35283,0.01748579,0.63405
733.196,78.49895,-3.35125,0.01554344,0.63341
733.896,78.57006,-3.35412,0.0166413,0.63277
734.596,78.6411,-3.35545,0.01682351,0.63213
735.296,78.71206,-3.35541,0.0151279,0.63149
735.996,78.7829,-3.35409,0.01119075,0.63085
736.696,78.85391,-3.35419,0.01288997,0.63021
737.396,78.92492,-3.35397,0.01109866,0.62957
738.096,78.99588,-3.35409,0.00899828,0.62893
738.796,79.06665,-3.35409,0.005706646,0.62829
739.496,79.13769,-3.35409,0.006780377,0.62765
740.196,79.20866,-3.35409,0.005402233,0.62701
740.896,79.27974,-3.35409,0.002345621,0.62637
741.596,79.34999,-3.35409,0.002797676,0.62573
742.296,79.42103,-3.35541,0.00579946,0.62509
742.996,79.49206,-3.35543,0.0028075,0.62445
743.696,79.5638,-3.35674,0.00340004,0.62381
744.396,79.63499,-3.35685,0.004430906,0.62317
745.096,79.70608,-3.35706,0.00365529,0.62253
745.796,79.777,-3.35702,0.0007961225,0.62189
746.496,79.8479,-3.35838,-0.0003097034,0.62125
747.196,79.91886,-3.35621,0.0008423851,0.62061
747.896,79.99,-3.35637,0.001687137,0.61997
748.596,80.0609,-3.35721,0.003083732,0.61934
749.296,80.13197,-3.35772,0.0009756439,0.6187
749.996,80.20285,-3.36011,-0.001010175,0.61806
750.696,80.27369,-3.36002,-0.0005595302,0.61742
751.396,80.34448,-3.36002,-0.00153371,0.61678
752.096,80.4153,-3.35904,-0.003129732,0.61614
752.796,80.4862,-3.35741,-0.002893662,0.6155
753.496,80.55712,-3.35862,-0.002447382,0.61487
754.196,80.62791,-3.36004,-0.002538406,0.61423
754.896,80.69877,-3.36002,-0.003016146,0.61359
755.596,80.76954,-3.3587,-0.00733478,0.61295
756.296,80.84022,-3.3587,-0.00205142,0.61231
756.996,80.9109,-3.3587,-0.005063972,0.61168
757.696,80.98138,-3.36002,-0.005910839,0.61104
758.396,81.05198,-3.36002,-0.006944741,0.6104
759.096,81.12257,-3.36002,-0.0047326,0.60976
759.796,81.1935,-3.36002,-0.00556375,0.60913
760.496,81.26441,-3.36002,-0.00645785,0.60849
761.196,81.33524,-3.36074,-0.01058844,0.60785
761.896,81.40602,-3.36068,-0.006788176,0.60721
762.596,81.4768,-3.35999,-0.01042155,0.60658
763.296,81.5478,-3.36003,-0.009575006,0.60594
763.996,81.61873,-3.36003,-0.006577414,0.6053
764.696,81.68972,-3.36003,-0.01407185,0.60467
765.396,81.76076,-3.36003,-0.00707023,0.60403
766.096,81.8317,-3.36003,-0.01084978,0.6034
766.796,81.90275,-3.36003,-0.00749393,0.60276
767.496,81.9737,-3.36003,-0.009562131,0.60212
768.196,82.0448,-3.36134,-0.009867036,0.60149
768.896,82.11615,-3.36134,-0.00713315,0.60085
769.596,82.1874,-3.36134,-0.005203241,0.60022
770.296,82.25861,-3.36266,-0.0103517,0.59958
770.996,82.32979,-3.36266,-0.009484959,0.59894
771.696,82.40094,-3.36266,-0.009011089,0.59831
772.396,82.47184,-3.36266,-0.007807414,0.59767
773.096,82.54265,-3.36394,-0.00532245,0.59704
773.796,82.6134,-3.36397,-0.00718677,0.5964
774.496,82.6845,-3.36265,-0.009202037,0.59577
775.196,82.75537,-3.36266,-0.006563239,0.59513
775.896,82.82625,-3.36397,-0.01055642,0.5945
776.596,82.89713,-3.36332,-0.01129119,0.59387
777.296,82.96819,-3.36331,-0.01070129,0.59323
777.996,83.03936,-3.36331,-0.0086777,0.5926
778.696,83.11057,-3.36331,-0.01295413,0.59196
779.396,83.1816,-3.36326,-0.01141287,0.59133
780.096,83.25261,-3.36463,-0.01108267,0.5907
780.796,83.32348,-3.36463,-0.007453965,0.59006
781.496,83.3946,-3.36463,-0.01125615,0.58943
782.196,83.4656,-3.36594,-0.01494545,0.5888
782.896,83.53679,-3.36594,-0.01137819,0.58816
783.596,83.60778,-3.36498,-0.009562574,0.58753
784.296,83.67885,-3.3643,-0.009280795,0.5869
784.996,83.75,-3.36692,-0.01235643,0.58626
785.696,83.82145,-3.36695,-0.01534512,0.58563
786.396,83.8929,-3.36704,-0.01192549,0.585
787.096,83.96424,-3.36693,-0.01583015,0.58437
787.796,84.03536,-3.36785,-0.0139988,0.58373
788.496,84.10651,-3.36792,-0.01631392,0.5831
789.196,84.1777,-3.3679,-0.01611205,0.58247
789.896,84.249,-3.36824,-0.01396738,0.58184
790.596,84.3203,-3.36824,-0.01033133,0.58121
791.296,84.39164,-3.36824,-0.01745323,0.58058
791.996,84.4631,-3.36866,-0.01824771,0.57995
792.696,84.53443,-3.36858,-0.0180788,0.57931
793.396,84.60568,-3.36858,-0.01399972,0.57868
794.096,84.6767,-3.36857,-0.01530174,0.57805
794.796,84.748,-3.3699,-0.01479134,0.57742
795.496,84.81913,-3.3699,-0.01443294,0.57679
796.196,84.89055,-3.3699,-0.01497782,0.57616
796.896,84.96204,-3.36957,-0.01619069,0.57553
797.196,84.99301,-3.36957,-0.01196637,0.57526