File: 01_Data/Overstuffed_Chair_Polyurethane_Foam/FTIR/ATR/Overstuffed_Chair_Polyurethane_Foam_ATR_210608_R4.tst
4497.79,-0.00546
4493.93,-0.00549
4490.07,-0.00546
4486.22,-0.00521
4482.36,-0.00539
4478.5,-0.00534
4474.64,-0.00518
4470.79,-0.00531
4466.93,-0.00544
4463.07,-0.00522
4459.21,-0.00522
4455.36,-0.00522
4451.5,-0.00491
4447.64,-0.00502
4443.79,-0.00484
4439.93,-0.00465
4436.07,-0.00467
4432.21,-0.00479
4428.36,-0.00489
4424.5,-0.00457
4420.64,-0.00441
4416.78,-0.00423
4412.93,-0.00439
4409.07,-0.00438
4405.21,-0.00428
4401.35,-0.00441
4397.5,-0.00419
4393.64,-0.00416
4389.78,-0.00409
4385.92,-0.00419
4382.07,-0.00418
4378.21,-0.00404
4374.35,-0.00438
4370.49,-0.00417
4366.64,-0.00400
4362.78,-0.00374
4358.92,-0.00353
4355.06,-0.00372
4351.21,-0.00362
4347.35,-0.00358
4343.49,-0.00368
4339.63,-0.00346
4335.78,-0.00319
4331.92,-0.00340
4328.06,-0.00340
4324.2,-0.00325
4320.35,-0.00326
4316.49,-0.00340
4312.63,-0.00354
4308.77,-0.00358
4304.92,-0.00362
4301.06,-0.00377
4297.2,-0.00385
4293.34,-0.00374
4289.49,-0.00379
4285.63,-0.00382
4281.77,-0.00364
4277.91,-0.00377
4274.06,-0.00373
4270.2,-0.00362
4266.34,-0.00362
4262.48,-0.00365
4258.63,-0.00379
4254.77,-0.00377
4250.91,-0.00389
4247.06,-0.00402
4243.2,-0.00382
4239.34,-0.00362
4235.48,-0.00372
4231.63,-0.00383
4227.77,-0.00369
4223.91,-0.00364
4220.05,-0.00378
4216.2,-0.00381
4212.34,-0.00367
4208.48,-0.00373
4204.62,-0.00358
4200.77,-0.00369
4196.91,-0.00368
4193.05,-0.00353
4189.19,-0.00345
4185.34,-0.00348
4181.48,-0.00357
4177.62,-0.00368
4173.76,-0.00345
4169.91,-0.00355
4166.05,-0.00351
4162.19,-0.00349
4158.33,-0.00336
4154.48,-0.00330
4150.62,-0.00341
4146.76,-0.00352
4142.9,-0.00345
4139.05,-0.00331
4135.19,-0.00330
4131.33,-0.00343
4127.47,-0.00348
4123.62,-0.00339
4119.76,-0.00328
4115.9,-0.00318
4112.04,-0.00329
4108.19,-0.00309
4104.33,-0.00294
4100.47,-0.00299
4096.61,-0.00302
4092.76,-0.00316
4088.9,-0.00289
4085.04,-0.00271
4081.18,-0.00264
4077.33,-0.00290
4073.47,-0.00278
4069.61,-0.00269
4065.75,-0.00268
4061.9,-0.00254
4058.04,-0.00250
4054.18,-0.00249
4050.33,-0.00251
4046.47,-0.00216
4042.61,-0.00219
4038.75,-0.00252
4034.9,-0.00236
4031.04,-0.00240
4027.18,-0.00230
4023.32,-0.00206
4019.47,-0.00201
4015.61,-0.00210
4011.75,-0.00201
4007.89,-0.00184
4004.04,-0.00208
4000.18,-0.00225
3996.32,-0.00184
3992.46,-0.00155
3988.61,-0.00182
3984.75,-0.00199
3980.89,-0.00177
3977.03,-0.00123
3973.18,-0.00113
3969.32,-0.00163
3965.46,-0.00183
3961.6,-0.00095
3957.75,-0.00119
3953.89,-0.00132
3950.03,0.00011
3946.17,-0.00013
3942.32,-0.00046
3938.46,-0.00168
3934.6,-0.00062
3930.74,0.00058
3926.89,-0.00016
3923.03,0.00046
3919.17,0.00055
3915.31,-0.00063
3911.46,-0.00212
3907.6,-0.00043
3903.74,0.00427
3899.88,0.00292
3896.03,0.00020
3892.17,0.00137
3888.31,0.00041
3884.45,0.00234
3880.6,0.00106
3876.74,-0.00029
3872.88,0.00250
3869.02,0.00304
3865.17,0.00372
3861.31,0.00160
3857.45,0.00185
3853.59,0.00561
3849.74,0.00139
3845.88,0.00045
3842.02,0.00367
3838.17,0.00550
3834.31,0.00163
3830.45,0.00037
3826.59,0.00129
3822.74,0.00256
3818.88,0.00319
3815.02,0.00043
3811.16,-0.00099
3807.31,0.00059
3803.45,0.00209
3799.59,0.00249
3795.73,-0.00027
3791.88,-0.00188
3788.02,-0.00096
3784.16,-0.00017
3780.3,-0.00029
3776.45,-0.00135
3772.59,-0.00062
3768.73,0.00113
3764.87,0.00045
3761.02,0.00094
3757.16,0.00245
3753.3,0.00497
3749.44,0.00801
3745.59,0.00610
3741.73,0.00429
3737.87,0.00571
3734.01,0.00530
3730.16,0.00151
3726.3,0.00336
3722.44,0.00232
3718.58,0.00011
3714.73,0.00105
3710.87,0.00342
3707.01,0.00030
3703.15,0.00014
3699.3,-0.00054
3695.44,0.00009
3691.58,0.00307
3687.72,0.00248
3683.87,-0.00006
3680.01,0.00151
3676.15,0.00433
3672.29,0.00470
3668.44,0.00250
3664.58,-0.00012
3660.72,0.00036
3656.86,0.00173
3653.01,0.00306
3649.15,0.00949
3645.29,0.00356
3641.44,0.00187
3637.58,0.00164
3633.72,0.00332
3629.86,0.00611
3626.01,0.00367
3622.15,0.00387
3618.29,0.00721
3614.43,0.00701
3610.58,0.00650
3606.72,0.00480
3602.86,0.00449
3599,0.00621
3595.15,0.00572
3591.29,0.00523
3587.43,0.00795
3583.57,0.00515
3579.72,0.00468
3575.86,0.00462
3572,0.00521
3568.14,0.00944
3564.29,0.00835
3560.43,0.00577
3556.57,0.00503
3552.71,0.00608
3548.86,0.00667
3545,0.00808
3541.14,0.00529
3537.28,0.00570
3533.43,0.00572
3529.57,0.00765
3525.71,0.00911
3521.85,0.00749
3518,0.00603
3514.14,0.00582
3510.28,0.00704
3506.42,0.00711
3502.57,0.00850
3498.71,0.00677
3494.85,0.00627
3490.99,0.00614
3487.14,0.00670
3483.28,0.00695
3479.42,0.00661
3475.56,0.00608
3471.71,0.00577
3467.85,0.00609
3463.99,0.00667
3460.13,0.00691
3456.28,0.00637
3452.42,0.00616
3448.56,0.00728
3444.7,0.00730
3440.85,0.00658
3436.99,0.00624
3433.13,0.00634
3429.28,0.00655
3425.42,0.00697
3421.56,0.00806
3417.7,0.00756
3413.85,0.00772
3409.99,0.00808
3406.13,0.00845
3402.27,0.00916
3398.42,0.01013
3394.56,0.01111
3390.7,0.01164
3386.84,0.01244
3382.99,0.01360
3379.13,0.01433
3375.27,0.01514
3371.41,0.01616
3367.56,0.01764
3363.7,0.01825
3359.84,0.01895
3355.98,0.01974
3352.13,0.02022
3348.27,0.02089
3344.41,0.02196
3340.55,0.02302
3336.7,0.02427
3332.84,0.02483
3328.98,0.02586
3325.12,0.02669
3321.27,0.02743
3317.41,0.02841
3313.55,0.02960
3309.69,0.03080
3305.84,0.03129
3301.98,0.03182
3298.12,0.03241
3294.26,0.03268
3290.41,0.03291
3286.55,0.03269
3282.69,0.03253
3278.83,0.03218
3274.98,0.03187
3271.12,0.03095
3267.26,0.03008
3263.4,0.02911
3259.55,0.02802
3255.69,0.02701
3251.83,0.02539
3247.97,0.02436
3244.12,0.02320
3240.26,0.02172
3236.4,0.02058
3232.55,0.01960
3228.69,0.01864
3224.83,0.01740
3220.97,0.01694
3217.12,0.01622
3213.26,0.01570
3209.4,0.01514
3205.54,0.01477
3201.69,0.01449
3197.83,0.01412
3193.97,0.01347
3190.11,0.01291
3186.26,0.01264
3182.4,0.01222
3178.54,0.01190
3174.68,0.01130
3170.83,0.01080
3166.97,0.01042
3163.11,0.01025
3159.25,0.01000
3155.4,0.00999
3151.54,0.00985
3147.68,0.00970
3143.82,0.00955
3139.97,0.00947
3136.11,0.00945
3132.25,0.00946
3128.39,0.00937
3124.54,0.00932
3120.68,0.00937
3116.82,0.00912
3112.96,0.00883
3109.11,0.00880
3105.25,0.00870
3101.39,0.00904
3097.53,0.00903
3093.68,0.00893
3089.82,0.00901
3085.96,0.00927
3082.1,0.00966
3078.25,0.00957
3074.39,0.00937
3070.53,0.00950
3066.67,0.00983
3062.82,0.00975
3058.96,0.00950
3055.1,0.00954
3051.24,0.00950
3047.39,0.00953
3043.53,0.00949
3039.67,0.00958
3035.82,0.00989
3031.96,0.01037
3028.1,0.01004
3024.24,0.01004
3020.39,0.00990
3016.53,0.01000
3012.67,0.01104
3008.81,0.01190
3004.96,0.01364
3001.1,0.01657
2997.24,0.02112
2993.38,0.02757
2989.53,0.03544
2985.67,0.04440
2981.81,0.05394
2977.95,0.06330
2974.1,0.07168
2970.24,0.07483
2966.38,0.06781
2962.52,0.05445
2958.67,0.04402
2954.81,0.03957
2950.95,0.03915
2947.09,0.04176
2943.24,0.04727
2939.38,0.05513
2935.52,0.06312
2931.66,0.06766
2927.81,0.06771
2923.95,0.06601
2920.09,0.06490
2916.23,0.06501
2912.38,0.06624
2908.52,0.06840
2904.66,0.07115
2900.8,0.07352
2896.95,0.07489
2893.09,0.07536
2889.23,0.07564
2885.37,0.07666
2881.52,0.07905
2877.66,0.08267
2873.8,0.08626
2869.94,0.08852
2866.09,0.08809
2862.23,0.08464
2858.37,0.07853
2854.51,0.07048
2850.66,0.06124
2846.8,0.05171
2842.94,0.04277
2839.08,0.03512
2835.23,0.02912
2831.37,0.02478
2827.51,0.02179
2823.66,0.01978
2819.8,0.01838
2815.94,0.01747
2812.08,0.01683
2808.23,0.01638
2804.37,0.01603
2800.51,0.01576
2796.65,0.01546
2792.8,0.01505
2788.94,0.01466
2785.08,0.01416
2781.22,0.01374
2777.37,0.01330
2773.51,0.01290
2769.65,0.01241
2765.79,0.01195
2761.94,0.01158
2758.08,0.01125
2754.22,0.01082
2750.36,0.01049
2746.51,0.01026
2742.65,0.00994
2738.79,0.00963
2734.93,0.00942
2731.08,0.00916
2727.22,0.00882
2723.36,0.00849
2719.5,0.00814
2715.65,0.00774
2711.79,0.00742
2707.93,0.00715
2704.07,0.00702
2700.22,0.00687
2696.36,0.00667
2692.5,0.00642
2688.64,0.00627
2684.79,0.00621
2680.93,0.00620
2677.07,0.00612
2673.21,0.00607
2669.36,0.00608
2665.5,0.00596
2661.64,0.00577
2657.78,0.00560
2653.93,0.00536
2650.07,0.00517
2646.21,0.00492
2642.35,0.00474
2638.5,0.00465
2634.64,0.00448
2630.78,0.00430
2626.93,0.00424
2623.07,0.00402
2619.21,0.00372
2615.35,0.00364
2611.5,0.00359
2607.64,0.00359
2603.78,0.00362
2599.92,0.00354
2596.07,0.00363
2592.21,0.00363
2588.35,0.00359
2584.49,0.00351
2580.64,0.00337
2576.78,0.00325
2572.92,0.00304
2569.06,0.00285
2565.21,0.00271
2561.35,0.00255
2557.49,0.00247
2553.63,0.00245
2549.78,0.00242
2545.92,0.00238
2542.06,0.00238
2538.2,0.00247
2534.35,0.00245
2530.49,0.00236
2526.63,0.00224
2522.77,0.00224
2518.92,0.00228
2515.06,0.00227
2511.2,0.00232
2507.34,0.00238
2503.49,0.00235
2499.63,0.00217
2495.77,0.00226
2491.91,0.00231
2488.06,0.00238
2484.2,0.00227
2480.34,0.00219
2476.48,0.00230
2472.63,0.00244
2468.77,0.00249
2464.91,0.00242
2461.05,0.00226
2457.2,0.00222
2453.34,0.00214
2449.48,0.00204
2445.62,0.00196
2441.77,0.00198
2437.91,0.00214
2434.05,0.00221
2430.2,0.00227
2426.34,0.00218
2422.48,0.00216
2418.62,0.00211
2414.77,0.00219
2410.91,0.00230
2407.05,0.00232
2403.19,0.00233
2399.34,0.00244
2395.48,0.00242
2391.62,0.00248
2387.76,0.00263
2383.91,0.00308
2380.05,0.00312
2376.19,0.00231
2372.33,0.00076
2368.48,-0.00227
2364.62,-0.00434
2360.76,-0.00486
2356.9,-0.00336
2353.05,-0.00055
2349.19,0.00152
2345.33,-0.00055
2341.47,-0.00271
2337.62,-0.00268
2333.76,-0.00170
2329.9,-0.00028
2326.04,0.00063
2322.19,0.00183
2318.33,0.00272
2314.47,0.00321
2310.61,0.00397
2306.76,0.00412
2302.9,0.00404
2299.04,0.00395
2295.18,0.00403
2291.33,0.00415
2287.47,0.00435
2283.61,0.00458
2279.75,0.00457
2275.9,0.00473
2272.04,0.00456
2268.18,0.00433
2264.32,0.00407
2260.47,0.00387
2256.61,0.00368
2252.75,0.00355
2248.89,0.00339
2245.04,0.00324
2241.18,0.00308
2237.32,0.00285
2233.46,0.00292
2229.61,0.00293
2225.75,0.00236
2221.89,0.00219
2218.04,0.00233
2214.18,0.00217
2210.32,0.00166
2206.46,0.00186
2202.61,0.00190
2198.75,0.00162
2194.89,0.00138
2191.03,0.00112
2187.18,0.00153
2183.32,0.00055
2179.46,0.00047
2175.6,0.00057
2171.75,0.00037
2167.89,0.00044
2164.03,-0.00012
2160.17,-0.00019
2156.32,0.00050
2152.46,0.00149
2148.6,0.00142
2144.74,0.00132
2140.89,0.00168
2137.03,0.00172
2133.17,0.00170
2129.31,0.00171
2125.46,0.00189
2121.6,0.00194
2117.74,0.00195
2113.88,0.00206
2110.03,0.00188
2106.17,0.00187
2102.31,0.00210
2098.45,0.00238
2094.6,0.00245
2090.74,0.00278
2086.88,0.00284
2083.02,0.00283
2079.17,0.00264
2075.31,0.00261
2071.45,0.00288
2067.59,0.00340
2063.74,0.00345
2059.88,0.00310
2056.02,0.00299
2052.16,0.00314
2048.31,0.00284
2044.45,0.00317
2040.59,0.00358
2036.73,0.00333
2032.88,0.00313
2029.02,0.00303
2025.16,0.00341
2021.31,0.00333
2017.45,0.00479
2013.59,0.00406
2009.73,0.00376
2005.88,0.00405
2002.02,0.00378
1998.16,0.00391
1994.3,0.00432
1990.45,0.00480
1986.59,0.00422
1982.73,0.00406
1978.87,0.00394
1975.02,0.00360
1971.16,0.00393
1967.3,0.00498
1963.44,0.00378
1959.59,0.00395
1955.73,0.00457
1951.87,0.00449
1948.01,0.00468
1944.16,0.00567
1940.3,0.00508
1936.44,0.00467
1932.58,0.00452
1928.73,0.00440
1924.87,0.00579
1921.01,0.00654
1917.15,0.00588
1913.3,0.00517
1909.44,0.00595
1905.58,0.00496
1901.72,0.00475
1897.87,0.00522
1894.01,0.00569
1890.15,0.00591
1886.29,0.00535
1882.44,0.00502
1878.58,0.00483
1874.72,0.00500
1870.86,0.00723
1867.01,0.00781
1863.15,0.00573
1859.29,0.00562
1855.43,0.00509
1851.58,0.00539
1847.72,0.00760
1843.86,0.00870
1840,0.00636
1836.15,0.00635
1832.29,0.00677
1828.43,0.00791
1824.57,0.00757
1820.72,0.00638
1816.86,0.00652
1813,0.00750
1809.15,0.00810
1805.29,0.00783
1801.43,0.00982
1797.57,0.01018
1793.72,0.01152
1789.86,0.01020
1786,0.00941
1782.14,0.01051
1778.29,0.01082
1774.43,0.01217
1770.57,0.01359
1766.71,0.01210
1762.86,0.01310
1759,0.01532
1755.14,0.01726
1751.28,0.02359
1747.43,0.03398
1743.57,0.04135
1739.71,0.05356
1735.85,0.06566
1732,0.08196
1728.14,0.08292
1724.28,0.08254
1720.42,0.08193
1716.57,0.08403
1712.71,0.07716
1708.85,0.07378
1704.99,0.07243
1701.14,0.07025
1697.28,0.06673
1693.42,0.05918
1689.56,0.05879
1685.71,0.05965
1681.85,0.05896
1677.99,0.05650
1674.13,0.05737
1670.28,0.05956
1666.42,0.05888
1662.56,0.06229
1658.7,0.06562
1654.85,0.07165
1650.99,0.08364
1647.13,0.09430
1643.27,0.10271
1639.42,0.10566
1635.56,0.09133
1631.7,0.07346
1627.84,0.06511
1623.99,0.06374
1620.13,0.06526
1616.27,0.06963
1612.42,0.07351
1608.56,0.08255
1604.7,0.09156
1600.84,0.09700
1596.99,0.09654
1593.13,0.09160
1589.27,0.08388
1585.41,0.07450
1581.56,0.06602
1577.7,0.06407
1573.84,0.06840
1569.98,0.07988
1566.13,0.09710
1562.27,0.10996
1558.41,0.13559
1554.55,0.14979
1550.7,0.15740
1546.84,0.16474
1542.98,0.17702
1539.12,0.18310
1535.27,0.18334
1531.41,0.18122
1527.55,0.17643
1523.69,0.16691
1519.84,0.14758
1515.98,0.13536
1512.12,0.13044
1508.26,0.13371
1504.41,0.12321
1500.55,0.11814
1496.69,0.10779
1492.83,0.09982
1488.98,0.09832
1485.12,0.09319
1481.26,0.09679
1477.4,0.10494
1473.55,0.11133
1469.69,0.10338
1465.83,0.10310
1461.97,0.10621
1458.12,0.11593
1454.26,0.12447
1450.4,0.12411
1446.54,0.11828
1442.69,0.10512
1438.83,0.09213
1434.97,0.07460
1431.11,0.06645
1427.26,0.06356
1423.4,0.06631
1419.54,0.07346
1415.69,0.07926
1411.83,0.08038
1407.97,0.07885
1404.11,0.07566
1400.26,0.07340
1396.4,0.07356
1392.54,0.07189
1388.68,0.07560
1384.83,0.08507
1380.97,0.10160
1377.11,0.12811
1373.25,0.14426
1369.4,0.12541
1365.54,0.09398
1361.68,0.07101
1357.82,0.06146
1353.97,0.06283
1350.11,0.06841
1346.25,0.07438
1342.39,0.07871
1338.54,0.07928
1334.68,0.07286
1330.82,0.07029
1326.96,0.07018
1323.11,0.07267
1319.25,0.07754
1315.39,0.08196
1311.53,0.08635
1307.68,0.09058
1303.82,0.09573
1299.96,0.10145
1296.1,0.10483
1292.25,0.10187
1288.39,0.09630
1284.53,0.09291
1280.67,0.09341
1276.82,0.09477
1272.96,0.09676
1269.1,0.09905
1265.24,0.10140
1261.39,0.10349
1257.53,0.10433
1253.67,0.10635
1249.81,0.11149
1245.96,0.12019
1242.1,0.13241
1238.24,0.14690
1234.38,0.16225
1230.53,0.17646
1226.67,0.18634
1222.81,0.18746
1218.95,0.17913
1215.1,0.16551
1211.24,0.15138
1207.38,0.14028
1203.53,0.13247
1199.67,0.12407
1195.81,0.11425
1191.95,0.10813
1188.1,0.10695
1184.24,0.10697
1180.38,0.10763
1176.52,0.11181
1172.67,0.11959
1168.81,0.13001
1164.95,0.14178
1161.09,0.15329
1157.24,0.16408
1153.38,0.17419
1149.52,0.18368
1145.66,0.19396
1141.81,0.20653
1137.95,0.22160
1134.09,0.23889
1130.23,0.25697
1126.38,0.27732
1122.52,0.30248
1118.66,0.33161
1114.8,0.36147
1110.95,0.38954
1107.09,0.41395
1103.23,0.43337
1099.37,0.44706
1095.52,0.45557
1091.66,0.45863
1087.8,0.45681
1083.94,0.45057
1080.09,0.43882
1076.23,0.42097
1072.37,0.39903
1068.51,0.37556
1064.66,0.35153
1060.8,0.32682
1056.94,0.30118
1053.08,0.27392
1049.23,0.24544
1045.37,0.21832
1041.51,0.19594
1037.65,0.17841
1033.8,0.16379
1029.94,0.15271
1026.08,0.14885
1022.22,0.15260
1018.37,0.15899
1014.51,0.16210
1010.65,0.16003
1006.8,0.15618
1002.94,0.15173
999.08,0.14139
995.223,0.12333
991.365,0.10519
987.508,0.09193
983.65,0.08415
979.793,0.07996
975.935,0.07811
972.078,0.07802
968.221,0.07724
964.363,0.07488
960.506,0.07126
956.648,0.06727
952.791,0.06481
948.933,0.06680
945.076,0.07490
941.218,0.08599
937.361,0.09595
933.503,0.10321
929.646,0.10763
925.789,0.10909
921.931,0.10569
918.074,0.09908
914.216,0.09330
910.359,0.09060
906.501,0.08800
902.644,0.08178
898.786,0.07373
894.929,0.06948
891.072,0.06839
887.214,0.06990
883.357,0.07181
879.499,0.07370
875.642,0.07578
871.784,0.07799
867.927,0.07886
864.069,0.07762
860.212,0.07515
856.354,0.07237
852.497,0.07046
848.64,0.06912
844.782,0.06887
840.925,0.06978
837.067,0.07182
833.21,0.07546
829.352,0.08070
825.495,0.08782
821.637,0.09518
817.78,0.09952
813.922,0.09837
810.065,0.09363
806.208,0.08804
802.35,0.08233
798.493,0.07721
794.635,0.07235
790.778,0.06925
786.92,0.06847
783.063,0.06907
779.205,0.07117
775.348,0.07555
771.49,0.08019
767.633,0.08200
763.776,0.08051
759.918,0.07882
756.061,0.07713
752.203,0.07489
748.346,0.07103
744.488,0.06775
740.631,0.06545
736.773,0.06362
732.916,0.06364
729.058,0.06404
725.201,0.06559
721.344,0.06805
717.486,0.07187
713.629,0.07627
709.771,0.07871
705.914,0.07874
702.056,0.07861
698.199,0.08021
694.341,0.08298
690.484,0.08560
686.627,0.08762
682.769,0.08991
678.912,0.09227
675.054,0.09474
671.197,0.09654
667.339,0.09725
663.482,0.09819
659.624,0.09723
655.767,0.09503
651.909,0.09336
648.052,0.09162
644.195,0.09033
640.337,0.08986
636.48,0.08876
632.622,0.08712
628.765,0.08507
624.907,0.08412
621.05,0.08043
617.192,0.07732
613.335,0.07999
609.477,0.08182
605.62,0.08384
601.763,0.08579
599.834,0.08865