File: 01_Data/PC/STA/N2/30K_min/PC_STA_N2_30KData_211709_R1.csv
##Temp./Â°C,Time/min,DSC(subtr.2)/mW,Mass loss(subtr.2)/mg,DTG(subtr.2)/(mg/min),Sensit./(uV/mW)
49.383,10.01,0.10713,-0.02973,0.01310461,1.05401
50.083,11.0723,0.23422,-0.03230279,0.02426534,1.05402
50.783,11.30349,0.33627,-0.03476509,0.0005962212,1.05404
51.483,11.46391,0.41211,-0.0326783,-0.03558636,1.05405
52.183,11.58958,0.50393,-0.03356689,0.004025547,1.05405
52.883,11.69709,0.58524,-0.03252432,-0.009662673,1.05406
53.583,11.79119,0.63893,-0.03315004,0.01886677,1.05406
54.283,11.8764,0.70375,-0.03594904,-0.0153414,1.05406
54.983,11.95463,0.77276,-0.03426887,-0.009418223,1.05406
55.683,12.02758,0.82516,-0.03581215,0.007295991,1.05406
56.383,12.0958,0.87069,-0.03364241,0.02590291,1.05405
57.083,12.16058,0.91933,-0.03442219,-0.008439478,1.05404
57.783,12.2227,0.95249,-0.03480546,0.007669426,1.05403
58.483,12.28226,1.00585,-0.03315885,-0.01982498,1.05401
59.183,12.33943,1.03754,-0.03554228,0.003478358,1.054
59.883,12.39498,1.07611,-0.03292505,0.02804356,1.05398
60.583,12.4486,1.11982,-0.03314684,-0.01600863,1.05396
61.283,12.50073,1.1453,-0.03369752,-0.02239077,1.05394
61.983,12.55136,1.18103,-0.03618984,-0.01449206,1.05391
62.683,12.60135,1.21001,-0.03488101,0.04152835,1.05388
63.383,12.65055,1.23778,-0.03376776,-0.00301827,1.05385
64.083,12.69861,1.26458,-0.03352643,-0.01201077,1.05382
64.783,12.74565,1.2973,-0.03509161,-0.02104982,1.05378
65.483,12.7917,1.32135,-0.03387833,0.03310257,1.05375
66.183,12.8373,1.35335,-0.03259824,0.02258686,1.05371
66.883,12.88241,1.37804,-0.03273069,-0.0158184,1.05366
67.583,12.92689,1.40756,-0.03380534,-0.03543912,1.05362
68.283,12.97035,1.43329,-0.03619348,-0.03136365,1.05357
68.983,13.01349,1.44565,-0.03608648,0.0117138,1.05352
69.683,13.05648,1.4697,-0.03583251,-0.0319425,1.05347
70.383,13.09864,1.49505,-0.03710554,0.01052579,1.05342
71.083,13.14037,1.51101,-0.03666118,-0.01249786,1.05336
71.783,13.18164,1.53242,-0.03670699,-6.954641e-05,1.0533
72.483,13.2226,1.55853,-0.03662196,0.01403351,1.05324
73.183,13.2632,1.57261,-0.03574804,0.0183821,1.05318
73.883,13.3033,1.60174,-0.03530685,-0.009713161,1.05311
74.583,13.3431,1.61708,-0.03680112,-0.02247049,1.05305
75.283,13.3826,1.6393,-0.03677297,0.009280883,1.05298
75.983,13.42174,1.66185,-0.03675853,0.03359259,1.0529
76.683,13.4605,1.68445,-0.03391955,0.02282658,1.05283
77.383,13.4984,1.71398,-0.03518519,-0.02616838,1.05275
78.083,13.5364,1.73348,-0.0364313,-0.02252352,1.05267
78.783,13.57427,1.75732,-0.0361327,-0.009466146,1.05259
79.483,13.6117,1.77856,-0.03763904,-0.01731838,1.05251
80.183,13.649,1.80523,-0.03770386,0.01534178,1.05242
80.883,13.6858,1.82525,-0.03649796,0.01968329,1.05233
81.583,13.7222,1.8492,-0.03531107,0.008346957,1.05224
82.283,13.75828,1.86177,-0.03596276,-0.01886226,1.05215
82.983,13.79398,1.8726,-0.03624668,-0.01602993,1.05205
83.683,13.82954,1.88288,-0.03779469,-0.03445569,1.05196
84.383,13.8651,1.88567,-0.0392189,-0.02014783,1.05186
85.083,13.9,1.91285,-0.03938081,0.00596652,1.05176
85.783,13.93462,1.92009,-0.03876197,-0.005481889,1.05165
86.483,13.969,1.93895,-0.03907769,0.01034178,1.05154
87.183,14.0031,1.94706,-0.03736195,0.02284319,1.05144
87.883,14.03687,1.95291,-0.03734206,-0.004108603,1.05132
88.583,14.07029,1.97495,-0.03752052,-0.00106357,1.05121
89.283,14.10351,1.98312,-0.03864374,-0.02602434,1.0511
89.983,14.13641,1.99951,-0.03947111,-0.008236127,1.05098
90.683,14.16945,2.01526,-0.03855774,-0.001037833,1.05086
91.383,14.20204,2.02457,-0.03885076,-0.01352573,1.05074
92.083,14.2343,2.03764,-0.03929013,-0.000928912,1.05061
92.783,14.26626,2.05425,-0.03914608,-0.01241463,1.05049
93.483,14.29796,2.06623,-0.04076157,0.01560269,1.05036
94.183,14.32961,2.08705,-0.03815025,0.07511657,1.05023
94.883,14.36098,2.09984,-0.0357805,0.0140224,1.05009
95.583,14.39207,2.11687,-0.03699739,-0.03643919,1.04996
96.283,14.42291,2.13819,-0.03759229,-0.02629285,1.04982
96.983,14.4535,2.15226,-0.03909838,0.01043656,1.04968
97.683,14.48412,2.17725,-0.03714614,0.0351629,1.04954
98.383,14.51454,2.19539,-0.0367553,-0.01039475,1.0494
99.083,14.54478,2.2127,-0.03843484,-0.04633452,1.04925
99.783,14.5747,2.22823,-0.03948403,-0.02950831,1.0491
100.483,14.60435,2.24495,-0.03914531,0.003023282,1.04895
101.183,14.63406,2.26492,-0.03932867,0.00639994,1.0488
101.883,14.66358,2.2852,-0.03981903,0.004543545,1.04864
102.583,14.6929,2.3096,-0.03921883,0.02673584,1.04849
103.283,14.7218,2.32889,-0.03768444,0.02931585,1.04833
103.983,14.7507,2.34206,-0.03705923,0.003470342,1.04817
104.683,14.77956,2.35275,-0.03772089,-0.01997307,1.048
105.383,14.80843,2.36625,-0.03838416,-0.01316136,1.04784
106.083,14.8369,2.38998,-0.03814374,0.01811241,1.04767
106.783,14.86536,2.41129,-0.03804355,0.02358948,1.0475
107.483,14.89345,2.42678,-0.03679966,0.004137827,1.04733
108.183,14.9215,2.44346,-0.03670023,-0.02426549,1.04715
108.883,14.9494,2.46354,-0.03837663,-0.03285686,1.04698
109.583,14.97724,2.47106,-0.0392328,-0.01972348,1.0468
110.283,15.005,2.49767,-0.03912103,0.007038256,1.04662
110.983,15.03268,2.51346,-0.0393365,0.00963153,1.04643
111.683,15.0602,2.53418,-0.03904942,-0.0019524,1.04625
112.383,15.08765,2.54659,-0.03916956,-0.005813684,1.04606
113.083,15.1149,2.56265,-0.03878185,0.01793414,1.04587
113.783,15.14207,2.58455,-0.03858036,0.01869851,1.04568
114.483,15.1691,2.59707,-0.03828274,-0.0053762,1.04549
115.183,15.19607,2.628,-0.03804764,-0.00982744,1.0453
115.883,15.22296,2.64514,-0.03880773,0.004122272,1.0451
116.583,15.24964,2.65531,-0.03788038,0.01334451,1.0449
117.283,15.27625,2.68162,-0.0386767,-0.00177543,1.0447
117.983,15.3028,2.6927,-0.03771954,-0.01168539,1.04449
118.683,15.3292,2.70506,-0.03856661,-0.0147357,1.04429
119.383,15.35555,2.7188,-0.0394632,0.001444173,1.04408
120.083,15.38189,2.73487,-0.03794663,0.00150382,1.04387
120.783,15.408,2.75696,-0.03936431,-0.007505953,1.04366
121.483,15.43401,2.78035,-0.03855895,-0.0002716268,1.04345
122.183,15.45985,2.79054,-0.03938061,0.0003102277,1.04323
122.883,15.48572,2.80864,-0.03884356,0.01970974,1.04301
123.583,15.5114,2.81723,-0.03805674,0.00567854,1.04279
124.283,15.53701,2.84266,-0.03828535,-0.02231858,1.04257
124.983,15.5626,2.85435,-0.03981642,-0.03237392,1.04235
125.683,15.58808,2.8655,-0.04011691,-0.02332465,1.04212
126.383,15.61341,2.88338,-0.04105802,-0.00552819,1.04189
127.083,15.6387,2.90128,-0.0401174,0.001441261,1.04166
127.783,15.6638,2.9092,-0.04057966,-0.01221733,1.04143
128.483,15.6888,2.93028,-0.04031456,-0.0188578,1.0412
129.183,15.7138,2.93713,-0.04169065,-0.00835695,1.04096
129.883,15.73877,2.94416,-0.04173353,0.02159312,1.04072
130.583,15.7636,2.96671,-0.0402351,0.02428832,1.04048
131.283,15.7884,2.9817,-0.03998626,0.01046981,1.04024
131.983,15.8132,2.99836,-0.04018986,0.009862548,1.04
132.683,15.83787,3.00942,-0.03900074,-0.002594356,1.03975
133.383,15.86239,3.02443,-0.04046674,-0.03327996,1.0395
134.083,15.88681,3.04383,-0.04142961,-0.02878284,1.03926
134.783,15.91112,3.05453,-0.0417042,0.00290538,1.039
135.483,15.9354,3.0738,-0.04059987,0.005216434,1.03875
136.183,15.9596,3.08462,-0.04165825,-0.01005167,1.03849
136.883,15.98383,3.09827,-0.04172755,0.00851947,1.03824
137.583,16.00788,3.11807,-0.04046821,0.00611762,1.03798
138.283,16.03185,3.13252,-0.04147857,-0.01411572,1.03772
138.983,16.05576,3.14887,-0.04165259,0.005160574,1.03745
139.683,16.0797,3.1542,-0.04072564,0.0231563,1.03719
140.383,16.10354,3.18175,-0.04036344,0.008378162,1.03692
141.083,16.1275,3.19452,-0.04048783,-0.01272452,1.03665
141.783,16.15115,3.21205,-0.04091446,-0.02059406,1.03638
142.483,16.17472,3.22895,-0.04181197,0.004736072,1.03611
143.183,16.19823,3.24102,-0.04054068,0.0193388,1.03583
143.883,16.22168,3.26336,-0.04043718,0.00558471,1.03555
144.583,16.24511,3.29144,-0.04081264,0.00149579,1.03528
145.283,16.26844,3.31357,-0.04038564,-0.007145161,1.035
145.983,16.29177,3.33722,-0.04122486,-0.00656987,1.03471
146.683,16.31506,3.36207,-0.04052962,0.01149039,1.03443
147.383,16.33835,3.38464,-0.0405036,0.009966614,1.03414
148.083,16.36157,3.4205,-0.04019724,0.0008247555,1.03385
148.783,16.3847,3.45646,-0.04045899,0.007503366,1.03356
149.483,16.40775,3.50689,-0.04000715,0.01125226,1.03327
150.183,16.43081,3.54855,-0.03956776,-0.009287329,1.03298
150.883,16.4538,3.60568,-0.04045495,-0.01249281,1.03268
151.583,16.47671,3.6581,-0.04047876,-0.002566699,1.03239
152.283,16.4996,3.71998,-0.04047983,-0.001562107,1.03209
152.983,16.52231,3.77402,-0.04049581,-0.00842209,1.03179
153.683,16.5451,3.82527,-0.04107726,-0.01386079,1.03148
154.383,16.56781,3.8654,-0.04066774,-0.01771007,1.03118
155.083,16.59048,3.88968,-0.04202338,-0.01694531,1.03087
155.783,16.6131,3.91069,-0.0420051,0.004287656,1.03056
156.483,16.6357,3.93487,-0.04170235,0.02152628,1.03025
157.183,16.6582,3.94756,-0.04068342,0.0057486,1.02994
157.883,16.68062,3.96866,-0.04108255,-0.01072262,1.02963
158.583,16.70305,3.98768,-0.0417459,-0.0006464833,1.02931
159.283,16.72546,4.00709,-0.04076575,-0.008875729,1.02899
159.983,16.7479,4.02529,-0.04205006,-0.01548187,1.02868
160.683,16.7703,4.04866,-0.04200976,-0.00664205,1.02835
161.383,16.7927,4.06536,-0.04202421,-0.01236319,1.02803
162.083,16.81496,4.07948,-0.04247388,-0.01713609,1.02771
162.783,16.83719,4.0948,-0.04342522,0.00598395,1.02738
163.483,16.8594,4.11174,-0.04201288,0.01719912,1.02705
164.183,16.8815,4.14056,-0.0420103,-0.001444362,1.02672
164.883,16.9037,4.14721,-0.04204837,-0.01657817,1.02639
165.583,16.9257,4.1643,-0.04345133,-0.001562803,1.02606
166.283,16.9477,4.17342,-0.04210858,0.009312924,1.02572
166.983,16.9696,4.20184,-0.04199928,-0.009137376,1.02539
167.683,16.99147,4.20416,-0.04337833,-0.003481526,1.02505
168.383,17.01341,4.22084,-0.04239486,0.01283605,1.02471
169.083,17.03529,4.24089,-0.04201601,-0.00633484,1.02436
169.783,17.05712,4.24969,-0.04309794,-0.02247885,1.02402
170.483,17.079,4.26144,-0.04332513,-0.01157534,1.02368
171.183,17.1007,4.28166,-0.04333018,-0.001654485,1.02333
171.883,17.12248,4.28848,-0.04333003,-2.93029e-06,1.02298
172.583,17.14419,4.30492,-0.04333,7.246984e-07,1.02263
173.283,17.16587,4.32386,-0.04332999,5.39105e-05,1.02228
173.983,17.18751,4.33827,-0.04332988,0.002441805,1.02192
174.683,17.20905,4.34668,-0.0433291,0.01365699,1.02157
175.383,17.2306,4.3548,-0.04294748,0.02484443,1.02121
176.083,17.252,4.3799,-0.04203224,0.01434536,1.02085
176.783,17.27321,4.38492,-0.04202874,-0.009075831,1.02049
177.483,17.29465,4.39773,-0.04243178,-0.02056967,1.02013
178.183,17.31605,4.4177,-0.04333504,-0.006871314,1.01976
178.883,17.33737,4.42223,-0.04212666,-0.002092819,1.0194
179.583,17.3589,4.44483,-0.04332974,-0.007448615,1.01903
180.283,17.38014,4.45129,-0.04333017,0.008557676,1.01866
180.983,17.40137,4.45649,-0.04287436,0.02397224,1.01829
181.683,17.42265,4.48421,-0.04204398,0.01664485,1.01792
182.383,17.44388,4.50066,-0.04202768,0.009347785,1.01754
183.083,17.46501,4.50787,-0.04211932,0.01223765,1.01717
183.783,17.4861,4.51278,-0.04094032,-0.001793018,1.01679
184.483,17.5071,4.53025,-0.04209921,-0.01852852,1.01641
185.183,17.52809,4.55261,-0.04233009,-0.01160524,1.01603
185.883,17.54905,4.56085,-0.04233967,-0.00201526,1.01565
186.583,17.57,4.57492,-0.04234,-2.47279e-05,1.01527
187.283,17.59091,4.5811,-0.04234,2.8893e-07,1.01488
187.983,17.6117,4.5858,-0.04234,3.219858e-07,1.01449
188.683,17.6326,4.6089,-0.04233997,2.363276e-05,1.0141
189.383,17.6534,4.62277,-0.04233953,0.0008318055,1.01371
190.083,17.6741,4.63713,-0.0423321,0.00495356,1.01332
190.783,17.69474,4.6414,-0.04217982,0.01067749,1.01293
191.483,17.7153,4.65412,-0.04189226,0.007693902,1.01254
192.183,17.73602,4.67236,-0.04174953,-0.003102885,1.01214
192.883,17.75671,4.67485,-0.04200566,-0.01060782,1.01174
193.583,17.7774,4.68247,-0.0420123,-0.02062964,1.01134
194.283,17.7982,4.70068,-0.04319823,-0.02400987,1.01094
194.983,17.81879,4.70041,-0.04332416,-0.01162368,1.01054
195.683,17.83932,4.72541,-0.04332978,-0.001937054,1.01013
196.383,17.85983,4.72826,-0.04333,-2.63395e-05,1.00973
197.083,17.8804,4.74306,-0.04333,-0.0001733016,1.00932
197.783,17.90085,4.75597,-0.04332992,-0.003459986,1.00891
198.483,17.92134,4.76816,-0.04332823,-0.01531165,1.0085
199.183,17.94183,4.78193,-0.04383335,-0.02492948,1.00809
199.883,17.96225,4.7828,-0.04462718,-0.01456397,1.00768
200.583,17.98262,4.79002,-0.04464,0.00943922,1.00726
201.283,18.00305,4.80638,-0.04449586,0.03639473,1.00685
201.983,18.02344,4.82254,-0.04298778,0.04500069,1.00643
202.683,18.0438,4.82461,-0.04200026,0.0236256,1.00601
203.383,18.0641,4.84649,-0.04202047,-0.00570843,1.00559
204.083,18.08438,4.85187,-0.04223099,-0.02413086,1.00517
204.783,18.1047,4.86608,-0.04337698,-0.02599041,1.00474
205.483,18.12497,4.87625,-0.04328593,-0.02501789,1.00432
206.183,18.1452,4.88488,-0.04440827,-0.01703681,1.00389
206.883,18.1655,4.89732,-0.04473383,0.00704537,1.00346
207.583,18.1857,4.90529,-0.04339057,0.01330756,1.00303
208.283,18.20587,4.91644,-0.04365906,0.004364864,1.0026
208.983,18.22607,4.92815,-0.04371019,0.007845511,1.00217
209.683,18.2462,4.95006,-0.0433528,0.0133436,1.00174
210.383,18.26642,4.95789,-0.04333879,0.02075761,1.0013
211.083,18.28656,4.95497,-0.04230831,0.0213152,1.00087
211.783,18.30671,4.96725,-0.04204889,-0.002299161,1.00043
212.483,18.32679,4.98271,-0.04238824,-0.02571082,0.99999
213.183,18.34688,4.99201,-0.0435981,-0.02177599,0.99955
213.883,18.36691,5.00218,-0.04355343,-0.006727911,0.9991
214.583,18.3869,5.01851,-0.04355021,-0.001251115,0.99866
215.283,18.40692,5.01945,-0.04354953,-0.00599741,0.99822
215.983,18.42693,5.03423,-0.04354324,-0.01921175,0.99777
216.683,18.44687,5.04239,-0.04461235,-0.02359438,0.99732
217.383,18.4668,5.05598,-0.04485716,-0.005736287,0.99687
218.083,18.48679,5.05172,-0.04492022,0.01782751,0.99642
218.783,18.5067,5.06952,-0.04370373,0.0197315,0.99597
219.483,18.52664,5.08584,-0.04358428,-0.004991794,0.99552
220.183,18.54659,5.09106,-0.04418157,-0.02397014,0.99506
220.883,18.56645,5.10676,-0.04499704,-0.01150318,0.99461
221.583,18.58633,5.12091,-0.04503307,0.01516455,0.99415
222.283,18.60614,5.12428,-0.04384674,0.02340695,0.99369
222.983,18.626,5.13548,-0.04367105,0.01193462,0.99323
223.683,18.6458,5.14788,-0.04366084,0.00223325,0.99277
224.383,18.6656,5.15373,-0.0436602,-0.001879512,0.99231
225.083,18.6854,5.16787,-0.0436619,-0.01101299,0.99184
225.783,18.7052,5.17896,-0.04373192,-0.02335129,0.99138
226.483,18.72498,5.18956,-0.04505916,-0.01923093,0.99091
227.183,18.74479,5.19422,-0.04497519,0.002794146,0.99044
227.883,18.76449,5.21122,-0.04492246,0.02211472,0.98997
228.583,18.7842,5.22014,-0.04356348,0.02150013,0.9895
229.283,18.80398,5.22734,-0.0436528,0.007689511,0.98903
229.983,18.8237,5.24751,-0.04365672,-0.004603065,0.98856
230.683,18.84347,5.2545,-0.04362385,-0.0184525,0.98808
231.383,18.8632,5.25455,-0.04457944,-0.02425979,0.98761
232.083,18.8829,5.27955,-0.04495573,-0.0114414,0.98713
232.783,18.90258,5.27775,-0.04495571,0.009525277,0.98665
233.483,18.92225,5.29201,-0.04479846,0.02410895,0.98617
234.183,18.94184,5.2993,-0.04364474,0.01959821,0.98569
234.883,18.9615,5.30894,-0.04364863,0.002089106,0.98521
235.583,18.9811,5.30943,-0.04363984,-0.01610859,0.98473
236.283,19.00068,5.31877,-0.04436666,-0.02478767,0.98424
236.983,19.02024,5.33339,-0.0449681,-0.01601269,0.98376
237.683,19.03981,5.34286,-0.04497011,-0.00419997,0.98327
238.383,19.0593,5.35331,-0.04497003,-0.0003274748,0.98278
239.083,19.0789,5.35814,-0.04497,1.537399e-06,0.98229
239.783,19.09845,5.37855,-0.04496995,0.0002077239,0.9818
240.483,19.11796,5.37918,-0.04496918,0.003385013,0.98131
241.183,19.13756,5.37748,-0.04495762,0.01444828,0.98082
241.883,19.15709,5.39733,-0.0445488,0.02458107,0.98032
242.583,19.17657,5.40589,-0.04361435,0.01860237,0.97983
243.283,19.19606,5.40575,-0.04364696,0.00792124,0.97933
243.983,19.21559,5.42241,-0.04364798,0.01160473,0.97883
244.683,19.23497,5.43302,-0.04358559,0.02017518,0.97834
245.383,19.2544,5.45041,-0.04226757,0.007399371,0.97784
246.083,19.27375,5.45432,-0.04265578,-0.01702727,0.97733
246.783,19.29315,5.46485,-0.04366204,-0.02461806,0.97683
247.483,19.31255,5.48396,-0.04361115,-0.02598045,0.97633
248.183,19.33202,5.48443,-0.0447913,-0.02513981,0.97582
248.883,19.35143,5.48966,-0.04497881,-0.01331604,0.97532
249.583,19.3708,5.50721,-0.04498002,-0.00243529,0.97481
250.283,19.39023,5.51962,-0.04498027,0.00503525,0.9743
250.983,19.4096,5.52066,-0.04497424,0.01772792,0.97379
251.683,19.42897,5.5185,-0.04408337,0.02310423,0.97328
252.383,19.44836,5.53574,-0.04365392,0.00312934,0.97277
253.083,19.4678,5.54545,-0.04359337,-0.02763557,0.97226
253.783,19.48714,5.55429,-0.04544891,-0.03008486,0.97175
254.483,19.5065,5.56428,-0.04561087,0.01230743,0.97123
255.183,19.52589,5.55976,-0.04527726,0.07796404,0.97072
255.883,19.54522,5.56849,-0.04239328,0.10604,0.9702
256.583,19.5645,5.57805,-0.03902039,0.02353588,0.96968
257.283,19.58379,5.58357,-0.03960208,-0.12916,0.96916
257.983,19.6031,5.59128,-0.04555801,-0.19661,0.96864
258.683,19.62237,5.5972,-0.0506648,-0.11686,0.96812
259.383,19.6416,5.60735,-0.05097697,0.007019484,0.9676
260.083,19.66092,5.61101,-0.04791826,0.06392897,0.96708
260.783,19.6802,5.62657,-0.04759639,0.05398773,0.96655
261.483,19.6993,5.62399,-0.04629324,0.03094337,0.96603
262.183,19.7185,5.63351,-0.04628935,0.02182612,0.9655
262.883,19.73779,5.63458,-0.04611338,0.02153363,0.96497
263.583,19.757,5.64903,-0.04493672,0.004125391,0.96445
264.283,19.7762,5.65116,-0.04556745,-0.01794605,0.96392
264.983,19.79557,5.66336,-0.04629603,-0.01629322,0.96339
265.683,19.81475,5.66469,-0.04629217,-0.002080436,0.96285
266.383,19.83394,5.67308,-0.04631023,0.008913537,0.96232
267.083,19.85313,5.67853,-0.04583167,0.01227202,0.96179
267.783,19.8723,5.68291,-0.04563606,0.007263648,0.96125
268.483,19.89155,5.6933,-0.04563031,0.001810189,0.96072
269.183,19.9108,5.69177,-0.04562982,0.00134019,0.96018
269.883,19.93001,5.71147,-0.04562997,0.006253285,0.95965
270.583,19.94923,5.70589,-0.04565813,0.01229071,0.95911
271.283,19.9684,5.71672,-0.04494836,0.01045409,0.95857
271.983,19.98759,5.71431,-0.04496756,0.00368726,0.95803
272.683,20.00677,5.73104,-0.04496976,0.000456223,0.95749
273.383,20.02591,5.73174,-0.04496996,-2.67277e-06,0.95694
274.083,20.04505,5.73256,-0.04496984,-0.000340066,0.9564
274.783,20.06403,5.74375,-0.04496808,-0.003758038,0.95586
275.483,20.08314,5.74661,-0.04494901,-0.01582074,0.95531
276.183,20.10228,5.74797,-0.04535063,-0.03187837,0.95477
276.883,20.12141,5.75325,-0.04671964,-0.03215667,0.95422
277.583,20.1406,5.76782,-0.04694925,-0.01585087,0.95367
278.283,20.15993,5.77128,-0.04695001,-0.003344321,0.95312
278.983,20.1791,5.77688,-0.04695001,-0.0001945582,0.95257
279.683,20.19815,5.78037,-0.04695,9.290179e-08,0.95202
280.383,20.21718,5.78638,-0.04695001,8.09456e-07,0.95147
281.083,20.23626,5.79861,-0.04695014,0.000412729,0.95092
281.783,20.25539,5.79158,-0.04695186,0.003298853,0.95037
282.483,20.27444,5.80237,-0.04697309,0.009603181,0.94981
283.183,20.29374,5.80435,-0.04646868,0.01222189,0.94926
283.883,20.3129,5.81546,-0.0462967,0.0070547,0.9487
284.583,20.33209,5.82198,-0.04629042,0.001683888,0.94815
285.283,20.3512,5.83173,-0.04629002,0.0001118657,0.94759
285.983,20.3703,5.8385,-0.04629,1.000079e-07,0.94703
286.683,20.3894,5.84456,-0.04629,-1.65804e-08,0.94647
287.383,20.40849,5.8401,-0.04629,-1.95153e-09,0.94591
288.083,20.42758,5.8478,-0.04629,2.48256e-08,0.94535
288.783,20.4467,5.85429,-0.04629,-2.048042e-06,0.94479
289.483,20.46581,5.85888,-0.04628998,-0.0005193246,0.94423
290.183,20.48488,5.87137,-0.04628975,-0.005352248,0.94366
290.883,20.50402,5.86631,-0.04628706,-0.01851863,0.9431
291.583,20.5231,5.87571,-0.04696375,-0.02708403,0.94253
292.283,20.54224,5.88751,-0.04769513,-0.01800128,0.94197
292.983,20.56136,5.88485,-0.04771893,-0.005353355,0.9414
293.683,20.5805,5.88948,-0.04772097,-0.001538994,0.94083
294.383,20.59954,5.89719,-0.04770795,0.0003505228,0.94027
295.083,20.61865,5.91183,-0.04766476,0.003186795,0.9397
295.783,20.63774,5.91161,-0.04761684,0.002912945,0.93913
296.483,20.65683,5.91071,-0.04761057,0.00104155,0.93856
297.183,20.6759,5.91765,-0.04760821,0.00350563,0.93799
297.883,20.69497,5.92616,-0.0475858,0.014428,0.93741
298.583,20.71399,5.92074,-0.04725993,0.02460373,0.93684
299.283,20.73307,5.92008,-0.04628364,0.0170654,0.93627
299.983,20.75209,5.93775,-0.04629459,-0.005565658,0.93569
300.683,20.77115,5.93463,-0.04632702,-0.02902597,0.93512
301.383,20.79029,5.9434,-0.04784185,-0.04023902,0.93454
302.083,20.80927,5.94529,-0.04809959,-0.03058649,0.93397
302.783,20.8282,5.95236,-0.04914886,-0.0005915334,0.93339
303.483,20.84723,5.95303,-0.04828112,0.0245414,0.93281
304.183,20.8663,5.95969,-0.04749087,0.02052017,0.93223
304.883,20.8854,5.96595,-0.04749922,0.006254905,0.93165
305.583,20.90457,5.96276,-0.04749994,0.0006072921,0.93107
306.283,20.92377,5.96721,-0.0475,8.174446e-07,0.93049
306.983,20.9429,5.98052,-0.04750004,-4.70442e-05,0.92991
307.683,20.96195,5.97481,-0.04750034,-0.00187697,0.92933
308.383,20.98099,5.98796,-0.04750219,-0.01093987,0.92874
309.083,21.00008,5.99319,-0.04750233,-0.02554669,0.92816
309.783,21.01913,5.99615,-0.0489863,-0.02647122,0.92758
310.483,21.0382,5.99781,-0.04902236,-0.009180355,0.92699
311.183,21.05732,5.99918,-0.04901634,0.01180732,0.92641
311.883,21.07637,6.00785,-0.04866401,0.02419895,0.92582
312.583,21.09539,6.01914,-0.04767512,0.01913034,0.92523
313.283,21.11444,6.01456,-0.04771641,0.006614023,0.92465
313.983,21.13345,6.01581,-0.04771974,0.0008530501,0.92406
314.683,21.15247,6.023,-0.04771998,3.131437e-06,0.92347
315.383,21.17156,6.02213,-0.04772,-1.5106e-07,0.92288
316.083,21.19064,6.03837,-0.04772,1.011081e-05,0.92229
316.783,21.20978,6.03268,-0.04772,0.0009304053,0.9217
317.483,21.22887,6.04346,-0.04772027,0.00701288,0.92111
318.183,21.24792,6.05206,-0.04772581,0.01984976,0.92052
318.883,21.267,6.05308,-0.04664469,0.02446951,0.91992
319.583,21.28608,6.05469,-0.04642029,0.01366225,0.91933
320.283,21.30515,6.0603,-0.04640167,0.002645998,0.91874
320.983,21.32425,6.05764,-0.04639972,-0.004601764,0.91814
321.683,21.3433,6.06817,-0.04639534,-0.01673876,0.91755
322.383,21.36241,6.07602,-0.04696531,-0.02497638,0.91695
323.083,21.38149,6.07477,-0.04770265,-0.01698678,0.91636
323.783,21.40053,6.08352,-0.04771947,-0.00484188,0.91576
324.483,21.41955,6.07944,-0.04772003,-0.0004602508,0.91516
325.183,21.43863,6.09539,-0.04771985,-0.001137737,0.91456
325.883,21.45765,6.09808,-0.04771679,-0.00775947,0.91397
326.583,21.4767,6.09866,-0.04766995,-0.0204029,0.91337
327.283,21.49576,6.09879,-0.04881714,-0.02378374,0.91277
327.983,21.5149,6.10923,-0.04901698,-0.01198988,0.91217
328.683,21.53397,6.11595,-0.04903193,0.00308108,0.91157
329.383,21.55309,6.12325,-0.0490623,0.01805568,0.91097
330.083,21.57218,6.12214,-0.04819152,0.0238898,0.91037
330.783,21.59125,6.13117,-0.0477264,0.00953987,0.90976
331.483,21.61036,6.13669,-0.0477144,-0.01461677,0.90916
332.183,21.6294,6.13581,-0.04864866,-0.02918365,0.90856
332.883,21.64851,6.14191,-0.0490493,-0.03230169,0.90795
333.583,21.66762,6.15007,-0.04978809,-0.02879511,0.90735
334.283,21.68674,6.15434,-0.05035368,-0.01401159,0.90675
334.983,21.70584,6.1546,-0.05033658,0.008490621,0.90614
335.683,21.72495,6.15456,-0.0500907,0.02474244,0.90553
336.383,21.74404,6.15856,-0.04898436,0.02864699,0.90493
337.083,21.76313,6.15852,-0.04909365,0.03537876,0.90432
337.783,21.78227,6.15898,-0.0477465,0.04973777,0.90372
338.483,21.80145,6.16522,-0.04703246,0.05675364,0.90311
339.183,21.8206,6.1706,-0.04563652,0.05530655,0.9025
339.883,21.8398,6.16851,-0.04444361,0.05299353,0.90189
340.583,21.859,6.16945,-0.04396704,0.05534691,0.90128
341.283,21.8781,6.17318,-0.04197842,0.0524677,0.90067
341.983,21.8973,6.16948,-0.04169321,0.04329647,0.90006
342.683,21.91645,6.17336,-0.0410078,0.04120913,0.89945
343.383,21.93562,6.17871,-0.04018856,0.03918881,0.89884
344.083,21.9548,6.18174,-0.03911388,0.02375092,0.89823
344.783,21.97401,6.18995,-0.03890933,0.00351784,0.89762
345.483,21.99315,6.1812,-0.03968899,-0.008887746,0.89701
346.183,22.01233,6.20005,-0.03915742,-0.03361031,0.8964
346.883,22.03152,6.1892,-0.04012514,-0.07859517,0.89578
347.583,22.0507,6.21176,-0.04233265,-0.11065,0.89517
348.283,22.0699,6.22256,-0.04484507,-0.11199,0.89456
348.983,22.089,6.22742,-0.04696506,-0.09656597,0.89394
349.683,22.10815,6.23128,-0.04807295,-0.08036015,0.89333
350.383,22.12731,6.23107,-0.0506561,-0.05492267,0.89272
351.083,22.14647,6.24493,-0.05077918,-0.02228468,0.8921
351.783,22.16573,6.24034,-0.05078902,-0.003863218,0.89149
352.483,22.18498,6.24977,-0.05078901,0.002349684,0.89087
353.183,22.2042,6.25784,-0.05077864,0.01195694,0.89025
353.883,22.22342,6.26045,-0.05063188,0.02104757,0.88964
354.583,22.24263,6.26211,-0.04943546,0.008245898,0.88902
355.283,22.2619,6.26773,-0.04960376,-0.01605088,0.8884
355.983,22.28109,6.27336,-0.05079353,-0.01926434,0.88779
356.683,22.30038,6.26922,-0.0507901,-0.0074159,0.88717
357.383,22.31963,6.2718,-0.05078999,-0.001012396,0.88655
358.083,22.33892,6.27684,-0.05079,-1.17413e-05,0.88593
358.783,22.35815,6.27548,-0.05079,-4.934889e-06,0.88531
359.483,22.37743,6.28419,-0.05079004,-0.000807135,0.88469
360.183,22.39665,6.28473,-0.05079057,-0.008754678,0.88408
360.883,22.41592,6.29866,-0.05079802,-0.03169493,0.88346
361.583,22.4352,6.30303,-0.05194306,-0.05071767,0.88284
362.283,22.45449,6.30682,-0.05344665,-0.0450915,0.88222
362.983,22.4738,6.31984,-0.05345932,-0.0335887,0.88159
363.683,22.49307,6.32824,-0.05483456,-0.02336137,0.88097
364.383,22.5123,6.32762,-0.05474611,-0.009347584,0.88035
365.083,22.5316,6.32433,-0.05474035,-0.00148149,0.87973
365.783,22.55089,6.33371,-0.05474002,-1.48336e-05,0.87911
366.483,22.57025,6.33599,-0.05474,8.227427e-08,0.87849
367.183,22.58961,6.33279,-0.05474,-7.75369e-09,0.87787
367.883,22.60896,6.33471,-0.05474,8.82635e-08,0.87724
368.583,22.62829,6.3372,-0.05473999,0.0001051774,0.87662
369.283,22.64764,6.35013,-0.05473988,0.002475041,0.876
369.983,22.66696,6.35571,-0.05473814,0.01217055,0.87537
370.683,22.6863,6.35061,-0.05462995,0.02395933,0.87475
371.383,22.7057,6.36218,-0.05333856,0.02079124,0.87413
372.083,22.72508,6.3646,-0.05341357,0.00764834,0.8735
372.783,22.74447,6.36183,-0.05341928,0.0003766648,0.87288
373.483,22.76391,6.38107,-0.05341706,-0.005852104,0.87225
374.183,22.78332,6.37468,-0.05338527,-0.01846697,0.87163
374.883,22.80275,6.38416,-0.05430656,-0.02460547,0.87101
375.583,22.82217,6.38328,-0.05472821,-0.01464274,0.87038
376.283,22.84154,6.38122,-0.05473931,-0.00355808,0.86976
376.983,22.86091,6.39314,-0.05473991,-0.0005656844,0.86913
377.683,22.88028,6.38985,-0.05473979,-0.00363638,0.8685
378.383,22.89971,6.39462,-0.05474278,-0.01116647,0.86788
379.083,22.9191,6.4088,-0.055344,-0.00837821,0.86725
379.783,22.93855,6.39843,-0.0557982,0.01099175,0.86663
380.483,22.958,6.40864,-0.05442321,0.01900302,0.866
381.183,22.9775,6.41505,-0.05441096,0.00890868,0.86537
381.883,22.99696,6.41899,-0.05441008,0.001443958,0.86475
382.583,23.0165,6.41322,-0.05441001,2.56806e-05,0.86412
383.283,23.036,6.42076,-0.05441,1.11164e-07,0.86349
383.983,23.05548,6.42819,-0.05441,2.43285e-08,0.86287
384.683,23.0749,6.42646,-0.05441,2.065578e-07,0.86224
385.383,23.0945,6.42785,-0.05440999,1.965903e-06,0.86161
386.083,23.11395,6.42377,-0.05440985,-0.000253749,0.86098
386.783,23.1334,6.43344,-0.05440823,-0.002311445,0.86036
387.483,23.15287,6.43656,-0.05438923,-0.009564666,0.85973
388.183,23.17237,6.43779,-0.05476858,-0.02189791,0.8591
388.883,23.19189,6.44431,-0.05524149,-0.02756331,0.85847
389.583,23.2115,6.43449,-0.05603289,-0.01733428,0.85785
390.283,23.23101,6.44573,-0.05604874,-0.00259673,0.85722
390.983,23.25061,6.44767,-0.05604723,0.01088621,0.85659
391.683,23.2702,6.44422,-0.0560382,0.02306006,0.85596
392.383,23.28973,6.45881,-0.05474124,0.01536138,0.85533
393.083,23.3093,6.45778,-0.05474937,-0.0152268,0.8547
393.783,23.32893,6.46409,-0.05561535,-0.0393271,0.85407
394.483,23.34852,6.45212,-0.05697553,-0.03308087,0.85345
395.183,23.36809,6.46128,-0.05703408,-0.01255093,0.85282
395.883,23.38779,6.47157,-0.05703962,-0.001360439,0.85219
396.583,23.4074,6.46004,-0.05704169,0.003803801,0.85156
397.283,23.427,6.47253,-0.05706512,0.01023545,0.85093
397.983,23.44667,6.47368,-0.05645849,0.0096075,0.8503
398.683,23.46632,6.47759,-0.05640417,-0.00277624,0.84967
399.383,23.48592,6.48555,-0.05678266,-0.01160976,0.84904
400.083,23.5056,6.49214,-0.05702394,-0.00803107,0.84841
400.783,23.52526,6.49479,-0.05704046,-0.005148063,0.84778
401.483,23.54492,6.49374,-0.05706265,-0.01578227,0.84715
402.183,23.56459,6.50335,-0.05743717,-0.03264498,0.84652
402.883,23.58429,6.50496,-0.0584354,-0.03923456,0.84589
403.583,23.60398,6.49774,-0.05944239,-0.02834353,0.84527
404.283,23.62366,6.50799,-0.05975729,-0.001192825,0.84464
404.983,23.64339,6.50867,-0.05963774,0.02440319,0.84401
405.683,23.66313,6.51545,-0.05816545,0.02449852,0.84338
406.383,23.68285,6.5328,-0.05823484,0.00930015,0.84275
407.083,23.70264,6.51644,-0.05823965,0.001235449,0.84212
407.783,23.7224,6.52336,-0.0582401,0.000446956,0.84149
408.483,23.74219,6.52672,-0.0582416,0.005017924,0.84086
409.183,23.76197,6.52767,-0.05825974,0.0174448,0.84023
409.883,23.78172,6.53238,-0.05743791,0.02450291,0.8396
410.583,23.80151,6.54342,-0.05693945,0.01332361,0.83897
411.283,23.8213,6.54861,-0.05693381,-0.00638387,0.83834
411.983,23.84103,6.54799,-0.05696645,-0.02363241,0.83771
412.683,23.86073,6.54904,-0.05826191,-0.02837888,0.83708
413.383,23.88052,6.55298,-0.05826462,-0.02284209,0.83645
414.083,23.90032,6.55625,-0.05889739,-0.02092027,0.83582
414.783,23.92015,6.558,-0.05890449,-0.02958492,0.83519
415.483,23.93993,6.57018,-0.06021842,-0.0387775,0.83456
416.183,23.9598,6.57145,-0.06086291,-0.03419576,0.83393
416.883,23.97968,6.5717,-0.06154273,-0.01784959,0.83331
417.583,23.9996,6.56705,-0.06154026,-0.00433694,0.83268
418.283,24.0195,6.57734,-0.06153987,-0.002026271,0.83205
418.983,24.0394,6.57415,-0.06153757,-0.01211526,0.83142
419.683,24.05927,6.57814,-0.06150115,-0.03358914,0.83079
420.383,24.07913,6.58597,-0.06281342,-0.04463299,0.83016
421.083,24.09903,6.57961,-0.06416474,-0.02970527,0.82953
421.783,24.11896,6.59615,-0.06416962,-0.009318105,0.8289
422.483,24.13883,6.59617,-0.06416997,-0.001136294,0.82827
423.183,24.1587,6.59964,-0.06417,-1.25605e-05,0.82765
423.883,24.1787,6.5911,-0.06417,-5.619848e-08,0.82702
424.583,24.19867,6.6019,-0.06417,-3.070141e-08,0.82639
425.283,24.21859,6.60058,-0.06417,-3.862975e-07,0.82576
425.983,24.23863,6.60984,-0.06417003,1.04266e-05,0.82513
426.683,24.25853,6.60945,-0.06417033,0.00150394,0.82451
427.383,24.27853,6.61012,-0.06417461,0.009881338,0.82388
428.083,24.29842,6.61431,-0.06423695,0.0214458,0.82325
428.783,24.31844,6.61756,-0.06285421,0.01211388,0.82262
429.483,24.3384,6.61705,-0.0627831,-0.01433771,0.82199
430.183,24.3584,6.62064,-0.06416107,-0.020771,0.82137
430.883,24.3785,6.63456,-0.06416914,-0.01020648,0.82074
431.583,24.39859,6.63121,-0.0641651,-0.01251068,0.82011
432.283,24.41862,6.63333,-0.06410343,-0.02778936,0.81949
432.983,24.4387,6.63987,-0.06569231,-0.03409937,0.81886
433.683,24.45873,6.64302,-0.06567852,-0.03210919,0.81823
434.383,24.47871,6.63546,-0.06698294,-0.02880326,0.81761
435.083,24.49881,6.65054,-0.06704151,-0.02709919,0.81698
435.783,24.51887,6.63875,-0.06790816,-0.02632448,0.81635
436.483,24.53893,6.65099,-0.06834139,-0.01504227,0.81573
437.183,24.55903,6.63049,-0.06834009,-0.003484021,0.8151
437.883,24.57905,6.63378,-0.06834001,-0.0003237784,0.81448
438.583,24.5991,6.62076,-0.06834007,-0.00289427,0.81385
439.283,24.61915,6.63138,-0.06834085,-0.01312251,0.81322
439.983,24.63925,6.63324,-0.06861198,-0.02154031,0.8126
440.683,24.6594,6.62387,-0.06967714,-0.01625962,0.81197
441.383,24.67955,6.61754,-0.06899514,-0.01598851,0.81135
442.083,24.69978,6.61957,-0.07030354,-0.01797719,0.81073
442.783,24.71999,6.61412,-0.07030997,-0.008486536,0.8101
443.483,24.74014,6.61425,-0.07031002,-0.001332939,0.80948
444.183,24.7603,6.6084,-0.07030997,-0.0004499803,0.80885
444.883,24.78047,6.60167,-0.07030944,-0.005293845,0.80823
445.583,24.80058,6.59776,-0.07030015,-0.01842547,0.80761
446.283,24.82077,6.59631,-0.07136002,-0.02487628,0.80698
446.983,24.84096,6.60301,-0.07162902,-0.01714582,0.80636
447.683,24.8611,6.588,-0.07162846,-0.01797227,0.80574
448.383,24.88137,6.58635,-0.07208658,-0.02505763,0.80511
449.083,24.90159,6.57408,-0.07293201,-0.01694734,0.80449
449.783,24.92183,6.56977,-0.07294891,-0.00606554,0.80387
450.483,24.94213,6.56491,-0.07295519,-0.01167084,0.80325
451.183,24.96238,6.56334,-0.07304245,-0.02894386,0.80263
451.883,24.98268,6.55033,-0.07442617,-0.03907129,0.802
452.583,25.00291,6.55472,-0.07499479,-0.03401059,0.80138
453.283,25.02317,6.53235,-0.07566065,-0.02352275,0.80076
453.983,25.04348,6.54311,-0.07562189,-0.02659859,0.80014
454.683,25.06374,6.51561,-0.07691833,-0.03818767,0.79952
455.383,25.084,6.51388,-0.07734456,-0.04055809,0.7989
456.083,25.10438,6.50095,-0.07845963,-0.03603356,0.79828
456.783,25.12463,6.51531,-0.07884149,-0.0308608,0.79766
457.483,25.14493,6.49368,-0.07974769,-0.0209613,0.79704
458.183,25.16524,6.47151,-0.07975374,-0.01779195,0.79642
458.883,25.18555,6.47151,-0.08004318,-0.02478811,0.7958
459.583,25.20589,6.46657,-0.08110311,-0.02136279,0.79519
460.283,25.2262,6.45331,-0.08107694,-0.01557213,0.79457
460.983,25.24663,6.43753,-0.08144235,-0.01542426,0.79395
461.683,25.267,6.41807,-0.08170878,-0.01705507,0.79333
462.383,25.28735,6.41211,-0.08194293,-0.0273525,0.79272
463.083,25.30772,6.39527,-0.08297034,-0.04046562,0.7921
463.783,25.3281,6.38066,-0.08342361,-0.0567903,0.79148
464.483,25.3485,6.37983,-0.08559029,-0.06566627,0.79087
465.183,25.36885,6.35546,-0.08663385,-0.06331031,0.79025
465.883,25.3892,6.35142,-0.08745666,-0.06527435,0.78963
466.583,25.40963,6.33449,-0.08871994,-0.07586902,0.78902
467.283,25.43,6.32097,-0.09060319,-0.08899887,0.7884
467.983,25.45048,6.31471,-0.09261887,-0.09724494,0.78779
468.683,25.471,6.28547,-0.09465986,-0.10238,0.78717
469.383,25.49144,6.26211,-0.09671389,-0.10487,0.78656
470.083,25.512,6.24516,-0.09915369,-0.09355599,0.78595
470.783,25.53236,6.23005,-0.10096,-0.07087277,0.78533
471.483,25.55278,6.20333,-0.10235,-0.0636155,0.78472
472.183,25.57329,6.19124,-0.10272,-0.08276521,0.78411
472.883,25.5938,6.18344,-0.10556,-0.09503871,0.7835
473.583,25.61431,6.16493,-0.10728,-0.0931886,0.78288
474.283,25.6349,6.14249,-0.10907,-0.10488,0.78227
474.983,25.65537,6.11885,-0.11154,-0.13148,0.78166
475.683,25.6759,6.09879,-0.11465,-0.15355,0.78105
476.383,25.69637,6.08479,-0.11828,-0.15316,0.78044
477.083,25.7169,6.06445,-0.1208,-0.13958,0.77983
477.783,25.73751,6.03499,-0.12361,-0.1287,0.77922
478.483,25.75807,6.01376,-0.12576,-0.12748,0.77861
479.183,25.77867,5.9975,-0.1287,-0.1434,0.778
479.883,25.79928,5.97908,-0.13206,-0.16599,0.77739
480.583,25.81981,5.94713,-0.13641,-0.16919,0.77678
481.283,25.84037,5.93351,-0.13915,-0.16142,0.77618
481.983,25.861,5.91734,-0.14193,-0.16834,0.77557
482.683,25.88149,5.8908,-0.14568,-0.18018,0.77496
483.383,25.90211,5.83777,-0.14992,-0.18689,0.77436
484.083,25.9227,5.80173,-0.15373,-0.20188,0.77375
484.783,25.94335,5.78562,-0.15804,-0.22772,0.77314
485.483,25.96399,5.78143,-0.16293,-0.24358,0.77254
486.183,25.98462,5.78258,-0.16861,-0.2415,0.77193
486.883,26.00525,5.76314,-0.17269,-0.23853,0.77133
487.583,26.02594,5.77267,-0.17801,-0.249,0.77072
488.283,26.0466,5.77232,-0.18296,-0.27402,0.77012
488.983,26.0673,5.77116,-0.18909,-0.31674,0.76952
489.683,26.088,5.75373,-0.19578,-0.3663,0.76891
490.383,26.10864,5.75909,-0.20465,-0.38777,0.76831
491.083,26.12937,5.73764,-0.21264,-0.374,0.76771
491.783,26.15006,5.73156,-0.22005,-0.35241,0.76711
492.483,26.1708,5.71286,-0.22695,-0.34417,0.76651
493.183,26.19151,5.72189,-0.23407,-0.34907,0.76591
493.883,26.2122,5.71498,-0.24149,-0.36383,0.76531
494.583,26.23296,5.71339,-0.24903,-0.38272,0.76471
495.283,26.25365,5.75217,-0.25745,-0.40709,0.76411
495.983,26.27433,5.74076,-0.26566,-0.44465,0.76351
496.683,26.29505,5.75704,-0.27591,-0.47508,0.76291
497.383,26.31578,5.78849,-0.28588,-0.47386,0.76231
498.083,26.33653,5.86302,-0.2959,-0.46993,0.76171
498.783,26.3574,5.93795,-0.30464,-0.49671,0.76112
499.483,26.3782,5.99756,-0.31675,-0.54498,0.76052
500.183,26.39895,6.02946,-0.32719,-0.59859,0.75992
500.883,26.4198,6.07002,-0.34198,-0.6411,0.75933
501.583,26.4406,6.17225,-0.35407,-0.66602,0.75873
502.283,26.46143,6.31444,-0.36967,-0.68731,0.75814
502.983,26.48214,6.41809,-0.38208,-0.72652,0.75754
503.683,26.5029,6.56058,-0.39971,-0.77205,0.75695
504.383,26.52379,6.64861,-0.41454,-0.80212,0.75636
505.083,26.54465,6.752,-0.4333,-0.81797,0.75576
505.783,26.56567,6.79248,-0.44878,-0.84275,0.75517
506.483,26.58662,6.85605,-0.46809,-0.87282,0.75458
507.183,26.6075,6.95437,-0.48555,-0.89632,0.75399
507.883,26.62837,7.06247,-0.50514,-0.92588,0.7534
508.583,26.64923,7.11784,-0.52365,-0.98104,0.75281
509.283,26.6701,7.17398,-0.54591,-1.03806,0.75222
509.983,26.69102,7.24405,-0.56784,-1.08185,0.75163
510.683,26.71195,7.29652,-0.5905,-1.12327,0.75104
511.383,26.7329,7.43288,-0.61583,-1.1502,0.75045
512.083,26.7538,7.53139,-0.63882,-1.15696,0.74986
512.783,26.7748,7.58982,-0.66441,-1.17808,0.74928
513.483,26.79583,7.61028,-0.6877,-1.22017,0.74869
514.183,26.8169,7.6171,-0.71655,-1.2545,0.7481
514.883,26.83786,7.59237,-0.74077,-1.26187,0.74752
515.583,26.85888,7.65919,-0.76985,-1.26509,0.74693
516.283,26.87991,7.76139,-0.79358,-1.28699,0.74635
516.983,26.9009,7.81087,-0.82407,-1.31762,0.74576
517.683,26.92196,7.80633,-0.84901,-1.3489,0.74518
518.383,26.943,7.77521,-0.88036,-1.39303,0.7446
519.083,26.96408,7.75211,-0.90736,-1.444,0.74402
519.783,26.98514,7.72992,-0.94122,-1.47189,0.74343
520.483,27.00618,7.65621,-0.96984,-1.48153,0.74285
521.183,27.02722,7.56607,-1.00263,-1.50038,0.74227
521.883,27.04826,7.53969,-1.03297,-1.52956,0.74169
522.583,27.0693,7.59682,-1.06648,-1.5509,0.74111
523.283,27.0904,7.62099,-1.09852,-1.58517,0.74053
523.983,27.11151,7.64405,-1.13253,-1.6346,0.73995
524.683,27.13263,7.6549,-1.16859,-1.6797,0.73938
525.383,27.15373,7.72111,-1.20349,-1.70797,0.7388
526.083,27.17492,7.76884,-1.24165,-1.74177,0.73822
526.783,27.19603,7.74395,-1.27613,-1.79881,0.73764
527.483,27.2172,7.71372,-1.3188,-1.85321,0.73707
528.183,27.2383,7.69281,-1.35479,-1.88294,0.73649
528.883,27.2595,7.65771,-1.39915,-1.89918,0.73592
529.583,27.2807,7.69267,-1.43511,-1.91985,0.73535
530.283,27.30185,7.70325,-1.48015,-1.95516,0.73477
530.983,27.3231,7.69724,-1.51785,-1.99671,0.7342
531.683,27.34432,7.7007,-1.56439,-2.03439,0.73363
532.383,27.36559,7.68392,-1.60419,-2.07322,0.73306
533.083,27.38689,7.69669,-1.65155,-2.10894,0.73248
533.783,27.4081,7.6701,-1.69455,-2.13391,0.73191
534.483,27.42936,7.62412,-1.74171,-2.13606,0.73134
535.183,27.4506,7.57558,-1.78557,-2.15067,0.73077
535.883,27.4718,7.50988,-1.83172,-2.17957,0.73021
536.583,27.49307,7.44989,-1.87979,-2.20566,0.72964
537.283,27.5144,7.37161,-1.92507,-2.22934,0.72907
537.983,27.5358,7.287,-1.97654,-2.24691,0.7285
538.683,27.5572,7.18801,-2.02111,-2.23897,0.72794
539.383,27.5786,7.08262,-2.07363,-2.21047,0.72737
540.083,27.59992,6.95925,-2.11556,-2.17336,0.72681
540.783,27.6212,6.8188,-2.16634,-2.14341,0.72624
541.483,27.6425,6.65974,-2.20657,-2.13025,0.72568
542.183,27.66385,6.48609,-2.25629,-2.11982,0.72511
542.883,27.6853,6.29242,-2.2977,-2.08455,0.72455
543.583,27.70662,6.09055,-2.34468,-2.01895,0.72399
544.283,27.72805,5.87268,-2.38454,-1.95209,0.72343
544.983,27.7494,5.65198,-2.42674,-1.88822,0.72287
545.683,27.77073,5.42658,-2.46645,-1.8051,0.72231
546.383,27.7922,5.18549,-2.50339,-1.7162,0.72175
547.083,27.8136,4.94764,-2.54019,-1.66352,0.72119
547.783,27.835,4.70257,-2.57437,-1.6047,0.72063
548.483,27.8564,4.46485,-2.6109,-1.50353,0.72007
549.183,27.87776,4.20969,-2.63865,-1.39098,0.71952
549.883,27.89916,3.95872,-2.67027,-1.29579,0.71896
550.583,27.9206,3.71775,-2.69426,-1.20441,0.7184
551.283,27.942,3.49651,-2.7215,-1.11995,0.71785
551.983,27.9634,3.26542,-2.74204,-1.04847,0.71729
552.683,27.98477,3.0634,-2.76592,-0.96907,0.71674
553.383,28.00621,2.88095,-2.78418,-0.87416,0.71619
554.083,28.02767,2.68246,-2.80237,-0.79629,0.71564
554.783,28.04911,2.51554,-2.81816,-0.74079,0.71508
555.483,28.07058,2.37271,-2.83396,-0.68111,0.71453
556.183,28.09204,2.24198,-2.84771,-0.62417,0.71398
556.883,28.1135,2.11504,-2.86061,-0.57572,0.71343
557.583,28.135,2.00076,-2.87295,-0.5295,0.71288
558.283,28.1565,1.91707,-2.8831,-0.48118,0.71233
558.983,28.17795,1.82642,-2.8939,-0.42866,0.71179
559.683,28.1994,1.74672,-2.90176,-0.38063,0.71124
560.383,28.22082,1.69264,-2.90996,-0.35243,0.71069
561.083,28.24227,1.64971,-2.9165,-0.33648,0.71015
561.783,28.26373,1.61218,-2.92424,-0.3186,0.7096
562.483,28.28517,1.57751,-2.93063,-0.28766,0.70906
563.183,28.3067,1.544,-2.9361,-0.25828,0.70851
563.883,28.32817,1.51996,-2.94148,-0.24059,0.70797
564.583,28.3497,1.50075,-2.94667,-0.22023,0.70743
565.283,28.37122,1.48387,-2.95147,-0.2084,0.70689
565.983,28.3928,1.48005,-2.95534,-0.2204,0.70635
566.683,28.4144,1.47498,-2.96032,-0.23307,0.7058
567.383,28.43603,1.46167,-2.96569,-0.21046,0.70526
568.083,28.45765,1.45148,-2.96949,-0.1731,0.70473
568.783,28.4791,1.45313,-2.97296,-0.14728,0.70419
569.483,28.5007,1.44488,-2.97596,-0.1397,0.70365
570.183,28.52233,1.45178,-2.97913,-0.15896,0.70311
570.883,28.5439,1.44079,-2.98258,-0.19118,0.70258
571.583,28.56555,1.44474,-2.98763,-0.1926,0.70204
572.283,28.5871,1.44843,-2.99116,-0.15874,0.70151
572.983,28.6087,1.45017,-2.99458,-0.11602,0.70097
573.683,28.6303,1.43882,-2.99654,-0.08337872,0.70044
574.383,28.65186,1.45254,-2.99809,-0.07260067,0.6999
575.083,28.6735,1.44222,-2.99923,-0.0858987,0.69937
575.783,28.6951,1.43191,-3.00193,-0.09256532,0.69884
576.483,28.71674,1.43395,-3.00324,-0.09036305,0.69831
577.183,28.73845,1.42798,-3.00552,-0.09442794,0.69778
577.883,28.7601,1.4355,-3.00728,-0.09202883,0.69725
578.583,28.78175,1.44041,-3.00947,-0.07714314,0.69672
579.283,28.80337,1.42732,-3.01045,-0.06667053,0.69619
579.983,28.82493,1.42514,-3.01223,-0.07284385,0.69567
580.683,28.84654,1.42784,-3.01379,-0.07883551,0.69514
581.383,28.86812,1.43184,-3.0158,-0.08094639,0.69461
582.083,28.88976,1.42106,-3.01743,-0.08849723,0.69409
582.783,28.91136,1.42702,-3.01959,-0.10213,0.69357
583.483,28.933,1.42783,-3.02151,-0.11656,0.69304
584.183,28.95471,1.42325,-3.02458,-0.11716,0.69252
584.883,28.9764,1.40874,-3.02712,-0.10216,0.692
585.583,28.9982,1.41301,-3.02939,-0.08454576,0.69148
586.283,29.01988,1.41226,-3.03073,-0.08979176,0.69095
586.983,29.0417,1.40705,-3.03259,-0.11292,0.69043
587.683,29.0634,1.40845,-3.03631,-0.10457,0.68991
588.383,29.08522,1.39883,-3.03782,-0.06912664,0.6894
589.083,29.107,1.40086,-3.03843,-0.06336652,0.68888
589.783,29.12875,1.40106,-3.03981,-0.08038563,0.68836
590.483,29.1505,1.39068,-3.04198,-0.08299647,0.68784
591.183,29.1721,1.39279,-3.04368,-0.06641352,0.68733
591.883,29.19384,1.39459,-3.04458,-0.06038269,0.68681
592.583,29.2156,1.39541,-3.0465,-0.073269,0.6863
593.283,29.23736,1.39528,-3.04814,-0.0825387,0.68579
593.983,29.2591,1.36925,-3.04997,-0.0907804,0.68527
594.683,29.28095,1.3905,-3.05235,-0.08809803,0.68476
595.383,29.3027,1.38959,-3.05407,-0.07152836,0.68425
596.083,29.3245,1.38709,-3.0552,-0.06731624,0.68374
596.783,29.3463,1.3835,-3.05699,-0.06879829,0.68323
597.483,29.3681,1.37684,-3.05825,-0.06711948,0.68272
598.183,29.3899,1.37772,-3.05925,-0.07111096,0.68221
598.883,29.4117,1.38184,-3.06082,-0.08138139,0.6817
599.583,29.4336,1.3827,-3.06309,-0.08789363,0.6812
600.283,29.4555,1.38514,-3.06497,-0.08378206,0.68069
600.983,29.4774,1.39223,-3.06667,-0.0748082,0.68019
601.683,29.4993,1.39543,-3.06812,-0.06703146,0.67968
602.383,29.5211,1.39675,-3.06968,-0.06635654,0.67918
603.083,29.54298,1.39666,-3.0715,-0.07083048,0.67867
603.783,29.5649,1.40561,-3.07299,-0.07349909,0.67817
604.483,29.58669,1.38802,-3.0748,-0.07130048,0.67767
605.183,29.60857,1.40686,-3.07608,-0.0679798,0.67717
605.883,29.6304,1.40828,-3.07719,-0.06366052,0.67667
606.583,29.65232,1.40408,-3.07853,-0.05900612,0.67617
607.283,29.67425,1.41491,-3.08017,-0.06527588,0.67567
607.983,29.696,1.40432,-3.08156,-0.08121598,0.67517
608.683,29.7179,1.4252,-3.08371,-0.08755736,0.67468
609.383,29.73982,1.42468,-3.08568,-0.07516298,0.67418
610.083,29.7617,1.42455,-3.08745,-0.05421118,0.67368
610.783,29.7838,1.42501,-3.08768,-0.03728989,0.67319
611.483,29.8057,1.44834,-3.08865,-0.02697859,0.6727
612.183,29.82762,1.43875,-3.08857,-0.03285337,0.6722
612.883,29.84955,1.4643,-3.09008,-0.04903827,0.67171
613.583,29.87146,1.4621,-3.09129,-0.06299223,0.67122
614.283,29.8934,1.47004,-3.09277,-0.06917634,0.67073
614.983,29.91532,1.4772,-3.09443,-0.05833296,0.67024
615.683,29.93719,1.4768,-3.09532,-0.04813301,0.66975
616.383,29.9591,1.4837,-3.09568,-0.06244883,0.66926
617.083,29.98103,1.50619,-3.09786,-0.08328933,0.66877
617.683,29.9999,1.50107,-3.09929,-0.10158,0.66835