File: 01_Data/PC/STA/N2/30K_min/PC_STA_N2_30KData_211809_R3.csv
##Temp./Â°C,Time/min,DSC(subtr.2)/mW,Mass loss(subtr.2)/mg,DTG(subtr.2)/(mg/min),Sensit./(uV/mW)
48.944,10.00917,0.01013394,0.00285,-0.03930366,1.054
49.644,11.05154,0.12637,0.001854125,0.00336574,1.05401
50.344,11.28725,0.22536,0.00375146,-0.00121255,1.05403
51.044,11.4505,0.30777,0.001692251,-0.002361186,1.05404
51.744,11.57887,0.3849,1.760371e-05,-0.00428349,1.05405
52.444,11.68683,0.44766,0.001154044,0.004598946,1.05406
53.144,11.7821,0.52055,0.002270062,0.004002131,1.05406
53.844,11.86766,0.57811,0.002478809,0.002541665,1.05406
54.544,11.9466,0.63745,0.002856257,-0.00095321,1.05406
55.244,12.01875,0.69502,0.002419984,-0.00495288,1.05406
55.944,12.08803,0.73784,0.00207457,-0.003962385,1.05405
56.644,12.15344,0.79557,0.00136731,-0.001232614,1.05405
57.344,12.21568,0.83154,0.00200278,-0.001755535,1.05404
58.044,12.27533,0.8746,0.001139435,-0.00235403,1.05402
58.744,12.33264,0.91393,0.001292367,0.0001410726,1.05401
59.444,12.38775,0.94609,0.001445844,0.004940035,1.05399
60.144,12.44184,0.98572,0.0001194288,0.009467112,1.05397
60.844,12.49447,1.01764,0.00310056,0.00979672,1.05395
61.544,12.54572,1.04191,0.004345889,0.00536493,1.05393
62.244,12.59532,1.0718,0.00216278,0.000360482,1.0539
62.944,12.64435,1.0966,0.003557045,-0.002574024,1.05387
63.644,12.69231,1.13622,0.002768686,-0.004331511,1.05384
64.344,12.73917,1.16128,0.00230994,-0.006056682,1.05381
65.044,12.78588,1.18818,0.001793725,-0.00714835,1.05377
65.744,12.8318,1.21517,0.001647365,-0.006231845,1.05373
66.444,12.87652,1.24266,0.0016514,-0.00300177,1.05369
67.144,12.92085,1.26056,0.0003550131,0.001085604,1.05365
67.844,12.96485,1.27943,0.00233276,0.00347773,1.0536
68.544,13.00825,1.30716,0.002697422,0.002945493,1.05355
69.244,13.051,1.32805,0.00193128,0.0007861128,1.0535
69.944,13.09342,1.35558,0.002081317,-0.001146621,1.05345
70.644,13.13534,1.37676,0.00189261,-0.002175784,1.0534
71.344,13.17658,1.39054,0.001309114,-0.00259799,1.05334
72.044,13.21746,1.41436,0.002688875,-0.002605985,1.05328
72.744,13.25805,1.43224,0.001142354,-0.002071041,1.05322
73.444,13.29832,1.46169,0.0013647,-0.001297772,1.05316
74.144,13.3381,1.48342,0.001652499,-0.001016435,1.05309
74.844,13.37771,1.50099,0.001646498,-0.001631055,1.05302
75.544,13.4169,1.52386,0.001523746,-0.002588996,1.05295
76.244,13.45565,1.54916,0.00132598,-0.00260131,1.05288
76.944,13.49399,1.55931,0.000564036,-0.000834183,1.0528
77.644,13.5321,1.58888,0.0005679327,0.00204151,1.05272
78.344,13.56991,1.61107,-0.0001921613,0.004187505,1.05264
79.044,13.6074,1.63215,0.002489851,0.004224253,1.05256
79.744,13.6445,1.64524,0.00287251,0.002553408,1.05248
80.444,13.6813,1.67123,0.00175179,0.000850445,1.05239
81.144,13.71776,1.68843,0.00142353,0.000296376,1.0523
81.844,13.7537,1.71198,0.00152242,0.0005645398,1.05221
82.544,13.7895,1.72444,0.001767081,0.000496674,1.05211
83.244,13.82511,1.74477,0.00216637,-0.0005905815,1.05202
83.944,13.86046,1.74518,0.00194759,-0.002310021,1.05192
84.644,13.89535,1.76389,0.00111882,-0.00363427,1.05182
85.344,13.93015,1.78347,0.001883146,-0.003793163,1.05172
86.044,13.96456,1.78979,0.001289807,-0.002675027,1.05161
86.744,13.99862,1.80213,0.0006715308,-0.0008146025,1.0515
87.444,14.0323,1.81212,0.0005303647,0.0008803776,1.05139
88.144,14.06575,1.82092,0.000788392,0.00163866,1.05128
88.844,14.09905,1.8297,0.001978722,0.001187329,1.05117
89.544,14.132,1.8407,0.002038889,-0.0001056225,1.05105
90.244,14.1647,1.85312,0.001834991,-0.001544089,1.05093
90.944,14.19713,1.87119,0.00153676,-0.00259022,1.05081
91.644,14.22949,1.88381,0.001248137,-0.00309761,1.05069
92.344,14.2615,1.89442,0.001630454,-0.00313779,1.05057
93.044,14.29323,1.9155,0.0006000972,-0.00268793,1.05044
93.744,14.3246,1.93352,0.0002777164,-0.00167947,1.05031
94.444,14.35599,1.94852,0.0003150672,-0.0001620785,1.05018
95.144,14.3871,1.96458,2.920925e-05,0.001470282,1.05004
95.844,14.41792,1.98362,0.000725697,0.002592848,1.04991
96.544,14.4486,1.99649,0.002104782,0.002777978,1.04977
97.244,14.47914,2.0192,0.002310191,0.00203718,1.04963
97.944,14.50941,2.03938,0.001440354,0.0008363188,1.04949
98.644,14.5394,2.04618,0.000891654,-0.0002611107,1.04934
99.344,14.5693,2.07025,0.001525466,-0.0009253168,1.04919
100.044,14.5991,2.08509,0.0007700211,-0.00109896,1.04904
100.744,14.62831,2.09794,0.001104811,-0.000905558,1.04889
101.444,14.65766,2.12626,0.001976079,-0.0004629561,1.04874
102.144,14.6869,2.13344,0.0009380867,0.00022273,1.04858
102.844,14.71623,2.15839,0.0007925674,0.001190261,1.04843
103.544,14.7452,2.18102,0.000297736,0.002326884,1.04827
104.244,14.77384,2.18909,0.000734572,0.00332227,1.0481
104.944,14.8027,2.20909,0.001439938,0.003763572,1.04794
105.644,14.8311,2.22303,0.00202914,0.00338888,1.04777
106.344,14.8595,2.24052,0.001330952,0.002269578,1.04761
107.044,14.8875,2.25829,0.002299411,0.000847428,1.04743
107.744,14.9158,2.27579,0.002224717,-0.0003422329,1.04726
108.444,14.94372,2.29034,0.002117759,-0.0008921234,1.04709
109.144,14.9717,2.31874,0.000702361,-0.000828943,1.04691
109.844,14.99925,2.32593,0.000552573,-0.0004817082,1.04673
110.544,15.02685,2.33967,0.002054925,-0.0002285338,1.04655
111.244,15.05442,2.36162,0.002229806,-0.0002229973,1.04637
111.944,15.08196,2.38013,0.001245449,-0.0003452805,1.04618
112.644,15.10922,2.39832,0.001534751,-0.000349168,1.04599
113.344,15.1363,2.40596,0.00146665,-5.538687e-05,1.0458
114.044,15.1633,2.4363,0.0006574756,0.000514174,1.04561
114.744,15.1904,2.44589,0.002165435,0.001197414,1.04542
115.444,15.2175,2.46558,0.000946328,0.001809679,1.04522
116.144,15.2444,2.47957,0.001738223,0.00225343,1.04502
116.844,15.27104,2.49134,0.002187361,0.002497785,1.04482
117.544,15.2975,2.5088,0.0007771427,0.002497327,1.04462
118.244,15.3239,2.52001,0.002178877,0.002176088,1.04442
118.944,15.35031,2.53825,0.001696592,0.001464719,1.04421
119.644,15.3765,2.55391,0.002129178,0.0004105038,1.044
120.344,15.40262,2.57612,0.003004229,-0.00079245,1.04379
121.044,15.42871,2.5832,0.002755842,-0.001866623,1.04358
121.744,15.45459,2.5931,0.001903513,-0.002555889,1.04337
122.444,15.48039,2.60573,0.0005032129,-0.002758185,1.04315
123.144,15.50619,2.62276,0.001625636,-0.002538059,1.04293
123.844,15.53178,2.64063,0.00186267,-0.002032471,1.04271
124.544,15.55734,2.65504,0.001049345,-0.001379328,1.04249
125.244,15.58285,2.66291,0.0021705,-0.0006616317,1.04226
125.944,15.60821,2.68118,0.001143183,9.625371e-05,1.04204
126.644,15.6335,2.70454,0.001096713,0.0008457369,1.04181
127.344,15.65865,2.71719,0.001499411,0.0014574,1.04158
128.044,15.6837,2.72613,0.001450916,0.001757726,1.04134
128.744,15.7088,2.7412,0.00184516,0.001580324,1.04111
129.444,15.7337,2.76433,0.001834594,0.0008533394,1.04087
130.144,15.75854,2.76732,0.001782098,-0.000305493,1.04063
130.844,15.78329,2.78571,0.00193881,-0.001571109,1.04039
131.544,15.80795,2.79957,0.002214017,-0.002537061,1.04015
132.244,15.83252,2.81052,0.00176542,-0.00282055,1.03991
132.944,15.85702,2.82835,0.000602875,-0.00218249,1.03966
133.644,15.8815,2.84111,0.0004387861,-0.0006665838,1.03941
134.344,15.9059,2.85338,0.00118859,0.00139349,1.03916
135.044,15.9301,2.8637,0.0003252236,0.00350935,1.03891
135.744,15.95439,2.87867,0.001635712,0.005193062,1.03865
136.444,15.97853,2.89403,0.00142883,0.006076835,1.0384
137.144,16.00263,2.91147,0.00178748,0.00607159,1.03814
137.844,16.02671,2.92638,0.00317559,0.00531228,1.03788
138.544,16.05069,2.9421,0.00313256,0.004065363,1.03762
139.244,16.07456,2.96033,0.00182307,0.00261175,1.03735
139.944,16.09834,2.97277,0.00186657,0.001144183,1.03709
140.644,16.12209,2.98376,0.002103975,-0.0002459689,1.03682
141.344,16.14576,3.005,0.00306378,-0.001471385,1.03655
142.044,16.16933,3.02675,0.001882304,-0.002413045,1.03628
142.744,16.19292,3.04005,0.003271933,-0.002952669,1.036
143.444,16.21639,3.0607,0.00189532,-0.002982605,1.03573
144.144,16.2398,3.08095,0.001848655,-0.00249875,1.03545
144.844,16.26324,3.09764,0.000308631,-0.00165167,1.03517
145.544,16.28661,3.11944,0.001740894,-0.0006883249,1.03489
146.244,16.30985,3.15156,0.001760372,0.0001280419,1.03461
146.944,16.33314,3.17214,0.001798066,0.0006100261,1.03432
147.644,16.3563,3.2024,0.003340156,0.000729613,1.03404
148.344,16.37929,3.23186,0.001758797,0.0006193673,1.03375
149.044,16.40229,3.26576,0.001874316,0.0004524564,1.03346
149.744,16.42522,3.30703,0.001724425,0.000344774,1.03316
150.444,16.44807,3.35115,0.001759445,0.0003485683,1.03287
151.144,16.471,3.40956,0.001756717,0.000451692,1.03257
151.844,16.49384,3.45362,0.002516578,0.0005712934,1.03228
152.544,16.51647,3.50493,0.001690959,0.0006363497,1.03198
153.244,16.53911,3.55397,0.001758289,0.0006256529,1.03167
153.944,16.56189,3.58516,0.00300925,0.000544684,1.03137
154.644,16.58459,3.62471,0.001717721,0.000402272,1.03106
155.344,16.60742,3.6503,0.001759581,0.000203217,1.03076
156.044,16.6302,3.67953,0.00175001,-6.291858e-05,1.03045
156.744,16.65273,3.68393,0.002712419,-0.000411913,1.03014
157.444,16.67523,3.71107,0.002090205,-0.0008348975,1.02982
158.144,16.69765,3.73277,0.001767775,-0.001274974,1.02951
158.844,16.71999,3.74581,0.002170581,-0.00162753,1.02919
159.544,16.74235,3.76973,0.002133714,-0.001763818,1.02888
160.244,16.7647,3.77963,0.001770574,-0.00157065,1.02856
160.944,16.78695,3.80111,0.00176033,-0.0010087,1.02823
161.644,16.80919,3.82172,0.00176001,-0.0001340456,1.02791
162.344,16.8314,3.83222,0.00119063,0.0009205584,1.02759
163.044,16.85355,3.8577,0.001478455,0.001964198,1.02726
163.744,16.87571,3.86929,0.00175121,0.00281945,1.02693
164.444,16.89784,3.88241,0.00175547,0.003385477,1.0266
165.144,16.91988,3.90006,0.003103484,0.003666881,1.02627
165.844,16.94182,3.92163,0.002941572,0.003714988,1.02593
166.544,16.96376,3.9302,0.00207777,0.00358288,1.0256
167.244,16.98564,3.95296,0.00212481,0.00330636,1.02526
167.944,17.00752,3.96256,0.00175013,0.00285591,1.02492
168.644,17.0294,3.97342,0.002110517,0.00215548,1.02458
169.344,17.05119,3.98747,0.003058957,0.001167885,1.02424
170.044,17.07299,3.9945,0.003078065,-8.442606e-05,1.02389
170.744,17.09471,4.01375,0.00307891,-0.00148493,1.02355
171.444,17.11644,4.02869,0.00306697,-0.002844814,1.0232
172.144,17.13814,4.03323,0.002506997,-0.003940189,1.02285
172.844,17.15971,4.04748,0.001753626,-0.004597756,1.0225
173.544,17.18141,4.05843,0.002811182,-0.004717165,1.02214
174.244,17.20298,4.08253,0.00170615,-0.004262839,1.02179
174.944,17.22448,4.09234,0.00175675,-0.003306613,1.02143
175.644,17.246,4.09237,0.001762876,-0.001987785,1.02108
176.344,17.26746,4.11452,0.001792204,-0.0005210596,1.02072
177.044,17.28878,4.11737,0.0004428575,0.0008563462,1.02035
177.744,17.31016,4.13965,0.001877561,0.001926276,1.01999
178.444,17.3314,4.15619,0.001871805,0.002497323,1.01963
179.144,17.35254,4.16819,0.00188789,0.002469056,1.01926
179.844,17.37375,4.17629,0.002285585,0.00185507,1.01889
180.544,17.395,4.19915,0.003199537,0.0007949733,1.01852
181.244,17.41616,4.20619,0.00324047,-0.0004702142,1.01815
181.944,17.43739,4.21711,0.0019406,-0.00166603,1.01778
182.644,17.45857,4.22695,0.00187144,-0.002523252,1.0174
183.344,17.47963,4.23343,0.001869929,-0.002871329,1.01703
184.044,17.50068,4.24403,0.001869899,-0.002644379,1.01665
184.744,17.52166,4.26161,0.00186788,-0.001858494,1.01627
185.444,17.54256,4.26436,0.00181652,-0.0006115871,1.01589
186.144,17.56343,4.27953,0.0008431411,0.000950167,1.01551
186.844,17.58429,4.28936,0.001384895,0.002656955,1.01512
187.544,17.60512,4.30687,0.001846661,0.004323024,1.01474
188.244,17.62596,4.32125,0.001866175,0.00576309,1.01435
188.944,17.64676,4.32768,0.001838605,0.00681793,1.01396
189.644,17.6676,4.34888,0.002211758,0.007373628,1.01357
190.344,17.6884,4.36145,0.00221083,0.007363503,1.01318
191.044,17.7089,4.36899,0.00316686,0.006793775,1.01278
191.744,17.72948,4.38768,0.00351981,0.00572002,1.01239
192.444,17.75014,4.38993,0.003526165,0.004242813,1.01199
193.144,17.77071,4.4031,0.00316585,0.002507011,1.01159
193.844,17.79149,4.41681,0.00318783,0.0006230179,1.01119
194.544,17.81227,4.42234,0.003189821,-0.001266515,1.01079
195.244,17.83282,4.43734,0.00318998,-0.003025407,1.01039
195.944,17.8534,4.44989,0.003189893,-0.00456175,1.00998
196.644,17.87389,4.46376,0.003188378,-0.005766741,1.00958
197.344,17.89432,4.47393,0.00316618,-0.006556004,1.00917
198.044,17.91485,4.47401,0.002663376,-0.006896089,1.00876
198.744,17.93524,4.49134,0.00174537,-0.00679579,1.00835
199.444,17.95561,4.50255,0.001759039,-0.006323653,1.00794
200.144,17.976,4.52205,0.00175994,-0.00558313,1.00752
200.844,17.99638,4.52413,0.001759996,-0.004724181,1.00711
201.544,18.01673,4.53886,0.00176,-0.003906053,1.00669
202.244,18.0371,4.55246,0.00176,-0.00325704,1.00627
202.944,18.05736,4.56577,0.00176,-0.002841846,1.00585
203.644,18.0776,4.56933,0.00176,-0.002642163,1.00543
204.344,18.09778,4.58393,0.00176,-0.002585001,1.00501
205.044,18.118,4.58294,0.001760001,-0.002557221,1.00458
205.744,18.13824,4.60418,0.001760016,-0.002437141,1.00416
206.444,18.15855,4.60955,0.001760158,-0.002132186,1.00373
207.144,18.17882,4.6188,0.001761333,-0.00161534,1.0033
207.844,18.19892,4.6237,0.0004544336,-0.000937686,1.00287
208.544,18.21915,4.63041,0.0004400829,-0.0002020742,1.00244
209.244,18.23935,4.64469,0.0007854193,0.0004292419,1.00201
209.944,18.25947,4.65943,0.00175555,0.000796359,1.00157
210.644,18.27968,4.66934,0.00175948,0.000794055,1.00114
211.344,18.2998,4.66803,0.001759955,0.0004029907,1.0007
212.044,18.3199,4.68989,0.001759996,-0.0003012995,1.00026
212.744,18.3399,4.69759,0.00176,-0.001163702,0.99982
213.444,18.35991,4.69586,0.001760005,-0.001984291,0.99938
214.144,18.3799,4.71569,0.001760069,-0.002560512,0.99894
214.844,18.3999,4.72238,0.00176096,-0.002729032,0.99849
215.544,18.41989,4.7324,0.00136572,-0.002398895,0.99805
216.244,18.43981,4.74853,0.0004486424,-0.001571289,0.9976
216.944,18.45981,4.7566,0.00043772,-0.000332576,0.99715
217.644,18.47973,4.7651,0.000793672,0.001147262,0.9967
218.344,18.49963,4.76429,0.001098249,0.002688152,0.99625
219.044,18.5196,4.77918,0.001099761,0.00411686,0.9958
219.744,18.53952,4.7842,0.001098437,0.00526912,0.99535
220.444,18.55943,4.79976,0.00144082,0.006017803,0.99489
221.144,18.5793,4.81133,0.001759272,0.00629718,0.99444
221.844,18.59917,4.81338,0.00176,0.006095759,0.99398
222.544,18.61906,4.83013,0.00240551,0.005437506,0.99352
223.244,18.6389,4.8424,0.00240923,0.004367676,0.99306
223.944,18.65875,4.85323,0.002409905,0.002939443,0.9926
224.644,18.67855,4.86948,0.00240999,0.001212597,0.99213
225.344,18.69824,4.87179,0.002409999,-0.0007409708,0.99167
226.044,18.71793,4.89,0.002409999,-0.00284919,0.9912
226.744,18.73764,4.89944,0.002409994,-0.004981437,0.99074
227.444,18.75741,4.91465,0.0024099,-0.006958678,0.99027
228.144,18.77713,4.91912,0.002408539,-0.008562304,0.9898
228.844,18.79694,4.91955,0.002388565,-0.0095949,0.98933
229.544,18.8167,4.93129,0.001678652,-0.009871577,0.98885
230.244,18.83636,4.94551,0.001186653,-0.009305449,0.98838
230.944,18.85608,4.95793,-0.0001833658,-0.007934689,0.98791
231.644,18.87574,4.96732,-0.0002086332,-0.005948183,0.98743
232.344,18.89537,4.97776,-0.0002097525,-0.0036376,0.98695
233.044,18.915,4.99538,-0.0002080587,-0.00134347,0.98647
233.744,18.9346,4.99212,-0.0001292755,0.0006249824,0.98599
234.444,18.95426,5.00232,0.001188627,0.002058328,0.98551
235.144,18.97387,5.01684,0.001107853,0.002884841,0.98503
235.844,18.9935,5.02313,0.00111637,0.003169729,0.98455
236.544,19.013,5.03348,0.001338714,0.00308464,0.98406
237.244,19.03254,5.04529,0.00172336,0.00284331,0.98358
237.944,19.0521,5.05771,0.00151965,0.00262426,0.98309
238.644,19.07169,5.06554,0.0004335295,0.002521521,0.9826
239.344,19.09131,5.06604,0.0004380188,0.002534364,0.98211
240.044,19.11091,5.07761,0.0004225165,0.002590097,0.98162
240.744,19.13046,5.09072,0.001207502,0.00258748,0.98113
241.444,19.14994,5.09786,0.00175447,0.002452112,0.98063
242.144,19.16941,5.11657,0.001759863,0.00217758,0.98014
242.844,19.18881,5.1266,0.001760012,0.00183344,0.97964
243.544,19.20824,5.12392,0.00175986,0.00154182,0.97915
244.244,19.22772,5.13658,0.00175714,0.00143757,0.97865
244.944,19.24718,5.14778,0.001540559,0.00161358,0.97815
245.644,19.26669,5.15018,0.000734685,0.002091139,0.97765
246.344,19.2862,5.15413,0.000699774,0.002812691,0.97715
247.044,19.30555,5.16387,0.00148124,0.00364783,0.97664
247.744,19.32497,5.183,0.001434336,0.004435327,0.97614
248.444,19.34436,5.19345,0.00143236,0.005014451,0.97564
249.144,19.3638,5.18843,0.00148896,0.005281366,0.97513
249.844,19.38316,5.19827,0.00287556,0.005200612,0.97462
250.544,19.40261,5.20885,0.00239118,0.004805407,0.97411
251.244,19.42199,5.22189,0.002418042,0.00418051,0.9736
251.944,19.4414,5.22626,0.002419872,0.00342691,0.97309
252.644,19.46071,5.24645,0.002419993,0.002652733,0.97258
253.344,19.48014,5.2578,0.00242,0.001936042,0.97207
254.044,19.49948,5.25887,0.00242,0.001338982,0.97156
254.744,19.51875,5.25739,0.00242,0.0008764837,0.97104
255.444,19.53811,5.27331,0.00242,0.0005346136,0.97052
256.144,19.5575,5.27937,0.00242,0.0002950376,0.97001
256.844,19.5768,5.28905,0.00242,0.0001361531,0.96949
257.544,19.59615,5.2949,0.00242,3.096841e-05,0.96897
258.244,19.6155,5.2944,0.00242,-4.94963e-05,0.96845
258.944,19.63469,5.31083,0.00242,-0.0001247539,0.96793
259.644,19.65394,5.31022,0.00242,-0.00020219,0.96741
260.344,19.67321,5.32412,0.00242,-0.000283833,0.96688
261.044,19.69241,5.33289,0.00242,-0.000361791,0.96636
261.744,19.71169,5.32845,0.00242,-0.0004173401,0.96583
262.444,19.731,5.33654,0.002420001,-0.0004233285,0.96531
263.144,19.75027,5.34732,0.002420008,-0.0003447589,0.96478
263.844,19.7695,5.35282,0.00242003,-0.0001442216,0.96425
264.544,19.78875,5.35963,0.002419517,0.0002098372,0.96372
265.244,19.80797,5.35603,0.002403158,0.0007276329,0.96319
265.944,19.82713,5.36547,0.001582919,0.001395585,0.96266
266.644,19.8463,5.36526,0.002291141,0.002176488,0.96212
267.344,19.86557,5.38176,0.002409564,0.00299907,0.96159
268.044,19.88472,5.37791,0.002419064,0.00376648,0.96106
268.744,19.90392,5.39365,0.002419436,0.00438706,0.96052
269.444,19.92313,5.38891,0.002413976,0.004769263,0.95998
270.144,19.94225,5.39779,0.002354002,0.004837478,0.95945
270.844,19.96151,5.41243,0.0034921,0.004546097,0.95891
271.544,19.98077,5.40461,0.003405307,0.003890812,0.95837
272.244,19.99999,5.4157,0.00340023,0.002912855,0.95783
272.944,20.01921,5.41791,0.0034,0.001687607,0.95728
273.644,20.03845,5.42288,0.0034,0.000333361,0.95674
274.344,20.0576,5.43889,0.0034,-0.0009882635,0.9562
275.044,20.07668,5.44673,0.00339999,-0.002124778,0.95565
275.744,20.0958,5.44776,0.003399863,-0.002924794,0.95511
276.444,20.11489,5.45274,0.0033981,-0.003267913,0.95456
277.144,20.134,5.45675,0.003338742,-0.00308547,0.95402
277.844,20.15315,5.45808,0.001994208,-0.002390111,0.95347
278.544,20.1723,5.46498,0.00208329,-0.001285068,0.95292
279.244,20.1915,5.47467,0.002089633,5.547978e-05,0.95237
279.944,20.21065,5.47813,0.002090508,0.001414965,0.95182
280.644,20.2298,5.48841,0.002093025,0.002578906,0.95127
281.344,20.24894,5.4932,0.003386592,0.00338332,0.95071
282.044,20.26807,5.50088,0.003394837,0.003726305,0.95016
282.744,20.28718,5.4997,0.00339928,0.00357557,0.94961
283.444,20.30627,5.51473,0.003399922,0.00296256,0.94905
284.144,20.3254,5.51201,0.003399993,0.00196165,0.94849
284.844,20.34444,5.51544,0.0034,0.000684175,0.94794
285.544,20.3636,5.52059,0.0034,-0.000774883,0.94738
286.244,20.38265,5.53313,0.003400002,-0.002312545,0.94682
286.944,20.4018,5.53002,0.00340002,-0.0038429,0.94626
287.644,20.4209,5.53501,0.003400165,-0.005264859,0.9457
288.344,20.44008,5.54053,0.00340113,-0.006465038,0.94514
289.044,20.45916,5.55215,0.003399952,-0.007305415,0.94458
289.744,20.47837,5.56018,0.00249061,-0.007667489,0.94402
290.444,20.49745,5.55429,0.0020877,-0.00744722,0.94345
291.144,20.51661,5.56263,0.002089987,-0.006600084,0.94289
291.844,20.53566,5.57309,0.002093738,-0.005170574,0.94232
292.544,20.55475,5.56951,0.002141587,-0.003269218,0.94176
293.244,20.57384,5.57964,0.001062312,-0.001104435,0.94119
293.944,20.593,5.59003,0.0008041644,0.00104667,0.94062
294.644,20.612,5.58023,0.0009052555,0.002845612,0.94005
295.344,20.6311,5.59187,0.002128998,0.00400133,0.93948
296.044,20.65021,5.60833,0.00207381,0.00428309,0.93891
296.744,20.66925,5.59882,0.003076751,0.003594992,0.93834
297.444,20.68832,5.60696,0.003401078,0.00199314,0.93777
298.144,20.7074,5.61471,0.003400167,-0.0003113838,0.9372
298.844,20.72654,5.62078,0.00339989,-0.002995792,0.93663
299.544,20.74563,5.62587,0.003397996,-0.00565675,0.93605
300.244,20.7647,5.62405,0.00337263,-0.007918784,0.93548
300.944,20.7837,5.62614,0.00292958,-0.009492977,0.9349
301.644,20.80283,5.63334,0.0006781465,-0.01020573,0.93433
302.344,20.82187,5.63768,0.000773207,-0.01003981,0.93375
303.044,20.841,5.6414,0.0007796024,-0.009105819,0.93317
303.744,20.86008,5.63736,0.0007799828,-0.00760592,0.93259
304.444,20.87914,5.64745,0.00078,-0.005771394,0.93202
305.144,20.89815,5.64447,0.00078,-0.003818101,0.93144
305.844,20.91724,5.65766,0.00078,-0.00191745,0.93086
306.544,20.93631,5.66367,0.000780001,-0.000235235,0.93027
307.244,20.9554,5.66148,0.0007800095,0.001105839,0.92969
307.944,20.97449,5.67011,0.0007801275,0.0019938,0.92911
308.644,20.9936,5.68117,0.000781582,0.002340342,0.92853
309.344,21.01258,5.67776,0.0007976718,0.002108368,0.92794
310.044,21.03165,5.68351,0.0009721355,0.00132572,0.92736
310.744,21.0507,5.69266,0.002095075,9.727726e-05,0.92677
311.444,21.06979,5.69173,0.00209023,-0.001390862,0.92619
312.144,21.08888,5.6963,0.002089671,-0.002884694,0.9256
312.844,21.10793,5.69676,0.002073883,-0.004103373,0.92501
313.544,21.12699,5.69384,0.001295083,-0.004828211,0.92443
314.244,21.146,5.69732,6.93473e-05,-0.004942037,0.92384
314.944,21.1651,5.70807,-0.0001879403,-0.00445554,0.92325
315.644,21.18415,5.71078,-0.00021223,-0.00350119,0.92266
316.344,21.20319,5.71482,-0.0002589814,-0.002287413,0.92207
317.044,21.22224,5.71159,0.0006104364,-0.00104222,0.92148
317.744,21.24132,5.7182,0.0007762684,4.1523e-05,0.92089
318.444,21.26032,5.72442,0.000779825,0.0008358136,0.9203
319.144,21.27936,5.72494,0.000779997,0.00130827,0.9197
319.844,21.29843,5.72882,0.0007800008,0.00149678,0.91911
320.544,21.3175,5.7437,0.00078,0.001489645,0.91852
321.244,21.33663,5.73764,0.00078,0.0013852,0.91792
321.944,21.35569,5.74707,0.00078,0.00126855,0.91733
322.644,21.3748,5.74038,0.00078,0.00119899,0.91673
323.344,21.39389,5.7533,0.0007800002,0.001200658,0.91613
324.044,21.41296,5.75712,0.0007800027,0.001264479,0.91554
324.744,21.43204,5.74812,0.000780028,0.001366155,0.91494
325.444,21.45114,5.77107,0.000780261,0.001476026,0.91434
326.144,21.47021,5.75294,0.0007818031,0.00156165,0.91374
326.844,21.48929,5.7725,0.000782575,0.001597101,0.91314
327.544,21.5083,5.76413,0.001115224,0.001566584,0.91254
328.244,21.5274,5.76293,0.001110878,0.00146528,0.91194
328.944,21.54645,5.77517,0.001110099,0.00130311,0.91134
329.644,21.5655,5.77037,0.00111001,0.00110613,0.91074
330.344,21.58458,5.77809,0.001110001,0.0009095637,0.91014
331.044,21.6037,5.78037,0.00111,0.0007465186,0.90954
331.744,21.6228,5.7739,0.00111,0.0006424565,0.90894
332.444,21.64188,5.78892,0.00111,0.0006184007,0.90833
333.144,21.661,5.78914,0.00111,0.0006924987,0.90773
333.844,21.68009,5.79285,0.00111,0.0008809036,0.90712
334.544,21.69921,5.78943,0.00111,0.00118864,0.90652
335.244,21.7183,5.80281,0.00111,0.001593336,0.90591
335.944,21.73745,5.79684,0.00111,0.00204501,0.90531
336.644,21.7566,5.7954,0.001109998,0.00246466,0.9047
337.344,21.77573,5.7994,0.001109964,0.00274502,0.9041
338.044,21.79486,5.799,0.00110951,0.002762514,0.90349
338.744,21.814,5.8087,0.001103677,0.002401167,0.90288
339.444,21.8332,5.80531,0.00103323,0.001591652,0.90227
340.144,21.85233,5.81006,0.002288032,0.0003361414,0.90166
340.844,21.8715,5.81713,0.00241787,-0.001279484,0.90106
341.544,21.8906,5.81293,0.002415998,-0.003090576,0.90045
342.244,21.90977,5.82613,0.00239945,-0.004893993,0.89984
342.944,21.929,5.8145,0.00111509,-0.006490157,0.89923
343.644,21.94819,5.82413,0.001111424,-0.00769489,0.89862
344.344,21.96736,5.82668,0.00108875,-0.008410554,0.898
345.044,21.9865,5.82494,0.0003482071,-0.00862189,0.89739
345.744,22.00571,5.8263,0.0001398116,-0.00838825,0.89678
346.444,22.02487,5.83914,0.000121678,-0.007822384,0.89617
347.144,22.044,5.84828,0.0001195106,-0.007057816,0.89556
347.844,22.06322,5.84425,0.00011243,-0.00621506,0.89494
348.544,22.08248,5.84495,1.987436e-05,-0.005394689,0.89433
349.244,22.1017,5.84469,-0.0002013502,-0.00466251,0.89372
349.944,22.1209,5.84346,-0.000209488,-0.004040989,0.8931
350.644,22.14013,5.84594,-0.000209945,-0.003527192,0.89249
351.344,22.1593,5.85361,-0.0002099316,-0.003100667,0.89187
352.044,22.1785,5.8471,-0.0002132169,-0.00274181,0.89126
352.744,22.19772,5.85227,-0.0005029811,-0.002441863,0.89064
353.444,22.21695,5.85879,-0.0005358442,-0.002199903,0.89002
354.144,22.23614,5.85615,-0.0005395842,-0.002027139,0.88941
354.844,22.25534,5.85511,-0.0005399635,-0.00194876,0.88879
355.544,22.27459,5.86155,-0.0005400095,-0.001993557,0.88817
356.244,22.2939,5.857,-0.0005401622,-0.002176963,0.88756
356.944,22.31312,5.86537,-0.000541971,-0.002490633,0.88694
357.644,22.33238,5.86894,-0.0005626959,-0.00289613,0.88632
358.344,22.35165,5.86488,-0.0001741582,-0.00333615,0.8857
359.044,22.37087,5.87379,-0.0001731471,-0.003752964,0.88508
359.744,22.39017,5.87658,-0.001252978,-0.004108913,0.88446
360.444,22.40943,5.86552,-0.001201147,-0.0043777,0.88384
361.144,22.42871,5.88457,-0.001199842,-0.0045509,0.88322
361.844,22.44806,5.88691,-0.00119997,-0.004630458,0.8826
362.544,22.4674,5.89115,-0.001199996,-0.004618844,0.88198
363.244,22.48667,5.88715,-0.001199997,-0.004505637,0.88136
363.944,22.506,5.89313,-0.001199965,-0.004263286,0.88074
364.644,22.52528,5.89881,-0.001199502,-0.00386051,0.88012
365.344,22.54456,5.89971,-0.001193284,-0.003282984,0.8795
366.044,22.5639,5.90009,-0.00202835,-0.002548907,0.87888
366.744,22.58328,5.90195,-0.00249709,-0.00172507,0.87826
367.444,22.6026,5.90316,-0.002553982,-0.0009156464,0.87763
368.144,22.622,5.91218,-0.00162355,-0.0002219092,0.87701
368.844,22.6414,5.90603,-0.0011963,0.000250751,0.87639
369.544,22.6607,5.90843,-0.001555148,0.0004268553,0.87577
370.244,22.68,5.9133,-0.00153115,0.0002769863,0.87514
370.944,22.69945,5.90701,-0.00153003,-0.0001863338,0.87452
371.644,22.7186,5.9111,-0.001529995,-0.0009059511,0.87389
372.344,22.73791,5.91566,-0.001529999,-0.00182717,0.87327
373.044,22.75734,5.91538,-0.00153,-0.00287675,0.87265
373.744,22.77668,5.91915,-0.00153,-0.00395517,0.87202
374.444,22.79597,5.92328,-0.001529966,-0.004968517,0.8714
375.144,22.81557,5.92339,-0.00152953,-0.005836671,0.87077
375.844,22.83503,5.93338,-0.001523378,-0.006470644,0.87015
376.544,22.85452,5.93619,-0.002427905,-0.00685033,0.86952
377.244,22.87405,5.92677,-0.00282536,-0.00698835,0.8689
377.944,22.89361,5.93296,-0.00284816,-0.006942266,0.86827
378.644,22.91318,5.9323,-0.002849865,-0.00680688,0.86765
379.344,22.93263,5.93692,-0.00284999,-0.006681305,0.86702
380.044,22.95206,5.95164,-0.002850002,-0.0066271,0.86639
380.744,22.97152,5.95472,-0.002850033,-0.0066522,0.86577
381.444,22.99098,5.95574,-0.002850352,-0.006712612,0.86514
382.144,23.01039,5.95209,-0.002853146,-0.006732177,0.86451
382.844,23.02986,5.95708,-0.00287351,-0.006631504,0.86389
383.544,23.0493,5.95405,-0.004174074,-0.006355097,0.86326
384.244,23.0687,5.95972,-0.004168951,-0.005894239,0.86263
384.944,23.0882,5.96165,-0.004170015,-0.005292585,0.86201
385.644,23.1076,5.9596,-0.00417382,-0.00463914,0.86138
386.344,23.12707,5.96358,-0.004233595,-0.00404239,0.86075
387.044,23.14653,5.96046,-0.003686758,-0.003600223,0.86012
387.744,23.16607,5.96937,-0.004173311,-0.00337279,0.8595
388.444,23.1856,5.97224,-0.00416109,-0.003379212,0.85887
389.144,23.20515,5.96654,-0.00416009,-0.003598485,0.85824
389.844,23.22468,5.96476,-0.004160103,-0.00398835,0.85761
390.544,23.2442,5.9688,-0.004161289,-0.00449786,0.85698
391.244,23.26381,5.96787,-0.004176926,-0.00506354,0.85635
391.944,23.28342,5.98055,-0.004431674,-0.00561179,0.85573
392.644,23.303,5.97637,-0.004800879,-0.006066458,0.8551
393.344,23.32263,5.98369,-0.004818514,-0.00635429,0.85447
394.044,23.34225,5.98027,-0.00481829,-0.006394421,0.85384
394.744,23.36191,5.98598,-0.004800056,-0.006119706,0.85321
395.444,23.3816,5.98726,-0.005178637,-0.00549607,0.85258
396.144,23.4013,5.97493,-0.005110751,-0.004547961,0.85195
396.844,23.42101,5.99034,-0.006271377,-0.00336802,0.85132
397.544,23.4406,5.98495,-0.006468301,-0.002117922,0.85069
398.244,23.46026,5.98433,-0.006464351,-0.000982855,0.85007
398.944,23.4799,5.98747,-0.00511306,-0.000165031,0.84944
399.644,23.49954,5.99344,-0.005148573,0.000166324,0.84881
400.344,23.51922,5.99251,-0.005149985,-8.791139e-05,0.84818
401.044,23.53889,5.99506,-0.00515001,-0.0009468311,0.84755
401.744,23.5586,5.99993,-0.005150002,-0.00235966,0.84692
402.444,23.57829,6.00111,-0.00515002,-0.004201366,0.84629
403.144,23.59805,5.99558,-0.005150267,-0.006307912,0.84566
403.844,23.6178,6.00725,-0.005154306,-0.008477041,0.84503
404.544,23.6375,6.00622,-0.00541209,-0.01051142,0.8444
405.244,23.65727,6.01267,-0.005814108,-0.01222621,0.84377
405.944,23.67696,6.00881,-0.0057277,-0.0134763,0.84314
406.644,23.6967,6.02252,-0.007111681,-0.01419069,0.84251
407.344,23.7164,6.01151,-0.007122427,-0.01436316,0.84188
408.044,23.73614,6.01842,-0.007036213,-0.01405214,0.84125
408.744,23.75584,6.01257,-0.008413337,-0.01338619,0.84062
409.444,23.7756,6.02228,-0.008438847,-0.01254834,0.83999
410.144,23.79535,6.03571,-0.00843991,-0.01174093,0.83936
410.844,23.81492,6.01889,-0.00844,-0.01112643,0.83874
411.544,23.83456,6.03015,-0.008440142,-0.010787,0.83811
412.244,23.85439,6.0322,-0.008441964,-0.01074459,0.83748
412.944,23.87405,6.04172,-0.008466406,-0.01093498,0.83685
413.644,23.89391,6.03427,-0.008901961,-0.01121701,0.83622
414.344,23.91392,6.03688,-0.009392513,-0.01141039,0.83559
415.044,23.93375,6.03254,-0.00941168,-0.01136349,0.83496
415.744,23.95359,6.04664,-0.00933539,-0.01100879,0.83433
416.444,23.97345,6.0366,-0.01062297,-0.01037125,0.8337
417.144,23.99328,6.04417,-0.01110358,-0.009569744,0.83307
417.844,24.01308,6.04247,-0.01107236,-0.00879378,0.83244
418.544,24.03295,6.04484,-0.01106941,-0.008246082,0.83181
419.244,24.05281,6.04805,-0.0110597,-0.008072423,0.83118
419.944,24.0727,6.05656,-0.01090273,-0.008307113,0.83056
420.644,24.0926,6.05495,-0.009706187,-0.008873383,0.82993
421.344,24.1125,6.05859,-0.009707735,-0.009601039,0.8293
422.044,24.13244,6.06313,-0.01121575,-0.01028081,0.82867
422.744,24.15239,6.06966,-0.01251714,-0.01073063,0.82804
423.444,24.17231,6.06222,-0.01250121,-0.01084332,0.82741
424.144,24.19225,6.08016,-0.01250009,-0.01058175,0.82678
424.844,24.2122,6.06815,-0.01249999,-0.009965105,0.82616
425.544,24.2321,6.06681,-0.01249984,-0.009052518,0.82553
426.244,24.25205,6.07416,-0.01249782,-0.00789888,0.8249
426.944,24.27196,6.06983,-0.01247077,-0.006563434,0.82427
427.644,24.29191,6.06391,-0.01338368,-0.005113657,0.82364
428.344,24.31186,6.07573,-0.01379738,-0.003673173,0.82302
429.044,24.3319,6.06331,-0.01380902,-0.002419689,0.82239
429.744,24.35189,6.07778,-0.01380889,-0.001580691,0.82176
430.444,24.37187,6.07343,-0.01378901,-0.001366727,0.82113
431.144,24.39191,6.07675,-0.01241004,-0.00193686,0.82051
431.844,24.4119,6.07577,-0.01249348,-0.003341788,0.81988
432.544,24.4319,6.07414,-0.01249926,-0.00549479,0.81925
433.244,24.45198,6.06941,-0.01249603,-0.00817615,0.81863
433.944,24.47194,6.07191,-0.01244573,-0.01105227,0.818
434.644,24.492,6.07423,-0.01367348,-0.01383099,0.81737
435.344,24.51201,6.06356,-0.01383256,-0.01621954,0.81675
436.044,24.53205,6.06396,-0.01404682,-0.01801708,0.81612
436.744,24.5521,6.06651,-0.01526915,-0.0191224,0.81549
437.444,24.57227,6.06321,-0.01526756,-0.01953172,0.81487
438.144,24.5924,6.05869,-0.01551674,-0.01932755,0.81424
438.844,24.61252,6.0523,-0.01658398,-0.01866595,0.81362
439.544,24.63264,6.05447,-0.0168446,-0.01775595,0.81299
440.244,24.6528,6.05354,-0.01771425,-0.0168138,0.81237
440.944,24.67296,6.05634,-0.01654709,-0.01604858,0.81174
441.644,24.69308,6.05221,-0.01796242,-0.01562722,0.81112
442.344,24.71323,6.04956,-0.01787659,-0.01565062,0.81049
443.044,24.73338,6.04766,-0.01787026,-0.01612867,0.80987
443.744,24.7535,6.04538,-0.01786705,-0.01698996,0.80924
444.444,24.77365,6.03597,-0.01782762,-0.01811107,0.80862
445.144,24.79384,6.03345,-0.01895346,-0.01933712,0.808
445.844,24.814,6.02176,-0.01927705,-0.0205383,0.80737
446.544,24.8342,6.01385,-0.02016558,-0.02165264,0.80675
447.244,24.8545,6.01399,-0.02059322,-0.02269255,0.80613
447.944,24.8747,6.01212,-0.02056833,-0.02373209,0.8055
448.644,24.8949,5.98346,-0.02171671,-0.0248673,0.80488
449.344,24.91516,5.98583,-0.02191855,-0.02614673,0.80426
450.044,24.9354,5.98293,-0.02192567,-0.02753866,0.80364
450.744,24.95561,5.96487,-0.0218803,-0.02893119,0.80302
451.444,24.9759,5.9633,-0.02317184,-0.03017143,0.80239
452.144,24.99619,5.95088,-0.02325987,-0.03108698,0.80177
452.844,25.01652,5.93759,-0.02488535,-0.03159493,0.80115
453.544,25.03681,5.93383,-0.02605779,-0.03173947,0.80053
454.244,25.0571,5.90876,-0.02740939,-0.03170809,0.79991
454.944,25.07739,5.90942,-0.02741954,-0.03175526,0.79929
455.644,25.09765,5.89483,-0.02742006,-0.03212381,0.79867
456.344,25.11799,5.88503,-0.02742104,-0.03299233,0.79805
457.044,25.13834,5.86899,-0.02768545,-0.03443383,0.79743
457.744,25.15868,5.85494,-0.02874854,-0.03642957,0.79681
458.444,25.17909,5.85777,-0.02906346,-0.038939,0.79619
459.144,25.19945,5.8422,-0.03136925,-0.0419148,0.79557
459.844,25.2198,5.81403,-0.03208125,-0.04536414,0.79496
460.544,25.24022,5.80953,-0.03281452,-0.04931947,0.79434
461.244,25.2606,5.79915,-0.03420646,-0.053717,0.79372
461.944,25.28094,5.78384,-0.03287945,-0.0584249,0.7931
462.644,25.30133,5.75668,-0.0343979,-0.0631936,0.79249
463.344,25.32175,5.75037,-0.03586215,-0.06769857,0.79187
464.044,25.34218,5.73665,-0.03821597,-0.0716356,0.79125
464.744,25.3626,5.71472,-0.04043702,-0.07485884,0.79064
465.444,25.38305,5.70308,-0.04283373,-0.07745972,0.79002
466.144,25.40342,5.69814,-0.04518754,-0.07973194,0.7894
466.844,25.4239,5.66455,-0.04555639,-0.08213331,0.78879
467.544,25.44439,5.6546,-0.04637898,-0.0850745,0.78817
468.244,25.4649,5.62994,-0.0475802,-0.08884353,0.78756
468.944,25.48536,5.60573,-0.04936738,-0.09350577,0.78695
469.644,25.50583,5.60577,-0.05148702,-0.09894838,0.78633
470.344,25.52629,5.57226,-0.05377299,-0.10491,0.78572
471.044,25.54674,5.556,-0.05623317,-0.1111,0.7851
471.744,25.56723,5.5329,-0.05846493,-0.11737,0.78449
472.444,25.58771,5.51408,-0.06120334,-0.12367,0.78388
473.144,25.60817,5.49431,-0.06339035,-0.13004,0.78327
473.844,25.62868,5.46461,-0.06585515,-0.13663,0.78266
474.544,25.64924,5.44363,-0.06898494,-0.14354,0.78204
475.244,25.66979,5.41397,-0.07136976,-0.1508,0.78143
475.944,25.6904,5.40247,-0.07530495,-0.1584,0.78082
476.644,25.71085,5.38325,-0.0777568,-0.16616,0.78021
477.344,25.73135,5.35392,-0.08124777,-0.17396,0.7796
478.044,25.7519,5.32265,-0.08534808,-0.18175,0.77899
478.744,25.7725,5.29332,-0.08989284,-0.18948,0.77838
479.444,25.79305,5.26972,-0.09397864,-0.19722,0.77777
480.144,25.81362,5.25047,-0.09724655,-0.2051,0.77717
480.844,25.83415,5.22307,-0.10158,-0.21327,0.77656
481.544,25.85471,5.18783,-0.10626,-0.22197,0.77595
482.244,25.8753,5.16584,-0.11148,-0.23139,0.77534
482.944,25.896,5.15567,-0.11439,-0.24161,0.77474
483.644,25.9166,5.1442,-0.11966,-0.25267,0.77413
484.344,25.9373,5.11158,-0.12504,-0.26454,0.77352
485.044,25.9579,5.09633,-0.1319,-0.2771,0.77292
485.744,25.97857,5.08478,-0.13651,-0.29021,0.77231
486.444,25.9993,5.07562,-0.14173,-0.3037,0.77171
487.144,26.01997,5.08494,-0.14832,-0.31741,0.7711
487.844,26.04063,5.06082,-0.15598,-0.33126,0.7705
488.544,26.06128,5.05729,-0.16355,-0.34534,0.76989
489.244,26.0819,5.04644,-0.17069,-0.35982,0.76929
489.944,26.1025,5.0463,-0.17801,-0.37508,0.76869
490.644,26.1232,5.04995,-0.18527,-0.39145,0.76809
491.344,26.14384,5.08147,-0.19355,-0.40926,0.76748
492.044,26.1646,5.10134,-0.20117,-0.42876,0.76688
492.744,26.18535,5.10949,-0.20998,-0.45,0.76628
493.444,26.20606,5.14462,-0.21876,-0.47291,0.76568
494.144,26.22692,5.1779,-0.2303,-0.4977,0.76508
494.844,26.24765,5.2121,-0.24009,-0.52394,0.76448
495.544,26.2684,5.28239,-0.25187,-0.55177,0.76388
496.244,26.2891,5.39545,-0.2617,-0.58106,0.76328
496.944,26.30994,5.49912,-0.275,-0.61184,0.76269
497.644,26.3307,5.57056,-0.28626,-0.64381,0.76209
498.344,26.3515,5.66779,-0.30113,-0.67673,0.76149
499.044,26.37235,5.77937,-0.31377,-0.71027,0.76089
499.744,26.39315,5.91334,-0.33121,-0.74414,0.7603
500.444,26.414,6.01616,-0.34602,-0.77824,0.7597
501.144,26.43485,6.08908,-0.36403,-0.81246,0.75911
501.844,26.45573,6.1771,-0.37934,-0.84683,0.75851
502.544,26.47662,6.27877,-0.39864,-0.88133,0.75792
503.244,26.49758,6.43922,-0.4166,-0.91598,0.75732
503.944,26.51851,6.60055,-0.43606,-0.95041,0.75673
504.644,26.53939,6.72226,-0.45523,-0.98419,0.75614
505.344,26.5603,6.82616,-0.47648,-1.01697,0.75554
506.044,26.5811,6.83093,-0.49943,-1.0481,0.75495
506.744,26.60202,6.93655,-0.52223,-1.07749,0.75436
507.444,26.623,7.04255,-0.54683,-1.10493,0.75377
508.144,26.64394,7.03108,-0.56892,-1.13047,0.75318
508.844,26.66488,7.08718,-0.59472,-1.15438,0.75259
509.544,26.68579,7.15006,-0.61771,-1.17709,0.752
510.244,26.70672,7.14681,-0.64435,-1.19917,0.75141
510.944,26.7277,7.18479,-0.66703,-1.22107,0.75082
511.644,26.74861,7.12489,-0.696,-1.24325,0.75023
512.344,26.7696,7.15348,-0.71963,-1.26603,0.74964
513.044,26.79056,7.22822,-0.74909,-1.28955,0.74906
513.744,26.81158,7.30184,-0.77264,-1.31394,0.74847
514.444,26.83257,7.37364,-0.80245,-1.33899,0.74788
515.144,26.8536,7.35925,-0.82852,-1.36461,0.7473
515.844,26.87465,7.30551,-0.86002,-1.3904,0.74671
516.544,26.89568,7.33807,-0.88733,-1.41588,0.74613
517.244,26.91671,7.33469,-0.91912,-1.44071,0.74555
517.944,26.9378,7.36781,-0.94873,-1.46472,0.74496
518.644,26.9588,7.36249,-0.98082,-1.4878,0.74438
519.344,26.9799,7.26422,-1.01204,-1.51025,0.7438
520.044,27.0009,7.23654,-1.04551,-1.53249,0.74322
520.744,27.022,7.26088,-1.07872,-1.55511,0.74264
521.444,27.04311,7.26053,-1.10969,-1.57877,0.74205
522.144,27.06423,7.27027,-1.14428,-1.60388,0.74147
522.844,27.0854,7.24617,-1.17418,-1.63063,0.7409
523.544,27.10652,7.24441,-1.21258,-1.65905,0.74032
524.244,27.1276,7.20494,-1.24521,-1.68883,0.73974
524.944,27.1488,7.19283,-1.28566,-1.71971,0.73916
525.644,27.1699,7.23324,-1.31761,-1.75105,0.73858
526.344,27.191,7.28245,-1.35865,-1.7828,0.73801
527.044,27.2121,7.29682,-1.39298,-1.8144,0.73743
527.744,27.23327,7.35509,-1.43526,-1.84554,0.73685
528.444,27.2545,7.35265,-1.47056,-1.87575,0.73628
529.144,27.27563,7.33745,-1.5133,-1.90422,0.73571
529.844,27.2968,7.34199,-1.55264,-1.93054,0.73513
530.544,27.318,7.36927,-1.59619,-1.95396,0.73456
531.244,27.3393,7.34673,-1.63745,-1.97403,0.73399
531.944,27.3606,7.35302,-1.68015,-1.99033,0.73341
532.644,27.3818,7.28518,-1.72481,-2.00264,0.73284
533.344,27.40302,7.21877,-1.76708,-2.01099,0.73227
534.044,27.42424,7.13611,-1.81289,-2.01534,0.7317
534.744,27.44548,7.04309,-1.85212,-2.01569,0.73113
535.444,27.46675,6.94254,-1.89932,-2.01201,0.73056
536.144,27.488,6.82584,-1.93943,-2.00422,0.72999
536.844,27.50923,6.71143,-1.98765,-1.99222,0.72943
537.544,27.5305,6.5794,-2.02588,-1.97586,0.72886
538.244,27.55172,6.45194,-2.07231,-1.95511,0.72829
538.944,27.57297,6.29711,-2.1098,-1.92992,0.72773
539.644,27.59427,6.14148,-2.15476,-1.90016,0.72716
540.344,27.61556,5.98976,-2.19221,-1.86578,0.7266
541.044,27.63692,5.80516,-2.23437,-1.82649,0.72603
541.744,27.65825,5.62131,-2.27237,-1.78234,0.72547
542.444,27.6796,5.4194,-2.31136,-1.73314,0.7249
543.144,27.7009,5.20985,-2.34895,-1.67885,0.72434
543.844,27.72225,4.98775,-2.38365,-1.6199,0.72378
544.544,27.74365,4.76588,-2.42198,-1.55648,0.72322
545.244,27.765,4.53936,-2.45313,-1.48967,0.72266
545.944,27.78632,4.31024,-2.48699,-1.42032,0.7221
546.644,27.8077,4.072,-2.51225,-1.34897,0.72154
547.344,27.82905,3.84578,-2.54346,-1.27673,0.72098
548.044,27.8504,3.61551,-2.56759,-1.20426,0.72042
548.744,27.87176,3.3879,-2.59515,-1.13203,0.71987
549.444,27.89313,3.16018,-2.61595,-1.06084,0.71931
550.144,27.9144,2.96149,-2.63951,-0.99149,0.71875
550.844,27.93577,2.75888,-2.65831,-0.92393,0.7182
551.544,27.95725,2.57896,-2.67738,-0.85852,0.71764
552.244,27.9786,2.39898,-2.69289,-0.79609,0.71709
552.944,28.0001,2.25388,-2.70838,-0.73632,0.71653
553.644,28.0216,2.097,-2.72503,-0.67971,0.71598
554.344,28.04294,1.96725,-2.73848,-0.62661,0.71543
555.044,28.06437,1.85,-2.75167,-0.57666,0.71488
555.744,28.08575,1.73821,-2.76224,-0.53035,0.71433
556.444,28.10711,1.63964,-2.77282,-0.48778,0.71378
557.144,28.1286,1.55569,-2.78043,-0.4487,0.71323
557.844,28.1501,1.48976,-2.78922,-0.41312,0.71268
558.544,28.17166,1.42104,-2.79632,-0.38061,0.71213
559.244,28.1932,1.37167,-2.8061,-0.35091,0.71158
559.944,28.21479,1.32159,-2.81322,-0.32365,0.71104
560.644,28.2363,1.27489,-2.82058,-0.29879,0.71049
561.344,28.2578,1.23563,-2.82452,-0.27633,0.70994
562.044,28.2793,1.21509,-2.82971,-0.25622,0.7094
562.744,28.3009,1.18697,-2.835,-0.23859,0.70885
563.444,28.3224,1.17009,-2.83904,-0.22334,0.70831
564.144,28.34398,1.14526,-2.84292,-0.21015,0.70777
564.844,28.36555,1.13918,-2.84753,-0.19858,0.70723
565.544,28.3871,1.11324,-2.85222,-0.18821,0.70668
566.244,28.4086,1.10582,-2.85697,-0.17858,0.70614
566.944,28.43017,1.09737,-2.86004,-0.16948,0.7056
567.644,28.45174,1.08042,-2.8633,-0.1608,0.70506
568.344,28.4733,1.08633,-2.86631,-0.15258,0.70452
569.044,28.4948,1.06232,-2.8696,-0.14486,0.70399
569.744,28.51632,1.05486,-2.87259,-0.13769,0.70345
570.444,28.53789,1.05378,-2.87516,-0.13107,0.70291
571.144,28.5595,1.04583,-2.87841,-0.12503,0.70238
571.844,28.5811,1.03753,-2.88098,-0.11957,0.70184
572.544,28.60268,1.0307,-2.88298,-0.1147,0.70131
573.244,28.6243,1.02651,-2.88535,-0.11044,0.70077
573.944,28.6459,1.02581,-2.888,-0.10682,0.70024
574.644,28.66762,1.01757,-2.89016,-0.10384,0.69971
575.344,28.68928,1.01247,-2.89166,-0.10143,0.69917
576.044,28.7109,1.00713,-2.8936,-0.09945684,0.69864
576.744,28.73258,0.99829,-2.89547,-0.09773907,0.69811
577.444,28.7542,0.99168,-2.89842,-0.0961321,0.69758
578.144,28.7758,0.98682,-2.90028,-0.09453894,0.69705
578.844,28.7975,0.99187,-2.90225,-0.09294942,0.69653
579.544,28.81917,0.99204,-2.9046,-0.09143557,0.696
580.244,28.84083,0.9859,-2.90672,-0.09006632,0.69547
580.944,28.8625,0.96659,-2.90766,-0.08885099,0.69494
581.644,28.88417,0.99295,-2.90925,-0.08771566,0.69442
582.344,28.9059,0.98031,-2.91136,-0.08652761,0.69389
583.044,28.92762,0.95803,-2.91394,-0.08516477,0.69337
583.744,28.9493,0.95808,-2.91601,-0.08356423,0.69285
584.444,28.971,0.94219,-2.91793,-0.08175924,0.69232
585.144,28.9928,0.94765,-2.91982,-0.07988167,0.6918
585.844,29.01455,0.96124,-2.92128,-0.07808775,0.69128
586.544,29.0363,0.95601,-2.92264,-0.07648121,0.69076
587.244,29.05813,0.93813,-2.92345,-0.07508553,0.69024
587.944,29.07987,0.93194,-2.9254,-0.07385956,0.68972
588.644,29.1016,0.93571,-2.92774,-0.07274038,0.6892
589.344,29.1234,0.92463,-2.92968,-0.07171115,0.68869
590.044,29.14514,0.9166,-2.93085,-0.07082277,0.68817
590.744,29.1669,0.90814,-2.93206,-0.07020385,0.68765
591.444,29.18859,0.90688,-2.93365,-0.0699722,0.68714
592.144,29.21037,0.90363,-2.93486,-0.07015424,0.68662
592.844,29.23211,0.90566,-2.93598,-0.07064248,0.68611
593.544,29.2539,0.89625,-2.93759,-0.0712307,0.68559
594.244,29.2757,0.89333,-2.93935,-0.07166932,0.68508
594.944,29.2975,0.89422,-2.94088,-0.07174075,0.68457
595.644,29.3193,0.88888,-2.94267,-0.07133457,0.68406
596.344,29.3411,0.8903,-2.94487,-0.0704889,0.68355
597.044,29.36285,0.88065,-2.94646,-0.06934539,0.68304
597.744,29.3846,0.87087,-2.94766,-0.06805219,0.68253
598.444,29.40643,0.89886,-2.94907,-0.06670862,0.68202
599.144,29.4283,0.87985,-2.9498,-0.06533556,0.68152
599.844,29.45018,0.87233,-2.95133,-0.06389839,0.68101
600.544,29.47205,0.8865,-2.95301,-0.06235986,0.6805
601.244,29.4939,0.86711,-2.95483,-0.06074952,0.68
601.944,29.5158,0.86986,-2.9564,-0.05920791,0.67949
602.644,29.5376,0.86939,-2.95779,-0.05792504,0.67899
603.344,29.5595,0.87933,-2.95911,-0.05707572,0.67849
604.044,29.58135,0.8851,-2.95848,-0.05675159,0.67798
604.744,29.60326,0.89002,-2.95968,-0.05690975,0.67748
605.444,29.62517,0.87757,-2.96129,-0.05738527,0.67698
606.144,29.64705,0.89129,-2.96304,-0.05798028,0.67648
606.844,29.6689,0.88692,-2.96469,-0.05854762,0.67598
607.544,29.6908,0.8943,-2.9666,-0.05901834,0.67549
608.244,29.71275,0.90872,-2.96805,-0.05937486,0.67499
608.944,29.7347,0.90218,-2.96822,-0.05960133,0.67449
609.644,29.7567,0.89281,-2.96872,-0.05963836,0.674
610.344,29.77867,0.91757,-2.97025,-0.05944384,0.6735
611.044,29.80064,0.90236,-2.97203,-0.058938,0.67301
611.744,29.82256,0.92179,-2.97367,-0.05774967,0.67251
612.444,29.8445,0.90867,-2.97659,-0.05612449,0.67202
613.144,29.8665,0.9262,-2.97762,-0.05492984,0.67153
613.844,29.8884,0.92449,-2.97692,-0.05339787,0.67103
614.544,29.91044,0.94044,-2.9781,-0.04922421,0.67054
615.244,29.93245,0.94279,-2.9794,-0.04543889,0.67005
615.944,29.95443,0.94304,-2.98098,-0.0515643,0.66956
616.644,29.9764,0.92603,-2.98262,-0.04738642,0.66908
617.344,29.99839,0.93047,-2.9829,-0.02545121,0.66859