File: 01_Data/PC/STA/N2/30K_min/PC_STA_N2_30KData_211709_R2.csv
##Temp./Â°C,Time/min,DSC(subtr.2)/mW,Mass loss(subtr.2)/mg,DTG(subtr.2)/(mg/min),Sensit./(uV/mW)
49.403,10.01,0.00723845,-0.02435,-0.04966694,1.05401
50.103,11.07232,0.11919,-0.02541648,-0.002471444,1.05402
50.803,11.30296,0.21571,-0.02446947,-0.00105583,1.05404
51.503,11.4636,0.30308,-0.02492279,-0.002254511,1.05405
52.203,11.58945,0.37309,-0.02644498,-0.007034109,1.05405
52.903,11.69485,0.43026,-0.02819461,-0.000807698,1.05406
53.603,11.78924,0.49616,-0.02706633,0.00429439,1.05406
54.303,11.8742,0.56041,-0.025645,0.00185307,1.05406
55.003,11.95235,0.61079,-0.02627928,-0.004475662,1.05406
55.703,12.02489,0.66223,-0.02846866,-0.00464408,1.05406
56.403,12.09323,0.70137,-0.02745317,-0.002611552,1.05405
57.103,12.15815,0.7443,-0.02613727,-0.00576317,1.05404
57.803,12.2197,0.7852,-0.02874069,-0.00707257,1.05403
58.503,12.27918,0.81796,-0.0299121,-0.00150455,1.05401
59.203,12.33655,0.86008,-0.02847977,0.00320114,1.054
59.903,12.39153,0.90021,-0.02741298,0.0004384539,1.05398
60.603,12.44539,0.92872,-0.0271962,-0.005185453,1.05396
61.303,12.49774,0.95232,-0.02966883,-0.00565795,1.05394
62.003,12.54838,0.98645,-0.02963344,-0.0007540033,1.05391
62.703,12.59888,1.01497,-0.02896199,0.003758134,1.05388
63.403,12.6474,1.03685,-0.02759831,0.0038206,1.05385
64.103,12.6949,1.06222,-0.0281432,0.0009900063,1.05382
64.803,12.74245,1.09029,-0.02721328,-0.0006058389,1.05378
65.503,12.78915,1.11531,-0.02837722,0.001784993,1.05374
66.203,12.8344,1.12619,-0.02916057,0.006159763,1.0537
66.903,12.87929,1.16236,-0.02778554,0.008213488,1.05366
67.603,12.92361,1.18344,-0.02576925,0.006244188,1.05362
68.303,12.9672,1.20174,-0.02683501,0.002726011,1.05357
69.003,13.01025,1.22319,-0.02839218,0.0005667984,1.05352
69.703,13.05312,1.24004,-0.02703743,-0.0001440765,1.05347
70.403,13.09553,1.26571,-0.02731203,-0.001497879,1.05342
71.103,13.13729,1.28009,-0.02728403,-0.004712565,1.05336
71.803,13.17878,1.30826,-0.02556471,-0.00870715,1.0533
72.503,13.2196,1.32553,-0.0270348,-0.01039721,1.05324
73.203,13.2601,1.34817,-0.03004852,-0.00767156,1.05318
73.903,13.3004,1.36434,-0.02874052,-0.001543539,1.05311
74.603,13.34017,1.38611,-0.02982095,0.004124249,1.05304
75.303,13.3795,1.4097,-0.02722923,0.005967406,1.05297
76.003,13.4188,1.43316,-0.02744337,0.003351099,1.0529
76.703,13.45774,1.44809,-0.02693869,-0.00180216,1.05283
77.403,13.49603,1.47835,-0.02777902,-0.006931584,1.05275
78.103,13.53389,1.49448,-0.02815615,-0.01007303,1.05267
78.803,13.57156,1.51637,-0.02889218,-0.009916636,1.05259
79.503,13.609,1.53337,-0.02944438,-0.006362235,1.0525
80.203,13.6462,1.5514,-0.03117527,-0.000911154,1.05242
80.903,13.683,1.56592,-0.03074606,0.003695835,1.05233
81.603,13.71931,1.58239,-0.02807218,0.005111529,1.05224
82.303,13.75511,1.60818,-0.0281053,0.00309409,1.05215
83.003,13.7907,1.6205,-0.02828645,-0.0005511909,1.05205
83.703,13.8263,1.63422,-0.02828689,-0.00335052,1.05195
84.403,13.8617,1.6402,-0.02974405,-0.003808342,1.05185
85.103,13.89665,1.65369,-0.03020337,-0.002296471,1.05175
85.803,13.93135,1.66828,-0.02974361,-0.0003525973,1.05165
86.503,13.9658,1.66545,-0.02883275,0.0006159827,1.05154
87.203,13.99985,1.66955,-0.02982444,0.000161427,1.05143
87.903,14.03331,1.69413,-0.02963969,-0.00141382,1.05132
88.603,14.0669,1.69627,-0.02978017,-0.003531618,1.05121
89.303,14.1002,1.70651,-0.02937884,-0.00553529,1.05109
90.003,14.1331,1.72047,-0.02986738,-0.00684673,1.05098
90.703,14.16591,1.74165,-0.02985351,-0.006838482,1.05086
91.403,14.1984,1.74195,-0.03064127,-0.005115568,1.05073
92.103,14.23045,1.75445,-0.03191986,-0.001960122,1.05061
92.803,14.2624,1.76121,-0.03100219,0.001545836,1.05048
93.503,14.2943,1.78204,-0.031553,0.003826371,1.05035
94.203,14.326,1.81072,-0.03031884,0.003705853,1.05022
94.903,14.35726,1.81234,-0.02848837,0.001221546,1.05009
95.603,14.38844,1.8281,-0.02887907,-0.002355473,1.04995
96.303,14.4194,1.83549,-0.02911226,-0.00515181,1.04982
97.003,14.4502,1.85284,-0.03181248,-0.00583415,1.04968
97.703,14.48071,1.86882,-0.03186738,-0.004307658,1.04954
98.403,14.51087,1.8868,-0.03128505,-0.00162905,1.04939
99.103,14.5409,1.90539,-0.03111802,0.00082288,1.04925
99.803,14.57076,1.91269,-0.03036694,0.002090519,1.0491
100.503,14.60056,1.93639,-0.02883555,0.00203647,1.04895
101.203,14.63025,1.95133,-0.03026468,0.001207656,1.04879
101.903,14.65956,1.97361,-0.03035472,0.0003047293,1.04864
102.603,14.6889,1.98506,-0.03093727,-0.0002670935,1.04848
103.303,14.718,2.00498,-0.03066587,-0.0005495003,1.04832
104.003,14.74704,2.01727,-0.02988702,-0.0008772051,1.04816
104.703,14.77578,2.03411,-0.03017288,-0.001520382,1.048
105.403,14.80445,2.05924,-0.03041418,-0.002528972,1.04783
106.103,14.833,2.07227,-0.03018816,-0.003728485,1.04766
106.803,14.86147,2.0918,-0.03039934,-0.004839868,1.04749
107.503,14.88976,2.11382,-0.03026429,-0.005636382,1.04732
108.203,14.91787,2.12282,-0.03182767,-0.006030808,1.04715
108.903,14.94578,2.13704,-0.03163966,-0.006015434,1.04697
109.603,14.9735,2.15551,-0.03035846,-0.00556839,1.04679
110.303,15.00116,2.17219,-0.03130315,-0.004593796,1.04661
111.003,15.0288,2.19339,-0.03180207,-0.002996897,1.04643
111.703,15.05635,2.19927,-0.03212845,-0.0008284754,1.04624
112.403,15.0838,2.21315,-0.03245264,0.00167011,1.04606
113.103,15.1111,2.23714,-0.03172632,0.004084342,1.04587
113.803,15.1384,2.25048,-0.03182988,0.006005935,1.04568
114.503,15.16544,2.26313,-0.03140206,0.00712913,1.04548
115.203,15.19232,2.28034,-0.03050703,0.007397573,1.04529
115.903,15.2191,2.28478,-0.03019019,0.0068984,1.04509
116.603,15.2458,2.30592,-0.03101193,0.005715185,1.04489
117.303,15.27255,2.32274,-0.03047267,0.00382423,1.04469
118.003,15.29905,2.33393,-0.03058639,0.001198729,1.04449
118.703,15.32538,2.35484,-0.02954157,-0.00202599,1.04428
119.403,15.35171,2.36444,-0.02934117,-0.005391021,1.04407
120.103,15.37791,2.37789,-0.02986166,-0.00807992,1.04387
120.803,15.40407,2.39491,-0.03023466,-0.009280931,1.04365
121.503,15.43009,2.40773,-0.03159437,-0.008529869,1.04344
122.203,15.45606,2.42151,-0.03308411,-0.005991459,1.04322
122.903,15.4819,2.43684,-0.03296742,-0.002493551,1.04301
123.603,15.5076,2.44751,-0.03226416,0.000882618,1.04279
124.303,15.5331,2.46026,-0.0317312,0.003215718,1.04256
125.003,15.5585,2.47737,-0.03025413,0.004113981,1.04234
125.703,15.5839,2.48752,-0.03079602,0.003755038,1.04211
126.403,15.60927,2.5019,-0.03042878,0.00267658,1.04189
127.103,15.6345,2.51659,-0.03111061,0.001441789,1.04166
127.803,15.65939,2.52789,-0.03156846,0.0003921094,1.04142
128.503,15.6845,2.53408,-0.0315962,-0.000442453,1.04119
129.203,15.70956,2.55476,-0.03159949,-0.00114127,1.04096
129.903,15.7348,2.56403,-0.03039559,-0.00179618,1.04072
130.603,15.75985,2.58095,-0.03039545,-0.002390516,1.04048
131.303,15.7847,2.59495,-0.03129863,-0.0028512,1.04024
132.003,15.8093,2.61066,-0.03137912,-0.003108547,1.03999
132.703,15.8339,2.6136,-0.03257682,-0.003156828,1.03975
133.403,15.8583,2.63132,-0.03216764,-0.003090542,1.0395
134.103,15.88277,2.6486,-0.03140601,-0.00304611,1.03925
134.803,15.9072,2.6615,-0.03089819,-0.00310225,1.039
135.503,15.9316,2.67466,-0.03104719,-0.003229417,1.03874
136.203,15.9558,2.68766,-0.03222828,-0.003326327,1.03849
136.903,15.97991,2.69897,-0.03267967,-0.00326832,1.03823
137.603,16.004,2.71435,-0.03146849,-0.002989494,1.03797
138.303,16.02787,2.72281,-0.0313674,-0.0025342,1.03771
139.003,16.05185,2.73737,-0.03288683,-0.00203221,1.03744
139.703,16.07575,2.76071,-0.03298246,-0.00168635,1.03718
140.403,16.0996,2.76313,-0.03248818,-0.00167897,1.03691
141.103,16.12354,2.77582,-0.03217248,-0.00208274,1.03664
141.803,16.1473,2.79588,-0.03140586,-0.00278451,1.03637
142.503,16.17091,2.81591,-0.03181222,-0.00353879,1.0361
143.203,16.19446,2.83037,-0.03191078,-0.004063629,1.03582
143.903,16.21794,2.84528,-0.03327078,-0.004155657,1.03555
144.603,16.24136,2.8634,-0.03323906,-0.00377328,1.03527
145.303,16.26472,2.87618,-0.03323905,-0.00303013,1.03499
146.003,16.28807,2.90554,-0.03322974,-0.002104888,1.03471
146.703,16.3113,2.92449,-0.03245974,-0.001174787,1.03442
147.403,16.3345,2.95399,-0.03307747,-0.000350005,1.03413
148.103,16.3578,2.98929,-0.03196129,0.0003455298,1.03385
148.803,16.3809,3.0275,-0.03324087,0.0009083695,1.03356
149.503,16.40392,3.06023,-0.0332401,0.001305337,1.03326
150.203,16.42693,3.10087,-0.03323918,0.00144243,1.03297
150.903,16.44988,3.1508,-0.03323917,0.001216424,1.03268
151.603,16.47283,3.21365,-0.03228453,0.0006163283,1.03238
152.303,16.4957,3.25918,-0.03147945,-0.0002078388,1.03208
153.003,16.51849,3.30626,-0.03181822,-0.0009816463,1.03178
153.703,16.54125,3.35864,-0.03352918,-0.001414425,1.03147
154.403,16.564,3.40212,-0.03276212,-0.00130596,1.03117
155.103,16.58669,3.42659,-0.03354249,-0.0006535899,1.03086
155.803,16.6094,3.45596,-0.03346092,0.000323522,1.03055
156.503,16.63206,3.46649,-0.03346118,0.001267556,1.03024
157.203,16.65462,3.4851,-0.03350072,0.001821954,1.02993
157.903,16.67719,3.51333,-0.03209858,0.00176575,1.02962
158.603,16.69977,3.52291,-0.03192094,0.001082427,1.0293
159.303,16.72196,3.5419,-0.03189469,5.171539e-06,1.02899
160.003,16.7441,3.55279,-0.0326916,-0.00112137,1.02867
160.703,16.76623,3.56642,-0.03177723,-0.001935039,1.02835
161.403,16.78837,3.58622,-0.03332501,-0.00219757,1.02802
162.103,16.81091,3.61346,-0.03335064,-0.001840141,1.0277
162.803,16.83341,3.6229,-0.03335009,-0.000994931,1.02737
163.503,16.85586,3.63115,-0.03334987,2.95236e-05,1.02704
164.203,16.8781,3.65148,-0.03334855,0.0008281547,1.02671
164.903,16.90015,3.66764,-0.03335236,0.00106759,1.02638
165.603,16.9222,3.68448,-0.03220916,0.0005917932,1.02605
166.303,16.9442,3.69498,-0.03205201,-0.0005352885,1.02571
167.003,16.96624,3.71352,-0.0325275,-0.002051134,1.02538
167.703,16.98828,3.72985,-0.0319847,-0.003574409,1.02504
168.403,17.01024,3.73337,-0.03203471,-0.00468585,1.0247
169.103,17.03216,3.74448,-0.03334676,-0.00508327,1.02436
169.803,17.05401,3.75819,-0.03338272,-0.004680473,1.02401
170.503,17.0758,3.77827,-0.03474787,-0.00361664,1.02367
171.203,17.09735,3.7755,-0.03475267,-0.002219274,1.02332
171.903,17.11905,3.79593,-0.03335502,-0.000864985,1.02297
172.603,17.14078,3.81259,-0.03334977,8.10948e-05,1.02262
173.303,17.16242,3.81717,-0.03334952,0.0003953408,1.02227
174.003,17.1842,3.83572,-0.03333939,5.01817e-05,1.02191
174.703,17.20573,3.85334,-0.03304738,-0.0008076138,1.02156
175.403,17.22715,3.85986,-0.03241821,-0.00193088,1.0212
176.103,17.24865,3.87056,-0.03335227,-0.003013265,1.02084
176.803,17.2701,3.88106,-0.03333997,-0.00373741,1.02048
177.503,17.29167,3.89005,-0.03334995,-0.00390098,1.02012
178.203,17.31315,3.90412,-0.03475932,-0.0034486,1.01975
178.903,17.33451,3.91909,-0.03385824,-0.002504337,1.01939
179.603,17.3558,3.92498,-0.03431267,-0.001339849,1.01902
180.303,17.37705,3.93723,-0.03464563,-0.0003310449,1.01865
181.003,17.3982,3.9461,-0.03466026,0.0001328449,1.01828
181.703,17.41936,3.96656,-0.03466543,-0.0002414677,1.01791
182.403,17.44047,3.97024,-0.03328313,-0.001537949,1.01753
183.103,17.4616,3.98777,-0.03205993,-0.00357828,1.01716
183.803,17.48266,3.99492,-0.03226331,-0.005941907,1.01678
184.503,17.5037,4.00632,-0.03357566,-0.00808897,1.0164
185.203,17.5247,4.02119,-0.03360842,-0.00950332,1.01602
185.903,17.5457,4.03158,-0.03509429,-0.009850729,1.01564
186.603,17.5667,4.04191,-0.0353616,-0.009033616,1.01525
187.303,17.5876,4.05377,-0.03656948,-0.007214675,1.01487
188.003,17.60855,4.05663,-0.03656564,-0.004709242,1.01448
188.703,17.6293,4.07441,-0.03523389,-0.001952226,1.01409
189.403,17.65004,4.086,-0.03520992,0.0006922992,1.0137
190.103,17.67086,4.08856,-0.03520988,0.00293425,1.01331
190.803,17.6916,4.10584,-0.03520998,0.004558329,1.01292
191.503,17.7122,4.1257,-0.03520992,0.00549414,1.01252
192.203,17.733,4.13099,-0.03520852,0.00576015,1.01213
192.903,17.75356,4.13993,-0.03517031,0.005416729,1.01173
193.603,17.77419,4.15652,-0.03366374,0.004594126,1.01133
194.303,17.79482,4.15294,-0.03357302,0.003499505,1.01093
195.003,17.81544,4.17142,-0.03358367,0.002377423,1.01053
195.703,17.83602,4.18077,-0.03390921,0.001454115,1.01012
196.403,17.85655,4.19083,-0.03491547,0.0008852288,1.00972
197.103,17.8771,4.20165,-0.0348826,0.0007142528,1.00931
197.803,17.89762,4.21449,-0.03488607,0.0008717565,1.0089
198.503,17.91809,4.21976,-0.0349532,0.00118641,1.00849
199.203,17.93862,4.23321,-0.03353509,0.001440517,1.00808
199.903,17.95906,4.24474,-0.03485029,0.001445656,1.00767
200.603,17.9795,4.25762,-0.03490671,0.001109518,1.00725
201.303,17.9999,4.25932,-0.0335604,0.0004452925,1.00683
202.003,18.0202,4.28327,-0.03355994,-0.0004248045,1.00642
202.703,18.04054,4.28196,-0.03356017,-0.001321486,1.006
203.403,18.0608,4.29953,-0.03356366,-0.002064907,1.00558
204.103,18.08095,4.3037,-0.03492542,-0.00254514,1.00515
204.803,18.10112,4.3196,-0.03488375,-0.00273914,1.00473
205.503,18.12132,4.33079,-0.03488043,-0.00272189,1.00431
206.203,18.14163,4.32926,-0.03488227,-0.002647052,1.00388
206.903,18.16196,4.34936,-0.03491835,-0.002706855,1.00345
207.603,18.18228,4.35543,-0.03377735,-0.003073062,1.00302
208.303,18.2026,4.36789,-0.03460746,-0.003849418,1.00259
209.003,18.22277,4.38052,-0.03455426,-0.005040254,1.00216
209.703,18.24294,4.38323,-0.03455031,-0.006542069,1.00172
210.403,18.2631,4.39351,-0.03455,-0.00812975,1.00129
211.103,18.28319,4.40329,-0.0345497,-0.00951928,1.00085
211.803,18.30333,4.41712,-0.03454564,-0.01043936,1.00041
212.503,18.3234,4.42638,-0.03523429,-0.01069417,0.99997
213.203,18.3435,4.43834,-0.03599073,-0.0102166,0.99953
213.903,18.36352,4.44616,-0.0373514,-0.00907533,0.99909
214.603,18.38354,4.45064,-0.03729436,-0.00744643,0.99865
215.303,18.4035,4.46658,-0.03728925,-0.005585425,0.9982
216.003,18.42345,4.4771,-0.037262,-0.003726258,0.99776
216.703,18.44344,4.48367,-0.03588361,-0.002047972,0.99731
217.403,18.46344,4.50142,-0.03597268,-0.0006321379,0.99686
218.103,18.48341,4.4976,-0.03597459,0.000511431,0.99641
218.803,18.50337,4.51405,-0.03664926,0.001417795,0.99596
219.503,18.52329,4.52527,-0.03726904,0.002129621,0.9955
220.203,18.54316,4.53152,-0.03735003,0.002669441,0.99505
220.903,18.56305,4.54552,-0.03610572,0.003015167,0.99459
221.603,18.58297,4.55064,-0.03597176,0.00310136,0.99414
222.303,18.6029,4.56219,-0.03597012,0.002853582,0.99368
223.003,18.6228,4.56521,-0.03597001,0.00222341,0.99322
223.703,18.64261,4.58025,-0.03597,0.00121601,0.99275
224.403,18.66245,4.58723,-0.03596997,-0.0001110697,0.99229
225.103,18.68218,4.59775,-0.0359696,-0.001644705,0.99183
225.803,18.70196,4.60649,-0.03596507,-0.003242267,0.99136
226.503,18.72174,4.62374,-0.03590611,-0.004706752,0.9909
227.203,18.74145,4.63884,-0.03468165,-0.005828837,0.99043
227.903,18.76116,4.62932,-0.03600691,-0.00643659,0.98996
228.603,18.78094,4.65155,-0.03756828,-0.00641917,0.98949
229.303,18.8006,4.64704,-0.03751304,-0.005773244,0.98902
230.003,18.82035,4.66027,-0.03751013,-0.004611597,0.98854
230.703,18.84008,4.66924,-0.03751,-0.00315042,0.98807
231.403,18.85974,4.6815,-0.03750998,-0.001683964,0.98759
232.103,18.8794,4.6856,-0.03750941,-0.0004952261,0.98712
232.803,18.8991,4.70221,-0.03749827,0.0002018646,0.98664
233.503,18.91875,4.71024,-0.03663523,0.000315572,0.98616
234.203,18.93836,4.72832,-0.03618792,-0.00010986,0.98568
234.903,18.9579,4.73249,-0.03619132,-0.0009196443,0.9852
235.603,18.97754,4.72994,-0.03621329,-0.00189201,0.98471
236.303,18.9971,4.74286,-0.03689242,-0.00278301,0.98423
237.003,19.01665,4.7619,-0.03751463,-0.00339382,0.98374
237.703,19.0363,4.76956,-0.03751037,-0.003610098,0.98326
238.403,19.05583,4.7874,-0.03751003,-0.003384242,0.98277
239.103,19.07537,4.78988,-0.03751,-0.002734622,0.98228
239.803,19.09494,4.79158,-0.03750998,-0.00173977,0.98179
240.503,19.11448,4.79995,-0.03750975,-0.000538967,0.9813
241.203,19.13399,4.8202,-0.0375069,0.000698906,0.9808
241.903,19.1535,4.81451,-0.03822982,0.00179461,0.98031
242.603,19.17295,4.83052,-0.03790416,0.002582064,0.97981
243.303,19.1924,4.8373,-0.0375198,0.00295103,0.97932
244.003,19.21195,4.8443,-0.03749803,0.0028475,0.97882
244.703,19.23142,4.85407,-0.03613826,0.00230365,0.97832
245.403,19.25094,4.86984,-0.03619671,0.001446177,0.97782
246.103,19.2704,4.87176,-0.03619938,0.000481092,0.97732
246.803,19.28987,4.87994,-0.03651909,-0.0003740578,0.97682
247.503,19.30931,4.88346,-0.03752163,-0.000948603,0.97631
248.203,19.32873,4.89975,-0.03751164,-0.001159923,0.97581
248.903,19.34809,4.90692,-0.03751018,-0.001040806,0.9753
249.603,19.36744,4.90727,-0.03751001,-0.0007223326,0.9748
250.303,19.3868,4.92143,-0.03750987,-0.0003938609,0.97429
251.003,19.40625,4.92828,-0.03750815,-0.0002527423,0.97378
251.703,19.4256,4.94592,-0.03748472,-0.000446356,0.97327
252.403,19.44502,4.94322,-0.03705121,-0.001023655,0.97276
253.103,19.4644,4.94888,-0.03618992,-0.001935975,0.97225
253.803,19.48369,4.958,-0.03616323,-0.00306235,0.97173
254.503,19.503,4.96005,-0.0371357,-0.004256693,0.97122
255.203,19.52234,4.97262,-0.03763058,-0.00537673,0.9707
255.903,19.54167,4.976,-0.03735116,-0.006302487,0.97019
256.603,19.561,4.98266,-0.03793949,-0.0069639,0.96967
257.303,19.5803,4.98534,-0.03794974,-0.00734037,0.96915
258.003,19.5996,4.99039,-0.03795003,-0.007438971,0.96863
258.703,19.61886,4.99911,-0.03795008,-0.00728702,0.96811
259.403,19.63812,5.00176,-0.03795146,-0.006931227,0.96759
260.103,19.6573,5.0062,-0.03810458,-0.006443868,0.96706
260.803,19.67642,5.01746,-0.0393394,-0.00591384,0.96654
261.503,19.6955,5.02102,-0.03927419,-0.005406365,0.96601
262.203,19.7146,5.0303,-0.0392472,-0.004960608,0.96549
262.903,19.73385,5.03352,-0.0389357,-0.004604707,0.96496
263.603,19.7532,5.0313,-0.03793844,-0.004363264,0.96443
264.303,19.77261,5.04094,-0.03853745,-0.004206755,0.9639
265.003,19.79201,5.05279,-0.03924885,-0.004006551,0.96337
265.703,19.81137,5.05846,-0.03926881,-0.003540262,0.96284
266.403,19.83059,5.07032,-0.03926996,-0.002560798,0.96231
267.103,19.8498,5.06573,-0.03927,-0.0008566477,0.96177
267.803,19.869,5.06387,-0.03927003,0.001681645,0.96124
268.503,19.88822,5.08026,-0.03927075,0.00499912,0.9607
269.203,19.9074,5.08558,-0.03928274,0.008797931,0.96017
269.903,19.9267,5.08644,-0.04076826,0.01255447,0.95963
270.603,19.94588,5.08998,-0.0428611,0.01555604,0.95909
271.303,19.96507,5.09769,-0.04185205,0.0170825,0.95855
272.003,19.98421,5.09919,-0.03805094,0.01660117,0.95801
272.703,20.0033,5.10612,-0.03440376,0.01393129,0.95747
273.403,20.02243,5.12017,-0.03310732,0.009336194,0.95693
274.103,20.04156,5.11576,-0.03322424,0.003453747,0.95639
274.803,20.0607,5.13246,-0.03514803,-0.002757735,0.95584
275.503,20.07987,5.12654,-0.03575213,-0.008306268,0.9553
276.203,20.09906,5.13736,-0.03641812,-0.01230356,0.95475
276.903,20.11828,5.1449,-0.0382159,-0.0142445,0.9542
277.603,20.1374,5.15004,-0.03956026,-0.01405365,0.95366
278.303,20.1565,5.15645,-0.04088833,-0.01208969,0.95311
279.003,20.17559,5.16047,-0.04095965,-0.008963443,0.95256
279.703,20.19465,5.16921,-0.03987605,-0.00542176,0.95201
280.403,20.21375,5.1717,-0.03956604,-0.002145301,0.95146
281.103,20.2329,5.18417,-0.03818981,0.0003709242,0.9509
281.803,20.2521,5.17745,-0.03827435,0.00188779,0.95035
282.503,20.27125,5.18604,-0.03827971,0.00235797,0.9498
283.203,20.29036,5.18852,-0.03827999,0.001924345,0.94924
283.903,20.30944,5.19211,-0.03828,0.0008266808,0.94869
284.603,20.32855,5.20252,-0.03828,-0.0006411283,0.94813
285.303,20.34768,5.2072,-0.03827998,-0.002157825,0.94757
286.003,20.3668,5.21482,-0.03827974,-0.003425043,0.94701
286.703,20.38598,5.22894,-0.0382763,-0.004224052,0.94645
287.403,20.40513,5.22592,-0.03823102,-0.004430036,0.94589
288.103,20.42424,5.23409,-0.0392679,-0.004042022,0.94533
288.803,20.44329,5.24115,-0.03954164,-0.003179791,0.94477
289.503,20.46239,5.24498,-0.04044018,-0.002056665,0.94421
290.203,20.48147,5.25636,-0.04084416,-0.000953731,0.94365
290.903,20.50055,5.25575,-0.03958242,-0.0001355768,0.94308
291.603,20.5197,5.26788,-0.0382988,0.0002004887,0.94252
292.303,20.53878,5.25929,-0.03828619,-4.27849e-05,0.94195
293.003,20.55787,5.27677,-0.03828094,-0.0008315595,0.94138
293.703,20.57696,5.27225,-0.03828204,-0.002017594,0.94082
294.403,20.59606,5.27812,-0.03838128,-0.003394046,0.94025
295.103,20.61512,5.29146,-0.03967823,-0.004767726,0.93968
295.803,20.63419,5.29185,-0.03959682,-0.00603489,0.93911
296.503,20.65325,5.29389,-0.03959048,-0.00718706,0.93854
297.203,20.67238,5.30642,-0.03958991,-0.008292506,0.93797
297.903,20.69148,5.31716,-0.03958897,-0.00945104,0.9374
298.603,20.71063,5.30658,-0.03958434,-0.01078597,0.93682
299.303,20.72972,5.32281,-0.04022615,-0.0123842,0.93625
300.003,20.74885,5.32271,-0.04091997,-0.01428192,0.93568
300.703,20.76793,5.33173,-0.04072507,-0.01637141,0.9351
301.403,20.7869,5.32914,-0.03953042,-0.01836956,0.93453
302.103,20.806,5.33231,-0.03965415,-0.01980988,0.93395
302.803,20.82507,5.34161,-0.04119826,-0.02007966,0.93337
303.503,20.84412,5.34592,-0.04221361,-0.01857876,0.93279
304.203,20.86319,5.36008,-0.04263439,-0.01488947,0.93221
304.903,20.8823,5.36526,-0.04259339,-0.008930276,0.93164
305.603,20.90136,5.37546,-0.04438206,-0.001148689,0.93106
306.303,20.92044,5.37648,-0.04788746,0.00756238,0.93047
307.003,20.9395,5.38246,-0.04964249,0.01587487,0.92989
307.703,20.95857,5.39338,-0.04792224,0.02236664,0.92931
308.403,20.9776,5.39415,-0.04493987,0.02582009,0.92873
309.103,20.99669,5.3976,-0.03868852,0.02557253,0.92814
309.803,21.01574,5.40235,-0.03369358,0.02170239,0.92756
310.503,21.0348,5.39902,-0.0334212,0.01503935,0.92698
311.203,21.05385,5.40797,-0.0365688,0.006914425,0.92639
311.903,21.07291,5.41563,-0.03798935,-0.001142517,0.9258
312.603,21.092,5.40785,-0.03963392,-0.0078278,0.92522
313.303,21.11107,5.4187,-0.0413695,-0.01228031,0.92463
314.003,21.13012,5.42788,-0.04300123,-0.01425242,0.92404
314.703,21.14919,5.43529,-0.04343255,-0.01404876,0.92345
315.403,21.16829,5.43294,-0.04343092,-0.01234874,0.92286
316.103,21.18723,5.43646,-0.0421766,-0.009987331,0.92227
316.803,21.20629,5.45456,-0.04197565,-0.007600624,0.92168
317.503,21.2254,5.45383,-0.04081584,-0.005584523,0.92109
318.203,21.24445,5.45002,-0.04054925,-0.004016288,0.9205
318.903,21.26353,5.46249,-0.04152844,-0.00272851,0.91991
319.603,21.2826,5.46749,-0.0418942,-0.001463267,0.91931
320.303,21.3017,5.4721,-0.04196431,-3.55293e-05,0.91872
321.003,21.32078,5.47527,-0.04323087,0.00158727,0.91813
321.703,21.33983,5.4872,-0.04320966,0.003275958,0.91753
322.403,21.35894,5.48211,-0.04321348,0.004799185,0.91693
323.103,21.37801,5.49081,-0.04329024,0.005851591,0.91634
323.803,21.39709,5.48585,-0.04076701,0.006173581,0.91574
324.503,21.41613,5.50251,-0.04050384,0.005620316,0.91515
325.203,21.43521,5.5,-0.04048203,0.004205132,0.91455
325.903,21.45424,5.50336,-0.04048022,0.00211598,0.91395
326.603,21.47332,5.51006,-0.04048066,-0.0003473838,0.91335
327.303,21.4924,5.51242,-0.04048641,-0.00279143,0.91275
328.003,21.51148,5.51883,-0.04053486,-0.004836085,0.91215
328.703,21.53054,5.52833,-0.041805,-0.006167174,0.91155
329.403,21.54969,5.52786,-0.04178917,-0.006623486,0.91095
330.103,21.5688,5.54057,-0.04178531,-0.006188534,0.91035
330.803,21.5879,5.54909,-0.04169941,-0.00500525,0.90975
331.503,21.60701,5.54356,-0.04282122,-0.003345501,0.90914
332.203,21.62612,5.54591,-0.04369549,-0.001582955,0.90854
332.903,21.64525,5.55204,-0.04426994,-0.0001237609,0.90794
333.603,21.66434,5.55778,-0.04192597,0.0006787573,0.90733
334.303,21.6834,5.55792,-0.04158185,0.0005963154,0.90673
335.003,21.7026,5.57028,-0.04040773,-0.000449321,0.90612
335.703,21.72166,5.58216,-0.04050739,-0.002349455,0.90552
336.403,21.74076,5.56874,-0.04145019,-0.004837783,0.90491
337.103,21.75988,5.5726,-0.04277563,-0.007553446,0.9043
337.803,21.779,5.58956,-0.0420976,-0.01010467,0.9037
338.503,21.79823,5.59008,-0.04066436,-0.01213275,0.90309
339.203,21.81736,5.60579,-0.04166365,-0.01333967,0.90248
339.903,21.83651,5.5987,-0.04373223,-0.01356772,0.90187
340.603,21.85568,5.60223,-0.04464929,-0.01278683,0.90127
341.303,21.87479,5.60796,-0.04464076,-0.01112643,0.90066
342.003,21.89392,5.61755,-0.04464006,-0.00883382,0.90005
342.703,21.9131,5.621,-0.04464,-0.006229278,0.89944
343.403,21.93221,5.62232,-0.04463997,-0.00365537,0.89883
344.103,21.95136,5.64447,-0.04463975,-0.001413895,0.89822
344.803,21.9705,5.63805,-0.0446388,0.0002594014,0.8976
345.503,21.98967,5.64934,-0.04464958,0.001222302,0.89699
346.203,22.0088,5.63631,-0.04337296,0.00143225,0.89638
346.903,22.02804,5.64379,-0.04333529,0.0009484134,0.89577
347.603,22.04729,5.65926,-0.04333224,-8.53114e-05,0.89515
348.303,22.06653,5.65268,-0.04335559,-0.00148008,0.89454
349.003,22.08571,5.65345,-0.04386682,-0.00305005,0.89393
349.703,22.10494,5.66472,-0.04463151,-0.004634258,0.89331
350.403,22.12417,5.67503,-0.04440451,-0.006048184,0.8927
351.103,22.1434,5.67144,-0.04363434,-0.007098767,0.89208
351.803,22.16265,5.67116,-0.04365636,-0.007612919,0.89147
352.503,22.1819,5.68176,-0.04372745,-0.007461585,0.89085
353.203,22.20115,5.68867,-0.04500469,-0.006597686,0.89024
353.903,22.22036,5.68926,-0.04631005,-0.005098786,0.88962
354.603,22.23957,5.69911,-0.04628819,-0.003170543,0.889
355.303,22.25882,5.69608,-0.04629387,-0.001126337,0.88839
356.003,22.27806,5.70364,-0.04637394,0.000653516,0.88777
356.703,22.2973,5.70211,-0.04524042,0.0018064,0.88715
357.403,22.31658,5.71806,-0.04517458,0.002061569,0.88653
358.103,22.3358,5.71308,-0.04389994,0.001302924,0.88591
358.803,22.35514,5.71699,-0.04397364,-0.0004228508,0.8853
359.503,22.37444,5.72174,-0.04397962,-0.00288635,0.88468
360.203,22.39379,5.72673,-0.04398138,-0.005739265,0.88406
360.903,22.4131,5.72785,-0.04400631,-0.008547199,0.88344
361.603,22.43245,5.73963,-0.04538724,-0.01090455,0.88282
362.303,22.45176,5.74367,-0.04530991,-0.01249661,0.8822
363.003,22.47104,5.74208,-0.04533797,-0.01313587,0.88158
363.703,22.49041,5.7469,-0.046632,-0.01275658,0.88096
364.403,22.5097,5.75461,-0.04661827,-0.01142775,0.88034
365.103,22.52904,5.75734,-0.04786736,-0.009358048,0.87971
365.803,22.5484,5.75688,-0.04792245,-0.00686221,0.87909
366.503,22.56774,5.76625,-0.04793515,-0.004313114,0.87847
367.203,22.58705,5.76677,-0.04802233,-0.002075243,0.87785
367.903,22.60647,5.77367,-0.04665371,-0.0004053276,0.87723
368.603,22.62584,5.77999,-0.04662151,0.0005413652,0.8766
369.303,22.64518,5.77246,-0.04661916,0.000782274,0.87598
370.003,22.66453,5.77783,-0.04660762,0.0004742036,0.87536
370.703,22.68384,5.79076,-0.04643134,-0.0001378976,0.87473
371.403,22.70319,5.79335,-0.0452243,-0.0007853659,0.87411
372.103,22.72259,5.79924,-0.04627995,-0.001238131,0.87349
372.803,22.742,5.79476,-0.04796065,-0.001373635,0.87286
373.503,22.7614,5.797,-0.04793271,-0.00121315,0.87224
374.203,22.7808,5.80024,-0.04793729,-0.000893469,0.87161
374.903,22.80022,5.81028,-0.04726183,-0.0006142126,0.87099
375.603,22.81963,5.82376,-0.04661681,-0.00057255,0.87036
376.303,22.839,5.82287,-0.04661935,-0.000893626,0.86974
377.003,22.85849,5.81681,-0.04661992,-0.001595848,0.86911
377.703,22.87793,5.82595,-0.04662,-0.002589277,0.86849
378.403,22.89735,5.82605,-0.04662013,-0.00371927,0.86786
379.103,22.91678,5.83119,-0.04662189,-0.004808216,0.86724
379.803,22.93627,5.83692,-0.04672804,-0.005696566,0.86661
380.503,22.95574,5.83903,-0.04800993,-0.00627667,0.86598
381.203,22.97521,5.84387,-0.04793626,-0.0065187,0.86536
381.903,22.99472,5.84948,-0.04793048,-0.00645605,0.86473
382.603,23.0141,5.85496,-0.04793003,-0.006160802,0.8641
383.303,23.03357,5.86186,-0.04792999,-0.005713705,0.86348
384.003,23.05295,5.86159,-0.04792993,-0.00520182,0.86285
384.703,23.07238,5.86683,-0.04792918,-0.004706631,0.86222
385.403,23.0918,5.87025,-0.0484609,-0.00432041,0.86159
386.103,23.11141,5.87201,-0.04852779,-0.004144208,0.86097
386.803,23.13093,5.88039,-0.04858686,-0.004266038,0.86034
387.503,23.1505,5.88618,-0.04859047,-0.004728378,0.85971
388.203,23.17005,5.88539,-0.04859078,-0.005515432,0.85908
388.903,23.18959,5.89599,-0.04763407,-0.0065547,0.85846
389.603,23.20911,5.90116,-0.04721854,-0.0077264,0.85783
390.303,23.22869,5.90675,-0.04822921,-0.008886395,0.8572
391.003,23.24825,5.91466,-0.04966625,-0.009884274,0.85657
391.703,23.2678,5.91199,-0.04968585,-0.01061347,0.85594
392.403,23.2874,5.91745,-0.0496573,-0.01102681,0.85531
393.103,23.30695,5.9191,-0.05004188,-0.01112845,0.85468
393.803,23.3265,5.91736,-0.05002151,-0.01095593,0.85406
394.503,23.34614,5.92335,-0.05001646,-0.01055558,0.85343
395.203,23.3658,5.92115,-0.04996917,-0.009981625,0.8528
395.903,23.38543,5.92026,-0.05109607,-0.009294542,0.85217
396.603,23.4051,5.9409,-0.0513171,-0.00856283,0.85154
397.303,23.42474,5.92702,-0.05132904,-0.007869443,0.85091
398.003,23.44441,5.92676,-0.05132993,-0.00729306,0.85028
398.703,23.464,5.93422,-0.05133,-0.00689617,0.84965
399.403,23.48366,5.93786,-0.05133,-0.00671082,0.84902
400.103,23.50333,5.93662,-0.05133001,-0.006727903,0.84839
400.803,23.52289,5.93457,-0.05133008,-0.006877844,0.84777
401.503,23.54252,5.93635,-0.05133092,-0.007052944,0.84714
402.203,23.56212,5.95045,-0.05134386,-0.007146596,0.84651
402.903,23.5818,5.95429,-0.05272327,-0.007086901,0.84588
403.603,23.60148,5.95556,-0.05265458,-0.00684805,0.84525
404.303,23.6212,5.97265,-0.05265029,-0.006450131,0.84462
405.003,23.64091,5.96754,-0.05265002,-0.005948438,0.84399
405.703,23.6605,5.96286,-0.05265,-0.00541118,0.84336
406.403,23.68009,5.96691,-0.05265,-0.004877972,0.84273
407.103,23.69977,5.96985,-0.05264995,-0.004341135,0.8421
407.803,23.71949,5.96759,-0.05264862,-0.003762965,0.84147
408.503,23.73922,5.97534,-0.05262186,-0.00309426,0.84084
409.203,23.75914,5.98873,-0.05331078,-0.002284351,0.84021
409.903,23.77894,5.97855,-0.05330098,-0.001331891,0.83958
410.603,23.79864,5.96965,-0.05330009,-0.0002867856,0.83895
411.303,23.81835,5.9719,-0.05330001,0.000729178,0.83832
412.003,23.83817,5.98391,-0.05329999,0.0015261,0.83769
412.703,23.85799,5.99564,-0.05329988,0.00188167,0.83706
413.403,23.87779,5.99624,-0.0532983,0.001612766,0.83643
414.103,23.8977,5.99981,-0.05312775,0.0006012679,0.8358
414.803,23.9174,5.99596,-0.05194026,-0.001159395,0.83518
415.503,23.9372,6.00944,-0.05198619,-0.00358556,0.83455
416.203,23.95695,6.00625,-0.05199081,-0.006471018,0.83392
416.903,23.97674,6.00928,-0.05200569,-0.009539397,0.83329
417.603,23.99653,6.01871,-0.05239374,-0.01248741,0.83266
418.303,24.0164,6.01152,-0.05392059,-0.01505254,0.83203
419.003,24.03621,6.02653,-0.05416348,-0.01700517,0.8314
419.703,24.0561,6.01491,-0.05417834,-0.0182214,0.83077
420.403,24.07589,6.03103,-0.05417394,-0.01864977,0.83014
421.103,24.09574,6.02648,-0.05513494,-0.01834628,0.82951
421.803,24.1156,6.02285,-0.05578501,-0.01744991,0.82889
422.503,24.13547,6.03487,-0.05686359,-0.01616277,0.82826
423.203,24.1554,6.03182,-0.05682316,-0.01472322,0.82763
423.903,24.17533,6.0375,-0.05682023,-0.01338158,0.827
424.603,24.19528,6.03777,-0.05682002,-0.01235716,0.82637
425.303,24.21523,6.03803,-0.05681997,-0.01179797,0.82574
426.003,24.2351,6.05186,-0.05681954,-0.01176405,0.82512
426.703,24.25505,6.0483,-0.05681363,-0.01223975,0.82449
427.403,24.27494,6.06879,-0.05673257,-0.01315081,0.82386
428.103,24.29487,6.04558,-0.05811941,-0.01438174,0.82323
428.803,24.31482,6.05457,-0.05823542,-0.0157724,0.8226
429.503,24.33484,6.05593,-0.05823859,-0.01714844,0.82198
430.203,24.35484,6.06741,-0.05822495,-0.01831541,0.82135
430.903,24.37464,6.05391,-0.05890521,-0.01907821,0.82072
431.603,24.3946,6.06673,-0.05917966,-0.01927354,0.82009
432.303,24.41452,6.07527,-0.05954458,-0.01874434,0.81947
433.003,24.43449,6.06124,-0.06053288,-0.01739806,0.81884
433.703,24.45457,6.06829,-0.06188257,-0.01525313,0.81821
434.403,24.47481,6.06796,-0.06217558,-0.01249365,0.81759
435.103,24.49493,6.07217,-0.06218898,-0.009525264,0.81696
435.803,24.51499,6.07155,-0.06218996,-0.006770355,0.81634
436.503,24.53503,6.06637,-0.0621905,-0.00462893,0.81571
437.203,24.55505,6.05837,-0.06219701,-0.003411258,0.81508
437.903,24.57506,6.06088,-0.06132814,-0.00327513,0.81446
438.603,24.5951,6.06467,-0.06088991,-0.004138268,0.81383
439.303,24.61523,6.04752,-0.06059816,-0.005672293,0.81321
440.003,24.6354,6.05146,-0.05946576,-0.0074438,0.81258
440.703,24.6555,6.05421,-0.06103497,-0.009124584,0.81196
441.403,24.67569,6.05658,-0.06290041,-0.01062218,0.81133
442.103,24.69581,6.04462,-0.06448574,-0.01210879,0.81071
442.803,24.716,6.04899,-0.06417444,-0.01397734,0.81008
443.503,24.73611,6.0346,-0.06302065,-0.01664488,0.80946
444.203,24.75625,6.03596,-0.06307044,-0.0203676,0.80884
444.903,24.7764,6.01618,-0.06312365,-0.02506402,0.80821
445.603,24.79655,6.01112,-0.06147238,-0.03022011,0.80759
446.303,24.81674,6.01177,-0.05915358,-0.03506011,0.80696
447.003,24.83694,6.02165,-0.06208679,-0.0386772,0.80634
447.703,24.85707,6.01104,-0.06892429,-0.04035773,0.80572
448.403,24.87728,6.01179,-0.07155595,-0.03981596,0.8051
449.103,24.89754,5.99978,-0.0718323,-0.03723968,0.80447
449.803,24.9177,5.99131,-0.06991164,-0.03329154,0.80385
450.503,24.9379,5.98381,-0.06989367,-0.02881068,0.80323
451.203,24.95819,5.97781,-0.07068769,-0.02464649,0.80261
451.903,24.97841,5.96013,-0.07119206,-0.02145154,0.80199
452.603,24.9987,5.96256,-0.07119007,-0.01953177,0.80137
453.303,25.01896,5.94577,-0.07118943,-0.01893817,0.80074
454.003,25.0393,5.94285,-0.07117598,-0.01948208,0.80012
454.703,25.05955,5.9313,-0.07129084,-0.02082651,0.7995
455.403,25.0798,5.93355,-0.07128948,-0.02257914,0.79888
456.103,25.1001,5.90556,-0.0729504,-0.02443357,0.79826
456.803,25.12037,5.89806,-0.07392573,-0.02622924,0.79764
457.503,25.14065,5.89067,-0.07391904,-0.02790414,0.79702
458.203,25.16096,5.86625,-0.07499231,-0.02947783,0.79641
458.903,25.1813,5.86535,-0.07537128,-0.03105073,0.79579
459.603,25.2016,5.85772,-0.07586657,-0.03279785,0.79517
460.303,25.22203,5.83865,-0.07613795,-0.03491219,0.79455
461.003,25.24243,5.82216,-0.07706873,-0.03752923,0.79393
461.703,25.26284,5.81157,-0.07771014,-0.04066936,0.79332
462.403,25.28322,5.79016,-0.07839456,-0.0442151,0.7927
463.103,25.30365,5.77264,-0.07843664,-0.04795815,0.79208
463.803,25.32403,5.75429,-0.08009494,-0.05160223,0.79146
464.503,25.3444,5.75399,-0.08113245,-0.05489297,0.79085
465.203,25.36476,5.72742,-0.08270294,-0.05769235,0.79023
465.903,25.38514,5.70049,-0.08447188,-0.06000914,0.78962
466.603,25.40558,5.69388,-0.08622385,-0.06202307,0.789
467.303,25.42601,5.68146,-0.08789737,-0.06404656,0.78839
468.003,25.44649,5.65022,-0.08879894,-0.06648112,0.78777
468.703,25.46696,5.62242,-0.08950013,-0.06966918,0.78716
469.403,25.48741,5.60448,-0.0894576,-0.07381592,0.78654
470.103,25.50787,5.58449,-0.09095683,-0.07895408,0.78593
470.803,25.52832,5.57142,-0.09283043,-0.08491132,0.78532
471.503,25.5488,5.54979,-0.09518667,-0.09141992,0.7847
472.203,25.56929,5.54573,-0.09721291,-0.09817048,0.78409
472.903,25.58979,5.50966,-0.09945773,-0.10489,0.78348
473.603,25.6103,5.48629,-0.10149,-0.11144,0.78287
474.303,25.63094,5.4588,-0.10391,-0.11784,0.78225
475.003,25.65149,5.45353,-0.10654,-0.12409,0.78164
475.703,25.67199,5.422,-0.10928,-0.13028,0.78103
476.403,25.69248,5.39712,-0.11163,-0.1365,0.78042
477.103,25.71295,5.39202,-0.11403,-0.14277,0.77981
477.803,25.73346,5.37733,-0.11677,-0.14911,0.7792
478.503,25.75406,5.3515,-0.12053,-0.15551,0.77859
479.203,25.7747,5.31945,-0.1241,-0.16197,0.77798
479.903,25.7953,5.30774,-0.12797,-0.16856,0.77737
480.603,25.8159,5.27898,-0.13136,-0.17547,0.77677
481.303,25.8365,5.23677,-0.13487,-0.1829,0.77616
482.003,25.857,5.20718,-0.13791,-0.19108,0.77555
482.703,25.8776,5.17701,-0.14125,-0.20018,0.77494
483.403,25.89821,5.13652,-0.14611,-0.21025,0.77434
484.103,25.91883,5.1058,-0.15021,-0.22119,0.77373
484.803,25.93948,5.1052,-0.15543,-0.23283,0.77313
485.503,25.9602,5.07825,-0.15897,-0.24489,0.77252
486.203,25.98078,5.06628,-0.16374,-0.25706,0.77192
486.903,26.00141,5.06367,-0.17069,-0.2692,0.77131
487.603,26.02206,5.07231,-0.1768,-0.28131,0.77071
488.303,26.04271,5.06125,-0.18282,-0.29344,0.7701
489.003,26.06336,5.04207,-0.18837,-0.30581,0.7695
489.703,26.0841,5.02879,-0.19528,-0.31869,0.7689
490.403,26.1048,5.02379,-0.20065,-0.33223,0.76829
491.103,26.12546,5.04205,-0.20752,-0.34662,0.76769
491.803,26.14624,5.03835,-0.21585,-0.36213,0.76709
492.503,26.1669,5.03557,-0.22176,-0.37871,0.76649
493.203,26.18768,5.07637,-0.23086,-0.39654,0.76589
493.903,26.2085,5.07355,-0.23876,-0.41566,0.76529
494.603,26.22918,5.10387,-0.24891,-0.43603,0.76469
495.303,26.24993,5.13817,-0.25554,-0.45782,0.76409
496.003,26.2706,5.13308,-0.26519,-0.48108,0.76349
496.703,26.2913,5.16264,-0.27468,-0.50592,0.76289
497.403,26.3121,5.19343,-0.28811,-0.53252,0.76229
498.103,26.3328,5.25461,-0.29838,-0.56061,0.7617
498.803,26.3536,5.33534,-0.30964,-0.59016,0.7611
499.503,26.37442,5.45417,-0.31853,-0.62072,0.7605
500.203,26.39521,5.6023,-0.33324,-0.65182,0.75991
500.903,26.41597,5.70011,-0.34711,-0.6832,0.75931
501.603,26.4368,5.77929,-0.36466,-0.71488,0.75872
502.303,26.4577,5.84906,-0.37995,-0.74698,0.75812
503.003,26.47853,5.95716,-0.396,-0.77968,0.75753
503.703,26.49942,6.07036,-0.41063,-0.81326,0.75693
504.403,26.52031,6.13978,-0.42557,-0.84774,0.75634
505.103,26.54117,6.26118,-0.4434,-0.88289,0.75575
505.803,26.56203,6.37713,-0.46268,-0.91839,0.75515
506.503,26.5829,6.43816,-0.48365,-0.95377,0.75456
507.203,26.60383,6.47068,-0.50441,-0.98872,0.75397
507.903,26.62472,6.51821,-0.52895,-1.02271,0.75338
508.603,26.64563,6.66948,-0.54829,-1.05564,0.75279
509.303,26.6666,6.78569,-0.56972,-1.08738,0.7522
510.003,26.68742,6.89264,-0.59,-1.11767,0.75161
510.703,26.70839,6.88357,-0.61789,-1.1466,0.75102
511.403,26.7293,6.81356,-0.64114,-1.1738,0.75043
512.103,26.7503,6.81976,-0.66987,-1.19951,0.74985
512.803,26.77133,6.88857,-0.69335,-1.22396,0.74926
513.503,26.7924,6.84988,-0.72217,-1.24772,0.74867
514.203,26.8134,6.89146,-0.74514,-1.27158,0.74809
514.903,26.8344,6.93032,-0.77328,-1.29634,0.7475
515.603,26.8553,6.94852,-0.79723,-1.32235,0.74692
516.303,26.8763,6.92327,-0.82711,-1.35013,0.74633
517.003,26.89732,6.99603,-0.85392,-1.37956,0.74575
517.703,26.91834,7.08409,-0.88416,-1.41021,0.74516
518.403,26.9394,7.17004,-0.91338,-1.44163,0.74458
519.103,26.96048,7.1514,-0.94455,-1.47302,0.744
519.803,26.9815,7.1153,-0.97656,-1.50371,0.74342
520.503,27.00255,7.07609,-1.00806,-1.53326,0.74284
521.203,27.0236,7.05316,-1.04136,-1.56146,0.74225
521.903,27.04472,7.07029,-1.07274,-1.58844,0.74167
522.603,27.0658,7.10275,-1.11123,-1.61477,0.74109
523.303,27.08693,7.12325,-1.14571,-1.64143,0.74052
524.003,27.108,7.1039,-1.1846,-1.66932,0.73994
524.703,27.1291,7.05834,-1.21358,-1.69931,0.73936
525.403,27.1502,7.01037,-1.24702,-1.7317,0.73878
526.103,27.17134,6.99219,-1.27728,-1.76605,0.7382
526.803,27.1925,6.94382,-1.32266,-1.80146,0.73763
527.503,27.21371,6.93147,-1.36165,-1.83664,0.73705
528.203,27.2349,6.92208,-1.40512,-1.87046,0.73648
528.903,27.25605,6.90247,-1.44116,-1.90218,0.7359
529.603,27.27722,6.88131,-1.48364,-1.93171,0.73533
530.303,27.2984,6.8366,-1.52214,-1.95924,0.73476
531.003,27.3195,6.80749,-1.56639,-1.98517,0.73418
531.703,27.3407,6.79983,-1.60827,-2.01005,0.73361
532.403,27.36188,6.79742,-1.65052,-2.03406,0.73304
533.103,27.38308,6.769,-1.69524,-2.05729,0.73247
533.803,27.4043,6.73052,-1.73702,-2.07956,0.7319
534.503,27.42554,6.68075,-1.78545,-2.10027,0.73133
535.203,27.4467,6.62983,-1.82649,-2.11877,0.73076
535.903,27.46793,6.59229,-1.87654,-2.13433,0.73019
536.603,27.48896,6.5594,-1.91709,-2.14579,0.72962
537.303,27.5102,6.49751,-1.96867,-2.15229,0.72905
538.003,27.5315,6.40421,-2.01014,-2.15268,0.72849
538.703,27.5528,6.27882,-2.06302,-2.14631,0.72792
539.403,27.57422,6.13987,-2.10762,-2.13282,0.72735
540.103,27.5956,6.0199,-2.15797,-2.11236,0.72679
540.803,27.6169,5.86895,-2.19883,-2.08522,0.72623
541.503,27.63816,5.71072,-2.24413,-2.05156,0.72566
542.203,27.65945,5.55093,-2.28641,-2.01152,0.7251
542.903,27.68072,5.36689,-2.33048,-1.96515,0.72454
543.603,27.70203,5.16355,-2.37503,-1.91234,0.72397
544.303,27.72338,4.94911,-2.41518,-1.85327,0.72341
545.003,27.7447,4.72473,-2.45887,-1.78842,0.72285
545.703,27.7661,4.48563,-2.49494,-1.71864,0.72229
546.403,27.78745,4.23226,-2.5329,-1.64486,0.72173
547.103,27.8088,3.97964,-2.56292,-1.56816,0.72117
547.803,27.8302,3.72577,-2.59971,-1.48932,0.72061
548.503,27.8515,3.48955,-2.62848,-1.40938,0.72006
549.203,27.87288,3.23975,-2.66052,-1.32868,0.7195
549.903,27.89423,2.99505,-2.68481,-1.24798,0.71894
550.603,27.91553,2.77621,-2.71272,-1.16795,0.71839
551.303,27.93693,2.546,-2.73509,-1.08863,0.71783
552.003,27.95832,2.33328,-2.75793,-1.01114,0.71728
552.703,27.97972,2.14846,-2.77792,-0.93611,0.71673
553.403,28.0011,1.95572,-2.79659,-0.86432,0.71617
554.103,28.0225,1.78758,-2.81416,-0.79623,0.71562
554.803,28.04392,1.62587,-2.82884,-0.73268,0.71507
555.503,28.0653,1.48552,-2.84435,-0.67372,0.71452
556.203,28.08687,1.36042,-2.85623,-0.61933,0.71397
556.903,28.10827,1.24884,-2.86908,-0.56998,0.71342
557.603,28.12974,1.15045,-2.87772,-0.52491,0.71287
558.303,28.15117,1.07166,-2.89001,-0.48386,0.71232
559.003,28.1726,0.99336,-2.89872,-0.44626,0.71177
559.703,28.1941,0.92353,-2.90851,-0.41166,0.71122
560.403,28.2156,0.87735,-2.91672,-0.37988,0.71068
561.103,28.23715,0.83679,-2.92453,-0.35084,0.71013
561.803,28.25872,0.79825,-2.93017,-0.32455,0.70959
562.503,28.28032,0.76842,-2.93637,-0.30102,0.70904
563.203,28.3018,0.74921,-2.9424,-0.28023,0.7085
563.903,28.32337,0.71443,-2.94748,-0.26173,0.70795
564.603,28.3448,0.69827,-2.95263,-0.24521,0.70741
565.303,28.36635,0.69174,-2.95741,-0.23013,0.70687
566.003,28.38775,0.68897,-2.9636,-0.21616,0.70633
566.703,28.4093,0.67517,-2.96743,-0.20284,0.70579
567.403,28.4309,0.6725,-2.97154,-0.19018,0.70525
568.103,28.45239,0.67046,-2.97561,-0.17834,0.70471
568.803,28.4741,0.6512,-2.97951,-0.16736,0.70417
569.503,28.4957,0.65689,-2.98166,-0.15765,0.70363
570.203,28.51725,0.65088,-2.98511,-0.14927,0.7031
570.903,28.5389,0.64159,-2.98855,-0.14222,0.70256
571.603,28.56056,0.63661,-2.99112,-0.13645,0.70203
572.303,28.58215,0.6423,-2.99299,-0.1317,0.70149
573.003,28.60373,0.64953,-2.99542,-0.12766,0.70096
573.703,28.6253,0.62336,-2.99884,-0.124,0.70042
574.403,28.64685,0.63605,-3.00237,-0.1205,0.69989
575.103,28.66848,0.62726,-3.00455,-0.11698,0.69936
575.803,28.69012,0.61682,-3.00662,-0.1134,0.69883
576.503,28.7118,0.61538,-3.0092,-0.10974,0.6983
577.203,28.73347,0.60683,-3.01142,-0.10605,0.69777
577.903,28.75515,0.6123,-3.01382,-0.10239,0.69724
578.603,28.7767,0.60454,-3.01619,-0.09885874,0.69671
579.303,28.79835,0.59927,-3.01836,-0.09555441,0.69618
580.003,28.82007,0.59,-3.02054,-0.09271848,0.69565
580.703,28.8418,0.59043,-3.02218,-0.09059503,0.69513
581.403,28.86363,0.58976,-3.02455,-0.08937829,0.6946
582.103,28.88533,0.58639,-3.02574,-0.08918066,0.69407
582.803,28.907,0.58183,-3.02639,-0.0899042,0.69355
583.503,28.92868,0.57065,-3.02853,-0.09122753,0.69303
584.203,28.9504,0.5674,-3.03044,-0.09265878,0.6925
584.903,28.97219,0.57157,-3.03298,-0.09364947,0.69198
585.603,28.9939,0.56242,-3.03554,-0.09370699,0.69146
586.303,29.01567,0.5575,-3.03905,-0.09253476,0.69094
587.003,29.0374,0.54339,-3.0404,-0.09010689,0.69042
587.703,29.05915,0.54846,-3.04197,-0.08665679,0.6899
588.403,29.08091,0.54151,-3.04435,-0.08262114,0.68938
589.103,29.10264,0.54932,-3.04653,-0.07859358,0.68886
589.803,29.12442,0.52714,-3.04763,-0.07517893,0.68835
590.503,29.1462,0.52792,-3.04906,-0.07290568,0.68783
591.203,29.16801,0.5123,-3.0503,-0.07205612,0.68731
591.903,29.1898,0.50436,-3.05026,-0.07262175,0.6868
592.603,29.2115,0.49395,-3.05158,-0.07427513,0.68629
593.303,29.2332,0.50023,-3.0538,-0.07645955,0.68577
594.003,29.25487,0.49605,-3.05524,-0.07852206,0.68526
594.703,29.27651,0.47985,-3.05772,-0.07988504,0.68475
595.403,29.29828,0.49146,-3.06044,-0.08016022,0.68424
596.103,29.3201,0.48635,-3.0631,-0.07920226,0.68372
596.803,29.34197,0.47627,-3.06413,-0.07718782,0.68322
597.503,29.36382,0.46666,-3.06578,-0.07455016,0.68271
598.203,29.38567,0.46263,-3.06632,-0.07181513,0.6822
598.903,29.40752,0.45557,-3.06918,-0.06947014,0.68169
599.603,29.4293,0.45863,-3.07004,-0.06787894,0.68118
600.303,29.45127,0.44445,-3.07119,-0.06719549,0.68068
601.003,29.47315,0.43743,-3.07167,-0.06735018,0.68017
601.703,29.495,0.43131,-3.07295,-0.06804226,0.67967
602.403,29.51693,0.42614,-3.0742,-0.06883937,0.67916
603.103,29.53875,0.43588,-3.07672,-0.06931013,0.67866
603.803,29.5606,0.43275,-3.07971,-0.06919939,0.67816
604.503,29.58241,0.42428,-3.08156,-0.06848096,0.67766
605.203,29.60422,0.4303,-3.0818,-0.06730016,0.67716
605.903,29.62613,0.41351,-3.0832,-0.06586606,0.67666
606.603,29.64801,0.42287,-3.08484,-0.06438263,0.67616
607.303,29.6699,0.40768,-3.0858,-0.06295997,0.67566
608.003,29.6918,0.40968,-3.08612,-0.06160778,0.67516
608.703,29.7136,0.4155,-3.08778,-0.06023794,0.67466
609.403,29.73548,0.41628,-3.09076,-0.05877155,0.67417
610.103,29.7574,0.41935,-3.09249,-0.05722948,0.67367
610.803,29.77941,0.40961,-3.0936,-0.05568314,0.67318
611.503,29.80135,0.40279,-3.09321,-0.05445478,0.67268
612.203,29.82323,0.41378,-3.0931,-0.05365267,0.67219
612.903,29.84511,0.41158,-3.09513,-0.05342767,0.6717
613.603,29.86705,0.42552,-3.09762,-0.0522301,0.6712
614.303,29.88901,0.42263,-3.09898,-0.05193773,0.67071
615.003,29.911,0.41702,-3.09896,-0.05626369,0.67022
615.703,29.93303,0.41845,-3.09971,-0.05318817,0.66973
616.403,29.955,0.41699,-3.10173,-0.05480079,0.66924
617.103,29.977,0.43307,-3.10317,-0.05852044,0.66876
617.803,29.999,0.43628,-3.10412,-0.04607466,0.66827