File: 01_Data/PETG/Cone/PET-G_Cone_HF75Scan_220215_R1.csv
Names,Time,Stack TC,Smoke TC,Exh Press,Smoke Comp,Smoke Meas,CO Meter,CO2 Meter,O2 Meter,Sample Mass,Ext Coeff,Start Test,Flame Verif
Chan Gain,,500,500,1,1,1,1,1,1,1,1,1.0,1.0
Offset,,0,0,0.140898,0,0,0,0,0,0,0,0.0,0.0
Gain,,1,1,25.011,12.9668,12.6588,1,1,1,1.00088,1.01977,1.0,1.0
Units,sec,C,C,Pa,%,%,%,%,%,g,/m,,
Baseline,,36.494,39.3038,150.825,98.4854,97.9363,-0.00239373,0.0736745,20.9587,-872.168,0.0501313,,
2,0.25,34.7751,36.8409,149.964,98.8175,98.7921,-0.0022016,0.0839989,20.9476,35.7514,0.00229986,0.0,0.0
4,0.75,34.4086,36.6005,152.915,98.8397,99.4944,-0.00221508,0.083997,20.9475,35.6213,-0.0590623,0.0,0.0
6,1.25,34.7205,37.1224,149.277,98.8634,98.8817,-0.00223037,0.0839388,20.9474,35.6213,-0.00165676,0.0,0.0
8,1.75,34.958,37.3564,148.411,98.8935,99.1544,-0.00223895,0.0838408,20.9473,35.5812,-0.0235764,0.0,0.0
10,2.25,34.8852,36.9941,154.375,98.9057,98.8083,-0.00225363,0.0837613,20.9472,35.6613,0.00881558,0.0,0.0
12,2.75,34.6191,36.721,153.809,98.933,99.2406,-0.00227143,0.0834945,20.9472,35.6113,-0.0277654,0.0,0.0
14,3.25,34.6153,37.2906,150.391,98.9421,98.879,-0.00228585,0.0832783,20.9474,35.6213,0.00570964,0.0,0.0
16,3.75,34.4154,36.797,151.047,98.9876,99.0216,-0.00229754,0.0829286,20.9477,35.6913,-0.00306366,0.0,0.0
18,4.25,35.5334,36.9887,149.275,98.9896,98.7932,-0.00230949,0.0826453,20.948,35.6613,0.017764,0.0,0.0
20,4.75,35.0022,37.1841,148.954,99.0122,98.5406,-0.00232142,0.0825245,20.9482,35.6113,0.0427083,0.0,0.0
22,5.25,34.5003,37.2103,151.118,99.0256,98.8825,-0.00233108,0.082318,20.9485,35.6213,0.0129417,0.0,0.0
24,5.75,34.9798,37.6752,150.708,99.0545,99.4531,-0.002346,0.0821507,20.9486,35.6313,-0.0359201,0.0,0.0
26,6.25,35.1121,37.1281,147.39,99.0585,97.9279,-0.00235809,0.0820153,20.9488,35.6313,0.102684,0.0,0.0
28,6.75,35.1298,37.5085,148.765,99.089,98.9601,-0.00236788,0.081955,20.9489,35.6513,0.0116372,0.0,0.0
30,7.25,35.0441,37.2095,149.398,99.0945,98.5784,-0.00237582,0.0819507,20.949,35.6613,0.0467052,0.0,0.0
32,7.75,35.0094,37.0061,150.497,99.1277,98.8419,-0.00237514,0.0819473,20.9488,35.6513,0.0258295,0.0,0.0
34,8.25,35.0936,36.8661,144.779,99.138,99.3437,-0.00237459,0.0819042,20.9485,35.6313,-0.0185436,0.0,0.0
36,8.75,35.2536,37.335,151.191,99.1618,98.7318,-0.00237415,0.0818692,20.9483,35.6413,0.0388688,0.0,0.0
38,9.25,34.8727,37.44,150.871,99.1629,99.1552,-0.00237379,0.081841,20.948,35.6313,0.000697377,0.0,0.0
40,9.75,35.161,37.468,149.474,99.18,98.5479,-0.0023735,0.0818181,20.9479,35.6213,0.0571874,0.0,0.0
42,10.25,35.31,37.5913,151.827,99.1879,98.5317,-0.0023792,0.0819338,20.9477,35.6313,0.0593751,0.0,0.0
44,10.75,35.3519,37.3928,148.438,99.214,98.6936,-0.00238381,0.0820276,20.9476,35.6313,0.0470458,0.0,0.0
46,11.25,35.209,37.3427,151.999,99.2239,99.314,-0.00238942,0.082231,20.9476,35.6013,-0.00811927,0.0,0.0
48,11.75,35.2109,37.4207,152.209,99.2413,98.5835,-0.00239564,0.0825102,20.9477,35.6313,0.0594927,0.0,0.0
50,12.25,35.3008,37.8864,151.744,99.2544,98.8883,-0.00240006,0.0827365,20.9477,35.6313,0.0330538,0.0,0.0
52,12.75,35.408,37.0726,146.692,99.2512,98.8211,-0.00240308,0.0831627,20.9474,35.6513,0.0388518,0.0,0.0
54,13.25,35.4449,37.8841,152.829,99.2567,99.8193,-0.00240116,0.083508,20.9471,35.6213,-0.0505567,0.0,0.0
56,13.75,35.6146,37.6162,151.425,99.2654,98.2443,-0.00239568,0.0838443,20.9468,35.6213,0.0924988,0.0,0.0
58,14.25,34.9169,37.6498,152.995,99.2619,98.8218,-0.00238689,0.0841677,20.9466,35.6013,0.0397447,0.0,0.0
60,14.75,35.5094,37.8037,153.762,99.2658,98.7534,-0.00237583,0.084458,20.9464,35.6213,0.0462926,0.0,0.0
62,15.25,35.3464,38.1647,145.96,99.2694,98.8875,-0.00236688,0.0847187,20.9463,35.6313,0.0344795,0.0,0.0
64,15.75,35.4227,37.7618,152.433,99.2639,99.7722,-0.00235091,0.084951,20.9462,35.6413,-0.0456904,0.0,0.0
66,16.25,35.5789,37.3261,150.192,99.269,99.5589,-0.00233012,0.0851584,20.9461,35.6513,-0.0260878,0.0,0.0
68,16.75,35.1023,37.4607,148.726,99.2551,98.7214,-0.00230892,0.0852767,20.946,35.6413,0.0482359,0.0,0.0
70,17.25,35.5661,37.6737,150.835,99.2643,99.151,-0.00228783,0.085328,20.946,35.6413,0.0102142,0.0,0.0
72,17.75,35.1975,37.8266,146.576,99.2571,98.1207,-0.00226949,0.0853695,20.9461,35.6313,0.103013,0.0,0.0
74,18.25,35.3287,37.7859,147.465,99.2425,99.3414,-0.00225352,0.0851072,20.9465,35.6413,-0.0089134,0.0,0.0
76,18.75,35.6,37.5329,150.219,99.2409,99.0818,-0.00223996,0.0848947,20.9468,35.6513,0.0143514,0.0,0.0
78,19.25,35.0536,38.1708,159.212,99.2397,99.5431,-0.00222842,0.0845669,20.9474,35.6613,-0.0273033,0.0,0.0
80,19.75,35.4735,37.8452,150.141,99.231,98.7898,-0.00221408,0.0841614,20.948,35.6513,0.0398657,0.0,0.0
82,20.25,35.5646,37.9675,153.221,99.2172,98.5927,-0.00219797,0.0837268,20.9484,35.6213,0.0564753,0.0,0.0
84,20.75,35.69,37.9136,150.36,99.2077,98.9536,-0.00218492,0.0832794,20.9488,35.6213,0.0229412,0.0,0.0
86,21.25,35.5929,37.9123,156.194,99.1835,98.675,-0.00215896,0.082818,20.9489,35.5913,0.0459796,0.0,0.0
88,21.75,36.1823,37.5143,155.221,99.1922,99.2004,-0.00213794,0.0823552,20.949,35.5913,-0.00073849,0.0,0.0
90,22.25,35.829,37.5541,153.579,99.1637,99.0065,-0.00211343,0.0819027,20.9491,35.5812,0.014197,0.0,0.0
92,22.75,35.7129,37.935,148.643,99.1562,97.2472,-0.00208685,0.0814662,20.95,35.5913,0.173901,0.0,0.0
94,23.25,35.7304,38.6371,158.128,99.1301,98.5765,-0.00206532,0.0811126,20.9507,35.6013,0.050095,0.0,0.0
96,23.75,35.8245,37.9718,152.289,99.1218,97.902,-0.00204788,0.0806643,20.9513,35.5712,0.110764,0.0,0.0
98,24.25,35.9826,38.2563,148.479,99.087,96.8875,-0.00203376,0.0803012,20.9518,35.5712,0.200797,0.0,0.0
100,24.75,35.4339,38.4726,149.363,99.083,97.3334,-0.00202942,0.0799576,20.9522,35.5712,0.159374,0.0,0.0
102,25.25,36.1716,38.2586,153.424,99.0442,97.766,-0.00202591,0.0796348,20.9526,35.5512,0.116195,0.0,0.0
104,25.75,36.3871,37.9874,151.571,99.0316,97.6042,-0.00201951,0.0793734,20.9528,35.5612,0.129873,0.0,0.0
106,26.25,35.6752,38.1479,151.09,98.9975,97.1301,-0.00201433,0.0791348,20.953,35.5712,0.170348,0.0,0.0
108,26.75,35.967,38.2811,151.086,98.9928,97.6115,-0.00201013,0.0789416,20.9532,35.5712,0.125698,0.0,0.0
110,27.25,35.9378,38.3012,155.756,98.9619,97.1649,-0.0019884,0.0787448,20.9533,35.5612,0.163928,0.0,0.0
112,27.75,35.7554,38.4606,150.536,98.9417,96.5858,-0.00195125,0.0785854,20.9545,35.5512,0.215576,0.0,0.0
114,28.25,35.4634,38.4035,147.048,98.9022,96.2698,-0.00190496,0.0784704,20.9555,35.5212,0.241314,0.0,0.0
116,28.75,35.9297,38.2288,154.555,98.8962,95.9148,-0.00185289,0.07839,20.9558,35.5312,0.273825,0.0,0.0
118,29.25,35.9006,38.8067,145.991,98.865,96.3509,-0.00181071,0.0783249,20.9561,35.5412,0.230412,0.0,0.0
120,29.75,35.9648,38.1983,152.603,98.8511,95.9442,-0.00173045,0.0784062,20.9562,35.5412,0.267006,0.0,0.0
122,30.25,35.9155,38.9483,149.602,98.8056,95.588,-0.00162394,0.0785045,20.956,35.5412,0.296158,0.0,0.0
124,30.75,35.4447,38.4549,148.026,98.7934,94.9988,-0.00144298,0.0786725,20.9558,35.5212,0.35035,0.0,0.0
126,31.25,35.836,38.3144,152.168,98.7605,94.677,-0.00121118,0.081069,20.9505,35.5212,0.377729,0.0,0.0
128,31.75,36.3143,38.492,153.087,98.7498,94.2359,-0.000901048,0.0830103,20.9462,35.4511,0.418543,0.0,0.0
130,32.25,35.698,39.0803,146.827,98.7075,93.34,-0.000539698,0.0931402,20.9309,35.4812,0.500153,0.0,1.0
132,32.75,36.1679,39.142,146.29,98.6924,93.4802,-7.83784e-05,0.101345,20.9185,35.4712,0.48536,0.0,1.0
134,33.25,36.4256,38.8058,148.502,98.664,87.777,0.000447054,0.107992,20.8813,35.3911,1.04589,0.0,1.0
136,33.75,36.1246,39.7842,141.169,98.6434,79.5859,0.000872655,0.131571,20.8512,35.3611,1.92033,0.0,1.0
138,34.25,36.4725,40.8634,141.105,98.6244,78.3045,0.00166445,0.158345,20.8139,35.351,2.06381,0.0,1.0
140,34.75,37.0093,40.0869,136.87,98.6074,74.456,0.00230581,0.186938,20.7721,35.301,2.51308,0.0,1.0
142,35.25,36.6945,40.3909,136.355,98.5773,71.8615,0.0032828,0.218421,20.7382,35.1309,2.82762,0.0,1.0
144,35.75,37.8215,40.6827,138.531,98.5808,67.9342,0.00407416,0.251414,20.6919,35.1208,3.33068,0.0,1.0
146,36.25,37.8522,40.7494,137.097,98.5575,67.6005,0.00471516,0.278138,20.6544,35.1108,3.37262,0.0,1.0
148,36.75,38.3646,41.8997,133.362,98.5429,65.8898,0.00590989,0.315455,20.6138,35.0107,3.60056,0.0,0.0
150,37.25,38.6836,42.1912,130.164,98.5282,66.5628,0.00687762,0.345682,20.5717,34.9407,3.50833,0.0,0.0
152,37.75,38.9225,42.6759,131.044,98.5144,64.1595,0.00812906,0.383433,20.5376,34.8606,3.83603,0.0,0.0
154,38.25,38.9094,43.4841,130.899,98.5013,62.1596,0.00914274,0.414011,20.4933,34.7405,4.11812,0.0,0.0
156,38.75,39.5608,44.3556,127.598,98.4997,60.5857,0.0104216,0.43878,20.4481,34.6704,4.34739,0.0,0.0
158,39.25,40.2452,44.8905,129.893,98.4803,60.9431,0.0114576,0.473471,20.4031,34.5704,4.29302,0.0,0.0
160,39.75,40.8179,45.6151,132.38,98.4697,57.6072,0.0127637,0.501571,20.3667,34.5503,4.7956,0.0,0.0
162,40.25,40.9136,45.7796,132.711,98.4645,59.4642,0.0138216,0.532222,20.3135,34.4803,4.51132,0.0,0.0
164,40.75,41.843,46.6699,135.873,98.489,57.3047,0.0150235,0.564149,20.2705,34.4002,4.84446,0.0,0.0
166,41.25,43.1426,47.8973,119.691,98.5124,53.955,0.0163075,0.59789,20.2128,34.2901,5.38539,0.0,0.0
168,41.75,43.3356,48.9342,124.297,98.5417,55.1089,0.0173476,0.632313,20.1661,34.12,5.19875,0.0,0.0
170,42.25,44.1106,49.712,122.967,98.5547,51.9678,0.018864,0.670257,20.1012,34.12,5.72491,0.0,0.0
172,42.75,44.514,50.6544,121.2,98.5927,52.1346,0.0200924,0.710048,20.0486,33.9899,5.69968,0.0,0.0
174,43.25,45.1089,51.8091,127.895,98.6473,48.6311,0.0216351,0.754827,20.006,33.8798,6.32692,0.0,0.0
176,43.75,46.0426,52.7593,108.093,98.6398,49.2462,0.0233777,0.80239,19.9418,33.7496,6.21382,0.0,0.0
178,44.25,46.2996,53.2577,113.423,98.6786,43.3683,0.0252102,0.840917,19.8898,33.6395,7.35431,0.0,0.0
180,44.75,47.4883,55.2118,116.303,98.6829,41.9784,0.0270736,0.900817,19.8081,33.4594,7.6461,0.0,0.0
182,45.25,48.1904,56.7304,122.932,98.711,41.6218,0.0285829,0.949336,19.742,33.3193,7.72495,0.0,0.0
184,45.75,50.0247,58.1852,109.265,98.7241,40.459,0.0306262,1.00547,19.6708,33.1591,7.9796,0.0,0.0
186,46.25,50.7112,59.6496,111.494,98.751,40.8314,0.0322813,1.06608,19.5972,32.989,7.90008,0.0,0.0
188,46.75,51.9326,60.8186,110.28,98.7684,42.2623,0.0347149,1.11518,19.5163,32.8288,7.59354,0.0,0.0
190,47.25,52.9884,61.8659,120.433,98.7973,38.6151,0.0366862,1.18552,19.4316,32.7488,8.40349,0.0,0.0
192,47.75,53.9888,63.955,110.489,98.806,38.6155,0.038804,1.24249,19.3631,32.4685,8.40419,0.0,0.0
194,48.25,54.8165,65.0182,102.554,98.8321,38.85,0.0409886,1.30932,19.2813,32.3584,8.3524,0.0,0.0
196,48.75,56.1592,67.1778,111.133,98.8472,37.6045,0.0433143,1.36346,19.215,32.1683,8.64524,0.0,0.0
198,49.25,57.7365,69.2387,108.326,98.8709,36.8875,0.0456988,1.4215,19.1614,31.928,8.81959,0.0,0.0
200,49.75,58.986,70.7866,109.804,98.8832,36.9234,0.0476302,1.4813,19.0861,31.838,8.81199,0.0,0.0
202,50.25,59.7824,72.3244,105.582,98.9034,35.1243,0.0491947,1.54173,19.0251,31.5978,9.26065,0.0,0.0
204,50.75,61.3459,74.4606,106.688,98.9053,36.3034,0.0516787,1.60149,18.9757,31.4376,8.96549,0.0,0.0
206,51.25,62.4683,76.0472,105.457,98.9184,37.6501,0.0547858,1.66171,18.9106,31.2174,8.64084,0.0,0.0
208,51.75,63.4877,77.9172,104.982,98.922,38.8639,0.0582032,1.72113,18.8579,31.0172,8.35732,0.0,0.0
210,52.25,64.5116,78.9383,95.688,98.9453,35.2897,0.0617819,1.76927,18.7898,30.8171,9.22244,0.0,0.0
212,52.75,65.7553,81.0474,102.501,98.9473,35.7587,0.0656139,1.80825,18.7346,30.5668,9.10452,0.0,0.0
214,53.25,67.5232,83.322,101.043,98.971,31.7715,0.0695579,1.89067,18.646,30.4367,10.1642,0.0,0.0
216,53.75,68.8093,85.1321,98.1954,98.9683,33.3859,0.0737693,1.95744,18.5743,30.2065,9.72059,0.0,0.0
218,54.25,70.1006,86.5629,94.8026,98.9801,34.2099,0.0780957,2.01151,18.4292,29.9563,9.50356,0.0,0.0
220,54.75,70.8311,88.774,92.5525,98.9896,33.5679,0.0828349,2.1133,18.3116,29.6961,9.6739,0.0,0.0
222,55.25,73.3182,92.2415,96.8383,99.0062,32.5449,0.0877851,2.19574,18.1497,29.5159,9.95225,0.0,0.0
224,55.75,75.0187,94.3838,92.3998,98.9999,32.8945,0.0917947,2.3102,18.0185,29.1856,9.85609,0.0,0.0
226,56.25,76.8148,97.4428,90.2779,99.0098,30.1922,0.0979812,2.40292,17.8814,28.9154,10.6238,0.0,0.0
228,56.75,79.0322,100.2,100.129,99.0114,30.5998,0.102992,2.52772,17.7426,28.6852,10.504,0.0,0.0
230,57.25,80.3688,102.92,89.6795,99.0205,30.5148,0.107051,2.6288,17.6302,28.3149,10.5297,0.0,0.0
232,57.75,82.2524,105.487,86.4822,99.0106,27.8793,0.114899,2.76521,17.5057,28.0546,11.3368,0.0,0.0
234,58.25,84.0366,108.058,81.7224,99.0375,28.2854,0.118245,2.8757,17.4367,27.8044,11.2099,0.0,0.0
236,58.75,86.2789,112.135,84.4831,99.0225,27.8724,0.12683,3.02392,17.3187,27.344,11.3401,0.0,0.0
238,59.25,88.2439,114.459,81.4262,99.0391,25.5124,0.133785,3.14398,17.1624,27.0838,12.133,0.0,0.0
240,59.75,90.6693,117.441,76.6298,99.0245,24.8228,0.141149,3.28521,16.9925,26.7635,12.3768,0.0,0.0
242,60.25,92.3903,121.057,112.9,99.0363,24.8255,0.148673,3.43919,16.8159,26.4332,12.3769,0.0,0.0
244,60.75,94.0741,123.79,86.7402,99.0316,26.0884,0.156886,3.56391,16.6729,26.143,11.9326,0.0,0.0
246,61.25,96.1788,127.092,73.8187,99.0442,24.8274,0.165447,3.66118,16.4486,25.7626,12.3769,0.0,0.0
248,61.75,98.1781,130.337,74.0232,99.0324,22.5057,0.172381,3.82752,16.2669,25.3923,13.2541,0.0,0.0
250,62.25,100.579,134.25,79.5631,99.0482,24.7992,0.182573,4.00647,16.0637,25.1121,12.3874,0.0,0.0
252,62.75,102.797,137.807,64.4166,99.0359,23.0936,0.190828,4.1912,15.8487,24.5215,13.0237,0.0,0.0
254,63.25,105.265,141.487,73.2393,99.0411,25.9987,0.201221,4.39334,15.6173,24.2213,11.9643,0.0,0.0
256,63.75,107.182,145.431,72.5478,99.032,21.14,0.209639,4.60433,15.3782,23.7709,13.8141,0.0,0.0
258,64.25,110.009,150.03,62.0047,99.0343,27.8909,0.218678,4.83254,15.1846,23.3405,11.3352,0.0,0.0
260,64.75,112.872,154.536,87.9988,99.0264,23.874,0.227999,5.06896,14.9011,23.0102,12.7256,0.0,0.0
262,65.25,115.534,158.682,85.164,99.0296,25.4502,0.236947,5.26046,14.6715,22.6599,12.154,0.0,0.0
264,65.75,117.861,163.763,82.5551,99.0292,28.3317,0.245454,5.53499,14.3598,22.0894,11.1945,0.0,0.0
266,66.25,120.74,168.731,65.1326,99.0312,27.5038,0.252345,5.75736,14.1073,21.629,11.46,0.0,0.0
268,66.75,123.737,173.981,85.8166,99.0359,23.6785,0.260141,5.98365,13.8627,21.1986,12.8,0.0,0.0
270,67.25,126.863,179.028,63.2618,99.0292,33.2739,0.266456,6.20851,13.6285,20.7582,9.75616,0.0,0.0
272,67.75,129.397,184.692,84.1091,99.0324,25.597,0.273622,6.39064,13.4043,20.3279,12.1028,0.0,0.0
274,68.25,131.976,188.917,95.3446,99.0241,23.3617,0.279427,6.59741,13.1917,19.9775,12.9194,0.0,0.0
276,68.75,135.235,194.447,66.6599,99.0225,23.8547,0.285685,6.76489,13.0009,19.407,12.7325,0.0,0.0
278,69.25,137.005,198.699,66.995,99.0328,31.0873,0.290754,6.93233,12.8297,18.9166,10.3645,0.0,0.0
280,69.75,139.839,203.253,74.4659,99.0233,22.7189,0.296235,7.06796,12.6796,18.5563,13.1689,0.0,0.0
282,70.25,142.425,207.953,61.9543,99.0157,24.3279,0.300674,7.19832,12.5479,17.9558,12.5562,0.0,0.0
284,70.75,144.685,211.809,71.2693,99.0185,23.8076,0.304269,7.30392,12.4412,17.5754,12.7498,0.0,0.0
286,71.25,146.993,215.312,76.4451,99.0114,21.5704,0.308797,7.40299,12.3477,17.1751,13.6319,0.0,0.0
288,71.75,149.144,220.322,51.4913,99.0181,25.0005,0.312464,7.48323,12.2657,16.6446,12.3124,0.0,0.0
290,72.25,152.067,224.782,83.5145,99.0027,23.565,0.318004,7.57139,12.1709,16.1642,12.84,0.0,0.0
292,72.75,154.321,228.396,75.7871,99.0082,26.7791,0.320835,7.64279,12.1043,15.7338,11.6968,0.0,0.0
294,73.25,156.092,232.235,67.7987,99.0027,21.6291,0.322042,7.72231,12.0674,15.3335,13.6068,0.0,0.0
296,73.75,158.497,236.115,97.2321,99.0039,26.5871,0.32482,7.80622,12.0042,14.813,11.7607,0.0,0.0
298,74.25,161.162,240.831,57.9479,98.9936,28.4561,0.327713,7.87419,11.9552,14.4627,11.1521,0.0,0.0
300,74.75,162.995,244.82,59.2607,99.0142,34.1709,0.330274,7.93906,11.9156,13.8822,9.51684,0.0,0.0
302,75.25,165.431,249.022,55.681,98.9944,25.9447,0.332545,8.014,11.8834,13.4918,11.9787,0.0,0.0
304,75.75,167.917,252.721,55.858,99.0023,27.9836,0.334385,8.0523,11.8574,12.9013,11.3026,0.0,0.0
306,76.25,169.031,255.348,69.8183,98.988,22.7058,0.335878,8.04816,11.8497,12.6111,13.1709,0.0,0.0
308,76.75,171.939,259.072,77.0595,98.9991,22.783,0.337087,8.04107,11.8435,12.0105,13.1415,0.0,0.0
310,77.25,173.38,262.331,67.1011,98.9916,19.6716,0.337378,8.02305,11.8581,11.6002,14.4544,0.0,0.0
312,77.75,174.364,263.959,77.4053,98.9964,24.9356,0.337614,7.9974,11.8878,11.2199,12.3337,0.0,0.0
314,78.25,176.346,266.819,70.084,98.9813,25.8651,0.337805,7.96095,11.9118,10.6393,12.005,0.0,0.0
316,78.75,178.023,269.26,75.5979,98.9861,23.1249,0.334784,7.91732,11.9551,10.3191,13.0071,0.0,0.0
318,79.25,179.474,271.675,70.7381,98.9774,29.6139,0.332338,7.88198,12.0116,9.87868,10.7939,0.0,0.0
320,79.75,181.048,273.866,57.3334,98.9884,23.5016,0.326749,7.79784,12.0998,9.46832,12.8628,0.0,0.0
322,80.25,182.786,276.543,69.887,98.9813,25.0735,0.322221,7.72969,12.2094,8.95787,12.283,0.0,0.0
324,80.75,183.756,277.517,76.7733,98.9821,21.5998,0.312783,7.61345,12.3694,8.6476,13.6171,0.0,0.0
326,81.25,185.388,279.998,64.4289,98.969,26.3862,0.305138,7.46436,12.5631,8.24724,11.8254,0.0,0.0
328,81.75,187.078,281.109,64.9189,98.9841,26.0656,0.292628,7.3436,12.8241,7.83688,11.9362,0.0,0.0
330,82.25,187.481,281.859,72.8279,98.9683,23.4174,0.282496,7.1017,13.1293,7.5166,12.8931,0.0,0.0
332,82.75,187.959,281.832,74.0034,98.9853,27.0468,0.270018,6.90577,13.3765,7.18631,11.6057,0.0,0.0
334,83.25,187.99,282.333,77.0206,98.9821,26.7969,0.256069,6.61343,13.7405,6.91607,11.6885,0.0,0.0
336,83.75,187.816,281.61,81.5713,98.9884,27.0932,0.241645,6.37663,14.0353,6.69588,11.5907,0.0,0.0
338,84.25,188.963,282.054,82.1116,98.9797,30.1702,0.227149,6.036,14.4271,6.40563,10.6276,0.0,0.0
340,84.75,189.126,280.987,97.5718,98.9979,31.3349,0.215408,5.76008,14.7445,6.18543,10.2904,0.0,0.0
342,85.25,188.124,279.464,86.3188,98.9781,32.9424,0.202357,5.47267,15.0016,5.95523,9.84111,0.0,0.0
344,85.75,188.346,278.551,102.011,98.992,33.1746,0.188599,5.18235,15.3361,5.74505,9.77953,0.0,0.0
346,86.25,187.571,276.852,102.618,98.9805,33.5578,0.175522,4.8908,15.6071,5.5749,9.67575,0.0,0.0
348,86.75,187.186,275.823,94.1622,98.9908,35.9228,0.163189,4.60391,15.9326,5.34469,9.06747,0.0,0.0
350,87.25,185.866,273.378,97.7267,98.9892,36.7739,0.153199,4.37152,16.1963,5.17454,8.85787,0.0,0.0
352,87.75,184.548,271.134,98.1053,98.9979,41.4055,0.142139,4.09539,16.4493,5.0044,7.79753,0.0,0.0
354,88.25,184.907,270.209,96.6818,98.9837,39.0022,0.133181,3.87172,16.6898,4.73416,8.33113,0.0,0.0
356,88.75,184.654,268.539,103.891,98.9896,39.7165,0.123609,3.69055,16.9282,4.58403,8.16932,0.0,0.0
358,89.25,183.249,265.987,99.1167,98.9801,37.9487,0.115855,3.4734,17.1604,4.45391,8.57575,0.0,0.0
360,89.75,182.531,264.236,99.6792,98.9979,41.1903,0.108673,3.2975,17.3799,4.26374,7.84414,0.0,0.0
362,90.25,181.122,262.262,108.538,98.9948,40.029,0.102045,3.10428,17.5858,4.12362,8.09967,0.0,0.0
364,90.75,180.152,260.256,107.555,99.007,39.3317,0.0949402,2.94777,17.7807,3.96348,8.25798,0.0,0.0
366,91.25,180.571,258.901,101.767,98.99,41.1567,0.0891855,2.79745,17.9639,3.80334,7.85072,0.0,0.0
368,91.75,179.266,256.295,109.061,99.0118,41.8493,0.0845243,2.65452,18.1123,3.66322,7.70339,0.0,0.0
370,92.25,178.169,254.436,112.077,99.0011,46.3325,0.0814754,2.51967,18.1756,3.48306,6.79207,0.0,0.0
372,92.75,176.932,252.546,109.677,99.0082,46.4338,0.0762618,2.39329,18.3243,3.34294,6.7732,0.0,0.0
374,93.25,176.1,250.259,107.276,99.0098,49.3435,0.0720389,2.27099,18.4447,3.22283,6.22965,0.0,0.0
376,93.75,174.885,248.132,113.029,99.0256,47.0801,0.0671501,2.15399,18.5647,3.12274,6.65112,0.0,0.0
378,94.25,173.827,245.919,111.053,99.0047,46.5883,0.0631902,2.05922,18.6822,3.00264,6.74315,0.0,0.0
380,94.75,172.756,243.726,115.308,99.0268,50.1756,0.0587039,1.94305,18.7964,2.87252,6.08159,0.0,0.0
382,95.25,172.078,242.077,114.073,99.0146,52.553,0.0550701,1.89353,18.9062,2.7324,5.66637,0.0,0.0
384,95.75,170.484,239.085,116.38,99.0284,54.699,0.051048,1.78811,18.9951,2.65233,5.3096,0.0,0.0
386,96.25,169.263,237.449,116.017,99.0177,55.8696,0.0477901,1.68405,19.0953,2.55224,5.11923,0.0,0.0
388,96.75,168.568,234.736,118.478,99.0387,56.9991,0.0451512,1.59975,19.2017,2.51221,4.94207,0.0,0.0
390,97.25,167.36,233.251,125.137,99.028,58.5479,0.0413917,1.49428,19.3112,2.44214,4.70129,0.0,0.0
392,97.75,165.945,230.367,122.458,99.0454,59.154,0.0383466,1.40885,19.4208,2.37208,4.61073,0.0,0.0
394,98.25,164.303,228.21,122.923,99.0324,62.0954,0.0353358,1.30959,19.5097,2.32204,4.17545,0.0,0.0
396,98.75,162.942,225.404,126.196,99.0407,65.9308,0.0324074,1.22919,19.6178,2.30202,3.64008,0.0,0.0
398,99.25,162.094,223.509,127.637,99.0347,68.7803,0.0300353,1.16407,19.7054,2.23196,3.26106,0.0,0.0
400,99.75,161.062,221.161,129.238,99.0462,72.0068,0.0275336,1.08769,19.7763,2.19193,2.85201,0.0,0.0
402,100.25,159.241,218.095,133.614,99.0343,75.9944,0.0249849,1.00457,19.8721,2.17191,2.36879,0.0,0.0
404,100.75,158.184,216.145,135.849,99.0415,78.077,0.022597,0.925357,19.9685,2.14188,2.12759,0.0,0.0
406,101.25,157.068,213.918,132.565,99.03,82.909,0.0203716,0.850507,20.0636,2.13187,1.5894,0.0,0.0
408,101.75,154.861,210.942,135.447,99.0411,86.542,0.0183268,0.789878,20.1512,2.12186,1.20677,0.0,0.0
410,102.25,153.876,208.663,132.248,99.028,87.0948,0.0164523,0.716601,20.2318,2.11185,1.14863,0.0,0.0
412,102.75,152.409,206.681,133.712,99.0383,89.4977,0.0147635,0.657246,20.305,2.08183,0.906108,0.0,0.0
414,103.25,150.631,203.923,134.335,99.0237,90.3808,0.013242,0.602151,20.3714,2.07182,0.816951,0.0,0.0
416,103.75,149.453,201.66,137.645,99.0316,90.8498,0.0120097,0.551209,20.4253,2.07182,0.771367,0.0,0.0
418,104.25,148.956,199.792,134.267,99.0189,90.9402,0.0107463,0.506502,20.4729,2.06181,0.761327,0.0,0.0
420,104.75,146.923,197.588,134.442,99.0241,91.5038,0.00972295,0.467191,20.5152,2.0518,0.706521,0.0,0.0
422,105.25,145.277,195.096,133.305,99.013,90.4465,0.00874576,0.433049,20.5519,2.04179,0.809487,0.0,0.0
424,105.75,144.171,192.958,138.961,99.0154,90.3727,0.00795424,0.403323,20.5838,2.04179,0.817002,0.0,0.0
426,106.25,142.953,190.827,136.077,98.9952,91.3393,0.00731311,0.377114,20.6096,2.03178,0.720013,0.0,0.0
428,106.75,142.069,188.472,137.235,98.9999,90.946,0.00667876,0.353966,20.6352,2.03178,0.759041,0.0,0.0
430,107.25,140.749,186.637,140.927,98.9912,91.7364,0.00616494,0.335216,20.656,2.03178,0.680847,0.0,0.0
432,107.75,139.336,184.363,138.976,98.9873,92.3433,0.00570524,0.316285,20.6755,2.02178,0.621505,0.0,0.0
434,108.25,138.466,182.903,135.402,98.9671,92.1467,0.00533289,0.300951,20.6938,1.99175,0.63875,0.0,0.0
436,108.75,137.432,180.14,137.542,98.9817,92.0207,0.00500473,0.286839,20.7107,1.99175,0.652307,0.0,0.0
438,109.25,135.785,178.764,139.919,98.952,92.6017,0.00473892,0.273886,20.7261,1.97173,0.59332,0.0,0.0
440,109.75,134.904,177.411,135.727,98.9481,91.2404,0.00451637,0.263393,20.741,1.98174,0.725448,0.0,0.0
442,110.25,133.428,175.169,142.842,98.9243,92.6628,0.00433611,0.251931,20.755,1.98174,0.584922,0.0,0.0
444,110.75,132.544,173.384,140.624,98.922,93.2407,0.00418165,0.242647,20.7675,1.97173,0.529088,0.0,0.0
446,111.25,131.243,171.381,140.1,98.9065,93.1882,0.00405654,0.233177,20.7786,1.96172,0.532735,0.0,0.0
448,111.75,130.89,169.677,140.869,98.8974,93.1468,0.00394917,0.225506,20.789,1.98174,0.535881,0.0,0.0
450,112.25,129.12,168.338,138.082,98.8717,93.4945,0.0038622,0.218273,20.7987,1.97173,0.500227,0.0,0.0
452,112.75,128.588,166.359,136.029,98.8677,93.7985,0.00379175,0.211497,20.8065,1.99175,0.470826,0.0,0.0
454,113.25,126.914,164.791,137.103,98.846,93.4918,0.00374314,0.205203,20.8145,1.96172,0.498157,0.0,0.0
456,113.75,126.555,162.971,135.591,98.8424,93.5478,0.00370376,0.199381,20.8211,1.96172,0.492477,0.0,0.0
458,114.25,125.039,161.301,139.504,98.8159,93.5988,0.00368875,0.194049,20.827,1.96172,0.485202,0.0,0.0
460,114.75,123.846,159.791,140.688,98.7981,92.8899,0.00367659,0.189175,20.8325,1.95171,0.551598,0.0,0.0
462,115.25,123.194,157.97,137.649,98.7858,93.6761,0.00367056,0.184562,20.8378,1.96172,0.475098,0.0,0.0
464,115.75,121.703,156.088,139.448,98.7554,93.5297,0.0036691,0.180227,20.8429,1.95171,0.486332,0.0,0.0
466,116.25,121.354,155.1,138.979,98.7289,94.2973,0.00367516,0.176715,20.8477,1.96172,0.410814,0.0,0.0
468,116.75,120.35,153.121,139.874,98.7047,93.3172,0.00368007,0.172779,20.8522,1.95171,0.502086,0.0,0.0
470,117.25,118.148,151.277,139.582,98.6913,94.3942,0.00369733,0.169591,20.8564,1.96172,0.398212,0.0,0.0
472,117.75,118.01,149.926,140.51,98.6612,93.2608,0.00371131,0.166561,20.8601,1.94171,0.503549,0.0,0.0
474,118.25,117.234,149.164,139.317,98.6319,94.3599,0.00373472,0.163703,20.8631,1.95171,0.39609,0.0,0.0
476,118.75,116.856,146.953,141.22,98.5923,93.8932,0.00375367,0.161073,20.866,1.96172,0.43685,0.0,0.0
478,119.25,115.82,146.274,140.421,98.5682,92.9077,0.00376175,0.158659,20.8675,1.95171,0.529046,0.0,0.0
480,119.75,115.251,144.695,141.311,98.5342,94.5237,0.00377557,0.15647,20.87,1.95171,0.371705,0.0,0.0
482,120.25,113.773,143.862,141.088,98.5061,93.8476,0.00378677,0.154486,20.872,1.95171,0.433364,0.0,0.0
484,120.75,113.808,142.566,139.405,98.4819,94.0713,0.00382121,0.152704,20.8728,1.95171,0.409876,0.0,0.0
486,121.25,112.467,140.914,141.259,98.4934,93.8302,0.00384911,0.151102,20.8734,1.9317,0.433871,0.0,0.0
488,121.75,111.989,139.966,142.477,98.491,93.4342,0.00387776,0.149805,20.8741,1.92169,0.471486,0.0,0.0
490,122.25,110.953,138.096,134.825,98.5065,93.7518,0.00390096,0.149252,20.8749,1.9317,0.442537,0.0,0.0
492,122.75,110.134,137.562,138.595,98.512,93.7897,0.00392822,0.147821,20.8758,1.9317,0.439428,0.0,0.0
494,123.25,109.527,136.073,140.337,98.5357,93.9264,0.0039503,0.146662,20.8767,1.89166,0.428551,0.0,0.0
496,123.75,109.03,135.006,139.942,98.5326,93.887,0.00397328,0.145723,20.8774,1.89166,0.432016,0.0,0.0
498,124.25,107.996,133.61,138.94,98.5528,93.9311,0.00399648,0.144713,20.8785,1.89166,0.429653,0.0,0.0
500,124.75,107.2,132.733,142.676,98.5642,93.7244,0.00401972,0.143895,20.8793,1.87164,0.4504,0.0,0.0
502,125.25,106.608,131.349,137.912,98.569,93.4003,0.00404256,0.14308,20.88,1.88165,0.481818,0.0,0.0
504,125.75,105.952,130.909,142.312,98.5876,93.8055,0.00406107,0.14242,20.8805,1.90167,0.444778,0.0,0.0
506,126.25,105.273,129.688,137.345,98.6113,93.6896,0.00407968,0.141754,20.8814,1.9317,0.45799,0.0,0.0
508,126.75,104.984,128.49,137.299,98.6177,93.6239,0.00409476,0.141097,20.8821,1.90167,0.464837,0.0,0.0
510,127.25,104.176,127.193,141.533,98.6426,93.226,0.00411334,0.14047,20.8827,1.94171,0.505198,0.0,0.0
512,127.75,103.554,126.554,139.72,98.6552,93.3354,0.00413413,0.139877,20.8836,1.89166,0.495862,0.0,0.0
514,128.25,102.918,125.742,144.37,98.6738,94.3827,0.00415288,0.139397,20.8843,1.89166,0.397733,0.0,0.0
516,128.75,102.175,124.489,140.362,98.6758,94.6705,0.00416979,0.138787,20.8849,1.88165,0.370676,0.0,0.0
518,129.25,101.629,123.143,137.99,98.7146,93.3485,0.00417775,0.138293,20.8854,1.94171,0.499984,0.0,0.0
520,129.75,101.09,122.929,142.898,98.7221,93.5772,0.00417904,0.137791,20.8862,1.9317,0.478776,0.0,0.0
522,130.25,99.9609,121.267,135.725,98.7577,93.6602,0.00418008,0.137293,20.8868,1.95171,0.474067,0.0,0.0
524,130.75,99.5563,120.941,143.209,98.7656,93.527,0.00416761,0.136751,20.8876,1.87164,0.487521,0.0,0.0
526,131.25,98.6929,119.658,139.55,98.8143,93.4478,0.00415751,0.136188,20.8884,1.81159,0.499507,0.0,0.0
528,131.75,98.3459,118.973,138.26,98.8084,93.6506,0.00415539,0.135645,20.8893,1.80158,0.479576,0.0,0.0
530,132.25,97.7772,118.263,143.343,98.8393,94.0636,0.00415366,0.135127,20.8902,1.83161,0.44301,0.0,0.0
532,132.75,97.5305,116.986,142.275,98.8448,94.519,0.00416074,0.134707,20.891,1.83161,0.400302,0.0,0.0
534,133.25,96.9814,116.059,139.55,98.8729,94.5971,0.00416647,0.134216,20.8916,1.83161,0.395461,0.0,0.0
536,133.75,96.3173,114.845,144.899,98.8828,93.6259,0.00416891,0.133817,20.8919,1.8216,0.48867,0.0,0.0
538,134.25,95.3397,114.137,141.336,98.9243,93.3639,0.0041664,0.133444,20.8925,1.81159,0.517488,0.0,0.0
540,134.75,95.5689,113.566,145.193,98.9267,94.441,0.00416439,0.133096,20.8927,1.80158,0.415099,0.0,0.0
542,135.25,94.6342,112.862,136.259,98.954,93.9875,0.00415248,0.132741,20.8931,1.80158,0.46063,0.0,0.0
544,135.75,94.509,111.862,138.626,98.9623,94.0342,0.00414486,0.132389,20.8934,1.76155,0.456933,0.0,0.0
546,136.25,94.1778,110.962,139.922,99.0114,93.9681,0.00413183,0.13198,20.894,1.78156,0.467654,0.0,0.0
548,136.75,93.547,110.74,140.654,99.0197,93.9635,0.00410192,0.131748,20.8945,1.78156,0.468847,0.0,0.0
550,137.25,92.4584,109.439,142.147,99.0399,94.9575,0.0040777,0.131181,20.8948,1.78156,0.376538,0.0,0.0
552,137.75,92.3086,109.295,137.761,99.0601,94.5113,0.00403995,0.130963,20.8954,1.77156,0.420493,0.0,0.0
554,138.25,92.061,108.128,140.81,99.0977,94.7222,0.00400937,0.130432,20.896,1.76155,0.403945,0.0,0.0
556,138.75,91.0313,108.065,138.322,99.1107,94.4437,0.00397252,0.130289,20.8965,1.77156,0.431467,0.0,0.0
558,139.25,91.1353,107.309,142.558,99.1325,94.3877,0.00394267,0.12999,20.8969,1.76155,0.438738,0.0,0.0
560,139.75,90.4835,106.235,138.483,99.1309,94.3603,0.00391124,0.129747,20.8975,1.75154,0.441195,0.0,0.0
562,140.25,89.5344,105.283,138.75,99.1633,94.1509,0.00388579,0.129441,20.8982,1.75154,0.463994,0.0,0.0
564,140.75,89.3526,105.011,144.379,99.1681,94.2397,0.00386517,0.129192,20.8987,1.73152,0.455984,0.0,0.0
566,141.25,89.2979,104.093,143.13,99.1855,94.3595,0.00384338,0.128868,20.8991,1.73152,0.446194,0.0,0.0
568,141.75,88.6888,103.021,140.171,99.1938,94.9096,0.00382116,0.128605,20.8995,1.72151,0.394944,0.0,0.0
570,142.25,89.0051,102.886,141.872,99.2207,94.4762,0.00379617,0.128185,20.8998,1.7115,0.438317,0.0,0.0
572,142.75,88.4569,102.409,141.88,99.2203,94.344,0.00376964,0.127846,20.9,1.73152,0.4508,0.0,0.0
574,143.25,87.4286,101.924,144.362,99.233,95.2774,0.00374815,0.12747,20.9006,1.70149,0.36388,0.0,0.0
576,143.75,86.9114,100.674,137.054,99.2453,94.0041,0.00373074,0.127074,20.9011,1.69149,0.485339,0.0,0.0
578,144.25,86.939,100.447,139.996,99.2512,94.7856,0.00370578,0.126753,20.9015,1.69149,0.411813,0.0,0.0
580,144.75,86.2895,99.7705,143.113,99.2571,94.0751,0.00368556,0.126378,20.9019,1.69149,0.479647,0.0,0.0
582,145.25,85.7242,98.9645,138.876,99.2726,94.288,0.00367643,0.12597,20.9022,1.69149,0.46082,0.0,0.0
584,145.75,85.5235,98.4748,145.889,99.271,94.001,0.00366903,0.125639,20.9024,1.70149,0.487951,0.0,0.0
586,146.25,85.3546,98.0367,143.942,99.2777,94.3722,0.00368476,0.125371,20.9026,1.68148,0.453297,0.0,0.0
588,146.75,84.6868,97.2519,140.236,99.2757,93.9044,0.00369751,0.125017,20.9027,1.7115,0.497574,0.0,0.0
590,147.25,84.3146,96.9193,140.675,99.2848,95.4887,0.00372233,0.124731,20.9028,1.7115,0.348734,0.0,0.0
592,147.75,84.0685,95.9952,139.435,99.2694,94.6218,0.00374243,0.124416,20.9029,1.70149,0.428925,0.0,0.0
594,148.25,83.8743,95.7013,141.244,99.2741,95.1028,0.00375935,0.124161,20.903,1.70149,0.383999,0.0,0.0
596,148.75,83.1104,95.1201,138.903,99.2718,94.9378,0.00377362,0.123914,20.9035,1.69149,0.399313,0.0,0.0
598,149.25,83.0647,94.7455,139.934,99.2563,95.4779,0.00378519,0.123713,20.9039,1.69149,0.347181,0.0,0.0
600,149.75,82.6851,94.052,140.419,99.2346,94.5155,0.00379335,0.123414,20.9042,1.67147,0.435836,0.0,0.0
602,150.25,82.6124,93.4281,139.724,99.2377,94.6879,0.00379996,0.123171,20.9045,1.66146,0.419829,0.0,0.0
604,150.75,81.9278,92.6779,137.404,99.2318,94.4333,0.00380289,0.122859,20.9049,1.64144,0.443377,0.0,0.0
606,151.25,82.0434,92.336,143.755,99.2061,94.5264,0.00380527,0.122503,20.9055,1.63143,0.432244,0.0,0.0
608,151.75,81.4422,91.7785,144.96,99.1815,93.9585,0.00380593,0.122214,20.9059,1.63143,0.483934,0.0,0.0
610,152.25,80.964,91.2724,144.644,99.1641,95.1959,0.00380531,0.121816,20.9063,1.62142,0.365328,0.0,0.0
612,152.75,81.1036,91.7598,141.582,99.1388,94.3626,0.00380927,0.121493,20.9066,1.62142,0.441689,0.0,0.0
614,153.25,79.7085,89.6519,141.588,99.1234,94.8934,0.00381648,0.121218,20.9068,1.60141,0.390119,0.0,0.0
616,153.75,79.6382,89.1297,146.337,99.1016,94.4773,0.00383249,0.120995,20.907,1.61142,0.427463,0.0,0.0
618,154.25,79.4117,89.385,140.925,99.0779,94.8605,0.00385462,0.120793,20.9076,1.61142,0.389107,0.0,0.0
620,154.75,79.6099,89.0659,142.885,99.0498,93.9596,0.00387255,0.12061,20.9081,1.62142,0.47193,0.0,0.0
622,155.25,79.3576,88.6366,141.982,99.0098,93.9199,0.00390171,0.120462,20.9085,1.63143,0.472108,0.0,0.0
624,155.75,79.109,88.1081,144.674,98.9781,94.8169,0.0039385,0.120219,20.9088,1.63143,0.384218,0.0,0.0
626,156.25,78.8964,88.0201,139.21,98.9481,94.2695,0.00396831,0.120021,20.909,1.65145,0.433293,0.0,0.0
628,156.75,78.3457,87.6608,141.601,98.9053,94.786,0.00400697,0.119752,20.9093,1.64144,0.380551,0.0,0.0
630,157.25,78.1087,86.637,139.44,98.859,95.0197,0.00403828,0.119534,20.9094,1.64144,0.354333,0.0,0.0
632,157.75,78.0832,86.6981,138.035,98.8266,93.7561,0.00406238,0.119343,20.9096,1.64144,0.471155,0.0,0.0
634,158.25,77.6304,86.2226,140.995,98.7791,94.356,0.00408074,0.119176,20.9097,1.62142,0.409797,0.0,0.0
636,158.75,77.5458,86.298,139.703,98.7332,94.3448,0.00408543,0.11904,20.9098,1.64144,0.406701,0.0,0.0
638,159.25,77.1728,85.8318,138.934,98.6837,93.7352,0.00408006,0.118821,20.9098,1.62142,0.460206,0.0,0.0
640,159.75,76.7322,84.6165,140.759,98.6414,93.7043,0.00406298,0.118643,20.9099,1.65145,0.459317,0.0,0.0
642,160.25,76.6533,85.0104,142.296,98.5848,93.8407,0.0040377,0.11842,20.9104,1.64144,0.441175,0.0,0.0
644,160.75,76.1673,83.4107,141.71,98.5413,93.423,0.00401149,0.118168,20.9107,1.60141,0.477121,0.0,0.0
646,161.25,76.2351,83.8911,142.561,98.4871,94.1949,0.00398511,0.11792,20.9111,1.5914,0.398596,0.0,0.0
648,161.75,75.8042,83.4759,139.739,98.4372,93.5776,0.00396374,0.117681,20.9113,1.57138,0.452886,0.0,0.0
650,162.25,75.3935,83.1894,142.062,98.3873,94.7207,0.00393626,0.117416,20.9115,1.56137,0.339742,0.0,0.0
652,162.75,75.3069,82.8415,142.262,98.3505,93.5304,0.00390484,0.117136,20.9117,1.53134,0.449513,0.0,0.0
654,163.25,75.1822,81.9314,142.948,98.2758,94.3433,0.00387304,0.116866,20.9118,1.53134,0.365306,0.0,0.0
656,163.75,75.1602,82.5435,140.714,98.2299,93.447,0.00384156,0.116609,20.9124,1.55136,0.446513,0.0,0.0
658,164.25,74.7296,81.9436,142.091,98.1741,93.7286,0.00381035,0.1164,20.9128,1.55136,0.414512,0.0,0.0
660,164.75,74.3989,81.6758,142.197,98.1282,92.8907,0.00377991,0.11619,20.9132,1.55136,0.490658,0.0,0.0
662,165.25,74.1243,81.0297,140.571,98.0712,93.279,0.00374701,0.11602,20.9134,1.56137,0.448152,0.0,0.0
664,165.75,73.875,80.8286,140.726,98.0328,93.7738,0.00371292,0.115883,20.9137,1.56137,0.397318,0.0,0.0
666,166.25,73.51,80.1847,140.772,97.9647,93.192,0.00368532,0.115689,20.9139,1.56137,0.446777,0.0,0.0
668,166.75,73.9895,80.5486,141.837,97.9192,93.4219,0.00366295,0.115532,20.914,1.55136,0.420585,0.0,0.0
670,167.25,73.0094,79.7367,142.616,97.8531,93.2283,0.00361349,0.115283,20.9138,1.54135,0.433097,0.0,0.0
672,167.75,73.3651,79.7213,139.472,97.8219,92.8254,0.00357342,0.11508,20.9134,1.52134,0.468983,0.0,0.0
674,168.25,73.1326,78.9811,140.089,97.7601,92.7748,0.00353011,0.114821,20.9131,1.52134,0.468215,0.0,0.0
676,168.75,72.5106,79.3578,141.778,97.7285,92.0512,0.00349504,0.114611,20.9129,1.50132,0.535359,0.0,0.0
678,169.25,72.7406,78.765,140.817,97.677,92.8215,0.00346663,0.114441,20.9127,1.53134,0.456103,0.0,0.0
680,169.75,72.1589,78.5601,140.385,97.6438,93.0924,0.00343036,0.114139,20.9125,1.52134,0.426997,0.0,0.0
682,170.25,72.3624,78.1286,141.73,97.5856,92.5928,0.00340099,0.113895,20.9123,1.51133,0.469795,0.0,0.0
684,170.75,72.0746,77.54,142.325,97.5512,92.5689,0.00337238,0.113642,20.9125,1.50132,0.468952,0.0,0.0
686,171.25,72.0416,77.4411,142.387,97.4914,92.7586,0.0033492,0.113438,20.9128,1.50132,0.44516,0.0,0.0
688,171.75,71.2749,77.0203,142.551,97.4732,92.4708,0.00333163,0.113265,20.913,1.51133,0.471288,0.0,0.0
690,172.25,71.2864,77.2093,139.288,97.4325,92.4789,0.00332414,0.113119,20.9131,1.50132,0.466762,0.0,0.0
692,172.75,71.7046,76.7506,140.17,97.4151,93.1132,0.00331134,0.113,20.9133,1.52134,0.404015,0.0,0.0
694,173.25,71.4198,76.5287,142.745,97.3755,92.6724,0.00328772,0.11289,20.9136,1.51133,0.442827,0.0,0.0
696,173.75,71.1826,76.0671,138.387,97.3553,93.4934,0.00326858,0.112801,20.9141,1.51133,0.362081,0.0,0.0
698,174.25,70.7465,75.6531,141.15,97.3399,93.1731,0.00323744,0.112701,20.9146,1.50132,0.391356,0.0,0.0
700,174.75,70.5779,76.0608,143.841,97.334,93.0873,0.00321221,0.112593,20.9149,1.51133,0.399049,0.0,0.0
702,175.25,70.0953,75.8861,143.289,97.3106,92.6833,0.00318696,0.112548,20.9151,1.50132,0.435818,0.0,0.0
704,175.75,69.8394,75.1963,143.684,97.309,93.5084,0.00316651,0.112319,20.9154,1.50132,0.356385,0.0,0.0
706,176.25,69.9843,75.0537,145.476,97.2964,92.2316,0.00315311,0.112134,20.9155,1.4813,0.478203,0.0,0.0
708,176.75,70.4014,74.4326,139.055,97.313,92.4542,0.00314511,0.111889,20.9161,1.50132,0.458175,0.0,0.0
710,177.25,69.1552,74.9095,138.702,97.2968,93.4451,0.00313863,0.111691,20.9166,1.51133,0.361319,0.0,0.0
712,177.75,69.303,74.2508,142.329,97.3252,92.1725,0.00313458,0.111516,20.917,1.50132,0.486592,0.0,0.0
714,178.25,69.3984,74.6351,143.722,97.3126,92.3491,0.0031313,0.111375,20.9173,1.4813,0.468311,0.0,0.0
716,178.75,69.9004,73.458,142.783,97.3522,92.2811,0.00312928,0.111203,20.9175,1.4813,0.478535,0.0,0.0
718,179.25,69.2032,73.6334,141.316,97.3577,92.6095,0.00312821,0.111012,20.9177,1.51133,0.447271,0.0,0.0
720,179.75,69.1792,73.1915,137.899,97.4064,93.17,0.00312013,0.110858,20.9179,1.49131,0.397761,0.0,0.0
722,180.25,68.5122,73.4485,141.094,97.4155,93.2202,0.00311358,0.110664,20.918,1.4813,0.393776,0.0,0.0
724,180.75,68.4075,73.2031,144.564,97.4649,92.7988,0.00310466,0.110508,20.9181,1.47129,0.438853,0.0,0.0
726,181.25,67.9895,72.5811,139.026,97.4812,92.6203,0.00309744,0.110338,20.9182,1.47129,0.457564,0.0,0.0
728,181.75,67.8669,71.8134,139.331,97.5461,92.8838,0.0030952,0.110162,20.9183,1.47129,0.438106,0.0,0.0
730,182.25,68.3226,72.5889,141.784,97.592,92.8691,0.00309339,0.110012,20.9183,1.47129,0.443729,0.0,0.0
732,182.75,67.8992,71.9237,136.416,97.6292,93.6707,0.00309192,0.109884,20.9184,1.46128,0.370257,0.0,0.0
734,183.25,67.6529,71.2257,144.571,97.6671,93.661,0.00310638,0.109788,20.9184,1.46128,0.374659,0.0,0.0
736,183.75,67.9463,71.7845,138.586,97.7178,92.4943,0.00311809,0.109716,20.9184,1.46128,0.491423,0.0,0.0
738,184.25,67.6913,71.9123,140.071,97.7629,93.0514,0.0031372,0.109644,20.9184,1.46128,0.441838,0.0,0.0
740,184.75,67.4828,71.085,142.61,97.8231,93.8638,0.00315269,0.109572,20.9189,1.46128,0.369577,0.0,0.0
742,185.25,66.494,70.4616,143.383,97.8674,92.8482,0.00316644,0.109485,20.9193,1.46128,0.470948,0.0,0.0
744,185.75,66.6681,70.1091,141.812,97.935,92.866,0.00317757,0.109389,20.9196,1.4813,0.475419,0.0,0.0
746,186.25,67.0075,70.7507,141.862,97.9802,93.6626,0.00317576,0.109312,20.9198,1.4813,0.403134,0.0,0.0
748,186.75,67.1522,70.6255,141.252,98.0363,92.7157,0.00317428,0.109192,20.92,1.47129,0.499155,0.0,0.0
750,187.25,66.9929,70.3769,144.772,98.087,94.1184,0.00314782,0.109043,20.9201,1.45127,0.369452,0.0,0.0
752,187.75,66.68,70.2343,144.15,98.1559,93.4049,0.00312638,0.108908,20.9203,1.44127,0.443803,0.0,0.0
754,188.25,66.5607,70.0798,139.863,98.2073,92.9212,0.00308624,0.108785,20.9204,1.44127,0.494932,0.0,0.0
756,188.75,66.5438,69.9485,138.714,98.239,94.1957,0.00303322,0.108665,20.9205,1.43126,0.375959,0.0,0.0
758,189.25,65.5448,69.111,141.073,98.2868,93.9527,0.00299027,0.108548,20.921,1.42125,0.403423,0.0,0.0
760,189.75,65.7293,69.2808,143.156,98.3319,94.0296,0.00295548,0.108389,20.9214,1.42125,0.400212,0.0,0.0
762,190.25,65.8115,69.7578,141.878,98.3747,93.7221,0.00289887,0.108202,20.9217,1.42125,0.433402,0.0,0.0
764,190.75,65.9176,69.4575,145.754,98.4135,94.8192,0.00282741,0.107969,20.9225,1.42125,0.332818,0.0,0.0
766,191.25,65.2974,67.9338,144.58,98.4681,93.5559,0.00277017,0.10778,20.9232,1.42125,0.457758,0.0,0.0
768,191.75,65.1876,68.2685,139.606,98.4847,94.7431,0.00272437,0.107627,20.9233,1.42125,0.346472,0.0,0.0
770,192.25,65.1354,68.2196,142.311,98.5306,94.3788,0.00269296,0.107503,20.9234,1.41124,0.385103,0.0,0.0
772,192.75,65.2943,68.5691,143.248,98.5425,93.785,0.00267263,0.107321,20.9239,1.41124,0.442636,0.0,0.0
774,193.25,65.4117,68.374,141.454,98.5729,93.8519,0.00265616,0.107174,20.9243,1.40123,0.439029,0.0,0.0
776,193.75,65.1478,68.3655,141.804,98.5789,92.7087,0.00265002,0.107026,20.9246,1.41124,0.549191,0.0,0.0
778,194.25,64.8447,68.5114,141.52,98.6038,93.5474,0.00264126,0.106881,20.9249,1.38121,0.470893,0.0,0.0
780,194.75,64.4792,68.3647,144.415,98.5951,93.3813,0.00263076,0.106734,20.9251,1.39122,0.486002,0.0,0.0
782,195.25,64.318,67.611,145.52,98.6272,93.5061,0.00262224,0.10659,20.9252,1.38121,0.476965,0.0,0.0
784,195.75,64.4646,67.5331,140.452,98.6105,94.118,0.00259615,0.106473,20.9254,1.39122,0.417107,0.0,0.0
786,196.25,64.72,67.5169,146.265,98.6228,94.0493,0.00257502,0.106283,20.9255,1.40123,0.424758,0.0,0.0
788,196.75,64.3709,67.1929,143.826,98.6078,94.0419,0.00255348,0.106129,20.9256,1.40123,0.424092,0.0,0.0
790,197.25,64.3852,66.7377,143.711,98.6113,94.4819,0.00253206,0.105936,20.9261,1.39122,0.382658,0.0,0.0
792,197.75,64.5644,67.0958,146.51,98.5955,94.2672,0.00252165,0.10578,20.9265,1.39122,0.401581,0.0,0.0
794,198.25,64.5299,66.9909,144.944,98.588,93.9554,0.00251947,0.10564,20.9268,1.41124,0.430531,0.0,0.0
796,198.75,63.8078,66.3293,142.977,98.5642,94.4279,0.0025177,0.105527,20.9271,1.38121,0.383508,0.0,0.0
798,199.25,63.6915,66.511,144.835,98.5472,93.5961,0.00253907,0.105435,20.9273,1.38121,0.461105,0.0,0.0
800,199.75,64.0397,66.8385,144.245,98.5116,94.4043,0.00255638,0.105361,20.9275,1.3712,0.380962,0.0,0.0
802,200.25,63.5812,66.1778,144.651,98.4863,94.1733,0.00258361,0.105301,20.9277,1.39122,0.400579,0.0,0.0
804,200.75,63.4949,66.1135,138.489,98.453,94.1142,0.00260567,0.105225,20.9278,1.38121,0.403176,0.0,0.0
806,201.25,63.5566,66.2427,145.096,98.4475,94.8574,0.00262474,0.105163,20.9279,1.38121,0.332303,0.0,0.0
808,201.75,63.5516,65.8561,146.157,98.4198,93.7734,0.00264018,0.105018,20.9279,1.3612,0.4326,0.0,0.0
810,202.25,63.4365,65.7118,141.44,98.4087,93.0858,0.00263708,0.104901,20.928,1.3612,0.49743,0.0,0.0
812,202.75,63.3849,65.5267,145.225,98.3767,92.983,0.00263457,0.104727,20.928,1.3612,0.504397,0.0,0.0
814,203.25,63.501,65.6339,143,98.3418,94.0798,0.00263254,0.104516,20.9281,1.3612,0.396335,0.0,0.0
816,203.75,62.7324,65.5379,141.487,98.3066,93.4084,0.00261769,0.104302,20.9283,1.34118,0.457201,0.0,0.0
818,204.25,63.2373,65.3908,142.936,98.294,94.419,0.00260566,0.10409,20.9288,1.33117,0.359786,0.0,0.0
820,204.75,62.9172,64.6614,144.44,98.2516,93.7159,0.00259907,0.103875,20.9291,1.31115,0.422793,0.0,0.0
822,205.25,62.7905,65.4022,138.856,98.2429,93.4976,0.00259658,0.103663,20.9294,1.33117,0.442859,0.0,0.0
824,205.75,63.1087,64.9849,142.777,98.2089,93.5768,0.00259393,0.103491,20.9296,1.34118,0.432187,0.0,0.0
826,206.25,62.2258,64.4562,143.856,98.2065,93.824,0.00259122,0.103256,20.9302,1.35119,0.408367,0.0,0.0
828,206.75,62.5201,64.6712,139.78,98.1847,94.7172,0.00258333,0.103066,20.9307,1.34118,0.32163,0.0,0.0
830,207.25,62.1839,64.73,141.936,98.1784,94.0048,0.00257183,0.102877,20.9311,1.32116,0.388587,0.0,0.0
832,207.75,62.4157,64.5551,144.748,98.1626,94.5519,0.00255368,0.102691,20.9314,1.33117,0.335241,0.0,0.0
834,208.25,61.5825,64.725,139.743,98.1594,94.5847,0.00253102,0.102513,20.9317,1.32116,0.331846,0.0,0.0
836,208.75,62.0101,64.1218,141.019,98.1855,94.2339,0.00250572,0.102342,20.9319,1.32116,0.367462,0.0,0.0
838,209.25,62.4189,64.2661,146.168,98.2999,92.7787,0.00247898,0.102154,20.9325,1.30114,0.517096,0.0,0.0
840,209.75,61.6239,64.5036,140.656,98.3893,94.7423,0.00245733,0.101957,20.933,1.29113,0.33788,0.0,0.0
842,210.25,61.7331,63.9712,141.269,98.5001,94.4545,0.00243411,0.101768,20.9334,1.29113,0.375163,0.0,0.0
844,210.75,62.2374,63.7749,140.453,98.5662,94.1489,0.00241019,0.10159,20.9337,1.30114,0.410148,0.0,0.0
846,211.25,61.5779,63.339,143.855,98.6549,94.4862,0.00239018,0.101431,20.934,1.29113,0.386203,0.0,0.0
848,211.75,61.9227,63.6366,141.401,98.7055,94.1064,0.00237341,0.10129,20.9342,1.27112,0.426819,0.0,0.0
850,212.25,61.4926,63.6428,145.77,98.7842,94.3008,0.00235983,0.101175,20.9343,1.28113,0.415502,0.0,0.0
852,212.75,61.6982,63.6823,140.212,98.8436,94.2598,0.00233621,0.101028,20.9345,1.30114,0.42476,0.0,0.0
854,213.25,61.2608,63.4081,143.195,98.8943,93.9226,0.00230573,0.100909,20.9347,1.30114,0.461406,0.0,0.0
856,213.75,61.4874,62.8123,144.058,98.9255,94.4557,0.00228105,0.100791,20.9349,1.30114,0.413602,0.0,0.0
858,214.25,60.9051,63.3787,141.962,98.9623,94.3633,0.00222514,0.100677,20.935,1.33117,0.425677,0.0,0.0
860,214.75,61.2038,63.2484,141.181,98.9817,94.7076,0.00217986,0.100584,20.9352,1.31115,0.39486,0.0,0.0
862,215.25,61.559,63.1835,141.645,99.007,96.2273,0.00210252,0.100509,20.9353,1.30114,0.254741,0.0,0.0
864,215.75,60.8165,62.832,140.179,99.0066,94.1393,0.00203988,0.10042,20.9353,1.31115,0.450948,0.0,0.0
866,216.25,60.3634,61.8574,143.983,99.0114,93.6556,0.00197845,0.100349,20.9354,1.30114,0.497455,0.0,0.0
868,216.75,60.5201,62.2916,143.062,98.9873,95.0417,0.00191908,0.100251,20.9355,1.30114,0.363853,0.0,0.0
870,217.25,60.8535,62.4004,143.963,98.9861,94.1466,0.00189376,0.100171,20.9355,1.31115,0.448391,0.0,0.0
872,217.75,60.9299,62.468,143.135,98.9477,94.5318,0.00184482,0.100052,20.9355,1.30114,0.4084,0.0,0.0
874,218.25,60.7042,62.3364,146.397,98.922,94.6531,0.00180008,0.099956,20.9356,1.30114,0.394604,0.0,0.0
876,218.75,60.1887,62.0283,142.807,98.8673,93.5498,0.00176636,0.0998496,20.9356,1.28113,0.494548,0.0,0.0
878,219.25,60.9209,61.873,144.603,98.8345,94.4924,0.00174131,0.0997377,20.9356,1.28113,0.401893,0.0,0.0
880,219.75,60.2669,61.535,142.756,98.7589,94.5967,0.00172165,0.099647,20.9356,1.26111,0.385181,0.0,0.0
882,220.25,60.0123,61.5006,143.848,98.7011,94.3266,0.00170629,0.0995514,20.9361,1.24109,0.405518,0.0,0.0
884,220.75,59.9681,61.7076,139.913,98.6208,94.6925,0.00169384,0.0993878,20.9364,1.26111,0.363608,0.0,0.0
886,221.25,60.6578,61.6261,141.199,98.5409,93.9156,0.00167302,0.0991983,20.9367,1.27112,0.430047,0.0,0.0
888,221.75,60.4744,61.7233,145.162,98.4712,93.7004,0.00166414,0.0989935,20.9368,1.28113,0.444241,0.0,0.0
890,222.25,59.9751,61.7752,140.345,98.4962,94.1037,,0.0988489,,1.30114,0.408086,0.0,0.0
892,222.75,60.2695,61.4172,139.219,98.5211,94.4167,,0.0987511,,1.29113,0.380654,0.0,0.0
894,223.25,59.8885,61.8238,141.076,98.5595,94.3185,,0.0986718,,1.29113,0.393439,0.0,0.0
896,223.75,60.0668,61.3526,141.931,98.6074,93.9658,,0.09854,,1.28113,0.431299,0.0,0.0
898,224.25,59.4698,60.1708,143.558,98.637,94.288,,0.0984332,,1.27112,0.403371,0.0,0.0
900,224.75,59.0715,60.3105,147.144,98.6849,94.0215,,0.0983377,,1.24109,0.433037,0.0,0.0
902,225.25,59.5197,61.348,146.259,98.7261,94.74,,,,1.2511,0.368663,0.0,0.0
904,225.75,59.7191,60.4966,143.01,98.7744,93.7955,,,,1.2511,0.462667,0.0,0.0
906,226.25,59.8367,61.1329,141.815,98.8151,95.1479,,,,1.24109,0.338291,0.0,0.0
908,226.75,59.5952,60.8474,144.257,98.8701,94.2826,,,,1.23108,0.424996,0.0,0.0
910,227.25,59.2189,60.3594,143.413,98.9243,94.1729,,,,1.23108,0.440316,0.0,0.0
912,227.75,58.4504,60.2246,143.068,98.973,94.0582,,,,1.22107,0.455621,0.0,0.0
914,228.25,59.4012,60.824,142.376,99.0043,93.7267,,,,1.20105,0.490025,0.0,0.0
916,228.75,59.1858,60.7895,140.756,99.0502,96.0222,,,,1.22107,0.277728,0.0,0.0
918,229.25,58.7794,60.8154,147.105,99.0953,95.6088,,,,1.22107,0.320393,0.0,0.0
920,229.75,59.0703,59.9804,146.265,99.1392,94.4487,,,,1.21106,0.433562,0.0,0.0
922,230.25,59.2839,60.1865,142.947,99.1705,94.7191,,,,1.20105,0.410807,0.0,0.0
924,230.75,59.2742,60.0665,142.156,99.2021,95.275,,,,1.20105,0.361315,0.0,0.0
926,231.25,58.7015,60.5759,142.29,99.2124,95.8259,,,,1.20105,0.310669,0.0,0.0
928,231.75,58.8942,60.3746,144.343,99.2441,94.7072,,,,1.19105,0.418575,0.0,0.0
930,232.25,59.146,60.0927,142.34,99.2512,94.8497,,,,1.21106,0.405762,0.0,0.0
932,232.75,59.0313,59.909,143.705,99.2702,94.818,,,,1.19105,0.410462,0.0,0.0
933,233,58.9432,60.0444,144.449,99.2591,94.4557,,,,1.19105,0.443716,0.0,0.0