File: 01_Data/PETG/Cone/PET-G_Cone_HF75Scan_220215_R3.csv
Names,Time,Stack TC,Smoke TC,Exh Press,Smoke Comp,Smoke Meas,CO Meter,CO2 Meter,O2 Meter,Sample Mass,Ext Coeff,Start Test,Flame Verif
Chan Gain,,500,500,1,1,1,1,1,1,1,1,1.0,1.0
Offset,,0,0,0.140898,0,0,0,0,0,0,0,0.0,0.0
Gain,,1,1,25.011,12.9668,12.6588,1,1,1,1.00088,1.01977,1.0,1.0
Units,sec,C,C,Pa,%,%,%,%,%,g,/m,,
Baseline,,41.9741,44.4631,146.625,98.066,96.0541,-0.00235871,0.0717387,20.961,-873.267,0.185554,,
2,0.25,39.3225,41.5722,148.779,98.6283,96.5711,-0.0024473,0.0807106,20.9534,29.3958,0.188556,0.0,0.0
4,0.75,39.6177,41.504,143.696,98.6287,97.1348,-0.00243661,0.0809034,20.953,29.0956,0.136533,0.0,0.0
6,1.25,39.7226,41.7685,148.04,98.6497,96.5286,-0.00243387,0.0812222,20.9524,29.1856,0.194431,0.0,0.0
8,1.75,40.0257,42.202,145.132,98.6552,97.6235,-0.00243164,0.0816269,20.9518,29.3258,0.0940459,0.0,0.0
10,2.25,39.3608,41.4245,148.717,98.6746,97.0077,-0.0024476,0.0821174,20.951,29.2557,0.152409,0.0,0.0
12,2.75,39.0538,41.8186,146.463,98.6746,97.0115,-0.00246052,0.0826613,20.9502,29.1256,0.152053,0.0,0.0
14,3.25,39.6671,41.7496,146.783,98.7,96.733,-0.00248158,0.0831018,20.9493,29.2257,0.180068,0.0,0.0
16,3.75,40.0846,41.4049,147.733,98.6948,97.4709,-0.00249558,0.0837009,20.9488,29.2557,0.111626,0.0,0.0
18,4.25,39.6287,41.7143,148.067,98.7118,96.5484,-0.00253072,0.0841862,20.948,29.1856,0.198236,0.0,0.0
20,4.75,40.1262,41.9952,146.032,98.7138,97.054,-0.00256928,0.084558,20.9473,29.1856,0.151686,0.0,0.0
22,5.25,39.6837,41.8077,145.673,98.7249,97.355,-0.00260176,0.08484,20.9468,29.2157,0.124996,0.0,0.0
24,5.75,39.627,41.9475,147.901,98.7217,97.8043,-0.00262919,0.085033,20.9463,29.1856,0.0835213,0.0,0.0
26,6.25,39.6837,41.9787,142.529,98.7328,96.1837,-0.00264643,0.0851575,20.946,29.1656,0.233989,0.0,0.0
28,6.75,40.0002,41.4976,149.231,98.7383,97.0231,-0.0026559,0.0852105,20.9459,29.2057,0.156759,0.0,0.0
30,7.25,39.9837,41.9422,151.348,98.7431,97.8363,-0.00266358,0.085234,20.9461,29.2157,0.082525,0.0,0.0
32,7.75,40.2387,41.3907,144.996,98.7372,97.3847,-0.00266979,0.085253,20.9462,29.1756,0.123374,0.0,0.0
34,8.25,39.6437,41.9107,151.267,98.7443,96.9088,-0.0026476,0.0852011,20.9463,29.1656,0.167845,0.0,0.0
36,8.75,40.1855,42.0679,147.926,98.7399,96.8709,-0.00262963,0.0851591,20.9464,29.1756,0.170946,0.0,0.0
38,9.25,39.6625,41.8193,149.547,98.7534,97.5451,-0.00260697,0.0849771,20.9465,29.1456,0.11013,0.0,0.0
40,9.75,39.8153,42.3064,145.373,98.7344,96.6527,-0.00258133,0.0848297,20.9465,29.1356,0.190621,0.0,0.0
42,10.25,40.0095,41.7865,148.381,98.7427,96.7635,-0.00255931,0.0846041,20.9466,29.1856,0.181119,0.0,0.0
44,10.75,40.0703,42.3037,143.843,98.7233,97.1572,-0.00254036,0.0843259,20.9466,29.2057,0.143044,0.0,0.0
46,11.25,39.9318,42.0688,150.537,98.7352,97.2449,-0.00252619,0.0841005,20.9466,29.1956,0.13605,0.0,0.0
48,11.75,40.1479,42.4272,146.425,98.7166,97.4917,-0.00251471,0.0837695,20.9471,29.1156,0.111685,0.0,0.0
50,12.25,40.4257,42.4058,142.711,98.7194,97.5489,-0.00251015,0.0833676,20.9474,29.1356,0.106692,0.0,0.0
52,12.75,39.9658,41.9586,148.091,98.6992,97.0262,-0.00250645,0.0829785,20.9477,29.1656,0.152924,0.0,0.0
54,13.25,40.4006,42.7389,145.282,98.7004,96.5831,-0.00250346,0.0826061,20.948,29.1756,0.193976,0.0,0.0
56,13.75,40.036,42.3185,150.35,98.6814,97.0722,-0.00249045,0.0822691,20.9482,29.1756,0.147071,0.0,0.0
58,14.25,40.2043,42.543,149.192,98.6893,97.9066,-0.00247037,0.0819643,20.9483,29.1756,0.071222,0.0,0.0
60,14.75,39.9333,42.0078,149.405,98.6501,95.8221,-0.00245411,0.0817104,20.9485,29.1756,0.260186,0.0,0.0
62,15.25,39.7563,42.1033,146.834,98.6461,97.693,-0.00239241,0.0814983,20.9486,29.1956,0.0868517,0.0,0.0
64,15.75,39.981,42.3989,145.902,98.6291,96.9439,-0.00234243,0.0813266,20.9486,29.2057,0.154162,0.0,0.0
66,16.25,40.3425,42.6036,145.412,98.62,97.8336,-0.00227591,0.0812299,20.9487,29.2257,0.0716166,0.0,0.0
68,16.75,40.4979,42.5165,144.383,98.5939,97.812,-0.00222202,0.0811897,20.9488,29.2057,0.0712252,0.0,0.0
70,17.25,40.0838,41.8919,148.375,98.6082,96.2208,-0.0021709,0.0811571,20.9488,29.1756,0.21924,0.0,0.0
72,17.75,40.4522,42.5244,148.514,98.5682,97.0795,-0.00212276,0.0812919,20.9484,29.1556,0.13613,0.0,0.0
74,18.25,39.878,42.6782,146.4,98.5627,97.6196,-0.00208377,0.0814011,20.9481,29.1456,0.0860005,0.0,0.0
76,18.75,40.6908,42.2662,153.02,98.5342,96.3405,-0.00205337,0.0815462,20.9478,29.1556,0.201398,0.0,0.0
78,19.25,40.2057,42.6038,145.202,98.5215,97.1348,-0.00202875,0.0817145,20.9476,29.1756,0.126802,0.0,0.0
80,19.75,40.2916,42.3358,147.708,98.4902,97.3457,-0.00200643,0.0819146,20.9475,29.1556,0.104559,0.0,0.0
82,20.25,39.2086,42.0746,146.923,98.4859,97.0228,-0.00198836,0.0821339,20.9473,29.1756,0.133891,0.0,0.0
84,20.75,39.9295,41.7819,142.968,98.4542,96.4073,-0.00196899,0.0823682,20.947,29.1656,0.187935,0.0,0.0
86,21.25,40.0297,42.4013,145.569,98.4463,95.9488,-0.00195329,0.0826089,20.9465,29.1556,0.229867,0.0,0.0
88,21.75,40.3463,42.2863,145.38,98.4135,96.7322,-0.00194058,0.0828039,20.9461,29.1256,0.154136,0.0,0.0
90,22.25,40.2367,42.3479,149.082,98.4055,95.7888,-0.00193265,0.0830255,20.9458,29.1256,0.241085,0.0,0.0
92,22.75,40.2078,42.7336,142.893,98.3782,95.2824,-0.00193052,0.0832623,20.9456,29.1356,0.286024,0.0,0.0
94,23.25,40.3148,42.7453,147.132,98.3533,97.1869,-0.00193634,0.0835037,20.9453,29.1356,0.106717,0.0,0.0
96,23.75,40.0836,42.6275,146.004,98.3224,95.8831,-0.00194493,0.0837438,20.9451,29.1156,0.22473,0.0,0.0
98,24.25,39.9458,42.568,145.354,98.3236,96.4576,-0.00194842,0.0839454,20.945,29.1156,0.171404,0.0,0.0
100,24.75,40.0457,42.0287,150.129,98.2793,95.8812,-0.00194946,0.0841151,20.9449,29.1156,0.220984,0.0,0.0
102,25.25,40.3706,42.3611,145.102,98.2667,95.1259,-0.00194502,0.0842757,20.9448,29.1156,0.290572,0.0,0.0
104,25.75,40.1246,42.6506,145.923,98.2461,95.3821,-0.00193744,0.0842965,20.9448,29.1256,0.264646,0.0,0.0
106,26.25,40.3181,43.1587,143.702,98.2259,95.9673,-0.00190525,0.0843322,20.9445,29.1556,0.208087,0.0,0.0
108,26.75,40.3703,42.5926,142.826,98.1824,95.637,-0.00187918,0.08422,20.944,29.1556,0.234963,0.0,0.0
110,27.25,40.5822,42.7953,145.796,98.1788,95.4895,-0.00181426,0.0841898,20.9435,29.1456,0.248452,0.0,0.0
112,27.75,40.3155,42.9689,147.741,98.1329,94.9919,-0.00176168,0.0844423,20.9428,29.0956,0.291003,0.0,0.0
114,28.25,40.3192,42.6139,148.652,98.1143,94.0937,-0.00165679,0.0845102,20.9422,29.1156,0.374292,0.0,0.0
116,28.75,39.9905,42.6379,147.662,98.0803,94.589,-0.00151576,0.0866091,20.9379,29.0956,0.32423,0.0,0.0
118,29.25,40.2672,42.8508,150.365,98.0637,93.1673,-0.00140152,0.0883091,20.9344,29.0956,0.45818,0.0,1.0
120,29.75,40.6343,43.4088,143.803,98.0336,94.9471,-0.00118124,0.0953949,20.9316,29.0855,0.286165,0.0,1.0
122,30.25,40.5674,43.2307,142.44,98.0166,92.9394,-0.000887837,0.101134,20.9215,29.0555,0.475794,0.0,1.0
124,30.75,41.1285,43.2887,143.477,97.9908,88.0324,-0.000495354,0.111514,20.9134,28.9955,0.958666,0.0,1.0
126,31.25,40.8376,43.3681,142.458,97.9687,83.6651,-3.80978e-05,0.125079,20.8921,28.9855,1.41181,0.0,1.0
128,31.75,41.0179,43.704,137.319,97.9362,79.0853,0.000508078,0.136066,20.8633,28.9955,1.91242,0.0,1.0
130,32.25,40.6811,43.8482,138.449,97.9271,74.8196,0.0011087,0.153763,20.8295,28.9254,2.40759,0.0,1.0
132,32.75,41.0727,43.6376,139.608,97.8741,69.9732,0.00195547,0.176014,20.7901,29.0055,3.00178,0.0,1.0
134,33.25,41.0345,43.8426,135.764,97.8698,69.1562,0.00264136,0.202193,20.7474,28.8253,3.10645,0.0,1.0
136,33.75,41.4436,43.9927,133.5,97.8409,67.9377,0.0035903,0.230739,20.7041,28.7853,3.26282,0.0,0.0
138,34.25,41.653,44.6008,130.965,97.8345,65.5993,0.00435894,0.260586,20.6613,28.7553,3.57556,0.0,0.0
140,34.75,42.0349,45.1642,132.952,97.791,64.0131,0.00498154,0.290813,20.6266,28.7152,3.79054,0.0,0.0
142,35.25,42.6305,45.6902,126.525,97.7859,62.6344,0.00603931,0.3216,20.5986,28.6452,3.98484,0.0,0.0
144,35.75,42.665,46.7126,128.595,97.7534,62.7522,0.00689611,0.352209,20.5672,28.5251,3.96506,0.0,0.0
146,36.25,43.7714,46.8936,127.444,97.7376,61.5936,0.00759011,0.382347,20.534,28.485,4.13031,0.0,0.0
148,36.75,43.5699,48.1284,130.103,97.7174,58.0592,0.00869604,0.41157,20.502,28.415,4.65709,0.0,0.0
150,37.25,44.0238,48.4714,134.105,97.7032,60.8167,0.00959185,0.44135,20.4715,28.3549,4.24071,0.0,0.0
152,37.75,44.8915,48.9726,125.185,97.6814,62.2909,0.0105112,0.470971,20.4468,28.3049,4.02447,0.0,0.0
154,38.25,45.0614,50.1116,128.968,97.6604,61.803,0.0114301,0.494964,20.4129,28.2048,4.09289,0.0,0.0
156,38.75,45.7847,51.0142,122.294,97.6454,60.6394,0.0123639,0.514398,20.3855,28.1147,4.26154,0.0,0.0
158,39.25,46.5175,51.2351,124.869,97.6351,57.8711,0.0132907,0.539522,20.3434,28.0146,4.67859,0.0,0.0
160,39.75,46.5648,52.3626,129.313,97.6038,55.6988,0.0142648,0.568315,20.3093,27.9045,5.01796,0.0,0.0
162,40.25,47.3122,53.1634,126.811,97.592,52.6596,0.0152549,0.59766,20.2584,27.8445,5.51879,0.0,0.0
164,40.75,48.1562,53.4203,127.022,97.5821,52.0415,0.0160568,0.626849,20.2172,27.7243,5.6235,0.0,0.0
166,41.25,48.3351,54.6719,123.594,97.5678,49.9369,0.0172554,0.657761,20.174,27.6643,5.99148,0.0,0.0
168,41.75,48.9226,55.4074,129.831,97.5591,51.622,0.0182262,0.689341,20.1302,27.5442,5.6938,0.0,0.0
170,42.25,49.4375,56.4666,119.77,97.5492,51.0255,0.0190126,0.722622,20.0947,27.4441,5.79686,0.0,0.0
172,42.75,50.7788,56.7048,123.627,97.5314,50.0725,0.0203685,0.75651,20.0558,27.334,5.96388,0.0,0.0
174,43.25,51.3512,57.9655,111.143,97.5148,50.7176,0.0214667,0.783959,20.015,27.2339,5.84784,0.0,0.0
176,43.75,51.7277,59.0733,117.845,97.5112,49.3783,0.0229893,0.828838,19.9672,27.1238,6.08692,0.0,0.0
178,44.25,52.8169,60.4585,112.441,97.5002,48.0567,0.0242226,0.865191,19.9152,26.9837,6.32858,0.0,0.0
180,44.75,53.3067,61.3316,115.581,97.4966,45.6012,0.025835,0.90562,19.8615,26.8736,6.7974,0.0,0.0
182,45.25,54.5267,62.8308,117.453,97.4839,44.3519,0.027141,0.948252,19.8075,26.6934,7.04474,0.0,0.0
184,45.75,55.2078,64.2805,112.714,97.4843,40.2191,0.0288437,0.982785,19.7472,26.6534,7.91976,0.0,0.0
186,46.25,56.0871,65.2624,113.024,97.4641,41.6218,0.0302229,1.03315,19.6834,26.4432,7.61124,0.0,0.0
188,46.75,57.1175,66.4085,112.552,97.476,40.8808,0.0320389,1.07394,19.6174,26.3131,7.77301,0.0,0.0
190,47.25,58.2114,67.5506,111.979,97.4669,43.7295,0.0335098,1.12671,19.5511,26.133,7.16959,0.0,0.0
192,47.75,58.9877,69.1918,111.457,97.4709,41.4518,0.035484,1.16945,19.4858,26.0028,7.64846,0.0,0.0
194,48.25,59.6145,70.8111,110.491,97.4626,37.691,0.0370831,1.22325,19.4224,25.7927,8.49849,0.0,0.0
196,48.75,60.8424,71.4628,103.213,97.4661,38.583,0.0389847,1.26682,19.3711,25.6325,8.28958,0.0,0.0
198,49.25,61.712,73.4201,111.152,97.4586,36.996,0.0410707,1.31965,19.3088,25.4924,8.66461,0.0,0.0
200,49.75,62.5214,74.7793,109.036,97.4748,36.0511,0.0432516,1.36244,19.2583,25.3823,8.89754,0.0,0.0
202,50.25,63.843,76.423,102.725,97.4638,33.5625,0.0454602,1.41495,19.2059,25.1221,9.53638,0.0,0.0
204,50.75,64.4388,78.256,103.752,97.4729,33.5397,0.0472492,1.45747,19.1529,24.9519,9.54329,0.0,0.0
206,51.25,65.6063,79.4945,104.044,97.4641,34.2655,0.0494831,1.50345,19.11,24.7417,9.35096,0.0,0.0
208,51.75,67.1994,80.1394,107.496,97.4823,34.541,0.0519988,1.55106,19.0529,24.5716,9.28101,0.0,0.0
210,52.25,67.8267,82.0961,99.4372,97.4772,32.7238,0.0546793,1.60142,19.0065,24.3714,9.76399,0.0,0.0
212,52.75,69.415,83.2303,109.441,97.4962,31.338,0.057429,1.65282,18.9349,24.2013,10.1528,0.0,0.0
214,53.25,70.14,84.9882,107.434,97.5041,31.2569,0.0604599,1.69445,18.8768,24.0311,10.1767,0.0,0.0
216,53.75,70.6402,86.6172,102.525,97.5081,31.5509,0.0636382,1.75847,18.7927,23.7809,10.0933,0.0,0.0
218,54.25,72.3057,88.0098,107.411,97.5025,28.9885,0.0672414,1.81033,18.6997,23.5207,10.8505,0.0,0.0
220,54.75,73.1265,89.9105,103.638,97.5275,28.018,0.0710859,1.87257,18.6021,23.3105,11.1574,0.0,0.0
222,55.25,74.3202,91.7348,101.171,97.5247,29.2369,0.0741999,1.9412,18.5231,23.0302,10.7762,0.0,0.0
224,55.75,75.7847,93.1065,99.4464,97.5413,30.1756,0.0804676,2.02016,18.4313,22.8701,10.495,0.0,0.0
226,56.25,76.3615,94.9298,94.5439,97.5504,31.2372,0.0855444,2.10515,18.332,22.5798,10.1866,0.0,0.0
228,56.75,77.7065,97.0089,100.295,97.5726,30.696,0.0930442,2.20485,18.2516,22.3596,10.345,0.0,0.0
230,57.25,80.1001,99.243,93.5486,97.5654,26.8467,0.099119,2.31337,18.116,21.9893,11.5429,0.0,0.0
232,57.75,81.4615,102.578,92.009,97.5935,26.827,0.108383,2.44185,18.0062,21.7491,11.552,0.0,0.0
234,58.25,83.2713,105.305,80.9996,97.5967,27.2153,0.115887,2.58244,17.9173,21.4388,11.4238,0.0,0.0
236,58.75,85.4308,108.097,68.9551,97.6339,24.3673,0.121965,2.69632,17.7705,21.0485,12.416,0.0,0.0
238,59.25,86.9051,110.809,85.4235,97.6351,25.036,0.130572,2.83255,17.6516,20.7983,12.1739,0.0,0.0
240,59.75,88.6844,114.03,76.9809,97.6671,24.4334,0.140859,2.9825,17.4571,20.438,12.3948,0.0,0.0
242,60.25,90.6073,116.542,81.4743,97.6683,25.4482,0.151697,3.14554,17.2996,20.0576,12.0309,0.0,0.0
244,60.75,92.6558,119.725,75.6215,97.6917,23.7284,0.16273,3.31504,17.123,19.8574,12.659,0.0,0.0
246,61.25,94.6359,123.75,75.1147,97.7032,21.6762,0.171667,3.45234,16.9358,19.347,13.4691,0.0,0.0
248,61.75,97.3695,127.61,80.3439,97.7289,21.1567,0.184908,3.64387,16.7145,18.8966,13.6885,0.0,0.0
250,62.25,99.7293,130.961,83.1741,97.7467,22.3272,0.195633,3.8713,16.4725,18.4762,13.2085,0.0,0.0
252,62.75,102.041,134.795,62.9542,97.7597,21.1798,0.20432,4.11268,16.2764,18.2761,13.6816,0.0,0.0
254,63.25,104.308,138.717,66.2225,97.7823,25.748,0.210589,4.35965,16.1928,17.7956,11.9365,0.0,0.0
256,63.75,106.756,143.332,65.1799,97.8064,24.282,0.221309,4.55969,15.8966,17.3953,12.4632,0.0,0.0
258,64.25,108.952,147.363,70.3557,97.812,21.5449,0.232562,4.83651,15.6567,16.8948,13.5335,0.0,0.0
260,64.75,111.586,152.339,68.2788,97.848,20.3017,0.241678,5.06073,15.3311,16.4945,14.0684,0.0,0.0
262,65.25,115.159,156.971,63.6694,97.869,31.5331,0.250524,5.24235,15.0086,16.0041,10.1314,0.0,0.0
264,65.75,117.536,161.659,66.7423,97.8891,31.6092,0.25769,5.50738,14.6945,15.7038,10.1117,0.0,0.0
266,66.25,119.979,166.269,58.3295,97.9137,25.1763,0.264369,5.62037,14.4054,15.2134,12.1494,0.0,0.0
268,66.75,123.605,171.556,53.4606,97.9509,33.5512,0.26978,5.84217,14.1401,14.8731,9.58396,0.0,0.0
270,67.25,126.337,176.3,80.379,97.96,23.1068,0.274852,6.04756,13.9033,14.4127,12.9209,0.0,0.0
272,67.75,129.093,181.274,55.6283,97.9762,27.5962,0.278961,6.22905,13.6917,13.9723,11.3342,0.0,0.0
274,68.25,131.538,184.906,65.5165,98.0114,21.2301,0.282638,6.38965,13.4979,13.4318,13.6834,0.0,0.0
276,68.75,133.57,188.941,61.1659,98.0328,26.1695,0.28593,6.53854,13.3205,13.1415,11.8142,0.0,0.0
278,69.25,135.528,192.969,86.199,98.07,26.0134,0.288597,6.67607,13.1769,12.6611,11.8711,0.0,0.0
280,69.75,138.072,197.219,76.8244,98.0858,27.0986,0.291486,6.80687,13.0398,12.0606,11.5069,0.0,0.0
282,70.25,140.437,201.61,71.222,98.1131,22.1139,0.293826,6.93027,12.91,11.7803,13.3278,0.0,0.0
284,70.75,143.434,205.244,75.0246,98.1384,25.7697,0.296027,7.04413,12.799,11.1798,11.9615,0.0,0.0
286,71.25,145.065,210.185,84.7213,98.1634,28.5627,0.297811,7.14887,12.7038,10.9196,11.0433,0.0,0.0
288,71.75,147.75,214.123,69.5894,98.1867,25.0585,0.299436,7.23371,12.6267,10.4392,12.2163,0.0,0.0
290,72.25,150.149,218.128,61.7856,98.2279,24.4682,0.300915,7.30613,12.5642,9.91871,12.4333,0.0,0.0
292,72.75,151.824,221.969,70.4564,98.2496,31.3342,0.302113,7.36479,12.5136,9.37824,10.2228,0.0,0.0
294,73.25,154.269,225.365,70.8434,98.2849,23.0063,0.303145,7.40478,12.4726,9.06796,12.9895,0.0,0.0
296,73.75,156.809,227.988,69.2589,98.3038,24.5535,0.303981,7.43039,12.4394,8.61757,12.409,0.0,0.0
298,74.25,158.675,231.715,60.6384,98.3438,22.6308,0.304263,7.43268,12.4316,8.23723,13.1421,0.0,0.0
300,74.75,160.439,235.195,54.92,98.3719,26.1162,0.304491,7.41793,12.4426,7.77683,11.8633,0.0,0.0
302,75.25,162.008,237.999,65.2089,98.4079,21.0129,0.303814,7.40597,12.5246,7.48658,13.8114,0.0,0.0
304,75.75,164.272,239.946,61.7124,98.4392,22.311,0.303265,7.34027,12.5911,7.01616,13.2781,0.0,0.0
306,76.25,165.434,243.132,82.2445,98.4637,27.4853,0.301956,7.28705,12.6449,6.53574,11.4146,0.0,0.0
308,76.75,167.415,245.074,66.2378,98.491,20.6811,0.300118,7.20141,12.7309,6.21546,13.9614,0.0,0.0
310,77.25,168.069,247.075,73.0096,98.5338,25.6275,0.297832,7.13204,12.8006,5.74505,12.047,0.0,0.0
312,77.75,169.779,249.135,73.1775,98.5433,25.4869,0.295262,7.04716,12.8874,5.24461,12.0971,0.0,0.0
314,78.25,170.738,251.071,55.0749,98.582,24.2781,0.292212,6.97841,12.9577,4.94434,12.5352,0.0,0.0
316,78.75,172.359,253.217,86.2807,98.5919,23.1721,0.288869,6.88837,13.051,4.47393,12.9532,0.0,0.0
318,79.25,173.913,254.519,62.9435,98.6248,25.7778,0.28507,6.81543,13.1265,4.1036,12.0029,0.0,0.0
320,79.75,175.192,257.085,88.3606,98.6525,21.6643,0.281011,6.75636,13.2744,3.76331,13.5606,0.0,0.0
322,80.25,176.129,258.117,61.3139,98.6877,21.7813,0.276349,6.64187,13.3941,3.38297,13.5156,0.0,0.0
324,80.75,177.261,258.918,84.1847,98.7217,22.637,0.271336,6.51467,13.4911,2.99263,13.174,0.0,0.0
326,81.25,178.264,260.137,83.1657,98.7368,24.1004,0.267276,6.38062,13.6536,2.68236,12.615,0.0,0.0
328,81.75,178.796,261.17,79.586,98.766,25.5147,0.263987,6.23804,13.7853,2.33205,12.1075,0.0,0.0
330,82.25,179.279,261.551,71.148,98.8092,24.3245,0.256381,6.09196,13.928,2.03178,12.5388,0.0,0.0
332,82.75,180.107,262.027,83.9359,98.8167,23.9841,0.25022,5.94274,14.0759,1.5914,12.6655,0.0,0.0
334,83.25,181.039,263.112,79.7012,98.8476,24.7243,0.24523,5.79407,14.1958,1.32116,12.3964,0.0,0.0
336,83.75,181.332,263.587,86.6058,98.8737,24.0046,0.236325,5.67364,14.3279,1.05092,12.663,0.0,0.0
338,84.25,181.803,263.807,77.8801,98.8947,25.4065,0.229111,5.57609,14.4666,0.590519,12.1572,0.0,0.0
340,84.75,182.143,263.894,82.7963,98.9081,27.7801,0.219912,5.39794,14.579,0.450396,11.3594,0.0,0.0
342,85.25,181.868,264.054,72.5028,98.9453,28.4372,0.212461,5.25363,14.7523,0.180158,11.1537,0.0,0.0
344,85.75,182.752,263.566,99.1815,98.9734,28.6929,0.204505,5.13674,14.8927,-0.120105,11.0761,0.0,0.0
346,86.25,182.109,263.501,85.0403,98.9979,30.7288,0.196332,4.95147,15.1143,-0.440387,10.4651,0.0,0.0
348,86.75,182.802,262.528,84.4793,99.0066,30.6666,0.187948,4.80139,15.2938,-0.58051,10.484,0.0,0.0
350,87.25,182.79,262.067,83.9748,99.0426,28.4971,0.179568,4.61771,15.5288,-0.880774,11.1436,0.0,0.0
352,87.75,182.773,261.526,86.5554,99.0458,31.3925,0.17278,4.46893,15.7193,-1.03091,10.2783,0.0,0.0
354,88.25,182.819,260.885,90.2878,99.0842,29.6769,0.163964,4.31759,15.9432,-1.31115,10.7845,0.0,0.0
356,88.75,182.536,260.088,82.2132,99.089,29.6653,0.155224,4.16726,16.1247,-1.62142,10.7884,0.0,0.0
358,89.25,182.074,259.409,88.9559,99.1293,30.8938,0.146705,4.0117,16.3109,-1.81159,10.4291,0.0,0.0
360,89.75,181.679,258.567,100.852,99.1289,31.4659,0.139805,3.85529,16.497,-1.97173,10.2649,0.0,0.0
362,90.25,181.105,257.514,92.4815,99.1562,34.0156,0.134217,3.69529,16.6477,-2.20193,9.57041,0.0,0.0
364,90.75,181.433,255.678,103.079,99.1728,36.1689,0.125755,3.53573,16.847,-2.36207,9.02284,0.0,0.0
366,91.25,180.208,254.16,101.685,99.2013,36.3447,0.1189,3.40648,17.0084,-2.53222,8.98204,0.0,0.0
368,91.75,179.723,252.025,103.534,99.2025,40.916,0.110967,3.23518,17.1767,-2.70237,7.92237,0.0,0.0
370,92.25,180.116,251.373,102.741,99.2314,41.1783,0.10454,3.09644,17.3469,-2.82248,7.86781,0.0,0.0
372,92.75,178.807,249.702,107.999,99.2286,40.4659,0.0980392,2.94738,17.5206,-3.00264,8.02366,0.0,0.0
374,93.25,177.449,248.303,106.968,99.2662,40.4134,0.091607,2.79364,17.6935,-3.11273,8.03867,0.0,0.0
376,93.75,176.922,246.144,105.005,99.2643,41.2919,0.0853923,2.66911,17.8336,-3.29289,7.84613,0.0,0.0
378,94.25,175.787,244.369,109.358,99.2832,41.9807,0.0794543,2.50448,18.0298,-3.36295,7.69985,0.0,0.0
380,94.75,175.225,242.836,110.371,99.2805,44.7514,0.0738274,2.37113,18.1887,-3.5331,7.12789,0.0,0.0
382,95.25,174.096,239.745,113.98,99.3098,45.0898,0.0685342,2.21658,18.3724,-3.62318,7.06314,0.0,0.0
384,95.75,172.062,238.714,116.132,99.3034,45.043,0.0635004,2.0914,18.5213,-3.76331,7.07185,0.0,0.0
386,96.25,171.73,236.807,113.585,99.3232,47.1875,0.0587514,1.96203,18.6731,-3.83337,6.65758,0.0,0.0
388,96.75,170.995,234.552,120.556,99.3153,49.1585,0.0549047,1.83207,18.8242,-3.88341,6.29082,0.0,0.0
390,97.25,169.941,231.631,117.433,99.3382,50.0601,0.0508813,1.70667,18.9465,-4.00352,6.13029,0.0,0.0
392,97.75,168.59,229.666,119.794,99.3406,55.0969,0.0468056,1.58699,19.0985,-4.02353,5.27293,0.0,0.0
394,98.25,167.34,228.016,121.785,99.3553,58.663,0.0428402,1.49005,19.2216,-4.08359,4.71323,0.0,0.0
396,98.75,165.999,225.598,125.937,99.3434,63.3629,0.0390307,1.37167,19.3695,-4.16366,4.02275,0.0,0.0
398,99.25,164.351,222.607,127.642,99.3592,69.4158,0.0353929,1.27579,19.4892,-4.17367,3.20805,0.0,0.0
400,99.75,162.959,220.687,130.704,99.3565,74.4881,0.0319494,1.16018,19.6239,-4.20369,2.57692,0.0,0.0
402,100.25,162.014,218.312,132.326,99.3723,82.4972,0.0287563,1.06654,19.7329,-4.26374,1.6648,0.0,0.0
404,100.75,160.595,215.805,132.069,99.3565,85.5499,0.0258064,0.972979,19.8629,-4.24373,1.33835,0.0,0.0
406,101.25,158.976,213.538,128.829,99.3612,88.4002,0.0230989,0.881262,19.9682,-4.25374,1.0456,0.0,0.0
408,101.75,157.429,210.974,132.087,99.358,90.0053,0.0206195,0.806971,20.0773,-4.27375,0.884347,0.0,0.0
410,102.25,156.509,208.944,133.908,99.3766,91.6402,0.0184088,0.727877,20.1656,-4.25374,0.724994,0.0,0.0
412,102.75,155.076,206.608,130.429,99.3584,93.0186,0.0164359,0.663811,20.2456,-4.24373,0.589808,0.0,0.0
414,103.25,153.132,203.752,135.372,99.3612,93.7881,0.0148379,0.598133,20.318,-4.26374,0.516356,0.0,0.0
416,103.75,151.718,201.449,137.141,99.343,94.2776,0.0135434,0.544933,20.3767,-4.24373,0.468155,0.0,0.0
418,104.25,150.438,199.952,136.679,99.3612,93.3153,0.0120947,0.492411,20.4242,-4.26374,0.561571,0.0,0.0
420,104.75,149.017,197.032,133.93,99.3466,93.8287,0.0109213,0.449867,20.4691,-4.26374,0.51117,0.0,0.0
422,105.25,147.605,194.809,134.618,99.366,94.5213,0.00997075,0.409226,20.5112,-4.28376,0.447122,0.0,0.0
424,105.75,145.708,192.885,135.707,99.3442,93.96,0.00908869,0.376307,20.5452,-4.26374,0.498443,0.0,0.0
426,106.25,145.519,190.856,134.4,99.3406,93.6718,0.00827327,0.346875,20.58,-4.28376,0.525602,0.0,0.0
428,106.75,143.64,189.034,135.534,99.3355,94.1825,0.00755791,0.320546,20.6081,-4.25374,0.476499,0.0,0.0
430,107.25,142.618,186.714,134.676,99.3343,94.4294,0.00692907,0.299219,20.6386,-4.27375,0.452977,0.0,0.0
432,107.75,141.347,184.972,134.919,99.3121,94.0431,0.00638724,0.281944,20.6634,-4.29377,0.487652,0.0,0.0
434,108.25,140.146,182.571,139.25,99.3244,94.9668,0.00591914,0.265569,20.6904,-4.29377,0.401326,0.0,0.0
436,108.75,139.297,180.843,136.081,99.3054,94.4792,0.00551899,0.250162,20.7122,-4.27375,0.445656,0.0,0.0
438,109.25,137.598,178.661,136.007,99.3007,94.0562,0.00517599,0.236921,20.7343,-4.29377,0.48537,0.0,0.0
440,109.75,136.554,177.429,137.599,99.292,93.5544,0.00489815,0.22551,20.7521,-4.29377,0.53244,0.0,0.0
442,110.25,135.695,175.147,135.306,99.2896,93.8078,0.00476447,0.215666,20.7606,-4.29377,0.508027,0.0,0.0
444,110.75,134.621,173.083,135.726,99.2714,94.1605,0.00453586,0.20715,20.7752,-4.28376,0.472817,0.0,0.0
446,111.25,133.429,172.095,140.256,99.2567,94.628,0.00433736,0.199867,20.787,-4.30378,0.427199,0.0,0.0
448,111.75,132.627,170.068,133.76,99.254,94.3259,0.00416457,0.19362,20.7983,-4.31379,0.455553,0.0,0.0
450,112.25,131.117,168.258,136.068,99.2377,93.6699,0.0040113,0.188561,20.8075,-4.30378,0.516516,0.0,0.0
452,112.75,130.071,166.885,135.168,99.2334,94.4255,0.00387516,0.183845,20.8153,-4.31379,0.444252,0.0,0.0
454,113.25,129.34,165.041,138.254,99.2144,94.0392,0.00376489,0.181834,20.8221,-4.3238,0.479212,0.0,0.0
456,113.75,128.518,163.638,140.587,99.218,93.6884,0.00364787,0.178042,20.828,-4.3238,0.512962,0.0,0.0
458,114.25,127.676,162.011,132.696,99.1835,94.5866,0.00355309,0.174651,20.8333,-4.33381,0.424508,0.0,0.0
460,114.75,126.691,160.663,136.284,99.1788,93.8851,0.00347631,0.171904,20.8375,-4.37384,0.490675,0.0,0.0
462,115.25,125.211,158.994,138.209,99.1689,93.9121,0.00341413,0.169232,20.8418,-4.36383,0.487206,0.0,0.0
464,115.75,124.787,156.954,132.205,99.1554,93.7893,0.00337136,0.167067,20.8456,-4.37384,0.497702,0.0,0.0
466,116.25,124,156.039,135.803,99.1412,93.6614,0.00334357,0.164992,20.849,-4.35382,0.50862,0.0,0.0
468,116.75,123.108,154.172,137.848,99.1285,94.1652,0.00332739,0.163312,20.8517,-4.37384,0.459495,0.0,0.0
470,117.25,122.34,153.178,135.82,99.1115,94.3378,0.00332,0.161615,20.8547,-4.36383,0.441569,0.0,0.0
472,117.75,121.264,151.859,134.536,99.1068,94.3351,0.00331401,0.160241,20.8572,-4.36383,0.441397,0.0,0.0
474,118.25,120.702,150.748,135.357,99.0874,93.4578,0.00330434,0.15893,20.8592,-4.35382,0.523228,0.0,0.0
476,118.75,119.236,148.984,135.947,99.0727,93.6664,0.0032965,0.157691,20.8609,-4.37384,0.501962,0.0,0.0
478,119.25,118.907,147.94,135.358,99.0636,94.4974,0.00326848,0.156518,20.8624,-4.36383,0.422131,0.0,0.0
480,119.75,117.561,146.846,138.149,99.0399,94.5333,0.00324579,0.155416,20.8639,-4.35382,0.416586,0.0,0.0
482,120.25,117.088,145.378,134.91,99.0296,94.4568,0.00320651,0.154524,20.8651,-4.38385,0.422898,0.0,0.0
484,120.75,116.522,144.513,139.043,99.015,93.7159,0.00315588,0.153439,20.8664,-4.39386,0.492023,0.0,0.0
486,121.25,115.816,142.869,137.225,98.9995,94.1532,0.0030959,0.152561,20.8676,-4.41388,0.448984,0.0,0.0
488,121.75,114.681,141.544,134.641,98.988,94.6964,0.00303023,0.151732,20.8689,-4.42389,0.39649,0.0,0.0
490,122.25,114.468,140.312,135.997,98.9805,93.9191,0.00296314,0.150955,20.87,-4.42389,0.469537,0.0,0.0
492,122.75,113.211,139.447,133.063,98.958,93.3817,0.00289628,0.150238,20.8709,-4.42389,0.518827,0.0,0.0
494,123.25,112.497,138.058,138.442,98.9421,93.9338,0.00283391,0.149578,20.8716,-4.42389,0.464668,0.0,0.0
496,123.75,111.483,136.451,134.027,98.9291,94.1825,0.002776,0.148993,20.8722,-4.43389,0.439827,0.0,0.0
498,124.25,111.229,136.172,134.972,98.9018,94.0628,0.0027291,0.148472,20.8727,-4.43389,0.44874,0.0,0.0
500,124.75,110.35,134.889,135.477,98.8947,94.7423,0.002693,0.147985,20.873,-4.43389,0.383705,0.0,0.0
502,125.25,110.269,134.159,134.394,98.8717,94.13,0.00266546,0.147531,20.8736,-4.42389,0.439629,0.0,0.0
504,125.75,109.225,133.155,138.58,98.8796,93.1144,0.00264316,0.147163,20.8742,-4.4439,0.537387,0.0,0.0
506,126.25,108.502,131.461,137.448,98.8488,93.9952,0.0026479,0.146713,20.8747,-4.4439,0.450374,0.0,0.0
508,126.75,108.159,130.947,136.903,98.8393,94.0744,0.00265174,0.146348,20.8751,-4.43389,0.441981,0.0,0.0
510,127.25,107.257,129.93,137.338,98.8222,94.6272,0.00266306,0.145928,20.8755,-4.45391,0.388028,0.0,0.0
512,127.75,106.179,128.659,136.251,98.8222,93.8951,0.00267963,0.145476,20.8758,-4.46392,0.457502,0.0,0.0
514,128.25,106,128.03,132.95,98.8013,93.3941,0.00269305,0.14511,20.8758,-4.45391,0.503466,0.0,0.0
516,128.75,105.483,126.998,138.728,98.791,93.6587,0.00270203,0.144771,20.8759,-4.45391,0.477224,0.0,0.0
518,129.25,104.839,126.035,131.854,98.7629,93.0785,0.00270759,0.144496,20.8754,-4.45391,0.530271,0.0,0.0
520,129.75,104.072,124.956,133.137,98.7514,92.9796,0.00270578,0.144208,20.875,-4.46392,0.538742,0.0,0.0
522,130.25,103.223,123.79,136.991,98.7332,93.8314,0.00269862,0.143916,20.8746,-4.47393,0.455514,0.0,0.0
524,130.75,101.981,122.347,133.214,98.7356,93.6348,0.00267721,0.143679,20.8744,-4.47393,0.474494,0.0,0.0
526,131.25,102.649,122.249,133.189,98.7126,93.243,0.00265987,0.143414,20.8742,-4.48394,0.509916,0.0,0.0
528,131.75,101.918,121.589,141.178,98.7122,93.6375,0.00264583,0.143134,20.874,-4.46392,0.472121,0.0,0.0
530,132.25,101.428,120.466,138.921,98.6885,93.8774,0.00262605,0.142921,20.8741,-4.49395,0.447079,0.0,0.0
532,132.75,100.6,119.802,134.001,98.7079,93.7483,0.00261004,0.142762,20.8743,-4.48394,0.461141,0.0,0.0
534,133.25,100.16,118.956,134.565,98.6695,94.0346,0.00260666,0.142626,20.8746,-4.51396,0.430389,0.0,0.0
536,133.75,99.6615,118.26,134.839,98.6604,93.3551,0.00260393,0.142509,20.8747,-4.50396,0.494441,0.0,0.0
538,134.25,99.2734,117.211,140.272,98.6343,93.2608,0.00261182,0.142415,20.8749,-4.50396,0.501109,0.0,0.0
540,134.75,98.6421,116.249,133.273,98.6465,92.8525,0.00262732,0.142352,20.875,-4.53398,0.541474,0.0,0.0
542,135.25,98.4217,115.453,139.234,98.6121,93.2909,0.0026424,0.142301,20.8751,-4.53398,0.496209,0.0,0.0
544,135.75,97.5265,115.236,139.621,98.6165,94.468,0.00265689,0.142232,20.8752,-4.52397,0.384442,0.0,0.0
546,136.25,97.8761,114.235,135.41,98.5994,94.2729,0.00266863,0.142177,20.8752,-4.53398,0.401391,0.0,0.0
548,136.75,97.1066,113.436,137.873,98.6046,93.4999,0.00266853,0.142117,20.8753,-4.53398,0.47551,0.0,0.0
550,137.25,96.4659,112.66,136.021,98.5769,94.4425,0.00265834,0.142055,20.8753,-4.53398,0.383267,0.0,0.0
552,137.75,95.5993,111.929,135.264,98.5812,93.7116,0.00264098,0.141962,20.8758,-4.54399,0.45316,0.0,0.0
554,138.25,95.6011,111.225,134.485,98.565,93.9311,0.00262693,0.141847,20.8762,-4.53398,0.430767,0.0,0.0
556,138.75,95.5834,110.819,134.111,98.5642,92.9197,0.00262094,0.141753,20.8763,-4.56401,0.527533,0.0,0.0
558,139.25,94.7994,109.755,134.656,98.5452,92.9371,0.00260469,0.141581,20.8766,-4.57402,0.524136,0.0,0.0
560,139.75,94.4786,108.805,133.375,98.5634,93.6166,0.00259153,0.141441,20.8768,-4.59404,0.46062,0.0,0.0
562,140.25,94.2059,108.609,134.504,98.5753,93.0205,0.00260128,0.141258,20.877,-4.60404,0.518837,0.0,0.0
564,140.75,93.2847,108.172,136.516,98.6042,93.6452,0.00260917,0.141111,20.8772,-4.57402,0.461588,0.0,0.0
566,141.25,93.1956,107.518,137.033,98.6307,93.9117,0.00262757,0.140825,20.8773,-4.57402,0.438566,0.0,0.0
568,141.75,92.0026,106.717,136.895,98.6766,94.1482,0.00264248,0.140703,20.8774,-4.57402,0.420236,0.0,0.0
570,142.25,91.9363,106.105,136.703,98.6707,93.3887,0.00264975,0.140495,20.8775,-4.58403,0.492153,0.0,0.0
572,142.75,91.6426,105.33,139.153,98.7071,93.6595,0.00265563,0.140229,20.8775,-4.59404,0.469552,0.0,0.0
574,143.25,90.9451,104.756,136.767,98.7285,94.188,0.0026508,0.140014,20.8776,-4.61405,0.421155,0.0,0.0
576,143.75,90.7894,104.594,136.822,98.7601,94.4371,0.00264688,0.139854,20.8776,-4.63407,0.400388,0.0,0.0
578,144.25,90.6634,103.702,133.537,98.7676,93.2507,0.00263802,0.139738,20.8776,-4.64408,0.514159,0.0,0.0
580,144.75,90.039,102.942,136.2,98.8056,93.9859,0.00262573,0.139644,20.8777,-4.64408,0.447353,0.0,0.0
582,145.25,89.7937,102.482,135.367,98.8159,94.0191,0.00261577,0.139567,20.8777,-4.65409,0.445123,0.0,0.0
584,145.75,89.1594,101.966,133.674,98.8484,93.9384,0.00260266,0.139447,20.8777,-4.64408,0.455745,0.0,0.0
586,146.25,88.9458,101.569,136.35,98.8701,94.504,0.00258748,0.139298,20.8777,-4.65409,0.404019,0.0,0.0
588,146.75,88.8864,101.642,133.063,98.8832,94.0083,0.00257519,0.139133,20.8777,-4.65409,0.45224,0.0,0.0
590,147.25,88.6234,100.968,139.532,98.8923,95.1275,0.00255684,0.13896,20.8778,-4.63407,0.347198,0.0,0.0
592,147.75,87.6286,100.1,138.528,98.9172,94.1153,0.00254198,0.13882,20.8778,-4.67411,0.445141,0.0,0.0
594,148.25,87.8458,99.522,134.643,98.9271,94.261,0.00251794,0.138641,20.878,-4.67411,0.432203,0.0,0.0
596,148.75,87.2108,99.0006,138.405,98.9524,94.1779,0.00249847,0.138437,20.8784,-4.70413,0.442379,0.0,0.0
598,149.25,86.9288,98.5372,138.039,98.9465,94.0844,0.0024839,0.138272,20.8789,-4.69412,0.450727,0.0,0.0
600,149.75,86.5164,97.6478,138.256,98.973,94.6222,0.0024721,0.137972,20.8796,-4.70413,0.40214,0.0,0.0
602,150.25,86.1125,97.456,136.332,98.9785,93.996,0.00246854,0.13773,20.8801,-4.69412,0.462039,0.0,0.0
604,150.75,85.8865,96.5004,136.369,98.9952,94.1466,0.00246565,0.137409,20.8808,-4.70413,0.449213,0.0,0.0
606,151.25,85.4501,96.6124,137.328,99.0161,93.8148,0.00246332,0.137149,20.8815,-4.68411,0.482695,0.0,0.0
608,151.75,85.5639,95.7681,133.726,99.0138,94.208,0.00248422,0.136828,20.8819,-4.68411,0.44506,0.0,0.0
610,152.25,84.7462,95.4957,134.012,99.0284,94.4124,0.00250115,0.136568,20.8821,-4.67411,0.426999,0.0,0.0
612,152.75,84.8777,94.7729,137.675,99.0288,94.4707,0.00251486,0.136219,20.8822,-4.70413,0.42151,0.0,0.0
614,153.25,83.9097,94.6782,136.297,99.0462,93.5733,0.00256199,0.135937,20.8823,-4.64408,0.508463,0.0,0.0
616,153.75,84.1737,94.0458,134.279,99.0498,93.7371,0.00260017,0.135708,20.8824,-4.63407,0.49314,0.0,0.0
618,154.25,84.0592,93.6952,134.774,99.0601,93.8638,0.00264431,0.135392,20.8824,-4.64408,0.481986,0.0,0.0
620,154.75,83.0733,92.8505,133.064,99.0553,94.6566,0.00268006,0.135018,20.8825,-4.63407,0.406327,0.0,0.0
622,155.25,83.3244,92.7372,134.878,99.0609,95.6278,0.00269821,0.13465,20.8827,-4.64408,0.315513,0.0,0.0
624,155.75,83.1198,91.9504,136.897,99.064,95.0367,0.0027129,0.134294,20.8832,-4.64408,0.37126,0.0,0.0
626,156.25,82.2056,91.6048,133.403,99.0731,93.4497,0.00271039,0.134005,20.8837,-4.6641,0.522719,0.0,0.0
628,156.75,82.2237,91.8056,136.344,99.0577,94.3985,0.00270836,0.133674,20.8844,-4.6641,0.430961,0.0,0.0
630,157.25,81.1192,90.6321,133.569,99.0818,93.9963,0.00270356,0.133406,20.885,-4.65409,0.471331,0.0,0.0
632,157.75,81.241,90.2993,133.829,99.0795,94.8068,0.00269682,0.133079,20.8858,-4.67411,0.394316,0.0,0.0
634,158.25,81.6298,90.5698,138.138,99.0798,94.2235,0.00269136,0.132814,20.8865,-4.67411,0.449562,0.0,0.0
636,158.75,81.6441,89.756,136.15,99.0676,94.4769,0.00270015,0.132498,20.8871,-4.67411,0.424427,0.0,0.0
638,159.25,81.2903,89.2559,134.358,99.0846,94.407,0.00270727,0.13215,20.8876,-4.67411,0.432586,0.0,0.0
640,159.75,81.2358,89.1174,135.456,99.0644,94.2478,0.00272505,0.131869,20.8879,-4.6641,0.445858,0.0,0.0
642,160.25,80.5394,88.6872,140.562,99.0636,94.4943,0.00275027,0.131407,20.8887,-4.68411,0.422423,0.0,0.0
644,160.75,80.2518,88.4505,139.009,99.0589,94.7929,0.00277766,0.131033,20.8893,-4.6641,0.39377,0.0,0.0
646,161.25,79.6201,87.4262,135.105,99.0628,95.0371,0.00280611,0.130592,20.8902,-4.69412,0.371117,0.0,0.0
648,161.75,79.503,87.4353,137.295,99.0438,94.5627,0.00283231,0.130235,20.8909,-4.71414,0.414166,0.0,0.0
650,162.25,80.129,87.541,139.531,99.0423,94.9992,0.00285639,0.129895,20.8915,-4.72415,0.372823,0.0,0.0
652,162.75,79.7837,87.2406,138.18,99.0328,95.1375,0.00287715,0.129575,20.892,-4.72415,0.358952,0.0,0.0
654,163.25,79.0738,86.6676,139.328,99.0355,95.1174,0.00288661,0.129221,20.8925,-4.72415,0.361091,0.0,0.0
656,163.75,78.9418,86.4091,135.158,99.015,94.6654,0.00290277,0.128849,20.8932,-4.73416,0.401841,0.0,0.0
658,164.25,78.7628,86.4135,137.262,99.0193,93.8774,0.00292188,0.128462,20.894,-4.72415,0.477015,0.0,0.0
660,164.75,78.484,85.2808,135.683,98.9948,94.4248,0.00293736,0.12807,20.8949,-4.74417,0.422789,0.0,0.0
662,165.25,77.326,84.6199,134.066,98.9928,94.8513,0.00296192,0.127658,20.8956,-4.74417,0.382298,0.0,0.0
664,165.75,77.5543,84.4064,138.399,98.9655,94.4035,0.00298182,0.12724,20.8962,-4.74417,0.422156,0.0,0.0
666,166.25,77.308,84.3103,138.692,98.9611,94.8822,0.00299794,0.127062,20.8967,-4.76418,0.376522,0.0,0.0
668,166.75,78.0846,84.2097,138.474,98.9366,94.3208,0.00302557,0.126565,20.897,-4.79421,0.427381,0.0,0.0
670,167.25,76.907,83.4412,136.708,98.939,94.1176,0.00306106,0.126163,20.8973,-4.77419,0.446888,0.0,0.0
672,167.75,76.6685,82.6989,140.018,98.9105,94.3888,0.00308981,0.12574,20.8976,-4.7842,0.418574,0.0,0.0
674,168.25,76.7697,83.607,133.968,98.9057,94.2768,0.00312032,0.125399,20.898,-4.7842,0.428767,0.0,0.0
676,168.75,77.2782,83.3438,139.707,98.8788,94.6755,0.00314504,0.125122,20.8986,-4.79421,0.388586,0.0,0.0
678,169.25,76.0968,82.5605,139.81,98.8741,93.9415,0.00316024,0.124774,20.899,-4.81423,0.457777,0.0,0.0
680,169.75,76.3811,82.3358,137.089,98.8341,94.8219,0.00317255,0.124492,20.8994,-4.81423,0.370716,0.0,0.0
682,170.25,75.9992,82.0401,136.704,98.8357,93.5482,0.00317891,0.124264,20.8999,-4.80422,0.491832,0.0,0.0
684,170.75,76.1157,81.7502,135.812,98.8036,94.2857,0.00318406,0.123928,20.9005,-4.80422,0.418687,0.0,0.0
686,171.25,75.799,81.4216,138.996,98.7862,94.5298,0.00318463,0.123657,20.901,-4.81423,0.393975,0.0,0.0
688,171.75,75.7779,81.4591,141.028,98.7649,95.275,0.00318508,0.123354,20.9015,-4.81423,0.321799,0.0,0.0
690,172.25,75.4185,81.4928,138.721,98.7625,94.4734,0.00318165,0.123109,20.9018,-4.80422,0.397164,0.0,0.0
692,172.75,74.8316,80.4917,140.007,98.7356,94.5136,0.00317544,0.122897,20.9021,-4.79421,0.390925,0.0,0.0
694,173.25,74.7754,80.6863,137.911,98.7178,93.8256,0.00317042,0.122725,20.9023,-4.80422,0.454668,0.0,0.0
696,173.75,74.8328,80.4371,133.52,98.6924,93.8801,0.00315672,0.122579,20.9025,-4.80422,0.447181,0.0,0.0
698,174.25,74.7362,80.0676,138.27,98.6833,94.0647,0.00314563,0.122454,20.9026,-4.81423,0.428778,0.0,0.0
700,174.75,74.1687,79.5863,137.712,98.6398,94.3139,0.00313664,0.122316,20.9027,-4.80422,0.401166,0.0,0.0
702,175.25,74.6998,79.5192,136.812,98.6355,94.1377,0.00313297,0.122172,20.9028,-4.80422,0.417496,0.0,0.0
704,175.75,74.0427,79.3254,135.565,98.6097,95.289,0.00313,0.122056,20.9029,-4.79421,0.306433,0.0,0.0
706,176.25,73.3855,78.8879,140.114,98.5793,94.7338,0.00313519,0.121934,20.9029,-4.80422,0.355935,0.0,0.0
708,176.75,73.6631,79.1935,136.58,98.5504,94.3572,0.00314624,0.121836,20.903,-4.80422,0.38895,0.0,0.0
710,177.25,73.6094,78.3609,139.421,98.533,94.9428,0.00316343,0.121756,20.903,-4.83425,0.332019,0.0,0.0
712,177.75,73.5241,78.167,140.227,98.5033,94.4116,0.00318478,0.121648,20.9031,-4.84425,0.379512,0.0,0.0
714,178.25,73.2235,78.2169,139.525,98.489,94.9888,0.00320206,0.121522,20.9031,-4.82424,0.3237,0.0,0.0
716,178.75,73.1592,77.9253,141.258,98.4396,94.2424,0.00322088,0.12139,20.9031,-4.86427,0.389771,0.0,0.0
718,179.25,73.204,77.6459,139.949,98.4277,94.8354,0.00323613,0.121258,20.9031,-4.84425,0.332583,0.0,0.0
720,179.75,72.8559,77.5999,138.396,98.3822,94.0045,0.00323763,0.121151,20.9032,-4.85426,0.407172,0.0,0.0
722,180.25,72.6919,77.1762,138.369,98.3707,94.6944,0.00323886,0.120914,20.9032,-4.84425,0.340712,0.0,0.0
724,180.75,71.9964,77.1435,135.678,98.3351,94.0782,0.00323984,0.120721,20.9032,-4.81423,0.395871,0.0,0.0
726,181.25,72.7225,76.8094,137.325,98.3137,93.4783,0.00320333,0.120472,20.9034,-4.80422,0.451155,0.0,0.0
728,181.75,71.8673,76.4469,137.546,98.2671,93.7224,0.00317375,0.120186,20.9038,-4.82424,0.423571,0.0,0.0
730,182.25,71.7673,76.6196,136.73,98.2449,95.2326,0.00313055,0.119925,20.9041,-4.82424,0.27857,0.0,0.0
732,182.75,71.8276,76.5465,136.95,98.2002,93.9793,0.00309555,0.119688,20.9044,-4.81423,0.392995,0.0,0.0
734,183.25,72.1169,75.9926,139.218,98.199,94.1111,0.00305398,0.119438,20.9048,-4.83425,0.380357,0.0,0.0
736,183.75,71.5601,75.8625,140.185,98.1982,93.5274,0.00302031,0.119184,20.9054,-4.82424,0.435941,0.0,0.0
738,184.25,71.5446,75.5508,139.07,98.2065,93.1731,0.00298823,0.118978,20.9058,-4.82424,0.470645,0.0,0.0
740,184.75,71.5692,75.568,140.334,98.1954,93.3299,0.00296224,0.118743,20.9062,-4.82424,0.45459,0.0,0.0
742,185.25,70.8537,75.1693,134.548,98.1978,94.9598,0.00294119,0.118553,20.9067,-4.84425,0.299938,0.0,0.0
744,185.75,70.7615,75.2208,135.046,98.2053,93.9674,0.00292414,0.118334,20.9074,-4.85426,0.394604,0.0,0.0
746,186.25,70.8778,74.8268,139.037,98.2116,95.063,0.00290913,0.118098,20.9079,-4.85426,0.291487,0.0,0.0
748,186.75,70.9515,74.8653,136.247,98.2109,94.0833,0.00289697,0.117743,20.9083,-4.85426,0.384083,0.0,0.0
750,187.25,70.4567,74.218,138.33,98.2097,94.4294,0.00288712,0.117456,20.9086,-4.87428,0.351124,0.0,0.0
752,187.75,70.5534,73.8426,137.599,98.2207,94.0782,0.00286953,0.117059,20.9089,-4.88429,0.385461,0.0,0.0
754,188.25,70.3218,74.1198,135.42,98.2168,94.0497,0.00285528,0.116738,20.9091,-4.8943,0.38782,0.0,0.0
756,188.75,70.4925,73.943,136.452,98.22,93.6904,0.00283931,0.116327,20.9093,-4.90431,0.422345,0.0,0.0
758,189.25,70.0524,73.6437,135.947,98.2263,94.4808,0.00282239,0.115995,20.9094,-4.92432,0.347773,0.0,0.0
760,189.75,70.0807,73.8157,136.755,98.2386,94.3487,0.00280743,0.115725,20.9095,-4.91432,0.361406,0.0,0.0
762,190.25,69.9289,73.2313,138.484,98.2449,93.8132,0.00279416,0.115261,20.9101,-4.85426,0.412893,0.0,0.0
764,190.75,69.5372,73.2019,136.099,98.2532,93.4679,0.00278721,0.114886,20.9105,-4.84425,0.446642,0.0,0.0
766,191.25,69.6864,72.9874,138.189,98.25,93.182,0.002785,0.114524,20.9108,-4.85426,0.473756,0.0,0.0
768,191.75,69.1797,72.7125,139.054,98.2576,94.6114,0.00278384,0.114179,20.9111,-4.87428,0.338265,0.0,0.0
770,192.25,69.1544,72.6887,139.215,98.2619,94.4433,0.00278347,0.113864,20.9118,-4.85426,0.354563,0.0,0.0
772,192.75,69.0761,72.5547,140.195,98.271,93.646,0.00278254,0.113577,20.9123,-4.87428,0.431236,0.0,0.0
774,193.25,68.4956,71.6912,137.806,98.2746,93.8642,0.00278121,0.113344,20.9128,-4.91432,0.410734,0.0,0.0
776,193.75,68.3653,71.1723,137.568,98.286,93.5339,0.00278014,0.113019,20.9131,-4.91432,0.443312,0.0,0.0
778,194.25,68.6806,72.0552,138.218,98.2896,93.5857,0.00277687,0.112755,20.9136,-4.90431,0.438686,0.0,0.0
780,194.75,68.473,71.9107,134.22,98.3042,93.7472,0.00277422,0.112338,20.9142,-4.92432,0.424598,0.0,0.0
782,195.25,68.6438,71.3248,138.192,98.3141,94.2038,0.00277808,0.111863,20.9147,-4.95435,0.382032,0.0,0.0
784,195.75,68.7623,71.4345,139.228,98.3284,93.6583,0.0027812,0.111356,20.9156,-4.95435,0.435276,0.0,0.0
786,196.25,68.5639,71.5411,138.373,98.3272,94.587,0.00279259,0.110946,20.9163,-4.94434,0.346904,0.0,0.0
788,196.75,68.0457,71.1228,136.445,98.3446,94.3243,0.00280979,0.110327,20.9168,-4.94434,0.373366,0.0,0.0
790,197.25,67.7002,70.7801,137.103,98.3494,94.0315,0.00282371,0.109827,20.9173,-4.96436,0.401612,0.0,0.0
792,197.75,67.1948,70.6796,144.174,98.364,94.8648,0.00283499,0.109349,20.9176,-4.91432,0.324021,0.0,0.0
794,198.25,68.0829,71.1937,139.104,98.3561,94.6681,0.00288021,0.108898,20.9178,-4.94434,0.341863,0.0,0.0
796,198.75,67.4767,70.5306,139.137,98.3798,93.7839,0.00291684,0.108497,20.9178,-4.93433,0.427971,0.0,0.0
798,199.25,67.9872,70.8341,139.797,98.3822,94.6917,0.00293568,0.10814,20.9178,-4.96436,0.342011,0.0,0.0
800,199.75,67.4445,70.8033,138.382,98.3984,94.2926,0.00295094,0.107851,20.9178,-4.95435,0.381265,0.0,0.0
802,200.25,67.7969,70.4224,133.994,98.419,93.5826,0.00294811,0.107616,20.9178,-4.96436,0.450751,0.0,0.0
804,200.75,67.7308,70.0043,138.405,98.4368,94.0288,0.00293215,0.107427,20.9178,-4.98438,0.409819,0.0,0.0
806,201.25,66.9915,69.9705,139.365,98.4218,94.5951,0.00291922,0.107273,20.9179,-5.0044,0.354737,0.0,0.0
808,201.75,66.9185,69.2112,137.472,98.4412,93.6695,0.0028619,0.107216,20.9179,-5.02441,0.44446,0.0,0.0
810,202.25,66.8327,69.6991,139.138,98.4305,94.859,0.00281548,0.107171,20.9179,-5.02441,0.330612,0.0,0.0
812,202.75,67.3175,69.5706,139.812,98.4546,95.2635,0.00275747,0.107162,20.9179,-5.03442,0.294744,0.0,0.0
814,203.25,66.9329,69.0674,135.449,98.4519,93.7004,0.00271048,0.107181,20.9179,-5.04443,0.44248,0.0,0.0
816,203.75,66.9833,69.6252,136.171,98.4736,94.6052,0.00266643,0.107196,20.9179,-5.0144,0.358496,0.0,0.0
818,204.25,66.4182,68.6347,136.441,98.4788,94.5148,0.00263074,0.107222,20.9179,-5.03442,0.367516,0.0,0.0
820,204.75,66.326,68.6144,143.06,98.4886,95.6475,0.00260423,0.107244,20.9176,-5.02441,0.261849,0.0,0.0
822,205.25,66.2531,68.3056,141.923,98.497,94.39,0.00258276,0.107268,20.9173,-5.03442,0.380987,0.0,0.0
824,205.75,66.8641,68.7155,134.939,98.5084,94.0894,0.00257017,0.107294,20.9169,-5.0144,0.410558,0.0,0.0
826,206.25,66.1115,68.566,141.059,98.5041,94.086,0.00255997,0.107336,20.9167,-5.03442,0.410493,0.0,0.0
828,206.75,66.0229,69.004,141.294,98.5294,94.7779,0.00255771,0.10739,20.9165,-5.02441,0.347251,0.0,0.0
830,207.25,66.3587,68.6811,133.627,98.5191,94.8281,0.00255587,0.10752,20.9163,-5.02441,0.341578,0.0,0.0
832,207.75,66.405,68.4399,140.35,98.5441,94.2304,0.00255439,0.107702,20.9162,-5.04443,0.400396,0.0,0.0
834,208.25,66.2063,68.6754,137.684,98.5496,93.6788,0.00254479,0.107914,20.9161,-5.04443,0.453422,0.0,0.0
836,208.75,66.3384,68.4627,136.127,98.5729,95.4485,0.00253701,0.108144,20.916,-5.02441,0.288128,0.0,0.0
838,209.25,66.0699,68.2427,136.88,98.5698,94.0609,0.00252232,0.10838,20.9159,-5.03442,0.418844,0.0,0.0
840,209.75,65.8065,67.9501,133.124,98.5884,94.2042,0.00251041,0.108617,20.9154,-5.03442,0.406913,0.0,0.0
842,210.25,65.73,68.6511,137.022,98.5852,94.2417,0.00249572,0.108859,20.915,-5.03442,0.403068,0.0,0.0
844,210.75,65.4622,68.0137,136.88,98.6038,93.8225,0.00247928,0.1091,20.9147,-5.03442,0.444629,0.0,0.0
846,211.25,65.7057,67.5413,139.815,98.6117,94.8536,0.00245901,0.109295,20.9144,-5.03442,0.347577,0.0,0.0
848,211.75,65.7284,67.8691,138.31,98.6311,94.9401,0.00243636,0.109475,20.9138,-5.03442,0.341179,0.0,0.0
850,212.25,65.0068,68.0647,137.873,98.6204,94.4908,0.0024098,0.109639,20.9133,-5.03442,0.382642,0.0,0.0
852,212.75,65.6401,67.7251,138.29,98.639,95.4354,0.00238092,0.109773,20.9128,-5.04443,0.295355,0.0,0.0
854,213.25,65.512,67.9344,135.788,98.6402,94.1458,0.00235752,0.109908,20.9125,-5.06445,0.417157,0.0,0.0
856,213.75,65.2692,67.3807,137.22,98.6541,94.4611,,0.110018,,-5.07446,0.388509,0.0,0.0
858,214.25,65.1339,67.3879,140.133,98.6509,94.7357,,0.110257,,-5.07446,0.362249,0.0,0.0
860,214.75,65.1264,67.3173,139.359,98.6659,95.0147,,0.11045,,-5.07446,0.337315,0.0,0.0
862,215.25,65.0931,67.4219,139.702,98.6584,94.9073,,0.110716,,-5.10448,0.346749,0.0,0.0
864,215.75,65.1417,66.6635,139.005,98.677,95.4319,,0.110931,,-5.06445,0.299125,0.0,0.0
866,216.25,64.9746,67.0437,139.436,98.6683,94.8972,,0.111228,,-5.09447,0.348593,0.0,0.0
868,216.75,64.8988,66.497,138.481,98.6909,93.8661,,,,-5.07446,0.448363,0.0,0.0
870,217.25,64.9787,67.0141,133.549,98.6806,95.0865,,,,-5.09447,0.33188,0.0,0.0
872,217.75,65.1265,66.6938,137.502,98.6988,94.0593,,,,-5.09447,0.430691,0.0,0.0
874,218.25,64.9134,66.5615,137.868,98.681,94.8111,,,,-5.10448,0.357865,0.0,0.0
876,218.75,64.7539,66.176,137.8,98.7023,95.6981,,,,-5.11449,0.276506,0.0,0.0
878,219.25,64.7002,65.9947,138.617,98.7008,94.835,,,,-5.11449,0.357399,0.0,0.0
880,219.75,64.4474,66.4448,140.54,98.7095,94.8231,,,,-5.11449,0.359318,0.0,0.0
882,220.25,63.8212,65.9598,135.19,98.711,94.4692,,,,-5.11449,0.392907,0.0,0.0
884,220.75,63.995,66.0117,137.438,98.7142,93.8125,,,,-5.11449,0.455598,0.0,0.0
886,221.25,64.6014,65.8827,137.569,98.7039,94.9641,,,,-5.11449,0.345523,0.0,0.0
888,221.75,64.0504,66.3063,139.578,98.7035,95.9944,,,,-5.09447,0.248958,0.0,0.0
890,222.25,63.9245,65.614,139.782,98.7075,94.3112,,,,-5.10448,0.407558,0.0,0.0
892,222.75,64.2217,65.7174,139.46,98.7043,95.4721,,,,-5.09447,0.297835,0.0,0.0
894,223.25,63.9224,65.9421,138.412,98.7015,95.7742,,,,-5.10448,0.269322,0.0,0.0
896,223.75,64.0541,64.9657,137.015,98.698,95.1557,,,,-5.09447,0.326954,0.0,0.0
898,224.25,63.7501,65.1094,140.536,98.6996,95.7954,,,,-5.09447,0.267159,0.0,0.0