File: 01_Data/PETG/Cone/PET-G_Cone_HF50Scan_220215_R1.csv
Names,Time,Stack TC,Smoke TC,Exh Press,Smoke Comp,Smoke Meas,CO Meter,CO2 Meter,O2 Meter,Sample Mass,Ext Coeff,Start Test,Flame Verif
Chan Gain,,500,500,1,1,1,1,1,1,1,1,1.0,1.0
Offset,,0,0,0.140898,0,0,0,0,0,0,0,0.0,0.0
Gain,,1,1,25.011,12.9668,12.6588,1,1,1,1.00088,1.01977,1.0,1.0
Units,sec,C,C,Pa,%,%,%,%,%,g,/m,,
Baseline,,29.1638,30.9273,156.963,98.0561,99.203,-0.000940145,0.0666454,20.9723,-872.029,-0.103948,,
3,0.5,26.7925,28.6435,154.506,99.0272,100.414,-0.000666946,0.0783185,20.955,35.7514,-0.124387,0.0,0.0
6,1.25,27.1539,28.3919,161.542,99.0245,100.706,-0.000673258,0.0776345,20.9559,35.1509,-0.150652,0.0,0.0
9,2,26.9634,28.3957,160.934,99.03,100.505,-0.000677859,0.0771358,20.9569,35.4511,-0.132221,0.0,0.0
12,2.75,27.359,28.2355,157.737,99.0304,101.047,-0.00068459,0.0762184,20.9581,35.1108,-0.180296,0.0,0.0
15,3.5,26.8771,28.6226,157.748,99.0264,101.075,-0.000688314,0.0755074,20.9592,35.341,-0.183184,0.0,0.0
18,4.25,27.0968,28.9563,160.484,99.009,100.741,-0.000690523,0.0749167,20.9612,35.2009,-0.155134,0.0,0.0
21,5,26.9851,28.7741,157.703,99.0027,100.619,-0.000685381,0.074446,20.9626,35.251,-0.144894,0.0,0.0
24,5.75,27.5729,28.9999,155.337,99.0003,101.063,-0.000680448,0.0740505,20.9637,35.2009,-0.184484,0.0,0.0
27,6.5,27.716,28.9713,157.787,98.9675,100.692,-0.000671987,0.073702,20.9645,35.2309,-0.154497,0.0,0.0
30,7.25,27.0581,29.0515,154.844,98.9532,100.007,-0.000658361,0.0733142,20.965,35.251,-0.0947622,0.0,0.0
33,8,27.2164,28.4904,160.182,98.939,100.056,-0.000629856,0.0729111,20.9654,35.251,-0.100472,0.0,0.0
36,8.75,27.42,28.7825,161.363,98.9235,99.4824,-0.000609076,0.0725089,20.9657,35.281,-0.0503964,0.0,0.0
39,9.5,27.7241,28.7162,154.581,98.8923,99.7586,-0.000598993,0.0721585,20.9664,35.271,-0.0780258,0.0,0.0
42,10.25,27.4621,29.1044,156.086,98.8658,100.225,-0.000605348,0.0718679,20.967,35.301,-0.122139,0.0,0.0
45,11,27.3418,29.0444,156.36,98.8448,99.9908,-0.000633418,0.0715958,20.9675,35.301,-0.103117,0.0,0.0
48,11.75,27.4503,28.9061,158.262,98.8195,100.343,-0.000706219,0.0713173,20.9679,35.311,-0.136839,0.0,0.0
51,12.5,27.8802,29.1022,157.953,98.7902,100.282,-0.0007877,0.0710449,20.9681,35.251,-0.134117,0.0,0.0
54,13.25,27.247,29.7062,152.492,98.7451,100.694,-0.000881701,0.0707862,20.9685,35.271,-0.174793,0.0,0.0
57,14,27.7198,29.1601,154.529,98.7249,100.021,-0.000959815,0.070464,20.9692,35.261,-0.116705,0.0,0.0
60,14.75,27.7821,29.3622,157.536,98.6992,100.886,-0.00104209,0.0701229,20.9702,35.261,-0.195992,0.0,0.0
63,15.5,27.4676,28.9444,158.217,98.6754,99.8962,-0.00110206,0.0697901,20.971,35.2309,-0.109986,0.0,0.0
66,16.25,27.634,29.5994,153.486,98.6363,99.9024,-0.00114578,0.0693951,20.9717,35.251,-0.114093,0.0,0.0
69,17,28.0062,29.3123,157.106,98.6113,100.772,-0.0011741,0.0690271,20.9721,35.251,-0.193847,0.0,0.0
72,17.75,27.8976,29.5331,157.507,98.5931,99.4762,-0.00119714,0.0687246,20.9733,35.271,-0.0797697,0.0,0.0
75,18.5,27.6257,29.1484,155.407,98.5539,99.3144,-0.00120381,0.0683708,20.9738,35.251,-0.0687574,0.0,0.0
78,19.25,27.893,29.079,155.007,98.5124,99.4357,-0.0012056,0.0680637,20.9741,35.251,-0.0834484,0.0,0.0
81,20,28.2139,29.1468,159.866,98.4886,100.561,-0.00120064,0.0677558,20.9739,35.271,-0.186238,0.0,0.0
84,20.75,27.7518,29.1349,156.055,98.4665,100.432,-0.00119063,0.0673757,20.9742,35.271,-0.176834,0.0,0.0
87,21.5,28.1209,29.6179,156.796,98.4451,100.395,-0.00116558,0.0672168,20.9746,35.241,-0.175439,0.0,0.0
90,22.25,27.4893,29.2992,159.568,98.3988,100.28,-0.00113975,0.0670242,20.9749,35.241,-0.169382,0.0,0.0
93,23,28.0246,29.4781,158.151,98.3838,99.7559,-0.00112092,0.0668571,20.9751,35.241,-0.123898,0.0,0.0
96,23.75,27.4891,29.1299,159.357,98.3585,99.8409,-0.0010481,0.0667239,20.9752,35.2309,-0.133819,0.0,0.0
99,24.5,27.8635,29.2615,158.009,98.3438,100.452,-0.000961874,0.0665506,20.9753,35.2309,-0.189741,0.0,0.0
102,25.25,28.1325,29.7211,157.74,98.3046,99.8421,-0.00087367,0.0664244,20.9754,35.2209,-0.138819,0.0,0.0
105,26,27.5957,28.9364,156.129,98.292,99.3086,-0.000790193,0.0663056,20.9755,35.241,-0.0920441,0.0,0.0
108,26.75,27.32,29.4985,155.877,98.2754,99.8224,-0.00071752,0.0662077,20.9755,35.251,-0.139719,0.0,0.0
111,27.5,27.6471,29.5176,158.808,98.2781,99.5929,-0.000660991,0.0661553,20.9756,35.251,-0.11888,0.0,0.0
114,28.25,27.8861,29.7863,155.824,98.2314,100.08,-0.000618267,0.0661305,20.9756,35.251,-0.166813,0.0,0.0
117,29,27.9486,29.5962,157.611,98.2128,99.3627,-0.000592186,0.066104,20.9756,35.241,-0.10412,0.0,0.0
120,29.75,28.2788,29.7965,159.104,98.2591,100.211,-0.000573173,0.0660607,20.9756,35.2309,-0.17592,0.0,0.0
123,30.5,27.6391,29.5541,159.873,98.3173,100.324,-0.000572819,0.0660292,20.9756,35.251,-0.180724,0.0,0.0
126,31.25,28.0084,29.501,157.349,98.366,99.6918,-0.000578169,0.0659991,20.9756,35.241,-0.119765,0.0,0.0
129,32,27.6712,29.7552,158.058,98.3937,99.9816,-0.000591656,0.0659652,20.9756,35.251,-0.143207,0.0,0.0
132,32.75,27.5343,29.6832,159.95,98.4459,99.3685,-0.000608241,0.0659672,20.9752,35.241,-0.0834382,0.0,0.0
135,33.5,27.9654,29.5919,158.222,98.4958,100.017,-0.000617965,0.06598,20.9747,35.241,-0.137144,0.0,0.0
138,34.25,28.0623,30.12,158.644,98.5318,99.88,-0.000624044,0.0660274,20.9743,35.251,-0.121565,0.0,0.0
141,35,28.0852,29.7115,154.703,98.5456,99.8684,-0.000628476,0.066062,20.9747,35.251,-0.11927,0.0,0.0
144,35.75,28.2746,29.3127,159.543,98.5797,100.512,-0.000640149,0.0660871,20.975,35.241,-0.173644,0.0,0.0
147,36.5,28.1357,29.8085,159.815,98.6295,100.399,-0.000648658,0.0660674,20.9751,35.2309,-0.159042,0.0,0.0
150,37.25,28.318,29.6794,155.516,98.6549,99.8815,-0.000661293,0.0660264,20.9752,35.2009,-0.110537,0.0,0.0
153,38,28.5103,29.5272,158.828,98.6734,100.328,-0.000678383,0.0660118,20.9753,35.2009,-0.148792,0.0,0.0
156,38.75,28.0199,30.1693,158.661,98.6932,99.0621,-0.000695102,0.0660125,20.9754,35.2009,-0.0333723,0.0,0.0
159,39.5,28.2757,29.7529,158.358,98.7126,99.9344,-0.000707278,0.066013,20.9755,35.1909,-0.11004,0.0,0.0
162,40.25,27.8897,29.832,155.941,98.7205,100.437,-0.000716778,0.0660133,20.9755,35.2109,-0.154163,0.0,0.0
165,41,28.5344,29.7076,158.925,98.7316,100.045,-0.000724768,0.0659756,20.9747,35.2209,-0.118203,0.0,0.0
168,41.75,27.9669,30.0713,155.229,98.7352,100.008,-0.000720463,0.0659968,20.9741,35.2209,-0.114563,0.0,0.0
171,42.5,28.3845,30.0089,159.172,98.7534,99.8827,-0.000693651,0.0660955,20.9735,35.1909,-0.101711,0.0,0.0
174,43.25,28.8274,29.8079,154.128,98.7506,99.968,-0.000664013,0.0663387,20.9726,35.2009,-0.109606,0.0,0.0
177,44,28.0494,30.0155,160.748,98.753,100.236,-0.000617549,0.0666896,20.972,35.2209,-0.133349,0.0,0.0
180,44.75,28.1565,29.8398,155.643,98.7478,99.7451,-0.000572458,0.0670193,20.9715,35.2109,-0.0898885,0.0,0.0
183,45.5,28.1982,30.1294,160.573,98.7486,99.1514,-0.00053852,0.0675264,20.9712,35.2109,-0.0364067,0.0,0.0
186,46.25,28.0465,29.8893,155.162,98.7463,99.7606,-0.00051378,0.0679452,20.9709,35.2309,-0.0914171,0.0,0.0
189,47,28.0951,30.1963,154.659,98.7395,99.4353,-0.000541328,0.0683347,20.9709,35.2209,-0.062812,0.0,0.0
192,47.75,28.5862,29.9502,157.41,98.7103,99.1479,-0.000579166,0.0688092,20.9707,35.1909,-0.0395712,0.0,0.0
195,48.5,28.1416,30.0729,158.296,98.7051,98.4915,-0.00061868,0.0691551,20.9702,35.1709,0.0193773,0.0,0.0
198,49.25,28.1666,30.6477,156.596,98.7023,98.6982,-0.000654943,0.0696078,20.9698,35.1809,0.000374287,0.0,0.0
201,50,28.0277,29.9818,154.587,98.6604,98.7028,-0.000679703,0.0700373,20.9696,35.2109,-0.00384828,0.0,0.0
204,50.75,28.4786,29.8247,157.614,98.6264,97.3762,-0.000697753,0.0703745,20.9694,35.2009,0.11411,0.0,0.0
207,51.5,28.4675,30.4118,152.924,98.6125,98.4703,-0.000670391,0.0706394,20.9694,35.2009,0.0129118,0.0,0.0
210,52.25,28.0968,29.953,155.354,98.5967,99.0671,-0.000635493,0.0708048,20.9694,35.1609,-0.0425815,0.0,0.0
213,53,28.6357,30.0177,155.463,98.5662,98.0376,-0.000584484,0.0708781,20.9695,35.1609,0.0481022,0.0,0.0
216,53.75,28.1304,30.155,154.545,98.5334,97.2175,-0.000518598,0.0707789,20.9696,35.1609,0.12027,0.0,0.0
219,54.5,28.5088,30.2937,156.142,98.5163,97.7579,-0.000452811,0.0706715,20.9698,35.1509,0.0691335,0.0,0.0
222,55.25,28.7263,30.2765,149.968,98.4799,97.0583,-0.000389184,0.0705331,20.9704,35.1409,0.130075,0.0,0.0
225,56,28.5375,30.5748,155.122,98.4329,97.591,-0.00032895,0.0703119,20.9708,35.1208,0.0768325,0.0,0.0
228,56.75,28.7328,30.4467,156.868,98.3775,97.3569,-0.000254649,0.0701345,20.9707,35.1309,0.0932819,0.0,0.0
231,57.5,28.6275,30.3311,159.934,98.3296,97.9951,-0.000180543,0.0700653,20.9704,35.1309,0.0304792,0.0,0.0
234,58.25,28.1647,29.664,157.232,98.2916,97.9418,-9.24187e-05,0.071064,20.9684,35.0608,0.0318904,0.0,0.0
237,59,28.4092,30.334,152.75,98.2326,95.6552,3.9455e-05,0.0742352,20.9625,35.1108,0.237842,0.0,1.0
240,59.75,28.4083,30.4503,157.944,98.1487,97.8846,0.000201888,0.0775885,20.9564,35.0708,0.0241037,0.0,1.0
243,60.5,28.9075,30.3478,148.865,98.1131,94.7199,0.000433671,0.0885479,20.9415,35.0408,0.314848,0.0,1.0
246,61.25,28.3605,30.7811,149.743,98.0609,90.8695,0.00085457,0.105362,20.9109,34.9907,0.681315,0.0,1.0
249,62,28.8451,30.6949,147.364,97.9833,88.761,0.00151243,0.126069,20.8764,34.9507,0.884249,0.0,1.0
252,62.75,28.8732,31.3157,145.01,97.9137,84.2693,0.00216972,0.149177,20.8462,34.8006,1.34242,0.0,1.0
255,63.5,29.2823,31.7313,147.213,97.88,81.1849,0.00295277,0.177515,20.8031,34.8706,1.6729,0.0,1.0
258,64.25,29.6442,32.1734,143.767,97.8963,78.5649,0.00399346,0.208262,20.7644,34.7305,1.96782,0.0,0.0
261,65,30.1295,32.6995,148.421,97.9133,76.988,0.00495243,0.239549,20.7238,34.6905,2.15076,0.0,0.0
264,65.75,30.5888,33.3462,141.333,97.8959,73.4632,0.00614373,0.276951,20.6803,34.5804,2.56838,0.0,0.0
267,66.5,30.5138,33.734,136.511,97.903,71.0557,0.00733789,0.311784,20.6345,34.5003,2.8671,0.0,0.0
270,67.25,32.0986,35.2739,144.867,97.9208,71.1596,0.00851682,0.350115,20.5871,34.4202,2.85565,0.0,0.0
273,68,32.3217,36.0207,138.932,97.9283,66.6362,0.00966619,0.390375,20.543,34.3101,3.44385,0.0,0.0
276,68.75,33.0207,37.1369,144.258,97.943,69.291,0.0107536,0.430053,20.4944,34.2,3.09572,0.0,0.0
279,69.5,33.9572,37.776,136.958,97.9493,64.4786,0.0119731,0.46766,20.439,34.0799,3.74019,0.0,0.0
282,70.25,34.6021,38.6558,132.853,97.9754,62.459,0.013209,0.509232,20.3919,33.9698,4.02725,0.0,0.0
285,71,35.1723,40.6159,134.554,97.9992,63.2907,0.0142577,0.539539,20.3464,33.8697,3.91108,0.0,0.0
288,71.75,36.3285,41.16,126.019,98.0178,65.0863,0.0155806,0.5768,20.2975,33.7196,3.66253,0.0,0.0
291,72.5,36.7226,42.4916,124.779,98.0336,58.9006,0.0166992,0.615033,20.2553,33.5995,4.55728,0.0,0.0
294,73.25,38.3346,43.6627,138.225,98.0435,60.2083,0.0177782,0.650774,20.2029,33.4894,4.36176,0.0,0.0
297,74,39.2344,44.8373,133.894,98.0823,61.1826,0.0188187,0.686523,20.159,33.3093,4.2217,0.0,0.0
300,74.75,39.7605,46.4516,136.828,98.0929,58.41,0.0197866,0.716718,20.1173,33.2492,4.63752,0.0,0.0
303,75.5,41.0163,47.6742,132.402,98.1064,59.4635,0.0206648,0.752005,20.0671,33.069,4.47885,0.0,0.0
306,76.25,41.8809,48.9161,120.527,98.1143,58.9489,0.0215496,0.782055,20.0214,32.8789,4.55731,0.0,0.0
309,77,42.7272,50.3357,124.602,98.1456,60.5988,0.022356,0.811357,19.979,32.7588,4.31323,0.0,0.0
312,77.75,43.7724,51.7397,127.559,98.1594,60.1932,0.0230128,0.842135,19.9392,32.6186,4.37457,0.0,0.0
315,78.5,44.5254,53.331,135.913,98.1713,58.8624,0.0237759,0.86901,19.8993,32.4785,4.57565,0.0,0.0
318,79.25,45.7647,54.5352,123.49,98.1677,57.8838,0.0246342,0.896192,19.8656,32.3184,4.72528,0.0,0.0
321,80,47.0195,56.041,119.346,98.2128,55.8201,0.0255688,0.926779,19.8262,32.0582,5.05414,0.0,0.0
324,80.75,47.7822,57.1956,125.276,98.233,57.343,0.0267705,0.958789,19.7918,31.9581,4.81521,0.0,0.0
327,81.5,48.8759,58.5866,118.503,98.2461,55.856,0.0281675,0.986265,19.757,31.7179,5.05141,0.0,0.0
330,82.25,50.1493,60.2784,116.33,98.2678,53.1236,0.0296975,1.0245,19.7053,31.6278,5.50206,0.0,0.0
333,83,50.7957,60.97,118.94,98.2955,50.0439,0.0318299,1.06661,19.6472,31.3876,6.0388,0.0,0.0
336,83.75,52.2898,63.419,120.015,98.3149,50.5179,0.0339094,1.10338,19.5962,31.1774,5.95624,0.0,0.0
339,84.5,53.541,65.0079,103.833,98.3296,47.7461,0.0363233,1.16218,19.514,30.9572,6.46236,0.0,0.0
342,85.25,55.0938,67.1147,112.34,98.3296,45.2234,0.0388773,1.21874,19.454,30.707,6.94793,0.0,0.0
345,86,56.553,68.9438,107.525,98.3565,44.3117,0.0420974,1.28341,19.3628,30.4067,7.13256,0.0,0.0
348,86.75,57.6908,71.7949,107.368,98.3699,43.7832,0.0459858,1.36945,19.2625,30.1865,7.24111,0.0,0.0
351,87.5,59.4651,73.967,106.975,98.3806,43.1516,0.0495463,1.45546,19.175,29.8562,7.37207,0.0,0.0
354,88.25,61.3429,76.1337,106.475,98.3818,38.0897,0.0540345,1.55795,19.0507,29.626,8.48834,0.0,0.0
357,89,62.745,79.3933,102.62,98.3838,38.1681,0.0584203,1.67344,18.8706,29.1556,8.47012,0.0,0.0
360,89.75,64.8751,82.2776,96.1284,98.3949,35.8062,0.0635591,1.775,18.7025,28.9654,9.04256,0.0,0.0
363,90.5,67.1585,85.0523,100.321,98.3949,38.4946,0.0687874,1.89563,18.5642,28.5251,8.39495,0.0,0.0
366,91.25,69.3742,87.8752,102.775,98.4048,36.437,0.0732307,2.01398,18.4455,28.3149,8.88722,0.0,0.0
369,92,71.5981,91.3273,97.4909,98.3964,36.5027,0.0764698,2.12943,18.3281,27.8244,8.87036,0.0,0.0
372,92.75,73.3253,94.5577,98.161,98.4071,36.3497,0.0826183,2.24128,18.2236,27.4541,8.9089,0.0,0.0
375,93.5,75.7743,98.2607,91.2717,98.4075,32.6449,0.0899529,2.37079,18.1151,27.0738,9.87053,0.0,0.0
378,94.25,77.7246,101.237,90.0696,98.3957,32.2428,0.0974167,2.4652,17.9969,26.7235,9.98033,0.0,0.0
381,95,79.7392,104.921,91.7778,98.381,33.6892,0.105947,2.6145,17.8575,26.243,9.58646,0.0,0.0
384,95.75,82.1295,108.8,91.3946,98.3976,32.8516,0.114848,2.75765,17.6935,25.8327,9.81317,0.0,0.0
387,96.5,85.4426,112.852,88.9353,98.3779,30.2239,0.123672,2.95989,17.4243,25.2922,10.5571,0.0,0.0
390,97.25,87.5655,116.963,86.2654,98.3644,30.6763,0.133989,3.14206,17.1441,24.8418,10.423,0.0,0.0
393,98,91.3376,122.295,87.9866,98.3628,29.6104,0.144285,3.33425,16.8733,24.3614,10.7392,0.0,0.0
396,98.75,94.3416,126.649,87.0989,98.3466,29.6525,0.152975,3.55226,16.6237,23.901,10.725,0.0,0.0
399,99.5,97.8728,132.223,85.6593,98.3335,29.2175,0.164461,3.75863,16.3919,23.2905,10.856,0.0,0.0
402,100.25,100.831,136.801,86.5615,98.3248,26.9054,0.175396,3.95375,16.2016,22.8701,11.5927,0.0,0.0
405,101,102.611,141.939,82.4521,98.3066,28.1641,0.184458,4.13781,15.9869,22.3096,11.1821,0.0,0.0
408,101.75,106.375,146.615,69.5665,98.2813,29.2531,0.195486,4.32629,15.7779,21.7791,10.8404,0.0,0.0
411,102.5,109.917,152.075,79.0479,98.2619,28.6512,0.206138,4.48684,15.5704,21.2387,11.0246,0.0,0.0
414,103.25,112.988,157.314,74.9819,98.2421,28.6021,0.216363,4.6759,15.363,20.7382,11.0381,0.0,0.0
417,104,116.364,162.297,85.2449,98.2255,32.4101,0.226119,4.86232,15.1369,19.9575,9.91856,0.0,0.0
420,104.75,119.329,167.92,87.0508,98.2037,27.8612,0.236127,5.01894,14.9254,19.4971,11.2694,0.0,0.0
423,105.5,121.322,172.777,90.5573,98.2065,25.2748,0.244659,5.2401,14.6912,18.8666,12.1412,0.0,0.0
426,106.25,125.87,178.662,75.1239,98.1721,30.5415,0.253887,5.46922,14.4824,18.2761,10.4449,0.0,0.0
429,107,129.025,184.599,70.0901,98.1416,28.9425,0.262726,5.69272,14.2651,17.6055,10.9232,0.0,0.0
432,107.75,132.548,191.466,65.5967,98.1226,34.7322,0.270587,5.90273,14.038,16.9048,9.29018,0.0,0.0
435,108.5,135.847,196.688,64.8311,98.1072,32.3533,0.277327,6.09174,13.8597,16.2343,9.92347,0.0,0.0
438,109.25,139.226,201.634,71.2838,98.0637,28.341,0.282728,6.24484,13.7079,15.6337,11.1039,0.0,0.0
441,110,141.559,207.122,74.1766,98.0415,28.3163,0.286498,6.37994,13.5972,15.0332,11.1097,0.0,0.0
444,110.75,144.993,211.673,66.0264,98.0087,32.7686,0.288796,6.47397,13.5165,14.4927,9.80039,0.0,0.0
447,111.5,147.481,217.592,69.0352,97.9841,29.4435,0.289193,6.5349,13.4719,13.682,10.7553,0.0,0.0
450,112.25,150.242,220.885,71.7418,97.9485,30.6241,0.289484,6.54735,13.4635,13.1916,10.4003,0.0,0.0
453,113,152.614,224.687,69.081,97.9157,29.2376,0.287706,6.52996,13.4756,12.6211,10.8118,0.0,0.0
456,113.75,155.166,228.228,70.1481,97.8836,31.299,0.284597,6.48942,13.5156,12.0606,10.1994,0.0,0.0
459,114.5,156.96,231.436,76.5039,97.8539,32.106,0.280682,6.43155,13.5629,11.33,9.96897,0.0,0.0
462,115.25,158.592,234.247,76.8069,97.8199,30.8184,0.277828,6.34608,13.6281,10.8195,10.332,0.0,0.0
465,116,160.437,237.009,80.6706,97.7835,32.3738,0.268798,6.26532,13.7001,10.199,9.88825,0.0,0.0
468,116.75,161.936,239.168,73.2416,97.7526,31.9677,0.258695,6.11305,13.8422,9.74856,9.99832,0.0,0.0
471,117.5,163.579,240.596,96.6757,97.7127,32.232,0.247875,6.00205,14.0277,9.18807,9.92102,0.0,0.0
474,118.25,164.44,241.475,81.8407,97.683,34.3328,0.236647,5.82152,14.2953,8.74768,9.35349,0.0,0.0
477,119,165.278,242.295,94.1645,97.6513,33.7606,0.223093,5.64745,14.6026,8.35734,9.50091,0.0,0.0
480,119.75,166.188,242.928,97.1688,97.6292,35.3515,0.213213,5.40946,14.8745,7.86691,9.08699,0.0,0.0
483,120.5,166.172,242.368,81.0652,97.5884,37.0459,0.199632,5.18377,15.133,7.47657,8.66447,0.0,0.0
486,121.25,167.469,242.685,90.1115,97.5476,37.1679,0.187023,4.94534,15.3757,6.93609,8.6313,0.0,0.0
489,122,167.277,243.213,88.0553,97.5093,34.7693,0.176677,4.74949,15.6013,6.57578,9.22454,0.0,0.0
492,122.75,167.618,242.372,95.7552,97.4816,37.1193,0.165171,4.52921,15.8425,6.1454,8.63696,0.0,0.0
495,123.5,166.938,242.327,96.246,97.4523,35.8831,0.153711,4.33415,16.1017,5.84513,8.93726,0.0,0.0
498,124.25,167.446,240.803,98.6106,97.4297,39.1571,0.144155,4.133,16.3262,5.4648,8.15412,0.0,0.0
501,125,167.028,240.005,101.198,97.3996,38.7406,0.135132,3.93311,16.582,5.08447,8.247,0.0,0.0
504,125.75,166.54,238.538,107.626,97.3712,43.9934,0.125412,3.73209,16.8391,4.88429,7.10698,0.0,0.0
507,126.5,166.513,236.5,104.612,97.3332,43.8802,0.118326,3.52982,17.0567,4.46392,7.12654,0.0,0.0
510,127.25,165.73,235.087,109.544,97.3185,45.9315,0.108709,3.31346,17.269,4.31379,6.71649,0.0,0.0
513,128,164.786,233.171,103.177,97.2892,44.5756,0.0997598,3.10056,17.4792,3.99351,6.98186,0.0,0.0
516,128.75,163.369,231.121,103.526,97.2651,47.0326,0.0914417,2.92184,17.6877,3.74329,6.49968,0.0,0.0
519,129.5,162.993,229.148,116.36,97.2406,48.7393,0.0837223,2.72169,17.9258,3.45303,6.17857,0.0,0.0
522,130.25,161.448,226.075,119.653,97.2228,51.8557,0.0757447,2.51426,18.1912,3.27287,5.6225,0.0,0.0
525,131,159.668,223.423,120.046,97.2073,53.1823,0.0684534,2.30881,18.4519,3.08271,5.39511,0.0,0.0
528,131.75,158.765,220.557,124.529,97.1848,54.1018,0.0618421,2.09386,18.69,2.99263,5.23971,0.0,0.0
531,132.5,156.105,217.118,124.606,97.1594,56.5792,0.055882,1.91479,18.9278,2.88253,4.83685,0.0,0.0
534,133.25,155.021,213.834,124.423,97.159,57.6281,0.0506437,1.72744,19.1012,2.74241,4.6725,0.0,0.0
537,134,153.174,210.624,131.193,97.1452,61.254,0.0452974,1.55914,19.2833,2.59228,4.12538,0.0,0.0
540,134.75,151.227,207.646,130.4,97.1424,63.0299,0.0399894,1.39508,19.4489,2.51221,3.86947,0.0,0.0
543,135.5,149.3,204.071,136.237,97.1207,64.7135,0.0353457,1.26122,19.5979,2.45215,3.63167,0.0,0.0
546,136.25,147.088,201.313,130.237,97.1187,64.1939,0.0316304,1.13925,19.7307,2.36207,3.7036,0.0,0.0
549,137,145.917,197.371,134.323,97.1262,68.8656,0.0279156,1.0243,19.8275,2.34206,3.07589,0.0,0.0
552,137.75,143.65,194.261,133.343,97.1151,69.0963,0.0252076,0.921534,19.9462,2.25198,3.04496,0.0,0.0
555,138.5,141.913,191.318,136.613,97.1001,73.4365,0.0221066,0.833174,20.0512,2.20193,2.49862,0.0,0.0
558,139.25,140.56,187.725,138.532,97.1218,76.2999,0.0193928,0.749725,20.1438,2.1619,2.15846,0.0,0.0
561,140,138.187,184.838,140.679,97.1211,77.8116,0.0172212,0.688891,20.2254,2.12186,1.98289,0.0,0.0
564,140.75,135.679,182.661,137.562,97.1365,79.9611,0.0152013,0.625542,20.2944,2.07182,1.74056,0.0,0.0
567,141.5,134.435,178.839,146.302,97.1191,84.0282,0.0134234,0.571261,20.3611,2.0518,1.29515,0.0,0.0
570,142.25,132.857,175.908,142.014,97.1357,85.6863,0.0119236,0.514882,20.4369,2.02178,1.12189,0.0,0.0
573,143,131.034,172.711,141.63,97.1583,88.0494,0.0106125,0.460836,20.5052,2.02178,0.88061,0.0,0.0
576,143.75,128.666,170.782,145.707,97.1685,91.0012,0.00960308,0.415918,20.5605,2.00176,0.586582,0.0,0.0
579,144.5,127.704,167.057,143.687,97.1784,92.6334,0.00877559,0.372809,20.62,2.01177,0.428472,0.0,0.0
582,145.25,125.699,164.368,147.327,97.1994,92.9421,0.00811468,0.333257,20.6706,2.02178,0.400644,0.0,0.0
585,146,123.793,161.916,148.084,97.2319,93.9558,0.00763533,0.29808,20.7135,1.99175,0.306594,0.0,0.0
588,146.75,121.935,159.5,143.826,97.2469,93.578,0.00728693,0.264849,20.7499,1.99175,0.344022,0.0,0.0
591,147.5,120.764,156.215,144.594,97.256,94.837,0.00711012,0.238458,20.7786,1.98174,0.225309,0.0,0.0
594,148.25,118.807,153.676,144.058,97.2797,93.581,0.00701414,0.214263,20.8035,1.98174,0.346747,0.0,0.0
597,149,117.419,151.115,150.309,97.3181,95.311,0.00704923,0.194485,20.8243,1.99175,0.186423,0.0,0.0
600,149.75,115.444,149.347,145.219,97.3541,94.9335,0.00715355,0.177803,20.8426,2.00176,0.225226,0.0,0.0
603,150.5,114.545,146.3,143.167,97.3739,94.0354,0.00730013,0.164676,20.8583,2.00176,0.312081,0.0,0.0
606,151.25,113.228,144.264,145.512,97.4044,95.1762,0.00747022,0.153131,20.8721,1.98174,0.207012,0.0,0.0
609,152,110.877,141.65,143.762,97.4622,93.9334,0.00765228,0.14334,20.8799,1.99175,0.329891,0.0,0.0
612,152.75,109.439,139.078,143.076,97.4768,94.679,0.00790823,0.135292,20.8897,1.98174,0.260512,0.0,0.0
615,153.5,108.197,137.091,150.271,97.5021,93.9264,0.00817282,0.128336,20.8981,1.99175,0.334221,0.0,0.0
618,154.25,106.582,134.929,147.555,97.5354,95.4157,0.00840229,0.12264,20.9042,1.98174,0.19655,0.0,0.0
621,155,105.532,133.198,146.264,97.5674,95.6772,0.00863211,0.119541,20.9093,1.98174,0.175003,0.0,0.0
624,155.75,104.4,131.464,145.412,97.6098,95.7035,0.00883941,0.115472,20.9134,1.98174,0.176429,0.0,0.0
627,156.5,102.563,129.064,145.741,97.6434,95.5914,0.00902974,0.112076,20.9172,1.97173,0.189988,0.0,0.0
630,157.25,101.991,127.222,143.671,97.6782,96.2884,0.00920656,0.109222,20.92,1.98174,0.128198,0.0,0.0
633,158,100.877,125.666,147.636,97.7186,95.2387,0.009394,0.107013,20.9222,1.97173,0.22994,0.0,0.0
636,158.75,99.6145,123.891,147.622,97.7677,95.085,0.00958317,0.105182,20.9243,1.96172,0.248885,0.0,0.0
639,159.5,97.7355,121.251,146.489,97.7965,95.4783,0.00976823,0.103809,20.9258,1.95171,0.214605,0.0,0.0
642,160.25,97.4647,120.061,144.219,97.8254,94.8841,0.0099548,0.102768,20.9268,1.96172,0.273088,0.0,0.0
645,161,96.1874,118.39,147.646,97.886,96.1095,0.0100908,0.101991,20.9276,1.94171,0.163835,0.0,0.0
648,161.75,95.3215,116.942,146.843,97.9165,95.5076,0.0101952,0.101406,20.9282,1.94171,0.222815,0.0,0.0
651,162.5,93.7372,115.391,148.635,97.9532,95.3172,0.0102803,0.101006,20.9276,1.92169,0.244033,0.0,0.0
654,163.25,92.6934,113.29,150.124,97.9893,95.8522,0.0103352,0.100726,20.9268,1.95171,0.197248,0.0,0.0
657,164,92.2994,112.442,148.546,98.0276,96.0303,0.010374,0.100565,20.926,1.95171,0.184146,0.0,0.0
660,164.75,91.4171,110.952,147.429,98.0862,96.1419,0.0104018,0.100521,20.9254,1.94171,0.179096,0.0,0.0
663,165.5,90.6328,109.36,150.168,98.1179,96.1671,0.0104487,0.100529,20.925,1.92169,0.179647,0.0,0.0
666,166.25,89.7391,108.202,147.629,98.1475,96.4363,0.0105105,0.100581,20.9247,1.91168,0.15734,0.0,0.0
669,167,88.0224,106.245,142.455,98.1927,95.1831,0.0105791,0.100668,20.9244,1.89166,0.27846,0.0,0.0
672,167.75,87.8027,104.548,148.661,98.239,96.4429,0.0106494,0.100799,20.9237,1.89166,0.165058,0.0,0.0
675,168.5,86.9607,103.931,146.44,98.2904,96.5569,0.0106973,0.100923,20.9231,1.90167,0.159177,0.0,0.0
678,169.25,86.5699,102.997,147.072,98.3137,96.7172,0.0107266,0.101265,20.9227,1.90167,0.146461,0.0,0.0
681,170,84.8794,101.14,147.53,98.3482,96.2308,0.010708,0.101637,20.9221,1.90167,0.194692,0.0,0.0
684,170.75,84.1225,100.053,146.379,98.3976,96.2014,0.0106484,0.102003,20.9214,1.91168,0.201919,0.0,0.0
687,171.5,83.7161,99.4032,149.273,98.459,96.7272,0.0105554,0.102343,20.9208,1.90167,0.158736,0.0,0.0
690,172.25,83.3182,97.8249,146.947,98.4697,96.1466,0.0104165,0.102633,20.9204,1.91168,0.213566,0.0,0.0
693,173,82.2869,97.076,145.605,98.4997,96.7601,0.0102729,0.102919,20.9201,1.88165,0.159402,0.0,0.0
696,173.75,81.5733,95.7379,147.593,98.5488,96.0052,0.0101337,0.103301,20.9199,1.86164,0.233917,0.0,0.0
699,174.5,80.913,94.3656,145.742,98.5868,96.4139,0.0100043,0.103647,20.9197,1.86164,0.199363,0.0,0.0
702,175.25,80.2297,93.5941,147.123,98.6097,96.9915,0.0098994,0.103929,20.9196,1.85163,0.148021,0.0,0.0
705,176,79.9104,92.7465,143.651,98.6422,96.1493,0.00980505,0.104115,20.9195,1.84162,0.228974,0.0,0.0
708,176.75,79.0529,91.7768,148.504,98.6778,96.8049,0.00974124,0.104278,20.9194,1.85163,0.171417,0.0,0.0
711,177.5,78.2351,90.3014,147.525,98.7142,96.0666,0.00969422,0.104436,20.9194,1.83161,0.243197,0.0,0.0
714,178.25,77.361,89.6675,144.519,98.7316,96.711,0.00965547,0.104601,20.9193,1.85163,0.184973,0.0,0.0
717,179,77.6205,88.913,147.501,98.7577,97.0672,0.00962585,0.104785,20.9191,1.84162,0.154454,0.0,0.0
720,179.75,76.8805,87.8448,147.759,98.7957,96.8995,0.00957117,0.10503,20.9185,1.83161,0.173359,0.0,0.0
723,180.5,75.5654,87.1808,144.576,98.8207,97.5026,0.00951789,0.105344,20.9181,1.83161,0.120118,0.0,0.0
726,181.25,75.4316,86.1137,143.496,98.8302,95.7552,0.0094755,0.105641,20.9178,1.83161,0.282739,0.0,0.0
729,182,75.0424,85.3213,148.386,98.8598,96.1539,0.0094446,0.105813,20.9176,1.8216,0.248257,0.0,0.0
732,182.75,74.3679,84.581,149.14,98.8737,96.9154,0.00944512,0.106093,20.917,1.81159,0.178953,0.0,0.0
735,183.5,74.0583,83.6498,145.671,98.9113,97.7981,0.00947286,0.106354,20.9164,1.80158,0.101246,0.0,0.0
738,184.25,72.9038,82.5293,146.666,98.9493,97.4566,0.00950474,0.10658,20.9159,1.80158,0.135971,0.0,0.0
741,185,73.2816,81.9871,153.215,98.9299,96.8327,0.00959774,0.106786,20.9155,1.79157,0.191668,0.0,0.0
744,185.75,72.212,81.3188,147.623,98.9524,98.2655,0.00965987,0.106954,20.9153,1.78156,0.0623121,0.0,0.0
747,186.5,72.0332,80.9035,148.247,98.9797,97.2812,0.00977258,0.107018,20.915,1.80158,0.154839,0.0,0.0
750,187.25,71.0825,79.5312,150.825,98.9936,96.4537,0.00986223,0.107065,20.9149,1.76155,0.232506,0.0,0.0
753,188,70.3494,79.2336,148.245,99.0015,97.7529,0.00993078,0.107157,20.915,1.76155,0.113536,0.0,0.0
756,188.75,70.718,78.6121,149.23,99.0055,96.9969,0.00998075,0.107245,20.9151,1.75154,0.183347,0.0,0.0
759,189.5,69.8851,77.8202,148.396,99.0256,98.0674,0.0100172,0.107347,20.9151,1.73152,0.0869869,0.0,0.0
762,190.25,69.6453,76.7913,145.569,99.0237,97.7436,0.0100437,0.10748,20.9152,1.74153,0.116387,0.0,0.0
765,191,68.7954,76.8536,145.626,99.0316,98.1245,0.0100581,0.107619,20.9152,1.73152,0.0823095,0.0,0.0
768,191.75,68.5147,75.7782,150.187,99.0359,97.596,0.0100619,0.107737,20.9152,1.69149,0.131011,0.0,0.0
771,192.5,68.2653,75.08,149.795,99.0434,97.6254,0.0100567,0.107765,20.9152,1.70149,0.128999,0.0,0.0
774,193.25,67.7509,74.7213,144.825,99.0545,97.1085,0.0100423,0.107785,20.9152,1.69149,0.177488,0.0,0.0
777,194,67.3639,74.1262,150.964,99.0434,97.1294,0.0100318,0.107664,20.9155,1.66146,0.174566,0.0,0.0
780,194.75,66.8511,73.0975,146.473,99.0355,96.8578,0.0100235,0.107535,20.916,1.66146,0.198899,0.0,0.0
783,195.5,65.7747,71.8996,146.115,99.0454,96.3892,0.0100164,0.107388,20.9164,1.67147,0.243174,0.0,0.0
786,196.25,65.8451,72.1552,146.925,99.0442,98.0357,0.00999341,0.107219,20.9167,1.69149,0.0915563,0.0,0.0
789,197,65.9053,71.5423,151.347,99.0256,97.4523,0.00994641,0.107097,20.917,1.67147,0.143264,0.0,0.0
792,197.75,65.4857,70.9016,146.33,99.0122,97.3388,0.00987231,0.107065,20.9171,1.68148,0.15248,0.0,0.0
795,198.5,65.406,70.7764,147.552,99.0165,98.2524,0.00977146,0.107057,20.9172,1.67147,0.0693017,0.0,0.0
798,199.25,64.1265,69.6514,147.611,98.9983,97.8788,0.0096754,0.107075,20.9173,1.67147,0.101733,0.0,0.0
801,200,64.1792,69.6401,148.691,98.9975,97.7243,0.0095886,0.107045,20.9174,1.68148,0.115795,0.0,0.0
804,200.75,64.3303,69.53,149.074,98.9778,98.7256,0.00951786,0.10695,20.9174,1.67147,0.0228146,0.0,0.0
807,201.5,64.0789,68.2155,147.207,98.9671,97.557,0.00946508,0.106862,20.9175,1.66146,0.128367,0.0,0.0
810,202.25,63.5457,68.1198,146.613,98.9441,97.0884,0.00942995,0.106811,20.9175,1.66146,0.169363,0.0,0.0
813,203,62.4165,67.5338,148.675,98.9275,97.2901,0.00940958,0.106758,20.9175,1.64144,0.1493,0.0,0.0
816,203.75,62.0807,66.4354,148.973,98.9038,98.5348,0.00940367,0.106682,20.9175,1.64144,0.0334331,0.0,0.0
819,204.5,62.7049,66.6783,149.929,98.884,97.4894,0.00943128,0.106647,20.9175,1.61142,0.127053,0.0,0.0
822,205.25,61.9982,66.4814,147.498,98.8741,97.9395,0.00946883,0.106621,20.9175,1.61142,0.0849569,0.0,0.0
825,206,62.0134,66.0402,147.208,98.8499,96.7002,0.00950624,0.106622,20.9175,1.62142,0.196687,0.0,0.0
828,206.75,61.8196,65.4607,145.331,98.8187,97.0873,0.00953799,0.106601,20.9175,1.5914,0.158122,0.0,0.0
831,207.5,60.8062,64.5518,154.874,98.7957,97.7749,0.00956114,0.106541,20.9175,1.60141,0.0929093,0.0,0.0
834,208.25,61.3979,65.0072,151.968,98.7799,97.445,0.00953898,0.106486,20.9168,1.5914,0.121711,0.0,0.0
837,209,61.0422,64.2686,151.606,98.7597,96.5441,0.00951955,0.106329,20.916,1.5914,0.202968,0.0,0.0
840,209.75,60.3638,64.1665,151.557,98.7316,96.7759,0.00949975,0.106215,20.9158,1.5914,0.178972,0.0,0.0
843,210.5,60.4208,63.4643,148.156,98.6936,97.2974,0.00949154,0.105982,20.9156,1.5914,0.127453,0.0,0.0
846,211.25,60.1369,63.583,152.87,98.679,97.4002,0.00948821,0.105749,20.9155,1.60141,0.116683,0.0,0.0
849,212,60.1942,62.6389,150.83,98.6545,97.829,0.00948045,0.105577,20.9154,1.61142,0.0751619,0.0,0.0
852,212.75,59.4516,62.7825,148.089,98.6196,96.3131,0.00946735,0.105366,20.9156,1.60141,0.211701,0.0,0.0
855,213.5,59.9485,62.3537,151.816,98.5919,97.7394,0.00945526,0.105066,20.9161,1.58139,0.0776909,0.0,0.0
858,214.25,59.0972,62.0907,145.09,98.5832,97.6698,0.00944757,0.104738,20.9165,1.5914,0.0832667,0.0,0.0
861,215,59.0821,61.4469,148.864,98.5547,96.6264,0.00946186,0.104439,20.9167,1.58139,0.176762,0.0,0.0
864,215.75,58.9729,61.2599,149.865,98.5231,97.5481,0.00950813,0.104196,20.9169,1.58139,0.0889594,0.0,0.0
867,216.5,58.1367,61.0401,154.156,98.4795,96.6928,0.00955353,0.104019,20.9171,1.58139,0.163786,0.0,0.0
870,217.25,58.1962,60.9482,147.829,98.4705,97.3067,0.00959246,0.103904,20.9174,1.55136,0.106349,0.0,0.0
873,218,57.4149,59.9503,147.107,98.4586,97.1298,0.00965763,0.103852,20.9182,1.56137,0.12155,0.0,0.0
876,218.75,57.9224,60.0398,149.546,98.4234,96.5101,0.00971046,0.103827,20.9185,1.56137,0.1756,0.0,0.0
879,219.5,58.1074,59.891,150.28,98.3901,98.1068,0.00974308,0.103726,20.9188,1.55136,0.0257998,0.0,0.0
882,220.25,57.3437,59.5704,148.732,98.3707,96.5858,0.00975677,0.103651,20.9191,1.54135,0.1638,0.0,0.0
885,221,57.0719,59.5914,144.919,98.3771,97.6509,0.00974189,0.103536,20.9193,1.52134,0.0662739,0.0,0.0
888,221.75,57.1062,58.9347,144.532,98.3395,96.891,0.00971113,0.103441,20.9196,1.52134,0.132737,0.0,0.0
891,222.5,56.5765,58.7083,148.944,98.3074,97.2279,0.00967563,0.103237,20.9203,1.51133,0.0987731,0.0,0.0
894,223.25,56.2204,58.1466,152.045,98.294,96.7044,0.00964192,0.102897,20.9208,1.49131,0.14584,0.0,0.0
897,224,55.9786,58.4727,149.223,98.2884,98.2002,0.00960752,0.102505,20.9211,1.49131,0.00802934,0.0,0.0
900,224.75,55.5528,58.0533,145.638,98.2785,96.8995,0.00956566,0.102109,20.9214,1.49131,0.126407,0.0,0.0
903,225.5,56.1788,57.3253,147.946,98.2544,96.9551,0.00950856,0.101807,20.9215,1.49131,0.119075,0.0,0.0
906,226.25,55.8339,57.3249,151.379,98.2279,97.484,0.00944829,0.101581,20.9217,1.49131,0.0679991,0.0,0.0
909,227,55.3962,56.2752,153.976,98.2773,97.423,0.00939249,0.101435,20.9218,1.4813,0.0781053,0.0,0.0
912,227.75,55.3436,56.3257,149.046,98.3042,98.0214,0.00935295,0.101356,20.9218,1.50132,0.0257774,0.0,0.0
915,228.5,55.1568,56.6984,154.19,98.3541,97.3279,0.00933754,0.101325,20.9219,1.50132,0.0938211,0.0,0.0
918,229.25,55.0333,56.1686,148.214,98.3877,97.7892,0.00935367,0.101326,20.9219,1.49131,0.0545847,0.0,0.0
921,230,54.9141,56.2217,153.774,98.4467,96.0338,0.0093771,0.101307,20.922,1.4813,0.221982,0.0,0.0
924,230.75,55.0079,56.2286,149.591,98.4728,98.5464,0.00939418,0.101226,20.922,1.50132,-0.00668009,0.0,0.0
927,231.5,54.1614,55.8185,148.24,98.5088,97.4844,0.00943856,0.101095,20.9222,1.47129,0.093514,0.0,0.0
930,232.25,54.246,55.5644,149.05,98.5294,98.2373,0.0094696,0.100927,20.9225,1.47129,0.0265568,0.0,0.0
933,233,54.673,55.3609,148.055,98.5773,98.0913,0.00948999,0.100804,20.9233,1.46128,0.0442099,0.0,0.0
936,233.75,53.9401,54.9022,149.154,98.6153,98.6426,0.00950663,0.100647,20.9239,1.45127,-0.00247591,0.0,0.0
939,234.5,53.1351,54.2137,145.294,98.6323,97.4187,0.00952497,0.100505,20.9244,1.46128,0.110746,0.0,0.0
942,235.25,53.6525,55.0214,150.655,98.6426,98.1589,0.00954428,0.100362,20.9247,1.43126,0.04397,0.0,0.0
945,236,53.6741,54.7351,149.815,98.6746,97.6235,0.00956395,0.100258,20.9249,1.46128,0.0958048,0.0,0.0
948,236.75,53.4035,54.1847,151.442,98.7027,98.223,0.00956941,0.100161,20.9255,1.45127,0.0435806,0.0,0.0
951,237.5,53.1718,54.2522,149.808,98.7154,97.9831,0.0095734,0.100054,20.9261,1.45127,0.0666031,0.0,0.0
954,238.25,52.5093,53.012,150.404,98.7265,98.3188,0.00953905,0.099879,20.9266,1.44127,0.0370116,0.0,0.0
957,239,52.796,53.9695,150.69,98.7506,98.3513,0.00950028,0.0996703,20.9269,1.43126,0.0362448,0.0,0.0
960,239.75,52.9085,53.3346,149.52,98.7668,98.7739,0.00944853,0.0994834,20.9272,1.44127,-0.000641976,0.0,0.0
963,240.5,52.5845,53.366,148.435,98.77,98.1481,0.00937714,0.099212,20.9278,1.43126,0.0565029,0.0,0.0
966,241.25,52.7809,53.5254,147.939,98.7668,97.9549,0.00931021,0.0989927,20.9284,1.42125,0.0738379,0.0,0.0
969,242,51.6032,51.9926,152.932,98.7763,97.9433,0.00925571,0.0987963,20.9288,1.42125,0.0757572,0.0,0.0
972,242.75,51.5294,52.3789,150.522,98.7846,98.0144,0.0092171,0.0986667,20.9292,1.39122,0.0700191,0.0,0.0
975,243.5,52.1012,52.6573,145.421,98.7854,98.6275,0.00920882,0.098578,20.9294,1.41124,0.014312,0.0,0.0
978,244.25,52.3457,52.4328,147.643,98.7775,97.6409,0.00921125,0.0985326,20.9296,1.40123,0.103534,0.0,0.0
981,245,52.0631,52.7977,150.588,98.7712,98.2547,0.00924491,0.098486,20.9297,1.41124,0.0468983,0.0,0.0
984,245.75,51.6394,52.1823,145.333,98.7755,98.2192,0.00927272,0.0984534,20.9298,1.41124,0.0505287,0.0,0.0
987,246.5,50.9943,52.436,151.422,98.7708,98.6198,0.00929086,0.0984417,20.9299,1.39122,0.013687,0.0,0.0
990,247.25,51.1069,51.7813,150.659,98.7558,97.5408,0.00930117,0.098325,20.9299,1.38121,0.110734,0.0,0.0
993,248,51.5956,52.3687,147.368,98.736,97.1842,0.00930497,0.0981937,20.93,1.39122,0.141702,0.0,0.0
996,248.75,51.8721,51.5106,146.766,98.7395,98.9717,0.00930941,0.0978856,20.93,1.3712,-0.0210102,0.0,0.0
999,249.5,51.0124,51.4759,153.743,98.7257,99.0451,0.00931825,0.0976997,20.9305,1.38121,-0.0288967,0.0,0.0
1002,250.25,50.8496,51.3706,150.36,98.7075,98.4768,0.00932925,0.0974483,20.931,1.3712,0.0209254,0.0,0.0
1005,251,51.0212,51.6396,145.87,98.6833,97.7436,0.00934507,0.0973615,20.9313,1.3712,0.0855917,0.0,0.0
1008,251.75,50.9173,51.3203,145.28,98.6651,96.7593,0.00936655,0.0972983,20.9315,1.3712,0.174483,0.0,0.0
1011,252.5,50.6919,50.8174,149.241,98.6477,98.3598,0.00938318,0.0972522,20.9315,1.3612,0.0261475,0.0,0.0
1014,253.25,50.6064,50.8412,150.611,98.6256,98.381,0.0093897,0.0971593,20.9315,1.3612,0.0222062,0.0,0.0
1017,254,50.4373,50.895,147.848,98.5884,98.7504,0.00939446,0.0970702,20.9315,1.3712,-0.0146858,0.0,0.0
1020,254.75,50.4858,50.7929,148.065,98.5678,98.8338,0.00938178,0.0969687,20.9316,1.3612,-0.0241084,0.0,0.0
1023,255.5,49.924,50.5192,149.363,98.55,97.6899,0.00936629,0.0968541,20.9318,1.35119,0.0784108,0.0,0.0
1026,256.25,50.6975,50.8097,148.597,98.5128,98.1404,0.00935613,0.0967533,20.932,1.33117,0.0338814,0.0,0.0
1029,257,49.1669,49.737,150.93,98.4768,98.1245,0.00934871,0.0966299,20.9321,1.32116,0.0320551,0.0,0.0
1032,257.75,49.7245,49.4291,150.745,98.4443,98.5483,0.00933461,0.0964548,20.9321,1.30114,-0.00944393,0.0,0.0
1035,258.5,49.1855,49.6081,150.661,98.4265,97.7498,0.00932063,0.0963271,20.9322,1.29113,0.0617159,0.0,0.0
1038,259.25,49.7411,50.1858,146.317,98.3901,97.6876,0.00928564,0.0962341,20.9322,1.30114,0.0641005,0.0,0.0
1041,260,49.6396,49.8006,147.9,98.3418,98.2675,0.0092562,0.0961734,20.9323,1.30114,0.00676781,0.0,0.0
1044,260.75,49.6576,49.4714,146.47,98.3236,97.9739,,0.0961413,,1.32116,0.0318787,0.0,0.0
1047,261.5,49.6178,49.829,151.942,98.2667,97.6609,,0.0961314,,1.31115,0.0553096,0.0,0.0
1050,262.25,49.4877,49.4581,149.294,98.2144,97.6965,,0.0961299,,1.31115,0.0472982,0.0,0.0
1053,263,49.4614,49.2397,149.597,98.165,98.2014,,0.0962447,,1.30114,-0.00332075,0.0,0.0
1056,263.75,49.6626,49.3227,147.708,98.1143,97.9229,,,,1.27112,0.0174714,0.0,0.0
1059,264.5,48.8826,48.791,149.185,98.0906,98.1052,,,,1.26111,-0.00133572,0.0,0.0
1062,265.25,49.137,49.601,150.368,98.0379,97.7452,,,,1.27112,0.0267535,0.0,0.0
1065,266,49.2198,49.1799,150.445,97.9766,97.7718,,,,1.26111,0.0187154,0.0,0.0
1068,266.75,48.9986,48.7281,147.413,97.9236,97.1224,,,,1.2511,0.0734857,0.0,0.0
1071,267.5,48.9583,48.6908,151.581,97.9236,97.0224,,,,1.24109,0.0827067,0.0,0.0
1074,268.25,48.7602,48.6952,151.565,97.9331,97.0424,,,,1.2511,0.081722,0.0,0.0
1077,269,48.7735,48.4202,151.192,97.9398,97.722,,,,1.2511,0.0199157,0.0,0.0
1080,269.75,48.9132,47.9343,147.773,97.9319,97.6269,,,,1.24109,0.0278963,0.0,0.0
1083,270.5,47.8107,47.0195,152.366,97.9449,97.4616,,,,1.24109,0.0442523,0.0,0.0
1086,271.25,48.3112,48.1885,151.045,97.9568,98.7793,,,,1.21106,-0.0747987,0.0,0.0