File: 01_Data/PETG/Cone/PET-G_Cone_HF75Scan_220215_R2.csv
Names,Time,Stack TC,Smoke TC,Exh Press,Smoke Comp,Smoke Meas,CO Meter,CO2 Meter,O2 Meter,Sample Mass,Ext Coeff,Start Test,Flame Verif
Chan Gain,,500,500,1,1,1,1,1,1,1,1,1.0,1.0
Offset,,0,0,0.140898,0,0,0,0,0,0,0,0.0,0.0
Gain,,1,1,25.011,12.9668,12.6588,1,1,1,1.00088,1.01977,1.0,1.0
Units,sec,C,C,Pa,%,%,%,%,%,g,/m,,
Baseline,,42.9077,44.9,148.259,97.9762,95.4573,-0.002516,0.0734043,20.9591,-872.593,0.233117,,
2,0.25,39.2522,41.057,148.319,98.5476,96.3212,-0.0025579,0.0908385,20.9368,33.6696,0.204414,0.0,0.0
4,0.75,39.6196,40.9953,147.925,98.5437,97.0309,-0.00256112,0.0901013,20.9377,33.4093,0.13839,0.0,0.0
6,1.25,39.6759,41.486,149.729,98.5203,96.1485,-0.0025643,0.0895042,20.9384,33.3793,0.217987,0.0,0.0
8,1.75,39.6356,41.1571,151.521,98.5163,96.5584,-0.00256687,0.0888646,20.939,33.4294,0.179573,0.0,0.0
10,2.25,39.379,40.6702,145.986,98.5045,97.0007,-0.00256709,0.0882063,20.9395,33.4594,0.137611,0.0,0.0
12,2.75,39.6067,41.4258,156.248,98.4815,96.7516,-0.00256558,0.0876731,20.941,33.3793,0.158534,0.0,0.0
14,3.25,39.1094,41.0499,149.483,98.4693,95.6166,-0.00256436,0.0870854,20.9423,33.4193,0.262979,0.0,0.0
16,3.75,40.0706,41.4384,147.579,98.474,96.3641,-0.00255272,0.0864693,20.9433,33.4394,0.193748,0.0,0.0
18,4.25,39.5506,41.2732,152.601,98.4958,95.6834,-0.00254329,0.0859702,20.9441,33.3993,0.259137,0.0,0.0
20,4.75,39.7206,41.2242,149.371,98.548,95.8835,-0.00253211,0.0855659,20.9449,33.3993,0.245191,0.0,0.0
22,5.25,39.8258,41.1012,146.287,98.5599,96.9764,-0.00252306,0.0852116,20.9456,33.4494,0.144886,0.0,0.0
24,5.75,39.2549,41.0697,148.388,98.6133,96.3475,-0.00251691,0.0849245,20.9459,33.4394,0.207935,0.0,0.0
26,6.25,39.8469,41.4307,146.688,98.6323,96.1068,-0.00251193,0.0849072,20.9459,33.4093,0.232031,0.0,0.0
28,6.75,40.0685,41.1745,144.85,98.681,97.0509,-0.0025079,0.0848932,20.946,33.4093,0.148994,0.0,0.0
30,7.25,39.6801,41.8041,145.735,98.6778,97.4311,-0.00251884,0.0850308,20.946,33.4193,0.113738,0.0,0.0
32,7.75,39.809,41.8108,146.868,98.7289,97.032,-0.00252769,0.0851422,20.9461,33.4193,0.155078,0.0,0.0
34,8.25,39.6465,41.3045,145.932,98.7447,96.2215,-0.00255144,0.0851517,20.9461,33.4193,0.231544,0.0,0.0
36,8.75,39.7826,41.0968,149.782,98.789,95.3751,-0.00257068,0.0851595,20.9461,33.4394,0.314595,0.0,0.0
38,9.25,39.9639,41.9595,149.531,98.8021,97.4859,-0.00260401,0.08501,20.9463,33.4193,0.119958,0.0,0.0
40,9.75,39.8048,41.9434,148.774,98.8313,96.2737,-0.00263102,0.0847487,20.9468,33.4394,0.234544,0.0,0.0
42,10.25,39.8283,41.4881,151.677,98.8325,96.2814,-0.00266709,0.0845371,20.9471,33.4193,0.233934,0.0,0.0
44,10.75,40.0428,41.6219,143.48,98.8646,97.0324,-0.00269631,0.0840432,20.9473,33.4093,0.167331,0.0,0.0
46,11.25,40.3174,42.0344,149.081,98.8947,96.6221,-0.00272933,0.0836431,20.9476,33.4093,0.207955,0.0,0.0
48,11.75,40.1131,42.1902,150.074,98.901,96.8906,-0.00276448,0.083037,20.9482,33.4193,0.183705,0.0,0.0
50,12.25,39.3409,41.5244,149.536,98.9081,96.3482,-0.00279769,0.082546,20.9486,33.4193,0.234566,0.0,0.0
52,12.75,39.7379,41.7898,149.836,98.9295,96.7446,-0.00282459,0.0819068,20.949,33.4093,0.199774,0.0,0.0
54,13.25,40.2441,41.8007,144.819,98.9319,96.2957,-0.00284638,0.081389,20.9494,33.3993,0.241592,0.0,0.0
56,13.75,39.9315,42.2052,144.741,98.9406,96.6538,-0.00283917,0.0808989,20.9498,33.3893,0.209174,0.0,0.0
58,14.25,40.3685,41.6066,150.084,98.9572,95.5559,-0.00283333,0.0804385,20.9504,33.3593,0.31287,0.0,0.0
60,14.75,40.6025,42.1839,145.908,98.9607,97.3785,-0.00280865,0.0800726,20.9509,33.2092,0.144175,0.0,0.0
62,15.25,40.0363,41.727,152.309,98.9643,97.8889,-0.00277072,0.0797825,20.9513,33.4193,0.0977394,0.0,0.0
64,15.75,40.0491,41.6535,147.285,98.9722,97.2623,-0.00272628,0.0795476,20.9516,33.3993,0.155899,0.0,0.0
66,16.25,40.0451,42.0876,150.77,98.9762,97.3337,-0.00267796,0.0795049,20.9513,33.3993,0.149687,0.0,0.0
68,16.75,39.2362,41.6801,142.791,98.9694,96.4375,-0.00262822,0.0794703,20.951,33.3993,0.23183,0.0,0.0
70,17.25,40.3315,41.5399,147.583,98.9619,96.7291,-0.0025784,0.0795689,20.9508,33.4093,0.204137,0.0,0.0
72,17.75,40.0668,42.0578,146.589,98.9698,96.8578,-0.00252435,0.0797628,20.9506,33.4193,0.192964,0.0,0.0
74,18.25,40.3339,42.3943,148.26,98.9599,97.3712,-0.00246822,0.0800188,20.9501,33.4294,0.144777,0.0,0.0
76,18.75,39.9146,42.221,146.455,98.9524,96.8141,-0.00240968,0.0803153,20.9496,33.3893,0.195421,0.0,0.0
78,19.25,40.5563,41.9757,150.883,98.9366,95.4725,-0.00235049,0.0806685,20.9492,33.3993,0.318825,0.0,0.0
80,19.75,40.3836,41.9727,146.012,98.9544,96.4147,-0.00230255,0.0810565,20.9489,33.3993,0.232584,0.0,0.0
82,20.25,40.493,41.8307,147.139,98.9216,96.7388,-0.00225249,0.0815052,20.9487,33.3993,0.199593,0.0,0.0
84,20.75,40.3082,42.4623,144.171,98.9105,96.0199,-0.00220186,0.0819896,20.948,33.3893,0.26532,0.0,0.0
86,21.25,40.543,42.5778,147.619,98.9002,96.4375,-0.00216085,0.0825802,20.9475,33.3893,0.225568,0.0,0.0
88,21.75,40.5383,42.4393,149.512,98.8871,96.6333,-0.00211342,0.0832371,20.9467,33.3793,0.206238,0.0,0.0
90,22.25,39.9307,42.1717,147.767,98.8701,96.0388,-0.00207501,0.0837691,20.9455,33.3793,0.259904,0.0,0.0
92,22.75,39.9271,42.3897,146.701,98.8484,96.1362,-0.00203443,0.0845972,20.9442,33.3993,0.248872,0.0,0.0
94,23.25,39.9074,42.144,145.932,98.8325,95.8584,-0.00201712,0.0856253,20.9434,33.3893,0.273323,0.0,0.0
96,23.75,40.4854,42.3048,146.231,98.8155,96.8775,-0.00198517,0.086458,20.942,33.3593,0.177184,0.0,0.0
98,24.25,40.5021,42.6083,147.253,98.7744,95.6324,-0.00195929,0.0878344,20.941,33.3493,0.28917,0.0,0.0
100,24.75,40.3724,42.6379,144.651,98.7518,95.384,-0.00193832,0.0889493,20.9401,33.3493,0.310393,0.0,0.0
102,25.25,40.3839,42.2926,147.587,98.7348,95.8286,-0.00192882,0.0899604,20.9393,33.3593,0.267248,0.0,0.0
104,25.75,40.3343,42.6132,147.822,98.6897,94.616,-0.00192786,0.0907794,20.9393,33.3493,0.377079,0.0,0.0
106,26.25,40.5619,42.7884,145.614,98.6742,94.91,-0.00192522,0.0910503,20.9398,33.3393,0.34793,0.0,0.0
108,26.75,41.2191,42.7625,146.983,98.6287,94.7806,-0.00192139,0.0915136,20.94,33.3193,0.356008,0.0,0.0
110,27.25,40.4038,42.3972,145.111,98.6054,94.3796,-0.00191829,0.0918889,20.9401,33.3093,0.391817,0.0,0.0
112,27.75,40.2845,42.8548,148.621,98.5441,94.7373,-0.00187903,0.0920437,20.9402,33.2992,0.35241,0.0,0.0
114,28.25,40.8969,42.4303,146.167,98.5049,94.2718,-0.00178648,0.0920347,20.9403,33.3193,0.392916,0.0,0.0
116,28.75,40.9382,42.7406,147.299,98.4665,94.1091,-0.00169056,0.0920274,20.9403,33.2992,0.404876,0.0,0.0
118,29.25,40.725,43.1146,151.326,98.4238,93.1665,-0.00152654,0.0941204,20.9361,33.2392,0.491042,0.0,0.0
120,29.75,40.3852,42.2419,152.032,98.3751,92.3777,-0.00126716,0.0958156,20.9326,33.2992,0.562682,0.0,1.0
122,30.25,40.4315,43.1247,145.638,98.33,94.2942,-0.000943199,0.101195,20.9199,33.2992,0.374893,0.0,1.0
124,30.75,40.9044,42.5715,145.307,98.2789,92.0837,-0.000527788,0.109158,20.9096,33.2992,0.582446,0.0,1.0
126,31.25,40.8516,43.1994,139.118,98.2457,87.5,-5.36045e-05,0.124862,20.8904,33.2092,1.03616,0.0,1.0
128,31.75,40.946,43.4065,144.052,98.1776,82.4203,0.000330484,0.133191,20.8651,33.2692,1.56495,0.0,1.0
130,32.25,41.2994,43.2944,140.246,98.1357,79.8401,0.00104218,0.147432,20.8348,33.1091,1.84564,0.0,1.0
132,32.75,41.6105,44.0801,141.395,98.0862,75.4636,0.00161866,0.172319,20.8015,33.039,2.34544,0.0,1.0
134,33.25,41.4099,43.7344,135.555,98.0914,71.3261,0.00246374,0.192478,20.7555,33.0891,2.85032,0.0,1.0
136,33.75,41.5724,44.1985,134.5,98.083,71.595,0.00314826,0.223141,20.7183,33.0891,2.8159,0.0,1.0
138,34.25,41.6122,44.3035,133.606,98.1044,67.9736,0.00370272,0.247978,20.6882,32.9289,3.28215,0.0,1.0
140,34.75,42.3617,45.1389,135.096,98.106,67.8419,0.00474559,0.283102,20.6533,32.9089,3.29965,0.0,0.0
142,35.25,42.3888,45.4313,131.743,98.1222,68.3333,0.00559031,0.311553,20.6157,32.8989,3.23657,0.0,0.0
144,35.75,42.83,46.8122,132.593,98.1175,64.5992,0.00670907,0.346668,20.5852,32.6887,3.73883,0.0,0.0
146,36.25,43.6116,46.6616,128.21,98.1428,62.9871,0.00761526,0.375111,20.5455,32.7187,3.96721,0.0,0.0
148,36.75,43.7796,47.544,128.713,98.1388,60.5761,0.00872275,0.405639,20.5056,32.6487,4.31598,0.0,0.0
150,37.25,44.5303,47.9125,128.405,98.1646,59.0721,0.00961982,0.437107,20.4663,32.5186,4.54321,0.0,0.0
152,37.75,44.4424,48.9536,123.407,98.1602,61.1011,0.0107184,0.462597,20.4232,32.4485,4.24073,0.0,0.0
154,38.25,45.4855,49.3623,123.192,98.1895,60.1252,0.0116082,0.496116,20.378,32.3584,4.38742,0.0,0.0
156,38.75,46.0595,50.1593,126.676,98.1879,54.5901,0.0125355,0.523267,20.3312,32.2583,5.25119,0.0,0.0
158,39.25,46.6274,50.7846,129.912,98.2219,53.9314,0.0134723,0.55266,20.2842,32.2083,5.36288,0.0,0.0
160,39.75,47.2622,51.2981,125.605,98.2136,56.699,0.0145105,0.583131,20.246,32.1482,4.91447,0.0,0.0
162,40.25,47.8628,52.2646,128.668,98.2362,53.2801,0.0156029,0.614381,20.1975,32.0682,5.47287,0.0,0.0
164,40.75,48.5219,52.5796,129.593,98.2453,52.3375,0.0164877,0.645607,20.1582,31.898,5.63337,0.0,0.0
166,41.25,48.6861,54.1561,122.418,98.2742,53.0664,0.0176008,0.677731,20.1263,31.8179,5.51227,0.0,0.0
168,41.75,48.7419,54.9263,122.136,98.2485,49.605,0.0188593,0.709901,20.0829,31.7179,6.11331,0.0,0.0
170,42.25,49.6749,55.2609,109.63,98.2959,47.6124,0.020221,0.745478,20.0477,31.6178,6.48438,0.0,0.0
172,42.75,50.2228,56.7918,120.946,98.2971,50.8837,0.0216321,0.782863,19.9967,31.4376,5.89007,0.0,0.0
174,43.25,51.2696,57.8412,119.711,98.3106,46.4562,0.0231134,0.813145,19.9555,31.3876,6.70562,0.0,0.0
176,43.75,52.538,59.2053,111.608,98.3197,47.087,0.0246177,0.86264,19.8919,31.2374,6.5858,0.0,0.0
178,44.25,52.8632,60.563,108.459,98.3422,46.72,0.0261922,0.902731,19.8404,31.0873,6.65784,0.0,0.0
180,44.75,53.9912,61.5491,115.366,98.3375,42.9762,0.0277878,0.935204,19.7621,30.9272,7.40458,0.0,0.0
182,45.25,54.4466,63.0268,108.433,98.362,43.3243,0.0294778,0.99014,19.6987,30.8271,7.33465,0.0,0.0
184,45.75,55.4284,64.6114,117.162,98.3652,44.4802,0.0312045,1.03464,19.6154,30.6669,7.09941,0.0,0.0
186,46.25,56.784,65.4931,113.73,98.3854,41.6755,0.0326031,1.09251,19.548,30.5268,7.68385,0.0,0.0
188,46.75,57.7847,66.3838,110.841,98.3937,39.1204,0.0347074,1.13938,19.4933,30.3767,8.25058,0.0,0.0
190,47.25,57.6794,67.1343,105.077,98.4146,37.2746,0.0356045,1.20084,19.47,30.1765,8.68483,0.0,0.0
192,47.75,58.9457,69.1878,107.689,98.415,37.5114,0.0371386,1.26254,19.4013,30.0864,8.62822,0.0,0.0
194,48.25,60.6432,71.2741,110.377,98.4499,38.5336,0.0383811,1.32324,19.3457,29.8762,8.39088,0.0,0.0
196,48.75,61.8101,72.6189,110.186,98.455,37.1633,0.0411706,1.37241,19.2885,29.7061,8.71524,0.0,0.0
198,49.25,62.1978,74.2831,103.693,98.4649,37.1815,0.0434301,1.4396,19.2313,29.5259,8.71177,0.0,0.0
200,49.75,64.1521,76.3474,109.451,98.4946,35.139,0.0462029,1.49403,19.1712,29.3558,9.21987,0.0,0.0
202,50.25,64.3885,78.3684,108.029,98.512,33.3272,0.0484488,1.51723,19.1099,29.1356,9.695,0.0,0.0
204,50.75,66.5611,79.6186,103.393,98.5195,32.8366,0.0513391,1.55691,19.0417,28.9454,9.82835,0.0,0.0
206,51.25,67.1119,79.8465,102.068,98.5294,35.6397,0.0536803,1.62503,18.9697,28.7252,9.09647,0.0,0.0
208,51.75,68.4007,81.978,94.7187,98.5472,35.2526,0.0567704,1.68021,18.8924,28.5551,9.19578,0.0,0.0
210,52.25,69.6944,84.3792,95.6873,98.5583,35.4709,0.0592733,1.73648,18.8125,28.3549,9.14157,0.0,0.0
212,52.75,71.1041,86.1463,112.077,98.571,34.9269,0.0623139,1.79247,18.7478,28.1948,9.28096,0.0,0.0
214,53.25,72.6363,87.7242,104.266,98.5856,35.0729,0.0656887,1.84953,18.6622,27.9746,9.24496,0.0,0.0
216,53.75,73.1349,89.5678,106.269,98.6038,29.7113,0.0694639,1.90628,18.5929,27.7544,10.7307,0.0,0.0
218,54.25,74.5685,91.4079,115.835,98.5971,28.997,0.0734594,1.97039,18.494,27.4041,10.9478,0.0,0.0
220,54.75,75.5871,93.0232,89.7703,98.6256,28.7795,0.0766957,2.03866,18.4139,27.2239,11.0177,0.0,0.0
222,55.25,77.0651,94.8495,89.0658,98.6133,30.0624,0.081284,2.12219,18.3173,26.9437,10.6264,0.0,0.0
224,55.75,78.3909,96.9635,106.038,98.6212,27.7785,0.0867706,2.21526,18.2104,26.6434,11.334,0.0,0.0
226,56.25,79.6086,99.0992,107.046,98.6252,28.1749,0.0934031,2.31891,18.1238,26.5433,11.2076,0.0,0.0
228,56.75,81.5461,101.407,88.8766,98.6418,26.1119,0.100745,2.42831,17.9838,26.0929,11.8893,0.0,0.0
230,57.25,83.0265,104.008,90.8168,98.6315,24.484,0.106692,2.51693,17.8704,25.7526,12.4642,0.0,0.0
232,57.75,84.571,106.353,85.1502,98.6513,25.794,0.115746,2.66087,17.7392,25.5925,11.9997,0.0,0.0
234,58.25,86.3812,108.983,94.3355,98.6465,24.8085,0.12308,2.77746,17.5976,25.1921,12.3478,0.0,0.0
236,58.75,88.3804,111.82,77.851,98.662,24.8352,0.133327,2.92684,17.4171,24.8618,12.3395,0.0,0.0
238,59.25,90.1037,115.737,89.1704,98.6608,24.2549,0.141627,3.0973,17.2116,24.5015,12.5509,0.0,0.0
240,59.75,92.3103,118.544,84.8236,98.6632,24.5589,0.152549,3.23538,16.9227,24.2913,12.4397,0.0,0.0
242,60.25,94.1536,122.428,77.8732,98.6549,22.926,0.161397,3.44923,16.6886,23.881,13.0544,0.0,0.0
244,60.75,96.7629,125.401,76.3749,98.6632,24.7162,0.172582,3.62244,16.3882,23.4506,12.3826,0.0,0.0
246,61.25,99.0323,129.319,75.0796,98.6525,23.3127,0.181643,3.86221,16.1448,23.0302,12.9046,0.0,0.0
248,61.75,101.791,133.259,64.8006,98.66,27.8828,0.19165,4.05642,15.9477,22.75,11.3039,0.0,0.0
250,62.25,103.991,137.717,58.0418,98.6481,26.6621,0.202157,4.30374,15.6918,22.3096,11.7033,0.0,0.0
252,62.75,106.233,142.393,60.0957,98.6576,24.411,0.210668,4.50407,15.4846,21.7991,12.4933,0.0,0.0
254,63.25,109.097,147.134,54.6643,98.6458,22.1561,0.22062,4.74574,15.2704,21.4789,13.3592,0.0,0.0
256,63.75,112.382,150.643,70.8862,98.6537,26.3619,0.228682,4.9415,15.0552,21.0485,11.8051,0.0,0.0
258,64.25,114.108,155.004,93.1707,98.6264,22.7251,0.236152,5.20594,14.8809,20.7282,13.1306,0.0,0.0
260,64.75,117.028,159.864,77.3221,98.6355,24.1321,0.243049,5.42014,14.6427,20.2077,12.594,0.0,0.0
262,65.25,119.378,164.64,68.5383,98.6236,24.319,0.249197,5.59363,14.4497,19.8474,12.5239,0.0,0.0
264,65.75,122.887,169.132,59.5569,98.6228,25.3729,0.254682,5.86597,14.1278,19.2469,12.1444,0.0,0.0
266,66.25,125.688,174.043,84.4351,98.6018,31.2067,0.259679,6.08655,13.867,18.9566,10.2912,0.0,0.0
268,66.75,128.084,180.135,73.337,98.5979,35.4326,0.264225,6.31336,13.572,18.4962,9.15481,0.0,0.0
270,67.25,131.229,186.464,68.6292,98.5935,33.3253,0.267908,6.54038,13.3332,17.9358,9.70292,0.0,0.0
272,67.75,135.154,191.693,53.3545,98.5935,38.216,0.272113,6.74165,13.1034,17.5754,8.47795,0.0,0.0
274,68.25,137.562,196.029,67.6277,98.5654,22.2971,0.275519,6.92031,12.9173,17.065,13.2951,0.0,0.0
276,68.75,139.598,201.091,55.6367,98.5646,26.7637,0.278986,7.07941,12.7666,16.5245,11.6617,0.0,0.0
278,69.25,141.989,205.288,71.8838,98.5393,29.0445,0.282432,7.22123,12.6112,16.1942,10.9279,0.0,0.0
280,69.75,144.818,209.648,101.026,98.5361,24.6714,0.285223,7.3361,12.4853,15.8639,12.3873,0.0,0.0
282,70.25,147.478,214.209,81.2194,98.5262,25.2783,0.288609,7.46355,12.3833,15.3535,12.169,0.0,0.0
284,70.75,150.009,218.228,71.0655,98.5171,32.6666,0.291352,7.56679,12.3002,14.823,9.87456,0.0,0.0
286,71.25,152.138,223.576,48.8313,98.4902,31.445,0.293574,7.64725,12.233,14.2926,10.213,0.0,0.0
288,71.75,154.913,227.626,71.238,98.4831,22.7448,0.297028,7.70958,12.1825,13.9222,13.1098,0.0,0.0
290,72.25,157.224,231.352,55.207,98.4649,25.755,0.299826,7.76006,12.1417,13.5519,11.9963,0.0,0.0
292,72.75,158.713,234.535,81.4026,98.4538,26.5419,0.303005,7.77582,12.1086,13.1315,11.7261,0.0,0.0
294,73.25,161.285,238.392,94.3141,98.4368,24.545,0.30558,7.78858,12.0817,12.561,12.4242,0.0,0.0
296,73.75,163.28,241.874,48.9512,98.4154,31.9137,0.308584,7.79891,12.0784,12.1807,10.0739,0.0,0.0
298,74.25,164.993,245.435,73.9484,98.3921,24.2928,0.311017,7.77261,12.0923,11.7103,12.5126,0.0,0.0
300,74.75,166.881,248.611,69.5794,98.3838,18.4741,0.313266,7.75131,12.1248,11.3199,14.9611,0.0,0.0
302,75.25,168.297,251.128,81.485,98.3589,23.5368,0.315337,7.70817,12.1701,10.8796,12.7924,0.0,0.0
304,75.75,170.593,253.721,56.9167,98.3363,27.3381,0.317014,7.67323,12.2067,10.3891,11.451,0.0,0.0
306,76.25,172.065,256.341,64.867,98.3189,22.7147,0.318039,7.62036,12.2499,9.98877,13.1068,0.0,0.0
308,76.75,173.978,258.326,61.2872,98.309,22.43,0.318869,7.57754,12.2969,9.37824,13.2187,0.0,0.0
310,77.25,175.211,260.87,57.5846,98.2674,21.8412,0.31877,7.5249,12.335,9.16805,13.4528,0.0,0.0
312,77.75,176.895,262.769,64.6304,98.2536,25.0078,0.317996,7.4661,12.4073,8.59755,12.2405,0.0,0.0
314,78.25,177.69,264.916,85.5471,98.2386,23.252,0.31623,7.41848,12.4659,8.23723,12.8903,0.0,0.0
316,78.75,179.347,267.19,83.2688,98.2275,21.9834,0.313775,7.32866,12.5718,7.83688,13.3912,0.0,0.0
318,79.25,180.268,268.561,74.4919,98.1923,23.0859,0.310377,7.25592,12.6576,7.52661,12.9502,0.0,0.0
320,79.75,181.303,269.656,60.0286,98.1749,22.2557,0.306355,7.15923,12.8261,6.99614,13.2762,0.0,0.0
322,80.25,182.714,272.235,86.299,98.157,24.2055,0.301513,7.04692,12.9625,6.69588,12.5234,0.0,0.0
324,80.75,184.413,273.596,79.4272,98.1309,21.6079,0.296167,6.91246,13.1729,6.2655,13.5365,0.0,0.0
326,81.25,184.819,273.766,76.3512,98.1056,24.7838,0.289996,6.76439,13.3432,5.89518,12.3075,0.0,0.0
328,81.75,185.783,274.788,76.1108,98.0898,24.2495,0.283342,6.60637,13.5621,5.59491,12.501,0.0,0.0
330,82.25,186.116,275.187,85.293,98.072,22.6737,0.277951,6.44409,13.7393,5.20457,13.1004,0.0,0.0
332,82.75,187.052,276.234,74.9949,98.032,21.3653,0.268525,6.27619,13.9234,4.83425,13.6285,0.0,0.0
334,83.25,187.615,276.207,75.9711,98.0324,24.7123,0.26089,6.1074,14.1089,4.554,12.3266,0.0,0.0
336,83.75,187.959,275.988,87.321,97.9916,24.4867,0.250532,5.93219,14.2591,4.24373,12.405,0.0,0.0
338,84.25,188.082,276.246,89.4345,97.975,25.7801,0.242143,5.75565,14.4634,3.93345,11.943,0.0,0.0
340,84.75,188.469,276.424,83.3405,97.9422,25.9663,0.232351,5.61265,14.6288,3.66322,11.8756,0.0,0.0
342,85.25,188.665,276.312,84.8571,97.9287,27.2342,0.221722,5.40682,14.8562,3.39298,11.4479,0.0,0.0
344,85.75,189.019,275.634,87.3752,97.8998,28.1351,0.210838,5.2401,15.0403,3.0727,11.1542,0.0,0.0
346,86.25,188.99,275.254,83.6443,97.8753,29.2233,0.199975,5.05267,15.317,2.77243,10.8125,0.0,0.0
348,86.75,188.93,274.971,92.006,97.8535,29.4435,0.189075,4.85369,15.5411,2.61229,10.7433,0.0,0.0
350,87.25,188.409,273.402,95.6239,97.8393,27.5718,0.178356,4.69252,15.8345,2.38209,11.3296,0.0,0.0
352,87.75,188.153,272.316,92.6052,97.8219,30.0531,0.167442,4.46608,16.0722,2.15189,10.5571,0.0,0.0
354,88.25,187.585,270.791,102.168,97.7989,34.6878,0.156593,4.28267,16.3524,1.85163,9.27207,0.0,0.0
356,88.75,187.095,269.626,88.0644,97.7704,32.3853,0.147805,4.05384,16.5794,1.69149,9.88385,0.0,0.0
358,89.25,186.739,267.733,108.666,97.7483,31.802,0.138382,3.82984,16.8092,1.57138,10.0444,0.0,0.0
360,89.75,185.942,266.119,97.9114,97.7269,31.6324,0.128675,3.61361,17.0367,1.43126,10.0903,0.0,0.0
362,90.25,185.117,264.498,101.31,97.7138,35.0359,0.119124,3.39897,17.2209,1.13099,9.17497,0.0,0.0
364,90.75,184.229,262.286,108.533,97.6897,38.6788,0.109869,3.18958,17.4523,1.07094,8.28789,0.0,0.0
366,91.25,182.843,259.366,108.059,97.6758,42.9612,0.101102,3.01997,17.6397,0.960844,7.34732,0.0,0.0
368,91.75,181.794,257.434,113.319,97.6505,43.8211,0.0928568,2.79367,17.8797,0.840738,7.16772,0.0,0.0
370,92.25,181.148,255.673,113.817,97.6331,47.4274,0.0893418,2.61036,17.982,0.690607,6.45869,0.0,0.0
372,92.75,179.818,253.812,114.546,97.6157,47.4768,0.0814485,2.42245,18.1569,0.630554,6.44777,0.0,0.0
374,93.25,178.525,250.951,118.266,97.6011,52.8107,0.0750549,2.23476,18.3436,0.550483,5.494,0.0,0.0
376,93.75,177.492,248.427,119.027,97.5809,53.0336,0.0698761,2.08273,18.5354,0.400352,5.45447,0.0,0.0
378,94.25,175.699,246.074,122.181,97.5686,55.839,0.0634718,1.91284,18.7204,0.41036,4.99224,0.0,0.0
380,94.75,174.382,243.219,120.949,97.5476,55.9368,0.0582843,1.77522,18.8969,0.370325,4.97467,0.0,0.0
382,95.25,173.255,240.83,126.148,97.535,63.2331,0.0526426,1.69917,19.0597,0.320281,3.87675,0.0,0.0
384,95.75,171.903,238.291,124.67,97.5247,61.6106,0.0480727,1.56913,19.2094,0.230202,4.10834,0.0,0.0
386,96.25,170.297,235.914,124.934,97.5029,63.1246,0.0443711,1.46379,19.3306,0.200176,3.88918,0.0,0.0
388,96.75,169.078,233.24,128.268,97.4816,66.5941,0.0400501,1.33831,19.4484,0.130114,3.4086,0.0,0.0
390,97.25,167.351,230.797,127.897,97.4804,64.6984,0.03655,1.23667,19.5613,0.130114,3.66682,0.0,0.0
392,97.75,166.21,228.502,129.208,97.4641,68.2383,0.0328802,1.1419,19.6728,0.0800703,3.18883,0.0,0.0
394,98.25,164.873,225.656,132.063,97.4626,67.7295,0.0299076,1.05395,19.7812,0.0400352,3.25563,0.0,0.0
396,98.75,163.704,223.445,129.418,97.4309,70.6466,0.0270834,0.971105,19.8689,-0.0200176,2.87551,0.0,0.0
398,99.25,162.08,221.273,131.054,97.4301,74.9594,0.024421,0.893563,19.9638,-0.0300264,2.34536,0.0,0.0
400,99.75,160.832,218.733,134.809,97.4163,78.3605,0.0219959,0.830754,20.0406,-0.0400352,1.94716,0.0,0.0
402,100.25,159.5,215.952,138.74,97.4186,83.2907,0.0197897,0.757335,20.1313,-0.0600527,1.40156,0.0,0.0
404,100.75,157.213,213.145,134.125,97.3814,85.6484,0.0180027,0.697866,20.2048,-0.0600527,1.14845,0.0,0.0
406,101.25,156.768,211.576,135.742,97.4004,89.2052,0.0161588,0.641811,20.2736,-0.050044,0.786214,0.0,0.0
408,101.75,154.605,208.724,135.753,97.3909,89.6792,0.014524,0.589311,20.3378,-0.0800703,0.737935,0.0,0.0
410,102.25,153.885,206.649,137.67,97.3969,90.2328,0.0130726,0.540487,20.3966,-0.0700615,0.683429,0.0,0.0
412,102.75,152.265,204.554,131.695,97.3775,90.659,0.011897,0.49527,20.4503,-0.0800703,0.639505,0.0,0.0
414,103.25,151.209,201.954,136.193,97.383,91.2639,0.0108243,0.458645,20.4939,-0.0800703,0.58052,0.0,0.0
416,103.75,149.705,199.789,136.408,97.3771,91.6831,0.00984706,0.420809,20.5382,-0.0900791,0.538985,0.0,0.0
418,104.25,148.704,197.526,134.494,97.3814,91.5054,0.00899332,0.390163,20.5741,-0.110097,0.556739,0.0,0.0
420,104.75,147.242,195.327,134.461,97.3739,91.5734,0.00824584,0.360425,20.6069,-0.130114,0.549405,0.0,0.0
422,105.25,145.646,193.358,137.143,97.3897,91.7318,0.00764038,0.336338,20.6367,-0.130114,0.5354,0.0,0.0
424,105.75,143.959,191.115,136.929,97.3759,92.0064,0.00704676,0.314558,20.6633,-0.110097,0.507382,0.0,0.0
426,106.25,142.578,188.049,135.571,97.389,91.9207,0.00653341,0.294874,20.6871,-0.0900791,0.516925,0.0,0.0
428,106.75,141.18,185.868,134.1,97.3775,91.6483,0.00608833,0.27893,20.7111,-0.0900791,0.542414,0.0,0.0
430,107.25,140.449,184.413,140.486,97.4103,92.2398,0.00570299,0.262966,20.7306,-0.100088,0.487888,0.0,0.0
432,107.75,139.501,182.63,135.149,97.3905,91.843,0.00536852,0.250036,20.7494,-0.110097,0.524629,0.0,0.0
434,108.25,137.887,179.934,134.683,97.4087,91.9956,0.0050976,0.237296,20.7647,-0.110097,0.511451,0.0,0.0
436,108.75,137.241,178.342,140.525,97.4024,91.8021,0.00483587,0.226976,20.7779,-0.100088,0.529709,0.0,0.0
438,109.25,135.953,176.492,136.706,97.4269,91.9438,0.00462387,0.217413,20.7894,-0.110097,0.518158,0.0,0.0
440,109.75,135.105,175.391,134.809,97.4163,91.9238,0.00445214,0.209666,20.7995,-0.130114,0.519132,0.0,0.0
442,110.25,133.07,172.369,137.348,97.4515,91.9662,0.00429717,0.202389,20.8082,-0.170149,0.51823,0.0,0.0
444,110.75,132.324,170.363,136.142,97.4491,92.8772,0.00415734,0.196494,20.8159,-0.160141,0.429843,0.0,0.0
446,111.25,131.316,169.508,140.895,97.4626,92.983,0.00404408,0.190959,20.8227,-0.150132,0.42089,0.0,0.0
448,111.75,130.448,167.715,141.349,97.4606,92.0883,0.00395234,0.186476,20.8281,-0.140123,0.5072,0.0,0.0
450,112.25,129.711,165.993,136.888,97.4903,91.9064,0.00387866,0.182844,20.8334,-0.120105,0.527616,0.0,0.0
452,112.75,128.508,164.487,136.676,97.4938,92.2425,0.00381956,0.179032,20.8377,-0.120105,0.495289,0.0,0.0
454,113.25,127.719,163.183,138.78,97.5203,92.5052,0.00377422,0.175943,20.8421,-0.130114,0.472283,0.0,0.0
456,113.75,126.952,161.518,136.007,97.5298,92.5975,0.00373979,0.173124,20.8456,-0.120105,0.46423,0.0,0.0
458,114.25,124.818,158.932,141.501,97.5619,92.4781,0.00371189,0.170555,20.8497,-0.120105,0.478708,0.0,0.0
460,114.75,124.033,157.806,137.817,97.5615,92.3394,0.00369775,0.168267,20.8531,-0.130114,0.492098,0.0,0.0
462,115.25,123.509,156.942,138.818,97.5935,92.3317,0.00368629,0.166228,20.8558,-0.130114,0.495785,0.0,0.0
464,115.75,122.555,155.343,137.164,97.6038,92.4569,0.00367701,0.164408,20.858,-0.140123,0.484609,0.0,0.0
466,116.25,120.958,153.414,135.368,97.6418,92.4661,0.00366123,0.162781,20.8598,-0.140123,0.487193,0.0,0.0
468,116.75,120.295,152.071,137.548,97.6426,92.4549,0.00364103,0.161317,20.8612,-0.150132,0.48835,0.0,0.0
470,117.25,120.22,151.491,140.608,97.6727,92.6303,0.00362466,0.159998,20.8608,-0.160141,0.47415,0.0,0.0
472,117.75,119.691,150.137,138.745,97.6861,92.65,0.00358983,0.158776,20.8605,-0.170149,0.473481,0.0,0.0
474,118.25,118.801,148.866,136.483,97.7225,92.3255,0.0035422,0.157647,20.8605,-0.170149,0.5082,0.0,0.0
476,118.75,117.631,147.135,136.572,97.7372,92.6411,0.00348967,0.156732,20.8607,-0.170149,0.479012,0.0,0.0
478,119.25,116.743,145.422,137.873,97.7681,92.6651,0.00343457,0.155992,20.8609,-0.190167,0.479524,0.0,0.0
480,119.75,116.419,144.63,136.417,97.7863,92.0207,0.00337917,0.155062,20.8614,-0.180158,0.543611,0.0,0.0
482,120.25,115.016,143.333,139.656,97.8262,93.3863,0.0033246,0.154012,20.8619,-0.170149,0.415489,0.0,0.0
484,120.75,114.402,141.809,138.402,97.8369,92.7064,0.00328041,0.153161,20.8631,-0.190167,0.481832,0.0,0.0
486,121.25,113.754,140.821,137.998,97.8872,92.6898,0.00323498,0.152013,20.8641,-0.190167,0.488029,0.0,0.0
488,121.75,113.218,140.049,139.889,97.8979,92.8123,0.00319819,0.151083,20.866,-0.200176,0.477195,0.0,0.0
490,122.25,112.453,138.229,136.566,97.9346,93.3995,0.00315756,0.150052,20.8674,-0.210185,0.42414,0.0,0.0
492,122.75,111.782,137.395,138.791,97.9544,92.5824,0.00312465,0.149217,20.8686,-0.220193,0.504545,0.0,0.0
494,123.25,111.166,135.823,142.245,97.9873,92.8331,0.00308476,0.148446,20.8696,-0.230202,0.483353,0.0,0.0
496,123.75,110.576,134.967,143.95,98.0174,92.618,0.00305245,0.147737,20.8704,-0.200176,0.506855,0.0,0.0
498,124.25,109.805,134.226,139.281,98.0593,92.6268,0.00302059,0.14714,20.871,-0.230202,0.509825,0.0,0.0
500,124.75,109.016,133.289,138.257,98.0803,92.9792,0.00298966,0.146637,20.8716,-0.230202,0.477777,0.0,0.0
502,125.25,107.975,132.367,135.919,98.1183,93.4814,0.00296334,0.146164,20.872,-0.220193,0.433054,0.0,0.0
504,125.75,107.798,130.733,138.823,98.1499,92.9977,0.00294088,0.145722,20.8723,-0.230202,0.482343,0.0,0.0
506,126.25,106.591,129.734,136.523,98.182,93.0781,0.00292269,0.145364,20.8726,-0.240211,0.477539,0.0,0.0
508,126.75,105.514,128.849,136.245,98.2132,92.6759,0.00289834,0.144838,20.8728,-0.220193,0.51912,0.0,0.0
510,127.25,105.529,127.751,139.212,98.2477,93.0128,0.00287861,0.144412,20.8732,-0.230202,0.489798,0.0,0.0
512,127.75,104.716,127.02,137.725,98.288,93.3979,0.00285063,0.144015,20.8738,-0.25022,0.456507,0.0,0.0
514,128.25,104.445,125.735,138.107,98.311,92.635,0.00281715,0.143649,20.8742,-0.230202,0.531971,0.0,0.0
516,128.75,103.676,125.039,139.87,98.3533,93.0943,0.00277802,0.143351,20.8745,-0.270237,0.491577,0.0,0.0
518,129.25,103.419,123.626,135.855,98.3727,93.2573,0.00273553,0.143042,20.8748,-0.260229,0.477688,0.0,0.0
520,129.75,102.205,123.153,136.459,98.4052,93.019,0.00269164,0.14279,20.8755,-0.270237,0.503531,0.0,0.0
522,130.25,102.036,122.517,141.636,98.4344,93.1182,0.00264756,0.142365,20.876,-0.320281,0.496651,0.0,0.0
524,130.75,101.311,121.407,139.637,98.4756,93.3102,0.00261186,0.142021,20.8765,-0.290255,0.481964,0.0,0.0
526,131.25,101.188,120.093,141.125,98.4914,93.6834,0.00258295,0.141633,20.8768,-0.310273,0.447697,0.0,0.0
528,131.75,100.249,119.58,139.605,98.5278,93.3813,0.00253195,0.14122,20.8771,-0.300264,0.479896,0.0,0.0
530,132.25,99.7789,118.779,140.208,98.5615,93.6873,0.00249064,0.140842,20.8778,-0.290255,0.453688,0.0,0.0
532,132.75,99.0124,117.976,138.851,98.5915,93.4837,0.00244639,0.140497,20.8783,-0.290255,0.475878,0.0,0.0
534,133.25,98.6628,116.521,139.74,98.6382,93.2399,0.00241055,0.140217,20.8787,-0.300264,0.503469,0.0,0.0
536,133.75,98.4227,115.675,139.748,98.662,93.2496,0.00238272,0.13988,20.8791,-0.320281,0.504696,0.0,0.0
538,134.25,98.1694,115.409,136.721,98.6841,93.8499,0.00236018,0.139606,20.8794,-0.320281,0.449299,0.0,0.0
540,134.75,96.9753,114.57,137.069,98.7217,94.4483,0.0023515,0.139349,20.8796,-0.320281,0.395849,0.0,0.0
542,135.25,96.6089,113.632,137.761,98.7534,93.493,0.00234448,0.139107,20.8798,-0.340299,0.489663,0.0,0.0
544,135.75,96.2765,113.286,136.644,98.7934,93.6537,0.00235917,0.138868,20.8799,-0.350308,0.477919,0.0,0.0
546,136.25,95.4314,112.332,139.686,98.8226,93.646,0.00237107,0.138635,20.8801,-0.350308,0.481308,0.0,0.0
548,136.75,94.9362,110.926,141.82,98.8353,93.8426,0.0024047,0.138446,20.8802,-0.340299,0.46369,0.0,0.0
550,137.25,94.8159,111.026,137.222,98.8515,94.1594,0.00243193,0.138127,20.8802,-0.33029,0.435013,0.0,0.0
552,137.75,94.1444,110.164,137.147,98.8919,94.538,0.002454,0.137869,20.8807,-0.340299,0.402771,0.0,0.0
554,138.25,93.6411,109.186,137.845,98.9089,94.0021,0.00248267,0.137521,20.8811,-0.320281,0.455154,0.0,0.0
556,138.75,93.4795,108.351,139.985,98.9457,93.7445,0.0025059,0.13724,20.8815,-0.33029,0.483037,0.0,0.0
558,139.25,92.9174,107.939,138.264,98.9615,93.4528,0.00252471,0.136902,20.882,-0.380334,0.512342,0.0,0.0
560,139.75,92.5099,106.63,137.179,99.0039,94.3317,0.00254235,0.136628,20.8826,-0.380334,0.432436,0.0,0.0
562,140.25,92.2212,106.792,139.346,99.0082,94.3626,0.00255664,0.136427,20.8828,-0.400352,0.429898,0.0,0.0
564,140.75,91.5529,105.947,138.117,99.0367,94.0099,0.00256101,0.136285,20.8829,-0.41036,0.46597,0.0,0.0
566,141.25,90.7134,105.044,139.905,99.0573,94.4244,0.00256455,0.136169,20.8829,-0.420369,0.428473,0.0,0.0
568,141.75,90.6144,103.889,139.919,99.0886,93.909,0.00255921,0.136007,20.8829,-0.420369,0.480252,0.0,0.0
570,142.25,89.9744,103.632,139.118,99.0941,93.491,0.00254749,0.135875,20.8829,-0.41036,0.520657,0.0,0.0
572,142.75,89.1732,102.629,138.129,99.1182,93.8047,0.00253421,0.135769,20.8829,-0.380334,0.492872,0.0,0.0
574,143.25,89.268,101.928,138.27,99.1167,93.4872,0.00252005,0.135668,20.883,-0.380334,0.523062,0.0,0.0
576,143.75,88.695,102.344,140.018,99.1487,94.3892,0.00250858,0.135587,20.8834,-0.390343,0.440056,0.0,0.0
578,144.25,89.3335,101.681,139.248,99.1562,93.9515,0.00249928,0.135485,20.8837,-0.380334,0.482311,0.0,0.0
580,144.75,88.7347,101.158,137.514,99.1768,94.4394,0.00249175,0.13537,20.884,-0.370325,0.437831,0.0,0.0
582,145.25,87.6022,99.4853,140.636,99.1855,93.8441,0.00249513,0.135211,20.8843,-0.380334,0.495183,0.0,0.0
584,145.75,87.1601,98.7984,135.552,99.2085,94.2223,0.00250639,0.135024,20.8845,-0.380334,0.461275,0.0,0.0
586,146.25,87.2172,99.6311,138.503,99.2092,94.0848,0.00252245,0.134814,20.8846,-0.390343,0.474412,0.0,0.0
588,146.75,87.6143,97.8684,139.213,99.229,94.7377,0.00254172,0.134591,20.8847,-0.400352,0.414337,0.0,0.0
590,147.25,86.5121,98.3865,140.994,99.229,93.8403,0.00255733,0.134411,20.8848,-0.41036,0.499477,0.0,0.0
592,147.75,86.1854,97.3586,141.685,99.2445,94.305,0.00257477,0.134031,20.8849,-0.420369,0.456676,0.0,0.0
594,148.25,86.2591,97.4385,140.656,99.2405,94.3718,0.0025889,0.133723,20.8854,-0.430378,0.449982,0.0,0.0
596,148.75,85.4419,96.3541,144.187,99.2718,94.5445,0.00260224,0.133328,20.8863,-0.430378,0.436446,0.0,0.0
598,149.25,84.8534,95.1244,136.663,99.2654,94.4827,0.00261475,0.132878,20.8869,-0.450396,0.441727,0.0,0.0
600,149.75,84.4171,95.0875,137.948,99.2817,94.1335,0.00262868,0.132514,20.8875,-0.450396,0.476313,0.0,0.0
602,150.25,84.7805,94.9675,140.442,99.2611,93.938,0.00264338,0.132053,20.8879,-0.440387,0.493053,0.0,0.0
604,150.75,84.153,94.6207,142.329,99.2852,94.6681,0.0026616,0.13168,20.8887,-0.450396,0.42597,0.0,0.0
606,151.25,84.1367,94.0694,140.018,99.2666,93.9036,0.00268205,0.131254,20.8894,-0.470413,0.496828,0.0,0.0
608,151.75,83.7412,93.5003,138.037,99.286,95.0127,0.00269862,0.130909,20.8899,-0.450396,0.393539,0.0,0.0
610,152.25,83.389,93.3841,139.21,99.271,94.033,0.00271203,0.130547,20.8903,-0.440387,0.4849,0.0,0.0
612,152.75,82.9725,92.8309,140.478,99.2829,94.8733,0.00273852,0.130253,20.8906,-0.450396,0.406393,0.0,0.0
614,153.25,82.4765,91.9703,141.834,99.2587,94.2293,0.00275998,0.129972,20.8909,-0.50044,0.465145,0.0,0.0
616,153.75,81.3805,90.7562,140.426,99.2809,95.0556,0.00277616,0.129706,20.8911,-0.490431,0.389038,0.0,0.0
618,154.25,82.3424,91.3142,140.658,99.2619,94.5159,0.00278926,0.12949,20.8913,-0.480422,0.43826,0.0,0.0
620,154.75,81.4923,90.4957,140.024,99.2738,94.3,0.00279868,0.129177,20.8915,-0.470413,0.459791,0.0,0.0
622,155.25,81.6793,90.2918,137.826,99.2726,94.259,0.0028063,0.128924,20.8916,-0.480422,0.46357,0.0,0.0
624,155.75,81.6074,90.0078,138.576,99.254,95.1742,0.00280887,0.128719,20.8917,-0.470413,0.37546,0.0,0.0
626,156.25,80.7158,90.0762,137.706,99.2373,94.084,0.00281095,0.128402,20.892,-0.490431,0.477019,0.0,0.0
628,156.75,80.7983,89.619,137.72,99.2322,93.8329,0.00280062,0.128145,20.8924,-0.480422,0.500462,0.0,0.0
630,157.25,80.3985,89.0227,141.488,99.2108,94.2876,0.00279226,0.127895,20.8928,-0.470413,0.455294,0.0,0.0
632,157.75,80.3707,88.2876,136.317,99.2116,94.9401,0.00277284,0.127693,20.8935,-0.470413,0.393674,0.0,0.0
634,158.25,80.2032,87.9404,140.365,99.193,94.1771,0.00274574,0.127406,20.8941,-0.480422,0.464175,0.0,0.0
636,158.75,80.071,87.5258,139.385,99.1879,94.7292,0.00272378,0.127173,20.8946,-0.490431,0.411429,0.0,0.0
638,159.25,79.4966,87.4162,136.735,99.1657,94.6674,0.00268768,0.126779,20.895,-0.50044,0.415269,0.0,0.0
640,159.75,79.0579,87.084,139.205,99.1574,94.5194,0.00264196,0.126459,20.8953,-0.520457,0.428511,0.0,0.0
642,160.25,78.7509,86.4826,143.449,99.1404,94.2455,0.00260492,0.126092,20.8955,-0.520457,0.452936,0.0,0.0
644,160.75,78.8606,86.2971,144.662,99.1305,94.035,0.00255215,0.125697,20.8958,-0.510448,0.472049,0.0,0.0
646,161.25,78.6745,86.1945,143.185,99.1068,94.3997,0.00250561,0.125377,20.8959,-0.540475,0.435282,0.0,0.0
648,161.75,78.4544,85.8418,141.717,99.0893,93.3724,0.00246451,0.125022,20.8961,-0.560492,0.531583,0.0,0.0
650,162.25,77.8984,85.2336,138.451,99.0731,94.9266,0.00243122,0.124734,20.8962,-0.530466,0.382451,0.0,0.0
652,162.75,77.5913,85.1067,139.573,99.0541,94.1536,0.00240426,0.124487,20.8965,-0.530466,0.45388,0.0,0.0
654,163.25,77.4649,84.403,142.109,99.0399,94.5449,0.00239314,0.124274,20.8969,-0.560492,0.415489,0.0,0.0
656,163.75,77.0189,84.1987,140.214,99.0272,94.1211,0.00239379,0.12405,20.897,-0.550483,0.454533,0.0,0.0
658,164.25,76.9344,83.7911,140.137,99.0043,94.2903,0.00240315,0.123824,20.8968,-0.540475,0.436392,0.0,0.0
660,164.75,76.9484,83.303,143.826,98.9738,93.977,0.00241868,0.12364,20.8969,-0.560492,0.463412,0.0,0.0
662,165.25,76.99,83.3402,143.88,98.956,94.1791,0.00243885,0.123396,20.8972,-0.520457,0.44259,0.0,0.0
664,165.75,76.5515,83.0789,142.114,98.9366,93.9875,0.002462,0.123198,20.8974,-0.540475,0.459056,0.0,0.0
666,166.25,76.3568,82.4965,143.538,98.9156,94.2019,0.00248075,0.123037,20.8975,-0.560492,0.436777,0.0,0.0
668,166.75,75.7877,82.1397,140.277,98.8939,93.982,0.00251634,0.122784,20.8977,-0.58051,0.455705,0.0,0.0
670,167.25,75.4059,81.9528,143.039,98.8713,94.1856,0.00254518,0.122579,20.8978,-0.570501,0.434308,0.0,0.0
672,167.75,75.5784,81.3902,143.542,98.8523,94.1999,0.00257612,0.122344,20.8979,-0.550483,0.431233,0.0,0.0
674,168.25,75.4092,81.1812,143.651,98.8349,94.283,0.00260801,0.122154,20.8979,-0.560492,0.421773,0.0,0.0
676,168.75,75.3206,80.7404,139.363,98.8044,94.8478,0.00263889,0.122014,20.8984,-0.560492,0.365588,0.0,0.0
678,169.25,74.8691,80.8579,139.972,98.7961,94.0238,0.00266846,0.121914,20.8988,-0.560492,0.44289,0.0,0.0
680,169.75,74.078,80.3907,144.796,98.774,94.2868,0.00269242,0.121833,20.8992,-0.58051,0.415889,0.0,0.0
682,170.25,74.3711,79.871,141.984,98.753,94.1091,0.00270701,0.121713,20.8994,-0.560492,0.430865,0.0,0.0
684,170.75,74.7233,79.9359,137.112,98.7233,93.2438,0.00271062,0.121615,20.8996,-0.590519,0.51081,0.0,0.0
686,171.25,73.8328,79.8372,143.672,98.7043,94.2339,0.00270614,0.121478,20.8998,-0.570501,0.414603,0.0,0.0
688,171.75,73.8902,79.3077,138.439,98.6786,94.2339,0.00269493,0.121316,20.8999,-0.600527,0.412271,0.0,0.0
690,172.25,73.6536,78.9582,142.112,98.6636,93.284,0.00267903,0.121141,20.9001,-0.600527,0.501541,0.0,0.0
692,172.75,73.6188,78.6974,142.133,98.643,94.1443,0.00266615,0.12096,20.9001,-0.590519,0.417554,0.0,0.0
694,173.25,73.4674,78.3186,138.196,98.624,94.0064,0.00265634,0.120771,20.9002,-0.58051,0.428945,0.0,0.0
696,173.75,73.1873,78.3215,138.443,98.5955,94.0245,0.00264897,0.120578,20.9003,-0.600527,0.424633,0.0,0.0
698,174.25,73.3209,77.2055,142.924,98.5852,94.5264,0.00264679,0.120379,20.9002,-0.620545,0.376084,0.0,0.0
700,174.75,72.523,77.5822,138.602,98.5682,93.8851,0.00264843,0.120179,20.9001,-0.610536,0.435434,0.0,0.0
702,175.25,72.5865,76.9976,138.417,98.5543,93.9179,0.00265419,0.120017,20.9,-0.610536,0.431048,0.0,0.0
704,175.75,72.375,76.9825,140.198,98.5266,94.0709,0.00266283,0.119864,20.8999,-0.630554,0.413974,0.0,0.0
706,176.25,71.9553,76.8634,137.102,98.5219,94.9436,0.00267426,0.11972,20.8999,-0.600527,0.33094,0.0,0.0
708,176.75,71.972,76.754,140.328,98.4946,93.6139,0.00268749,0.119575,20.8999,-0.620545,0.454628,0.0,0.0
710,177.25,71.882,76.2592,143.31,98.4922,93.6123,0.00270138,0.119431,20.9003,-0.620545,0.454559,0.0,0.0
712,177.75,72.0198,76.1565,141.951,98.4748,93.3979,0.00271547,0.119256,20.9006,-0.630554,0.47349,0.0,0.0
714,178.25,71.6805,75.6822,141.868,98.4756,93.413,0.00272688,0.119063,20.9008,-0.630554,0.472118,0.0,0.0
716,178.75,71.2096,75.2231,142.475,98.4728,95.1789,0.00273973,0.118813,20.9011,-0.650571,0.304346,0.0,0.0
718,179.25,71.3841,75.4313,138.625,98.5251,93.668,0.00275014,0.118526,20.9012,-0.630554,0.452228,0.0,0.0
720,179.75,70.9156,75.0523,143.382,98.5401,94.1192,0.00275857,0.118222,20.9014,-0.630554,0.410605,0.0,0.0
722,180.25,70.6314,74.5393,141.19,98.5994,94.5434,0.00278703,0.117911,20.9015,-0.640563,0.375768,0.0,0.0
724,180.75,70.3873,74.5269,140.331,98.6268,93.9705,0.00281009,0.117587,20.9016,-0.650571,0.432615,0.0,0.0
726,181.25,70.7339,74.9688,138.733,98.6695,93.921,0.002848,0.11726,20.9016,-0.630554,0.441199,0.0,0.0
728,181.75,70.4825,74.2497,137.059,98.6988,94.4731,0.00287871,0.116995,20.9019,-0.610536,0.391429,0.0,0.0
730,182.25,70.7991,73.8976,140.305,98.7387,94.5248,0.00291119,0.116723,20.9024,-0.610536,0.39015,0.0,0.0
732,182.75,70.3655,74.2338,138.677,98.751,94.013,0.00294433,0.11645,20.9027,-0.610536,0.439833,0.0,0.0
734,183.25,70.1748,73.7631,142.104,98.8048,93.4791,0.00297498,0.11623,20.903,-0.610536,0.495651,0.0,0.0
736,183.75,69.7731,73.3732,141.279,98.812,94.4371,0.00300323,0.115901,20.9032,-0.620545,0.405083,0.0,0.0
738,184.25,69.4346,73.1095,143.207,98.8503,94.2162,0.00302675,0.115635,20.9034,-0.620545,0.429513,0.0,0.0
740,184.75,69.2676,72.5569,140.147,98.8701,94.5287,0.00304636,0.115406,20.9036,-0.630554,0.401679,0.0,0.0
742,185.25,69.1804,73.3247,145.193,98.8939,94.3676,0.00306225,0.11522,20.9037,-0.640563,0.419084,0.0,0.0
744,185.75,69.1847,72.4169,142.851,98.9014,94.3502,0.00307196,0.115056,20.9044,-0.640563,0.421413,0.0,0.0
746,186.25,69.269,72.3326,139.647,98.935,95.6123,0.00307697,0.114923,20.905,-0.650571,0.305589,0.0,0.0
748,186.75,68.7793,71.9954,144.399,98.935,94.8756,0.00308102,0.114744,20.9053,-0.66058,0.374781,0.0,0.0
750,187.25,68.8779,71.899,138.186,98.9512,94.5503,0.00307988,0.114535,20.9054,-0.680598,0.406968,0.0,0.0
752,187.75,68.4935,71.9898,139.389,98.9552,94.8903,0.00307496,0.114315,20.9056,-0.690607,0.375221,0.0,0.0
754,188.25,68.3072,71.4426,140.942,98.977,95.4106,0.00307351,0.114092,20.9057,-0.680598,0.328266,0.0,0.0
756,188.75,68.1872,71.374,139.637,98.9793,94.5275,0.00307461,0.113911,20.9057,-0.690607,0.411665,0.0,0.0
758,189.25,68.0993,71.4433,139.707,98.9932,95.3407,0.00307551,0.113765,20.9062,-0.680598,0.336291,0.0,0.0
760,189.75,67.9841,71.3882,140.139,98.9908,95.2542,0.00308345,0.113578,20.9066,-0.670589,0.3442,0.0,0.0
762,190.25,68.2979,71.2473,142.868,99.0015,94.5727,0.00308989,0.113427,20.907,-0.670589,0.409391,0.0,0.0
764,190.75,68.016,70.813,141.023,98.9865,94.5356,0.00308788,0.113254,20.9072,-0.66058,0.411541,0.0,0.0
766,191.25,67.7997,70.7698,137.586,98.9912,94.6658,0.00308625,0.113069,20.9079,-0.700615,0.39966,0.0,0.0
768,191.75,67.5984,70.3485,144.057,98.9845,94.5951,0.00306328,0.112825,20.9084,-0.710624,0.405735,0.0,0.0
770,192.25,67.9277,70.4431,137.938,98.9888,94.9324,0.00304468,0.112544,20.9088,-0.700615,0.374292,0.0,0.0
772,192.75,67.7905,70.4115,137.617,98.9663,95.1723,0.00300796,0.112259,20.9092,-0.690607,0.349676,0.0,0.0
774,193.25,67.5512,69.7074,138.799,98.9706,94.6114,0.00297823,0.111977,20.9094,-0.680598,0.402948,0.0,0.0
776,193.75,66.8315,70.06,144.391,98.9433,94.774,0.00295414,0.111705,20.9097,-0.680598,0.385117,0.0,0.0
778,194.25,67.3979,69.4515,143.696,98.9402,94.7848,0.00291781,0.111446,20.9098,-0.670589,0.383809,0.0,0.0
780,194.75,67.4455,69.5313,142.516,98.9235,94.4808,0.00288838,0.111193,20.91,-0.670589,0.411045,0.0,0.0
782,195.25,67.2114,69.7285,140.344,98.9152,94.0667,0.00286574,0.11095,20.9101,-0.650571,0.449589,0.0,0.0
784,195.75,66.8942,69.627,141.036,98.8856,94.7678,0.00284741,0.110753,20.9106,-0.670589,0.380475,0.0,0.0
786,196.25,67.1236,69.3562,138.446,98.8741,94.7867,0.00284217,0.110498,20.9111,-0.690607,0.37765,0.0,0.0
788,196.75,66.8934,69.0997,138.043,98.8456,94.8992,0.00284362,0.110291,20.9114,-0.700615,0.364469,0.0,0.0
790,197.25,66.4801,68.8435,144.286,98.8266,94.8316,0.00284991,0.110052,20.9117,-0.720633,0.369125,0.0,0.0
792,197.75,66.7794,68.9197,139.329,98.793,94.7616,0.00286197,0.109794,20.9119,-0.710624,0.372677,0.0,0.0
794,198.25,66.8727,68.6727,141.195,98.7751,94.8412,0.00287801,0.109528,20.9121,-0.720633,0.363556,0.0,0.0
796,198.75,66.3734,68.5182,139.911,98.7304,94.6689,0.00289226,0.10926,20.9127,-0.720633,0.375771,0.0,0.0
798,199.25,66.5893,68.3585,138.63,98.7079,94.711,0.00290495,0.108987,20.9136,-0.730642,0.369749,0.0,0.0
800,199.75,65.8111,68.3405,143.426,98.6786,94.2807,0.00291522,0.108713,20.9143,-0.750659,0.407835,0.0,0.0
802,200.25,66.2594,67.8454,144.599,98.641,95.1819,0.00292354,0.108442,20.9149,-0.750659,0.319319,0.0,0.0
804,200.75,65.8414,68.1698,141.911,98.6046,94.3174,0.00290144,0.108177,20.9154,-0.770677,0.397643,0.0,0.0
806,201.25,65.5025,67.7914,142.477,98.5686,94.7153,0.00288353,0.107905,20.9158,-0.770677,0.356716,0.0,0.0
808,201.75,65.7667,67.5728,143.98,98.5251,93.8287,0.0028414,0.107633,20.9161,-0.780686,0.436893,0.0,0.0
810,202.25,65.8541,67.5927,143.221,98.4807,94.4661,0.00280727,0.107413,20.9164,-0.770677,0.372304,0.0,0.0
812,202.75,65.3669,67.2495,140.861,98.4435,94.0334,0.00275562,0.10717,20.9166,-0.790694,0.409991,0.0,0.0
814,203.25,65.1371,67.3969,142.697,98.387,94.3796,0.00271378,0.106916,20.917,-0.760668,0.371979,0.0,0.0
816,203.75,65.3853,67.3413,139.437,98.3466,94.0651,0.0026715,0.10671,20.9175,-0.770677,0.398163,0.0,0.0
818,204.25,65.2263,67.1134,142.407,98.3023,94.8335,0.00263725,0.106434,20.9179,-0.790694,0.321357,0.0,0.0
820,204.75,64.9099,67.3458,140.295,98.2437,95.1537,0.00260761,0.106211,20.9182,-0.780686,0.285868,0.0,0.0
822,205.25,65.3166,66.7753,139.805,98.1871,94.2656,0.0025819,0.105921,20.9185,-0.790694,0.3646,0.0,0.0
824,205.75,65.0201,66.3746,135.567,98.1325,93.0607,0.0025617,0.105686,20.9187,-0.790694,0.474702,0.0,0.0
826,206.25,64.4299,66.2982,139.996,98.1321,94.1157,0.00254592,0.105347,20.9189,-0.770677,0.373823,0.0,0.0
828,206.75,64.6131,66.518,141.525,98.1246,94.2772,0.00253313,0.105072,20.9195,-0.780686,0.357803,0.0,0.0
830,207.25,64.8416,66.1609,142.814,98.1218,93.685,0.00252655,0.104782,20.92,-0.790694,0.413919,0.0,0.0
832,207.75,64.6955,65.9899,135.969,98.1282,94.3514,0.00252464,0.104546,20.9204,-0.760668,0.351091,0.0,0.0
834,208.25,64.3321,65.9363,142.167,98.1325,94.9335,0.00252309,0.104356,20.9207,-0.770677,0.296462,0.0,0.0
836,208.75,64.3459,66.2054,137.454,98.1424,94.66,0.00253257,0.104201,20.9209,-0.800703,0.323173,0.0,0.0
838,209.25,64.201,66.0723,141.803,98.1468,94.2405,0.00254992,0.104076,20.9211,-0.800703,0.363305,0.0,0.0
840,209.75,64.2024,65.7113,141.47,98.1559,94.5638,0.00256397,0.10388,20.9214,-0.810712,0.333495,0.0,0.0
842,210.25,64.2536,66.0838,146.256,98.1681,93.982,0.00256695,0.103721,20.9216,-0.810712,0.389818,0.0,0.0
844,210.75,64.3735,65.3921,139.744,98.197,94.7018,0.00256936,0.103556,20.9218,-0.790694,0.324207,0.0,0.0
846,211.25,64.1339,65.7455,142.617,98.2022,95.469,0.00255742,0.103391,20.922,-0.790694,0.252498,0.0,0.0
848,211.75,64.3128,65.2287,142.905,98.2192,93.6834,0.00253525,0.103257,20.9223,-0.770677,0.422937,0.0,0.0
850,212.25,63.6646,65.203,139.747,98.2271,94.8188,0.00250719,0.103141,20.9228,-0.780686,0.315897,0.0,0.0
852,212.75,63.4515,65.4963,142.222,98.2488,95.0599,0.00247538,0.103041,20.9232,-0.780686,0.295166,0.0,0.0
854,213.25,63.7282,65.1213,144.767,98.2579,94.5604,0.00244709,0.10296,20.9235,-0.820721,0.343123,0.0,0.0
856,213.75,63.4428,65.0576,143.248,98.2777,94.3788,0.0024219,0.102894,20.9238,-0.800703,0.362117,0.0,0.0
858,214.25,63.3759,65.1683,143.171,98.2797,93.5289,0.0024015,0.102841,20.924,-0.800703,0.443217,0.0,0.0
860,214.75,63.2577,64.5585,141.194,98.3173,95.5856,,0.102741,,-0.810712,0.252057,0.0,0.0
862,215.25,63.2786,64.1991,142.988,98.3102,93.6973,,0.102608,,-0.810712,0.429894,0.0,0.0
864,215.75,63.2101,64.1248,141.283,98.3343,95.4253,,0.102447,,-0.800703,0.26862,0.0,0.0
866,216.25,62.4781,63.8318,142.923,98.3276,94.2625,,0.102316,,-0.780686,0.377683,0.0,0.0
868,216.75,62.5874,63.643,140.919,98.3676,95.0228,,0.102203,,-0.780686,0.309458,0.0,0.0
870,217.25,63.1685,64.0567,140.975,98.3703,94.295,,0.102104,,-0.810712,0.37849,0.0,0.0
872,217.75,62.9762,64.1332,143.467,98.3925,94.5244,,,,-0.810712,0.358763,0.0,0.0
874,218.25,62.8176,64.0495,142.927,98.3945,95.3539,,,,-0.83073,0.280792,0.0,0.0
876,218.75,62.7269,63.7049,144.943,98.4182,95.3473,,,,-0.840738,0.283567,0.0,0.0
878,219.25,62.8677,64.0849,138.686,98.4226,94.4422,,,,-0.83073,0.369287,0.0,0.0
880,219.75,62.3935,63.5198,141.989,98.4491,95.6316,,,,-0.840738,0.259737,0.0,0.0
882,220.25,62.1723,63.2544,142.553,98.4526,95.3307,,,,-0.83073,0.288255,0.0,0.0
884,220.75,61.2698,62.8838,142.127,98.4914,94.3869,,,,-0.810712,0.380776,0.0,0.0
886,221.25,62.0752,63.0122,141.823,98.5045,94.8872,,,,-0.83073,0.334674,0.0,0.0
888,221.75,62.2047,62.8054,144.21,98.5183,94.6766,,,,-0.840738,0.355804,0.0,0.0
890,222.25,62.1648,62.4541,141.436,98.5191,94.8339,,,,-0.820721,0.341031,0.0,0.0
892,222.75,62.6931,63.2438,138.484,98.5658,95.1367,,,,-0.83073,0.316748,0.0,0.0
894,223.25,62.0098,63.2023,143.05,98.5524,95.1217,,,,-0.810712,0.316942,0.0,0.0
896,223.75,61.7455,63.0131,142.117,98.5749,94.6585,,,,-0.810712,0.362656,0.0,0.0
898,224.25,60.9816,62.7499,144.113,98.5749,95.1912,,,,-0.820721,0.312452,0.0,0.0
900,224.75,60.8714,62.6398,140.782,98.5923,95.0753,,,,-0.820721,0.324931,0.0,0.0
902,225.25,61.8936,62.4414,139.721,98.5923,94.7736,,,,-0.840738,0.353363,0.0,0.0
903,225.5,61.9292,62.6563,145.476,98.6113,95.9747,,,,-0.840738,0.242435,0.0,0.0