File: 01_Data/PETG/Cone/PET-G_Cone_HF25Scan_220215_R3.csv
Names,Time,Stack TC,Smoke TC,Exh Press,Smoke Comp,Smoke Meas,CO Meter,CO2 Meter,O2 Meter,Sample Mass,Ext Coeff,Start Test,Flame Verif
Chan Gain,,500,500,1,1,1,1,1,1,1,1,1.0,1.0
Offset,,0,0,0.140898,0,0,0,0,0,0,0,0.0,0.0
Gain,,1,1,25.011,12.9668,12.6588,1,1,1,1.00088,1.01977,1.0,1.0
Units,sec,C,C,Pa,%,%,%,%,%,g,/m,,
Baseline,,20.1908,20.464,163.588,98.5104,101.545,-0.000864891,0.0660785,20.9759,-871.583,-0.271415,,
5,1,18.7011,19.1657,164.513,97.3328,100.783,-0.00083724,0.0750844,20.9649,33.2992,-0.311582,0.0,0.0
10,2.25,18.3552,18.7773,163.736,97.2742,100.138,-0.000902349,0.0741655,20.9675,33.5294,-0.25952,0.0,0.0
15,3.5,18.5194,18.8444,159.618,97.2184,100.763,-0.000986421,0.0729327,20.97,33.5194,-0.320384,0.0,0.0
20,4.75,18.4908,18.4149,161.759,97.1594,100.713,-0.00103821,0.0716512,20.9723,33.4294,-0.321317,0.0,0.0
25,6,18.7063,18.8627,163.714,97.1238,100.601,-0.00104368,0.0704073,20.974,33.4093,-0.314639,0.0,0.0
30,7.25,18.6234,18.9119,160.585,97.1017,100.224,-0.00101505,0.0693586,20.975,33.4294,-0.283091,0.0,0.0
35,8.5,18.9908,18.9711,163.183,97.0744,100.179,-0.0010014,0.0683918,20.9765,33.4494,-0.281641,0.0,0.0
40,9.75,18.761,18.4284,161.795,97.0688,100.282,-0.00104205,0.0674982,20.9774,33.4494,-0.291323,0.0,0.0
45,11,18.5924,18.8445,163.9,97.0657,100.414,-0.00112228,0.0668885,20.9779,33.4494,-0.303358,0.0,0.0
50,12.25,18.5092,19.4897,161.704,97.0672,100.084,-0.00121744,0.0666354,20.9787,33.4394,-0.273773,0.0,0.0
55,13.5,19.2512,19.3483,168.92,97.0934,100.362,-0.00126041,0.0664849,20.9794,33.4394,-0.296193,0.0,0.0
60,14.75,18.6014,19.1904,162.444,97.1131,100.328,-0.00126686,0.0663498,20.9799,33.4394,-0.29134,0.0,0.0
65,16,18.8155,19.3604,162.014,97.1452,100.507,-0.00125011,0.066289,20.98,33.4394,-0.304321,0.0,0.0
70,17.25,19.1764,19.6074,160.774,97.2057,100.574,-0.00126829,0.0661897,20.98,33.4394,-0.304728,0.0,0.0
75,18.5,18.6196,19.3482,159.946,97.2378,100.759,-0.0012983,0.0660632,20.9801,33.4394,-0.318188,0.0,0.0
80,19.75,19.0967,19.5778,165.276,97.2968,100.267,-0.00132299,0.0659264,20.9801,33.4394,-0.268964,0.0,0.0
85,21,19.1886,19.838,166.731,97.3676,100.726,-0.00131105,0.0657019,20.981,33.4394,-0.303374,0.0,0.0
90,22.25,19.0004,19.3571,161.087,97.4285,100.75,-0.0012552,0.0653394,20.9816,33.4394,-0.299836,0.0,0.0
95,23.5,19.5404,19.7331,162.022,97.4934,100.653,-0.0011844,0.0650391,20.9819,33.4093,-0.285265,0.0,0.0
100,24.75,18.5315,18.577,164.335,97.5749,101.145,-0.00107896,0.0648485,20.9817,33.4093,-0.321423,0.0,0.0
105,26,18.7341,19.0544,166.71,97.658,100.9,-0.00098418,0.0647135,20.9818,33.4294,-0.292121,0.0,0.0
110,27.25,19.0945,19.351,165.132,97.7364,101.183,-0.000937615,0.0646336,20.9819,33.4394,-0.31005,0.0,0.0
115,28.5,18.2608,18.4035,164.157,97.8266,101.164,-0.000953381,0.0646529,20.982,33.4394,-0.300054,0.0,0.0
120,29.75,19.2022,19.2113,167.442,97.9105,101.349,-0.00102139,0.0646363,20.9821,33.4093,-0.308768,0.0,0.0
125,31,18.7097,19.279,165.206,97.9972,101.149,-0.00111824,0.0645396,20.9821,33.3993,-0.283175,0.0,0.0
130,32.25,18.6906,18.8242,165.119,98.0652,100.788,-0.00121492,0.0645586,20.9821,33.4093,-0.244962,0.0,0.0
135,33.5,19.0469,19.2746,165.451,98.1578,101.566,-0.00128835,0.0647052,20.9821,33.3993,-0.305308,0.0,0.0
140,34.75,18.2982,19.071,162.029,98.2342,101.656,-0.00134191,0.0648343,20.9821,33.3893,-0.306275,0.0,0.0
145,36,19.3772,19.1132,163.105,98.3228,101.829,-0.0013774,0.064891,20.9821,33.3893,-0.313458,0.0,0.0
150,37.25,18.9283,19.4231,163.239,98.3822,101.79,-0.001392,0.0647475,20.9821,33.3893,-0.304598,0.0,0.0
155,38.5,19.0628,19.4589,167.195,98.4653,101.944,-0.00139291,0.0646052,20.9821,33.4093,-0.310614,0.0,0.0
160,39.75,18.9049,18.952,161.313,98.5401,101.987,-0.0013909,0.0645213,20.9821,33.4193,-0.307551,0.0,0.0
165,41,18.9333,19.4402,163.034,98.6141,102.185,-0.00138261,0.0644717,20.9812,33.4294,-0.318168,0.0,0.0
170,42.25,18.7283,19.3401,165.083,98.6663,102.253,-0.00135412,0.0644424,20.9809,33.4193,-0.31938,0.0,0.0
175,43.5,18.7371,19.4125,164.396,98.7443,102.605,-0.0012925,0.0645246,20.9814,33.4294,-0.343051,0.0,0.0
180,44.75,18.4208,19.0995,157.698,98.8064,102.428,-0.00120804,0.0645886,20.9817,33.4294,-0.321985,0.0,0.0
185,46,18.5356,19.1838,161.755,98.8353,102.532,-0.0011229,0.0646264,20.9819,33.4193,-0.328509,0.0,0.0
190,47.25,18.6313,19.7711,162.366,98.8895,102.417,-0.00105322,0.0646004,20.982,33.4193,-0.313521,0.0,0.0
195,48.5,18.7198,19.1494,167.067,98.9362,102.59,-0.00101608,0.0645556,20.981,33.4093,-0.324435,0.0,0.0
200,49.75,19.1999,19.5201,162.474,98.9647,102.03,-0.00101859,0.0645329,20.9805,33.4093,-0.272882,0.0,0.0
205,51,18.8046,19.4921,163.549,98.9904,102.343,-0.0010236,0.0645629,20.9801,33.4093,-0.29795,0.0,0.0
210,52.25,18.4031,19.5659,164.371,99.0039,102.359,-0.00100983,0.0645673,20.9799,33.4093,-0.298153,0.0,0.0
215,53.5,18.6485,19.1798,162.997,99.026,102.542,-0.000968848,0.0646115,20.9798,33.4093,-0.31214,0.0,0.0
220,54.75,18.701,19.6419,162.846,99.0292,102.623,-0.000923618,0.0646427,20.9798,33.4093,-0.318894,0.0,0.0
225,56,18.8279,19.5791,161.393,99.0213,102.705,-0.000884174,0.0646565,20.9797,33.3993,-0.326778,0.0,0.0
230,57.25,18.8806,19.4922,160.474,99.03,102.393,-0.000858515,0.0646071,20.98,33.3993,-0.298696,0.0,0.0
235,58.5,18.5696,19.6305,166.168,99.0201,102.742,-0.000829975,0.0646149,20.9802,33.4093,-0.330048,0.0,0.0
240,59.75,18.1088,19.1636,160.626,98.9975,102.04,-0.000791345,0.0645823,20.9804,33.3793,-0.270761,0.0,0.0
245,61,18.7157,19.59,164.352,98.9584,102.21,-0.000754218,0.0646129,20.9809,33.3893,-0.289224,0.0,0.0
250,62.25,18.9372,19.4532,162.279,98.9508,102.356,-0.000732257,0.0646141,20.9816,33.3993,-0.302642,0.0,0.0
255,63.5,18.3724,18.9416,161.904,98.9196,102.315,-0.000716141,0.0645306,20.9821,33.3993,-0.301888,0.0,0.0
260,64.75,18.9532,18.8955,163.339,98.8745,102.536,-0.000706038,0.0644958,20.9824,33.3793,-0.325301,0.0,0.0
265,66,18.809,19.7302,160.702,98.8373,102.271,-0.000717426,0.0645382,20.9826,33.3793,-0.305518,0.0,0.0
270,67.25,18.2332,18.7751,163.702,98.8013,102.533,-0.000784639,0.0646036,20.9819,33.3993,-0.331657,0.0,0.0
275,68.5,18.9777,19.6727,161.092,98.7585,102.145,-0.000846548,0.064678,20.9813,33.3793,-0.301591,0.0,0.0
280,69.75,18.6178,19.6726,164.81,98.698,102.247,-0.000910099,0.0647584,20.981,33.3793,-0.31597,0.0,0.0
285,71,18.3905,18.9521,161.095,98.6572,102.076,-0.00102467,0.0647841,20.9805,33.3693,-0.304713,0.0,0.0
290,72.25,18.9549,19.8289,163.165,98.6054,101.882,-0.00109547,0.0648085,20.9802,33.3593,-0.292438,0.0,0.0
295,73.5,18.8617,19.7237,159.96,98.5583,101.805,-0.00109283,0.064837,20.98,33.3593,-0.289891,0.0,0.0
300,74.75,18.585,19.4669,168,98.5108,102.042,-0.000964256,0.0647948,20.9798,33.3693,-0.315019,0.0,0.0
305,76,18.6084,19.1488,165.399,98.4602,102.036,-0.000822899,0.0647748,20.9798,33.3693,-0.319112,0.0,0.0
310,77.25,18.5983,19.5591,163.08,98.4182,101.973,-0.000719236,0.0647938,20.9797,33.3593,-0.317401,0.0,0.0
315,78.5,18.8515,19.8924,159.891,98.368,102.137,-0.000684598,0.064786,20.9797,33.3593,-0.336361,0.0,0.0
320,79.75,18.5364,19.039,159.563,98.3264,101.978,-0.000690474,0.0647526,20.9797,33.3593,-0.326157,0.0,0.0
325,81,18.8777,19.0993,161.858,98.3023,101.666,-0.000691603,0.0648198,20.9797,33.3493,-0.300964,0.0,0.0
330,82.25,18.8161,19.2335,163.316,98.2766,102.018,-0.000691044,0.0649502,20.9797,33.3593,-0.334251,0.0,0.0
335,83.5,18.5323,19.5144,162.483,98.2397,101.865,-0.000701483,0.0650411,20.9797,33.3693,-0.324177,0.0,0.0
340,84.75,18.963,19.5594,164.034,98.3268,101.364,-0.000727941,0.0650465,20.9792,33.3693,-0.272111,0.0,0.0
345,86,18.374,19.0784,165.19,98.4024,101.73,-0.000772755,0.0650047,20.9785,33.3693,-0.297499,0.0,0.0
350,87.25,18.712,19.3146,164.732,98.4859,101.806,-0.000829144,0.0649449,20.978,33.3593,-0.296602,0.0,0.0
355,88.5,18.6452,19.0703,162.691,98.5512,102.109,-0.000902241,0.0649323,20.9776,33.3593,-0.317246,0.0,0.0
360,89.75,18.4618,19.6685,161.245,98.6307,102.076,-0.000959923,0.064905,20.9772,33.3693,-0.307152,0.0,0.0
365,91,18.245,19.417,164.173,98.6679,102.426,-0.000997435,0.0648688,20.9769,33.3493,-0.334365,0.0,0.0
370,92.25,19.0822,19.7878,167.324,98.7166,102.42,-0.00103458,0.0648285,20.977,33.3393,-0.329413,0.0,0.0
375,93.5,18.6546,19.6411,162.811,98.7431,102.262,-0.00108977,0.0647759,20.9781,33.3493,-0.3132,0.0,0.0
380,94.75,18.7156,19.4366,164.019,98.7842,102.184,-0.00114617,0.0647592,20.9793,33.3393,-0.302712,0.0,0.0
385,96,18.6061,19.3405,166.029,98.8092,102.253,-0.00117892,0.064754,20.98,33.3593,-0.306438,0.0,0.0
390,97.25,18.971,19.5916,166.407,98.8025,102.205,-0.00116102,0.0647509,20.9804,33.3493,-0.302856,0.0,0.0
395,98.5,19.4448,20.2548,165.278,98.7886,102.29,-0.00108048,0.0647111,20.9809,33.3493,-0.311545,0.0,0.0
400,99.75,19.3721,19.8879,164.887,98.7882,102.029,-0.000969148,0.064644,20.9813,33.3393,-0.288714,0.0,0.0
405,101,18.7043,19.9517,161.748,98.768,102.191,-0.000877893,0.0646496,20.9815,33.3393,-0.304722,0.0,0.0
410,102.25,19.0148,19.8797,160.93,98.7245,102.413,-0.000854622,0.0646911,20.9816,33.3293,-0.328089,0.0,0.0
415,103.5,18.5415,19.1424,162.981,98.6889,102.399,-0.000883511,0.0647156,20.9817,33.3493,-0.330135,0.0,0.0
420,104.75,18.4797,19.8396,160.266,98.6406,102.19,-0.000912722,0.0646439,20.9817,33.3493,-0.316236,0.0,0.0
425,106,19.1108,19.742,166.584,98.5864,101.817,-0.000933905,0.0645869,20.9818,33.3393,-0.288427,0.0,0.0
430,107.25,18.544,19.2663,161.648,98.4934,102.078,-0.000928827,0.0646021,20.9818,33.3493,-0.319783,0.0,0.0
435,108.5,18.6444,20.0465,161.166,98.4218,102.101,-0.000905211,0.0645943,20.9818,33.3493,-0.328322,0.0,0.0
440,109.75,19.0646,19.6002,164.124,98.3236,101.603,-0.000842052,0.0645626,20.9818,33.3393,-0.293477,0.0,0.0
445,111,19.1362,19.9782,163.038,98.2152,101.347,-0.000776581,0.0646106,20.9818,33.3293,-0.280769,0.0,0.0
450,112.25,19.0348,19.4431,163.89,98.0965,101.641,-0.000746015,0.064592,20.9818,33.3193,-0.317533,0.0,0.0
455,113.5,18.9411,19.316,163.983,97.9683,101.342,-0.000749309,0.0645181,20.9818,33.3193,-0.302844,0.0,0.0
460,114.75,19.1554,20.0626,162.755,97.9635,101.405,-0.000753182,0.0645422,20.9818,33.3393,-0.308867,0.0,0.0
465,116,19.2161,19.7077,164.285,97.9695,101.457,-0.000752917,0.0645415,20.9818,33.3393,-0.312925,0.0,0.0
470,117.25,19.2984,20.0418,163.828,97.9881,101.598,-0.000776329,0.0645698,20.9814,33.3393,-0.32365,0.0,0.0
475,118.5,18.8993,19.7551,163.803,98.0201,101.414,-0.000820342,0.064759,20.9809,33.3293,-0.304519,0.0,0.0
480,119.75,19.1314,19.7718,163.876,98.0498,101.744,-0.000858888,0.0648224,20.9805,33.3193,-0.330865,0.0,0.0
485,121,19.1963,19.8366,171.443,98.0534,101.416,-0.000876546,0.0648024,20.98,33.3193,-0.301657,0.0,0.0
490,122.25,18.2683,19.361,164.152,98.0925,101.671,-0.000874217,0.0648039,20.9798,33.3193,-0.320478,0.0,0.0
495,123.5,18.7515,19.518,161.275,98.1198,101.631,-0.000899326,0.0648232,20.9797,33.3093,-0.31452,0.0,0.0
500,124.75,18.9762,19.5089,163.97,98.1535,101.624,-0.00096192,0.064878,20.9796,33.3193,-0.310842,0.0,0.0
505,126,18.5656,19.2272,164.423,98.1863,101.564,-0.00106484,0.0648529,20.9795,33.3193,-0.302542,0.0,0.0
510,127.25,18.4335,19.6008,164.67,98.2124,101.157,-0.00114613,0.0648233,20.9795,33.3093,-0.264263,0.0,0.0
515,128.5,18.9439,19.7482,162.401,98.2401,101.635,-0.00118231,0.0648493,20.9795,33.3093,-0.303933,0.0,0.0
520,129.75,19.299,19.4037,161.643,98.2556,101.703,-0.00120238,0.0648647,20.9795,33.2992,-0.308477,0.0,0.0
525,131,18.9007,19.5579,161.189,98.275,101.833,-0.0012214,0.0647977,20.9799,33.3193,-0.318155,0.0,0.0
530,132.25,18.9523,19.6231,163.551,98.3197,101.721,-0.00123518,0.0647585,20.98,33.3093,-0.304205,0.0,0.0
535,133.5,18.9324,19.462,163.774,98.3446,101.609,-0.00124847,0.0647364,20.9801,33.3193,-0.292147,0.0,0.0
540,134.75,18.5452,19.2872,161.935,98.3533,101.774,-0.00125521,0.0647861,20.9802,33.3093,-0.305832,0.0,0.0
545,136,19.421,19.7775,162.23,98.3747,101.499,-0.00126111,0.0649016,20.9802,33.3093,-0.279714,0.0,0.0
550,137.25,19.2268,20.1552,165.595,98.3771,101.693,-0.00127934,0.0648904,20.9803,33.3093,-0.296506,0.0,0.0
555,138.5,19.0095,19.8592,164.735,98.3644,101.667,-0.00126034,0.0648691,20.9803,33.3093,-0.29538,0.0,0.0
560,139.75,19.2436,19.7928,162.028,98.3529,101.586,-0.00122588,0.0649133,20.9803,33.3093,-0.289317,0.0,0.0
565,141,19.3089,19.579,160.48,98.3422,101.547,-0.00116987,0.0650347,20.9807,33.3093,-0.286886,0.0,0.0
570,142.25,19.334,20.1759,163.239,98.3248,101.763,-0.00112409,0.0650909,20.9811,33.2892,-0.307439,0.0,0.0
575,143.5,18.7947,19.8751,160.357,98.2987,101.292,-0.00108164,0.0650597,20.9813,33.2892,-0.268289,0.0,0.0
580,144.75,19.2211,20.1162,165.032,98.2599,101.366,-0.00102539,0.0650055,20.9814,33.2792,-0.278368,0.0,0.0
585,146,19.3557,20.2174,159.832,98.2271,101.469,-0.000988147,0.0649651,20.9815,33.2992,-0.29049,0.0,0.0
590,147.25,19.2049,19.8861,162.424,98.1935,101.449,-0.000998895,0.0650498,20.9811,33.2992,-0.291748,0.0,0.0
595,148.5,19.0703,19.7076,160.061,98.1507,101.135,-0.00104659,0.0651146,20.9804,33.3093,-0.26794,0.0,0.0
600,149.75,19.1237,19.2754,159.218,98.0985,100.965,-0.00109639,0.0651227,20.9799,33.2892,-0.257655,0.0,0.0
605,151,19.1158,20.2385,165.154,98.0466,100.976,-0.00113919,0.0651429,20.9797,33.2792,-0.263341,0.0,0.0
610,152.25,18.6574,19.9731,159.992,97.9944,101.062,-0.00118036,0.0651549,20.9795,33.2892,-0.275737,0.0,0.0
615,153.5,18.9064,19.8063,162.593,97.9382,100.852,-0.00124225,0.0652102,20.9794,33.2892,-0.262213,0.0,0.0
620,154.75,19.1193,20.0676,163.963,97.8895,100.845,-0.00132324,0.0653245,20.9794,33.2792,-0.266042,0.0,0.0
625,156,19.3207,19.7607,164.345,97.8452,100.612,-0.00140581,0.065492,20.9798,33.2692,-0.249474,0.0,0.0
630,157.25,18.9439,19.9196,163.427,97.7795,100.873,-0.00144436,0.0655489,20.9805,33.2792,-0.278635,0.0,0.0
635,158.5,18.7236,19.4307,159.963,97.7111,100.296,-0.00141726,0.065567,20.981,33.2692,-0.233572,0.0,0.0
640,159.75,19.125,19.876,162.359,97.6533,100.721,-0.00133759,0.0655778,20.9812,33.2492,-0.276684,0.0,0.0
645,161,18.8733,19.4498,154.213,97.5983,100.385,-0.00123425,0.0655461,20.9814,33.2792,-0.251824,0.0,0.0
650,162.25,19.391,20.1692,163.191,97.5457,100.415,-0.00114414,0.0655079,20.9815,33.2792,-0.259369,0.0,0.0
655,163.5,19.4269,20.4719,157.943,97.4756,100.248,-0.00107573,0.0654612,20.9815,33.2892,-0.250879,0.0,0.0
660,164.75,19.2737,20.3416,164.475,97.4325,100.157,-0.00101928,0.0654003,20.9815,33.2692,-0.2467,0.0,0.0
665,166,19.0021,19.5849,162.346,97.3719,100.143,-0.000959498,0.0653073,20.9816,33.2792,-0.251018,0.0,0.0
670,167.25,19.1453,20.2845,161.942,97.3217,100.186,-0.000889856,0.0652422,20.9816,33.2592,-0.259466,0.0,0.0
675,168.5,18.8535,19.5729,167.141,97.2746,99.8432,-0.000850681,0.0651945,20.9816,33.2692,-0.233147,0.0,0.0
680,169.75,18.8546,19.2809,160.353,97.2338,99.9159,-0.000849067,0.0651083,20.9816,33.2492,-0.243401,0.0,0.0
685,171,19.2787,20.3254,162.404,97.1935,100.064,-0.000873319,0.0650482,20.9807,33.2592,-0.260352,0.0,0.0
690,172.25,19.1499,20.415,165.072,97.1547,100.118,-0.000900256,0.0649124,20.9798,33.2592,-0.268755,0.0,0.0
695,173.5,18.8635,19.7209,160.998,97.1187,99.8792,-0.000946539,0.0648087,20.9793,33.2492,-0.250715,0.0,0.0
700,174.75,19.4254,20.4279,165.765,97.0938,99.6528,-0.00104027,0.0648982,20.9792,33.2292,-0.232713,0.0,0.0
705,176,19.3658,19.9984,161.682,97.0712,99.5029,-0.00112393,0.0649797,20.9798,33.2292,-0.221327,0.0,0.0
710,177.25,19.3846,20.1234,164.54,97.0407,99.2275,-0.00116949,0.0650069,20.9802,33.2392,-0.199338,0.0,0.0
715,178.5,19.3851,20.3725,158.125,97.0431,99.445,-0.0011901,0.0649577,20.9804,33.2492,-0.218704,0.0,0.0
720,179.75,19.4404,20.5779,165.385,97.0304,99.3658,-0.00118897,0.064977,20.9805,33.2592,-0.212745,0.0,0.0
725,181,19.2501,20.1436,164.809,97.0312,99.4272,-0.00118199,0.0649975,20.9806,33.2592,-0.218201,0.0,0.0
730,182.25,19.375,20.3109,161.872,97.0407,99.2445,-0.00117451,0.0649856,20.981,33.2492,-0.20087,0.0,0.0
735,183.5,19.296,20.0606,165.913,97.0581,99.7208,-0.00116299,0.0649497,20.9812,33.2392,-0.242096,0.0,0.0
740,184.75,19.5346,20.0777,165.366,97.0676,99.7366,-0.00114798,0.0648613,20.9814,33.2592,-0.242642,0.0,0.0
745,186,19.1937,20.577,164.545,97.0973,99.6424,-0.00106513,0.0647741,20.981,33.2492,-0.231448,0.0,0.0
750,187.25,19.668,20.3747,162.48,97.1357,99.3445,-0.000960503,0.0647142,20.9805,33.2392,-0.201134,0.0,0.0
755,188.5,19.2486,20.0784,163.842,97.1598,99.5709,-0.000862583,0.0647005,20.9811,33.2192,-0.219271,0.0,0.0
760,189.75,19.128,20.152,164.319,97.2053,99.5527,-0.000806572,0.0647305,20.9808,33.2092,-0.213452,0.0,0.0
765,191,19.1059,19.8979,163.694,97.2477,99.4762,-0.000798832,0.0647964,20.9804,33.2292,-0.202681,0.0,0.0
770,192.25,19.0105,20.3288,161.165,97.2944,99.5384,-0.000815039,0.0649068,20.9802,33.2392,-0.203978,0.0,0.0
775,193.5,19.1927,20.2758,159.283,97.366,99.7073,-0.000831631,0.0650154,20.9799,33.2192,-0.212554,0.0,0.0
780,194.75,19.1492,20.0125,166.915,97.4459,99.6443,-0.000846186,0.0651063,20.9791,33.2192,-0.199561,0.0,0.0
785,196,19.3604,20.6284,164.18,97.5073,99.8108,-0.000906284,0.0652707,20.979,33.2492,-0.208868,0.0,0.0
790,197.25,18.6506,19.7701,160.882,97.5916,99.6547,-0.000974149,0.0654413,20.9794,33.2292,-0.187139,0.0,0.0
795,198.5,18.9151,19.9151,162.587,97.6711,100.349,-0.00102882,0.0654243,20.9796,33.2192,-0.241951,0.0,0.0
800,199.75,19.1577,20.1074,158.051,97.7613,99.9711,-0.00102682,0.065321,20.9797,33.2092,-0.199949,0.0,0.0
805,201,19.0788,20.4487,165.596,97.8401,100.109,-0.000985933,0.0652025,20.9798,33.1791,-0.205113,0.0,0.0
810,202.25,19.4465,20.5098,158.29,97.9287,100.257,-0.000946423,0.0650361,20.9799,33.1891,-0.210223,0.0,0.0
815,203.5,19.1137,20.2424,164.601,98.0427,100.213,-0.000946194,0.0649621,20.9799,33.1791,-0.195854,0.0,0.0
820,204.75,18.6928,19.917,163.104,98.1317,100.216,-0.00100026,0.0649689,20.9799,33.1992,-0.188045,0.0,0.0
825,206,19.6242,20.5205,162.513,98.1966,100.179,-0.00105334,0.0649413,20.9799,33.1891,-0.178786,0.0,0.0
830,207.25,19.3031,20.5697,159.586,98.2912,100.055,-0.00109265,0.0648443,20.9799,33.1992,-0.159094,0.0,0.0
835,208.5,19.1104,20.2872,158.857,98.3913,100.519,-0.00109869,0.0647774,20.9799,33.1891,-0.191406,0.0,0.0
840,209.75,18.973,19.9365,158.038,98.4697,100.028,-0.00110218,0.0647949,20.9799,33.1891,-0.140449,0.0,0.0
845,211,19.2188,20.4809,167.469,98.5508,100.777,-0.00111203,0.0648724,20.9799,33.1891,-0.199856,0.0,0.0
850,212.25,19.4406,19.8397,161.434,98.6295,100.767,-0.00111369,0.0649777,20.9799,33.1791,-0.191785,0.0,0.0
855,213.5,19.2806,19.9997,163.064,98.6948,100.62,-0.00106563,0.0651241,20.9799,33.1591,-0.172824,0.0,0.0
860,214.75,19.3709,20.2113,162.353,98.7439,100.838,-0.000951485,0.0652782,20.9799,33.1791,-0.18776,0.0,0.0
865,216,18.8469,20.1382,163.621,98.8064,100.834,-0.000777168,0.0653785,20.9793,33.1791,-0.181721,0.0,0.0
870,217.25,18.9247,20.319,164.658,98.8535,100.793,-0.000636361,0.0654377,20.9787,33.1791,-0.173791,0.0,0.0
875,218.5,19.3357,20.399,160.624,98.9006,100.172,-0.000595723,0.0654726,20.9783,33.1791,-0.114229,0.0,0.0
880,219.75,18.8096,19.8779,164.971,98.935,100.681,-0.000601707,0.0655657,20.978,33.1591,-0.156469,0.0,0.0
885,221,19.6336,20.5057,162.64,98.9801,100.85,-0.000631491,0.065598,20.9779,33.1591,-0.167413,0.0,0.0
890,222.25,19.5782,20.8687,163,99.0019,100.814,-0.000646895,0.0656823,20.9778,33.1591,-0.162259,0.0,0.0
895,223.5,19.4582,20.5972,161.271,99.0173,100.551,-0.000645135,0.0657587,20.9777,33.1491,-0.13749,0.0,0.0
900,224.75,19.2937,20.3207,165.841,99.0201,101.177,-0.000627789,0.0658728,20.9777,33.1491,-0.192777,0.0,0.0
905,226,19.3927,20.4772,166.061,99.0347,100.869,-0.00060744,0.0659976,20.9777,33.1391,-0.164124,0.0,0.0
910,227.25,18.9994,20.1828,164.799,99.0169,100.974,-0.000597566,0.0661149,20.9777,33.1391,-0.175114,0.0,0.0
915,228.5,19.3592,20.8772,163.523,99.0011,100.85,-0.000592767,0.0662751,20.9777,33.1291,-0.165483,0.0,0.0
920,229.75,19.0446,19.9323,165.557,98.9659,100.75,-0.000609618,0.0664847,20.9767,33.1291,-0.159821,0.0,0.0
925,231,19.0718,20.0929,161.754,98.9287,100.824,-0.000678913,0.0666807,20.9762,33.1191,-0.169733,0.0,0.0
930,232.25,19.5951,20.1411,166.902,98.9002,100.207,-0.000765843,0.0667663,20.9759,33.1191,-0.117404,0.0,0.0
935,233.5,19.1291,20.27,161.84,98.84,100.641,-0.000898161,0.0668323,20.9757,33.1091,-0.16149,0.0,0.0
940,234.75,19.1132,20.2324,161.116,98.8056,100.795,-0.00103055,0.0668712,20.9756,33.1291,-0.178296,0.0,0.0
945,236,19.2946,20.5899,160.728,98.7451,100.828,-0.00107453,0.0668942,20.9755,33.0991,-0.186728,0.0,0.0
950,237.25,19.6317,20.9752,162.611,98.6707,100.043,-0.00102744,0.0669148,20.9755,33.0891,-0.123518,0.0,0.0
955,238.5,19.6027,20.4172,162.631,98.5967,100.226,-0.000938996,0.0670422,20.9754,33.049,-0.146588,0.0,0.0
960,239.75,19.6713,20.4553,163.148,98.5385,99.5292,-0.000814391,0.0673205,20.9754,33.059,-0.0894835,0.0,0.0
965,241,19.369,20.7688,165.816,98.4744,100.034,-0.000686721,0.0674994,20.9754,33.059,-0.140605,0.0,0.0
970,242.25,18.8378,20.355,166.7,98.4234,100.141,-0.000636837,0.067563,20.975,33.059,-0.154739,0.0,0.0
975,243.5,19.7253,20.4533,164.406,98.3565,99.2437,-0.00061691,0.067733,20.9742,33.059,-0.0803275,0.0,0.0
980,244.75,18.5046,20.0292,160.015,98.3169,99.5535,-0.00062908,0.0681305,20.9738,33.059,-0.11181,0.0,0.0
985,246,19.5245,20.4331,162.573,98.2797,99.0714,-0.000649646,0.0687867,20.9727,33.009,-0.0717684,0.0,0.0
990,247.25,19.4732,20.8517,162.404,98.2382,99.7691,-0.000663718,0.0694034,20.972,33.059,-0.138326,0.0,0.0
995,248.5,19.601,20.3591,166.857,98.3185,99.7548,-0.000604804,0.0699336,20.9715,33.039,-0.129733,0.0,0.0
1000,249.75,19.5437,20.4597,160.184,98.4245,98.5676,-0.000492469,0.0715632,20.9685,33.019,-0.0129946,0.0,1.0
1005,251,19.3332,20.486,167.352,98.5167,100.9,-0.000270241,0.0753194,20.9593,32.969,-0.213843,0.0,1.0
1010,252.25,19.5181,20.9874,156.875,98.5757,99.4647,0.000105636,0.0892182,20.9327,32.979,-0.0803071,0.0,1.0
1015,253.5,19.5039,21.2824,156.622,98.6446,92.6605,0.000688934,0.110998,20.9003,32.8789,0.559811,0.0,1.0
1020,254.75,20.016,21.2707,157.788,98.7,89.3899,0.0014935,0.140206,20.8751,32.8789,0.886276,0.0,1.0
1025,256,20.5296,21.7958,158.042,98.7419,84.4443,0.00250192,0.174808,20.8379,32.7888,1.39921,0.0,1.0
1030,257.25,20.7018,22.5836,152.131,98.7641,82.9774,0.00380167,0.216343,20.7843,32.6787,1.55797,0.0,0.0
1035,258.5,21.4594,23.485,151.074,98.8025,76.597,0.00515423,0.258029,20.721,32.5386,2.27716,0.0,0.0
1040,259.75,22.0125,23.7703,148.093,98.8052,76.1361,0.00664732,0.30944,20.651,32.3884,2.3314,0.0,0.0
1045,261,23.4381,25.9291,144.441,98.8013,76.1829,0.00788477,0.358873,20.5775,32.2884,2.32555,0.0,0.0
1050,262.25,23.9967,27.5137,144.88,98.7993,71.6004,0.00925255,0.40547,20.5169,32.0982,2.88031,0.0,0.0
1055,263.5,25.1092,27.9004,145.999,98.7961,75.7997,0.0103826,0.449303,20.4582,31.9481,2.3702,0.0,0.0
1060,264.75,26.5603,30.0088,138.405,98.7827,77.2089,0.011402,0.488785,20.4055,31.8179,2.20419,0.0,0.0
1065,266,27.9247,31.7482,141.533,98.7633,70.0652,0.0123381,0.52607,20.356,31.6378,3.07094,0.0,0.0
1070,267.25,28.2399,32.4453,141.136,98.7475,70.5307,0.0131005,0.558983,20.3196,31.4877,3.01027,0.0,0.0
1075,268.5,29.6821,34.246,139.561,98.7285,68.4855,0.0138846,0.588471,20.2848,31.3275,3.27177,0.0,0.0
1080,269.75,31.0601,35.7617,137.87,98.7146,69.5367,0.0148561,0.61934,20.2478,31.1574,3.13425,0.0,0.0
1085,271,32.1057,38.117,136.408,98.6877,72.1872,0.015767,0.643135,20.2086,30.9472,2.79719,0.0,0.0
1090,272.25,32.8303,38.4817,141.454,98.6394,70.7327,0.0166067,0.669277,20.1679,30.747,2.97489,0.0,0.0
1095,273.5,34.0304,41.2113,130.738,98.5951,68.3178,0.017437,0.695943,20.1309,30.5568,3.2816,0.0,0.0
1100,274.75,35.5693,42.3111,133.11,98.5654,67.8002,0.0181285,0.721049,20.097,30.3667,3.34695,0.0,0.0
1105,276,36.6208,44.4992,136.826,98.5258,66.4855,0.0190586,0.747837,20.0675,30.1365,3.51851,0.0,0.0
1110,277.25,37.8425,46.1902,134.443,98.4985,66.941,0.019881,0.768954,20.0409,29.8963,3.45496,0.0,0.0
1115,278.5,39.1479,47.6792,127.618,98.4511,64.5876,0.0204775,0.79071,20.0202,29.6861,3.7708,0.0,0.0
1120,279.75,40.5329,49.1528,136.182,98.4127,65.4127,0.0211616,0.812226,19.9981,29.5259,3.65375,0.0,0.0
1125,281,42.4248,50.2176,135.997,98.3719,60.923,0.0221547,0.831516,19.9691,29.2357,4.28612,0.0,0.0
1130,282.25,42.9012,52.8741,137.999,98.3426,64.5408,0.0231402,0.85928,19.9351,29.0155,3.76742,0.0,0.0
1135,283.5,44.3647,53.9225,134.075,98.294,58.8226,0.0247199,0.891102,19.8946,28.7953,4.59287,0.0,0.0
1140,284.75,45.4767,55.7996,129.632,98.2445,57.4253,0.0264337,0.922722,19.8486,28.425,4.80342,0.0,0.0
1145,286,46.5451,58.1004,137.529,98.2219,61.166,0.0280839,0.96047,19.7925,28.1447,4.23686,0.0,0.0
1150,287.25,48.4907,59.3441,122.254,98.1851,57.0938,0.0297636,1.00773,19.7309,27.8545,4.8498,0.0,0.0
1155,288.5,49.9034,61.8716,115.799,98.1388,54.1717,0.0314452,1.05432,19.6659,27.5542,5.31554,0.0,0.0
1160,289.75,51.4237,63.5671,120.036,98.0997,54.0589,0.033121,1.10625,19.6061,27.2439,5.33062,0.0,0.0
1165,291,53.0527,65.8043,121.681,98.0534,51.9708,0.034928,1.16048,19.5384,26.9136,5.67876,0.0,0.0
1170,292.25,54.956,67.9189,117.247,98.0261,52.2467,0.036904,1.21793,19.4669,26.5733,5.62892,0.0,0.0
1175,293.5,56.6348,70.499,121.081,97.998,49.7773,0.0389202,1.27696,19.3679,26.183,6.05945,0.0,0.0
1180,294.75,58.3046,73.1058,115.296,98.0098,48.6246,0.0411213,1.34428,19.2679,25.8127,6.27014,0.0,0.0
1185,296,60.3909,75.8449,120.337,97.9817,45.3907,0.0435642,1.42488,19.1784,25.4123,6.8832,0.0,0.0
1190,297.25,62.2392,78.8191,113.668,97.9841,44.6926,0.0468506,1.50299,19.0945,25.032,7.02206,0.0,0.0
1195,298.5,63.4907,81.2794,117.667,98.017,46.3248,0.0504276,1.57917,19.0054,24.6316,6.7042,0.0,0.0
1200,299.75,66.7353,84.8784,116.835,97.9928,46.0938,0.0533982,1.65456,18.9337,24.2013,6.74671,0.0,0.0
1205,301,68.5259,87.9558,110.641,98.0027,46.2259,0.0569663,1.72293,18.8536,23.7308,6.72201,0.0,0.0
1210,302.25,70.2745,90.4313,105.659,98.0031,45.7206,0.0599546,1.79195,18.7751,23.2604,6.82037,0.0,0.0
1215,303.5,73.4459,93.8721,116.03,97.9964,46.1201,0.0626701,1.84739,18.7093,22.77,6.74194,0.0,0.0
1220,304.75,75.5873,97.536,104.349,98.009,46.4867,0.0653723,1.91695,18.6303,22.2796,6.67227,0.0,0.0
1225,306,77.2597,99.9827,102.055,98.0035,44.2337,0.0678375,1.99016,18.5452,21.8792,7.11616,0.0,0.0
1230,307.25,80.3655,104.248,115.049,98.0019,43.3003,0.0706984,2.06464,18.4469,21.3888,7.30679,0.0,0.0
1235,308.5,82.1318,107.039,103.889,97.9944,40.8627,0.0738836,2.14194,18.3343,20.7782,7.82442,0.0,0.0
1240,309.75,84.5191,109.476,106.234,98.0019,40.7143,0.0777601,2.22912,18.2195,20.2578,7.85765,0.0,0.0
1245,311,87.098,114.066,102.679,97.9988,40.821,0.0821411,2.32842,18.1131,19.7473,7.83396,0.0,0.0
1250,312.25,89.7612,118.119,93.6363,97.9912,43.0736,0.0869677,2.43326,18.0008,19.1168,7.35278,0.0,0.0
1255,313.5,92.4079,121.876,117.562,97.9976,40.1878,0.0917176,2.53817,17.8674,18.6764,7.97369,0.0,0.0
1260,314.75,94.9834,126.103,95.8147,98.0316,43.1331,0.0967571,2.67946,17.6972,17.9558,7.34412,0.0,0.0
1265,316,97.9098,130.339,85.7143,98.0684,38.4204,0.102484,2.82178,17.5375,17.2251,8.38247,0.0,0.0
1270,317.25,101.167,134.488,84.1252,98.1135,39.7277,0.108461,2.95971,17.4101,16.5946,8.08727,0.0,0.0
1275,318.5,104.372,138.403,80.9385,98.1717,39.2699,0.1164,3.11478,17.2471,15.884,8.19625,0.0,0.0
1280,319.75,107.519,143.755,92.8143,98.2196,41.2077,0.123797,3.27542,17.0739,15.1733,7.76975,0.0,0.0
1285,321,110.82,148.503,102.612,98.2864,40.6494,0.130874,3.44996,16.9092,14.4627,7.89785,0.0,0.0
1290,322.25,114.083,153.422,82.1086,98.3371,41.4209,0.138206,3.6206,16.7161,13.7921,7.73428,0.0,0.0
1295,323.5,117.462,159.061,85.87,98.3806,43.5294,0.144868,3.78509,16.5531,12.8213,7.29409,0.0,0.0
1300,324.75,121.159,163.735,94.9484,98.434,40.0912,0.150705,3.91617,16.4377,12.1507,8.03497,0.0,0.0
1305,326,124.623,167.709,82.9398,98.4922,41.1698,0.155472,4.01479,16.3512,11.37,7.80277,0.0,0.0
1310,327.25,126.339,173.287,76.2054,98.5587,42.8105,0.158518,4.08177,16.3021,10.5493,7.45924,0.0,0.0
1315,328.5,129.381,177.043,89.0368,98.6113,39.618,0.158897,4.09663,16.296,9.75857,8.15728,0.0,0.0
1320,329.75,131.4,179.812,96.7223,98.6465,43.3911,0.154838,4.04329,16.3856,9.11801,7.3467,0.0,0.0
1325,331,133.035,181.008,102.145,98.6976,44.6293,0.149891,3.91932,16.6044,8.4274,7.09965,0.0,0.0
1330,332.25,133.99,181.761,107.068,98.7451,43.1153,0.141832,3.72974,16.8009,7.77683,7.41268,0.0,0.0
1335,333.5,134.714,181.051,110.778,98.7668,46.2329,0.131351,3.50051,17.0274,7.06621,6.79014,0.0,0.0
1340,334.75,134.654,180.643,110.963,98.7977,47.3571,0.121524,3.2977,17.2868,6.64584,6.57803,0.0,0.0
1345,336,133.789,180.775,114.889,98.8179,48.251,0.112762,3.06711,17.5564,6.12538,6.41257,0.0,0.0
1350,337.25,133.234,179.684,106.21,98.8294,49.1843,0.10474,2.86055,17.8008,5.42476,6.24223,0.0,0.0
1355,338.5,133.465,178.944,109.6,98.823,49.1368,0.0976463,2.6739,18.0096,4.90431,6.2503,0.0,0.0
1360,339.75,132.874,176.993,119.911,98.8123,47.3401,0.0890545,2.4804,18.215,4.50396,6.58257,0.0,0.0
1365,341,131.023,174.55,118.025,98.7882,51.2739,0.0802519,2.27172,18.4348,4.06357,5.86632,0.0,0.0
1370,342.25,130.237,172.728,129.868,98.7585,52.8849,0.0716126,2.06085,18.6866,3.72327,5.5869,0.0,0.0
1375,343.5,128.467,169.504,126.984,98.6952,56.7998,0.0625755,1.83575,18.9563,3.46304,4.94233,0.0,0.0
1380,344.75,126.523,166.04,139.819,98.6442,56.7627,0.0552607,1.61644,19.2099,3.23284,4.94355,0.0,0.0
1385,346,123.967,162.764,138.965,98.567,59.8776,0.0472442,1.40236,19.4287,2.9626,4.45866,0.0,0.0
1390,347.25,121.59,159.036,133.879,98.4863,62.9376,0.0401663,1.22319,19.628,2.79245,4.00548,0.0,0.0
1395,348.5,119.046,155.376,138.137,98.3846,63.9926,0.0350515,1.0736,19.7841,2.57226,3.84753,0.0,0.0
1400,349.75,116.837,151.51,140.156,98.2686,66.3187,0.0293129,0.947429,19.9228,2.40211,3.51761,0.0,0.0
1405,351,115.027,147.965,138.673,98.2896,68.1517,0.0249306,0.853841,20.0358,2.23196,3.27562,0.0,0.0
1410,352.25,112.744,144.14,140.684,98.33,68.844,0.0216652,0.776693,20.1331,2.10185,3.18888,0.0,0.0
1415,353.5,110.518,141.17,140.313,98.364,71.8461,0.0185543,0.70538,20.2251,1.96172,2.81017,0.0,0.0
1420,354.75,108.065,137.615,144.269,98.4123,72.951,0.016009,0.648725,20.2999,1.81159,2.67804,0.0,0.0
1425,356,106.216,134.278,142.547,98.4764,73.4149,0.0142257,0.600129,20.356,1.70149,2.62715,0.0,0.0
1430,357.25,103.766,131.41,142.658,98.5262,77.681,0.0125146,0.555066,20.4182,1.57138,2.12641,0.0,0.0
1435,358.5,101.905,128.555,144.671,98.5864,81.6744,0.0110682,0.522703,20.4723,1.49131,1.68345,0.0,0.0
1440,359.75,100.536,125.236,147.895,98.6315,82.2044,0.00985358,0.485348,20.5146,1.39122,1.62968,0.0,0.0
1445,361,98.039,122.506,152.302,98.7087,84.481,0.008675,0.45035,20.5518,1.31115,1.39231,0.0,0.0
1450,362.25,96.3219,119.818,149,98.7791,85.7724,0.00761977,0.417197,20.588,1.23108,1.26298,0.0,0.0
1455,363.5,94.0017,117.509,149.136,98.829,86.2673,0.00666024,0.385969,20.6282,1.17103,1.21603,0.0,0.0
1460,364.75,92.862,113.963,147.109,98.8863,88.2514,0.00584235,0.35354,20.666,1.11098,1.01781,0.0,0.0
1465,366,90.8182,111.779,152.608,98.9342,92.4086,0.00520356,0.32334,20.7012,1.06093,0.610389,0.0,0.0
1470,367.25,89.0274,108.782,151.43,98.9888,93.5065,0.00464174,0.292521,20.7371,1.04091,0.509671,0.0,0.0
1475,368.5,86.7047,106.351,149.609,99.0173,95.1785,0.0042044,0.264656,20.7696,1.0209,0.353708,0.0,0.0
1480,369.75,85.1365,103.677,157.561,99.0375,96.8223,0.00387605,0.235458,20.8041,1.01089,0.20236,0.0,0.0
1485,371,82.9431,100.775,153.955,99.049,96.6318,0.00365879,0.209211,20.831,0.99087,0.221009,0.0,0.0
1490,372.25,81.8726,98.8627,156.61,99.0585,97.3886,0.00354577,0.183621,20.8551,0.970853,0.152083,0.0,0.0
1495,373.5,79.415,96.0342,154.336,99.03,98.4413,0.00344929,0.162857,20.8754,0.960844,0.0533339,0.0,0.0
1500,374.75,79.0737,93.727,146.473,98.9952,97.8074,0.00329937,0.144413,20.8939,0.950835,0.107981,0.0,0.0
1505,376,77.378,91.48,154.66,98.9524,98.3158,0.00309402,0.128989,20.9102,0.960844,0.0577426,0.0,0.0
1510,377.25,75.4015,88.493,157.299,98.8954,98.6028,0.00279369,0.116444,20.9244,0.980861,0.0265111,0.0,0.0
1515,378.5,73.8036,87.4499,153.676,98.8021,97.5234,0.00244668,0.106742,20.9367,0.970853,0.116521,0.0,0.0
1520,379.75,72.5471,84.3599,157.184,98.7067,97.946,0.00211151,0.0985054,20.9459,0.960844,0.0692001,0.0,0.0
1525,381,69.8901,81.7695,159.196,98.6101,98.264,0.00169109,0.0920119,20.9529,0.970853,0.0314558,0.0,0.0
1530,382.25,69.8316,80.7888,157.16,98.4989,98.1292,0.0013319,0.0869731,20.958,0.980861,0.0336456,0.0,0.0
1535,383.5,68.3765,79.028,158.271,98.3549,98.1635,0.00106398,0.0830157,20.9621,0.980861,0.0174203,0.0,0.0
1540,384.75,67.1108,76.9747,155.817,98.2207,98.1013,0.00091047,0.0800999,20.9651,0.980861,0.010881,0.0,0.0
1545,386,66.0803,74.8829,154.05,98.0973,98.3664,0.000819722,0.0780778,20.9674,0.970853,-0.0245019,0.0,0.0
1550,387.25,64.6299,73.9103,158.72,97.9327,96.7871,0.000724881,0.0767767,20.9691,0.980861,0.105256,0.0,0.0
1555,388.5,64.0992,72.5135,160.709,97.7795,97.2997,0.000602248,0.0759749,20.9701,0.99087,0.0440019,0.0,0.0
1560,389.75,62.3744,70.9684,155.289,97.6434,97.2321,0.000424864,0.0752545,20.9707,1.00088,0.0377571,0.0,0.0
1565,391,61.6158,68.869,157.956,97.5267,97.2317,0.000245224,0.0744195,20.9711,0.970853,0.0270916,0.0,0.0
1570,392.25,60.4115,67.7577,158.034,97.4076,96.5229,0.000119635,0.0734772,20.9715,0.960844,0.0816163,0.0,0.0
1575,393.5,60.1068,66.2549,154.058,97.2869,96.9107,6.12955e-05,0.072504,20.9725,0.950835,0.0346537,0.0,0.0
1580,394.75,58.9584,64.831,155.919,97.2097,96.954,6.73445e-05,0.0716946,20.973,0.950835,0.0235623,0.0,0.0
1585,396,58.4254,63.6385,154.369,97.1222,97.7421,9.94094e-05,0.0709369,20.9731,0.960844,-0.0569071,0.0,0.0
1590,397.25,57.1987,62.931,157.061,97.0748,96.5371,0.00012796,0.0702734,20.974,0.980861,0.0496782,0.0,0.0
1595,398.5,56.0505,61.5267,153.249,97.0411,97.0977,0.000149246,0.0695074,20.9749,0.99087,-0.00521339,0.0,0.0
1600,399.75,55.5998,60.8228,157.719,97.0467,97.1147,0.000171131,0.0688543,20.976,0.980861,-0.00626817,0.0,0.0
1605,401,54.4824,59.5152,151.169,97.0645,96.9119,0.000213733,0.0683283,20.9766,0.980861,0.0140746,0.0,0.0
1610,402.25,54.3069,58.0976,156.276,97.1124,97.1522,0.000260308,0.0678798,20.9769,0.980861,-0.00366639,0.0,0.0
1615,403.5,53.2526,57.2424,160.65,97.1729,96.6283,0.000287839,0.0674999,20.9772,0.980861,0.0502731,0.0,0.0
1620,404.75,52.0009,56.5938,155.523,97.2635,97.4913,0.000305773,0.0671796,20.9781,0.980861,-0.020929,0.0,0.0
1625,406,51.6975,55.6065,158.103,97.3585,96.7581,0.000330332,0.0668852,20.9788,0.980861,0.0553329,0.0,0.0
1630,407.25,51.0735,54.287,154.779,97.4535,97.4485,0.000369153,0.0666506,20.9792,1.00088,0.000458526,0.0,0.0
1635,408.5,50.5084,54.1532,156.968,97.5829,97.1587,0.000405665,0.0665198,20.9794,0.99087,0.0389643,0.0,0.0
1640,409.75,48.9727,52.0354,155.713,97.7008,97.6092,0.000408378,0.0663781,20.9795,0.970853,0.00839157,0.0,0.0
1645,411,49.2489,52.1294,159.025,97.8092,97.6405,0.000367842,0.0662081,20.9796,0.980861,0.0154458,0.0,0.0
1650,412.25,49.1444,51.609,152.393,97.9109,98.6387,0.000297251,0.0660426,20.9797,0.980861,-0.066248,0.0,0.0
1655,413.5,48.689,50.654,158.642,98.0359,97.3955,0.000176069,0.0659448,20.9797,0.99087,0.0586262,0.0,0.0
1660,414.75,48.1038,49.5938,158.666,98.1345,98.1798,8.24725e-05,0.0658871,20.9797,0.980861,-0.00412726,0.0,0.0
1665,416,47.1018,49.2343,156.605,98.2093,97.8966,3.61618e-05,0.0658288,20.9797,0.970853,0.0285256,0.0,0.0
1670,417.25,47.0361,48.4813,157.62,98.2769,98.9138,3.9743e-05,0.065772,20.9797,0.960844,-0.057778,0.0,0.0
1675,418.5,46.3246,47.911,155.934,98.3319,98.0531,4.01688e-05,0.0657275,20.9793,0.970853,0.0254074,0.0,0.0
1680,419.75,45.8478,47.3977,157.665,98.3608,98.1527,1.17028e-05,0.0656771,20.9786,0.970853,0.0189463,0.0,0.0
1685,421,45.3807,46.4145,158.367,98.3581,98.8574,-3.33809e-05,0.0655477,20.9781,0.980861,-0.0452954,0.0,0.0
1690,422.25,45.0694,45.8399,155.494,98.3482,98.597,-4.71473e-05,0.0653743,20.9779,0.980861,-0.022603,0.0,0.0
1695,423.5,44.7217,45.5887,154.684,98.3078,98.9138,-2.73116e-05,0.0652915,20.9777,0.970853,-0.0549692,0.0,0.0
1700,424.75,44.2677,45.0475,157.974,98.2651,97.4547,-3.02364e-07,0.0652139,20.9779,0.980861,0.0740801,0.0,0.0
1705,426,44.5331,44.4575,157.58,98.2081,98.5305,1.20943e-05,0.0652255,20.9781,0.980861,-0.0293225,0.0,0.0
1710,427.25,43.7204,43.7396,155.504,98.1756,98.913,2.00468e-05,0.0652419,20.9782,0.980861,-0.0669329,0.0,0.0
1715,428.5,43.4021,43.4228,158.832,98.1198,98.541,4.44252e-05,0.0651731,20.9782,0.99087,-0.0383117,0.0,0.0
1720,429.75,42.9445,42.6402,159.246,98.0561,98.3548,8.70662e-05,0.0651037,20.9783,0.980861,-0.0272017,0.0,0.0
1725,431,42.3579,42.6208,156.384,98.0023,97.9611,0.000133303,0.065074,20.9783,0.980861,0.00376242,0.0,0.0
1730,432.25,41.7252,41.8768,153.856,97.9821,97.9812,0.000180044,0.065074,20.9783,0.980861,8.5309e-05,0.0,0.0
1735,433.5,41.6473,41.6383,162.999,97.9525,98.3474,0.000209014,0.0650585,20.9783,0.980861,-0.0359977,0.0,0.0
1740,434.75,41.1584,41.1792,158.982,98.123,98.1863,0.000218405,0.0650781,20.9783,0.980861,-0.00577091,0.0,0.0
1745,436,40.9954,40.4184,157.451,98.3632,98.1701,0.000189561,0.0650101,20.978,0.980861,0.0175778,0.0,0.0
1750,437.25,40.6233,40.3898,158.011,98.5441,98.7314,0.000155965,0.0650113,20.9778,0.980861,-0.0169932,0.0,0.0
1755,438.5,40.4162,39.6053,156.901,98.6727,98.6287,0.000118325,0.0650631,20.9776,0.980861,0.00398946,0.0,0.0
1760,439.75,39.3219,38.792,158.771,98.7447,99.078,8.99856e-05,0.0650432,20.9776,0.960844,-0.0301415,0.0,0.0
1765,441,39.609,39.7504,157.69,98.7965,98.6453,5.73199e-05,0.0649964,20.9777,0.99087,0.013704,0.0,0.0
1770,442.25,39.4482,38.5114,154.037,98.7866,99.1193,1.16513e-05,0.0649534,20.9781,1.00088,-0.0300735,0.0,0.0
1775,443.5,38.3497,37.5139,158.899,98.7118,98.4193,-5.05286e-05,0.064942,20.9793,0.99087,0.0265494,0.0,0.0
1780,444.75,39.1353,37.6631,158.392,98.5844,98.7871,-0.000109185,0.0648854,20.98,0.99087,-0.0183689,0.0,0.0
1785,446,38.2111,37.3678,157.028,98.4301,98.7442,-0.000150278,0.0647575,20.9804,0.99087,-0.0284998,0.0,0.0
1790,447.25,38.9324,37.7716,156.397,98.2433,98.8817,-0.000157093,0.0646974,20.9807,0.980861,-0.0579401,0.0,0.0
1795,448.5,38.4109,37.342,155.45,98.313,98.7554,-0.000115194,0.0646428,20.9808,0.960844,-0.0401657,0.0,0.0
1800,449.75,37.7995,36.8704,159.638,98.4154,98.9945,-4.19756e-05,0.0645722,20.9809,0.980861,-0.0524798,0.0,0.0
1805,451,38.0337,36.7735,156.684,98.5144,98.1995,-3.66591e-06,0.0645305,20.981,0.980861,0.0286394,0.0,0.0
1810,452.25,37.5253,36.7227,155.368,98.645,98.9269,-2.78239e-05,0.0646783,20.9806,0.99087,-0.0255311,0.0,0.0
1815,453.5,37.0588,36.1365,158.719,98.7419,98.2339,-7.52742e-05,0.0646436,20.9799,0.99087,0.0461441,0.0,0.0
1820,454.75,37.3915,36.2769,154.34,98.8507,98.4687,-0.000154737,0.064588,20.9795,0.99087,0.0346346,0.0,0.0
1825,456,37.4393,35.8201,157.03,98.9457,99.2278,-0.000225083,0.0645476,20.9796,0.980861,-0.0254712,0.0,0.0
1830,457.25,37.1963,35.2481,157.909,99.0003,98.9176,-0.000288106,0.064554,20.9802,0.99087,0.00747424,0.0,0.0
1835,458.5,37.0584,35.1607,156.894,99.0343,99.1552,-0.000362051,0.0646152,20.9805,0.980861,-0.0109119,0.0,0.0
1840,459.75,36.2509,34.5088,153.908,99.0157,99.5392,-0.0004669,0.0646138,20.9807,0.960844,-0.0471675,0.0,0.0
1845,461,35.9479,34.8408,154.952,98.9825,98.6503,-0.000547794,0.064632,20.9808,0.970853,0.0300732,0.0,0.0
1850,462.25,36.2508,34.419,158.194,98.9117,98.8438,-0.000630334,0.0645371,20.9809,0.970853,0.00613591,0.0,0.0
1855,463.5,35.7356,34.1573,161.482,98.7819,98.9107,-0.000682928,0.0644235,20.9804,0.980861,-0.0116566,0.0,0.0
1860,464.75,35.8002,34.5748,159.101,98.6303,98.4548,-0.000668993,0.0643532,20.9795,0.99087,0.0159301,0.0,0.0
1865,466,35.4759,34.0273,159.068,98.4499,98.2393,-0.000615757,0.0642575,20.9786,0.99087,0.019157,0.0,0.0
1870,467.25,35.6759,33.9793,164.891,98.2548,98.2682,-0.000462143,0.0641528,20.9784,0.960844,-0.00122427,0.0,0.0
1875,468.5,35.269,33.5329,158.325,98.0447,98.0422,-0.000269926,0.0641299,20.9789,0.970853,0.000221802,0.0,0.0
1880,469.75,34.9901,33.4481,159.964,97.8515,97.5864,-8.01393e-05,0.0641257,20.9793,0.970853,0.0242727,0.0,0.0
1885,471,34.7886,33.2852,156.978,97.6311,97.7726,8.36178e-05,0.0641232,20.9788,1.00088,-0.0129513,0.0,0.0
1890,472.25,33.7612,32.4804,157.935,97.4416,97.8425,0.000152213,0.0641568,20.9792,1.00088,-0.0367301,0.0,0.0
1895,473.5,34.8345,32.4312,157.88,97.2639,96.6917,0.000149732,0.0642319,20.9794,1.01089,0.0527848,0.0,0.0
1900,474.75,33.6165,31.7485,161.027,97.1563,96.468,0.000134881,0.0641575,20.9795,1.01089,0.0635976,0.0,0.0
1905,476,34.0755,32.4707,162.09,97.0882,97.6868,0.000143982,0.0640604,20.9796,0.980861,-0.0549842,0.0,0.0
1910,477.25,34.2759,32.61,160.231,97.0613,97.4755,0.000142439,0.0639984,20.9797,0.970853,-0.0380922,0.0,0.0
1915,478.5,33.1321,31.7697,159.01,97.091,96.7539,0.000119919,0.0639331,20.9797,0.99087,0.0311136,0.0,0.0
1920,479.75,33.797,32.1993,157.461,97.1614,96.9636,6.49733e-05,0.063952,20.9797,0.980861,0.018227,0.0,0.0
1925,481,33.5467,31.8273,156.705,97.2861,97.1483,-8.56627e-06,0.0639772,20.9797,0.99087,0.0126765,0.0,0.0
1930,482.25,33.254,31.703,159.584,97.3973,97.6208,-7.33388e-05,0.0640214,20.9797,1.00088,-0.0205031,0.0,0.0
1935,483.5,33.2718,31.7063,157.749,97.5924,97.6737,-9.91528e-05,0.0639908,20.9797,0.99087,-0.00745221,0.0,0.0
1940,484.75,32.8754,31.5478,159.25,97.736,98.4347,-9.21615e-05,0.0639383,20.9797,1.00088,-0.0637249,0.0,0.0
1945,486,33.8449,31.8756,163.107,97.8979,98.2481,-7.26511e-05,0.0639175,20.9797,0.970853,-0.031951,0.0,0.0
1950,487.25,33.2777,31.5414,160.129,98.0395,98.1365,-9.67409e-05,0.063914,20.98,0.960844,-0.00884456,0.0,0.0
1955,488.5,33.1091,31.443,153.724,98.184,98.5958,,0.0639603,,0.99087,-0.037447,0.0,0.0
1960,489.75,32.8951,31.6935,160.159,98.2829,98.1137,,0.0639834,,0.99087,0.0154107,0.0,0.0
1965,491,32.4816,31.3035,156.168,98.3446,97.8997,,0.0639437,,1.01089,0.0405621,0.0,0.0
1970,492.25,32.6881,30.9717,160.037,98.3735,98.818,,,,1.00088,-0.0403253,0.0,0.0
1975,493.5,32.4776,31.277,158.049,98.3581,98.7307,,,,1.00088,-0.0338224,0.0,0.0
1980,494.75,32.2461,30.9147,153.398,98.3165,99.1139,,,,0.99087,-0.0722564,0.0,0.0
1985,496,32.5461,31.1371,158.951,98.2215,98.7067,,,,0.99087,-0.0440763,0.0,0.0
1990,497.25,32.2651,30.6937,159.792,98.1749,98.3582,,,,0.99087,-0.0166946,0.0,0.0
1995,498.5,31.91,30.4236,154.608,98.0878,97.4307,,,,1.01089,0.0601261,0.0,0.0
1997,499,31.9905,30.5147,161.594,98.053,98.4417,,,,1.01089,-0.0353923,0.0,0.0