File: 01_Data/PETG/Cone/PET-G_Cone_HF25Scan_220215_R2.csv
Names,Time,Stack TC,Smoke TC,Exh Press,Smoke Comp,Smoke Meas,CO Meter,CO2 Meter,O2 Meter,Sample Mass,Ext Coeff,Start Test,Flame Verif
Chan Gain,,500,500,1,1,1,1,1,1,1,1,1.0,1.0
Offset,,0,0,0.140898,0,0,0,0,0,0,0,0.0,0.0
Gain,,1,1,25.011,12.9668,12.6588,1,1,1,1.00088,1.01977,1.0,1.0
Units,sec,C,C,Pa,%,%,%,%,%,g,/m,,
Baseline,,18.7485,19.3628,164.445,98.1146,101.667,-0.000670594,0.0694062,20.9734,-871.592,-0.318133,,
5,1,17.379,18.0021,169.138,98.4562,102.28,-0.000495786,0.0938704,20.943,33.9098,-0.340851,0.0,0.0
10,2.25,17.4652,18.079,167.181,98.3379,102.041,-0.000482617,0.0914155,20.9463,33.7797,-0.330669,0.0,0.0
15,3.5,17.6089,17.9158,162.314,98.2192,101.979,-0.000491289,0.0884475,20.9496,33.6195,-0.33602,0.0,0.0
20,4.75,17.3873,17.2931,166.518,98.0743,101.951,-0.000508411,0.0854187,20.9535,33.6395,-0.34678,0.0,0.0
25,6,17.3378,17.9821,161.79,97.9873,101.971,-0.000531011,0.0831451,20.9574,33.6596,-0.356452,0.0,0.0
30,7.25,17.5773,17.8174,163.841,98.0079,101.319,-0.000541512,0.0805977,20.96,33.6996,-0.297185,0.0,0.0
35,8.5,17.465,17.9131,163.568,98.0249,101.762,-0.000548823,0.0788411,20.9616,33.6696,-0.334702,0.0,0.0
40,9.75,17.5189,18.2649,165.193,98.0454,101.791,-0.000555009,0.0778376,20.9625,33.6596,-0.335405,0.0,0.0
45,11,17.7172,18.5891,163.419,98.0735,101.76,-0.000572903,0.0771947,20.9637,33.6596,-0.330057,0.0,0.0
50,12.25,18.0142,18.0978,165.146,98.1028,101.871,-0.000628853,0.0766284,20.9647,33.6796,-0.337196,0.0,0.0
55,13.5,17.6956,18.4521,168.06,98.1313,102.049,-0.000676933,0.0760403,20.966,33.6696,-0.35019,0.0,0.0
60,14.75,18.0463,17.9749,162.716,98.1602,101.87,-0.000683242,0.07514,20.967,33.6696,-0.331829,0.0,0.0
65,16,18.1061,18.1259,170.398,98.1974,101.969,-0.000658043,0.0743833,20.968,33.6496,-0.337155,0.0,0.0
70,17.25,17.9239,18.2322,163.31,98.2235,102.002,-0.000599288,0.0736767,20.9686,33.6896,-0.337622,0.0,0.0
75,18.5,17.7371,18.3964,165.467,98.2393,101.925,-0.000548423,0.0730597,20.9698,33.6696,-0.329437,0.0,0.0
80,19.75,17.5288,18.3021,159.351,98.2512,101.995,-0.00053495,0.0723861,20.971,33.6696,-0.334558,0.0,0.0
85,21,17.4761,18.3831,164.52,98.2845,101.884,-0.000569041,0.0715715,20.9722,33.6696,-0.321735,0.0,0.0
90,22.25,17.5692,17.9156,168.101,98.3046,101.897,-0.000633979,0.0707456,20.9737,33.6395,-0.321018,0.0,0.0
95,23.5,18.0631,18.7085,165.003,98.3066,102.18,-0.000700178,0.069967,20.9747,33.6395,-0.345696,0.0,0.0
100,24.75,17.5663,18.2119,162.192,98.3371,101.997,-0.00076172,0.0693012,20.9753,33.6596,-0.326845,0.0,0.0
105,26,18.0388,18.7343,166.941,98.3569,102.097,-0.000791245,0.0687031,20.9765,33.6295,-0.333849,0.0,0.0
110,27.25,17.5958,18.3645,166.217,98.3585,102.226,-0.000784966,0.0681566,20.9773,33.6395,-0.345038,0.0,0.0
115,28.5,17.6027,18.7966,165.219,98.341,102.214,-0.000766621,0.0677683,20.9778,33.6496,-0.34554,0.0,0.0
120,29.75,17.7729,18.5734,162.195,98.3205,101.714,-0.000756751,0.0674457,20.9781,33.6596,-0.303521,0.0,0.0
125,31,18.159,18.4035,163.458,98.307,102.232,-0.000763466,0.0671534,20.9783,33.6496,-0.350225,0.0,0.0
130,32.25,17.8745,18.3819,166.273,98.269,102.185,-0.000781876,0.0668082,20.9788,33.6496,-0.349557,0.0,0.0
135,33.5,17.059,18.0237,166.554,98.2283,101.754,-0.000825778,0.0664719,20.9796,33.6395,-0.31548,0.0,0.0
140,34.75,17.5472,18.7259,163.449,98.1903,101.965,-0.000879911,0.06617,20.9801,33.6496,-0.337397,0.0,0.0
145,36,18.0327,18.6068,167.276,98.1452,101.656,-0.000919574,0.0659867,20.9804,33.6596,-0.314421,0.0,0.0
150,37.25,18.0005,18.3392,163.695,98.085,101.808,-0.000932341,0.0658256,20.9806,33.6496,-0.333221,0.0,0.0
155,38.5,18.1053,18.3695,166.941,98.0284,101.647,-0.000912378,0.0656423,20.9811,33.6496,-0.324285,0.0,0.0
160,39.75,17.1061,18.1268,162.212,97.954,101.658,-0.000877827,0.0655742,20.9814,33.6496,-0.332028,0.0,0.0
165,41,18.0992,18.6429,161.462,97.886,101.455,-0.000841808,0.0655401,20.9816,33.6496,-0.320347,0.0,0.0
170,42.25,17.5577,18.7319,163.707,97.806,101.552,-0.000826458,0.0654548,20.9817,33.6496,-0.336167,0.0,0.0
175,43.5,16.9883,17.672,161.63,97.7332,101.13,-0.000826723,0.0653154,20.9818,33.6295,-0.305625,0.0,0.0
180,44.75,18.1142,18.503,163.687,97.6758,101.39,-0.000833969,0.0652549,20.9818,33.6496,-0.333881,0.0,0.0
185,46,17.2965,18.431,161.749,97.5975,101.417,-0.000836943,0.0652058,20.9818,33.6596,-0.34341,0.0,0.0
190,47.25,17.908,19.2412,163.404,97.5029,101.098,-0.000840627,0.0651614,20.9818,33.6496,-0.323928,0.0,0.0
195,48.5,18.341,18.9361,163.005,97.4428,101.277,-0.000842802,0.0651485,20.9818,33.6496,-0.345225,0.0,0.0
200,49.75,17.7229,18.8148,164.443,97.3779,101.113,-0.00084919,0.0651963,20.9818,33.6395,-0.336706,0.0,0.0
205,51,17.6839,18.5543,162.787,97.3114,100.995,-0.000844391,0.0653849,20.9818,33.6496,-0.33235,0.0,0.0
210,52.25,18.3983,18.6823,166.226,97.2524,100.923,-0.000824616,0.0656512,20.9818,33.6496,-0.33144,0.0,0.0
215,53.5,17.9764,18.2027,161.577,97.2085,101.19,-0.000792647,0.0659994,20.9816,33.6496,-0.359043,0.0,0.0
220,54.75,17.9782,18.6935,163.021,97.1484,100.74,-0.000735855,0.0664063,20.9808,33.6395,-0.324704,0.0,0.0
225,56,18.4438,18.424,167.569,97.0914,100.93,-0.000644259,0.0666165,20.9803,33.6496,-0.346848,0.0,0.0
230,57.25,17.7475,18.4098,162.792,97.0581,100.994,-0.000579384,0.0670347,20.98,33.6496,-0.355558,0.0,0.0
235,58.5,17.854,19.0993,165.223,97.036,101.152,-0.00055843,0.0675156,20.9798,33.6496,-0.371586,0.0,0.0
240,59.75,18.1242,18.6269,162.466,97.0178,100.604,-0.000584347,0.0677949,20.9795,33.6395,-0.324654,0.0,0.0
245,61,18.0725,18.7407,163.088,97,100.772,-0.000608834,0.0677646,20.979,33.6295,-0.34126,0.0,0.0
250,62.25,17.6892,18.473,169.825,96.996,100.8,-0.000614125,0.0675855,20.9787,33.6195,-0.344127,0.0,0.0
255,63.5,17.9507,18.8695,160.132,97.0016,100.638,-0.000606091,0.0674179,20.9795,33.6195,-0.329205,0.0,0.0
260,64.75,17.9613,19.135,164.852,97.0126,100.721,-0.000589583,0.0672727,20.9799,33.6195,-0.335564,0.0,0.0
265,66,18.2147,19.1605,165.308,97.0213,100.747,-0.000589864,0.0672111,20.9802,33.6095,-0.337094,0.0,0.0
270,67.25,18.6021,18.8845,164.426,97.0661,100.92,-0.000632082,0.0673186,20.9804,33.5995,-0.348326,0.0,0.0
275,68.5,18.2625,18.7181,165.141,97.0922,100.854,-0.000695688,0.0675449,20.9806,33.6095,-0.340027,0.0,0.0
280,69.75,18.2547,18.9729,163.013,97.1389,100.942,-0.000740744,0.0678441,20.98,33.6095,-0.343569,0.0,0.0
285,71,17.3815,18.2851,157.884,97.1856,100.586,-0.000755779,0.0682456,20.9792,33.6195,-0.30765,0.0,0.0
290,72.25,17.9539,19.029,161.706,97.2418,100.861,-0.00073252,0.0686119,20.9783,33.6095,-0.326908,0.0,0.0
295,73.5,18.4542,19.0691,165.749,97.313,100.967,-0.000682406,0.0688928,20.9777,33.6095,-0.329775,0.0,0.0
300,74.75,18.3349,18.9073,161.911,97.3731,101.377,-0.000647344,0.0691451,20.9773,33.6095,-0.36042,0.0,0.0
305,76,17.6397,18.9383,163.53,97.4483,101.261,-0.000637353,0.0693727,20.9771,33.6195,-0.343283,0.0,0.0
310,77.25,18.8232,19.2376,165.584,97.5401,101.4,-0.000648479,0.0695607,20.977,33.6095,-0.347172,0.0,0.0
315,78.5,18.2178,19.3671,159.316,97.6201,101.382,-0.000679214,0.0697637,20.9766,33.5995,-0.338276,0.0,0.0
320,79.75,18.4543,18.9902,161.861,97.7154,101.584,-0.000726263,0.0699262,20.9764,33.5895,-0.347317,0.0,0.0
325,81,18.0579,19.1602,169.21,97.8033,101.507,-0.000734453,0.0699339,20.9762,33.5895,-0.332506,0.0,0.0
330,82.25,17.9299,19.3253,166.035,97.8951,101.821,-0.000695393,0.0700352,20.9754,33.5995,-0.351715,0.0,0.0
335,83.5,18.24,19.3452,163.372,98.0019,102.045,-0.000608075,0.0700488,20.9755,33.5995,-0.36162,0.0,0.0
340,84.75,18.4169,19.053,167.318,98.0826,102.27,-0.000561329,0.0700351,20.9756,33.5995,-0.373976,0.0,0.0
345,86,18.4942,19.8692,159.815,98.1895,102.208,-0.000575832,0.0702357,20.9756,33.5995,-0.358829,0.0,0.0
350,87.25,18.1606,19.0595,167.544,98.2896,102.23,-0.000630886,0.0703337,20.9748,33.5995,-0.35164,0.0,0.0
355,88.5,19.0066,19.3299,167.344,98.3834,102.342,-0.000672427,0.0702515,20.9746,33.5995,-0.352906,0.0,0.0
360,89.75,18.2526,19.4867,161.464,98.4613,102.413,-0.000699762,0.0700913,20.9747,33.5995,-0.351964,0.0,0.0
365,91,18.2464,19.4244,159.336,98.552,102.352,-0.000736569,0.0697957,20.9759,33.5895,-0.338403,0.0,0.0
370,92.25,18.4562,19.1697,165.878,98.6319,102.412,-0.000773172,0.0694851,20.9771,33.6095,-0.336415,0.0,0.0
375,93.5,18.012,19.4437,162.707,98.6913,102.673,-0.000772601,0.0691745,20.9778,33.6095,-0.353849,0.0,0.0
380,94.75,18.2597,19.1965,162.736,98.7601,102.287,-0.000697639,0.0689449,20.9776,33.6095,-0.313923,0.0,0.0
385,96,17.9472,18.9571,164.33,98.8155,102.626,-0.000556756,0.0688283,20.9771,33.5995,-0.338452,0.0,0.0
390,97.25,18.2045,19.0836,166.857,98.8848,102.826,-0.000420074,0.0687692,20.9769,33.5895,-0.349646,0.0,0.0
395,98.5,18.172,19.0952,164.063,98.9085,102.688,-0.000347004,0.0686376,20.9764,33.5895,-0.335425,0.0,0.0
400,99.75,18.7509,19.5568,167.889,98.9584,102.768,-0.000357419,0.0686278,20.9761,33.5895,-0.337946,0.0,0.0
405,101,17.7691,19.1662,164.361,98.9884,102.836,-0.000406953,0.0687353,20.9759,33.5795,-0.341078,0.0,0.0
410,102.25,18.6044,19.6152,165.864,99.0035,102.927,-0.000442856,0.0686549,20.9758,33.5895,-0.347646,0.0,0.0
415,103.5,18.6048,19.7127,161.143,99.0023,102.549,-0.000448117,0.0685348,20.9758,33.5695,-0.314823,0.0,0.0
420,104.75,18.4162,19.3149,163.39,99.0296,103.112,-0.000417289,0.0683497,20.9757,33.5695,-0.361355,0.0,0.0
425,106,18.4182,19.194,161.599,99.0114,102.791,-0.000388731,0.0681836,20.9766,33.5695,-0.335139,0.0,0.0
430,107.25,18.5257,19.2665,158.333,98.9999,102.841,-0.000402481,0.0680701,20.9772,33.5695,-0.340545,0.0,0.0
435,108.5,17.9022,18.8874,161.86,98.9702,102.683,-0.000481874,0.068003,20.9767,33.5695,-0.329406,0.0,0.0
440,109.75,18.454,19.4589,163.714,98.9516,102.592,-0.000551893,0.0678771,20.9766,33.5495,-0.323175,0.0,0.0
445,111,18.3086,18.7808,169.514,98.9216,102.697,-0.000589688,0.0678109,20.9766,33.5395,-0.335051,0.0,0.0
450,112.25,18.3779,19.3571,161.148,98.8804,102.531,-0.000606719,0.0676861,20.9768,33.5395,-0.324292,0.0,0.0
455,113.5,18.5354,19.4916,164.257,98.8472,102.315,-0.000595285,0.0676323,20.9776,33.5595,-0.308406,0.0,0.0
460,114.75,18.2414,18.8108,170.013,98.8159,102.682,-0.000541649,0.067578,20.9781,33.5795,-0.343332,0.0,0.0
465,116,18.7765,19.2546,167.703,98.7842,102.484,-0.000497897,0.0674975,20.9784,33.5695,-0.32895,0.0,0.0
470,117.25,18.4302,19.2378,164.8,98.7451,102.409,-0.000487059,0.0675455,20.9785,33.5695,-0.325921,0.0,0.0
475,118.5,18.6857,19.6904,163.642,98.7261,102.292,-0.000517751,0.0676093,20.9779,33.5595,-0.317411,0.0,0.0
480,119.75,18.1601,19.0059,165.644,98.6897,102.033,-0.000562856,0.067666,20.977,33.5695,-0.29798,0.0,0.0
485,121,18.4932,19.5041,162.25,98.662,102.185,-0.000658049,0.0679102,20.9765,33.5595,-0.313892,0.0,0.0
490,122.25,18.8088,19.8407,160.609,98.6268,102.035,-0.000761127,0.0681676,20.9754,33.5695,-0.303921,0.0,0.0
495,123.5,18.6535,19.4079,159.192,98.5892,101.671,-0.000812085,0.068406,20.9746,33.5595,-0.275303,0.0,0.0
500,124.75,18.7258,19.914,166.113,98.5785,102.235,-0.000803176,0.0687118,20.9741,33.5795,-0.32576,0.0,0.0
505,126,18.6285,19.4466,161.274,98.5441,101.996,-0.000754977,0.0690244,20.9738,33.5595,-0.308004,0.0,0.0
510,127.25,18.5445,19.5599,168.775,98.5112,101.644,-0.00071865,0.0693053,20.9736,33.5495,-0.280033,0.0,0.0
515,128.5,18.6274,19.8945,161.738,98.5037,102.054,-0.000712099,0.0695776,20.9735,33.5595,-0.316716,0.0,0.0
520,129.75,18.3535,19.8637,160.137,98.4871,101.691,-0.000718892,0.0697085,20.9729,33.5395,-0.286372,0.0,0.0
525,131,18.9571,19.6279,162.265,98.4661,101.746,-0.00073691,0.0697765,20.9731,33.5495,-0.293101,0.0,0.0
530,132.25,18.599,19.939,163.015,98.4641,101.65,-0.000731529,0.0698042,20.9734,33.5595,-0.284854,0.0,0.0
535,133.5,18.8859,19.8707,161.986,98.4511,101.665,-0.000711153,0.069749,20.9736,33.5595,-0.287367,0.0,0.0
540,134.75,18.5997,19.4542,164.548,98.442,101.219,-0.000716768,0.069649,20.9737,33.5294,-0.248847,0.0,0.0
545,136,18.4512,19.7716,162.798,98.4095,101.438,-0.000751203,0.0696914,20.9738,33.5495,-0.271099,0.0,0.0
550,137.25,18.1574,18.9785,162.527,98.4,101.293,-0.000760139,0.0698847,20.9738,33.5395,-0.259213,0.0,0.0
555,138.5,18.6319,19.9976,165.488,98.3877,101.424,-0.000753291,0.0701417,20.9739,33.5194,-0.271852,0.0,0.0
560,139.75,18.4791,19.7904,165.825,98.3743,101.301,-0.00075631,0.0703806,20.9739,33.5294,-0.262267,0.0,0.0
565,141,17.9448,18.974,163.918,98.3577,101.597,-0.000751954,0.0703276,20.9739,33.5294,-0.289872,0.0,0.0
570,142.25,18.5685,19.9647,165.596,98.3517,101.641,-0.000718112,0.069981,20.9738,33.5495,-0.294255,0.0,0.0
575,143.5,18.6812,19.4385,164.597,98.3395,101.205,-0.000648189,0.0695932,20.9744,33.5294,-0.25697,0.0,0.0
580,144.75,18.7539,19.8798,162.316,98.3383,101.199,-0.000578959,0.069068,20.9754,33.5294,-0.256531,0.0,0.0
585,146,18.6085,19.8787,159.95,98.326,101.639,-0.000532045,0.0685165,20.9771,33.5294,-0.296424,0.0,0.0
590,147.25,18.8101,19.9087,163.513,98.3228,101.308,-0.000502415,0.0680503,20.9782,33.5194,-0.26756,0.0,0.0
595,148.5,18.2234,19.4819,164.932,98.3272,100.943,-0.00043158,0.0677324,20.9789,33.5294,-0.234837,0.0,0.0
600,149.75,18.7557,19.9909,160.822,98.3232,100.967,-0.000350183,0.0673939,20.9793,33.5194,-0.237388,0.0,0.0
605,151,18.956,19.6601,163.781,98.3126,101.186,-0.000268032,0.0671722,20.9795,33.5294,-0.257744,0.0,0.0
610,152.25,18.7654,19.7625,164.177,98.3284,100.735,-0.000211318,0.0670488,20.98,33.5395,-0.216326,0.0,0.0
615,153.5,18.4568,19.2887,163.02,98.3272,100.79,-0.000226184,0.0670342,20.9798,33.5495,-0.221304,0.0,0.0
620,154.75,18.8724,20.1059,164.469,98.3343,100.678,-0.000252256,0.0671343,20.9795,33.5395,-0.210742,0.0,0.0
625,156,18.8503,19.6061,161.511,98.3355,101.104,-0.000275929,0.0673667,20.9794,33.5194,-0.248379,0.0,0.0
630,157.25,18.9606,19.9969,161.962,98.3327,100.767,-0.000310641,0.0673607,20.9793,33.5094,-0.218743,0.0,0.0
635,158.5,19.4329,19.8076,159.775,98.3359,100.694,-0.000364753,0.0671622,20.9793,33.5294,-0.21197,0.0,0.0
640,159.75,18.8788,19.8742,163.336,98.3217,100.772,-0.000429765,0.0669664,20.9793,33.5094,-0.220197,0.0,0.0
645,161,19.0143,20.0869,165.36,98.3339,101.403,-0.000493059,0.0667022,20.9792,33.5194,-0.27494,0.0,0.0
650,162.25,18.7264,19.8858,160.426,98.3498,100.958,-0.00052615,0.0663573,20.9798,33.5294,-0.234155,0.0,0.0
655,163.5,18.68,20.1776,162.017,98.3478,100.573,-0.000514257,0.0661019,20.9805,33.5194,-0.200142,0.0,0.0
660,164.75,19.0153,20.2093,158.766,98.3482,100.619,-0.00047923,0.0658361,20.9809,33.5194,-0.20416,0.0,0.0
665,166,18.4395,19.5415,166.683,98.3537,100.926,-0.000452018,0.0657079,20.9812,33.5094,-0.230919,0.0,0.0
670,167.25,19.3517,20.2102,164.658,98.364,101.084,-0.000444071,0.065783,20.9813,33.5094,-0.244011,0.0,0.0
675,168.5,18.572,19.6253,161.342,98.3775,100.495,-0.000459401,0.0658624,20.9814,33.5194,-0.190499,0.0,0.0
680,169.75,18.7209,19.9242,163.853,98.3897,100.687,-0.000502596,0.0659247,20.9814,33.4994,-0.206493,0.0,0.0
685,171,18.961,19.8926,160.44,98.4048,100.593,-0.000528821,0.0659424,20.9815,33.4994,-0.196747,0.0,0.0
690,172.25,18.3477,19.7193,164.129,98.4111,100.428,-0.000502734,0.0659812,20.9815,33.4894,-0.181491,0.0,0.0
695,173.5,18.7098,19.8206,164.338,98.4265,100.509,-0.000429395,0.0659753,20.9811,33.4794,-0.187311,0.0,0.0
700,174.75,19.139,20.2449,160.894,98.4427,100.366,-0.000332099,0.0658457,20.9809,33.4794,-0.173072,0.0,0.0
705,176,18.6025,19.4794,166.051,98.4526,100.352,-0.000245945,0.065791,20.9813,33.4794,-0.170899,0.0,0.0
710,177.25,19.0331,20.6212,162.198,98.4697,100.567,-0.000182546,0.0657369,20.9822,33.4794,-0.188513,0.0,0.0
715,178.5,19.3164,20.09,161.218,98.4867,100.437,-0.00013911,0.0655908,20.9819,33.4894,-0.17538,0.0,0.0
720,179.75,19.6324,20.2785,164.829,98.4958,100.119,-0.000126788,0.0654463,20.9825,33.4994,-0.146226,0.0,0.0
725,181,19.1387,19.7714,165.083,98.5171,100.734,-0.000162529,0.0652643,20.9829,33.4894,-0.199033,0.0,0.0
730,182.25,19.0227,20.0362,159.523,98.5353,100.991,-0.000246192,0.065081,20.9831,33.4894,-0.220233,0.0,0.0
735,183.5,18.9657,19.7775,161.856,98.5627,99.9974,-0.000374968,0.0648967,20.9835,33.4594,-0.129275,0.0,0.0
740,184.75,18.6766,20.2465,164.023,98.5828,99.9738,-0.000494115,0.0647357,20.9844,33.4594,-0.125336,0.0,0.0
745,186,18.9116,19.6643,159.833,98.6133,100.288,-0.000570943,0.0646518,20.9849,33.4894,-0.150595,0.0,0.0
750,187.25,18.7071,20.2122,165.879,98.6525,100.393,-0.000589845,0.0646331,20.9852,33.4694,-0.156479,0.0,0.0
755,188.5,19.1747,20.6156,161.022,98.692,100.386,-0.000595223,0.0646221,20.9854,33.4694,-0.152272,0.0,0.0
760,189.75,19.0475,20.2915,161.169,98.7174,100.169,-0.000631563,0.0646156,20.9848,33.4794,-0.13054,0.0,0.0
765,191,19.003,20.2561,159.934,98.7475,100.551,-0.000709228,0.0646979,20.985,33.4494,-0.16187,0.0,0.0
770,192.25,18.7647,20.2698,160.072,98.7767,100.23,-0.000770507,0.0647466,20.9853,33.4394,-0.130612,0.0,0.0
775,193.5,19.5441,20.1706,167.311,98.8116,100.617,-0.000773578,0.0647178,20.9856,33.4294,-0.161939,0.0,0.0
780,194.75,19.2637,20.7651,165.884,98.8503,100.1,-0.000712725,0.0647013,20.986,33.4494,-0.112357,0.0,0.0
785,196,19.1578,20.1348,159.693,98.8812,100.262,-0.000650044,0.06475,20.9862,33.4694,-0.124017,0.0,0.0
790,197.25,18.8534,20.3614,164.321,98.8958,100.858,-0.000597582,0.0649527,20.9864,33.4594,-0.175752,0.0,0.0
795,198.5,19.3415,20.1607,168.924,98.9192,100.176,-0.000569816,0.065119,20.9864,33.4594,-0.112926,0.0,0.0
800,199.75,19.0572,20.3936,164.652,98.9437,100.05,-0.000538778,0.065227,20.9847,33.4494,-0.0994548,0.0,0.0
805,201,19.4078,20.3254,167.668,98.9698,100.176,-0.000491834,0.0652697,20.9836,33.4193,-0.108347,0.0,0.0
810,202.25,19.1332,20.0389,161.719,98.9817,100.45,-0.000468358,0.0651764,20.983,33.3993,-0.131734,0.0,0.0
815,203.5,19.5163,20.5779,160.541,99.0027,100.346,-0.000497767,0.0650197,20.9825,33.4093,-0.12058,0.0,0.0
820,204.75,19.1616,20.7692,164.832,99.0122,100.382,-0.000567976,0.0647668,20.982,33.4193,-0.122889,0.0,0.0
825,206,19.2277,20.3259,161.192,99.0233,100.261,-0.000589764,0.064539,20.9823,33.4093,-0.111106,0.0,0.0
830,207.25,19.1149,20.0752,166.04,99.0205,100.451,-0.000552733,0.0643371,20.9828,33.4093,-0.128299,0.0,0.0
835,208.5,18.7233,19.9595,162.777,99.0161,100.109,-0.000479596,0.0641404,20.9831,33.4093,-0.0982283,0.0,0.0
840,209.75,18.8059,20.361,165.46,99.0157,99.6489,-0.000430624,0.0640393,20.9833,33.4294,-0.0570225,0.0,0.0
845,211,18.9209,20.3318,161.937,98.9849,99.5697,-0.000423748,0.0640696,20.9834,33.4494,-0.0526991,0.0,0.0
850,212.25,19.2091,20.2603,161.861,98.9679,100.081,-0.000473145,0.0642025,20.9825,33.4093,-0.100035,0.0,0.0
855,213.5,19.4768,20.5293,163.754,98.9508,99.7235,-0.000566193,0.0644099,20.982,33.4193,-0.0695774,0.0,0.0
860,214.75,19.2317,19.9554,164.867,98.9014,99.4229,-0.000622471,0.0646494,20.9817,33.3793,-0.047049,0.0,0.0
865,216,19.2291,20.3955,160.988,98.8464,99.4519,-0.000655207,0.0648154,20.9816,33.3993,-0.0546323,0.0,0.0
870,217.25,19.299,20.8534,157.593,98.7997,100.145,-0.000641696,0.0649596,20.981,33.4093,-0.120946,0.0,0.0
875,218.5,19.4013,20.9025,170.04,98.7387,99.6849,-0.000611758,0.0649105,20.9802,33.3793,-0.085307,0.0,0.0
880,219.75,19.0752,20.6527,163.162,98.6782,99.7803,-0.000610594,0.0647997,20.9797,33.3893,-0.0993518,0.0,0.0
885,221,19.4131,20.6824,161.502,98.5793,98.9566,-0.000625332,0.0646239,20.9794,33.3793,-0.0341788,0.0,0.0
890,222.25,19.2216,20.3593,161.87,98.5057,98.7623,-0.000670456,0.0646026,20.9808,33.3693,-0.0232776,0.0,0.0
895,223.5,19.0657,20.2338,161.151,98.4139,99.1954,-0.0007015,0.0645466,20.9826,33.3793,-0.0707569,0.0,0.0
900,224.75,19.383,20.378,160.24,98.3074,98.8763,-0.000722263,0.0644653,20.9839,33.3693,-0.0516158,0.0,0.0
905,226,19.2501,20.3271,165.693,98.1982,99.3414,-0.000757425,0.0642931,20.9846,33.3593,-0.10354,0.0,0.0
910,227.25,19.3958,19.8449,160.277,98.0811,98.4139,-0.000802509,0.0640191,20.9851,33.3393,-0.0303025,0.0,0.0
915,228.5,19.6645,20.4986,162.367,97.9596,98.5247,-0.000817729,0.0639856,20.9853,33.3593,-0.0514613,0.0,0.0
920,229.75,19.4271,20.3796,164.894,97.8294,98.1995,-0.000796304,0.0640961,20.9855,33.3393,-0.0337753,0.0,0.0
925,231,19.2761,20.5653,162.665,97.7229,98.242,-0.000730464,0.0641346,20.9856,33.3393,-0.047384,0.0,0.0
930,232.25,19.3303,20.3814,165.503,97.6145,97.7768,-0.000601195,0.0640519,20.9856,33.3393,-0.0148626,0.0,0.0
935,233.5,19.7541,20.6654,163.903,97.5033,97.7143,-0.000483866,0.0640389,20.9856,33.3193,-0.0193312,0.0,0.0
940,234.75,18.9276,19.8016,161.427,97.3909,97.7738,-0.000405097,0.0640701,20.9859,33.3193,-0.0350925,0.0,0.0
945,236,19.4295,20.3729,163.925,97.2995,97.4709,-0.000358585,0.0641835,20.9854,33.2892,-0.015739,0.0,0.0
950,237.25,19.2765,20.3247,162.471,97.2192,97.4133,-0.000320916,0.0648076,20.9849,33.2692,-0.0178432,0.0,0.0
955,238.5,19.7434,20.5335,165.332,97.1468,97.384,-0.000281533,0.0656469,20.9847,33.2392,-0.0218125,0.0,0.0
960,239.75,19.3387,20.4656,165.188,97.0783,96.998,-0.000220892,0.0662,20.9845,33.2692,0.00740179,0.0,0.0
965,241,19.4831,20.6751,164.671,97.0372,96.7937,-0.000122718,0.0663541,20.9826,33.3093,0.0224764,0.0,0.0
970,242.25,19.0467,20.5515,158.659,97.0158,96.8551,4.08447e-05,0.0685432,20.9769,33.2692,0.0148305,0.0,1.0
975,243.5,19.547,20.9465,160.395,97.0209,97.3221,0.000260913,0.0738584,20.9715,33.4394,-0.027728,0.0,1.0
980,244.75,19.708,21.4906,166.193,97.0174,95.4304,0.000428074,0.0860456,20.9591,33.1791,0.147539,0.0,1.0
985,246,19.0936,20.3703,156.145,97.0289,91.328,0.00100095,0.1056,20.9418,33.0891,0.541645,0.0,1.0
990,247.25,19.8422,21.0485,156.129,97.0672,89.1183,0.00167931,0.12093,20.9144,33.039,0.764282,0.0,1.0
995,248.5,20.2512,21.6327,152.433,97.106,84.8271,0.0026152,0.154686,20.8665,33.039,1.2093,0.0,0.0
1000,249.75,21.0027,22.3318,149.766,97.1828,82.6726,0.00369096,0.19426,20.8055,32.8989,1.44651,0.0,0.0
1005,251,21.199,23.4986,148.572,97.2702,80.651,0.00488951,0.236974,20.7425,32.7688,1.67601,0.0,0.0
1010,252.25,21.8281,24.1807,148.029,97.3474,76.6565,0.00607714,0.281469,20.688,32.6487,2.1375,0.0,0.0
1015,253.5,23.0524,25.0538,142.565,97.4364,77.3102,0.00736311,0.325885,20.6311,32.5786,2.06973,0.0,0.0
1020,254.75,23.5294,26.2145,145.886,97.5591,76.4011,0.00863937,0.371065,20.5749,32.4085,2.18678,0.0,0.0
1025,256,24.9324,27.7223,140.117,97.6561,72.2378,0.00999304,0.416668,20.5112,32.2884,2.69691,0.0,0.0
1030,257.25,25.5186,29.3445,142.515,97.7621,72.4835,0.0112387,0.460653,20.4432,32.1382,2.67625,0.0,0.0
1035,258.5,26.8584,30.636,138.088,97.8781,71.0622,0.0121746,0.503616,20.3881,31.9981,2.86399,0.0,0.0
1040,259.75,27.9896,32.1035,138.199,97.9912,68.5014,0.0134631,0.540897,20.3416,31.828,3.20265,0.0,0.0
1045,261,29.3901,33.4162,135.191,98.0819,65.2864,0.0146355,0.571657,20.298,31.6078,3.64092,0.0,0.0
1050,262.25,30.603,35.1883,142.094,98.1574,69.291,0.0156196,0.602871,20.2569,31.4176,3.11529,0.0,0.0
1055,263.5,31.5356,36.7679,134.233,98.2453,64.4385,0.0165202,0.633665,20.215,31.2174,3.77276,0.0,0.0
1060,264.75,32.6364,38.5359,139.757,98.3042,66.6235,0.0172643,0.66145,20.1825,31.0773,3.47983,0.0,0.0
1065,266,33.6378,40.0277,139.324,98.3363,66.4338,0.0179549,0.687364,20.1531,30.8271,3.50825,0.0,0.0
1070,267.25,34.8856,41.49,133.857,98.3573,64.2009,0.0185795,0.713039,20.1273,30.6269,3.81599,0.0,0.0
1075,268.5,36.3571,42.8804,136.461,98.3652,66.2333,0.0194322,0.737629,20.1025,30.3967,3.53792,0.0,0.0
1080,269.75,37.5405,44.7514,131.18,98.3399,62.7383,0.0202889,0.763813,20.0711,30.1965,4.02055,0.0,0.0
1085,271,38.7996,46.5009,133.769,98.3035,66.7683,0.0211053,0.789954,20.0292,29.9363,3.46033,0.0,0.0
1090,272.25,39.7434,47.9081,138.302,98.2777,62.7696,0.0219066,0.816508,19.9869,29.7261,4.01044,0.0,0.0
1095,273.5,41.4686,49.6582,125.894,98.2481,62.894,0.0227698,0.843882,19.9467,29.5159,3.99003,0.0,0.0
1100,274.75,41.9668,50.5587,141.105,98.216,60.0043,0.0237774,0.871465,19.9085,29.2457,4.40784,0.0,0.0
1105,276,43.791,53.0304,126.408,98.1871,59.341,0.0249701,0.897318,19.8737,28.9654,4.50464,0.0,0.0
1110,277.25,44.985,54.8731,125.521,98.1289,56.1427,0.0262449,0.928468,19.8296,28.7052,4.99495,0.0,0.0
1115,278.5,45.6533,55.9266,126.446,98.0795,56.5186,0.0274668,0.961575,19.7845,28.415,4.93075,0.0,0.0
1120,279.75,48.0353,58.5425,119.595,98.0375,57.2282,0.0285997,1.00116,19.7424,28.1547,4.8153,0.0,0.0
1125,281,49.2018,60.7094,125.382,98.0031,55.4098,0.0299296,1.0445,19.6917,27.8545,5.10101,0.0,0.0
1130,282.25,50.1253,61.902,122.896,98.0458,54.198,0.0313104,1.08873,19.6348,27.5242,5.30272,0.0,0.0
1135,283.5,52.1358,64.4146,125.621,98.2627,52.3803,0.0327549,1.13678,19.5684,27.1939,5.62763,0.0,0.0
1140,284.75,53.2591,65.8877,124.605,98.4558,52.1555,0.0344439,1.18569,19.4969,26.8836,5.68367,0.0,0.0
1145,286,55.3571,69.2055,111.802,98.6034,49.5645,0.0359387,1.23973,19.4246,26.5033,6.15288,0.0,0.0
1150,287.25,57.349,71.2321,118.608,98.7249,51.7742,0.0377304,1.30656,19.3598,26.153,5.77372,0.0,0.0
1155,288.5,58.6373,74.5063,117.632,98.7965,49.5065,0.0393432,1.36359,19.3019,25.7226,6.18085,0.0,0.0
1160,289.75,61.0066,76.6659,112.888,98.8242,47.442,0.0413411,1.43181,19.2422,25.4123,6.56439,0.0,0.0
1165,291,63.18,79.1954,117.425,98.8218,46.7227,0.0432689,1.48602,19.1608,24.9619,6.70085,0.0,0.0
1170,292.25,64.7857,81.9005,119.131,98.7518,47.6905,0.0455103,1.55699,19.0724,24.5115,6.51112,0.0,0.0
1175,293.5,67.0019,84.7855,105.845,98.6537,45.5603,0.0478403,1.62637,18.9758,24.1012,6.91098,0.0,0.0
1180,294.75,68.6913,88.223,111.185,98.514,46.9576,0.0503288,1.70627,18.88,23.7609,6.62808,0.0,0.0
1185,296,71.5729,90.5963,104.648,98.3248,44.3364,0.0530086,1.78211,18.7859,23.1703,7.12469,0.0,0.0
1190,297.25,73.0908,94.454,100.172,98.2849,41.6457,0.056211,1.85506,18.702,22.8301,7.6811,0.0,0.0
1195,298.5,75.5742,96.8431,113.536,98.3731,40.8298,0.0595151,1.94088,18.5875,22.3096,7.86612,0.0,0.0
1200,299.75,77.617,100.546,101.348,98.4574,43.7639,0.0629025,2.02125,18.4765,21.8092,7.25301,0.0,0.0
1205,301,79.5772,104.396,117.714,98.5654,44.1835,0.0660596,2.10549,18.3857,21.2286,7.17747,0.0,0.0
1210,302.25,82.4878,107.824,106.523,98.6818,41.9629,0.0695322,2.1887,18.2909,20.7883,7.64928,0.0,0.0
1215,303.5,84.92,111.266,99.6593,98.7823,40.6433,0.0730166,2.27494,18.189,20.2578,7.94422,0.0,0.0
1220,304.75,87.4204,115.023,97.9595,98.8844,39.487,0.0766449,2.36817,18.067,19.7574,8.21164,0.0,0.0
1225,306,90.6988,118.871,104.346,98.9568,39.5909,0.0806347,2.46625,17.9552,19.1068,8.19467,0.0,0.0
1230,307.25,92.9532,122.478,104.679,99.009,41.4074,0.084267,2.55861,17.8405,18.5363,7.79811,0.0,0.0
1235,308.5,95.9899,125.652,102.171,99.0407,40.0039,0.0896071,2.68142,17.7112,17.9257,8.10943,0.0,0.0
1240,309.75,97.8901,129.67,99.0464,99.0165,38.4297,0.0955086,2.81239,17.5632,17.3552,8.46638,0.0,0.0
1245,311,101.726,134.499,97.5405,98.9734,39.2865,0.101234,2.95492,17.3999,16.5545,8.26522,0.0,0.0
1250,312.25,104.371,140.011,96.4353,98.8974,37.6678,0.107767,3.11185,17.2453,15.904,8.63472,0.0,0.0
1255,313.5,107.329,143.341,83.4168,98.7874,40.6143,0.114581,3.27599,17.0791,15.1633,7.95107,0.0,0.0
1260,314.75,111.147,148.669,87.0203,98.6339,40.4895,0.12372,3.44922,16.921,14.4127,7.96468,0.0,0.0
1265,316,114.863,153.826,90.3955,98.4629,40.3524,0.13406,3.63301,16.7371,13.632,7.97951,0.0,0.0
1270,317.25,117.312,158.769,85.8647,98.2698,43.2517,0.143599,3.83982,16.5207,12.8913,7.34127,0.0,0.0
1275,318.5,121.606,164.811,87.5408,98.0688,41.5743,0.152519,4.04808,16.2795,11.8304,7.67678,0.0,0.0
1280,319.75,125.345,170.988,86.2608,97.848,40.9407,0.159135,4.2567,16.1021,10.9897,7.79398,0.0,0.0
1285,321,127.536,175.254,78.9822,97.6351,38.0677,0.162797,4.38967,15.9973,10.279,8.42536,0.0,0.0
1290,322.25,131.454,179.639,92.8509,97.457,40.544,0.160701,4.42661,15.9864,9.5684,7.84528,0.0,0.0
1295,323.5,133.526,182.627,95.7758,97.2908,40.4914,0.154622,4.37665,16.1011,8.72767,7.84161,0.0,0.0
1300,324.75,135.014,184.605,100.312,97.1733,41.3363,0.146097,4.23704,16.3196,8.02705,7.64607,0.0,0.0
1305,326,136.024,186.202,94.6462,97.0744,42.6977,0.136931,4.02734,16.5831,7.29641,7.3471,0.0,0.0
1310,327.25,137.057,186.802,96.3536,97.0265,43.9018,0.126487,3.79799,16.8583,6.75593,7.0939,0.0,0.0
1315,328.5,138.151,186.777,103.213,97.0459,47.162,0.117411,3.5512,17.115,6.11537,6.45492,0.0,0.0
1320,329.75,137.982,186.345,113.186,97.11,48.5867,0.108103,3.29751,17.389,5.66498,6.19459,0.0,0.0
1325,331,136.892,185.103,114.31,97.2208,48.3908,0.100972,3.03417,17.6607,5.08447,6.24093,0.0,0.0
1330,332.25,136.262,183.136,115.53,97.3415,43.5213,0.0945395,2.78588,17.9793,4.58403,7.20077,0.0,0.0
1335,333.5,135.425,180.875,113.475,97.516,45.473,0.088098,2.53445,18.2628,4.05356,6.82438,0.0,0.0
1340,334.75,134.064,179.039,121.507,97.6818,48.1853,0.0818035,2.31876,18.4688,3.63319,6.32132,0.0,0.0
1345,336,132.307,176.576,126.115,97.8519,50.2027,0.0750716,2.10859,18.6678,3.24285,5.97001,0.0,0.0
1350,337.25,130.833,173.394,127.904,98.0094,53.8294,0.066348,1.91088,18.867,2.89254,5.36044,0.0,0.0
1355,338.5,129.007,170.254,127.443,98.1519,53.9175,0.058099,1.74556,19.0619,2.52222,5.35881,0.0,0.0
1360,339.75,127.134,167.166,129.343,98.2449,58.3103,0.0502531,1.55028,19.2888,2.30202,4.66664,0.0,0.0
1365,341,125.024,163.187,136.049,98.3343,61.99,0.0426725,1.35571,19.5297,2.12186,4.12738,0.0,0.0
1370,342.25,122.166,159.272,142.579,98.3644,66.3264,0.0366672,1.17987,19.706,1.95171,3.52528,0.0,0.0
1375,343.5,119.432,155.768,143.569,98.3525,70.6597,0.030113,1.01919,19.8835,1.75154,2.95807,0.0,0.0
1380,344.75,117.111,151.43,141.817,98.3074,72.9185,0.024405,0.866194,20.0438,1.62142,2.67248,0.0,0.0
1385,346,114.003,147.58,143.475,98.2425,73.8986,0.0197949,0.783002,20.1839,1.4813,2.54714,0.0,0.0
1390,347.25,112.332,144.381,148.532,98.1614,76.6241,0.0163534,0.690354,20.2975,1.38121,2.21578,0.0,0.0
1395,348.5,110.243,140.627,147.446,98.0842,78.3045,0.0137826,0.614988,20.3841,1.29113,2.01468,0.0,0.0
1400,349.75,107.76,137.172,148.124,98.0225,80.3103,0.0113142,0.547741,20.4509,1.22107,1.7828,0.0,0.0
1405,351,105.488,133.762,151.162,97.9596,84.1228,0.00940712,0.491581,20.5124,1.12098,1.36217,0.0,0.0
1410,352.25,103.189,130.408,147.001,98.1242,85.9977,0.00777598,0.4458,20.5696,1.07094,1.18002,0.0,0.0
1415,353.5,100.961,126.975,153.369,98.4447,89.3621,0.00654949,0.398442,20.6269,1.0209,0.865898,0.0,0.0
1420,354.75,98.8418,123.844,155.865,98.6584,92.0995,0.00563763,0.356688,20.6762,0.940826,0.615382,0.0,0.0
1425,356,96.8801,120.706,149.244,98.7676,93.3589,0.00499149,0.319206,20.7168,0.920809,0.503788,0.0,0.0
1430,357.25,94.7901,117.849,150.239,98.7981,94.8435,0.00451405,0.285507,20.7548,0.880774,0.365416,0.0,0.0
1435,358.5,92.6257,114.459,156.952,98.734,94.1049,0.00419672,0.255031,20.7839,0.880774,0.429549,0.0,0.0
1440,359.75,90.7735,111.64,155.7,98.5721,94.973,0.0040231,0.226066,20.8115,0.880774,0.332736,0.0,0.0
1445,361,88.6272,108.567,151.896,98.3106,95.8062,0.0039648,0.199605,20.8395,0.880774,0.230824,0.0,0.0
1450,362.25,86.6872,105.719,156.641,98.3181,95.2098,0.00394527,0.174942,20.8662,0.870765,0.287375,0.0,0.0
1455,363.5,84.5581,103.114,159.421,98.4495,95.1143,0.00388564,0.153891,20.89,0.870765,0.308289,0.0,0.0
1460,364.75,83.0069,100.475,157.255,98.5994,94.4622,0.0037172,0.134471,20.9115,0.880774,0.383446,0.0,0.0
1465,366,80.6676,97.0585,155.768,98.7447,96.1265,0.00344827,0.118708,20.9295,0.870765,0.240384,0.0,0.0
1470,367.25,79.1372,94.9908,159.876,98.8919,95.8321,0.00312598,0.105665,20.9435,0.890782,0.281145,0.0,0.0
1475,368.5,77.5324,92.6673,159.341,98.9837,96.3015,0.00282519,0.096126,20.953,0.880774,0.24574,0.0,0.0
1480,369.75,76.1218,90.3949,155.598,99.0304,96.6113,0.00253832,0.0893074,20.9601,0.880774,0.221226,0.0,0.0
1485,371,74.442,88.1056,158.454,99.0118,95.965,0.00223128,0.084276,20.9655,0.870765,0.279588,0.0,0.0
1490,372.25,73.4049,86.2769,155.952,98.9461,96.9161,0.00205219,0.0805639,20.9682,0.880774,0.185431,0.0,0.0
1495,373.5,71.7094,83.7707,160.785,98.7918,95.7077,0.00182969,0.0776599,20.9711,0.870765,0.283704,0.0,0.0
1500,374.75,70.3477,81.995,159.415,98.5896,96.4645,0.00157731,0.075482,20.974,0.870765,0.194919,0.0,0.0
1505,376,69.2054,79.9128,158.029,98.3529,95.9357,0.00137201,0.0738369,20.9758,0.870765,0.222601,0.0,0.0
1510,377.25,67.529,77.8724,158.522,98.121,97.1201,0.00116434,0.0724828,20.9769,0.880774,0.0917199,0.0,0.0
1515,378.5,66.0425,76.1606,157.319,97.8543,96.2509,0.00101507,0.0713585,20.9775,0.880774,0.147792,0.0,0.0
1520,379.75,65.1673,74.6305,156.204,97.5991,96.4259,0.000877367,0.0704642,20.9779,0.870765,0.10818,0.0,0.0
1525,381,64.2142,73.1782,158.656,97.3731,95.1352,0.000723017,0.069682,20.9781,0.880774,0.20799,0.0,0.0
1530,382.25,63.3362,71.3262,153.917,97.2014,96.4862,0.000578059,0.0690207,20.979,0.860756,0.0660664,0.0,0.0
1535,383.5,61.7591,70.0548,158.682,97.1013,96.1215,0.000474648,0.0684497,20.9798,0.880774,0.0907213,0.0,0.0
1540,384.75,61.0981,68.4577,160.598,97.0506,94.9328,0.000403423,0.0680346,20.9802,0.900791,0.197367,0.0,0.0
1545,386,59.4054,67.572,158.704,97.1021,94.9815,0.000339416,0.0676106,20.9814,0.900791,0.197522,0.0,0.0
1550,387.25,59.3366,65.574,152.508,97.2109,94.9169,0.000263221,0.0672452,20.9821,0.890782,0.21362,0.0,0.0
1555,388.5,57.8227,65.061,156.193,97.3719,95.1155,0.000189851,0.0668891,20.9826,0.9108,0.209733,0.0,0.0
1560,389.75,57.4364,63.5644,157.964,97.554,95.4528,0.000148359,0.0665772,20.9828,0.900791,0.194778,0.0,0.0
1565,391,56.7815,62.3353,160.671,97.7514,96.4908,0.000158164,0.0663226,20.983,0.890782,0.116113,0.0,0.0
1570,392.25,56.0488,61.5616,155.718,97.9552,96.0523,0.000198387,0.0661194,20.983,0.870765,0.175485,0.0,0.0
1575,393.5,54.6286,59.8771,159.395,98.1325,96.1107,0.00023961,0.0658936,20.9839,0.880774,0.186229,0.0,0.0
1580,394.75,53.8853,59.0503,158.311,98.252,96.1698,0.000256405,0.0656694,20.9845,0.880774,0.191616,0.0,0.0
1585,396,53.4031,58.3251,158.625,98.345,96.4981,0.000237093,0.0655092,20.9849,0.880774,0.169588,0.0,0.0
1590,397.25,53.1411,56.8013,157.656,98.3668,96.5611,0.000205141,0.0653711,20.9851,0.870765,0.16573,0.0,0.0
1595,398.5,52.0061,56.4472,161.265,98.324,96.6789,0.000162677,0.0652896,20.985,0.880774,0.150936,0.0,0.0
1600,399.75,51.472,55.0721,158.638,98.2702,96.0199,0.000134866,0.0652281,20.9843,0.890782,0.207227,0.0,0.0
1605,401,51.3583,54.2588,159.341,98.1764,97.0525,0.000122732,0.0651498,20.9838,0.9108,0.102998,0.0,0.0
1610,402.25,49.7486,53.1355,161.212,98.0755,96.6275,0.000133536,0.0650327,20.9836,0.9108,0.133052,0.0,0.0
1615,403.5,49.5451,52.4619,156.299,97.9754,96.1501,0.000199385,0.0649173,20.9842,0.900791,0.16823,0.0,0.0
1620,404.75,49.1628,51.648,157.904,97.9216,96.3135,0.000283347,0.0648975,20.9847,0.9108,0.148125,0.0,0.0
1625,406,48.564,51.1757,157.519,98.0474,95.7537,0.000333067,0.0648662,20.9845,0.930818,0.211755,0.0,0.0
1630,407.25,47.8478,50.2199,159.653,98.3759,96.7245,0.000351335,0.064819,20.9838,0.9108,0.151433,0.0,0.0
1635,408.5,47.6571,49.8759,155.393,98.5868,96.8365,0.000356516,0.0647245,20.9834,0.890782,0.160236,0.0,0.0
1640,409.75,46.5835,48.9827,160.927,98.7277,96.48,0.000364844,0.0645917,20.9832,0.890782,0.206009,0.0,0.0
1645,411,45.6988,47.4418,163.949,98.7613,96.9273,0.000391289,0.0645615,20.9831,0.880774,0.167674,0.0,0.0
1650,412.25,45.5209,47.9707,158.986,98.7059,96.9741,0.000451131,0.0644884,20.983,0.880774,0.158342,0.0,0.0
1655,413.5,45.5529,47.1195,155.277,98.5504,96.0141,0.000515614,0.0644306,20.9829,0.870765,0.233233,0.0,0.0
1660,414.75,45.4954,46.5691,158.225,98.313,96.0519,0.000565633,0.0643781,20.9829,0.880774,0.208129,0.0,0.0
1665,416,44.1015,45.8222,158.925,98.2773,95.4369,0.00060285,0.0642869,20.9829,0.880774,0.262349,0.0,0.0
1670,417.25,44.7931,45.4229,161.011,98.3937,96.7203,0.000618824,0.0642467,20.9829,0.870765,0.153445,0.0,0.0
1675,418.5,44.0035,44.7982,154.576,98.5413,96.2076,0.00057626,0.0641797,20.9829,0.880774,0.214394,0.0,0.0
1680,419.75,42.9309,43.3329,159.26,98.7019,97.0834,0.000471458,0.0640781,20.9835,0.9108,0.147904,0.0,0.0
1685,421,43.4705,43.7628,157.289,98.8369,97.4925,0.00033774,0.0640813,20.9842,0.890782,0.122508,0.0,0.0
1690,422.25,41.8629,42.3082,159.386,98.9271,97.1097,0.000249267,0.0640184,20.9846,0.890782,0.165867,0.0,0.0
1695,423.5,42.18,42.7398,155.775,98.9975,96.8817,0.00021453,0.063969,20.9848,0.890782,0.193255,0.0,0.0
1700,424.75,42.1689,42.1689,156.047,99.0185,96.5198,0.000198854,0.0637917,20.985,0.900791,0.228634,0.0,0.0
1705,426,41.9112,42.0419,161.002,98.9833,97.1193,0.000139207,0.0635966,20.985,0.880774,0.170056,0.0,0.0
1710,427.25,41.3282,41.2019,159.702,98.865,96.3938,5.95034e-05,0.0634661,20.9851,0.860756,0.226432,0.0,0.0
1715,428.5,40.7869,41.0961,158.678,98.7348,96.524,7.34688e-06,0.0634157,20.9851,0.880774,0.202571,0.0,0.0
1720,429.75,41.0278,40.4523,160.091,98.5476,96.2405,-6.07398e-06,0.06339,20.9851,0.880774,0.211915,0.0,0.0
1725,431,40.2631,40.0935,156.765,98.3221,96.1068,9.96507e-06,0.0633581,20.9851,0.890782,0.20385,0.0,0.0
1730,432.25,40.5285,39.859,163.654,98.1005,95.4976,6.05429e-05,0.0633857,20.9851,0.860756,0.240552,0.0,0.0
1735,433.5,39.3593,39.7835,157.36,97.8555,94.9892,0.00013237,0.063441,20.9851,0.890782,0.265936,0.0,0.0
1740,434.75,40.1641,38.4102,158.34,97.6307,95.7224,0.000183403,0.0635024,20.9851,0.900791,0.176582,0.0,0.0
1745,436,39.826,38.6691,161.134,97.4163,95.5721,0.000206655,0.063535,20.9851,0.870765,0.170963,0.0,0.0
1750,437.25,39.0751,38.597,158.575,97.2611,95.447,0.000223856,0.0635446,20.9851,0.880774,0.168431,0.0,0.0
1755,438.5,39.2983,38.0962,159.615,97.1507,95.3817,0.000247607,0.0635744,20.9851,0.870765,0.164391,0.0,0.0
1760,439.75,38.9283,37.5588,158.27,97.0894,95.7873,0.000303656,0.0635391,20.9851,0.840738,0.12078,0.0,0.0
1765,441,38.56,37.5256,159.297,97.072,95.3824,0.000356077,0.0634321,20.9851,0.820721,0.157066,0.0,0.0
1770,442.25,38.0819,37.0634,158.733,97.1199,95.904,0.000372796,0.0633402,20.9851,0.83073,0.112698,0.0,0.0
1775,443.5,37.7561,36.8672,161.88,97.2049,95.4589,0.000335783,0.0633287,20.9851,0.860756,0.162138,0.0,0.0
1780,444.75,37.5559,36.7996,158.994,97.3102,95.4914,0.000262881,0.0633653,20.9851,0.880774,0.16878,0.0,0.0
1785,446,36.6628,35.7527,158.664,97.4543,95.5613,0.000167918,0.0633299,20.9851,0.890782,0.175463,0.0,0.0
1790,447.25,37.2727,36.0729,156.616,97.6114,96.3513,8.61376e-05,0.0632039,20.9851,0.870765,0.116223,0.0,0.0
1795,448.5,37.1417,35.6401,158.902,97.774,96.4301,4.42452e-05,0.0630716,20.9851,0.890782,0.123802,0.0,0.0
1800,449.75,36.9357,35.6953,156.01,97.9093,96.1953,3.74239e-05,0.0629457,20.9851,0.870765,0.15799,0.0,0.0
1805,451,36.8257,35.3999,157.965,98.0478,96.6612,4.3039e-05,0.062852,20.9851,0.890782,0.127415,0.0,0.0
1810,452.25,36.8697,35.4888,161.665,98.1756,96.75,6.16682e-05,0.0627967,20.9854,0.880774,0.13085,0.0,0.0
1815,453.5,36.0252,34.8241,160.879,98.2536,97.6528,7.48122e-05,0.062764,20.9855,0.9108,0.0548634,0.0,0.0
1820,454.75,35.4769,33.8814,159.611,98.3102,97.3109,6.58368e-05,0.0626873,20.9856,0.9108,0.0913863,0.0,0.0
1825,456,35.9699,34.6955,156.578,98.3549,97.3187,4.44948e-05,0.0627568,20.9861,0.900791,0.0947444,0.0,0.0
1830,457.25,35.7549,34.5729,162.363,98.3628,96.7064,3.93707e-05,0.0628461,20.9863,0.880774,0.151926,0.0,0.0
1835,458.5,35.1403,33.4067,162.857,98.3438,96.9084,7.01503e-05,0.0629316,20.9864,0.9108,0.131528,0.0,0.0
1840,459.75,35.5162,34.5418,159.336,98.2975,97.3079,0.000107501,0.0629337,20.9865,0.890782,0.0905187,0.0,0.0
1845,461,35.1029,33.9232,162.051,98.2492,97.5918,0.000155529,0.0629308,20.9866,0.880774,0.0600605,0.0,0.0
1850,462.25,35.4459,33.2746,161.198,98.1851,96.9285,0.000187675,0.0629879,20.9866,0.870765,0.115227,0.0,0.0
1855,463.5,34.958,33.5073,158.185,98.1187,96.9899,0.000180055,0.0631085,20.9866,0.900791,0.103503,0.0,0.0
1860,464.75,35.1052,33.1099,162.067,98.0482,97.7135,0.000129802,0.0631397,20.9866,0.880774,0.0305908,0.0,0.0
1865,466,35.1332,33.0496,162.82,97.9912,96.9061,6.69838e-05,0.0631499,20.9866,0.880774,0.0996125,0.0,0.0
1870,467.25,34.6852,33.2387,159.68,97.9346,96.2605,5.34582e-05,0.0631467,20.9856,0.880774,0.154234,0.0,0.0
1875,468.5,34.9153,33.222,156.075,97.882,96.5089,9.06977e-05,0.0631124,20.9844,0.890782,0.126372,0.0,0.0
1880,469.75,34.416,32.5782,161.568,97.8686,97.4411,0.000154908,0.0631404,20.9845,0.870765,0.0391544,0.0,0.0
1885,471,34.3606,32.5092,159.48,97.9204,96.8014,0.000186873,0.0631903,20.9846,0.870765,0.102814,0.0,0.0
1890,472.25,34.1809,32.1764,154.819,98.1167,98.0801,0.000195677,0.0632484,20.9848,0.860756,0.00333498,0.0,0.0
1895,473.5,34.0831,32.1968,164.414,98.2611,97.8274,0.000179631,0.0633007,20.9848,0.860756,0.0395674,0.0,0.0
1900,474.75,33.2964,31.8479,163.426,98.4178,98.0206,,0.0633528,,0.870765,0.0361758,0.0,0.0
1905,476,33.7585,31.8042,159.411,98.5195,97.9777,,0.0634064,,0.870765,0.0493293,0.0,0.0
1910,477.25,33.5483,31.9024,163.735,98.6216,98.0635,,0.0634381,,0.900791,0.0507683,0.0,0.0
1915,478.5,33.5867,31.4671,156.636,98.6655,97.8792,,,,0.880774,0.0715764,0.0,0.0
1920,479.75,32.9829,31.3286,154.797,98.719,98.0901,,,,0.880774,0.0571619,0.0,0.0
1925,481,33.1557,31.1058,159.554,98.7312,98.6094,,,,0.880774,0.0110493,0.0,0.0
1930,482.25,32.9305,31.1112,157.401,98.7051,97.9905,,,,0.870765,0.0650015,0.0,0.0
1935,483.5,33.0299,31.3187,162.211,98.6833,98.0666,,,,0.860756,0.0560832,0.0,0.0
1940,484.75,32.8417,30.8872,162.127,98.6295,97.9607,,,,0.890782,0.0608644,0.0,0.0
1943,485.5,32.1554,29.8348,162.235,98.569,98.2621,,,,0.9108,0.0278974,0.0,0.0