File: 01_Data/PETG/Cone/PETG_Cone_HF50Scan_220215_R2.csv
Names,Time,Stack TC,Smoke TC,Exh Press,Smoke Comp,Smoke Meas,CO Meter,CO2 Meter,O2 Meter,Sample Mass,Ext Coeff,Start Test,Flame Verif
Chan Gain,,500,500,1,1,1,1,1,1,1,1,1.0,1.0
Offset,,0,0,0.140898,0,0,0,0,0,0,0,0.0,0.0
Gain,,1,1,25.011,12.9668,12.6588,1,1,1,1.00088,1.01977,1.0,1.0
Units,sec,C,C,Pa,%,%,%,%,%,g,/m,,
Baseline,,35.6038,36.2219,153.702,98.2994,99.3528,-0.00117878,0.0652744,20.9758,-872.0625,-0.0951957,,
3,0.5,32.6877,32.9785,151.364,98.3893,98.9366,-0.00132918,0.076334,20.9629,33.9398,-0.0496152,0.0,0.0
6,1.25,33.1656,33.4249,156.084,98.3937,99.7556,-0.00134273,0.0763407,20.9628,34.2901,-0.122964,0.0,0.0
9,2,32.5494,33.3197,156.894,98.3775,98.7044,-0.00136006,0.0762115,20.9626,34.12,-0.0296777,0.0,0.0
12,2.75,32.7997,33.047,152.41,98.3612,98.9609,-0.00137332,0.0759969,20.9626,34.2601,-0.0543705,0.0,0.0
15,3.5,32.5251,33.1201,152.222,98.3557,99.4565,-0.00138405,0.0757318,20.9625,34.15,-0.0995653,0.0,0.0
18,4.25,32.7164,32.8978,157.568,98.3272,99.5597,-0.00139187,0.0754431,20.9629,34.2201,-0.111429,0.0,0.0
21,5,32.2465,32.3425,151.032,98.2975,98.9555,-0.00139994,0.0751833,20.9634,34.17,-0.0596774,0.0,0.0
24,5.75,32.1719,32.9856,153.175,98.2671,99.3746,-0.00141182,0.0749096,20.9637,34.18,-0.100261,0.0,0.0
27,6.5,32.4901,33.3534,149.65,98.2477,98.9192,-0.001429,0.0745227,20.964,34.15,-0.0609335,0.0,0.0
30,7.25,33.0099,33.0174,152.786,98.2196,99.1027,-0.00144997,0.0741114,20.9646,34.11,-0.0800698,0.0,0.0
33,8,32.5481,33.1222,152.207,98.1935,99.2499,-0.00146214,0.0737273,20.9652,34.13,-0.0957247,0.0,0.0
36,8.75,32.6737,33.7331,157.004,98.1523,99.2108,-0.00146568,0.0733519,20.9657,34.0899,-0.0959575,0.0,0.0
39,9.5,32.4841,33.103,153.257,98.1337,99.4809,-0.00146353,0.0730149,20.966,34.11,-0.121967,0.0,0.0
42,10.25,32.9062,33.501,154.446,98.1068,98.7728,-0.00146368,0.0726609,20.9663,34.0999,-0.0605185,0.0,0.0
45,11,33.2954,33.5202,154.092,98.0672,98.8686,-0.00147018,0.0722693,20.967,34.12,-0.0727993,0.0,0.0
48,11.75,32.4586,34.0453,156.128,98.0288,98.733,-0.00147662,0.0719134,20.9675,34.11,-0.0640245,0.0,0.0
51,12.5,32.7865,33.302,156.897,98.0011,99.4353,-0.00148806,0.0715337,20.9685,34.11,-0.129959,0.0,0.0
54,13.25,32.4841,33.6291,152.11,97.9916,99.1382,-0.00149471,0.0710832,20.9698,34.12,-0.104061,0.0,0.0
57,14,33.2109,33.4476,152.508,97.9901,98.5676,-0.00149719,0.0705753,20.9709,34.13,-0.0525709,0.0,0.0
60,14.75,33.0138,33.4228,153.431,97.9481,98.631,-0.00149238,0.0701892,20.9716,34.14,-0.0621495,0.0,0.0
63,15.5,33.0277,33.6359,154.056,97.9287,98.9006,-0.00147929,0.0694895,20.9728,34.17,-0.0883429,0.0,0.0
66,16.25,32.6832,33.6407,155.194,97.9331,98.1361,-0.00144488,0.0688081,20.9737,34.16,-0.0185276,0.0,0.0
69,17,32.6641,33.8118,154.965,97.9683,98.8744,-0.00139862,0.0682033,20.9743,34.17,-0.0823528,0.0,0.0
72,17.75,33.1483,33.6727,152.941,98.0906,98.0337,-0.00134678,0.0676482,20.9754,34.19,0.00518318,0.0,0.0
75,18.5,33.2587,33.4115,152.059,98.2022,98.6835,-0.00128176,0.0671663,20.9762,34.18,-0.0437415,0.0,0.0
78,19.25,33.0654,33.813,155.533,98.3316,99.1869,-0.00122276,0.0666829,20.9768,34.18,-0.0774755,0.0,0.0
81,20,32.8111,33.5108,151.209,98.417,99.5172,-0.00116542,0.0662239,20.9772,34.18,-0.0994424,0.0,0.0
84,20.75,33.239,33.7648,155.411,98.493,98.9427,-0.00109911,0.0658508,20.9777,34.15,-0.0407533,0.0,0.0
87,21.5,33.0031,33.5245,155.532,98.5725,99.207,-0.00104064,0.0655908,20.978,34.14,-0.0573906,0.0,0.0
90,22.25,32.6893,34.1485,147.052,98.6489,98.0283,-0.000996152,0.0654012,20.9783,34.14,0.0564509,0.0,0.0
93,23,32.9085,34.0425,150.558,98.6968,99.1429,-0.000960522,0.065244,20.9785,34.13,-0.0403371,0.0,0.0
96,23.75,33.0062,33.9559,153.335,98.7205,100.058,-0.000935171,0.0650894,20.9788,34.13,-0.120415,0.0,0.0
99,24.5,33.1571,33.6335,153.733,98.7534,100.325,-0.000919001,0.0649386,20.9795,34.12,-0.141204,0.0,0.0
102,25.25,33.1125,34.0546,154.666,98.7811,100.337,-0.000912231,0.0647927,20.9798,34.14,-0.139832,0.0,0.0
105,26,33.0264,33.8758,154.974,98.7823,99.0826,-0.00091151,0.0646513,20.9802,34.16,-0.0271541,0.0,0.0
108,26.75,32.4045,33.5241,152.921,98.7744,100.189,-0.00091339,0.0644882,20.9805,34.16,-0.127172,0.0,0.0
111,27.5,32.8182,33.8519,156.474,98.7629,98.2342,-0.000913696,0.0643426,20.9807,34.12,0.04801,0.0,0.0
114,28.25,33.1941,33.9012,153.702,98.7435,99.115,-0.000907165,0.0642602,20.9808,34.13,-0.0335965,0.0,0.0
117,29,32.566,33.7948,154.553,98.6877,99.5508,-0.000899912,0.0641651,20.9809,34.14,-0.0778945,0.0,0.0
120,29.75,32.6486,34.2231,151.252,98.6157,98.8342,-0.000890363,0.0640387,20.981,34.14,-0.0197993,0.0,0.0
123,30.5,33.0269,34.2551,152.651,98.5508,98.2787,-0.000885894,0.0639065,20.9811,34.11,0.0247343,0.0,0.0
126,31.25,32.8148,33.6959,152.161,98.493,99.0807,-0.000886897,0.0638072,20.9811,34.14,-0.0532135,0.0,0.0
129,32,33.0553,34.0379,152.638,98.4036,98.1682,-0.00088741,0.0637588,20.9811,34.14,0.0214232,0.0,0.0
132,32.75,33.0973,33.6291,155.861,98.294,98.641,-0.000888002,0.0637305,20.9812,34.13,-0.0315299,0.0,0.0
135,33.5,32.9645,34.0206,158.325,98.2477,98.573,-0.000881681,0.0637219,20.9812,34.12,-0.0295766,0.0,0.0
138,34.25,33.1698,34.2541,150.948,98.2805,98.8836,-0.00089058,0.0637822,20.9812,34.12,-0.0547288,0.0,0.0
141,35,32.5095,33.9793,156.304,98.3272,98.8701,-0.000919557,0.063833,20.9812,34.12,-0.049256,0.0,0.0
144,35.75,32.9016,33.7122,152.389,98.3648,98.2192,-0.000958369,0.0639296,20.9812,34.12,0.0132526,0.0,0.0
147,36.5,33.0514,33.9891,153.678,98.4004,98.575,-0.00100051,0.0640001,20.9806,34.13,-0.0158555,0.0,0.0
150,37.25,33.105,34.0652,156.145,98.459,98.3606,-0.00102999,0.0640515,20.9802,34.12,0.00894448,0.0,0.0
153,38,32.8426,33.7487,154.198,98.5231,98.7168,-0.00104934,0.064108,20.9798,34.12,-0.017567,0.0,0.0
156,38.75,32.1892,33.4359,154.46,98.5706,97.8008,-0.00104826,0.0641891,20.9796,34.11,0.0701313,0.0,0.0
159,39.5,32.8229,34.2609,152.429,98.6248,99.8989,-0.00104436,0.0642653,20.9794,34.0999,-0.114822,0.0,0.0
162,40.25,33.2532,34.0245,153.679,98.6766,98.1836,-0.0010362,0.064435,20.9793,34.0799,0.0448019,0.0,0.0
165,41,33.1293,33.6297,153.73,98.7443,98.2903,-0.00103363,0.064612,20.9794,34.11,0.0412266,0.0,0.0
168,41.75,33.0582,33.4343,154.924,98.7906,98.2899,-0.00103057,0.0647638,20.9795,34.13,0.0454534,0.0,0.0
171,42.5,33.2657,34.0386,156.384,98.8472,98.5089,-0.00102783,0.0649505,20.9796,34.13,0.0306641,0.0,0.0
174,43.25,33.1429,34.5371,152.768,98.8875,98.1612,-0.00101712,0.0650742,20.9796,34.11,0.0659436,0.0,0.0
177,44,33.1298,34.4028,158.12,98.941,98.5746,-0.000994392,0.065152,20.9796,34.0899,0.0331856,0.0,0.0
180,44.75,33.0278,33.8892,155.904,98.9694,97.8773,-0.000956517,0.0651967,20.9796,34.0699,0.0992635,0.0,0.0
183,45.5,32.9078,34.2633,151.482,98.9971,98.2794,-0.000915462,0.0652293,20.9796,34.0799,0.0650872,0.0,0.0
186,46.25,32.7879,34.2694,154.624,99.011,98.7766,-0.000878076,0.0652531,20.9796,34.0699,0.0211998,0.0,0.0
189,47,32.5332,34.5764,150.05,99.0308,97.8232,-0.000847269,0.0652985,20.9796,34.0699,0.10975,0.0,0.0
192,47.75,33.086,33.9713,152.183,99.0379,98.7106,-0.000823297,0.0653796,20.9796,34.0499,0.0296141,0.0,0.0
195,48.5,33.1321,34.2794,151.728,99.0229,97.6312,-0.000805822,0.0654921,20.9796,34.0699,0.12661,0.0,0.0
198,49.25,33.7442,34.2788,154.139,98.9967,98.1917,-0.000791395,0.0655617,20.9796,34.0799,0.0730383,0.0,0.0
201,50,33.1743,35.0951,153.028,98.9671,97.7946,-0.000777757,0.0655525,20.9796,34.0899,0.106608,0.0,0.0
204,50.75,32.855,34.2541,151.629,98.9429,96.969,-0.000762481,0.0654506,20.9796,34.0799,0.180261,0.0,0.0
207,51.5,32.953,34.5615,154.985,98.8903,96.5874,-0.000749475,0.0653764,20.9796,34.0599,0.210781,0.0,0.0
210,52.25,33.5331,33.7338,153.716,98.8333,96.9536,-0.000736799,0.0653363,20.9794,34.0499,0.171771,0.0,0.0
213,53,33.0955,34.4853,153.228,98.7554,97.3789,-0.000722493,0.065331,20.9792,34.0299,0.125555,0.0,0.0
216,53.75,33.3887,34.3531,151.806,98.6976,96.3305,-0.000708948,0.0653268,20.9791,34.0299,0.217155,0.0,0.0
219,54.5,32.7602,34.2387,155.697,98.5876,95.3141,-0.000693747,0.0653229,20.979,34.0099,0.302065,0.0,0.0
222,55.25,33.4375,34.038,156.79,98.4843,95.0776,-0.00066916,0.0652667,20.9789,34.0099,0.314905,0.0,0.0
225,56,32.8592,34.0622,152.912,98.3917,95.6281,-0.00063348,0.065203,20.9789,33.9999,0.254846,0.0,0.0
228,56.75,33.4508,34.3433,151.737,98.2817,95.9461,-0.0005999,0.0651566,20.9788,34.0199,0.215147,0.0,0.0
231,57.5,32.9174,34.0903,152.141,98.161,96.3954,-0.000543342,0.0651228,20.9784,34.0299,0.162365,0.0,0.0
234,58.25,33.3564,34.2759,153.997,98.0419,95.7174,-0.000483421,0.0652244,20.9779,34.0299,0.214642,0.0,0.0
237,59,33.1212,34.5768,150.48,97.9232,95.6374,-0.000407779,0.0655147,20.9769,33.9999,0.211281,0.0,0.0
240,59.75,32.6815,34.6616,152.377,97.8009,95.1418,-0.000264833,0.0675846,20.9735,33.9698,0.246584,0.0,0.0
243,60.5,33.4768,34.7449,151.437,97.6873,95.3728,-8.25347e-05,0.0698859,20.97,33.9398,0.214496,0.0,1.0
246,61.25,33.1538,34.3444,149.017,97.588,93.2724,0.000183895,0.0805776,20.9563,33.9398,0.404603,0.0,1.0
249,62,33.4845,35.0428,145.201,97.4725,88.8537,0.000660539,0.093524,20.9312,33.8597,0.828148,0.0,1.0
252,62.75,33.9322,35.442,146.46,97.4068,85.4985,0.00125647,0.111772,20.8993,33.7997,1.16644,0.0,1.0
255,63.5,33.5995,34.9598,148.058,97.3383,82.9473,0.00195085,0.139642,20.864,33.7697,1.43114,0.0,1.0
258,64.25,34.6827,36.0869,140.665,97.2477,81.2595,0.00272043,0.166301,20.8148,33.6496,1.60671,0.0,1.0
261,65,34.497,36.3714,140.62,97.1721,76.7017,0.00354588,0.201953,20.7789,33.6696,2.11611,0.0,0.0
264,65.75,35.1233,37.1503,139.913,97.1373,74.1192,0.00459981,0.237139,20.7457,33.5294,2.41928,0.0,0.0
267,66.5,35.1999,37.8177,141.385,97.1222,73.226,0.00564466,0.276933,20.7094,33.4994,2.52634,0.0,0.0
270,67.25,35.3397,37.838,139.166,97.1013,68.5079,0.00687926,0.305944,20.668,33.4093,3.12018,0.0,0.0
273,68,36.1942,38.6307,141.569,97.1001,68.6161,0.00809628,0.345589,20.6295,33.2792,3.10596,0.0,0.0
276,68.75,36.7702,39.8832,134.19,97.1159,65.4823,0.009385,0.37449,20.5762,33.1691,3.52559,0.0,0.0
279,69.5,37.5845,40.7784,137.531,97.1416,65.4506,0.0105618,0.412719,20.5191,33.039,3.53229,0.0,0.0
282,70.25,38.4195,41.8938,131.255,97.1875,62.9287,0.0116311,0.452562,20.4539,33.049,3.888,0.0,0.0
285,71,38.5889,42.278,135.623,97.2414,66.0332,0.0126792,0.489572,20.4012,32.8889,3.46219,0.0,0.0
288,71.75,39.7858,43.2666,124.537,97.3185,63.611,0.0135578,0.52814,20.3537,32.7488,3.80359,0.0,0.0
291,72.5,40.5097,45.0178,135.307,97.3803,62.2994,0.0145449,0.562712,20.3147,32.6587,3.99563,0.0,0.0
294,73.25,41.6555,46.3433,131.586,97.4614,62.2256,0.0155408,0.59401,20.2786,32.4885,4.01368,0.0,0.0
297,74,42.2931,47.0378,122.361,97.5378,61.6137,0.0164864,0.622546,20.2399,32.3884,4.10909,0.0,0.0
300,74.75,42.9679,48.3655,127.688,97.6276,58.1338,0.0174854,0.649348,20.2048,32.2784,4.63738,0.0,0.0
303,75.5,43.5034,48.5599,124.52,97.7257,58.9937,0.0184871,0.679147,20.1676,32.1082,4.51502,0.0,0.0
306,76.25,44.6621,50.6338,125.188,97.8207,60.0004,0.019459,0.713637,20.1194,32.0081,4.37234,0.0,0.0
309,77,45.215,52.0213,122.886,97.9097,59.1849,0.0205682,0.74266,20.0748,31.848,4.50289,0.0,0.0
312,77.75,46.3478,53.1682,116.6,97.994,59.737,0.0216837,0.770455,20.0315,31.7078,4.42754,0.0,0.0
315,78.5,47.4447,54.5155,119.803,98.0997,57.883,0.0226277,0.803968,19.9887,31.5277,4.7192,0.0,0.0
318,79.25,48.2234,55.8859,121.898,98.157,59.3827,0.0239613,0.838636,19.9445,31.4576,4.49562,0.0,0.0
321,80,49.2392,56.8178,125.079,98.2318,56.0983,0.0253456,0.873578,19.8992,31.2374,5.01141,0.0,0.0
324,80.75,50.3594,58.3731,123.015,98.2706,55.5323,0.0265306,0.908124,19.8533,31.0873,5.10564,0.0,0.0
327,81.5,51.7982,59.9003,118.817,98.3284,53.1271,0.0281636,0.945505,19.8072,30.8771,5.50698,0.0,0.0
330,82.25,52.6497,61.545,123.557,98.3695,52.5438,0.0299114,0.977956,19.756,30.727,5.60949,0.0,0.0
333,83,53.3406,63.0115,121.346,98.3842,53.3863,0.0314232,1.02429,19.6976,30.4668,5.46851,0.0,0.0
336,83.75,54.9443,64.6751,115.641,98.3925,49.0727,0.0334827,1.07485,19.6316,30.3467,6.22293,0.0,0.0
339,84.5,55.7098,66.4577,104.528,98.3953,48.2178,0.0357673,1.11885,19.5735,30.0664,6.3804,0.0,0.0
342,85.25,57.2545,68.9066,115.175,98.3826,47.6333,0.0377665,1.18559,19.4904,29.8862,6.48834,0.0,0.0
345,86,59.1342,70.1544,120.085,98.3577,46.025,0.0399209,1.25766,19.4141,29.6761,6.79331,0.0,0.0
348,86.75,59.7099,72.9223,116.019,98.3137,43.67,0.0426833,1.33472,19.3315,29.3558,7.25915,0.0,0.0
351,87.5,61.9341,74.6533,101.928,98.2674,42.4516,0.0462556,1.41576,19.2349,29.0255,7.50807,0.0,0.0
354,88.25,63.6802,77.1754,104.965,98.2176,40.4706,0.050138,1.49944,19.149,28.7853,7.93103,0.0,0.0
357,89,65.1754,79.8897,93.4944,98.1638,38.8558,0.0535131,1.60252,19.0348,28.415,8.29037,0.0,0.0
360,89.75,67.7995,82.6473,103.699,98.1111,37.0606,0.0580514,1.71957,18.9027,28.1447,8.70871,0.0,0.0
363,90.5,69.6057,85.665,100.578,98.0609,37.6257,0.0629352,1.84047,18.7605,27.7844,8.56874,0.0,0.0
366,91.25,71.4155,88.7215,98.3969,98.0083,35.8155,0.0676747,1.95888,18.6018,27.4941,9.00502,0.0,0.0
369,92,73.4085,91.8138,87.2821,97.9695,35.4643,0.0729515,2.07256,18.4593,27.1138,9.08962,0.0,0.0
372,92.75,75.8057,95.1343,100.941,97.9188,33.3809,0.0775749,2.2022,18.3099,26.7435,9.62657,0.0,0.0
375,93.5,78.2466,99.3228,87.4439,97.8903,33.1788,0.083312,2.33398,18.1711,26.3331,9.67828,0.0,0.0
378,94.25,80.0449,102.146,91.3244,97.8852,32.7438,0.0894968,2.46518,18.0191,25.9428,9.79586,0.0,0.0
381,95,82.5398,105.859,99.3922,98.0542,35.7865,0.0957043,2.59374,17.8458,25.5424,9.01645,0.0,0.0
384,95.75,84.6225,109.962,89.4109,98.237,32.5986,0.102393,2.7141,17.6695,25.1921,9.86772,0.0,0.0
387,96.5,87.6243,113.141,99.4265,98.3818,32.2799,0.110169,2.84742,17.4828,24.6516,9.96879,0.0,0.0
390,97.25,89.9306,117.445,78.5227,98.5175,30.7485,0.117768,3.0207,17.2835,24.2213,10.4159,0.0,0.0
393,98,92.6179,122.143,95.6964,98.622,31.8032,0.125167,3.18773,17.0688,23.7809,10.1237,0.0,0.0
396,98.75,95.6514,125.935,94.1981,98.6948,29.223,0.133279,3.32684,16.8542,23.4906,10.8872,0.0,0.0
399,99.5,98.1467,130.157,94.8133,98.7312,31.046,0.139194,3.50189,16.673,22.77,10.3491,0.0,0.0
402,100.25,100.725,134.43,90.6039,98.7645,32.9258,0.147036,3.66884,16.4949,22.3797,9.82629,0.0,0.0
405,101,103.813,139.875,77.8152,98.7589,31.9179,0.154563,3.82412,16.3289,21.8892,10.1039,0.0,0.0
408,101.75,106.314,143.929,81.859,98.7336,30.8803,0.161676,3.96609,16.1793,21.4789,10.3972,0.0,0.0
411,102.5,109.389,147.83,84.5549,98.6754,30.8621,0.168321,4.11282,16.0294,20.8583,10.3972,0.0,0.0
414,103.25,112.253,152.558,81.8521,98.6117,27.7449,0.176091,4.23744,15.8802,20.478,11.3439,0.0,0.0
417,104,114.953,157.361,63.5816,98.5076,32.9922,0.182894,4.35849,15.7545,19.8775,9.78496,0.0,0.0
420,104.75,117.812,161.387,99.3548,98.3929,31.4423,0.189799,4.49609,15.5972,19.337,10.205,0.0,0.0
423,105.5,120.118,165.615,83.3482,98.254,28.4646,0.198014,4.62521,15.4206,18.7164,11.0823,0.0,0.0
426,106.25,122.577,169.639,80.8438,98.2611,29.2195,0.204003,4.76859,15.2653,18.3161,10.8488,0.0,0.0
429,107,126.013,175.12,86.734,98.3347,32.3174,0.213825,4.94635,15.0997,17.5254,9.95413,0.0,0.0
432,107.75,129.28,180.391,74.6445,98.3941,28.1776,0.223762,5.14287,14.9182,17.075,11.1857,0.0,0.0
435,108.5,131.558,185.585,65.5219,98.4673,29.294,0.233428,5.31467,14.7203,16.4244,10.8448,0.0,0.0
438,109.25,135.606,191.07,66.2775,98.5409,31.4918,0.242588,5.54866,14.4795,15.8239,10.2043,0.0,0.0
441,110,137.898,196.288,78.8067,98.6283,29.0468,0.25152,5.71924,14.2455,15.0732,10.9352,0.0,0.0
444,110.75,140.933,201.006,80.1348,98.7067,28.7536,0.259254,5.92218,14.0499,14.5528,11.0331,0.0,0.0
447,111.5,143.961,207.153,80.7805,98.7894,28.8308,0.265413,6.08935,13.9057,13.9723,11.0166,0.0,0.0
450,112.25,147.216,212.327,77.2687,98.8511,32.9231,0.270295,6.22001,13.7978,13.2817,9.83487,0.0,0.0
453,113,149.003,216.876,70.2107,98.9212,31.8739,0.274526,6.31629,13.7222,12.7712,10.1309,0.0,0.0
456,113.75,152.508,220.07,74.8873,98.9718,29.0244,0.276844,6.36925,13.6672,12.0606,10.9732,0.0,0.0
459,114.5,155.01,224.952,78.5349,99.0074,28.3692,0.277224,6.40786,13.627,11.5101,11.1807,0.0,0.0
462,115.25,157.745,228.037,72.2837,99.0324,30.1857,0.27423,6.36407,13.6201,10.9396,10.6278,0.0,0.0
465,116,159.225,231.291,84.7159,99.0383,33.2716,0.270228,6.29459,13.6534,10.4592,9.75761,0.0,0.0
468,116.75,161.582,233.256,85.9891,99.0347,33.761,0.264197,6.17973,13.8132,9.7886,9.62665,0.0,0.0
471,117.5,162.329,235.582,81.7147,99.0031,31.576,0.256119,6.02453,13.9759,9.34821,10.2223,0.0,0.0
474,118.25,163.76,237.022,82.1353,98.9619,33.6304,0.245689,5.88091,14.2094,8.90782,9.65473,0.0,0.0
477,119,164.709,238.295,88.7399,98.8883,31.812,0.235289,5.68789,14.4414,8.25725,10.1453,0.0,0.0
480,119.75,165.77,239.258,79.4707,98.8211,34.8025,0.225094,5.51875,14.6898,7.91695,9.33554,0.0,0.0
483,120.5,166.547,240.073,82.5826,98.73,38.2006,0.215667,5.34683,14.8709,7.43653,8.49394,0.0,0.0
486,121.25,167.481,240.603,87.0699,98.6208,34.8211,0.205384,5.15871,15.0864,6.95611,9.31263,0.0,0.0
489,122,168.598,241.018,83.5855,98.5069,34.0075,0.19385,4.97248,15.3004,6.42564,9.51377,0.0,0.0
492,122.75,168.445,241.177,88.3598,98.3739,35.9754,0.182652,4.78056,15.4807,6.08534,8.99848,0.0,0.0
495,123.5,169.049,240.797,92.4464,98.2469,36.0998,0.173299,4.58041,15.7093,5.70501,8.95604,0.0,0.0
498,124.25,168.841,240.107,92.8196,98.106,37.2672,0.162137,4.35881,15.974,5.37472,8.6585,0.0,0.0
501,125,169.112,239.083,104.5,97.96,38.0843,0.152618,4.16499,16.2473,5.0044,8.45117,0.0,0.0
504,125.75,168.129,237.896,96.8642,97.8547,39.3862,0.142121,3.93786,16.5123,4.6641,8.14087,0.0,0.0
507,126.5,167.875,236.19,102.332,97.7004,39.7841,0.132428,3.70275,16.82,4.3238,8.03684,0.0,0.0
510,127.25,166.986,234.519,103.149,97.5793,41.4472,0.12166,3.50171,17.1046,4.06357,7.6594,0.0,0.0
513,128,166.19,232.757,110.229,97.4681,41.1976,0.115331,3.25717,17.2781,3.77331,7.70323,0.0,0.0
516,128.75,165.474,230.433,112.499,97.3696,41.3931,0.106,3.01982,17.5167,3.54311,7.65184,0.0,0.0
519,129.5,163.967,228.019,114.721,97.2869,43.4591,0.0973103,2.8216,17.7559,3.27287,7.20854,0.0,0.0
522,130.25,162.531,225.245,114.064,97.2224,44.0765,0.0892181,2.52722,18.0132,3.03266,7.07643,0.0,0.0
525,131,161.169,222.208,117.687,97.163,44.5872,0.0811068,2.38657,18.2802,2.88253,6.96792,0.0,0.0
528,131.75,159.911,219.155,121.176,97.142,44.3059,0.073545,2.18052,18.5087,2.68236,7.02259,0.0,0.0
531,132.5,157.884,216.222,131.98,97.1294,48.1536,0.0673295,1.97523,18.7428,2.56225,6.27647,0.0,0.0
534,133.25,156.33,213.033,121.842,97.1381,46.9321,0.0607589,1.79458,18.966,2.36207,6.50712,0.0,0.0
537,134,154.858,210.072,124.56,97.1749,50.7636,0.0550403,1.64968,19.1288,2.25198,5.8085,0.0,0.0
540,134.75,152.559,207.267,126.392,97.2196,53.3712,0.0492836,1.50102,19.2474,2.10185,5.36452,0.0,0.0
543,135.5,150.861,204.441,129.637,97.2873,57.5326,0.045087,1.36957,19.3785,1.99175,4.69912,0.0,0.0
546,136.25,149.249,200.994,126.951,97.368,57.5184,0.0401623,1.26389,19.5019,1.86164,4.70877,0.0,0.0
549,137,147.443,198.185,129.606,97.444,60.0982,0.0358947,1.156,19.6159,1.76155,4.32326,0.0,0.0
552,137.75,146.311,194.875,131.603,97.5528,59.4206,0.0324947,1.07734,19.7197,1.69149,4.43468,0.0,0.0
555,138.5,143.617,191.752,131.521,97.6509,61.8065,0.029151,0.991291,19.8274,1.58139,4.09152,0.0,0.0
558,139.25,142.668,189.651,129.492,97.7558,62.52,0.0262243,0.910262,19.9309,1.52134,3.99844,0.0,0.0
561,140,140.926,186.56,130.048,97.8472,66.3469,0.0236575,0.840837,20.0254,1.43126,3.47536,0.0,0.0
564,140.75,139.184,183.954,131.696,97.9529,66.9951,0.0214019,0.778242,20.1129,1.3712,3.39804,0.0,0.0
567,141.5,138.175,180.455,136.506,98.0379,67.2779,0.0192252,0.722589,20.1833,1.31115,3.36812,0.0,0.0
570,142.25,135.386,178.254,132.36,98.1357,69.4254,0.0174114,0.673617,20.2459,1.23108,3.09596,0.0,0.0
573,143,134.703,175.728,134.701,98.2116,71.0414,0.015589,0.625859,20.3025,1.18104,2.89706,0.0,0.0
576,143.75,133.669,172.901,137.805,98.2694,72.1323,0.0139293,0.586133,20.3533,1.08095,2.76599,0.0,0.0
579,144.5,131.784,170.238,136.482,98.3375,75.5648,0.0125781,0.548776,20.399,1.07094,2.35634,0.0,0.0
582,145.25,129.542,167.744,136.843,98.3759,76.4433,0.0111334,0.512439,20.4453,1.04091,2.25643,0.0,0.0
585,146,127.56,165.284,140.105,98.3873,79.0876,0.00983758,0.478141,20.4898,0.960844,1.95327,0.0,0.0
588,146.75,125.728,162.604,141.843,98.3929,82.3504,0.00869711,0.446423,20.5313,0.950835,1.59214,0.0,0.0
591,147.5,125.617,160.17,140.701,98.3961,85.0705,0.00770777,0.415978,20.5739,0.930818,1.30173,0.0,0.0
594,148.25,124.167,158.148,139.979,98.3711,87.541,0.00698654,0.385962,20.605,0.9108,1.04339,0.0,0.0
597,149,122.094,155.996,139.286,98.3292,89.4502,0.00625655,0.356041,20.6418,0.920809,0.846579,0.0,0.0
600,149.75,121.057,153.853,141.988,98.2718,91.5537,0.00569655,0.327458,20.6733,0.9108,0.633436,0.0,0.0
603,150.5,118.553,150.643,137.818,98.2259,92.0323,0.00527707,0.303735,20.704,0.920809,0.582612,0.0,0.0
606,151.25,118.085,148.812,140.834,98.1535,93.5749,0.00497236,0.275183,20.737,0.920809,0.427323,0.0,0.0
609,152,116.623,146.588,139.465,98.089,92.9479,0.00476576,0.250802,20.7688,0.900791,0.481583,0.0,0.0
612,152.75,115.397,144.201,142.246,98.0344,93.5011,0.00467291,0.226928,20.7874,0.880774,0.423518,0.0,0.0
615,153.5,113.677,142.37,145.131,97.9992,93.8426,0.00460753,0.20439,20.8144,0.890782,0.387691,0.0,0.0
618,154.25,112.651,140.27,142.752,97.9358,93.4895,0.00460349,0.186513,20.8385,0.890782,0.415632,0.0,0.0
621,155,111.035,137.826,144.662,97.8971,92.4546,0.00465233,0.17001,20.856,0.83073,0.511667,0.0,0.0
624,155.75,109.023,135.968,143.258,97.844,93.5104,0.00477647,0.16038,20.871,0.820721,0.405247,0.0,0.0
627,156.5,108.187,133.46,147.217,97.8353,92.7029,0.00495586,0.147738,20.8841,0.83073,0.482023,0.0,0.0
630,157.25,106.351,131.987,147.803,97.9782,93.7831,0.00518364,0.137145,20.8942,0.820721,0.391449,0.0,0.0
633,158,106.449,129.762,141.321,98.1452,93.1785,0.00545079,0.128175,20.9023,0.83073,0.464538,0.0,0.0
636,158.75,104.665,128.075,146.76,98.2932,93.3083,0.00564554,0.121043,20.9093,0.83073,0.465563,0.0,0.0
639,159.5,103.483,126.136,143.242,98.4166,93.979,0.00610237,0.114831,20.9155,0.790694,0.412728,0.0,0.0
642,160.25,102.044,124.459,147.069,98.5235,94.0184,0.00656232,0.109453,20.9202,0.790694,0.418684,0.0,0.0
645,161,100.935,122.373,146.379,98.6042,94.611,0.00704811,0.105533,20.9245,0.770677,0.369804,0.0,0.0
648,161.75,99.9673,121.237,147.886,98.6541,93.9863,0.00744334,0.10177,20.9284,0.760668,0.433584,0.0,0.0
651,162.5,99.3365,119.4,146.347,98.6948,93.9114,0.00783803,0.09887,20.9312,0.810712,0.444415,0.0,0.0
654,163.25,98.2383,117.987,145.269,98.7245,94.1698,0.00821106,0.0964891,20.9333,0.83073,0.42252,0.0,0.0
657,164,96.9742,116.411,148.323,98.7146,94.3293,0.00855119,0.0944457,20.9354,0.800703,0.406482,0.0,0.0
660,164.75,95.7983,114.901,142.346,98.6746,94.3672,0.00891453,0.0928851,20.937,0.810712,0.39927,0.0,0.0
663,165.5,94.9201,113.649,145.872,98.6268,94.2057,0.00925423,0.0916262,20.9381,0.790694,0.410247,0.0,0.0
666,166.25,93.9704,112.036,151.337,98.5753,94.5009,0.00953378,0.0905737,20.9389,0.800703,0.377599,0.0,0.0
669,167,92.8467,110.441,146.394,98.4827,94.4881,0.00984272,0.0897348,20.9395,0.790694,0.370399,0.0,0.0
672,167.75,92.3175,109.306,145.268,98.3593,94.0968,0.0101105,0.089099,20.9399,0.810712,0.396302,0.0,0.0
675,168.5,90.8876,107.763,143.932,98.2382,95.0919,0.0103238,0.0887316,20.9403,0.820721,0.291176,0.0,0.0
678,169.25,90.4909,106.656,138.676,98.2259,93.8565,0.0105187,0.0885311,20.9401,0.790694,0.407039,0.0,0.0
681,170,89.4378,105.348,140.488,98.2651,94.3313,0.0106646,0.0884917,20.9397,0.790694,0.365469,0.0,0.0
684,170.75,89.0697,103.993,149.967,98.3102,94.2374,0.0107778,0.0885963,20.9395,0.780686,0.378481,0.0,0.0
687,171.5,88.269,102.56,144.77,98.3866,94.0624,0.0108711,0.0888344,20.9393,0.750659,0.402055,0.0,0.0
690,172.25,87.8925,101.953,144.645,98.4578,94.6318,0.0109491,0.0890769,20.939,0.750659,0.354539,0.0,0.0
693,173,87.0155,100.273,145.703,98.5152,93.9886,0.0110155,0.089523,20.9383,0.780686,0.420761,0.0,0.0
696,173.75,85.564,99.2068,144.975,98.5812,95.2476,0.011073,0.0899477,20.9372,0.780686,0.307729,0.0,0.0
699,174.5,85.5765,98.2567,148.845,98.6426,93.9755,0.0111148,0.0904272,20.9364,0.750659,0.433574,0.0,0.0
702,175.25,84.9521,97.746,143.339,98.7225,94.0937,0.0111454,0.0909116,20.9358,0.770677,0.429573,0.0,0.0
705,176,83.2392,95.3746,151.029,98.7957,95.8043,0.0111372,0.0913457,20.9354,0.770677,0.27504,0.0,0.0
708,176.75,82.6817,94.6382,147.724,98.8278,94.1775,0.0111161,0.0917678,20.9351,0.750659,0.43114,0.0,0.0
711,177.5,82.6827,94.4772,144.615,98.8804,94.4406,0.0110749,0.0921971,20.9349,0.740651,0.410949,0.0,0.0
714,178.25,82.3543,93.1179,146.452,98.9303,94.2281,0.0109966,0.0927412,20.9349,0.740651,0.435606,0.0,0.0
717,179,81.7079,91.9025,147.25,98.9647,95.0525,0.0108969,0.0931379,20.935,0.750659,0.360797,0.0,0.0
720,179.75,80.6742,91.3145,148.259,98.99,94.5982,0.0108062,0.0936391,20.935,0.770677,0.405943,0.0,0.0
723,180.5,80.2007,90.4131,144.819,98.9912,94.9969,0.0106759,0.0941001,20.935,0.720633,0.368429,0.0,0.0
726,181.25,79.5625,89.2892,145.902,98.9967,95.9967,0.0105809,0.0945197,20.9351,0.700615,0.275277,0.0,0.0
729,182,78.882,88.982,148.256,99.0094,95.2924,0.0104476,0.0948986,20.9344,0.720633,0.342289,0.0,0.0
732,182.75,78.4945,87.8262,148.718,98.9904,93.8607,0.0103504,0.0953484,20.9335,0.680598,0.475989,0.0,0.0
735,183.5,78.167,86.9909,144.819,98.9568,94.5353,0.0102475,0.0956763,20.9323,0.690607,0.408894,0.0,0.0
738,184.25,77.1574,86.2116,146.567,98.9322,93.9461,0.0101638,0.0960371,20.9314,0.710624,0.462597,0.0,0.0
741,185,76.7423,85.7753,147.583,98.8919,94.0941,0.0100997,0.0963521,20.9308,0.700615,0.444871,0.0,0.0
744,185.75,75.7605,84.7582,148.755,98.8456,94.8428,0.010058,0.0968134,20.9303,0.710624,0.369787,0.0,0.0
747,186.5,75.8799,83.7089,142.404,98.7724,94.752,0.0100344,0.0971995,20.93,0.700615,0.371726,0.0,0.0
750,187.25,75.3075,83.306,147.94,98.7134,95.0606,0.0100256,0.0975664,20.9298,0.710624,0.337291,0.0,0.0
753,188,74.4502,81.8755,142.759,98.6481,94.4638,0.0100196,0.0978338,20.929,0.700615,0.387715,0.0,0.0
756,188.75,74.3956,81.2,145.779,98.5666,94.1064,0.0100171,0.0980829,20.9284,0.680598,0.414223,0.0,0.0
759,189.5,73.5988,80.7974,145.338,98.4799,94.1814,0.0100152,0.0983303,20.928,0.680598,0.399233,0.0,0.0
762,190.25,73.2223,80.2915,146.008,98.3937,93.9272,0.00999428,0.0985081,20.9276,0.66058,0.41557,0.0,0.0
765,191,73.0637,79.4829,148.975,98.3145,94.1567,0.00996906,0.0987206,20.9274,0.66058,0.386545,0.0,0.0
768,191.75,72.4804,79.2412,145.983,98.2477,95.2874,0.00994905,0.0988877,20.9272,0.66058,0.27367,0.0,0.0
771,192.5,71.5587,78.4394,149.586,98.197,93.5374,0.00993894,0.0989322,20.9271,0.640563,0.434872,0.0,0.0
774,193.25,71.2404,77.7323,145.248,98.1535,94.616,0.00994935,0.0989647,20.9266,0.630554,0.328346,0.0,0.0
777,194,71.496,77.1271,145.171,98.2401,94.13,0.00996193,0.0991236,20.926,0.640563,0.382306,0.0,0.0
780,194.75,70.7224,76.5661,145.949,98.2061,93.7282,0.00997191,0.0993072,20.9256,0.650571,0.417469,0.0,0.0
783,195.5,70.3371,75.9783,142.722,98.1317,93.3647,0.00997694,0.09947,20.9253,0.640563,0.445452,0.0,0.0
786,196.25,69.4609,75.3736,148.249,98.0656,94.6635,0.00997864,0.0995886,20.9251,0.630554,0.315844,0.0,0.0
789,197,69.4889,74.6302,147.222,98.0015,93.3172,0.00997652,0.0996751,20.9249,0.630554,0.43813,0.0,0.0
792,197.75,68.8062,74.1207,147.089,97.9248,93.6684,0.00997992,0.0997788,20.9248,0.630554,0.397521,0.0,0.0
795,198.5,68.3254,73.8351,147.366,97.8547,93.2612,0.00998714,0.0998717,20.9247,0.620545,0.430091,0.0,0.0
798,199.25,68.3358,73.3777,141.972,97.7803,93.8897,0.00999689,0.100113,20.9244,0.620545,0.363202,0.0,0.0
801,200,67.2753,71.6648,146.959,97.7214,93.5065,0.0100004,0.10034,20.9242,0.590519,0.394394,0.0,0.0
804,200.75,66.6991,71.517,146.391,97.6636,93.4694,0.00999451,0.10059,20.9241,0.58051,0.392652,0.0,0.0
807,201.5,67.1342,71.6501,147.207,97.5912,94.205,0.00997559,0.10081,20.924,0.570501,0.315898,0.0,0.0
810,202.25,66.7933,71.5,144.662,97.5413,93.8437,0.00993871,0.100991,20.9239,0.570501,0.345692,0.0,0.0
813,203,66.9733,70.454,148.596,97.4934,92.9962,0.00991182,0.101174,20.9238,0.550483,0.422459,0.0,0.0
816,203.75,66.1837,70.4171,149.62,97.4511,93.9044,0.0098906,0.101332,20.9238,0.540475,0.331634,0.0,0.0
819,204.5,65.2099,69.3819,140.153,97.4052,94.1536,0.00985949,0.101488,20.9237,0.530466,0.303714,0.0,0.0
822,205.25,65.6892,69.6575,144.959,97.3522,93.5069,0.00983275,0.101619,20.9238,0.520457,0.360497,0.0,0.0
825,206,65.7615,69.4042,144.603,97.3146,93.0128,0.00981326,0.101657,20.9236,0.520457,0.404434,0.0,0.0
828,206.75,65.1952,68.4876,146.039,97.2861,92.8517,0.00980036,0.101684,20.923,0.540475,0.417321,0.0,0.0
831,207.5,64.9319,67.8034,146.418,97.2706,92.8946,0.0097932,0.101731,20.9226,0.510448,0.411772,0.0,0.0
834,208.25,63.9038,67.1041,146.885,97.2279,94.2938,0.00977815,0.101777,20.9223,0.520457,0.274105,0.0,0.0
837,209,64.167,67.4527,143.163,97.2002,94.0609,0.00975037,0.101907,20.9221,0.510448,0.293682,0.0,0.0
840,209.75,63.52,66.5773,144.982,97.2018,93.9013,0.00969112,0.102043,20.9221,0.520457,0.309015,0.0,0.0
843,210.5,63.2683,66.5502,144.877,97.1828,94.1006,0.00963484,0.102145,20.9222,0.510448,0.288297,0.0,0.0
846,211.25,62.988,65.9723,145.689,97.1753,93.7588,0.00957144,0.102195,20.9223,0.510448,0.320164,0.0,0.0
849,212,63.055,65.4695,148.661,97.1598,93.9921,0.00953019,0.102245,20.9223,0.510448,0.29651,0.0,0.0
852,212.75,62.0385,64.7925,148.118,97.1587,93.6854,0.00950223,0.102289,20.9224,0.470413,0.32564,0.0,0.0
855,213.5,62.7987,65.064,146.719,97.1634,93.3435,0.00951023,0.102301,20.9224,0.480422,0.358781,0.0,0.0
858,214.25,61.5083,64.9135,146.707,97.1741,93.8136,0.00954445,0.102289,20.9224,0.470413,0.314823,0.0,0.0
861,215,61.892,64.2635,143.877,97.1685,93.6912,0.00958682,0.102243,20.9224,0.50044,0.325997,0.0,0.0
864,215.75,62.1486,64.0473,146.228,97.1856,93.3898,0.0096317,0.102196,20.9224,0.480422,0.35638,0.0,0.0
867,216.5,61.6248,63.7058,147.231,97.2057,93.9855,0.00967561,0.102185,20.9224,0.470413,0.301359,0.0,0.0
870,217.25,61.4094,63.8312,147.562,97.2093,93.2793,0.00971615,0.102225,20.9224,0.470413,0.369155,0.0,0.0
873,218,61.0809,63.105,144.697,97.2319,94.2216,0.00976356,0.102293,20.9224,0.480422,0.281325,0.0,0.0
876,218.75,60.9001,63.1783,148.591,97.2493,93.5613,0.00980372,0.102329,20.9224,0.480422,0.345829,0.0,0.0
879,219.5,61.0331,62.3318,143.469,97.2718,93.7588,0.009819,0.10235,20.9224,0.480422,0.329048,0.0,0.0
882,220.25,60.3571,62.4316,149.736,97.3039,92.827,0.00982993,0.102249,20.9224,0.460404,0.421341,0.0,0.0
885,221,60.2267,61.7019,146.176,97.3193,93.4505,0.00981479,0.102135,20.9224,0.460404,0.362875,0.0,0.0
888,221.75,59.7402,61.8636,144.132,97.3419,94.2741,0.00979656,0.102034,20.9224,0.460404,0.286455,0.0,0.0
891,222.5,59.9304,61.5748,145.073,97.4024,93.9909,0.00977093,0.101996,20.9224,0.460404,0.318925,0.0,0.0
894,223.25,59.68,60.8308,146.973,97.4242,94.2405,0.00973805,0.101884,20.9224,0.450396,0.297204,0.0,0.0
897,224,59.3985,60.8124,144.997,97.4396,93.4142,0.00971408,0.101753,20.9224,0.430378,0.377402,0.0,0.0
900,224.75,59.3101,60.8299,152.931,97.4831,94.7952,0.00968064,0.10162,20.9224,0.440387,0.250114,0.0,0.0
903,225.5,58.9565,60.356,145.444,97.5191,94.0976,0.00966621,0.101523,20.9224,0.450396,0.319498,0.0,0.0
906,226.25,58.331,60.1806,144.407,97.5508,92.9483,0.00965994,0.101453,20.9224,0.450396,0.43233,0.0,0.0
909,227,58.2907,59.8625,148.781,97.5864,94.137,0.00969442,0.101401,20.9224,0.440387,0.321921,0.0,0.0
912,227.75,58.42,59.5229,145.551,97.6165,94.0388,0.00971957,0.101364,20.9224,0.430378,0.334006,0.0,0.0
915,228.5,58.2913,59.4118,146.546,97.6608,94.0836,0.00978409,0.101279,20.9221,0.41036,0.333805,0.0,0.0
918,229.25,58.2502,58.8767,148.175,97.6929,94.8273,0.00984557,0.101216,20.9218,0.400352,0.266313,0.0,0.0
921,230,57.7992,58.9935,146.492,97.7241,94.7454,0.00991508,0.101171,20.9216,0.380334,0.276904,0.0,0.0
924,230.75,57.9607,58.5417,145.562,97.7463,94.3966,0.0100262,0.101074,20.9212,0.370325,0.311929,0.0,0.0
927,231.5,57.6605,58.5431,145.563,97.8021,94.3819,0.0101072,0.100879,20.9209,0.370325,0.318424,0.0,0.0
930,232.25,57.3363,58.672,145.408,97.8492,94.0879,0.0102626,0.100712,20.9207,0.380334,0.350638,0.0,0.0
933,233,57.2032,58.0815,144.353,97.8705,94.0786,0.0103817,0.100536,20.9205,0.380334,0.353473,0.0,0.0
936,233.75,57.6891,58.0024,146.269,97.8864,93.8689,0.0104787,0.100383,20.921,0.370325,0.374887,0.0,0.0
939,234.5,56.9024,57.3865,145.849,97.9311,94.5484,0.0105102,0.100259,20.9214,0.370325,0.314449,0.0,0.0
942,235.25,56.9707,57.6108,157.052,97.9758,93.7626,0.0104781,0.100162,20.9217,0.370325,0.393186,0.0,0.0
945,236,56.6069,57.5031,144.914,98.0067,94.4812,0.0104005,0.100073,20.9218,0.340299,0.327712,0.0,0.0
948,236.75,56.0062,57.069,151.301,98.0292,93.9793,0.0102911,0.0999935,20.922,0.320281,0.377411,0.0,0.0
951,237.5,56.051,56.5044,144.352,98.07,94.5932,0.0101687,0.0998874,20.9225,0.340299,0.322888,0.0,0.0
954,238.25,56.1101,56.5355,147.089,98.0997,94.5244,0.0100769,0.0997369,20.9231,0.350308,0.332101,0.0,0.0
957,239,55.0942,55.9599,149.295,98.1214,95.1283,0.0100054,0.0995885,20.9235,0.340299,0.277125,0.0,0.0
960,239.75,55.3989,56.0952,144.312,98.1396,95.34,0.00997679,0.0994875,20.9237,0.340299,0.2589,0.0,0.0
963,240.5,55.8524,56.5296,149.247,98.165,95.131,0.00995679,0.099426,20.924,0.350308,0.280838,0.0,0.0
966,241.25,55.1737,56.1662,149.831,98.2041,95.7788,0.00996191,0.0993619,20.9242,0.33029,0.223694,0.0,0.0
969,242,55.5212,55.8304,146.772,98.2251,95.569,0.00996783,0.0993223,20.9245,0.33029,0.245218,0.0,0.0
972,242.75,55.4128,56.18,151.238,98.2417,94.7636,0.00997215,0.0993105,20.9252,0.320281,0.322443,0.0,0.0
975,243.5,55.039,54.8181,146.514,98.2595,95.1762,0.00993619,0.0991388,20.9256,0.310273,0.285203,0.0,0.0
978,244.25,55.1816,55.1286,148.664,98.2975,96.0214,0.00988632,0.0990323,20.926,0.320281,0.209568,0.0,0.0
981,245,55.0115,54.7316,145.479,98.3122,94.8049,0.00983988,0.0988817,20.9262,0.300264,0.324955,0.0,0.0
984,245.75,54.4375,55.0622,143.513,98.3165,95.3083,0.00979607,0.0987139,20.9264,0.33029,0.27798,0.0,0.0
987,246.5,54.6208,55.1702,147.095,98.3367,95.3759,0.00976316,0.0985489,20.9266,0.310273,0.273473,0.0,0.0
990,247.25,53.4623,54.4097,148.865,98.3593,95.4539,0.00974477,0.0983555,20.9267,0.310273,0.268208,0.0,0.0
993,248,54.0724,54.2654,147.282,98.3885,94.6241,0.00974257,0.0981604,20.9267,0.300264,0.348976,0.0,0.0
996,248.75,54.1429,54.2991,142.64,98.3798,94.7056,0.00975321,0.0979951,20.9268,0.290255,0.340481,0.0,0.0
999,249.5,53.8667,54.076,147.645,98.3949,95.1974,0.00976547,0.0979324,20.9268,0.280246,0.295518,0.0,0.0
1002,250.25,53.8374,54.0511,150.416,98.4079,95.5246,0.00977664,0.0979153,20.9268,0.270237,0.266012,0.0,0.0
1005,251,53.4375,53.4626,150.054,98.4146,95.1422,0.00978479,0.0979515,20.9269,0.270237,0.302509,0.0,0.0
1008,251.75,53.126,52.8651,145.603,98.417,95.4446,0.00978362,0.0978621,20.9276,0.25022,0.27433,0.0,0.0
1011,252.5,53.7856,52.9157,147.888,98.4119,95.8526,0.00978277,0.0976616,20.9284,0.25022,0.23571,0.0,0.0
1014,253.25,53.4104,53.5136,148.687,98.434,95.2712,0.0097715,0.0974577,20.9295,0.230202,0.292149,0.0,0.0
1017,254,53.5005,53.1938,148.891,98.4471,96.1427,0.00976197,0.097255,20.9304,0.220193,0.211876,0.0,0.0
1020,254.75,53.2338,53.0554,145.89,98.4467,95.2047,0.00975278,0.0970841,20.9311,0.230202,0.29954,0.0,0.0
1023,255.5,53.0926,53.3609,146.202,98.4336,94.7918,0.00976384,0.0969595,20.9316,0.220193,0.33724,0.0,0.0
1026,256.25,53.4261,52.9307,147.939,98.4447,95.3013,0.0097837,0.0968687,20.932,0.220193,0.29029,0.0,0.0
1029,257,52.9553,52.9582,149.931,98.4511,94.716,0.00981836,0.0967832,20.9323,0.230202,0.34597,0.0,0.0
1032,257.75,52.7407,52.5327,148.226,98.44,95.2808,0.0098473,0.0966939,20.9324,0.230202,0.291781,0.0,0.0
1035,258.5,52.637,51.985,145.129,98.4404,96.123,0.00988197,0.0966172,20.9326,0.230202,0.213098,0.0,0.0
1038,259.25,52.2461,52.28,147.089,98.4281,96.1358,0.00990777,0.0965034,20.9327,0.200176,0.210797,0.0,0.0
1041,260,52.444,52.3098,151.184,98.4368,96.5035,0.00990914,0.0964062,20.9328,0.220193,0.177433,0.0,0.0
1044,260.75,51.9643,51.9953,144.677,98.434,95.6896,0.00988763,0.0963394,20.9328,0.240211,0.252951,0.0,0.0
1047,261.5,52.4919,51.9623,144.666,98.4083,94.932,0.00984616,0.0962237,20.9329,0.230202,0.321715,0.0,0.0
1050,262.25,52.4943,51.9115,147.591,98.4119,96.269,0.00979853,0.0960853,20.9332,0.210185,0.196929,0.0,0.0
1053,263,52.3366,51.9678,149.745,98.4079,95.4779,0.00975378,0.0959614,20.934,0.200176,0.27039,0.0,0.0
1056,263.75,51.8601,51.7849,147.35,98.3949,95.8143,0.00971667,0.0958517,20.9346,0.180158,0.237733,0.0,0.0
1059,264.5,52.2272,51.1735,150.404,98.3782,96.5951,,0.095758,,0.180158,0.163626,0.0,0.0
1062,265.25,51.8848,51.7461,145.564,98.3648,95.5914,,0.0956663,,0.160141,0.255833,0.0,0.0
1065,266,51.6106,51.4969,143.404,98.3593,95.1719,,0.0955609,,0.160141,0.294676,0.0,0.0
1068,266.75,51.8131,51.6552,145.348,98.3502,95.7166,,0.095511,,0.180158,0.242796,0.0,0.0
1071,267.5,51.454,51.7271,147.558,98.3331,95.7143,,,,0.170149,0.241465,0.0,0.0
1074,268.25,52.0429,51.06,149.569,98.3094,96.3027,,,,0.180158,0.184487,0.0,0.0
1077,269,51.5088,50.9435,150.738,98.3035,96.0863,,,,0.160141,0.204064,0.0,0.0
1080,269.75,51.8002,50.5455,148.386,98.2892,96.2976,,,,0.170149,0.183116,0.0,0.0
1083,270.5,50.8557,50.7967,145.393,98.2805,95.2132,,,,0.170149,0.283627,0.0,0.0
1086,271.25,50.8797,50.8502,145.113,98.2857,95.9256,,,,0.160141,0.217417,0.0,0.0
1089,272,51.1539,50.8498,148.114,98.2595,95.9866,,,,0.150132,0.209349,0.0,0.0
1092,272.75,50.1228,51.0738,147.488,98.2441,96.3529,,,,0.140123,0.17388,0.0,0.0
1095,273.5,50.6503,50.6916,143.877,98.2346,96.1926,,,,0.140123,0.187911,0.0,0.0
1098,274.25,50.5118,50.3095,145.499,98.2057,95.5111,,,,0.150132,0.248877,0.0,0.0
1100,274.75,50.332,50.4811,148.141,98.2144,96.084,,,,0.150132,0.196174,0.0,0.0