File: 01_Data/PETG/Cone/PETG_Cone_HF50Scan_220215_R3.csv
Names,Time,Stack TC,Smoke TC,Exh Press,Smoke Comp,Smoke Meas,CO Meter,CO2 Meter,O2 Meter,Sample Mass,Ext Coeff,Start Test,Flame Verif
Chan Gain,,500,500,1,1,1,1,1,1,1,1,1.0,1.0
Offset,,0,0,0.140898,0,0,0,0,0,0,0,0.0,0.0
Gain,,1,1,25.011,12.9668,12.6588,1,1,1,1.00088,1.01977,1.0,1.0
Units,sec,C,C,Pa,%,%,%,%,%,g,/m,,
Baseline,,33.4012,34.4143,153.711,97.9056,99.7984,-0.00101251,0.067362,20.9687,-872.131,-0.171238,,
3,0.5,30.8283,31.0821,148.468,98.438,100.719,-0.000995443,0.0762521,20.9583,34.9507,-0.204919,0.0,0.0
6,1.25,31.6115,32.2465,151.263,98.4348,100.903,-0.00102604,0.0764291,20.9581,35.301,-0.221558,0.0,0.0
9,2,30.3108,31.7354,156.352,98.4463,100.541,-0.00104799,0.0764495,20.9578,35.1809,-0.188366,0.0,0.0
12,2.75,30.4721,31.685,159.06,98.4467,100.966,-0.00106079,0.0763497,20.9577,35.1809,-0.226059,0.0,0.0
15,3.5,30.6017,31.6993,154.643,98.442,100.779,-0.00106775,0.0761698,20.9576,35.2009,-0.20991,0.0,0.0
18,4.25,31.2121,31.8395,154.652,98.4293,100.788,-0.00107181,0.0759647,20.9574,35.1609,-0.211815,0.0,0.0
21,5,30.963,32.2027,151.921,98.438,101.064,-0.00108542,0.075767,20.9571,35.2209,-0.235506,0.0,0.0
24,5.75,30.8013,32.3457,153.754,98.4392,100.702,-0.00110238,0.0755684,20.9576,35.1609,-0.203335,0.0,0.0
27,6.5,30.9772,31.9588,153.019,98.4329,100.261,-0.001119,0.0754004,20.9579,35.2309,-0.164601,0.0,0.0
30,7.25,30.8007,31.8245,153.076,98.4198,100.75,-0.0011345,0.0751251,20.9581,35.1809,-0.209283,0.0,0.0
33,8,31.0819,31.9404,152.861,98.417,100.486,-0.00114241,0.0748399,20.9583,35.2109,-0.186112,0.0,0.0
36,8.75,31.409,31.9703,160.943,98.4111,100.183,-0.00114227,0.0744874,20.9584,35.1909,-0.159649,0.0,0.0
39,9.5,31.0357,31.9873,156.088,98.4028,100.68,-0.00113528,0.0740968,20.9589,35.1709,-0.204654,0.0,0.0
42,10.25,30.8898,32.0096,156.204,98.3925,100.451,-0.00112272,0.0737185,20.9597,35.1709,-0.185245,0.0,0.0
45,11,31.1542,32.3817,152.502,98.3913,100.516,-0.00110983,0.0733605,20.9607,35.1609,-0.191097,0.0,0.0
48,11.75,30.395,32.4949,151.599,98.3775,100.624,-0.00109405,0.0730272,20.9614,35.1609,-0.201943,0.0,0.0
51,12.5,31.0818,31.5171,151.725,98.3751,100.426,-0.00108254,0.0726317,20.9619,35.1409,-0.184557,0.0,0.0
54,13.25,31.3421,32.1494,154.418,98.3426,100.904,-0.00107664,0.0723012,20.9623,35.1108,-0.230009,0.0,0.0
57,14,31.6257,32.5033,151.69,98.3319,100.921,-0.0010766,0.071988,20.9625,35.1208,-0.232488,0.0,0.0
60,14.75,30.9539,32.1816,157.671,98.3359,100.329,-0.00108367,0.0716661,20.9627,35.1409,-0.179514,0.0,0.0
63,15.5,30.8939,32.2087,153.596,98.3224,100.459,-0.00109311,0.0713493,20.9629,35.1409,-0.192304,0.0,0.0
66,16.25,31.023,32.4891,152.975,98.2987,99.9078,-0.00110211,0.0710462,20.963,35.1709,-0.145242,0.0,0.0
69,17,31.1769,32.3009,153.075,98.2857,100.336,-0.00111491,0.0707718,20.9631,35.1809,-0.184707,0.0,0.0
72,17.75,31.3452,32.325,152.911,98.2773,100.238,-0.00112891,0.070549,20.9631,35.1909,-0.176712,0.0,0.0
75,18.5,31.2503,32.1312,152.038,98.2631,100.948,-0.00115381,0.0703294,20.9638,35.2109,-0.241116,0.0,0.0
78,19.25,30.9487,31.5567,153.35,98.2318,100.922,-0.00116872,0.070196,20.9642,35.2009,-0.241702,0.0,0.0
81,20,31.2445,32.1719,155.813,98.2239,100.537,-0.00118356,0.0701102,20.9646,35.2109,-0.208185,0.0,0.0
84,20.75,31.3712,32.504,150.649,98.2037,100.082,-0.00119276,0.0700663,20.9649,35.2009,-0.169439,0.0,0.0
87,21.5,31.3397,32.069,155.796,98.1899,100.155,-0.00119839,0.0702197,20.9652,35.1909,-0.177224,0.0,0.0
90,22.25,31.4051,31.6963,153.821,98.1669,100.495,-0.00122276,0.0703245,20.9653,35.1909,-0.209697,0.0,0.0
93,23,30.6869,32.8148,156.584,98.1523,100.494,-0.00126302,0.0705089,20.9654,35.2009,-0.210894,0.0,0.0
96,23.75,31.4168,32.7969,152.995,98.1428,100.697,-0.00130195,0.0707195,20.9655,35.1609,-0.229829,0.0,0.0
99,24.5,31.9333,32.5333,152.457,98.138,100.14,-0.00135059,0.0708731,20.9656,35.1709,-0.180637,0.0,0.0
102,25.25,30.3459,32.6034,151.117,98.1198,100.543,-0.00138605,0.070964,20.9656,35.1909,-0.218252,0.0,0.0
105,26,31.2737,32.8863,152.248,98.0997,99.7849,-0.00139652,0.0709941,20.9657,35.1809,-0.152366,0.0,0.0
108,26.75,31.5768,32.1545,151.47,98.0981,100.087,-0.00137391,0.0709626,20.9657,35.1709,-0.179518,0.0,0.0
111,27.5,31.4589,32.5675,154.53,98.0826,100.215,-0.00134734,0.0709168,20.9657,35.1709,-0.192381,0.0,0.0
114,28.25,31.0891,32.3417,154.87,98.0747,99.8865,-0.00128576,0.0708453,20.9657,35.1709,-0.163744,0.0,0.0
117,29,31.0606,32.4246,151.757,98.0466,100.321,-0.00121364,0.0707791,20.9657,35.1609,-0.205143,0.0,0.0
120,29.75,31.9934,32.5454,152.48,98.0518,99.4237,-0.00114199,0.0707068,20.9657,35.1609,-0.124294,0.0,0.0
123,30.5,31.3863,32.8698,158.473,98.049,100.616,-0.00107697,0.070616,20.966,35.1509,-0.231172,0.0,0.0
126,31.25,31.9853,32.7426,151.506,98.0423,99.8023,-0.00103632,0.0705287,20.9665,35.1609,-0.159159,0.0,0.0
129,32,31.3193,33.1358,152.811,98.0067,100.049,-0.00100669,0.0704289,20.9669,35.1409,-0.184507,0.0,0.0
132,32.75,31.3214,32.5307,150.971,97.9976,99.715,-0.0010121,0.0702418,20.9672,35.1609,-0.15541,0.0,0.0
135,33.5,31.7391,32.798,154.414,98.0003,99.958,-0.00102906,0.0700119,20.9675,35.1609,-0.17693,0.0,0.0
138,34.25,31.5006,32.7352,152.511,97.9889,100.157,-0.00104698,0.0698045,20.9676,35.1709,-0.195799,0.0,0.0
141,35,31.3538,32.6575,152.395,97.9687,99.6945,-0.00107071,0.0695008,20.9677,35.1509,-0.156211,0.0,0.0
144,35.75,31.5668,33.1236,155.857,97.9588,99.6269,-0.00109255,0.0692373,20.968,35.1309,-0.151047,0.0,0.0
147,36.5,32.1673,33.0489,151.212,97.9695,99.9039,-0.00110172,0.0689731,20.9687,35.1208,-0.174906,0.0,0.0
150,37.25,31.9606,33.1632,152.945,97.9639,99.5925,-0.00108815,0.0687003,20.97,35.1008,-0.147489,0.0,0.0
153,38,31.595,32.7785,151.577,97.9501,99.134,-0.00105694,0.0684674,20.9709,35.1108,-0.107471,0.0,0.0
156,38.75,31.2768,33.5114,154.221,97.9402,99.1336,-0.00102511,0.0682036,20.9716,35.1309,-0.108339,0.0,0.0
159,39.5,31.3316,33.3458,153.462,97.9422,99.4844,-0.000971131,0.0679312,20.9721,35.1409,-0.139755,0.0,0.0
162,40.25,31.0967,33.0469,152.325,97.9532,99.3163,-0.000918658,0.0676774,20.9729,35.1509,-0.123621,0.0,0.0
165,41,32.0468,33.0709,155.427,97.9374,99.5551,-0.00087106,0.0674563,20.9736,35.1309,-0.146543,0.0,0.0
168,41.75,31.4822,33.0286,150.505,97.9303,99.5516,-0.000820381,0.0672418,20.9739,35.1409,-0.146882,0.0,0.0
171,42.5,31.68,32.652,152.631,97.9406,99.0992,-0.000780059,0.0670627,20.9742,35.1409,-0.105201,0.0,0.0
174,43.25,32.3021,33.0757,153.54,97.9485,97.8012,-0.000751911,0.0669321,20.9744,35.1509,0.0134645,0.0,0.0
177,44,32.1622,33.1083,149.838,97.954,99.2742,-0.000733521,0.0668369,20.9745,35.1309,-0.119755,0.0,0.0
180,44.75,31.5203,33.4443,153.137,97.9382,98.6542,-0.00071505,0.0668208,20.9746,35.1309,-0.065155,0.0,0.0
183,45.5,31.8053,32.9166,154.142,97.9497,98.6851,-0.00069847,0.0668319,20.9747,35.1208,-0.0669093,0.0,0.0
186,46.25,31.6999,33.652,156.801,97.9604,98.6067,-0.000681055,0.0669733,20.9747,35.1208,-0.0588218,0.0,0.0
189,47,31.5755,33.4185,152.016,97.9461,98.8508,-0.000668983,0.0672231,20.9748,35.1108,-0.0822435,0.0,0.0
192,47.75,31.8455,33.255,151.644,97.9346,98.8952,-0.000661248,0.0674679,20.9742,35.1208,-0.0873118,0.0,0.0
195,48.5,31.9483,33.4791,152.628,97.956,97.2673,-0.000654425,0.0677987,20.9738,35.1208,0.0631169,0.0,0.0
198,49.25,31.853,33.9202,152.721,97.9671,98.3679,-0.000645209,0.0680399,20.9734,35.1008,-0.0365224,0.0,0.0
201,50,31.8273,33.2024,153.34,97.9675,96.9304,-0.000632098,0.0682919,20.9732,35.1108,0.0951992,0.0,0.0
204,50.75,32.1463,32.983,153.782,97.9572,97.4682,-0.000607152,0.0685037,20.973,35.1008,0.0447701,0.0,0.0
207,51.5,31.8319,33.1665,152.876,97.9671,97.963,-0.000575553,0.0687062,20.9729,35.0908,0.000371088,0.0,0.0
210,52.25,30.8638,33.2348,154.034,97.9944,97.6803,-0.000535814,0.0687777,20.9728,35.0908,0.0287223,0.0,0.0
213,53,31.7888,34.1856,152.577,98.0007,97.226,-0.000509528,0.0688086,20.9728,35.1008,0.071002,0.0,0.0
216,53.75,32.0682,33.7816,151.202,98.0237,96.9915,-0.00047916,0.0687952,20.9727,35.0808,0.094698,0.0,0.0
219,54.5,32.0392,33.3391,153.563,98.0059,96.9582,-0.000426631,0.0687663,20.9727,35.0808,0.0961371,0.0,0.0
222,55.25,32.3272,33.378,154.382,98.0253,96.7546,-0.000365282,0.0687185,20.9727,35.0708,0.11671,0.0,0.0
225,56,31.664,33.0434,154.897,98.0308,96.6743,-0.000281136,0.0686861,20.9727,35.0608,0.124646,0.0,0.0
228,56.75,31.4801,33.08,151.732,98.0209,96.9733,-0.000128566,0.069106,20.972,35.0508,0.0961191,0.0,0.0
231,57.5,32.3153,33.9234,152.428,98.0379,96.3305,5.7425e-05,0.070788,20.9691,35.0007,0.157168,0.0,1.0
234,58.25,31.7263,33.4252,151.214,98.0546,96.9582,0.000285638,0.0743667,20.963,35.0107,0.100578,0.0,1.0
237,59,31.7243,33.4951,146.798,98.0549,96.721,0.000555889,0.083292,20.945,35.0208,0.122525,0.0,1.0
240,59.75,32.0418,33.6518,148.71,98.0617,93.4713,0.000939329,0.0924912,20.9188,34.9607,0.428855,0.0,1.0
243,60.5,32.1658,33.5519,141.882,98.0739,86.4991,0.00129833,0.112881,20.8942,34.9107,1.12343,0.0,1.0
246,61.25,33.0222,34.6996,141.367,98.1009,82.9264,0.00203735,0.137132,20.8637,34.8806,1.50319,0.0,1.0
249,62,32.378,34.3011,145.499,98.1242,80.9099,0.00296912,0.164766,20.8222,34.8106,1.72554,0.0,1.0
252,62.75,33.0718,34.8427,142.083,98.1139,80.9299,0.00380548,0.195091,20.7861,34.7205,1.72238,0.0,1.0
255,63.5,33.548,35.6993,137.447,98.1246,76.7743,0.0044213,0.229357,20.7601,34.6304,2.1949,0.0,0.0
258,64.25,33.1318,35.6983,142.539,98.1274,74.2834,0.0053793,0.265987,20.7204,34.5704,2.4902,0.0,0.0
261,65,34.4062,37.0633,135.406,98.1752,68.0482,0.00649925,0.303747,20.6692,34.4402,3.2788,0.0,0.0
264,65.75,34.9627,38.251,136.141,98.1626,68.9174,0.00769059,0.343525,20.6251,34.4002,3.16411,0.0,0.0
267,66.5,35.4915,38.6576,134.046,98.1701,68.8738,0.0087189,0.363855,20.5812,34.2601,3.17046,0.0,0.0
270,67.25,36.4054,39.7505,131.339,98.1887,65.1338,0.0100338,0.402491,20.5336,34.17,3.67159,0.0,0.0
273,68,37.4251,40.7747,128.878,98.2144,63.6407,0.0109924,0.442844,20.4922,34.0499,3.88138,0.0,0.0
276,68.75,38.1871,41.6223,127.619,98.2275,62.2055,0.0123153,0.48206,20.443,33.9298,4.08661,0.0,0.0
279,69.5,38.2898,42.8288,136.685,98.2405,64.8352,0.0135525,0.526201,20.3912,33.8197,3.71742,0.0,0.0
282,70.25,39.4841,44.1358,130.848,98.2397,60.7449,0.0147133,0.558379,20.3402,33.6896,4.30028,0.0,0.0
285,71,40.3823,44.9817,131.251,98.2754,61.9637,0.0158032,0.599653,20.2838,33.5995,4.12581,0.0,0.0
288,71.75,41.2633,46.0905,125.109,98.2841,62.4111,0.0169512,0.635108,20.2267,33.3993,4.06225,0.0,0.0
291,72.5,41.9534,47.9772,127.37,98.2924,59.9128,0.0180769,0.670131,20.1722,33.2892,4.42845,0.0,0.0
294,73.25,43.4257,48.7658,124.413,98.2975,59.9305,0.0190207,0.707731,20.1224,33.1491,4.42627,0.0,0.0
297,74,43.9621,50.8752,125.466,98.3248,63.9324,0.02008,0.739385,20.0757,33.029,3.85053,0.0,0.0
300,74.75,45.2632,51.5693,120.924,98.3391,57.5663,0.0208522,0.769721,20.0372,32.8889,4.79009,0.0,0.0
303,75.5,46.0632,53.1833,132.962,98.3486,55.8692,0.0220406,0.801437,19.9961,32.7688,5.05864,0.0,0.0
306,76.25,46.9687,54.4474,118.094,98.3656,53.5292,0.0232823,0.831719,19.9609,32.5586,5.4429,0.0,0.0
309,77,48.1665,55.7397,131.16,98.3818,57.4079,0.0243476,0.856848,19.9263,32.4085,4.81862,0.0,0.0
312,77.75,49.1073,57.1108,118.86,98.3909,54.6496,0.0258108,0.893682,19.8869,32.2583,5.25992,0.0,0.0
315,78.5,50.1384,58.5875,119.535,98.4032,53.9248,0.027421,0.928024,19.8407,32.0381,5.38046,0.0,0.0
318,79.25,51.0862,60.1899,114.781,98.4004,53.5169,0.029202,0.96587,19.7876,31.848,5.44814,0.0,0.0
321,80,52.4888,61.5467,114.962,98.4111,49.9357,0.0311425,1.01033,19.716,31.6478,6.06867,0.0,0.0
324,80.75,53.6324,63.5684,121.776,98.4297,51.3265,0.0338044,1.06146,19.6344,31.4376,5.82463,0.0,0.0
327,81.5,55.0618,64.7691,114.765,98.4348,47.879,0.035745,1.11842,19.5623,31.2174,6.44707,0.0,0.0
330,82.25,56.4068,67.2026,120.766,98.4329,47.6113,0.0395007,1.18743,19.4768,31.0273,6.49705,0.0,0.0
333,83,57.0266,68.9791,123.216,98.4352,43.0809,0.0436276,1.26442,19.4004,30.737,7.3917,0.0,0.0
336,83.75,59.4893,71.2274,109.955,98.4491,41.5762,0.0479939,1.34613,19.2921,30.4367,7.71098,0.0,0.0
339,84.5,61.3469,73.6788,110.454,98.4677,42.3168,0.0524862,1.44436,19.1606,30.1865,7.55474,0.0,0.0
342,85.25,62.1421,76.4008,95.6934,98.4491,38.5007,0.0579801,1.53247,19.0001,29.8062,8.39844,0.0,0.0
345,86,64.8262,79.3149,109.506,98.4396,38.3443,0.0638149,1.66352,18.8555,29.576,8.434,0.0,0.0
348,86.75,66.7063,82.5516,99.928,98.4598,37.2116,0.0688484,1.79958,18.723,29.1656,8.70406,0.0,0.0
351,87.5,69.0857,85.3248,97.8763,98.4629,36.3053,0.0725179,1.93612,18.5799,28.7953,8.92491,0.0,0.0
354,88.25,71.0751,89.1798,99.3968,98.4629,33.9221,0.0812439,2.06998,18.4348,28.425,9.53227,0.0,0.0
357,89,73.5006,92.8258,86.418,98.455,34.7674,0.0876052,2.22516,18.3116,28.0346,9.31138,0.0,0.0
360,89.75,76.0714,96.5803,90.0016,98.4606,32.4951,0.0971683,2.33829,18.1727,27.5742,9.91652,0.0,0.0
363,90.5,78.7387,100.893,82.7681,98.4629,32.6801,0.106683,2.49986,18.0174,27.2239,9.86594,0.0,0.0
366,91.25,81.0995,104.106,81.5949,98.4538,32.3421,0.116095,2.65136,17.8475,26.7035,9.95812,0.0,0.0
369,92,84.4437,109.596,86.3967,98.4329,30.2316,0.125334,2.86062,17.5904,26.3431,10.5598,0.0,0.0
372,92.75,87.2903,113.657,77.429,98.4293,30.135,0.135391,3.04656,17.318,25.7526,10.5881,0.0,0.0
375,93.5,90.4756,118.496,88.1972,98.417,31.4323,0.14529,3.23918,17.0506,25.3022,10.21,0.0,0.0
378,94.25,93.7565,123.65,81.0049,98.3992,30.1594,0.154733,3.45671,16.8002,24.8718,10.5782,0.0,0.0
381,95,96.0615,127.886,96.1284,98.3877,30.0624,0.163553,3.66568,16.5365,24.4214,10.606,0.0,0.0
384,95.75,99.4279,132.536,81.4476,98.3668,30.1076,0.171256,3.8395,16.3443,23.8509,10.5906,0.0,0.0
387,96.5,103.255,137.98,74.1896,98.3569,31.238,0.179049,4.0223,16.1422,23.4006,10.26,0.0,0.0
390,97.25,106.454,143.239,82.1246,98.3375,28.2958,0.187038,4.18353,15.9658,22.8501,11.1431,0.0,0.0
393,98,109.279,148.06,72.8753,98.3205,30.3479,0.192862,4.3254,15.8248,22.2896,10.5153,0.0,0.0
396,98.75,112.261,152.517,76.3237,98.3046,28.3468,0.200543,4.45003,15.6916,21.7791,11.124,0.0,0.0
399,99.5,114.475,156.244,71.9227,98.307,32.4951,0.209216,4.58352,15.5665,21.1586,9.90255,0.0,0.0
402,100.25,118.411,161.548,72.1799,98.2868,33.4469,0.216924,4.69902,15.4271,20.548,9.64244,0.0,0.0
405,101,120.98,167.06,74.9163,98.2611,28.9452,0.224913,4.87154,15.2382,20.1077,10.9332,0.0,0.0
408,101.75,124.353,172.89,67.1217,98.2318,33.1487,0.233668,5.04037,15.0024,19.407,9.71756,0.0,0.0
411,102.5,127.473,178.08,78.0793,98.2283,33.2036,0.24112,5.2371,14.7886,18.9767,9.70244,0.0,0.0
414,103.25,131.249,183.533,60.9987,98.201,31.2473,0.248381,5.46605,14.5517,18.2761,10.2432,0.0,0.0
417,104,134.469,190.263,73.0126,98.1851,29.014,0.255217,5.65422,14.3615,17.6955,10.9051,0.0,0.0
420,104.75,137.949,195.385,75.0636,98.1519,31.2272,0.260559,5.80045,14.2155,17.025,10.2444,0.0,0.0
423,105.5,140.547,199.985,78.5731,98.138,27.2748,0.265066,5.91192,14.1066,16.4845,11.4537,0.0,0.0
426,106.25,143.187,204.094,62.1932,98.1171,28.3151,0.268387,5.99831,14.0272,15.8339,11.117,0.0,0.0
429,107,145.578,208.355,87.0478,98.1107,30.4851,0.270202,6.06347,13.9693,15.3335,10.4559,0.0,0.0
432,107.75,148.526,212.399,70.1183,98.0728,30.3645,0.271267,6.10112,13.9271,14.5628,10.4878,0.0,0.0
435,108.5,150.535,216.194,75.6543,98.0585,28.04,0.269658,6.10553,13.9268,14.1324,11.1989,0.0,0.0
438,109.25,152.965,219.673,71.2464,98.051,32.6701,0.268486,6.08302,13.9395,13.4918,9.83118,0.0,0.0
441,110,155.086,222.507,81.0392,98.0348,32.9953,0.267631,6.03943,13.9829,12.9914,9.74108,0.0,0.0
444,110.75,157.308,225.094,72.9539,98.0268,31.717,0.259737,5.95681,14.0291,12.4209,10.0938,0.0,0.0
447,111.5,159.121,227.9,81.3797,98.0197,28.8328,0.25096,5.89657,14.1236,12.0105,10.946,0.0,0.0
450,112.25,160.382,229.388,73.6866,98.0166,32.9231,0.241675,5.77929,14.2543,11.33,9.75902,0.0,0.0
453,113,161.467,231.532,84.5961,98.0613,32.4363,0.232171,5.66251,14.4165,10.8695,9.89635,0.0,0.0
456,113.75,162.07,232.667,87.7324,98.1602,34.1875,0.220802,5.51722,14.6043,10.5292,9.43501,0.0,0.0
459,114.5,163.876,233.361,98.5778,98.2417,37.1625,0.209612,5.30846,14.9159,10.0588,8.69603,0.0,0.0
462,115.25,163.842,233.7,83.0383,98.3304,34.2474,0.19884,5.06567,15.2048,9.68851,9.43485,0.0,0.0
465,116,164.441,233.882,94.7042,98.4261,36.9945,0.188631,4.83137,15.4723,9.15804,8.75335,0.0,0.0
468,116.75,164.659,233.503,89.0574,98.4993,36.8558,0.17933,4.61126,15.7197,8.83776,8.7936,0.0,0.0
471,117.5,165.061,233.53,93.2371,98.5654,40.3215,0.169371,4.40827,15.9496,8.4274,7.99567,0.0,0.0
474,118.25,165.317,232.44,95.1377,98.6343,39.1868,0.159314,4.19739,16.1383,8.04707,8.25724,0.0,0.0
477,119,164.901,232.124,99.8273,98.6968,39.3155,0.150803,4.01885,16.3385,7.71678,8.23359,0.0,0.0
480,119.75,165.435,230.82,96.0361,98.7478,40.1816,0.142582,3.84629,16.512,7.41651,8.04329,0.0,0.0
483,120.5,164.958,230.649,98.7862,98.7831,40.0336,0.134709,3.65828,16.6858,6.95611,8.07948,0.0,0.0
486,121.25,164.795,229.469,94.492,98.8207,40.9693,0.12834,3.50328,16.8782,6.65585,7.87622,0.0,0.0
489,122,164.705,228.096,94.5981,98.8555,42.8518,0.122618,3.35959,17.0593,6.3756,7.4775,0.0,0.0
492,122.75,164.02,227.467,96.4116,98.8563,44.423,0.116827,3.22157,17.2088,6.04531,7.15547,0.0,0.0
495,123.5,163.592,226.49,100.837,98.8515,39.4175,0.111637,3.09118,17.3784,5.83512,8.22443,0.0,0.0
498,124.25,163.592,224.681,105.757,98.8701,43.7013,0.106196,2.96947,17.5222,5.41476,7.30323,0.0,0.0
501,125,162.683,223.372,108.075,98.8618,40.612,0.100058,2.84805,17.6614,5.18455,7.95831,0.0,0.0
504,125.75,161.898,221.345,109.372,98.8389,46.4952,0.0940275,2.72502,17.8162,4.8943,6.74606,0.0,0.0
507,126.5,161.506,220.753,102.864,98.8064,47.799,0.0882137,2.60015,17.9785,4.60404,6.49573,0.0,0.0
510,127.25,160.146,218.327,116.361,98.7755,46.6976,0.0826848,2.46413,18.1452,4.4439,6.70146,0.0,0.0
513,128,158.897,215.58,114.932,98.7304,46.9004,0.0765654,2.32706,18.3336,4.17367,6.65861,0.0,0.0
516,128.75,157.299,213.83,117.537,98.6857,48.0961,0.0709164,2.19509,18.5057,3.97349,6.42937,0.0,0.0
519,129.5,157.321,211.33,120.855,98.5983,51.1206,0.0662919,2.05523,18.6651,3.76331,5.8759,0.0,0.0
522,130.25,155.579,209.343,117.311,98.5262,49.5448,0.0611712,1.92452,18.8119,3.56313,6.14944,0.0,0.0
525,131,154.037,206.266,116.972,98.4491,50.6218,0.0561781,1.79219,18.9467,3.413,5.95005,0.0,0.0
528,131.75,152.017,204.375,118.482,98.3284,53.6223,0.0530098,1.68515,19.0156,3.20281,5.42398,0.0,0.0
531,132.5,151.693,201.618,117.863,98.347,55.7749,0.0493493,1.56333,19.1374,3.09272,5.0736,0.0,0.0
534,133.25,149.903,199.225,123.39,98.387,58.1766,0.0435339,1.47453,19.3049,2.94258,4.7001,0.0,0.0
537,134,148.618,196.853,129.501,98.4396,62.0286,0.0406526,1.35771,19.3738,2.8425,4.13138,0.0,0.0
540,134.75,146.625,194.771,127.397,98.4641,60.9539,0.0373237,1.298,19.4911,2.72239,4.28996,0.0,0.0
543,135.5,144.962,191.292,128.782,98.5013,65.9339,0.0338137,1.21003,19.6092,2.68236,3.59081,0.0,0.0
546,136.25,143.713,188.687,128.345,98.5484,69.2612,0.0303877,1.07696,19.7414,2.51221,3.15468,0.0,0.0
549,137,141.979,186.377,129.271,98.62,67.9821,0.0278901,1.01463,19.8514,2.45215,3.32793,0.0,0.0
552,137.75,140.393,183.108,135.904,98.6541,72.0589,0.025056,0.926011,19.952,2.3921,2.81004,0.0,0.0
555,138.5,139.082,180.811,131.959,98.7019,72.3062,0.022562,0.847014,20.0435,2.30202,2.78374,0.0,0.0
558,139.25,136.903,177.572,136.212,98.7755,72.1092,0.0205614,0.776914,20.1261,2.24197,2.81482,0.0,0.0
561,140,135.49,175.469,135.913,98.8377,74.8802,0.0184719,0.713442,20.1986,2.20193,2.48313,0.0,0.0
564,140.75,134.18,172.468,136.616,98.8911,75.2009,0.0167672,0.655808,20.2652,2.17191,2.44974,0.0,0.0
567,141.5,132.661,169.923,133.688,98.9315,77.795,0.0152141,0.603381,20.3287,2.15189,2.15002,0.0,0.0
570,142.25,130.863,167.785,138.46,98.9801,78.8434,0.0137309,0.557171,20.3854,2.06181,2.03466,0.0,0.0
573,143,129.31,165.258,141.328,99.0363,84.039,0.0124795,0.515114,20.4371,2.01177,1.46887,0.0,0.0
576,143.75,127.558,163.013,137.098,99.0684,83.5712,0.0114947,0.475969,20.4849,1.97173,1.5217,0.0,0.0
579,144.5,126.367,159.985,138.432,99.07,85.7152,0.0105974,0.438121,20.5311,1.94171,1.29524,0.0,0.0
582,145.25,124.83,157.612,137.277,99.0929,88.0486,0.00982866,0.402562,20.5696,1.94171,1.05706,0.0,0.0
585,146,122.989,155.638,138.031,99.119,92.4302,0.00920277,0.369805,20.6119,1.96172,0.624989,0.0,0.0
588,146.75,121.641,153.142,141.617,99.1238,94.7288,0.00872017,0.336753,20.6509,1.94171,0.405682,0.0,0.0
591,147.5,119.72,151.276,142.813,99.1056,94.5863,0.00837081,0.308749,20.6878,1.91168,0.417511,0.0,0.0
594,148.25,119.213,148.845,143.11,99.0897,94.662,0.00813143,0.278144,20.7228,1.92169,0.408924,0.0,0.0
597,149,117.251,146.298,138.924,99.0771,94.1103,0.0079813,0.25099,20.7558,1.90167,0.460064,0.0,0.0
600,149.75,115.851,143.942,144.674,99.0351,95.0753,0.00796152,0.227448,20.7837,1.9317,0.365017,0.0,0.0
603,150.5,114.557,141.795,141.467,98.9876,95.5184,0.00794709,0.207408,20.8058,1.9317,0.319132,0.0,0.0
606,151.25,113.7,139.969,142.784,98.9338,94.5523,0.00810723,0.189133,20.8237,1.9317,0.405211,0.0,0.0
609,152,111.713,137.731,144.025,98.8737,94.5206,0.00837842,0.173602,20.8398,1.92169,0.402769,0.0,0.0
612,152.75,110.334,135.843,145.262,98.8021,96.3227,0.00871581,0.161339,20.855,1.90167,0.227337,0.0,0.0
615,153.5,109.117,133.948,145.892,98.732,95.1089,0.00912173,0.150275,20.8681,1.90167,0.334434,0.0,0.0
618,154.25,108.439,132.174,142.824,98.6454,94.1856,0.00948635,0.141304,20.8787,1.89166,0.413842,0.0,0.0
621,155,106.321,129.728,147.571,98.5575,94.6276,0.00978144,0.133209,20.889,1.91168,0.363996,0.0,0.0
624,155.75,104.698,128.177,141.012,98.4819,94.4854,0.0100679,0.126258,20.8973,1.9317,0.370583,0.0,0.0
627,156.5,104.056,125.95,139.469,98.3688,95.6274,0.0103335,0.12053,20.9028,1.90167,0.252832,0.0,0.0
630,157.25,102.486,124.787,144.69,98.2694,94.2795,0.0105722,0.115463,20.9075,1.90167,0.370775,0.0,0.0
633,158,101.739,122.314,144.759,98.1685,95.2994,0.0107899,0.11177,20.9109,1.92169,0.265339,0.0,0.0
636,158.75,100.033,121.221,146.014,98.0755,94.3823,0.0110232,0.108169,20.9139,1.92169,0.343363,0.0,0.0
639,159.5,98.8613,119.704,142.843,97.9608,94.7879,0.0112865,0.105354,20.9166,1.91168,0.294528,0.0,0.0
642,160.25,98.0611,117.627,146.166,97.831,93.9925,0.0115063,0.10315,20.919,1.89166,0.358051,0.0,0.0
645,161,96.7938,116.587,140.655,97.7388,93.7788,0.0117142,0.101422,20.9211,1.90167,0.36997,0.0,0.0
648,161.75,96.1191,114.84,144.025,97.6509,93.8426,0.0118981,0.100094,20.9227,1.90167,0.355849,0.0,0.0
651,162.5,95.0323,113.335,146.927,97.5476,94.3031,0.0120355,0.099083,20.9238,1.88165,0.302595,0.0,0.0
654,163.25,94.4126,111.956,140.546,97.4416,93.3288,0.0121413,0.0983217,20.9246,1.87164,0.385763,0.0,0.0
657,164,93.5363,110.956,146.017,97.37,95.1031,0.0122202,0.0977937,20.9252,1.88165,0.210714,0.0,0.0
660,164.75,92.265,109.013,143.413,97.3185,93.1495,0.0122778,0.0974204,20.9257,1.88165,0.391655,0.0,0.0
663,165.5,90.5812,107.257,141.946,97.2473,93.8839,0.012327,0.0973412,20.926,1.87164,0.314858,0.0,0.0
666,166.25,90.2601,107.057,141.404,97.2148,93.9268,0.0123603,0.0973476,20.9262,1.87164,0.307788,0.0,0.0
669,167,89.9371,105.426,141.661,97.1832,94.9332,0.0123835,0.0974618,20.9264,1.86164,0.209542,0.0,0.0
672,167.75,89.3013,104.41,146.008,97.1777,93.6595,0.0123734,0.097661,20.9259,1.84162,0.329861,0.0,0.0
675,168.5,88.6338,103.011,143.864,97.1685,93.2268,0.0123355,0.097849,20.9255,1.85163,0.370443,0.0,0.0
678,169.25,87.372,102.124,144.054,97.1808,93.7421,0.0122902,0.0980591,20.9252,1.81159,0.32226,0.0,0.0
681,170,86.9113,100.941,143.002,97.201,93.7035,0.0122497,0.0982529,20.9251,1.8216,0.327805,0.0,0.0
684,170.75,85.8974,99.673,146.49,97.2382,94.3997,0.0122094,0.0984186,20.9249,1.83161,0.265016,0.0,0.0
687,171.5,84.8272,98.4599,145.75,97.2944,92.8273,0.01218,0.0985517,20.9248,1.80158,0.42043,0.0,0.0
690,172.25,84.6219,97.4447,147.929,97.3407,93.7723,0.0121801,0.0985907,20.9247,1.81159,0.334089,0.0,0.0
693,173,83.7979,96.6419,145.609,97.4044,94.8428,0.0121948,0.0986191,20.9247,1.83161,0.238403,0.0,0.0
696,173.75,82.8644,95.3048,145.357,97.4776,94.3904,0.0122464,0.0986398,20.9246,1.81159,0.287892,0.0,0.0
699,174.5,82.6246,94.6705,146.553,97.5591,94.6233,0.0123113,0.0988175,20.924,1.80158,0.27332,0.0,0.0
702,175.25,81.6069,93.2542,145.238,97.6446,95.5072,0.0124,0.0990163,20.9235,1.80158,0.197982,0.0,0.0
705,176,81.1582,91.9852,144.65,97.7241,94.3228,0.0124709,0.0993159,20.9232,1.81159,0.316896,0.0,0.0
708,176.75,80.7183,91.5249,148.517,97.8029,94.7357,0.0125167,0.0995885,20.9229,1.79157,0.285022,0.0,0.0
711,177.5,80.3731,90.9622,139.489,97.9188,94.3606,0.0125353,0.0998032,20.9227,1.78156,0.331109,0.0,0.0
714,178.25,79.2465,89.1854,145.867,98.0031,94.339,0.0125489,0.0999475,20.9226,1.74153,0.340857,0.0,0.0
717,179,78.5627,88.8205,144.59,98.0807,95.0529,0.0125033,0.100091,20.9226,1.76155,0.280495,0.0,0.0
720,179.75,77.6517,88.0942,150.985,98.1685,94.7771,0.0124377,0.10025,20.9226,1.79157,0.3145,0.0,0.0
723,180.5,77.357,87.0478,146.388,98.25,94.5005,0.0123752,0.10039,20.9226,1.75154,0.348069,0.0,0.0
726,181.25,76.6743,86.3505,144.427,98.3126,94.4974,0.0123258,0.100541,20.9226,1.74153,0.354053,0.0,0.0
729,182,76.7396,85.5374,140.708,98.3545,94.7415,0.0122915,0.100737,20.9226,1.72151,0.334785,0.0,0.0
732,182.75,75.8135,84.8551,145.664,98.3949,94.6971,0.0122722,0.100974,20.9224,1.72151,0.342652,0.0,0.0
735,183.5,74.8893,84.0309,140.832,98.4487,94.8938,0.0122492,0.101245,20.9222,1.73152,0.328988,0.0,0.0
738,184.25,75.443,82.9762,141.649,98.4499,94.9625,0.0122201,0.10154,20.9221,1.74153,0.322616,0.0,0.0
741,185,74.3958,82.5298,145.41,98.4538,95.3121,0.0121842,0.101822,20.922,1.72151,0.290103,0.0,0.0
744,185.75,73.7829,81.5773,144.319,98.4507,96.0515,0.0121507,0.102049,20.9219,1.73152,0.220687,0.0,0.0
747,186.5,73.5356,81.0804,142.871,98.4526,94.5704,0.0121138,0.102202,20.9219,1.72151,0.35988,0.0,0.0
750,187.25,72.7803,80.5653,145.324,98.423,95.1317,0.0120923,0.102178,20.9218,1.69149,0.304245,0.0,0.0
753,188,72.4088,79.171,144.218,98.383,95.3983,0.0120739,0.102103,20.9216,1.72151,0.275582,0.0,0.0
756,188.75,71.7231,79.1202,146.899,98.3304,93.9187,0.0120614,0.102087,20.9212,1.7115,0.410622,0.0,0.0
759,189.5,71.1867,78.299,143.625,98.292,95.1877,0.0120146,0.102132,20.9207,1.70149,0.287067,0.0,0.0
762,190.25,71.0113,77.7189,145.375,98.2409,95.078,0.0119465,0.102263,20.9204,1.70149,0.292737,0.0,0.0
765,191,70.767,77.4759,145.437,98.1935,95.3311,0.0118599,0.102494,20.9201,1.7115,0.264637,0.0,0.0
768,191.75,70.2416,76.7247,146.607,98.1361,94.5194,0.0117583,0.102647,20.92,1.68148,0.335894,0.0,0.0
771,192.5,69.7885,75.8947,143.429,98.0854,93.5335,0.0116532,0.102849,20.9198,1.65145,0.425071,0.0,0.0
774,193.25,68.8476,74.7852,145.189,98.0486,94.5584,0.0115236,0.10296,20.9197,1.66146,0.324228,0.0,0.0
777,194,69.1401,75.0308,146.494,97.9928,94.5592,0.011414,0.10304,20.9197,1.66146,0.319063,0.0,0.0
780,194.75,68.838,74.2552,143.211,97.9552,94.0578,0.0113231,0.103099,20.9196,1.66146,0.363193,0.0,0.0
783,195.5,68.077,73.7657,146.843,97.9489,94.5422,0.0112489,0.103161,20.9196,1.63143,0.31666,0.0,0.0
786,196.25,67.9986,73.007,141.877,98.047,94.378,0.0111698,0.103185,20.9202,1.62142,0.341167,0.0,0.0
789,197,66.8092,72.5275,145.363,98.216,95.4481,0.0110934,0.103166,20.9206,1.62142,0.255714,0.0,0.0
792,197.75,66.1376,71.2638,149.513,98.3438,94.9699,0.0110237,0.103055,20.9209,1.62142,0.312283,0.0,0.0
795,198.5,66.7366,71.6692,143.453,98.4819,94.21,0.0109628,0.102974,20.9211,1.63143,0.396698,0.0,0.0
798,199.25,66.7288,71.1981,143.688,98.618,94.679,0.0109259,0.102937,20.9213,1.64144,0.364634,0.0,0.0
801,200,66.2282,71.2726,142.059,98.7015,96.213,0.0109121,0.102946,20.9214,1.62142,0.228427,0.0,0.0
804,200.75,65.3793,70.0444,149.007,98.768,95.343,0.0109189,0.102934,20.9215,1.58139,0.315704,0.0,0.0
807,201.5,64.5977,69.6487,145.208,98.7937,95.0479,0.010945,0.102918,20.9216,1.62142,0.345767,0.0,0.0
810,202.25,65.3303,69.5833,145.246,98.8345,95.2349,0.0110001,0.102893,20.9215,1.5914,0.331878,0.0,0.0
813,203,64.5682,69.19,148.117,98.8266,94.9104,0.0110548,0.102915,20.9215,1.5914,0.361693,0.0,0.0
816,203.75,64.5684,68.3951,144.635,98.7894,95.8881,0.0111195,0.10293,20.9214,1.56137,0.266642,0.0,0.0
819,204.5,64.6082,68.3337,145.183,98.7494,96.1404,0.0111757,0.102901,20.9216,1.56137,0.23952,0.0,0.0
822,205.25,64.0094,67.9907,141.572,98.6802,94.487,0.0112116,0.102862,20.9217,1.5914,0.388426,0.0,0.0
825,206,63.7031,67.554,143.439,98.5773,95.6614,0.0112356,0.102757,20.9219,1.58139,0.268596,0.0,0.0
828,206.75,63.4905,66.6755,143.277,98.4708,95.5478,0.0112469,0.102668,20.9219,1.58139,0.269558,0.0,0.0
831,207.5,63.0555,66.8043,148.559,98.3189,94.9668,0.0112537,0.102611,20.922,1.56137,0.310306,0.0,0.0
834,208.25,63.09,66.6113,144.025,98.3375,95.4949,0.011261,0.102594,20.9221,1.57138,0.262392,0.0,0.0
837,209,62.7221,66.1777,145.093,98.3818,95.9279,0.0112609,0.102609,20.9221,1.55136,0.225948,0.0,0.0
840,209.75,62.5995,65.973,142.894,98.4661,94.8551,0.0112508,0.102631,20.9221,1.53134,0.334212,0.0,0.0
843,210.5,62.3357,65.7109,143.616,98.4863,94.7976,0.0112339,0.102667,20.9221,1.51133,0.341475,0.0,0.0
846,211.25,62.0615,65.2461,140.771,98.5797,95.7888,0.0112126,0.102679,20.9221,1.50132,0.256899,0.0,0.0
849,212,61.6062,64.646,142.824,98.66,95.007,0.0111827,0.102682,20.9221,1.52134,0.337503,0.0,0.0
852,212.75,61.8241,64.0563,147.382,98.7364,95.7661,0.0111609,0.102588,20.9222,1.51133,0.273235,0.0,0.0
855,213.5,61.327,64.1893,145.325,98.806,95.4531,0.0111289,0.102506,20.9222,1.50132,0.30882,0.0,0.0
858,214.25,61.0949,63.818,146.319,98.878,95.5721,0.0111044,0.102447,20.9222,1.53134,0.304194,0.0,0.0
861,215,60.6502,63.5014,146.609,98.9445,95.2349,0.0110859,0.102416,20.9222,1.52134,0.341829,0.0,0.0
864,215.75,60.7055,63.0485,142.953,98.9845,94.8729,0.0110743,0.102375,20.9226,1.50132,0.379506,0.0,0.0
867,216.5,59.8116,63.2612,145.008,99.0363,95.4222,0.0110708,0.102344,20.9231,1.52134,0.332542,0.0,0.0
870,217.25,60.7961,62.9717,146.809,99.0731,95.2291,0.0110737,0.102187,20.9235,1.52134,0.353993,0.0,0.0
873,218,59.6593,61.9503,143.834,99.1012,95.6374,0.0110815,0.102086,20.9237,1.49131,0.318255,0.0,0.0
876,218.75,59.7433,61.8021,149.929,99.1028,96.5851,0.0110859,0.102037,20.9239,1.4813,0.230196,0.0,0.0
879,219.5,59.4341,61.9015,147.331,99.0802,95.8487,0.0110885,0.10206,20.9241,1.4813,0.296617,0.0,0.0
882,220.25,59.2412,61.3063,140.264,99.0593,96.2385,0.0110762,0.101981,20.9242,1.47129,0.258419,0.0,0.0
885,221,58.9529,61.2238,146.577,99.0324,95.3357,0.0110597,0.10184,20.9243,1.47129,0.340302,0.0,0.0
888,221.75,58.9002,60.4585,143.73,98.9651,95.5462,0.0110385,0.101665,20.9243,1.4813,0.314489,0.0,0.0
891,222.5,58.5462,60.4884,146.824,98.8887,95.5497,0.0110129,0.101564,20.9244,1.45127,0.307258,0.0,0.0
894,223.25,58.2541,60.771,144.206,98.7981,94.6291,0.0109855,0.101502,20.9244,1.43126,0.385661,0.0,0.0
897,224,57.7974,60.0958,145.46,98.7095,94.8142,0.0109617,0.101398,20.9244,1.43126,0.360156,0.0,0.0
900,224.75,58.2873,60.1473,152.619,98.5943,94.1088,0.0109398,0.101282,20.9244,1.44127,0.416516,0.0,0.0
903,225.5,57.7805,59.6174,143.624,98.4673,95.6034,0.010916,0.101173,20.9238,1.44127,0.264029,0.0,0.0
906,226.25,57.503,59.3695,142.029,98.3209,95.0738,0.0108936,0.101082,20.9233,1.45127,0.300413,0.0,0.0
909,227,57.1863,59.0766,146.338,98.1919,94.9471,0.0108751,0.101015,20.9229,1.44127,0.300597,0.0,0.0
912,227.75,57.2113,58.9133,143.93,98.0613,94.5812,0.0108581,0.100734,20.9231,1.44127,0.323228,0.0,0.0
915,228.5,56.7245,57.7116,150.767,97.9279,94.5194,0.0108482,0.100487,20.9234,1.42125,0.316901,0.0,0.0
918,229.25,56.765,58.2055,144.631,97.7831,93.8712,0.010842,0.100233,20.9236,1.43126,0.365222,0.0,0.0
921,230,56.6382,58.1935,150.575,97.6675,93.8271,0.0108414,0.100103,20.9238,1.42125,0.358844,0.0,0.0
924,230.75,56.7926,58.1698,146.048,97.5563,94.3321,0.0108419,0.10003,20.9239,1.42125,0.300644,0.0,0.0
927,231.5,56.6507,57.6867,142.591,97.4361,94.7516,0.0108434,0.100055,20.924,1.40123,0.249911,0.0,0.0
930,232.25,56.2287,56.9086,148.34,97.345,94.7744,0.0108457,0.1001,20.9241,1.40123,0.2394,0.0,0.0
933,233,56.6889,57.563,147.276,97.2873,95.0896,0.0108491,0.100131,20.9241,1.38121,0.204386,0.0,0.0
936,233.75,56.3326,57.1628,143.66,97.2441,94.677,0.0108516,0.100225,20.9241,1.40123,0.239315,0.0,0.0
939,234.5,55.6091,56.6162,145.82,97.2065,93.8217,0.0108481,0.100294,20.9242,1.38121,0.317036,0.0,0.0
942,235.25,55.5409,56.5583,139.717,97.2026,93.1913,0.0108456,0.10033,20.9242,1.3712,0.376986,0.0,0.0
945,236,55.3012,55.8694,145.104,97.2014,94.1033,0.0108419,0.100331,20.924,1.3612,0.289753,0.0,0.0
948,236.75,54.4733,55.4394,146.907,97.2433,93.2844,0.0108374,0.100255,20.9238,1.35119,0.371803,0.0,0.0
951,237.5,55.359,56.1292,142.484,97.2884,93.6069,0.0108354,0.1002,20.9237,1.33117,0.345073,0.0,0.0
954,238.25,55.5098,55.7852,143.401,97.3407,93.649,0.0108362,0.10013,20.9242,1.35119,0.345852,0.0,0.0
957,239,55.0664,55.8338,145.193,97.4258,95.0197,0.0108618,0.10002,20.9246,1.35119,0.223691,0.0,0.0
960,239.75,54.5997,55.7899,145.253,97.5176,94.9146,0.0108943,0.0998917,20.9249,1.3712,0.242014,0.0,0.0
963,240.5,54.1497,55.0408,145.878,97.6165,94.7319,0.0109238,0.0997207,20.9251,1.3612,0.268323,0.0,0.0
966,241.25,54.7096,55.5846,143.829,97.7142,95.4721,0.0109525,0.0996095,20.9253,1.3712,0.207653,0.0,0.0
969,242,54.5666,54.9776,144.773,97.7977,94.4282,0.0109646,0.09952,20.9254,1.38121,0.313634,0.0,0.0
972,242.75,54.1634,55.1167,144.741,97.9208,94.6662,0.0109697,0.0994304,20.9255,1.35119,0.302369,0.0,0.0
975,243.5,54.2578,54.7381,147.082,98.03,94.6287,0.0109555,0.0993245,20.9255,1.35119,0.315881,0.0,0.0
978,244.25,54.3338,54.6742,145.915,98.1139,95.4593,0.0109402,0.0992085,20.9256,1.34118,0.245361,0.0,0.0
981,245,54.0632,54.3373,143.962,98.2073,96.3359,0.0109269,0.0990874,20.9256,1.33117,0.172106,0.0,0.0
984,245.75,54.0639,54.6755,149.89,98.2876,93.9685,0.010919,0.0989585,20.9256,1.33117,0.401988,0.0,0.0
987,246.5,53.8265,54.3821,147.398,98.3517,95.4381,0.0109208,0.0988543,20.9256,1.34118,0.269009,0.0,0.0
990,247.25,53.5398,54.3918,146.49,98.3925,95.9028,0.0109252,0.0987906,20.9256,1.33117,0.229262,0.0,0.0
993,248,53.5924,53.6381,145.964,98.4392,96.5097,0.0109285,0.0989202,20.9257,1.32116,0.177075,0.0,0.0
996,248.75,53.4367,53.6918,143.784,98.4673,94.589,0.0109112,0.0991568,20.9256,1.32116,0.359457,0.0,0.0
999,249.5,53.7804,53.9189,148.89,98.4768,94.966,0.0108536,0.0992713,20.9255,1.32116,0.324732,0.0,0.0
1002,250.25,53.251,53.7125,146.042,98.4554,95.3836,0.0107924,0.0994037,20.9254,1.32116,0.283541,0.0,0.0
1005,251,53.4241,53.7691,148.828,98.4238,95.1174,0.0106533,0.0993456,20.9254,1.33117,0.305661,0.0,0.0
1008,251.75,53.3877,53.7267,142.09,98.3921,95.639,0.0104858,0.0992748,20.9253,1.33117,0.253871,0.0,0.0
1011,252.5,53.2738,54.0493,146.408,98.3367,94.684,0.010282,0.0991744,20.9255,1.31115,0.338602,0.0,0.0
1014,253.25,52.5557,53.0867,145.431,98.2651,95.1754,0.0100909,0.0990334,20.9261,1.28113,0.285779,0.0,0.0
1017,254,52.9567,53.2443,142.516,98.1828,95.0989,0.00991807,0.0988591,20.9265,1.27112,0.285476,0.0,0.0
1020,254.75,52.7837,53.1686,145.688,98.121,94.6631,0.00977701,0.0986589,20.9268,1.26111,0.320934,0.0,0.0
1023,255.5,52.9459,53.6876,141.247,98.0807,94.0836,0.00964845,0.0985322,20.927,1.27112,0.37218,0.0,0.0
1026,256.25,52.7559,52.8104,141.151,98.0229,94.6933,0.00952123,0.0984534,20.9271,1.26111,0.309135,0.0,0.0
1029,257,52.6057,52.5334,147.246,97.9655,94.8115,0.00940049,0.098359,20.9272,1.26111,0.292738,0.0,0.0
1032,257.75,52.3991,52.6779,145.47,97.9137,94.5302,0.00928902,0.0982171,20.9275,1.2511,0.314577,0.0,0.0
1035,258.5,52.6035,52.6256,145.017,97.9141,95.3492,0.00919184,0.098107,20.9278,1.26111,0.237446,0.0,0.0
1038,259.25,51.841,52.263,144.519,98.1293,94.344,0.00911852,0.0980155,20.9279,1.27112,0.351896,0.0,0.0
1041,260,52.2493,52.6653,143.564,98.2853,95.3164,0.00906792,0.0979101,20.9281,1.26111,0.274375,0.0,0.0
1044,260.75,52.2347,51.9205,144.687,98.4491,94.6593,0.00903774,0.097812,20.9282,1.23108,0.351156,0.0,0.0
1047,261.5,51.9338,52.0385,145.228,98.5757,94.9084,0.00902095,0.0977039,20.9284,1.24109,0.339138,0.0,0.0
1050,262.25,52.0636,52.1389,149.113,98.6897,95.1572,0.00901765,0.0975478,20.929,1.2511,0.326056,0.0,0.0
1053,263,51.2699,51.6625,151.208,98.7478,94.2699,0.00901878,0.0973569,20.9295,1.23108,0.415136,0.0,0.0
1056,263.75,51.7968,52.0182,151.27,98.7728,95.0896,,0.0971963,,1.24109,0.339943,0.0,0.0
1059,264.5,50.996,51.0344,145.471,98.7878,95.2832,,0.0970428,,1.21106,0.323116,0.0,0.0
1062,265.25,51.3023,51.4721,147.573,98.7633,95.8858,,0.0969443,,1.20105,0.264493,0.0,0.0
1065,266,51.0557,50.4151,145.492,98.6913,96.8872,,0.096914,,1.21106,0.165036,0.0,0.0
1068,266.75,50.5981,50.4653,147.547,98.588,95.8568,,,,1.21106,0.251305,0.0,0.0
1071,267.5,50.5177,51.6618,149.549,98.4732,95.6502,,,,1.17103,0.260195,0.0,0.0
1074,268.25,50.459,50.1032,146.065,98.3244,95.6753,,,,1.21106,0.24432,0.0,0.0
1077,269,51.1927,50.9949,145.625,98.3042,95.1696,,,,1.19105,0.28989,0.0,0.0
1080,269.75,50.6706,51.2066,144.293,98.3644,94.8891,,,,1.18104,0.321762,0.0,0.0
1083,270.5,50.8006,50.9188,143.948,98.4384,94.7168,,,,1.20105,0.344747,0.0,0.0
1086,271.25,50.2369,50.6416,148.687,98.5492,95.8874,,,,1.20105,0.244939,0.0,0.0
1089,272,50.1272,50.1966,149.204,98.6311,94.956,,,,1.19105,0.339687,0.0,0.0
1092,272.75,50.0732,50.1131,147.814,98.7182,95.0471,,,,1.19105,0.338994,0.0,0.0
1095,273.5,50.2513,50.4921,147.655,98.8234,95.8116,,,,1.19105,0.276862,0.0,0.0
1098,274.25,50.1926,50.3846,143.744,98.8974,95.7305,,,,1.19105,0.291135,0.0,0.0