File: 01_Data/PETG/Cone/PETG_Cone_HF25Scan_220215_R1.csv
Names,Time,Stack TC,Smoke TC,Exh Press,Smoke Comp,Smoke Meas,CO Meter,CO2 Meter,O2 Meter,Sample Mass,Ext Coeff,Start Test,Flame Verif
Chan Gain,,500,500,1,1,1,1,1,1,1,1,1.0,1.0
Offset,,0,0,0.140898,0,0,0,0,0,0,0,0.0,0.0
Gain,,1,1,25.011,12.9668,12.6588,1,1,1,1.00088,1.01977,1.0,1.0
Units,sec,C,C,Pa,%,%,%,%,%,g,/m,,
Baseline,,16.1088,16.989,165.907,98.5469,101.386,-0.000477459,0.067648,20.9775,-871.594,-0.254017,,
5,1,15.176,15.7773,161.807,97.3526,100.172,-0.000410949,0.0785017,20.9677,33.6596,-0.255422,0.0,0.0
10,2.25,14.9728,15.5515,166.923,97.2924,100.435,-0.000429711,0.0774232,20.9687,33.5895,-0.284344,0.0,0.0
15,3.5,14.7302,15.4458,169.772,97.241,100.211,-0.000523288,0.0762298,20.9691,33.7296,-0.269097,0.0,0.0
20,4.75,14.7289,15.6287,164.204,97.2121,100.163,-0.000623266,0.0751167,20.9691,33.7396,-0.267511,0.0,0.0
25,6,14.9578,15.7615,166.118,97.2046,100.385,-0.000647825,0.0750905,20.9692,33.6796,-0.287985,0.0,0.0
30,7.25,14.9721,15.473,165.918,97.2168,100.287,-0.000598844,0.0761439,20.9668,33.6796,-0.278109,0.0,0.0
35,8.5,14.7224,16.0072,167.633,97.2449,100.4,-0.000485494,0.0779921,20.964,33.6896,-0.285579,0.0,0.0
40,9.75,15.2063,15.8973,166.183,97.2766,100.125,-0.000437585,0.0801271,20.9611,33.6896,-0.258162,0.0,0.0
45,11,15.4755,15.722,169.997,97.3494,100.351,-0.000447349,0.0823443,20.9586,33.6896,-0.271671,0.0,0.0
50,12.25,15.2184,16.0828,168.222,97.4341,100.656,-0.000512542,0.0844718,20.9565,33.6796,-0.291057,0.0,0.0
55,13.5,14.6282,15.7061,165.003,97.5215,100.557,-0.000587705,0.0858852,20.9553,33.6796,-0.27417,0.0,0.0
60,14.75,15.17,15.9416,167.497,97.6296,100.522,-0.000650735,0.0864041,20.9551,33.6796,-0.261138,0.0,0.0
65,16,15.1055,16.4279,168.862,97.7447,100.805,-0.00068569,0.0861137,20.9559,33.6796,-0.275791,0.0,0.0
70,17.25,15.1988,16.1485,163.356,97.8816,101.111,-0.000672395,0.0852662,20.9577,33.6796,-0.29038,0.0,0.0
75,18.5,15.2606,15.9562,163.223,98.0087,100.893,-0.00063378,0.0842446,20.959,33.6796,-0.259447,0.0,0.0
80,19.75,14.9518,15.4631,167.421,98.1551,100.924,-0.000584337,0.0831657,20.9598,33.6796,-0.248833,0.0,0.0
85,21,15.0489,16.3333,167.96,98.2924,101.366,-0.00053586,0.0823385,20.9603,33.6896,-0.275448,0.0,0.0
90,22.25,15.6515,16.1552,164.043,98.4273,101.451,-0.000484274,0.0815966,20.9606,33.6896,-0.270673,0.0,0.0
95,23.5,14.9883,15.7734,164.339,98.55,101.755,-0.000453797,0.0808989,20.9607,33.6796,-0.286299,0.0,0.0
100,24.75,16.0558,16.357,166.338,98.6738,101.804,-0.000412233,0.0802245,20.9616,33.6896,-0.279342,0.0,0.0
105,26,14.4388,15.88,163.173,98.7827,102.075,-0.000362785,0.0794794,20.9626,33.7096,-0.293279,0.0,0.0
110,27.25,15.3468,16.4317,164.993,98.8796,101.907,-0.000339193,0.0789041,20.9639,33.6996,-0.269765,0.0,0.0
115,28.5,15.6755,16.5624,171.203,98.9564,102.015,-0.0003476,0.0783255,20.9648,33.6796,-0.272313,0.0,0.0
120,29.75,15.3301,16.2553,168.111,99.0339,102.062,-0.000364438,0.0776215,20.9656,33.6796,-0.269437,0.0,0.0
125,31,15.5421,16.3379,167.29,99.0965,102.063,-0.000361993,0.076724,20.9672,33.6796,-0.263824,0.0,0.0
130,32.25,15.272,16.3783,166.763,99.1428,102.226,-0.000349288,0.0754585,20.9691,33.6696,-0.273957,0.0,0.0
135,33.5,15.5776,16.6653,167.176,99.1661,102.55,-0.000366632,0.0738821,20.9707,33.6496,-0.300134,0.0,0.0
140,34.75,15.4043,16.2184,168.301,99.1938,102.204,-0.000422598,0.0723871,20.9724,33.6496,-0.267391,0.0,0.0
145,36,15.5498,16.4551,168.176,99.2073,102.084,-0.000489924,0.0710922,20.9742,33.6395,-0.255724,0.0,0.0
150,37.25,15.7297,16.3763,164.302,99.1998,102.452,-0.000546931,0.0699603,20.9755,33.6395,-0.288605,0.0,0.0
155,38.5,16.0208,16.6688,167.455,99.1883,102.688,-0.000580768,0.0691479,20.9764,33.6896,-0.310226,0.0,0.0
160,39.75,15.326,16.1812,163.006,99.1732,102.439,-0.000591413,0.0686199,20.9768,33.6596,-0.289815,0.0,0.0
165,41,15.4038,16.5115,167.108,99.1388,102.466,-0.000603726,0.0685918,20.9771,33.6796,-0.295248,0.0,0.0
170,42.25,15.7629,16.3395,162.944,99.0969,102.057,-0.00062446,0.0691386,20.9764,33.6696,-0.263315,0.0,0.0
175,43.5,16.4807,16.3636,162.346,99.0502,102.179,-0.000637834,0.0703197,20.9746,33.6696,-0.278224,0.0,0.0
180,44.75,15.4632,15.7812,162.019,99.0074,102.547,-0.000614405,0.0720921,20.9718,33.6796,-0.314224,0.0,0.0
185,46,15.9766,16.8283,164.506,98.9532,102.092,-0.00055677,0.0745621,20.9688,33.6696,-0.279338,0.0,0.0
190,47.25,15.4606,16.4724,164.028,98.8792,102.063,-0.000511949,0.0774004,20.9643,33.6696,-0.28349,0.0,0.0
195,48.5,15.0485,16.5125,164.775,98.8333,101.958,-0.000498088,0.0800523,20.961,33.6696,-0.278396,0.0,0.0
200,49.75,15.71,16.8964,166.557,98.7716,101.958,-0.000526371,0.0816436,20.959,33.6696,-0.284019,0.0,0.0
205,51,15.5942,16.4812,163.694,98.7118,101.802,-0.000579165,0.0821989,20.9584,33.6596,-0.275762,0.0,0.0
210,52.25,15.7623,16.4499,162.57,98.6509,101.963,-0.000624573,0.082178,20.9584,33.6596,-0.295397,0.0,0.0
215,53.5,15.2292,16.253,165.108,98.5931,101.885,-0.000665017,0.0820774,20.9584,33.6696,-0.293823,0.0,0.0
220,54.75,16.0246,16.6498,166.416,98.5634,101.816,-0.000694553,0.0822126,20.9575,33.6496,-0.290408,0.0,0.0
225,56,15.8123,16.3584,159.518,98.5041,101.79,-0.000707511,0.0826886,20.9569,33.6596,-0.293522,0.0,0.0
230,57.25,15.7421,16.8252,166.72,98.4649,101.578,-0.000706144,0.0829893,20.9566,33.6596,-0.278423,0.0,0.0
235,58.5,15.4971,16.2835,170.589,98.4356,101.401,-0.000706082,0.0829208,20.9564,33.6496,-0.265488,0.0,0.0
240,59.75,16.0339,16.5207,165.716,98.4396,101.637,-0.000687794,0.082229,20.9575,33.6496,-0.285927,0.0,0.0
245,61,15.5636,16.3472,167.454,98.533,101.971,-0.000640515,0.0810465,20.9588,33.6496,-0.306841,0.0,0.0
250,62.25,15.2042,16.1352,163.565,98.6323,102.054,-0.000591977,0.0798195,20.9603,33.6496,-0.305044,0.0,0.0
255,63.5,15.8617,16.4596,162.907,98.7241,101.985,-0.000596481,0.0788129,20.9614,33.6295,-0.290659,0.0,0.0
260,64.75,15.5459,16.9302,166.705,98.8092,102.192,-0.000654348,0.0779503,20.962,33.6395,-0.301165,0.0,0.0
265,66,15.6835,16.5385,165.771,98.8484,101.739,-0.000731072,0.0773254,20.9624,33.6395,-0.257796,0.0,0.0
270,67.25,15.3234,17.0242,166.134,98.9093,102.449,-0.000771396,0.0771862,20.9626,33.6496,-0.314498,0.0,0.0
275,68.5,15.9644,16.8618,164.725,98.9477,102.269,-0.000773971,0.0772653,20.9627,33.6395,-0.295328,0.0,0.0
280,69.75,15.6933,16.6776,169.02,98.9663,102.47,-0.000767726,0.0770862,20.9628,33.6195,-0.311201,0.0,0.0
285,71,16.0825,16.8688,165.081,98.9694,102.152,-0.000763356,0.07672,20.964,33.6395,-0.28315,0.0,0.0
290,72.25,15.9745,16.9616,162.281,98.9793,102.286,-0.000766561,0.0763411,20.9648,33.6395,-0.293919,0.0,0.0
295,73.5,16.0948,17.1593,164.365,98.9726,102.136,-0.00077183,0.0758272,20.9656,33.6496,-0.281443,0.0,0.0
300,74.75,15.4149,16.8328,162.976,98.9354,102.335,-0.000795948,0.075383,20.9666,33.6395,-0.30218,0.0,0.0
305,76,15.3967,16.4192,163.743,98.8836,102.263,-0.000835293,0.0750015,20.9672,33.6496,-0.300585,0.0,0.0
310,77.25,16.3408,17.3626,165.12,98.8313,101.945,-0.000840666,0.0746501,20.9676,33.6496,-0.27749,0.0,0.0
315,78.5,15.8053,17.1437,160.77,98.7546,102.35,-0.00076884,0.0743271,20.9686,33.6496,-0.31993,0.0,0.0
320,79.75,16.1817,16.9421,163.51,98.6608,101.751,-0.000637938,0.0741179,20.9693,33.6295,-0.275874,0.0,0.0
325,81,16.186,17.0103,165.267,98.5777,101.82,-0.000542982,0.0741098,20.9697,33.6195,-0.289454,0.0,0.0
330,82.25,16.3436,16.8576,168.854,98.4685,101.731,-0.000504521,0.074105,20.97,33.6295,-0.291595,0.0,0.0
335,83.5,16.0019,16.7776,159.096,98.347,101.85,-0.000504101,0.0741233,20.9701,33.6295,-0.313095,0.0,0.0
340,84.75,16.2535,17.4228,163.403,98.1851,101.433,-0.000523772,0.0742799,20.9702,33.6395,-0.291075,0.0,0.0
345,86,16.5496,17.214,166.449,98.1673,101.643,-0.000531512,0.0745225,20.9703,33.6395,-0.311212,0.0,0.0
350,87.25,16.5347,16.9939,163.149,98.1808,101.595,-0.000518712,0.0746759,20.9703,33.6195,-0.305803,0.0,0.0
355,88.5,16.6189,16.9427,164.725,98.1935,101.437,-0.000515583,0.0747567,20.9703,33.6295,-0.290726,0.0,0.0
360,89.75,16.3225,17.285,168.577,98.2156,101.428,-0.000535144,0.0747802,20.9703,33.6295,-0.28789,0.0,0.0
365,91,16.8071,17.3118,165.148,98.2461,101.686,-0.000593984,0.0754152,20.9685,33.6195,-0.307812,0.0,0.0
370,92.25,16.0572,17.333,163.878,98.2674,101.581,-0.000641036,0.0763297,20.9666,33.6195,-0.296652,0.0,0.0
375,93.5,16.4352,17.5951,163.152,98.2991,101.607,-0.000639689,0.0775225,20.9645,33.6195,-0.296084,0.0,0.0
380,94.75,16.0106,16.7985,167.424,98.324,101.601,-0.000593327,0.0784892,20.963,33.6195,-0.293238,0.0,0.0
385,96,16.2423,17.3675,165.209,98.3529,101.813,-0.000549706,0.0791255,20.9622,33.6295,-0.309263,0.0,0.0
390,97.25,16.2906,17.1832,165.193,98.3794,101.662,-0.000520496,0.0794491,20.9617,33.6195,-0.293605,0.0,0.0
395,98.5,16.3934,17.0168,161.724,98.4107,101.841,-0.000506625,0.0796366,20.9618,33.5995,-0.306521,0.0,0.0
400,99.75,16.1334,17.2177,165.584,98.4206,101.589,-0.000501848,0.0796972,20.9624,33.6095,-0.283403,0.0,0.0
405,101,16.0648,17.7235,166.55,98.4439,101.863,-0.000502441,0.0796291,20.9627,33.5895,-0.305367,0.0,0.0
410,102.25,15.8224,16.8412,161.495,98.4629,101.711,-0.000472097,0.0793167,20.9629,33.5895,-0.290298,0.0,0.0
415,103.5,16.5911,17.2829,164.096,98.474,101.712,-0.000420826,0.0787703,20.963,33.5795,-0.289394,0.0,0.0
420,104.75,16.4651,17.9228,162.306,98.5045,101.7,-0.000331693,0.0780498,20.964,33.5995,-0.285573,0.0,0.0
425,106,16.2649,17.2062,162.117,98.5195,102.02,-0.000278571,0.0772636,20.9646,33.5895,-0.312332,0.0,0.0
430,107.25,16.1551,17.3807,165.533,98.5223,101.662,-0.000270137,0.0766466,20.965,33.5895,-0.280659,0.0,0.0
435,108.5,16.2664,17.7,164.33,98.5136,101.28,-0.000295216,0.0763338,20.9654,33.5895,-0.247768,0.0,0.0
440,109.75,16.1085,17.3326,157.348,98.5041,101.609,-0.00035238,0.0761895,20.9658,33.5995,-0.277654,0.0,0.0
445,111,16.1613,17.6209,167.127,98.4633,101.732,-0.000430032,0.076037,20.966,33.6095,-0.292164,0.0,0.0
450,112.25,16.1517,17.5475,162.079,98.4273,101.714,-0.000526173,0.0757067,20.9671,33.6095,-0.293806,0.0,0.0
455,113.5,15.8949,18.0841,165.107,98.3921,101.388,-0.000603565,0.0751966,20.9677,33.5695,-0.26832,0.0,0.0
460,114.75,16.0602,17.9529,165.583,98.3292,101.443,-0.000634068,0.0745445,20.9692,33.5695,-0.278915,0.0,0.0
465,116,16.3201,17.4817,163.088,98.252,101.384,-0.000629317,0.0738669,20.9707,33.5895,-0.280724,0.0,0.0
470,117.25,15.8828,17.5959,166.555,98.1756,101.475,-0.000633855,0.0733578,20.9718,33.5895,-0.295686,0.0,0.0
475,118.5,16.1483,17.4377,168.384,98.0918,101.238,-0.000657944,0.0728201,20.9731,33.5695,-0.2824,0.0,0.0
480,119.75,15.9283,17.8562,161.656,98.0122,101.186,-0.000676875,0.0723937,20.9736,33.5795,-0.285115,0.0,0.0
485,121,16.018,17.0123,174.953,97.9145,101.285,-0.000688114,0.0716248,20.9745,33.5695,-0.302711,0.0,0.0
490,122.25,16.8078,17.58,166.515,97.7946,100.713,-0.000681864,0.0708279,20.9754,33.5595,-0.263067,0.0,0.0
495,123.5,16.4468,17.4381,160.979,97.7134,100.644,-0.000656461,0.0702381,20.9768,33.5595,-0.26438,0.0,0.0
500,124.75,15.2063,18.2596,163.638,97.6335,100.762,-0.000631007,0.0698017,20.9776,33.5595,-0.282167,0.0,0.0
505,126,16.5398,17.4626,163.048,97.537,100.784,-0.000630445,0.0694907,20.9772,33.5695,-0.292938,0.0,0.0
510,127.25,16.4843,17.5667,162.604,97.4467,100.64,-0.000649956,0.06952,20.977,33.5595,-0.288417,0.0,0.0
515,128.5,15.4797,17.4622,167.598,97.3636,100.169,-0.0006647,0.0696998,20.9766,33.5595,-0.254094,0.0,0.0
520,129.75,16.7492,17.4394,164.545,97.3078,100.286,-0.000644737,0.0699442,20.9757,33.5595,-0.269669,0.0,0.0
525,131,15.9438,17.4371,165.379,97.2429,100.414,-0.000586816,0.070138,20.9751,33.5595,-0.287035,0.0,0.0
530,132.25,16.453,17.3349,163.602,97.2069,100.521,-0.000520951,0.0701326,20.9753,33.5395,-0.299876,0.0,0.0
535,133.5,16.6035,17.774,165.479,97.1796,99.8622,-0.000438313,0.0699118,20.9758,33.5495,-0.243581,0.0,0.0
540,134.75,16.6089,17.6426,164.451,97.1701,100.322,-0.000391445,0.0696089,20.9769,33.5495,-0.285575,0.0,0.0
545,136,16.132,17.5704,167.205,97.1646,100.15,-0.000408348,0.0691305,20.9777,33.5495,-0.270709,0.0,0.0
550,137.25,16.6423,17.6775,162.715,97.1895,99.8869,-0.000449782,0.0685576,20.9782,33.5395,-0.244885,0.0,0.0
555,138.5,16.6384,17.6493,162.946,97.2073,100.142,-0.000558456,0.0681091,20.9792,33.5395,-0.266085,0.0,0.0
560,139.75,16.6329,17.7882,165.662,97.2702,100.332,-0.000639767,0.0677671,20.9802,33.5294,-0.277189,0.0,0.0
565,141,16.4404,17.7357,164.893,97.3078,99.9062,-0.000696153,0.0672776,20.9809,33.5495,-0.235731,0.0,0.0
570,142.25,16.525,17.8596,164.216,97.3981,100.35,-0.000705419,0.0669328,20.9813,33.5495,-0.267062,0.0,0.0
575,143.5,16.5257,17.9864,169.456,97.4804,100.716,-0.000657852,0.0666437,20.9817,33.5395,-0.292093,0.0,0.0
580,144.75,16.9275,17.6434,158.453,97.573,100.485,-0.000562537,0.0664001,20.9827,33.5294,-0.263058,0.0,0.0
585,146,16.6868,18,164.024,97.6608,100.226,-0.000470698,0.0663397,20.9833,33.5395,-0.231971,0.0,0.0
590,147.25,16.6535,17.7145,164.859,97.776,100.656,-0.000407389,0.0663503,20.9836,33.5395,-0.259722,0.0,0.0
595,148.5,16.8091,17.9277,162.172,97.888,100.433,-0.000377637,0.0662804,20.9838,33.5395,-0.229617,0.0,0.0
600,149.75,17.0182,17.9149,167.102,97.9901,100.942,-0.000400413,0.0662131,20.9831,33.5395,-0.265527,0.0,0.0
605,151,17.3638,17.762,168.321,98.1194,101.112,-0.000462094,0.0661795,20.983,33.5395,-0.268739,0.0,0.0
610,152.25,16.5215,16.9838,166.069,98.2409,101.098,-0.00052744,0.0662403,20.9822,33.5395,-0.25644,0.0,0.0
615,153.5,16.4075,17.4972,160.34,98.3596,101.043,-0.000638023,0.0662827,20.9817,33.5695,-0.240782,0.0,0.0
620,154.75,16.546,17.6436,160.563,98.4701,101.292,-0.000694023,0.066286,20.9814,33.5395,-0.25271,0.0,0.0
625,156,16.3222,17.3953,166.029,98.5812,101.455,-0.000668068,0.0662529,20.9813,33.5395,-0.257069,0.0,0.0
630,157.25,16.7823,18.0649,164.701,98.6877,101.443,-0.00061203,0.0661597,20.9812,33.5395,-0.246291,0.0,0.0
635,158.5,17.5361,18.0724,160.191,98.7906,101.661,-0.000518424,0.0661944,20.9811,33.5495,-0.256197,0.0,0.0
640,159.75,17.0618,17.5634,163.966,98.8535,101.847,-0.000464573,0.066129,20.9811,33.5495,-0.26687,0.0,0.0
645,161,16.982,17.4852,163.313,98.9433,101.566,-0.000451449,0.0660639,20.9811,33.5395,-0.234044,0.0,0.0
650,162.25,16.9869,17.8121,165.989,99.0161,101.697,-0.000493418,0.0660892,20.9818,33.5395,-0.238957,0.0,0.0
655,163.5,16.7536,17.9649,167.347,99.0771,101.635,-0.000581182,0.066143,20.9818,33.5395,-0.228014,0.0,0.0
660,164.75,16.0326,17.4053,165.291,99.1222,101.714,-0.000691125,0.0661888,20.9823,33.5395,-0.230909,0.0,0.0
665,166,17.3701,17.6482,163.142,99.1582,101.622,-0.000774932,0.066206,20.9818,33.5294,-0.219537,0.0,0.0
670,167.25,16.4954,17.9424,164.2,99.18,101.989,-0.000805138,0.0661354,20.9819,33.5294,-0.249821,0.0,0.0
675,168.5,16.8041,17.4365,165.531,99.1879,101.375,-0.000791233,0.0661323,20.9823,33.5194,-0.195137,0.0,0.0
680,169.75,16.6601,17.5281,163.562,99.1851,101.611,-0.000755018,0.0660535,20.9826,33.5194,-0.216157,0.0,0.0
685,171,16.6947,17.6828,165.149,99.1831,101.502,-0.000731839,0.0660356,20.9827,33.5194,-0.206774,0.0,0.0
690,172.25,16.5192,17.9389,166.686,99.1558,101.912,-0.00075369,0.0660679,20.9828,33.5194,-0.245287,0.0,0.0
695,173.5,17.1234,18.2402,166.259,99.1265,101.615,-0.000812038,0.0661037,20.9826,33.5294,-0.221781,0.0,0.0
700,174.75,17.1556,17.7893,164.907,99.0783,101.672,-0.000887112,0.066037,20.9823,33.5194,-0.231171,0.0,0.0
705,176,16.8014,17.9201,168.339,99.03,101.393,-0.000910464,0.0659494,20.9825,33.5094,-0.210922,0.0,0.0
710,177.25,17.0701,18.1475,167.431,98.9809,100.979,-0.000879051,0.0658746,20.9821,33.5094,-0.178778,0.0,0.0
715,178.5,16.9663,17.4436,164.615,98.9137,101.615,-0.000786875,0.065834,20.9817,33.5094,-0.241013,0.0,0.0
720,179.75,16.7144,17.9319,165.224,98.8571,101.567,-0.000706464,0.065844,20.9822,33.5094,-0.241949,0.0,0.0
725,181,16.8256,17.5735,159.373,98.7914,101.214,-0.000571871,0.065811,20.9825,33.5094,-0.216674,0.0,0.0
730,182.25,17.0871,18.0992,168.386,98.7376,101.44,-0.000438309,0.065863,20.983,33.5094,-0.241534,0.0,0.0
735,183.5,16.744,18.1012,162.68,98.6659,100.889,-0.000334827,0.0659811,20.9833,33.4994,-0.199314,0.0,0.0
740,184.75,17.1352,18.0515,159.871,98.605,101.326,-0.00026707,0.066039,20.9833,33.4894,-0.243463,0.0,0.0
745,186,17.1389,17.8151,161.711,98.5516,100.932,-0.000249915,0.0660577,20.9831,33.4694,-0.21349,0.0,0.0
750,187.25,17.2441,18.3212,158.745,98.4886,100.526,-0.000288074,0.066067,20.9831,33.4894,-0.183145,0.0,0.0
755,188.5,17.073,18.0835,162.481,98.4491,100.631,-0.00041584,0.066103,20.9828,33.4894,-0.196085,0.0,0.0
760,189.75,16.839,18.2796,168.479,98.4075,100.928,-0.000561975,0.0661312,20.9819,33.4794,-0.226264,0.0,0.0
765,191,16.7603,17.6508,165.857,98.4977,100.526,-0.00065722,0.0661837,20.9815,33.4894,-0.182318,0.0,0.0
770,192.25,16.6838,17.523,161.145,98.6093,100.859,-0.00074391,0.0662772,20.9816,33.4694,-0.201807,0.0,0.0
775,193.5,16.8597,17.4358,163.27,98.7205,100.837,-0.000804486,0.0664387,20.9815,33.4694,-0.189773,0.0,0.0
780,194.75,17.3923,17.6537,161.911,98.8131,100.808,-0.000822609,0.0665153,20.9812,33.4794,-0.178816,0.0,0.0
785,196,17.1704,18.111,163.394,98.8816,100.975,-0.000784639,0.0663999,20.981,33.4694,-0.187418,0.0,0.0
790,197.25,16.9021,18.1299,167.001,98.92,101.168,-0.000691337,0.0662513,20.9808,33.4794,-0.200972,0.0,0.0
795,198.5,16.9248,18.1238,170.749,98.9778,100.999,-0.000608063,0.0661543,20.981,33.4694,-0.180879,0.0,0.0
800,199.75,16.0503,18.0926,166.26,98.99,100.673,-0.000576094,0.0661328,20.9818,33.4694,-0.150776,0.0,0.0
805,201,16.9933,17.8794,166.72,98.9805,100.837,-0.000586832,0.0661419,20.9823,33.4594,-0.166212,0.0,0.0
810,202.25,17.0794,18.2859,164.449,98.9623,100.731,-0.000615229,0.0661282,20.9825,33.4694,-0.158428,0.0,0.0
815,203.5,16.6539,17.4471,165.17,98.9413,101.248,-0.000630621,0.0661674,20.9821,33.4494,-0.206109,0.0,0.0
820,204.75,16.7891,18.0202,167.863,98.88,100.63,-0.000641852,0.0661923,20.9812,33.4594,-0.156912,0.0,0.0
825,206,17.0716,18.0092,161.421,98.8135,100.52,-0.000633895,0.0661751,20.9806,33.4494,-0.153136,0.0,0.0
830,207.25,17.0117,18.2972,161.74,98.7253,100.71,-0.000601011,0.0662133,20.9806,33.4294,-0.178026,0.0,0.0
835,208.5,17.1829,17.8607,164.972,98.6327,101.015,-0.000567467,0.066245,20.9809,33.4394,-0.213487,0.0,0.0
840,209.75,17.0577,18.0242,167.264,98.5152,100.423,-0.000549667,0.0662504,20.9811,33.4394,-0.171553,0.0,0.0
845,211,16.7869,18.346,165.156,98.3901,100.323,-0.000553738,0.0663714,20.9812,33.4394,-0.173998,0.0,0.0
850,212.25,17.2593,18.3441,163.93,98.2568,100.041,-0.000571463,0.06653,20.9812,33.4394,-0.161019,0.0,0.0
855,213.5,17.3272,18.172,165.534,98.1808,100.149,-0.000586937,0.0666143,20.9815,33.4193,-0.177537,0.0,0.0
860,214.75,17.0817,17.8006,165.831,98.1828,100.108,-0.000588419,0.0666544,20.9818,33.4193,-0.173732,0.0,0.0
865,216,17.2589,18.1189,166.131,98.1681,99.8726,-0.000553578,0.0666799,20.9819,33.4093,-0.153985,0.0,0.0
870,217.25,17.0831,18.285,163.899,98.1717,100.063,-0.00052716,0.066695,20.982,33.4093,-0.170737,0.0,0.0
875,218.5,17.0582,18.4348,163.536,98.1796,99.6845,-0.000536895,0.0666751,20.9821,33.4093,-0.136072,0.0,0.0
880,219.75,16.8718,18.2289,167.257,98.2057,100.308,-0.000559696,0.066753,20.9821,33.3993,-0.189436,0.0,0.0
885,221,17.1693,18.1828,163.754,98.2148,99.601,-0.00055346,0.0667956,20.9821,33.3793,-0.125373,0.0,0.0
890,222.25,17.4698,18.3403,163.218,98.2382,100.128,-0.000518678,0.0668399,20.9817,33.3893,-0.170481,0.0,0.0
895,223.5,17.7038,18.3342,165.107,98.2647,100.033,-0.000454325,0.0668274,20.981,33.3793,-0.159504,0.0,0.0
900,224.75,17.3125,18.3972,161.829,98.2876,99.8463,-0.000374178,0.0668833,20.9803,33.3893,-0.140748,0.0,0.0
905,226,17.4015,18.4345,166.768,98.3082,100.069,-0.000296942,0.0669669,20.9798,33.3693,-0.158789,0.0,0.0
910,227.25,17.0981,18.4791,164.598,98.33,99.7382,-0.000263468,0.067011,20.9795,33.3593,-0.127199,0.0,0.0
915,228.5,16.7237,17.8936,167.311,98.3604,100.229,-0.000241775,0.066996,20.9793,33.3593,-0.168323,0.0,0.0
920,229.75,17.1665,18.426,165.927,98.3699,99.7567,-0.000213658,0.0670453,20.9792,33.3393,-0.125227,0.0,0.0
925,231,17.0198,18.5012,162.497,98.3897,99.1966,-0.000194912,0.0670386,20.9795,33.3393,-0.0730558,0.0,0.0
930,232.25,17.4886,18.2392,163.301,98.4067,99.5817,-0.000218232,0.0669912,20.9798,33.3393,-0.106175,0.0,0.0
935,233.5,17.3289,18.2663,164.719,98.4194,100.104,-0.000276114,0.0669149,20.98,33.3493,-0.151784,0.0,0.0
940,234.75,17.0178,18.5174,165.505,98.4309,99.9966,-0.00032988,0.0668606,20.9801,33.3293,-0.141174,0.0,0.0
945,236,17.2606,18.2786,165.22,98.4392,100.201,-0.000343322,0.0667781,20.9802,33.3293,-0.158647,0.0,0.0
950,237.25,17.3903,18.6056,162.547,98.4431,99.9893,-0.000329865,0.0669112,20.98,33.3393,-0.139402,0.0,0.0
955,238.5,17.6412,18.583,162.359,98.4499,100.214,-0.000311227,0.067482,20.9792,33.3493,-0.158883,0.0,0.0
960,239.75,16.8918,17.9052,162.572,98.4542,100.05,-0.000318547,0.0682372,20.9787,33.3193,-0.143854,0.0,0.0
965,241,17.2464,18.3373,171.078,98.4463,99.8123,-0.000318895,0.0688789,20.9777,33.3193,-0.123272,0.0,0.0
970,242.25,17.5413,18.5439,165.767,98.4645,100.126,-0.000287259,0.0699443,20.9753,33.2692,-0.149721,0.0,0.0
975,243.5,17.0965,18.0128,159.073,98.4657,100.035,-0.000169082,0.0735435,20.969,33.2992,-0.141431,0.0,1.0
980,244.75,17.5147,18.6205,166.65,98.4625,100.089,0.000152278,0.0815658,20.9565,33.2392,-0.146587,0.0,1.0
985,246,17.2152,19.1532,154.213,98.4562,96.0933,0.000680038,0.0963187,20.9317,33.2192,0.217305,0.0,1.0
990,247.25,17.4667,18.6451,158.668,98.4578,93.1909,0.00135266,0.120605,20.8956,33.2092,0.491798,0.0,1.0
995,248.5,17.5455,19.6628,156.52,98.4253,88.6416,0.00223891,0.151892,20.8531,33.0891,0.93655,0.0,1.0
1000,249.75,17.5755,19.5244,157.748,98.4091,83.8316,0.00316186,0.187651,20.8076,32.969,1.43415,0.0,1.0
1005,251,18.8104,21.31,156.113,98.3846,85.5012,0.00426803,0.224908,20.7549,32.9089,1.25551,0.0,0.0
1010,252.25,19.753,22.547,153.843,98.3691,81.1328,0.00543817,0.265084,20.7071,32.8088,1.72323,0.0,0.0
1015,253.5,19.7774,22.9585,145.983,98.3248,80.5865,0.00649419,0.308953,20.6585,32.6787,1.77963,0.0,0.0
1020,254.75,20.4778,23.1582,148.167,98.3027,79.0872,0.00773793,0.348911,20.6049,32.5886,1.94561,0.0,0.0
1025,256,22.2337,25.0079,143.058,98.2722,73.4682,0.0089133,0.384485,20.5529,32.4285,2.60209,0.0,0.0
1030,257.25,23.1452,26.3706,144.967,98.2263,71.5506,0.0100226,0.423128,20.5005,32.3084,2.83451,0.0,0.0
1035,258.5,23.7232,26.8819,144.191,98.1792,74.7871,0.0109923,0.459123,20.4533,32.1382,2.43446,0.0,0.0
1040,259.75,25.0319,28.7136,140.62,98.1317,69.1314,0.01193,0.490227,20.4136,31.9981,3.13356,0.0,0.0
1045,261,25.9777,30.1547,140.536,98.087,70.3344,0.0127373,0.51767,20.3769,31.828,2.97516,0.0,0.0
1050,262.25,26.9951,30.1214,145.997,98.0229,70.8683,0.0135079,0.543234,20.3389,31.6578,2.90167,0.0,0.0
1055,263.5,27.9633,32.8217,143.004,97.9722,69.1766,0.0141549,0.568344,20.3081,31.5077,3.11317,0.0,0.0
1060,264.75,29.0117,33.9896,134.551,97.9168,67.1755,0.0148942,0.590566,20.2815,31.3175,3.37069,0.0,0.0
1065,266,29.4886,34.8064,138.428,97.867,67.1747,0.0156634,0.611521,20.2568,31.1373,3.36624,0.0,0.0
1070,267.25,30.8886,37.0044,142.545,97.81,64.8043,0.0164178,0.633254,20.2272,30.9372,3.68239,0.0,0.0
1075,268.5,31.9484,38.039,135.521,97.7522,63.6967,0.0171731,0.655477,20.1959,30.747,3.83131,0.0,0.0
1080,269.75,33.1594,39.3266,136.967,97.6917,62.5227,0.0179632,0.67956,20.1631,30.5769,3.99218,0.0,0.0
1085,271,34.4182,41.1318,130.954,97.6387,63.9073,0.0187513,0.702377,20.136,30.3467,3.7914,0.0,0.0
1090,272.25,35.4043,42.139,129.864,97.5647,61.7447,0.0196045,0.72259,20.1076,30.1565,4.09256,0.0,0.0
1095,273.5,36.6817,43.7846,129.158,97.5085,58.2412,0.0204286,0.744534,20.0769,29.9163,4.60995,0.0,0.0
1100,274.75,37.2104,45.1494,140.136,97.4515,62.2921,0.0211824,0.769293,20.0373,29.6861,4.00322,0.0,0.0
1105,276,38.7817,46.5211,141.705,97.4028,61.701,0.0218063,0.79713,20.0041,29.4759,4.08404,0.0,0.0
1110,277.25,39.691,48.1336,128.039,97.3541,63.0064,0.0225713,0.827232,19.9727,29.2157,3.89229,0.0,0.0
1115,278.5,41.0766,49.8827,137.192,97.3082,61.2293,0.0234634,0.851692,19.9461,28.9955,4.14399,0.0,0.0
1120,279.75,42.2382,51.5448,136.376,97.29,59.9614,0.0243412,0.879846,19.9165,28.7352,4.3295,0.0,0.0
1125,281,43.5739,53.4396,130.808,97.235,60.4111,0.0252841,0.908319,19.8796,28.445,4.25761,0.0,0.0
1130,282.25,44.5531,54.7485,138.617,97.2026,57.6609,0.0262406,0.938953,19.8273,28.2048,4.67141,0.0,0.0
1135,283.5,46.1226,56.5407,129.471,97.1737,54.8991,0.0271209,0.97023,19.7878,27.9746,5.10781,0.0,0.0
1140,284.75,47.4275,58.4025,126.606,97.1412,53.0282,0.0282534,1.0044,19.7442,27.6843,5.41499,0.0,0.0
1145,286,48.5195,60.3025,130.771,97.1131,53.802,0.0294643,1.03895,19.7028,27.354,5.28282,0.0,0.0
1150,287.25,50.5607,62.1527,124.438,97.1005,51.3721,0.0307888,1.07176,19.6559,27.0838,5.69507,0.0,0.0
1155,288.5,51.6583,63.9377,124.733,97.0815,51.9538,0.0320853,1.11493,19.6001,26.7035,5.59258,0.0,0.0
1160,289.75,53.0474,65.9816,119.948,97.0676,52.3058,0.0336396,1.16666,19.5364,26.4232,5.53091,0.0,0.0
1165,291,54.8564,68.2416,128.439,97.0558,47.6877,0.035125,1.21914,19.4608,26.1029,6.35666,0.0,0.0
1170,292.25,56.8188,70.5205,119.546,97.0506,49.544,0.0368404,1.27623,19.3943,25.7226,6.01459,0.0,0.0
1175,293.5,57.3543,71.8996,114.435,97.055,50.0145,0.0387397,1.33597,19.3243,25.3423,5.93044,0.0,0.0
1180,294.75,60.2522,75.2604,125.021,97.0518,45.1744,0.0408062,1.3965,19.2358,24.9919,6.84063,0.0,0.0
1185,296,61.5776,77.7094,116.775,97.0546,46.0583,0.0429654,1.47158,19.1416,24.5816,6.66755,0.0,0.0
1190,297.25,62.9549,79.5669,105.718,97.0645,45.6437,0.0454296,1.54292,19.06,24.0812,6.74934,0.0,0.0
1195,298.5,65.7946,82.9065,119.598,97.0692,47.2307,0.0478092,1.60558,18.9965,23.7208,6.44404,0.0,0.0
1200,299.75,68.1413,85.7692,117.228,97.0823,46.0586,0.0505978,1.66681,18.9221,23.3305,6.67003,0.0,0.0
1205,301,68.801,88.0435,118.681,97.1139,42.2855,0.0529443,1.73684,18.8666,22.8601,7.43752,0.0,0.0
1210,302.25,71.4949,91.3703,113.625,97.1448,42.9063,0.0556649,1.78797,18.7906,22.3997,7.30999,0.0,0.0
1215,303.5,74.3127,94.7303,103.577,97.1788,41.611,0.0583064,1.87329,18.6733,21.8792,7.58734,0.0,0.0
1220,304.75,75.2353,96.9031,107.328,97.1998,39.9062,0.0609324,1.95169,18.5656,21.4288,7.96348,0.0,0.0
1225,306,78.1884,100.486,104.29,97.2524,40.9535,0.0637552,2.03708,18.4597,20.8984,7.73659,0.0,0.0
1230,307.25,80.5248,104.075,102.654,97.3082,41.7458,0.0669913,2.1327,18.3491,20.3979,7.5703,0.0,0.0
1235,308.5,82.6467,107.529,109.394,97.368,41.3661,0.0706634,2.24933,18.2333,19.8875,7.65754,0.0,0.0
1240,309.75,85.9004,111.848,95.0224,97.4357,39.424,0.0750262,2.3423,18.0966,19.4171,8.09389,0.0,0.0
1245,311,88.1241,115.057,110.067,97.4871,40.8063,0.0792658,2.45851,17.953,18.6864,7.79035,0.0,0.0
1250,312.25,91.1767,118.685,109.22,97.5694,40.238,0.0839612,2.57261,17.8193,18.166,7.92335,0.0,0.0
1255,313.5,94.1886,123.823,94.2218,97.622,40.2365,0.089764,2.71346,17.6835,17.4753,7.92852,0.0,0.0
1260,314.75,97.0448,127.929,79.9974,97.7,38.8415,0.0955787,2.855,17.5228,16.8948,8.25129,0.0,0.0
1265,316,100.254,132.075,79.1807,97.7633,40.4598,0.100869,2.99097,17.3856,16.1442,7.89195,0.0,0.0
1270,317.25,102.858,136.34,92.4281,97.8405,39.1876,0.10544,3.11928,17.2548,15.5737,8.18478,0.0,0.0
1275,318.5,105.711,140.445,90.9427,97.9208,40.8461,0.109245,3.22857,17.1504,14.823,7.82134,0.0,0.0
1280,319.75,108.872,144.923,98.7533,97.9948,44.1688,0.112747,3.32981,17.0572,14.2425,7.1285,0.0,0.0
1285,321,111.51,148.894,87.305,98.0767,41.4313,0.116242,3.41274,16.9716,13.3918,7.70831,0.0,0.0
1290,322.25,114.386,153.087,83.9489,98.1594,41.9154,0.120433,3.50188,16.908,12.7212,7.61194,0.0,0.0
1295,323.5,117.007,157.072,77.9327,98.2247,41.5044,0.124372,3.60731,16.8207,11.9305,7.70604,0.0,0.0
1300,324.75,119.465,160.485,95.543,98.2868,44.4137,0.128497,3.71446,16.7302,11.2399,7.10566,0.0,0.0
1305,326,122.463,164.972,84.7289,98.341,44.6165,0.131158,3.78832,16.6767,10.4792,7.06983,0.0,0.0
1310,327.25,125.137,168.525,100.594,98.4055,40.7,0.131882,3.80166,16.6754,9.77859,7.89755,0.0,0.0
1315,328.5,125.948,169.884,98.1939,98.474,43.8883,0.129751,3.75182,16.7527,9.00791,7.22913,0.0,0.0
1320,329.75,127.883,172.523,94.0943,98.531,44.518,0.125571,3.65087,16.9099,8.37736,7.10687,0.0,0.0
1325,331,128.825,173.478,105.16,98.5856,46.7451,0.119265,3.50586,17.138,7.77683,6.67515,0.0,0.0
1330,332.25,128.581,173.29,104.16,98.6275,47.9721,0.111152,3.3148,17.3817,7.19632,6.44719,0.0,0.0
1335,333.5,129.388,173.755,113.569,98.6802,48.4202,0.100609,3.06045,17.6272,6.57578,6.36878,0.0,0.0
1340,334.75,129.089,172.253,111.894,98.7158,46.9901,0.0909913,2.83391,17.9348,6.11537,6.6402,0.0,0.0
1345,336,126.658,169.603,126.578,98.7506,48.832,0.0815576,2.5587,18.2468,5.65497,6.29941,0.0,0.0
1350,337.25,125.743,167.204,130.884,98.8036,52.4259,0.0725378,2.27491,18.5621,5.26462,5.66896,0.0,0.0
1355,338.5,124.902,165.316,122.097,98.8345,51.051,0.0644669,2.02819,18.8162,4.94434,5.90948,0.0,0.0
1360,339.75,122.797,161.623,130.683,98.8761,53.2731,0.057441,1.82011,19.0095,4.61405,5.53211,0.0,0.0
1365,341,121.195,158.733,129.471,98.9129,56.3675,0.0505634,1.64666,19.1918,4.31379,5.03038,0.0,0.0
1370,342.25,118.963,156.09,129.129,98.9362,58.9315,0.0446955,1.50309,19.3531,4.05356,4.63457,0.0,0.0
1375,343.5,117.084,152.762,131.187,98.9651,62.7703,0.0395216,1.36111,19.5158,3.76331,4.07267,0.0,0.0
1380,344.75,115.428,150.098,135.172,98.9884,64.6505,0.0348257,1.23781,19.6591,3.57314,3.81077,0.0,0.0
1385,346,113.726,146.964,133.418,99.0126,65.5746,0.0313012,1.12262,19.777,3.37296,3.686,0.0,0.0
1390,347.25,111.497,144.073,137.628,99.0185,67.8292,0.0281774,1.02374,19.8832,3.16278,3.38415,0.0,0.0
1395,348.5,109.041,140.893,141.249,99.0363,67.1801,0.0252324,0.934724,19.9825,2.97261,3.47177,0.0,0.0
1400,349.75,107.934,138.197,142.23,99.0446,69.7407,0.0227304,0.8577,20.0706,2.81247,3.13791,0.0,0.0
1405,351,105.958,134.946,143.919,99.0498,72.2614,0.020544,0.785842,20.156,2.65233,2.82076,0.0,0.0
1410,352.25,103.765,131.717,140.871,99.0609,72.3213,0.0186177,0.72165,20.2334,2.49219,2.81435,0.0,0.0
1415,353.5,101.52,129.513,142.318,99.0541,74.1593,0.0167646,0.668029,20.2976,2.33205,2.58923,0.0,0.0
1420,354.75,100.028,126.8,143.626,99.0506,75.6192,0.0148029,0.618265,20.3526,2.19193,2.41452,0.0,0.0
1425,356,97.5884,122.762,148.001,99.047,76.699,0.0131546,0.58001,20.4046,2.0518,2.28738,0.0,0.0
1430,357.25,95.7048,120.622,146.124,99.0351,78.4988,0.0116781,0.541782,20.4546,1.96172,2.07881,0.0,0.0
1435,358.5,93.999,117.706,147.327,99.0217,79.7494,0.0104051,0.504429,20.5013,1.86164,1.93622,0.0,0.0
1440,359.75,92.5602,115.111,151.493,99.0066,80.9767,0.00923869,0.470805,20.5406,1.79157,1.79824,0.0,0.0
1445,361,90.4571,112.522,149.212,98.9908,83.4171,0.00826259,0.440223,20.5718,1.69149,1.53121,0.0,0.0
1450,362.25,88.6584,109.814,147.633,98.9706,84.8522,0.00737186,0.41249,20.5999,1.61142,1.37679,0.0,0.0
1455,363.5,87.4104,107.587,149.647,98.9441,85.8342,0.00662942,0.38818,20.6259,1.53134,1.27147,0.0,0.0
1460,364.75,85.9818,105.303,145.373,98.9208,86.7112,0.00595978,0.365101,20.6532,1.45127,1.17843,0.0,0.0
1465,366,84.3127,102.696,153.051,98.8863,87.7515,0.00539016,0.342954,20.6803,1.40123,1.06863,0.0,0.0
1470,367.25,81.9579,100.004,145.56,98.8745,89.731,0.00490286,0.322168,20.7033,1.3612,0.868008,0.0,0.0
1475,368.5,81.1117,98.2295,151.721,98.842,91.595,0.00449684,0.303326,20.7182,1.30114,0.681154,0.0,0.0
1480,369.75,79.5095,95.8852,152.985,98.8207,93.2793,0.0040981,0.286759,20.7354,1.27112,0.516218,0.0,0.0
1485,371,78.487,93.9323,155.72,98.7918,93.8936,0.00360702,0.274678,20.7501,1.20105,0.454891,0.0,0.0
1490,372.25,76.2976,91.342,151.066,98.7811,94.893,0.00318846,0.259248,20.7679,1.15101,0.359212,0.0,0.0
1495,373.5,75.1584,90.1188,152.297,98.7573,96.4174,0.00284566,0.243027,20.7858,1.11098,0.214502,0.0,0.0
1500,374.75,73.9464,88.1768,153.246,98.717,96.2706,0.00256176,0.228563,20.802,1.10097,0.224475,0.0,0.0
1505,376,72.5901,85.373,153.997,98.7004,97.5516,0.00227781,0.215098,20.8171,1.09096,0.104721,0.0,0.0
1510,377.25,71.0879,84.0598,150.713,98.6818,98.1438,0.00209924,0.20365,20.8315,1.07094,0.0488945,0.0,0.0
1515,378.5,70.1293,82.0169,153.064,98.658,98.461,0.00208826,0.190458,20.8473,1.05092,0.0178811,0.0,0.0
1520,379.75,69.0668,80.9684,155.485,98.6339,98.2868,0.00225717,0.177401,20.8627,1.04091,0.0315344,0.0,0.0
1525,381,67.1936,78.8162,158.69,98.6105,98.269,0.00244097,0.165036,20.8757,1.03091,0.031035,0.0,0.0
1530,382.25,66.8016,76.5587,153.234,98.5987,97.1135,0.00260604,0.153428,20.887,1.0209,0.135762,0.0,0.0
1535,383.5,65.1167,75.5979,159.553,98.5765,98.2733,0.00271689,0.14286,20.8984,1.01089,0.0275604,0.0,0.0
1540,384.75,64.2989,73.2222,159.531,98.5476,98.6773,0.00279525,0.132011,20.9097,1.01089,-0.0117682,0.0,0.0
1545,386,62.5609,71.8906,154.589,98.5472,97.5721,0.00284694,0.12099,20.9226,1.01089,0.0889551,0.0,0.0
1550,387.25,61.6518,70.3919,158.957,98.5334,97.8336,0.00285583,0.111755,20.9349,1.00088,0.0637522,0.0,0.0
1555,388.5,60.3011,68.5785,157.369,98.5219,98.2949,0.00282811,0.103458,20.942,1.00088,0.0206339,0.0,0.0
1560,389.75,59.5501,67.0942,156.059,98.5049,97.7309,0.00277728,0.0964771,20.9496,1.00088,0.0705661,0.0,0.0
1565,391,57.9977,64.977,154.39,98.5274,98.0596,0.00271978,0.0915158,20.9559,0.980861,0.0425735,0.0,0.0
1570,392.25,57.568,64.4839,161.604,98.5255,98.2408,0.00264708,0.0866979,20.9602,0.980861,0.0258806,0.0,0.0
1575,393.5,56.7667,63.1999,158.38,98.5187,98.6731,0.00256638,0.0826965,20.9635,0.970853,-0.014006,0.0,0.0
1580,394.75,55.8362,61.9559,153.102,98.5239,98.2682,0.00242493,0.0796788,20.9651,0.960844,0.0232401,0.0,0.0
1585,396,54.1795,60.5736,158.259,98.5227,98.5703,0.0022444,0.0774009,20.9662,0.99087,-0.0043257,0.0,0.0
1590,397.25,54.4421,58.8939,162.021,98.5278,99.1595,0.00198406,0.0755974,20.9676,0.980861,-0.0571641,0.0,0.0
1595,398.5,53.3909,58.4301,160.414,98.5266,98.7693,0.00172079,0.0742734,20.9684,0.970853,-0.0220027,0.0,0.0
1600,399.75,52.0605,56.9971,160.156,98.5448,98.5982,0.00148754,0.0732987,20.9697,0.960844,-0.00483782,0.0,0.0
1605,401,51.678,56.2565,155.402,98.5619,98.9161,0.00127074,0.0726363,20.9706,0.960844,-0.0320922,0.0,0.0
1610,402.25,50.614,54.2331,156.574,98.5674,98.8709,0.00111661,0.0720562,20.9711,0.980861,-0.0275007,0.0,0.0
1615,403.5,50.1414,54.7104,153.853,98.5607,99.4523,0.000969327,0.0715092,20.9714,0.970853,-0.08056,0.0,0.0
1620,404.75,48.9025,53.0439,153.012,98.5931,99.0007,0.000861244,0.0710714,20.9719,0.980861,-0.036903,0.0,0.0
1625,406,49.1424,52.6807,159.988,98.6117,99.5249,0.000769313,0.0707131,20.9723,0.99087,-0.0824583,0.0,0.0
1630,407.25,47.8467,52.0974,156.287,98.6216,99.1324,0.000675584,0.070437,20.9724,0.960844,-0.0462129,0.0,0.0
1635,408.5,47.615,50.4523,158.47,98.6359,99.3951,0.000572025,0.0701685,20.9726,0.970853,-0.0685941,0.0,0.0
1640,409.75,47.049,50.171,156.359,98.6564,99.032,0.000463725,0.0699503,20.9726,0.970853,-0.0339872,0.0,0.0
1645,411,46.6207,50.0095,158.13,98.675,98.918,0.000355431,0.0698251,20.9727,0.950835,-0.0220011,0.0,0.0
1650,412.25,46.2591,49.0429,160.021,98.6881,99.421,0.000292091,0.069785,20.9727,0.970853,-0.0661879,0.0,0.0
1655,413.5,45.6502,48.1099,162.539,98.7059,99.771,0.000274757,0.069766,20.9727,0.960844,-0.0960103,0.0,0.0
1660,414.75,45.095,47.1932,157.351,98.7451,99.8185,0.000271184,0.0696972,20.9727,0.970853,-0.0967196,0.0,0.0
1665,416,45.0512,46.3828,156.648,98.7645,99.6547,0.000270444,0.0695344,20.9727,0.960844,-0.0802716,0.0,0.0
1670,417.25,44.0739,45.753,155.844,98.7716,99.7111,0.000259863,0.0693897,20.973,0.980861,-0.0846885,0.0,0.0
1675,418.5,44.1398,45.0915,163.417,98.8013,100.275,0.000237706,0.0692734,20.9735,0.970853,-0.132424,0.0,0.0
1680,419.75,43.1429,44.5831,155.203,98.829,100.004,0.000204196,0.0690839,20.9737,0.970853,-0.10576,0.0,0.0
1685,421,42.9279,43.9843,157.787,98.8369,100.091,0.000155198,0.0689108,20.9739,0.980861,-0.112815,0.0,0.0
1690,422.25,42.633,43.7802,158.659,98.8662,99.4712,0.000100764,0.0687478,20.974,0.99087,-0.0545792,0.0,0.0
1695,423.5,42.4913,42.9619,160.063,98.8856,100.248,6.49534e-05,0.0686374,20.9741,0.970853,-0.122383,0.0,0.0
1700,424.75,41.951,41.8574,160.537,98.922,99.9344,5.12847e-05,0.0685033,20.974,0.970853,-0.0910896,0.0,0.0
1705,426,40.9522,42.3265,158.537,98.9441,99.861,5.2237e-05,0.0683904,20.9737,0.970853,-0.0825142,0.0,0.0
1710,427.25,40.807,41.3109,157.983,98.9576,100.022,7.88636e-05,0.0682939,20.974,0.970853,-0.0956816,0.0,0.0
1715,428.5,40.4566,40.9101,156.979,98.9714,100.475,0.000131545,0.0682406,20.9746,0.970853,-0.1349,0.0,0.0
1720,429.75,40.5571,40.1347,159.787,99.0055,99.5203,0.000180335,0.0681617,20.975,0.960844,-0.0463957,0.0,0.0
1725,431,39.6713,40.1415,157.622,99.0055,100.39,0.000194386,0.0681342,20.9746,0.960844,-0.124186,0.0,0.0
1730,432.25,39.5691,40.3592,154.905,99.0197,100.254,0.000184238,0.0680409,20.974,0.980861,-0.110773,0.0,0.0
1735,433.5,39.4814,39.4055,160.289,99.026,100.298,0.000167466,0.0679463,20.9737,0.980861,-0.114164,0.0,0.0
1740,434.75,38.2473,37.9807,157.649,99.0355,100.233,0.00013843,0.0678966,20.9736,0.970853,-0.107516,0.0,0.0
1745,436,38.5377,38.4007,157.01,99.0332,100.551,0.000105272,0.0679228,20.9741,0.960844,-0.136095,0.0,0.0
1750,437.25,38.5595,38.0991,155.173,99.0339,101.007,8.43493e-05,0.067925,20.975,0.960844,-0.176452,0.0,0.0
1755,438.5,37.4393,36.852,159.918,99.0209,100.784,8.29581e-05,0.0679213,20.9756,0.970853,-0.157903,0.0,0.0
1760,439.75,37.6092,37.5033,160.379,99.0126,100.134,9.03456e-05,0.0679023,20.9759,0.970853,-0.100725,0.0,0.0
1765,441,37.6071,37.0718,156.462,98.9861,100.343,0.000112074,0.0679213,20.9755,0.970853,-0.121771,0.0,0.0
1770,442.25,37.4392,37.39,160.654,98.9766,100.172,8.85937e-05,0.067917,20.9752,0.980861,-0.107429,0.0,0.0
1775,443.5,36.8658,36.6077,156.165,98.9556,99.7134,3.08936e-05,0.0678359,20.975,0.970853,-0.068247,0.0,0.0
1780,444.75,36.4706,36.1362,157.213,98.9358,100.185,-2.62328e-05,0.0676961,20.9749,0.970853,-0.112217,0.0,0.0
1785,446,36.8758,35.728,157.867,98.882,100.092,-7.71914e-05,0.0675636,20.9749,0.980861,-0.108768,0.0,0.0
1790,447.25,36.1867,35.8762,155.409,98.8432,100.135,-0.000101254,0.0674623,20.9753,1.00088,-0.116177,0.0,0.0
1795,448.5,35.834,35.3889,158.438,98.7874,99.917,-8.24338e-05,0.0673737,20.976,0.980861,-0.101709,0.0,0.0
1800,449.75,35.9089,35.2652,163.881,98.7221,99.902,-2.95806e-05,0.067287,20.9764,0.980861,-0.106274,0.0,0.0
1805,451,35.4841,34.9806,155.589,98.6655,100.048,4.43158e-05,0.0671689,20.9767,0.980861,-0.124434,0.0,0.0
1810,452.25,35.5225,34.6514,160.862,98.5872,99.8533,0.000122268,0.0670458,20.9768,0.980861,-0.11415,0.0,0.0
1815,453.5,35.2916,33.9373,157.532,98.5057,100.233,0.000206073,0.0669973,20.9769,0.980861,-0.15547,0.0,0.0
1820,454.75,34.6151,34.2802,163.271,98.4107,99.9557,0.00026397,0.0669687,20.977,0.970853,-0.139344,0.0,0.0
1825,456,35.0478,34.4081,160.295,98.3268,99.1004,0.000290736,0.0668732,20.977,0.960844,-0.0700997,0.0,0.0
1830,457.25,34.6866,33.5769,159.241,98.2536,99.0308,0.000293976,0.0667586,20.977,0.970853,-0.0704834,0.0,0.0
1835,458.5,34.0972,33.2668,161.275,98.1531,99.4307,0.000279714,0.066726,20.977,0.970853,-0.115683,0.0,0.0
1840,459.75,34.484,33.7033,164.983,98.0609,99.2842,0.000250837,0.0667032,20.977,0.970853,-0.110908,0.0,0.0
1845,461,34.1117,32.7275,161.666,97.9809,99.5222,0.000226039,0.0666419,20.977,0.970853,-0.139617,0.0,0.0
1850,462.25,34.0131,33.0435,163.817,97.8678,98.9845,0.000210579,0.0666243,20.977,0.980861,-0.10149,0.0,0.0
1855,463.5,33.7261,32.6753,163.4,97.7867,99.2537,0.000186241,0.0666092,20.9774,0.970853,-0.133209,0.0,0.0
1860,464.75,33.4367,32.7077,161.808,97.6885,99.2692,0.000151234,0.0665474,20.9779,0.980861,-0.143583,0.0,0.0
1865,466,33.0452,32.2619,161.273,97.592,99.4392,0.00012305,0.0666159,20.9782,0.980861,-0.167733,0.0,0.0
1870,467.25,32.9742,32.2313,160.954,97.5033,99.3097,0.000105965,0.0666956,20.9782,0.980861,-0.164212,0.0,0.0
1875,468.5,32.8966,32.1417,158.525,97.4127,98.5205,0.000122011,0.0666366,20.978,0.99087,-0.101154,0.0,0.0
1880,469.75,31.7856,30.939,161.653,97.33,98.084,0.000151776,0.0665284,20.978,0.970853,-0.0690282,0.0,0.0
1885,471,32.7591,31.3251,158.316,97.2572,98.9586,0.000147417,0.0665323,20.9779,0.99087,-0.155134,0.0,0.0
1890,472.25,33.0266,31.1806,157.995,97.1978,98.2895,0.000121564,0.0664839,20.9779,0.970853,-0.0999072,0.0,0.0
1895,473.5,31.5875,29.9639,167.103,97.123,98.4367,8.00149e-05,0.0664336,20.9779,0.980861,-0.120179,0.0,0.0
1900,474.75,32.317,30.9019,161.526,97.0843,98.4853,5.01352e-05,0.0663638,20.9778,0.99087,-0.128173,0.0,0.0
1905,476,32.1634,30.2559,157.843,97.0387,98.2671,1.36952e-06,0.0661964,20.9778,0.99087,-0.11252,0.0,0.0
1910,477.25,31.0239,30.0417,156.142,97.0249,97.6374,-5.09201e-05,0.066005,20.9778,0.99087,-0.0562911,0.0,0.0
1915,478.5,31.3949,30.3179,160.655,96.9881,98.6951,-8.56524e-05,0.0658911,20.9788,0.970853,-0.156071,0.0,0.0
1920,479.75,31.5938,30.2318,159.448,96.9826,98.3335,-0.00011259,0.065796,20.9793,0.980861,-0.123748,0.0,0.0
1925,481,31.5656,30.7813,158.462,96.9857,97.8143,-0.000116867,0.0658261,20.9796,0.970853,-0.0760994,0.0,0.0
1930,482.25,31.976,30.4389,155.07,96.9885,98.5186,-9.33473e-05,0.0657864,20.9798,0.980861,-0.140019,0.0,0.0
1935,483.5,31.57,29.8702,155.864,97.0186,98.3861,-5.46919e-05,0.0656984,20.9799,0.99087,-0.125206,0.0,0.0
1940,484.75,31.238,30.1277,164.316,97.0613,98.1164,-1.28817e-05,0.0656381,20.98,0.99087,-0.0967153,0.0,0.0
1945,486,31.1263,29.636,163.022,97.1171,98.4548,4.65288e-05,0.0656559,20.9803,0.970853,-0.122375,0.0,0.0
1950,487.25,31.2488,29.5785,160.634,97.167,98.0716,0.000133241,0.0657342,20.9806,1.00088,-0.0828974,0.0,0.0
1955,488.5,30.9717,29.2919,158.591,97.2362,98.4761,0.000194724,0.0657096,20.9811,0.980861,-0.113341,0.0,0.0
1960,489.75,30.6039,29.0768,161.39,97.3154,98.9389,0.00024126,0.0656026,20.9811,0.980861,-0.148005,0.0,0.0
1965,491,31.005,29.8885,160.92,97.4206,98.8786,0.000288477,0.0654985,20.9805,0.970853,-0.132884,0.0,0.0
1970,492.25,31.1131,29.2803,152.028,97.4907,98.1172,0.00031296,0.0653936,20.9807,0.970853,-0.0573036,0.0,0.0
1975,493.5,30.778,29.3023,164.833,97.6034,99.1212,0.000280129,0.0653126,20.9812,0.970853,-0.138034,0.0,0.0
1980,494.75,30.6152,29.2098,159.692,97.6933,98.9172,,0.0652309,,0.960844,-0.111378,0.0,0.0
1985,496,30.7544,29.3748,161.646,97.7855,98.9238,,0.0651781,,0.970853,-0.103533,0.0,0.0
1990,497.25,30.3653,29.0949,161.373,97.8646,99.0034,,0.0652676,,0.960844,-0.10349,0.0,0.0
1995,498.5,30.3803,28.9356,164.258,97.9623,99.7559,,,,0.960844,-0.162299,0.0,0.0
2000,499.75,30.0357,28.6327,161.277,98.0605,99.054,,,,0.99087,-0.090175,0.0,0.0
2005,501,30.2151,28.7957,164.744,98.1376,99.5466,,,,0.99087,-0.12751,0.0,0.0
2010,502.25,29.0456,28.0165,156.427,98.1931,98.9458,,,,0.99087,-0.0683163,0.0,0.0
2015,503.5,29.6128,28.1685,158.698,98.2706,99.5346,,,,0.99087,-0.114322,0.0,0.0
2020,504.75,29.806,28.365,160.724,98.3118,99.654,,,,1.00088,-0.121298,0.0,0.0
2023,505.5,28.7642,27.592,161.284,98.3359,99.8301,,,,0.99087,-0.134901,0.0,0.0