File: 01_Data/Tyvek_Wrap/Cone/Tyvek_Wrap_Cone_HF75Scan_220308_R2.csv
Names,Time,Stack TC,Smoke TC,Exh Press,Smoke Comp,Smoke Meas,CO Meter,CO2 Meter,O2 Meter,Sample Mass,Ext Coeff,Start Test,Flame Verif
Chan Gain,,500,500,1,1,1,1,1,1,1,1,1.0,1.0
Offset,,0,0,0.134161,0,0,0,0,0,0,0,0.0,0.0
Gain,,1,1,25.011,15.9695,16.7489,1,1,1,1.00099,1.01863,1.0,1.0
Units,sec,C,C,Pa,%,%,%,%,%,g,/m,,
Baseline,,41.2646,43.333,142.296,119.98,116.218,0.000822973,0.059162,20.9979,-836.488,0.284701,,
2,0.25,41.0003,42.8977,142.336,119.636,115.808,0.000815956,0.0640752,20.9926,194.173,0.290566,0.0,0.0
4,0.75,40.952,43.0204,142.154,119.625,115.244,0.000822941,0.0645422,20.9922,194.073,0.33337,0.0,0.0
6,1.25,40.7376,42.8027,140.22,119.594,116.403,0.000828599,0.06494,20.9918,194.173,0.24161,0.0,0.0
8,1.75,40.2705,42.7215,142.019,119.609,115.921,0.000833182,0.0652622,20.9916,194.083,0.279815,0.0,0.0
10,2.25,40.5264,42.5666,147.121,119.574,116.926,0.000858122,0.0655507,20.9914,194.143,0.200144,0.0,0.0
12,2.75,40.5951,42.815,141.784,119.583,115.816,0.000897429,0.0657843,20.9916,194.123,0.286005,0.0,0.0
14,3.25,40.3321,43.0224,140.876,119.558,115.162,0.000942757,0.0660834,20.9917,194.133,0.334728,0.0,0.0
16,3.75,40.0741,42.7366,140.941,119.557,116.122,0.000991613,0.0663257,20.9914,194.113,0.260485,0.0,0.0
18,4.25,40.2927,42.4579,141.432,119.55,115.481,0.00103119,0.0665219,20.9912,194.103,0.309471,0.0,0.0
20,4.75,40.0087,42.0922,139.057,119.544,115.264,0.00112067,0.0668174,20.9907,194.113,0.325743,0.0,0.0
22,5.25,40.907,42.5036,143.334,119.516,114.647,0.00119314,0.0670568,20.9902,194.113,0.371585,0.0,0.0
24,5.75,40.2826,42.2726,144.441,119.506,114.54,0.00131672,0.0672651,20.9897,194.113,0.379265,0.0,0.0
26,6.25,40.6318,42.0844,143.791,119.486,113.466,0.00141681,0.0674469,20.9889,194.113,0.461938,0.0,0.0
28,6.75,40.2139,42.4123,142.243,119.49,113.377,0.00148787,0.0675941,20.9886,194.093,0.469201,0.0,0.0
30,7.25,41.2114,42.5979,140.081,119.496,113.46,0.00160938,0.0676172,20.988,194.103,0.463191,0.0,0.0
32,7.75,40.5239,42.8867,139.173,119.495,112.901,0.00171749,0.0676359,20.9875,194.093,0.507147,0.0,0.0
34,8.25,40.5244,42.2194,143.046,119.486,112.96,0.00181378,0.0678029,20.9862,194.063,0.501877,0.0,0.0
36,8.75,40.2812,41.9304,140.145,119.489,112.533,0.00188402,0.0680749,20.9852,194.073,0.535884,0.0,0.0
38,9.25,40.5642,42.7917,142.132,119.49,114.315,0.00193394,0.0687585,20.9826,194.083,0.395661,0.0,0.0
40,9.75,40.3836,43.2075,140.122,119.502,113.875,0.00195824,0.0692694,20.9793,194.043,0.430925,0.0,1.0
42,10.25,40.6204,42.6337,140.687,119.496,114.66,0.00196341,0.0701431,20.9756,194.053,0.369171,0.0,1.0
44,10.75,41.0776,43.056,143.226,119.494,114.276,0.00196759,0.0720366,20.9726,194.243,0.398949,0.0,1.0
46,11.25,40.5328,42.7588,141.443,119.498,114.337,0.0019381,0.0744075,20.9702,194.163,0.394526,0.0,1.0
48,11.75,40.8617,42.8195,138.994,119.504,114.9,0.00188462,0.0770814,20.9656,194.093,0.351013,0.0,1.0
50,12.25,40.7707,42.7062,138.574,119.503,114.988,0.00182585,0.080051,20.9619,194.103,0.344105,0.0,1.0
52,12.75,40.5634,42.7282,142.815,119.529,114.392,0.00176435,0.0831798,20.9566,194.073,0.392509,0.0,1.0
54,13.25,40.8722,42.8271,139.455,119.509,114.304,0.0017126,0.0857141,20.9524,194.083,0.397921,0.0,1.0
56,13.75,41.0323,43.1861,141.203,119.516,115.002,0.00168962,0.0894674,20.9494,194.063,0.344017,0.0,1.0
58,14.25,40.7174,43.395,139.387,119.538,114.533,0.00165033,0.0925075,20.9443,194.083,0.382152,0.0,1.0
60,14.75,40.8902,43.2182,139.892,119.521,113.346,0.0016185,0.0959797,20.9384,194.073,0.473954,0.0,1.0
62,15.25,40.2606,42.4932,138.735,119.531,114.665,0.00159273,0.0997009,20.9319,194.053,0.37132,0.0,0.0
64,15.75,40.5593,42.5849,137.147,119.53,112.741,0.00156695,0.102715,20.9254,194.023,0.522441,0.0,0.0
66,16.25,40.6582,42.8549,135.59,119.546,112.499,0.00154608,0.106492,20.9192,194.003,0.542902,0.0,0.0
68,16.75,40.9957,43.1697,133.883,119.54,112.188,0.00151817,0.108103,20.9141,193.993,0.567151,0.0,0.0
70,17.25,41.2992,42.8561,137.586,119.55,112.085,0.00149556,0.111161,20.91,194.013,0.57618,0.0,0.0
72,17.75,41.2568,43.3085,137.181,119.544,112.015,0.00147725,0.113912,20.9067,194.003,0.581212,0.0,0.0
74,18.25,41.3817,43.301,138.986,119.565,112.548,0.00146242,0.116013,20.904,193.983,0.54039,0.0,0.0
76,18.75,41.453,43.4865,136.591,119.533,113.03,0.00145041,0.117715,20.9018,193.993,0.499878,0.0,0.0
78,19.25,41.6348,43.2121,137.929,119.57,112.269,0.00145779,0.118572,20.9007,193.993,0.563015,0.0,0.0
80,19.75,41.7782,43.6998,138.604,119.574,112.717,0.00146377,0.119266,20.9005,193.983,0.527664,0.0,0.0
82,20.25,41.4577,43.772,140.912,119.582,113.527,0.00148206,0.119199,20.9015,193.963,0.464294,0.0,0.0
84,20.75,41.7455,43.8736,139.457,119.583,114.227,0.00149688,0.118579,20.9033,193.973,0.409494,0.0,0.0
86,21.25,41.7671,43.5416,137.054,119.61,114.98,0.00151745,0.118076,20.9048,193.963,0.352718,0.0,0.0
88,21.75,41.5243,43.868,136.267,119.594,114.971,0.00153411,0.116002,20.9091,193.963,0.352267,0.0,0.0
90,22.25,42.139,43.6473,140.754,119.612,115.358,0.00155077,0.114322,20.9125,193.963,0.323517,0.0,0.0
92,22.75,42.245,44.102,137.215,119.604,114.922,0.00156712,0.112249,20.9165,193.963,0.356848,0.0,0.0
94,23.25,41.3725,44.3831,139.507,119.615,115.068,0.00158037,0.109928,20.9208,193.943,0.346252,0.0,0.0
96,23.75,41.8511,43.9953,136.073,119.608,115.075,0.00158987,0.106922,20.9242,193.933,0.345227,0.0,0.0
98,24.25,42.1249,43.6986,144.505,119.626,115.413,0.00159757,0.104486,20.9283,193.943,0.320338,0.0,0.0
100,24.75,41.7832,44.0002,139.133,119.627,115.724,0.00160381,0.102514,20.9327,193.943,0.29638,0.0,0.0
102,25.25,42.266,43.8692,141.725,119.64,116.601,0.0015992,0.0997928,20.9363,193.933,0.229901,0.0,0.0
104,25.75,42.1534,44.119,142.456,119.636,115.37,0.00158678,0.0975889,20.9404,193.893,0.324467,0.0,0.0
106,26.25,42.031,43.8483,139.672,119.651,115.873,0.00156578,0.0951531,20.9438,193.913,0.286726,0.0,0.0
108,26.75,42.0013,44.2789,141.923,119.644,115.102,0.00153892,0.09318,20.947,193.923,0.345817,0.0,0.0
110,27.25,42.0568,43.9973,141.945,119.673,114.915,0.00151716,0.0915818,20.95,193.913,0.362536,0.0,0.0
112,27.75,41.8758,44.1402,140.077,119.673,114.979,0.00147999,0.0900108,20.9529,193.913,0.357569,0.0,0.0
114,28.25,41.9703,44.1322,138.802,119.68,116.605,0.00144988,0.0884894,20.9552,193.943,0.232608,0.0,0.0
116,28.75,41.8624,44.5321,139.383,119.671,115.66,0.00141694,0.087257,20.9576,193.913,0.304633,0.0,0.0
118,29.25,42.0883,44.1149,140.707,119.698,116.157,0.00139026,0.0858306,20.9599,193.933,0.268331,0.0,0.0
120,29.75,42.0443,44.0724,144.256,119.679,115.735,0.00137109,0.0846753,20.962,193.933,0.299445,0.0,0.0
122,30.25,41.9451,44.1753,144.257,119.698,115.742,0.00135557,0.0835738,20.964,193.933,0.300311,0.0,0.0
124,30.75,41.9683,44.3884,139.792,119.691,115.955,0.00134543,0.0826816,20.9655,193.933,0.28329,0.0,0.0
126,31.25,42.2414,44.1608,145.385,119.713,115.672,0.00133722,0.0818486,20.9668,193.943,0.306775,0.0,0.0
128,31.75,42.1532,44.2717,139.564,119.707,115.136,0.00133058,0.0811738,20.9678,193.953,0.34789,0.0,0.0
130,32.25,41.3685,44.9239,139.591,119.724,115.365,0.00133291,0.0805169,20.9689,193.943,0.331409,0.0,0.0
132,32.75,42.127,44.3079,139.497,119.718,115.708,0.00134174,0.0799848,20.9699,193.933,0.304448,0.0,0.0
134,33.25,42.6211,44.16,140.397,119.744,115.68,0.00134761,0.079532,20.9708,193.933,0.308471,0.0,0.0
136,33.75,42.2216,44.5789,139.419,119.737,115.208,0.0013512,0.0791457,20.9715,193.923,0.344592,0.0,0.0
138,34.25,41.8951,44.256,139.915,119.758,116.081,0.00134319,0.0788327,20.9721,193.923,0.278626,0.0,0.0
140,34.75,41.9883,44.0743,142.184,119.743,115.883,0.00132686,0.0784552,20.9725,193.913,0.292814,0.0,0.0
142,35.25,42.029,44.3125,140.381,119.761,115.549,0.00129564,0.0781493,20.9729,193.913,0.319971,0.0,0.0
144,35.75,41.9693,44.0956,140.687,119.75,115.382,0.00125416,0.0778435,20.9732,193.893,0.33203,0.0,0.0
146,36.25,42.0864,44.1471,140.664,119.773,115.507,0.0012058,0.0775436,20.9734,193.913,0.32401,0.0,0.0
148,36.75,42.0872,44.5353,144.252,119.762,115.904,0.00115334,0.0773007,20.9736,193.923,0.29254,0.0,0.0
150,37.25,42.2273,44.546,148.177,119.783,116.04,0.001107,0.077035,20.9738,193.913,0.283628,0.0,0.0
152,37.75,42.4108,44.3226,142.093,119.779,115.461,0.001066,0.0768633,20.9739,193.893,0.328118,0.0,0.0
154,38.25,41.9784,44.4861,139.698,119.811,115.258,0.00103279,0.0767634,20.974,193.893,0.346198,0.0,0.0
156,38.75,42.1542,44.5399,140.709,119.81,116.075,0.0010245,0.0766825,20.9741,193.893,0.282951,0.0,0.0
158,39.25,41.8532,43.9969,140.615,119.823,115.456,0.00103454,0.0767548,20.9742,193.883,0.331709,0.0,0.0
160,39.75,41.7113,44.0571,141.118,119.799,115.626,0.00106709,0.0768497,20.9742,193.873,0.316801,0.0,0.0
162,40.25,41.9155,44.5094,138.612,119.824,115.576,0.00111543,0.0769592,20.9738,193.873,0.322527,0.0,0.0
164,40.75,42.131,44.5642,141.493,119.819,115.695,0.0011726,0.0770479,20.9735,193.853,0.312925,0.0,0.0
166,41.25,42.0916,44.8559,143.09,119.83,115.707,0.00123512,0.0771335,20.9733,193.873,0.312892,0.0,0.0
168,41.75,41.9755,44.1997,140.626,119.818,115.75,0.00128962,0.0772029,20.973,193.883,0.308629,0.0,0.0
170,42.25,42.0525,44.4903,137.567,119.839,115.898,0.00133724,0.0772301,20.9733,193.863,0.298796,0.0,0.0
172,42.75,42.1347,44.5856,140.902,119.837,115.618,0.00135754,0.0772259,20.9734,193.863,0.320232,0.0,0.0
174,43.25,42.2025,43.7267,140.632,119.849,115.17,0.00137636,0.0772226,20.9736,193.863,0.355812,0.0,0.0
176,43.75,41.9803,44.3554,142.464,119.843,115.531,0.0013916,0.0771647,20.9738,193.863,0.327386,0.0,0.0
178,44.25,42.7006,44.2349,143.248,119.877,115.858,0.00139173,0.0770961,20.9739,193.863,0.304704,0.0,0.0
180,44.75,42.4593,44.6782,141.153,119.853,115.812,0.00138083,0.0770209,20.974,193.863,0.306433,0.0,0.0
182,45.25,42.503,44.6298,138.507,119.864,115.932,0.00137201,0.0769745,20.9741,193.843,0.29797,0.0,0.0
184,45.75,42.3458,44.5041,143.704,119.868,116.18,0.00135509,0.0769616,20.9742,193.813,0.279249,0.0,0.0
186,46.25,42.186,44.0477,141.739,119.886,116.172,0.00134138,0.0769395,20.9742,193.833,0.281186,0.0,0.0
188,46.75,42.2225,44.6199,139.21,119.884,115.159,0.00133478,0.0769724,20.9743,193.843,0.35934,0.0,0.0
190,47.25,41.874,43.7742,140.805,119.905,115.78,0.00133348,0.0770448,20.9743,193.833,0.312768,0.0,0.0
192,47.75,41.966,44.0175,138.116,119.891,115.871,0.00133243,0.0771035,20.9739,193.843,0.304808,0.0,0.0
194,48.25,42.2988,44.6071,139.032,119.917,115.501,0.00133351,0.0773027,20.9736,193.823,0.335279,0.0,0.0
196,48.75,42.3473,44.4551,141.131,119.917,116.744,0.00133612,0.077464,20.9731,193.843,0.239627,0.0,0.0
198,49.25,42.3446,44.9599,138.327,119.944,116.061,0.00133823,0.0776964,20.9727,193.843,0.29404,0.0,0.0
200,49.75,42.0378,44.4994,138.383,119.924,115.636,0.00133994,0.0779762,20.9724,193.843,0.325316,0.0,0.0
202,50.25,42.0937,44.9751,140.518,119.931,115.691,0.00135111,0.0782027,20.9722,193.863,0.321632,0.0,0.0
204,50.75,42.3165,44.7627,139.494,119.94,115.456,0.00136015,0.0784444,20.972,193.853,0.340467,0.0,0.0
206,51.25,42.07,44.4479,139.756,119.964,115.707,0.00138214,0.0786924,20.9718,193.843,0.32288,0.0,0.0
208,51.75,42.272,44.0144,138.236,119.94,116.775,0.00139995,0.0789151,20.9717,193.823,0.238983,0.0,0.0
210,52.25,42.6944,44.8699,142.389,119.949,115.398,0.00141438,0.0791151,20.9716,193.843,0.345664,0.0,0.0
212,52.75,42.7866,44.5434,137.938,119.962,115.943,0.00143251,0.0792844,20.9715,193.833,0.304478,0.0,0.0
214,53.25,42.0242,44.9695,142.324,119.971,115.61,0.00145298,0.0794281,20.9714,193.823,0.330811,0.0,0.0
216,53.75,42.3611,44.3041,140.799,119.976,115.887,0.0014702,0.0795154,20.9714,193.823,0.309828,0.0,0.0
218,54.25,42.7957,44.3893,139.591,119.981,116.419,0.00148474,0.0795599,20.9713,193.813,0.269335,0.0,0.0
220,54.75,42.4072,44.5535,139.424,119.987,116.372,0.00149651,0.079596,20.9713,193.823,0.273379,0.0,0.0
222,55.25,42.1578,44.4841,140.571,119.997,116.4,0.00150849,0.0794734,20.9713,193.833,0.271908,0.0,0.0
224,55.75,42.1662,44.7923,143.099,120.001,115.988,0.00151691,0.0793741,20.9712,193.813,0.303956,0.0,0.0
226,56.25,42.4606,44.6959,141.455,120.01,115.439,0.00152257,0.0792937,20.9712,193.823,0.347035,0.0,0.0
228,56.75,42.2788,44.7355,139.925,120.013,115.803,0.00152393,0.0790354,20.9712,193.833,0.319128,0.0,0.0
230,57.25,42.6923,44.706,141.539,120.019,115.587,0.00152214,0.0788261,20.9716,193.833,0.336182,0.0,0.0
232,57.75,42.4542,44.541,141.106,120.032,115.563,0.00151876,0.0785325,20.972,193.833,0.339059,0.0,0.0
234,58.25,41.5281,45.4553,139.27,120.042,115.465,0.00151428,0.0782947,20.9723,193.803,0.347375,0.0,0.0
236,58.75,42.4988,44.826,140.646,120.042,114.936,0.00151066,0.0778539,20.9725,193.803,0.388373,0.0,0.0
238,59.25,42.741,45.1493,138.987,120.045,115.902,0.00150901,0.0774969,20.9729,193.783,0.313763,0.0,0.0
240,59.75,42.5023,44.9096,141.107,120.062,115.441,0.00150883,0.0769873,20.9735,193.783,0.350683,0.0,0.0
242,60.25,41.9413,44.881,137.065,120.064,115.365,0.00150933,0.0765744,20.9739,193.793,0.356725,0.0,0.0
244,60.75,42.0303,44.4741,139.545,120.071,116.058,0.00151031,0.0761161,20.9747,193.793,0.303747,0.0,0.0
246,61.25,42.6438,44.4869,140.623,120.074,115.278,0.00151047,0.0757448,20.9754,193.793,0.364219,0.0,0.0
248,61.75,42.1726,44.7601,144.513,120.087,116.606,0.00151001,0.0752651,20.9759,193.803,0.262821,0.0,0.0
250,62.25,41.9221,45.1941,143.957,120.076,115.844,0.00151209,0.0748766,20.9765,193.803,0.320614,0.0,0.0
252,62.75,42.0233,44.7654,141.883,120.099,116.527,0.00151297,0.0744459,20.9769,193.803,0.2698,0.0,0.0
254,63.25,42.9888,44.6801,142.846,120.093,115.996,0.00151449,0.0739928,20.9776,193.793,0.310142,0.0,0.0
256,63.75,42.3706,45.0912,138.52,120.13,116.119,0.00151938,0.0735968,20.9781,193.762,0.303491,0.0,0.0
258,64.25,42.6901,44.9991,137.434,120.097,115.923,0.00152335,0.07325,20.9786,193.762,0.316027,0.0,0.0
260,64.75,42.2623,45.0929,139.062,120.121,115.59,0.00153522,0.0729328,20.9788,193.773,0.343601,0.0,0.0
262,65.25,42.13,45.2013,144.134,120.125,116.657,0.00154483,0.0726434,20.979,193.752,0.261807,0.0,0.0
264,65.75,42.6132,44.3495,142.693,120.137,115.668,0.00156882,0.07252,20.9791,193.773,0.338682,0.0,0.0
266,66.25,42.8124,44.112,141.143,120.133,115.739,0.0015834,0.0722677,20.9792,193.773,0.332944,0.0,0.0
268,66.75,42.0966,45.0018,141.78,120.148,116.046,0.00160833,0.0720633,20.9793,193.793,0.310344,0.0,0.0
270,67.25,42.8113,44.0352,141.036,120.14,115.078,0.00163342,0.071787,20.9796,193.773,0.384658,0.0,0.0
272,67.75,42.0864,45.0227,138.529,120.164,116.711,0.00165375,0.0715632,20.98,193.773,0.26052,0.0,0.0
274,68.25,42.5949,44.3773,142.174,120.151,115.902,0.00166532,0.0713312,20.9804,193.773,0.321706,0.0,0.0
276,68.75,41.9815,44.5679,138.321,120.175,115.777,0.00167468,0.0709982,20.9807,193.762,0.333139,0.0,0.0
278,69.25,43.1102,44.4852,143.187,120.164,115.896,0.00167983,0.0709086,20.9809,193.762,0.323158,0.0,0.0
280,69.75,42.5618,44.6989,140.087,120.188,116.419,0.00168399,0.0707337,20.9811,193.773,0.28471,0.0,0.0
282,70.25,42.718,44.5373,143.82,120.184,114.873,0.00168736,0.0705725,20.9812,193.773,0.403809,0.0,0.0
284,70.75,42.1401,44.5823,137.987,120.202,115.9,0.00169254,0.0704274,20.9816,193.773,0.325665,0.0,0.0
286,71.25,42.0732,44.8953,139.942,120.197,116.421,0.00169674,0.0702969,20.9822,193.762,0.285241,0.0,0.0
288,71.75,42.8532,44.2864,140.512,120.216,116.052,0.00170078,0.0702462,20.9826,193.752,0.314987,0.0,0.0
290,72.25,42.2292,44.6133,142.649,120.205,115.909,0.00170463,0.0702051,20.9829,193.762,0.325177,0.0,0.0
292,72.75,42.5955,45.059,138.529,120.226,115.828,0.00170776,0.0701718,20.9832,193.773,0.333001,0.0,0.0
294,73.25,42.4537,45.1282,137.804,120.218,116.743,0.00171886,0.0703924,20.9832,193.773,0.262116,0.0,0.0
296,73.75,41.897,44.5638,139.265,120.24,116.003,0.00172785,0.0705711,20.983,193.762,0.320577,0.0,0.0
298,74.25,43.0729,44.3011,142.834,120.237,115.805,0.00173964,0.0708461,20.9828,193.773,0.33557,0.0,0.0
300,74.75,42.6792,44.1898,139.807,120.256,115.971,0.00175325,0.0711862,20.9827,193.752,0.324174,0.0,0.0
302,75.25,42.6735,44.576,138.933,120.244,116.192,0.00176299,0.0714617,20.9826,193.762,0.306308,0.0,0.0
304,75.75,42.334,45.12,142.39,120.259,115.803,0.00176972,0.0719189,20.9821,193.762,0.337397,0.0,0.0
306,76.25,42.3732,44.5251,138.468,120.25,116.123,0.00177517,0.0722892,20.9816,193.773,0.312014,0.0,0.0
308,76.75,42.0735,44.3949,143.546,120.275,116.224,0.00177346,0.0726544,20.981,193.752,0.306076,0.0,0.0
310,77.25,42.4615,44.9906,138.967,120.264,115.785,0.00177208,0.0730089,20.9804,193.762,0.339176,0.0,0.0
312,77.75,42.2452,45.1366,137.985,120.286,116.506,0.00175871,0.0733468,20.9798,193.752,0.285281,0.0,0.0
314,78.25,42.5102,44.8982,140.953,120.29,115.95,0.00174789,0.0736662,20.9794,193.752,0.328323,0.0,0.0
316,78.75,42.3917,44.7754,142.073,120.295,116.832,0.00173461,0.0739249,20.979,193.742,0.260996,0.0,0.0
318,79.25,42.6768,44.6208,140.399,120.285,116.221,0.0017198,0.0742171,20.9787,193.742,0.307073,0.0,0.0
320,79.75,42.3626,45.2909,137.973,120.301,115.989,0.0017078,0.0744538,20.9785,193.712,0.326163,0.0,0.0
322,80.25,42.582,44.8259,140.411,120.292,115.921,0.00169486,0.0746527,20.9783,193.712,0.330717,0.0,0.0
324,80.75,42.2655,44.7475,134.39,120.302,116.526,0.00168148,0.0748204,20.9781,193.752,0.284986,0.0,0.0
326,81.25,42.5277,44.5833,138.073,120.299,116.506,0.00166936,0.0749345,20.978,193.732,0.286222,0.0,0.0
328,81.75,42.4154,44.6404,136.422,120.311,116.122,0.00165838,0.0750073,20.9779,193.722,0.316618,0.0,0.0
330,82.25,42.0388,44.761,142.915,120.303,116.414,0.00164948,0.0750663,20.9778,193.712,0.293607,0.0,0.0
332,82.75,42.4453,44.4234,141.333,120.318,116.918,0.00163616,0.0750727,20.978,193.702,0.256129,0.0,0.0
334,83.25,42.3363,44.6831,140.799,120.316,116.319,0.00162537,0.075078,20.9783,193.692,0.301887,0.0,0.0
336,83.75,42.5781,44.8013,141.478,120.324,115.336,0.00160807,0.0750822,20.9786,193.702,0.378329,0.0,0.0
338,84.25,42.7708,44.7399,142.022,120.324,115.491,0.00159406,0.0749892,20.9788,193.682,0.366298,0.0,0.0
340,84.75,42.4709,44.8961,143.734,120.336,115.757,0.00157781,0.0749139,20.979,193.712,0.346663,0.0,0.0
342,85.25,42.1496,45.0814,136.264,120.332,115.802,0.00156466,0.0747977,20.9792,193.722,0.342906,0.0,0.0
344,85.75,42.7999,44.861,140.585,120.341,116.205,0.00155767,0.0747037,20.9793,193.722,0.31249,0.0,0.0
346,86.25,42.0279,44.5468,140.209,120.346,116.332,0.00155201,0.0745724,20.9794,193.702,0.303112,0.0,0.0
348,86.75,42.2932,44.4259,141.772,120.349,116.458,0.00154742,0.0744661,20.9794,193.702,0.293635,0.0,0.0
350,87.25,42.3414,44.8321,137.777,120.353,116.475,0.001545,0.0743387,20.9795,193.702,0.292667,0.0,0.0
352,87.75,42.3629,45.0138,138.422,120.349,115.927,0.00154419,0.0742354,20.9796,193.712,0.334475,0.0,0.0
354,88.25,42.2276,44.9322,144.524,120.369,116.623,0.00153839,0.0741229,20.9796,193.712,0.282539,0.0,0.0
356,88.75,42.5499,44.7895,138.678,120.355,116.047,0.00152905,0.0740056,20.9801,193.722,0.325731,0.0,0.0
358,89.25,42.596,44.7198,139.956,120.359,116.274,0.00152085,0.0738454,20.9805,193.722,0.308564,0.0,0.0
360,89.75,42.4831,44.84,141.565,120.37,116.159,0.00151362,0.0736569,20.9808,193.732,0.318163,0.0,0.0
362,90.25,43.0771,43.9103,141.061,120.38,116.148,0.00151421,0.0735043,20.981,193.722,0.319752,0.0,0.0
364,90.75,42.7713,44.828,138.437,120.367,117.074,0.00152047,0.0733227,20.9812,193.682,0.247805,0.0,0.0
366,91.25,42.0646,45.1612,140.826,120.393,115.962,0.00154036,0.0731234,20.9814,193.692,0.335053,0.0,0.0
368,91.75,42.3545,45.0633,141.922,120.395,115.668,0.0015698,0.0729621,20.9815,193.692,0.357948,0.0,0.0
370,92.25,42.4744,45.0242,137.285,120.395,116.309,0.00160847,0.0726938,20.9816,193.682,0.308495,0.0,0.0
372,92.75,41.9722,45.3509,144.057,120.403,116.804,0.00165313,0.0723027,20.9817,193.682,0.271103,0.0,0.0
374,93.25,42.9447,44.5441,139.082,120.4,116.545,0.0016893,0.0718297,20.9827,193.682,0.290733,0.0,0.0
376,93.75,42.4904,44.8265,139.459,120.398,116.288,0.0017186,0.0712512,20.9835,193.672,0.310321,0.0,0.0
378,94.25,42.5737,45.0225,142.335,120.406,115.109,0.00176621,0.0706069,20.9841,193.672,0.402006,0.0,0.0
380,94.75,42.844,45.1142,140.599,120.398,115.36,0.00182625,0.0698394,20.985,193.692,0.38193,0.0,0.0
382,95.25,42.6298,44.5873,144.496,120.412,115.214,0.00187488,0.0689966,20.9858,193.722,0.394346,0.0,0.0
384,95.75,41.6947,44.7082,141.308,120.415,115.022,0.00193022,0.0683139,20.9867,193.732,0.40948,0.0,0.0
386,96.25,41.839,44.456,143.164,120.441,116.022,0.00197504,0.067761,20.9876,193.712,0.334026,0.0,0.0
388,96.75,42.2041,44.6365,142.5,120.41,116.38,0.00202362,0.0668057,20.9883,193.722,0.304196,0.0,0.0
390,97.25,42.1113,44.756,142.735,120.436,116.178,0.00206297,0.0660318,20.9889,193.692,0.32163,0.0,0.0
392,97.75,41.682,44.2756,141.616,120.407,116,0.0020973,0.0654051,20.9896,193.692,0.333148,0.0,0.0
394,98.25,42.1635,44.5098,141.654,120.438,115.441,0.00212511,0.0646644,20.9904,193.672,0.378604,0.0,0.0
396,98.75,42.2358,44.1844,137.744,120.418,115.239,0.00214634,0.0640645,20.991,193.692,0.392801,0.0,0.0
398,99.25,41.8437,44.388,141.205,120.438,116.492,0.00216237,0.0634963,20.9915,193.662,0.297705,0.0,0.0
400,99.75,42.0411,44.6117,141.713,120.42,116.235,0.00217278,0.0630361,20.9919,193.662,0.316071,0.0,0.0
402,100.25,42.1864,44.5386,144.432,120.43,115.573,0.00217888,0.0625401,20.9927,193.652,0.367787,0.0,0.0
404,100.75,42.2788,44.3371,140.81,120.425,115.631,0.00218399,0.0621383,20.9934,193.662,0.362922,0.0,0.0
406,101.25,41.6231,44.2316,141.279,120.44,116.273,0.00218414,0.0617841,20.9939,193.672,0.314646,0.0,0.0
408,101.75,41.9174,43.8397,144.628,120.436,115.086,0.0021844,0.0614712,20.9943,193.662,0.405998,0.0,0.0
410,102.25,41.6883,44.0755,140.341,120.446,116.127,0.00217971,0.0612177,20.9946,193.662,0.326321,0.0,0.0
412,102.75,42.139,44.1768,146.004,120.445,114.633,0.0021759,0.0610124,20.9949,193.652,0.441878,0.0,0.0
414,103.25,42.3167,44.5842,142.482,120.445,115.364,0.00217153,0.0608461,20.9951,193.652,0.385125,0.0,0.0
416,103.75,42.0018,44.6837,143.689,120.445,115.614,0.00216682,0.0606703,20.9953,193.672,0.365823,0.0,0.0
418,104.25,41.8052,43.7827,138.314,120.453,115.371,0.00216495,0.060528,20.9954,193.652,0.385186,0.0,0.0
420,104.75,41.7944,44.1296,140.246,120.44,115.666,0.00216518,0.0603982,20.9956,193.662,0.361397,0.0,0.0
422,105.25,41.6879,44.1545,139.242,120.449,115.988,0.00216536,0.0602802,20.9956,193.672,0.337243,0.0,0.0
424,105.75,41.8524,43.9493,141.467,120.456,115.465,0.00217655,0.0601845,20.9957,193.662,0.378082,0.0,0.0
426,106.25,41.7114,44.1402,139.521,120.461,116.531,0.00218562,0.0601071,20.9958,193.662,0.296386,0.0,0.0
428,106.75,41.7966,44.6422,145.174,120.452,116.017,0.00221129,0.0600444,20.9959,193.652,0.335215,0.0,0.0
430,107.25,42.1012,44.4373,142.399,120.464,116.073,0.00223208,0.0599935,20.9961,193.652,0.331789,0.0,0.0
432,107.75,42.0405,44.1645,141.493,120.446,115.969,0.00224892,0.0599524,20.9963,193.642,0.338443,0.0,0.0
434,108.25,42.2341,44.4008,141.974,120.458,115.506,0.0022729,0.0599053,20.9964,193.622,0.375098,0.0,0.0
436,108.75,41.4349,44.3763,138.929,120.458,115.422,0.00230164,0.0598672,20.9965,193.592,0.38159,0.0,0.0
438,109.25,41.2015,43.5489,141.913,120.471,115.733,0.00232879,0.0598584,20.9966,193.592,0.358539,0.0,0.0
440,109.75,41.2846,43.8233,141.567,120.45,115.96,0.00235428,0.0598711,20.9966,193.612,0.339441,0.0,0.0
442,110.25,41.7202,43.7957,140.981,120.472,115.64,0.00238107,0.0598813,20.9967,193.622,0.365758,0.0,0.0
444,110.75,41.7592,44.8526,141.713,120.456,115.992,0.00240277,0.0599033,20.9967,193.632,0.337431,0.0,0.0
446,111.25,41.9974,44.3545,144.737,120.478,115.716,0.00242281,0.0599211,20.9968,193.632,0.360308,0.0,0.0
448,111.75,41.708,44.1057,139.973,120.461,117.031,0.00243904,0.0599283,20.9968,193.642,0.258098,0.0,0.0
450,112.25,42.1191,43.6433,144.631,120.467,115.664,0.00243866,0.0599277,20.9968,193.632,0.363504,0.0,0.0
452,112.75,41.8335,43.8835,142.887,120.449,115.972,0.00243836,0.0599272,20.9968,193.642,0.338498,0.0,0.0
454,113.25,41.7348,43.5624,144.083,120.466,115.907,0.00242389,0.0599268,20.9968,193.642,0.344692,0.0,0.0
456,113.75,41.854,43.7957,141.426,120.45,116.126,0.00239938,0.0599337,20.9969,193.632,0.326725,0.0,0.0
458,114.25,42.1079,43.8067,139.333,120.471,115.862,0.00237952,0.0599457,20.9969,193.632,0.348561,0.0,0.0
460,114.75,41.7818,43.8328,143.934,120.454,116.086,0.00233398,0.0599483,20.9969,193.632,0.330042,0.0,0.0
462,115.25,41.6677,44.2183,140.739,120.464,116.141,0.00229709,0.0599438,20.9969,193.622,0.326597,0.0,0.0
464,115.75,41.4481,44.0675,141.494,120.444,115.479,0.00225882,0.0599114,20.9969,193.622,0.376146,0.0,0.0
466,116.25,41.1268,44.0228,140.497,120.468,115.991,0.00222026,0.0598593,20.9969,193.642,0.33834,0.0,0.0
468,116.75,41.5968,43.9397,139.499,120.448,116.27,0.00218903,0.059817,20.9969,193.612,0.315422,0.0,0.0
470,117.25,41.8271,44.0523,139.366,120.46,116.203,0.00215084,0.0597554,20.9969,193.632,0.321436,0.0,0.0
472,117.75,42.0857,43.9721,142.045,120.461,116.697,0.00210828,0.0597054,20.9973,193.622,0.283658,0.0,0.0
474,118.25,41.7797,44.5956,139.633,120.462,115.979,0.00207381,0.0596866,20.9976,193.632,0.338851,0.0,0.0
476,118.75,42.253,44.0739,142.306,120.441,115.872,0.00201894,0.0596909,20.9979,193.632,0.345571,0.0,0.0
478,119.25,41.6403,43.8378,139.757,120.443,115.551,0.0019745,0.0596943,20.9981,193.612,0.370463,0.0,0.0
480,119.75,41.5609,44.1146,142.297,120.435,115.602,0.00190422,0.059697,20.9983,193.622,0.365972,0.0,0.0
482,120.25,41.5928,44.0411,142.37,120.457,116.925,0.0018473,0.0596582,20.9984,193.632,0.265934,0.0,0.0
484,120.75,41.8688,44.235,140.336,120.446,116.272,0.00177429,0.0596267,20.9985,193.632,0.315158,0.0,0.0
486,121.25,42.2423,43.7515,140.513,120.443,115.297,0.00171515,0.059656,20.9986,193.622,0.390165,0.0,0.0
488,121.75,41.7243,43.929,140.254,120.427,116.693,0.00166724,0.0596798,20.9987,193.622,0.281443,0.0,0.0
490,122.25,41.9758,43.5952,142.853,120.438,115.49,0.00160889,0.0596716,20.999,193.632,0.374842,0.0,0.0
492,122.75,41.6001,44.1598,139.868,120.424,115.587,0.00156162,0.059665,20.9994,193.622,0.366283,0.0,0.0
494,123.25,41.3221,43.9343,141.481,120.437,115.876,0.00152944,0.0596459,20.9998,193.582,0.344963,0.0,0.0
496,123.75,41.4495,44.1029,144.1,120.434,115.639,0.00150338,0.0596305,21.0001,193.622,0.363093,0.0,0.0
498,124.25,41.95,44.3368,140.508,120.421,116.211,0.00149938,0.0596036,21.0001,193.612,0.317993,0.0,0.0
500,124.75,41.4502,43.9078,140.359,120.452,116.384,0.00149614,0.0595688,20.9999,193.612,0.306991,0.0,0.0
502,125.25,41.5575,43.5442,141.79,120.425,115.939,0.00151186,0.0595407,21,193.612,0.339176,0.0,0.0
504,125.75,41.8214,43.7202,141.297,120.417,115.94,0.00152459,0.0595452,21.0002,193.602,0.338594,0.0,0.0
506,126.25,41.8645,43.5553,143.596,120.421,115.758,0.00154347,0.0595489,21.0004,193.612,0.352843,0.0,0.0
508,126.75,41.9225,43.7661,142.648,120.425,115.78,0.00155876,0.0595246,21.0006,193.602,0.351472,0.0,0.0
510,127.25,41.8616,44.0052,140.974,120.417,115.501,0.00157249,0.0595048,21.0008,193.602,0.372457,0.0,0.0
512,127.75,41.7393,44.4693,140.113,120.422,115.974,0.00158481,0.0594744,21.0004,193.592,0.33628,0.0,0.0
514,128.25,41.904,43.9673,141.955,120.431,115.935,0.00159479,0.0594368,21.0002,193.602,0.339998,0.0,0.0
516,128.75,41.7313,44.0577,144.511,120.41,115.432,0.00160287,0.0594064,20.9999,193.602,0.377254,0.0,0.0
518,129.25,41.3436,44.211,139.982,120.405,115.574,0.00160942,0.0593817,21,193.632,0.36594,0.0,0.0
520,129.75,42.0249,43.9976,143.745,120.425,116.244,0.00161407,0.0593685,21.0001,193.612,0.315689,0.0,0.0
522,130.25,41.9634,44.4378,138.867,120.399,116.075,0.00161727,0.059364,21.0002,193.612,0.326862,0.0,0.0
524,130.75,41.7307,43.7201,141.795,120.4,116.22,0.00161986,0.0593603,21.0003,193.612,0.315691,0.0,0.0
526,131.25,41.8612,44.263,144.132,120.386,116.3,0.00161216,0.0593847,21.0003,193.612,0.30855,0.0,0.0
528,131.75,41.4777,44.2083,140.491,120.409,116.071,0.00160593,0.0594044,21.0003,193.602,0.327825,0.0,0.0
530,132.25,41.6857,43.7851,143.709,120.375,115.097,0.00158988,0.0594204,21.0004,193.602,0.400603,0.0,0.0
532,132.75,41.492,44.1335,140.107,120.382,116.455,0.00157688,0.0593923,21.0004,193.592,0.296331,0.0,0.0
534,133.25,41.761,44.0577,143.468,120.366,116.049,0.0015639,0.0593696,21.0004,193.582,0.32637,0.0,0.0
536,133.75,41.5657,44.0587,142.716,120.382,115.887,0.00155338,0.0593238,21.0004,193.592,0.339973,0.0,0.0
538,134.25,41.831,44.2596,136.131,120.369,116.195,0.0015571,0.0592867,21.0004,193.602,0.315302,0.0,0.0
540,134.75,42.0728,43.8658,136.622,120.375,116.231,0.00156011,0.0592566,21.0004,193.582,0.313057,0.0,0.0
542,135.25,41.8301,43.9634,141.19,120.36,116.572,0.00156255,0.0592323,21.0005,193.582,0.285729,0.0,0.0
544,135.75,41.5745,43.827,139.608,120.376,116.856,0.00158777,0.0592536,21.0005,193.572,0.265203,0.0,0.0
546,136.25,41.7442,43.9578,139.819,120.359,115.567,0.0016082,0.0592709,21.0005,193.572,0.363017,0.0,0.0
548,136.75,41.4763,43.9784,138.069,120.357,116.392,0.0016272,0.0593065,21.0005,193.562,0.299314,0.0,0.0
550,137.25,41.9392,44.0203,141.271,120.339,116.41,0.00164258,0.0593548,21.0005,193.562,0.296602,0.0,0.0
552,137.75,41.8371,44.3993,143.306,120.356,116.082,0.0016492,0.0593579,21.0005,193.562,0.323128,0.0,0.0
554,138.25,42.1968,44.2434,141.723,120.333,115.809,0.0016493,0.059328,21.0005,193.572,0.342426,0.0,0.0
556,138.75,41.8007,44.084,143.358,120.345,115.771,0.00164294,0.0593038,21.0005,193.592,0.34621,0.0,0.0
558,139.25,41.3611,43.4996,144.782,120.318,116.136,0.00163199,0.0592294,21.0005,193.562,0.316096,0.0,0.0
560,139.75,42.1313,44.1795,141.523,120.347,116.108,0.00162312,0.0591692,21.0003,193.582,0.320359,0.0,0.0
562,140.25,42.0218,44.1963,144.721,120.326,116.119,0.00161594,0.0591352,21.0001,193.572,0.318053,0.0,0.0
564,140.75,41.3902,44.4934,146.478,120.337,115.874,0.00159422,0.059121,20.9997,193.582,0.337744,0.0,0.0
566,141.25,41.7307,43.4731,139.17,120.323,116.655,0.00157663,0.0591094,20.9993,193.562,0.276631,0.0,0.0
568,141.75,41.1502,43.8955,144.087,120.338,116.255,0.0015526,0.0591275,20.9989,193.552,0.308461,0.0,0.0
570,142.25,41.8503,44.2092,140.43,120.308,115.833,0.00153314,0.0591421,20.9986,193.572,0.338727,0.0,0.0
572,142.75,41.6411,43.8727,144.446,120.346,116.063,0.00151737,0.059154,20.9984,193.582,0.323748,0.0,0.0
574,143.25,41.7309,44.409,138.459,120.308,116.893,0.00149431,0.0591852,20.9982,193.592,0.257284,0.0,0.0
576,143.75,42.0075,43.8451,139.878,120.323,115.316,0.00146637,0.0592299,20.998,193.582,0.379764,0.0,0.0
578,144.25,41.7036,43.8935,139.113,120.302,116.384,0.00143537,0.0592525,20.9979,193.562,0.295849,0.0,0.0
580,144.75,41.6162,44.1343,142.92,120.318,116.176,0.00140275,0.0592707,20.9978,193.562,0.31303,0.0,0.0
582,145.25,41.4149,43.0137,138.917,120.314,116.863,0.00137246,0.0592855,20.9977,193.562,0.260026,0.0,0.0
584,145.75,41.8307,43.5552,137.596,120.317,116.528,0.00134446,0.0592975,20.9976,193.562,0.285911,0.0,0.0
586,146.25,41.6279,43.9026,141.405,120.311,116.012,0.00133278,0.0593072,20.9976,193.562,0.325118,0.0,0.0
588,146.75,41.4155,44.2086,137.831,120.32,116.294,0.00132331,0.0593151,20.9975,193.552,0.304098,0.0,0.0
590,147.25,41.9898,43.8839,142.177,120.301,116.907,0.0013285,0.0593214,20.9975,193.572,0.255722,0.0,0.0
592,147.75,42.2721,43.7204,141.461,120.309,116.028,0.00134428,0.0593122,20.9975,193.562,0.32379,0.0,0.0
594,148.25,41.9447,44.3079,141.929,120.293,115.966,0.001368,0.0592917,20.9975,193.562,0.32732,0.0,0.0
596,148.75,41.7529,44.2039,145.224,120.304,116.319,0.0013833,0.0592752,20.9974,193.552,0.300982,0.0,0.0
598,149.25,41.2795,44.0527,137.485,120.29,116.621,0.00140945,0.0592617,20.9974,193.552,0.276757,0.0,0.0
600,149.75,41.7017,43.5688,140.981,120.295,115.569,0.00143063,0.0592653,20.9974,193.572,0.358193,0.0,0.0
602,150.25,41.6718,44.0577,139.182,120.296,116.198,0.00145146,0.0592811,20.9974,193.552,0.309713,0.0,0.0
604,150.75,41.9529,43.6584,141.1,120.285,115.968,0.00146833,0.0592939,20.9974,193.542,0.326622,0.0,0.0
606,151.25,41.2113,43.7799,143.95,120.266,116.696,0.00147833,0.059318,20.9974,193.542,0.269264,0.0,0.0
608,151.75,41.4445,43.6802,136.812,120.28,116.128,0.00148642,0.0593282,20.9974,193.532,0.313906,0.0,0.0
610,152.25,41.794,43.7997,142.82,120.261,116.381,0.00149543,0.059353,20.9974,193.542,0.293008,0.0,0.0
612,152.75,41.8166,44.0672,142.411,120.258,117.278,0.00150272,0.0593795,20.9974,193.532,0.224257,0.0,0.0
614,153.25,41.7495,44.3264,140.826,120.255,116.315,0.00152086,0.059401,20.9974,193.522,0.2976,0.0,0.0
616,153.75,41.3174,43.9891,139.541,120.251,115.782,0.00153556,0.059404,20.9974,193.532,0.338359,0.0,0.0
618,154.25,41.5404,43.9414,144.795,120.243,115.319,0.00155132,0.0593935,20.9974,193.522,0.373666,0.0,0.0
620,154.75,42.2647,44.2934,139.211,120.251,116.159,0.00156757,0.0593777,20.9974,193.522,0.309333,0.0,0.0
622,155.25,41.8319,44.3303,142.99,120.228,116.473,0.00157216,0.0593585,20.9974,193.532,0.28356,0.0,0.0
624,155.75,41.5534,43.4586,141.002,120.24,116.461,0.00157589,0.0593141,20.9974,193.532,0.285366,0.0,0.0
626,156.25,41.9167,44.1151,143.815,120.212,115.62,0.0015789,0.0592522,20.9974,193.542,0.347975,0.0,0.0
628,156.75,41.7248,44.0408,139.952,120.217,116.607,0.00155444,0.0592021,20.9974,193.522,0.272383,0.0,0.0
630,157.25,41.9214,43.9848,140.233,120.2,116.185,0.00153463,0.0591615,20.9974,193.522,0.303598,0.0,0.0
632,157.75,41.8994,43.8025,144.932,120.209,117.017,0.00151086,0.0591358,20.9974,193.502,0.240446,0.0,0.0
634,158.25,41.6472,44.1207,144.21,120.197,116.366,0.00148466,0.0591215,20.9974,193.502,0.289401,0.0,0.0
636,158.75,41.3644,43.9097,140.706,120.202,115.582,0.00145765,0.0591459,20.9974,193.512,0.35021,0.0,0.0
638,159.25,42.0985,44.0369,142.166,120.181,115.444,0.00143056,0.0591981,20.9974,193.512,0.359331,0.0,0.0
640,159.75,41.3897,43.7702,136.562,120.164,116.653,0.00140669,0.0592404,20.9974,193.532,0.265021,0.0,0.0
642,160.25,41.3779,44.2972,139.859,120.169,116.179,0.00138562,0.059302,20.9974,193.522,0.301715,0.0,0.0
644,160.75,41.9028,43.9291,142.256,120.159,115.787,0.00137306,0.0593519,20.9974,193.512,0.331193,0.0,0.0
646,161.25,41.5317,44.3053,144.781,120.151,115.652,0.00136693,0.0593707,20.9974,193.502,0.340957,0.0,0.0
648,161.75,42.0064,44.0786,140.131,120.14,115.582,0.00136197,0.0593665,20.9974,193.502,0.345535,0.0,0.0
650,162.25,42.4201,44.1814,141.023,120.14,115.273,0.0013775,0.0593703,20.9974,193.522,0.36955,0.0,0.0
652,162.75,41.8442,43.9923,141.944,120.132,115.624,0.00139008,0.0593799,20.9974,193.512,0.341755,0.0,0.0
654,163.25,41.6857,44.1903,141.059,120.122,116.099,0.00140028,0.0593948,20.9974,193.512,0.30437,0.0,0.0
656,163.75,41.7815,44.1271,139.921,120.117,116.061,0.00142333,0.0594134,20.9974,193.512,0.306922,0.0,0.0
658,164.25,42.1403,44.3546,141.381,120.111,116.145,0.00145533,0.0594285,20.9974,193.512,0.300033,0.0,0.0
660,164.75,42.0375,43.9285,142.269,120.104,115.693,0.0014819,0.0594407,20.9974,193.522,0.334318,0.0,0.0
662,165.25,41.9088,44.4041,138.337,120.104,115.584,0.00150399,0.0594505,20.9974,193.502,0.342767,0.0,0.0
664,165.75,41.7486,43.9593,139.143,120.079,116.087,0.00151932,0.0594585,20.9974,193.522,0.302087,0.0,0.0
666,166.25,41.5772,43.8431,139.394,120.088,115.699,0.00152941,0.0594434,20.9974,193.512,0.332684,0.0,0.0
668,166.75,41.637,44.2382,142.242,120.071,116.595,0.00153244,0.0594117,20.9974,193.492,0.262483,0.0,0.0
670,167.25,41.9056,43.8948,138.524,120.077,116.163,0.00153025,0.059386,20.9974,193.482,0.296082,0.0,0.0
672,167.75,41.7459,43.9566,145.858,120.038,116.496,0.00152527,0.0593926,20.9974,193.482,0.267619,0.0,0.0
674,168.25,41.8446,44.2213,139.58,120.053,115.655,0.00151833,0.0593979,20.9974,193.492,0.333468,0.0,0.0
676,168.75,41.9972,44.2119,140.488,120.031,115.694,0.00151271,0.0594159,20.9974,193.512,0.328838,0.0,0.0
678,169.25,41.669,44.1603,142.771,120.047,116.733,0.00151193,0.0594233,20.9974,193.502,0.250175,0.0,0.0
680,169.75,42.0093,44.1408,136.966,120.03,115.757,0.00151129,0.0594228,20.9974,193.502,0.323909,0.0,0.0
682,170.25,41.5302,44.0173,141.278,120.026,115.867,0.00151206,0.0594008,20.9974,193.502,0.315103,0.0,0.0
684,170.75,42.0271,44.3901,141.638,120.011,116.402,0.00151384,0.0593635,20.9972,193.492,0.272842,0.0,0.0
686,171.25,42.0742,44.1404,140.426,120.013,115.609,0.00151528,0.0593333,20.9971,193.492,0.334048,0.0,0.0
688,171.75,41.7618,44.2188,143.14,119.994,116.616,0.00151034,0.0592944,20.997,193.482,0.255144,0.0,0.0
690,172.25,41.6932,43.9292,139.701,120.007,115.975,0.00150633,0.0592628,20.9969,193.472,0.305374,0.0,0.0
692,172.75,41.726,44.4858,138.263,120.016,115.761,0.00150065,0.0592373,20.997,193.492,0.322541,0.0,0.0
694,173.25,41.861,44.2808,141.558,120.005,116.96,0.00149604,0.0592166,20.9974,193.492,0.229625,0.0,0.0
696,173.75,41.7816,44.2653,141.351,119.976,115.997,0.00149475,0.0591999,20.9974,193.482,0.301357,0.0,0.0
698,174.25,41.7388,44.2805,141.882,119.968,115.581,0.00149371,0.0592274,20.9972,193.482,0.332882,0.0,0.0
700,174.75,41.9593,44.1859,140.812,119.953,116.387,0.00149286,0.0592496,20.9973,193.482,0.269622,0.0,0.0
702,175.25,41.661,43.9876,140.68,119.962,116.404,0.00149218,0.0592677,20.9976,193.472,0.26898,0.0,0.0
704,175.75,42.0674,44.1691,144.436,119.94,115.535,0.00148648,0.0592823,20.9978,193.482,0.334298,0.0,0.0
706,176.25,41.8105,43.5499,140.506,119.961,116.017,0.00147722,0.0592797,20.998,193.482,0.298659,0.0,0.0
708,176.75,41.8048,43.599,136.663,119.929,115.083,0.00146973,0.0592647,20.9982,193.482,0.368588,0.0,0.0
710,177.25,41.5707,43.7223,138.429,119.931,116.132,0.00142273,0.0592597,20.9979,193.482,0.287667,0.0,0.0
712,177.75,41.8352,44.3485,141.865,119.909,116.141,0.00138778,0.0592621,20.9978,193.482,0.285253,0.0,0.0
714,178.25,41.6053,43.794,144.231,119.925,116.252,0.00136771,0.0592713,20.9975,193.482,0.277918,0.0,0.0
716,178.75,41.8874,44.1854,143.439,119.893,115.802,0.00133338,0.0592852,20.9973,193.482,0.310201,0.0,0.0
718,179.25,42.0388,43.8957,140.948,119.911,115.97,0.00128819,0.0592965,20.9972,193.472,0.298614,0.0,0.0
720,179.75,41.8385,44.0979,139.443,119.887,116.232,0.00123593,0.059333,20.997,193.482,0.276622,0.0,0.0
722,180.25,41.4284,44.044,138.634,119.908,115.721,0.00117884,0.0593752,20.9969,193.492,0.317563,0.0,0.0
724,180.75,41.5417,43.7237,140.987,119.88,116.17,0.00111931,0.0593694,20.997,193.492,0.280868,0.0,0.0
726,181.25,41.8397,43.7043,139.996,119.893,115.95,0.0010711,0.0593669,20.9971,193.502,0.29881,0.0,0.0
728,181.75,42.109,44.6381,139.671,119.865,117.512,0.00101864,0.0593482,20.9971,193.472,0.17713,0.0,0.0
730,182.25,42.2228,44.5454,140.472,119.883,115.751,0.000976148,0.0593202,20.9972,193.472,0.313382,0.0,0.0
732,182.75,41.6238,44.694,139.166,119.86,115.281,0.000945386,0.0592974,20.9972,193.482,0.348086,0.0,0.0
734,183.25,41.9777,44.3274,137.372,119.868,115.064,0.000920468,0.0593071,20.9972,193.472,0.365481,0.0,0.0
736,183.75,42.0662,44.4796,144.729,119.841,116.688,0.000900285,0.059315,20.9973,193.482,0.238222,0.0,0.0
738,184.25,41.4135,43.9832,144.84,119.857,115.272,0.00090451,0.0592803,20.9973,193.482,0.348541,0.0,0.0
740,184.75,41.536,44.0178,140.735,119.841,115.849,0.000911735,0.0592522,20.9973,193.482,0.302722,0.0,0.0
742,185.25,41.8025,44.0249,142.311,119.837,116.426,0.000926574,0.0592158,20.9973,193.482,0.258071,0.0,0.0
744,185.75,42.0306,44.0122,140.27,119.813,116.442,0.000946681,0.0591863,20.9973,193.472,0.255036,0.0,0.0
746,186.25,41.7345,44.288,144.602,119.827,116.578,0.000962967,0.0591768,20.9973,193.482,0.245665,0.0,0.0
748,186.75,41.9578,44.5643,142.535,119.811,115.75,0.000990288,0.059182,20.9973,193.492,0.30812,0.0,0.0
750,187.25,41.9161,44.171,143.151,119.833,115.848,0.00102513,0.0591843,20.9975,193.462,0.302147,0.0,0.0
752,187.75,42.2254,44.0598,139.23,119.81,117.404,0.00106043,0.0592025,20.9976,193.462,0.18127,0.0,0.0
754,188.25,41.4778,43.8307,139.068,119.845,116.043,0.00109538,0.0592303,20.9977,193.452,0.288083,0.0,0.0
756,188.75,41.5779,43.7986,143.767,119.803,116.351,0.00113468,0.0592527,20.9977,193.472,0.261296,0.0,0.0
758,189.25,41.8364,44.3049,139.492,119.816,115.621,0.00116652,0.0592421,20.9978,193.442,0.318508,0.0,0.0
760,189.75,41.8268,44.4425,141.068,119.798,116.256,0.00119428,0.0592076,20.9978,193.442,0.2682,0.0,0.0
762,190.25,41.6468,44.0402,132.437,119.798,117.013,0.00121855,0.059194,20.9979,193.452,0.210167,0.0,0.0
764,190.75,41.7295,44.2355,140.19,119.784,116.217,0.00123821,0.059196,20.9979,193.462,0.270092,0.0,0.0
766,191.25,42.0617,44.122,139.839,119.794,116.663,0.00124642,0.059212,20.9979,193.472,0.236578,0.0,0.0
768,191.75,41.6191,43.9592,142.37,119.786,115.057,0.00124613,0.059238,20.9978,193.462,0.359932,0.0,0.0
770,192.25,42.125,43.9418,139.184,119.784,115.91,0.00124589,0.059273,20.9977,193.472,0.29378,0.0,0.0
772,192.75,41.5996,44.1015,141.638,119.773,115.983,0.00122983,0.059314,20.9976,193.462,0.287313,0.0,0.0
774,193.25,41.8435,44.2054,140.75,119.786,115.632,0.00121681,0.0593472,20.9975,193.462,0.31535,0.0,0.0
776,193.75,41.661,44.4625,138.711,119.77,115.499,0.00119921,0.059333,20.9974,193.462,0.324424,0.0,0.0
778,194.25,41.8781,44.2058,141.079,119.778,115.859,0.00117859,0.0593215,20.9974,193.462,0.297245,0.0,0.0
780,194.75,41.4214,44.4535,138.085,119.774,115.099,0.00114969,0.0593122,20.9973,193.422,0.355731,0.0,0.0
782,195.25,42.0637,44.2812,140.248,119.765,115.878,0.00112628,0.0593047,20.9973,193.432,0.294805,0.0,0.0
784,195.75,41.9547,44.5241,140.191,119.756,115.756,0.00110603,0.0592986,20.9973,193.442,0.303579,0.0,0.0
786,196.25,41.9971,44.3854,143.283,119.756,115.866,0.00108848,0.0593484,20.9972,193.462,0.295099,0.0,0.0
788,196.75,41.9552,44.216,139.407,119.76,115.799,0.00108004,0.0593887,20.9972,193.452,0.300552,0.0,0.0
790,197.25,41.953,44.3978,144.573,119.768,115.815,0.0010784,0.0593998,20.9977,193.432,0.299873,0.0,0.0
792,197.75,41.5877,44.0109,143.763,119.761,115.957,0.00107708,0.0593893,20.998,193.442,0.28845,0.0,0.0
794,198.25,42.2169,44.1641,141.827,119.761,115.892,0.00108885,0.059352,20.9983,193.462,0.293489,0.0,0.0
796,198.75,42.2025,44.5133,144.797,119.753,116.085,0.00110995,0.0592958,20.9985,193.462,0.277951,0.0,0.0
798,199.25,41.8002,44.3358,140.763,119.743,115.852,0.00113411,0.0592431,20.9987,193.472,0.295182,0.0,0.0
800,199.75,42.4237,43.9254,142.808,119.751,115.596,0.00116004,0.059194,20.9988,193.452,0.315573,0.0,0.0
802,200.25,42.1012,44.3305,140.152,119.745,116.381,0.00118104,0.0591541,20.999,193.462,0.254617,0.0,0.0
804,200.75,42.0149,44.8913,143.409,119.744,115.849,0.00119674,0.0591903,20.9991,193.452,0.295488,0.0,0.0
806,201.25,42.1085,44.4936,142.041,119.754,115.973,0.00120945,0.0592196,20.9994,193.462,0.286642,0.0,0.0
808,201.75,42.0319,43.9749,139.817,119.749,116.265,0.00120022,0.0592506,20.9996,193.432,0.263782,0.0,0.0
810,202.25,41.9509,44.6094,138.098,119.737,115.821,0.00119274,0.0592821,20.9997,193.432,0.297151,0.0,0.0
812,202.75,41.7737,43.8864,141.618,119.743,116.965,0.00116677,0.0593077,20.9998,193.432,0.209726,0.0,0.0
814,203.25,42.5554,44.6949,139.097,119.735,114.863,0.00112783,0.0593154,20.9999,193.452,0.37121,0.0,0.0
816,203.75,41.7299,44.2746,139.994,119.735,115.423,,0.0593217,,193.442,0.327661,0.0,0.0
818,204.25,42.196,44.354,141.77,119.735,115.124,,0.0593268,,193.422,0.350875,0.0,0.0
820,204.75,41.9454,43.9969,137.979,119.733,115.782,,0.059331,,193.422,0.299857,0.0,0.0
822,205.25,41.897,44.2484,140.856,119.736,116.112,,0.0593127,,193.442,0.274554,0.0,0.0
824,205.75,41.9377,43.9715,141.11,119.738,115.25,,0.0592784,,193.432,0.341416,0.0,0.0
826,206.25,42.1826,44.3895,142.354,119.733,115.99,,0.0592507,,193.432,0.283777,0.0,0.0
828,206.75,41.4909,44.0286,141.116,119.732,116.643,,,,193.442,0.233563,0.0,0.0
830,207.25,41.8914,44.0514,143.162,119.72,116.086,,,,193.422,0.275435,0.0,0.0
832,207.75,41.893,44.1212,143.615,119.733,116.434,,,,193.412,0.249589,0.0,0.0
834,208.25,42.0644,44.5668,135.387,119.713,116.344,,,,193.412,0.255079,0.0,0.0
836,208.75,41.5969,44.2843,142.967,119.726,116.297,,,,193.422,0.259634,0.0,0.0
838,209.25,41.9901,44.5402,141.593,119.714,116.174,,,,193.402,0.268197,0.0,0.0
840,209.75,42.0223,44.1657,140.445,119.723,116.442,,,,193.402,0.248348,0.0,0.0
842,210.25,42.0266,44.0705,142.85,119.712,115.91,,,,193.422,0.288397,0.0,0.0
844,210.75,42.3886,44.0447,138.308,119.742,115.451,,,,193.422,0.326067,0.0,0.0
846,211.25,42.2275,43.9639,142.306,119.716,115.913,,,,193.412,0.288455,0.0,0.0
848,211.75,42.0532,44.2352,138.456,119.745,115.723,,,,193.432,0.305264,0.0,0.0
850,212.25,41.8366,44.5784,138.863,119.725,115.279,,,,193.442,0.338136,0.0,0.0
852,212.75,41.8419,44.5066,136.594,119.76,115.545,,,,193.432,0.32014,0.0,0.0
854,213.25,42.2253,44.4292,137.241,119.743,115.845,,,,193.412,0.29577,0.0,0.0
856,213.75,41.8614,44.5096,139.981,119.775,116.199,,,,193.412,0.270778,0.0,0.0
858,214.25,41.6825,44.4595,139.743,119.769,115.744,,,,193.422,0.305392,0.0,0.0