File: 01_Data/Tyvek_Wrap/Cone/Tyvek_Wrap_Cone_HF50Scan_220308_R2.csv
Names,Time,Stack TC,Smoke TC,Exh Press,Smoke Comp,Smoke Meas,CO Meter,CO2 Meter,O2 Meter,Sample Mass,Ext Coeff,Start Test,Flame Verif
Chan Gain,,500,500,1,1,1,1,1,1,1,1,1.0,1.0
Offset,,0,0,0.134161,0,0,0,0,0,0,0,0.0,0.0
Gain,,1,1,25.011,15.9695,16.7489,1,1,1,1.00099,1.01863,1.0,1.0
Units,sec,C,C,Pa,%,%,%,%,%,g,/m,,
Baseline,,31.9136,33.3865,149.097,120.309,116.723,0.00102956,0.0582495,21.0049,-835.356,0.270434,,
2,0.25,31.5878,32.853,152.619,120.254,117.189,0.000943089,0.0605185,21.0035,196.065,0.230674,0.0,0.0
4,0.75,31.3661,33.0965,150.238,120.237,116.728,0.000930986,0.0605685,21.0033,196.605,0.264627,0.0,0.0
6,1.25,31.2455,32.1344,148.419,120.251,116.605,0.000920541,0.060609,21.0032,194.964,0.275112,0.0,0.0
8,1.75,30.6448,32.7994,152.466,120.228,116.732,0.000911503,0.0606419,21.0031,195.164,0.263662,0.0,0.0
10,2.25,30.6839,32.4913,150.634,120.244,115.862,0.000904182,0.0606613,21.003,194.984,0.331697,0.0,0.0
12,2.75,31.0731,32.1119,150.225,120.229,116.659,0.000904668,0.0606705,21.003,195.074,0.269334,0.0,0.0
14,3.25,30.7469,32.3338,143.695,120.247,116.346,0.000910835,0.060678,21.0027,195.064,0.294665,0.0,0.0
16,3.75,30.1775,32.0368,149.867,120.235,116.698,0.000915831,0.0607251,21.0024,195.044,0.266754,0.0,0.0
18,4.25,31.1674,32.3067,148.296,120.25,117.582,0.000933195,0.0607633,21.0022,195.114,0.200464,0.0,0.0
20,4.75,31.0704,32.2158,148.155,120.236,116.046,0.000947259,0.0607942,21.0021,195.034,0.316941,0.0,0.0
22,5.25,30.2826,31.8488,147.239,120.242,116.729,0.000964751,0.0609202,21.002,195.114,0.264949,0.0,0.0
24,5.75,30.8339,32.4353,148.208,120.241,116.418,0.000978919,0.0611131,21.002,195.054,0.288773,0.0,0.0
26,6.25,30.4513,32.4468,154.386,120.246,116.336,0.000992835,0.0613198,21.0021,195.074,0.295377,0.0,0.0
28,6.75,31.2168,32.3619,147.046,120.228,116.961,0.00100411,0.0615327,21.0021,195.074,0.246114,0.0,0.0
30,7.25,30.9072,32.2149,146.226,120.254,116.324,0.0010169,0.0617052,21.0019,195.064,0.296896,0.0,0.0
32,7.75,31.0584,32.3584,148.648,120.23,116.81,0.00102726,0.061969,21.0015,195.074,0.257824,0.0,0.0
34,8.25,30.5702,31.9139,144.681,120.243,116.731,0.00103565,0.0621827,21.0012,195.044,0.264902,0.0,0.0
36,8.75,30.6674,32.131,150.483,120.24,116.164,0.00106563,0.0624243,21.001,195.064,0.308183,0.0,0.0
38,9.25,31.107,32.2358,153.907,120.255,116.251,0.00108992,0.0626201,21.0007,195.044,0.302549,0.0,0.0
40,9.75,31.1531,32.8188,150.07,120.256,116.493,0.0011438,0.0627375,21.0006,195.064,0.284058,0.0,0.0
42,10.25,31.1822,32.398,142.293,120.251,115.877,0.00118743,0.0628326,21.0005,195.074,0.331065,0.0,0.0
44,10.75,31.0471,32.737,149.343,120.224,115.157,0.00124401,0.0628302,21.0003,195.054,0.384781,0.0,0.0
46,11.25,30.9916,32.038,147.394,120.245,114.587,0.00130895,0.0627569,21.0003,195.064,0.430706,0.0,0.0
48,11.75,30.3383,32.397,147.77,120.241,115.857,0.00139338,0.0626976,21.0002,195.044,0.331874,0.0,0.0
50,12.25,30.5382,31.876,146.184,120.245,115.438,0.00146176,0.0625535,21.0001,195.034,0.364511,0.0,0.0
52,12.75,30.7318,31.9853,150.828,120.226,114.173,0.0015441,0.0624369,21.0001,195.034,0.461635,0.0,0.0
54,13.25,30.8515,32.6002,150.561,120.243,114.406,0.00161079,0.0622991,21,195.034,0.444681,0.0,0.0
56,13.75,31.0147,32.5022,149.045,120.237,114.455,0.00168094,0.0621486,21,195.044,0.440339,0.0,0.0
58,14.25,31.1862,32.3899,146.413,120.24,114.741,0.00175227,0.0620339,21,195.044,0.418278,0.0,0.0
60,14.75,30.7955,32.4737,146.88,120.244,113.481,0.00181006,0.0619474,20.9997,195.044,0.517269,0.0,0.0
62,15.25,31.4419,32.7729,151.563,120.239,115.226,0.00188657,0.0618918,20.9993,195.034,0.380511,0.0,0.0
64,15.75,31.2403,32.6465,148.214,120.24,114.636,0.00197529,0.0618598,20.999,195.034,0.426481,0.0,0.0
66,16.25,30.7127,32.1447,153.335,120.235,114.127,0.00204715,0.0618266,20.9987,195.024,0.465848,0.0,0.0
68,16.75,30.8678,32.0057,151.254,120.238,114.842,0.00213239,0.0617933,20.9985,195.024,0.410331,0.0,0.0
70,17.25,31.0339,32.5754,149.367,120.231,114.749,0.00220143,0.0617663,20.9983,195.024,0.416952,0.0,0.0
72,17.75,31.1128,32.4847,144.714,120.22,114.915,0.00227333,0.0617307,20.9982,195.034,0.40327,0.0,0.0
74,18.25,31.1089,32.4688,146.335,120.228,113.385,0.00233158,0.0617018,20.9981,195.024,0.523599,0.0,0.0
76,18.75,30.6996,32.4171,149.464,120.227,113.623,0.00238522,0.0616713,20.998,195.014,0.504815,0.0,0.0
78,19.25,31.0798,32.2072,145.143,120.23,114.607,0.00243451,0.06164,20.9979,194.994,0.428028,0.0,0.0
80,19.75,31.1787,32.0809,145.576,120.218,114.971,0.00247442,0.0616147,20.9978,195.004,0.398718,0.0,0.0
82,20.25,31.173,32.6453,150.194,120.226,114.272,0.00251168,0.0615668,20.9978,195.014,0.453839,0.0,0.0
84,20.75,31.2676,32.8807,151.622,120.231,113.877,0.00254185,0.061528,20.9977,195.004,0.48515,0.0,0.0
86,21.25,30.9799,32.4329,149.116,120.228,114.085,0.00255645,0.0615788,20.9977,194.994,0.468665,0.0,0.0
88,21.75,30.9078,32.5515,147.962,120.227,114.095,0.00256828,0.0616199,20.9977,195.004,0.467715,0.0,0.0
90,22.25,31.2823,32.6944,148.507,120.223,112.919,0.00257786,0.0619635,20.9968,194.994,0.560011,0.0,0.0
92,22.75,31.7297,32.4995,151.113,120.219,112.997,0.0025426,0.0625211,20.996,194.994,0.553575,0.0,0.0
94,23.25,31.214,32.4928,147.774,120.232,115.129,0.00251404,0.0634353,20.9941,194.994,0.387538,0.0,0.0
96,23.75,30.8943,32.7959,147.914,120.222,116.445,0.00246022,0.0645921,20.9926,194.994,0.285241,0.0,0.0
98,24.25,31.115,32.3564,146.865,120.227,116.857,0.00241661,0.065529,20.9913,194.994,0.254048,0.0,0.0
100,24.75,31.2084,32.3837,149.519,120.222,115.637,0.00238129,0.0676921,20.9894,194.984,0.347508,0.0,0.0
102,25.25,31.4061,32.5241,148.594,120.21,116.005,0.00232447,0.0694442,20.987,194.974,0.318171,0.0,0.0
104,25.75,31.145,32.5108,146.787,120.211,115.764,0.00227844,0.0716848,20.9837,194.964,0.336809,0.0,0.0
106,26.25,31.1289,32.3568,145.086,120.214,116.401,0.00223793,0.0742391,20.98,194.964,0.288039,0.0,0.0
108,26.75,31.2914,32.84,144.009,120.218,116.072,0.00220221,0.0771105,20.9769,194.944,0.313557,0.0,0.0
110,27.25,31.0131,32.5246,141.308,120.204,115.795,0.0021778,0.0801587,20.9718,194.944,0.333932,0.0,0.0
112,27.75,31.1313,32.6201,145.644,120.226,115.244,0.00216209,0.0826277,20.9676,194.954,0.378142,0.0,0.0
114,28.25,30.9638,32.7243,148.205,120.22,114.541,0.00215324,0.0846276,20.9603,194.954,0.43241,0.0,0.0
116,28.75,31.0844,32.9047,143.261,120.212,114.882,0.00214955,0.0893983,20.9544,194.944,0.405197,0.0,0.0
118,29.25,31.1125,32.4618,142.753,120.197,113.687,0.00214657,0.0932626,20.9472,194.944,0.497509,0.0,0.0
120,29.75,31.5321,32.7385,143.721,120.215,113.23,0.00214416,0.0973156,20.9394,194.924,0.534837,0.0,0.0
122,30.25,31.5349,33.1461,143.996,120.209,113.698,0.00212748,0.101429,20.933,194.924,0.497568,0.0,0.0
124,30.75,31.7654,32.5291,145.571,120.214,113.188,0.00211397,0.105147,20.9278,194.894,0.538072,0.0,0.0
126,31.25,31.2574,32.9949,143.302,120.196,113.758,0.00208587,0.108504,20.9237,194.904,0.491895,0.0,0.0
128,31.75,31.5626,33.3086,143.077,120.229,114.538,0.0020631,0.111224,20.9203,194.894,0.433298,0.0,0.0
130,32.25,31.6432,33.2482,144.03,120.197,113.565,0.00203364,0.113271,20.9175,194.874,0.507153,0.0,0.0
132,32.75,31.7579,33.1769,144.199,120.214,114.525,0.00200977,0.11479,20.916,194.864,0.433134,0.0,0.0
134,33.25,31.9057,33.798,146.83,120.186,114.789,0.00198185,0.116019,20.9154,194.884,0.410516,0.0,0.0
136,33.75,32.5369,33.5294,146.706,120.206,114.346,0.00195925,0.115905,20.9165,194.864,0.4466,0.0,1.0
138,34.25,32.2744,33.838,147.891,120.183,115.678,0.00193358,0.115812,20.9189,194.854,0.341335,0.0,1.0
140,34.75,32.3299,33.2596,148.723,120.207,115.816,0.0019128,0.114448,20.9218,194.854,0.332532,0.0,1.0
142,35.25,32.602,33.8656,145.51,120.2,115.777,0.00188861,0.113343,20.9249,194.864,0.335026,0.0,1.0
144,35.75,32.4761,33.9226,146.195,120.208,115.46,0.00186902,0.111233,20.9275,194.773,0.360133,0.0,1.0
146,36.25,33.0883,33.8031,149.044,120.194,116.531,0.00185315,0.109523,20.9307,194.904,0.276594,0.0,1.0
148,36.75,32.0958,34.127,144.763,120.202,115.663,0.00182875,0.106997,20.9344,194.673,0.343972,0.0,1.0
150,37.25,32.7451,34.2556,144.303,120.186,115.963,0.00179859,0.10495,20.9382,194.834,0.319663,0.0,1.0
152,37.75,32.5756,34.2826,145.723,120.203,115.647,0.00176644,0.102126,20.9422,194.874,0.345306,0.0,1.0
154,38.25,33.0285,33.8962,146.082,120.177,115.913,0.00173344,0.0998383,20.9461,194.874,0.322836,0.0,1.0
156,38.75,32.8533,34.0867,145.817,120.185,115.554,0.00170091,0.0973221,20.9497,194.884,0.351115,0.0,1.0
158,39.25,32.2947,33.627,148.467,120.171,115.632,0.00166935,0.0946871,20.9527,194.894,0.344022,0.0,1.0
160,39.75,32.3961,33.8152,148.842,120.19,117.347,0.00164379,0.0925528,20.9573,194.894,0.213894,0.0,1.0
162,40.25,32.1645,33.8101,150.775,120.174,116.508,0.00162308,0.0897736,20.961,194.894,0.276871,0.0,0.0
164,40.75,32.4045,34.2697,146.805,120.203,116.989,0.00160631,0.0875224,20.9649,194.884,0.242195,0.0,0.0
166,41.25,31.9395,33.3453,150.448,120.166,116.122,0.00160251,0.085313,20.9681,194.874,0.305937,0.0,0.0
168,41.75,31.8433,33.3555,151.331,120.191,117.062,0.00159943,0.0835233,20.9707,194.884,0.235747,0.0,0.0
170,42.25,32.3309,33.816,149.81,120.173,115.995,0.00160795,0.0819286,20.9727,194.874,0.316205,0.0,0.0
172,42.75,32.5533,33.9393,150.38,120.184,117.256,0.00161485,0.0805064,20.9746,194.874,0.22039,0.0,0.0
174,43.25,32.3051,34.0598,148.046,120.176,116.121,0.00162172,0.0792313,20.9764,194.874,0.306741,0.0,0.0
176,43.75,32.3615,33.9559,147.305,120.193,116.276,0.00162845,0.0780875,20.9778,194.864,0.295985,0.0,0.0
178,44.25,32.3186,34.3502,145.058,120.167,116.4,0.0016339,0.0771611,20.9794,194.854,0.284603,0.0,0.0
180,44.75,32.3318,33.9802,146.067,120.189,117.004,0.00162486,0.0761904,20.9807,194.854,0.239973,0.0,0.0
182,45.25,32.4531,34.3782,149.509,120.172,116.271,0.00161753,0.0754042,20.9826,194.844,0.294856,0.0,0.0
184,45.75,32.3258,33.8618,147.217,120.174,116.557,0.00159448,0.0744648,20.9842,194.844,0.273109,0.0,0.0
186,46.25,32.3304,33.7691,151.447,120.156,116.884,0.0015713,0.0737039,20.9855,194.844,0.246725,0.0,0.0
188,46.75,32.4351,33.992,151.155,120.181,117.225,0.00154847,0.0728922,20.9865,194.834,0.222585,0.0,0.0
190,47.25,32.2939,33.7985,147.524,120.156,116.692,0.00152676,0.072059,20.9873,194.854,0.261394,0.0,0.0
192,47.75,32.3485,33.8785,149.435,120.17,117.247,0.00150629,0.0712178,20.988,194.864,0.220001,0.0,0.0
194,48.25,32.3898,34.077,151.109,120.156,116.55,0.0014897,0.0703868,20.9888,194.854,0.272242,0.0,0.0
196,48.75,32.4818,33.6971,150.102,120.18,116.896,0.00147626,0.0695765,20.9896,194.844,0.2476,0.0,0.0
198,49.25,31.8817,34.1536,150.541,120.155,116.719,0.00145194,0.0687966,20.9903,194.844,0.259247,0.0,0.0
200,49.75,31.8023,33.1737,144.453,120.174,115.906,0.00143223,0.0681649,20.9916,194.854,0.323094,0.0,0.0
202,50.25,31.9929,33.8522,146.25,120.156,116.04,0.00141627,0.0674748,20.9926,194.864,0.311435,0.0,0.0
204,50.75,31.5471,33.542,149.238,120.164,115.922,0.00139724,0.0669159,20.9934,194.844,0.321184,0.0,0.0
206,51.25,32.0012,33.585,149.407,120.148,117.157,0.00138182,0.0664632,20.9941,194.844,0.225229,0.0,0.0
208,51.75,32.0173,33.1414,145.709,120.167,116.525,0.00137788,0.0660141,20.9947,194.854,0.275032,0.0,0.0
210,52.25,31.5722,33.302,147.929,120.146,116.201,0.00137469,0.0656504,20.9951,194.864,0.298321,0.0,0.0
212,52.75,31.7186,33.3987,151.764,120.163,116.393,0.00138189,0.0653558,20.9955,194.864,0.284899,0.0,0.0
214,53.25,31.8752,33.2002,147.468,120.156,115.715,0.00138771,0.0650898,20.9958,194.864,0.336499,0.0,0.0
216,53.75,31.576,33.764,154.236,120.16,116.578,0.00140343,0.0648743,20.996,194.854,0.270452,0.0,0.0
218,54.25,31.5828,33.4218,148.483,120.141,116.518,0.00141617,0.064642,20.9962,194.854,0.273585,0.0,0.0
220,54.75,31.7131,33.0442,149.19,120.153,116.168,0.00143871,0.0644019,20.9966,194.854,0.301383,0.0,0.0
222,55.25,31.8091,32.9708,149.68,120.159,116.007,0.00145825,0.0641641,20.9971,194.844,0.314208,0.0,0.0
224,55.75,31.7707,33.1991,146.794,120.152,116.353,0.00147525,0.0639325,20.998,194.854,0.287091,0.0,0.0
226,56.25,31.4236,32.9229,148.541,120.148,115.906,0.00148901,0.0637161,20.9987,194.844,0.321171,0.0,0.0
228,56.75,31.5472,33.4806,145.674,120.147,116.52,0.001486,0.0635148,20.9992,194.854,0.273901,0.0,0.0
230,57.25,31.4677,33.6154,149.031,120.141,116.543,0.00147082,0.0633107,20.9997,194.844,0.271628,0.0,0.0
232,57.75,31.4167,33.2756,150.12,120.141,116.208,0.00145853,0.0631453,21.0001,194.844,0.297444,0.0,0.0
234,58.25,31.4944,33.2662,149.745,120.137,117.268,0.00141183,0.0629018,21.0004,194.854,0.215976,0.0,0.0
236,58.75,31.7889,33.3176,147.45,120.145,116.997,0.00136244,0.0627045,21.0006,194.844,0.237222,0.0,0.0
238,59.25,31.2163,33.1653,149.309,120.138,116.395,0.00131203,0.0624488,21.001,194.844,0.282818,0.0,0.0
240,59.75,31.4985,32.8733,150.712,120.146,116.598,0.00127119,0.0622416,21.0013,194.834,0.267831,0.0,0.0
242,60.25,31.4987,33.3409,147.112,120.143,117.162,0.00122592,0.0620739,21.0015,194.834,0.224476,0.0,0.0
244,60.75,31.2412,33.1482,148.155,120.149,116.748,0.00118924,0.0618421,21.0017,194.834,0.256579,0.0,0.0
246,61.25,31.3412,32.9694,144.388,120.164,116.67,0.00114856,0.0616543,21.0019,194.824,0.263693,0.0,0.0
248,61.75,31.2943,32.6649,149.501,120.134,116.903,0.00111561,0.0614619,21.0024,194.844,0.243612,0.0,0.0
250,62.25,31.1406,33.0852,148.073,120.147,117.082,0.00107481,0.0613061,21.0029,194.834,0.230889,0.0,0.0
252,62.75,31.417,33.0091,150.323,120.13,116.523,0.00102905,0.0611114,21.0032,194.854,0.272395,0.0,0.0
254,63.25,31.3154,32.3007,148.155,120.133,116.303,0.000991987,0.0609537,21.0035,194.824,0.289522,0.0,0.0
256,63.75,31.2899,32.8253,150.741,120.142,116.487,0.000942736,0.0607755,21.0038,194.824,0.276085,0.0,0.0
258,64.25,31.3095,33.1534,149.459,120.162,116.019,0.000885536,0.0605858,21.004,194.824,0.313517,0.0,0.0
260,64.75,31.165,32.2913,147.235,120.149,116.588,0.000834078,0.0603888,21.0042,194.834,0.268796,0.0,0.0
262,65.25,31.3342,32.9355,151.612,120.134,117.351,0.000787785,0.0601904,21.0043,194.814,0.209451,0.0,0.0
264,65.75,31.0971,32.6942,146.394,120.132,115.82,0.000757976,0.0600297,21.0044,194.804,0.3266,0.0,0.0
266,66.25,31.4589,33.0929,150.895,120.15,116.546,0.000740749,0.0598585,21.0045,194.824,0.272081,0.0,0.0
268,66.75,31.647,32.5076,151.418,120.134,116.516,0.000726796,0.0597198,21.0045,194.824,0.273273,0.0,0.0
270,67.25,30.4712,32.3846,149.45,120.141,116.762,0.000742288,0.0595786,21.005,194.814,0.254982,0.0,0.0
272,67.75,31.0391,32.6296,148.604,120.142,116.874,0.000754836,0.0594383,21.0054,194.824,0.246453,0.0,0.0
274,68.25,31.0784,33.149,149.932,120.143,116.998,0.000788157,0.0593031,21.0058,194.824,0.237037,0.0,0.0
276,68.75,31.3303,32.6964,148.399,120.129,116.294,0.000815147,0.0591741,21.006,194.814,0.289903,0.0,0.0
278,69.25,31.3559,32.7158,145.881,120.141,116.53,0.00084442,0.0590696,21.0062,194.804,0.272647,0.0,0.0
280,69.75,31.2228,32.8632,147.649,120.118,115.716,0.000868131,0.058985,21.0063,194.814,0.333594,0.0,0.0
282,70.25,30.6768,32.1224,153.554,120.138,116.801,0.000887337,0.0589164,21.0063,194.814,0.251716,0.0,0.0
284,70.75,30.8496,32.2531,147.6,120.121,116.809,0.00090482,0.0588746,21.0063,194.814,0.249823,0.0,0.0
286,71.25,31.0106,32.9494,150.425,120.138,117.187,0.000920713,0.0588407,21.0063,194.814,0.222243,0.0,0.0
288,71.75,31.3762,32.9744,148.769,120.127,117.157,0.000933587,0.0587769,21.0063,194.814,0.223706,0.0,0.0
290,72.25,31.4351,33.0842,146.881,120.134,115.938,0.000951076,0.0586924,21.0063,194.814,0.317679,0.0,0.0
292,72.75,31.3739,32.8538,148.747,120.122,115.859,0.000971597,0.0586239,21.0067,194.804,0.322878,0.0,0.0
294,73.25,31.0425,32.7131,150.522,120.127,117.135,0.000988219,0.0585274,21.0071,194.814,0.225383,0.0,0.0
296,73.75,31.4709,32.9432,151.372,120.12,116.802,0.00101999,0.0584493,21.0074,194.824,0.250258,0.0,0.0
298,74.25,30.8851,31.782,154.226,120.132,117.362,0.00107211,0.058386,21.0077,194.814,0.208414,0.0,0.0
300,74.75,29.8462,31.8701,146.918,120.112,116.537,0.00109587,0.0583275,21.0078,194.814,0.270035,0.0,0.0
302,75.25,31.0442,32.4031,147.978,120.134,116.607,0.00113649,0.0582737,21.008,194.804,0.266262,0.0,0.0
304,75.75,31.6419,32.4231,149.888,120.126,116.284,0.0011975,0.0582301,21.0081,194.814,0.290431,0.0,0.0
306,76.25,30.7903,32.3205,151.256,120.131,116.517,0.00125721,0.0582221,21.0082,194.814,0.272976,0.0,0.0
308,76.75,31.2608,32.7648,149.038,120.107,116.922,0.00131484,0.0582156,21.0083,194.804,0.24021,0.0,0.0
310,77.25,31.3378,32.3696,149.096,120.125,116.468,0.00136153,0.0582082,21.0083,194.804,0.276305,0.0,0.0
312,77.75,31.7147,32.7162,148.768,120.106,116.534,0.00139999,0.0582062,21.0084,194.794,0.269798,0.0,0.0
314,78.25,30.9589,31.8872,155.57,120.126,116.592,0.00143172,0.0581754,21.0084,194.804,0.266815,0.0,0.0
316,78.75,30.932,32.1945,152.026,120.111,116.004,0.00145742,0.0581505,21.0085,194.794,0.310895,0.0,0.0
318,79.25,31.1067,32.5479,149.401,120.116,116.725,0.0014599,0.0581576,21.0085,194.794,0.255875,0.0,0.0
320,79.75,31.0659,32.4818,148.69,120.097,116.597,0.0014619,0.0581634,21.0085,194.794,0.264251,0.0,0.0
322,80.25,30.9182,32.9817,144.172,120.125,116.102,0.00144764,0.0581825,21.0085,194.784,0.304391,0.0,0.0
324,80.75,31.6413,32.6159,148.345,120.09,116.603,0.00143608,0.058211,21.0085,194.804,0.263273,0.0,0.0
326,81.25,31.0819,32.8889,153.266,120.107,116.096,0.00142158,0.058234,21.0086,194.814,0.303557,0.0,0.0
328,81.75,31.1908,32.7654,146.394,120.089,116.057,0.0014052,0.0582389,21.0086,194.814,0.305131,0.0,0.0
330,82.25,31.2432,32.5554,149.286,120.102,116.178,0.00139071,0.058243,21.0086,194.824,0.296752,0.0,0.0
332,82.75,31.6271,32.5883,145.678,120.079,116.498,0.00137897,0.0582052,21.0086,194.804,0.270511,0.0,0.0
334,83.25,31.4955,32.7445,145.747,120.094,116.734,0.00136458,0.0581746,21.0084,194.804,0.253539,0.0,0.0
336,83.75,30.8911,32.2967,148.176,120.075,115.844,0.00135293,0.0581908,21.008,194.794,0.32058,0.0,0.0
338,84.25,31.1911,32.5004,153.584,120.084,116.265,0.00134348,0.058204,21.0077,194.794,0.288802,0.0,0.0
340,84.75,30.5956,32.8096,144.904,120.076,116.928,0.0013163,0.0582291,21.0074,194.804,0.237384,0.0,0.0
342,85.25,31.273,32.0905,147.306,120.083,115.988,0.00129427,0.0582624,21.0072,194.794,0.310046,0.0,0.0
344,85.75,31.0946,32.7338,146.707,120.06,116.257,0.00126667,0.0582893,21.007,194.794,0.287581,0.0,0.0
346,86.25,31.0164,32.7307,146.12,120.091,116.474,0.00124431,0.0583111,21.0069,194.773,0.273298,0.0,0.0
348,86.75,31.014,32.8526,148.052,120.066,116.528,0.00121888,0.0583288,21.0068,194.784,0.267253,0.0,0.0
350,87.25,31.3859,32.6081,147.787,120.088,116.368,0.00119828,0.0582884,21.0067,194.794,0.2812,0.0,0.0
352,87.75,30.9466,32.8438,152.044,120.061,116.373,0.00117915,0.0582557,21.0066,194.794,0.27874,0.0,0.0
354,88.25,30.7832,32.6027,147.587,120.085,116.108,0.00116366,0.0582508,21.0065,194.804,0.300946,0.0,0.0
356,88.75,31.2255,33.3603,148.08,120.066,116.35,0.00114623,0.0582662,21.0065,194.804,0.280982,0.0,0.0
358,89.25,31.0086,32.4471,144.394,120.079,116.507,0.00113211,0.0582788,21.0065,194.794,0.269806,0.0,0.0
360,89.75,30.842,32.5521,145.144,120.062,116.771,0.00111164,0.0582889,21.0064,194.794,0.248331,0.0,0.0
362,90.25,30.7834,32.0916,147.988,120.071,116.292,0.00108692,0.0582899,21.0064,194.784,0.285705,0.0,0.0
364,90.75,31.1001,32.8097,149.201,120.072,116.672,0.0010669,0.0582843,21.0064,194.794,0.256645,0.0,0.0
366,91.25,30.936,32.6983,150.048,120.071,116.331,0.00102888,0.0582797,21.0064,194.794,0.28276,0.0,0.0
368,91.75,31.6017,33.1457,149.165,120.065,115.945,0.000978445,0.058276,21.0065,194.784,0.312016,0.0,0.0
370,92.25,31.5749,32.2333,155.102,120.064,116.153,0.000937596,0.0582734,21.0066,194.784,0.295926,0.0,0.0
372,92.75,30.7346,32.4657,145.926,120.059,116.083,0.000874069,0.0582716,21.0067,194.784,0.300951,0.0,0.0
374,93.25,31.2165,32.4898,148.287,120.069,115.653,0.000822611,0.0582702,21.0068,194.784,0.334824,0.0,0.0
376,93.75,31.1542,32.7019,147.126,120.056,115.827,0.000777728,0.0582906,21.0069,194.784,0.320431,0.0,0.0
378,94.25,31.5523,32.8462,148.056,120.063,117.227,0.00073849,0.0583267,21.0069,194.784,0.21362,0.0,0.0
380,94.75,31.3867,32.9176,148.358,120.041,116.468,0.000706708,0.0583558,21.007,194.763,0.269957,0.0,0.0
382,95.25,30.767,32.2672,147.803,120.053,115.959,0.000700829,0.0583658,21.007,194.784,0.310006,0.0,0.0
384,95.75,30.6176,32.4508,148.869,120.039,116.275,0.000713945,0.0583738,21.0071,194.784,0.284643,0.0,0.0
386,96.25,30.5732,32.4905,149.29,120.062,115.839,0.000741246,0.0583875,21.0072,194.773,0.31988,0.0,0.0
388,96.75,31.0814,32.737,153.422,120.037,116.803,0.000778368,0.0584051,21.0073,194.773,0.244055,0.0,0.0
390,97.25,30.9521,32.539,149.564,120.041,116.377,0.000817423,0.0584194,21.0073,194.753,0.276979,0.0,0.0
392,97.75,31.4125,32.2718,147.028,120.029,115.696,0.000857144,0.0584165,21.0074,194.773,0.328496,0.0,0.0
394,98.25,30.9759,32.092,148.827,120.03,116.893,0.000889318,0.0584013,21.0074,194.773,0.236591,0.0,0.0
396,98.75,30.9453,32.8259,146.379,120.032,116.612,0.000926358,0.0583889,21.0075,194.773,0.258328,0.0,0.0
398,99.25,31.1142,32.5659,148.487,120.014,115.975,0.000956361,0.0583652,21.0075,194.773,0.305883,0.0,0.0
400,99.75,31.0214,32.0325,142.622,120.022,116.142,0.000989656,0.0583388,21.0075,194.773,0.293671,0.0,0.0
402,100.25,30.8836,32.7148,145.888,120.027,115.896,0.00102472,0.0583109,21.0075,194.773,0.312966,0.0,0.0
404,100.75,30.8782,32.2538,149.323,120.034,115.833,0.00106345,0.0582883,21.0075,194.784,0.318361,0.0,0.0
406,101.25,31.0502,32.6234,151.151,120.03,116.186,0.00110412,0.0582974,21.0074,194.784,0.290831,0.0,0.0
408,101.75,31.0162,33.0225,150.523,120.023,116.326,0.00113964,0.0583048,21.0073,194.784,0.279597,0.0,0.0
410,102.25,30.7844,32.6279,147.218,120.015,116.334,0.00117072,0.0583468,21.0072,194.794,0.27835,0.0,0.0
412,102.75,30.5777,32.931,147.569,120.045,115.836,0.0011959,0.0584132,21.0071,194.804,0.318923,0.0,0.0
414,103.25,31.1471,32.488,152.938,120.022,117.067,0.00118821,0.0584669,21.007,194.794,0.222739,0.0,0.0
416,103.75,30.7635,32.3162,149.021,120.033,117.301,0.00118198,0.0584824,21.007,194.784,0.205721,0.0,0.0
418,104.25,31.4969,32.0368,149.671,120.025,115.556,0.00114277,0.0584949,21.0069,194.794,0.339033,0.0,0.0
420,104.75,31.1493,32.4046,148.48,120.025,116.349,0.00111102,0.0584913,21.0069,194.794,0.278012,0.0,0.0
422,105.25,30.9238,32.8195,149.635,120.007,116.541,0.00108529,0.0584885,21.0069,194.784,0.261922,0.0,0.0
424,105.75,30.6811,32.9474,148.577,120.008,116.09,0.00102424,0.0584588,21.0068,194.784,0.296627,0.0,0.0
426,106.25,30.6933,32.145,146.242,120.014,116.483,0.000974785,0.0584347,21.0068,194.784,0.266821,0.0,0.0
428,106.75,30.3747,32.3873,153.417,120.015,117.018,0.000928638,0.058408,21.0068,194.794,0.226014,0.0,0.0
430,107.25,30.6951,32.7575,146.823,120.016,116.436,0.000891259,0.0583799,21.0068,194.784,0.270577,0.0,0.0
432,107.75,31.09,32.834,150.744,120.027,116.582,0.000867072,0.0583572,21.0068,194.773,0.260236,0.0,0.0
434,108.25,30.9636,32.5699,152.185,120.007,117.183,0.00084748,0.0583524,21.0068,194.784,0.212835,0.0,0.0
436,108.75,30.9371,32.2272,146.771,120.008,116.652,0.000846822,0.0583486,21.0068,194.804,0.253459,0.0,0.0
438,109.25,31.1522,32.562,148.37,119.997,115.725,0.000845697,0.0583455,21.0068,194.773,0.323927,0.0,0.0
440,109.75,31.1466,32.3196,144.147,120.003,115.834,0.000854408,0.0583429,21.0068,194.763,0.315884,0.0,0.0
442,110.25,30.1604,31.9247,149.517,119.992,116.613,0.000870125,0.0583481,21.0068,194.773,0.255238,0.0,0.0
444,110.75,30.5037,32.1295,147.045,120.016,116.5,0.000882856,0.0583587,21.0068,194.794,0.265675,0.0,0.0
446,111.25,31.3234,32.4557,151.079,119.991,116.237,0.000912679,0.0583674,21.0068,194.773,0.284034,0.0,0.0
448,111.75,30.5892,32.944,148.127,119.998,116.553,0.000936836,0.0583711,21.0068,194.794,0.260292,0.0,0.0
450,112.25,30.9845,32.7107,146.952,119.981,116.035,0.000956404,0.0583846,21.0068,194.784,0.298769,0.0,0.0
452,112.75,31.2473,32.1098,149.769,119.996,116.092,0.000990555,0.058402,21.0068,194.794,0.295527,0.0,0.0
454,113.25,30.8407,32.6826,149.013,119.992,116.137,0.00101822,0.0584161,21.0068,194.784,0.291772,0.0,0.0
456,113.75,30.7265,32.5491,149.288,119.999,116.369,0.00104962,0.0584412,21.0068,194.763,0.274484,0.0,0.0
458,114.25,30.5364,32.3586,150.253,119.988,116.584,0.00108315,0.0584615,21.0068,194.763,0.257179,0.0,0.0
460,114.75,30.3105,31.8542,150.995,119.989,116.527,0.00111609,0.058478,21.0068,194.753,0.261602,0.0,0.0
462,115.25,31.0217,32.4256,146.89,119.971,115.757,0.00114798,0.0584913,21.0068,194.763,0.319481,0.0,0.0
464,115.75,31.3622,32.7553,145.779,119.978,115.897,0.00117382,0.0585022,21.0068,194.763,0.309221,0.0,0.0
466,116.25,30.9145,32.9944,144.999,119.955,116.279,0.00119474,0.0585037,21.0068,194.763,0.278166,0.0,0.0
468,116.75,31.1433,32.6835,146.845,119.979,116.452,0.00120802,0.0584985,21.0068,194.743,0.266639,0.0,0.0
470,117.25,30.8185,32.8043,149.973,119.966,116.095,0.00121879,0.0584871,21.0068,194.743,0.293115,0.0,0.0
472,117.75,30.8794,32.6223,149.225,119.99,115.995,0.0012275,0.0584713,21.0068,194.743,0.302606,0.0,0.0
474,118.25,30.5753,32.9692,150.201,119.967,116.647,0.001237,0.0584442,21.0069,194.743,0.250838,0.0,0.0
476,118.75,31.0361,32.3501,147.393,119.972,116.027,0.0012447,0.0584092,21.0072,194.743,0.298783,0.0,0.0
478,119.25,30.5888,32.5855,146.731,119.96,115.626,0.00125093,0.0583737,21.0074,194.753,0.328828,0.0,0.0
480,119.75,31.1273,32.3317,149.287,119.971,116.666,0.00126087,0.0583384,21.0075,194.753,0.249601,0.0,0.0
482,120.25,30.7586,32.2304,149.896,119.956,115.834,0.00126892,0.0583099,21.0077,194.763,0.312439,0.0,0.0
484,120.75,30.8554,32.2491,144.567,119.972,115.527,0.00127286,0.0582939,21.0078,194.753,0.337366,0.0,0.0
486,121.25,31.0899,32.4923,151.811,119.951,116.391,0.00127375,0.0582875,21.0079,194.753,0.269203,0.0,0.0
488,121.75,30.8993,31.9766,146.04,119.96,116.385,0.00126804,0.0582823,21.008,194.743,0.270363,0.0,0.0
490,122.25,31.1826,32.6973,149.529,119.942,115.74,0.00125763,0.0582644,21.008,194.753,0.318681,0.0,0.0
492,122.75,30.8322,32.5003,148.149,119.961,115.524,0.00124213,0.0582499,21.0081,194.773,0.336766,0.0,0.0
494,123.25,31.0412,32.4107,147.368,119.952,115.947,0.00122321,0.0582382,21.0081,194.763,0.303437,0.0,0.0
496,123.75,30.4683,32.3318,149.215,119.95,115.824,0.00120789,0.0582287,21.0081,194.743,0.312753,0.0,0.0
498,124.25,31.2896,32.389,148.372,119.927,115.848,0.00118816,0.0582426,21.0082,194.743,0.309233,0.0,0.0
500,124.75,31.4866,32.5588,151.942,119.945,116.297,0.00117217,0.0582733,21.0082,194.743,0.27595,0.0,0.0
502,125.25,31.2694,32.6701,146.638,119.924,117.458,0.00115557,0.0582766,21.0082,194.743,0.18561,0.0,0.0
504,125.75,30.813,32.4452,149.26,119.939,115.978,0.00114212,0.0582598,21.0082,194.733,0.300018,0.0,0.0
506,126.25,30.6763,32.3477,148.284,119.926,115.641,0.00113122,0.0582462,21.0082,194.733,0.325102,0.0,0.0
508,126.75,31.5888,32.7073,147.049,119.93,116.477,0.0011346,0.0582351,21.0082,194.743,0.261087,0.0,0.0
510,127.25,31.105,32.7712,148.328,119.92,116.61,0.00113733,0.0582262,21.0082,194.743,0.250099,0.0,0.0
512,127.75,30.8857,32.4758,150.224,119.93,115.462,0.0011542,0.0582262,21.0082,194.733,0.339226,0.0,0.0
514,128.25,31.0945,32.4669,148.089,119.923,116.394,0.00116786,0.0582326,21.0082,194.723,0.266901,0.0,0.0
516,128.75,31.0669,32.1515,153.551,119.918,116.082,0.00118503,0.0582379,21.0082,194.723,0.290502,0.0,0.0
518,129.25,30.974,32.3121,147.924,119.908,116.679,0.00119894,0.0582421,21.0083,194.713,0.243942,0.0,0.0
520,129.75,30.9701,31.7908,146.839,119.909,116.019,0.00121143,0.0582455,21.0083,194.723,0.294692,0.0,0.0
522,130.25,31.0305,32.1256,152.651,119.903,116.668,0.00122154,0.0582346,21.0083,194.723,0.244401,0.0,0.0
524,130.75,31.0776,32.396,148.71,119.904,115.013,0.00123217,0.0582258,21.0083,194.723,0.372138,0.0,0.0
526,131.25,31.0402,32.7994,147.831,119.9,115.566,0.00124079,0.0582186,21.0083,194.733,0.328985,0.0,0.0
528,131.75,30.7127,32.6986,145.633,119.896,116.536,0.00125387,0.0582128,21.0083,194.723,0.253962,0.0,0.0
530,132.25,30.7091,32.4193,146.388,119.89,115.832,0.00126447,0.0581808,21.0078,194.753,0.307658,0.0,0.0
532,132.75,30.8169,32.8746,152.242,119.887,116.874,0.00127306,0.0581548,21.0075,194.743,0.227404,0.0,0.0
534,133.25,30.5746,32.2641,146.734,119.883,116.487,0.0012858,0.0581475,21.0072,194.743,0.256781,0.0,0.0
536,133.75,30.6996,32.4802,149.046,119.894,116.416,0.00130133,0.0581415,21.0069,194.733,0.26307,0.0,0.0
538,134.25,31.0918,32.3143,148.04,119.879,116.003,0.00132227,0.0581439,21.0068,194.743,0.29366,0.0,0.0
540,134.75,30.6457,32.2871,150.472,119.878,116.756,0.00134676,0.0581523,21.0066,194.733,0.235742,0.0,0.0
542,135.25,30.6497,32.9355,146.349,119.869,115.8,0.00136659,0.0581591,21.0065,194.713,0.308618,0.0,0.0
544,135.75,30.8446,32.3312,149.949,119.855,116.595,0.00138632,0.058192,21.0064,194.713,0.246441,0.0,0.0
546,136.25,30.7296,32.1069,147.106,119.862,115.238,0.00140231,0.0582186,21.0063,194.723,0.35152,0.0,0.0
548,136.75,30.1746,32.3699,149.421,119.858,115.98,0.00141281,0.0582402,21.0062,194.723,0.29387,0.0,0.0
550,137.25,30.85,32.1942,147.447,119.868,115.888,0.00141617,0.0582577,21.0062,194.733,0.301724,0.0,0.0
552,137.75,30.9283,32.7865,153.114,119.851,115.865,0.00141426,0.0582718,21.0061,194.733,0.302229,0.0,0.0
554,138.25,30.7784,32.3251,151.734,119.844,116.081,0.00140564,0.0582696,21.0061,194.713,0.285062,0.0,0.0
556,138.75,30.7086,31.8055,147.82,119.828,116.042,0.00139229,0.0582678,21.0061,194.723,0.286815,0.0,0.0
558,139.25,30.7253,32.263,150.489,119.837,115.846,0.00138148,0.05828,21.006,194.723,0.302671,0.0,0.0
560,139.75,30.6141,32.4579,146.899,119.832,115.667,0.00136243,0.0582899,21.006,194.723,0.316081,0.0,0.0
562,140.25,31.0198,32.4867,150.183,119.839,115.909,0.00133775,0.0583116,21.006,194.713,0.297926,0.0,0.0
564,140.75,30.8145,32.5215,146.765,119.826,115.42,0.00131775,0.0583292,21.006,194.723,0.334733,0.0,0.0
566,141.25,30.7046,32.5991,148.139,119.828,116.311,0.00130156,0.0583435,21.006,194.713,0.266176,0.0,0.0
568,141.75,30.9025,32.5945,148.689,119.822,115.86,0.00127135,0.058355,21.0059,194.723,0.300437,0.0,0.0
570,142.25,30.4647,31.9827,148.681,119.819,116.119,0.00124688,0.058337,21.0058,194.723,0.280298,0.0,0.0
572,142.75,31.1855,31.9038,148.996,119.802,116.116,0.00121974,0.0583224,21.0057,194.723,0.279259,0.0,0.0
574,143.25,31.2458,31.5444,149.616,119.813,116.059,0.00119776,0.0583055,21.0056,194.723,0.284461,0.0,0.0
576,143.75,30.6734,32.4946,149.827,119.803,115.627,0.00118117,0.058301,21.0056,194.733,0.316976,0.0,0.0
578,144.25,30.7683,32.5714,154.118,119.809,116.492,0.00116773,0.0583206,21.0055,194.743,0.250869,0.0,0.0
580,144.75,30.9931,31.9173,145.918,119.794,115.256,0.0011652,0.0583365,21.0055,194.733,0.345045,0.0,0.0
582,145.25,30.4279,32.2608,147.755,119.8,116.189,0.00117067,0.0583638,21.0054,194.733,0.273494,0.0,0.0
584,145.75,30.7477,31.7422,149.829,119.786,116.246,0.00118409,0.0583988,21.0054,194.733,0.268036,0.0,0.0
586,146.25,31.4172,32.3036,150.51,119.791,116.188,0.00120306,0.0584272,21.0054,194.733,0.272842,0.0,0.0
588,146.75,31.0334,32.8106,147.761,119.776,115.728,0.00121843,0.0584502,21.0054,194.723,0.307239,0.0,0.0
590,147.25,30.7176,32.4787,152.604,119.786,115.964,0.00123859,0.0584616,21.0053,194.723,0.289749,0.0,0.0
592,147.75,30.6705,32.2473,146.859,119.776,115.779,0.00126187,0.0584644,21.0053,194.713,0.303255,0.0,0.0
594,148.25,30.8829,32.7952,149.28,119.784,115.993,0.0012878,0.0584666,21.0053,194.723,0.287359,0.0,0.0
596,148.75,31.08,32.3295,150.217,119.773,115.556,0.00131517,0.0584685,21.0053,194.723,0.320255,0.0,0.0
598,149.25,30.5078,32.0723,156.306,119.769,115.215,0.00134892,0.0584699,21.0053,194.723,0.346402,0.0,0.0
600,149.75,30.9828,32.3653,148.274,119.747,115.285,0.00138668,0.0584711,21.0053,194.723,0.33926,0.0,0.0
602,150.25,31.2578,32.7424,144.609,119.764,115.735,0.00142564,0.0584721,21.0053,194.723,0.305775,0.0,0.0
604,150.75,31.4202,32.47,153.905,119.755,116.36,0.00146473,0.0584729,21.0053,194.733,0.256954,0.0,0.0
606,151.25,30.7956,32.4741,150.112,119.747,116.125,0.0015009,0.0584461,21.0053,194.723,0.274483,0.0,0.0
608,151.75,30.7501,32.0598,147.337,119.739,115.923,0.00153426,0.0584245,21.0053,194.713,0.289374,0.0,0.0
610,152.25,31.1887,32.8862,145.983,119.753,116.184,0.00156128,0.0583796,21.0053,194.723,0.270357,0.0,0.0
612,152.75,30.7903,32.4435,151.816,119.737,116.468,0.00158316,0.0583432,21.0053,194.723,0.247368,0.0,0.0
614,153.25,30.4996,32.1045,148.913,119.746,116.675,0.00160089,0.0583411,21.0053,194.733,0.232153,0.0,0.0
616,153.75,30.6875,31.9369,154.221,119.732,116.015,0.00161525,0.0583394,21.0053,194.723,0.281739,0.0,0.0
618,154.25,31.0221,32.9251,147.11,119.733,116.395,0.00161831,0.0583243,21.0053,194.713,0.25261,0.0,0.0
620,154.75,31.2524,32.1944,151.341,119.72,116.57,0.0016208,0.0583121,21.0053,194.713,0.238252,0.0,0.0
622,155.25,31.227,32.247,146.843,119.741,114.841,0.00161637,0.0583159,21.0053,194.733,0.373317,0.0,0.0
624,155.75,30.8325,32.6835,147.518,119.732,115.608,0.00160699,0.058319,21.0053,194.723,0.31317,0.0,0.0
626,156.25,31.0863,32.3433,152.884,119.723,116.196,0.00159102,0.0583431,21.0053,194.713,0.267195,0.0,0.0
628,156.75,30.8807,32.5847,147.204,119.718,116.418,0.00157056,0.0583821,21.0053,194.713,0.249752,0.0,0.0
630,157.25,30.5886,32.494,150.362,119.731,116.865,,0.0584137,,194.713,0.216438,0.0,0.0
632,157.75,31.0536,32.4575,149.909,119.71,115.741,,0.0584897,,194.723,0.301227,0.0,0.0
634,158.25,30.7629,32.2212,147.97,119.728,116.375,,0.0585966,,194.703,0.253816,0.0,0.0
636,158.75,30.7705,32.6306,148.658,119.698,116.133,,0.0587408,,194.713,0.270103,0.0,0.0
638,159.25,30.9754,32.7946,153.096,119.716,115.804,,0.0589095,,194.703,0.296812,0.0,0.0
640,159.75,30.9541,32.607,149.785,119.689,115.859,,0.059075,,194.703,0.290552,0.0,0.0
642,160.25,30.7107,32.6024,152.498,119.696,115.732,,,,194.703,0.300959,0.0,0.0
644,160.75,31.0844,32.5063,147.326,119.684,115.64,,,,194.693,0.307117,0.0,0.0
646,161.25,30.6881,32.8886,152.936,119.707,116.452,,,,194.703,0.246324,0.0,0.0
648,161.75,30.8887,32.5028,147.758,119.686,116.496,,,,194.673,0.241351,0.0,0.0
650,162.25,31.2554,32.6397,148.944,119.689,116.151,,,,194.673,0.268073,0.0,0.0
652,162.75,31.7827,32.961,147.034,119.678,115.196,,,,194.683,0.341067,0.0,0.0
654,163.25,31.0324,32.6957,148.013,119.694,115.942,,,,194.683,0.284608,0.0,0.0
656,163.75,31.2095,32.4889,148.734,119.668,115.969,,,,194.683,0.280556,0.0,0.0
658,164.25,31.1305,32.2196,147.263,119.687,116.012,,,,194.683,0.278629,0.0,0.0
660,164.75,30.9832,32.3588,150.044,119.665,115.751,,,,194.673,0.297167,0.0,0.0
662,165.25,30.7776,32.5941,144.49,119.676,116.041,,,,194.683,0.275587,0.0,0.0
664,165.75,31.2518,32.6944,148.649,119.661,115.374,,,,194.683,0.325967,0.0,0.0
666,166.25,31.1158,32.4117,149.242,119.695,115.94,,,,194.673,0.284802,0.0,0.0
668,166.75,31.404,32.5901,150.776,119.667,115.818,,,,194.673,0.292106,0.0,0.0
670,167.25,30.4687,32.4402,146.062,119.677,115.913,,,,194.693,0.285581,0.0,0.0
672,167.75,31.2282,32.8312,145.968,119.659,115.927,,,,194.683,0.283168,0.0,0.0
673,168,30.2737,32.5288,148.498,119.68,114.98,,,,194.683,0.357959,0.0,0.0