File: 01_Data/Tyvek_Wrap/Cone/Tyvek_Cone_HF50Scan_220308_R3.csv
Names,Time,Stack TC,Smoke TC,Exh Press,Smoke Comp,Smoke Meas,CO Meter,CO2 Meter,O2 Meter,Sample Mass,Ext Coeff,Start Test,Flame Verif
Chan Gain,,500,500,1,1,1,1,1,1,1,1,1.0,1.0
Offset,,0,0,0.134161,0,0,0,0,0,0,0,0.0,0.0
Gain,,1,1,25.011,15.9695,16.7489,1,1,1,1.00099,1.01863,1.0,1.0
Units,sec,C,C,Pa,%,%,%,%,%,g,/m,,
Baseline,,31.7389,33.1458,149.252,119.181,115.805,0.00110323,0.0586103,21.0039,-835.593,0.256843,,
6,1.25,30.753,31.926,153.661,119.467,115.623,0.000951655,0.0601828,21.0046,184.313,0.292253,0.0,0.0
12,2.75,30.3104,31.533,153.637,119.474,115.708,0.000930188,0.0604749,21.0046,183.472,0.286208,0.0,0.0
18,4.25,30.5879,31.8222,151.096,119.456,116.177,0.000983832,0.0607621,21.0046,183.362,0.248696,0.0,0.0
24,5.75,30.4723,31.7322,146.983,119.463,116.311,0.00107322,0.0608941,21.0046,183.422,0.238951,0.0,0.0
30,7.25,30.5108,31.7407,148.4,119.463,115.475,0.00119447,0.0608611,21.0046,183.412,0.303384,0.0,0.0
36,8.75,30.5923,31.8251,146.917,119.47,115.021,0.00136415,0.0607417,21.0035,183.382,0.339162,0.0,0.0
42,10.25,30.5143,32.16,149.221,119.448,115.668,0.00156232,0.0605048,21.003,183.402,0.287353,0.0,0.0
48,11.75,30.8175,31.7381,148.65,119.464,114.091,0.00173419,0.0601103,21.0027,183.382,0.41121,0.0,0.0
54,13.25,30.7989,32.1532,150.428,119.442,114.287,0.00184669,0.0597942,21.0023,183.372,0.394213,0.0,0.0
60,14.75,30.2139,32.0927,149.14,119.452,113.632,0.00192114,0.059534,21.0015,183.362,0.446279,0.0,0.0
66,16.25,30.8744,31.9569,148.831,119.429,113.228,0.00203593,0.0593466,21.0004,183.372,0.476491,0.0,0.0
72,17.75,30.6813,32.3794,147.292,119.453,113.226,0.00221665,0.0592763,20.9998,183.392,0.478402,0.0,0.0
78,19.25,30.9241,31.8308,149.655,119.445,112.19,0.0023852,0.0591705,20.9998,183.372,0.559919,0.0,0.0
84,20.75,31.1146,32.3095,150.628,119.457,114.12,0.00255654,0.0589844,21.0002,183.342,0.408381,0.0,0.0
90,22.25,31.319,32.3502,147.184,119.426,113.165,0.00269813,0.0588565,21.0004,183.332,0.481122,0.0,0.0
96,23.75,29.7292,32.1308,148.288,119.438,113.656,0.00280059,0.0588349,21.0007,183.322,0.443332,0.0,0.0
102,25.25,30.826,32.5342,146.698,119.413,114.489,0.0027991,0.0588894,21.0018,183.322,0.376328,0.0,0.0
108,26.75,30.6673,31.5774,153.492,119.42,114.203,0.00271512,0.058923,21.0023,183.312,0.399129,0.0,0.0
114,28.25,30.9771,31.9349,151.674,119.394,114.493,0.00259684,0.0590089,21.0026,183.302,0.37451,0.0,0.0
120,29.75,30.8006,32.2898,144.744,119.425,113.861,0.00242428,0.0590631,21.0028,183.312,0.426326,0.0,0.0
126,31.25,30.6544,32.9326,152.072,119.416,113.917,0.00228597,0.0591166,21.0029,183.312,0.421261,0.0,0.0
132,32.75,30.6286,31.4712,146.691,119.423,115.158,0.00221109,0.0590806,21.0029,183.322,0.324953,0.0,0.0
138,34.25,30.9631,32.1594,149.905,119.399,115.333,0.00217924,0.0589804,21.0029,183.302,0.309534,0.0,0.0
144,35.75,30.9256,32.7474,146.206,119.393,115.377,0.00213907,0.0588791,21.0029,183.292,0.305768,0.0,0.0
150,37.25,31.5233,33.4177,150.837,119.408,115.551,0.0020775,0.0589134,21.003,183.292,0.293374,0.0,0.0
156,38.75,30.9237,31.9716,148.504,119.393,114.816,0.002026,0.05887,21.003,183.302,0.349298,0.0,0.0
162,40.25,31.1091,32.3563,151.441,119.401,114.919,0.00198813,0.0587619,21.003,183.312,0.34189,0.0,0.0
168,41.75,31.1911,32.5808,151.385,119.384,115.114,0.00194549,0.0587098,21.003,183.312,0.325447,0.0,0.0
174,43.25,31.0519,32.2182,150.947,119.393,115.48,0.00184646,0.0586383,21.0028,183.302,0.297774,0.0,0.0
180,44.75,31.469,32.4535,147.473,119.383,115.55,0.00178228,0.0585961,21.0027,183.282,0.291632,0.0,0.0
186,46.25,32.028,32.6012,150.676,119.386,114.379,0.0017526,0.0585737,21.0027,183.292,0.382826,0.0,0.0
192,47.75,31.2482,32.4519,151.741,119.372,115.16,0.00175075,0.0585618,21.0026,183.282,0.320999,0.0,0.0
198,49.25,31.5264,32.4748,147.711,119.381,115.205,0.00178339,0.0585554,21.0026,183.262,0.31817,0.0,0.0
204,50.75,31.007,32.6267,152.197,119.345,114.735,0.00180114,0.058611,21.0026,183.252,0.351938,0.0,0.0
210,52.25,31.5999,32.3967,145.045,119.347,115.118,0.001748,0.0585357,21.0033,183.272,0.322393,0.0,0.0
216,53.75,31.0646,32.1275,154.586,119.35,115.268,0.00165984,0.0586251,21.003,183.252,0.310956,0.0,0.0
222,55.25,30.7818,32.3747,150.604,119.351,115.03,0.00160126,0.0586772,21.0028,183.242,0.329476,0.0,0.0
228,56.75,31.0121,32.5208,147.436,119.344,114.84,0.00159926,0.0585894,21.0027,183.262,0.343748,0.0,0.0
234,58.25,30.7475,32.6789,147.263,119.351,115.211,0.00160894,0.0584753,21.0027,183.242,0.315429,0.0,0.0
240,59.75,31.289,32.8812,153.518,119.323,115.758,0.00159188,0.0584916,21.0029,183.252,0.271033,0.0,0.0
246,61.25,31.2943,32.5039,145.302,119.326,114.366,0.0015609,0.058549,21.0038,183.242,0.379377,0.0,0.0
252,62.75,31.144,32.139,149.693,119.313,115.88,0.00155487,0.0584748,21.0043,183.232,0.260841,0.0,0.0
258,64.25,30.95,32.7227,148.148,119.322,115.876,0.00159652,0.058525,21.0038,183.242,0.261853,0.0,0.0
264,65.75,31.1141,32.5671,151.905,119.307,115.522,0.0016813,0.0585359,21.0047,183.242,0.288038,0.0,0.0
270,67.25,30.4861,32.8726,148.187,119.316,115.631,0.00174623,0.0585417,21.0058,183.242,0.280276,0.0,0.0
276,68.75,30.8833,32.8013,145.277,119.306,114.781,0.00171692,0.0585523,21.0064,183.222,0.345511,0.0,0.0
282,70.25,30.9428,32.3643,145.872,119.31,114.962,0.00163339,0.058547,21.0067,183.232,0.331653,0.0,0.0
288,71.75,31.0352,31.9916,149.177,119.304,115.908,0.00154998,0.0584701,21.0069,183.232,0.25798,0.0,0.0
294,73.25,31.091,32.4718,150.437,119.291,115.81,0.00156466,0.0584073,21.0078,183.222,0.264563,0.0,0.0
300,74.75,31.1878,32.3015,151.183,119.308,115.04,0.00164906,0.0584752,21.0075,183.232,0.32551,0.0,0.0
306,76.25,31.6788,32.7411,148.488,119.288,115.507,0.00173109,0.0585041,21.0075,183.212,0.287837,0.0,0.0
312,77.75,31.4548,33.1095,145.063,119.289,115.094,0.00168781,0.0584792,21.0084,183.202,0.31988,0.0,0.0
318,79.25,31.1124,32.6402,148.351,119.287,115.909,0.0015564,0.0584322,21.0089,183.192,0.2567,0.0,0.0
324,80.75,31.0214,32.7115,149.261,119.273,114.866,0.00142823,0.0584457,21.0091,183.202,0.33639,0.0,0.0
330,82.25,31.3654,32.6425,150.827,119.264,115.136,0.00143283,0.058569,21.0093,183.212,0.31476,0.0,0.0
336,83.75,31.1937,33.0246,150.302,119.26,115.048,0.00153813,0.0587352,21.0093,183.212,0.321298,0.0,0.0
342,85.25,31.5598,33.1066,150.818,119.244,115.704,0.00171594,0.0588519,21.0094,183.212,0.269302,0.0,0.0
348,86.75,31.3156,32.8702,149.802,119.245,115.168,0.00191281,0.0587862,21.0094,183.192,0.310878,0.0,0.0
354,88.25,31.1426,33.0874,149.782,119.232,114.969,0.00202319,0.0587778,21.008,183.192,0.325331,0.0,0.0
360,89.75,31.0216,32.1232,145.827,119.234,115.928,0.00200214,0.0587981,21.0069,183.182,0.251262,0.0,0.0
366,91.25,30.9893,32.6372,146.545,119.221,115.308,0.00192531,0.0587788,21.0063,183.212,0.298192,0.0,0.0
372,92.75,31.3467,32.9599,151.582,119.224,115.591,0.00184953,0.0586658,21.006,183.182,0.276535,0.0,0.0
378,94.25,31.5436,32.7678,148.107,119.191,115.001,0.00175042,0.0586585,21.0058,183.182,0.3198,0.0,0.0
384,95.75,31.6914,33.0208,148.642,119.195,115.794,0.00163848,0.0585944,21.0057,183.182,0.258628,0.0,0.0
390,97.25,31.0172,32.6152,149.014,119.175,115.389,0.00155012,0.0585746,21.0056,183.182,0.288502,0.0,0.0
396,98.75,31.4284,32.7173,149.81,119.181,114.391,0.00151882,0.0585231,21.0056,183.182,0.366539,0.0,0.0
402,100.25,31.5826,32.9376,148.187,119.164,114.752,0.00153528,0.0583944,21.0056,183.172,0.337153,0.0,0.0
408,101.75,30.7715,32.6113,150.741,119.177,115.509,0.00158175,0.0582854,21.0056,183.172,0.279348,0.0,0.0
414,103.25,31.4242,33.0145,148.614,119.17,115.221,0.00165543,0.0581978,21.006,183.172,0.301092,0.0,0.0
420,104.75,31.075,32.8007,142.392,119.166,116.007,0.00172479,0.0581134,21.0069,183.152,0.240079,0.0,0.0
426,106.25,31.4926,33.1114,149.177,119.15,115.368,0.00177966,0.0581418,21.0074,183.152,0.288222,0.0,0.0
432,107.75,31.4722,32.8046,149.597,119.173,115.195,0.00180044,0.0581064,21.0076,183.152,0.303294,0.0,0.0
438,109.25,31.086,32.7562,148.321,119.136,115.996,0.00179807,0.0579842,21.0078,183.152,0.238641,0.0,0.0
444,110.75,31.9244,32.8454,150.995,119.151,115.379,0.00179822,0.0578597,21.0078,183.152,0.287426,0.0,0.0
450,112.25,31.3885,33.0944,152.324,119.16,115.841,0.00180496,0.0577865,21.0084,183.172,0.252406,0.0,0.0
456,113.75,31.3765,32.9881,146.553,119.158,115.987,0.00183519,0.0577741,21.0091,183.152,0.241033,0.0,0.0
462,115.25,31.2141,32.6383,147.057,119.178,115.247,0.00185581,0.0577402,21.0095,183.152,0.299691,0.0,0.0
468,116.75,31.3926,32.9108,149.215,119.157,115.461,0.00185196,0.0576573,21.0089,183.152,0.281535,0.0,0.0
474,118.25,31.4512,33.3506,146.093,119.165,115.117,0.00182686,0.0576186,21.0092,183.132,0.308817,0.0,0.0
480,119.75,31.6437,33.0331,146.555,119.143,114.856,0.00173338,0.0576316,21.0091,183.142,0.327505,0.0,0.0
486,121.25,31.8215,33.3605,148.038,119.158,115.544,0.00162242,0.0576428,21.0091,183.132,0.275239,0.0,0.0
492,122.75,31.6402,33.259,147.442,119.141,115.714,0.00152391,0.0576126,21.009,183.132,0.260806,0.0,0.0
498,124.25,31.6972,33.2167,150.243,119.151,114.942,0.00144969,0.0576389,21.009,183.122,0.321336,0.0,0.0
504,125.75,31.8217,33.1928,147.657,119.15,115.671,0.0014226,0.0576069,21.009,183.122,0.26478,0.0,0.0
510,127.25,31.5462,32.9774,149.418,119.165,115.329,0.0014393,0.0577223,21.009,183.102,0.292403,0.0,0.0
516,128.75,31.1128,32.6687,149.654,119.155,115.312,0.00144433,0.0578932,21.0084,183.092,0.292867,0.0,0.0
522,130.25,31.3503,33.0426,147.653,119.163,115.684,0.00143255,0.0580134,21.0079,183.122,0.264777,0.0,0.0
528,131.75,31.5857,32.9704,145.303,119.158,114.842,0.0014139,0.0582102,21.0078,183.122,0.329639,0.0,0.0
534,133.25,31.4602,33.1508,147.744,119.164,115.529,0.00142509,0.0583704,21.0077,183.102,0.276821,0.0,0.0
540,134.75,31.5499,32.8282,149.486,119.161,115.419,0.00144094,0.0584165,21.0074,183.112,0.285107,0.0,0.0
546,136.25,31.7166,33.3023,146.428,119.161,115.286,0.00145722,0.0583879,21.0072,183.102,0.295363,0.0,0.0
552,137.75,31.999,33.022,145.112,119.15,115.194,0.00151821,0.0583636,21.007,183.092,0.301732,0.0,0.0
558,139.25,31.512,33.0333,145.45,119.155,115.601,0.00158006,0.0582918,21.007,183.112,0.270553,0.0,0.0
564,140.75,31.8123,33.3151,143.976,119.138,115.734,0.00150574,0.0582698,21.0069,183.112,0.258971,0.0,0.0
570,142.25,31.4573,33.4116,149.68,119.134,115.58,0.00138871,0.0582086,21.0069,183.092,0.270641,0.0,0.0
576,143.75,31.7816,33.1556,151.498,119.12,116.145,0.00133597,0.0581924,21.0069,183.122,0.225947,0.0,0.0
582,145.25,31.9532,33.2971,149.4,119.132,115.37,0.00134934,0.0581175,21.0069,183.092,0.286674,0.0,0.0
588,146.75,31.8725,33.269,144.718,119.129,115.15,0.00131036,0.057968,21.0069,183.102,0.303494,0.0,0.0
594,148.25,31.4872,33.1691,148.089,119.111,115.051,0.00120286,0.0579308,21.0069,183.102,0.30984,0.0,0.0
600,149.75,31.7432,33.393,145.709,119.109,115.74,0.00109613,0.0579666,21.0063,183.082,0.256377,0.0,0.0
606,151.25,32.0676,33.4324,148.957,119.096,115.072,0.00100628,0.0581355,21.0055,183.092,0.307115,0.0,0.0
612,152.75,32.0697,33.1917,147.19,119.104,115.113,0.000950811,0.0581427,21.0055,183.092,0.304525,0.0,0.0
618,154.25,32.0032,33.2421,148.192,119.088,115.601,0.00092974,0.0582191,21.0062,183.082,0.265509,0.0,0.0
624,155.75,32.1981,33.1476,149.768,119.09,114.942,0.000914277,0.058215,21.0065,183.082,0.316726,0.0,0.0
630,157.25,31.9693,33.2848,147.181,119.081,115.167,0.000903265,0.0581167,21.0067,183.082,0.298606,0.0,0.0
636,158.75,31.9473,33.4366,148.337,119.078,115.192,0.000924262,0.058065,21.008,183.082,0.296479,0.0,0.0
642,160.25,31.6944,33.3653,148.551,119.079,115.798,0.000957727,0.0580624,21.0081,183.092,0.249692,0.0,0.0
648,161.75,31.9324,33.3304,145.999,119.075,115.315,0.001011,0.0580894,21.0086,183.082,0.286713,0.0,0.0
654,163.25,31.5547,33.3637,148.1,119.052,115.601,0.00103925,0.0580153,21.009,183.092,0.262839,0.0,0.0
660,164.75,31.3556,33.0295,147.337,119.048,115.455,0.00107661,0.0579294,21.0093,183.092,0.273893,0.0,0.0
666,166.25,31.3849,33.0742,147.855,119.047,114.99,0.00112534,0.0578838,21.0094,183.082,0.309774,0.0,0.0
672,167.75,32.0124,33.1223,150.354,119.041,115.599,0.0011978,0.0579881,21.0095,183.062,0.262158,0.0,0.0
678,169.25,31.1777,33.446,144.84,119.032,115.24,0.00126927,0.0580252,21.0095,183.052,0.289276,0.0,0.0
684,170.75,31.7182,33.2766,149.364,119.057,115.522,0.00129647,0.0579031,21.0095,183.052,0.269331,0.0,0.0
690,172.25,31.9419,33.3036,148.626,119.037,114.566,0.00126463,0.0579245,21.0087,183.062,0.34207,0.0,0.0
696,173.75,31.7915,33.3513,145.978,119.04,115.279,0.00125154,0.0580701,21.0076,183.072,0.286853,0.0,0.0
702,175.25,31.6921,33.3915,153.943,119.029,115.866,0.00127396,0.0581524,21.007,183.062,0.240677,0.0,0.0
708,176.75,32.0297,33.372,147.523,119.036,116.293,0.00128105,0.0581691,21.0067,183.062,0.208299,0.0,0.0
714,178.25,32.0754,33.5897,147.382,119.027,115.967,0.00120924,0.058272,21.0065,183.042,0.232693,0.0,0.0
720,179.75,32.0262,33.4869,148.913,119.034,115.986,0.00109667,0.0582169,21.0064,183.042,0.231788,0.0,0.0
726,181.25,31.8194,33.5275,143.676,119.011,115.898,0.00101243,0.0582136,21.0055,183.042,0.236805,0.0,0.0
732,182.75,31.8422,33.3182,149.89,119.008,115.687,0.000987149,0.0582691,21.0053,183.052,0.252911,0.0,0.0
738,184.25,32.1312,33.5619,152.342,119.007,115.148,0.000978511,0.0583324,21.0052,183.042,0.294546,0.0,0.0
744,185.75,32.0562,33.7372,148.183,119.006,115.524,0.000978335,0.0583542,21.0061,183.032,0.265331,0.0,0.0
750,187.25,32.0252,33.2431,150.18,119.003,115.513,0.000985857,0.0583705,21.0067,183.032,0.265905,0.0,0.0
756,188.75,31.7603,33.7566,145.698,118.99,114.92,0.000973029,0.0584155,21.007,183.042,0.310936,0.0,0.0
762,190.25,31.8056,33.4462,147.918,118.988,115.679,0.000985657,0.05846,21.0072,183.032,0.252003,0.0,0.0
768,191.75,31.9762,33.8655,147.823,118.977,115.754,0.00102323,0.0584109,21.0073,182.982,0.245402,0.0,0.0
774,193.25,32.4087,33.8405,147.157,118.978,115.104,0.00104361,0.0583421,21.0061,183.022,0.295762,0.0,0.0
780,194.75,31.6092,33.7746,148.343,118.949,115.56,0.00106062,0.0584934,21.0052,183.052,0.258242,0.0,0.0
786,196.25,31.9455,33.7419,151.196,118.964,115.57,0.0011149,0.0589079,21.0041,183.042,0.258626,0.0,0.0
792,197.75,31.8743,33.5587,147.359,118.919,115.047,0.00117172,0.0600216,21.0019,183.022,0.295741,0.0,0.0
798,199.25,31.7049,33.323,145.576,118.92,114.364,0.00113154,0.061599,20.9997,183.032,0.349046,0.0,0.0
804,200.75,32.3244,33.3233,149.419,118.894,115.96,0.0010071,0.0627814,20.9986,183.042,0.223288,0.0,0.0
810,202.25,31.4799,32.9499,148.917,118.903,115.567,0.00086308,0.0635188,20.9979,183.042,0.254325,0.0,0.0
816,203.75,31.6264,33.4413,146.698,118.876,115.403,0.000856829,0.0637828,20.9983,183.032,0.264891,0.0,0.0
822,205.25,32.045,33.4965,147.491,118.888,115.438,0.000919577,0.0637027,20.9989,183.032,0.263155,0.0,0.0
828,206.75,31.4198,33.6442,148.706,118.86,115.468,0.000970275,0.0634179,20.9998,183.012,0.258734,0.0,0.0
834,208.25,32.1868,33.5048,148.839,118.862,114.983,0.00101014,0.0628467,21.0018,183.022,0.296458,0.0,0.0
840,209.75,32.0063,33.5822,149.148,118.839,115.18,0.00105756,0.0621367,21.0029,183.002,0.279494,0.0,0.0
846,211.25,32.0468,33.524,148.996,118.859,115.217,0.00109646,0.0615217,21.0035,183.022,0.278065,0.0,0.0
852,212.75,32.4895,33.6694,150.994,118.825,115.405,0.00115478,0.0609854,21.0038,183.012,0.260925,0.0,0.0
858,214.25,32.0104,33.5324,150.26,118.812,114.966,0.00120668,0.0606007,21.004,183.022,0.294069,0.0,0.0
864,215.75,32.1826,33.4063,143.904,118.801,115.625,0.00122621,0.0603196,21.0041,183.002,0.242128,0.0,0.0
870,217.25,31.9811,33.6143,142.944,118.788,115.112,0.0011705,0.0599256,21.0042,182.992,0.280881,0.0,0.0
876,218.75,32.5475,33.8621,146.973,118.78,115.117,0.00101964,0.0595649,21.0051,183.012,0.279938,0.0,0.0
882,220.25,32.4755,33.9687,150.204,118.761,114.925,0.000870147,0.059346,21.0058,182.992,0.293402,0.0,0.0
888,221.75,31.8332,33.7048,150.045,118.741,115.517,0.000773238,0.0591765,21.0062,182.992,0.245993,0.0,0.0
894,223.25,32.0599,33.7605,147.726,118.731,115.074,0.000766965,0.0591239,21.0063,183.022,0.279567,0.0,0.0
900,224.75,32.1036,33.6797,149.647,118.721,114.444,0.0008251,0.0590385,21.0064,182.982,0.327865,0.0,0.0
906,226.25,31.7993,33.6663,147.381,118.702,115.135,0.000919313,0.0589857,21.0065,183.002,0.272642,0.0,0.0
912,227.75,31.9763,33.5284,147.838,118.7,114.873,0.00103334,0.0588433,21.006,182.992,0.292791,0.0,0.0
918,229.25,32.5349,34.097,142.749,118.684,115.303,0.00107827,0.0587602,21.0058,182.982,0.258243,0.0,0.0
924,230.75,31.5718,33.3533,148.896,118.661,115.064,0.00105464,0.0587007,21.0057,183.002,0.275038,0.0,0.0
930,232.25,31.8484,33.7543,146.238,118.652,114.82,0.00106186,0.0586375,21.0056,183.002,0.293371,0.0,0.0
936,233.75,32.0115,33.3132,147.428,118.663,115.037,0.00113741,0.0585443,21.0056,182.992,0.27729,0.0,0.0
942,235.25,32.3223,33.7914,149.948,118.636,115.737,0.001234,0.0584438,21.0052,182.992,0.221083,0.0,0.0
948,236.75,32.3662,33.6242,145.827,118.618,115.226,0.00132206,0.0583999,21.005,182.972,0.259234,0.0,0.0
954,238.25,32.1597,33.4191,146.861,118.604,115.284,0.00140186,0.0584552,21.0048,182.962,0.253653,0.0,0.0
960,239.75,32.0501,33.7743,149.578,118.604,115.59,0.00148233,0.0584988,21.0048,182.972,0.230033,0.0,0.0
966,241.25,32.7693,34.0132,149.198,118.583,115.097,0.00151636,0.0584681,21.0041,182.972,0.266621,0.0,0.0
972,242.75,32.255,34.015,144.631,118.606,114.715,0.00144349,0.0584472,21.0033,182.972,0.298042,0.0,0.0
978,244.25,32.1248,33.8594,148.093,118.566,114.664,0.00130817,0.0585556,21.0028,182.982,0.299009,0.0,0.0
984,245.75,32.1583,34.1714,146.552,118.571,114.696,0.00118719,0.0586339,21.0028,182.982,0.296911,0.0,0.0
990,247.25,32.6944,34.2201,152.107,118.552,115.238,0.00106784,0.0586626,21.003,182.972,0.253366,0.0,0.0
996,248.75,32.5661,33.9465,146.159,118.564,115.015,0.00100539,0.0587508,21.0035,182.972,0.271543,0.0,0.0
1002,250.25,32.4402,33.8974,149.674,118.54,114.991,0.00101796,0.0587305,21.0051,182.952,0.271573,0.0,0.0
1008,251.75,32.0874,33.4775,145.304,118.551,115.664,0.00106388,0.0586987,21.0053,182.962,0.220339,0.0,0.0
1014,253.25,32.1497,33.9368,145.965,118.54,115.073,0.00108173,0.0586885,21.0049,182.972,0.265221,0.0,0.0
1020,254.75,32.0307,34.2896,148.27,118.538,114.952,0.00105504,0.0585965,21.0047,182.962,0.274445,0.0,0.0
1026,256.25,31.7575,33.788,148.266,118.521,115.234,0.000982335,0.0585668,21.0044,182.972,0.251292,0.0,0.0
1032,257.75,32.0567,34.1678,150.887,118.535,115.352,0.000951748,0.0586419,21.0041,182.982,0.243207,0.0,0.0
1038,259.25,31.9937,33.7286,149.399,118.526,115.734,0.000952699,0.0586439,21.0039,182.972,0.213021,0.0,0.0
1044,260.75,32.2935,34.3082,145.07,118.527,115.228,0.000944796,0.0585516,21.0038,182.942,0.252208,0.0,0.0
1050,262.25,32.3013,33.5848,148.901,118.536,115.415,0.000940953,0.0584435,21.0037,182.952,0.238411,0.0,0.0
1056,263.75,32.0892,34.025,150.96,118.541,114.364,0.000958012,0.058466,21.0037,182.942,0.320514,0.0,0.0
1062,265.25,32.1459,33.6603,151.25,118.55,115.176,0.00104491,0.0585134,21.0039,182.932,0.258016,0.0,0.0
1068,266.75,32.4319,33.4916,154.677,118.546,114.592,0.00115673,0.0585049,21.0049,182.942,0.303125,0.0,0.0
1074,268.25,32.256,33.9993,146.107,118.578,115.205,0.0012138,0.0584577,21.0054,182.932,0.257812,0.0,0.0
1080,269.75,31.8858,34.0208,150.261,118.568,115.891,0.00119914,0.0584031,21.0057,182.942,0.204073,0.0,0.0
1086,271.25,32.3743,34.14,147.368,118.58,115.249,0.00116299,0.0584089,21.0058,182.952,0.254589,0.0,0.0
1092,272.75,32.4785,34.0747,149.344,118.579,114.77,0.0011515,0.0584405,21.0061,182.952,0.291763,0.0,0.0
1098,274.25,32.5325,33.8935,146.462,118.6,115.03,0.00120321,0.0584572,21.0066,182.952,0.273147,0.0,0.0
1104,275.75,32.1215,34.2112,151.598,118.596,115.767,0.00128329,0.0585251,21.0069,182.962,0.215745,0.0,0.0
1110,277.25,31.6552,33.4055,145.293,118.618,114.847,0.0013506,0.0584969,21.0072,182.942,0.288693,0.0,0.0
1116,278.75,32.0288,33.6933,150.064,118.617,114.991,0.00137576,0.0584548,21.0076,182.932,0.277373,0.0,0.0
1122,280.25,32.4527,33.9518,144.969,118.645,115.851,0.00132464,0.0583445,21.0078,182.972,0.212909,0.0,0.0
1128,281.75,32.1497,34.0357,147.582,118.624,114.962,0.00123547,0.0582731,21.0079,182.932,0.280152,0.0,0.0
1134,283.25,32.3588,34.1231,149.516,118.633,114.828,0.00116421,0.0582351,21.008,182.922,0.291264,0.0,0.0
1140,284.75,32.2982,33.9384,146.076,118.654,115.156,0.00111067,0.0582397,21.0069,182.922,0.267346,0.0,0.0
1146,286.25,32.6768,33.7141,147.994,118.649,115.439,0.00104521,0.0582448,21.0064,182.922,0.24511,0.0,0.0
1152,287.75,32.5369,34.2801,147.149,118.647,115.371,0.000973468,0.0582876,21.0061,182.932,0.25019,0.0,0.0
1158,289.25,32.022,34.2408,145.86,118.676,114.868,0.000897901,0.0583103,21.0059,182.932,0.291395,0.0,0.0
1164,290.75,31.8452,34.424,143.79,118.652,114.825,0.000829888,0.0583519,21.0058,182.932,0.292897,0.0,0.0
1170,292.25,32.505,33.7073,149.757,118.674,115.761,0.000783134,0.0584173,21.0058,182.922,0.222015,0.0,0.0
1176,293.75,32.452,34.0196,147.557,118.662,115.419,0.000728618,0.058392,21.0058,182.932,0.247644,0.0,0.0
1182,295.25,32.6951,33.9766,151.428,118.671,116.12,0.000661987,0.0583658,21.0058,182.912,0.194178,0.0,0.0
1188,296.75,32.7895,34.2433,149.948,118.682,115.254,0.000602269,0.0583714,21.006,182.922,0.2619,0.0,0.0
1194,298.25,32.4157,34.0289,146.749,118.66,115.778,0.000675271,0.0583886,21.0061,182.922,0.219686,0.0,0.0
1200,299.75,32.0027,33.5608,149.655,118.673,114.806,0.000836321,0.0583093,21.0061,182.932,0.296024,0.0,0.0
1206,301.25,32.9863,34.1419,147.181,118.66,114.824,0.00096028,0.0583219,21.0062,182.922,0.293677,0.0,0.0
1212,302.75,32.4791,33.822,147.513,118.665,115.649,0.00095739,0.0584033,21.0062,182.932,0.230039,0.0,0.0
1218,304.25,32.0906,33.8882,150.344,118.66,114.756,0.000922353,0.0584926,21.0062,182.902,0.298968,0.0,0.0
1224,305.75,32.5371,33.9086,151.66,118.667,115.631,0.000897898,0.058547,21.0062,182.892,0.231528,0.0,0.0
1230,307.25,32.7407,33.8858,147.072,118.649,114.374,0.000893213,0.0585299,21.0062,182.892,0.327904,0.0,0.0
1236,308.75,32.7508,33.7715,146.943,118.656,115.232,0.000880342,0.0584818,21.0062,182.912,0.261585,0.0,0.0
1242,310.25,32.8518,34.121,148.5,118.652,114.999,0.000843036,0.0585358,21.0062,182.882,0.27942,0.0,0.0
1248,311.75,32.118,34.4007,144.418,118.665,115.447,0.00080875,0.0585772,21.0062,182.902,0.245649,0.0,0.0
1254,313.25,32.4926,33.7594,148.086,118.636,115.087,0.000814859,0.0585965,21.0062,182.902,0.271383,0.0,0.0
1260,314.75,32.2816,34.1957,148.626,118.629,114.824,0.000896037,0.058639,21.0062,182.892,0.291251,0.0,0.0
1266,316.25,32.3331,34.0779,148.532,118.619,115.109,0.0010086,0.058673,21.0062,182.892,0.268429,0.0,0.0
1272,317.75,32.209,34.1128,144.292,118.642,115.315,0.00110608,0.0587372,21.0062,182.892,0.254216,0.0,0.0
1278,319.25,32.6274,34.2834,144.743,118.619,114.859,0.0011541,0.058756,21.0059,182.902,0.287852,0.0,0.0
1284,320.75,32.6327,34.2317,149.458,118.638,114.465,0.00115986,0.058728,21.0054,182.882,0.319991,0.0,0.0
1290,322.25,33.2112,34.3888,146.295,118.593,114.449,0.00117309,0.0587131,21.0046,182.902,0.317814,0.0,0.0
1296,323.75,32.4205,33.6349,149.663,118.615,114.731,0.00120419,0.0587642,21.0047,182.892,0.297465,0.0,0.0
1302,325.25,32.6467,34.21,149.514,118.597,114.618,0.00120367,0.0588062,21.0048,182.872,0.304909,0.0,0.0
1308,326.75,32.3709,34.4407,143.435,118.616,114.522,0.00117139,0.0587637,21.0048,182.892,0.313835,0.0,0.0
1314,328.25,32.8853,34.7193,151.046,118.61,115.085,0.00113179,0.0587859,21.0046,182.882,0.269634,0.0,0.0
1320,329.75,32.55,34.025,146.558,118.619,115.432,0.00114142,0.0587776,21.0035,182.882,0.243388,0.0,0.0
1326,331.25,32.4458,34.1979,146.17,118.617,115.55,0.00122006,0.0587732,21.0027,182.872,0.234031,0.0,0.0
1332,332.75,32.5903,33.9899,152.602,118.629,115.027,0.00127368,0.0587691,21.0022,182.892,0.275551,0.0,0.0
1338,334.25,32.4086,34.372,150.273,118.637,115.823,0.00125014,0.0587668,21.002,182.882,0.214454,0.0,0.0
1344,335.75,32.2699,33.9099,142.635,118.626,115.237,0.00116539,0.0588541,21.0019,182.872,0.259026,0.0,0.0
1350,337.25,32.8132,33.8506,145.291,118.627,114.844,0.00106336,0.058947,21.0018,182.872,0.289553,0.0,0.0
1356,338.75,32.7015,34.3217,148.006,118.629,114.709,0.000994373,0.0589183,21.0017,182.872,0.300241,0.0,0.0
1362,340.25,32.6602,33.6958,145.945,118.625,114.707,0.000982585,0.0588973,21.0028,182.872,0.300107,0.0,0.0
1368,341.75,32.4065,34.3489,152.755,118.63,115.516,0.00101843,0.0589563,21.0026,182.882,0.237707,0.0,0.0
1374,343.25,32.5653,34.142,147.531,118.636,115.51,0.0010561,0.0590066,21.0031,182.862,0.238583,0.0,0.0
1380,344.75,32.2899,34.1232,150.818,118.625,115.824,0.0010615,0.0590481,21.0034,182.862,0.21353,0.0,0.0
1386,346.25,33.0275,34.4539,146.616,118.635,115.851,0.00104664,0.0590254,21.0036,182.872,0.212177,0.0,0.0
1392,347.75,32.5155,34.3619,150.498,118.621,114.242,0.00102026,0.0590417,21.0038,182.852,0.33612,0.0,0.0
1398,349.25,32.7621,34.051,149.216,118.622,114.688,0.000999104,0.0589792,21.0038,182.852,0.301364,0.0,0.0
1404,350.75,32.1875,33.8953,148.284,118.621,115.762,0.00103334,0.0589212,21.004,182.852,0.21801,0.0,0.0
1410,352.25,32.5978,34.2554,146.949,118.638,115.788,0.00111174,0.058931,21.0043,182.842,0.217245,0.0,0.0
1416,353.75,32.2077,34.1085,146.78,118.618,115.44,0.00119187,0.0589367,21.0045,182.842,0.242681,0.0,0.0
1422,355.25,32.7238,34.4502,147.122,118.627,114.858,0.00125126,0.0590709,21.0046,182.832,0.288479,0.0,0.0
1428,356.75,32.7618,34.2232,144.553,118.632,114.635,0.00130765,0.0591106,21.0047,182.832,0.306201,0.0,0.0
1434,358.25,32.7036,34.5199,150.321,118.628,115.538,0.00129159,0.0592009,21.0047,182.832,0.235823,0.0,0.0
1440,359.75,32.7645,34.0806,148.613,118.617,115.117,0.00118927,0.0592824,21.0047,182.842,0.267571,0.0,0.0
1446,361.25,32.8381,34.142,149.443,118.638,115.058,0.00104985,0.0592519,21.0047,182.842,0.273789,0.0,0.0
1452,362.75,32.6989,34.9808,143.864,118.624,114.983,0.000948702,0.0593291,21.0047,182.852,0.278599,0.0,0.0
1458,364.25,32.4197,33.7613,149.177,118.645,115.747,0.000914803,0.0593701,21.0047,182.832,0.220955,0.0,0.0
1464,365.75,32.7411,34.3969,146.712,118.632,114.975,0.000957908,0.0593423,21.0047,182.832,0.279782,0.0,0.0
1470,367.25,32.7675,34.0533,150.427,118.652,115.004,0.00106414,0.0592801,21.0046,182.832,0.278986,0.0,0.0
1476,368.75,32.5075,34.0783,145.204,118.643,114.655,0.00113377,0.0592572,21.0046,182.822,0.305568,0.0,0.0
1482,370.25,32.8051,34.3518,149.398,118.636,115.062,0.00116381,0.0592981,21.0046,182.832,0.273365,0.0,0.0
1488,371.75,32.4888,34.7079,148.992,118.645,115.559,0.00116154,0.0592703,21.0045,182.842,0.235484,0.0,0.0
1494,373.25,32.6632,34.1936,149.142,118.642,115.368,0.00115299,0.0592081,21.005,182.822,0.250097,0.0,0.0
1500,374.75,32.6908,34.2226,147.754,118.645,114.824,0.00112499,0.0592182,21.0052,182.832,0.292539,0.0,0.0
1506,376.25,32.7081,34.5002,147.891,118.648,115.275,0.00106609,0.0591693,21.0057,182.832,0.257706,0.0,0.0
1512,377.75,32.3729,34.0548,149.349,118.652,115.654,0.000981784,0.0591259,21.0058,182.832,0.22869,0.0,0.0
1518,379.25,32.7096,34.5033,148.732,118.657,115.687,0.000899778,0.0592347,21.0052,182.842,0.226454,0.0,0.0
1524,380.75,32.9137,34.0093,148.505,118.655,116.263,0.000896334,0.0591781,21.0049,182.812,0.181924,0.0,0.0
1530,382.25,32.5015,34.1786,146.404,118.644,115.321,0.000945238,0.059101,21.0047,182.812,0.253811,0.0,0.0
1536,383.75,32.9904,34.2536,148.742,118.663,115.42,0.00106565,0.0590996,21.0046,182.812,0.247599,0.0,0.0
1542,385.25,32.8284,33.8955,151.328,118.676,115.319,0.00111555,0.0591114,21.0046,182.822,0.256392,0.0,0.0
1548,386.75,33.0903,34.4553,146.288,118.675,115.594,0.00106911,0.0590899,21.0046,182.832,0.234999,0.0,0.0
1554,388.25,32.3803,34.3197,148.896,118.677,116.285,0.000975598,0.0591353,21.0056,182.822,0.181887,0.0,0.0
1560,389.75,32.794,34.1308,146.894,118.691,115.868,0.000866422,0.0591701,21.006,182.812,0.215058,0.0,0.0
1566,391.25,32.7099,34.5368,148.538,118.673,115.855,0.000803888,0.0591253,21.0062,182.812,0.214722,0.0,0.0
1572,392.75,32.7096,34.2397,147.584,118.694,114.174,0.000871593,0.0590327,21.0064,182.812,0.346946,0.0,0.0
1578,394.25,32.8358,34.0498,150.352,118.692,114.838,0.00101984,0.0590238,21.0064,182.802,0.294951,0.0,0.0
1584,395.75,32.4104,34.0716,148.38,118.708,115.211,0.00116741,0.0589805,21.0065,182.802,0.267173,0.0,0.0
1590,397.25,32.6918,34.6131,146.741,118.708,115.444,0.00123571,0.0590544,21.0065,182.782,0.249115,0.0,0.0
1596,398.75,32.5832,34.322,149.587,118.736,116.193,0.00119963,0.0591356,21.0065,182.782,0.193472,0.0,0.0
1602,400.25,32.9715,34.6079,147.509,118.734,114.847,0.00116556,0.059079,21.0065,182.782,0.297387,0.0,0.0
1608,401.75,32.3656,34.6917,147.492,118.739,114.862,0.00118124,0.0589829,21.0065,182.792,0.296637,0.0,0.0
1614,403.25,32.7253,34.0549,148.75,118.734,114.607,0.00121106,0.0590516,21.0065,182.802,0.316134,0.0,0.0
1620,404.75,32.3541,34.217,149.078,118.75,115.91,0.0012026,0.0590961,21.0065,182.792,0.216264,0.0,0.0
1626,406.25,32.9042,34.6123,150.665,118.741,115.591,0.00111016,0.0591703,21.0065,182.782,0.240261,0.0,0.0
1632,407.75,32.5194,34.4078,145.921,118.754,115.335,0.00101668,0.0591634,21.0065,182.782,0.26103,0.0,0.0
1638,409.25,32.8474,33.9445,147.137,118.756,114.804,0.000963378,0.059021,21.0065,182.782,0.302455,0.0,0.0
1644,410.75,32.7062,34.3397,144.785,118.756,115.485,0.000938817,0.059035,21.0065,182.762,0.249544,0.0,0.0
1650,412.25,32.9898,34.4731,146.088,118.78,114.964,0.000931187,0.059132,21.0062,182.792,0.291808,0.0,0.0
1656,413.75,33.0109,34.1783,146.817,118.774,115.12,0.00090789,0.0592339,21.006,182.772,0.279223,0.0,0.0
1662,415.25,32.4876,34.4118,150.129,118.79,115.374,0.000861804,0.0593934,21.0055,182.792,0.260696,0.0,0.0
1668,416.75,32.9111,34.2223,151.93,118.776,115.573,0.000827973,0.0593376,21.0053,182.802,0.244285,0.0,0.0
1674,418.25,32.9846,34.3902,149.424,118.806,116.076,0.000819173,0.0592348,21.0051,182.792,0.20772,0.0,0.0
1680,419.75,33.047,34.2383,146.131,118.801,114.907,0.000885317,0.0591767,21.0051,182.782,0.297759,0.0,0.0
1686,421.25,32.8301,34.1265,145.731,118.817,115.226,0.00101035,0.0591612,21.005,182.772,0.274276,0.0,0.0
1692,422.75,33.1083,34.6425,145.292,118.81,115.828,0.00106713,0.0591714,21.005,182.782,0.227156,0.0,0.0
1698,424.25,32.4317,34.7425,146.119,118.823,115.67,0.0010312,0.0591583,21.0052,182.772,0.240299,0.0,0.0
1704,425.75,33.0278,34.6339,144.25,118.814,115.502,0.000955806,0.0591087,21.0055,182.782,0.252641,0.0,0.0
1710,427.25,32.8711,34.783,147.368,118.842,114.7,0.000918059,0.0590842,21.0057,182.762,0.316989,0.0,0.0
1716,428.75,33.0474,34.3854,147.85,118.823,115.198,0.000932995,0.0589772,21.0057,182.752,0.276821,0.0,0.0
1722,430.25,32.3859,34.3923,144.969,118.856,116.678,0.00100834,0.0590797,21.0058,182.762,0.165227,0.0,0.0
1728,431.75,32.9826,34.4707,147.352,118.832,115.257,0.00111202,0.0591089,21.0058,182.792,0.272959,0.0,0.0
1734,433.25,32.7006,34.2698,145.299,118.852,114.999,0.00117729,0.0590648,21.0058,182.772,0.294455,0.0,0.0
1740,434.75,33.0062,34.6229,150.113,118.831,115.611,0.00119208,0.0590023,21.0056,182.762,0.245427,0.0,0.0
1746,436.25,33.1658,34.9755,149.812,118.855,115.561,0.00114236,0.0589939,21.0051,182.792,0.251131,0.0,0.0
1752,437.75,32.8156,34.4117,152.91,118.839,114.868,0.00106039,0.0590629,21.0048,182.782,0.303639,0.0,0.0
1758,439.25,32.6332,34.6711,147.723,118.856,114.85,0.000983094,0.0591885,21.0047,182.762,0.306349,0.0,0.0
1764,440.75,32.7973,33.9064,147.36,118.836,115.1,0.000966931,0.0593149,21.0046,182.762,0.285386,0.0,0.0
1770,442.25,32.734,34.1023,145.382,118.85,114.874,0.000988965,0.0593078,21.0046,182.742,0.30404,0.0,0.0
1776,443.75,32.8444,34.7067,144.142,118.842,116.79,0.00105151,0.0591426,21.0046,182.742,0.155672,0.0,0.0
1782,445.25,32.9269,34.5286,146.734,118.851,115.683,0.00115097,0.0591338,21.0043,182.742,0.241437,0.0,0.0
1788,446.75,33.0602,34.7186,144.866,118.853,116.163,0.0012597,0.0592177,21.004,182.752,0.204588,0.0,0.0
1794,448.25,32.9799,34.1309,146.814,118.862,115.729,0.00134686,0.0591862,21.0039,182.742,0.23873,0.0,0.0
1800,449.75,33.0387,34.5504,145.234,118.858,116.41,0.00136244,0.0590898,21.0038,182.732,0.185908,0.0,0.0
1806,451.25,33.0534,34.3525,148.955,118.871,114.799,0.00129578,0.059068,21.0035,182.732,0.311426,0.0,0.0
1812,452.75,32.8778,34.625,142.694,118.889,114.889,0.00120773,0.0590021,21.0025,182.732,0.305782,0.0,0.0
1818,454.25,32.7378,34.4387,150.429,118.884,115.325,0.00117434,0.0589492,21.0028,182.722,0.27161,0.0,0.0
1824,455.75,32.7984,34.7312,149.339,118.899,115.137,0.00122742,0.0589373,21.0035,182.732,0.287294,0.0,0.0
1830,457.25,32.9723,34.5559,146.406,118.892,115.035,0.0012522,0.0589856,21.0041,182.732,0.29468,0.0,0.0
1836,458.75,33.4031,34.8845,147.049,118.905,114.918,0.00120743,0.059003,21.0046,182.732,0.304689,0.0,0.0
1842,460.25,33.2387,34.6486,144.511,118.906,115.173,0.00111779,0.0589747,21.0048,182.732,0.284989,0.0,0.0
1848,461.75,33.1319,34.9787,147.786,118.923,115.19,0.000970843,0.0589455,21.005,182.732,0.284925,0.0,0.0
1854,463.25,33.0124,34.635,147.616,118.909,115.35,0.000876672,0.0588729,21.0051,182.722,0.271498,0.0,0.0
1860,464.75,33.5049,34.6897,145.227,118.927,114.919,0.000859706,0.0587848,21.0051,182.722,0.306334,0.0,0.0
1866,466.25,32.8198,34.5968,145.85,118.918,115.72,0.00096519,0.0587614,21.0052,182.732,0.243574,0.0,0.0
1872,467.75,32.767,34.8152,148.615,118.955,115.142,0.00112531,0.0587453,21.0052,182.722,0.291145,0.0,0.0
1878,469.25,32.8678,34.4796,147.501,118.928,115.587,0.00122652,0.0588042,21.0052,182.722,0.254613,0.0,0.0
1884,470.75,33.1279,34.3939,146.188,118.956,115.549,0.00122572,0.0588496,21.0052,182.722,0.259625,0.0,0.0
1890,472.25,32.9332,34.6366,145.796,118.96,115.379,0.00112944,0.058779,21.0052,182.702,0.273086,0.0,0.0
1896,473.75,32.5228,34.0574,148.633,118.985,115.652,0.000992383,0.0587065,21.0052,182.691,0.253843,0.0,0.0
1902,475.25,32.9396,34.8576,150.583,118.988,116.429,0.000893538,0.0586927,21.0052,182.691,0.194271,0.0,0.0
1908,476.75,32.7486,34.653,146.674,119.021,115.218,0.000842008,0.05868,21.0055,182.722,0.290142,0.0,0.0
1914,478.25,32.9023,34.8243,149.332,119.046,115.925,0.000832148,0.0585935,21.0058,182.722,0.237387,0.0,0.0
1920,479.75,32.5577,34.8053,146.911,119.057,116.301,0.000846207,0.0585333,21.0059,182.702,0.209244,0.0,0.0
1926,481.25,32.7813,34.5064,149.506,119.066,116.172,0.000854328,0.0584513,21.0059,182.681,0.219917,0.0,0.0
1932,482.75,33.1835,34.3477,149.503,119.073,116.012,0.000862399,0.0585342,21.0059,182.681,0.232706,0.0,0.0
1938,484.25,33.0736,34.6511,145.833,119.08,115.869,0.000886786,0.0584898,21.0068,182.681,0.244249,0.0,0.0
1944,485.75,32.418,34.4771,149.361,119.107,116.431,0.000907033,0.058582,21.0074,182.702,0.203078,0.0,0.0
1950,487.25,32.9118,34.6933,145.056,119.13,115.338,0.000909066,0.0586959,21.0069,182.712,0.289062,0.0,0.0
1956,488.75,33.3304,34.2774,142.869,119.151,116.296,0.000922591,0.0585967,21.006,182.702,0.216693,0.0,0.0
1962,490.25,32.7439,34.3354,149.648,119.171,116.48,0.000948478,0.0585034,21.0055,182.681,0.204065,0.0,0.0
1968,491.75,33.2996,34.7528,141.906,119.181,115.669,0.000934108,0.0585737,21.0053,182.712,0.267238,0.0,0.0
1974,493.25,33.0429,34.6938,145.403,119.227,115.9,0.000918296,0.0586167,21.0051,182.691,0.252881,0.0,0.0
1980,494.75,33.4148,34.4741,148.015,119.231,115.598,0.000955038,0.0585317,21.0055,182.691,0.276453,0.0,0.0
1986,496.25,33.058,34.6415,147.018,119.243,115.359,0.000979683,0.0584806,21.0063,182.702,0.295836,0.0,0.0
1992,497.75,33.1719,34.5952,147.364,119.26,115.843,0.000932931,0.0584064,21.0068,182.702,0.259815,0.0,0.0
1998,499.25,32.7475,34.7404,144.027,119.282,115.98,0.0008499,0.0584756,21.0059,182.702,0.250862,0.0,0.0
2004,500.75,33.2329,35.2205,146.401,119.286,115.177,0.000796162,0.0586127,21.0055,182.691,0.313231,0.0,0.0
2010,502.25,32.8268,34.4348,153.351,119.32,115.661,0.000781593,0.0585971,21.0053,182.671,0.278316,0.0,0.0
2016,503.75,33.4262,34.6769,147.602,119.32,116.464,0.000800132,0.0585859,21.0051,182.671,0.216455,0.0,0.0
2022,505.25,33.205,34.6296,147.922,119.352,115.87,0.000857674,0.0586039,21.0054,182.691,0.264585,0.0,0.0
2028,506.75,33.1055,34.9242,150.686,119.36,115.751,0.000929569,0.0586271,21.0056,182.681,0.274398,0.0,0.0
2034,508.25,32.8675,34.1935,150.349,119.37,115.973,0.000990434,0.0586099,21.0057,182.671,0.25794,0.0,0.0
2040,509.75,32.7943,35.004,148.957,119.382,116.537,0.00103906,0.0586792,21.0058,182.681,0.215559,0.0,0.0
2046,511.25,32.9623,34.8561,149.002,119.416,116.832,0.0010294,0.0588222,21.0058,182.671,0.195528,0.0,0.0
2052,512.75,32.8081,34.4845,146.1,119.404,116.838,0.000976848,0.0588339,21.0058,182.651,0.194107,0.0,0.0
2058,514.25,32.9461,34.8326,146.137,119.436,115.508,0.000944016,0.0587446,21.0058,182.681,0.298772,0.0,0.0
2064,515.75,33.1616,34.7989,153.085,119.44,116.393,0.000976935,0.0586344,21.0058,182.671,0.230918,0.0,0.0
2070,517.25,32.9669,34.7722,150.757,119.46,116.3,0.00103848,0.0586454,21.0058,182.651,0.239521,0.0,0.0
2076,518.75,32.9502,34.5564,144.163,119.472,115.951,0.00106581,0.0586692,21.0058,182.661,0.267255,0.0,0.0
2082,520.25,32.7481,34.7707,150.102,119.481,117.279,0.00105599,0.0587229,21.0058,182.661,0.166236,0.0,0.0
2088,521.75,33.3329,34.4312,150.09,119.498,115.7,0.00104076,0.0588365,21.0058,182.651,0.288584,0.0,0.0
2094,523.25,33.0693,34.8519,145.383,119.496,116.139,0.00101773,0.0588167,21.0058,182.661,0.254557,0.0,0.0
2100,524.75,33.0954,34.571,147.865,119.508,116.879,0.000990346,0.0587675,21.0058,182.661,0.198745,0.0,0.0
2106,526.25,33.1914,34.7314,147.695,119.525,116.272,0.000974195,0.058876,21.0058,182.681,0.2466,0.0,0.0
2112,527.75,33.0096,34.9153,142.982,119.53,115.678,0.000920948,0.0588979,21.0058,182.651,0.292649,0.0,0.0
2118,529.25,33.5333,35.0234,146.371,119.531,115.669,0.000883583,0.058825,21.0058,182.651,0.29347,0.0,0.0
2124,530.75,33.4223,34.9966,150.366,119.55,115.638,0.00091405,0.0588876,21.0058,182.641,0.297302,0.0,0.0
2130,532.25,32.4551,34.8647,148.874,119.545,116.899,0.000980394,0.0590004,21.0058,182.641,0.200027,0.0,0.0
2136,533.75,33.1498,34.9789,146.581,119.57,116.795,0.0010459,0.0589613,21.0058,182.671,0.209782,0.0,0.0
2142,535.25,33.4543,35.1184,148.127,119.562,117.31,0.0010716,0.0589118,21.0058,182.661,0.169908,0.0,0.0
2148,536.75,33.1984,34.6799,152.844,119.576,115.621,0.00107674,0.0589511,21.0058,182.651,0.300536,0.0,0.0
2154,538.25,33.2439,35.0442,149.429,119.573,115.709,0.00108865,0.0590005,21.0058,182.631,0.293562,0.0,0.0
2160,539.75,33.2184,34.9442,146.1,119.59,116.369,0.00108043,0.0589254,21.0054,182.631,0.243984,0.0,0.0
2166,541.25,33.2351,34.9455,148.026,119.575,115.687,0.00103187,0.0589246,21.0045,182.631,0.295329,0.0,0.0
2172,542.75,33.0366,34.5615,148.468,119.593,116.493,0.000923629,0.0588936,21.004,182.631,0.234711,0.0,0.0
2178,544.25,33.0895,34.634,150.662,119.587,116.384,0.000851973,0.0588686,21.0042,182.621,0.242628,0.0,0.0
2184,545.75,32.9745,34.3679,144.851,119.599,116.251,0.000799061,0.0588539,21.005,182.611,0.25371,0.0,0.0
2190,547.25,33.6324,35.0373,148.615,119.588,116.66,0.00081192,0.0588483,21.0054,182.621,0.221498,0.0,0.0
2196,548.75,33.1968,34.7712,145.897,119.605,115.905,0.000874433,0.0587095,21.0056,182.631,0.280822,0.0,0.0
2202,550.25,33.1322,35.0104,150.707,119.589,116.822,0.000964823,0.0586948,21.0059,182.631,0.209206,0.0,0.0
2208,551.75,33.1772,34.9554,146.966,119.603,116.352,0.00101298,0.0588305,21.0068,182.621,0.246303,0.0,0.0
2214,553.25,33.7597,35.1628,150.902,119.592,116.93,0.000946273,0.0586783,21.0073,182.631,0.201104,0.0,0.0
2220,554.75,33.2254,34.9854,147.397,119.599,116.334,0.00084268,0.0587147,21.0075,182.591,0.247309,0.0,0.0
2226,556.25,33.2044,34.8461,149.528,119.603,116.22,0.000797872,0.0588197,21.0077,182.611,0.256399,0.0,0.0
2232,557.75,33.3605,35.0471,147.829,119.612,117.466,0.000830008,0.0588117,21.0077,182.611,0.161756,0.0,0.0
2238,559.25,33.6526,34.7176,144.31,119.607,117.113,0.000889303,0.0587305,21.0078,182.611,0.188297,0.0,0.0
2244,560.75,32.9267,34.7784,145.53,119.615,117.504,0.000920926,0.05876,21.0078,182.621,0.159097,0.0,0.0
2250,562.25,33.1487,34.4329,147.11,119.603,115.753,0.000910885,0.058771,21.007,182.611,0.29235,0.0,0.0
2256,563.75,33.2596,34.8102,150.855,119.601,116.291,0.000888882,0.0587341,21.0063,182.611,0.250756,0.0,0.0
2262,565.25,32.7931,34.9129,146.921,119.604,116.984,0.000923361,0.0588158,21.0069,182.591,0.197875,0.0,0.0
2268,566.75,33.1201,34.6437,147.536,119.589,116.069,0.00105765,0.0588396,21.0073,182.601,0.26694,0.0,0.0
2274,568.25,32.9959,35.2937,152.447,119.607,116.768,0.00121189,0.0588383,21.0073,182.601,0.214623,0.0,0.0
2280,569.75,33.4571,34.7169,146.462,119.604,115.193,0.00125477,0.0587899,21.0065,182.601,0.335733,0.0,0.0
2286,571.25,33.1642,34.8842,145.456,119.597,115.553,0.00116487,0.0587442,21.0062,182.601,0.307394,0.0,0.0
2292,572.75,32.9618,35.0352,146.939,119.611,116.592,0.00107862,0.0586904,21.0063,182.591,0.228455,0.0,0.0
2298,574.25,33.2626,34.4987,150.037,119.603,116.597,0.00108522,0.0587476,21.0066,182.591,0.227405,0.0,0.0
2304,575.75,33.0332,34.8922,150.16,119.594,116.314,0.00111313,0.0587911,21.0068,182.591,0.248479,0.0,0.0
2310,577.25,32.9809,34.6723,149.284,119.61,116.609,0.00111799,0.058598,21.007,182.571,0.227089,0.0,0.0
2316,578.75,33.4985,35.1159,151.307,119.587,116.719,0.00108022,0.0584753,21.0071,182.581,0.216886,0.0,0.0
2322,580.25,33.0288,34.4803,146.082,119.593,115.623,0.001017,0.0584582,21.0071,182.581,0.301689,0.0,0.0
2328,581.75,33.2788,34.6046,146.841,119.589,115.845,0.000960697,0.0585218,21.0071,182.591,0.284195,0.0,0.0
2334,583.25,33.0313,34.552,146.924,119.598,116.632,0.000920494,0.058545,21.0071,182.591,0.224417,0.0,0.0
2340,584.75,33.3325,35.2463,147.004,119.576,116.787,0.000899944,0.0585965,21.0071,182.601,0.210882,0.0,0.0
2346,586.25,33.186,34.8668,148.113,119.589,116.923,0.000918345,0.0586359,21.0065,182.591,0.201471,0.0,0.0
2352,587.75,33.2582,34.9028,147.092,119.57,116.975,0.000894763,0.0586162,21.0057,182.581,0.196028,0.0,0.0
2358,589.25,33.0005,34.8505,148.993,119.6,117.185,0.000798969,0.0585977,21.0053,182.581,0.182256,0.0,0.0
2364,590.75,33.5336,35.0012,146.78,119.567,115.974,0.000714254,0.0586101,21.0051,182.561,0.272623,0.0,0.0
2370,592.25,33.5117,35.0019,151.445,119.576,116.368,0.000699142,0.0585872,21.005,182.551,0.24297,0.0,0.0
2376,593.75,33.623,35.1041,150.052,119.564,116.231,0.000755592,0.0585708,21.0053,182.551,0.252582,0.0,0.0
2382,595.25,32.8186,34.6151,144.663,119.566,116.32,0.000793686,0.0585639,21.0055,182.591,0.245892,0.0,0.0
2388,596.75,32.9993,34.1502,150.621,119.554,115.468,0.000794952,0.0585851,21.0055,182.581,0.310712,0.0,0.0
2394,598.25,33.2745,34.8999,146.243,119.558,116.049,0.000776008,0.0586728,21.006,182.571,0.266147,0.0,0.0
2400,599.75,33.4295,34.9514,148.001,119.553,117.534,0.000770674,0.0586309,21.0068,182.561,0.152178,0.0,0.0
2406,601.25,33.2621,34.9787,144.192,119.542,117.065,0.000777283,0.0585694,21.0062,182.571,0.187086,0.0,0.0
2412,602.75,32.8233,34.7123,152.161,119.54,116.397,0.000769527,0.0586413,21.0056,182.571,0.238039,0.0,0.0
2418,604.25,32.8235,34.4594,149.201,119.532,115.91,0.000729177,0.0587116,21.0052,182.571,0.274888,0.0,0.0
2424,605.75,32.7249,34.3624,149.54,119.532,116.679,0.000661917,0.0587161,21.0049,182.571,0.215822,0.0,0.0
2430,607.25,32.6965,34.8327,150.469,119.51,114.966,0.000623831,0.0587816,21.0048,182.551,0.346323,0.0,0.0
2436,608.75,33.0979,34.4967,148.515,119.53,115.235,0.000643125,0.0588376,21.0047,182.541,0.326982,0.0,0.0
2442,610.25,32.4533,33.643,149.194,119.505,116.602,0.00070139,0.0587893,21.0056,182.551,0.219734,0.0,0.0
2448,611.75,32.7393,34.2031,150.346,119.502,116.566,0.000796078,0.0587262,21.0062,182.561,0.222293,0.0,0.0
2454,613.25,32.8042,34.8129,149.41,119.492,116.533,0.000912099,0.0586844,21.0066,182.551,0.224073,0.0,0.0
2460,614.75,32.7194,34.6126,150.151,119.486,115.404,0.00104026,0.0586562,21.0067,182.541,0.310561,0.0,0.0
2466,616.25,32.8417,34.6663,147.259,119.472,116.477,0.00113265,0.0586412,21.0064,182.551,0.226816,0.0,0.0
2472,617.75,32.4582,33.7285,143.568,119.492,116.708,0.00115049,0.0586059,21.0056,182.541,0.210641,0.0,0.0
2478,619.25,32.5012,34.0654,146.221,119.463,116.585,0.00107593,0.0585965,21.0051,182.571,0.21789,0.0,0.0
2484,620.75,32.8733,34.3022,144.478,119.479,115.781,0.000995384,0.0586626,21.0052,182.561,0.280891,0.0,0.0
2490,622.25,32.6257,34.8141,143.445,119.453,116.809,0.000975753,0.0586446,21.0053,182.521,0.199982,0.0,0.0
2496,623.75,32.303,34.239,146.436,119.463,116.36,0.000988705,0.0586214,21.0054,182.531,0.235182,0.0,0.0
2502,625.25,32.8335,34.7821,148.061,119.444,115.499,0.00102668,0.0585889,21.0054,182.531,0.300107,0.0,0.0
2508,626.75,32.2135,34.1916,146.226,119.468,115.861,0.00110923,0.0585645,21.0055,182.541,0.273937,0.0,0.0
2514,628.25,32.6572,34.4353,150.96,119.449,115.609,0.00117942,0.0584839,21.0055,182.541,0.292007,0.0,0.0
2520,629.75,32.8068,34.1927,145.358,119.459,115.483,0.00119316,0.0585048,21.0055,182.531,0.30246,0.0,0.0
2526,631.25,32.7116,34.4957,144.772,119.45,115.295,0.00119677,0.058642,21.0055,182.531,0.31637,0.0,0.0
2532,632.75,32.929,34.1007,147.549,119.462,116.491,0.00119903,0.0586764,21.0055,182.531,0.225067,0.0,0.0
2538,634.25,33.0278,34.7053,149.327,119.433,116.762,0.00116766,0.058714,21.0055,182.511,0.202121,0.0,0.0
2544,635.75,32.3587,34.3801,147.239,119.446,117.002,0.00106543,0.0587057,21.0058,182.521,0.184743,0.0,0.0
2550,637.25,32.7516,34.2543,148.334,119.444,115.694,0.000934281,0.0586758,21.0061,182.521,0.285051,0.0,0.0
2556,638.75,33.0438,34.7289,149.289,119.431,116.961,0.000814955,0.0585702,21.0062,182.501,0.186736,0.0,0.0
2562,640.25,33.2636,34.6654,147.938,119.433,115.847,0.000697913,0.0585328,21.0063,182.521,0.272377,0.0,0.0
2568,641.75,33.466,34.459,145.25,119.435,117.001,0.000590086,0.0585164,21.0063,182.511,0.184019,0.0,0.0
2574,643.25,32.8673,34.3951,146.819,119.428,115.95,0.000517402,0.0584871,21.0066,182.521,0.264089,0.0,0.0
2580,644.75,33.287,34.1977,146.799,119.425,116.041,0.000518536,0.0585447,21.007,182.521,0.256828,0.0,0.0
2586,646.25,32.7295,34.6661,148.8,119.427,116.785,0.000579237,0.0585248,21.0068,182.521,0.19989,0.0,0.0
2592,647.75,32.5783,34.9841,150.174,119.409,116.129,0.000692757,0.0585242,21.0067,182.521,0.24893,0.0,0.0
2598,649.25,32.393,33.8073,149.829,119.441,115.47,0.000777569,0.0584983,21.0067,182.521,0.3021,0.0,0.0
2604,650.75,32.6964,34.3861,146.93,119.414,115.981,0.00080893,0.0584313,21.0066,182.521,0.260671,0.0,0.0
2610,652.25,32.9784,34.8191,144.111,119.426,116.299,0.000817058,0.0583336,21.0066,182.501,0.237046,0.0,0.0
2616,653.75,32.4851,34.1956,145.684,119.404,116.095,0.000852069,0.0583151,21.0066,182.491,0.251128,0.0,0.0
2622,655.25,32.6584,34.6595,146.037,119.422,116.567,0.00092209,0.0582617,21.0058,182.491,0.216237,0.0,0.0
2628,656.75,32.8978,34.195,144.157,119.41,116.26,0.000980028,0.0582291,21.0051,182.501,0.238941,0.0,0.0
2634,658.25,32.6344,34.4681,146.048,119.421,115.878,0.00100694,0.0582313,21.0048,182.511,0.269062,0.0,0.0
2640,659.75,32.7883,34.6202,145.367,119.413,115.413,0.00102211,0.0582714,21.0045,182.501,0.304456,0.0,0.0
2646,661.25,33.076,34.4405,145.128,119.417,116.179,0.000995138,0.0583299,21.0054,182.511,0.245624,0.0,0.0
2652,662.75,32.2125,34.5978,149.235,119.389,116.091,0.000953682,0.0583613,21.0059,182.501,0.250273,0.0,0.0
2658,664.25,33.0572,34.374,147.092,119.411,115.982,0.000966907,0.0583495,21.0062,182.501,0.260371,0.0,0.0
2664,665.75,32.6003,34.4805,146.467,119.397,116.737,0.00102852,0.058377,21.0064,182.501,0.201304,0.0,0.0
2670,667.25,32.5742,34.586,148.059,119.403,115.96,0.00108946,0.0583173,21.0063,182.491,0.261444,0.0,0.0
2676,668.75,32.8698,34.2991,148.145,119.393,116.196,0.0011317,0.0583172,21.0062,182.471,0.242537,0.0,0.0
2682,670.25,32.9718,34.8275,147.359,119.402,116.483,0.00112289,0.0582178,21.0062,182.481,0.221131,0.0,0.0
2688,671.75,32.8382,35.1132,148.52,119.382,115.487,0.00103172,0.058046,21.0062,182.471,0.296345,0.0,0.0
2694,673.25,32.9334,34.7159,145.504,119.386,115.573,0.000927451,0.0578646,21.0062,182.461,0.290036,0.0,0.0
2700,674.75,32.8768,34.3973,152.286,119.372,116.328,0.000873823,0.057872,21.0062,182.481,0.230797,0.0,0.0
2706,676.25,32.9633,34.4957,147.268,119.368,116.251,0.000842973,0.0580823,21.0062,182.471,0.23636,0.0,0.0
2712,677.75,33.0595,34.9615,149.358,119.373,115.364,0.000770506,0.058148,21.0062,182.471,0.305265,0.0,0.0
2718,679.25,32.0116,34.0851,146.807,119.351,116.367,0.00066185,0.0581686,21.0062,182.471,0.226281,0.0,0.0
2724,680.75,33.0048,34.4217,141.02,119.377,115.812,0.000523169,0.0581646,21.0062,182.471,0.270864,0.0,0.0
2730,682.25,32.8098,34.3587,147.99,119.351,117.157,0.000501915,0.0581916,21.0062,182.461,0.165808,0.0,0.0
2736,683.75,32.7078,34.5965,150.565,119.35,116.939,0.000548058,0.0581723,21.0062,182.481,0.182321,0.0,0.0
2742,685.25,32.7085,34.5927,149.335,119.351,115.867,0.000597605,0.0581774,21.0062,182.451,0.264675,0.0,0.0
2748,686.75,32.4588,34.378,147.691,119.359,115.913,0.000650102,0.0582992,21.0062,182.471,0.261825,0.0,0.0
2754,688.25,33.2348,34.3611,144.808,119.333,117.004,0.000678243,0.0584335,21.0062,182.461,0.176122,0.0,0.0
2760,689.75,33.2418,34.606,150.743,119.35,116.119,0.00065688,0.0584554,21.006,182.451,0.245267,0.0,0.0
2766,691.25,32.9398,34.3942,147.529,119.323,116.29,0.000640223,0.0584332,21.0058,182.461,0.230017,0.0,0.0
2772,692.75,32.8507,34.6136,147.139,119.337,116.794,0.000692248,0.0585395,21.0056,182.461,0.192471,0.0,0.0
2778,694.25,32.6982,34.1798,149.471,119.321,115.776,0.00074813,0.058477,21.0056,182.441,0.269505,0.0,0.0
2784,695.75,33.0128,34.1333,146.544,119.34,115.647,0.000766214,0.058294,21.0055,182.421,0.280839,0.0,0.0
2790,697.25,32.4789,34.6871,147.805,119.315,115.854,0.000765021,0.0582125,21.0055,182.441,0.262997,0.0,0.0
2796,698.75,32.8576,34.6865,148.288,119.336,116.297,0.000790675,0.0581692,21.0055,182.441,0.230489,0.0,0.0
2802,700.25,32.4888,34.3764,146.969,119.306,115.119,0.000845658,0.0581881,21.0055,182.431,0.319209,0.0,0.0
2808,701.75,32.6817,34.3026,145.005,119.342,116.022,0.000909332,0.0583712,21.0047,182.451,0.252084,0.0,0.0
2814,703.25,32.5464,34.5866,151.008,119.319,117.183,0.000965798,0.0584272,21.004,182.451,0.161376,0.0,0.0
2820,704.75,33.1759,34.0508,146.768,119.317,115.957,0.000975098,0.0583645,21.0036,182.441,0.255262,0.0,0.0
2826,706.25,33.0871,34.573,147.654,119.302,116.352,0.000926681,0.0583122,21.0034,182.441,0.223697,0.0,0.0
2832,707.75,32.3345,34.8347,146.894,119.306,115.691,0.00090153,0.0583077,21.0035,182.431,0.274925,0.0,0.0
2838,709.25,32.8779,34.686,149.017,119.307,116.169,0.000911991,0.0582736,21.0043,182.461,0.238202,0.0,0.0
2844,710.75,32.9308,34.1879,147.446,119.298,116.997,,0.0582354,,182.431,0.174044,0.0,0.0
2850,712.25,33.2608,35.1461,147.143,119.292,115.379,,0.0582762,,182.431,0.297983,0.0,0.0
2856,713.75,33.0147,34.288,148.577,119.283,115.68,,,,182.431,0.274001,0.0,0.0
2862,715.25,32.8221,34.5356,148.481,119.301,115.806,,,,182.421,0.265721,0.0,0.0
2868,716.75,32.8442,34.836,146.751,119.283,116.036,,,,182.411,0.246641,0.0,0.0
2874,718.25,32.8322,34.4214,148.73,119.291,116.49,,,,182.401,0.212302,0.0,0.0
2880,719.75,32.4686,34.5645,147.01,119.293,115.998,,,,182.421,0.250208,0.0,0.0
2886,721.25,32.454,34.5349,149.007,119.291,116.138,,,,182.411,0.239317,0.0,0.0