File: 01_Data/Tyvek_Wrap/Cone/Tyvek_Cone_HF25Scan_220401_R1.csv
Names,Time,Stack TC,Smoke TC,Exh Press,Smoke Comp,Smoke Meas,CO Meter,CO2 Meter,O2 Meter,Sample Mass,Ext Coeff,Start Test,Flame Verif
Chan Gain,,500,500,1,1,1,1,1,1,1,1,1.0,1.0
Offset,,0,0,0.133521,0,0,0,0,0,0,0,0.0,0.0
Gain,,1,1,25.011,13.1585,13.8929,1,1,1,1.00096,1.01488,1.0,1.0
Units,sec,C,C,Pa,%,%,%,%,%,g,/m,,
Baseline,,19.5801,20.3573,152.675,99.5743,98.6068,0.000787572,0.0685043,21.0166,-834.266,0.0869675,,
7,1.5,18.3321,18.8838,152.891,97.8118,96.7095,0.000761384,0.0670334,21.0233,185.629,0.100897,0.0,0.0
14,3.25,17.8548,18.7607,153.846,97.8913,96.3843,0.000829034,0.0670914,21.0226,185.439,0.138118,0.0,0.0
21,5,17.5133,18.9618,152.195,97.9833,96.2351,0.000760109,0.067168,21.0225,185.489,0.16027,0.0,0.0
28,6.75,18.4946,19.0856,150.647,98.0821,96.4768,0.000624506,0.0671089,21.0227,185.409,0.146914,0.0,0.0
35,8.5,18.5759,18.8388,149.679,98.207,96.1673,0.000616401,0.0671017,21.0227,185.419,0.186848,0.0,0.0
42,10.25,18.3681,19.509,149.185,98.3375,97.1954,0.000726074,0.0671382,21.0228,185.439,0.103997,0.0,0.0
49,12,18.6878,19.1815,152.862,98.4744,96.5069,0.000821034,0.0672832,21.023,185.409,0.179675,0.0,0.0
56,13.75,18.5369,19.2357,154.686,98.5893,97.1174,0.000928407,0.0673773,21.0234,185.429,0.13391,0.0,0.0
63,15.5,18.7276,18.8674,149.09,98.678,96.6994,0.00101767,0.0672125,21.0234,185.419,0.180324,0.0,0.0
70,17.25,19.0455,19.3417,149.698,98.7712,97.4884,0.00103233,0.0670962,21.0232,185.449,0.116379,0.0,0.0
77,19,18.7616,19.2796,150.557,98.8563,97.5952,0.000986903,0.0671459,21.0231,185.429,0.114297,0.0,0.0
84,20.75,18.4484,19.4023,154.721,98.9302,97.1178,0.000908775,0.0673222,21.0228,185.459,0.164603,0.0,0.0
91,22.5,18.4679,19.2486,146.52,98.994,97.3603,0.000833521,0.0675307,21.0216,185.459,0.148143,0.0,0.0
98,24.25,18.7458,19.9423,149.802,99.0471,97.2772,0.000851615,0.0676438,21.0211,185.439,0.16051,0.0,0.0
105,26,18.5178,19.8495,152.272,99.0824,97.2136,0.000875242,0.0675738,21.0211,185.429,0.169509,0.0,0.0
112,27.75,19.1138,19.6301,149.565,99.1077,97.3497,0.000829124,0.0675837,21.0213,185.429,0.159327,0.0,0.0
119,29.5,18.9162,19.5146,148.771,99.0772,97.3425,0.000806637,0.0676487,21.0214,185.399,0.157244,0.0,0.0
126,31.25,18.8324,19.6525,147.627,99.0736,97.7135,0.000839815,0.067706,21.0214,185.439,0.123056,0.0,0.0
133,33,19.2358,19.8568,152.967,99.0699,97.4795,0.000898601,0.0677032,21.0214,185.439,0.144079,0.0,0.0
140,34.75,19.1486,19.8789,153.625,99.0639,97.6635,0.000916192,0.0677076,21.0215,185.419,0.12675,0.0,0.0
147,36.5,18.9964,19.4885,154.289,99.0499,97.0491,0.000864945,0.0675832,21.0199,185.429,0.181663,0.0,0.0
154,38.25,19.6115,19.8301,153.759,99.0234,97.1662,0.000868158,0.0674405,21.0191,185.419,0.168553,0.0,0.0
161,40,19.1647,19.7979,160.209,98.9961,96.9961,0.000888572,0.0672573,21.0188,185.399,0.181689,0.0,0.0
168,41.75,19.073,19.8565,155.055,98.9663,97.7411,0.00086055,0.0672165,21.0184,185.389,0.110906,0.0,0.0
175,43.5,18.763,19.9383,150.994,98.9109,97.2849,0.000802892,0.0677376,21.0172,185.419,0.147568,0.0,0.0
182,45.25,19.452,20.1761,154.766,98.8519,97.089,0.000739634,0.0686781,21.0157,185.409,0.160196,0.0,0.0
189,47,19.2806,19.7771,151.315,98.8342,97.3718,0.000690765,0.0695436,21.0147,185.409,0.132713,0.0,0.0
196,48.75,18.9174,20.255,151.598,98.7941,96.8346,0.000609079,0.0701622,21.0142,185.419,0.178344,0.0,0.0
203,50.5,19.1393,19.7664,151.489,98.7776,96.9283,0.000536498,0.0705125,21.014,185.399,0.16825,0.0,0.0
210,52.25,19.3568,19.9731,150.094,98.9157,96.8015,0.000512512,0.0705368,21.0139,185.399,0.192342,0.0,0.0
217,54,19.6427,20.3151,153.142,99.1021,97.0619,0.000574843,0.0705416,21.0138,185.399,0.185188,0.0,0.0
224,55.75,18.8116,20.4254,152.348,99.2615,97.9357,0.000716598,0.0702982,21.0138,185.419,0.11971,0.0,0.0
231,57.5,19.5879,20.4045,151.075,99.3876,97.7746,0.000828835,0.0700817,21.0138,185.419,0.145668,0.0,0.0
238,59.25,19.352,19.7012,152.2,99.4779,97.5952,0.000788038,0.0698579,21.0151,185.399,0.170101,0.0,0.0
245,61,19.3257,20.2821,153.82,99.5386,97.7453,0.000759492,0.0696217,21.0161,185.389,0.161846,0.0,0.0
252,62.75,19.6556,20.0837,153.114,99.5863,97.2425,0.000792295,0.069564,21.016,185.399,0.212035,0.0,0.0
259,64.5,19.0727,20.2751,151.55,99.5968,97.9819,0.00083286,0.0697069,21.0165,185.419,0.145531,0.0,0.0
266,66.25,19.3489,20.3081,154.542,99.5615,97.1679,0.000827955,0.0699827,21.0157,185.409,0.216643,0.0,0.0
273,68,19.3297,20.2891,151.495,99.4968,97.8869,0.000805304,0.0700647,21.0152,185.399,0.145222,0.0,0.0
280,69.75,19.4304,19.8722,155.49,99.4181,97.4918,0.000762337,0.0700347,21.015,185.399,0.174187,0.0,0.0
287,71.5,19.5619,20.0962,153.232,99.3049,97.8407,0.000700716,0.069862,21.0148,185.379,0.132235,0.0,0.0
294,73.25,19.3394,20.0226,151.851,99.1607,97.7606,0.000641144,0.0696229,21.0148,185.379,0.126596,0.0,0.0
301,75,19.4301,20.2574,151.112,99.0053,97.2514,0.000640982,0.0693187,21.0148,185.379,0.159124,0.0,0.0
308,76.75,19.93,20.0013,156.066,99.0483,97.3862,0.000666314,0.0691641,21.0147,185.379,0.150653,0.0,0.0
315,78.5,19.7287,20.489,152.169,99.1209,97.4367,0.000732197,0.0694302,21.0147,185.379,0.152573,0.0,0.0
322,80.25,19.4883,19.9407,155.9,99.2085,97.8059,0.000762632,0.0699843,21.0147,185.389,0.126755,0.0,0.0
329,82,19.3444,20.2946,147.9,99.3065,97.7504,0.000716129,0.0702395,21.0153,185.389,0.1406,0.0,0.0
336,83.75,19.6675,20.129,149.554,99.4133,97.4138,0.00068249,0.0704039,21.0159,185.389,0.180882,0.0,0.0
343,85.5,19.7516,20.3193,149.78,99.5245,97.3506,0.000722371,0.0706381,21.0162,185.389,0.196613,0.0,0.0
350,87.25,19.2387,20.057,155.009,99.6213,97.9645,0.000821216,0.0705743,21.0165,185.399,0.149301,0.0,0.0
357,89,19.387,20.1248,152.936,99.7032,97.9124,0.000886836,0.0702857,21.018,185.419,0.161358,0.0,0.0
364,90.75,19.1792,20.1144,148.455,99.7574,97.9018,0.000888586,0.0698467,21.0188,185.389,0.167161,0.0,0.0
371,92.5,19.5311,20.3766,152.339,99.7843,97.4261,0.000858484,0.0694165,21.0193,185.399,0.212924,0.0,0.0
378,94.25,19.5932,20.302,153.669,99.7915,98.0858,0.000803529,0.0690317,21.0194,185.369,0.15349,0.0,0.0
385,96,19.2478,20.233,147.656,99.7558,97.4922,0.00065417,0.0687527,21.0195,185.369,0.204339,0.0,0.0
392,97.75,19.3381,20.2231,152.5,99.698,97.2552,0.000510267,0.0685003,21.0196,185.359,0.220845,0.0,0.0
399,99.5,19.4977,20.3006,152.405,99.5916,97.6029,0.000420699,0.0683552,21.0196,185.359,0.17957,0.0,0.0
406,101.25,19.9035,20.6714,152.716,99.457,97.3078,0.00042054,0.0685301,21.0196,185.369,0.194493,0.0,0.0
413,103,20.0292,20.4829,152.958,99.2916,97.3599,0.000547762,0.0690894,21.0184,185.379,0.174902,0.0,0.0
420,104.75,19.477,19.9871,151.345,99.1121,96.9308,0.000649822,0.0697404,21.0167,185.399,0.198114,0.0,0.0
427,106.5,20.1251,20.3998,150.737,98.8961,96.7973,0.000701908,0.0704591,21.0148,185.389,0.190962,0.0,0.0
434,108.25,19.9281,20.5427,149.676,98.678,96.5259,0.00070517,0.0711535,21.0139,185.379,0.196302,0.0,0.0
441,110,19.6093,20.4471,151.986,98.4491,96.2703,0.000688958,0.0717482,21.0125,185.369,0.199238,0.0,0.0
448,111.75,19.8371,20.2758,149.926,98.254,95.918,0.000679717,0.0721879,21.0115,185.379,0.214214,0.0,0.0
455,113.5,19.7664,20.7057,151.546,98.0564,95.9608,0.000643182,0.0723938,21.0111,185.329,0.19232,0.0,0.0
462,115.25,19.9859,20.7461,154.023,97.9082,95.6292,0.00055146,0.0724562,21.0101,185.369,0.209671,0.0,0.0
469,117,19.8593,20.7909,154.302,97.8159,96.0528,0.00045826,0.0721401,21.0104,185.389,0.161926,0.0,0.0
476,118.75,19.3824,20.6618,151.128,97.756,96.1859,0.000498676,0.0717921,21.0105,185.399,0.144147,0.0,0.0
483,120.5,19.2191,20.4303,153.584,97.7484,95.6793,0.000644675,0.0717681,21.0106,185.379,0.19047,0.0,0.0
490,122.25,19.7082,21.0252,152.39,97.7813,95.3825,0.000763377,0.0717633,21.0107,185.369,0.221125,0.0,0.0
497,124,19.2776,20.2293,149.175,97.8773,96.1406,0.000825893,0.071949,21.0107,185.379,0.159384,0.0,0.0
504,125.75,19.1946,20.8019,150.248,98.0054,95.7496,0.000847017,0.0722021,21.0107,185.379,0.207299,0.0,0.0
511,127.5,19.6351,20.174,148.685,98.1528,96.0214,0.000826694,0.0724251,21.0107,185.389,0.195444,0.0,0.0
518,129.25,19.3125,20.7164,151.453,98.3246,96.3517,0.000777921,0.0726356,21.0114,185.369,0.18045,0.0,0.0
525,131,19.7174,20.6886,150.757,98.5045,96.4246,0.000814924,0.0727178,21.0116,185.379,0.189989,0.0,0.0
532,132.75,19.489,20.0096,150.428,98.6796,96.6815,0.000869356,0.0723134,21.0126,185.389,0.182107,0.0,0.0
539,134.5,19.5594,20.52,152.058,98.8338,96.3326,0.000889153,0.0718081,21.0133,185.389,0.228196,0.0,0.0
546,136.25,19.8201,20.2951,152.224,98.9583,97.0195,0.000811974,0.0713237,21.0146,185.389,0.176153,0.0,0.0
553,138,20.0717,20.4359,151.755,99.037,97.1072,0.000577362,0.0707951,21.0164,185.389,0.175182,0.0,0.0
560,139.75,19.3935,20.5061,149.048,99.1045,97.6461,0.000309196,0.0701855,21.0173,185.379,0.131978,0.0,0.0
567,141.5,20.0642,20.8016,155.567,99.1157,97.2654,0.000147423,0.0696727,21.0179,185.369,0.167768,0.0,0.0
574,143.25,19.8288,21.0198,153.301,99.0699,97.0818,0.000202483,0.0694297,21.0185,185.369,0.180473,0.0,0.0
581,145,19.7506,20.7006,153.063,99.029,97.0644,0.000350013,0.0691942,21.0188,185.379,0.178386,0.0,0.0
588,146.75,19.811,20.7518,153.965,98.9812,96.8092,0.000492729,0.06892,21.0189,185.349,0.197529,0.0,0.0
595,148.5,19.703,20.2722,150.248,98.9298,96.8299,0.000635365,0.0686588,21.019,185.369,0.190995,0.0,0.0
602,150.25,19.6143,20.4657,154.287,98.8479,96.9728,0.000752465,0.0684969,21.019,185.369,0.170494,0.0,0.0
609,152,19.8954,20.1792,151.147,98.7808,96.7435,0.000839183,0.0684755,21.0184,185.369,0.185534,0.0,0.0
616,153.75,19.7419,20.2534,152.85,98.7294,96.5209,0.000908371,0.0684033,21.0178,185.379,0.201408,0.0,0.0
623,155.5,19.551,20.2462,150.977,99.0262,96.9012,0.000990452,0.0682738,21.0176,185.369,0.193117,0.0,0.0
630,157.25,19.9163,20.7038,155.005,99.302,96.9109,0.00100664,0.0681974,21.0175,185.359,0.216988,0.0,0.0
637,159,19.7478,20.6111,153.831,99.4735,97.1852,0.000851116,0.0681631,21.0174,185.379,0.207184,0.0,0.0
644,160.75,19.6353,20.8053,149.942,99.5538,97.2247,0.000698728,0.0684758,21.0174,185.379,0.210757,0.0,0.0
651,162.5,19.3037,20.3709,153.272,99.5506,96.8872,0.000648323,0.0691251,21.0174,185.389,0.241426,0.0,0.0
658,164.25,19.8671,20.7715,153.166,99.4502,97.3523,0.000659009,0.0695475,21.0174,185.369,0.18981,0.0,0.0
665,166,20.0496,20.4745,152.506,99.2518,96.9453,0.000594437,0.0695988,21.0186,185.379,0.209333,0.0,0.0
672,167.75,19.7297,20.3975,152.372,99.0173,96.2211,0.000541118,0.0692738,21.0192,185.379,0.255022,0.0,0.0
679,169.5,19.6292,20.5201,152.041,99.0872,96.824,0.000544135,0.068848,21.0199,185.379,0.205696,0.0,0.0
686,171.25,19.9233,20.5666,150.315,99.2237,96.9894,0.000594715,0.0684706,21.021,185.389,0.202763,0.0,0.0
693,173,19.6966,20.7118,151.051,99.3715,96.8037,0.00063872,0.0679608,21.0218,185.399,0.233073,0.0,0.0
700,174.75,20.0571,20.5579,153.052,99.5137,97.2637,0.000571024,0.067415,21.0235,185.389,0.203595,0.0,0.0
707,176.5,19.6861,21.0032,152.938,99.647,96.9584,0.000460892,0.0669369,21.0245,185.389,0.243497,0.0,0.0
714,178.25,20.0436,20.6763,152.972,99.747,97.3078,0.000428792,0.0665746,21.0256,185.389,0.220407,0.0,0.0
721,180,20.2307,20.4128,150.983,99.7928,97.6325,0.000471611,0.0661086,21.0267,185.399,0.194828,0.0,0.0
728,181.75,19.9123,20.6771,150.792,99.7751,97.4574,0.000523579,0.0657368,21.0273,185.399,0.209233,0.0,0.0
735,183.5,19.6975,20.6051,148.969,99.6883,97.3404,0.000527936,0.0655749,21.0276,185.399,0.212186,0.0,0.0
742,185.25,19.3591,20.6948,150.429,99.5611,96.671,0.000451735,0.0655387,21.0277,185.389,0.26225,0.0,0.0
749,187,19.7404,20.6343,152.913,99.3812,96.662,0.000393944,0.0654499,21.0277,185.379,0.24697,0.0,0.0
756,188.75,19.8446,20.3409,151.676,99.1402,96.5285,0.000427989,0.0654542,21.0278,185.359,0.237668,0.0,0.0
763,190.5,19.84,20.6792,149.672,98.89,96.492,0.000437357,0.0653492,21.0278,185.369,0.218538,0.0,0.0
770,192.25,20.1153,20.7192,148.955,98.6266,96.3263,0.000406791,0.0653358,21.0278,185.379,0.210101,0.0,0.0
777,194,19.9807,20.8016,149.213,98.3869,96.0634,0.000432977,0.0654448,21.0278,185.359,0.212761,0.0,0.0
784,195.75,19.9426,20.7241,149.676,98.1692,95.4245,0.000510948,0.0654872,21.0278,185.399,0.252456,0.0,0.0
791,197.5,19.5627,20.5386,155.78,97.9917,95.3371,0.000551016,0.0655056,21.0277,185.419,0.244498,0.0,0.0
798,199.25,19.9199,20.9561,152.755,97.8757,95.31,0.000556262,0.0654891,21.027,185.399,0.236482,0.0,0.0
805,201,20.2539,20.8895,153.818,97.7849,95.1048,0.00059253,0.0655614,21.0267,185.379,0.247411,0.0,0.0
812,202.75,20.2353,20.7694,149.871,97.7604,94.9449,0.000623186,0.0653245,21.0266,185.369,0.260157,0.0,0.0
819,204.5,19.9127,20.3012,150.64,97.8018,95.1896,0.000596931,0.0652902,21.0265,185.369,0.241014,0.0,0.0
826,206.25,19.7774,20.738,149.042,97.8729,95.3566,0.000462068,0.0653131,21.0265,185.349,0.231872,0.0,0.0
833,208,19.7382,20.9172,152.365,97.9917,95.2269,0.000378207,0.0653202,21.0263,185.349,0.254796,0.0,0.0
840,209.75,19.835,20.7425,150.584,98.1287,95.084,0.000341917,0.0654766,21.0251,185.349,0.280597,0.0,0.0
847,211.5,19.6133,20.6438,151.62,98.303,95.6598,0.000321465,0.0657889,21.0238,185.349,0.242649,0.0,0.0
854,213.25,20.2225,20.7823,151.249,98.4567,95.2761,0.000365368,0.0660319,21.0227,185.329,0.292346,0.0,0.0
861,215,19.6218,20.9723,152.871,98.621,95.8997,0.000448405,0.0662659,21.0222,185.339,0.2491,0.0,0.0
868,216.75,19.4728,21.0085,150.662,98.776,95.893,0.0005018,0.0667629,21.0204,185.359,0.26371,0.0,0.0
875,218.5,20.1145,20.9443,156.112,98.9045,96.6837,0.000524351,0.0677703,21.0187,185.349,0.202176,0.0,0.0
882,220.25,19.8445,21.0142,147.9,99.0005,96.0447,0.000519957,0.0689782,21.0176,185.359,0.269839,0.0,0.0
889,222,20.1998,20.8037,153.354,99.0719,96.2181,0.000505372,0.0700426,21.0159,185.329,0.260205,0.0,0.0
896,223.75,19.3228,20.4369,152.849,99.1085,96.5315,0.000545707,0.0708696,21.014,185.369,0.234545,0.0,0.0
903,225.5,19.9446,20.7427,150.35,99.1089,96.2839,0.000590493,0.0715557,21.013,185.339,0.257447,0.0,0.0
910,227.25,20.2373,20.9048,153.375,99.074,96.6769,0.000645864,0.0717956,21.0121,185.349,0.218042,0.0,0.0
917,229,19.6774,20.6911,151.195,99.0089,96.2122,0.000705969,0.0713948,21.0124,185.339,0.255087,0.0,0.0
924,230.75,19.6651,20.3466,151.599,98.9531,96.3835,0.000732882,0.0710324,21.013,185.349,0.234232,0.0,0.0
931,232.5,20.193,20.6967,150.526,98.9021,96.2139,0.000718632,0.0711259,21.0126,185.339,0.24532,0.0,0.0
938,234.25,20.14,20.6711,153.752,98.8439,95.94,0.000672668,0.0714914,21.0118,185.349,0.265457,0.0,0.0
945,236,20.1583,20.7439,151.078,98.7949,96.2979,0.000620633,0.0718385,21.0115,185.359,0.227901,0.0,0.0
952,237.75,20.4409,21.0947,150.528,98.737,96.0104,0.00057353,0.0717417,21.0118,185.359,0.249303,0.0,0.0
959,239.5,19.6527,21.2579,145.879,98.6981,95.9197,0.000612715,0.0713846,21.0129,185.359,0.254207,0.0,0.0
966,241.25,20.2526,20.9459,150.729,98.7828,95.6784,0.00073523,0.0709939,21.0136,185.339,0.284264,0.0,0.0
973,243,19.8226,21.1472,154.553,99.0137,96.4064,0.000835048,0.0708292,21.014,185.359,0.237571,0.0,0.0
980,244.75,20.2055,20.8518,149.66,99.2125,96.7464,0.000780488,0.0707838,21.0146,185.339,0.224081,0.0,0.0
987,246.5,19.8611,20.9293,150.221,99.351,96.7761,0.000592014,0.0704265,21.0155,185.329,0.233773,0.0,0.0
994,248.25,19.7809,20.5944,150.378,99.4611,96.5276,0.000408856,0.0700312,21.0166,185.339,0.266512,0.0,0.0
1001,250,20.3602,21.2278,153.03,99.5201,97.0072,0.000406453,0.0699815,21.0172,185.349,0.227679,0.0,0.0
1008,251.75,20.0554,20.8777,150.612,99.5454,96.7859,0.000469927,0.0699165,21.0175,185.319,0.250275,0.0,0.0
1015,253.5,19.9983,21.5454,149.474,99.5225,96.6421,0.000465188,0.0696258,21.0176,185.319,0.261458,0.0,0.0
1022,255.25,19.7424,20.5164,152.019,99.4779,96.7464,0.000400429,0.0693756,21.0177,185.339,0.247866,0.0,0.0
1029,257,20.0331,21.1587,148.97,99.3932,96.4229,0.000267559,0.0689823,21.0177,185.329,0.270099,0.0,0.0
1036,258.75,19.8874,21.1755,152.699,99.2715,96.6247,0.000138256,0.0687566,21.0177,185.339,0.24058,0.0,0.0
1043,260.5,20.1851,21.3318,153.71,99.1105,96.2839,0.000197398,0.0688553,21.0177,185.349,0.25759,0.0,0.0
1050,262.25,20.4666,21.0961,150.364,98.988,96.4742,0.000445157,0.0691893,21.0177,185.329,0.228998,0.0,0.0
1057,264,19.7509,21.0163,152.286,99.0523,96.4191,0.000675995,0.0698225,21.0168,185.329,0.239862,0.0,0.0
1064,265.75,19.9278,20.5499,152.957,99.137,96.1206,0.000775333,0.0704578,21.016,185.329,0.275076,0.0,0.0
1071,267.5,20.1987,21.5652,149.455,99.2069,96.3597,0.000748677,0.0705175,21.0156,185.319,0.259229,0.0,0.0
1078,269.25,20.351,21.1989,149.161,99.2703,96.9245,0.00060515,0.0703096,21.0151,185.319,0.212898,0.0,0.0
1085,271,19.8574,21.065,150.427,99.3675,96.8058,0.000404116,0.0699756,21.0157,185.319,0.232518,0.0,0.0
1092,272.75,20.4063,20.9479,151.458,99.4474,96.7409,0.000270772,0.0695619,21.0164,185.329,0.245643,0.0,0.0
1099,274.5,19.5017,20.8888,149.864,99.5354,96.944,0.000299764,0.0691982,21.0168,185.309,0.234843,0.0,0.0
1106,276.25,20.4759,21.4314,154.123,99.6032,96.6845,0.000520119,0.0691119,21.0169,185.299,0.26477,0.0,0.0
1113,278,20.2928,21.4637,151.172,99.6594,97.0364,0.00071724,0.0692908,21.017,185.329,0.23745,0.0,0.0
1120,279.75,19.867,20.92,149.578,99.7149,96.6527,0.00079258,0.0694083,21.0166,185.329,0.277671,0.0,0.0
1127,281.5,20.3092,21.2542,154.824,99.753,96.9851,0.000817364,0.0699436,21.0156,185.309,0.250511,0.0,0.0
1134,283.25,20.3304,20.8265,156.554,99.7663,97.2124,0.000790683,0.0705188,21.0152,185.319,0.230858,0.0,0.0
1141,285,20.3625,21.2877,153.498,99.7875,97.0869,0.000726926,0.0707224,21.0149,185.329,0.244257,0.0,0.0
1148,286.75,19.926,20.665,156.16,99.792,96.9012,0.000645749,0.0705201,21.0148,185.309,0.261697,0.0,0.0
1155,288.5,20.123,21.0924,155.561,99.7907,96.8189,0.000606206,0.0701533,21.0148,185.319,0.269149,0.0,0.0
1162,290.25,20.1433,20.6546,152.021,99.7558,96.8376,0.000625731,0.0699641,21.0146,185.299,0.264317,0.0,0.0
1169,292,20.2141,20.554,154.551,99.7104,97.2298,0.00065623,0.0701658,21.0142,185.309,0.224285,0.0,0.0
1176,293.75,20.3744,20.9372,149.104,99.6859,97.4261,0.000679074,0.0702231,21.0139,185.299,0.204143,0.0,0.0
1183,295.5,20.0583,21.1111,149.627,99.6402,97.0156,0.000692399,0.0700479,21.0138,185.319,0.237633,0.0,0.0
1190,297.25,20.1008,21.0187,150.811,99.5811,96.7884,0.000623533,0.06984,21.0138,185.319,0.253237,0.0,0.0
1197,299,20.1786,21.0706,151.29,99.506,96.735,0.00049528,0.0697668,21.0137,185.319,0.251436,0.0,0.0
1204,300.75,20.3621,21.0219,150.863,99.4514,96.76,0.000418176,0.0698057,21.0137,185.309,0.244246,0.0,0.0
1211,302.5,20.2008,21.0382,148.098,99.3671,96.3894,0.000476857,0.0696173,21.0137,185.309,0.270853,0.0,0.0
1218,304.25,20.1617,21.1189,150.297,99.3012,96.894,0.000620037,0.0694141,21.0137,185.288,0.218474,0.0,0.0
1225,306,19.7695,20.7104,148.679,99.2141,96.6468,0.000720572,0.0690752,21.0148,185.299,0.233399,0.0,0.0
1232,307.75,19.8824,21.2008,152.478,99.1382,96.3615,0.000719011,0.0687223,21.0155,185.299,0.252908,0.0,0.0
1239,309.5,19.9957,20.6042,152.734,99.0414,96.6765,0.000663156,0.068215,21.0162,185.299,0.215157,0.0,0.0
1246,311.25,20.0941,21.1681,153.832,98.9438,96.4021,0.000729986,0.0678011,21.0174,185.319,0.231678,0.0,0.0
1253,313,20.2656,21.0332,155.054,98.8431,95.8993,0.000792528,0.0676066,21.0181,185.319,0.269162,0.0,0.0
1260,314.75,20.2541,20.647,152.388,98.7451,96.1673,0.00083223,0.0674975,21.0195,185.309,0.235492,0.0,0.0
1267,316.5,20.2306,20.6099,151.542,98.6535,95.9548,0.00073838,0.0675517,21.0189,185.329,0.24692,0.0,0.0
1274,318.25,20.3779,20.9422,152.292,98.5463,95.4584,0.000572348,0.0676211,21.0186,185.299,0.283421,0.0,0.0
1281,320,19.9332,21.2591,150.024,98.4483,95.1345,0.000478016,0.0677376,21.0185,185.319,0.304826,0.0,0.0
1288,321.75,20.0716,20.9909,151.574,98.3427,95.5003,0.000455877,0.067767,21.0187,185.309,0.261097,0.0,0.0
1295,323.5,20.4222,20.586,149.637,98.2407,95.5881,0.000445811,0.0677831,21.0198,185.299,0.24368,0.0,0.0
1302,325.25,20.2353,21.0848,152.009,98.1592,95.1489,0.000456868,0.0676436,21.0203,185.309,0.277294,0.0,0.0
1309,327,19.8783,21.004,149.226,98.0849,95.385,0.000520714,0.0675944,21.0205,185.299,0.248485,0.0,0.0
1316,328.75,20.2527,20.9354,151.334,98.0158,95.3486,0.00060896,0.0675047,21.0206,185.299,0.245617,0.0,0.0
1323,330.5,20.0247,21.2549,149.557,97.9536,95.5606,0.000681189,0.0674064,21.0207,185.299,0.220191,0.0,0.0
1330,332.25,20.3243,21.063,153.43,97.903,95.4944,0.000676738,0.0673594,21.0207,185.288,0.221756,0.0,0.0
1337,334,20.3814,21.0032,153.202,97.8612,95.106,0.000625524,0.0674265,21.0207,185.299,0.254235,0.0,0.0
1344,335.75,20.3069,21.07,151.637,97.8287,95.4372,0.000594061,0.0673936,21.0199,185.288,0.220336,0.0,0.0
1351,337.5,19.855,20.8246,149.48,97.8094,94.8101,0.000578422,0.0672984,21.0188,185.309,0.277267,0.0,0.0
1358,339.25,20.3265,21.0911,151.616,97.7873,95.3994,0.000550831,0.0672761,21.0178,185.299,0.220091,0.0,0.0
1365,341,20.3058,21.2083,150.318,97.7946,94.7109,0.000559282,0.0671432,21.0165,185.278,0.285235,0.0,0.0
1372,342.75,20.3349,20.8492,151.789,97.797,94.9225,0.000559228,0.067255,21.0159,185.278,0.265591,0.0,0.0
1379,344.5,19.7693,20.8254,151.592,97.8215,95.1752,0.000547317,0.0676301,21.0157,185.288,0.244152,0.0,0.0
1386,346.25,20.1147,21.492,151.373,97.8323,95.3795,0.000579039,0.0682594,21.0149,185.288,0.226045,0.0,0.0
1393,348,20.4209,20.6985,148.764,97.86,95.02,0.000622542,0.0688915,21.0139,185.288,0.262187,0.0,0.0
1400,349.75,20.0744,21.006,152.07,97.9066,95.0653,0.000587622,0.0693648,21.0135,185.288,0.262174,0.0,0.0
1407,351.5,20.1168,20.7951,150.255,97.9488,95.4185,0.00049419,0.0697758,21.0132,185.288,0.232996,0.0,0.0
1414,353.25,20.4772,20.9217,152.769,97.9845,94.9373,0.000391753,0.0702215,21.0131,185.288,0.281254,0.0,0.0
1421,355,20.3811,21.0879,149.86,98.0307,95.2154,0.000306742,0.0703508,21.0131,185.278,0.259405,0.0,0.0
1428,356.75,20.4177,21.4506,151.678,98.0889,95.4478,0.00027727,0.0703224,21.0143,185.288,0.242996,0.0,0.0
1435,358.5,20.4048,20.8766,150.539,98.1243,95.3956,0.000299071,0.0701533,21.0151,185.288,0.251068,0.0,0.0
1442,360.25,20.5521,20.857,153.757,98.1761,95.318,0.000368865,0.0697779,21.0165,185.288,0.263008,0.0,0.0
1449,362,20.3723,21.3127,151.756,98.2283,95.282,0.000489668,0.0691789,21.0176,185.268,0.271108,0.0,0.0
1456,363.75,20.2086,21.0262,146.856,98.2921,95.1171,0.0005955,0.0686434,21.0189,185.278,0.292316,0.0,0.0
1463,365.5,20.3464,21.5202,146.583,98.3491,95.9646,0.000561482,0.0681618,21.0195,185.288,0.218506,0.0,0.0
1470,367.25,19.9829,21.0934,153.279,98.4074,95.8332,0.000470542,0.067913,21.0196,185.288,0.235976,0.0,0.0
1477,369,20.5707,20.7179,151.415,98.4588,95.6097,0.000449278,0.0678539,21.0186,185.299,0.261405,0.0,0.0
1484,370.75,20.0369,21.017,150.584,98.5102,95.2036,0.000487792,0.0679032,21.0182,185.278,0.303951,0.0,0.0
1491,372.5,20.4096,20.6797,158.16,98.582,95.9108,0.000519126,0.0679947,21.0179,185.278,0.244559,0.0,0.0
1498,374.25,19.9888,21.0175,149.71,98.6238,95.9239,0.000552153,0.0681982,21.0174,185.288,0.24711,0.0,0.0
1505,376,20.3203,21.0742,149.531,98.672,96.1931,0.000588591,0.0690538,21.0163,185.288,0.226507,0.0,0.0
1512,377.75,20.2506,20.8135,153.951,98.7246,95.8917,0.00059998,0.0700023,21.0156,185.299,0.259195,0.0,0.0
1519,379.5,19.9575,20.9135,150.631,98.7856,96.0138,0.000574284,0.0706794,21.0143,185.288,0.253368,0.0,0.0
1526,381.25,19.6972,21.2054,153.478,98.825,96.1181,0.000502336,0.0708489,21.0134,185.268,0.247249,0.0,0.0
1533,383,20.2858,21.3399,151.81,98.8587,95.7819,0.000391313,0.0705591,21.0126,185.288,0.281482,0.0,0.0
1540,384.75,20.0205,20.7777,151.283,98.8924,96.0736,0.000316892,0.0702029,21.0128,185.309,0.257448,0.0,0.0
1547,386.5,20.281,21.5202,152.844,98.927,96.2084,0.000270615,0.0698104,21.0148,185.288,0.248072,0.0,0.0
1554,388.25,20.204,21.2006,151.604,98.9471,96.0562,0.000245422,0.0693142,21.0163,185.268,0.263974,0.0,0.0
1561,390,20.1818,21.1011,149.639,98.972,95.7365,0.000220322,0.0687289,21.0171,185.309,0.295891,0.0,0.0
1568,391.75,20.0597,21.4552,150.949,98.9904,96.5276,0.00022482,0.0681308,21.0174,185.319,0.224286,0.0,0.0
1575,393.5,20.3729,21.2663,151.592,99.0085,96.5946,0.00024701,0.0677959,21.0176,185.278,0.219735,0.0,0.0
1582,395.25,20.1168,21.068,152.869,99.037,96.6243,0.000292625,0.0676152,21.0173,185.288,0.219563,0.0,0.0
1589,397,20.3258,20.8477,153.884,99.0454,96.035,0.000306381,0.0674202,21.0173,185.288,0.274787,0.0,0.0
1596,398.75,19.9782,20.9962,151.581,99.0535,96.3012,0.000274109,0.0672454,21.0189,185.288,0.25086,0.0,0.0
1603,400.5,20.2596,21.1622,149.849,99.076,96.3271,0.000252602,0.0670483,21.0203,185.278,0.250491,0.0,0.0
1610,402.25,20.1173,20.7925,150.46,99.0908,96.3547,0.000298708,0.0670845,21.0204,185.268,0.249278,0.0,0.0
1617,404,20.1468,21.1845,152.869,99.0888,96.548,0.00038693,0.0669834,21.0202,185.309,0.231254,0.0,0.0
1624,405.75,20.2186,20.8573,155.297,99.0984,96.2118,0.000377858,0.0668341,21.0201,185.268,0.263174,0.0,0.0
1631,407.5,20.2029,21.3436,151.766,99.1009,96.6099,0.000281844,0.0668026,21.0201,185.278,0.226629,0.0,0.0
1638,409.25,20.0159,20.8428,153.52,99.1073,96.6167,0.000274992,0.0669395,21.0199,185.288,0.226581,0.0,0.0
1645,411,19.8194,21.2122,149.217,99.1137,96.8274,0.00035737,0.0669953,21.0187,185.278,0.207764,0.0,0.0
1652,412.75,20.5865,21.0991,154.616,99.1109,96.0871,0.0004048,0.067014,21.0182,185.278,0.275834,0.0,0.0
1659,414.5,19.7776,20.6456,151.914,99.1113,96.3241,0.000399693,0.0669785,21.018,185.299,0.253939,0.0,0.0
1666,416.25,20.1505,20.9925,150.784,99.1085,96.3008,0.000373301,0.0669931,21.0185,185.288,0.255842,0.0,0.0
1673,418,20.7752,21.5152,153.86,99.1073,96.4649,0.000279686,0.0669418,21.0189,185.288,0.240579,0.0,0.0
1680,419.75,20.325,20.9895,150.592,99.1081,96.0795,0.000188728,0.0668443,21.0191,185.278,0.276289,0.0,0.0
1687,421.5,20.1301,21.001,154.947,99.1049,96.3,0.000166725,0.0667627,21.0191,185.258,0.255596,0.0,0.0
1694,423.25,19.9184,21.0063,153.763,99.0916,96.5917,0.00020719,0.0666779,21.0192,185.248,0.227481,0.0,0.0
1701,425,19.8244,20.9746,149.741,99.0956,96.4488,0.00034896,0.0668053,21.0188,185.268,0.24102,0.0,0.0
1708,426.75,19.6383,21.004,152.233,99.0832,95.9684,0.00057996,0.0667649,21.0179,185.278,0.28435,0.0,0.0
1715,428.5,20.0889,20.9537,153.008,99.0968,96.1473,0.000801095,0.0668954,21.0193,185.278,0.268996,0.0,0.0
1722,430.25,20.2085,21.1991,152.32,99.0752,96.3882,0.000871697,0.0672795,21.0204,185.258,0.244777,0.0,0.0
1729,432,20.2839,21.0363,151.805,99.0575,96.0435,0.000754649,0.0679389,21.0207,185.268,0.275083,0.0,0.0
1736,433.75,20.1168,21.1938,152.662,99.0659,96.0375,0.00064547,0.0687526,21.0199,185.258,0.276391,0.0,0.0
1743,435.5,19.6899,20.7809,147.064,99.0418,96.1745,0.000610848,0.0695865,21.0195,185.268,0.26154,0.0,0.0
1750,437.25,20.1994,20.8381,151.63,99.039,95.9744,0.000681804,0.0701727,21.0186,185.258,0.27983,0.0,0.0
1757,439,20.2578,20.9238,151.242,99.0226,95.9392,0.000732551,0.0704186,21.0177,185.248,0.281616,0.0,0.0
1764,440.75,19.9911,21.0941,158.368,99.0169,96.261,0.000756645,0.0701239,21.018,185.248,0.2513,0.0,0.0
1771,442.5,20.2831,21.0689,150.14,99.0041,96.0829,0.000719486,0.069595,21.0186,185.268,0.266627,0.0,0.0
1778,444.25,20.1584,20.4574,146.137,98.988,96.0456,0.000722404,0.0691929,21.0188,185.258,0.26864,0.0,0.0
1785,446,19.878,20.8916,160.536,98.9784,96.5616,0.00069879,0.0686709,21.0189,185.278,0.220076,0.0,0.0
1792,447.75,20.4362,21.0505,152.246,98.9696,96.2953,0.00055997,0.0680621,21.019,185.258,0.243863,0.0,0.0
1799,449.5,20.4113,20.9635,150.456,98.9643,96.2894,0.000404094,0.0674977,21.019,185.258,0.243943,0.0,0.0
1806,451.25,20.1941,21.2635,146.695,98.96875,95.8997,0.000393146,0.0671723,21.0201,185.258,0.280436,0.0,0.0
1813,453,19.867,21.3295,151.007,98.9475,96.2118,0.000490993,0.0670477,21.0204,185.248,0.2496,0.0,0.0
1820,454.75,19.947,21.0349,153.774,98.9451,96.3606,0.000488901,0.0669317,21.0206,185.258,0.235624,0.0,0.0
1827,456.5,20.0793,21.0139,155.037,98.9455,96.0324,0.000432453,0.0668014,21.0207,185.258,0.26603,0.0,0.0
1834,458.25,19.9984,20.9952,155.935,98.9342,96.4615,0.000441369,0.0667823,21.0207,185.258,0.225331,0.0,0.0
1841,460,20.0544,21.1073,150.347,98.9342,96.1906,0.000435782,0.0666636,21.0214,185.248,0.25037,0.0,0.0
1848,461.75,20.2364,21.2997,149.864,98.9286,95.7246,0.000410792,0.06655,21.0223,185.248,0.293092,0.0,0.0
1855,463.5,20.2675,20.7045,150.435,98.943,96.6968,0.00044978,0.0665268,21.0227,185.258,0.204436,0.0,0.0
1862,465.25,19.7447,20.7887,155.39,98.9402,96.3046,0.000514388,0.0664553,21.0229,185.268,0.240363,0.0,0.0
1869,467,20.3999,20.7518,152.793,98.9487,96.3479,0.000543228,0.06648,21.023,185.248,0.237125,0.0,0.0
1876,468.75,20.105,21.3549,151.383,98.9467,96.0659,0.000554109,0.0664055,21.0231,185.258,0.263034,0.0,0.0
1883,470.5,20.2234,20.8696,151.162,98.9378,96.2809,0.000528319,0.0663039,21.0231,185.268,0.242341,0.0,0.0
1890,472.25,20.3072,20.682,150.572,98.9455,95.9557,0.000481096,0.0661647,21.0231,185.258,0.273147,0.0,0.0
1897,474,20.4468,21.287,156.113,98.9479,96.4785,0.000460594,0.0663455,21.0229,185.238,0.224995,0.0,0.0
1904,475.75,20.0856,20.9215,155.436,98.9487,96.5175,0.000468231,0.0666785,21.022,185.248,0.221468,0.0,0.0
1911,477.5,20.3128,21.1774,146.836,98.9459,95.8938,0.000541481,0.0672551,21.0206,185.248,0.278927,0.0,0.0
1918,479.25,19.786,21.0347,154.6,98.9491,96.4144,0.000588192,0.0676783,21.0196,185.248,0.231013,0.0,0.0
1925,481,19.9568,21.2037,153.417,98.9579,96.152,0.000546659,0.0679125,21.0191,185.238,0.256073,0.0,0.0
1932,482.75,20.1823,21.0152,154.216,98.9559,96.9928,0.000530653,0.0679485,21.0197,185.258,0.178387,0.0,0.0
1939,484.5,20.4293,21.0436,149.636,98.9519,95.9731,0.000561007,0.0677969,21.0203,185.238,0.272112,0.0,0.0
1946,486.25,20.3041,21.1809,152.247,98.9483,96.4836,0.000580533,0.0677302,21.0197,185.238,0.224562,0.0,0.0
1953,488,20.4356,20.7906,152.816,98.9571,96.2177,0.000557002,0.0678034,21.0192,185.238,0.249918,0.0,0.0
1960,489.75,20.1218,20.8895,150.463,98.9615,95.9578,0.000528453,0.0682111,21.0176,185.248,0.274396,0.0,0.0
1967,491.5,20.5488,21.1768,146.733,98.9631,96.1982,0.000451742,0.0688953,21.0165,185.248,0.252265,0.0,0.0
1974,493.25,20.0205,21.3796,149.956,98.9699,95.943,0.000355866,0.0693566,21.0153,185.238,0.276531,0.0,0.0
1981,495,20.1813,21.0294,149.361,98.978,96.138,0.000335987,0.0697658,21.0142,185.228,0.259174,0.0,0.0
1988,496.75,20.8446,21.1434,151.588,98.9832,96.598,0.000420569,0.0699463,21.0144,185.228,0.217147,0.0,0.0
1995,498.5,20.3884,20.8375,153.25,98.9784,96.3525,0.000534437,0.0699353,21.0168,185.238,0.239367,0.0,0.0
2002,500.25,20.287,20.8225,150.225,98.9872,96.52,0.000607097,0.0696415,21.0185,185.238,0.224701,0.0,0.0
2009,502,20.1557,20.7626,156.479,98.99,96.3453,0.000613494,0.0693887,21.0202,185.228,0.24108,0.0,0.0
2016,503.75,20.159,20.96,154.436,99.0093,96.5934,0.000562956,0.0689866,21.0215,185.238,0.219926,0.0,0.0
2023,505.5,20.2844,21.1596,153.405,99.0133,96.3979,0.000464695,0.0685153,21.022,185.248,0.238318,0.0,0.0
2030,507.25,20.4873,21.1198,150.286,99.0193,95.9807,0.000362057,0.0681142,21.0223,185.248,0.277472,0.0,0.0
2037,509,20.1101,20.9188,151.432,99.021,96.4017,0.000313402,0.0678487,21.0225,185.238,0.238652,0.0,0.0
2044,510.75,20.0081,21.011,154.771,99.0402,96.3508,0.00035594,0.0675788,21.0225,185.218,0.245084,0.0,0.0
2051,512.5,20.4507,21.0286,152.543,99.0418,96.0418,0.000427161,0.0675417,21.0226,185.228,0.273833,0.0,0.0
2058,514.25,19.9494,21.239,152.35,99.0519,96.4369,0.000486568,0.0675743,21.0226,185.218,0.238182,0.0,0.0
2065,516,20.3867,21.0223,147.588,99.0454,95.8934,0.000515054,0.0675085,21.0226,185.228,0.287924,0.0,0.0
2072,517.75,20.2622,20.8933,152.109,99.0659,96.4293,0.000445265,0.0675367,21.0226,185.228,0.24015,0.0,0.0
2079,519.5,20.4252,21.0259,151.807,99.0699,96.5739,0.000310454,0.0676061,21.0226,185.228,0.227173,0.0,0.0
2086,521.25,20.1855,21.3444,152.747,99.082,96.4331,0.000213713,0.067711,21.0204,185.228,0.241241,0.0,0.0
2093,523,19.8481,21.1044,149.854,99.0824,96.4975,0.00021327,0.0676744,21.0197,185.218,0.23533,0.0,0.0
2100,524.75,20.6329,21.2866,154.526,99.0848,97.0284,0.000306631,0.0674608,21.0197,185.228,0.186708,0.0,0.0
2107,526.5,20.2069,21.0822,153.251,99.0989,96.2856,0.000408429,0.0672962,21.0197,185.228,0.256388,0.0,0.0
2114,528.25,20.3168,21.3846,153.038,99.0981,96.4954,0.000424466,0.0672398,21.0197,185.228,0.236933,0.0,0.0
2121,530,20.1842,21.4341,145.576,99.0976,96.5904,0.000350954,0.0671652,21.0197,185.238,0.228138,0.0,0.0
2128,531.75,20.2091,20.8872,146.783,99.1045,96.1753,0.000265557,0.0670761,21.0197,185.238,0.267091,0.0,0.0
2135,533.5,20.1757,21.0086,151.763,99.1097,96.3504,0.000227662,0.0669584,21.0197,185.238,0.251366,0.0,0.0
2142,535.25,20.3549,20.6796,150.303,99.1045,96.1295,0.000219976,0.0670776,21.0197,185.238,0.27133,0.0,0.0
2149,537,20.2865,20.7719,153.461,99.1017,96.5764,0.0001959,0.0675498,21.0197,185.228,0.229789,0.0,0.0
2156,538.75,20.0603,21.0586,153.231,99.0948,96.7032,0.00024516,0.0680449,21.0197,185.218,0.217498,0.0,0.0
2163,540.5,20.1133,20.9068,153.795,99.0964,96.5959,0.00036936,0.0682583,21.0197,185.218,0.227522,0.0,0.0
2170,542.25,20.0957,21.2273,151.48,99.1077,96.1414,0.000478009,0.0682669,21.0198,185.228,0.270519,0.0,0.0
2177,544,20.385,20.9857,147.61,99.1057,96.2466,0.000504269,0.0681909,21.0206,185.238,0.260608,0.0,0.0
2184,545.75,20.1256,20.7932,157.639,99.0993,96.3487,0.00037664,0.0678922,21.0217,185.228,0.250585,0.0,0.0
2191,547.5,20.4342,21.2547,150.824,99.0912,96.5607,0.000186443,0.0675659,21.0223,185.228,0.230297,0.0,0.0
2198,549.25,20.2551,21.1076,150.696,99.0968,96.8639,0.000154597,0.0673863,21.0225,185.218,0.202897,0.0,0.0
2205,551,19.6461,21.2621,149.695,99.0976,96.6536,0.000244477,0.0672226,21.0226,185.218,0.222318,0.0,0.0
2212,552.75,19.9804,21.4382,152.026,99.1017,96.5594,0.000367755,0.0672104,21.0224,185.218,0.231352,0.0,0.0
2219,554.5,20.0962,20.952,153.967,99.0904,96.3428,0.000461637,0.0671882,21.0221,185.218,0.25034,0.0,0.0
2226,556.25,20.3248,20.9725,149.313,99.0884,96.4492,0.000548906,0.0670343,21.022,185.228,0.240331,0.0,0.0
2233,558,20.1629,21.0883,151.307,99.1021,96.662,0.000679307,0.0667724,21.0219,185.218,0.221934,0.0,0.0
2240,559.75,19.8322,21.4236,152.761,99.0997,96.4912,0.000865888,0.0664409,21.0219,185.198,0.237467,0.0,0.0
2247,561.5,19.949,20.512,153.727,99.0952,96.3801,0.000942488,0.0663077,21.0219,185.198,0.247325,0.0,0.0
2254,563.25,20.066,20.9991,153.901,99.0896,96.7036,0.000884635,0.0661955,21.0219,185.228,0.216989,0.0,0.0
2261,565,20.0458,21.0471,151.115,99.0944,96.1346,0.000815879,0.0662234,21.0219,185.238,0.269956,0.0,0.0
2268,566.75,20.3901,20.9499,151.416,99.096,96.3084,0.000734401,0.0662761,21.0219,185.218,0.254018,0.0,0.0
2275,568.5,20.1143,20.8804,155.555,99.1017,96.5285,0.000671147,0.0662035,21.0232,185.228,0.234206,0.0,0.0
2282,570.25,20.2571,21.1778,153.037,99.0904,96.5874,0.000657613,0.0661942,21.0237,185.218,0.227763,0.0,0.0
2289,572,20.2654,21.4636,151.247,99.1029,96.8003,0.000664195,0.0661429,21.0241,185.218,0.209285,0.0,0.0
2296,573.75,20.194,21.0845,151.787,99.1125,96.0168,0.000706093,0.0661049,21.0242,185.218,0.282501,0.0,0.0
2303,575.5,20.0142,20.9215,153.304,99.1093,96.623,0.000774535,0.0661965,21.0243,185.208,0.226176,0.0,0.0
2310,577.25,20.1162,21.5131,150.245,99.1105,96.7413,0.000795227,0.0662686,21.0246,185.208,0.215392,0.0,0.0
2317,579,20.0727,21.1468,153.498,99.1029,96.7197,0.000740362,0.0662872,21.0257,185.208,0.216697,0.0,0.0
2324,580.75,20.2474,21.1439,152.501,99.1153,96.5505,0.00068058,0.0662128,21.0262,185.198,0.233399,0.0,0.0
2331,582.5,20.2806,20.8768,149.725,99.1245,96.8592,0.000675441,0.0661134,21.0265,185.208,0.205814,0.0,0.0
2338,584.25,19.5897,20.7386,151.991,99.1157,96.2949,0.000714974,0.06595,21.0269,185.198,0.25704,0.0,0.0
2345,586,20.21,21.096,150.014,99.1073,96.5773,0.000709391,0.0659575,21.0273,185.198,0.230215,0.0,0.0
2352,587.75,20.3902,21.4064,149.97,99.1197,96.0931,0.000600488,0.0659836,21.0274,185.208,0.276078,0.0,0.0
2359,589.5,20.3688,20.5888,153.575,99.1225,96.93,0.000485527,0.0658238,21.0275,185.208,0.199129,0.0,0.0
2366,591.25,20.0906,20.7416,152.769,99.1197,97.0424,0.000388136,0.065834,21.0267,185.228,0.188563,0.0,0.0
2373,593,20.1393,21.1785,154.588,99.1093,96.0829,0.000289272,0.0659389,21.0259,185.228,0.276083,0.0,0.0
2380,594.75,20.3389,21.0731,153.627,99.1133,96.3551,0.000241919,0.0659937,21.0252,185.238,0.251259,0.0,0.0
2387,596.5,20.1391,20.8552,151.447,99.1181,96.2491,0.000243931,0.066035,21.0234,185.238,0.26149,0.0,0.0
2394,598.25,20.4105,21.2978,156.39,99.1141,96.2389,0.000247584,0.0662534,21.0226,185.238,0.262072,0.0,0.0
2401,600,20.3625,21.0284,149.351,99.1169,96.4696,0.000298711,0.066697,21.0222,185.228,0.241014,0.0,0.0
2408,601.75,19.781,20.7761,152.592,99.1049,97.0742,0.000446854,0.067131,21.0212,185.218,0.184311,0.0,0.0
2415,603.5,19.778,20.6866,153.263,99.1093,96.6909,0.000634019,0.0674015,21.0203,185.208,0.219928,0.0,0.0
2422,605.25,19.5628,20.1531,152.545,99.0989,96.4708,0.000710995,0.0675239,21.0199,185.198,0.239273,0.0,0.0
2429,607,19.6305,20.4391,151.141,99.0952,96.2945,0.000616363,0.0676278,21.0197,185.198,0.25524,0.0,0.0
2436,608.75,19.3669,20.4366,154.62,99.0864,96.3852,0.00041429,0.0676658,21.0196,185.208,0.246061,0.0,0.0
2443,610.5,19.7255,20.358,149.077,99.1069,96.2711,0.000264038,0.0675958,21.0196,185.208,0.258441,0.0,0.0
2450,612.25,19.0927,20.5631,151.659,99.08,96.7969,0.000222514,0.06742,21.0186,185.188,0.20754,0.0,0.0
2457,614,19.0907,20.2211,152.372,99.0647,96.4229,0.000231455,0.067379,21.0179,185.188,0.240628,0.0,0.0
2464,615.75,19.5765,20.5915,154.229,99.0535,96.4802,0.000288983,0.0673194,21.0182,185.188,0.234334,0.0,0.0
2471,617.5,19.548,20.1929,151.441,99.043,96.414,0.000345604,0.0671462,21.0192,185.188,0.239502,0.0,0.0
2478,619.25,19.883,20.1501,152.708,99.027,96.4543,0.000311658,0.0669672,21.0204,185.188,0.23434,0.0,0.0
2485,621,18.9554,19.9616,146.586,99.0314,96.3275,0.000199347,0.0669186,21.0214,185.208,0.246444,0.0,0.0
2492,622.75,19.238,21.2147,155.396,99.0009,96.6192,0.000137214,0.0668446,21.0219,185.198,0.216784,0.0,0.0
2499,624.5,19.9496,20.3077,150.727,98.9623,96.1876,0.00022069,0.0667076,21.0222,185.198,0.253173,0.0,0.0
2506,626.25,19.7371,20.9794,150.556,98.9503,96.0257,0.00037891,0.0666284,21.0223,185.198,0.267092,0.0,0.0
2513,628,19.3353,20.4506,150.144,98.9057,96.0002,0.000466041,0.0664698,21.0236,185.198,0.265441,0.0,0.0
2520,629.75,19.8843,20.5669,151.286,98.8888,96.3725,0.000443719,0.0663035,21.0242,185.178,0.229469,0.0,0.0
2527,631.5,19.7159,20.385,152.325,98.8398,96.4318,0.000402959,0.0662751,21.0245,185.178,0.219576,0.0,0.0
2534,633.25,19.6208,20.3825,151.537,98.8065,96.3712,0.000408184,0.0661032,21.0246,185.188,0.222171,0.0,0.0
2541,635,19.4284,20.6831,147.236,98.7708,96.4026,0.000425405,0.0658902,21.0247,185.188,0.216054,0.0,0.0
2548,636.75,19.8394,20.5509,153.089,98.7314,96.227,0.000410657,0.0656731,21.025,185.188,0.22873,0.0,0.0
2555,638.5,19.9166,20.0213,150.2,98.6981,96.3797,0.000410597,0.0655945,21.0262,185.178,0.211614,0.0,0.0
2562,640.25,19.1369,20.5466,146.113,98.6475,95.932,0.000440846,0.0654303,21.0268,185.188,0.248501,0.0,0.0
2569,642,19.2876,20.2407,148.829,98.6222,95.781,0.000451973,0.0650474,21.0271,185.188,0.260236,0.0,0.0
2576,643.75,19.7294,20.3863,157.202,98.5764,96.024,0.000521915,0.0648508,21.0272,185.218,0.233551,0.0,0.0
2583,645.5,19.8122,20.4858,152.092,98.521,95.9082,0.000650828,0.0648301,21.0273,185.208,0.239282,0.0,0.0
2590,647.25,19.5381,20.5454,152.05,98.48,96.0986,0.000684731,0.0648734,21.0273,185.218,0.217927,0.0,0.0
2597,649,19.8897,20.3919,149.468,98.4254,95.7751,0.000621604,0.0650944,21.0274,185.218,0.243008,0.0,0.0
2604,650.75,19.728,20.4093,151.272,98.3736,95.7221,0.000537333,0.0653549,21.0274,185.208,0.243249,0.0,0.0
2611,652.5,19.3733,20.4446,150.614,98.3475,95.9476,0.000424985,0.065507,21.0274,185.198,0.219933,0.0,0.0
2618,654.25,19.5456,20.8443,152.211,98.2937,95.7916,0.000384888,0.0657476,21.0271,185.198,0.229549,0.0,0.0
2625,656,19.9582,20.2753,155.845,98.254,95.8887,0.000436597,0.0657987,21.026,185.168,0.21693,0.0,0.0
2632,657.75,19.4363,20.8882,151.515,98.2062,95.8493,0.000463702,0.0656642,21.0255,185.218,0.216261,0.0,0.0
2639,659.5,19.5934,20.3885,150.075,98.1528,95.4338,0.000442985,0.0655265,21.0253,185.238,0.250092,0.0,0.0
2646,661.25,19.6865,20.4496,147.466,98.1106,95.2311,0.000439554,0.0656115,21.0253,185.208,0.265193,0.0,0.0
2653,663,19.5322,20.576,153.702,98.0644,95.9489,0.000456348,0.0661032,21.0247,185.228,0.194151,0.0,0.0
2660,664.75,19.855,20.4846,151.143,98.0331,95.7569,0.000448698,0.0669891,21.023,185.208,0.209146,0.0,0.0
2667,666.5,19.6037,20.5019,151.97,97.9998,95.8344,0.000406397,0.0680921,21.0216,185.188,0.198908,0.0,0.0
2674,668.25,20.3072,20.5074,153.298,97.9568,95.5207,0.00035073,0.0691016,21.0199,185.178,0.224196,0.0,0.0
2681,670,19.9652,20.9359,155.923,97.9207,95.4775,0.000302721,0.0701996,21.0179,185.168,0.224943,0.0,0.0
2688,671.75,19.0601,20.9158,153.98,97.8954,95.3897,0.000251668,0.0707066,21.0169,185.158,0.23083,0.0,0.0
2695,673.5,19.7729,20.3495,152.433,97.864,95.2884,0.000189733,0.0706251,21.0171,185.188,0.237443,0.0,0.0
2702,675.25,19.8656,20.8273,153.343,97.8492,94.9725,0.000114963,0.0701977,21.0182,185.168,0.26565,0.0,0.0
2709,677,19.6193,20.2004,152.875,97.8287,95.4194,9.26128e-05,0.0695172,21.0195,185.168,0.221996,0.0,0.0
2716,678.75,19.8056,20.5778,147.538,97.8022,95.4117,0.00015992,0.0687989,21.0201,185.178,0.220296,0.0,0.0
2723,680.5,19.2156,20.5962,151.698,97.8002,95.1323,0.000259707,0.0681556,21.0204,185.168,0.246222,0.0,0.0
2730,682.25,19.6421,20.5342,155.619,97.793,95.1883,0.000407455,0.0677216,21.0209,185.178,0.240328,0.0,0.0
2737,684,19.384,20.082,152.684,97.7833,94.9602,0.000605195,0.0674799,21.0218,185.158,0.260809,0.0,0.0
2744,685.75,19.4239,20.7999,151.137,97.7845,94.844,0.000720228,0.0670469,21.0227,185.178,0.271817,0.0,0.0
2751,687.5,19.9636,20.5462,152.792,97.7926,95.0815,0.000721379,0.0667767,21.0239,185.168,0.25029,0.0,0.0
2758,689.25,20.0004,20.2068,147.976,97.7978,95.3596,0.000730591,0.0666662,21.0245,185.178,0.22476,0.0,0.0
2765,691,19.5545,20.3997,156.143,97.8151,95.1188,0.000758737,0.0665224,21.0248,185.158,0.248844,0.0,0.0
2772,692.75,19.3492,20.8255,151.219,97.8343,95.5491,0.000718299,0.0665364,21.0249,185.168,0.210412,0.0,0.0
2779,694.5,19.7319,20.6861,152.995,97.8576,95.0022,0.000618974,0.0665285,21.025,185.168,0.263636,0.0,0.0
2786,696.25,20.0572,20.6685,154.253,97.8893,95.6653,0.000511684,0.0665165,21.025,185.168,0.204599,0.0,0.0
2793,698,19.5176,20.692,151.364,97.9199,95.8425,0.00039774,0.0665262,21.025,185.168,0.190897,0.0,0.0
2800,699.75,19.734,20.6882,151.121,97.9656,95.3541,0.000277486,0.0664769,21.025,185.168,0.240543,0.0,0.0
2807,701.5,19.9371,20.8154,150.87,97.999,95.4075,0.000210654,0.0663628,21.025,185.158,0.238585,0.0,0.0
2814,703.25,19.6844,20.1821,149.762,98.0588,95.5572,0.00023426,0.066298,21.025,185.158,0.230064,0.0,0.0
2821,705,20.002,20.2433,156.74,98.1303,95.536,0.000275083,0.0662223,21.0248,185.168,0.238526,0.0,0.0
2828,706.75,19.6743,20.4647,152.842,98.1877,95.756,0.000294511,0.0662031,21.0237,185.168,0.223254,0.0,0.0
2835,708.5,19.7177,20.3792,154.932,98.2411,95.9133,0.000293846,0.0660804,21.0232,185.168,0.213482,0.0,0.0
2842,710.25,19.8158,20.3483,153.26,98.3118,95.8887,,0.0660909,,185.158,0.222168,0.0,0.0
2849,712,19.6543,20.5221,155.684,98.3841,96.2343,,0.0662547,,185.168,0.196688,0.0,0.0
2856,713.75,19.7177,20.8736,153.072,98.4535,96.1308,,,,185.188,0.212546,0.0,0.0
2863,715.5,19.4497,20.5859,150.306,98.5094,96.28,,,,185.168,0.203781,0.0,0.0
2870,717.25,19.5633,20.2416,150.154,98.5873,96.3424,,,,185.168,0.205058,0.0,0.0
2877,719,19.0022,20.521,149.87,98.672,96.3453,,,,185.158,0.212432,0.0,0.0
2884,720.75,19.299,20.4719,154.215,98.7246,96.5158,,,,185.168,0.201442,0.0,0.0