File: 01_Data/Tyvek_Wrap/Cone/Tyvek_Cone_HF75Scan_220308_R3.csv
Names,Time,Stack TC,Smoke TC,Exh Press,Smoke Comp,Smoke Meas,CO Meter,CO2 Meter,O2 Meter,Sample Mass,Ext Coeff,Start Test,Flame Verif
Chan Gain,,500,500,1,1,1,1,1,1,1,1,1.0,1.0
Offset,,0,0,0.134161,0,0,0,0,0,0,0,0.0,0.0
Gain,,1,1,25.011,15.9695,16.7489,1,1,1,1.00099,1.01863,1.0,1.0
Units,sec,C,C,Pa,%,%,%,%,%,g,/m,,
Baseline,,42.1898,44.2505,141.481,119.428,115.38,0.000820012,0.0586784,20.9997,-836.772,0.308129,,
2,0.25,42.2254,44.0883,141.172,119.377,115.089,0.000808992,0.0588045,21.0025,180.659,0.326881,0.0,0.0
4,0.75,41.8624,44.023,139.645,119.385,115.685,0.00080563,0.0588395,21.0025,180.83,0.281349,0.0,0.0
6,1.25,41.7234,43.2478,142.713,119.402,116.24,0.00081214,0.0588814,21.0025,180.84,0.239853,0.0,0.0
8,1.75,41.548,43.6923,142.474,119.395,115.286,0.000834095,0.0589154,21.0025,180.95,0.312887,0.0,0.0
10,2.25,41.4335,43.1364,148.461,119.418,114.237,0.000866894,0.058943,21.0021,180.94,0.396381,0.0,0.0
12,2.75,41.4295,43.7579,141.901,119.421,114.561,0.000912085,0.0589653,21.0017,180.97,0.371288,0.0,0.0
14,3.25,41.4588,42.9685,141.434,119.439,116.032,0.000965453,0.0590194,21.001,181.01,0.258591,0.0,0.0
16,3.75,41.507,43.816,138.54,119.438,115.523,0.00103247,0.0590956,21.0004,180.96,0.297808,0.0,0.0
18,4.25,41.2254,43.8692,138.434,119.454,114.466,0.00110816,0.0592583,20.9995,181.02,0.38115,0.0,0.0
20,4.75,41.2564,43.4828,142.115,119.452,114.435,0.00116947,0.0594808,20.9983,180.99,0.383395,0.0,0.0
22,5.25,41.7145,43.8969,135.372,119.462,113.955,0.00127183,0.0599567,20.9966,180.99,0.421682,0.0,0.0
24,5.75,41.3731,42.978,143.217,119.458,114.612,0.00135474,0.0606084,20.9947,180.98,0.369997,0.0,0.0
26,6.25,41.7109,43.4373,140.339,119.486,114.817,0.00143929,0.0611362,20.9931,180.95,0.356145,0.0,0.0
28,6.75,41.3525,43.5326,141.859,119.468,114.69,0.00152345,0.0624695,20.9908,180.88,0.364668,0.0,0.0
30,7.25,41.5454,43.1189,143.386,119.49,114.168,0.00159161,0.0635495,20.9889,180.96,0.407134,0.0,1.0
32,7.75,41.5613,43.1362,141.43,119.5,114.137,0.0016636,0.0651334,20.9873,180.91,0.410264,0.0,1.0
34,8.25,41.2907,43.7369,137.328,119.534,114.803,0.001737,0.0670547,20.9834,180.94,0.360867,0.0,1.0
36,8.75,41.5129,43.4832,141.122,119.508,115.154,0.0018126,0.0694463,20.9803,180.97,0.331647,0.0,1.0
38,9.25,42.0957,44.0176,140.381,119.524,114.693,0.00188836,0.0721354,20.9777,180.94,0.368583,0.0,1.0
40,9.75,41.7022,43.4434,140.058,119.528,114.16,0.00194973,0.0743135,20.9726,180.95,0.410617,0.0,1.0
42,10.25,41.5051,44.1988,136.028,119.547,112.664,0.00202594,0.0789081,20.9684,180.96,0.529872,0.0,1.0
44,10.75,41.5945,43.7177,137.563,119.541,112.006,0.00211152,0.0826298,20.962,180.94,0.581723,0.0,1.0
46,11.25,41.7965,43.9179,137.55,119.57,111.967,0.00218601,0.0868126,20.9568,180.92,0.587012,0.0,1.0
48,11.75,41.7445,43.9195,142.362,119.553,112.247,0.00225101,0.0912521,20.9486,180.92,0.563413,0.0,1.0
50,12.25,41.3057,43.4599,134.255,119.572,111.406,0.00229655,0.0948482,20.942,180.9,0.632096,0.0,1.0
52,12.75,41.2471,43.8307,136.718,119.569,111.995,0.00232702,0.097761,20.9366,180.9,0.584738,0.0,1.0
54,13.25,41.4592,43.4557,138.371,119.601,113.285,0.00233619,0.101214,20.9323,180.88,0.484764,0.0,0.0
56,13.75,41.8782,43.8116,137.647,119.588,113.674,0.00232966,0.104011,20.9287,180.88,0.453149,0.0,0.0
58,14.25,41.9028,43.8466,135.591,119.608,114.256,0.00232437,0.105967,20.9259,180.88,0.409035,0.0,0.0
60,14.75,42.2516,43.8726,138.374,119.595,115.08,0.0023007,0.106999,20.9236,180.86,0.343807,0.0,0.0
62,15.25,42.3252,44.0368,136.065,119.609,114.845,0.00226409,0.107338,20.9239,180.85,0.363214,0.0,0.0
64,15.75,42.1306,44.0874,139.72,119.604,115.358,0.00222923,0.106891,20.9242,180.86,0.322972,0.0,0.0
66,16.25,41.7498,44.2382,146.637,119.624,114.228,0.0021963,0.105881,20.927,180.85,0.412473,0.0,0.0
68,16.75,42.0744,43.7711,137.637,119.622,114.695,0.00216962,0.105063,20.9294,180.84,0.37582,0.0,0.0
70,17.25,42.6769,44.5246,140.386,119.641,114.995,0.00213821,0.102689,20.9325,180.83,0.353932,0.0,0.0
72,17.75,42.1914,44.5504,140.3,119.638,114.742,0.00211276,0.100766,20.9362,180.82,0.373358,0.0,0.0
74,18.25,42.1574,44.264,140.365,119.653,115.355,0.00207867,0.0992087,20.9403,180.83,0.326813,0.0,0.0
76,18.75,41.8954,44.194,142.746,119.639,115.397,0.00205105,0.0965205,20.9447,180.82,0.322512,0.0,0.0
78,19.25,42.2349,43.9758,138.195,119.67,114.571,0.00200908,0.0943429,20.9487,180.83,0.389069,0.0,0.0
80,19.75,42.373,44.1776,140.538,119.656,114.811,0.00197508,0.0918188,20.9524,180.85,0.369298,0.0,0.0
82,20.25,42.4633,44.4642,141.333,119.696,115.387,0.00193039,0.0897743,20.9558,180.82,0.327637,0.0,0.0
84,20.75,42.1953,43.8283,138.415,119.671,114.076,0.0018942,0.0876074,20.959,180.84,0.427889,0.0,0.0
86,21.25,42.8882,44.7147,143.803,119.676,115.086,0.00186488,0.0858523,20.9616,180.84,0.349413,0.0,0.0
88,21.75,42.1187,44.3249,139.679,119.691,114.805,0.00183991,0.0842056,20.9639,180.84,0.372355,0.0,0.0
90,22.25,42.7009,44.875,137.261,119.712,115.236,0.00181969,0.0826693,20.966,180.84,0.340521,0.0,0.0
92,22.75,42.1714,44.5912,139.855,119.725,114.834,0.00181433,0.0809979,20.9682,180.87,0.37271,0.0,0.0
94,23.25,41.9072,44.0688,140.758,119.716,115.366,0.00180998,0.079644,20.9704,180.8,0.330715,0.0,0.0
96,23.75,42.1437,44.6492,137.312,119.715,114.803,0.00182484,0.0783807,20.9724,180.86,0.374333,0.0,0.0
98,24.25,42.2927,44.7525,141.19,119.726,115.585,0.00183687,0.0772075,20.9742,180.85,0.314548,0.0,0.0
100,24.75,42.303,44.1126,140.705,119.721,115.312,0.0018699,0.0762572,20.9757,180.82,0.335233,0.0,0.0
102,25.25,42.349,44.8665,140.149,119.745,115.691,0.00189666,0.0753861,20.9769,180.73,0.307754,0.0,0.0
104,25.75,42.1545,44.4921,137.631,119.74,114.68,0.00192608,0.0745892,20.9778,180.78,0.38582,0.0,0.0
106,26.25,42.0607,44.4429,142.057,119.735,114.716,0.00195688,0.0738613,20.9791,180.86,0.38259,0.0,0.0
108,26.75,41.8459,44.3116,141.623,119.752,115.365,0.00198182,0.0732716,20.9801,180.78,0.333522,0.0,0.0
110,27.25,41.653,43.541,141.813,119.772,114.958,0.00200816,0.0727803,20.9809,180.82,0.366545,0.0,0.0
112,27.75,41.5513,43.8803,142.73,119.768,114.365,0.0020295,0.0723823,20.9815,180.83,0.412456,0.0,0.0
114,28.25,42.1118,44.2505,141.782,119.767,114.974,0.00204678,0.0720888,20.982,180.78,0.364947,0.0,0.0
116,28.75,41.7773,44.3604,142.022,119.773,115.088,0.00204606,0.0718772,20.9825,180.81,0.356529,0.0,0.0
118,29.25,42.1276,44.1684,137.933,119.785,114.431,0.00204032,0.0717058,20.9828,180.79,0.408582,0.0,0.0
120,29.75,41.6379,44.1411,141.055,119.795,114.482,0.00203102,0.0716632,20.9829,180.79,0.405315,0.0,0.0
122,30.25,41.6894,43.9973,137.728,119.797,115.567,0.00202349,0.0716288,20.9827,180.8,0.321243,0.0,0.0
124,30.75,41.9613,43.6648,138.456,119.813,115.362,0.00201616,0.0716588,20.9825,180.8,0.338268,0.0,0.0
126,31.25,42.1559,44.311,139.798,119.803,115.639,0.00201304,0.0717352,20.9825,180.81,0.316108,0.0,0.0
128,31.75,41.6819,43.719,141.324,119.822,115.116,0.00200156,0.0717971,20.9824,180.8,0.358057,0.0,0.0
130,32.25,42.2913,44.3823,137.844,119.821,115.197,0.00199227,0.0719436,20.9823,180.8,0.351603,0.0,0.0
132,32.75,42.1094,44.5212,139.048,119.84,114.537,0.00198475,0.0720622,20.9822,180.79,0.404467,0.0,0.0
134,33.25,41.9278,43.914,139.997,119.829,115.315,0.00197865,0.0721858,20.9819,180.79,0.343107,0.0,0.0
136,33.75,42.2159,44.3768,139.856,119.852,115.079,0.00197372,0.072286,20.9813,180.76,0.363167,0.0,0.0
138,34.25,41.7154,44.5687,138.734,119.854,115.323,0.00197584,0.0723576,20.9806,180.78,0.344402,0.0,0.0
140,34.75,41.9272,43.9386,140.596,119.867,115.549,0.00197757,0.0724802,20.9798,180.76,0.327823,0.0,0.0
142,35.25,42.3083,44.7034,139.894,119.86,114.698,0.00197897,0.0725795,20.9792,180.75,0.393365,0.0,0.0
144,35.75,42.3715,44.2724,141.261,119.883,114.835,0.00197887,0.0726599,20.9786,180.75,0.384407,0.0,0.0
146,36.25,42.2231,44.384,142.189,119.882,114.882,0.0019788,0.072725,20.9782,180.77,0.380716,0.0,0.0
148,36.75,42.5408,44.0749,146.123,119.895,114.434,0.0019697,0.0727705,20.9779,180.75,0.416551,0.0,0.0
150,37.25,42.2591,44.1543,139.781,119.883,115.19,0.00195421,0.0728009,20.9776,180.75,0.356772,0.0,0.0
152,37.75,42.0289,44.7777,141.076,119.903,114.962,0.00194166,0.0728617,20.9774,180.73,0.376039,0.0,0.0
154,38.25,42.1232,43.9948,143.375,119.9,114.975,0.00190333,0.0729435,20.9772,180.73,0.374751,0.0,0.0
156,38.75,41.9097,44.4688,138.867,119.92,115.746,0.00185939,0.0730098,20.9771,180.74,0.316573,0.0,0.0
158,39.25,41.9511,44.2163,138.85,119.903,115.636,0.00181221,0.0730273,20.9774,180.74,0.323791,0.0,0.0
160,39.75,42.0492,44.5442,142.458,119.935,115.203,0.00176756,0.0730088,20.9776,180.75,0.359703,0.0,0.0
162,40.25,41.9179,44.0169,144.027,119.931,115.125,0.00172559,0.072936,20.9779,180.74,0.36548,0.0,0.0
164,40.75,42.3198,44.1614,137.759,119.956,115.855,0.00169482,0.0728248,20.978,180.73,0.310784,0.0,0.0
166,41.25,42.1686,44.6277,139.324,119.948,115.165,0.00167279,0.0727347,20.9777,180.71,0.363621,0.0,0.0
168,41.75,41.9896,44.2429,141.877,119.965,115.204,0.00165495,0.072703,20.9775,180.73,0.361802,0.0,0.0
170,42.25,42.1677,44.0215,142.087,119.948,115.419,0.00165789,0.0726774,20.9773,180.73,0.343857,0.0,0.0
172,42.75,41.904,44.1811,138.302,119.971,114.741,0.00167592,0.0727117,20.9771,180.74,0.39834,0.0,0.0
174,43.25,41.5181,44.4431,139.26,119.963,115.102,0.00168361,0.0727394,20.9771,180.73,0.369626,0.0,0.0
176,43.75,42.2721,44.6391,138.407,119.98,115.983,0.00172247,0.0727344,20.9769,180.72,0.302712,0.0,0.0
178,44.25,42.217,44.7769,139.388,119.975,115.684,0.00175911,0.0727303,20.9769,180.71,0.325452,0.0,0.0
180,44.75,42.366,44.3219,139.322,120.013,114.82,0.00177718,0.0726995,20.9768,180.73,0.395293,0.0,0.0
182,45.25,41.89,44.4136,143.08,119.981,114.38,0.00180807,0.0726745,20.9767,180.73,0.427172,0.0,0.0
184,45.75,42.6302,44.3007,140.301,120.004,115.045,0.00182819,0.0726687,20.9767,180.71,0.37712,0.0,0.0
186,46.25,42.0419,45.2534,138.265,120.002,115.232,0.00184449,0.0726732,20.9766,180.73,0.362417,0.0,0.0
188,46.75,42.7559,44.5524,137.94,120.011,116.432,0.00185769,0.0726807,20.9766,180.72,0.270564,0.0,0.0
190,47.25,42.3015,44.6328,141.981,120.006,114.83,0.00184388,0.0727006,20.9766,180.7,0.393953,0.0,0.0
192,47.75,42.0444,44.7293,138.226,120.024,116.082,0.0018327,0.0727091,20.9766,180.689,0.298418,0.0,0.0
194,48.25,42.1497,44.134,139.538,120.025,116.118,0.00179671,0.0727236,20.9765,180.68,0.295662,0.0,0.0
196,48.75,42.4924,44.0889,136.971,120.058,115.996,0.00176755,0.0727353,20.9765,180.71,0.307531,0.0,0.0
198,49.25,42.6688,44.326,141.932,120.042,115.555,0.00174394,0.072752,20.9765,180.71,0.340341,0.0,0.0
200,49.75,42.5869,44.1788,139.527,120.059,115.418,0.00169668,0.0727721,20.9765,180.68,0.352286,0.0,0.0
202,50.25,42.8591,44.4507,137.804,120.051,115.835,0.0016584,0.0727812,20.9765,180.689,0.319434,0.0,0.0
204,50.75,42.0481,44.4022,143.609,120.076,115.349,0.00161883,0.0727819,20.9765,180.7,0.358898,0.0,0.0
206,51.25,42.3537,43.995,138.363,120.069,115.138,0.00158678,0.0727826,20.9765,180.689,0.374722,0.0,0.0
208,51.75,42.6222,44.3016,139.201,120.086,115.031,0.00156694,0.0727831,20.9765,180.68,0.384322,0.0,0.0
210,52.25,42.2051,44.8125,135.455,120.089,115.78,0.00155086,0.0727147,20.9765,180.669,0.326486,0.0,0.0
212,52.75,42.4468,44.6132,143.773,120.102,115.918,0.00155252,0.0726593,20.9767,180.669,0.316823,0.0,0.0
214,53.25,42.7125,44.5521,139.604,120.095,115.478,0.00155386,0.0725869,20.9771,180.689,0.35034,0.0,0.0
216,53.75,42.0373,45.2175,142.148,120.117,115.79,0.00157452,0.0725283,20.9774,180.689,0.327803,0.0,0.0
218,54.25,41.8947,44.3967,139.738,120.101,115.519,0.00159125,0.0724395,20.9777,180.68,0.347573,0.0,0.0
220,54.75,41.4079,44.3391,140.112,120.112,115.884,0.0016195,0.0723676,20.9779,180.68,0.320222,0.0,0.0
222,55.25,42.696,44.8813,139.127,120.114,116.717,0.00164237,0.0722406,20.978,180.669,0.256355,0.0,0.0
224,55.75,42.3562,44.321,142.12,120.135,115.656,0.00165213,0.0721377,20.9781,180.689,0.339482,0.0,0.0
226,56.25,42.4963,44.3881,140.973,120.123,115.822,0.0016688,0.0720405,20.9782,180.68,0.325825,0.0,0.0
228,56.75,42.0899,44.3386,138.562,120.129,115.767,0.00167742,0.0719619,20.9786,180.68,0.330482,0.0,0.0
230,57.25,42.762,44.5941,137.492,120.13,115.46,0.00168439,0.0719257,20.9789,180.659,0.354299,0.0,0.0
232,57.75,42.674,44.4706,139.056,120.143,115.14,0.00168025,0.0718964,20.9791,180.659,0.380111,0.0,0.0
234,58.25,42.4804,43.7693,138.459,120.143,115.47,0.0016769,0.0718726,20.9793,180.659,0.354483,0.0,0.0
236,58.75,42.3214,44.2025,140.526,120.152,115.466,0.00166903,0.0718553,20.9794,180.669,0.355452,0.0,0.0
238,59.25,42.6517,44.5314,139.581,120.151,115.151,0.00165802,0.0718256,20.9796,180.659,0.379779,0.0,0.0
240,59.75,42.3222,44.6862,138.51,120.157,115.37,0.00164781,0.0718015,20.9797,180.659,0.363253,0.0,0.0
242,60.25,42.8894,44.8163,139.581,120.164,115.386,0.00163838,0.0717675,20.9797,180.649,0.362573,0.0,0.0
244,60.75,42.4133,44.4255,140.561,120.183,115.148,0.00163268,0.071727,20.9798,180.639,0.382447,0.0,0.0
246,61.25,42.5674,44.5378,137.905,120.168,114.709,0.0016298,0.0716797,20.9803,180.659,0.415461,0.0,0.0
248,61.75,42.4056,44.1818,138.347,120.179,115.947,0.00163197,0.0716283,20.9807,180.659,0.320304,0.0,0.0
250,62.25,42.3566,43.972,141.821,120.18,115.28,0.00163504,0.071594,20.9809,180.629,0.371967,0.0,0.0
252,62.75,41.8077,44.0932,138.601,120.173,116.485,0.00164027,0.0715726,20.9812,180.649,0.278528,0.0,0.0
254,63.25,42.1762,44.3816,141.768,120.185,115.456,0.00165612,0.0715337,20.9815,180.659,0.358707,0.0,0.0
256,63.75,42.5646,44.5825,137.027,120.193,115.356,0.00166192,0.0714825,20.9816,180.639,0.367008,0.0,0.0
258,64.25,42.7459,44.9252,141.346,120.194,115.994,0.00167764,0.0714049,20.9817,180.619,0.317802,0.0,0.0
260,64.75,42.6781,44.2655,137.037,120.196,116.514,0.00169559,0.0713095,20.9819,180.629,0.277957,0.0,0.0
262,65.25,42.4072,45.3375,141.606,120.205,115.644,0.00171787,0.0712688,20.982,180.629,0.345687,0.0,0.0
264,65.75,42.5427,44.5858,137.69,120.225,116.462,0.00174287,0.0711992,20.9816,180.609,0.284165,0.0,0.0
266,66.25,42.5868,44.1427,137.395,120.212,116.277,0.00176313,0.0711188,20.9813,180.629,0.297356,0.0,0.0
268,66.75,42.3991,44.8082,137.962,120.219,115.058,0.00177954,0.0710972,20.9811,180.639,0.392036,0.0,0.0
270,67.25,42.5498,44.5632,139.249,120.223,115.332,0.00178509,0.071129,20.9809,180.619,0.37115,0.0,0.0
272,67.75,42.303,44.5097,140.371,120.224,115.844,0.00178263,0.0711548,20.9807,180.639,0.331595,0.0,0.0
274,68.25,42.3909,44.82,139.156,120.222,115.623,0.00178063,0.0711756,20.9806,180.619,0.348537,0.0,0.0
276,68.75,42.6626,44.9473,141.4,120.241,116.07,0.00176806,0.0711925,20.9805,180.639,0.315491,0.0,0.0
278,69.25,42.3095,44.7729,139.181,120.228,115.145,0.00174803,0.0712337,20.9804,180.629,0.385978,0.0,0.0
280,69.75,42.4786,44.9417,139.366,120.229,115.986,0.00173179,0.0712671,20.9804,180.639,0.321043,0.0,0.0
282,70.25,43.0771,45.0838,138.988,120.255,115.23,0.001718,0.0712804,20.9803,180.639,0.381353,0.0,0.0
284,70.75,42.441,44.5777,139.281,120.242,115.335,0.00170625,0.0712911,20.9803,180.609,0.372286,0.0,0.0
286,71.25,42.4514,45.0421,142.637,120.24,115.092,0.0017006,0.0712861,20.9802,180.609,0.39101,0.0,0.0
288,71.75,42.7172,44.9321,138.485,120.238,115.593,0.0016995,0.071282,20.9802,180.599,0.352099,0.0,0.0
290,72.25,42.8053,44.9236,141.751,120.257,115.63,0.00170698,0.0712787,20.9802,180.629,0.350553,0.0,0.0
292,72.75,42.764,44.6302,140.813,120.243,115.803,0.00172059,0.071276,20.9802,180.629,0.336202,0.0,0.0
294,73.25,41.5212,45.0159,138.29,120.251,115.228,0.00174256,0.0712739,20.9801,180.609,0.381258,0.0,0.0
296,73.75,42.6793,45.1316,140.313,120.241,115.897,0.00177023,0.0712649,20.9801,180.629,0.328839,0.0,0.0
298,74.25,43.0014,45.1238,139.314,120.259,115.837,0.00180231,0.071251,20.9801,180.619,0.334751,0.0,0.0
300,74.75,42.8561,45.0782,136.316,120.249,116.027,0.00183701,0.0712254,20.9801,180.609,0.319378,0.0,0.0
302,75.25,42.5701,45.3237,141.342,120.272,116.221,0.00187221,0.0711916,20.9801,180.619,0.306095,0.0,0.0
304,75.75,42.7219,44.8433,143.976,120.249,115.692,0.00190711,0.0711642,20.9801,180.619,0.345235,0.0,0.0
306,76.25,42.694,44.8139,137.407,120.27,115.675,0.00193538,0.0711282,20.9801,180.609,0.348059,0.0,0.0
308,76.75,42.9159,45.1008,141.843,120.267,116.354,0.00195312,0.0710919,20.9803,180.599,0.295561,0.0,0.0
310,77.25,42.8776,45.1383,141.679,120.267,115.726,0.00196284,0.0710559,20.9807,180.599,0.34393,0.0,0.0
312,77.75,42.6479,45.0959,140.991,120.255,115.986,0.00196168,0.0709834,20.981,180.579,0.322923,0.0,0.0
314,78.25,42.5246,45.1537,142.738,120.274,115.932,0.00195261,0.0708855,20.9813,180.579,0.328547,0.0,0.0
316,78.75,43.1159,45.2872,141.193,120.252,116.143,0.00194527,0.0708063,20.9815,180.589,0.310662,0.0,0.0
318,79.25,42.6841,45.0311,141.956,120.262,115.847,0.00193932,0.0706046,20.9817,180.599,0.334223,0.0,0.0
320,79.75,42.85,44.9134,140.848,120.249,115.477,0.0019222,0.0704412,20.9818,180.579,0.36187,0.0,0.0
322,80.25,42.8978,44.9404,142.128,120.274,116.583,0.00189727,0.0703017,20.9824,180.579,0.278461,0.0,0.0
324,80.75,43.0464,44.7402,140.646,120.268,116.584,0.00187836,0.0701821,20.9828,180.599,0.278024,0.0,0.0
326,81.25,42.3018,45.2903,138.996,120.286,116.303,0.00186421,0.0700853,20.9833,180.589,0.300859,0.0,0.0
328,81.75,42.5282,45.2107,140.806,120.263,116.748,0.00185403,0.0700068,20.9838,180.569,0.265056,0.0,0.0
330,82.25,42.7023,45.0744,140.375,120.283,115.67,0.00184695,0.0698479,20.9846,180.609,0.349431,0.0,0.0
332,82.75,42.3408,44.6321,138.178,120.264,115.808,0.00183799,0.0697191,20.9852,180.599,0.337365,0.0,0.0
334,83.25,42.3257,44.5562,141.839,120.289,116.713,0.0018235,0.0696148,20.9859,180.599,0.269599,0.0,0.0
336,83.75,42.5085,45.1214,140.501,120.262,116.737,0.0018196,0.0694891,20.9861,180.599,0.265808,0.0,0.0
338,84.25,42.5345,44.8373,138.625,120.276,115.201,0.00180134,0.0693873,20.9865,180.579,0.385209,0.0,0.0
340,84.75,42.6743,44.83,139.844,120.257,116.789,0.00177611,0.0691949,20.9867,180.569,0.261531,0.0,0.0
342,85.25,42.6325,45.1353,142.169,120.274,116.693,0.00175245,0.0690102,20.987,180.579,0.270081,0.0,0.0
344,85.75,42.1043,45.1881,135.407,120.264,116.387,0.00173039,0.0688345,20.9876,180.569,0.29283,0.0,0.0
346,86.25,42.7527,44.7807,142.842,120.287,115.264,0.00171252,0.0685737,20.9881,180.569,0.381123,0.0,0.0
348,86.75,42.665,45.0091,140.587,120.257,116.087,0.00169805,0.068467,20.9885,180.579,0.315347,0.0,0.0
350,87.25,43.0805,44.8588,143.094,120.3,115.705,0.00169148,0.0682847,20.9888,180.589,0.347974,0.0,0.0
352,87.75,42.8403,44.9304,138.167,120.267,116.005,0.00169079,0.0680863,20.9891,180.579,0.322408,0.0,0.0
354,88.25,42.8621,45.0694,136.857,120.276,116.026,0.00170493,0.0678802,20.9893,180.609,0.321482,0.0,0.0
356,88.75,42.8531,45.0589,137.896,120.272,115.391,0.00171638,0.0675831,20.9899,180.609,0.370184,0.0,0.0
358,89.25,42.9228,45.2397,141.197,120.275,116.357,0.00172565,0.0672255,20.9904,180.619,0.295866,0.0,0.0
360,89.75,42.8746,45.4171,141,120.262,115.354,0.00173571,0.0667625,20.9913,180.589,0.372269,0.0,0.0
362,90.25,42.6065,45.1509,144.005,120.262,115.429,0.00174385,0.0662315,20.992,180.589,0.366527,0.0,0.0
364,90.75,42.8434,45.0314,140.709,120.27,116.05,0.00175045,0.0656643,20.9925,180.589,0.319164,0.0,0.0
366,91.25,42.4351,45.0169,144.337,120.28,115.305,0.00173253,0.0650815,20.9931,180.579,0.377487,0.0,0.0
368,91.75,42.4466,44.975,139.735,120.265,115.671,0.00171802,0.0646094,20.9937,180.569,0.348048,0.0,0.0
370,92.25,42.2762,44.9317,139.019,120.275,115.5,0.00169525,0.0640618,20.9942,180.549,0.362009,0.0,0.0
372,92.75,42.357,44.9397,138.571,120.252,115.301,0.00167681,0.0636182,20.9946,180.559,0.375628,0.0,0.0
374,93.25,42.6871,45.2996,140.145,120.262,115.76,0.00166432,0.0631652,20.995,180.559,0.340927,0.0,0.0
376,93.75,43.0201,44.751,140.325,120.246,115.407,0.00165421,0.0627139,20.9952,180.549,0.367073,0.0,0.0
378,94.25,42.8521,44.8429,145.344,120.259,115.825,0.00166314,0.0623483,20.9957,180.569,0.335737,0.0,0.0
380,94.75,42.5296,44.8591,138.629,120.254,116.001,0.00167038,0.0620248,20.9962,180.569,0.321745,0.0,0.0
382,95.25,42.5366,44.4521,143.928,120.253,115.694,0.00170686,0.0617628,20.9967,180.549,0.345331,0.0,0.0
384,95.75,42.5792,44.7232,140.052,120.244,115.987,0.00175447,0.0615232,20.9971,180.549,0.322124,0.0,0.0
386,96.25,42.1873,44.743,140.338,120.255,115.305,0.00180929,0.0613291,20.9974,180.539,0.375528,0.0,0.0
388,96.75,42.6617,44.6765,143.259,120.253,116.112,0.0018537,0.0611582,20.9976,180.529,0.313094,0.0,0.0
390,97.25,42.6916,44.4096,139.221,120.248,115.851,0.00190387,0.0610197,20.9978,180.539,0.332818,0.0,0.0
392,97.75,42.2656,44.8315,141.648,120.236,116.154,0.00195729,0.0608802,20.998,180.549,0.308602,0.0,0.0
394,98.25,42.6741,44.628,139.96,120.24,115.396,0.00200443,0.0607672,20.9981,180.539,0.36747,0.0,0.0
396,98.75,42.3968,44.7532,142.211,120.238,115.706,0.00204611,0.0607304,20.9982,180.529,0.343297,0.0,0.0
398,99.25,42.9174,44.7493,143.411,120.245,115.222,0.00207987,0.0607006,20.9983,180.519,0.381263,0.0,0.0
400,99.75,42.8961,45.0054,143.451,120.232,115.948,0.00210844,0.0606902,20.9984,180.529,0.324136,0.0,0.0
402,100.25,42.7028,44.8866,144.052,120.235,115.121,0.00213158,0.0606817,20.9984,180.529,0.38839,0.0,0.0
404,100.75,42.7275,45.1234,144.04,120.243,115.895,0.00214193,0.0606749,20.9985,180.519,0.329105,0.0,0.0
406,101.25,42.8493,44.6204,139.435,120.233,115.409,0.00214237,0.0606693,20.9985,180.519,0.365937,0.0,0.0
408,101.75,42.8736,44.8777,141.713,120.247,115.087,0.00214311,0.0606649,20.9985,180.519,0.391918,0.0,0.0
410,102.25,42.6255,44.7086,143.531,120.237,116.379,0.00214371,0.0606475,20.9986,180.509,0.29139,0.0,0.0
412,102.75,42.6927,45.0561,139.043,120.232,114.901,0.0021209,0.0606335,20.9984,180.499,0.405248,0.0,0.0
414,103.25,42.2912,44.7918,137.112,120.22,114.797,0.00210242,0.0605537,20.9981,180.509,0.412492,0.0,0.0
416,103.75,42.607,44.8029,139.414,120.241,116.058,0.002085,0.060489,20.9979,180.539,0.316359,0.0,0.0
418,104.25,42.5701,45.1176,142.134,120.239,116.219,0.00207089,0.0604614,20.9978,180.519,0.303862,0.0,0.0
420,104.75,42.7679,44.5496,142.04,120.24,115.543,0.00205946,0.0604143,20.9976,180.519,0.356042,0.0,0.0
422,105.25,42.6112,44.9466,138.007,120.231,115.627,0.00205143,0.06034,20.9975,180.519,0.34891,0.0,0.0
424,105.75,42.7397,45.0036,138.295,120.235,115.614,0.00204298,0.0602475,20.9974,180.529,0.35019,0.0,0.0
426,106.25,42.6154,44.2296,136.996,120.228,115.885,0.0020344,0.0601653,20.9973,180.529,0.328731,0.0,0.0
428,106.75,42.8915,44.9357,142.504,120.225,116.59,0.00202423,0.0600923,20.9973,180.529,0.274367,0.0,0.0
430,107.25,42.4418,44.862,141.829,120.221,115.542,0.00201308,0.0600331,20.9972,180.529,0.354709,0.0,0.0
432,107.75,42.2317,44.771,142.29,120.223,115.22,0.00200405,0.0599852,20.9972,180.529,0.379751,0.0,0.0
434,108.25,42.7713,45.0041,139.388,120.222,115.871,0.00198449,0.0599464,20.9976,180.529,0.329401,0.0,0.0
436,108.75,42.6804,45.0542,139.954,120.21,116.018,0.00195574,0.0598465,20.9979,180.529,0.31715,0.0,0.0
438,109.25,43.0788,44.6065,144.093,120.212,116.572,0.00192086,0.0597656,20.9982,180.519,0.274723,0.0,0.0
440,109.75,42.5852,44.3895,140.359,120.207,115.731,0.0018926,0.0597,20.9984,180.519,0.339044,0.0,0.0
442,110.25,42.1406,44.5272,139.769,120.193,115.15,0.00183422,0.0596469,20.9986,180.529,0.382977,0.0,0.0
444,110.75,42.8849,45.1071,138.575,120.215,115.261,0.00178692,0.0595902,20.9987,180.529,0.376041,0.0,0.0
446,111.25,42.9074,44.6682,143.097,120.199,115.648,0.00174862,0.0595443,20.9988,180.519,0.344937,0.0,0.0
448,111.75,42.7782,44.4798,143.599,120.214,115.375,0.00170215,0.0594661,20.9989,180.529,0.367136,0.0,0.0
450,112.25,42.4824,44.6355,138.121,120.193,115.312,0.0016506,0.0594027,20.999,180.509,0.37041,0.0,0.0
452,112.75,42.4388,44.994,140.704,120.201,115.556,0.00161129,0.0593513,20.9991,180.529,0.352193,0.0,0.0
454,113.25,42.3567,45.004,143.142,120.19,115.96,0.00157946,0.0593097,20.9991,180.519,0.32015,0.0,0.0
456,113.75,42.5292,44.8157,143.349,120.192,115.614,0.00156525,0.0592761,20.9992,180.529,0.346999,0.0,0.0
458,114.25,42.7415,44.8155,141.23,120.186,116.13,0.00156417,0.0592214,20.9987,180.509,0.306794,0.0,0.0
460,114.75,42.3165,44.7592,145.097,120.193,115.648,0.00158004,0.0591771,20.9984,180.509,0.344465,0.0,0.0
462,115.25,42.0093,45.1766,143.135,120.164,116.485,0.00160797,0.0591341,20.9981,180.509,0.277911,0.0,0.0
464,115.75,42.2541,44.9521,140.717,120.189,116.127,0.00164348,0.0590927,20.9979,180.499,0.307248,0.0,0.0
466,116.25,43.0246,45.0834,140.11,120.181,115.721,0.00168384,0.059088,20.9982,180.499,0.337914,0.0,0.0
468,116.75,41.7585,44.8921,142.814,120.174,115.932,0.00171654,0.0591101,20.9984,180.479,0.321045,0.0,0.0
470,117.25,41.9712,44.3412,140.832,120.163,116.242,0.00174302,0.0591641,20.9986,180.479,0.296446,0.0,0.0
472,117.75,42.2221,44.7844,138.414,120.167,116.089,0.00176447,0.0592402,20.9987,180.479,0.308452,0.0,0.0
474,118.25,42.4624,44.8604,144.125,120.16,116.217,0.00175994,0.0592803,20.9988,180.509,0.298151,0.0,0.0
476,118.75,42.1512,44.6684,144.96,120.163,115.974,0.00173655,0.0592932,20.9989,180.479,0.317093,0.0,0.0
478,119.25,42.0152,44.5742,141.456,120.149,116.329,0.00169636,0.0592749,20.999,180.479,0.288678,0.0,0.0
480,119.75,41.9701,44.5395,139.601,120.16,116.347,0.0016447,0.0592342,20.9991,180.489,0.288102,0.0,0.0
482,120.25,41.7533,44.2111,143.552,120.137,116.129,0.00160284,0.0592012,20.9991,180.499,0.303137,0.0,0.0
484,120.75,42.0634,44.2077,142.352,120.144,116.494,0.0015383,0.0591607,20.9992,180.479,0.275684,0.0,0.0
486,121.25,42.6968,45.0186,138.502,120.133,116.542,0.00148603,0.059128,20.9992,180.489,0.271126,0.0,0.0
488,121.75,42.3478,44.7979,140.949,120.137,115.669,0.00144047,0.0591015,20.9992,180.489,0.338643,0.0,0.0
490,122.25,42.4892,44.856,137.513,120.123,116.202,0.00140068,0.059121,20.999,180.479,0.2965,0.0,0.0
492,122.75,42.9223,44.8744,140.01,120.119,115.294,0.00137487,0.0591369,20.9988,180.479,0.366327,0.0,0.0
494,123.25,42.3966,44.2976,139.315,120.106,115.196,0.00135975,0.0591497,20.9986,180.459,0.372917,0.0,0.0
496,123.75,42.023,44.809,135.387,120.111,115.724,0.00136166,0.0591601,20.9984,180.479,0.332418,0.0,0.0
498,124.25,41.8902,44.2395,141.365,120.099,115.922,0.00137593,0.0591618,20.9983,180.489,0.31629,0.0,0.0
500,124.75,42.0615,44.0856,139.838,120.117,116.217,0.0013875,0.0591569,20.9982,180.459,0.294925,0.0,0.0
502,125.25,42.483,44.7519,140.995,120.093,115.801,0.00139686,0.059153,20.9982,180.459,0.325195,0.0,0.0
504,125.75,42.1934,44.9094,138.429,120.106,115.668,0.00142698,0.0591499,20.9981,180.469,0.336435,0.0,0.0
506,126.25,42.4854,44.7898,138.011,120.074,116.214,0.00147165,0.0591473,20.998,180.469,0.29197,0.0,0.0
508,126.75,42.6029,44.6431,142.47,120.094,115.728,0.00151428,0.0591589,20.998,180.459,0.330909,0.0,0.0
510,127.25,42.5815,44.9526,142.415,120.058,115.866,0.00155461,0.0591683,20.9979,180.479,0.31754,0.0,0.0
512,127.75,41.8141,44.7267,140.778,120.083,115.844,0.00158727,0.059176,20.9979,180.479,0.321157,0.0,0.0
514,128.25,41.6759,44.2764,138.927,120.059,114.805,0.00161496,0.0591533,20.9981,180.479,0.399821,0.0,0.0
516,128.75,41.8524,44.4436,141.338,120.073,115.539,0.00163738,0.0591091,20.9984,180.449,0.343964,0.0,0.0
518,129.25,42.3921,44.7575,142.821,120.043,116.909,0.00164942,0.0590732,20.9985,180.459,0.236399,0.0,0.0
520,129.75,42.0547,45.0275,143.291,120.046,116.107,0.00165209,0.0590989,20.9983,180.459,0.298123,0.0,0.0
522,130.25,41.9337,44.6642,139.507,120.028,115.114,0.00164787,0.0591197,20.9986,180.449,0.373499,0.0,0.0
524,130.75,42.1693,44.263,137.653,120.029,115.622,0.00164446,0.0591366,20.9989,180.459,0.334258,0.0,0.0
526,131.25,42.3195,44.9847,139.557,120.009,116.895,0.00162212,0.0591502,20.9991,180.469,0.234911,0.0,0.0
528,131.75,42.0244,45.0641,138.774,120.001,116.407,0.00160403,0.0591202,20.9993,180.439,0.271686,0.0,0.0
530,132.25,42.1385,44.7106,141.527,119.993,115.658,0.00158937,0.0590959,20.9994,180.459,0.328808,0.0,0.0
532,132.75,42.5502,44.4035,139.961,119.993,116.357,0.00156854,0.0590899,20.9995,180.459,0.274914,0.0,0.0
534,133.25,42.9119,44.4842,139.701,119.984,115.414,0.0015436,0.0590851,20.9994,180.479,0.346978,0.0,0.0
536,133.75,42.5948,44.7981,142.251,119.971,116.348,,0.0591085,,180.479,0.274063,0.0,0.0
538,134.25,42.8306,45.0321,140.659,119.941,115.789,,0.0591275,,180.449,0.314782,0.0,0.0
540,134.75,42.1259,45.0645,142.688,119.946,115.936,,0.0591429,,180.449,0.303834,0.0,0.0
542,135.25,42.0818,44.5265,138.195,119.943,115.012,,0.059182,,180.459,0.375123,0.0,0.0
544,135.75,42.42,44.9738,138.149,119.931,115.725,,0.0592136,,180.459,0.318987,0.0,0.0
546,136.25,42.4325,44.5664,140.994,119.926,115.778,,0.0592104,,180.439,0.314487,0.0,0.0
548,136.75,42.2586,44.6925,140.26,119.927,116.027,,,,180.439,0.295409,0.0,0.0
550,137.25,42.306,44.5246,139.233,119.89,116.062,,,,180.459,0.28993,0.0,0.0
552,137.75,42.2685,44.6475,140.033,119.888,115.5,,,,180.459,0.333179,0.0,0.0
554,138.25,42.4366,44.4399,136.148,119.878,115.761,,,,180.469,0.312266,0.0,0.0
556,138.75,42.4023,45.0763,143.963,119.854,115.35,,,,180.459,0.342263,0.0,0.0
558,139.25,41.7846,44.9005,142.19,119.851,115.296,,,,180.449,0.346207,0.0,0.0
560,139.75,42.1219,44.5872,138.997,119.84,115.303,,,,180.459,0.344817,0.0,0.0
562,140.25,42.0662,44.9737,141.184,119.821,116.023,,,,180.469,0.287763,0.0,0.0
564,140.75,42.7801,44.1419,140.655,119.817,115.81,,,,180.479,0.303941,0.0,0.0
566,141.25,42.4097,44.6876,141.695,119.816,115.551,,,,180.469,0.323882,0.0,0.0
568,141.75,42.0801,44.5278,141.814,119.785,116.428,,,,180.459,0.253987,0.0,0.0
570,142.25,42.6793,44.8662,141.387,119.791,115.769,,,,180.449,0.30517,0.0,0.0
572,142.75,42.3519,44.6951,139.716,119.766,115.309,,,,180.459,0.338856,0.0,0.0
574,143.25,42.0157,44.5629,139.557,119.767,114.534,,,,180.459,0.399214,0.0,0.0
576,143.75,42.4289,44.4397,142.865,119.748,115.613,,,,180.479,0.314051,0.0,0.0
578,144.25,42.3348,44.5876,139.974,119.734,115.371,,,,180.469,0.3317,0.0,0.0
579,144.5,42.2096,44.4181,137.547,119.728,116.072,,,,180.439,0.277115,0.0,0.0