File: 01_Data/Tyvek_Wrap/Cone/Tyvek_Cone_HF75Scan_220308_R1.csv
Names,Time,Stack TC,Smoke TC,Exh Press,Smoke Comp,Smoke Meas,CO Meter,CO2 Meter,O2 Meter,Sample Mass,Ext Coeff,Start Test,Flame Verif
Chan Gain,,500,500,1,1,1,1,1,1,1,1,1.0,1.0
Offset,,0,0,0.134161,0,0,0,0,0,0,0,0.0,0.0
Gain,,1,1,25.011,15.9695,16.7489,1,1,1,1.00099,1.01863,1.0,1.0
Units,sec,C,C,Pa,%,%,%,%,%,g,/m,,
Baseline,,39.1041,41.2164,144.295,120.134,116.603,0.00100108,0.0603572,20.9974,-836.097,0.266605,,
2,0.25,38.9368,41.2827,145.437,119.159,115.106,0.00102943,0.0672638,20.9875,176.345,0.309248,0.0,0.0
4,0.75,38.7902,41.2348,143.587,119.138,115.748,0.00104351,0.0672672,20.9876,176.475,0.257906,0.0,0.0
6,1.25,38.4764,40.8691,145.069,119.163,116.643,0.00105492,0.0672339,20.9879,176.355,0.191018,0.0,0.0
8,1.75,39.0105,40.9762,144.399,119.139,115.689,0.00106781,0.0671744,20.9882,176.465,0.262554,0.0,0.0
10,2.25,38.9292,40.3452,141.92,119.161,116.438,0.00107826,0.0671262,20.9884,176.465,0.206586,0.0,0.0
12,2.75,38.9389,40.5649,148.397,119.147,116.436,0.00109771,0.0669499,20.9885,176.465,0.205684,0.0,0.0
14,3.25,38.5564,40.3661,144.342,119.167,115.374,0.00111346,0.066807,20.9886,176.515,0.289028,0.0,0.0
16,3.75,38.9044,40.4291,144.841,119.154,114.784,0.00115064,0.0665975,20.9887,176.455,0.333801,0.0,0.0
18,4.25,38.6581,40.7581,143.739,119.164,115.364,0.00118076,0.0663432,20.9888,176.515,0.289598,0.0,0.0
20,4.75,38.9391,40.5025,142.576,119.164,114.91,0.00122638,0.0661372,20.9889,176.505,0.324823,0.0,0.0
22,5.25,38.4654,40.8219,149.15,119.177,114.079,0.00128245,0.0658469,20.989,176.515,0.390675,0.0,0.0
24,5.75,38.273,40.6671,144.582,119.175,114.421,0.00132785,0.0656118,20.989,176.515,0.363748,0.0,0.0
26,6.25,38.2627,40.6911,143.958,119.17,112.689,0.00143196,0.0653253,20.989,176.465,0.499647,0.0,0.0
28,6.75,39.0632,40.4254,144.7,119.175,112.406,0.00151628,0.0650933,20.9891,176.465,0.522494,0.0,0.0
30,7.25,38.3598,41.0991,140.409,119.188,113.198,0.00161168,0.0648504,20.9891,176.445,0.460727,0.0,0.0
32,7.75,39.1996,40.5661,144.308,119.171,114.067,0.00171335,0.0646538,20.9887,176.465,0.391116,0.0,0.0
34,8.25,39.0459,41.361,144.075,119.187,113.081,0.00181185,0.0644656,20.9883,176.465,0.469934,0.0,0.0
36,8.75,38.3367,40.8186,139.836,119.173,111.547,0.00190617,0.0642872,20.988,176.445,0.590871,0.0,0.0
38,9.25,38.77,40.8534,140.497,119.193,112.663,0.00198774,0.0641427,20.9878,176.455,0.503433,0.0,0.0
40,9.75,38.8171,41.1476,144.317,119.198,111.297,0.00205846,0.06417,20.9868,176.425,0.612818,0.0,0.0
42,10.25,38.5238,40.9352,143.156,119.206,111.11,0.00211251,0.0643221,20.9859,176.435,0.628393,0.0,0.0
44,10.75,38.4159,40.9154,139.684,119.195,111.629,0.00215339,0.0648572,20.9839,176.405,0.585966,0.0,0.0
46,11.25,38.7308,40.7518,145.369,119.202,114.043,0.0021865,0.0656613,20.9822,176.435,0.395301,0.0,0.0
48,11.75,39.1944,40.5981,141.17,119.211,114.795,0.00219122,0.066921,20.98,176.445,0.337281,0.0,0.0
50,12.25,39.3285,40.607,141.978,119.219,113.465,0.00219505,0.0684888,20.9773,176.445,0.442024,0.0,1.0
52,12.75,38.3546,40.9451,142.326,119.205,113.291,0.00219814,0.0704559,20.9752,176.445,0.454626,0.0,1.0
54,13.25,38.5175,40.993,136.095,119.225,114.326,0.00218102,0.0726767,20.9722,176.425,0.374859,0.0,1.0
56,13.75,39.1677,40.7815,143.399,119.233,113.308,0.00216715,0.0752551,20.9688,176.405,0.455417,0.0,1.0
58,14.25,39.1701,40.9015,139.414,119.229,114.506,0.00215592,0.0780452,20.9661,176.385,0.3611,0.0,1.0
60,14.75,38.7857,40.9822,141.583,119.237,114.449,0.00214682,0.0803052,20.9612,176.365,0.366226,0.0,1.0
62,15.25,39.2728,41.2972,142.833,119.231,113.377,0.0021472,0.0836298,20.9573,176.405,0.449828,0.0,1.0
64,15.75,39.5164,40.8215,133.937,119.236,112.066,0.00215448,0.0876674,20.9501,176.385,0.554158,0.0,1.0
66,16.25,39.3346,41.106,141.563,119.243,112.522,0.00216619,0.0909378,20.9443,176.435,0.518431,0.0,1.0
68,16.75,38.865,41.0852,134.532,119.253,111.128,0.00218091,0.0954623,20.9325,176.335,0.630498,0.0,1.0
70,17.25,39.0814,40.973,139.645,119.253,111.408,0.00220058,0.100815,20.923,176.375,0.608005,0.0,1.0
72,17.75,38.9909,40.9213,138.846,119.266,110.78,0.0022235,0.105151,20.9095,176.365,0.659515,0.0,1.0
74,18.25,38.9916,41.0315,139.585,119.254,109.715,0.00224206,0.112175,20.8986,176.335,0.7449,0.0,1.0
76,18.75,38.2465,41.3592,138.42,119.267,109.694,0.00227797,0.117865,20.8898,176.345,0.747593,0.0,0.0
78,19.25,38.8807,41.6,136.467,119.269,109.186,0.00230707,0.124873,20.8803,176.335,0.789216,0.0,0.0
80,19.75,39.2508,41.5662,137.694,119.281,109.771,0.00233063,0.13055,20.8706,176.325,0.742409,0.0,0.0
82,20.25,39.1505,42.0447,137.556,119.28,108.508,0.0023756,0.136628,20.8626,176.285,0.845779,0.0,0.0
84,20.75,39.644,41.7727,140.176,119.286,107.976,0.00243532,0.141551,20.857,176.295,0.89014,0.0,0.0
86,21.25,39.5207,41.7716,137.704,119.276,109.343,0.00248369,0.145754,20.8524,176.265,0.776895,0.0,0.0
88,21.75,39.9514,41.7582,140.23,119.299,109.183,0.00252288,0.149159,20.8487,176.255,0.791735,0.0,0.0
90,22.25,39.7343,41.6674,137.769,119.291,110.302,0.00255462,0.151917,20.8457,176.295,0.699973,0.0,0.0
92,22.75,39.9127,41.8486,140.062,119.328,112.265,0.00256544,0.153168,20.8432,176.245,0.545181,0.0,0.0
94,23.25,39.9431,42.7596,142.753,119.304,110.706,0.0025608,0.153297,20.8426,176.255,0.668385,0.0,0.0
96,23.75,40.418,42.804,138.514,119.327,111.988,0.00254217,0.153401,20.8421,176.255,0.567149,0.0,0.0
98,24.25,40.559,43.1199,141.541,119.32,112.14,0.0025137,0.151386,20.8469,176.245,0.554493,0.0,0.0
100,24.75,40.605,42.5818,135.653,119.334,112.483,0.00247383,0.149754,20.8509,176.245,0.528302,0.0,0.0
102,25.25,40.6804,43.0539,141.546,119.328,114.089,0.00242641,0.147281,20.8559,176.235,0.401157,0.0,0.0
104,25.75,41.0998,43.2423,137.647,119.34,114.252,0.002388,0.144243,20.8617,176.225,0.389308,0.0,0.0
106,26.25,40.4486,42.8606,138.656,119.342,112.97,0.00231029,0.14098,20.868,176.225,0.490274,0.0,0.0
108,26.75,40.6177,42.9848,142.507,119.358,113.746,0.00224733,0.137613,20.8745,176.235,0.430322,0.0,0.0
110,27.25,41.0125,43.4255,140.045,119.354,113.795,0.00219634,0.134191,20.8799,176.225,0.426172,0.0,0.0
112,27.75,41.0369,42.6728,139.171,119.366,114.209,0.00209747,0.130792,20.8864,176.215,0.3946,0.0,0.0
114,28.25,41.0765,43.3854,139.897,119.366,114.769,0.00201739,0.12804,20.8916,176.215,0.350955,0.0,0.0
116,28.75,41.8042,43.7688,139.965,119.379,114.408,0.00191338,0.124408,20.8969,176.205,0.380043,0.0,0.0
118,29.25,41.2603,43.4871,141.289,119.385,115.318,0.00182913,0.121467,20.9019,176.215,0.309704,0.0,0.0
120,29.75,41.5116,43.4959,142.622,119.388,114.959,0.00173278,0.118503,20.9067,176.205,0.337769,0.0,0.0
122,30.25,40.9564,43.2174,139.656,119.366,114.807,0.00165473,0.11558,20.9112,176.185,0.347895,0.0,0.0
124,30.75,41.0759,43.5029,142.22,119.392,114.947,0.00158663,0.113212,20.9158,176.185,0.339048,0.0,0.0
126,31.25,41.3759,43.6857,137.282,119.383,115.724,0.00153147,0.110527,20.9203,176.175,0.278163,0.0,0.0
128,31.75,41.1897,43.6766,139.307,119.41,115.49,0.00149289,0.108353,20.9242,176.185,0.298223,0.0,0.0
130,32.25,41.2692,43.9682,143.881,119.39,115.447,0.00146165,0.106048,20.9276,176.185,0.300088,0.0,0.0
132,32.75,41.0806,43.3984,142.789,119.428,114.998,0.00144663,0.104182,20.9306,176.165,0.337814,0.0,0.0
134,33.25,41.5231,43.7687,139.036,119.408,115.26,0.00144373,0.102225,20.9332,176.155,0.315931,0.0,0.0
136,33.75,41.6928,43.8178,141.461,119.424,116.223,0.00144138,0.100641,20.9353,176.155,0.242791,0.0,0.0
138,34.25,41.6862,43.749,146.744,119.433,115.117,0.00147974,0.0990099,20.9373,176.155,0.32889,0.0,0.0
140,34.75,41.2654,43.6125,143.696,119.428,115.685,0.00151081,0.0976889,20.9393,176.165,0.284519,0.0,0.0
142,35.25,41.6933,43.8704,143.602,119.43,115.444,0.00154306,0.0963553,20.9408,176.155,0.303315,0.0,0.0
144,35.75,41.3666,44.2258,142.22,119.441,115.696,0.00157557,0.095275,20.9426,176.155,0.284635,0.0,0.0
146,36.25,41.5631,43.5414,144.392,119.431,115.543,0.0016019,0.0944,20.9439,176.145,0.295757,0.0,0.0
148,36.75,41.5622,43.5064,139.649,119.452,115.137,0.001622,0.0933317,20.9451,176.135,0.328804,0.0,0.0
150,37.25,41.6922,44.0445,137.146,119.441,115.202,0.00163828,0.0924663,20.946,176.135,0.322893,0.0,0.0
152,37.75,41.3446,43.7689,144.792,119.466,116.065,0.00163066,0.0916778,20.9472,176.145,0.258001,0.0,0.0
154,38.25,41.4433,43.808,143.412,119.45,116.475,0.00162742,0.0909604,20.9479,176.145,0.225332,0.0,0.0
156,38.75,41.5057,44.0454,142.474,119.466,115.009,0.00159985,0.0903793,20.9492,176.145,0.339783,0.0,0.0
158,39.25,41.637,44.1735,138.953,119.45,114.943,0.00157752,0.0897839,20.9502,176.145,0.343665,0.0,0.0
160,39.75,41.7206,43.8012,140.415,119.463,115.272,0.00154657,0.0893016,20.951,176.115,0.31914,0.0,0.0
162,40.25,41.4719,43.9568,147.51,119.467,116.187,0.00150992,0.088814,20.9517,176.135,0.248789,0.0,0.0
164,40.75,41.4442,43.7435,143.2,119.473,115.6,0.00148023,0.0884191,20.9522,176.145,0.294429,0.0,0.0
166,41.25,41.3315,44.0127,140.8,119.47,115.753,0.00139716,0.0881706,20.9533,176.165,0.282441,0.0,0.0
168,41.75,41.1757,44.105,141.95,119.495,116.207,0.00137481,0.0877456,20.9536,176.125,0.249292,0.0,0.0
170,42.25,41.6412,43.9579,139.156,119.473,115.376,0.0012942,0.0872994,20.9545,176.115,0.311786,0.0,0.0
172,42.75,41.7383,44.1588,140.226,119.494,115.807,0.00127251,0.0868462,20.9549,176.125,0.280048,0.0,0.0
174,43.25,41.8658,43.8793,141.814,119.47,115.851,0.00123543,0.0864792,20.9557,176.135,0.274908,0.0,0.0
176,43.75,41.802,44.2446,139.868,119.5,116.068,0.00120732,0.0859882,20.9564,176.135,0.260353,0.0,0.0
178,44.25,41.3988,43.7828,142.874,119.484,116.277,0.00118629,0.0854209,20.9567,176.145,0.24311,0.0,0.0
180,44.75,41.6592,43.9537,142.464,119.512,115.924,0.00118081,0.0851955,20.957,176.155,0.272407,0.0,0.0
182,45.25,41.438,44.2599,140.194,119.498,115.64,0.00118678,0.0846459,20.9573,176.155,0.293282,0.0,0.0
184,45.75,41.7222,43.877,142.019,119.502,115.861,0.00119162,0.084498,20.9575,176.145,0.276488,0.0,0.0
186,46.25,41.4921,44.2367,138.456,119.499,115.139,0.00122241,0.0841724,20.9578,176.115,0.332105,0.0,0.0
188,46.75,41.9735,43.7032,142.174,119.504,114.779,0.00124735,0.0838432,20.9584,176.115,0.360478,0.0,0.0
190,47.25,41.8747,43.8421,141.427,119.509,114.926,0.00127977,0.0835474,20.9588,176.105,0.34943,0.0,0.0
192,47.75,41.818,44.0453,142.364,119.503,115.095,0.00130603,0.0832817,20.9591,176.125,0.335772,0.0,0.0
194,48.25,41.5885,44.2765,139.219,119.514,114.974,0.0013273,0.0830664,20.9594,176.115,0.346019,0.0,0.0
196,48.75,41.7892,43.8592,140.658,119.538,115.613,0.00135309,0.0826986,20.9601,176.115,0.298326,0.0,0.0
198,49.25,42.0611,43.6808,143.697,119.523,115.651,0.00137398,0.0824007,20.9611,176.105,0.294232,0.0,0.0
200,49.75,41.6308,44.1346,141.559,119.522,115.176,0.00138356,0.0819661,20.9619,176.085,0.330962,0.0,0.0
202,50.25,41.4061,44.3661,142.745,119.527,115.22,0.00139133,0.081614,20.9625,176.085,0.327877,0.0,0.0
204,50.75,41.7111,44.2578,144.715,119.531,115.259,0.00138417,0.0812126,20.963,176.065,0.325232,0.0,0.0
206,51.25,41.8309,44.3224,146.269,119.536,115.752,0.00137838,0.0807829,20.9639,176.065,0.28744,0.0,0.0
208,51.75,41.9249,43.8002,145.782,119.555,115.312,0.00135658,0.0804348,20.965,176.065,0.322861,0.0,0.0
210,52.25,41.245,44.4592,141.277,119.557,115.449,0.00133893,0.0799183,20.9664,176.065,0.312434,0.0,0.0
212,52.75,42.0225,43.7269,141.459,119.562,115.218,0.00131486,0.0794999,20.9675,176.055,0.330658,0.0,0.0
214,53.25,41.8568,44.0795,142.677,119.557,115.936,0.00129536,0.078968,20.9684,176.045,0.274777,0.0,0.0
216,53.75,42.0252,43.8202,145.616,119.576,115.936,0.00128323,0.0785371,20.9691,176.055,0.276272,0.0,0.0
218,54.25,41.5939,44.1007,143.509,119.586,116.044,0.00127341,0.0780576,20.9702,176.055,0.268653,0.0,0.0
220,54.75,41.6675,44.0243,143.148,119.579,115.601,0.00126545,0.0775516,20.971,176.055,0.302256,0.0,0.0
222,55.25,41.5648,44.1208,142.677,119.582,116.126,0.00128231,0.0770838,20.9719,176.055,0.262064,0.0,0.0
224,55.75,41.1925,44.444,140.713,119.586,115.659,0.00129596,0.0766526,20.9728,176.075,0.298378,0.0,0.0
226,56.25,41.5255,44.3012,142.023,119.589,114.908,0.00131924,0.0762671,20.9736,176.055,0.35683,0.0,0.0
228,56.75,42.1318,43.5494,141.318,119.585,115.844,0.0013381,0.0759223,20.9741,176.045,0.284019,0.0,0.0
230,57.25,41.4889,43.6969,142.261,119.608,115.362,0.00135401,0.0756429,20.9744,176.075,0.322989,0.0,0.0
232,57.75,41.1007,43.8292,142.754,119.599,115.763,0.00136749,0.0753194,20.9747,176.055,0.29127,0.0,0.0
234,58.25,41.8139,44.0517,140.899,119.623,115.66,0.0013784,0.0750574,20.975,176.035,0.301027,0.0,0.0
236,58.75,41.328,44.3135,138.398,119.61,115.566,0.00138724,0.0747727,20.9756,176.035,0.307312,0.0,0.0
238,59.25,41.8836,43.802,138.127,119.623,116.191,0.00139826,0.0744769,20.9761,176.055,0.260128,0.0,0.0
240,59.75,42.2151,43.4382,141.528,119.617,116.574,0.00141066,0.074172,20.9765,176.065,0.230263,0.0,0.0
242,60.25,41.4863,43.5851,147.624,119.635,115.854,0.00142392,0.0738665,20.9769,176.045,0.286908,0.0,0.0
244,60.75,41.1776,44.3579,141.708,119.623,115.184,0.00143756,0.0735755,20.9771,176.045,0.337905,0.0,0.0
246,61.25,41.4968,43.9156,142.789,119.636,115.249,0.0014486,0.0733007,20.9774,176.045,0.333854,0.0,0.0
248,61.75,40.9081,44.1685,139.959,119.633,115.587,0.00145112,0.0730274,20.9775,176.045,0.3074,0.0,0.0
250,62.25,41.5942,44.4247,141.339,119.648,115.848,0.00144736,0.0727605,20.9777,176.035,0.2884,0.0,0.0
252,62.75,41.7584,43.9369,142.287,119.652,115.839,0.00143274,0.0725153,20.9778,176.045,0.289324,0.0,0.0
254,63.25,41.6127,43.7767,142.49,119.654,116.28,0.00141048,0.0722906,20.9779,176.045,0.255548,0.0,0.0
256,63.75,41.0259,44.64,143.183,119.658,114.936,0.00139245,0.0721086,20.978,176.035,0.359702,0.0,0.0
258,64.25,41.2269,43.9915,142.027,119.65,115.351,0.00134488,0.0720162,20.978,176.035,0.326911,0.0,0.0
260,64.75,42.1786,43.6022,141.241,119.648,115.788,0.00130635,0.0719414,20.9781,176.065,0.293016,0.0,0.0
262,65.25,41.8783,43.6686,140.239,119.667,116.111,0.00123976,0.0718808,20.9781,176.025,0.269538,0.0,0.0
264,65.75,41.4937,44.1041,144.676,119.652,115.505,0.00118582,0.071928,20.9782,176.025,0.315223,0.0,0.0
266,66.25,42.0383,43.7546,135.403,119.675,116.523,0.00114213,0.0719662,20.9782,176.025,0.238474,0.0,0.0
268,66.75,41.7991,43.9404,140.332,119.663,116.506,0.00110097,0.0720109,20.9782,176.015,0.238894,0.0,0.0
270,67.25,41.4663,43.923,141.834,119.684,115.879,0.00106243,0.0720472,20.9785,176.015,0.288691,0.0,0.0
272,67.75,41.6703,43.8697,145.345,119.667,115.843,0.00103121,0.0720837,20.9788,176.005,0.290252,0.0,0.0
274,68.25,41.3765,43.5997,143.757,119.681,115.493,0.00102421,0.0721199,20.979,175.995,0.318316,0.0,0.0
276,68.75,41.0344,44.0598,137.874,119.663,115.54,0.00101855,0.0721492,20.9791,176.005,0.313296,0.0,0.0
278,69.25,41.5202,43.8713,142.973,119.695,116.6,0.00101396,0.0721802,20.9793,176.015,0.234091,0.0,0.0
280,69.75,41.5218,44.1684,146.298,119.679,116.233,0.00103342,0.0722118,20.9794,176.035,0.261055,0.0,0.0
282,70.25,41.5053,44.0703,139.811,119.689,115.573,0.00104918,0.0722374,20.9795,176.025,0.312695,0.0,0.0
284,70.75,41.0408,44.3862,140.343,119.676,114.777,0.00107537,0.072148,20.9795,176.015,0.373451,0.0,0.0
286,71.25,41.4797,44.1442,141.729,119.687,115.494,0.00109659,0.0720756,20.9796,176.015,0.318636,0.0,0.0
288,71.75,41.5707,43.705,145.544,119.677,116.085,0.00113209,0.0719808,20.9799,176.005,0.272276,0.0,0.0
290,72.25,41.5513,43.638,140.792,119.695,116.664,0.00116085,0.0718714,20.9803,175.995,0.229193,0.0,0.0
292,72.75,41.3655,44.1015,144.773,119.691,115.725,0.00120369,0.0717828,20.9807,175.995,0.301068,0.0,0.0
294,73.25,41.3827,43.8604,141.413,119.699,116.304,0.00123839,0.0716148,20.9809,175.995,0.257087,0.0,0.0
296,73.75,41.5674,44.0788,147.276,119.683,116.037,0.00129095,0.0714787,20.9812,175.995,0.276445,0.0,0.0
298,74.25,41.1193,44.0623,142.219,119.703,115.488,0.00133352,0.0712722,20.9814,175.985,0.320309,0.0,0.0
300,74.75,41.8112,43.813,145.339,119.691,115.653,0.00139491,0.0711049,20.9815,175.985,0.306638,0.0,0.0
302,75.25,41.5383,43.9771,140.968,119.703,115.654,0.00144464,0.0709144,20.9821,175.985,0.307469,0.0,0.0
304,75.75,41.6433,43.8413,141.693,119.697,116.516,0.00148492,0.0707601,20.9825,175.995,0.240663,0.0,0.0
306,76.25,41.3559,43.7445,140.459,119.717,115.567,0.00154938,0.0705664,20.9829,175.985,0.315315,0.0,0.0
308,76.75,41.4149,44.2192,145.979,119.692,115.503,0.00160159,0.0704095,20.9832,175.995,0.318325,0.0,0.0
310,77.25,41.5122,43.8827,142.33,119.701,116.767,0.00165033,0.0702318,20.9834,175.985,0.221761,0.0,0.0
312,77.75,41.5799,43.7334,140.281,119.685,115.876,0.00169562,0.0700422,20.9836,176.005,0.289037,0.0,0.0
314,78.25,41.1924,44.0684,145.85,119.695,115.929,0.00173165,0.0698887,20.9838,176.005,0.285629,0.0,0.0
316,78.75,41.3807,43.94,144.044,119.685,115.381,0.00176025,0.0696407,20.9842,175.985,0.327271,0.0,0.0
318,79.25,41.1301,43.8221,144.604,119.696,115.243,0.00178214,0.0694398,20.9847,175.985,0.338726,0.0,0.0
320,79.75,41.623,43.7023,145.341,119.682,115.331,0.0017987,0.0692337,20.9851,175.985,0.330893,0.0,0.0
322,80.25,41.367,43.9056,145.846,119.703,116.287,0.00181083,0.0690277,20.9854,175.995,0.25871,0.0,0.0
324,80.75,41.5669,43.8913,141.874,119.678,115.836,0.00181949,0.0688608,20.9857,175.995,0.291526,0.0,0.0
326,81.25,41.1789,44.0728,145.469,119.694,115.659,0.00182264,0.0688081,20.9859,175.985,0.306458,0.0,0.0
328,81.75,41.5143,43.8046,141.835,119.677,115.901,0.00182171,0.0687654,20.9861,175.985,0.286451,0.0,0.0
330,82.25,41.7534,43.2933,143.428,119.693,115.206,0.00182095,0.0687445,20.9862,175.975,0.341402,0.0,0.0
332,82.75,41.3515,43.8946,141.944,119.685,115.521,0.00181325,0.0687276,20.9863,175.975,0.316472,0.0,0.0
334,83.25,41.6858,43.3997,140.521,119.693,115.365,0.00180063,0.0686727,20.9864,175.965,0.329045,0.0,0.0
336,83.75,41.1794,44.1015,148.036,119.683,115.399,0.00178848,0.0686283,20.9865,175.975,0.325704,0.0,0.0
338,84.25,41.8889,43.2415,142.961,119.697,116.414,0.0017769,0.0684961,20.9865,175.965,0.248502,0.0,0.0
340,84.75,41.7784,43.9495,143.786,119.676,115.977,0.00176622,0.068389,20.9866,175.965,0.280505,0.0,0.0
342,85.25,41.5792,44.0907,143.404,119.698,115.755,0.00175642,0.0683023,20.9866,175.975,0.299329,0.0,0.0
344,85.75,40.73,43.5274,144.546,119.683,116.369,0.00174848,0.068232,20.9867,175.965,0.250937,0.0,0.0
346,86.25,40.8802,43.4605,143.973,119.69,116.377,0.00173461,0.0681751,20.9867,175.975,0.250821,0.0,0.0
348,86.75,40.6857,43.5589,140.629,119.681,115.786,0.00172337,0.0681428,20.9867,175.965,0.295645,0.0,0.0
350,87.25,40.8951,43.3328,142.226,119.673,115.622,0.00170326,0.0681166,20.9868,175.955,0.307737,0.0,0.0
352,87.75,40.5029,43.2014,143.057,119.678,115.934,0.00168697,0.0679718,20.987,175.955,0.284038,0.0,0.0
354,88.25,40.8435,43.5975,139.278,119.687,116.001,0.00167055,0.0678544,20.9871,175.955,0.279492,0.0,0.0
356,88.75,41.0853,43.4216,140.964,119.667,116.535,0.00165436,0.067677,20.9872,175.945,0.236953,0.0,0.0
358,89.25,40.4573,42.9089,145.711,119.675,115.917,0.00164124,0.0675333,20.9877,175.955,0.285044,0.0,0.0
360,89.75,40.1666,43.5132,142.219,119.691,115.837,0.00163565,0.0673216,20.988,175.965,0.292469,0.0,0.0
362,90.25,40.9708,43.1485,140.149,119.676,115.609,0.00162029,0.0671501,20.9884,175.965,0.308906,0.0,0.0
364,90.75,40.6287,43.0283,139.52,119.665,116.404,0.00160264,0.0669426,20.9887,175.955,0.246886,0.0,0.0
366,91.25,40.5977,43.388,142.767,119.663,116.269,0.00158126,0.0667745,20.989,175.935,0.257065,0.0,0.0
368,91.75,40.6775,43.6398,143.605,119.662,117.006,0.00155757,0.0666383,20.9892,175.945,0.200528,0.0,0.0
370,92.25,41.192,42.9193,141.087,119.663,116.102,0.00152681,0.066528,20.9894,175.935,0.269994,0.0,0.0
372,92.75,40.8927,43.2828,141.284,119.665,115.258,0.00149147,0.0664593,20.9895,175.955,0.335288,0.0,0.0
374,93.25,40.7821,43.3952,141.647,119.661,116.242,0.0014577,0.0663419,20.9896,175.945,0.259002,0.0,0.0
376,93.75,40.4893,43.0392,141.794,119.666,116.722,0.00142572,0.0662684,20.9897,175.925,0.222587,0.0,0.0
378,94.25,40.2424,42.6301,140.873,119.65,115.41,0.00140624,0.0662284,20.9898,175.925,0.322399,0.0,0.0
380,94.75,40.0812,42.5359,144.93,119.657,115.613,0.00139625,0.0662032,20.9903,175.945,0.307212,0.0,0.0
382,95.25,40.6903,43.2101,142.206,119.651,115.994,0.00138816,0.0661893,20.9907,175.945,0.277351,0.0,0.0
384,95.75,40.4523,43.0274,141.064,119.655,116.252,0.00140605,0.0661419,20.991,175.955,0.257782,0.0,0.0
386,96.25,40.4605,43.2139,139.275,119.643,116.254,0.00142055,0.066071,20.9913,175.945,0.256788,0.0,0.0
388,96.75,40.6449,43.037,142.158,119.647,115.217,0.00143228,0.0659342,20.9915,175.935,0.337112,0.0,0.0
390,97.25,40.7297,42.9613,144.959,119.624,116.744,0.00147115,0.0657519,20.9917,175.935,0.217775,0.0,0.0
392,97.75,40.6383,43.3914,138.653,119.635,114.867,0.00150263,0.0656042,20.9918,175.935,0.363396,0.0,0.0
394,98.25,40.6146,43.3884,143.673,119.629,114.918,0.00152684,0.0652925,20.992,175.935,0.359022,0.0,0.0
396,98.75,40.8374,42.996,142.046,119.634,114.722,0.00154529,0.06504,20.9921,175.925,0.374623,0.0,0.0
398,99.25,40.8509,43.4803,144.539,119.628,115.707,0.00154994,0.0647273,20.9926,175.935,0.297798,0.0,0.0
400,99.75,40.3901,42.9759,144.005,119.616,115.811,0.00154443,0.0643765,20.993,175.935,0.2888,0.0,0.0
402,100.25,40.9963,42.7655,142.59,119.612,115.611,0.00153997,0.0640924,20.9938,175.945,0.304017,0.0,0.0
404,100.75,40.8932,42.7501,145.885,119.626,115.255,0.00152779,0.0637801,20.9944,175.935,0.332651,0.0,0.0
406,101.25,40.572,43.1157,140.807,119.608,115.197,0.00151793,0.0635271,20.9949,175.945,0.335783,0.0,0.0
408,101.75,40.6833,43.1303,142.233,119.627,115.074,0.00150995,0.06325,20.9953,175.925,0.346686,0.0,0.0
410,102.25,40.5183,43.1008,143.925,119.599,115.497,0.00150348,0.0629607,20.9957,175.925,0.311848,0.0,0.0
412,102.75,40.7477,42.9496,144.054,119.616,115.432,0.00150679,0.0626758,20.9959,175.935,0.318186,0.0,0.0
414,103.25,40.6299,43.2479,144.522,119.607,116.136,0.00150948,0.0623997,20.9962,175.925,0.263098,0.0,0.0
416,103.75,40.3427,43.0593,145.546,119.616,116.078,0.00151166,0.0621616,20.9963,175.915,0.268274,0.0,0.0
418,104.25,40.2527,42.2808,143.717,119.58,115.18,0.00152933,0.0619558,20.9965,175.915,0.335019,0.0,0.0
420,104.75,40.3334,42.3257,145.417,119.597,115.662,0.00154364,0.0617602,20.9966,175.915,0.298942,0.0,0.0
422,105.25,40.0439,42.926,144.283,119.584,115.615,0.00156012,0.0615759,20.9967,175.915,0.301589,0.0,0.0
424,105.75,40.7513,42.9012,138.625,119.593,114.807,0.00157347,0.0614265,20.9968,175.925,0.36488,0.0,0.0
426,106.25,40.4461,42.9975,141.415,119.576,115.075,0.00159408,0.0612782,20.9968,175.925,0.34282,0.0,0.0
428,106.75,40.578,42.9272,143.048,119.589,115.498,0.00161077,0.061158,20.9969,175.915,0.31104,0.0,0.0
430,107.25,40.562,42.7299,143.95,119.568,115.733,0.0016402,0.0610607,20.9969,175.925,0.291307,0.0,0.0
432,107.75,40.2245,42.4467,144.306,119.565,114.924,0.00166404,0.0609955,20.997,175.905,0.353775,0.0,0.0
434,108.25,40.0743,42.3978,145.108,119.549,115.753,0.00168825,0.0609283,20.997,175.915,0.288347,0.0,0.0
436,108.75,40.1526,42.3451,143.486,119.57,115.778,0.00170786,0.060861,20.997,175.905,0.287977,0.0,0.0
438,109.25,40.072,42.9808,138.853,119.548,115.336,0.00171622,0.0608064,20.997,175.915,0.32045,0.0,0.0
440,109.75,40.1376,42.5605,138.86,119.554,115.862,0.00172089,0.0607348,20.997,175.915,0.280232,0.0,0.0
442,110.25,40.9292,42.8292,137.621,119.538,115.608,0.00172215,0.0606768,20.997,175.915,0.298682,0.0,0.0
444,110.75,40.5639,42.8033,140.867,119.551,115.518,0.0017243,0.0606161,20.9971,175.895,0.306583,0.0,0.0
446,111.25,40.3274,42.8969,139.523,119.526,115.597,0.00168811,0.0605669,20.9971,175.885,0.298674,0.0,0.0
448,111.75,40.365,42.2273,145.574,119.537,115.379,0.00165879,0.0604997,20.9971,175.915,0.316286,0.0,0.0
450,112.25,39.9682,42.7331,143.344,119.517,115.422,0.00162492,0.0604711,20.9971,175.905,0.311508,0.0,0.0
452,112.75,40.6298,42.8111,144.076,119.525,116.151,0.00159587,0.0604012,20.9971,175.875,0.255914,0.0,0.0
454,113.25,40.0355,42.628,143.814,119.506,115.916,0.00154619,0.0603896,20.9972,175.895,0.27256,0.0,0.0
456,113.75,39.8628,42.8479,142.68,119.549,116.858,0.00150144,0.0603698,20.9973,175.895,0.203448,0.0,0.0
458,114.25,40.4181,42.7305,142.292,119.495,115.575,0.00146115,0.0603538,20.9975,175.905,0.298081,0.0,0.0
460,114.75,40.2378,42.8878,141.208,119.499,115.359,0.00142594,0.0603408,20.9976,175.905,0.314988,0.0,0.0
462,115.25,40.5297,42.1435,146.321,119.471,116.335,0.00139511,0.0603257,20.9977,175.895,0.237649,0.0,0.0
464,115.75,40.4555,42.9981,142.348,119.491,115.413,0.00137077,0.0603217,20.9978,175.895,0.310249,0.0,0.0
466,116.25,40.0072,43.0096,140.55,119.477,115.625,0.00135164,0.0603011,20.9978,175.895,0.292784,0.0,0.0
468,116.75,40.0282,42.6029,141.766,119.488,116.469,0.00133872,0.0602844,20.9979,175.885,0.228685,0.0,0.0
470,117.25,40.2882,42.5607,143.965,119.471,115.985,0.00133057,0.0602846,20.9979,175.895,0.264622,0.0,0.0
472,117.75,40.4712,42.1728,143.358,119.482,115.984,0.00132396,0.0602847,20.9979,175.905,0.265539,0.0,0.0
474,118.25,40.3181,42.2191,142.953,119.45,115.81,0.00133405,0.0602575,20.998,175.885,0.276568,0.0,0.0
476,118.75,40.0093,42.2689,144.669,119.456,115.239,0.00135611,0.0602354,20.998,175.905,0.321166,0.0,0.0
478,119.25,40.3324,42.7273,144.399,119.452,115.336,0.00137398,0.0602312,20.998,175.895,0.31331,0.0,0.0
480,119.75,39.6801,42.2635,141.967,119.46,115.73,0.0014019,0.0602278,20.998,175.905,0.283454,0.0,0.0
482,120.25,40.6136,42.3343,140.001,119.43,115.778,0.00142452,0.060225,20.998,175.915,0.277522,0.0,0.0
484,120.75,40.3335,43.3739,143.314,119.428,116.608,0.00143184,0.0601954,20.998,175.905,0.213505,0.0,0.0
486,121.25,40.2778,42.4909,141.633,119.411,115.59,0.00143495,0.0601714,20.998,175.885,0.290665,0.0,0.0
488,121.75,40.4444,42.7344,142.193,119.413,115.828,0.00143064,0.0601592,20.998,175.895,0.272377,0.0,0.0
490,122.25,40.3568,42.7852,143.299,119.407,115.623,0.00141846,0.0601558,20.998,175.905,0.287692,0.0,0.0
492,122.75,40.1155,43.0049,144.65,119.423,115.448,0.00140345,0.060153,20.998,175.905,0.302415,0.0,0.0
494,123.25,39.5935,42.3791,146.526,119.407,114.322,0.00138666,0.0601508,20.998,175.895,0.388828,0.0,0.0
496,123.75,39.6251,42.3633,142.314,119.39,114.804,0.00136728,0.0601489,20.9981,175.905,0.349995,0.0,0.0
498,124.25,40.2013,42.688,141.865,119.368,114.902,0.00134637,0.060141,20.9981,175.885,0.34072,0.0,0.0
500,124.75,40.3105,43.2708,143.211,119.374,114.996,0.00132943,0.0601273,20.9981,175.885,0.333848,0.0,0.0
502,125.25,39.6731,42.5517,141.734,119.362,115.37,0.00131083,0.0601163,20.9981,175.895,0.303987,0.0,0.0
504,125.75,40.6059,42.3623,144.015,119.358,115.06,0.00129576,0.0601073,20.9981,175.885,0.327641,0.0,0.0
506,126.25,40.5151,42.3682,140.075,119.342,115.542,0.00128741,0.060059,20.9981,175.865,0.289124,0.0,0.0
508,126.75,39.7194,42.7182,143.768,119.343,115.192,0.00128412,0.0600198,20.9981,175.875,0.316275,0.0,0.0
510,127.25,39.5631,42.0473,139.364,119.327,115.627,0.00128853,0.0599665,20.9981,175.875,0.281393,0.0,0.0
512,127.75,39.6086,42.2249,143.18,119.325,115.331,0.00129846,0.0599039,20.9981,175.885,0.304184,0.0,0.0
514,128.25,40.5411,42.7939,140.743,119.33,115.579,0.00130977,0.0598531,20.9981,175.875,0.285365,0.0,0.0
516,128.75,39.9656,42.2522,138.018,119.315,115.622,0.00132187,0.0597983,20.9981,175.875,0.280989,0.0,0.0
518,129.25,40.0747,42.9018,140.955,119.314,115.999,0.00133039,0.0597539,20.9983,175.865,0.251775,0.0,0.0
520,129.75,39.9398,42.4731,141.217,119.29,115.648,0.00133613,0.059718,20.9986,175.875,0.277037,0.0,0.0
522,130.25,40.4906,42.4834,138.291,119.299,115.562,0.00134078,0.0596889,20.9987,175.885,0.284368,0.0,0.0
524,130.75,40.2597,42.8414,144.529,119.296,115.127,0.00134577,0.0596869,20.9989,175.865,0.317808,0.0,0.0
526,131.25,39.7936,42.2045,142.327,119.285,115.371,0.00134981,0.0597048,20.999,175.875,0.298142,0.0,0.0
528,131.75,39.7156,41.9557,140.991,119.278,115.882,0.00135308,0.0597476,20.9991,175.875,0.258092,0.0,0.0
530,132.25,40.3606,42.2377,141.175,119.272,116.184,0.00135451,0.059808,20.9992,175.885,0.234394,0.0,0.0
532,132.75,40.2415,42.5409,140.829,119.267,115.259,0.00135567,0.0598424,20.9993,175.865,0.305465,0.0,0.0
534,133.25,40.2689,42.2057,141.534,119.263,115.435,0.0013476,0.0598573,20.9993,175.865,0.291512,0.0,0.0
536,133.75,40.6597,42.2406,140.961,119.263,115.22,0.00133297,0.0598694,20.9993,175.865,0.308108,0.0,0.0
538,134.25,39.7982,42.5636,142.853,119.245,115.063,0.00131019,0.0598648,20.9994,175.865,0.319015,0.0,0.0
540,134.75,40.0689,42.2275,140.613,119.238,115.477,0.00128191,0.0598481,20.9994,175.855,0.286445,0.0,0.0
542,135.25,40.1855,42.5727,140.785,119.238,115.259,0.001259,0.0598346,20.9994,175.875,0.303273,0.0,0.0
544,135.75,39.7166,42.2815,139.702,119.216,115.427,0.00124173,0.0598236,20.999,175.875,0.288566,0.0,0.0
546,136.25,40.227,42.5205,144.482,119.235,115.542,0.0012289,0.0598147,20.9987,175.875,0.281093,0.0,0.0
548,136.75,39.8241,42.8955,140.293,119.203,115.047,0.00122558,0.0598486,20.9984,175.855,0.317064,0.0,0.0
550,137.25,40.4156,42.7281,145.033,119.203,115.377,0.00122924,0.0598761,20.9982,175.865,0.291532,0.0,0.0
552,137.75,40.0708,42.2427,143.655,119.2,115.522,0.00123414,0.0598983,20.9981,175.855,0.280077,0.0,0.0
554,138.25,40.153,42.9339,142.409,119.191,115.424,0.00123985,0.0599163,20.998,175.835,0.286941,0.0,0.0
556,138.75,40.1491,42.5601,143.19,119.177,115.041,0.00124447,0.0599309,20.9979,175.845,0.315605,0.0,0.0
558,139.25,39.8652,42.9826,142.899,119.172,116.338,0.00124821,0.0599211,20.9978,175.835,0.215082,0.0,0.0
560,139.75,40.2286,42.5057,147.449,119.163,115.966,0.00123781,0.0598937,20.9977,175.825,0.24301,0.0,0.0
562,140.25,40.0075,42.8527,142.429,119.157,116.128,0.00122874,0.0598787,20.9976,175.825,0.230099,0.0,0.0
564,140.75,40.2674,42.7361,144.905,119.14,115.572,0.00122082,0.059873,20.9976,175.845,0.271712,0.0,0.0
566,141.25,39.7717,42.8017,141.538,119.139,115.466,0.0012144,0.0598685,20.9976,175.825,0.279786,0.0,0.0
568,141.75,40.0371,42.5271,144.814,119.116,116.338,0.0012324,0.0598503,20.9975,175.835,0.210803,0.0,0.0
570,142.25,40.1295,42.4321,142.491,119.138,115.068,0.00124699,0.0598227,20.9975,175.845,0.310576,0.0,0.0
572,142.75,39.9363,42.5737,142.438,119.104,116.062,0.00127166,0.0597859,20.9975,175.845,0.231189,0.0,0.0
574,143.25,39.6359,42.308,143.012,119.108,115.425,0.00130323,0.0597431,20.9975,175.835,0.280685,0.0,0.0
576,143.75,40.2319,42.3887,143.445,119.103,114.807,0.00133137,0.0597084,20.9975,175.825,0.328247,0.0,0.0
578,144.25,40.494,42.1078,145.693,119.097,115.781,0.00135647,0.0596804,20.9975,175.825,0.252347,0.0,0.0
580,144.75,40.1541,42.9871,138.904,119.072,115.808,0.00136716,0.0596576,20.9974,175.825,0.248352,0.0,0.0
582,145.25,40.018,42.4189,143.313,119.078,115.804,0.00136714,0.0596803,20.9974,175.835,0.249106,0.0,0.0
584,145.75,39.9956,42.6641,145.563,119.068,115.414,0.00136712,0.0596987,20.9974,175.815,0.278558,0.0,0.0
586,146.25,40.5285,42.6149,140.503,119.063,115.408,0.00135296,0.0596919,20.9974,175.835,0.278591,0.0,0.0
588,146.75,40.7079,42.5934,144.277,119.045,115.494,0.00132876,0.059667,20.9974,175.815,0.270587,0.0,0.0
590,147.25,39.8299,42.411,144.357,119.056,115.598,0.00130916,0.0596756,20.9979,175.825,0.263332,0.0,0.0
592,147.75,40.2063,42.4286,142.478,119.036,114.536,0.00128962,0.0597086,20.9982,175.825,0.344388,0.0,0.0
594,148.25,40.2196,42.3407,142.299,119.05,114.814,0.00127379,0.0597352,20.9985,175.825,0.323706,0.0,0.0
596,148.75,40.3025,42.4606,141.645,119.022,115.334,0.00126952,0.0597705,20.9987,175.825,0.28122,0.0,0.0
598,149.25,39.6896,42.3037,142.603,119.035,115.041,0.00126606,0.0597991,20.9989,175.805,0.304968,0.0,0.0
600,149.75,40.3837,42.2534,142.211,119.005,114.909,0.00126711,0.0598223,20.9991,175.815,0.31302,0.0,0.0
602,150.25,40.2719,42.6991,143.909,119.008,114.708,0.00127144,0.059841,20.9992,175.805,0.328835,0.0,0.0
604,150.75,40.4273,42.8377,143.153,118.982,114.762,0.0012743,0.0598778,20.9993,175.815,0.322602,0.0,0.0
606,151.25,40.3116,42.0208,141.688,118.995,114.943,0.00127603,0.0599271,20.9994,175.825,0.309554,0.0,0.0
608,151.75,40.2378,42.023,142.823,118.963,114.867,0.00127744,0.059967,20.999,175.835,0.313057,0.0,0.0
610,152.25,40.1803,42.566,139.804,118.968,115.117,0.00127492,0.0599994,20.9987,175.815,0.294038,0.0,0.0
612,152.75,40.6655,42.1692,137.687,118.967,115.576,0.00127288,0.0600255,20.9985,175.815,0.258411,0.0,0.0
614,153.25,40.3722,42.502,145.843,118.959,114.92,0.00127122,0.0600684,20.9983,175.815,0.30867,0.0,0.0
616,153.75,40.016,43.0944,141.897,118.954,116.042,0.00128942,0.0601225,20.9981,175.825,0.221416,0.0,0.0
618,154.25,39.7242,42.2818,140.237,118.955,114.918,0.00130417,0.0601808,20.998,175.825,0.3085,0.0,0.0
620,154.75,40.0296,42.8911,140.339,118.928,114.802,0.00133445,0.060241,20.9979,175.815,0.315509,0.0,0.0
622,155.25,39.574,41.9125,144.411,118.946,115.022,0.00135897,0.0602897,20.9978,175.815,0.299776,0.0,0.0
624,155.75,39.6812,41.7803,142.094,118.928,115.905,0.00138495,0.0603018,20.9977,175.815,0.230106,0.0,0.0
626,156.25,40.2404,42.577,142.593,118.932,114.611,0.00140599,0.0603116,20.9977,175.825,0.330733,0.0,0.0
628,156.75,39.992,42.2414,144.197,118.922,115.835,0.00142303,0.0603196,20.9976,175.815,0.234993,0.0,0.0
630,157.25,39.9345,42.1573,141.455,118.921,115.215,0.00143684,0.060326,20.9976,175.825,0.282875,0.0,0.0
632,157.75,40.5749,42.6821,139.693,118.915,116.2,0.00145169,0.0603312,20.9975,175.805,0.206373,0.0,0.0
634,158.25,40.5525,42.4339,137.241,118.918,115.08,0.00146372,0.0603354,20.9975,175.805,0.293164,0.0,0.0
636,158.75,40.2133,41.4662,144.372,118.908,114.728,0.00147346,0.0603461,20.9975,175.805,0.319781,0.0,0.0
638,159.25,40.0073,42.339,142.374,118.898,114.467,0.0014838,0.0603611,20.9975,175.785,0.339377,0.0,0.0
640,159.75,39.1346,42.2662,142.013,118.891,115.16,0.00149218,0.0603662,20.9975,175.775,0.284924,0.0,0.0
642,160.25,40.0214,42.3852,141.234,118.912,115.665,0.00149896,0.0603637,20.9975,175.775,0.247401,0.0,0.0
644,160.75,40.2031,42.5695,146.43,118.882,114.845,0.00149702,0.0603618,20.9975,175.805,0.308691,0.0,0.0
646,161.25,40.2155,42.2401,141.042,118.889,115.461,0.00149545,0.0603328,20.9975,175.805,0.261409,0.0,0.0
648,161.75,39.9197,42.7265,138.661,118.853,114.636,0.00148389,0.0603093,20.9977,175.795,0.32277,0.0,0.0
650,162.25,40.3881,42.338,144.597,118.868,115.235,0.00146526,0.0602903,20.9978,175.795,0.277298,0.0,0.0
652,162.75,40.3177,42.877,144.15,118.845,115.132,0.00143602,0.0602749,20.9979,175.785,0.283662,0.0,0.0
654,163.25,40.0457,42.1442,139.93,118.848,115.076,0.00139961,0.0602624,20.998,175.795,0.288207,0.0,0.0
656,163.75,39.4105,42.4909,142.2,118.836,114.622,0.00137011,0.0602523,20.998,175.805,0.322564,0.0,0.0
658,164.25,40.0466,42.4832,140.371,118.836,114.239,0.00132303,0.0603271,20.9981,175.795,0.352538,0.0,0.0
660,164.75,40.3643,42.3827,142.881,118.833,114.747,0.00128489,0.0603876,20.9981,175.795,0.312667,0.0,0.0
662,165.25,40.3805,42.7778,140.597,118.842,114.184,0.00124424,0.0604295,20.9981,175.775,0.357216,0.0,0.0
664,165.75,40.5181,42.2672,145.035,118.823,114.952,0.00121195,0.0604569,20.9982,175.795,0.295947,0.0,0.0
666,166.25,40.269,42.5535,140.043,118.835,113.716,0.00118637,0.0604718,20.9982,175.785,0.393458,0.0,0.0
668,166.75,40.5218,42.1907,144.195,118.832,114.302,0.00116566,0.0604775,20.9982,175.785,0.347325,0.0,0.0
670,167.25,40.0143,42.3565,142.861,118.838,114.253,0.00115466,0.0604749,20.9982,175.785,0.351525,0.0,0.0
672,167.75,40.0773,41.8443,143.7,118.818,115.748,0.00115095,0.0604662,20.9982,175.795,0.233894,0.0,0.0
674,168.25,40.197,42.4624,141.064,118.808,115.283,0.00115309,0.0604593,20.9982,175.795,0.269102,0.0,0.0
676,168.75,40.5625,42.3279,140.267,118.816,115.489,0.00115944,0.0604536,20.9982,175.795,0.253774,0.0,0.0
678,169.25,39.8516,42.4481,143.984,118.811,114.384,0.0011707,0.060449,20.9982,175.805,0.339322,0.0,0.0
680,169.75,39.4978,42,140.732,118.806,114.197,0.00117981,0.0604316,20.9983,175.815,0.353581,0.0,0.0
682,170.25,40.097,42.471,138.908,118.797,114.496,0.00119105,0.0604175,20.9983,175.785,0.329479,0.0,0.0
684,170.75,40.0207,42.3444,144.03,118.803,115.101,0.00120363,0.0603773,20.9983,175.775,0.282854,0.0,0.0
686,171.25,40.6104,42.1632,145.798,118.794,114.746,0.00121831,0.0603187,20.9983,175.785,0.309811,0.0,0.0
688,171.75,40.6327,42.2851,142.936,118.82,114.628,0.00123426,0.0602857,20.9983,175.765,0.320993,0.0,0.0
690,172.25,40.2217,42.5285,144.968,118.786,114.499,0.00124717,0.060272,20.9983,175.775,0.328396,0.0,0.0
692,172.75,40.0656,42.5096,142.956,118.788,115.413,0.00125525,0.0602968,20.9983,175.775,0.257506,0.0,0.0
694,173.25,40.1005,42.3868,141.872,118.781,114.906,0.00126906,0.0603494,20.9983,175.785,0.296375,0.0,0.0
696,173.75,39.989,42.4346,138.009,118.78,114.227,0.00128025,0.060392,20.9983,175.795,0.349203,0.0,0.0
698,174.25,40.1736,42.3648,141.639,118.776,115.298,0.00127466,0.0604129,20.9983,175.785,0.265571,0.0,0.0
700,174.75,40.1557,42.5058,142.371,118.78,115.535,0.00127012,0.0604369,20.9983,175.765,0.247467,0.0,0.0
702,175.25,39.9191,42.8047,142.014,118.759,114.244,0.0012518,0.0604629,20.9983,175.755,0.346347,0.0,0.0
704,175.75,40.3817,42.4639,144.047,118.774,114.859,0.00123696,0.060474,20.9983,175.775,0.299479,0.0,0.0
706,176.25,40.4523,42.9237,147.398,118.758,115.849,0.00122108,0.0604929,20.9983,175.755,0.221653,0.0,0.0
708,176.75,40.2465,42.8312,144.634,118.762,115.152,0.00120476,0.060563,20.9983,175.765,0.275805,0.0,0.0
710,177.25,40.6929,42.6499,143.898,118.746,114.476,0.00118768,0.0606198,20.9983,175.765,0.327222,0.0,0.0
712,177.75,40.1427,42.6251,141.647,118.761,114.767,0.00117037,0.0606514,20.9983,175.755,0.305686,0.0,0.0
714,178.25,39.7317,42.5404,141.499,118.746,114.721,0.00114865,0.060664,20.9983,175.765,0.308172,0.0,0.0
716,178.75,40.4181,42.5642,144.881,118.758,114.491,0.00112413,0.0606454,20.9983,175.765,0.326982,0.0,0.0
718,179.25,40.4195,42.7142,147.57,118.755,114.49,0.00109527,0.0606044,20.9983,175.735,0.326844,0.0,0.0
720,179.75,40.5092,43.1305,141.497,118.75,114.404,0.00106382,0.0605784,20.9983,175.735,0.333105,0.0,0.0
722,180.25,39.6593,42.9095,142.675,118.722,114.906,0.00103833,0.0605638,20.9983,175.765,0.291898,0.0,0.0
724,180.75,40.1012,42.9433,148.055,118.745,114.774,0.00101404,0.0605592,20.9983,175.735,0.303919,0.0,0.0
726,181.25,40.3631,43.1051,141.134,118.73,114.319,0.000994357,0.0605619,20.9983,175.745,0.338232,0.0,0.0
728,181.75,40.3072,42.8294,142.661,118.748,114.743,0.000983549,0.0605425,20.9983,175.755,0.306569,0.0,0.0
730,182.25,40.3981,42.4952,139.13,118.728,115.035,0.000979414,0.0605074,20.9983,175.755,0.282365,0.0,0.0
732,182.75,40.3308,42.4191,141.415,118.74,115.097,0.000976066,0.0604789,20.9983,175.755,0.278478,0.0,0.0
734,183.25,39.9197,42.8112,142.236,118.726,115.146,0.000973353,0.0604421,20.9983,175.735,0.273566,0.0,0.0
736,183.75,40.7688,42.739,139.457,118.732,115.609,0.000990671,0.0604123,20.9984,175.725,0.238182,0.0,0.0
738,184.25,40.7032,42.6764,141.755,118.729,114.783,0.0010047,0.0603954,20.9986,175.735,0.301995,0.0,0.0
740,184.75,40.3751,42.915,138.223,118.747,115.534,0.00101991,0.0603882,20.9987,175.745,0.245089,0.0,0.0
742,185.25,41.0049,42.4249,144.547,118.728,114.605,0.00103571,0.0603823,20.9988,175.735,0.31582,0.0,0.0
744,185.75,40.0305,42.7761,141.714,118.744,114.247,0.00104978,0.0603776,20.9987,175.755,0.345006,0.0,0.0
746,186.25,40.1218,42.6251,137.639,118.736,115.03,0.00106234,0.0603875,20.9984,175.735,0.283385,0.0,0.0
748,186.75,40.2447,42.2885,143.515,118.734,116.041,0.00106802,0.0603955,20.9981,175.735,0.204932,0.0,0.0
750,187.25,40.3172,42.7116,138.121,118.734,114.282,0.00106857,0.0604019,20.9979,175.735,0.341441,0.0,0.0
752,187.75,39.9555,42.8647,141.065,118.742,115.642,0.00106902,0.0604072,20.9978,175.725,0.236388,0.0,0.0
754,188.25,40.5355,42.8493,139.206,118.734,115.619,0.00104986,0.0604258,20.9976,175.725,0.237502,0.0,0.0
756,188.75,40.1789,43.0148,137.87,118.744,114.323,0.00103435,0.0604539,20.9975,175.735,0.339052,0.0,0.0
758,189.25,40.5686,42.3518,145.046,118.731,114.295,0.00100959,0.0604767,20.9974,175.745,0.340222,0.0,0.0
760,189.75,40.0815,42.7215,140.501,118.751,115.137,0.000989534,0.0604951,20.9974,175.745,0.27619,0.0,0.0
762,190.25,40.6397,42.9428,144.621,118.739,115.298,0.000968415,0.06051,20.9973,175.755,0.262824,0.0,0.0
764,190.75,40.6196,42.4771,140.584,118.747,114.905,0.000951308,0.0605084,20.9973,175.725,0.293887,0.0,0.0
766,191.25,40.4516,42.6972,142.677,118.732,114.391,0.000939889,0.0605071,20.9972,175.715,0.332783,0.0,0.0
768,191.75,40.6721,42.6216,142.464,118.756,114.621,0.00093064,0.0605335,20.9972,175.715,0.316708,0.0,0.0
770,192.25,40.4965,42.4939,141.959,118.735,114.852,0.000929243,0.0605548,20.9972,175.725,0.297062,0.0,0.0
772,192.75,40.1339,42.6995,137.927,118.752,114.318,0.000928112,0.0605995,20.9971,175.735,0.340039,0.0,0.0
774,193.25,40.2612,42.568,142.319,118.733,114.462,0.000927195,0.0606356,20.9971,175.715,0.327312,0.0,0.0
776,193.75,40.097,42.7757,140.721,118.758,115.116,,0.0606102,,175.715,0.278367,0.0,0.0
778,194.25,39.8697,42.4038,142.628,118.749,114.244,,0.0605895,,175.725,0.345613,0.0,0.0
780,194.75,39.9002,41.9246,141.738,118.76,115.583,,0.0605656,,175.755,0.242287,0.0,0.0
782,195.25,40.1391,42.984,142.57,118.734,114.634,,0.0605398,,175.725,0.313948,0.0,0.0
784,195.75,40.5885,42.6006,144.931,118.747,115.497,,0.0605404,,175.725,0.247939,0.0,0.0
786,196.25,40.3358,42.6618,144.941,118.75,114.704,,0.0605604,,175.715,0.309739,0.0,0.0
788,196.75,40.149,42.9346,145.224,118.741,114.669,,,,175.725,0.311786,0.0,0.0
790,197.25,40.5798,42.7597,141.281,118.739,114.86,,,,175.735,0.296759,0.0,0.0
792,197.75,40.8284,42.6023,142.322,118.764,114.491,,,,175.745,0.327424,0.0,0.0
794,198.25,40.177,42.1088,148.722,118.749,114.348,,,,175.725,0.337385,0.0,0.0
796,198.75,40.1057,42.0346,140.407,118.76,114.544,,,,175.705,0.32298,0.0,0.0
798,199.25,40.2304,42.7869,143.924,118.744,116.054,,,,175.715,0.204795,0.0,0.0
800,199.75,40.4406,42.9106,140.81,118.772,114.973,,,,175.715,0.29051,0.0,0.0
802,200.25,40.4195,42.4676,141.564,118.765,114.557,,,,175.715,0.322351,0.0,0.0
804,200.75,40.8561,42.5973,140.388,118.772,114.381,,,,175.705,0.336553,0.0,0.0
806,201.25,40.702,42.6975,144.653,118.766,114.845,,,,175.705,0.299966,0.0,0.0
808,201.75,40.9332,42.2464,145.296,118.775,115.018,,,,175.705,0.287235,0.0,0.0
810,202.25,39.9464,42.1535,140.705,118.76,114.499,,,,175.695,0.326453,0.0,0.0
812,202.75,40.0197,41.9948,142.651,118.773,114.52,,,,175.725,0.325848,0.0,0.0
814,203.25,40.6547,42.5344,141.912,118.759,114.358,,,,175.705,0.337473,0.0,0.0
816,203.75,40.5226,42.7191,140.335,118.77,115.657,,,,175.715,0.23733,0.0,0.0
818,204.25,40.2535,43.0656,144.054,118.779,115.775,,,,175.705,0.228873,0.0,0.0
819,204.5,40.3626,42.6812,141.8,118.78,114.709,,,,175.715,0.311577,0.0,0.0