File: 01_Data/Tyvek_Wrap/Cone/Tyvek_Wrap_Cone_HF25Scan_220401_R2.csv
Names,Time,Stack TC,Smoke TC,Exh Press,Smoke Comp,Smoke Meas,CO Meter,CO2 Meter,O2 Meter,Sample Mass,Ext Coeff,Start Test,Flame Verif
Chan Gain,,500,500,1,1,1,1,1,1,1,1,1.0,1.0
Offset,,0,0,0.133521,0,0,0,0,0,0,0,0.0,0.0
Gain,,1,1,25.011,13.1585,13.8929,1,1,1,1.00096,1.01488,1.0,1.0
Units,sec,C,C,Pa,%,%,%,%,%,g,/m,,
Baseline,,19.4571,20.2811,152.676,97.7959,96.3065,0.00068481,0.0714402,21.0115,-834.331,0.136667,,
7,1.5,18.0937,19.156,147.8,98.7073,97.075,0.000477091,0.0752891,21.0082,179.843,0.148451,0.0,0.0
14,3.25,18.019,18.5282,154.846,98.7415,97.5664,0.000441475,0.0750261,21.0082,179.973,0.106579,0.0,0.0
21,5,17.7774,18.776,150.126,98.7644,96.9771,0.000449089,0.0744714,21.0082,179.963,0.162579,0.0,0.0
28,6.75,17.8693,18.4561,151.883,98.7945,97.3943,0.000463846,0.073945,21.0082,179.933,0.127076,0.0,0.0
35,8.5,17.8767,18.4984,151.617,98.8218,96.9308,0.000444212,0.0734155,21.0086,179.943,0.171997,0.0,0.0
42,10.25,18.2198,18.7395,155.7,98.8523,97.2115,0.000467134,0.0728017,21.0096,179.963,0.149005,0.0,0.0
49,12,17.915,18.4561,149.789,98.8872,97.2722,0.000506697,0.0723028,21.0101,179.933,0.1466,0.0,0.0
56,13.75,18.3049,19.1831,152.381,98.9125,97.2569,0.000504092,0.0723482,21.0101,179.933,0.150274,0.0,0.0
63,15.5,18.5512,18.8034,159.092,98.9398,98.0239,0.000523212,0.0732764,21.0084,179.953,0.0828015,0.0,0.0
70,17.25,18.369,18.7657,151.912,98.9667,97.6609,0.000613413,0.0749801,21.0055,179.953,0.118243,0.0,0.0
77,19,18.432,18.5064,154.109,99.0049,97.0886,0.000623098,0.0766179,21.0032,179.943,0.174004,0.0,0.0
84,20.75,18.5131,19.0054,150.725,99.0298,97.6245,0.000606759,0.0786036,21.0013,179.933,0.127237,0.0,0.0
91,22.5,18.092,18.4735,155.497,99.0567,97.4723,0.000662493,0.0808355,21.0001,179.943,0.143546,0.0,0.0
98,24.25,18.3895,18.6874,152.165,99.0884,97.8445,0.000723727,0.0826156,20.9987,179.933,0.112463,0.0,0.0
105,26,18.6457,19.0848,150.885,99.1153,97.0364,0.000762275,0.0831928,20.9988,179.953,0.188711,0.0,0.0
112,27.75,18.4744,18.9166,153.971,99.1418,97.3748,0.000807194,0.0823894,21.0007,179.933,0.160106,0.0,0.0
119,29.5,18.388,18.8606,152.74,99.1812,97.9552,0.000905394,0.0810063,21.0035,179.933,0.11073,0.0,0.0
126,31.25,18.3956,19.1705,151.502,99.2121,97.5066,0.000969151,0.0791938,21.0057,179.933,0.154367,0.0,0.0
133,33,18.392,19.2686,154.259,99.2454,98.1099,0.00090661,0.0772158,21.008,179.923,0.102443,0.0,0.0
140,34.75,18.2952,18.8742,151.747,99.286,97.9094,0.000739698,0.0757148,21.0103,179.923,0.124295,0.0,0.0
147,36.5,18.6518,19.0893,154.828,99.3073,97.6847,0.00066898,0.0745322,21.0114,179.923,0.146659,0.0,0.0
154,38.25,18.421,19.1701,152.602,99.333,98.3177,0.000656895,0.0733894,21.0121,179.943,0.09146,0.0,0.0
161,40,18.4021,19.2392,152.818,99.3619,98.0264,0.000656934,0.072645,21.013,179.933,0.120464,0.0,0.0
168,41.75,18.5051,19.1645,153.65,99.3864,97.7856,0.00067383,0.0721368,21.0135,179.933,0.144556,0.0,0.0
175,43.5,18.5601,19.1572,152.356,99.4048,98.009,0.000643342,0.0716025,21.0139,179.933,0.125893,0.0,0.0
182,45.25,18.8387,19.4022,152.051,99.4317,98.062,0.000541747,0.0710157,21.0168,179.933,0.123488,0.0,0.0
189,47,18.532,18.5426,152.61,99.4398,98.6013,0.000414417,0.070553,21.0184,179.933,0.0753816,0.0,0.0
196,48.75,18.9633,19.1213,147.734,99.4575,97.722,0.000352811,0.0701589,21.0198,179.933,0.156712,0.0,0.0
203,50.5,18.3825,19.0845,149.47,99.4727,98.0603,0.000442418,0.0698073,21.0211,179.923,0.127309,0.0,0.0
210,52.25,18.6628,19.3874,151.371,99.4904,98.0205,0.000591922,0.0695265,21.0217,179.913,0.132509,0.0,0.0
217,54,18.5918,20.0331,153.238,99.5185,98.1676,0.000716851,0.0693737,21.022,179.923,0.121672,0.0,0.0
224,55.75,18.7139,19.1605,153.129,99.5169,97.4188,0.00085677,0.0692499,21.0221,179.923,0.18969,0.0,0.0
231,57.5,18.7949,19.732,155.727,99.5257,97.917,0.000998585,0.0691924,21.021,179.923,0.145072,0.0,0.0
238,59.25,18.9289,19.5273,150.49,99.5402,98.0336,0.00104453,0.0692139,21.0204,179.933,0.13577,0.0,0.0
245,61,18.8067,19.5206,142.065,99.5502,97.8505,0.000978603,0.0690807,21.0202,179.933,0.153315,0.0,0.0
252,62.75,18.7555,19.0685,148.128,99.5599,97.9747,0.000745838,0.0689982,21.02,179.933,0.142883,0.0,0.0
259,64.5,18.9335,19.4758,150.397,99.5727,98.4317,0.000561393,0.0689703,21.02,179.923,0.102599,0.0,0.0
266,66.25,18.6872,19.4785,152.674,99.5847,98.4567,0.000525882,0.0689537,21.0193,179.923,0.101414,0.0,0.0
273,68,18.9051,19.6219,152.235,99.5896,98.5233,0.000584112,0.0689458,21.0186,179.923,0.0958276,0.0,0.0
280,69.75,18.6187,19.035,152.27,99.5791,98.5708,0.000644634,0.0690024,21.0183,179.913,0.0906049,0.0,0.0
287,71.5,18.9637,19.4224,152.524,99.6016,98.4695,0.00061223,0.06897,21.0186,179.923,0.101771,0.0,0.0
294,73.25,19.0712,19.7986,152.992,99.6149,97.9972,0.000506944,0.068968,21.0187,179.923,0.14576,0.0,0.0
301,75,18.9297,19.5206,154.265,99.6269,98.305,0.000421186,0.0691873,21.0182,179.903,0.118917,0.0,0.0
308,76.75,18.6424,18.9629,149.274,99.6317,98.0663,0.000411714,0.0692946,21.0185,179.903,0.140991,0.0,0.0
315,78.5,18.9384,19.6841,154.295,99.6374,98.3448,0.000483102,0.0693139,21.018,179.913,0.116241,0.0,0.0
322,80.25,19.0343,19.4019,151.774,99.6558,98.2935,0.000564859,0.0693192,21.0172,179.913,0.122537,0.0,0.0
329,82,19.5923,19.7411,150.244,99.6554,98.0438,0.000532019,0.0693322,21.0172,179.903,0.145147,0.0,0.0
336,83.75,18.7846,19.6231,150.721,99.6651,97.6656,0.000361547,0.0691447,21.0173,179.923,0.180416,0.0,0.0
343,85.5,19.1396,19.7167,155.566,99.6627,98.3096,0.000199869,0.0690024,21.0181,179.923,0.121688,0.0,0.0
350,87.25,18.6719,19.6911,149.87,99.6883,98.5691,0.000149275,0.0689087,21.0185,179.903,0.100517,0.0,0.0
357,89,19.003,19.5042,146.331,99.7008,98.3249,0.000180392,0.068811,21.0192,179.893,0.123713,0.0,0.0
364,90.75,19.1008,20.1288,151.259,99.7028,98.3105,0.00027065,0.0687341,21.0196,179.903,0.125197,0.0,0.0
371,92.5,18.9452,20.2313,154.824,99.7024,98.5526,0.00040305,0.0687311,21.0193,179.903,0.103266,0.0,0.0
378,94.25,19.1216,19.4922,151.054,99.712,98.6327,0.000526279,0.0687255,21.0192,179.923,0.0968911,0.0,0.0
385,96,18.7009,19.6776,153.512,99.7221,98.5801,0.000590964,0.0686842,21.0191,179.903,0.102534,0.0,0.0
392,97.75,19.0656,20.4137,152.139,99.7293,98.2986,0.000573464,0.0688001,21.0191,179.903,0.128638,0.0,0.0
399,99.5,19.0961,19.7976,152.053,99.7321,98.5623,0.000523238,0.0690277,21.0191,179.913,0.105038,0.0,0.0
406,101.25,18.9159,19.7572,152.579,99.7273,98.2168,0.000550144,0.0692988,21.019,179.903,0.135874,0.0,0.0
413,103,19.1056,19.8724,156.016,99.749,98.4724,0.000669085,0.0696249,21.019,179.913,0.114666,0.0,0.0
420,104.75,19.1569,19.7173,148.717,99.7518,98.6734,0.000751405,0.0697857,21.019,179.903,0.0967672,0.0,0.0
427,106.5,19.0734,19.7553,153.221,99.7626,98.4012,0.000719993,0.0698146,21.019,179.913,0.122326,0.0,0.0
434,108.25,19.3148,19.6231,151.521,99.7526,98.0285,0.000673574,0.069584,21.019,179.913,0.155211,0.0,0.0
441,110,19.2065,19.9065,149.296,99.7642,98.3664,0.000666072,0.0693001,21.019,179.923,0.125616,0.0,0.0
448,111.75,18.9169,19.8508,151.586,99.7634,98.3164,0.000666103,0.0690607,21.0193,179.903,0.130072,0.0,0.0
455,113.5,19.0174,19.3804,153.426,99.7707,98.1171,0.000623023,0.0688185,21.0194,179.913,0.14878,0.0,0.0
462,115.25,19.1423,19.9607,155.163,99.7683,98.3851,0.000551065,0.0686362,21.0195,179.913,0.124286,0.0,0.0
469,117,18.7468,20.2957,150.175,99.7719,98.0582,0.000480435,0.0685753,21.0203,179.923,0.154235,0.0,0.0
476,118.75,19.0103,20.0034,151.667,99.7831,98.2982,0.000403341,0.0684394,21.0212,179.913,0.133479,0.0,0.0
483,120.5,19.139,19.8664,151.956,99.7751,98.5322,0.000305402,0.0682005,21.0215,179.913,0.111591,0.0,0.0
490,122.25,19.3149,20.2136,151.531,99.7879,98.5674,0.000243482,0.0680609,21.0211,179.933,0.10956,0.0,0.0
497,124,19.0423,20.0597,150.149,99.7695,98.1388,0.000243259,0.0680709,21.0203,179.923,0.14671,0.0,0.0
504,125.75,19.3183,19.7495,156.635,99.7759,98.4567,0.000297408,0.0681373,21.0199,179.923,0.118485,0.0,0.0
511,127.5,19.048,19.8513,153.498,99.7795,98.7451,0.000440092,0.0680562,21.0202,179.923,0.0927771,0.0,0.0
518,129.25,18.8606,19.4438,156.246,99.7855,98.5928,0.000560843,0.0680801,21.0211,179.913,0.107047,0.0,0.0
525,131,19.3047,20.1306,151.593,99.7815,98.1909,0.000617677,0.0681187,21.0215,179.913,0.143056,0.0,0.0
532,132.75,18.9656,19.5094,154.965,99.794,98.5687,0.000651493,0.0681617,21.0215,179.923,0.109983,0.0,0.0
539,134.5,19.4663,19.5361,152.378,99.7871,98.0099,0.00074209,0.0681204,21.0211,179.913,0.159987,0.0,0.0
546,136.25,19.0964,19.9209,154.471,99.7783,98.5102,0.000798756,0.0681166,21.0212,179.913,0.113871,0.0,0.0
553,138,18.854,19.586,155.98,99.7703,98.7137,0.000698146,0.0681344,21.0212,179.893,0.0947819,0.0,0.0
560,139.75,18.9816,20.2586,152.818,99.7626,98.4093,0.000589831,0.0682461,21.0212,179.903,0.121598,0.0,0.0
567,141.5,19.4253,20.0462,151.219,99.761,98.8294,0.000442004,0.0683396,21.0212,179.893,0.0835248,0.0,0.0
574,143.25,19.1152,20.1567,150.466,99.7602,98.1646,0.000286641,0.0684996,21.0212,179.893,0.143541,0.0,0.0
581,145,19.2588,19.9041,153.09,99.7486,98.0858,0.000193458,0.0686539,21.0215,179.883,0.149655,0.0,0.0
588,146.75,19.1744,19.8911,151.905,99.7349,98.6162,0.000185035,0.069022,21.0212,179.893,0.100427,0.0,0.0
595,148.5,19.0022,20.2471,153.06,99.7189,98.5161,0.000151063,0.0694163,21.0204,179.903,0.108031,0.0,0.0
602,150.25,18.8902,20.1868,154.247,99.7341,98.1163,8.79648e-05,0.0698867,21.0201,179.903,0.145595,0.0,0.0
609,152,19.0547,19.8443,151.638,99.7181,97.937,6.72111e-05,0.0703503,21.0199,179.903,0.160449,0.0,0.0
616,153.75,19.2215,19.9458,151.061,99.6992,98.3058,0.000181304,0.0705867,21.0198,179.893,0.125297,0.0,0.0
623,155.5,18.9774,20.1861,150.115,99.6831,98.5716,0.000341847,0.0707607,21.0189,179.893,0.0998216,0.0,0.0
630,157.25,19.1633,19.7631,151.294,99.6791,98.2783,0.000424665,0.070798,21.0189,179.893,0.126001,0.0,0.0
637,159,19.3187,20.1962,156.594,99.6679,98.1337,0.000428197,0.0709643,21.0192,179.893,0.138102,0.0,0.0
644,160.75,19.0815,20.1034,155.218,99.6486,98.2236,0.000409021,0.0710972,21.0182,179.893,0.128229,0.0,0.0
651,162.5,18.6439,20.0335,152.856,99.6285,98.5318,0.000475578,0.0711608,21.0177,179.883,0.0985433,0.0,0.0
658,164.25,18.9982,20.53,151.708,99.6076,98.4097,0.000548628,0.0711695,21.0174,179.883,0.107716,0.0,0.0
665,166,18.9536,19.8086,151.237,99.5992,98.4186,0.000502409,0.0711789,21.018,179.893,0.106157,0.0,0.0
672,167.75,19.0338,19.9843,153.172,99.5803,98.8125,0.000407007,0.0711252,21.0185,179.883,0.0689128,0.0,0.0
679,169.5,18.8888,19.8151,149.878,99.5502,98.1133,0.000353503,0.0710492,21.0187,179.883,0.129432,0.0,0.0
686,171.25,19.343,19.7954,151.127,99.5341,98.3334,0.000368285,0.071016,21.0198,179.883,0.108053,0.0,0.0
693,173,19.3372,19.8459,157.301,99.5241,98.1316,0.000425243,0.0708168,21.0206,179.873,0.125444,0.0,0.0
700,174.75,19.1603,19.8558,152.995,99.5064,97.8318,0.000478169,0.0705266,21.0209,179.883,0.151099,0.0,0.0
707,176.5,19.3586,19.6683,154.478,99.4984,98.1646,0.000498732,0.0702656,21.0207,179.893,0.120146,0.0,0.0
714,178.25,19.1717,20.494,151.019,99.4755,97.8102,0.000478297,0.0700824,21.0205,179.893,0.150299,0.0,0.0
721,180,19.2649,19.8465,154.091,99.4703,98.3122,0.000505102,0.0699475,21.0205,179.883,0.10426,0.0,0.0
728,181.75,19.0681,19.8061,148.108,99.4466,98.3389,0.000562255,0.0698528,21.0196,179.893,0.0997208,0.0,0.0
735,183.5,19.5675,19.9804,153.277,99.4173,98.344,0.000596366,0.0699953,21.0182,179.893,0.0966349,0.0,0.0
742,185.25,19.3523,19.8731,155.125,99.4064,98.2668,0.000612245,0.070353,21.0173,179.893,0.102651,0.0,0.0
749,187,19.0216,19.9312,157.167,99.382,98.1311,0.000570049,0.0707731,21.0158,179.903,0.112758,0.0,0.0
756,188.75,19.5146,19.7955,151.653,99.3739,97.7008,0.000540138,0.0712512,21.015,179.883,0.151164,0.0,0.0
763,190.5,19.5085,19.8259,147.641,99.3699,97.8852,0.000552038,0.0715643,21.0146,179.903,0.134015,0.0,0.0
770,192.25,18.8955,19.7262,149.064,99.3474,97.7975,0.000575253,0.0717601,21.0144,179.903,0.139986,0.0,0.0
777,194,19.6279,20.0803,154.72,99.3346,98.0192,0.000597804,0.071876,21.0143,179.893,0.118672,0.0,0.0
784,195.75,19.3903,19.6758,150.936,99.3314,98.4093,0.000641641,0.0719306,21.0142,179.893,0.0830275,0.0,0.0
791,197.5,19.479,20.1257,150.067,99.3165,98.3024,0.000621169,0.0718433,21.0147,179.893,0.0913665,0.0,0.0
798,199.25,19.2785,20.2577,151.896,99.284,97.7576,0.000559609,0.0716333,21.0149,179.893,0.137927,0.0,0.0
805,201,19.0119,20.1249,152.611,99.2792,98.0018,0.000572109,0.0714032,21.0162,179.893,0.115283,0.0,0.0
812,202.75,19.4155,20.1563,155.47,99.2759,97.7084,0.000636402,0.07124,21.0168,179.873,0.141686,0.0,0.0
819,204.5,19.5808,20.0317,150.115,99.2575,98.2108,0.000638961,0.0708285,21.0159,179.883,0.0943713,0.0,0.0
826,206.25,19.5252,20.0961,153.934,99.2462,98.0612,0.00056804,0.0705507,21.0154,179.873,0.10694,0.0,0.0
833,208,19.1069,20.2623,155.019,99.2438,98.5314,0.000467774,0.0702459,21.0146,179.883,0.064139,0.0,0.0
840,209.75,19.4616,20.1675,149.367,99.2326,97.8555,0.000456456,0.0700638,21.0152,179.873,0.124403,0.0,0.0
847,211.5,19.6876,20.0033,152.799,99.2229,97.9569,0.000525359,0.06989,21.0154,179.883,0.114324,0.0,0.0
854,213.25,19.4048,20.1882,150.067,99.2105,97.7432,0.000579594,0.0697409,21.0156,179.883,0.132648,0.0,0.0
861,215,19.3513,19.9829,151.919,99.2053,98.2906,0.000538652,0.0696809,21.0156,179.863,0.0824661,0.0,0.0
868,216.75,19.5549,20.2486,153.878,99.1944,97.803,0.000364973,0.0696167,21.0156,179.863,0.125764,0.0,0.0
875,218.5,19.4939,20.2332,151.321,99.196,98.6382,0.00020919,0.0695839,21.0157,179.873,0.0502032,0.0,0.0
882,220.25,19.8075,20.1657,156.287,99.1828,98.2689,0.000170173,0.0694514,21.0157,179.883,0.0824061,0.0,0.0
889,222,19.6483,20.2342,151.004,99.1784,98.3118,0.000275247,0.0694971,21.0157,179.873,0.0781308,0.0,0.0
896,223.75,19.2107,20.1535,152.969,99.1683,98.3041,0.000372892,0.0696115,21.0157,179.883,0.0779215,0.0,0.0
903,225.5,18.6132,20.4567,148.126,99.1796,98.0336,0.000399617,0.0696206,21.0157,179.893,0.10346,0.0,0.0
910,227.25,19.5078,20.5278,155.66,99.1563,97.6296,0.000447573,0.0697267,21.018,179.893,0.138137,0.0,0.0
917,229,19.2874,20.1164,150.327,99.129,97.5566,0.000547813,0.0698982,21.0195,179.883,0.142338,0.0,0.0
924,230.75,19.4995,19.8714,149.869,99.1322,97.5944,0.000564831,0.0698697,21.0203,179.883,0.139184,0.0,0.0
931,232.5,19.3771,20.3274,152.806,99.1197,98.4177,0.00053039,0.069911,21.0207,179.883,0.0632739,0.0,0.0
938,234.25,19.5399,20.5188,148.723,99.1053,97.9819,0.00050742,0.0698063,21.0209,179.873,0.101488,0.0,0.0
945,236,19.4274,20.0711,156.859,99.0972,97.5817,0.000462632,0.0697476,21.021,179.883,0.137205,0.0,0.0
952,237.75,19.4365,20.0226,150.025,99.0792,97.6643,0.00040368,0.0696696,21.021,179.873,0.128043,0.0,0.0
959,239.5,19.2159,20.0812,153.391,99.0736,98.0031,0.000384439,0.0694588,21.0207,179.873,0.0967126,0.0,0.0
966,241.25,19.0456,19.1489,148.23,99.0659,98.4835,0.000392387,0.0695074,21.0198,179.863,0.0524971,0.0,0.0
973,243,19.6238,20.6391,152.633,99.0643,97.7682,0.000420015,0.0696304,21.0188,179.853,0.117244,0.0,0.0
980,244.75,18.6752,20.256,152.498,99.0467,97.6313,0.000493272,0.0696158,21.0183,179.863,0.128135,0.0,0.0
987,246.5,19.4367,19.7419,146.551,99.0374,97.9378,0.000598119,0.0698032,21.0181,179.873,0.0993976,0.0,0.0
994,248.25,19.6632,20.4661,147.672,99.0318,97.3858,0.000698787,0.0700943,21.018,179.873,0.149212,0.0,0.0
1001,250,19.2528,20.1212,153.267,99.0137,98.2965,0.000788681,0.0701956,21.0184,179.873,0.0647227,0.0,0.0
1008,251.75,19.2839,20.3542,150.425,99.0057,98.1646,0.000790434,0.0701634,21.0188,179.853,0.0759509,0.0,0.0
1015,253.5,19.9428,20.2722,149.541,99.0005,97.8763,0.00067679,0.0699656,21.019,179.873,0.101666,0.0,0.0
1022,255.25,19.2641,19.9231,147.291,98.988,98.14,0.000576492,0.0699193,21.0191,179.863,0.0765917,0.0,0.0
1029,257,19.4239,20.6412,152.099,99.0149,98.0031,0.00048632,0.0697527,21.0191,179.853,0.0914422,0.0,0.0
1036,258.75,19.6609,20.0253,154.847,99.0394,98.196,0.00039379,0.0696249,21.0193,179.863,0.0761382,0.0,0.0
1043,260.5,19.2575,20.3596,152.315,99.092,97.6949,0.000362676,0.069497,21.02,179.873,0.126415,0.0,0.0
1050,262.25,19.1626,20.5547,149.231,99.1318,97.7436,0.000450139,0.0692547,21.0204,179.853,0.125545,0.0,0.0
1057,264,19.5494,20.3114,157.355,99.1667,97.981,0.000537355,0.0690512,21.0205,179.863,0.107083,0.0,0.0
1064,265.75,19.6713,20.6426,157.434,99.2141,98.4016,0.000522344,0.0689687,21.0206,179.853,0.073203,0.0,0.0
1071,267.5,19.2959,20.5573,154.378,99.2458,98.5589,0.000503108,0.0689407,21.0198,179.863,0.0618302,0.0,0.0
1078,269.25,19.5433,20.2477,156,99.2751,97.7114,0.00047935,0.0688662,21.019,179.873,0.141345,0.0,0.0
1085,271,19.3946,20.2387,151.608,99.3016,98.3673,0.000464008,0.0690308,21.0187,179.863,0.0841619,0.0,0.0
1092,272.75,19.1871,20.2559,153.334,99.3462,98.1807,0.00044423,0.0692127,21.0177,179.863,0.105057,0.0,0.0
1099,274.5,19.1872,20.3137,153.587,99.3667,98.1557,0.000409978,0.069339,21.0169,179.873,0.109161,0.0,0.0
1106,276.25,19.3944,20.3613,157.156,99.3924,98.3813,0.000369393,0.0693995,21.0173,179.853,0.0910283,0.0,0.0
1113,278,20.0562,20.2778,153.466,99.4137,97.9297,0.000345591,0.0693129,21.018,179.863,0.133888,0.0,0.0
1120,279.75,19.8312,20.7872,152.565,99.4438,98.0786,0.000338181,0.0692715,21.0183,179.853,0.123066,0.0,0.0
1127,281.5,19.4468,20.2118,150.88,99.4683,98.1625,0.000347599,0.0690963,21.0184,179.853,0.117643,0.0,0.0
1134,283.25,19.2957,19.6268,150.68,99.4819,98.9901,0.000389601,0.0687567,21.0185,179.863,0.0441226,0.0,0.0
1141,285,19.8439,20.1642,154.336,99.4948,98.2825,0.000442442,0.0685252,21.0185,179.853,0.10914,0.0,0.0
1148,286.75,19.6335,20.485,150.064,99.5117,98.6107,0.000513014,0.0683874,21.0188,179.843,0.0809729,0.0,0.0
1155,288.5,19.7727,20.4542,150.126,99.5321,98.4063,0.000590847,0.0683924,21.0199,179.853,0.101273,0.0,0.0
1162,290.25,19.4449,20.3709,152.482,99.545,98.5611,0.000668226,0.0683661,21.0196,179.853,0.0884333,0.0,0.0
1169,292,19.6605,20.5408,153.875,99.557,97.7449,0.000670398,0.0683184,21.019,179.843,0.163537,0.0,0.0
1176,293.75,19.5049,20.795,151.038,99.5574,98.464,0.00064278,0.0683184,21.0188,179.843,0.0983208,0.0,0.0
1183,295.5,18.6323,20.497,150.873,99.5675,98.21,0.00063631,0.0682449,21.0196,179.843,0.12221,0.0,0.0
1190,297.25,19.2462,20.1557,156.382,99.5803,98.6942,0.000627723,0.0680697,21.021,179.843,0.0795772,0.0,0.0
1197,299,19.4125,20.2414,151.836,99.5731,98.0251,0.000642111,0.0678305,21.0216,179.853,0.139484,0.0,0.0
1204,300.75,19.6556,20.0533,151.805,99.5739,97.998,0.000618553,0.0678073,21.0219,179.843,0.142022,0.0,0.0
1211,302.5,19.5801,20.1023,153.877,99.5747,98.1294,0.000536354,0.067705,21.0235,179.863,0.130161,0.0,0.0
1218,304.25,19.5795,20.299,152.043,99.5831,98.2316,0.000485443,0.0675598,21.0245,179.853,0.12165,0.0,0.0
1225,306,19.2158,19.9658,150.207,99.5747,98.9626,0.000515603,0.0674149,21.025,179.853,0.054898,0.0,0.0
1232,307.75,18.832,20.405,155.449,99.5651,98.2621,0.000588946,0.0672004,21.0262,179.843,0.117268,0.0,0.0
1239,309.5,19.5226,20.4925,152.786,99.5759,98.6119,0.000659102,0.0671307,21.027,179.853,0.0866048,0.0,0.0
1246,311.25,19.0148,20.401,151.471,99.5755,98.5,0.000680184,0.0671924,21.0274,179.853,0.096679,0.0,0.0
1253,313,19.0788,20.4907,152.301,99.5695,98.001,0.000626165,0.0670854,21.0267,179.853,0.141357,0.0,0.0
1260,314.75,19.429,19.309,153.867,99.5667,98.4601,0.000559068,0.0669963,21.0267,179.843,0.099491,0.0,0.0
1267,316.5,19.6367,20.3729,149.171,99.5422,98.6039,0.000524811,0.0669909,21.0268,179.843,0.0843154,0.0,0.0
1274,318.25,19.733,20.4206,151.815,99.5329,97.9323,0.000517601,0.0669863,21.0269,179.823,0.144331,0.0,0.0
1281,320,19.1878,19.9212,150.535,99.5289,97.9849,0.000580282,0.0670645,21.0267,179.843,0.139194,0.0,0.0
1288,321.75,20.5055,20.6178,148.705,99.5197,98.7887,0.000678779,0.067132,21.0256,179.843,0.0656298,0.0,0.0
1295,323.5,20.1965,20.4924,154.253,99.5016,98.6374,0.000755755,0.0671643,21.025,179.843,0.0776637,0.0,0.0
1302,325.25,19.6759,20.4606,152.55,99.4872,97.9743,0.000757821,0.0670137,21.0256,179.843,0.13642,0.0,0.0
1309,327,19.9132,20.7054,151.29,99.4791,98.2668,0.000704777,0.0668743,21.0263,179.833,0.109159,0.0,0.0
1316,328.75,19.5731,20.8722,151.869,99.4815,98.904,0.000715393,0.0668348,21.0266,179.823,0.0518303,0.0,0.0
1323,330.5,18.7951,20.4699,154.331,99.439,98.4105,0.000809236,0.0669706,21.0261,179.843,0.0925524,0.0,0.0
1330,332.25,19.73,20.7043,155.071,99.4161,98.5276,0.000895781,0.0670054,21.0253,179.843,0.0799243,0.0,0.0
1337,334,18.9837,20.637,149.212,99.4105,98.6039,0.000859996,0.067189,21.0251,179.833,0.0725283,0.0,0.0
1344,335.75,19.7927,20.2617,148.711,99.3916,97.9649,0.000808972,0.0673084,21.0253,179.823,0.128711,0.0,0.0
1351,337.5,19.0442,20.7914,150.212,99.3808,98.394,0.000818115,0.0673946,21.0254,179.833,0.0888347,0.0,0.0
1358,339.25,19.7483,20.7954,152.002,99.3502,98.7196,0.000814267,0.0675701,21.0254,179.833,0.0566877,0.0,0.0
1365,341,19.4012,19.8628,150.377,99.3322,97.9556,0.000749358,0.0676706,21.0254,179.833,0.124234,0.0,0.0
1372,342.75,19.7596,21.0038,150.557,99.3129,97.8081,0.000643102,0.0676134,21.025,179.833,0.135926,0.0,0.0
1379,344.5,18.8998,20.5698,151.157,99.2892,97.9552,0.00055983,0.0674917,21.0243,179.833,0.120421,0.0,0.0
1386,346.25,19.9727,20.4735,152.567,99.2691,98.1795,0.000529589,0.0674262,21.0236,179.843,0.0982609,0.0,0.0
1393,348,20.1008,20.5758,149.051,99.2354,98.2647,0.000534286,0.0672744,21.0233,179.833,0.0875107,0.0,0.0
1400,349.75,19.686,20.501,154.197,99.2133,97.5872,0.000496838,0.0671293,21.0232,179.833,0.147123,0.0,0.0
1407,351.5,19.5943,20.1818,151.667,99.19,98.3287,0.00044978,0.0672597,21.0231,179.813,0.0776417,0.0,0.0
1414,353.25,19.5939,20.6002,149.285,99.1707,98.0824,0.000434764,0.0672896,21.0231,179.843,0.098241,0.0,0.0
1421,355,19.8039,20.7842,150.82,99.1189,97.9077,0.000478006,0.0672651,21.023,179.843,0.109458,0.0,0.0
1428,356.75,19.5079,19.7964,149.229,99.0864,97.4082,0.000567093,0.0672786,21.023,179.833,0.152066,0.0,0.0
1435,358.5,19.7928,20.5183,156.87,99.0707,98.2375,0.00061792,0.0673952,21.023,179.813,0.075188,0.0,0.0
1442,360.25,19.7983,20.1763,154.359,99.0149,97.8831,0.000609103,0.0674413,21.023,179.833,0.102348,0.0,0.0
1449,362,19.6027,20.5786,155.355,98.9683,97.8034,0.00059563,0.0673892,21.023,179.843,0.105412,0.0,0.0
1456,363.75,18.2468,20.6128,151.663,98.9234,97.7453,0.000585072,0.0674167,21.023,179.843,0.106654,0.0,0.0
1463,365.5,19.2882,20.5815,150.857,98.8937,97.8051,0.000609643,0.0674281,21.0234,179.843,0.0985359,0.0,0.0
1470,367.25,19.1504,20.8141,150.034,98.8455,97.7199,0.000643564,0.067454,21.0238,179.843,0.101958,0.0,0.0
1477,369,19.8324,20.4623,151.975,98.7957,97.6966,0.00064373,0.0675175,21.0241,179.853,0.0995959,0.0,0.0
1484,370.75,19.7717,20.1026,152.392,98.7595,97.3133,0.000556635,0.0676569,21.0235,179.813,0.131333,0.0,0.0
1491,372.5,19.4943,20.053,150.767,98.7639,97.3023,0.000459724,0.0677991,21.0227,179.833,0.13274,0.0,0.0
1498,374.25,19.703,20.1053,150.511,98.7744,97.5906,0.000419421,0.0679503,21.0223,179.843,0.107343,0.0,0.0
1505,376,20.1564,20.5858,153.05,98.772,97.8772,0.000350505,0.067974,21.0221,179.833,0.0810181,0.0,0.0
1512,377.75,19.6322,20.3441,151.231,98.7784,97.5761,0.000319519,0.0679281,21.022,179.823,0.109019,0.0,0.0
1519,379.5,19.6492,20.191,148.724,98.7836,97.8992,0.000370958,0.0679322,21.0219,179.833,0.0800621,0.0,0.0
1526,381.25,19.6181,20.8428,151.647,98.7941,98.1612,0.000428681,0.0680331,21.0219,179.833,0.0572086,0.0,0.0
1533,383,19.8926,20.6391,155.838,98.7917,97.5863,0.000485581,0.0681487,21.0219,179.823,0.109285,0.0,0.0
1540,384.75,19.7595,20.2892,155.834,98.8137,97.6423,0.000557502,0.0682529,21.0219,179.833,0.106171,0.0,0.0
1547,386.5,19.9418,20.7734,150.816,98.8133,97.7708,0.000500481,0.0682617,21.0219,179.823,0.0944301,0.0,0.0
1554,388.25,19.8033,20.4499,146.822,98.8214,97.8009,0.00035667,0.0683831,21.022,179.833,0.0924127,0.0,0.0
1561,390,19.6386,20.622,151.559,98.8435,97.4897,0.000209443,0.068365,21.0231,179.843,0.122775,0.0,0.0
1568,391.75,19.7965,20.4582,150.851,98.8483,97.697,0.000187159,0.068184,21.024,179.843,0.104296,0.0,0.0
1575,393.5,19.8014,20.5087,149.828,98.8531,97.7898,0.000224857,0.0681604,21.0245,179.823,0.0962738,0.0,0.0
1582,395.25,19.8542,20.2367,151.275,98.8583,97.8806,0.000250481,0.0681616,21.0247,179.833,0.0884879,0.0,0.0
1589,397,19.7892,20.4646,149.68,98.8788,98.5123,0.000217039,0.0680531,21.0248,179.823,0.0330593,0.0,0.0
1596,398.75,19.8594,20.3952,151.568,98.8864,97.8954,0.00018641,0.0679099,21.0249,179.813,0.0896699,0.0,0.0
1603,400.5,19.8137,20.4845,150.09,98.8973,97.4511,0.000180475,0.0677925,21.0249,179.823,0.131144,0.0,0.0
1610,402.25,19.4719,19.8849,154.458,98.8924,98.2439,0.00024075,0.0677665,21.0249,179.823,0.0585751,0.0,0.0
1617,404,20.0714,20.5479,148.409,98.9133,97.7135,0.000342847,0.0677519,21.0245,179.833,0.108647,0.0,0.0
1624,405.75,19.9036,20.5743,144.908,98.9378,97.7826,0.000434687,0.067975,21.0235,179.823,0.104557,0.0,0.0
1631,407.5,19.9304,19.9456,151.7,98.9374,97.9793,0.000461895,0.0680729,21.023,179.823,0.0866289,0.0,0.0
1638,409.25,19.6703,20.4626,156.551,98.9318,97.6995,0.000410741,0.0681315,21.0228,179.833,0.111584,0.0,0.0
1645,411,19.7757,20.6316,149.562,98.9491,98.4402,0.000329819,0.0682867,21.0227,179.813,0.0458997,0.0,0.0
1652,412.75,19.927,21.3394,153.008,98.9563,98.3783,0.000237156,0.0684041,21.022,179.813,0.05215,0.0,0.0
1659,414.5,19.8387,20.3061,154.255,98.9623,97.9475,0.00023279,0.0684341,21.0211,179.813,0.0917583,0.0,0.0
1666,416.25,19.7378,20.3691,152.654,98.9691,98.5187,0.00028012,0.068441,21.0211,179.803,0.0406149,0.0,0.0
1673,418,19.8868,20.4771,152.328,98.9724,97.8106,0.000260992,0.0682802,21.0218,179.803,0.105116,0.0,0.0
1680,419.75,19.866,20.7614,152.065,98.9884,97.6592,0.000182914,0.0681375,21.0222,179.813,0.120349,0.0,0.0
1687,421.5,19.8224,20.6784,153.391,99.0041,98.1638,0.00019525,0.0681239,21.0224,179.813,0.0758825,0.0,0.0
1694,423.25,19.4138,20.8223,153.301,98.9989,97.6618,0.00032327,0.0681256,21.0225,179.803,0.121055,0.0,0.0
1701,425,19.6063,20.1042,156.645,98.984,97.7754,0.000411764,0.0680302,21.0225,179.803,0.109368,0.0,0.0
1708,426.75,19.733,20.3082,151.516,99.0129,97.9598,0.00043959,0.06808,21.0225,179.813,0.0951913,0.0,0.0
1715,428.5,19.9138,20.3161,151.234,99.021,98.0599,0.000416875,0.0680394,21.0226,179.803,0.0868244,0.0,0.0
1722,430.25,19.6709,20.6984,151.976,99.0133,97.814,0.000334285,0.0679829,21.0226,179.823,0.108492,0.0,0.0
1729,432,19.7602,20.5707,152.598,99.0374,97.8191,0.000244081,0.0679592,21.0226,179.813,0.110195,0.0,0.0
1736,433.75,19.6211,20.462,152.469,99.0254,98.0629,0.00015651,0.0677785,21.0226,179.813,0.0869526,0.0,0.0
1743,435.5,19.5776,20.0058,154.711,99.0298,98.1485,0.000112671,0.0676127,21.0228,179.803,0.0795783,0.0,0.0
1750,437.25,19.6643,20.6569,150.665,99.0346,97.3684,0.000149437,0.0674965,21.023,179.813,0.151054,0.0,0.0
1757,439,19.6147,20.3251,151.089,99.0358,97.9615,0.000289947,0.0674107,21.0231,179.813,0.0970947,0.0,0.0
1764,440.75,19.6803,20.2906,148.007,99.0354,97.9183,0.00039071,0.0672565,21.024,179.813,0.100989,0.0,0.0
1771,442.5,19.5855,20.4567,152.804,99.045,98.207,0.000397826,0.0669226,21.0248,179.823,0.0756447,0.0,0.0
1778,444.25,20.0209,20.1742,150.689,99.0471,98.1502,0.000302392,0.066781,21.0252,179.823,0.080976,0.0,0.0
1785,446,19.8158,20.3167,150.77,99.0382,97.8772,0.000262602,0.0667871,21.0254,179.823,0.104982,0.0,0.0
1792,447.75,19.6399,20.8873,152.011,99.0438,98.0133,0.000369725,0.066794,21.0261,179.813,0.0931174,0.0,0.0
1799,449.5,19.7979,20.754,147.852,99.0603,98.0078,0.000543011,0.0667446,21.0271,179.813,0.0950979,0.0,0.0
1806,451.25,19.8473,20.7684,152.785,99.0571,97.7305,0.000580965,0.0665811,21.0273,179.813,0.120032,0.0,0.0
1813,453,19.4565,20.613,154.007,99.0571,97.6906,0.000436233,0.0666782,21.0269,179.803,0.123663,0.0,0.0
1820,454.75,19.5369,20.745,150.273,99.0563,97.6537,0.00030042,0.0666296,21.0267,179.803,0.126953,0.0,0.0
1827,456.5,19.8617,20.5447,153.869,99.0503,98.0039,0.000309427,0.066553,21.0265,179.803,0.0945424,0.0,0.0
1834,458.25,19.7061,20.7305,150.918,99.0579,97.7241,0.000394001,0.066561,21.0262,179.793,0.120683,0.0,0.0
1841,460,19.9388,20.7962,151.584,99.0675,98.0841,0.000522209,0.0666751,21.0247,179.793,0.0888168,0.0,0.0
1848,461.75,19.854,21.1618,154.006,99.0611,98.3113,0.000572444,0.0666929,21.0238,179.793,0.0676374,0.0,0.0
1855,463.5,20.0329,20.7977,152.616,99.0434,97.5812,0.000560305,0.0668173,21.0224,179.803,0.132409,0.0,0.0
1862,465.25,20.3892,20.7397,149.202,99.0547,98.4517,0.000559205,0.0667577,21.0219,179.803,0.0543622,0.0,0.0
1869,467,20.1273,21.0482,148.061,99.0667,97.3595,0.000610676,0.0668464,21.0213,179.783,0.154756,0.0,0.0
1876,468.75,19.8782,20.8251,153.571,99.0639,97.8233,0.000630296,0.0668773,21.0218,179.793,0.112191,0.0,0.0
1883,470.5,19.8878,21.0364,148.623,99.0607,97.691,0.000605352,0.0667374,21.0226,179.793,0.123949,0.0,0.0
1890,472.25,19.6888,20.9302,151.569,99.0679,97.7576,0.000545361,0.066631,21.0233,179.793,0.118534,0.0,0.0
1897,474,20.6723,21.1516,151.184,99.0607,98.0853,0.000460342,0.0666713,21.0236,179.783,0.0880897,0.0,0.0
1904,475.75,20.1269,20.743,149.673,99.0583,98.6242,0.000381488,0.066677,21.0237,179.793,0.0390967,0.0,0.0
1911,477.5,19.9075,20.9498,152.321,99.0535,98.319,0.000327161,0.0666919,21.0238,179.783,0.0662618,0.0,0.0
1918,479.25,19.9701,20.3162,150.686,99.0736,97.9721,0.000312288,0.0667522,21.0239,179.783,0.0995235,0.0,0.0
1925,481,19.6643,20.848,153.827,99.0663,97.6419,0.000351768,0.0666457,21.0242,179.783,0.128937,0.0,0.0
1932,482.75,19.8991,20.8505,155.045,99.0567,97.7941,0.000427485,0.066583,21.0256,179.783,0.114204,0.0,0.0
1939,484.5,19.981,20.8429,154.653,99.0663,98.015,0.000479339,0.0666073,21.0262,179.793,0.0949845,0.0,0.0
1946,486.25,19.9364,20.8695,152.252,99.0587,98.0451,0.000471935,0.0666717,21.0266,179.793,0.0915651,0.0,0.0
1953,488,19.8659,20.6307,155.003,99.0563,98.2448,0.000416417,0.0666625,21.0267,179.793,0.0732346,0.0,0.0
1960,489.75,19.7805,20.3967,152.831,99.0575,97.7474,0.000398704,0.0664805,21.0268,179.793,0.118523,0.0,0.0
1967,491.5,19.8962,20.7156,147.565,99.0495,98.0353,0.000386166,0.0664149,21.0269,179.803,0.0916207,0.0,0.0
1974,493.25,19.9614,20.7247,152.801,99.0667,98.6772,0.00035748,0.0663573,21.0269,179.803,0.0350722,0.0,0.0
1981,495,19.6121,21.1098,156.174,99.0559,97.4557,0.00033738,0.0665101,21.0269,179.793,0.144985,0.0,0.0
1988,496.75,19.98,20.7008,149.368,99.0591,98.037,0.000286894,0.0664421,21.0269,179.793,0.0923329,0.0,0.0
1995,498.5,20.0483,20.7509,153.008,99.0643,97.6342,0.000196837,0.0662607,21.0279,179.793,0.129452,0.0,0.0
2002,500.25,20.0147,20.696,150.339,99.0595,98.2053,5.72168e-05,0.0661215,21.0286,179.783,0.0770977,0.0,0.0
2009,502,19.7058,20.8379,152.503,99.0567,98.5373,-2.41196e-05,0.0660549,21.0286,179.783,0.0468003,0.0,0.0
2016,503.75,19.8824,20.3408,152.118,99.0635,98.1244,1.53847e-06,0.0661266,21.0275,179.783,0.0848021,0.0,0.0
2023,505.5,19.9225,20.8011,150.653,99.0611,98.4254,7.67495e-05,0.0661967,21.0272,179.793,0.0573162,0.0,0.0
2030,507.25,19.6833,20.6925,149.638,99.0623,98.5687,0.000179466,0.0662293,21.028,179.783,0.0444722,0.0,0.0
2037,509,19.6667,20.6486,148.112,99.0575,98.3864,0.000299526,0.0662383,21.0287,179.793,0.0605211,0.0,0.0
2044,510.75,20.0138,20.6132,156.188,99.0615,97.9908,0.000388261,0.0663261,21.029,179.783,0.0967462,0.0,0.0
2051,512.5,20.0278,20.8957,156.571,99.0579,98.1667,0.000418627,0.0664223,21.0291,179.773,0.0804512,0.0,0.0
2058,514.25,19.7247,20.8143,150.549,99.0619,97.7979,0.000441621,0.0663765,21.0292,179.783,0.114325,0.0,0.0
2065,516,19.7016,20.603,156.464,99.0587,98.0849,0.000508402,0.0662741,21.0292,179.783,0.0879468,0.0,0.0
2072,517.75,20.039,20.69,150.249,99.0543,97.4956,0.000585188,0.0662795,21.0292,179.783,0.141201,0.0,0.0
2079,519.5,19.8939,20.686,152.37,99.0728,98.029,0.00064448,0.0661098,21.0293,179.783,0.0942915,0.0,0.0
2086,521.25,19.7796,20.4717,152.679,99.0603,97.7445,0.000667539,0.0659928,21.0293,179.783,0.119045,0.0,0.0
2093,523,19.8965,20.7949,151.434,99.0619,98.2142,0.00066421,0.0659912,21.0293,179.773,0.0765064,0.0,0.0
2100,524.75,19.3963,20.4132,153.34,99.0599,97.8979,0.000672412,0.0660809,21.0293,179.793,0.105041,0.0,0.0
2107,526.5,19.8627,20.9022,156.087,99.0619,98.2393,0.00068805,0.0661417,21.0293,179.783,0.0742398,0.0,0.0
2114,528.25,19.7602,20.3415,150.016,99.0575,98.2202,0.000691857,0.0662196,21.0295,179.793,0.0755721,0.0,0.0
2121,530,19.9781,20.7566,152.865,99.0768,98.246,0.000667517,0.0663066,21.0285,179.783,0.0749596,0.0,0.0
2128,531.75,20.0043,20.851,153.972,99.0579,98.3779,0.000656976,0.0664103,21.028,179.783,0.0613232,0.0,0.0
2135,533.5,20.1152,20.7828,154.874,99.0683,98.2138,0.000621344,0.0664945,21.0278,179.783,0.077123,0.0,0.0
2142,535.25,20.0651,20.4718,150.869,99.0639,98.0803,0.000509562,0.066564,21.0274,179.783,0.0888399,0.0,0.0
2149,537,20.0178,20.9949,152.295,99.0611,98.7035,0.000443656,0.0666228,21.0263,179.783,0.0321944,0.0,0.0
2156,538.75,19.6589,20.8427,157.042,99.0675,98.0438,0.00044153,0.066663,21.0257,179.773,0.0924747,0.0,0.0
2163,540.5,19.8728,20.8319,153.52,99.0607,98.3304,0.000457139,0.0668115,21.0264,179.773,0.0658742,0.0,0.0
2170,542.25,19.9401,20.579,151.705,99.0643,98.1515,0.000480819,0.0668406,21.0264,179.783,0.0824124,0.0,0.0
2177,544,20.1344,20.8597,152.658,99.0659,97.5698,0.000478273,0.0668395,21.0271,179.773,0.135475,0.0,0.0
2184,545.75,19.9173,20.9263,154.935,99.0639,98.7904,0.000476295,0.0669035,21.0266,179.773,0.0246126,0.0,0.0
2191,547.5,19.5079,20.9314,150.813,99.0864,97.8683,0.000479778,0.0669303,21.0263,179.783,0.110122,0.0,0.0
2198,549.25,20.2301,20.8521,152.966,99.0683,98.4067,0.000495848,0.0669454,21.0262,179.783,0.0596536,0.0,0.0
2205,551,19.8229,20.6242,149.783,99.0808,98.232,0.000565618,0.0669887,21.0254,179.793,0.0765885,0.0,0.0
2212,552.75,19.6676,21.0758,152.53,99.0816,97.58,0.000588073,0.06715,21.0243,179.773,0.135953,0.0,0.0
2219,554.5,20.2009,20.6045,153.176,99.0748,98.3541,0.000520747,0.0672809,21.0235,179.763,0.0649882,0.0,0.0
2226,556.25,20.1171,20.5845,153.496,99.0856,98.1744,0.000372705,0.0673973,21.0229,179.783,0.0822484,0.0,0.0
2233,558,19.555,20.8875,149.966,99.0844,98.0035,0.000232999,0.0675616,21.0226,179.773,0.0976479,0.0,0.0
2240,559.75,19.7211,20.8015,154.77,99.0804,97.9386,0.000189238,0.0677613,21.0225,179.753,0.103182,0.0,0.0
2247,561.5,19.6018,20.9494,151.84,99.078,98.2727,0.000174105,0.0679649,21.0224,179.763,0.0726483,0.0,0.0
2254,563.25,19.7062,20.5378,154.222,99.0788,98.0357,0.000213302,0.0680268,21.0224,179.783,0.0942159,0.0,0.0
2261,565,19.668,20.3981,147.295,99.0804,98.0616,0.000299085,0.0681234,21.0224,179.763,0.0920125,0.0,0.0
2268,566.75,20.142,21.0584,152.455,99.0832,98.6603,0.000438546,0.0683055,21.0224,179.763,0.0380813,0.0,0.0
2275,568.5,19.7303,20.8245,150.986,99.0912,97.8365,0.00058341,0.0683729,21.0224,179.763,0.113448,0.0,0.0
2282,570.25,20.0896,20.51,152.292,99.092,98.5458,0.000576912,0.06833,21.0224,179.763,0.0492101,0.0,0.0
2289,572,20.0147,21.01,154.999,99.0848,98.2931,0.000420804,0.0682487,21.0224,179.773,0.0714188,0.0,0.0
2296,573.75,20.3895,20.7597,155.492,99.086,98.2579,0.000275566,0.0681706,21.023,179.753,0.0747144,0.0,0.0
2303,575.5,19.6243,20.9492,151.827,99.0908,98.2422,0.000227208,0.068001,21.0226,179.753,0.0765685,0.0,0.0
2310,577.25,20.0289,20.8922,153.887,99.088,98.1078,0.000260268,0.0677722,21.023,179.773,0.0885026,0.0,0.0
2317,579,20.0096,20.6196,156.428,99.0908,97.7186,0.000301361,0.0677226,21.0233,179.773,0.124143,0.0,0.0
2324,580.75,19.7401,20.4777,151.105,99.0808,97.9658,0.000301388,0.0676775,21.0227,179.773,0.100751,0.0,0.0
2331,582.5,20.0224,20.9433,151.869,99.0796,98.0489,0.000289858,0.0676809,21.0225,179.773,0.0930943,0.0,0.0
2338,584.25,19.8969,20.6071,153.411,99.0776,97.8882,0.00027353,0.0677132,21.0223,179.773,0.107517,0.0,0.0
2345,586,20.1511,20.7792,151.781,99.0715,97.5388,0.000305173,0.0677613,21.0223,179.763,0.138805,0.0,0.0
2352,587.75,19.9139,20.8759,151.532,99.0667,98.4716,0.000307602,0.0678359,21.023,179.763,0.0536428,0.0,0.0
2359,589.5,20.2859,20.6562,154.681,99.0679,97.7097,0.000252253,0.0679248,21.0238,179.763,0.122898,0.0,0.0
2366,591.25,20.1323,21.0926,150.341,99.0639,98.252,0.000202137,0.0681293,21.0242,179.753,0.0732672,0.0,0.0
2373,593,19.9959,20.4922,148.118,99.0587,98.316,0.000189398,0.0680233,21.0244,179.753,0.0670002,0.0,0.0
2380,594.75,20.0177,21.1829,149.413,99.0454,98.0786,0.000219525,0.0679391,21.0245,179.763,0.0873331,0.0,0.0
2387,596.5,20.1416,20.9321,147.112,99.0495,98.478,0.000239111,0.0678049,21.0245,179.753,0.0515159,0.0,0.0
2394,598.25,19.9078,21.1277,155.113,99.0382,98.1167,0.000243193,0.0677357,21.0242,179.753,0.0832199,0.0,0.0
2401,600,19.9185,20.9261,148.742,99.045,98.3198,0.00025543,0.0677718,21.0241,179.753,0.0654264,0.0,0.0
2408,601.75,20.3276,20.892,152.654,99.0093,98.1371,0.000285016,0.0677286,21.024,179.753,0.0787757,0.0,0.0
2415,603.5,19.8373,20.4973,150.655,99.0053,97.8988,0.00032053,0.0676121,21.0239,179.753,0.100055,0.0,0.0
2422,605.25,19.4261,20.3018,150.87,99.0045,98.4305,0.000325523,0.0674984,21.0239,179.543,0.0517659,0.0,0.0
2429,607,19.5974,20.3622,149.812,98.9973,97.4439,0.00026723,0.0674343,21.0235,179.733,0.140799,0.0,0.0
2436,608.75,19.4257,20.3514,152.426,98.9808,98.2812,0.000244962,0.06727,21.0233,179.783,0.0631443,0.0,0.0
2443,610.5,19.4256,20.6516,156.196,98.9643,97.8513,0.000285369,0.0674382,21.0231,179.753,0.10069,0.0,0.0
2450,612.25,19.6826,20.2577,149.706,98.9579,97.7245,0.000343456,0.067756,21.0231,179.763,0.111653,0.0,0.0
2457,614,19.6719,20.2834,151.426,98.9451,98.3703,0.000378585,0.0682279,21.0218,179.763,0.0518672,0.0,0.0
2464,615.75,19.4358,20.683,153.814,98.929,97.125,0.000412982,0.0686664,21.0212,179.753,0.163835,0.0,0.0
2471,617.5,19.4531,20.3499,154.271,98.9177,97.7597,0.000467189,0.0689638,21.0209,179.743,0.104835,0.0,0.0
2478,619.25,18.9976,20.3772,150.463,98.8965,97.8263,0.000495579,0.0692035,21.0208,179.743,0.0968596,0.0,0.0
2485,621,19.4113,20.5509,151.04,98.9218,97.3879,0.000500587,0.0691386,21.0204,179.753,0.139122,0.0,0.0
2492,622.75,19.4554,20.5646,151.307,98.888,98.3698,0.000517017,0.0689543,21.0201,179.753,0.0467739,0.0,0.0
2499,624.5,19.0212,20.6859,151.962,98.8599,97.4273,0.000502497,0.0687784,21.02,179.753,0.129951,0.0,0.0
2506,626.25,19.5506,20.3336,152.333,98.8511,98.5386,0.000402988,0.0686188,21.0206,179.753,0.028189,0.0,0.0
2513,628,19.0883,20.1536,151.046,98.8318,97.9747,0.000269439,0.0684172,21.0214,179.763,0.0775438,0.0,0.0
2520,629.75,19.9383,20.3782,153.561,98.8029,97.4032,0.000187266,0.0682021,21.0221,179.753,0.127023,0.0,0.0
2527,631.5,19.6341,20.2199,153.728,98.7752,97.1852,0.000197217,0.0679264,21.0234,179.743,0.144466,0.0,0.0
2534,633.25,19.3914,20.4264,150.454,98.7563,97.6622,0.000362196,0.0675321,21.024,179.743,0.0991793,0.0,0.0
2541,635,19.508,20.5671,151.237,98.737,97.5477,0.000588045,0.0672656,21.0243,179.753,0.107883,0.0,0.0
2548,636.75,19.4636,20.4196,151.751,98.717,97.7097,0.000716249,0.0671308,21.0244,179.753,0.0913035,0.0,0.0
2555,638.5,19.5393,20.3072,151.379,98.7001,97.3603,0.000665916,0.0670353,21.0245,179.763,0.12167,0.0,0.0
2562,640.25,19.7136,20.0672,159.031,98.6736,97.7377,0.000601697,0.0670198,21.0245,179.743,0.0848431,0.0,0.0
2569,642,19.6541,20.3142,155.733,98.6471,97.7623,0.000618906,0.0671286,21.0245,179.743,0.0802114,0.0,0.0
2576,643.75,19.8223,20.3867,152.142,98.6218,97.627,0.000618306,0.0670989,21.0246,179.753,0.090253,0.0,0.0
2583,645.5,19.4936,20.0825,153.53,98.5921,97.5015,0.000600176,0.0671959,21.0246,179.733,0.0990208,0.0,0.0
2590,647.25,19.3075,20.3485,155.332,98.5724,98.2931,0.000588751,0.0672849,21.0258,179.743,0.0252613,0.0,0.0
2597,649,19.0547,20.5268,150.066,98.5411,97.6249,0.00054245,0.0671976,21.0258,179.743,0.0831579,0.0,0.0
2604,650.75,19.7202,20.4621,154.036,98.517,97.3701,0.00045338,0.0671083,21.0256,179.743,0.104247,0.0,0.0
2611,652.5,19.476,20.2818,152.743,98.4949,97.3811,0.000384253,0.0672072,21.0255,179.733,0.101243,0.0,0.0
2618,654.25,19.822,20.1057,155.468,98.4636,97.4837,0.000341077,0.0672059,21.0255,179.733,0.0890364,0.0,0.0
2625,656,19.7772,20.3962,152.816,98.4491,97.8462,0.000305722,0.0671223,21.0254,179.753,0.054686,0.0,0.0
2632,657.75,18.8694,20.079,150.634,98.4391,97.5842,0.000325163,0.0670007,21.0254,179.753,0.0776511,0.0,0.0
2639,659.5,19.3991,20.2641,151.695,98.4335,97.7258,0.000360365,0.0669383,21.0253,179.733,0.0642328,0.0,0.0
2646,661.25,19.5155,19.7112,148.46,98.4098,98.4936,0.000376573,0.0670342,21.0249,179.743,-0.00758379,0.0,0.0
2653,663,19.9227,20.1261,149.568,98.3949,97.3048,0.000384993,0.0670415,21.0255,179.743,0.0991803,0.0,0.0
2660,664.75,19.9031,20.1747,151.251,98.3744,97.5867,0.000411173,0.0669857,21.0263,179.723,0.0715693,0.0,0.0
2667,666.5,19.5147,20.4388,153.258,98.3744,97.5176,0.000423714,0.0668636,21.0254,179.723,0.0778752,0.0,0.0
2674,668.25,19.2299,20.7094,154.946,98.3676,97.2912,0.000395127,0.0668305,21.0262,179.733,0.0979513,0.0,0.0
2681,670,19.6838,20.3166,152.334,98.3487,97.68,0.000382033,0.0667876,21.0266,179.733,0.0607382,0.0,0.0
2688,671.75,19.0876,20.0318,158.03,98.3443,97.5562,0.000384163,0.0667742,21.0277,179.723,0.0716283,0.0,0.0
2695,673.5,19.7215,20.5059,156.758,98.3419,97.4061,0.000412944,0.0666597,21.0285,179.723,0.0851175,0.0,0.0
2702,675.25,19.7159,20.2045,150.37,98.3503,97.1437,0.000438422,0.0666405,21.0289,179.733,0.109899,0.0,0.0
2709,677,19.1553,20.456,155.223,98.3391,98.179,0.000397597,0.0666285,21.0291,179.723,0.0145009,0.0,0.0
2716,678.75,19.801,20.1545,152.835,98.3335,97.934,0.000309178,0.0666559,21.0292,179.743,0.0362413,0.0,0.0
2723,680.5,19.2391,20.6261,151.492,98.3178,97.8717,0.000241563,0.0667113,21.0294,179.723,0.0404903,0.0,0.0
2730,682.25,19.3727,20.4076,155.915,98.3403,97.2751,0.000264905,0.0667883,21.029,179.723,0.0969541,0.0,0.0
2737,684,19.4775,20.2363,151.165,98.3355,97.2493,0.000369036,0.0668367,21.0288,179.713,0.0988844,0.0,0.0
2744,685.75,18.9836,20.521,150.892,98.3443,97.3599,0.000483506,0.0668813,21.0283,179.723,0.0895607,0.0,0.0
2751,687.5,19.618,20.6618,150.202,98.3391,97.4392,0.000522975,0.0669312,21.028,179.713,0.0818415,0.0,0.0
2758,689.25,19.7634,20.0533,148.111,98.3568,97.7669,0.000490256,0.06697,21.0279,179.723,0.0535478,0.0,0.0
2765,691,19.5348,19.9962,152.815,98.3439,97.6385,0.000340988,0.0670121,21.0261,179.723,0.0640895,0.0,0.0
2772,692.75,18.8252,19.9136,152.102,98.3624,97.8047,0.000213103,0.0670698,21.0247,179.713,0.05062,0.0,0.0
2779,694.5,18.9833,20.3416,148.148,98.3572,97.7466,0.000172045,0.0669831,21.023,179.733,0.0554369,0.0,0.0
2786,696.25,18.8544,19.6195,155.185,98.3684,97.8695,0.000300238,0.066885,21.0223,179.713,0.0452631,0.0,0.0
2793,698,19.2237,20.585,151.792,98.3584,97.8314,0.000406663,0.0669177,21.023,179.713,0.0478263,0.0,0.0
2800,699.75,19.4755,19.7972,149.983,98.3564,97.7156,0.000413271,0.0668582,21.0234,179.713,0.0581829,0.0,0.0
2807,701.5,19.3485,20.1074,150.154,98.354,97.97,0.00035726,0.0667511,21.0235,179.703,0.0348185,0.0,0.0
2814,703.25,19.6818,20.4814,151.256,98.3399,97.3124,0.000242569,0.0668034,21.0236,179.703,0.0935028,0.0,0.0
2821,705,19.8106,20.1657,151.005,98.3511,97.4583,0.000188398,0.0666724,21.0237,179.713,0.0811884,0.0,0.0
2828,706.75,19.313,20.4997,152.492,98.3576,96.9966,0.000198193,0.0666155,21.0237,179.713,0.124046,0.0,0.0
2835,708.5,19.3022,20.2872,152.935,98.3527,97.641,0.000232408,0.0665351,21.0237,179.693,0.0646574,0.0,0.0
2842,710.25,19.3053,20.6012,148.148,98.3463,97.9255,0.000335528,0.0664359,21.0237,179.713,0.0381742,0.0,0.0
2849,712,19.3814,20.4618,154.12,98.358,97.6893,,0.066517,,179.713,0.0607235,0.0,0.0
2856,713.75,19.5619,20.2145,149.361,98.3556,98.1231,,,,179.703,0.0210675,0.0,0.0
2863,715.5,18.7406,20.6226,150.117,98.3475,97.488,,,,179.713,0.0781508,0.0,0.0
2870,717.25,19.4673,20.2018,148.506,98.3403,97.708,,,,179.713,0.0574258,0.0,0.0
2877,719,19.4496,20.3768,152.149,98.3283,97.6181,,,,179.733,0.0645278,0.0,0.0
2884,720.75,19.4283,19.9929,152.138,98.3266,96.994,,,,179.723,0.121481,0.0,0.0
2886,721.25,19.4436,20.5998,152.401,98.3287,97.5147,,,,179.713,0.0740029,0.0,0.0