File: 01_Data/Composite_Deck_Board/STA/N2/30K_min/Composite_Deck_Board_STA_N2_30KData_210629_R1.csv
##Temp./Â°C,Time/min,Mass loss(subtr.2)/mg,DSC(subtr.2)/mW,Sensit./(uV/mW)
50.673,10.01,0.00976,-0.14561,0.6235
51.273,11.00721,0.008926338,-0.006544119,0.62349
51.873,11.21734,0.009277913,0.10858,0.62349
52.473,11.36079,0.008657475,0.21451,0.62348
53.073,11.4739,0.009754777,0.29815,0.62347
53.673,11.56785,0.01050042,0.3956,0.62346
54.273,11.6516,0.01039931,0.48181,0.62345
54.873,11.72673,0.009295934,0.57676,0.62345
55.473,11.79617,0.01024369,0.64947,0.62344
56.073,11.85908,0.00932822,0.72546,0.62342
56.673,11.91745,0.00849647,0.80805,0.62341
57.273,11.97277,0.009059334,0.88508,0.6234
57.873,12.02673,0.01004491,0.93958,0.62339
58.473,12.0771,0.00973731,1.00146,0.62338
59.073,12.12584,0.00875026,1.08675,0.62336
59.673,12.17256,0.009315012,1.12649,0.62335
60.273,12.2178,0.009221784,1.19076,0.62333
60.873,12.26179,0.01041328,1.24384,0.62332
61.473,12.30428,0.009058999,1.30011,0.6233
62.073,12.34558,0.007450695,1.33757,0.62329
62.673,12.3858,0.009081749,1.39057,0.62327
63.273,12.42522,0.009384656,1.42727,0.62325
63.873,12.4641,0.009306087,1.46584,0.62324
64.473,12.5021,0.008657477,1.51447,0.62322
65.073,12.53882,0.009135868,1.54404,0.6232
65.673,12.57564,0.007846139,1.58741,0.62318
66.273,12.61152,0.009595372,1.60967,0.62316
66.873,12.64737,0.00896031,1.65571,0.62314
67.473,12.68238,0.008952128,1.68605,0.62312
68.073,12.7172,0.007687386,1.7051,0.6231
68.673,12.75165,0.007267234,1.74147,0.62308
69.273,12.78549,0.00743595,1.77357,0.62305
69.873,12.81888,0.008218,1.7973,0.62303
70.473,12.8518,0.008094549,1.83733,0.62301
71.073,12.88445,0.00934384,1.85222,0.62298
71.673,12.91676,0.009764119,1.88425,0.62296
72.273,12.9489,0.00843098,1.92385,0.62293
72.873,12.98062,0.008107971,1.95062,0.62291
73.473,13.01224,0.00793566,1.97398,0.62288
74.073,13.04373,0.007912876,1.99312,0.62285
74.673,13.07494,0.008255459,2.01964,0.62283
75.273,13.10524,0.00799449,2.03917,0.6228
75.873,13.1357,0.007405105,2.07784,0.62277
76.473,13.1663,0.006460256,2.10257,0.62274
77.073,13.197,0.007796762,2.11898,0.62271
77.673,13.2272,0.007749864,2.15033,0.62268
78.273,13.2571,0.00708406,2.18953,0.62265
78.873,13.287,0.00760857,2.20731,0.62262
79.473,13.3165,0.00572268,2.24539,0.62259
80.073,13.3458,0.004725664,2.25704,0.62256
80.673,13.37495,0.004677023,2.29149,0.62252
81.273,13.4039,0.006346187,2.31389,0.62249
81.873,13.4328,0.007409905,2.34756,0.62246
82.473,13.4615,0.00683653,2.37585,0.62242
83.073,13.49015,0.007788147,2.40522,0.62239
83.673,13.51861,0.00767534,2.42473,0.62235
84.273,13.54674,0.007832356,2.46834,0.62232
84.873,13.5746,0.008045695,2.49089,0.62228
85.473,13.60239,0.007866249,2.5225,0.62224
86.073,13.63006,0.00723403,2.5456,0.62221
86.673,13.65756,0.00637377,2.56316,0.62217
87.273,13.68491,0.004815918,2.60219,0.62213
87.873,13.7122,0.004060037,2.62823,0.62209
88.473,13.7393,0.0034072,2.66603,0.62205
89.073,13.7664,0.004557531,2.68364,0.62201
89.673,13.79323,0.005145775,2.72031,0.62197
90.273,13.81971,0.004833144,2.74498,0.62193
90.873,13.84624,0.005738381,2.775,0.62189
91.473,13.8726,0.005080485,2.80922,0.62185
92.073,13.89906,0.004864208,2.83505,0.62181
92.673,13.92535,0.00482112,2.86067,0.62176
93.273,13.9514,0.00490686,2.88592,0.62172
93.873,13.97719,0.004870281,2.90554,0.62167
94.473,14.00301,0.004823776,2.96143,0.62163
95.073,14.0287,0.005110898,2.97084,0.62159
95.673,14.05422,0.004799505,3.00128,0.62154
96.273,14.0796,0.004838884,3.04989,0.62149
96.873,14.1049,0.004879039,3.0799,0.62145
97.473,14.13006,0.00482622,3.11122,0.6214
98.073,14.15518,0.00352299,3.1252,0.62135
98.673,14.1801,0.004172034,3.17188,0.6213
99.273,14.20491,0.00348615,3.20122,0.62126
99.873,14.2296,0.003203675,3.24542,0.62121
100.473,14.2542,0.003454325,3.28264,0.62116
101.073,14.27866,0.001989968,3.32756,0.62111
101.673,14.30303,0.002612668,3.36303,0.62106
102.273,14.3272,0.003292083,3.39962,0.62101
102.873,14.35145,0.001916524,3.44648,0.62095
103.473,14.37551,0.001974097,3.50456,0.6209
104.073,14.3994,0.001980973,3.53666,0.62085
104.673,14.42329,0.00185378,3.60247,0.6208
105.273,14.447,0.001985909,3.65621,0.62074
105.873,14.4707,0.001653722,3.69046,0.62069
106.473,14.4944,0.002004296,3.76183,0.62063
107.073,14.518,0.0005188959,3.81567,0.62058
107.673,14.5413,0.00189275,3.88237,0.62052
108.273,14.5647,0.002666639,3.96786,0.62047
108.873,14.58782,0.002623952,3.99979,0.62041
109.473,14.61089,0.002151223,4.06726,0.62035
110.073,14.634,0.00187638,4.1441,0.6203
110.673,14.6569,0.001870195,4.21121,0.62024
111.273,14.6798,0.001869878,4.29893,0.62018
111.873,14.70265,0.00190493,4.36485,0.62012
112.473,14.72545,0.00107829,4.45024,0.62006
113.073,14.7482,0.001892944,4.53505,0.62
113.673,14.77081,0.0018705,4.62407,0.61994
114.273,14.7934,0.00119322,4.69292,0.61988
114.873,14.81594,0.000666408,4.77725,0.61982
115.473,14.8382,0.001875076,4.87473,0.61976
116.073,14.8602,0.0008655614,4.96103,0.61969
116.673,14.882,0.000563035,5.07208,0.61963
117.273,14.90383,0.0009238336,5.16146,0.61957
117.873,14.92596,0.000751947,5.27305,0.6195
118.473,14.9482,0.0005390474,5.39685,0.61944
119.073,14.97052,0.001193533,5.51203,0.61937
119.673,14.99255,0.000554716,5.64048,0.61931
120.273,15.0143,0.000125715,5.78284,0.61924
120.873,15.03612,0.0003541104,5.93373,0.61918
121.473,15.0577,0.0005449413,6.09857,0.61911
122.073,15.0793,0.000559685,6.28723,0.61904
122.673,15.1008,0.00160291,6.48329,0.61898
123.273,15.1222,0.00185392,6.6987,0.61891
123.873,15.1436,0.0004524227,6.88252,0.61884
124.473,15.165,0.0005427876,7.06845,0.61877
125.073,15.18625,0.0005402358,7.14969,0.6187
125.673,15.2075,0.00149785,7.16354,0.61863
126.273,15.2287,0.0004880468,7.0699,0.61856
126.873,15.2497,0.0018586,6.88982,0.61849
127.473,15.27065,0.001156143,6.65741,0.61842
128.073,15.2916,0.0005310551,6.43478,0.61834
128.673,15.3124,0.001706871,6.22157,0.61827
129.273,15.33317,0.00192983,6.05432,0.6182
129.873,15.3539,0.0006522234,5.95195,0.61812
130.473,15.37447,0.0005518754,5.87785,0.61805
131.073,15.39499,0.0005502525,5.78693,0.61798
131.673,15.4155,0.0005518028,5.72816,0.6179
132.273,15.4359,0.0005756006,5.66677,0.61783
132.873,15.45633,0.001155796,5.58462,0.61775
133.473,15.4766,0.001861072,5.45631,0.61767
134.073,15.4969,0.001809923,5.30753,0.6176
134.673,15.51709,0.003050653,5.15335,0.61752
135.273,15.5371,0.0031789,5.02467,0.61744
135.873,15.55719,0.002093854,4.86935,0.61736
136.473,15.57712,0.001885283,4.73557,0.61729
137.073,15.597,0.001874686,4.60842,0.61721
137.673,15.617,0.00192001,4.50752,0.61713
138.273,15.63686,0.0006921909,4.41109,0.61705
138.873,15.65675,0.0005462503,4.34137,0.61697
139.473,15.67658,0.0001807139,4.2756,0.61689
140.073,15.69624,-0.0009151635,4.20763,0.6168
140.673,15.71584,-0.000781413,4.14352,0.61672
141.273,15.73533,0.0005352758,4.09899,0.61664
141.873,15.7548,0.0004439054,4.0683,0.61656
142.473,15.7742,0.00023838,4.04102,0.61647
143.073,15.79372,-0.000922068,4.00491,0.61639
143.673,15.81318,-0.0008736564,3.97422,0.61631
144.273,15.83265,-0.0008702475,3.96194,0.61622
144.873,15.852,-0.0008700121,3.92688,0.61614
145.473,15.87134,-0.0008699694,3.92626,0.61605
146.073,15.89065,-0.0008698003,3.90483,0.61597
146.673,15.9099,-0.0008704333,3.90582,0.61588
147.273,15.929,-0.000915457,3.90259,0.61579
147.873,15.9482,0.0004683443,3.89647,0.61571
148.473,15.96732,-0.0007650144,3.8964,0.61562
149.073,15.98642,-0.0008771003,3.90429,0.61553
149.673,16.0056,-0.000974116,3.89779,0.61544
150.273,16.0246,0.0003652387,3.9087,0.61535
150.873,16.0436,0.0004434149,3.92017,0.61526
151.473,16.06255,-0.0001390271,3.9202,0.61517
152.073,16.0815,-0.000852035,3.91904,0.61508
152.673,16.10035,-0.0008680835,3.9314,0.61499
153.273,16.11928,-0.0009064702,3.92484,0.6149
153.873,16.13822,0.000226133,3.92548,0.61481
154.473,16.15711,-0.0009376716,3.92822,0.61472
155.073,16.17597,-0.000885696,3.94727,0.61462
155.673,16.19475,-0.000880495,3.93329,0.61453
156.273,16.2135,-0.000880036,3.92772,0.61444
156.873,16.23225,-0.000879998,3.93662,0.61434
157.473,16.25096,-0.000879977,3.93224,0.61425
158.073,16.26962,-0.0008801026,3.94179,0.61415
158.673,16.2883,-0.000884975,3.9569,0.61406
159.273,16.3069,-0.000973717,3.97019,0.61396
159.873,16.32546,0.000385857,3.96169,0.61387
160.473,16.34405,0.0004365703,3.9698,0.61377
161.073,16.36259,0.000420194,3.97667,0.61367
161.673,16.38113,-0.0009326624,3.99306,0.61357
162.273,16.39968,-0.0008773908,3.99848,0.61348
162.873,16.41825,-0.000807431,3.98165,0.61338
163.473,16.43674,-0.00217208,3.98301,0.61328
164.073,16.4552,-0.002202144,3.98574,0.61318
164.673,16.4736,-0.00146657,3.98545,0.61308
165.273,16.492,-0.0008033678,3.99202,0.61298
165.873,16.5104,-0.0007921971,4.00959,0.61288
166.473,16.52865,-0.002071888,4.00588,0.61278
167.073,16.54704,-0.002078506,4.01466,0.61268
167.673,16.56543,-0.002076258,4.02756,0.61258
168.273,16.58374,-0.002006456,4.02373,0.61247
168.873,16.60202,0.0007049437,4.04523,0.61237
169.473,16.62037,0.0005528523,4.05968,0.61227
170.073,16.6386,0.0005489313,4.07223,0.61217
170.673,16.65681,0.0005478722,4.08103,0.61206
171.273,16.675,0.0004830591,4.07395,0.61196
171.873,16.69322,-0.0008545797,4.08835,0.61185
172.473,16.71135,-0.0007643046,4.09623,0.61175
173.073,16.72946,-0.0007598281,4.10749,0.61164
173.673,16.7476,-0.0007599374,4.11336,0.61154
174.273,16.76575,-0.0007599927,4.12311,0.61143
174.873,16.7838,-0.000760007,4.13924,0.61132
175.473,16.8018,-0.0007600478,4.14993,0.61121
176.073,16.81987,-0.0007599622,4.16843,0.61111
176.673,16.83774,-0.000753951,4.18371,0.611
177.273,16.85572,-0.00169838,4.18856,0.61089
177.873,16.8736,-0.002048799,4.19517,0.61078
178.473,16.89157,-0.00204984,4.20029,0.61067
179.073,16.90946,-0.00302343,4.20451,0.61056
179.673,16.92744,-0.003380824,4.21923,0.61045
180.273,16.94526,-0.003113523,4.22967,0.61034
180.873,16.96309,-0.002028252,4.2377,0.61023
181.473,16.9809,-0.00207532,4.23589,0.61012
182.073,16.99867,-0.002123156,4.23395,0.61001
182.673,17.01642,-0.001380039,4.24997,0.6099
183.273,17.03417,-0.001424944,4.25591,0.60978
183.873,17.05176,-0.001429731,4.25897,0.60967
184.473,17.0695,-0.001430008,4.28674,0.60956
185.073,17.0872,-0.001430001,4.29421,0.60944
185.673,17.10484,-0.001429966,4.30232,0.60933
186.273,17.1224,-0.001429749,4.31261,0.60921
186.873,17.14015,-0.001429827,4.3352,0.6091
187.473,17.15772,-0.001605171,4.34316,0.60898
188.073,17.17527,-0.0028264,4.35224,0.60887
188.673,17.19281,-0.002746565,4.35538,0.60875
189.273,17.21021,-0.002740058,4.35498,0.60863
189.873,17.2277,-0.00273994,4.37446,0.60852
190.473,17.24519,-0.00273999,4.4025,0.6084
191.073,17.2626,-0.00274,4.41763,0.60828
191.673,17.28001,-0.00274,4.41958,0.60816
192.273,17.29756,-0.00274,4.43456,0.60805
192.873,17.31498,-0.00274,4.45589,0.60793
193.473,17.33238,-0.002740002,4.46514,0.60781
194.073,17.34979,-0.002739998,4.46197,0.60769
194.673,17.36714,-0.00273974,4.47293,0.60757
195.273,17.38446,-0.00273679,4.47867,0.60745
195.873,17.4018,-0.00272194,4.4914,0.60733
196.473,17.4191,-0.003323144,4.49551,0.6072
197.073,17.43631,-0.004098115,4.51848,0.60708
197.673,17.4536,-0.00406365,4.5352,0.60696
198.273,17.47092,-0.004060122,4.53597,0.60684
198.873,17.4882,-0.004059976,4.53742,0.60672
199.473,17.5055,-0.004059996,4.5488,0.60659
200.073,17.52276,-0.00406,4.56165,0.60647
200.673,17.53996,-0.00406,4.56247,0.60634
201.273,17.55715,-0.004060007,4.57406,0.60622
201.873,17.57435,-0.004060083,4.60267,0.60609
202.473,17.59154,-0.004060398,4.60427,0.60597
203.073,17.60868,-0.004056916,4.61812,0.60584
203.673,17.62586,-0.003989446,4.61252,0.60572
204.273,17.643,-0.00478879,4.63325,0.60559
204.873,17.66005,-0.004720142,4.62837,0.60546
205.473,17.67711,-0.0047192,4.6416,0.60534
206.073,17.69418,-0.004719902,4.64557,0.60521
206.673,17.71123,-0.004719996,4.66341,0.60508
207.273,17.72832,-0.004720001,4.68517,0.60495
207.873,17.74543,-0.004720001,4.67176,0.60483
208.473,17.76249,-0.004720005,4.69048,0.6047
209.073,17.7795,-0.004719991,4.69717,0.60457
209.673,17.7966,-0.004719512,4.69018,0.60444
210.273,17.81356,-0.004715082,4.69757,0.60431
210.873,17.83057,-0.00471055,4.69764,0.60418
211.473,17.8476,-0.00547043,4.71524,0.60405
212.073,17.86459,-0.005986158,4.7211,0.60391
212.673,17.88156,-0.00674255,4.72866,0.60378
213.273,17.89852,-0.006650397,4.74556,0.60365
213.873,17.91544,-0.00777562,4.73992,0.60352
214.473,17.93234,-0.007997832,4.73782,0.60339
215.073,17.94926,-0.008010489,4.7542,0.60325
215.673,17.96615,-0.008010276,4.76722,0.60312
216.273,17.98307,-0.008010617,4.79336,0.60299
216.873,17.99994,-0.008009875,4.78881,0.60285
217.473,18.01687,-0.007961014,4.81142,0.60272
218.073,18.03371,-0.008960044,4.81605,0.60258
218.673,18.0506,-0.009315336,4.8226,0.60245
219.273,18.0675,-0.009321882,4.82046,0.60231
219.873,18.0844,-0.00932033,4.83956,0.60218
220.473,18.10127,-0.009320247,4.85699,0.60204
221.073,18.11808,-0.009317086,4.85901,0.6019
221.673,18.13484,-0.009272902,4.86404,0.60177
222.273,18.15165,-0.01011736,4.87291,0.60163
222.873,18.1685,-0.01065265,4.86193,0.60149
223.473,18.1853,-0.01059442,4.88803,0.60135
224.073,18.2021,-0.01146111,4.8902,0.60121
224.673,18.21892,-0.0119604,4.91311,0.60107
225.273,18.23561,-0.01195324,4.92296,0.60094
225.873,18.25235,-0.01195024,4.9211,0.6008
226.473,18.26911,-0.01194997,4.92432,0.60066
227.073,18.2858,-0.0119495,4.92704,0.60052
227.673,18.30255,-0.01194646,4.955,0.60038
228.273,18.31934,-0.01195885,4.97102,0.60023
228.873,18.33607,-0.01253318,4.9797,0.60009
229.473,18.35277,-0.0132764,4.97762,0.59995
230.073,18.36954,-0.01326998,4.98407,0.59981
230.673,18.38627,-0.01327688,4.98426,0.59967
231.273,18.403,-0.01332884,4.99159,0.59952
231.873,18.41969,-0.01230603,5.00727,0.59938
232.473,18.43639,-0.01194858,5.01942,0.59924
233.073,18.45303,-0.01259102,5.02868,0.59909
233.673,18.46973,-0.0135822,5.04133,0.59895
234.273,18.48637,-0.01466667,5.07337,0.59881
234.873,18.50304,-0.01460556,5.08686,0.59866
235.473,18.51972,-0.01458197,5.07207,0.59852
236.073,18.5364,-0.01572674,5.07539,0.59837
236.673,18.55303,-0.01588221,5.10813,0.59822
237.273,18.5697,-0.015905,5.1117,0.59808
237.873,18.58621,-0.01649987,5.1351,0.59793
238.473,18.6027,-0.01722726,5.12561,0.59779
239.073,18.6192,-0.01721736,5.14486,0.59764
239.673,18.6357,-0.01817001,5.16048,0.59749
240.273,18.6522,-0.01860422,5.15878,0.59734
240.873,18.66874,-0.01990128,5.16654,0.5972
241.473,18.68528,-0.01985632,5.18404,0.59705
242.073,18.7019,-0.02111011,5.18858,0.5969
242.673,18.71848,-0.02261628,5.1978,0.59675
243.273,18.73507,-0.02313669,5.21315,0.5966
243.873,18.75165,-0.0241464,5.20441,0.59645
244.473,18.76824,-0.02409096,5.21304,0.5963
245.073,18.78471,-0.02515507,5.22881,0.59615
245.673,18.8013,-0.02543134,5.23658,0.596
246.273,18.8179,-0.02544606,5.23582,0.59585
246.873,18.83449,-0.02464528,5.24778,0.5957
247.473,18.85105,-0.02412479,5.26942,0.59554
248.073,18.86765,-0.02488532,5.28879,0.59539
248.673,18.88426,-0.0254194,5.30553,0.59524
249.273,18.90081,-0.02619335,5.31976,0.59509
249.873,18.9173,-0.02693232,5.32167,0.59493
250.473,18.93382,-0.02824131,5.32502,0.59478
251.073,18.9503,-0.02840923,5.35326,0.59463
251.673,18.9667,-0.02961687,5.37091,0.59447
252.273,18.9832,-0.03003855,5.3813,0.59432
252.873,18.9997,-0.03146496,5.38159,0.59417
253.473,19.01611,-0.03154672,5.38582,0.59401
254.073,19.03254,-0.03358796,5.3594,0.59386
254.673,19.049,-0.0344643,5.38776,0.5937
255.273,19.0655,-0.03605358,5.40548,0.59354
255.873,19.08201,-0.03683918,5.39576,0.59339
256.473,19.0985,-0.03754914,5.42448,0.59323
257.073,19.11501,-0.03800995,5.42608,0.59307
257.673,19.13146,-0.03902171,5.42615,0.59292
258.273,19.14797,-0.03990917,5.42354,0.59276
258.873,19.16443,-0.04050419,5.44965,0.5926
259.473,19.18085,-0.04175831,5.44734,0.59244
260.073,19.19728,-0.04222828,5.47436,0.59229
260.673,19.21371,-0.04380538,5.47414,0.59213
261.273,19.23015,-0.04498541,5.49185,0.59197
261.873,19.24651,-0.04598952,5.50097,0.59181
262.473,19.2629,-0.04770599,5.5013,0.59165
263.073,19.2793,-0.04917728,5.51457,0.59149
263.673,19.29569,-0.04916568,5.5127,0.59133
264.273,19.3121,-0.05012541,5.50771,0.59117
264.873,19.3285,-0.05071061,5.52936,0.59101
265.473,19.34494,-0.05238324,5.54605,0.59085
266.073,19.3613,-0.05407771,5.55896,0.59069
266.673,19.37769,-0.05563776,5.58095,0.59053
267.273,19.39406,-0.05680709,5.59025,0.59036
267.873,19.41046,-0.05815048,5.58483,0.5902
268.473,19.42679,-0.05806682,5.60045,0.59004
269.073,19.44314,-0.05906804,5.61956,0.58988
269.673,19.45952,-0.06038744,5.6191,0.58971
270.273,19.4759,-0.0626242,5.62207,0.58955
270.873,19.4922,-0.06426201,5.64462,0.58939
271.473,19.50855,-0.06617366,5.64397,0.58922
272.073,19.52496,-0.067517,5.65171,0.58906
272.673,19.5413,-0.06889382,5.64745,0.58889
273.273,19.5577,-0.07112173,5.65805,0.58873
273.873,19.57413,-0.07341686,5.65225,0.58856
274.473,19.59056,-0.07551551,5.67218,0.5884
275.073,19.6069,-0.07756101,5.6699,0.58823
275.673,19.62336,-0.07947845,5.67859,0.58807
276.273,19.63968,-0.08112321,5.68158,0.5879
276.873,19.65604,-0.08296515,5.6884,0.58773
277.473,19.67238,-0.08504173,5.70022,0.58757
278.073,19.6888,-0.08700743,5.69959,0.5874
278.673,19.70513,-0.08933171,5.7208,0.58723
279.273,19.72152,-0.09118185,5.72481,0.58707
279.873,19.7379,-0.09359026,5.72905,0.5869
280.473,19.75427,-0.09512123,5.74441,0.58673
281.073,19.77061,-0.09692558,5.74768,0.58656
281.673,19.7869,-0.09917611,5.74505,0.58639
282.273,19.8033,-0.10218,5.7587,0.58622
282.873,19.81965,-0.10413,5.77243,0.58605
283.473,19.836,-0.10678,5.76949,0.58588
284.073,19.85235,-0.10988,5.77417,0.58571
284.673,19.86872,-0.1118,5.79804,0.58554
285.273,19.88503,-0.11565,5.78959,0.58537
285.873,19.90135,-0.11932,5.8006,0.5852
286.473,19.91771,-0.12132,5.81125,0.58503
287.073,19.93404,-0.12383,5.82328,0.58486
287.673,19.95039,-0.12742,5.82155,0.58469
288.273,19.9667,-0.13,5.83422,0.58452
288.873,19.98313,-0.13458,5.84431,0.58435
289.473,19.9995,-0.13941,5.83901,0.58417
290.073,20.0158,-0.142,5.86112,0.584
290.673,20.0322,-0.14554,5.87807,0.58383
291.273,20.04854,-0.14785,5.87674,0.58366
291.873,20.06494,-0.15012,5.89423,0.58348
292.473,20.0813,-0.15402,5.90271,0.58331
293.073,20.09766,-0.15829,5.90517,0.58313
293.673,20.11402,-0.16191,5.90142,0.58296
294.273,20.13038,-0.16674,5.92072,0.58279
294.873,20.1467,-0.17137,5.92099,0.58261
295.473,20.16313,-0.1754,5.91987,0.58244
296.073,20.17945,-0.18027,5.93106,0.58226
296.673,20.19574,-0.18436,5.9453,0.58209
297.273,20.2121,-0.18938,5.95212,0.58191
297.873,20.22847,-0.19373,5.94405,0.58173
298.473,20.24479,-0.19748,5.93853,0.58156
299.073,20.2611,-0.20235,5.9406,0.58138
299.673,20.2775,-0.20646,5.9406,0.58121
300.273,20.2939,-0.21219,5.94392,0.58103
300.873,20.31029,-0.21714,5.94084,0.58085
301.473,20.3266,-0.22165,5.94905,0.58067
302.073,20.34304,-0.22714,5.95923,0.5805
302.673,20.35947,-0.2318,5.95344,0.58032
303.273,20.37586,-0.238,5.93957,0.58014
303.873,20.39217,-0.24289,5.94231,0.57996
304.473,20.40851,-0.2481,5.94102,0.57978
305.073,20.4249,-0.25413,5.93391,0.5796
305.673,20.44116,-0.25913,5.92716,0.57943
306.273,20.45749,-0.26525,5.92899,0.57925
306.873,20.4739,-0.27164,5.92256,0.57907
307.473,20.49022,-0.27783,5.91475,0.57889
308.073,20.5066,-0.28401,5.89866,0.57871
308.673,20.52299,-0.2894,5.89235,0.57853
309.273,20.53937,-0.29592,5.88944,0.57835
309.873,20.55572,-0.30082,5.88187,0.57816
310.473,20.57207,-0.30697,5.86471,0.57798
311.073,20.58844,-0.31302,5.86332,0.5778
311.673,20.6048,-0.31938,5.84998,0.57762
312.273,20.62115,-0.32709,5.84779,0.57744
312.873,20.63751,-0.33243,5.83981,0.57726
313.473,20.6539,-0.33872,5.84912,0.57707
314.073,20.67026,-0.34438,5.82365,0.57689
314.673,20.68664,-0.35034,5.80981,0.57671
315.273,20.70306,-0.35734,5.8092,0.57653
315.873,20.71942,-0.36274,5.82281,0.57634
316.473,20.73581,-0.36963,5.81368,0.57616
317.073,20.75217,-0.37423,5.7905,0.57598
317.673,20.7685,-0.38063,5.79036,0.57579
318.273,20.78495,-0.38754,5.79861,0.57561
318.873,20.8013,-0.39317,5.78441,0.57542
319.473,20.81765,-0.40033,5.78349,0.57524
320.073,20.83407,-0.40643,5.80591,0.57505
320.673,20.8505,-0.41378,5.79389,0.57487
321.273,20.86681,-0.42225,5.78605,0.57468
321.873,20.88318,-0.42812,5.77187,0.5745
322.473,20.89958,-0.43539,5.76117,0.57431
323.073,20.91593,-0.44081,5.77123,0.57413
323.673,20.93226,-0.44766,5.78311,0.57394
324.273,20.94866,-0.45434,5.7796,0.57376
324.873,20.96509,-0.4603,5.77719,0.57357
325.473,20.98152,-0.46853,5.77183,0.57338
326.073,20.99793,-0.47489,5.77434,0.5732
326.673,21.01438,-0.48217,5.78119,0.57301
327.273,21.03079,-0.48848,5.77947,0.57282
327.873,21.04724,-0.49511,5.76948,0.57263
328.473,21.06363,-0.50304,5.78526,0.57245
329.073,21.08,-0.50906,5.80079,0.57226
329.673,21.09647,-0.51625,5.79938,0.57207
330.273,21.11287,-0.52159,5.80102,0.57188
330.873,21.12924,-0.52798,5.79952,0.57169
331.473,21.14568,-0.53554,5.81217,0.5715
332.073,21.16209,-0.5413,5.82367,0.57131
332.673,21.17848,-0.54767,5.82988,0.57112
333.273,21.19491,-0.5533,5.83247,0.57094
333.873,21.2114,-0.56021,5.85875,0.57075
334.473,21.22785,-0.56753,5.86248,0.57056
335.073,21.24428,-0.57434,5.86884,0.57037
335.673,21.26078,-0.58243,5.88422,0.57018
336.273,21.27731,-0.58799,5.89398,0.56998
336.873,21.29382,-0.59476,5.88993,0.56979
337.473,21.31024,-0.60061,5.91795,0.5696
338.073,21.32676,-0.60707,5.93591,0.56941
338.673,21.3432,-0.61513,5.95011,0.56922
339.273,21.35965,-0.62166,5.95388,0.56903
339.873,21.37612,-0.62897,5.99551,0.56884
340.473,21.39261,-0.63417,5.99597,0.56865
341.073,21.4091,-0.64079,6.01759,0.56845
341.673,21.4256,-0.64851,6.03062,0.56826
342.273,21.4422,-0.6552,6.05892,0.56807
342.873,21.45873,-0.66399,6.07115,0.56788
343.473,21.4753,-0.67111,6.08615,0.56768
344.073,21.49183,-0.67956,6.10654,0.56749
344.673,21.50834,-0.68642,6.1343,0.5673
345.273,21.52487,-0.69266,6.16595,0.5671
345.873,21.5414,-0.70063,6.18678,0.56691
346.473,21.55797,-0.70693,6.22058,0.56672
347.073,21.5745,-0.71479,6.2561,0.56652
347.673,21.59104,-0.72156,6.27125,0.56633
348.273,21.6076,-0.72863,6.29762,0.56613
348.873,21.62411,-0.73701,6.3336,0.56594
349.473,21.64065,-0.74352,6.3719,0.56574
350.073,21.6572,-0.75212,6.40043,0.56555
350.673,21.67381,-0.75889,6.42833,0.56535
351.273,21.69041,-0.76636,6.45953,0.56516
351.873,21.70701,-0.77406,6.50916,0.56496
352.473,21.72361,-0.78092,6.53569,0.56477
353.073,21.74022,-0.79017,6.57232,0.56457
353.673,21.75679,-0.79766,6.62518,0.56438
354.273,21.7734,-0.8068,6.66403,0.56418
354.873,21.78997,-0.81495,6.68803,0.56398
355.473,21.80655,-0.82271,6.74591,0.56379
356.073,21.82315,-0.83264,6.79015,0.56359
356.673,21.83977,-0.8403,6.84198,0.56339
357.273,21.85641,-0.84928,6.89192,0.5632
357.873,21.873,-0.8569,6.94354,0.563
358.473,21.88962,-0.86573,6.9977,0.5628
359.073,21.90626,-0.87562,7.05286,0.5626
359.673,21.92288,-0.88386,7.10594,0.56241
360.273,21.93946,-0.89408,7.15873,0.56221
360.873,21.95616,-0.90223,7.22434,0.56201
361.473,21.97283,-0.91226,7.29736,0.56181
362.073,21.98948,-0.92132,7.36565,0.56161
362.673,22.00615,-0.93069,7.4186,0.56141
363.273,22.02284,-0.94141,7.5034,0.56122
363.873,22.0395,-0.9499,7.55099,0.56102
364.473,22.05613,-0.96148,7.64416,0.56082
365.073,22.07281,-0.97257,7.72856,0.56062
365.673,22.08946,-0.98283,7.81194,0.56042
366.273,22.1061,-0.99372,7.88408,0.56022
366.873,22.12279,-1.00302,7.95976,0.56002
367.473,22.13955,-1.01485,8.05464,0.55982
368.073,22.15622,-1.02405,8.14295,0.55962
368.673,22.17298,-1.03585,8.25235,0.55942
369.273,22.18965,-1.04761,8.34789,0.55922
369.873,22.2063,-1.05964,8.43213,0.55902
370.473,22.22302,-1.07382,8.52284,0.55882
371.073,22.2397,-1.08459,8.62042,0.55862
371.673,22.25645,-1.09822,8.72116,0.55841
372.273,22.2732,-1.10966,8.81173,0.55821
372.873,22.29,-1.12299,8.9229,0.55801
373.473,22.30671,-1.13685,9.03157,0.55781
374.073,22.32346,-1.14911,9.11744,0.55761
374.673,22.3402,-1.16485,9.21314,0.55741
375.273,22.3569,-1.17677,9.33483,0.55721
375.873,22.37367,-1.19144,9.42075,0.557
376.473,22.3904,-1.20453,9.53124,0.5568
377.073,22.40721,-1.21804,9.62557,0.5566
377.673,22.42393,-1.23405,9.69463,0.5564
378.273,22.44071,-1.24719,9.80071,0.55619
378.873,22.45753,-1.26399,9.87227,0.55599
379.473,22.47435,-1.27762,9.96777,0.55579
380.073,22.49113,-1.29321,10.07279,0.55558
380.673,22.5079,-1.30895,10.14593,0.55538
381.273,22.5248,-1.3231,10.21424,0.55518
381.873,22.5416,-1.34113,10.24996,0.55497
382.473,22.55847,-1.35441,10.32237,0.55477
383.073,22.5753,-1.37211,10.38742,0.55457
383.673,22.59216,-1.38724,10.40349,0.55436
384.273,22.609,-1.40322,10.43271,0.55416
384.873,22.6258,-1.41963,10.46054,0.55395
385.473,22.64262,-1.4333,10.48725,0.55375
386.073,22.6595,-1.45055,10.47286,0.55354
386.673,22.6763,-1.46388,10.455,0.55334
387.273,22.69324,-1.48052,10.42485,0.55313
387.873,22.71014,-1.49612,10.39374,0.55293
388.473,22.727,-1.51122,10.33488,0.55272
389.073,22.74393,-1.5279,10.25559,0.55252
389.673,22.7608,-1.54022,10.19218,0.55231
390.273,22.7777,-1.55612,10.09532,0.55211
390.873,22.79465,-1.5689,9.95973,0.5519
391.473,22.8117,-1.58458,9.83718,0.5517
392.073,22.82862,-1.59901,9.68547,0.55149
392.673,22.8456,-1.61146,9.53245,0.55129
393.273,22.86255,-1.62553,9.35504,0.55108
393.873,22.87955,-1.63599,9.179,0.55087
394.473,22.89656,-1.64894,8.97289,0.55067
395.073,22.91358,-1.65905,8.77213,0.55046
395.673,22.93059,-1.67043,8.54258,0.55025
396.273,22.94763,-1.68166,8.29786,0.55005
396.873,22.96464,-1.69138,8.06705,0.54984
397.473,22.98166,-1.70304,7.81151,0.54963
398.073,22.99869,-1.71118,7.55409,0.54942
398.673,23.0157,-1.72083,7.29645,0.54922
399.273,23.03275,-1.72809,7.03924,0.54901
399.873,23.0498,-1.73546,6.77801,0.5488
400.473,23.0668,-1.7425,6.51387,0.5486
401.073,23.0839,-1.74855,6.25817,0.54839
401.673,23.10089,-1.75643,6.03174,0.54818
402.273,23.11797,-1.76204,5.78066,0.54797
402.873,23.135,-1.76815,5.54016,0.54776
403.473,23.1521,-1.7723,5.30881,0.54755
404.073,23.16907,-1.77653,5.1016,0.54735
404.673,23.18611,-1.78117,4.88868,0.54714
405.273,23.2032,-1.7844,4.68114,0.54693
405.873,23.22029,-1.7877,4.49014,0.54672
406.473,23.23725,-1.79109,4.32059,0.54651
407.073,23.25434,-1.79485,4.17908,0.5463
407.673,23.27135,-1.79735,4.04025,0.54609
408.273,23.2884,-1.80075,3.89565,0.54588
408.873,23.3054,-1.80377,3.78663,0.54568
409.473,23.32256,-1.80597,3.68707,0.54547
410.073,23.33963,-1.80781,3.58286,0.54526
410.673,23.35675,-1.80939,3.48574,0.54505
411.273,23.3738,-1.81089,3.40592,0.54484
411.873,23.39089,-1.81243,3.3376,0.54463
412.473,23.40802,-1.8144,3.27743,0.54442
413.073,23.4251,-1.81632,3.22867,0.54421
413.673,23.44218,-1.81742,3.181,0.544
414.273,23.45928,-1.81847,3.15112,0.54379
414.873,23.4764,-1.821,3.10945,0.54358
415.473,23.49345,-1.82275,3.06743,0.54337
416.073,23.51055,-1.825,3.032,0.54316
416.673,23.52767,-1.82691,3.01114,0.54295
417.273,23.5448,-1.82865,3.00466,0.54273
417.873,23.562,-1.82998,2.9742,0.54252
418.473,23.57913,-1.83181,2.95699,0.54231
419.073,23.59629,-1.83316,2.93662,0.5421
419.673,23.61342,-1.83389,2.91881,0.54189
420.273,23.63056,-1.83516,2.89564,0.54168
420.873,23.6477,-1.83667,2.88948,0.54147
421.473,23.66485,-1.83744,2.89854,0.54126
422.073,23.68202,-1.83889,2.87996,0.54105
422.673,23.69918,-1.84055,2.87157,0.54083
423.273,23.71634,-1.84256,2.86532,0.54062
423.873,23.73355,-1.84481,2.86993,0.54041
424.473,23.75074,-1.84664,2.86291,0.5402
425.073,23.7679,-1.84766,2.85528,0.53999
425.673,23.78511,-1.84883,2.8473,0.53978
426.273,23.80237,-1.85025,2.8436,0.53956
426.873,23.81963,-1.8518,2.85575,0.53935
427.473,23.8369,-1.85353,2.8513,0.53914
428.073,23.85412,-1.85532,2.84693,0.53893
428.673,23.87141,-1.85694,2.85077,0.53871
429.273,23.88864,-1.85875,2.84402,0.5385
429.873,23.9059,-1.86032,2.84562,0.53829
430.473,23.9232,-1.86166,2.85063,0.53808
431.073,23.94046,-1.86274,2.85815,0.53786
431.673,23.9577,-1.8645,2.85681,0.53765
432.273,23.97499,-1.86674,2.85565,0.53744
432.873,23.99224,-1.86911,2.86954,0.53722
433.473,24.0095,-1.87076,2.89797,0.53701
434.073,24.02681,-1.87259,2.89807,0.5368
434.673,24.04413,-1.87464,2.9043,0.53658
435.273,24.0614,-1.87624,2.92602,0.53637
435.873,24.07876,-1.87757,2.93124,0.53616
436.473,24.09607,-1.87926,2.95405,0.53594
437.073,24.1134,-1.88113,2.97889,0.53573
437.673,24.13072,-1.88408,2.97643,0.53552
438.273,24.1481,-1.88608,2.99493,0.5353
438.873,24.16549,-1.88819,3.01241,0.53509
439.473,24.18289,-1.89064,3.02267,0.53488
440.073,24.20025,-1.89268,3.03965,0.53466
440.673,24.2177,-1.89443,3.06432,0.53445
441.273,24.235,-1.89624,3.10296,0.53423
441.873,24.25243,-1.89816,3.12993,0.53402
442.473,24.2698,-1.90049,3.13556,0.53381
443.073,24.2872,-1.90321,3.15655,0.53359
443.673,24.3046,-1.90492,3.18598,0.53338
444.273,24.32196,-1.90731,3.20905,0.53316
444.873,24.33938,-1.90979,3.25242,0.53295
445.473,24.35685,-1.91164,3.2861,0.53273
446.073,24.37434,-1.91368,3.3232,0.53252
446.673,24.3918,-1.91664,3.34108,0.5323
447.273,24.40929,-1.91952,3.37595,0.53209
447.873,24.42671,-1.92101,3.41866,0.53187
448.473,24.44414,-1.9224,3.44747,0.53166
449.073,24.46161,-1.9245,3.47008,0.53144
449.673,24.47909,-1.9281,3.52638,0.53123
450.273,24.49652,-1.93198,3.56682,0.53101
450.873,24.51407,-1.93462,3.60617,0.5308
451.473,24.5316,-1.9378,3.65299,0.53058
452.073,24.549,-1.94239,3.70854,0.53037
452.673,24.56652,-1.94488,3.7569,0.53015
453.273,24.584,-1.94861,3.81526,0.52994
453.873,24.60154,-1.95233,3.86066,0.52972
454.473,24.61904,-1.95474,3.92307,0.52951
455.073,24.63665,-1.95748,3.98031,0.52929
455.673,24.65418,-1.96073,4.03714,0.52908
456.273,24.6718,-1.96359,4.08944,0.52886
456.873,24.6893,-1.96705,4.15722,0.52864
457.473,24.7069,-1.97113,4.21765,0.52843
458.073,24.72441,-1.97477,4.29193,0.52821
458.673,24.74193,-1.97809,4.35855,0.528
459.273,24.75947,-1.98269,4.42107,0.52778
459.873,24.77704,-1.9874,4.50332,0.52757
460.473,24.79457,-1.99304,4.5695,0.52735
461.073,24.81213,-1.99728,4.65681,0.52713
461.673,24.8297,-2.00246,4.73211,0.52692
462.273,24.84731,-2.0068,4.80817,0.5267
462.873,24.86487,-2.01241,4.895,0.52649
463.473,24.88245,-2.01733,4.98553,0.52627
464.073,24.90004,-2.02295,5.06032,0.52605
464.673,24.91766,-2.02928,5.15667,0.52584
465.273,24.9353,-2.03519,5.25125,0.52562
465.873,24.95286,-2.04205,5.33129,0.5254
466.473,24.97051,-2.04713,5.42909,0.52519
467.073,24.9881,-2.05413,5.53865,0.52497
467.673,25.00574,-2.06004,5.62887,0.52475
468.273,25.02339,-2.06751,5.75773,0.52454
468.873,25.04107,-2.07429,5.84635,0.52432
469.473,25.05855,-2.08126,5.92935,0.5241
470.073,25.07619,-2.0893,6.05137,0.52389
470.673,25.0939,-2.09638,6.1516,0.52367
471.273,25.1116,-2.10509,6.26353,0.52345
471.873,25.12934,-2.11184,6.37278,0.52324
472.473,25.14724,-2.12172,6.48215,0.52302
473.073,25.165,-2.1305,6.58589,0.5228
473.673,25.18269,-2.14039,6.70135,0.52259
474.273,25.20039,-2.14935,6.81167,0.52237
474.873,25.21808,-2.15814,6.93096,0.52215
475.473,25.23581,-2.16847,7.03724,0.52194
476.073,25.25358,-2.17783,7.15679,0.52172
476.673,25.2714,-2.18993,7.28097,0.5215
477.273,25.28912,-2.19914,7.3824,0.52129
477.873,25.30688,-2.21087,7.5041,0.52107
478.473,25.32469,-2.22074,7.60924,0.52085
479.073,25.3425,-2.23335,7.71593,0.52063
479.673,25.36028,-2.24557,7.80212,0.52042
480.273,25.37813,-2.25882,7.92987,0.5202
480.873,25.39593,-2.2722,8.02864,0.51998
481.473,25.41367,-2.2842,8.14667,0.51976
482.073,25.43144,-2.30049,8.24095,0.51955
482.673,25.44923,-2.31321,8.35313,0.51933
483.273,25.467,-2.32909,8.43738,0.51911
483.873,25.48486,-2.34184,8.55536,0.5189
484.473,25.5027,-2.3575,8.65237,0.51868
485.073,25.52063,-2.37332,8.7324,0.51846
485.673,25.5385,-2.38885,8.84993,0.51824
486.273,25.55645,-2.40585,8.94299,0.51803
486.873,25.5744,-2.42183,9.02809,0.51781
487.473,25.59225,-2.44205,9.10746,0.51759
488.073,25.6101,-2.45817,9.19328,0.51737
488.673,25.62796,-2.47951,9.27711,0.51716
489.273,25.64584,-2.49644,9.37085,0.51694
489.873,25.6637,-2.51704,9.43524,0.51672
490.473,25.6816,-2.5357,9.51502,0.5165
491.073,25.69954,-2.55509,9.59774,0.51629
491.673,25.7174,-2.57605,9.66032,0.51607
492.273,25.73527,-2.59507,9.71544,0.51585
492.873,25.75317,-2.6186,9.78669,0.51563
493.473,25.7711,-2.63758,9.83115,0.51541
494.073,25.789,-2.6629,9.8792,0.5152
494.673,25.8069,-2.68291,9.92607,0.51498
495.273,25.82484,-2.70907,9.96995,0.51476
495.873,25.8428,-2.73155,10.02481,0.51454
496.473,25.86068,-2.75583,10.02727,0.51433
497.073,25.87867,-2.78043,10.03518,0.51411
497.673,25.89665,-2.80446,10.04295,0.51389
498.273,25.91467,-2.83182,10.04867,0.51367
498.873,25.9327,-2.85493,10.0275,0.51345
499.473,25.95074,-2.88471,10.01815,0.51324
500.073,25.96872,-2.90719,9.9872,0.51302
500.673,25.98665,-2.93617,9.92633,0.5128
501.273,26.00456,-2.95925,9.85084,0.51258
501.873,26.0226,-2.98672,9.80441,0.51237
502.473,26.0407,-3.01338,9.72722,0.51215
503.073,26.05874,-3.04025,9.63166,0.51193
503.673,26.07696,-3.06951,9.52908,0.51171
504.273,26.09517,-3.09437,9.39671,0.51149
504.873,26.1132,-3.12378,9.27205,0.51128
505.473,26.13131,-3.14678,9.12366,0.51106
506.073,26.14945,-3.17625,8.97043,0.51084
506.673,26.16754,-3.19821,8.79678,0.51062
507.273,26.1857,-3.22525,8.6215,0.51041
507.873,26.20391,-3.24784,8.40671,0.51019
508.473,26.2221,-3.27337,8.18242,0.50997
509.073,26.24038,-3.29669,7.97429,0.50975
509.673,26.25863,-3.31941,7.73126,0.50953
510.273,26.27689,-3.34382,7.48105,0.50932
510.873,26.2951,-3.36491,7.21876,0.5091
511.473,26.31342,-3.38854,6.9306,0.50888
512.073,26.3318,-3.40655,6.65778,0.50866
512.673,26.35013,-3.42893,6.38415,0.50845
513.273,26.3685,-3.44582,6.08587,0.50823
513.873,26.38693,-3.46596,5.78746,0.50801
514.473,26.4053,-3.48113,5.46689,0.50779
515.073,26.4237,-3.49885,5.14791,0.50757
515.673,26.4421,-3.51397,4.85527,0.50736
516.273,26.46057,-3.52853,4.54426,0.50714
516.873,26.47907,-3.54125,4.24125,0.50692
517.473,26.49755,-3.55312,3.94562,0.5067
518.073,26.51608,-3.56578,3.64622,0.50649
518.673,26.53459,-3.57554,3.3467,0.50627
519.273,26.5531,-3.5858,3.04953,0.50605
519.873,26.5716,-3.59349,2.77181,0.50583
520.473,26.59013,-3.60214,2.50285,0.50561
521.073,26.6086,-3.60787,2.23632,0.5054
521.673,26.62715,-3.61468,1.97336,0.50518
522.273,26.6457,-3.61995,1.72942,0.50496
522.873,26.6642,-3.62602,1.48294,0.50474
523.473,26.68272,-3.63062,1.25201,0.50453
524.073,26.70127,-3.63417,1.0431,0.50431
524.673,26.71974,-3.63747,0.83669,0.50409
525.273,26.7382,-3.64073,0.64088,0.50387
525.873,26.7567,-3.64415,0.48026,0.50366
526.473,26.77507,-3.64631,0.30323,0.50344
527.073,26.7935,-3.64779,0.17934,0.50322
527.673,26.81202,-3.65006,0.04279824,0.503
528.273,26.83046,-3.65258,-0.08004792,0.50279
528.873,26.84897,-3.6532,-0.18388,0.50257
529.473,26.86751,-3.65412,-0.24864,0.50235
530.073,26.88594,-3.65579,-0.31734,0.50213
530.673,26.9044,-3.65727,-0.40557,0.50192
531.273,26.92282,-3.65791,-0.45175,0.5017
531.873,26.9413,-3.65916,-0.51784,0.50148
532.473,26.9597,-3.65913,-0.53505,0.50126
533.073,26.97813,-3.65913,-0.58082,0.50105
533.673,26.9966,-3.65916,-0.61815,0.50083
534.273,27.015,-3.65959,-0.63308,0.50061
534.873,27.03339,-3.66046,-0.66622,0.50039
535.473,27.05162,-3.66046,-0.67986,0.50018
536.073,27.07005,-3.66079,-0.68519,0.49996
536.673,27.08847,-3.66273,-0.68682,0.49974
537.273,27.10693,-3.66427,-0.70756,0.49953
537.873,27.1254,-3.66577,-0.71782,0.49931
538.473,27.144,-3.66695,-0.71628,0.49909
539.073,27.16252,-3.66765,-0.73546,0.49887
539.673,27.18105,-3.66768,-0.74121,0.49866
540.273,27.19959,-3.66897,-0.75896,0.49844
540.873,27.2181,-3.66898,-0.77185,0.49822
541.473,27.23658,-3.669,-0.77488,0.49801
542.073,27.25508,-3.66925,-0.77611,0.49779
542.673,27.2735,-3.67048,-0.78926,0.49757
543.273,27.292,-3.67042,-0.80139,0.49736
543.873,27.3105,-3.67042,-0.81963,0.49714
544.473,27.32903,-3.67042,-0.81622,0.49692
545.073,27.34753,-3.67043,-0.82726,0.49671
545.673,27.366,-3.67075,-0.83065,0.49649
546.273,27.3845,-3.67191,-0.83823,0.49627
546.873,27.40302,-3.67185,-0.8463,0.49606
547.473,27.42158,-3.67184,-0.85352,0.49584
548.073,27.44012,-3.67251,-0.85741,0.49562
548.673,27.4587,-3.67387,-0.86667,0.49541
549.273,27.47725,-3.67454,-0.8718,0.49519
549.873,27.49581,-3.67515,-0.87934,0.49497
550.473,27.51432,-3.67514,-0.89166,0.49476
551.073,27.53288,-3.67516,-0.90216,0.49454
551.673,27.55142,-3.67651,-0.91065,0.49432
552.273,27.57,-3.67645,-0.91564,0.49411
552.873,27.58857,-3.67642,-0.92454,0.49389
553.473,27.6072,-3.67764,-0.93349,0.49368
554.073,27.6258,-3.67765,-0.94846,0.49346
554.673,27.6444,-3.67998,-0.95481,0.49324
555.273,27.66302,-3.68072,-0.96832,0.49303
555.873,27.68163,-3.68221,-0.97024,0.49281
556.473,27.7002,-3.68216,-0.97733,0.4926
557.073,27.7188,-3.68246,-0.98395,0.49238
557.673,27.73746,-3.68249,-0.99776,0.49216
558.273,27.7561,-3.68249,-1.00432,0.49195
558.873,27.77475,-3.68249,-1.00971,0.49173
559.473,27.79338,-3.68253,-1.01062,0.49152
560.073,27.812,-3.68343,-1.03299,0.4913
560.673,27.83063,-3.68286,-1.03525,0.49109
561.273,27.84931,-3.68359,-1.04886,0.49087
561.873,27.86791,-3.68377,-1.06126,0.49065
562.473,27.88665,-3.68497,-1.07233,0.49044
563.073,27.90533,-3.68492,-1.08631,0.49022
563.673,27.92404,-3.6851,-1.10009,0.49001
564.273,27.94257,-3.68626,-1.10728,0.48979
564.873,27.96126,-3.68621,-1.11442,0.48958
565.473,27.97992,-3.68687,-1.11786,0.48936
566.073,27.9986,-3.68778,-1.12329,0.48915
566.673,28.01735,-3.68904,-1.12687,0.48893
567.273,28.03622,-3.68933,-1.14464,0.48872
567.873,28.05495,-3.68767,-1.14617,0.4885
568.473,28.07368,-3.6834,-1.16332,0.48829
569.073,28.0924,-3.68148,-1.17816,0.48807
569.673,28.11115,-3.6869,-1.18411,0.48786
570.273,28.12991,-3.69343,-1.20614,0.48764
570.873,28.14865,-3.69763,-1.22252,0.48743
571.473,28.16739,-3.6971,-1.22071,0.48721
572.073,28.1861,-3.69531,-1.23989,0.487
572.673,28.20485,-3.69408,-1.25125,0.48678
573.273,28.22358,-3.69408,-1.25766,0.48657
573.873,28.2423,-3.69498,-1.26881,0.48635
574.473,28.2611,-3.69548,-1.28426,0.48614
575.073,28.27993,-3.69609,-1.29684,0.48593
575.673,28.29865,-3.69696,-1.30367,0.48571
576.273,28.3175,-3.69741,-1.30942,0.4855
576.873,28.33632,-3.69741,-1.33325,0.48528
577.473,28.35513,-3.69741,-1.33748,0.48507
578.073,28.374,-3.69737,-1.34942,0.48485
578.673,28.3928,-3.6983,-1.34935,0.48464
579.273,28.4117,-3.69873,-1.36057,0.48443
579.873,28.43052,-3.69876,-1.36787,0.48421
580.473,28.4493,-3.70004,-1.37396,0.484
581.073,28.46813,-3.70005,-1.38476,0.48378
581.673,28.48695,-3.70028,-1.3978,0.48357
582.273,28.50576,-3.70045,-1.40598,0.48336
582.873,28.52458,-3.70178,-1.41558,0.48314
583.473,28.5434,-3.70166,-1.42995,0.48293
584.073,28.56223,-3.70253,-1.44441,0.48272
584.673,28.5811,-3.703,-1.45525,0.4825
585.273,28.5999,-3.7017,-1.46475,0.48229
585.873,28.6187,-3.70256,-1.47839,0.48208
586.473,28.63755,-3.703,-1.48904,0.48186
587.073,28.6564,-3.70401,-1.50265,0.48165
587.673,28.6752,-3.7043,-1.51786,0.48144
588.273,28.694,-3.70432,-1.53815,0.48122
588.873,28.7128,-3.70432,-1.53082,0.48101
589.473,28.73165,-3.70432,-1.54868,0.4808
590.073,28.75052,-3.70432,-1.54094,0.48059
590.673,28.7695,-3.70429,-1.551,0.48037
591.273,28.78854,-3.70561,-1.56219,0.48016
591.873,28.80745,-3.70626,-1.57905,0.47995
592.473,28.8263,-3.7069,-1.60038,0.47974
593.073,28.84517,-3.70763,-1.60416,0.47952
593.673,28.8641,-3.70781,-1.62616,0.47931
594.273,28.88297,-3.70898,-1.63934,0.4791
594.873,28.9019,-3.70894,-1.64759,0.47889
595.473,28.92083,-3.70898,-1.65469,0.47867
596.073,28.9398,-3.71024,-1.66617,0.47846
596.673,28.9587,-3.71024,-1.67539,0.47825
597.273,28.97768,-3.71138,-1.68882,0.47804
597.873,28.99667,-3.71154,-1.70773,0.47783
598.473,29.0156,-3.71156,-1.71123,0.47761
599.073,29.03459,-3.71158,-1.71305,0.4774
599.673,29.0536,-3.71187,-1.73849,0.47719
600.273,29.07256,-3.7129,-1.74277,0.47698
600.873,29.0915,-3.71296,-1.75671,0.47677
601.473,29.1104,-3.71354,-1.76107,0.47656
602.073,29.12942,-3.71355,-1.77108,0.47635
602.673,29.14837,-3.71436,-1.78128,0.47613
603.273,29.16732,-3.71476,-1.78696,0.47592
603.873,29.1863,-3.71612,-1.80005,0.47571
604.473,29.20533,-3.71612,-1.81091,0.4755
605.073,29.22438,-3.71551,-1.83198,0.47529
605.673,29.2433,-3.71171,-1.82838,0.47508
606.273,29.26231,-3.70706,-1.8467,0.47487
606.873,29.2813,-3.71068,-1.85872,0.47466
607.473,29.3003,-3.72008,-1.88199,0.47445
608.073,29.31928,-3.7274,-1.8916,0.47424
608.673,29.33848,-3.72686,-1.9004,0.47403
609.273,29.35756,-3.72349,-1.91174,0.47382
609.873,29.37668,-3.72185,-1.90994,0.47361
610.473,29.39578,-3.7214,-1.90839,0.47339
611.073,29.4149,-3.71979,-1.90961,0.47318
611.673,29.43399,-3.71989,-1.92883,0.47297
612.273,29.4531,-3.7199,-1.94497,0.47276
612.873,29.4722,-3.7199,-1.95365,0.47255
613.473,29.4912,-3.71988,-1.96251,0.47235
614.073,29.51036,-3.72091,-1.97001,0.47214
614.673,29.5294,-3.72121,-1.98145,0.47193
615.273,29.5485,-3.72121,-1.98733,0.47172
615.873,29.56765,-3.72123,-2.00275,0.47151
616.473,29.5868,-3.72187,-2.00646,0.4713
617.073,29.60585,-3.72254,-2.02871,0.47109
617.673,29.625,-3.72253,-2.03774,0.47088
618.273,29.6441,-3.72253,-2.05702,0.47067
618.873,29.6632,-3.72253,-2.06428,0.47046
619.473,29.6823,-3.72255,-2.05886,0.47025
620.073,29.7014,-3.72391,-2.07706,0.47004
620.673,29.7206,-3.72385,-2.09912,0.46983
621.273,29.73978,-3.72385,-2.11041,0.46963
621.873,29.75895,-3.72381,-2.12233,0.46942
622.473,29.7781,-3.72453,-2.13007,0.46921
623.073,29.7973,-3.7245,-2.13896,0.469
623.673,29.81653,-3.7245,-2.14728,0.46879
624.273,29.8357,-3.7245,-2.15414,0.46858
624.873,29.8548,-3.72449,-2.16329,0.46838
625.473,29.874,-3.72524,-2.18712,0.46817
626.073,29.8932,-3.72579,-2.19362,0.46796
626.673,29.91228,-3.72582,-2.2029,0.46775
627.273,29.9314,-3.72719,-2.20464,0.46754
627.873,29.95066,-3.72709,-2.21094,0.46734
628.473,29.96985,-3.72712,-2.22764,0.46713
629.073,29.98906,-3.72712,-2.24001,0.46692
629.673,30.0083,-3.72706,-2.25248,0.46671
630.273,30.02757,-3.72843,-2.26168,0.46651
630.873,30.04679,-3.72884,-2.27782,0.4663
631.473,30.06604,-3.7298,-2.28402,0.46609
632.073,30.0853,-3.72977,-2.2718,0.46589
632.673,30.10456,-3.72978,-2.28304,0.46568
633.273,30.12374,-3.73008,-2.29057,0.46547
633.873,30.1429,-3.73109,-2.30027,0.46527
634.473,30.1621,-3.73108,-2.30286,0.46506
635.073,30.1814,-3.73062,-2.30509,0.46485
635.673,30.2006,-3.72978,-2.3121,0.46465
636.273,30.21995,-3.72977,-2.30796,0.46444
636.873,30.2394,-3.73038,-2.33338,0.46423
637.473,30.2587,-3.73111,-2.33125,0.46403
638.073,30.27802,-3.73187,-2.35847,0.46382
638.673,30.29735,-3.7323,-2.35284,0.46361
639.273,30.3167,-3.73368,-2.35504,0.46341
639.873,30.336,-3.73371,-2.35545,0.4632
640.473,30.3552,-3.73371,-2.36258,0.463
641.073,30.37453,-3.73371,-2.37637,0.46279
641.673,30.39384,-3.73371,-2.3728,0.46259
642.273,30.4132,-3.73371,-2.37979,0.46238
642.873,30.43245,-3.73371,-2.39269,0.46218
643.473,30.4518,-3.73371,-2.39498,0.46197
644.073,30.4711,-3.73371,-2.40556,0.46177
644.673,30.4905,-3.73371,-2.40529,0.46156
645.273,30.50982,-3.73502,-2.41591,0.46136
645.873,30.52923,-3.73502,-2.43587,0.46115
646.473,30.54852,-3.73497,-2.44918,0.46095
647.073,30.56782,-3.73633,-2.43876,0.46074
647.673,30.58715,-3.73634,-2.43901,0.46054
648.273,30.60646,-3.73634,-2.44372,0.46033
648.873,30.62578,-3.73635,-2.44481,0.46013
649.473,30.64505,-3.73647,-2.4521,0.45993
650.073,30.66433,-3.73702,-2.45973,0.45972
650.673,30.6836,-3.73695,-2.46879,0.45952
651.273,30.70283,-3.73773,-2.46113,0.45931
651.873,30.72213,-3.73765,-2.46566,0.45911
652.473,30.74147,-3.73629,-2.48593,0.45891
653.073,30.76087,-3.73635,-2.5073,0.4587
653.673,30.7802,-3.73635,-2.49906,0.4585
654.273,30.79963,-3.73633,-2.49512,0.4583
654.873,30.81905,-3.73766,-2.50299,0.45809
655.473,30.83848,-3.73766,-2.50049,0.45789
656.073,30.8579,-3.73766,-2.50229,0.45769
656.673,30.87732,-3.73767,-2.50627,0.45748
657.273,30.89674,-3.73807,-2.50724,0.45728
657.873,30.9162,-3.73973,-2.51493,0.45708
658.473,30.9357,-3.74041,-2.51545,0.45688
659.073,30.95518,-3.7404,-2.53329,0.45667
659.673,30.9747,-3.7404,-2.52799,0.45647
660.273,30.99418,-3.74038,-2.53329,0.45627
660.873,31.01362,-3.7401,-2.54771,0.45607
661.473,31.033,-3.73922,-2.55814,0.45587
662.073,31.05248,-3.74045,-2.55642,0.45566
662.673,31.0719,-3.74039,-2.56275,0.45546
663.273,31.0914,-3.74117,-2.55462,0.45526
663.873,31.1109,-3.74212,-2.55431,0.45506
664.473,31.13038,-3.74302,-2.54852,0.45486
665.073,31.1499,-3.74303,-2.55912,0.45466
665.673,31.1693,-3.74303,-2.55507,0.45445
666.273,31.1888,-3.74303,-2.55204,0.45425
666.873,31.2082,-3.74299,-2.56996,0.45405
667.473,31.22767,-3.74425,-2.55969,0.45385
668.073,31.2471,-3.74434,-2.56168,0.45365
668.673,31.2665,-3.74436,-2.56372,0.45345
669.273,31.2861,-3.74338,-2.56356,0.45325
669.873,31.3056,-3.74306,-2.56804,0.45305
670.473,31.32515,-3.74392,-2.563,0.45285
671.073,31.3447,-3.74433,-2.57802,0.45265
671.673,31.36419,-3.74436,-2.58719,0.45245
672.273,31.38368,-3.74436,-2.58023,0.45225
672.873,31.4032,-3.74433,-2.55974,0.45205
673.473,31.4227,-3.74524,-2.55953,0.45185
674.073,31.44225,-3.74566,-2.56279,0.45165
674.673,31.46172,-3.74567,-2.57794,0.45145
675.273,31.48112,-3.74567,-2.57599,0.45125
675.873,31.5006,-3.74567,-2.59149,0.45105
676.473,31.52008,-3.74567,-2.59421,0.45085
677.073,31.5396,-3.74567,-2.59365,0.45065
677.673,31.5592,-3.74567,-2.59836,0.45045
678.273,31.5788,-3.74568,-2.60095,0.45026
678.873,31.5985,-3.74619,-2.59825,0.45006
679.473,31.6181,-3.747,-2.592,0.44986
680.073,31.63767,-3.74698,-2.60195,0.44966
680.673,31.65725,-3.74698,-2.60154,0.44946
681.273,31.6768,-3.74698,-2.61202,0.44926
681.873,31.69636,-3.74698,-2.61566,0.44906
682.473,31.7159,-3.74701,-2.61677,0.44887
683.073,31.7354,-3.74749,-2.62821,0.44867
683.673,31.75494,-3.7483,-2.63564,0.44847
684.273,31.7745,-3.74828,-2.63145,0.44827
684.873,31.79407,-3.74792,-2.62346,0.44808
685.473,31.81363,-3.74735,-2.6371,0.44788
686.073,31.8332,-3.74732,-2.65565,0.44768
686.673,31.8529,-3.74796,-2.65458,0.44748
687.273,31.8725,-3.74871,-2.64527,0.44729
687.873,31.89208,-3.74874,-2.65601,0.44709
688.473,31.91165,-3.74874,-2.65956,0.44689
689.073,31.93123,-3.74879,-2.65615,0.4467
689.673,31.95082,-3.75009,-2.6491,0.4465
690.273,31.97045,-3.74972,-2.65038,0.4463
690.873,31.98998,-3.74973,-2.6628,0.44611
691.473,32.0096,-3.74973,-2.68059,0.44591
692.073,32.02922,-3.74973,-2.68261,0.44571
692.673,32.04883,-3.74973,-2.69145,0.44552
693.273,32.0684,-3.74973,-2.69692,0.44532
693.873,32.08814,-3.74973,-2.71736,0.44513
694.473,32.10775,-3.74973,-2.72417,0.44493
695.073,32.12735,-3.74975,-2.73479,0.44474
695.673,32.14691,-3.75041,-2.74958,0.44454
696.273,32.16652,-3.75106,-2.76179,0.44435
696.873,32.18614,-3.75105,-2.77093,0.44415
697.473,32.20581,-3.75108,-2.77571,0.44396
698.073,32.22549,-3.7505,-2.76939,0.44376
698.673,32.2453,-3.75036,-2.76818,0.44357
699.273,32.26494,-3.75075,-2.77024,0.44337
699.873,32.28459,-3.75074,-2.78332,0.44318
700.473,32.30425,-3.75096,-2.79849,0.44298
701.073,32.3239,-3.75171,-2.81962,0.44279
701.673,32.3435,-3.75163,-2.81492,0.44259
702.273,32.3632,-3.75289,-2.81884,0.4424
702.873,32.38288,-3.75304,-2.82609,0.44221
703.473,32.4026,-3.75212,-2.81844,0.44201
704.073,32.42223,-3.75256,-2.80616,0.44182
704.673,32.44188,-3.75301,-2.78732,0.44163
705.273,32.46151,-3.75304,-2.78798,0.44143
705.873,32.48121,-3.75232,-2.80511,0.44124
706.473,32.50087,-3.75236,-2.81152,0.44105
707.073,32.52052,-3.75236,-2.81274,0.44085
707.673,32.54027,-3.75236,-2.82008,0.44066
708.273,32.55995,-3.75236,-2.83197,0.44047
708.873,32.5797,-3.75336,-2.81792,0.44027
709.473,32.59942,-3.75335,-2.81866,0.44008
710.073,32.61912,-3.75335,-2.82696,0.43989
710.673,32.6388,-3.75335,-2.81748,0.4397
711.273,32.65852,-3.75336,-2.81718,0.4395
711.873,32.67823,-3.75392,-2.83362,0.43931
712.473,32.69797,-3.754,-2.83259,0.43912
713.073,32.71772,-3.75393,-2.83577,0.43893
713.673,32.73749,-3.7553,-2.84152,0.43874
714.273,32.7572,-3.75532,-2.84129,0.43855
714.873,32.77701,-3.75532,-2.84099,0.43835
715.473,32.79678,-3.75532,-2.84511,0.43816
716.073,32.8166,-3.75533,-2.83741,0.43797
716.673,32.8362,-3.75432,-2.82216,0.43778
717.273,32.85597,-3.75399,-2.8274,0.43759
717.873,32.8757,-3.75436,-2.82524,0.4374
718.473,32.89544,-3.75433,-2.81945,0.43721
719.073,32.91523,-3.7543,-2.82742,0.43702
719.673,32.93505,-3.75683,-2.82199,0.43683
720.273,32.95479,-3.75665,-2.82481,0.43664
720.873,32.97456,-3.75663,-2.81996,0.43645
721.473,32.99429,-3.75728,-2.81689,0.43626
722.073,33.01405,-3.75761,-2.80077,0.43607
722.673,33.0338,-3.75763,-2.79743,0.43588
723.273,33.0536,-3.75763,-2.78819,0.43569
723.873,33.07332,-3.75763,-2.77919,0.4355
724.473,33.0931,-3.75763,-2.79433,0.43531
725.073,33.11293,-3.75763,-2.80838,0.43512
725.673,33.13272,-3.75763,-2.82127,0.43493
726.273,33.15249,-3.75763,-2.82572,0.43474
726.873,33.1723,-3.75764,-2.80856,0.43455
727.473,33.192,-3.75772,-2.80711,0.43437
728.073,33.21181,-3.75682,-2.80753,0.43418
728.673,33.2316,-3.75742,-2.80243,0.43399
729.273,33.25147,-3.75794,-2.78745,0.4338
729.873,33.27129,-3.75795,-2.788,0.43361
730.473,33.2911,-3.75795,-2.7813,0.43342
731.073,33.31173,-3.75795,-2.78009,0.43324
731.673,33.33173,-3.75795,-2.77422,0.43305