File: 01_Data/Composite_Deck_Board/STA/N2/30K_min/Composite_Deck_Board_STA_N2_30KData_210629_R3.csv
##Temp./Â°C,Time/min,Mass loss(subtr.2)/mg,DSC(subtr.2)/mW,Sensit./(uV/mW)
50.71,10.01,-0.00515,0.01468367,0.6235
51.31,11.0024,-0.003949393,0.15502,0.62349
51.91,11.21239,-0.004352885,0.26978,0.62349
52.51,11.35695,-0.004288147,0.36901,0.62348
53.11,11.47045,-0.005926272,0.46055,0.62347
53.71,11.5654,-0.003461906,0.5719,0.62346
54.31,11.64935,-0.003286281,0.64418,0.62345
54.91,11.72408,-0.002545155,0.72867,0.62344
55.51,11.79335,-0.003607695,0.8148,0.62343
56.11,11.85564,-0.003703693,0.89734,0.62342
56.71,11.91496,-0.005558488,0.96305,0.62341
57.31,11.97076,-0.001942177,1.03247,0.6234
57.91,12.02375,-0.00265201,1.09653,0.62339
58.51,12.07418,-0.004146957,1.18064,0.62338
59.11,12.12246,-0.00122652,1.22888,0.62336
59.71,12.1693,-0.003466398,1.30379,0.62335
60.31,12.21481,-0.004157972,1.35097,0.62333
60.91,12.25837,-0.00327418,1.42295,0.62332
61.51,12.30077,-0.00270233,1.4579,0.6233
62.11,12.3421,-0.003317379,1.51164,0.62329
62.71,12.38233,-0.00271115,1.56908,0.62327
63.31,12.4217,-0.003169618,1.61829,0.62325
63.91,12.4604,-0.00416916,1.63948,0.62324
64.51,12.4983,-0.004758666,1.6887,0.62322
65.11,12.53562,-0.00562486,1.73003,0.6232
65.71,12.5723,-0.00426794,1.76546,0.62318
66.31,12.60852,-0.001862556,1.79325,0.62316
66.91,12.64405,-0.001273024,1.82945,0.62314
67.51,12.6789,-0.002081989,1.87323,0.62312
68.11,12.71338,-0.001902976,1.90678,0.6231
68.71,12.74752,-0.001032603,1.92664,0.62307
69.31,12.7814,-0.003427779,1.97102,0.62305
69.91,12.81476,-0.00443566,2.00299,0.62303
70.51,12.84775,-0.004264574,2.02446,0.623
71.11,12.8806,-0.002876425,2.0633,0.62298
71.71,12.9129,-0.002601306,2.09367,0.62296
72.31,12.94506,-0.00267017,2.12254,0.62293
72.91,12.97675,-0.003195073,2.14866,0.6229
73.51,13.0085,-0.005529,2.18242,0.62288
74.11,13.0398,-0.004727218,2.21594,0.62285
74.71,13.071,-0.00488778,2.24021,0.62282
75.31,13.1019,-0.00293319,2.27047,0.6228
75.91,13.13245,-0.003772546,2.29289,0.62277
76.51,13.16281,-0.004411221,2.32318,0.62274
77.11,13.193,-0.002926812,2.34426,0.62271
77.71,13.22264,-0.002858323,2.38069,0.62268
78.31,13.2524,-0.003894607,2.40561,0.62265
78.91,13.28222,-0.004582523,2.44348,0.62262
79.51,13.3122,-0.003753245,2.46016,0.62259
80.11,13.34176,-0.002992125,2.48936,0.62255
80.71,13.37081,-0.004277665,2.51276,0.62252
81.31,13.39989,-0.004269868,2.52838,0.62249
81.91,13.4287,-0.004803837,2.55711,0.62245
82.51,13.45749,-0.004204552,2.58413,0.62242
83.11,13.48586,-0.004493437,2.60283,0.62239
83.71,13.51414,-0.00503083,2.6334,0.62235
84.31,13.5423,-0.005597429,2.6674,0.62231
84.91,13.5703,-0.004263913,2.67766,0.62228
85.51,13.59806,-0.00541261,2.70433,0.62224
86.11,13.6259,-0.004589035,2.72813,0.6222
86.71,13.65347,-0.00610552,2.75551,0.62217
87.31,13.68087,-0.007338809,2.78403,0.62213
87.91,13.7082,-0.007881396,2.80355,0.62209
88.51,13.7354,-0.007445579,2.82168,0.62205
89.11,13.76255,-0.00719301,2.8447,0.62201
89.71,13.7893,-0.00710898,2.86695,0.62197
90.31,13.81598,-0.007255411,2.91072,0.62193
90.91,13.84251,-0.007597174,2.93978,0.62189
91.51,13.86878,-0.00711332,2.94973,0.62184
92.11,13.89507,-0.007047067,2.98033,0.6218
92.71,13.92126,-0.008357399,3.00477,0.62176
93.31,13.94716,-0.007114624,3.03122,0.62172
93.91,13.9726,-0.007188735,3.06488,0.62167
94.51,13.99815,-0.007927791,3.08365,0.62163
95.11,14.02369,-0.009044995,3.11384,0.62158
95.71,14.04955,-0.007966018,3.15146,0.62154
96.31,14.07533,-0.00896543,3.16656,0.62149
96.91,14.1009,-0.008991655,3.20044,0.62144
97.51,14.12611,-0.008118258,3.22886,0.6214
98.11,14.15116,-0.008969721,3.26893,0.62135
98.71,14.17595,-0.008466886,3.30418,0.6213
99.31,14.20064,-0.00879369,3.34111,0.62125
99.91,14.22529,-0.01014386,3.35373,0.6212
100.51,14.25,-0.00876895,3.40108,0.62115
101.11,14.27465,-0.008760833,3.42693,0.6211
101.71,14.299,-0.008513681,3.47446,0.62105
102.31,14.32324,-0.007751608,3.52158,0.621
102.91,14.34702,-0.008799911,3.56923,0.62095
103.51,14.37093,-0.009836701,3.60167,0.6209
104.11,14.39492,-0.009941165,3.63964,0.62085
104.71,14.41881,-0.00999398,3.69322,0.62079
105.31,14.4429,-0.009482435,3.71751,0.62074
105.91,14.4666,-0.00878853,3.76814,0.62069
106.51,14.4902,-0.00876993,3.83453,0.62063
107.11,14.51361,-0.00876035,3.88447,0.62058
107.71,14.5371,-0.008362119,3.93307,0.62052
108.31,14.5604,-0.00868656,3.97877,0.62046
108.91,14.58359,-0.008810936,4.02561,0.62041
109.51,14.6067,-0.009478553,4.08377,0.62035
110.11,14.62974,-0.009083782,4.15419,0.62029
110.71,14.65276,-0.009748782,4.21816,0.62023
111.31,14.67569,-0.00883872,4.27234,0.62018
111.91,14.6986,-0.00874122,4.35923,0.62012
112.51,14.7212,-0.008771377,4.44052,0.62006
113.11,14.7438,-0.008780169,4.4971,0.62
113.71,14.76636,-0.00912411,4.5846,0.61994
114.31,14.7888,-0.01023029,4.64737,0.61988
114.91,14.8113,-0.01123869,4.74159,0.61981
115.51,14.83368,-0.01024271,4.81426,0.61975
116.11,14.8561,-0.01029668,4.91856,0.61969
116.71,14.8784,-0.01029866,5.01276,0.61963
117.31,14.9005,-0.01030786,5.11538,0.61956
117.91,14.92265,-0.009118946,5.23204,0.6195
118.51,14.94462,-0.01000949,5.34057,0.61944
119.11,14.9665,-0.008924595,5.4593,0.61937
119.71,14.98829,-0.01040339,5.57808,0.61931
120.31,15.01,-0.009101134,5.71661,0.61924
120.91,15.0317,-0.00909533,5.8764,0.61917
121.51,15.05326,-0.009107336,6.03579,0.61911
122.11,15.0749,-0.009293455,6.2266,0.61904
122.71,15.09636,-0.009067129,6.42034,0.61897
123.31,15.11774,-0.009098565,6.61524,0.6189
123.91,15.139,-0.009100211,6.78601,0.61883
124.51,15.16027,-0.00909879,6.89944,0.61876
125.11,15.1816,-0.007711029,6.94343,0.6187
125.71,15.2028,-0.007745597,6.9061,0.61862
126.31,15.22388,-0.008774854,6.77529,0.61855
126.91,15.2449,-0.008803852,6.60972,0.61848
127.51,15.26581,-0.009414028,6.45594,0.61841
128.11,15.28679,-0.009698353,6.32243,0.61834
128.71,15.30741,-0.01089932,6.26809,0.61827
129.31,15.32792,-0.01086211,6.21355,0.61819
129.91,15.3487,-0.01085917,6.21497,0.61812
130.51,15.3693,-0.0108521,6.23061,0.61805
131.11,15.38993,-0.01020201,6.2383,0.61797
131.71,15.4107,-0.01085386,6.22196,0.6179
132.31,15.43114,-0.01076786,6.14119,0.61782
132.91,15.4515,-0.008150992,5.97913,0.61775
133.51,15.4719,-0.008223755,5.78848,0.61767
134.11,15.49216,-0.008385323,5.57432,0.61759
134.71,15.5124,-0.009564009,5.37645,0.61752
135.31,15.53254,-0.008745855,5.20291,0.61744
135.91,15.55264,-0.008573761,5.04133,0.61736
136.51,15.57267,-0.008206645,4.89118,0.61728
137.11,15.5926,-0.009611216,4.75652,0.6172
137.71,15.6125,-0.009322564,4.64758,0.61712
138.31,15.63243,-0.009077945,4.56901,0.61704
138.91,15.6522,-0.009570453,4.45847,0.61696
139.51,15.67205,-0.008407845,4.38265,0.61688
140.11,15.6918,-0.008231014,4.31595,0.6168
140.71,15.71146,-0.008228898,4.25495,0.61672
141.31,15.731,-0.008218889,4.20991,0.61664
141.91,15.75058,-0.008915393,4.16649,0.61655
142.51,15.77,-0.009210138,4.12241,0.61647
143.11,15.78951,-0.009861917,4.08771,0.61639
143.71,15.80892,-0.009868705,4.07916,0.6163
144.31,15.8283,-0.009871204,4.05545,0.61622
144.91,15.8477,-0.00989274,4.04311,0.61613
145.51,15.867,-0.01044469,4.02251,0.61605
146.11,15.8862,-0.009043633,4.00445,0.61596
146.71,15.90545,-0.008938821,4.00339,0.61587
147.31,15.9247,-0.008005293,4.01461,0.61579
147.91,15.94391,-0.00900011,3.99854,0.6157
148.51,15.96301,-0.009121608,3.99533,0.61561
149.11,15.9821,-0.01088696,3.99516,0.61552
149.71,16.0012,-0.01161749,3.99538,0.61544
150.31,16.02017,-0.01162984,4.00466,0.61535
150.91,16.03923,-0.01163025,3.98706,0.61526
151.51,16.05823,-0.01163516,3.99739,0.61517
152.11,16.07718,-0.01053343,3.99577,0.61508
152.71,16.09608,-0.0102793,3.99496,0.61499
153.31,16.11492,-0.01134919,4.01251,0.61489
153.91,16.13373,-0.01158196,4.02721,0.6148
154.51,16.1526,-0.0120003,4.02163,0.61471
155.11,16.1714,-0.01159873,4.02312,0.61462
155.71,16.1903,-0.01161966,4.03149,0.61452
156.31,16.20911,-0.0116201,4.03322,0.61443
156.91,16.22781,-0.01161999,4.04182,0.61434
157.51,16.2465,-0.0116195,4.04735,0.61424
158.11,16.26512,-0.01161332,4.05613,0.61415
158.71,16.2838,-0.01154544,4.06233,0.61405
159.31,16.30238,-0.01275344,4.06984,0.61396
159.91,16.32098,-0.01157213,4.08867,0.61386
160.51,16.33961,-0.01162177,4.09445,0.61376
161.11,16.35821,-0.01162347,4.10814,0.61367
161.71,16.37673,-0.01167139,4.10289,0.61357
162.31,16.39527,-0.01054479,4.10647,0.61347
162.91,16.41375,-0.01031402,4.11575,0.61337
163.51,16.43218,-0.01030085,4.13542,0.61327
164.11,16.45061,-0.01030002,4.15979,0.61317
164.71,16.46896,-0.01030011,4.17424,0.61307
165.31,16.48733,-0.01030296,4.19382,0.61297
165.91,16.5058,-0.009245533,4.19123,0.61287
166.51,16.52413,-0.007974418,4.19639,0.61277
167.11,16.54249,-0.008009065,4.2142,0.61267
167.71,16.56089,-0.00801609,4.22842,0.61257
168.31,16.57915,-0.007694363,4.2253,0.61247
168.91,16.5974,-0.00724273,4.23918,0.61237
169.51,16.61562,-0.00631542,4.2534,0.61226
170.11,16.6339,-0.00635266,4.25807,0.61216
170.71,16.65204,-0.00633628,4.26146,0.61205
171.31,16.67013,-0.008688703,4.26645,0.61195
171.91,16.68834,-0.009116196,4.28435,0.61185
172.51,16.70648,-0.009730399,4.30025,0.61174
173.11,16.7246,-0.01042677,4.30667,0.61163
173.71,16.7427,-0.01042047,4.32723,0.61153
174.31,16.7609,-0.01042002,4.33303,0.61142
174.91,16.77895,-0.01042,4.33782,0.61132
175.51,16.79699,-0.01042003,4.35257,0.61121
176.11,16.815,-0.01042047,4.36553,0.6111
176.71,16.83298,-0.01042421,4.37036,0.61099
177.31,16.85097,-0.01000261,4.37507,0.61088
177.91,16.8689,-0.009078909,4.37772,0.61078
178.51,16.88683,-0.009044349,4.39178,0.61067
179.11,16.90474,-0.01013728,4.39494,0.61056
179.71,16.9226,-0.01040374,4.40473,0.61045
180.31,16.94047,-0.01041236,4.41605,0.61034
180.91,16.95831,-0.01123311,4.42374,0.61022
181.51,16.97618,-0.01184788,4.43374,0.61011
182.11,16.99401,-0.01258581,4.43793,0.61
182.71,17.0118,-0.01314023,4.45464,0.60989
183.31,17.02948,-0.01316063,4.4762,0.60978
183.91,17.04724,-0.01316028,4.47691,0.60966
184.51,17.06493,-0.01316004,4.49211,0.60955
185.11,17.08258,-0.01316002,4.50095,0.60944
185.71,17.1003,-0.01316002,4.50771,0.60932
186.31,17.1179,-0.01315869,4.52476,0.60921
186.91,17.13553,-0.01308236,4.53633,0.60909
187.51,17.15308,-0.01177798,4.55343,0.60898
188.11,17.17064,-0.01112417,4.55525,0.60886
188.71,17.18815,-0.01050158,4.57336,0.60874
189.31,17.20567,-0.01050862,4.59474,0.60863
189.91,17.22318,-0.01188196,4.60685,0.60851
190.51,17.2407,-0.01335402,4.61796,0.60839
191.11,17.25814,-0.01389087,4.63601,0.60828
191.71,17.2756,-0.01472103,4.64519,0.60816
192.31,17.29301,-0.01455778,4.65741,0.60804
192.91,17.3104,-0.01335889,4.6686,0.60792
193.51,17.32785,-0.01337583,4.6754,0.6078
194.11,17.34521,-0.0133709,4.67709,0.60768
194.71,17.3626,-0.01337007,4.68479,0.60756
195.31,17.3799,-0.01337,4.69865,0.60744
195.91,17.39723,-0.0133697,4.7091,0.60732
196.51,17.4145,-0.01336615,4.70212,0.6072
197.11,17.4317,-0.01334967,4.70062,0.60708
197.71,17.44902,-0.01396503,4.71029,0.60695
198.31,17.46632,-0.01436509,4.71833,0.60683
198.91,17.4836,-0.01506095,4.71877,0.60671
199.51,17.5009,-0.01566838,4.71621,0.60658
200.11,17.51816,-0.01568248,4.73155,0.60646
200.71,17.53538,-0.01568044,4.76948,0.60634
201.31,17.55262,-0.01568003,4.77256,0.60621
201.91,17.56975,-0.01568,4.77334,0.60609
202.51,17.58689,-0.01568,4.78622,0.60596
203.11,17.60406,-0.01568006,4.79585,0.60584
203.71,17.6212,-0.01568022,4.8044,0.60571
204.31,17.6383,-0.01567729,4.81656,0.60558
204.91,17.6554,-0.0156298,4.82871,0.60546
205.51,17.6724,-0.01654183,4.83202,0.60533
206.11,17.68955,-0.01700393,4.84759,0.6052
206.71,17.70665,-0.01700252,4.84608,0.60507
207.31,17.7238,-0.01700027,4.85596,0.60495
207.91,17.74086,-0.01700001,4.85897,0.60482
208.51,17.758,-0.017,4.87234,0.60469
209.11,17.77506,-0.01699998,4.8974,0.60456
209.71,17.79212,-0.01699987,4.90687,0.60443
210.31,17.80914,-0.0170005,4.90171,0.6043
210.91,17.82613,-0.01701631,4.9207,0.60417
211.51,17.84306,-0.01645299,4.92194,0.60404
212.11,17.8601,-0.01601096,4.92332,0.60391
212.71,17.87709,-0.0160074,4.94239,0.60377
213.31,17.8941,-0.01600975,4.96837,0.60364
213.91,17.91105,-0.01601021,4.97299,0.60351
214.51,17.92804,-0.01600649,4.97424,0.60338
215.11,17.94499,-0.01595258,4.97073,0.60324
215.71,17.96195,-0.01677913,4.9721,0.60311
216.31,17.97889,-0.0170034,4.99092,0.60298
216.91,17.9958,-0.01700148,5.00551,0.60284
217.51,18.01274,-0.01700389,5.00936,0.60271
218.11,18.02964,-0.01699486,5.00736,0.60257
218.71,18.04654,-0.01757902,5.04072,0.60244
219.31,18.06339,-0.01765305,5.04298,0.6023
219.91,18.08025,-0.01765993,5.04642,0.60217
220.51,18.09708,-0.01766008,5.05339,0.60203
221.11,18.1139,-0.01766001,5.06989,0.60189
221.71,18.13073,-0.01766,5.08462,0.60176
222.31,18.14754,-0.01766,5.0945,0.60162
222.91,18.1644,-0.01766,5.09999,0.60148
223.51,18.18115,-0.01766,5.11061,0.60134
224.11,18.19797,-0.01766,5.1252,0.6012
224.71,18.21472,-0.01766004,5.11797,0.60107
225.31,18.2315,-0.01766019,5.1386,0.60093
225.91,18.2483,-0.01765814,5.15916,0.60079
226.51,18.2651,-0.0176265,5.16255,0.60065
227.11,18.28186,-0.01801612,5.16821,0.60051
227.71,18.29853,-0.0179962,5.19825,0.60037
228.31,18.3152,-0.01825765,5.20397,0.60023
228.91,18.33192,-0.01931425,5.21465,0.60008
229.51,18.34863,-0.0198879,5.22773,0.59994
230.11,18.36535,-0.01996725,5.23877,0.5998
230.71,18.3821,-0.02011526,5.23839,0.59966
231.31,18.39896,-0.02126449,5.25681,0.59952
231.91,18.41561,-0.02126833,5.27557,0.59937
232.51,18.43234,-0.02126988,5.28306,0.59923
233.11,18.449,-0.02126999,5.30115,0.59909
233.71,18.46569,-0.02126951,5.31633,0.59894
234.31,18.48237,-0.02126669,5.30344,0.5988
234.91,18.49902,-0.02152485,5.30328,0.59865
235.51,18.5156,-0.02267409,5.31219,0.59851
236.11,18.53226,-0.02259684,5.34172,0.59836
236.71,18.54891,-0.02258582,5.35971,0.59822
237.31,18.56554,-0.02350455,5.36759,0.59807
237.91,18.5822,-0.02388168,5.37321,0.59792
238.51,18.5987,-0.02366438,5.38385,0.59778
239.11,18.61544,-0.02241,5.40396,0.59763
239.71,18.63206,-0.02371777,5.40098,0.59748
240.31,18.64865,-0.02391191,5.40399,0.59733
240.91,18.66524,-0.02390391,5.40833,0.59719
241.51,18.68192,-0.02387427,5.41905,0.59704
242.11,18.69855,-0.02476538,5.42683,0.59689
242.71,18.7151,-0.02524897,5.44111,0.59674
243.31,18.73169,-0.02529279,5.44575,0.59659
243.91,18.74825,-0.02656785,5.4775,0.59644
244.51,18.76483,-0.02665134,5.48002,0.59629
245.11,18.78139,-0.02720524,5.4991,0.59614
245.71,18.79797,-0.02930218,5.50031,0.59599
246.31,18.81449,-0.0301302,5.49978,0.59584
246.91,18.83103,-0.03068613,5.51212,0.59569
247.51,18.84756,-0.03116284,5.52168,0.59554
248.11,18.86407,-0.03205953,5.52114,0.59538
248.71,18.88058,-0.03199822,5.53386,0.59523
249.31,18.89711,-0.03233017,5.55351,0.59508
249.91,18.9137,-0.03255933,5.55251,0.59493
250.51,18.9302,-0.03423512,5.56353,0.59477
251.11,18.94676,-0.03456828,5.57715,0.59462
251.71,18.96327,-0.03582767,5.58537,0.59446
252.31,18.9798,-0.03576245,5.59311,0.59431
252.91,18.99625,-0.03635774,5.59917,0.59416
253.51,19.01269,-0.03708401,5.61277,0.594
254.11,19.02919,-0.03704847,5.63358,0.59385
254.71,19.04567,-0.03817626,5.6463,0.59369
255.31,19.06215,-0.03843646,5.62989,0.59353
255.91,19.0786,-0.04018092,5.65566,0.59338
256.51,19.095,-0.04118906,5.66386,0.59322
257.11,19.11146,-0.04118463,5.6523,0.59307
257.71,19.12789,-0.04245361,5.65069,0.59291
258.31,19.14428,-0.0425441,5.66338,0.59275
258.91,19.16071,-0.04256214,5.67826,0.59259
259.51,19.17719,-0.04371565,5.68887,0.59244
260.11,19.19369,-0.04378683,5.70447,0.59228
260.71,19.21015,-0.0442026,5.70681,0.59212
261.31,19.2266,-0.04503988,5.72611,0.59196
261.91,19.24306,-0.04621676,5.71436,0.5918
262.51,19.25947,-0.04790034,5.72409,0.59164
263.11,19.27589,-0.04926773,5.72952,0.59148
263.71,19.29224,-0.05051723,5.73759,0.59132
264.31,19.30859,-0.05198445,5.73837,0.59116
264.91,19.325,-0.05392172,5.72431,0.591
265.51,19.3414,-0.0555668,5.71029,0.59084
266.11,19.3578,-0.05649467,5.72604,0.59068
266.71,19.37417,-0.05768144,5.73675,0.59052
267.31,19.39056,-0.05902229,5.73579,0.59035
267.91,19.407,-0.0598175,5.74737,0.59019
268.51,19.4234,-0.06077793,5.75287,0.59003
269.11,19.4398,-0.06250174,5.7583,0.58987
269.71,19.4561,-0.06299293,5.77298,0.5897
270.31,19.47259,-0.06575178,5.77203,0.58954
270.91,19.48895,-0.06748073,5.77883,0.58938
271.51,19.50532,-0.06968765,5.78516,0.58921
272.11,19.52166,-0.07132524,5.79678,0.58905
272.71,19.53805,-0.07161938,5.78308,0.58888
273.31,19.5544,-0.07152374,5.78642,0.58872
273.91,19.57078,-0.07277947,5.78792,0.58855
274.51,19.5871,-0.07424644,5.79566,0.58839
275.11,19.60351,-0.07562234,5.78221,0.58822
275.71,19.61991,-0.07743107,5.80063,0.58806
276.31,19.63626,-0.07910722,5.79918,0.58789
276.91,19.65266,-0.08130847,5.80637,0.58772
277.51,19.669,-0.08332126,5.81759,0.58756
278.11,19.68542,-0.08554745,5.83162,0.58739
278.71,19.70179,-0.08676991,5.82682,0.58722
279.31,19.71816,-0.08803658,5.8249,0.58706
279.91,19.7346,-0.08967634,5.84996,0.58689
280.51,19.75092,-0.09122052,5.84647,0.58672
281.11,19.7673,-0.09281248,5.86134,0.58655
281.71,19.78367,-0.09492254,5.87072,0.58638
282.31,19.80004,-0.09685343,5.88007,0.58621
282.91,19.81643,-0.0995346,5.88535,0.58604
283.51,19.8328,-0.10181,5.87007,0.58587
284.11,19.84918,-0.10369,5.89996,0.5857
284.71,19.86553,-0.10593,5.90775,0.58553
285.31,19.88192,-0.10795,5.90455,0.58536
285.91,19.8982,-0.1103,5.90495,0.58519
286.51,19.91456,-0.11311,5.91261,0.58502
287.11,19.93095,-0.11608,5.91918,0.58485
287.71,19.94731,-0.11952,5.93429,0.58468
288.31,19.96365,-0.1223,5.95475,0.58451
288.91,19.98003,-0.12427,5.95509,0.58434
289.51,19.99642,-0.12643,5.9594,0.58416
290.11,20.0128,-0.12856,5.97822,0.58399
290.71,20.02915,-0.13059,5.98312,0.58382
291.31,20.04553,-0.13375,5.97524,0.58364
291.91,20.06188,-0.13697,5.98019,0.58347
292.51,20.07825,-0.14031,6.00144,0.5833
293.11,20.0946,-0.14547,6.00363,0.58312
293.71,20.11094,-0.14871,6.00417,0.58295
294.31,20.12728,-0.15152,6.02266,0.58278
294.91,20.14368,-0.15606,6.03773,0.5826
295.51,20.16005,-0.1596,6.03482,0.58243
296.11,20.1764,-0.16358,6.02792,0.58225
296.71,20.19277,-0.16618,6.04158,0.58208
297.31,20.20916,-0.1711,6.03957,0.5819
297.91,20.22559,-0.17392,6.04369,0.58172
298.51,20.242,-0.17837,6.04444,0.58155
299.11,20.25834,-0.18097,6.04123,0.58137
299.71,20.27475,-0.18523,6.04326,0.58119
300.31,20.29114,-0.18977,6.06447,0.58102
300.91,20.30743,-0.19529,6.06157,0.58084
301.51,20.32381,-0.1996,6.07152,0.58066
302.11,20.34018,-0.20429,6.07473,0.58049
302.71,20.35656,-0.20956,6.07501,0.58031
303.31,20.37295,-0.21372,6.07103,0.58013
303.91,20.38935,-0.21969,6.06649,0.57995
304.51,20.4057,-0.22344,6.05812,0.57977
305.11,20.42203,-0.22836,6.05836,0.57959
305.71,20.43838,-0.23345,6.06208,0.57941
306.31,20.4547,-0.23815,6.05563,0.57923
306.91,20.471,-0.24344,6.04911,0.57906
307.51,20.48733,-0.24743,6.05775,0.57888
308.11,20.50366,-0.25276,6.05844,0.5787
308.71,20.52,-0.25753,6.06776,0.57851
309.31,20.53634,-0.26197,6.04292,0.57833
309.91,20.55272,-0.26625,6.03978,0.57815
310.51,20.5691,-0.27086,6.05262,0.57797
311.11,20.5855,-0.27693,6.03799,0.57779
311.71,20.6019,-0.28319,6.02844,0.57761
312.31,20.61826,-0.28842,6.0217,0.57743
312.91,20.63469,-0.29377,6.01443,0.57725
313.51,20.65115,-0.29839,6.02535,0.57706
314.11,20.66762,-0.30394,6.02244,0.57688
314.71,20.6841,-0.30783,6.0001,0.5767
315.31,20.70052,-0.31278,5.98407,0.57652
315.91,20.7169,-0.31795,5.98962,0.57633
316.51,20.73335,-0.32296,5.97898,0.57615
317.11,20.74973,-0.33004,5.98595,0.57597
317.71,20.76611,-0.33536,5.98773,0.57578
318.31,20.78256,-0.34157,5.97378,0.5756
318.91,20.7988,-0.34839,5.97219,0.57541
319.51,20.81525,-0.35353,5.95378,0.57523
320.11,20.83156,-0.35995,5.95291,0.57504
320.71,20.84802,-0.36452,5.94427,0.57486
321.31,20.86443,-0.37009,5.94131,0.57467
321.91,20.88096,-0.37495,5.94132,0.57449
322.51,20.89751,-0.3806,5.93792,0.5743
323.11,20.91391,-0.38819,5.94757,0.57412
323.71,20.93039,-0.3938,5.94095,0.57393
324.31,20.9468,-0.39981,5.95048,0.57374
324.91,20.96324,-0.40343,5.9492,0.57356
325.51,20.97963,-0.40769,5.93778,0.57337
326.11,20.99604,-0.41272,5.91905,0.57318
326.71,21.01249,-0.41746,5.93775,0.573
327.31,21.02894,-0.42396,5.94282,0.57281
327.91,21.0454,-0.42908,5.94373,0.57262
328.51,21.06182,-0.43523,5.93397,0.57243
329.11,21.0783,-0.44111,5.94715,0.57225
329.71,21.09476,-0.44658,5.95157,0.57206
330.31,21.1111,-0.45316,5.96131,0.57187
330.91,21.12741,-0.45813,5.97274,0.57168
331.51,21.1437,-0.46434,5.96965,0.57149
332.11,21.16,-0.47011,5.98144,0.5713
332.71,21.1765,-0.47576,5.98283,0.57111
333.31,21.19291,-0.48263,5.98465,0.57092
333.91,21.2095,-0.48774,5.98724,0.57073
334.51,21.2261,-0.49359,5.99912,0.57054
335.11,21.24277,-0.49869,6.01899,0.57035
335.71,21.2593,-0.50417,6.02038,0.57016
336.31,21.27577,-0.5104,6.01882,0.56997
336.91,21.2923,-0.51589,6.02853,0.56978
337.51,21.30876,-0.52247,6.05474,0.56959
338.11,21.32524,-0.52747,6.0678,0.5694
338.71,21.34177,-0.53394,6.07005,0.56921
339.31,21.35827,-0.5398,6.08331,0.56902
339.91,21.3748,-0.54564,6.07904,0.56883
340.51,21.39128,-0.55362,6.12004,0.56863
341.11,21.4078,-0.55822,6.14702,0.56844
341.71,21.42428,-0.56466,6.13754,0.56825
342.31,21.44081,-0.57061,6.16152,0.56806
342.91,21.45734,-0.57642,6.1897,0.56786
343.51,21.4739,-0.58309,6.21084,0.56767
344.11,21.49043,-0.58862,6.22488,0.56748
344.71,21.50701,-0.59593,6.22257,0.56728
345.31,21.52355,-0.60154,6.2532,0.56709
345.91,21.54005,-0.60724,6.2944,0.5669
346.51,21.55667,-0.61334,6.3063,0.5667
347.11,21.57324,-0.61865,6.31003,0.56651
347.71,21.58984,-0.6257,6.32891,0.56632
348.31,21.6064,-0.63075,6.3622,0.56612
348.91,21.623,-0.63702,6.39713,0.56593
349.51,21.63952,-0.64315,6.41629,0.56573
350.11,21.65607,-0.64965,6.43967,0.56554
350.71,21.6726,-0.65707,6.47469,0.56534
351.31,21.68918,-0.6628,6.51127,0.56515
351.91,21.7058,-0.67056,6.52756,0.56495
352.51,21.72239,-0.67625,6.56808,0.56476
353.11,21.73902,-0.68276,6.60128,0.56456
353.71,21.7556,-0.69062,6.62775,0.56436
354.31,21.77221,-0.69753,6.66115,0.56417
354.91,21.78885,-0.70649,6.68591,0.56397
355.51,21.80548,-0.71178,6.73693,0.56377
356.11,21.8221,-0.71854,6.77635,0.56358
356.71,21.83875,-0.72568,6.82406,0.56338
357.31,21.85538,-0.73246,6.86357,0.56318
357.91,21.87195,-0.74015,6.90778,0.56299
358.51,21.88861,-0.74606,6.95553,0.56279
359.11,21.90524,-0.75394,6.99906,0.56259
359.71,21.92185,-0.76123,7.03528,0.56239
360.31,21.93852,-0.76919,7.09153,0.5622
360.91,21.95521,-0.77917,7.1509,0.562
361.51,21.9719,-0.78624,7.20455,0.5618
362.11,21.9885,-0.79551,7.26712,0.5616
362.71,22.00515,-0.80292,7.3153,0.5614
363.31,22.02179,-0.81176,7.37195,0.5612
363.91,22.03847,-0.82025,7.43467,0.561
364.51,22.0551,-0.82806,7.50281,0.5608
365.11,22.07176,-0.83753,7.56537,0.56061
365.71,22.08848,-0.84481,7.63694,0.56041
366.31,22.10521,-0.85429,7.68827,0.56021
366.91,22.12189,-0.86254,7.75447,0.56001
367.51,22.1386,-0.8717,7.84784,0.55981
368.11,22.15532,-0.88265,7.91311,0.55961
368.71,22.17205,-0.89217,7.99336,0.55941
369.31,22.18879,-0.90412,8.074,0.55921
369.91,22.20554,-0.91307,8.15588,0.55901
370.51,22.22227,-0.92355,8.24618,0.5588
371.11,22.23903,-0.93362,8.31086,0.5586
371.71,22.25579,-0.94316,8.39905,0.5584
372.31,22.27255,-0.95453,8.49896,0.5582
372.91,22.28929,-0.96359,8.56192,0.558
373.51,22.3061,-0.97596,8.64787,0.5578
374.11,22.3229,-0.98633,8.73951,0.5576
374.71,22.33964,-0.99806,8.81298,0.55739
375.31,22.35642,-1.01098,8.89812,0.55719
375.91,22.37319,-1.02216,8.99621,0.55699
376.51,22.38999,-1.03641,9.08338,0.55679
377.11,22.4068,-1.04686,9.15929,0.55659
377.71,22.42353,-1.0593,9.23819,0.55638
378.31,22.4403,-1.07061,9.29054,0.55618
378.91,22.4571,-1.08239,9.37204,0.55598
379.51,22.47387,-1.09604,9.4443,0.55577
380.11,22.49067,-1.10689,9.51662,0.55557
380.71,22.5075,-1.12125,9.57388,0.55537
381.31,22.52431,-1.13314,9.63216,0.55516
381.91,22.54115,-1.14723,9.68198,0.55496
382.51,22.5579,-1.1612,9.74022,0.55476
383.11,22.57476,-1.17393,9.76157,0.55455
383.71,22.5916,-1.18915,9.79593,0.55435
384.31,22.60848,-1.20056,9.82897,0.55415
384.91,22.6253,-1.21489,9.84969,0.55394
385.51,22.6422,-1.22661,9.85538,0.55374
386.11,22.65909,-1.2397,9.86004,0.55353
386.71,22.67592,-1.2545,9.83782,0.55333
387.31,22.69279,-1.26732,9.81106,0.55312
387.91,22.7097,-1.28274,9.7657,0.55292
388.51,22.7266,-1.29368,9.73172,0.55271
389.11,22.74351,-1.30732,9.67165,0.55251
389.71,22.76045,-1.31947,9.58572,0.5523
390.31,22.7774,-1.33145,9.48806,0.5521
390.91,22.79433,-1.34456,9.39125,0.55189
391.51,22.81127,-1.35482,9.27551,0.55168
392.11,22.82824,-1.3681,9.15652,0.55148
392.71,22.8452,-1.3783,9.01183,0.55127
393.31,22.86222,-1.39024,8.86032,0.55107
393.91,22.87922,-1.40074,8.69298,0.55086
394.51,22.89624,-1.41018,8.50911,0.55065
395.11,22.91323,-1.42111,8.33098,0.55045
395.71,22.93027,-1.43002,8.11736,0.55024
396.31,22.94728,-1.44065,7.92453,0.55003
396.91,22.96428,-1.44863,7.71757,0.54983
397.51,22.9813,-1.45725,7.49092,0.54962
398.11,22.99837,-1.46508,7.27424,0.54941
398.71,23.01539,-1.47172,7.03037,0.5492
399.31,23.0324,-1.47973,6.81558,0.549
399.91,23.04949,-1.48562,6.58742,0.54879
400.51,23.0666,-1.49331,6.33976,0.54858
401.11,23.08361,-1.49836,6.09984,0.54837
401.71,23.10069,-1.50372,5.87541,0.54817
402.31,23.11776,-1.50922,5.66019,0.54796
402.91,23.13486,-1.51314,5.46084,0.54775
403.51,23.15196,-1.51683,5.24325,0.54754
404.11,23.16904,-1.52017,5.04467,0.54733
404.71,23.1861,-1.52307,4.85305,0.54713
405.31,23.20315,-1.52717,4.69932,0.54692
405.91,23.22017,-1.53014,4.52121,0.54671
406.51,23.23714,-1.53209,4.38211,0.5465
407.11,23.2542,-1.5352,4.24419,0.54629
407.71,23.2712,-1.53723,4.09764,0.54608
408.31,23.28827,-1.53934,3.99459,0.54587
408.91,23.3054,-1.54076,3.89671,0.54566
409.51,23.32254,-1.54116,3.80302,0.54545
410.11,23.3396,-1.54269,3.70899,0.54524
410.71,23.3567,-1.54458,3.6383,0.54503
411.31,23.3738,-1.54654,3.56349,0.54482
411.91,23.3909,-1.54865,3.49033,0.54461
412.51,23.40794,-1.5505,3.42675,0.5444
413.11,23.42507,-1.55266,3.37927,0.54419
413.71,23.44213,-1.55441,3.34709,0.54398
414.31,23.4592,-1.55536,3.29688,0.54377
414.91,23.47629,-1.55578,3.26949,0.54356
415.51,23.49344,-1.55739,3.21831,0.54335
416.11,23.51053,-1.55758,3.20958,0.54314
416.71,23.52769,-1.55899,3.17025,0.54293
417.31,23.54479,-1.56045,3.15573,0.54272
417.91,23.56192,-1.56203,3.13116,0.54251
418.51,23.57909,-1.56288,3.11697,0.5423
419.11,23.5962,-1.56421,3.10516,0.54209
419.71,23.61336,-1.56505,3.10967,0.54188
420.31,23.63053,-1.56638,3.09956,0.54167
420.91,23.64771,-1.56855,3.09139,0.54146
421.51,23.6648,-1.57068,3.07027,0.54124
422.11,23.682,-1.57199,3.06275,0.54103
422.71,23.69922,-1.57223,3.05351,0.54082
423.31,23.7164,-1.5734,3.04756,0.54061
423.91,23.7336,-1.57392,3.0487,0.5404
424.51,23.75091,-1.57571,3.05079,0.54019
425.11,23.76819,-1.57723,3.04762,0.53997
425.71,23.7854,-1.57872,3.04893,0.53976
426.31,23.80272,-1.58114,3.04434,0.53955
426.91,23.81997,-1.58211,3.03994,0.53934
427.51,23.83721,-1.58377,3.04115,0.53913
428.11,23.85432,-1.586,3.03994,0.53891
428.71,23.8716,-1.58785,3.04119,0.5387
429.31,23.88885,-1.58889,3.03608,0.53849
429.91,23.90615,-1.5903,3.04578,0.53828
430.51,23.9235,-1.59217,3.05213,0.53806
431.11,23.94087,-1.59327,3.05509,0.53785
431.71,23.9582,-1.59422,3.07899,0.53764
432.31,23.97554,-1.59587,3.08337,0.53742
432.91,23.99287,-1.59805,3.0936,0.53721
433.51,24.01022,-1.59967,3.09289,0.537
434.11,24.02755,-1.60098,3.0979,0.53678
434.71,24.04491,-1.6017,3.11938,0.53657
435.31,24.06227,-1.60297,3.11713,0.53636
435.91,24.0796,-1.60446,3.12199,0.53614
436.51,24.097,-1.60442,3.13424,0.53593
437.11,24.11436,-1.6052,3.15534,0.53572
437.71,24.1317,-1.6072,3.16103,0.5355
438.31,24.14911,-1.60984,3.17434,0.53529
438.91,24.16648,-1.61152,3.19454,0.53508
439.51,24.1839,-1.61318,3.20225,0.53486
440.11,24.20129,-1.61431,3.21903,0.53465
440.71,24.21867,-1.61601,3.23497,0.53443
441.31,24.23607,-1.61793,3.25702,0.53422
441.91,24.25354,-1.6199,3.27146,0.53401
442.51,24.27095,-1.62224,3.29508,0.53379
443.11,24.28837,-1.62422,3.30862,0.53358
443.71,24.30583,-1.62691,3.3406,0.53336
444.31,24.32331,-1.62897,3.3728,0.53315
444.91,24.34074,-1.63103,3.39819,0.53293
445.51,24.35826,-1.63321,3.43069,0.53272
446.11,24.3758,-1.63446,3.44901,0.53251
446.71,24.3933,-1.63594,3.48839,0.53229
447.31,24.41079,-1.6367,3.50429,0.53208
447.91,24.4283,-1.63882,3.54927,0.53186
448.51,24.4457,-1.64232,3.5805,0.53165
449.11,24.46319,-1.64572,3.60787,0.53143
449.71,24.48069,-1.64955,3.64857,0.53122
450.31,24.49821,-1.65241,3.68204,0.531
450.91,24.51574,-1.65412,3.7208,0.53079
451.51,24.5333,-1.65606,3.78047,0.53057
452.11,24.5508,-1.659,3.79705,0.53036
452.71,24.56835,-1.66249,3.84709,0.53014
453.31,24.5858,-1.66484,3.89463,0.52992
453.91,24.60334,-1.6681,3.9308,0.52971
454.51,24.62084,-1.67176,3.97725,0.52949
455.11,24.6383,-1.67392,4.02581,0.52928
455.71,24.6558,-1.67655,4.06303,0.52906
456.31,24.6734,-1.68013,4.11639,0.52885
456.91,24.69102,-1.68307,4.17078,0.52863
457.51,24.7087,-1.68675,4.22608,0.52842
458.11,24.72636,-1.69135,4.28762,0.5282
458.71,24.74394,-1.695,4.34349,0.52798
459.31,24.76158,-1.69784,4.41446,0.52777
459.91,24.77918,-1.7008,4.4835,0.52755
460.51,24.79674,-1.70497,4.51994,0.52734
461.11,24.8143,-1.71049,4.60686,0.52712
461.71,24.8319,-1.71566,4.67263,0.5269
462.31,24.84947,-1.71994,4.72913,0.52669
462.91,24.86704,-1.72538,4.8045,0.52647
463.51,24.8847,-1.7292,4.87692,0.52626
464.11,24.90243,-1.73333,4.94443,0.52604
464.71,24.92016,-1.73756,5.02259,0.52582
465.31,24.9379,-1.7413,5.11263,0.52561
465.91,24.95561,-1.74749,5.18162,0.52539
466.51,24.97327,-1.75263,5.27667,0.52517
467.11,24.99093,-1.75912,5.36493,0.52496
467.71,25.00862,-1.76447,5.45303,0.52474
468.31,25.02628,-1.77167,5.52774,0.52452
468.91,25.04392,-1.77843,5.61777,0.52431
469.51,25.06159,-1.78539,5.69828,0.52409
470.11,25.07927,-1.79213,5.7936,0.52387
470.71,25.09695,-1.79904,5.89146,0.52366
471.31,25.11466,-1.80706,5.98108,0.52344
471.91,25.13244,-1.81373,6.07762,0.52322
472.51,25.1502,-1.82252,6.18778,0.52301
473.11,25.16783,-1.82964,6.27686,0.52279
473.71,25.18555,-1.83904,6.37983,0.52257
474.31,25.2033,-1.84703,6.47133,0.52236
474.91,25.22101,-1.85591,6.57562,0.52214
475.51,25.2388,-1.86443,6.66882,0.52192
476.11,25.25668,-1.87263,6.77289,0.52171
476.71,25.2745,-1.8828,6.87349,0.52149
477.31,25.29233,-1.89159,6.96147,0.52127
477.91,25.31015,-1.90292,7.05692,0.52105
478.51,25.32795,-1.91194,7.15932,0.52084
479.11,25.34571,-1.92384,7.25847,0.52062
479.71,25.36355,-1.9339,7.36449,0.5204
480.31,25.38136,-1.94533,7.44235,0.52019
480.91,25.39917,-1.9572,7.53757,0.51997
481.51,25.41696,-1.96882,7.62389,0.51975
482.11,25.43478,-1.98267,7.71332,0.51953
482.71,25.45259,-1.99542,7.7894,0.51932
483.31,25.47043,-2.00953,7.88608,0.5191
483.91,25.48828,-2.02125,7.98587,0.51888
484.51,25.5062,-2.03944,8.08883,0.51866
485.11,25.52411,-2.05607,8.17422,0.51845
485.71,25.54199,-2.07107,8.24495,0.51823
486.31,25.5599,-2.0783,8.32682,0.51801
486.91,25.57781,-2.08754,8.41025,0.51779
487.51,25.59569,-2.10332,8.47798,0.51758
488.11,25.6136,-2.12034,8.56221,0.51736
488.71,25.6315,-2.14262,8.63757,0.51714
489.31,25.6494,-2.15972,8.70987,0.51692
489.91,25.6673,-2.17925,8.77911,0.51671
490.51,25.68522,-2.19445,8.84274,0.51649
491.11,25.70315,-2.21264,8.90019,0.51627
491.71,25.7211,-2.23083,8.94911,0.51605
492.31,25.7391,-2.25052,9.00835,0.51584
492.91,25.7571,-2.27152,9.04031,0.51562
493.51,25.77504,-2.29004,9.0882,0.5154
494.11,25.79305,-2.31303,9.14393,0.51518
494.71,25.81104,-2.33078,9.18261,0.51497
495.31,25.82903,-2.3546,9.20745,0.51475
495.91,25.84702,-2.37394,9.22514,0.51453
496.51,25.86496,-2.39826,9.20547,0.51431
497.11,25.88295,-2.41898,9.22237,0.51409
497.71,25.901,-2.44128,9.22214,0.51388
498.31,25.91906,-2.46357,9.22637,0.51366
498.91,25.9371,-2.48564,9.21049,0.51344
499.51,25.9552,-2.51121,9.17604,0.51322
500.11,25.97324,-2.53155,9.11719,0.51301
500.71,25.9912,-2.55751,9.05753,0.51279
501.31,26.00921,-2.5776,9.02484,0.51257
501.91,26.02719,-2.60352,8.93426,0.51235
502.51,26.0452,-2.62422,8.85527,0.51213
503.11,26.06318,-2.64848,8.77005,0.51192
503.71,26.08126,-2.67078,8.67933,0.5117
504.31,26.0994,-2.69406,8.53706,0.51148
504.91,26.11755,-2.71896,8.41557,0.51126
505.51,26.13575,-2.74204,8.28039,0.51105
506.11,26.154,-2.76772,8.1222,0.51083
506.71,26.1722,-2.78789,7.94721,0.51061
507.31,26.19039,-2.81259,7.74906,0.51039
507.91,26.20875,-2.83165,7.56209,0.51017
508.51,26.22707,-2.85504,7.36624,0.50996
509.11,26.2454,-2.87373,7.13824,0.50974
509.71,26.2638,-2.8955,6.93067,0.50952
510.31,26.28217,-2.91447,6.68659,0.5093
510.91,26.30047,-2.93355,6.46828,0.50909
511.51,26.3188,-2.95195,6.20498,0.50887
512.11,26.33718,-2.96787,5.93962,0.50865
512.71,26.35557,-2.98608,5.6737,0.50843
513.31,26.374,-3.00116,5.41505,0.50821
513.91,26.39238,-3.0194,5.15026,0.508
514.51,26.4108,-3.03518,4.89204,0.50778
515.11,26.4292,-3.05608,4.61356,0.50756
515.71,26.4476,-3.06992,4.3436,0.50734
516.31,26.46603,-3.07917,4.06094,0.50712
516.91,26.48447,-3.08012,3.79349,0.50691
517.51,26.503,-3.08532,3.54106,0.50669
518.11,26.5214,-3.09601,3.2877,0.50647
518.71,26.53998,-3.10739,3.02946,0.50625
519.31,26.55848,-3.11755,2.78942,0.50604
519.91,26.5769,-3.12467,2.53375,0.50582
520.51,26.5954,-3.13215,2.29455,0.5056
521.11,26.614,-3.13819,2.07411,0.50538
521.71,26.6323,-3.14397,1.84949,0.50517
522.31,26.65076,-3.14719,1.63253,0.50495
522.91,26.66927,-3.15066,1.42597,0.50473
523.51,26.68777,-3.15576,1.23975,0.50451
524.11,26.7063,-3.16028,1.04297,0.5043
524.71,26.7249,-3.16303,0.88022,0.50408
525.31,26.7434,-3.16514,0.72794,0.50386
525.91,26.7619,-3.16723,0.57628,0.50364
526.51,26.78033,-3.16863,0.44652,0.50342
527.11,26.7988,-3.17003,0.32902,0.50321
527.71,26.8172,-3.17152,0.23621,0.50299
528.31,26.83557,-3.17169,0.16625,0.50277
528.91,26.85405,-3.17202,0.08927305,0.50255
529.51,26.87251,-3.17312,0.03570258,0.50234
530.11,26.8909,-3.17313,-0.02068299,0.50212
530.71,26.90938,-3.17461,-0.09532523,0.5019
531.31,26.92783,-3.17455,-0.14403,0.50169
531.91,26.9462,-3.17591,-0.1784,0.50147
532.51,26.96467,-3.17596,-0.22346,0.50125
533.11,26.9832,-3.17608,-0.23636,0.50103
533.71,27.00161,-3.17753,-0.25214,0.50082
534.31,27.0201,-3.17816,-0.26218,0.5006
534.91,27.03854,-3.17904,-0.29205,0.50038
535.51,27.057,-3.17902,-0.30606,0.50016
536.11,27.0754,-3.17902,-0.32589,0.49995
536.71,27.09385,-3.17901,-0.33835,0.49973
537.31,27.1123,-3.17897,-0.34169,0.49951
537.91,27.13082,-3.18007,-0.35212,0.4993
538.51,27.1493,-3.18034,-0.37611,0.49908
539.11,27.1678,-3.18149,-0.36817,0.49886
539.71,27.18625,-3.18164,-0.37952,0.49864
540.31,27.2047,-3.18165,-0.37901,0.49843
540.91,27.22312,-3.1816,-0.3808,0.49821
541.51,27.2417,-3.18276,-0.39011,0.49799
542.11,27.26018,-3.18297,-0.39864,0.49778
542.71,27.27869,-3.1832,-0.40319,0.49756
543.31,27.2973,-3.18434,-0.40273,0.49734
543.91,27.31585,-3.18429,-0.40424,0.49713
544.51,27.3343,-3.1842,-0.42177,0.49691
545.11,27.3528,-3.18541,-0.43372,0.49669
545.71,27.3714,-3.18671,-0.43279,0.49648
546.31,27.38983,-3.18704,-0.44115,0.49626
546.91,27.4084,-3.18843,-0.44263,0.49604
547.51,27.42695,-3.18856,-0.45435,0.49583
548.11,27.4455,-3.18869,-0.45417,0.49561
548.71,27.4641,-3.1877,-0.46397,0.49539
549.31,27.4828,-3.18858,-0.45912,0.49518
549.91,27.5012,-3.18857,-0.47449,0.49496
550.51,27.5198,-3.18857,-0.4794,0.49474
551.11,27.53834,-3.1894,-0.49851,0.49453
551.71,27.55684,-3.18988,-0.5038,0.49431
552.31,27.5754,-3.18988,-0.51156,0.4941
552.91,27.5941,-3.18988,-0.51431,0.49388
553.51,27.61265,-3.18988,-0.526,0.49366
554.11,27.6313,-3.19034,-0.52966,0.49345
554.71,27.6499,-3.19131,-0.55366,0.49323
555.31,27.66855,-3.19131,-0.55774,0.49301
555.91,27.68716,-3.19131,-0.5589,0.4928
556.51,27.70583,-3.1914,-0.56784,0.49258
557.11,27.72444,-3.19273,-0.5711,0.49237
557.71,27.74308,-3.19263,-0.56549,0.49215
558.31,27.7617,-3.1926,-0.58316,0.49193
558.91,27.78037,-3.19365,-0.58835,0.49172
559.51,27.799,-3.19408,-0.60404,0.4915
560.11,27.8177,-3.19482,-0.59742,0.49129
560.71,27.8364,-3.1954,-0.60589,0.49107
561.31,27.85512,-3.19589,-0.60172,0.49086
561.91,27.87377,-3.19689,-0.60728,0.49064
562.51,27.8924,-3.19967,-0.62152,0.49043
563.11,27.91105,-3.20294,-0.61945,0.49021
563.71,27.92972,-3.2043,-0.6163,0.48999
564.31,27.94843,-3.19933,-0.62598,0.48978
564.91,27.96705,-3.19226,-0.62921,0.48956
565.51,27.9856,-3.18949,-0.64257,0.48935
566.11,28.00427,-3.19252,-0.64105,0.48913
566.71,28.02295,-3.19398,-0.64267,0.48892
567.31,28.0416,-3.19469,-0.6418,0.4887
567.91,28.06035,-3.19507,-0.6452,0.48849
568.51,28.07915,-3.19604,-0.66174,0.48827
569.11,28.09791,-3.19737,-0.67198,0.48806
569.71,28.1166,-3.19888,-0.68014,0.48784
570.31,28.13543,-3.1996,-0.69305,0.48763
570.91,28.154,-3.20189,-0.70246,0.48741
571.51,28.17265,-3.20278,-0.70091,0.4872
572.11,28.19132,-3.20338,-0.69821,0.48698
572.71,28.21003,-3.20469,-0.71003,0.48677
573.31,28.22877,-3.20468,-0.72255,0.48656
573.91,28.24768,-3.20469,-0.72539,0.48634
574.51,28.26655,-3.20469,-0.74208,0.48613
575.11,28.28537,-3.20469,-0.73796,0.48591
575.71,28.3042,-3.20469,-0.75076,0.4857
576.31,28.323,-3.20469,-0.74967,0.48548
576.91,28.3418,-3.20469,-0.75989,0.48527
577.51,28.3606,-3.20468,-0.76092,0.48505
578.11,28.3794,-3.2053,-0.75677,0.48484
578.71,28.3982,-3.20603,-0.76893,0.48463
579.31,28.417,-3.20601,-0.75915,0.48441
579.91,28.43587,-3.20601,-0.77633,0.4842
580.51,28.45467,-3.20601,-0.79129,0.48399
581.11,28.47346,-3.20601,-0.79278,0.48377
581.71,28.4923,-3.20656,-0.79994,0.48356
582.31,28.5112,-3.20732,-0.80968,0.48334
582.91,28.53,-3.20876,-0.80064,0.48313
583.51,28.5489,-3.20875,-0.81441,0.48292
584.11,28.56774,-3.20998,-0.81309,0.4827
584.71,28.58656,-3.21005,-0.82532,0.48249
585.31,28.6054,-3.21162,-0.83481,0.48228
585.91,28.6242,-3.21172,-0.83769,0.48206
586.51,28.6431,-3.21174,-0.83748,0.48185
587.11,28.66194,-3.21187,-0.847,0.48164
587.71,28.6808,-3.21263,-0.85349,0.48142
588.31,28.69963,-3.2117,-0.86843,0.48121
588.91,28.71854,-3.21164,-0.88817,0.481
589.51,28.73739,-3.213,-0.89211,0.48079
590.11,28.75627,-3.21293,-0.89489,0.48057
590.71,28.7752,-3.21435,-0.9014,0.48036
591.31,28.7941,-3.21445,-0.92611,0.48015
591.91,28.813,-3.21446,-0.90552,0.47993
592.51,28.83189,-3.21446,-0.93369,0.47972
593.11,28.85081,-3.21486,-0.94743,0.47951
593.71,28.8697,-3.21578,-0.9504,0.4793
594.31,28.8887,-3.21578,-0.94758,0.47909
594.91,28.9076,-3.21578,-0.95557,0.47887
595.51,28.9265,-3.21578,-0.95686,0.47866
596.11,28.9455,-3.21578,-0.96962,0.47845
596.71,28.9644,-3.21665,-0.9981,0.47824
597.31,28.9834,-3.21721,-0.99201,0.47802
597.91,29.0024,-3.21846,-1.00117,0.47781
598.51,29.0213,-3.21863,-0.99947,0.4776
599.11,29.0403,-3.21863,-1.00044,0.47739
599.71,29.05926,-3.21863,-0.99669,0.47718
600.31,29.07827,-3.21862,-0.99681,0.47697
600.91,29.09732,-3.21819,-0.99727,0.47675
601.51,29.11632,-3.21729,-1.0108,0.47654
602.11,29.1353,-3.22044,-1.03012,0.47633
602.71,29.15428,-3.22578,-1.0338,0.47612
603.31,29.17329,-3.2283,-1.03978,0.47591
603.91,29.19235,-3.22235,-1.0359,0.4757
604.51,29.2114,-3.21457,-1.03045,0.47549
605.11,29.2304,-3.21172,-1.03972,0.47528
605.71,29.24948,-3.21426,-1.03769,0.47507
606.31,29.26855,-3.21674,-1.02954,0.47486
606.91,29.28756,-3.21988,-1.03047,0.47464
607.51,29.3066,-3.22151,-1.03863,0.47443
608.11,29.32566,-3.22271,-1.04375,0.47422
608.71,29.34471,-3.22309,-1.06286,0.47401
609.31,29.36379,-3.22312,-1.06149,0.4738
609.91,29.38288,-3.22312,-1.07323,0.47359
610.51,29.40196,-3.22312,-1.07352,0.47338
611.11,29.42104,-3.22312,-1.08074,0.47317
611.71,29.44013,-3.22312,-1.07753,0.47296
612.31,29.4592,-3.22185,-1.08096,0.47275
612.91,29.47839,-3.22181,-1.08415,0.47254
613.51,29.49752,-3.22177,-1.0781,0.47233
614.11,29.51663,-3.22342,-1.08494,0.47212
614.71,29.5357,-3.22453,-1.0892,0.47191
615.31,29.5548,-3.22565,-1.12886,0.4717
615.91,29.57392,-3.22595,-1.14034,0.47149
616.51,29.59307,-3.22595,-1.12145,0.47128
617.11,29.6121,-3.22579,-1.12104,0.47108
617.71,29.6312,-3.225,-1.13147,0.47087
618.31,29.6503,-3.22498,-1.13803,0.47066
618.91,29.6694,-3.22495,-1.13232,0.47045
619.51,29.68853,-3.22639,-1.13027,0.47024
620.11,29.7077,-3.22636,-1.14026,0.47003
620.71,29.7269,-3.22759,-1.14454,0.46982
621.31,29.74604,-3.22775,-1.14993,0.46961
621.91,29.76512,-3.22821,-1.17152,0.4694
622.51,29.7843,-3.22907,-1.17422,0.4692
623.11,29.80348,-3.22921,-1.17122,0.46899
623.71,29.82266,-3.23041,-1.16324,0.46878
624.31,29.84181,-3.23036,-1.1693,0.46857
624.91,29.861,-3.23036,-1.16688,0.46836
625.51,29.8802,-3.23036,-1.16538,0.46815
626.11,29.8993,-3.23036,-1.17869,0.46795
626.71,29.9185,-3.23056,-1.17635,0.46774
627.31,29.93767,-3.23191,-1.15974,0.46753
627.91,29.9568,-3.23335,-1.17858,0.46732
628.51,29.97601,-3.23352,-1.18229,0.46712
629.11,29.99522,-3.23351,-1.17333,0.46691
629.71,30.01445,-3.23314,-1.19462,0.4667
630.31,30.03368,-3.23222,-1.19976,0.46649
630.91,30.0529,-3.23223,-1.20787,0.46629
631.51,30.0722,-3.23223,-1.22249,0.46608
632.11,30.0914,-3.23223,-1.24096,0.46587
632.71,30.11062,-3.23185,-1.22266,0.46567
633.31,30.1299,-3.23091,-1.22766,0.46546
633.91,30.14909,-3.23091,-1.23628,0.46525
634.51,30.16832,-3.23091,-1.23654,0.46505
635.11,30.18755,-3.23091,-1.24194,0.46484
635.71,30.2068,-3.23091,-1.25237,0.46463
636.31,30.226,-3.23091,-1.25685,0.46443
636.91,30.24535,-3.2309,-1.25272,0.46422
637.51,30.2646,-3.23163,-1.26561,0.46401
638.11,30.284,-3.23329,-1.25827,0.46381
638.71,30.30322,-3.23321,-1.25012,0.4636
639.31,30.32255,-3.23319,-1.24108,0.4634
639.91,30.34184,-3.23357,-1.25129,0.46319
640.51,30.36115,-3.23402,-1.25343,0.46298
641.11,30.3805,-3.23405,-1.248,0.46278
641.71,30.3998,-3.23572,-1.25185,0.46257
642.31,30.4191,-3.23572,-1.2535,0.46237
642.91,30.4384,-3.23694,-1.26547,0.46216
643.51,30.4578,-3.23704,-1.25987,0.46196
644.11,30.4771,-3.23705,-1.26124,0.46175
644.71,30.4965,-3.23705,-1.27133,0.46155
645.31,30.5158,-3.23705,-1.24926,0.46134
645.91,30.53515,-3.23705,-1.25257,0.46114
646.51,30.55442,-3.23705,-1.2601,0.46093
647.11,30.57382,-3.23705,-1.24795,0.46073
647.71,30.5931,-3.23705,-1.24372,0.46053
648.31,30.61249,-3.23707,-1.2335,0.46032
648.91,30.6318,-3.23844,-1.23375,0.46012
649.51,30.65128,-3.23837,-1.22108,0.45991
650.11,30.67065,-3.23837,-1.22899,0.45971
650.71,30.69002,-3.23837,-1.22534,0.4595
651.31,30.7094,-3.23837,-1.23053,0.4593
651.91,30.72878,-3.23837,-1.23067,0.4591
652.51,30.7482,-3.23837,-1.2345,0.45889
653.11,30.7676,-3.23836,-1.24604,0.45869
653.71,30.787,-3.23944,-1.22913,0.45849
654.31,30.8064,-3.23967,-1.23205,0.45828
654.91,30.8259,-3.23971,-1.23244,0.45808
655.51,30.8453,-3.23902,-1.23016,0.45788
656.11,30.8647,-3.23768,-1.23353,0.45767
656.71,30.8841,-3.2374,-1.24322,0.45747
657.31,30.90346,-3.23738,-1.2253,0.45727
657.91,30.92281,-3.23739,-1.24931,0.45707
658.51,30.9422,-3.23888,-1.24683,0.45686
659.11,30.96159,-3.2401,-1.22115,0.45666
659.71,30.981,-3.24164,-1.23334,0.45646
660.31,31.0006,-3.24166,-1.23371,0.45626
660.91,31.0201,-3.24298,-1.22461,0.45605
661.51,31.0396,-3.24235,-1.22991,0.45585
662.11,31.05899,-3.24199,-1.23072,0.45565
662.71,31.0784,-3.24199,-1.24306,0.45545
663.31,31.0979,-3.24199,-1.22921,0.45525
663.91,31.11737,-3.24198,-1.23667,0.45505
664.51,31.13689,-3.24159,-1.24769,0.45484
665.11,31.15648,-3.24063,-1.25447,0.45464
665.71,31.17595,-3.24067,-1.25131,0.45444
666.31,31.1954,-3.24067,-1.24683,0.45424
666.91,31.2149,-3.24073,-1.26376,0.45404
667.51,31.2343,-3.24209,-1.25376,0.45384
668.11,31.25372,-3.242,-1.26853,0.45364
668.71,31.2731,-3.24199,-1.2609,0.45344
669.31,31.29257,-3.24199,-1.27111,0.45324
669.91,31.312,-3.242,-1.29144,0.45304
670.51,31.33152,-3.24336,-1.30557,0.45284
671.11,31.35114,-3.2433,-1.31249,0.45264
671.71,31.3707,-3.2433,-1.29511,0.45244
672.31,31.39027,-3.2433,-1.31956,0.45224
672.91,31.40976,-3.2433,-1.33686,0.45204
673.51,31.4293,-3.2433,-1.33898,0.45184
674.11,31.4488,-3.2433,-1.3556,0.45164
674.71,31.4683,-3.2433,-1.34944,0.45144
675.31,31.4878,-3.24446,-1.35422,0.45124
675.91,31.50736,-3.24461,-1.35677,0.45104
676.51,31.52686,-3.24462,-1.35312,0.45084
677.11,31.54637,-3.24461,-1.36196,0.45064
677.71,31.5659,-3.24437,-1.36171,0.45044
678.31,31.5855,-3.24539,-1.34705,0.45024
678.91,31.6051,-3.2456,-1.35382,0.45004
679.51,31.62465,-3.24566,-1.36603,0.44985
680.11,31.64418,-3.24462,-1.36383,0.44965
680.71,31.66377,-3.24431,-1.34877,0.44945
681.31,31.68335,-3.2443,-1.3451,0.44925
681.91,31.7029,-3.2443,-1.32772,0.44905
682.51,31.7225,-3.2443,-1.33456,0.44885
683.11,31.74199,-3.2443,-1.34275,0.44866
683.71,31.7615,-3.2443,-1.3445,0.44846
684.31,31.78108,-3.2443,-1.32911,0.44826
684.91,31.8006,-3.24432,-1.3486,0.44806
685.51,31.82017,-3.24528,-1.34921,0.44787
686.11,31.8399,-3.24669,-1.36335,0.44767
686.71,31.8595,-3.2467,-1.37339,0.44747
687.31,31.87915,-3.2467,-1.39179,0.44727
687.91,31.8988,-3.2467,-1.37505,0.44708
688.51,31.9184,-3.2467,-1.33736,0.44688
689.11,31.938,-3.2467,-1.3487,0.44668
689.71,31.9576,-3.2467,-1.35159,0.44649
690.31,31.9771,-3.2467,-1.36365,0.44629
690.91,31.99673,-3.24666,-1.36037,0.44609
691.51,32.01639,-3.24684,-1.37863,0.4459
692.11,32.03603,-3.24672,-1.35741,0.4457
692.71,32.0557,-3.24671,-1.34479,0.44551
693.31,32.0754,-3.24679,-1.34662,0.44531
693.91,32.09505,-3.24811,-1.35156,0.44512
694.51,32.1147,-3.24802,-1.34738,0.44492
695.11,32.1344,-3.24881,-1.34594,0.44472
695.71,32.15402,-3.24929,-1.35213,0.44453
696.31,32.17369,-3.24915,-1.36496,0.44433
696.91,32.19335,-3.24864,-1.39752,0.44414
697.51,32.21304,-3.24931,-1.39459,0.44394
698.11,32.23275,-3.24934,-1.40427,0.44375
698.71,32.2525,-3.24934,-1.37844,0.44355
699.31,32.2722,-3.24934,-1.39742,0.44336
699.91,32.2919,-3.24934,-1.40895,0.44316
700.51,32.31156,-3.24934,-1.41311,0.44297
701.11,32.3312,-3.24934,-1.42737,0.44278
701.71,32.35089,-3.24934,-1.43157,0.44258
702.31,32.37053,-3.24934,-1.45078,0.44239
702.91,32.39022,-3.24935,-1.46122,0.44219
703.51,32.40998,-3.25066,-1.45683,0.442
704.11,32.42977,-3.25067,-1.47449,0.44181
704.71,32.44945,-3.24935,-1.48729,0.44161
705.31,32.4692,-3.24842,-1.48799,0.44142
705.91,32.48884,-3.24802,-1.48772,0.44123
706.51,32.5085,-3.24802,-1.49952,0.44103
707.11,32.52816,-3.24797,-1.51119,0.44084
707.71,32.54788,-3.25041,-1.5072,0.44065
708.31,32.5676,-3.25064,-1.51249,0.44045
708.91,32.5874,-3.25066,-1.48196,0.44026
709.51,32.60714,-3.25066,-1.46263,0.44007
710.11,32.62685,-3.25065,-1.43973,0.43988
710.71,32.6466,-3.25028,-1.45428,0.43969
711.31,32.66628,-3.24929,-1.44924,0.43949
711.91,32.686,-3.2503,-1.4651,0.4393
712.51,32.70563,-3.25063,-1.47702,0.43911
713.11,32.7254,-3.25065,-1.46804,0.43892
713.71,32.74521,-3.25063,-1.46127,0.43873
714.31,32.76502,-3.25019,-1.45993,0.43853
714.91,32.7849,-3.24933,-1.47043,0.43834
715.51,32.80478,-3.24934,-1.47571,0.43815
716.11,32.8245,-3.24935,-1.49427,0.43796
716.71,32.84424,-3.24957,-1.51484,0.43777
717.31,32.86399,-3.25105,-1.51999,0.43758
717.91,32.8837,-3.25198,-1.50775,0.43739
718.51,32.90343,-3.25197,-1.50594,0.4372
719.11,32.9232,-3.25197,-1.49375,0.43701
719.71,32.94292,-3.25197,-1.48593,0.43682
720.31,32.96262,-3.25202,-1.48752,0.43663
720.91,32.9824,-3.25082,-1.48831,0.43644
721.51,33.00213,-3.25065,-1.46602,0.43625
722.11,33.02191,-3.25069,-1.43314,0.43606
722.71,33.04173,-3.24954,-1.43627,0.43587
723.31,33.06153,-3.24933,-1.42278,0.43568
723.91,33.08127,-3.24933,-1.42806,0.43549
724.51,33.101,-3.24933,-1.41065,0.4353
725.11,33.12068,-3.24933,-1.40251,0.43511
725.71,33.1404,-3.24932,-1.3927,0.43492
726.31,33.16012,-3.25034,-1.37038,0.43473
726.91,33.17988,-3.25131,-1.33608,0.43454
727.51,33.19964,-3.25131,-1.34407,0.43435
728.11,33.2194,-3.25192,-1.33232,0.43417
728.71,33.23919,-3.25264,-1.31938,0.43398
729.31,33.25895,-3.25263,-1.31843,0.43379
729.91,33.2789,-3.25263,-1.29312,0.4336
730.51,33.29936,-3.25263,-1.30343,0.43341
731.11,33.31984,-3.25263,-1.2716,0.43322
731.51,33.3326,-3.25263,-1.26944,0.4331