File: 01_Data/Composite_Deck_Board/STA/N2/30K_min/Composite_Deck_Board_STA_N2_30KData_210629_R2.csv
##Temp./Â°C,Time/min,Mass loss(subtr.2)/mg,DSC(subtr.2)/mW,Sensit./(uV/mW)
50.629,10.01,-0.02885,0.03181458,0.6235
51.229,10.99568,-0.02946997,0.18941,0.62349
51.829,11.20836,-0.02984061,0.31692,0.62349
52.429,11.3522,-0.03237516,0.42391,0.62348
53.029,11.46438,-0.03189182,0.52277,0.62347
53.629,11.56054,-0.03194363,0.63676,0.62346
54.229,11.64438,-0.03136244,0.73176,0.62346
54.829,11.717,-0.03066047,0.81938,0.62345
55.429,11.78577,-0.03101457,0.90026,0.62344
56.029,11.8514,-0.03287694,1.0026,0.62343
56.629,11.91045,-0.03216164,1.07073,0.62341
57.229,11.96545,-0.03192751,1.14561,0.6234
57.829,12.01797,-0.03131309,1.23945,0.62339
58.429,12.06948,-0.03050069,1.29895,0.62338
59.029,12.11801,-0.03306951,1.38226,0.62336
59.629,12.1646,-0.03181837,1.43447,0.62335
60.229,12.2097,-0.0297199,1.49889,0.62334
60.829,12.25345,-0.03278634,1.56405,0.62332
61.429,12.29599,-0.03165571,1.62587,0.62331
62.029,12.33728,-0.03287354,1.69002,0.62329
62.629,12.37778,-0.03296323,1.72667,0.62327
63.229,12.41767,-0.03285633,1.78296,0.62326
63.829,12.4564,-0.03235544,1.82795,0.62324
64.429,12.4941,-0.03405586,1.86474,0.62322
65.029,12.5314,-0.03353091,1.9138,0.6232
65.629,12.56795,-0.03218835,1.95147,0.62318
66.229,12.60393,-0.03245339,1.99436,0.62316
66.829,12.63947,-0.03285968,2.02735,0.62314
67.429,12.67451,-0.03251758,2.07064,0.62312
68.029,12.709,-0.03238035,2.10175,0.6231
68.629,12.7432,-0.03219973,2.13553,0.62308
69.229,12.77699,-0.0320467,2.16729,0.62305
69.829,12.81033,-0.03192202,2.21083,0.62303
70.429,12.84318,-0.03185255,2.24121,0.62301
71.029,12.876,-0.03302191,2.26897,0.62298
71.629,12.90847,-0.03460362,2.31051,0.62296
72.229,12.9407,-0.03565085,2.34766,0.62293
72.829,12.97235,-0.03702981,2.37392,0.62291
73.429,13.00384,-0.03672741,2.39131,0.62288
74.029,13.0351,-0.03643069,2.43606,0.62286
74.629,13.06626,-0.03621164,2.4599,0.62283
75.229,13.09712,-0.03557042,2.48799,0.6228
75.829,13.12786,-0.03492002,2.51566,0.62277
76.429,13.15819,-0.0362825,2.54665,0.62274
77.029,13.1885,-0.03759347,2.57839,0.62271
77.629,13.21855,-0.03610047,2.61604,0.62268
78.229,13.2485,-0.03526372,2.6363,0.62265
78.829,13.27786,-0.03638646,2.67388,0.62262
79.429,13.3073,-0.03721547,2.69139,0.62259
80.029,13.3366,-0.03656966,2.7263,0.62256
80.629,13.366,-0.03576803,2.75614,0.62253
81.229,13.39502,-0.03660187,2.7753,0.62249
81.829,13.4238,-0.03729572,2.81827,0.62246
82.429,13.45258,-0.03709917,2.82736,0.62243
83.029,13.481,-0.0367219,2.85591,0.62239
83.629,13.50946,-0.03702159,2.88994,0.62236
84.229,13.53766,-0.03804864,2.91637,0.62232
84.829,13.5658,-0.03796187,2.9472,0.62228
85.429,13.59335,-0.03832754,2.95926,0.62225
86.029,13.6208,-0.03830618,2.99643,0.62221
86.629,13.64829,-0.03779227,3.00959,0.62217
87.229,13.6758,-0.03824271,3.04397,0.62213
87.829,13.7035,-0.03834866,3.08164,0.62209
88.429,13.73056,-0.03696724,3.10286,0.62206
89.029,13.7575,-0.03809166,3.13318,0.62202
89.629,13.7844,-0.03833973,3.16542,0.62197
90.229,13.81122,-0.03681112,3.19187,0.62193
90.829,13.83787,-0.0380815,3.22955,0.62189
91.429,13.8644,-0.03817391,3.27154,0.62185
92.029,13.89061,-0.03818101,3.28955,0.62181
92.629,13.917,-0.03826895,3.33107,0.62177
93.229,13.94297,-0.03675972,3.3493,0.62172
93.829,13.9689,-0.03814261,3.39236,0.62168
94.429,13.99456,-0.036657,3.41947,0.62163
95.029,14.02011,-0.03806051,3.44412,0.62159
95.629,14.0456,-0.03805586,3.47031,0.62154
96.229,14.0711,-0.03810748,3.51262,0.6215
96.829,14.0964,-0.03827965,3.54475,0.62145
97.429,14.1215,-0.03806109,3.58791,0.6214
98.029,14.14661,-0.03759166,3.6207,0.62136
98.629,14.1715,-0.03807572,3.65596,0.62131
99.229,14.19636,-0.03741585,3.69909,0.62126
99.829,14.2211,-0.03797997,3.72259,0.62121
100.429,14.2454,-0.03793059,3.75375,0.62116
101.029,14.26985,-0.03698521,3.80508,0.62111
101.629,14.2942,-0.03786994,3.84047,0.62106
102.229,14.3186,-0.03795939,3.87896,0.62101
102.829,14.34286,-0.03797482,3.92772,0.62096
103.429,14.3669,-0.03940085,3.97016,0.62091
104.029,14.391,-0.04096469,4.0173,0.62085
104.629,14.41487,-0.03987953,4.07704,0.6208
105.229,14.43856,-0.03961944,4.12832,0.62075
105.829,14.46221,-0.0401987,4.18564,0.62069
106.429,14.4859,-0.03962963,4.24309,0.62064
107.029,14.5095,-0.03961136,4.28429,0.62058
107.629,14.533,-0.0397196,4.35826,0.62053
108.229,14.55635,-0.03965903,4.42655,0.62047
108.829,14.57954,-0.04101498,4.485,0.62042
109.429,14.60275,-0.04101973,4.56296,0.62036
110.029,14.62602,-0.04046704,4.62706,0.6203
110.629,14.6491,-0.04029122,4.703,0.62024
111.229,14.67203,-0.04101884,4.76832,0.62018
111.829,14.6949,-0.04145806,4.84155,0.62013
112.429,14.71764,-0.04245892,4.94194,0.62007
113.029,14.74035,-0.0424495,5.02802,0.62001
113.629,14.76299,-0.04307727,5.1027,0.61995
114.229,14.7854,-0.04366878,5.19733,0.61988
114.829,14.8079,-0.04242678,5.28788,0.61982
115.429,14.83027,-0.0427872,5.37594,0.61976
116.029,14.8525,-0.04241763,5.47688,0.6197
116.629,14.8748,-0.04233783,5.56811,0.61964
117.229,14.8969,-0.04226591,5.68367,0.61957
117.829,14.91898,-0.04247905,5.78225,0.61951
118.429,14.94106,-0.04088337,5.90296,0.61944
119.029,14.963,-0.0410425,6.02763,0.61938
119.629,14.98495,-0.04233656,6.14544,0.61931
120.229,15.00676,-0.04108752,6.29926,0.61925
120.829,15.0285,-0.04236528,6.43797,0.61918
121.429,15.05004,-0.04234031,6.60673,0.61912
122.029,15.0717,-0.04155252,6.78411,0.61905
122.629,15.0932,-0.04104356,6.99293,0.61898
123.229,15.1147,-0.04103053,7.18161,0.61891
123.829,15.13623,-0.04102332,7.3616,0.61884
124.429,15.15753,-0.04215824,7.51554,0.61877
125.029,15.17888,-0.04234807,7.57374,0.6187
125.629,15.1999,-0.04235491,7.56877,0.61863
126.229,15.221,-0.04109553,7.47219,0.61856
126.829,15.24214,-0.04234568,7.2522,0.61849
127.429,15.26317,-0.04233985,7.03382,0.61842
128.029,15.2842,-0.04232855,6.8132,0.61835
128.629,15.3051,-0.04207059,6.62293,0.61828
129.229,15.32589,-0.04097401,6.4662,0.6182
129.829,15.3466,-0.04096619,6.3408,0.61813
130.429,15.36725,-0.04222458,6.25765,0.61806
131.029,15.38783,-0.04118982,6.1803,0.61798
131.629,15.40838,-0.04103769,6.10619,0.61791
132.229,15.4289,-0.04102888,6.04359,0.61783
132.829,15.44926,-0.04101442,5.96619,0.61776
133.429,15.4695,-0.041153,5.84694,0.61768
134.029,15.4897,-0.04176393,5.68695,0.6176
134.629,15.51,-0.04256047,5.54761,0.61753
135.229,15.52999,-0.04256002,5.41461,0.61745
135.829,15.5501,-0.04289877,5.30213,0.61737
136.429,15.5701,-0.04387843,5.18418,0.61729
137.029,15.58999,-0.04388002,5.08664,0.61721
137.629,15.60987,-0.04388052,5.01225,0.61713
138.229,15.62967,-0.04389851,4.93227,0.61705
138.829,15.6495,-0.04257869,4.85663,0.61697
139.429,15.6693,-0.04348623,4.77859,0.61689
140.029,15.689,-0.04388221,4.74669,0.61681
140.629,15.70865,-0.04389497,4.69147,0.61673
141.229,15.7283,-0.04468804,4.66037,0.61665
141.829,15.7478,-0.04442576,4.62946,0.61656
142.429,15.76738,-0.04387675,4.60829,0.61648
143.029,15.78684,-0.04388309,4.59033,0.6164
143.629,15.8063,-0.04392859,4.58145,0.61631
144.229,15.82564,-0.04271585,4.56458,0.61623
144.829,15.84499,-0.04246438,4.55039,0.61614
145.429,15.86418,-0.04243037,4.54794,0.61606
146.029,15.88326,-0.04217966,4.56991,0.61597
146.629,15.9025,-0.0411332,4.57081,0.61589
147.229,15.92174,-0.04113994,4.56899,0.6158
147.829,15.94095,-0.04114239,4.58777,0.61571
148.429,15.96015,-0.04114464,4.58045,0.61562
149.029,15.9794,-0.04244085,4.58458,0.61554
149.629,15.9985,-0.04245667,4.59932,0.61545
150.229,16.0176,-0.04247113,4.61656,0.61536
150.829,16.03664,-0.04283059,4.62338,0.61527
151.429,16.05564,-0.04398523,4.62405,0.61518
152.029,16.07465,-0.04285346,4.64816,0.61509
152.629,16.09362,-0.04257577,4.65092,0.615
153.229,16.11245,-0.04257828,4.65295,0.61491
153.829,16.13136,-0.04394387,4.66274,0.61481
154.429,16.15024,-0.0438875,4.68415,0.61472
155.029,16.16909,-0.04390724,4.67929,0.61463
155.629,16.1879,-0.04388488,4.68247,0.61454
156.229,16.20674,-0.04388056,4.69445,0.61444
156.829,16.22543,-0.04388006,4.70409,0.61435
157.429,16.24413,-0.04388003,4.71251,0.61425
158.029,16.2628,-0.04388021,4.71871,0.61416
158.629,16.28145,-0.0438814,4.71998,0.61406
159.229,16.30009,-0.04388107,4.72569,0.61397
159.829,16.3187,-0.04328212,4.72879,0.61387
160.429,16.3373,-0.04318204,4.73848,0.61378
161.029,16.35585,-0.04432962,4.75977,0.61368
161.629,16.37442,-0.04451682,4.77433,0.61358
162.229,16.3929,-0.04452912,4.77295,0.61348
162.829,16.41144,-0.04453024,4.77942,0.61339
163.429,16.42991,-0.0445298,4.79071,0.61329
164.029,16.44839,-0.04449112,4.8003,0.61319
164.629,16.46675,-0.04558187,4.81307,0.61309
165.229,16.48515,-0.04526686,4.81982,0.61299
165.829,16.50349,-0.04536461,4.83875,0.61289
166.429,16.52186,-0.0441885,4.84615,0.61279
167.029,16.5402,-0.04399022,4.86172,0.61269
167.629,16.55858,-0.04398986,4.88356,0.61258
168.229,16.57689,-0.04398998,4.89807,0.61248
168.829,16.59516,-0.04399,4.90503,0.61238
169.429,16.6134,-0.04399,4.91602,0.61228
170.029,16.63167,-0.04399,4.92839,0.61217
170.629,16.6499,-0.04399,4.94472,0.61207
171.229,16.6681,-0.04399,4.94777,0.61196
171.829,16.6862,-0.04399001,4.9493,0.61186
172.429,16.70433,-0.04399008,4.96277,0.61175
173.029,16.72242,-0.04399059,4.98924,0.61165
173.629,16.7405,-0.04399144,5.00444,0.61154
174.229,16.75854,-0.04394796,5.01727,0.61144
174.829,16.77665,-0.04489812,5.03881,0.61133
175.429,16.79475,-0.044511,5.06596,0.61122
176.029,16.81277,-0.04401671,5.07282,0.61112
176.629,16.83074,-0.04399078,5.0781,0.61101
177.229,16.84874,-0.04398987,5.09126,0.6109
177.829,16.86666,-0.04398999,5.09014,0.61079
178.429,16.8846,-0.04399018,5.10084,0.61068
179.029,16.9025,-0.04399142,5.12342,0.61057
179.629,16.92041,-0.04399271,5.12903,0.61046
180.229,16.93831,-0.04388308,5.13365,0.61035
180.829,16.9561,-0.04639422,5.14963,0.61024
181.429,16.97394,-0.04660496,5.16822,0.61013
182.029,16.99173,-0.04662377,5.17195,0.61002
182.629,17.0095,-0.04660627,5.18988,0.6099
183.229,17.02724,-0.04781902,5.21099,0.60979
183.829,17.045,-0.04792707,5.20637,0.60968
184.429,17.06273,-0.04793907,5.22917,0.60957
185.029,17.0805,-0.04793998,5.23957,0.60945
185.629,17.09818,-0.04794001,5.25882,0.60934
186.229,17.11584,-0.04794,5.26965,0.60922
186.829,17.13344,-0.04794,5.28765,0.60911
187.429,17.151,-0.04794,5.29661,0.60899
188.029,17.16858,-0.04794,5.29602,0.60888
188.629,17.1861,-0.04794,5.31091,0.60876
189.229,17.20365,-0.04794,5.33003,0.60864
189.829,17.22116,-0.04794002,5.32679,0.60853
190.429,17.23866,-0.04793984,5.34884,0.60841
191.029,17.25618,-0.04793629,5.35474,0.60829
191.629,17.2736,-0.04790233,5.39465,0.60817
192.229,17.29106,-0.04868842,5.38167,0.60805
192.829,17.30852,-0.04927463,5.39759,0.60794
193.429,17.32589,-0.04926305,5.3933,0.60782
194.029,17.34321,-0.04926026,5.42086,0.6077
194.629,17.36054,-0.04925999,5.40513,0.60758
195.229,17.37795,-0.04926045,5.44715,0.60746
195.829,17.3953,-0.04926737,5.44868,0.60733
196.429,17.41262,-0.04931624,5.45819,0.60721
197.029,17.42996,-0.04827244,5.47799,0.60709
197.629,17.4472,-0.04828636,5.4991,0.60697
198.229,17.46431,-0.04827201,5.5428,0.60685
198.829,17.48156,-0.0482699,5.55396,0.60672
199.429,17.4988,-0.0482714,5.56804,0.6066
200.029,17.51611,-0.04830589,5.56657,0.60648
200.629,17.53339,-0.04790483,5.59137,0.60635
201.229,17.5507,-0.04793891,5.59526,0.60623
201.829,17.56792,-0.04794346,5.59877,0.6061
202.429,17.58509,-0.04799158,5.60719,0.60598
203.029,17.60223,-0.04770231,5.62383,0.60585
203.629,17.6193,-0.04826678,5.64677,0.60573
204.229,17.63652,-0.04816743,5.6646,0.6056
204.829,17.65369,-0.04947321,5.6755,0.60547
205.429,17.67078,-0.04958122,5.69373,0.60535
206.029,17.68786,-0.04953648,5.69653,0.60522
206.629,17.70499,-0.05063535,5.70333,0.60509
207.229,17.72208,-0.05088844,5.73215,0.60496
207.829,17.73909,-0.05090062,5.7347,0.60483
208.429,17.75613,-0.05090036,5.74964,0.60471
209.029,17.7732,-0.05090135,5.77555,0.60458
209.629,17.79028,-0.05090132,5.78491,0.60445
210.229,17.80729,-0.05199363,5.79799,0.60432
210.829,17.82432,-0.05214923,5.80962,0.60419
211.429,17.8414,-0.05205098,5.81825,0.60406
212.029,17.85833,-0.04951662,5.83077,0.60392
212.629,17.87529,-0.04552015,5.85005,0.60379
213.229,17.89224,-0.04472985,5.85785,0.60366
213.829,17.90926,-0.04921929,5.86513,0.60353
214.429,17.92616,-0.05746584,5.8902,0.6034
215.029,17.94311,-0.06128084,5.90984,0.60326
215.629,17.9601,-0.05977908,5.91374,0.60313
216.229,17.97701,-0.05725092,5.93139,0.603
216.829,17.99393,-0.05597962,5.94984,0.60286
217.429,18.01086,-0.05510314,5.96637,0.60273
218.029,18.02778,-0.05429018,5.9804,0.60259
218.629,18.0447,-0.0537426,5.98727,0.60246
219.229,18.06162,-0.05374961,5.99938,0.60232
219.829,18.0785,-0.05375004,6.01949,0.60219
220.429,18.0954,-0.05374999,6.04297,0.60205
221.029,18.11222,-0.05374988,6.05229,0.60191
221.629,18.1291,-0.05375046,6.05057,0.60178
222.229,18.14591,-0.05376394,6.07368,0.60164
222.829,18.16272,-0.05386918,6.10359,0.6015
223.429,18.1795,-0.05505376,6.10217,0.60136
224.029,18.19634,-0.0550673,6.11429,0.60122
224.629,18.2131,-0.05513361,6.12954,0.60108
225.229,18.2299,-0.05398401,6.13943,0.60095
225.829,18.2467,-0.05198957,6.14972,0.60081
226.429,18.26351,-0.05027274,6.16772,0.60067
227.029,18.28024,-0.05271315,6.17695,0.60053
227.629,18.29707,-0.05752573,6.18765,0.60039
228.229,18.31385,-0.06196339,6.18091,0.60024
228.829,18.3306,-0.0626517,6.18356,0.6001
229.429,18.34737,-0.0627155,6.20166,0.59996
230.029,18.36415,-0.06124475,6.21739,0.59982
230.629,18.3809,-0.06109766,6.23572,0.59968
231.229,18.3976,-0.05996643,6.25252,0.59953
231.829,18.41429,-0.05980575,6.25781,0.59939
232.429,18.431,-0.05978109,6.28252,0.59925
233.029,18.44766,-0.05977651,6.28949,0.5991
233.629,18.46436,-0.05973602,6.29167,0.59896
234.229,18.48105,-0.0605281,6.31061,0.59882
234.829,18.49774,-0.06112257,6.31312,0.59867
235.429,18.51437,-0.06109776,6.33733,0.59853
236.029,18.53105,-0.06108174,6.34602,0.59838
236.629,18.54769,-0.06185724,6.35035,0.59824
237.229,18.56427,-0.06243236,6.36884,0.59809
237.829,18.58095,-0.06245496,6.37385,0.59794
238.429,18.59759,-0.06327103,6.38907,0.5978
239.029,18.61425,-0.06449178,6.39262,0.59765
239.629,18.63089,-0.06439361,6.39248,0.5975
240.229,18.64755,-0.06438261,6.39241,0.59735
240.829,18.66421,-0.06515775,6.40476,0.59721
241.429,18.68078,-0.06569916,6.41433,0.59706
242.029,18.69739,-0.06572608,6.44112,0.59691
242.629,18.71399,-0.06590217,6.45777,0.59676
243.229,18.73059,-0.06703638,6.4678,0.59661
243.829,18.74711,-0.06701155,6.45015,0.59646
244.429,18.7637,-0.06701624,6.46235,0.59631
245.029,18.78029,-0.06701748,6.47186,0.59616
245.629,18.79678,-0.06741826,6.4826,0.59601
246.229,18.81332,-0.06840899,6.49485,0.59586
246.829,18.82984,-0.06833066,6.49315,0.59571
247.429,18.8463,-0.06961236,6.50916,0.59556
248.029,18.86288,-0.06961827,6.532,0.5954
248.629,18.87939,-0.07025928,6.53275,0.59525
249.229,18.896,-0.07101124,6.5769,0.5951
249.829,18.91252,-0.07159884,6.59204,0.59495
250.429,18.92911,-0.0725301,6.60815,0.59479
251.029,18.9456,-0.07362801,6.61653,0.59464
251.629,18.96208,-0.07413607,6.63702,0.59449
252.229,18.97853,-0.07536447,6.63407,0.59433
252.829,18.995,-0.07536349,6.63384,0.59418
253.429,19.01142,-0.07657746,6.64098,0.59402
254.029,19.02787,-0.07674985,6.66921,0.59387
254.629,19.04433,-0.07901989,6.68161,0.59371
255.229,19.06079,-0.07908102,6.69108,0.59356
255.829,19.07726,-0.07970399,6.69084,0.5934
256.429,19.09374,-0.08172013,6.70342,0.59324
257.029,19.1102,-0.08251117,6.71412,0.59309
257.629,19.12669,-0.08331611,6.74717,0.59293
258.229,19.14315,-0.08471721,6.72388,0.59277
258.829,19.15964,-0.0849108,6.74715,0.59261
259.429,19.17609,-0.08498254,6.75907,0.59246
260.029,19.1926,-0.08629164,6.76255,0.5923
260.629,19.20901,-0.08569512,6.78087,0.59214
261.229,19.2255,-0.08700624,6.79608,0.59198
261.829,19.2419,-0.08873057,6.79518,0.59182
262.429,19.25827,-0.08911989,6.79721,0.59166
263.029,19.2746,-0.09038524,6.81092,0.5915
263.629,19.291,-0.09270031,6.81845,0.59134
264.229,19.3074,-0.09292343,6.82023,0.59118
264.829,19.3238,-0.09440101,6.82352,0.59102
265.429,19.34027,-0.09491928,6.83069,0.59086
266.029,19.35676,-0.09618647,6.84467,0.5907
266.629,19.37322,-0.09734534,6.84882,0.59054
267.229,19.38962,-0.09625631,6.8684,0.59038
267.829,19.40605,-0.09321694,6.87631,0.59021
268.429,19.42241,-0.09281318,6.88922,0.59005
269.029,19.4388,-0.09974064,6.89455,0.58989
269.629,19.45513,-0.10961,6.90474,0.58973
270.229,19.47144,-0.11686,6.88859,0.58956
270.829,19.48779,-0.11495,6.91169,0.5894
271.429,19.50415,-0.11328,6.92788,0.58923
272.029,19.52059,-0.1122,6.93356,0.58907
272.629,19.53698,-0.11356,6.94829,0.58891
273.229,19.5534,-0.11483,6.96301,0.58874
273.829,19.56982,-0.11648,6.97377,0.58858
274.429,19.5862,-0.11835,6.98569,0.58841
275.029,19.60254,-0.11934,6.98956,0.58825
275.629,19.61886,-0.11997,6.99769,0.58808
276.229,19.6352,-0.12136,7.00527,0.58791
276.829,19.65152,-0.12337,7.01932,0.58775
277.429,19.66788,-0.12589,7.02252,0.58758
278.029,19.68424,-0.12744,7.04024,0.58741
278.629,19.7006,-0.1296,7.05631,0.58725
279.229,19.71697,-0.13126,7.07161,0.58708
279.829,19.73333,-0.13448,7.08617,0.58691
280.429,19.74969,-0.13642,7.09458,0.58674
281.029,19.7661,-0.13912,7.08989,0.58657
281.629,19.78244,-0.14161,7.09812,0.5864
282.229,19.79881,-0.14404,7.10342,0.58624
282.829,19.8152,-0.14628,7.12726,0.58607
283.429,19.83161,-0.14723,7.13806,0.5859
284.029,19.84795,-0.14358,7.14944,0.58573
284.629,19.86429,-0.14083,7.15933,0.58556
285.229,19.88064,-0.14439,7.18249,0.58539
285.829,19.897,-0.15431,7.20643,0.58522
286.429,19.91328,-0.16782,7.21619,0.58504
287.029,19.92963,-0.17204,7.2122,0.58487
287.629,19.94601,-0.17334,7.21904,0.5847
288.229,19.9624,-0.17336,7.24114,0.58453
288.829,19.97878,-0.17458,7.25717,0.58436
289.429,19.9952,-0.17643,7.25815,0.58419
290.029,20.0116,-0.17718,7.27229,0.58401
290.629,20.0279,-0.18068,7.27495,0.58384
291.229,20.04427,-0.18423,7.27676,0.58367
291.829,20.0606,-0.188,7.28808,0.58349
292.429,20.07694,-0.19141,7.31159,0.58332
293.029,20.09325,-0.19357,7.30018,0.58315
293.629,20.10964,-0.19693,7.32369,0.58297
294.229,20.12596,-0.19967,7.33796,0.5828
294.829,20.14225,-0.20366,7.35399,0.58262
295.429,20.1586,-0.20773,7.36268,0.58245
296.029,20.17495,-0.2103,7.37128,0.58227
296.629,20.1913,-0.21574,7.39029,0.5821
297.229,20.2076,-0.22007,7.38069,0.58192
297.829,20.224,-0.22509,7.38761,0.58175
298.429,20.24036,-0.2289,7.3979,0.58157
299.029,20.25672,-0.23362,7.40569,0.5814
299.629,20.27305,-0.23781,7.42615,0.58122
300.229,20.28937,-0.24274,7.43805,0.58104
300.829,20.30568,-0.24784,7.45428,0.58086
301.429,20.32197,-0.25196,7.46606,0.58069
302.029,20.33827,-0.25751,7.4344,0.58051
302.629,20.35456,-0.26213,7.45264,0.58033
303.229,20.37088,-0.26753,7.44454,0.58015
303.829,20.38724,-0.27233,7.47056,0.57997
304.429,20.4036,-0.27657,7.48763,0.5798
305.029,20.4199,-0.28221,7.48701,0.57962
305.629,20.4363,-0.28704,7.48274,0.57944
306.229,20.45265,-0.29266,7.47231,0.57926
306.829,20.46905,-0.29748,7.47786,0.57908
307.429,20.48536,-0.30169,7.49106,0.5789
308.029,20.5017,-0.30761,7.49911,0.57872
308.629,20.518,-0.31289,7.48192,0.57854
309.229,20.5342,-0.31915,7.49792,0.57836
309.829,20.55058,-0.3245,7.49532,0.57818
310.429,20.56695,-0.32976,7.47085,0.578
311.029,20.58331,-0.33615,7.4829,0.57782
311.629,20.5997,-0.34112,7.47181,0.57763
312.229,20.6162,-0.34893,7.47313,0.57745
312.829,20.6326,-0.3541,7.47422,0.57727
313.429,20.64895,-0.36021,7.47059,0.57709
314.029,20.6653,-0.36648,7.43855,0.57691
314.629,20.68169,-0.37154,7.48809,0.57672
315.229,20.69801,-0.37837,7.44811,0.57654
315.829,20.71441,-0.38365,7.43212,0.57636
316.429,20.73075,-0.38947,7.43758,0.57617
317.029,20.7471,-0.39503,7.4286,0.57599
317.629,20.7635,-0.39982,7.44498,0.57581
318.229,20.77992,-0.40625,7.42907,0.57562
318.829,20.79629,-0.41156,7.4157,0.57544
319.429,20.81273,-0.41823,7.42253,0.57525
320.029,20.82924,-0.4238,7.42075,0.57507
320.629,20.84571,-0.42957,7.4167,0.57488
321.229,20.86219,-0.43579,7.40899,0.5747
321.829,20.87864,-0.44038,7.40402,0.57451
322.429,20.89519,-0.4469,7.40507,0.57433
323.029,20.9116,-0.45279,7.41783,0.57414
323.629,20.928,-0.45949,7.4176,0.57396
324.229,20.94439,-0.46684,7.42378,0.57377
324.829,20.9608,-0.47343,7.4164,0.57358
325.429,20.9772,-0.48012,7.41421,0.5734
326.029,20.9937,-0.48514,7.40747,0.57321
326.629,21.01005,-0.49098,7.40933,0.57302
327.229,21.02646,-0.4977,7.40814,0.57283
327.829,21.04286,-0.50315,7.41804,0.57265
328.429,21.05927,-0.51009,7.43243,0.57246
329.029,21.07565,-0.51545,7.44312,0.57227
329.629,21.09208,-0.52329,7.4539,0.57208
330.229,21.10851,-0.52996,7.4497,0.57189
330.829,21.12492,-0.53594,7.46722,0.57171
331.429,21.1414,-0.54232,7.45327,0.57152
332.029,21.15785,-0.54664,7.45834,0.57133
332.629,21.17429,-0.55322,7.47022,0.57114
333.229,21.19073,-0.55909,7.48434,0.57095
333.829,21.20721,-0.56504,7.49943,0.57076
334.429,21.22366,-0.57283,7.51844,0.57057
335.029,21.24006,-0.5784,7.51466,0.57038
335.629,21.25656,-0.58518,7.53361,0.57019
336.229,21.27306,-0.58998,7.5466,0.57
336.829,21.2895,-0.59551,7.55696,0.56981
337.429,21.30604,-0.60216,7.56124,0.56962
338.029,21.32255,-0.60724,7.58364,0.56943
338.629,21.33907,-0.61495,7.59849,0.56923
339.229,21.35555,-0.62063,7.59766,0.56904
339.829,21.37205,-0.62752,7.62891,0.56885
340.429,21.38853,-0.63399,7.65151,0.56866
341.029,21.40503,-0.63984,7.65657,0.56847
341.629,21.4215,-0.64695,7.6806,0.56828
342.229,21.438,-0.65229,7.69968,0.56808
342.829,21.45451,-0.66055,7.71423,0.56789
343.429,21.47107,-0.66736,7.74124,0.5677
344.029,21.4876,-0.67381,7.76542,0.5675
344.629,21.50412,-0.68105,7.77845,0.56731
345.229,21.52064,-0.68667,7.79452,0.56712
345.829,21.53716,-0.69398,7.81469,0.56692
346.429,21.55365,-0.69956,7.84512,0.56673
347.029,21.57019,-0.70558,7.85541,0.56654
347.629,21.58671,-0.71238,7.8871,0.56634
348.229,21.6033,-0.719,7.91393,0.56615
348.829,21.6199,-0.72728,7.92387,0.56595
349.429,21.6365,-0.73338,7.95945,0.56576
350.029,21.65305,-0.74055,7.99306,0.56556
350.629,21.66967,-0.74707,8.02075,0.56537
351.229,21.68626,-0.75388,8.05973,0.56517
351.829,21.70286,-0.76226,8.09491,0.56498
352.429,21.71946,-0.76834,8.13766,0.56478
353.029,21.73609,-0.77634,8.17215,0.56459
353.629,21.7527,-0.78317,8.20461,0.56439
354.229,21.76926,-0.79129,8.24501,0.56419
354.829,21.78586,-0.7999,8.28733,0.564
355.429,21.80249,-0.80675,8.31589,0.5638
356.029,21.81909,-0.81473,8.35774,0.5636
356.629,21.83571,-0.8201,8.39525,0.56341
357.229,21.8523,-0.82781,8.44252,0.56321
357.829,21.86896,-0.8352,8.4967,0.56301
358.429,21.88557,-0.84288,8.56052,0.56282
359.029,21.90222,-0.85246,8.61262,0.56262
359.629,21.91883,-0.86022,8.65884,0.56242
360.229,21.93546,-0.87143,8.70387,0.56222
360.829,21.95209,-0.8796,8.76903,0.56202
361.429,21.96875,-0.8888,8.82351,0.56183
362.029,21.98542,-0.89746,8.88863,0.56163
362.629,22.0021,-0.90413,8.95405,0.56143
363.229,22.01882,-0.91411,9.03128,0.56123
363.829,22.0355,-0.92209,9.08537,0.56103
364.429,22.05218,-0.93277,9.15082,0.56083
365.029,22.06883,-0.94305,9.2202,0.56063
365.629,22.0855,-0.95262,9.29322,0.56043
366.229,22.10218,-0.96347,9.40005,0.56023
366.829,22.11883,-0.97181,9.46773,0.56003
367.429,22.13557,-0.98277,9.53552,0.55983
368.029,22.15224,-0.99213,9.62878,0.55963
368.629,22.169,-1.00263,9.70897,0.55943
369.229,22.1857,-1.01325,9.78376,0.55923
369.829,22.2024,-1.02365,9.89621,0.55903
370.429,22.2191,-1.03645,9.97031,0.55883
371.029,22.2359,-1.04639,10.05658,0.55863
371.629,22.2526,-1.05873,10.1508,0.55843
372.229,22.26934,-1.07018,10.25327,0.55823
372.829,22.28611,-1.08127,10.35114,0.55803
373.429,22.30281,-1.09486,10.44053,0.55783
374.029,22.31956,-1.10521,10.51822,0.55762
374.629,22.33634,-1.11931,10.61115,0.55742
375.229,22.3531,-1.13081,10.7158,0.55722
375.829,22.3699,-1.1436,10.80353,0.55702
376.429,22.38665,-1.15644,10.88133,0.55682
377.029,22.40348,-1.16774,10.97213,0.55661
377.629,22.42018,-1.1829,11.06917,0.55641
378.229,22.43696,-1.1954,11.14885,0.55621
378.829,22.45374,-1.21047,11.21353,0.556
379.429,22.47061,-1.22331,11.28562,0.5558
380.029,22.4874,-1.23628,11.378,0.5556
380.629,22.5043,-1.25104,11.43083,0.5554
381.229,22.52111,-1.26365,11.50555,0.55519
381.829,22.53795,-1.28027,11.55612,0.55499
382.429,22.55473,-1.29347,11.6129,0.55478
383.029,22.57155,-1.30855,11.6661,0.55458
383.629,22.58845,-1.32265,11.67887,0.55438
384.229,22.6053,-1.33568,11.71901,0.55417
384.829,22.62219,-1.35193,11.75455,0.55397
385.429,22.63895,-1.36479,11.7729,0.55376
386.029,22.65585,-1.38127,11.77409,0.55356
386.629,22.67269,-1.39539,11.75994,0.55335
387.229,22.68959,-1.41072,11.72182,0.55315
387.829,22.70651,-1.4252,11.66275,0.55294
388.429,22.72351,-1.43745,11.62983,0.55274
389.029,22.7405,-1.45264,11.56819,0.55253
389.629,22.75742,-1.46502,11.4915,0.55233
390.229,22.77435,-1.48071,11.39938,0.55212
390.829,22.79127,-1.49417,11.2821,0.55192
391.429,22.80823,-1.50755,11.17741,0.55171
392.029,22.8252,-1.52105,11.0359,0.55151
392.629,22.8422,-1.53199,10.90001,0.5513
393.229,22.85918,-1.54543,10.73857,0.55109
393.829,22.8762,-1.55531,10.5655,0.55089
394.429,22.89314,-1.56642,10.3744,0.55068
395.029,22.91016,-1.57639,10.178,0.55047
395.629,22.92715,-1.5877,9.96466,0.55027
396.229,22.94419,-1.59951,9.76668,0.55006
396.829,22.96123,-1.60835,9.52502,0.54985
397.429,22.97822,-1.61875,9.30448,0.54965
398.029,22.99519,-1.6257,9.07152,0.54944
398.629,23.0122,-1.63363,8.80757,0.54923
399.229,23.0293,-1.641,8.56919,0.54903
399.829,23.04635,-1.64775,8.31621,0.54882
400.429,23.06343,-1.65602,8.07438,0.54861
401.029,23.08051,-1.6625,7.83487,0.5484
401.629,23.09756,-1.67024,7.58616,0.54819
402.229,23.11457,-1.67525,7.35519,0.54799
402.829,23.13156,-1.68016,7.13886,0.54778
403.429,23.14854,-1.68519,6.90682,0.54757
404.029,23.16563,-1.69003,6.70147,0.54736
404.629,23.18274,-1.6952,6.51526,0.54715
405.229,23.1998,-1.698,6.31577,0.54694
405.829,23.2168,-1.7017,6.14188,0.54674
406.429,23.23388,-1.70414,5.98757,0.54653
407.029,23.25093,-1.70509,5.8377,0.54632
407.629,23.26792,-1.70729,5.69053,0.54611
408.229,23.285,-1.71004,5.56263,0.5459
408.829,23.302,-1.71221,5.44645,0.54569
409.429,23.31912,-1.71368,5.33939,0.54548
410.029,23.3362,-1.7149,5.24874,0.54527
410.629,23.35323,-1.71683,5.17473,0.54506
411.229,23.37032,-1.71952,5.09249,0.54485
411.829,23.38743,-1.72236,5.02448,0.54464
412.429,23.4045,-1.7246,4.96997,0.54443
413.029,23.42162,-1.72712,4.9274,0.54422
413.629,23.4388,-1.72904,4.874,0.54401
414.229,23.4558,-1.7295,4.82394,0.5438
414.829,23.47286,-1.73098,4.78093,0.54359
415.429,23.48989,-1.73204,4.74048,0.54338
416.029,23.507,-1.73259,4.70775,0.54317
416.629,23.5241,-1.73392,4.70654,0.54296
417.229,23.54129,-1.73502,4.67392,0.54275
417.829,23.5584,-1.7366,4.64377,0.54254
418.429,23.57555,-1.73815,4.62334,0.54233
419.029,23.59274,-1.73956,4.60691,0.54212
419.629,23.60989,-1.74127,4.59406,0.54191
420.229,23.62706,-1.74269,4.5855,0.5417
420.829,23.64419,-1.74344,4.5859,0.54148
421.429,23.6613,-1.74469,4.56823,0.54127
422.029,23.67836,-1.74607,4.55051,0.54106
422.629,23.69556,-1.74651,4.54945,0.54085
423.229,23.71275,-1.74799,4.54549,0.54064
423.829,23.72999,-1.75059,4.54153,0.54043
424.429,23.74736,-1.75253,4.53108,0.54021
425.029,23.76473,-1.75426,4.51997,0.54
425.629,23.782,-1.75588,4.52582,0.53979
426.229,23.7992,-1.75715,4.52054,0.53958
426.829,23.81642,-1.7586,4.51611,0.53937
427.429,23.83367,-1.7599,4.52736,0.53915
428.029,23.85089,-1.76143,4.53158,0.53894
428.629,23.86811,-1.76332,4.52859,0.53873
429.229,23.88535,-1.76539,4.52559,0.53852
429.829,23.90267,-1.76681,4.53581,0.5383
430.429,23.91996,-1.76825,4.52866,0.53809
431.029,23.9373,-1.7692,4.53618,0.53788
431.629,23.95459,-1.77083,4.55053,0.53767
432.229,23.97191,-1.77245,4.55495,0.53745
432.829,23.9892,-1.77432,4.55374,0.53724
433.429,24.00646,-1.77604,4.57407,0.53703
434.029,24.02371,-1.77784,4.58547,0.53681
434.629,24.04104,-1.77964,4.59582,0.5366
435.229,24.05837,-1.78099,4.60876,0.53639
435.829,24.0758,-1.78202,4.60866,0.53617
436.429,24.09318,-1.78344,4.61253,0.53596
437.029,24.11058,-1.78366,4.64182,0.53575
437.629,24.12797,-1.78521,4.65009,0.53553
438.229,24.14535,-1.78699,4.66684,0.53532
438.829,24.1627,-1.78956,4.67493,0.53511
439.429,24.18,-1.79239,4.70558,0.53489
440.029,24.19744,-1.79426,4.72108,0.53468
440.629,24.21486,-1.79657,4.72484,0.53446
441.229,24.23226,-1.79876,4.73568,0.53425
441.829,24.24972,-1.79981,4.7555,0.53404
442.429,24.26715,-1.80086,4.77565,0.53382
443.029,24.2846,-1.80263,4.79928,0.53361
443.629,24.30199,-1.80469,4.82827,0.53339
444.229,24.31945,-1.80666,4.85569,0.53318
444.829,24.3369,-1.80897,4.88441,0.53296
445.429,24.35435,-1.8118,4.92304,0.53275
446.029,24.37181,-1.81419,4.95226,0.53253
446.629,24.38925,-1.8163,4.96677,0.53232
447.229,24.40669,-1.81826,4.99449,0.5321
447.829,24.42417,-1.82089,5.02968,0.53189
448.429,24.44166,-1.82297,5.06916,0.53168
449.029,24.45915,-1.82558,5.10302,0.53146
449.629,24.47663,-1.82867,5.14094,0.53125
450.229,24.49417,-1.83178,5.18754,0.53103
450.829,24.5117,-1.83465,5.22969,0.53082
451.429,24.5292,-1.83759,5.26802,0.5306
452.029,24.54673,-1.84111,5.32846,0.53038
452.629,24.56425,-1.84429,5.35525,0.53017
453.229,24.58181,-1.84665,5.40358,0.52995
453.829,24.5994,-1.84914,5.46392,0.52974
454.429,24.61688,-1.85271,5.50713,0.52952
455.029,24.6344,-1.85556,5.54288,0.52931
455.629,24.65201,-1.85949,5.59952,0.52909
456.229,24.66955,-1.86347,5.6622,0.52888
456.829,24.68711,-1.86593,5.71726,0.52866
457.429,24.7047,-1.86869,5.76991,0.52845
458.029,24.72233,-1.87253,5.8295,0.52823
458.629,24.7398,-1.87624,5.8914,0.52801
459.229,24.75734,-1.88011,5.95817,0.5278
459.829,24.7749,-1.88496,6.00878,0.52758
460.429,24.79252,-1.89033,6.07409,0.52737
461.029,24.81009,-1.89364,6.14117,0.52715
461.629,24.82786,-1.89819,6.21168,0.52693
462.229,24.84556,-1.90312,6.27269,0.52672
462.829,24.8632,-1.91018,6.35145,0.5265
463.429,24.8809,-1.91522,6.42521,0.52628
464.029,24.89849,-1.91972,6.51074,0.52607
464.629,24.91609,-1.92472,6.58733,0.52585
465.229,24.9337,-1.92937,6.67268,0.52564
465.829,24.9513,-1.93538,6.74294,0.52542
466.429,24.9689,-1.94044,6.82603,0.5252
467.029,24.98657,-1.94693,6.91007,0.52499
467.629,25.00427,-1.95262,7.01573,0.52477
468.229,25.0219,-1.95956,7.11066,0.52455
468.829,25.0396,-1.96654,7.20923,0.52434
469.429,25.05726,-1.97357,7.29686,0.52412
470.029,25.07495,-1.98086,7.37658,0.5239
470.629,25.09263,-1.9865,7.49078,0.52369
471.229,25.11037,-1.99424,7.56723,0.52347
471.829,25.12811,-2.00062,7.66758,0.52325
472.429,25.14588,-2.0093,7.76688,0.52304
473.029,25.1636,-2.01665,7.86848,0.52282
473.629,25.18139,-2.02568,7.97403,0.5226
474.229,25.19911,-2.03488,8.0847,0.52239
474.829,25.21685,-2.04302,8.18315,0.52217
475.429,25.2346,-2.05207,8.28592,0.52195
476.029,25.25236,-2.0607,8.39036,0.52174
476.629,25.27009,-2.07225,8.48971,0.52152
477.229,25.28784,-2.08129,8.58562,0.5213
477.829,25.30555,-2.09288,8.6845,0.52108
478.429,25.3233,-2.10351,8.79903,0.52087
479.029,25.34112,-2.11566,8.90371,0.52065
479.629,25.35892,-2.12748,9.00566,0.52043
480.229,25.37675,-2.1381,9.10151,0.52022
480.829,25.39464,-2.15097,9.19641,0.52
481.429,25.41244,-2.16169,9.29111,0.51978
482.029,25.43025,-2.17626,9.39048,0.51956
482.629,25.44806,-2.18829,9.48884,0.51935
483.229,25.46593,-2.20389,9.58127,0.51913
483.829,25.48378,-2.21683,9.67255,0.51891
484.429,25.50165,-2.23142,9.75922,0.51869
485.029,25.51955,-2.24618,9.85265,0.51848
485.629,25.53744,-2.26061,9.93472,0.51826
486.229,25.5553,-2.27713,10.0274,0.51804
486.829,25.5732,-2.29263,10.1076,0.51782
487.429,25.59112,-2.31137,10.20317,0.51761
488.029,25.60902,-2.32639,10.2807,0.51739
488.629,25.62689,-2.346,10.36347,0.51717
489.229,25.64481,-2.3628,10.44461,0.51695
489.829,25.66271,-2.38107,10.51475,0.51674
490.429,25.6806,-2.39895,10.5823,0.51652
491.029,25.6985,-2.41732,10.6408,0.5163
491.629,25.71651,-2.43824,10.71053,0.51608
492.229,25.73441,-2.45583,10.76808,0.51587
492.829,25.75234,-2.47901,10.80643,0.51565
493.429,25.77026,-2.49774,10.86692,0.51543
494.029,25.78818,-2.52127,10.92402,0.51521
494.629,25.80611,-2.54018,10.96037,0.515
495.229,25.82406,-2.56388,11.00098,0.51478
495.829,25.842,-2.58604,11.02946,0.51456
496.429,25.86,-2.60891,11.03005,0.51434
497.029,25.878,-2.63255,11.03757,0.51412
497.629,25.89602,-2.65401,11.03398,0.51391
498.229,25.91408,-2.67969,11.02445,0.51369
498.829,25.93216,-2.70061,10.99847,0.51347
499.429,25.95018,-2.72715,10.98307,0.51325
500.029,25.96827,-2.74831,10.94404,0.51304
500.629,25.9863,-2.7752,10.88162,0.51282
501.229,26.0044,-2.79745,10.83141,0.5126
501.829,26.02244,-2.82301,10.76909,0.51238
502.429,26.04052,-2.84707,10.66907,0.51216
503.029,26.05865,-2.87154,10.5814,0.51195
503.629,26.0766,-2.8976,10.47912,0.51173
504.229,26.09475,-2.92005,10.34934,0.51151
504.829,26.11286,-2.94658,10.21827,0.51129
505.429,26.13106,-2.96775,10.07589,0.51107
506.029,26.14925,-2.99462,9.9202,0.51086
506.629,26.16761,-3.01555,9.72856,0.51064
507.229,26.18582,-3.04112,9.54967,0.51042
507.829,26.20404,-3.06214,9.35199,0.5102
508.429,26.22225,-3.08542,9.15117,0.50999
509.029,26.2405,-3.10736,8.91669,0.50977
509.629,26.25879,-3.12882,8.69709,0.50955
510.229,26.2771,-3.15083,8.45041,0.50933
510.829,26.29543,-3.16907,8.19659,0.50911
511.429,26.3137,-3.19013,7.93796,0.5089
512.029,26.33207,-3.207,7.66008,0.50868
512.629,26.3504,-3.22828,7.39003,0.50846
513.229,26.36875,-3.24407,7.10385,0.50824
513.829,26.3871,-3.26209,6.79646,0.50803
514.429,26.4056,-3.2762,6.50316,0.50781
515.029,26.42398,-3.29254,6.18903,0.50759
515.629,26.44245,-3.30596,5.86505,0.50737
516.229,26.46098,-3.31888,5.57348,0.50715
516.829,26.47942,-3.33046,5.25908,0.50694
517.429,26.4979,-3.34117,4.96741,0.50672
518.029,26.5165,-3.35241,4.65422,0.5065
518.629,26.53507,-3.36135,4.34239,0.50628
519.229,26.55363,-3.37021,4.02013,0.50607
519.829,26.5722,-3.37628,3.73296,0.50585
520.429,26.5908,-3.38422,3.4714,0.50563
521.029,26.60929,-3.39047,3.21179,0.50541
521.629,26.62779,-3.39776,2.95263,0.50519
522.229,26.6463,-3.4023,2.68585,0.50498
522.829,26.66491,-3.40624,2.42671,0.50476
523.429,26.68352,-3.40927,2.19175,0.50454
524.029,26.70213,-3.41162,1.92432,0.50432
524.629,26.72075,-3.41554,1.6649,0.50411
525.229,26.73933,-3.41956,1.47253,0.50389
525.829,26.75785,-3.42156,1.29689,0.50367
526.429,26.77635,-3.42241,1.11878,0.50345
527.029,26.7948,-3.42193,0.99445,0.50324
527.629,26.81335,-3.42366,0.86958,0.50302
528.229,26.8318,-3.42534,0.74889,0.5028
528.829,26.85032,-3.42754,0.65923,0.50258
529.429,26.8688,-3.4285,0.57237,0.50237
530.029,26.8872,-3.42925,0.51511,0.50215
530.629,26.90563,-3.43007,0.48921,0.50193
531.229,26.92407,-3.4318,0.43924,0.50171
531.829,26.9425,-3.43185,0.39288,0.5015
532.429,26.96095,-3.43296,0.37609,0.50128
533.029,26.97942,-3.43168,0.32981,0.50106
533.629,26.99789,-3.43243,0.32436,0.50085
534.229,27.0163,-3.43309,0.30766,0.50063
534.829,27.03476,-3.4331,0.29558,0.50041
535.429,27.0532,-3.43334,0.29738,0.50019
536.029,27.07163,-3.4344,0.29602,0.49998
536.629,27.09005,-3.43439,0.28083,0.49976
537.229,27.10851,-3.43569,0.26465,0.49954
537.829,27.12701,-3.4357,0.26239,0.49933
538.429,27.1454,-3.4357,0.25115,0.49911
539.029,27.1639,-3.4357,0.24283,0.49889
539.629,27.18238,-3.43571,0.23877,0.49867
540.229,27.2008,-3.43575,0.24186,0.49846
540.829,27.21926,-3.43713,0.23536,0.49824
541.429,27.2378,-3.43759,0.21966,0.49802
542.029,27.2563,-3.43871,0.22292,0.49781
542.629,27.2748,-3.4386,0.21889,0.49759
543.229,27.2934,-3.44014,0.22517,0.49737
543.829,27.3119,-3.4413,0.22957,0.49716
544.429,27.33042,-3.4413,0.22993,0.49694
545.029,27.3489,-3.44129,0.2134,0.49672
545.629,27.36748,-3.44077,0.20419,0.49651
546.229,27.386,-3.4411,0.19627,0.49629
546.829,27.40455,-3.44119,0.20199,0.49607
547.429,27.42312,-3.44132,0.19996,0.49586
548.029,27.4416,-3.44266,0.20128,0.49564
548.629,27.46019,-3.44261,0.19402,0.49542
549.229,27.47873,-3.44408,0.1929,0.49521
549.829,27.4973,-3.44525,0.17739,0.49499
550.429,27.5157,-3.44648,0.1794,0.49477
551.029,27.5343,-3.44676,0.16081,0.49456
551.629,27.55289,-3.44678,0.1702,0.49434
552.229,27.57145,-3.44679,0.17189,0.49412
552.829,27.5901,-3.44679,0.16216,0.49391
553.429,27.6088,-3.4491,0.1496,0.49369
554.029,27.6273,-3.44908,0.14778,0.49348
554.629,27.64586,-3.44917,0.14535,0.49326
555.229,27.66449,-3.4505,0.13414,0.49304
555.829,27.68307,-3.4504,0.13133,0.49283
556.429,27.7017,-3.45037,0.12978,0.49261
557.029,27.72038,-3.45141,0.11744,0.4924
557.629,27.739,-3.45169,0.10283,0.49218
558.229,27.75765,-3.45201,0.09264834,0.49196
558.829,27.7763,-3.45319,0.09398787,0.49175
559.429,27.795,-3.45335,0.07258032,0.49153
560.029,27.81359,-3.45339,0.0821402,0.49132
560.629,27.8323,-3.45476,0.0609855,0.4911
561.229,27.85095,-3.45468,0.06999506,0.49089
561.829,27.8696,-3.45468,0.06549136,0.49067
562.429,27.88833,-3.45589,0.05639384,0.49045
563.029,27.907,-3.45562,0.05531717,0.49024
563.629,27.9256,-3.45565,0.05325944,0.49002
564.229,27.94427,-3.45649,0.06009401,0.48981
564.829,27.9629,-3.45616,0.05173134,0.48959
565.429,27.9816,-3.45606,0.02746905,0.48938
566.029,28.00028,-3.45732,0.01380829,0.48916
566.629,28.01895,-3.4573,0.01485121,0.48895
567.229,28.0377,-3.45722,0.01574076,0.48873
567.829,28.0564,-3.45857,0.005633389,0.48852
568.429,28.07507,-3.45998,0.01087407,0.4883
569.029,28.0938,-3.46001,-0.003721005,0.48809
569.629,28.1125,-3.46095,-0.02374738,0.48787
570.229,28.13125,-3.4606,-0.02665091,0.48766
570.829,28.14998,-3.46006,-0.02660687,0.48744
571.429,28.1687,-3.46092,-0.01633918,0.48723
572.029,28.18747,-3.46137,-0.01763187,0.48701
572.629,28.20624,-3.46137,-0.03233817,0.4868
573.229,28.22502,-3.46133,-0.05607475,0.48658
573.829,28.2439,-3.46252,-0.04565103,0.48637
574.429,28.26265,-3.46403,-0.06582593,0.48616
575.029,28.28152,-3.464,-0.06456407,0.48594
575.629,28.3003,-3.46435,-0.07866853,0.48573
576.229,28.319,-3.46534,-0.08785114,0.48551
576.829,28.3378,-3.46579,-0.0924578,0.4853
577.429,28.35662,-3.46667,-0.09334574,0.48508
578.029,28.3754,-3.46663,-0.09658796,0.48487
578.629,28.3942,-3.46664,-0.09329316,0.48466
579.229,28.4131,-3.46679,-0.10706,0.48444
579.829,28.43184,-3.46938,-0.10422,0.48423
580.429,28.45066,-3.46927,-0.1089,0.48401
581.029,28.4695,-3.46927,-0.11484,0.4838
581.629,28.48835,-3.46807,-0.12887,0.48359
582.229,28.50719,-3.46799,-0.14817,0.48337
582.829,28.52605,-3.46853,-0.14438,0.48316
583.429,28.54488,-3.46926,-0.16513,0.48295
584.029,28.56373,-3.46922,-0.16812,0.48273
584.629,28.58264,-3.47014,-0.17142,0.48252
585.229,28.60152,-3.47057,-0.18555,0.48231
585.829,28.6204,-3.47058,-0.19299,0.48209
586.429,28.63935,-3.47058,-0.19972,0.48188
587.029,28.6582,-3.47109,-0.23011,0.48167
587.629,28.6771,-3.47193,-0.20807,0.48145
588.229,28.696,-3.4719,-0.22778,0.48124
588.829,28.71495,-3.4719,-0.23546,0.48103
589.429,28.7339,-3.47267,-0.23145,0.48081
590.029,28.75273,-3.47459,-0.23492,0.4806
590.629,28.7717,-3.47453,-0.24809,0.48039
591.229,28.7906,-3.47449,-0.25587,0.48018
591.829,28.8095,-3.47321,-0.25314,0.47996
592.429,28.82838,-3.47314,-0.24268,0.47975
593.029,28.84732,-3.47451,-0.25063,0.47954
593.629,28.86624,-3.47448,-0.26853,0.47933
594.229,28.8852,-3.47559,-0.27593,0.47911
594.829,28.90418,-3.47583,-0.28215,0.4789
595.429,28.92316,-3.47583,-0.28666,0.47869
596.029,28.9422,-3.47638,-0.2913,0.47848
596.629,28.96108,-3.47715,-0.3011,0.47827
597.229,28.9801,-3.47716,-0.30005,0.47805
597.829,28.99901,-3.47716,-0.30473,0.47784
598.429,29.0179,-3.47734,-0.31862,0.47763
599.029,29.0369,-3.47853,-0.32424,0.47742
599.629,29.05596,-3.47839,-0.34573,0.47721
600.229,29.075,-3.47972,-0.34381,0.47699
600.829,29.09399,-3.47979,-0.34717,0.47678
601.429,29.113,-3.47979,-0.35449,0.47657
602.029,29.1319,-3.47979,-0.3544,0.47636
602.629,29.15087,-3.47981,-0.36559,0.47615
603.229,29.16982,-3.48208,-0.36226,0.47594
603.829,29.18887,-3.48243,-0.36339,0.47573
604.429,29.20795,-3.48245,-0.38369,0.47552
605.029,29.22702,-3.48312,-0.40173,0.47531
605.629,29.24608,-3.48376,-0.38861,0.47509
606.229,29.2652,-3.48374,-0.40566,0.47488
606.829,29.2843,-3.48367,-0.40964,0.47467
607.429,29.3034,-3.48497,-0.4026,0.47446
608.029,29.3224,-3.48518,-0.41324,0.47425
608.629,29.3415,-3.48528,-0.42138,0.47404
609.229,29.3605,-3.48649,-0.4204,0.47383
609.829,29.3796,-3.48649,-0.42983,0.47362
610.429,29.3987,-3.48649,-0.43388,0.47341
611.029,29.4178,-3.48667,-0.43896,0.4732
611.629,29.4369,-3.48787,-0.43337,0.47299
612.229,29.456,-3.48776,-0.4383,0.47278
612.829,29.47505,-3.48887,-0.45374,0.47257
613.429,29.49414,-3.48912,-0.46912,0.47236
614.029,29.51325,-3.48926,-0.47144,0.47215
614.629,29.53234,-3.49061,-0.47464,0.47194
615.229,29.55149,-3.49055,-0.47073,0.47173
615.829,29.57067,-3.49094,-0.4646,0.47152
616.429,29.5898,-3.49123,-0.47769,0.47131
617.029,29.60895,-3.49054,-0.47368,0.4711
617.629,29.6281,-3.49055,-0.4805,0.47089
618.229,29.6473,-3.49055,-0.49256,0.47069
618.829,29.6665,-3.49055,-0.49155,0.47048
619.429,29.68565,-3.49055,-0.49304,0.47027
620.029,29.7048,-3.49055,-0.49239,0.47006
620.629,29.72405,-3.49055,-0.49783,0.46985
621.229,29.74325,-3.49057,-0.49663,0.46964
621.829,29.76243,-3.49074,-0.50796,0.46943
622.429,29.78162,-3.49186,-0.50929,0.46922
623.029,29.80082,-3.49185,-0.51408,0.46902
623.629,29.82003,-3.49252,-0.51262,0.46881
624.229,29.8392,-3.49319,-0.5084,0.4686
624.829,29.85841,-3.49318,-0.50841,0.46839
625.429,29.8776,-3.49318,-0.51494,0.46818
626.029,29.8968,-3.49318,-0.50059,0.46798
626.629,29.91599,-3.49318,-0.51668,0.46777
627.229,29.9352,-3.49318,-0.51703,0.46756
627.829,29.95444,-3.49318,-0.53915,0.46735
628.429,29.97366,-3.4932,-0.53154,0.46714
629.029,29.99284,-3.4934,-0.52546,0.46694
629.629,30.0121,-3.49442,-0.53643,0.46673
630.229,30.03132,-3.49315,-0.53127,0.46652
630.829,30.0506,-3.49318,-0.53876,0.46631
631.429,30.06983,-3.49318,-0.53858,0.46611
632.029,30.0891,-3.49377,-0.56065,0.4659
632.629,30.10841,-3.49417,-0.56277,0.46569
633.229,30.12769,-3.49416,-0.57423,0.46549
633.829,30.14695,-3.49538,-0.57657,0.46528
634.429,30.16623,-3.49558,-0.57195,0.46507
635.029,30.18548,-3.49696,-0.58315,0.46487
635.629,30.2048,-3.49702,-0.59605,0.46466
636.229,30.2241,-3.49722,-0.60385,0.46445
636.829,30.24332,-3.49628,-0.60158,0.46425
637.429,30.26261,-3.49761,-0.60278,0.46404
638.029,30.2819,-3.49839,-0.60604,0.46384
638.629,30.3011,-3.49887,-0.61417,0.46363
639.229,30.32047,-3.49888,-0.61608,0.46342
639.829,30.3398,-3.49888,-0.61117,0.46322
640.429,30.35913,-3.49884,-0.62216,0.46301
641.029,30.37838,-3.50019,-0.62428,0.46281
641.629,30.39775,-3.5002,-0.63343,0.4626
642.229,30.41705,-3.5002,-0.65052,0.4624
642.829,30.43635,-3.5002,-0.64752,0.46219
643.429,30.45569,-3.5002,-0.65172,0.46199
644.029,30.4751,-3.5002,-0.65823,0.46178
644.629,30.49437,-3.5002,-0.67967,0.46158
645.229,30.5137,-3.5002,-0.67669,0.46137
645.829,30.53306,-3.50021,-0.67487,0.46117
646.429,30.55237,-3.5003,-0.66863,0.46096
647.029,30.57167,-3.50107,-0.6767,0.46076
647.629,30.59098,-3.50021,-0.68168,0.46055
648.229,30.6104,-3.5002,-0.68631,0.46035
648.829,30.6297,-3.50161,-0.69142,0.46014
649.429,30.64909,-3.50163,-0.70692,0.45994
650.029,30.6685,-3.50163,-0.70835,0.45974
650.629,30.6879,-3.50278,-0.69919,0.45953
651.229,30.7073,-3.50293,-0.69947,0.45933
651.829,30.7267,-3.50295,-0.6985,0.45912
652.429,30.74612,-3.50304,-0.70688,0.45892
653.029,30.76551,-3.50167,-0.7103,0.45872
653.629,30.78489,-3.50247,-0.72414,0.45851
654.229,30.8043,-3.50291,-0.72114,0.45831
654.829,30.8236,-3.50295,-0.72335,0.45811
655.429,30.843,-3.50308,-0.72448,0.4579
656.029,30.8624,-3.50431,-0.73608,0.4577
656.629,30.8819,-3.50426,-0.75485,0.4575
657.229,30.9014,-3.50426,-0.72492,0.4573
657.829,30.92085,-3.50425,-0.7386,0.45709
658.429,30.94027,-3.50527,-0.75663,0.45689
659.029,30.95965,-3.50558,-0.75365,0.45669
659.629,30.97911,-3.50461,-0.76146,0.45649
660.229,30.99857,-3.50424,-0.76594,0.45628
660.829,31.01802,-3.50425,-0.76402,0.45608
661.429,31.03743,-3.50427,-0.77228,0.45588
662.029,31.05687,-3.50493,-0.77457,0.45568
662.629,31.07627,-3.5056,-0.77215,0.45548
663.229,31.09553,-3.50609,-0.77933,0.45527
663.829,31.1148,-3.50689,-0.76925,0.45507
664.429,31.1341,-3.50681,-0.77455,0.45487
665.029,31.15336,-3.50809,-0.76661,0.45467
665.629,31.1728,-3.50821,-0.76803,0.45447
666.229,31.1924,-3.50821,-0.7784,0.45427
666.829,31.2121,-3.50821,-0.78202,0.45407
667.429,31.2317,-3.5082,-0.80741,0.45387
668.029,31.2514,-3.50861,-0.81474,0.45367
668.629,31.2709,-3.50851,-0.82158,0.45346
669.229,31.29038,-3.50853,-0.83316,0.45326
669.829,31.30987,-3.50853,-0.84027,0.45306
670.429,31.32935,-3.50853,-0.83521,0.45286
671.029,31.3487,-3.50853,-0.84539,0.45266
671.629,31.36818,-3.50853,-0.85504,0.45246
672.229,31.38764,-3.50848,-0.8635,0.45226
672.829,31.40713,-3.50972,-0.85548,0.45206
673.429,31.4266,-3.50979,-0.87835,0.45186
674.029,31.4463,-3.51099,-0.89531,0.45166
674.629,31.46578,-3.51113,-0.87381,0.45146
675.229,31.4854,-3.51066,-0.86448,0.45126
675.829,31.50498,-3.50984,-0.84984,0.45107
676.429,31.5246,-3.50979,-0.86358,0.45087
677.029,31.5442,-3.50843,-0.86734,0.45067
677.629,31.56376,-3.50852,-0.86614,0.45047
678.229,31.58332,-3.50853,-0.87068,0.45027
678.829,31.6028,-3.5085,-0.87055,0.45007
679.429,31.62237,-3.50938,-0.88869,0.44987
680.029,31.64194,-3.51035,-0.90042,0.44967
680.629,31.6615,-3.51161,-0.9206,0.44948
681.229,31.68102,-3.51247,-0.93583,0.44928
681.829,31.70058,-3.51248,-0.93542,0.44908
682.429,31.72014,-3.51248,-0.91443,0.44888
683.029,31.73975,-3.51248,-0.91838,0.44868
683.629,31.75938,-3.51246,-0.91327,0.44849
684.229,31.779,-3.51376,-0.9189,0.44829
684.829,31.7986,-3.5138,-0.91317,0.44809
685.429,31.81823,-3.51252,-0.88836,0.44789
686.029,31.8377,-3.51238,-0.88969,0.4477
686.629,31.85732,-3.51237,-0.9032,0.4475
687.229,31.8769,-3.51237,-0.8978,0.4473
687.829,31.8966,-3.51238,-0.90867,0.4471
688.429,31.9162,-3.51272,-0.91479,0.44691
689.029,31.93585,-3.51373,-0.92556,0.44671
689.629,31.9555,-3.51376,-0.95927,0.44651
690.229,31.97513,-3.51521,-0.96467,0.44632
690.829,31.9947,-3.51512,-0.97969,0.44612
691.429,32.0144,-3.51511,-0.97176,0.44593
692.029,32.03398,-3.51511,-0.98518,0.44573
692.629,32.05365,-3.51511,-0.99287,0.44553
693.229,32.07329,-3.51511,-1.01363,0.44534
693.829,32.0929,-3.51511,-1.02055,0.44514
694.429,32.11253,-3.51508,-1.02116,0.44495
695.029,32.13219,-3.51595,-1.03103,0.44475
695.629,32.15177,-3.51644,-1.02715,0.44456
696.229,32.1714,-3.51564,-1.0219,0.44436
696.829,32.19112,-3.51501,-1.02604,0.44416
697.429,32.21078,-3.515,-1.03159,0.44397
698.029,32.23036,-3.515,-1.04558,0.44377
698.629,32.2498,-3.515,-1.05608,0.44358
699.229,32.26954,-3.515,-1.06119,0.44339
699.829,32.28914,-3.51496,-1.06026,0.44319
700.429,32.3088,-3.51631,-1.05924,0.443
701.029,32.32864,-3.51632,-1.06908,0.4428
701.629,32.34845,-3.51632,-1.09124,0.44261
702.229,32.3681,-3.51633,-1.08456,0.44241
702.829,32.38783,-3.5166,-1.08659,0.44222
703.429,32.40755,-3.51578,-1.09553,0.44203
704.029,32.42719,-3.51567,-1.1041,0.44183
704.629,32.4468,-3.51566,-1.11032,0.44164
705.229,32.46653,-3.51569,-1.10302,0.44145
705.829,32.48617,-3.51626,-1.11152,0.44125
706.429,32.50585,-3.517,-1.10519,0.44106
707.029,32.52554,-3.51728,-1.10901,0.44087
707.629,32.54524,-3.51834,-1.11808,0.44067
708.229,32.56488,-3.51829,-1.11434,0.44048
708.829,32.58455,-3.51829,-1.11529,0.44029
709.429,32.60425,-3.51829,-1.11054,0.4401
710.029,32.62395,-3.51829,-1.1194,0.4399
710.629,32.64362,-3.5183,-1.13053,0.43971
711.229,32.6633,-3.51849,-1.14833,0.43952
711.829,32.683,-3.51896,-1.16956,0.43933
712.429,32.70265,-3.51807,-1.18395,0.43913
713.029,32.72231,-3.51765,-1.19977,0.43894
713.629,32.74204,-3.51764,-1.23186,0.43875
714.229,32.76177,-3.51762,-1.25001,0.43856
714.829,32.7815,-3.51835,-1.27203,0.43837
715.429,32.80127,-3.5183,-1.35805,0.43818
716.029,32.8211,-3.5183,-1.33461,0.43799
716.629,32.8407,-3.5183,-1.36835,0.4378
717.229,32.8605,-3.5183,-1.35668,0.4376
717.829,32.88022,-3.5183,-1.38324,0.43741
718.429,32.8999,-3.51928,-1.37331,0.43722
719.029,32.91957,-3.51962,-1.3668,0.43703
719.629,32.93938,-3.51962,-1.36884,0.43684
720.229,32.9591,-3.51958,-1.39968,0.43665
720.829,32.97886,-3.52092,-1.36413,0.43646
721.429,32.9986,-3.52092,-1.34992,0.43627
722.029,33.0183,-3.52041,-1.36291,0.43608
722.629,33.03804,-3.5196,-1.38013,0.43589
723.229,33.0578,-3.51962,-1.37208,0.4357
723.829,33.07756,-3.51962,-1.4009,0.43551
724.429,33.09738,-3.51977,-1.41665,0.43532
725.029,33.11715,-3.52099,-1.40967,0.43513
725.629,33.13698,-3.52093,-1.41766,0.43495
726.229,33.15675,-3.52093,-1.39734,0.43476
726.829,33.17654,-3.52093,-1.40103,0.43457
727.429,33.19635,-3.52093,-1.3957,0.43438
728.029,33.21611,-3.52093,-1.40075,0.43419
728.629,33.23592,-3.52092,-1.39468,0.434
729.229,33.25569,-3.52061,-1.38236,0.43381
729.829,33.27543,-3.51938,-1.37859,0.43363
730.429,33.29555,-3.51927,-1.37197,0.43344
731.029,33.31582,-3.51887,-1.39487,0.43325
731.529,33.33233,-3.51863,-1.39325,0.43309