File: 01_Data/Black_PMMA/STA/30K_min/Black_PMMA_STA_N2_30KData_220215_R3.csv
##Temp./Â°C,Time/min,DSC(subtr.2)/(mW/mg),Mass(subtr.2)/%,Sensit./(uV/mW)
49.003,10.01,-0.00372567,99.51139,1.08872
49.503,10.4968,0.02792743,99.48816,1.08829
50.003,10.60904,0.058216,99.46879,1.08787
50.503,10.6881,0.08467007,99.45313,1.08745
51.003,10.75227,0.10982,99.50402,1.08703
51.503,10.80693,0.1348,99.4953,1.08661
52.003,10.85518,0.1577,99.4671,1.08619
52.503,10.89983,0.17729,99.50843,1.08577
53.003,10.94139,0.19755,99.4969,1.08535
53.503,10.9795,0.21688,99.48652,1.08493
54.003,11.0153,0.23475,99.48693,1.08452
54.503,11.04946,0.25147,99.47794,1.0841
55.003,11.08206,0.26804,99.5112,1.08368
55.503,11.11352,0.28436,99.54104,1.08326
56.003,11.14403,0.30144,99.51775,1.08285
56.503,11.17352,0.31493,99.50525,1.08243
57.003,11.20185,0.33082,99.51822,1.08202
57.503,11.2292,0.3439,99.49834,1.0816
58.003,11.25595,0.35789,99.51642,1.08119
58.503,11.28214,0.3715,99.50228,1.08077
59.003,11.3073,0.38253,99.48945,1.08036
59.503,11.33233,0.39452,99.4901,1.07994
60.003,11.35667,0.40785,99.50658,1.07953
60.503,11.38065,0.41877,99.52171,1.07912
61.003,11.4046,0.42923,99.49569,1.07871
61.503,11.42779,0.44065,99.47417,1.0783
62.003,11.45081,0.45103,99.46124,1.07788
62.503,11.47335,0.46206,99.43959,1.07747
63.003,11.49555,0.47211,99.45665,1.07706
63.503,11.5174,0.48023,99.49977,1.07665
64.003,11.5391,0.49039,99.51809,1.07624
64.503,11.56057,0.50014,99.51394,1.07583
65.003,11.58196,0.50936,99.5026,1.07543
65.503,11.6031,0.51754,99.49082,1.07502
66.003,11.624,0.52641,99.4876,1.07461
66.503,11.6448,0.53608,99.4919,1.0742
67.003,11.66536,0.54302,99.48552,1.0738
67.503,11.68567,0.55317,99.46905,1.07339
68.003,11.70573,0.55918,99.47542,1.07298
68.503,11.7257,0.56803,99.4611,1.07258
69.003,11.74547,0.57646,99.46064,1.07217
69.503,11.76522,0.58175,99.48343,1.07177
70.003,11.78486,0.58921,99.49081,1.07136
70.503,11.80445,0.5974,99.49726,1.07096
71.003,11.82385,0.60421,99.49975,1.07056
71.503,11.8432,0.61264,99.50055,1.07015
72.003,11.86235,0.61773,99.48907,1.06975
72.503,11.88155,0.62521,99.4969,1.06935
73.003,11.90056,0.6324,99.50346,1.06895
73.503,11.91958,0.63711,99.51864,1.06855
74.003,11.93855,0.64549,99.50313,1.06814
74.503,11.95735,0.65097,99.523,1.06774
75.003,11.97612,0.65785,99.5269,1.06734
75.503,11.99478,0.66387,99.5282,1.06694
76.003,12.0133,0.6715,99.51239,1.06655
76.503,12.03173,0.67684,99.53262,1.06615
77.003,12.0501,0.68365,99.5058,1.06575
77.503,12.06823,0.68773,99.49655,1.06535
78.003,12.08651,0.69615,99.4969,1.06495
78.503,12.10479,0.70061,99.50575,1.06456
79.003,12.12304,0.70553,99.5237,1.06416
79.503,12.1412,0.71383,99.51018,1.06376
80.003,12.1595,0.71788,99.53102,1.06337
80.503,12.17751,0.72463,99.50572,1.06297
81.003,12.19548,0.72895,99.51438,1.06258
81.503,12.2134,0.73427,99.50945,1.06218
82.003,12.23136,0.74064,99.503,1.06179
82.503,12.2492,0.74574,99.48814,1.06139
83.003,12.26707,0.75153,99.46226,1.061
83.503,12.28486,0.75529,99.49534,1.06061
84.003,12.3026,0.761,99.47331,1.06022
84.503,12.3203,0.76527,99.5091,1.05982
85.003,12.33794,0.7665,99.50309,1.05943
85.503,12.35555,0.77069,99.49762,1.05904
86.003,12.37312,0.77421,99.5077,1.05865
86.503,12.39059,0.77475,99.5085,1.05826
87.003,12.40805,0.77678,99.51034,1.05787
87.503,12.4255,0.77863,99.49784,1.05748
88.003,12.4428,0.77917,99.50452,1.05709
88.503,12.46013,0.77919,99.4722,1.0567
89.003,12.47756,0.77967,99.50143,1.05632
89.503,12.49474,0.78179,99.4841,1.05593
90.003,12.51202,0.78302,99.47235,1.05554
90.503,12.52937,0.78278,99.48782,1.05516
91.003,12.5467,0.78271,99.48029,1.05477
91.503,12.56382,0.78212,99.47188,1.05438
92.003,12.58111,0.78223,99.49045,1.054
92.503,12.5983,0.78236,99.47453,1.05361
93.003,12.61547,0.78376,99.4734,1.05323
93.503,12.63263,0.7844,99.4777,1.05284
94.003,12.64982,0.78473,99.5058,1.05246
94.503,12.6669,0.78369,99.5023,1.05208
95.003,12.68388,0.7853,99.46893,1.05169
95.503,12.70095,0.78592,99.491,1.05131
96.003,12.71797,0.79004,99.47237,1.05093
96.503,12.735,0.78858,99.46802,1.05055
97.003,12.75198,0.79309,99.4676,1.05017
97.503,12.76907,0.7928,99.45865,1.04978
98.003,12.78603,0.79314,99.46777,1.0494
98.503,12.80273,0.79523,99.46695,1.04902
99.003,12.81968,0.79805,99.46679,1.04864
99.503,12.83664,0.79997,99.46377,1.04827
100.003,12.8535,0.80273,99.48971,1.04789
100.503,12.87047,0.80466,99.46678,1.04751
101.003,12.88766,0.80754,99.46687,1.04713
101.503,12.90457,0.80714,99.46698,1.04675
102.003,12.9215,0.80973,99.46681,1.04638
102.503,12.9385,0.81158,99.46683,1.046
103.003,12.95538,0.81614,99.46672,1.04562
103.503,12.97219,0.81715,99.46611,1.04525
104.003,12.98907,0.81624,99.48219,1.04487
104.503,13.006,0.82146,99.47289,1.0445
105.003,13.0228,0.82399,99.46732,1.04412
105.503,13.0396,0.82408,99.46675,1.04375
106.003,13.05659,0.82629,99.4571,1.04337
106.503,13.07343,0.83037,99.43121,1.043
107.003,13.09024,0.83366,99.45063,1.04263
107.503,13.10707,0.83667,99.46758,1.04226
108.003,13.12395,0.8385,99.46593,1.04188
108.503,13.14075,0.84258,99.43255,1.04151
109.003,13.1575,0.84318,99.44553,1.04114
109.503,13.1743,0.84613,99.46786,1.04077
110.003,13.1912,0.84943,99.4658,1.0404
110.503,13.20798,0.85276,99.43548,1.04003
111.003,13.22476,0.85618,99.4338,1.03966
111.503,13.2416,0.85814,99.4337,1.03929
112.003,13.2584,0.86074,99.46399,1.03892
112.503,13.2753,0.86443,99.4663,1.03855
113.003,13.29215,0.86814,99.46688,1.03818
113.503,13.30895,0.87275,99.4605,1.03782
114.003,13.32564,0.87524,99.43162,1.03745
114.503,13.3424,0.87534,99.43352,1.03708
115.003,13.35914,0.87986,99.4337,1.03672
115.503,13.3758,0.88704,99.4337,1.03635
116.003,13.3925,0.8876,99.43423,1.03599
116.503,13.4093,0.89017,99.45899,1.03562
117.003,13.4259,0.89571,99.43119,1.03526
117.503,13.4427,0.89995,99.43346,1.03489
118.003,13.45936,0.90443,99.4337,1.03453
118.503,13.476,0.90865,99.43365,1.03416
119.003,13.49264,0.91147,99.43349,1.0338
119.503,13.50932,0.91614,99.43414,1.03344
120.003,13.5259,0.92029,99.40518,1.03308
120.503,13.5426,0.92374,99.41515,1.03271
121.003,13.5593,0.92721,99.4337,1.03235
121.503,13.57591,0.93652,99.43356,1.03199
122.003,13.5925,0.94242,99.43344,1.03163
122.503,13.60909,0.94767,99.43339,1.03127
123.003,13.62566,0.95136,99.43122,1.03091
123.503,13.64223,0.9574,99.39817,1.03055
124.003,13.6588,0.96394,99.4004,1.03019
124.503,13.67534,0.97044,99.4003,1.02984
125.003,13.6919,0.97653,99.40026,1.02948
125.503,13.7085,0.98168,99.4002,1.02912
126.003,13.72499,0.98921,99.39959,1.02876
126.503,13.7415,0.99575,99.41,1.0284
127.003,13.758,0.99972,99.4239,1.02805
127.503,13.77444,1.00789,99.41866,1.02769
128.003,13.7909,1.01402,99.40007,1.02734
128.503,13.8073,1.01724,99.40032,1.02698
129.003,13.8237,1.02615,99.40025,1.02663
129.503,13.8402,1.02994,99.40025,1.02627
130.003,13.85656,1.03472,99.40091,1.02592
130.503,13.87301,1.04291,99.4065,1.02556
131.003,13.88941,1.04606,99.43336,1.02521
131.503,13.90581,1.05,99.43339,1.02486
132.003,13.9222,1.05575,99.43341,1.0245
132.503,13.93852,1.06066,99.43343,1.02415
133.003,13.9549,1.06528,99.43359,1.0238
133.503,13.9712,1.07039,99.42229,1.02345
134.003,13.98758,1.07479,99.39839,1.0231
134.503,14.00385,1.08044,99.39379,1.02275
135.003,14.0202,1.08442,99.38359,1.0224
135.503,14.03646,1.0887,99.38346,1.02205
136.003,14.05272,1.09182,99.38354,1.0217
136.503,14.06891,1.09805,99.38354,1.02135
137.003,14.08513,1.10067,99.38354,1.021
137.503,14.1014,1.10546,99.38354,1.02065
138.003,14.1176,1.10778,99.38354,1.02031
138.503,14.1338,1.11267,99.38354,1.01996
139.003,14.15,1.11652,99.38354,1.01961
139.503,14.1662,1.1209,99.38372,1.01926
140.003,14.1823,1.12517,99.38479,1.01892
140.503,14.19844,1.12774,99.3992,1.01857
141.003,14.21459,1.13053,99.39868,1.01823
141.503,14.23069,1.13295,99.408,1.01788
142.003,14.24676,1.13514,99.3847,1.01754
142.503,14.26288,1.13848,99.38364,1.01719
143.003,14.279,1.14214,99.38354,1.01685
143.503,14.29509,1.14433,99.38354,1.01651
144.003,14.3111,1.14666,99.38354,1.01616
144.503,14.32722,1.15074,99.38354,1.01582
145.003,14.3432,1.15255,99.38354,1.01548
145.503,14.35924,1.15646,99.38356,1.01514
146.003,14.3753,1.15829,99.38394,1.01479
146.503,14.39129,1.16298,99.37301,1.01445
147.003,14.40731,1.16354,99.35764,1.01411
147.503,14.42332,1.16797,99.35837,1.01377
148.003,14.43931,1.17164,99.35849,1.01343
148.503,14.45527,1.17314,99.35866,1.01309
149.003,14.4712,1.17539,99.34746,1.01275
149.503,14.48709,1.17815,99.32396,1.01241
150.003,14.50301,1.18162,99.3257,1.01207
150.503,14.519,1.18128,99.31759,1.01174
151.003,14.5349,1.18317,99.31719,1.0114
151.503,14.55081,1.18708,99.31697,1.01106
152.003,14.5667,1.1903,99.31696,1.01072
152.503,14.58264,1.19073,99.31696,1.01039
153.003,14.5985,1.19532,99.31696,1.01005
153.503,14.61442,1.19602,99.31696,1.00972
154.003,14.6303,1.19989,99.31696,1.00938
154.503,14.6462,1.20184,99.31692,1.00905
155.003,14.6621,1.20448,99.3167,1.00871
155.503,14.67801,1.20573,99.31891,1.00838
156.003,14.6939,1.21046,99.28634,1.00804
156.503,14.7098,1.21134,99.2838,1.00771
157.003,14.7256,1.2142,99.2864,1.00738
157.503,14.7415,1.21732,99.25686,1.00704
158.003,14.7573,1.21711,99.26007,1.00671
158.503,14.77315,1.22162,99.25038,1.00638
159.003,14.789,1.22364,99.23591,1.00605
159.503,14.8047,1.22619,99.2157,1.00571
160.003,14.8206,1.23094,99.21693,1.00538
160.503,14.83644,1.23257,99.21698,1.00505
161.003,14.8523,1.23497,99.21696,1.00472
161.503,14.8681,1.23846,99.21696,1.00439
162.003,14.88393,1.24177,99.21696,1.00406
162.503,14.89971,1.24514,99.21696,1.00373
163.003,14.9155,1.24791,99.21696,1.00341
163.503,14.9313,1.25157,99.21695,1.00308
164.003,14.94701,1.25411,99.2171,1.00275
164.503,14.96277,1.25626,99.2183,1.00242
165.003,14.97856,1.26025,99.19527,1.00209
165.503,14.99433,1.26408,99.18337,1.00177
166.003,15.0101,1.26388,99.1835,1.00144
166.503,15.0258,1.27083,99.18355,1.00111
167.003,15.04145,1.27425,99.1836,1.00079
167.503,15.0572,1.27816,99.1832,1.00046
168.003,15.0729,1.28166,99.18034,1.00014
168.503,15.08864,1.28455,99.15168,0.99981
169.003,15.10435,1.28701,99.15074,0.99949
169.503,15.12015,1.29255,99.15039,0.99916
170.003,15.1359,1.29821,99.14972,0.99884
170.503,15.15155,1.30082,99.1476,0.99852
171.003,15.16724,1.30651,99.11751,0.99819
171.503,15.1829,1.31121,99.11701,0.99787
172.003,15.1986,1.31462,99.117,0.99755
172.503,15.21432,1.321,99.11694,0.99723
173.003,15.23001,1.32466,99.117,0.99691
173.503,15.24562,1.33017,99.1183,0.99658
174.003,15.2612,1.33532,99.0977,0.99626
174.503,15.2769,1.34095,99.08298,0.99594
175.003,15.29246,1.34525,99.0837,0.99562
175.503,15.3079,1.35179,99.08391,0.9953
176.003,15.32356,1.35574,99.08508,0.99498
176.503,15.3392,1.36201,99.0616,0.99466
177.003,15.35485,1.36903,99.01855,0.99435
177.503,15.3704,1.37343,99.01697,0.99403
178.003,15.386,1.379,99.01714,0.99371
178.503,15.4017,1.38479,99.00447,0.99339
179.003,15.4173,1.39023,98.98232,0.99307
179.503,15.43286,1.39517,98.9841,0.99276
180.003,15.4484,1.4023,98.9703,0.99244
180.503,15.46389,1.40855,98.94924,0.99212
181.003,15.47949,1.41463,98.95023,0.99181
181.503,15.49501,1.4192,98.9387,0.99149
182.003,15.51051,1.424,98.9169,0.99118
182.503,15.526,1.43001,98.91636,0.99086
183.003,15.5416,1.43838,98.91417,0.99055
183.503,15.5571,1.4419,98.88207,0.99023
184.003,15.57257,1.44635,98.88096,0.98992
184.503,15.5881,1.45167,98.87603,0.98961
185.003,15.60353,1.45852,98.84493,0.98929
185.503,15.61902,1.46733,98.84826,0.98898
186.003,15.6345,1.47019,98.81904,0.98867
186.503,15.64996,1.47876,98.8086,0.98836
187.003,15.66544,1.48191,98.7734,0.98804
187.503,15.68095,1.48839,98.7536,0.98773
188.003,15.69641,1.49197,98.72436,0.98742
188.503,15.7118,1.49919,98.70023,0.98711
189.003,15.7272,1.50457,98.68098,0.9868
189.503,15.74267,1.50902,98.65728,0.98649
190.003,15.75808,1.51354,98.64142,0.98618
190.503,15.7735,1.51679,98.6236,0.98587
191.003,15.7889,1.52478,98.5775,0.98556
191.503,15.80435,1.52613,98.54446,0.98525
192.003,15.81976,1.53092,98.52839,0.98494
192.503,15.83518,1.536,98.49823,0.98464
193.003,15.8506,1.53908,98.48953,0.98433
193.503,15.8659,1.5443,98.4615,0.98402
194.003,15.88127,1.54579,98.45007,0.98371
194.503,15.89664,1.55048,98.4172,0.98341
195.003,15.91199,1.55158,98.39785,0.9831
195.503,15.9273,1.55696,98.3724,0.98279
196.003,15.9426,1.55912,98.3451,0.98249
196.503,15.958,1.56261,98.33014,0.98218
197.003,15.9733,1.56331,98.28797,0.98188
197.503,15.9886,1.56666,98.27365,0.98157
198.003,16.0039,1.56916,98.27808,0.98127
198.503,16.01921,1.57061,98.24744,0.98096
199.003,16.03452,1.57185,98.2329,0.98066
199.503,16.0499,1.57578,98.20361,0.98035
200.003,16.0653,1.57592,98.1925,0.98005
200.503,16.08063,1.57656,98.16983,0.97975
201.003,16.09592,1.57646,98.11317,0.97945
201.503,16.11126,1.57702,98.06867,0.97914
202.003,16.1266,1.57524,98.04926,0.97884
202.503,16.14186,1.57592,98.02114,0.97854
203.003,16.15713,1.57652,97.98654,0.97824
203.503,16.1724,1.5767,97.965,0.97794
204.003,16.18777,1.57683,97.9361,0.97764
204.503,16.20309,1.57377,97.91025,0.97733
205.003,16.21837,1.57642,97.8926,0.97703
205.503,16.23375,1.57367,97.8613,0.97673
206.003,16.24905,1.57442,97.84914,0.97644
206.503,16.26438,1.57087,97.80881,0.97614
207.003,16.2797,1.57032,97.80671,0.97584
207.503,16.2951,1.56998,97.77255,0.97554
208.003,16.3104,1.56848,97.76975,0.97524
208.503,16.32568,1.56701,97.73347,0.97494
209.003,16.34098,1.56466,97.7203,0.97464
209.503,16.35622,1.56229,97.6928,0.97435
210.003,16.3715,1.56464,97.66141,0.97405
210.503,16.3867,1.56128,97.63975,0.97375
211.003,16.402,1.56193,97.6057,0.97346
211.503,16.4173,1.55944,97.5848,0.97316
212.003,16.43264,1.5575,97.56596,0.97286
212.503,16.448,1.55728,97.5427,0.97257
213.003,16.46327,1.55525,97.52548,0.97227
213.503,16.47857,1.55662,97.48527,0.97198
214.003,16.4938,1.55585,97.4815,0.97168
214.503,16.5091,1.55647,97.44959,0.97139
215.003,16.52432,1.55397,97.44966,0.97109
215.503,16.53957,1.55469,97.43248,0.9708
216.003,16.55486,1.55271,97.41028,0.97051
216.503,16.57013,1.55441,97.37838,0.97021
217.003,16.58545,1.5558,97.35777,0.96992
217.503,16.60076,1.55554,97.3226,0.96963
218.003,16.61601,1.55772,97.28801,0.96934
218.503,16.63131,1.55653,97.27109,0.96904
219.003,16.64648,1.5563,97.23302,0.96875
219.503,16.6617,1.55793,97.2201,0.96846
220.003,16.67697,1.55936,97.1782,0.96817
220.503,16.69216,1.56318,97.17164,0.96788
221.003,16.7074,1.56277,97.138,0.96759
221.503,16.72266,1.56465,97.11715,0.9673
222.003,16.73798,1.56662,97.0893,0.96701
222.503,16.75325,1.56803,97.0645,0.96672
223.003,16.7685,1.5706,97.0504,0.96643
223.503,16.78379,1.57175,97.0314,0.96614
224.003,16.79905,1.5717,97.0151,0.96585
224.503,16.81436,1.57598,96.98181,0.96556
225.003,16.8296,1.57534,96.95211,0.96527
225.503,16.84488,1.57919,96.89431,0.96499
226.003,16.8601,1.57972,96.89295,0.9647
226.503,16.8753,1.58114,96.88032,0.96441
227.003,16.89055,1.58488,96.85954,0.96412
227.503,16.9057,1.58671,96.85245,0.96384
228.003,16.92098,1.58788,96.8171,0.96355
228.503,16.93626,1.58985,96.78336,0.96326
229.003,16.9515,1.58858,96.76807,0.96298
229.503,16.9668,1.58966,96.73006,0.96269
230.003,16.9821,1.58744,96.72916,0.96241
230.503,16.99735,1.5909,96.72917,0.96212
231.003,17.01259,1.5939,96.72966,0.96183
231.503,17.0277,1.59246,96.71808,0.96155
232.003,17.04293,1.5895,96.6857,0.96127
232.503,17.05818,1.59089,96.64324,0.96098
233.003,17.0733,1.58987,96.61613,0.9607
233.503,17.0885,1.5881,96.58795,0.96041
234.003,17.1037,1.58601,96.54852,0.96013
234.503,17.119,1.5864,96.53687,0.95985
235.003,17.1342,1.58265,96.50287,0.95956
235.503,17.14936,1.58307,96.5213,0.95928
236.003,17.16461,1.57781,96.48961,0.959
236.503,17.1798,1.57245,96.49308,0.95872
237.003,17.19502,1.5716,96.46336,0.95843
237.503,17.21024,1.56673,96.45398,0.95815
238.003,17.22539,1.56576,96.45509,0.95787
238.503,17.24061,1.55992,96.4359,0.95759
239.003,17.2558,1.55484,96.41937,0.95731
239.503,17.271,1.55172,96.4203,0.95703
240.003,17.28614,1.54568,96.3959,0.95675
240.503,17.30131,1.5428,96.38832,0.95647
241.003,17.31655,1.5397,96.37137,0.95619
241.503,17.33175,1.53618,96.35084,0.95591
242.003,17.34692,1.5331,96.34779,0.95563
242.503,17.3621,1.53001,96.31597,0.95535
243.003,17.37726,1.52512,96.31834,0.95507
243.503,17.39245,1.52301,96.3181,0.95479
244.003,17.40758,1.5194,96.3138,0.95452
244.503,17.42276,1.51547,96.28234,0.95424
245.003,17.43798,1.51214,96.2843,0.95396
245.503,17.45316,1.51008,96.27797,0.95368
246.003,17.46836,1.50646,96.2514,0.95341
246.503,17.4835,1.50639,96.2512,0.95313
247.003,17.4987,1.50298,96.25113,0.95285
247.503,17.51385,1.49873,96.2511,0.95257
248.003,17.52901,1.49734,96.25123,0.9523
248.503,17.54417,1.49748,96.23191,0.95202
249.003,17.55933,1.4945,96.2177,0.95175
249.503,17.5745,1.49364,96.218,0.95147
250.003,17.58963,1.49216,96.21784,0.9512
250.503,17.6048,1.49134,96.20699,0.95092
251.003,17.62,1.48888,96.18481,0.95065
251.503,17.63514,1.49023,96.18485,0.95037
252.003,17.65028,1.48913,96.18481,0.9501
252.503,17.66545,1.48773,96.1849,0.94982
253.003,17.68066,1.4869,96.18496,0.94955
253.503,17.69577,1.48852,96.17671,0.94927
254.003,17.7109,1.48606,96.1508,0.949
254.503,17.72605,1.48586,96.15167,0.94873
255.003,17.74118,1.48461,96.15141,0.94845
255.503,17.75631,1.48687,96.15138,0.94818
256.003,17.77143,1.48606,96.15138,0.94791
256.503,17.78661,1.48796,96.15156,0.94764
257.003,17.80172,1.48566,96.13891,0.94736
257.503,17.81689,1.48718,96.11644,0.94709
258.003,17.83204,1.48884,96.11783,0.94682
258.503,17.8472,1.48807,96.118,0.94655
259.003,17.86233,1.48794,96.11796,0.94628
259.503,17.8775,1.49026,96.11811,0.94601
260.003,17.8926,1.49036,96.10341,0.94574
260.503,17.9077,1.49025,96.08369,0.94547
261.003,17.92286,1.49016,96.0846,0.9452
261.503,17.938,1.49241,96.0848,0.94493
262.003,17.95315,1.49144,96.08481,0.94466
262.503,17.9683,1.49295,96.08481,0.94439
263.003,17.98346,1.49307,96.08481,0.94412
263.503,17.99861,1.49366,96.08479,0.94385
264.003,18.01373,1.49596,96.08455,0.94358
264.503,18.02885,1.49881,96.08553,0.94331
265.003,18.04393,1.49893,96.06003,0.94304
265.503,18.05903,1.49944,96.05116,0.94277
266.003,18.07418,1.50117,96.05126,0.9425
266.503,18.08929,1.5036,96.0515,0.94224
267.003,18.10439,1.50314,96.03154,0.94197
267.503,18.11948,1.50624,96.01801,0.9417
268.003,18.13462,1.50577,96.0181,0.94143
268.503,18.1497,1.50853,96.01823,0.94117
269.003,18.16481,1.51151,96.0184,0.9409
269.503,18.17997,1.51233,96.00994,0.94063
270.003,18.19513,1.51476,95.98232,0.94037
270.503,18.21026,1.51451,95.98464,0.9401
271.003,18.2254,1.51939,95.9757,0.93983
271.503,18.2405,1.51989,95.97641,0.93957
272.003,18.25564,1.52191,95.9778,0.9393
272.503,18.27075,1.52362,95.9582,0.93904
273.003,18.28585,1.5262,95.94196,0.93877
273.503,18.30101,1.52872,95.94298,0.93851
274.003,18.31612,1.53178,95.94324,0.93824
274.503,18.33127,1.53322,95.93176,0.93798
275.003,18.34637,1.53461,95.90812,0.93771
275.503,18.36148,1.53966,95.90978,0.93745
276.003,18.37659,1.53941,95.90955,0.93718
276.503,18.3917,1.54345,95.90819,0.93692
277.003,18.4068,1.54786,95.88016,0.93666
277.503,18.4219,1.54771,95.8767,0.93639
278.003,18.43702,1.55421,95.87637,0.93613
278.503,18.45212,1.55306,95.8762,0.93587
279.003,18.46721,1.55805,95.8466,0.9356
279.503,18.4823,1.56293,95.84095,0.93534
280.003,18.49744,1.56341,95.83641,0.93508
280.503,18.51256,1.56759,95.8056,0.93481
281.003,18.52769,1.57005,95.79475,0.93455
281.503,18.5428,1.57215,95.78177,0.93429
282.003,18.55796,1.57626,95.78153,0.93403
282.503,18.57307,1.58083,95.7756,0.93377
283.003,18.58822,1.58356,95.74896,0.93351
283.503,18.60333,1.58866,95.7497,0.93324
284.003,18.6185,1.59061,95.73467,0.93298
284.503,18.6336,1.59413,95.7201,0.93272
285.003,18.6487,1.60002,95.7217,0.93246
285.503,18.66379,1.60387,95.7077,0.9322
286.003,18.67886,1.6064,95.7012,0.93194
286.503,18.69398,1.60991,95.6648,0.93168
287.003,18.70906,1.61458,95.6696,0.93142
287.503,18.72418,1.61738,95.63593,0.93116
288.003,18.73934,1.62452,95.6325,0.9309
288.503,18.75446,1.62465,95.60399,0.93064
289.003,18.76963,1.63255,95.593,0.93038
289.503,18.7848,1.6377,95.58717,0.93012
290.003,18.79991,1.64344,95.55731,0.92986
290.503,18.81501,1.64764,95.5568,0.9296
291.003,18.8301,1.65374,95.5153,0.92934
291.503,18.84517,1.65649,95.4874,0.92909
292.003,18.86027,1.66283,95.446,0.92883
292.503,18.8753,1.66626,95.43975,0.92857
293.003,18.8904,1.67008,95.40683,0.92831
293.503,18.90561,1.67775,95.39273,0.92805
294.003,18.92077,1.68481,95.3682,0.92779
294.503,18.93593,1.68962,95.34204,0.92754
295.003,18.95105,1.69616,95.33154,0.92728
295.503,18.96619,1.70124,95.29466,0.92702
296.003,18.98131,1.71015,95.28687,0.92676
296.503,18.9964,1.71644,95.25116,0.92651
297.003,19.01148,1.72308,95.24316,0.92625
297.503,19.0266,1.73039,95.2051,0.92599
298.003,19.0417,1.73966,95.17753,0.92574
298.503,19.0568,1.74626,95.14129,0.92548
299.003,19.0719,1.75405,95.1065,0.92522
299.503,19.08699,1.76238,95.0671,0.92497
300.003,19.1021,1.76854,95.04477,0.92471
300.503,19.11719,1.77746,95.01058,0.92446
301.003,19.1323,1.78557,94.9974,0.9242
301.503,19.14744,1.79144,94.97344,0.92395
302.003,19.16254,1.80034,94.9504,0.92369
302.503,19.17774,1.80543,94.93127,0.92343
303.003,19.19286,1.81322,94.8845,0.92318
303.503,19.20805,1.81876,94.8445,0.92292
304.003,19.22319,1.82686,94.81205,0.92267
304.503,19.2383,1.83307,94.7713,0.92241
305.003,19.2535,1.84042,94.71961,0.92216
305.503,19.2686,1.84874,94.67831,0.92191
306.003,19.28378,1.85442,94.651,0.92165
306.503,19.29889,1.85858,94.61793,0.9214
307.003,19.31409,1.86546,94.57049,0.92114
307.503,19.3293,1.87106,94.52088,0.92089
308.003,19.34439,1.87768,94.49499,0.92064
308.503,19.35957,1.88607,94.46679,0.92038
309.003,19.37475,1.88895,94.423,0.92013
309.503,19.38989,1.89666,94.37722,0.91987
310.003,19.40504,1.90073,94.3445,0.91962
310.503,19.4202,1.90767,94.31241,0.91937
311.003,19.43536,1.91477,94.2572,0.91912
311.503,19.45054,1.91804,94.19706,0.91886
312.003,19.46569,1.92339,94.16508,0.91861
312.503,19.4809,1.93074,94.10773,0.91836
313.003,19.49606,1.93756,94.0564,0.9181
313.503,19.51129,1.94288,94.01866,0.91785
314.003,19.52645,1.94788,93.96769,0.9176
314.503,19.54157,1.95585,93.9255,0.91735
315.003,19.55675,1.96263,93.86729,0.9171
315.503,19.57188,1.96583,93.81012,0.91684
316.003,19.58703,1.97415,93.76101,0.91659
316.503,19.60218,1.9779,93.6866,0.91634
317.003,19.61736,1.98484,93.6426,0.91609
317.503,19.6326,1.98947,93.58095,0.91584
318.003,19.64779,1.9961,93.5173,0.91559
318.503,19.66301,2.00204,93.4812,0.91533
319.003,19.6782,2.00675,93.42951,0.91508
319.503,19.69339,2.0127,93.38468,0.91483
320.003,19.7086,2.02044,93.33621,0.91458
320.503,19.72374,2.02327,93.27683,0.91433
321.003,19.73893,2.03062,93.224,0.91408
321.503,19.7541,2.03823,93.14854,0.91383
322.003,19.76933,2.04422,93.10529,0.91358
322.503,19.78454,2.05078,93.04915,0.91333
323.003,19.79975,2.05898,92.9512,0.91308
323.503,19.81494,2.0649,92.8935,0.91283
324.003,19.83016,2.07432,92.82686,0.91258
324.503,19.84538,2.08297,92.76035,0.91233
325.003,19.86058,2.09277,92.7034,0.91208
325.503,19.87574,2.10291,92.6268,0.91183
326.003,19.89098,2.11178,92.56073,0.91158
326.503,19.9062,2.12207,92.4836,0.91133
327.003,19.92141,2.13281,92.4227,0.91108
327.503,19.9366,2.14271,92.36284,0.91083
328.003,19.9518,2.15752,92.28738,0.91058
328.503,19.96696,2.16937,92.23653,0.91033
329.003,19.98219,2.18321,92.15205,0.91008
329.503,19.99738,2.19805,92.05467,0.90983
330.003,20.01255,2.21236,91.99105,0.90958
330.503,20.02779,2.22724,91.89681,0.90934
331.003,20.043,2.24562,91.81994,0.90909
331.503,20.05827,2.26522,91.74028,0.90884
332.003,20.07349,2.2798,91.63908,0.90859
332.503,20.0887,2.29977,91.55651,0.90834
333.003,20.104,2.32135,91.46236,0.90809
333.503,20.1192,2.34447,91.3494,0.90784
334.003,20.1345,2.36415,91.27011,0.9076
334.503,20.14978,2.38496,91.16586,0.90735
335.003,20.165,2.40943,91.054,0.9071
335.503,20.18025,2.43292,90.96231,0.90685
336.003,20.19549,2.45929,90.84206,0.9066
336.503,20.21067,2.48615,90.73754,0.90636
337.003,20.22587,2.51359,90.61888,0.90611
337.503,20.24108,2.54289,90.46894,0.90586
338.003,20.25619,2.57077,90.35932,0.90561
338.503,20.27146,2.60376,90.22084,0.90537
339.003,20.2867,2.63466,90.08117,0.90512
339.503,20.30209,2.66909,89.95732,0.90487
340.003,20.3174,2.70261,89.80326,0.90462
340.503,20.33276,2.73681,89.6849,0.90438
341.003,20.3481,2.77241,89.54817,0.90413
341.503,20.3634,2.81382,89.3793,0.90388
342.003,20.37867,2.85174,89.23715,0.90363
342.503,20.39395,2.89083,89.05666,0.90339
343.003,20.40926,2.93036,88.90139,0.90314
343.503,20.42459,2.97341,88.75009,0.90289
344.003,20.43993,3.0163,88.5572,0.90265
344.503,20.45525,3.06065,88.40353,0.9024
345.003,20.47063,3.10682,88.21126,0.90215
345.503,20.48601,3.15514,88.00958,0.90191
346.003,20.50134,3.20167,87.83399,0.90166
346.503,20.5167,3.25333,87.61032,0.90141
347.003,20.53204,3.30669,87.42452,0.90117
347.503,20.54743,3.35747,87.19021,0.90092
348.003,20.56281,3.41058,86.89911,0.90067
348.503,20.5781,3.46877,86.69955,0.90043
349.003,20.5934,3.5238,86.44934,0.90018
349.503,20.60874,3.58177,86.21521,0.89994
350.003,20.62407,3.64165,85.9863,0.89969
350.503,20.63927,3.70178,85.6901,0.89944
351.003,20.65445,3.76418,85.46059,0.8992
351.503,20.66982,3.82593,85.18379,0.89895
352.003,20.6852,3.89065,84.8849,0.89871
352.503,20.70061,3.95749,84.6388,0.89846
353.003,20.71605,4.02603,84.32173,0.89821
353.503,20.7316,4.09611,84.04819,0.89797
354.003,20.7471,4.16889,83.7394,0.89772
354.503,20.7626,4.24108,83.3709,0.89748
355.003,20.7781,4.31418,83.07953,0.89723
355.503,20.79368,4.39009,82.708,0.89699
356.003,20.80924,4.46501,82.36723,0.89674
356.503,20.82483,4.54515,82.0299,0.89649
357.003,20.84046,4.62274,81.60902,0.89625
357.503,20.856,4.70414,81.28837,0.896
358.003,20.87152,4.78775,80.89848,0.89576
358.503,20.88707,4.87311,80.5327,0.89551
359.003,20.90257,4.9556,80.18632,0.89527
359.503,20.91808,5.03957,79.71636,0.89502
360.003,20.93356,5.12538,79.34214,0.89478
360.503,20.9491,5.21448,78.8982,0.89453
361.003,20.96463,5.30479,78.40334,0.89429
361.503,20.98017,5.39181,77.99961,0.89404
362.003,20.99577,5.4812,77.47357,0.89379
362.503,21.0114,5.57647,76.9991,0.89355
363.003,21.02702,5.66684,76.5162,0.8933
363.503,21.04261,5.76064,75.96159,0.89306
364.003,21.05825,5.85396,75.5349,0.89281
364.503,21.07384,5.94905,74.9906,0.89257
365.003,21.08935,6.04373,74.4903,0.89232
365.503,21.10493,6.13923,73.9846,0.89208
366.003,21.12051,6.23569,73.3422,0.89183
366.503,21.1361,6.33019,72.81341,0.89159
367.003,21.15169,6.42569,72.21195,0.89134
367.503,21.16731,6.52464,71.61708,0.8911
368.003,21.18298,6.61525,71.07507,0.89085
368.503,21.1986,6.71311,70.3784,0.89061
369.003,21.21428,6.80867,69.84433,0.89036
369.503,21.22991,6.90526,69.2144,0.89012
370.003,21.24559,6.99921,68.5249,0.88987
370.503,21.2612,7.09367,67.94462,0.88963
371.003,21.27676,7.19084,67.20913,0.88938
371.503,21.2924,7.2801,66.63461,0.88914
372.003,21.3079,7.37063,65.98316,0.88889
372.503,21.3235,7.46916,65.21316,0.88865
373.003,21.3391,7.55833,64.60047,0.8884
373.503,21.3548,7.64332,63.8203,0.88816
374.003,21.37049,7.72826,63.1464,0.88792
374.503,21.38617,7.80194,62.4431,0.88767
375.003,21.40192,7.87445,61.58818,0.88743
375.503,21.41761,7.94085,60.91228,0.88718
376.003,21.43328,8.00256,60.09946,0.88694
376.503,21.44903,8.06115,59.34176,0.88669
377.003,21.4646,8.117,58.6053,0.88645
377.503,21.48024,8.17153,57.69014,0.8862
378.003,21.49596,8.20751,56.9978,0.88596
378.503,21.51166,8.23291,56.1622,0.88571
379.003,21.52737,8.2709,55.3282,0.88547
379.503,21.54305,8.30757,54.58373,0.88522
380.003,21.55894,8.33816,53.63469,0.88498
380.503,21.5747,8.38858,52.9211,0.88473
381.003,21.59037,8.43809,52.07938,0.88449
381.503,21.60603,8.46784,51.2023,0.88424
382.003,21.62181,8.50133,50.44957,0.884
382.503,21.63765,8.54223,49.50625,0.88375
383.003,21.65331,8.57271,48.77818,0.88351
383.503,21.66905,8.58908,47.94222,0.88326
384.003,21.6848,8.61442,47.02326,0.88302
384.503,21.70048,8.61585,46.28147,0.88277
385.003,21.71612,8.61258,45.34162,0.88253
385.503,21.73179,8.59828,44.56857,0.88228
386.003,21.7476,8.57852,43.7211,0.88204
386.503,21.7633,8.54532,42.75739,0.88179
387.003,21.77903,8.5421,42.01512,0.88155
387.503,21.7948,8.51079,41.08951,0.8813
388.003,21.81042,8.48184,40.30941,0.88106
388.503,21.82607,8.4431,39.50652,0.88081
389.003,21.84171,8.41565,38.54867,0.88057
389.503,21.85735,8.37016,37.83522,0.88032
390.003,21.873,8.3309,36.97718,0.88008
390.503,21.88863,8.28478,36.15917,0.87983
391.003,21.9043,8.19603,35.39071,0.87959
391.503,21.9199,8.13313,34.43857,0.87934
392.003,21.9356,8.12518,33.7248,0.8791
392.503,21.95099,8.07768,32.8827,0.87885
393.003,21.96642,8.02095,32.05505,0.8786
393.503,21.98197,7.94756,31.3239,0.87836
394.003,21.99755,7.86795,30.43003,0.87811
394.503,22.01311,7.75154,29.7506,0.87787
395.003,22.0286,7.65488,28.9837,0.87762
395.503,22.04433,7.55316,28.12585,0.87738
396.003,22.06,7.46648,27.4482,0.87713
396.503,22.07558,7.39658,26.62225,0.87689
397.003,22.09111,7.30619,25.95404,0.87664
397.503,22.10666,7.21756,25.26228,0.87639
398.003,22.12219,7.13582,24.4583,0.87615
398.503,22.13767,7.06671,23.84959,0.8759
399.003,22.15312,7.06206,23.0694,0.87566
399.503,22.16858,7.00905,22.39787,0.87541
400.003,22.1841,6.90273,21.76559,0.87516
400.503,22.19955,6.8505,20.9905,0.87492
401.003,22.21503,6.73817,20.41545,0.87467
401.503,22.23051,6.64218,19.72823,0.87443
402.003,22.24604,6.53706,19.02124,0.87418
402.503,22.2615,6.43047,18.43479,0.87393
403.003,22.27694,6.32103,17.7153,0.87369
403.503,22.2924,6.20301,17.15641,0.87344
404.003,22.30783,6.05559,16.5479,0.8732
404.503,22.32333,5.93103,15.8574,0.87295
405.003,22.33877,5.78314,15.34291,0.8727
405.503,22.35416,5.65551,14.7187,0.87246
406.003,22.3696,5.509,14.1843,0.87221
406.503,22.38502,5.35921,13.6677,0.87196
407.003,22.40042,5.23392,13.05615,0.87172
407.503,22.4158,5.0767,12.64657,0.87147
408.003,22.43115,4.92427,12.13194,0.87122
408.503,22.44649,4.78148,11.61991,0.87098
409.003,22.46185,4.64267,11.19617,0.87073
409.503,22.4772,4.48828,10.6836,0.87048
410.003,22.49255,4.33684,10.3064,0.87023
410.503,22.5079,4.21045,9.89947,0.86999
411.003,22.52325,4.06991,9.43695,0.86974
411.503,22.5387,3.93566,9.08466,0.86949
412.003,22.55406,3.7936,8.66103,0.86925
412.503,22.56936,3.67203,8.30653,0.869
413.003,22.58469,3.55036,7.96542,0.86875
413.503,22.60003,3.42597,7.56875,0.8685
414.003,22.61535,3.30178,7.28578,0.86826
414.503,22.63066,3.18533,6.95349,0.86801
415.003,22.64599,3.06802,6.62531,0.86776
415.503,22.66135,2.95079,6.36148,0.86751
416.003,22.67669,2.83914,6.04868,0.86727
416.503,22.69196,2.73052,5.81404,0.86702
417.003,22.70727,2.61881,5.56304,0.86677
417.503,22.72254,2.51627,5.27589,0.86652
418.003,22.7378,2.41005,5.04186,0.86627
418.503,22.75314,2.31035,4.78316,0.86602
419.003,22.76841,2.20712,4.573,0.86578
419.503,22.78377,2.1128,4.38574,0.86553
420.003,22.7991,2.02269,4.15213,0.86528
420.503,22.8145,1.93068,3.97819,0.86503
421.003,22.8298,1.84184,3.74553,0.86478
421.503,22.84522,1.75681,3.54605,0.86453
422.003,22.86058,1.67482,3.39795,0.86428
422.503,22.87594,1.59343,3.22563,0.86404
423.003,22.8913,1.52091,3.0915,0.86379
423.503,22.9067,1.44489,2.98687,0.86354
424.003,22.92212,1.37601,2.84522,0.86329
424.503,22.93746,1.3085,2.73856,0.86304
425.003,22.95286,1.24559,2.60473,0.86279
425.503,22.96826,1.18218,2.48927,0.86254
426.003,22.9836,1.12147,2.39026,0.86229
426.503,22.999,1.06566,2.29497,0.86204
427.003,23.01438,1.01245,2.22608,0.86179
427.503,23.02984,0.96188,2.13595,0.86154
428.003,23.0453,0.91155,2.04893,0.86129
428.503,23.06077,0.86348,1.98817,0.86104
429.003,23.07627,0.81736,1.89142,0.86079
429.503,23.09173,0.7779,1.80981,0.86054
430.003,23.10719,0.73649,1.73384,0.86029
430.503,23.12264,0.69806,1.63732,0.86004
431.003,23.13809,0.66135,1.56871,0.85979
431.503,23.1536,0.62805,1.49109,0.85954
432.003,23.16903,0.59412,1.41726,0.85929
432.503,23.18459,0.56305,1.38044,0.85904
433.003,23.2001,0.53441,1.34351,0.85879
433.503,23.21565,0.50495,1.30217,0.85854
434.003,23.23118,0.47845,1.26021,0.85829
434.503,23.24669,0.45324,1.21301,0.85803
435.003,23.2622,0.4289,1.17666,0.85778
435.503,23.2777,0.40691,1.13755,0.85753
436.003,23.29329,0.38664,1.10716,0.85728
436.503,23.30884,0.36665,1.08085,0.85703
437.003,23.3244,0.34588,1.06265,0.85678
437.503,23.33993,0.33065,1.01885,0.85652
438.003,23.35549,0.31414,1.00385,0.85627
438.503,23.371,0.29599,0.97708,0.85602
439.003,23.38661,0.28041,0.94688,0.85577
439.503,23.40221,0.26841,0.9366,0.85552
440.003,23.41788,0.25387,0.89681,0.85526
440.503,23.43357,0.23775,0.88615,0.85501
441.003,23.4492,0.22914,0.85501,0.85476
441.503,23.46482,0.21473,0.84926,0.8545
442.003,23.48043,0.20681,0.81585,0.85425
442.503,23.496,0.1941,0.80867,0.854
443.003,23.5116,0.18586,0.77597,0.85375
443.503,23.5272,0.17712,0.77376,0.85349
444.003,23.5428,0.1676,0.74189,0.85324
444.503,23.5585,0.16251,0.74379,0.85299
445.003,23.57426,0.15178,0.73451,0.85273
445.503,23.59,0.14615,0.71063,0.85248
446.003,23.60566,0.14001,0.71032,0.85222
446.503,23.6214,0.13386,0.7093,0.85197
447.003,23.6371,0.1303,0.68061,0.85172
447.503,23.6528,0.12104,0.67845,0.85146
448.003,23.66846,0.11529,0.66296,0.85121
448.503,23.6842,0.11337,0.64853,0.85095
449.003,23.69989,0.10721,0.64374,0.8507
449.503,23.71555,0.10343,0.62969,0.85044
450.003,23.73131,0.10097,0.61942,0.85019
450.503,23.74703,0.09556574,0.61883,0.84993
451.003,23.76284,0.08971151,0.61864,0.84968
451.503,23.7786,0.0865669,0.62039,0.84942
452.003,23.79434,0.0843598,0.58421,0.84917
452.503,23.8101,0.08049656,0.57724,0.84891
453.003,23.82583,0.07627295,0.57715,0.84866
453.503,23.8415,0.07884415,0.57721,0.8484
454.003,23.85726,0.07188001,0.57721,0.84814
454.503,23.87304,0.06908565,0.57721,0.84789
455.003,23.8888,0.06810075,0.57721,0.84763
455.503,23.9046,0.06762813,0.57721,0.84737
456.003,23.92043,0.06155923,0.57721,0.84712
456.503,23.9362,0.06664094,0.57721,0.84686
457.003,23.95202,0.06382231,0.57719,0.8466
457.503,23.96777,0.06158384,0.57736,0.84635
458.003,23.98351,0.06493083,0.57895,0.84609
458.503,23.9993,0.06675976,0.5538,0.84583
459.003,24.01501,0.0676071,0.54364,0.84557
459.503,24.03076,0.06759488,0.54379,0.84532
460.003,24.0465,0.07008771,0.5438,0.84506
460.503,24.06234,0.07222954,0.5438,0.8448
461.003,24.0781,0.07052638,0.5438,0.84454
461.503,24.09395,0.07156788,0.54378,0.84429
462.003,24.1098,0.07026531,0.54381,0.84403
462.503,24.12566,0.07083969,0.5462,0.84377
463.003,24.14147,0.06909127,0.57979,0.84351
463.503,24.1573,0.06869057,0.5857,0.84325
464.003,24.17316,0.06621701,0.58558,0.84299
464.503,24.18904,0.06440207,0.58557,0.84273
465.003,24.20487,0.06089471,0.58557,0.84247
465.503,24.22073,0.05752625,0.58557,0.84221
466.003,24.2366,0.05422998,0.58557,0.84195
466.503,24.25254,0.05464582,0.58557,0.84169
467.003,24.26835,0.05081642,0.58557,0.84143
467.503,24.28425,0.04881265,0.58557,0.84117
468.003,24.30021,0.04798204,0.58557,0.84091
468.503,24.3161,0.0453507,0.58557,0.84065
469.003,24.332,0.03958614,0.58559,0.84039
469.503,24.34783,0.04222879,0.58536,0.84013
470.003,24.36383,0.04226903,0.58255,0.83987
470.503,24.37973,0.03975168,0.57717,0.83961
471.003,24.39563,0.04167043,0.57716,0.83935
471.503,24.4116,0.04031302,0.57723,0.83909
472.003,24.42754,0.04229115,0.577,0.83883
472.503,24.44347,0.04235341,0.57453,0.83856
473.003,24.45939,0.04261732,0.56876,0.8383
473.503,24.4753,0.04495402,0.5688,0.83804
474.003,24.4912,0.04791267,0.56886,0.83778
474.503,24.50715,0.04616895,0.56886,0.83751
475.003,24.52308,0.0519813,0.56886,0.83725
475.503,24.53903,0.05344419,0.56886,0.83699
476.003,24.55494,0.05839304,0.56886,0.83673
476.503,24.5709,0.05986328,0.56886,0.83646
477.003,24.58677,0.0655635,0.56886,0.8362
477.503,24.6027,0.06672978,0.56887,0.83594
478.003,24.6187,0.07211299,0.56883,0.83567
478.503,24.63459,0.07274018,0.56822,0.83541
479.003,24.65054,0.07969397,0.56791,0.83514
479.503,24.6665,0.08167695,0.54192,0.83488
480.003,24.6825,0.08826688,0.54362,0.83462
480.503,24.6984,0.0881536,0.54383,0.83435
481.003,24.71438,0.08950322,0.5441,0.83409
481.503,24.73036,0.09333368,0.54409,0.83382
482.003,24.74634,0.09766097,0.57279,0.83356
482.503,24.76233,0.09793528,0.57691,0.83329
483.003,24.77834,0.10267,0.57724,0.83303
483.503,24.7943,0.10447,0.57722,0.83276
484.003,24.81028,0.10734,0.57721,0.83249
484.503,24.82625,0.10916,0.5772,0.83223
485.003,24.84218,0.11197,0.57713,0.83196
485.503,24.8581,0.11412,0.57778,0.8317
486.003,24.87404,0.11612,0.58692,0.83143
486.503,24.89004,0.11969,0.60226,0.83116
487.003,24.90604,0.1197,0.60243,0.8309
487.503,24.92205,0.12381,0.60229,0.83063
488.003,24.93806,0.12497,0.60228,0.83036
488.503,24.9541,0.12937,0.60228,0.83009
489.003,24.9701,0.12686,0.60228,0.82983
489.503,24.9861,0.13323,0.60228,0.82956
490.003,25.0021,0.13655,0.60228,0.82929
490.503,25.01813,0.13698,0.60228,0.82902
491.003,25.03412,0.13755,0.60228,0.82875
491.503,25.05014,0.13945,0.60228,0.82848
492.003,25.06616,0.143,0.60228,0.82821
492.503,25.0822,0.1445,0.60228,0.82795
493.003,25.09819,0.14567,0.60228,0.82768
493.503,25.11422,0.14582,0.60229,0.82741
494.003,25.13025,0.15042,0.60229,0.82714
494.503,25.14627,0.15098,0.60162,0.82687
495.003,25.1623,0.15117,0.59781,0.8266
495.503,25.17827,0.15218,0.56912,0.82633
496.003,25.19434,0.15506,0.56891,0.82606
496.503,25.21039,0.15622,0.56886,0.82578
497.003,25.22644,0.15668,0.56886,0.82551
497.503,25.24246,0.15829,0.56886,0.82524
498.003,25.25853,0.15718,0.56886,0.82497
498.503,25.27458,0.1597,0.56886,0.8247
499.003,25.29058,0.16058,0.56886,0.82443
499.503,25.3066,0.16314,0.56886,0.82416
500.003,25.32263,0.16518,0.56886,0.82388
500.503,25.33859,0.16609,0.56886,0.82361
501.003,25.3547,0.16734,0.56886,0.82334
501.503,25.37075,0.16872,0.56885,0.82307
502.003,25.38683,0.16843,0.56904,0.82279
502.503,25.4029,0.16989,0.55324,0.82252
503.003,25.41897,0.16702,0.53525,0.82225
503.503,25.43505,0.17243,0.53595,0.82197
504.003,25.45109,0.17136,0.52557,0.8217
504.503,25.46711,0.17477,0.50856,0.82142
505.003,25.4832,0.17289,0.5343,0.82115
505.503,25.49924,0.17624,0.54694,0.82088
506.003,25.5154,0.17683,0.5541,0.8206
506.503,25.5315,0.17583,0.58088,0.82033
507.003,25.54755,0.17491,0.57983,0.82005
507.503,25.56365,0.1759,0.57998,0.81978
508.003,25.57975,0.17954,0.58,0.8195
508.503,25.59577,0.17844,0.58,0.81922
509.003,25.61188,0.17938,0.58,0.81895
509.503,25.62799,0.18184,0.58,0.81867
510.003,25.6441,0.18129,0.58004,0.8184
510.503,25.66016,0.18204,0.58002,0.81812
511.003,25.67624,0.18241,0.6054,0.81784
511.503,25.69237,0.1826,0.59863,0.81756
512.003,25.70844,0.18435,0.57932,0.81729
512.503,25.7244,0.18356,0.57984,0.81701
513.003,25.74042,0.18562,0.58,0.81673
513.503,25.75645,0.18412,0.57996,0.81645
514.003,25.77246,0.18534,0.57957,0.81618
514.503,25.78839,0.18705,0.54948,0.8159
515.003,25.8045,0.18609,0.54721,0.81562
515.503,25.82069,0.18575,0.5466,0.81534
516.003,25.83685,0.18415,0.54657,0.81506
516.503,25.85302,0.18515,0.54658,0.81478
517.003,25.8693,0.18474,0.54658,0.8145
517.503,25.88549,0.1872,0.54658,0.81422
518.003,25.9016,0.18335,0.54658,0.81394
518.503,25.91767,0.18579,0.54658,0.81366
519.003,25.9338,0.18344,0.54658,0.81338
519.503,25.94987,0.1867,0.54658,0.8131
520.003,25.96595,0.1859,0.54658,0.81282
520.503,25.98209,0.18717,0.54656,0.81254
521.003,25.99822,0.18779,0.54673,0.81225
521.503,26.01442,0.18735,0.5267,0.81197
522.003,26.03054,0.18666,0.51367,0.81169
522.503,26.04661,0.18832,0.51083,0.81141
523.003,26.06275,0.18872,0.54307,0.81113
523.503,26.07883,0.18648,0.54677,0.81084
524.003,26.09496,0.18949,0.5683,0.81056
524.503,26.11101,0.18862,0.57967,0.81028
525.003,26.12704,0.19061,0.5802,0.80999
525.503,26.14309,0.19166,0.58084,0.80971
526.003,26.15915,0.19031,0.56509,0.80943
526.503,26.1752,0.19212,0.5452,0.80914
527.003,26.19124,0.19368,0.5459,0.80886
527.503,26.20725,0.19282,0.56562,0.80857
528.003,26.2234,0.19427,0.57094,0.80829
528.503,26.2395,0.19055,0.57166,0.808
529.003,26.25563,0.19297,0.57166,0.80772
529.503,26.2718,0.194,0.57164,0.80743
530.003,26.2881,0.19494,0.57172,0.80715
530.503,26.30429,0.19599,0.57276,0.80686
531.003,26.3205,0.19464,0.55387,0.80657
531.503,26.33673,0.19532,0.53736,0.80629
532.003,26.3529,0.19646,0.53814,0.806
532.503,26.36907,0.19567,0.53823,0.80571
533.003,26.38522,0.19459,0.53827,0.80543
533.503,26.40141,0.19883,0.53842,0.80514
534.003,26.4176,0.19811,0.56685,0.80485
534.503,26.43372,0.19811,0.57099,0.80456
535.003,26.4499,0.19838,0.57165,0.80427
535.503,26.46603,0.19955,0.57166,0.80398
536.003,26.48217,0.20091,0.57165,0.8037
536.503,26.49827,0.20243,0.57165,0.80341
537.003,26.5144,0.20085,0.57165,0.80312
537.503,26.5306,0.20388,0.57165,0.80283
538.003,26.5467,0.20742,0.57165,0.80254
538.503,26.5629,0.2057,0.57165,0.80225
539.003,26.57907,0.20354,0.57165,0.80196
539.503,26.59522,0.20618,0.57181,0.80167
540.003,26.6113,0.20684,0.56019,0.80138
540.503,26.62775,0.20737,0.53719,0.80108
541.003,26.6441,0.20751,0.53806,0.80079
541.503,26.6608,0.20699,0.53822,0.8005
541.703,26.66628,0.20726,0.53823,0.80038