File: 01_Data/Black_PMMA/STA/30K_min/Black_PMMA_STA_N2_30KData_220214_R2.csv
##Temp./Â°C,Time/min,DSC(subtr.2)/(mW/mg),Mass(subtr.2)/%,Sensit./(uV/mW)
48.906,10.01,-0.004797188,99.43423,1.0888
49.406,10.50121,0.02271603,99.36092,1.08838
49.906,10.61103,0.0517888,99.35546,1.08795
50.406,10.6896,0.0770168,99.38019,1.08753
50.906,10.75416,0.09923049,99.3464,1.08711
51.406,10.80892,0.1231,99.34382,1.08669
51.906,10.8577,0.1458,99.33892,1.08627
52.406,10.90144,0.16496,99.30004,1.08585
52.906,10.94213,0.1845,99.34791,1.08543
53.406,10.98029,0.20593,99.31379,1.08502
53.906,11.01671,0.22241,99.33598,1.0846
54.406,11.05064,0.23971,99.34334,1.08418
54.906,11.0831,0.25528,99.3767,1.08376
55.406,11.11439,0.27106,99.3638,1.08334
55.906,11.14433,0.28581,99.35385,1.08293
56.406,11.1732,0.29747,99.31306,1.08251
56.906,11.2011,0.31594,99.30495,1.0821
57.406,11.2286,0.32871,99.35122,1.08168
57.906,11.25535,0.34127,99.3423,1.08127
58.406,11.28155,0.35364,99.32998,1.08085
58.906,11.30679,0.36707,99.3353,1.08044
59.406,11.33163,0.37902,99.34128,1.08003
59.906,11.35591,0.39185,99.3446,1.07961
60.406,11.37983,0.40113,99.32978,1.0792
60.906,11.40344,0.41233,99.3151,1.07879
61.406,11.42665,0.4226,99.31126,1.07838
61.906,11.4496,0.43224,99.32162,1.07796
62.406,11.47217,0.44246,99.33174,1.07755
62.906,11.49436,0.451,99.33241,1.07714
63.406,11.5161,0.46237,99.3141,1.07673
63.906,11.53758,0.47009,99.30285,1.07632
64.406,11.55904,0.47816,99.29508,1.07591
64.906,11.5804,0.48842,99.2838,1.07551
65.406,11.60159,0.49644,99.29139,1.0751
65.906,11.62278,0.50479,99.3148,1.07469
66.406,11.6434,0.51306,99.31424,1.07428
66.906,11.6639,0.51973,99.29635,1.07387
67.406,11.68414,0.52835,99.2948,1.07347
67.906,11.7042,0.53545,99.30721,1.07306
68.406,11.72424,0.5418,99.33288,1.07266
68.906,11.7441,0.55062,99.33535,1.07225
69.406,11.76383,0.55733,99.32804,1.07185
69.906,11.78351,0.5652,99.3253,1.07144
70.406,11.803,0.57141,99.32011,1.07104
70.906,11.82235,0.57681,99.33241,1.07063
71.406,11.84165,0.58345,99.33414,1.07023
71.906,11.86076,0.59012,99.31676,1.06983
72.406,11.87991,0.59705,99.31074,1.06943
72.906,11.89896,0.60319,99.32607,1.06902
73.406,11.91796,0.60794,99.35401,1.06862
73.906,11.9368,0.61628,99.33657,1.06822
74.406,11.9557,0.62074,99.35404,1.06782
74.906,11.97446,0.6262,99.35547,1.06742
75.406,11.99318,0.63278,99.34753,1.06702
75.906,12.01175,0.63757,99.34651,1.06662
76.406,12.0303,0.64409,99.3561,1.06622
76.906,12.04875,0.65014,99.36439,1.06583
77.406,12.067,0.65402,99.3416,1.06543
77.906,12.08522,0.6601,99.33591,1.06503
78.406,12.1035,0.66572,99.31779,1.06463
78.906,12.12164,0.66962,99.30537,1.06424
79.406,12.13979,0.67746,99.32151,1.06384
79.906,12.15798,0.6826,99.33762,1.06344
80.406,12.1761,0.68708,99.33105,1.06305
80.906,12.19411,0.69173,99.3711,1.06265
81.406,12.21215,0.69771,99.3609,1.06226
81.906,12.23002,0.70357,99.3726,1.06186
82.406,12.2479,0.70744,99.36107,1.06147
82.906,12.26561,0.70933,99.3736,1.06108
83.406,12.28345,0.71446,99.3544,1.06069
83.906,12.30119,0.71722,99.36698,1.06029
84.406,12.31889,0.72205,99.37379,1.0599
84.906,12.33665,0.72573,99.33869,1.05951
85.406,12.3544,0.72803,99.37062,1.05912
85.906,12.37199,0.72893,99.35896,1.05873
86.406,12.3896,0.73085,99.35279,1.05834
86.906,12.40714,0.73322,99.36701,1.05795
87.406,12.4246,0.73252,99.33555,1.05756
87.906,12.44205,0.73211,99.3383,1.05717
88.406,12.45946,0.73369,99.32194,1.05678
88.906,12.47683,0.73471,99.33618,1.05639
89.406,12.4942,0.73402,99.33752,1.056
89.906,12.5114,0.73415,99.33768,1.05562
90.406,12.52867,0.73313,99.36891,1.05523
90.906,12.54595,0.73113,99.33827,1.05484
91.406,12.56323,0.73422,99.33841,1.05446
91.906,12.58046,0.73339,99.3614,1.05407
92.406,12.5977,0.7326,99.33319,1.05369
92.906,12.6149,0.73613,99.3286,1.0533
93.406,12.63209,0.73441,99.2987,1.05292
93.906,12.6492,0.73417,99.30125,1.05253
94.406,12.66633,0.736,99.26204,1.05215
94.906,12.68344,0.73605,99.29371,1.05177
95.406,12.70055,0.73625,99.26964,1.05138
95.906,12.71766,0.73709,99.26026,1.051
96.406,12.7347,0.73795,99.28827,1.05062
96.906,12.75168,0.7404,99.26446,1.05024
97.406,12.76868,0.74163,99.26393,1.04986
97.906,12.78572,0.74335,99.29642,1.04948
98.406,12.80275,0.74377,99.2977,1.0491
98.906,12.81973,0.74577,99.29736,1.04872
99.406,12.83675,0.74843,99.3262,1.04834
99.906,12.85379,0.74902,99.3117,1.04796
100.406,12.87071,0.75341,99.29754,1.04758
100.906,12.88757,0.75469,99.29723,1.0472
101.406,12.90446,0.7542,99.29734,1.04683
101.906,12.92135,0.75766,99.2975,1.04645
102.406,12.9383,0.76027,99.3262,1.04607
102.906,12.95509,0.76041,99.32144,1.0457
103.406,12.97198,0.76376,99.31376,1.04532
103.906,12.9889,0.76871,99.3275,1.04494
104.406,13.00588,0.76969,99.32724,1.04457
104.906,13.0228,0.772,99.32719,1.04419
105.406,13.03968,0.77466,99.3198,1.04382
105.906,13.05654,0.7745,99.30242,1.04345
106.406,13.07335,0.7784,99.3279,1.04307
106.906,13.0902,0.78123,99.32688,1.0427
107.406,13.1071,0.78173,99.3292,1.04233
107.906,13.124,0.78443,99.297,1.04196
108.406,13.1408,0.78864,99.29462,1.04158
108.906,13.15784,0.78994,99.2951,1.04121
109.406,13.1747,0.79213,99.30357,1.04084
109.906,13.1914,0.79481,99.2935,1.04047
110.406,13.2082,0.79785,99.2951,1.0401
110.906,13.2251,0.8009,99.29486,1.03973
111.406,13.2418,0.80503,99.29464,1.03936
111.906,13.2586,0.80612,99.29646,1.03899
112.406,13.27539,0.80826,99.26671,1.03862
112.906,13.29219,0.8093,99.28811,1.03826
113.406,13.3089,0.81332,99.28671,1.03789
113.906,13.32572,0.81841,99.28667,1.03752
114.406,13.34251,0.82072,99.28605,1.03715
114.906,13.35929,0.82292,99.29534,1.03679
115.406,13.37607,0.82721,99.2634,1.03642
115.906,13.39289,0.83391,99.26262,1.03606
116.406,13.40965,0.83492,99.26259,1.03569
116.906,13.42635,0.8378,99.26255,1.03533
117.406,13.4431,0.84397,99.2622,1.03496
117.906,13.45979,0.84645,99.2629,1.0346
118.406,13.47647,0.85033,99.232,1.03424
118.906,13.4932,0.85591,99.2371,1.03387
119.406,13.50983,0.86035,99.2625,1.03351
119.906,13.5266,0.86303,99.24688,1.03315
120.406,13.5432,0.86807,99.23015,1.03279
120.906,13.56,0.87339,99.2303,1.03242
121.406,13.5766,0.87678,99.23037,1.03206
121.906,13.5933,0.88243,99.23074,1.0317
122.406,13.6099,0.88804,99.23018,1.03134
122.906,13.6265,0.89512,99.26181,1.03098
123.406,13.643,0.90236,99.26255,1.03062
123.906,13.65956,0.90414,99.26259,1.03026
124.406,13.6761,0.91003,99.26257,1.0299
124.906,13.6926,0.917,99.26241,1.02955
125.406,13.70912,0.9233,99.26316,1.02919
125.906,13.72569,0.92705,99.23575,1.02883
126.406,13.7423,0.93198,99.23085,1.02847
126.906,13.75876,0.9389,99.23054,1.02812
127.406,13.7753,0.94291,99.23056,1.02776
127.906,13.7918,0.94915,99.23056,1.02741
128.406,13.80816,0.95427,99.2306,1.02705
128.906,13.8247,0.95765,99.2311,1.0267
129.406,13.84115,0.96402,99.2325,1.02634
129.906,13.8576,0.96993,99.26223,1.02599
130.406,13.87405,0.97523,99.26255,1.02563
130.906,13.89061,0.97931,99.26259,1.02528
131.406,13.907,0.98354,99.26259,1.02493
131.906,13.92339,0.98838,99.26259,1.02457
132.406,13.9398,0.99378,99.26259,1.02422
132.906,13.95615,0.99665,99.26259,1.02387
133.406,13.9726,1.00083,99.26259,1.02352
133.906,13.98894,1.00621,99.26259,1.02317
134.406,14.0053,1.00926,99.26259,1.02282
134.906,14.0215,1.01028,99.26259,1.02247
135.406,14.03766,1.0149,99.26259,1.02212
135.906,14.05393,1.01953,99.26259,1.02177
136.406,14.07015,1.0244,99.26259,1.02142
136.906,14.08642,1.02577,99.26275,1.02107
137.406,14.10266,1.0295,99.24808,1.02072
137.906,14.119,1.03419,99.22989,1.02037
138.406,14.1353,1.03619,99.23016,1.02003
138.906,14.1516,1.03872,99.23031,1.01968
139.406,14.16779,1.04275,99.23031,1.01933
139.906,14.18395,1.04646,99.2302,1.01899
140.406,14.20011,1.04749,99.2303,1.01864
140.906,14.21636,1.04925,99.21543,1.01829
141.406,14.2325,1.05025,99.22318,1.01795
141.906,14.2487,1.05313,99.2222,1.0176
142.406,14.2648,1.05898,99.2222,1.01726
142.906,14.28084,1.05792,99.22225,1.01692
143.406,14.29689,1.05992,99.22225,1.01657
143.906,14.313,1.06628,99.22225,1.01623
144.406,14.3291,1.0658,99.22224,1.01589
144.906,14.3452,1.06786,99.22193,1.01554
145.406,14.36135,1.07198,99.22104,1.0152
145.906,14.3777,1.07223,99.19205,1.01486
146.406,14.3938,1.07402,99.18255,1.01452
146.906,14.4099,1.07875,99.1582,1.01418
147.406,14.426,1.07899,99.15822,1.01384
147.906,14.442,1.08376,99.15819,1.0135
148.406,14.458,1.08507,99.15819,1.01316
148.906,14.47398,1.0877,99.15816,1.01282
149.406,14.48996,1.08738,99.15819,1.01248
149.906,14.506,1.09111,99.15821,1.01214
150.406,14.522,1.09103,99.09631,1.0118
150.906,14.538,1.09463,99.09382,1.01146
151.406,14.554,1.09788,99.09368,1.01113
151.906,14.57006,1.09972,99.0936,1.01079
152.406,14.5861,1.10254,99.09363,1.01045
152.906,14.60205,1.10294,99.09355,1.01012
153.406,14.61806,1.10437,99.09433,1.00978
153.906,14.6341,1.10805,99.0847,1.00945
154.406,14.65,1.11098,99.0856,1.00911
154.906,14.666,1.11318,99.08559,1.00878
155.406,14.682,1.11716,99.08556,1.00844
155.906,14.69784,1.11677,99.08567,1.00811
156.406,14.71365,1.11975,99.08668,1.00777
156.906,14.7296,1.12189,99.07013,1.00744
157.406,14.74545,1.12341,99.06141,1.00711
157.906,14.7613,1.12763,99.06204,1.00677
158.406,14.7772,1.12815,99.04936,1.00644
158.906,14.79331,1.12989,99.04584,1.00611
159.406,14.80926,1.13478,99.04567,1.00578
159.906,14.82514,1.13656,99.0312,1.00545
160.406,14.84105,1.13853,99.0474,1.00512
160.906,14.8569,1.14174,99.06231,1.00479
161.406,14.8726,1.1434,99.04704,1.00446
161.906,14.88848,1.14549,99.02866,1.00413
162.406,14.90429,1.14795,99.02917,1.0038
162.906,14.92014,1.15051,99.02934,1.00347
163.406,14.936,1.15359,99.02927,1.00314
163.906,14.95186,1.15697,99.02893,1.00281
164.406,14.9677,1.16045,99.00265,1.00249
164.906,14.98354,1.16133,98.97475,1.00216
165.406,14.99934,1.16531,98.9649,1.00183
165.906,15.0151,1.16621,98.96512,1.0015
166.406,15.03091,1.1708,98.955,1.00118
166.906,15.0467,1.17542,98.93056,1.00085
167.406,15.0624,1.17826,98.92798,1.00053
167.906,15.0782,1.18299,98.90077,1.0002
168.406,15.0938,1.18533,98.90054,0.99988
168.906,15.10956,1.18946,98.90049,0.99955
169.406,15.12534,1.19175,98.90049,0.99923
169.906,15.1411,1.19509,98.90049,0.9989
170.406,15.1569,1.19862,98.9005,0.99858
170.906,15.1728,1.2035,98.90058,0.99826
171.406,15.1886,1.20683,98.9001,0.99793
171.906,15.2044,1.21068,98.89107,0.99761
172.406,15.22006,1.21749,98.86845,0.99729
172.906,15.2357,1.21998,98.86846,0.99697
173.406,15.2514,1.22275,98.86827,0.99665
173.906,15.267,1.22862,98.8422,0.99633
174.406,15.2827,1.23544,98.83677,0.99601
174.906,15.29835,1.2393,98.83614,0.99569
175.406,15.31405,1.24386,98.83625,0.99537
175.906,15.3297,1.24769,98.83612,0.99505
176.406,15.3453,1.25319,98.8292,0.99473
176.906,15.36096,1.25801,98.80356,0.99441
177.406,15.37659,1.26545,98.8044,0.99409
177.906,15.39225,1.26644,98.80408,0.99377
178.406,15.40795,1.27581,98.80887,0.99345
178.906,15.42361,1.27869,98.82176,0.99314
179.406,15.4392,1.28234,98.80362,0.99282
179.906,15.4548,1.28921,98.79812,0.9925
180.406,15.4705,1.29568,98.76889,0.99219
180.906,15.486,1.29921,98.76169,0.99187
181.406,15.5015,1.30503,98.7334,0.99155
181.906,15.51707,1.31094,98.73278,0.99124
182.406,15.53265,1.31746,98.67557,0.99092
182.906,15.5482,1.32421,98.66711,0.99061
183.406,15.5637,1.32553,98.6681,0.99029
183.906,15.5792,1.33332,98.65275,0.98998
184.406,15.59474,1.33965,98.634,0.98967
184.906,15.61026,1.34646,98.62649,0.98935
185.406,15.6257,1.35176,98.59536,0.98904
185.906,15.6412,1.35663,98.58695,0.98873
186.406,15.6567,1.36523,98.54468,0.98842
186.906,15.6722,1.36764,98.51468,0.9881
187.406,15.6877,1.37361,98.487,0.98779
187.906,15.7031,1.3775,98.45872,0.98748
188.406,15.7186,1.38466,98.4367,0.98717
188.906,15.73404,1.3887,98.39739,0.98686
189.406,15.74949,1.39437,98.37348,0.98655
189.906,15.76495,1.39832,98.36224,0.98624
190.406,15.7803,1.40204,98.34479,0.98593
190.906,15.79579,1.40692,98.3276,0.98562
191.406,15.8112,1.41213,98.3271,0.98531
191.906,15.82668,1.41625,98.2925,0.985
192.406,15.8421,1.42068,98.28811,0.98469
192.906,15.8575,1.4228,98.2576,0.98439
193.406,15.8728,1.42849,98.25372,0.98408
193.906,15.88824,1.43158,98.21888,0.98377
194.406,15.90363,1.43629,98.19634,0.98346
194.906,15.91895,1.44009,98.17843,0.98316
195.406,15.9344,1.44082,98.1118,0.98285
195.906,15.9497,1.44441,98.09951,0.98255
196.406,15.96509,1.44567,98.06355,0.98224
196.906,15.98042,1.45011,98.0307,0.98194
197.406,15.9958,1.45214,97.9966,0.98163
197.906,16.0111,1.4556,97.9676,0.98133
198.406,16.02649,1.45752,97.9307,0.98102
198.906,16.04187,1.45573,97.90295,0.98072
199.406,16.0573,1.45851,97.88579,0.98041
199.906,16.07264,1.45948,97.84844,0.98011
200.406,16.08803,1.46037,97.8378,0.97981
200.906,16.1034,1.46198,97.80713,0.9795
201.406,16.11873,1.46088,97.80453,0.9792
201.906,16.13404,1.46316,97.77642,0.9789
202.406,16.1494,1.45974,97.74539,0.9786
202.906,16.16476,1.46345,97.7124,0.9783
203.406,16.18009,1.46197,97.70167,0.97799
203.906,16.1954,1.46057,97.66848,0.97769
204.406,16.21069,1.45974,97.66029,0.97739
204.906,16.22599,1.46003,97.62007,0.97709
205.406,16.24125,1.45745,97.56438,0.97679
205.906,16.2565,1.45679,97.53668,0.97649
206.406,16.27175,1.45761,97.5017,0.97619
206.906,16.287,1.45401,97.4897,0.97589
207.406,16.30234,1.45258,97.45393,0.9756
207.906,16.3176,1.45322,97.43346,0.9753
208.406,16.33284,1.45038,97.41187,0.975
208.906,16.34812,1.4479,97.3742,0.9747
209.406,16.36338,1.44743,97.3663,0.9744
209.906,16.37865,1.44677,97.3283,0.97411
210.406,16.39387,1.44301,97.32596,0.97381
210.906,16.40919,1.4443,97.29547,0.97351
211.406,16.42452,1.4429,97.2972,0.97322
211.906,16.43984,1.44105,97.26524,0.97292
212.406,16.45514,1.44118,97.25062,0.97263
212.906,16.47044,1.4392,97.20515,0.97233
213.406,16.48573,1.43773,97.19051,0.97204
213.906,16.50095,1.43912,97.1618,0.97174
214.406,16.51618,1.43925,97.12646,0.97145
214.906,16.53133,1.43898,97.11734,0.97115
215.406,16.54661,1.43717,97.07728,0.97086
215.906,16.5619,1.44068,97.04979,0.97056
216.406,16.57712,1.44059,97.0265,0.97027
216.906,16.59234,1.44032,96.9632,0.96998
217.406,16.60755,1.44309,96.9629,0.96969
217.906,16.62284,1.44163,96.93835,0.96939
218.406,16.63805,1.44396,96.92438,0.9691
218.906,16.6532,1.44523,96.8998,0.96881
219.406,16.66842,1.44861,96.8816,0.96852
219.906,16.68364,1.44872,96.84061,0.96823
220.406,16.69885,1.44945,96.8305,0.96794
220.906,16.71404,1.45566,96.80539,0.96764
221.406,16.72924,1.45615,96.78941,0.96735
221.906,16.74447,1.45871,96.7607,0.96706
222.406,16.75965,1.4621,96.7237,0.96677
222.906,16.77492,1.46411,96.72139,0.96648
223.406,16.79016,1.46675,96.70143,0.9662
223.906,16.8053,1.4693,96.7131,0.96591
224.406,16.8205,1.47243,96.68169,0.96562
224.906,16.83576,1.47469,96.67024,0.96533
225.406,16.851,1.47559,96.63319,0.96504
225.906,16.86617,1.47979,96.62731,0.96475
226.406,16.88135,1.481,96.59675,0.96447
226.906,16.89658,1.48397,96.57683,0.96418
227.406,16.9117,1.48324,96.55127,0.96389
227.906,16.92685,1.48715,96.5154,0.9636
228.406,16.942,1.48837,96.5026,0.96332
228.906,16.95717,1.48911,96.4701,0.96303
229.406,16.97232,1.48985,96.44591,0.96275
229.906,16.9875,1.49329,96.42381,0.96246
230.406,17.0027,1.49517,96.3891,0.96217
230.906,17.01793,1.49416,96.36749,0.96189
231.406,17.03315,1.49722,96.34713,0.96161
231.906,17.04835,1.49351,96.31113,0.96132
232.406,17.06356,1.49487,96.3048,0.96104
232.906,17.0788,1.49543,96.26499,0.96075
233.406,17.09396,1.49376,96.2253,0.96047
233.906,17.10916,1.49386,96.1956,0.96018
234.406,17.1243,1.48967,96.16284,0.9599
234.906,17.13942,1.48888,96.14231,0.95962
235.406,17.15462,1.4858,96.10195,0.95934
235.906,17.16978,1.48447,96.10645,0.95905
236.406,17.1849,1.48089,96.0757,0.95877
236.906,17.2,1.47733,96.07385,0.95849
237.406,17.21521,1.47491,96.06237,0.95821
237.906,17.23036,1.47338,96.039,0.95793
238.406,17.24547,1.46562,96.03757,0.95765
238.906,17.26061,1.46083,96.0033,0.95736
239.406,17.2758,1.45618,96.0031,0.95708
239.906,17.29094,1.4531,95.9654,0.9568
240.406,17.3061,1.44807,95.96545,0.95652
240.906,17.32129,1.44134,95.92736,0.95624
241.406,17.33641,1.43756,95.95702,0.95596
241.906,17.35158,1.43341,95.9306,0.95568
242.406,17.36675,1.42531,95.92605,0.95541
242.906,17.38188,1.42175,95.89596,0.95513
243.406,17.39705,1.41625,95.88994,0.95485
243.906,17.41218,1.41367,95.86841,0.95457
244.406,17.42735,1.40803,95.85621,0.95429
244.906,17.4425,1.40432,95.85781,0.95401
245.406,17.45765,1.40232,95.83834,0.95374
245.906,17.47281,1.39672,95.82462,0.95346
246.406,17.4879,1.39289,95.8242,0.95318
246.906,17.503,1.38971,95.81876,0.9529
247.406,17.51817,1.38716,95.79222,0.95263
247.906,17.5333,1.38176,95.78581,0.95235
248.406,17.54833,1.38029,95.76039,0.95208
248.906,17.56348,1.37725,95.76031,0.9518
249.406,17.57864,1.37736,95.75975,0.95152
249.906,17.5937,1.37375,95.75229,0.95125
250.406,17.60878,1.36933,95.72803,0.95097
250.906,17.6239,1.37061,95.72792,0.9507
251.406,17.63908,1.36893,95.72787,0.95042
251.906,17.6542,1.36856,95.72787,0.95015
252.406,17.66926,1.36662,95.72787,0.94988
252.906,17.6844,1.36532,95.72787,0.9496
253.406,17.69959,1.36387,95.72787,0.94933
253.906,17.7147,1.3629,95.72785,0.94905
254.406,17.72981,1.36332,95.72788,0.94878
254.906,17.7449,1.35956,95.72904,0.94851
255.406,17.75998,1.35993,95.71203,0.94823
255.906,17.77514,1.35834,95.69466,0.94796
256.406,17.7902,1.35959,95.69583,0.94769
256.906,17.80534,1.35995,95.69587,0.94742
257.406,17.8205,1.35819,95.69584,0.94715
257.906,17.8357,1.35825,95.69584,0.94687
258.406,17.85088,1.35852,95.69584,0.9466
258.906,17.866,1.35852,95.69584,0.94633
259.406,17.88114,1.35967,95.69585,0.94606
259.906,17.89627,1.36149,95.69579,0.94579
260.406,17.9114,1.36077,95.69564,0.94552
260.906,17.92649,1.36313,95.70105,0.94525
261.406,17.9416,1.36221,95.70274,0.94498
261.906,17.9567,1.36227,95.6953,0.94471
262.406,17.9718,1.36367,95.69583,0.94444
262.906,17.98689,1.36384,95.69552,0.94417
263.406,18.00194,1.36509,95.6939,0.9439
263.906,18.01705,1.36439,95.667,0.94363
264.406,18.03208,1.36709,95.6641,0.94336
264.906,18.04721,1.36927,95.66067,0.94309
265.406,18.0623,1.37138,95.62343,0.94282
265.906,18.07742,1.37102,95.62773,0.94256
266.406,18.09252,1.37428,95.60498,0.94229
266.906,18.10766,1.37558,95.59329,0.94202
267.406,18.12284,1.37611,95.5938,0.94175
267.906,18.13796,1.37669,95.59391,0.94149
268.406,18.15306,1.3811,95.594,0.94122
268.906,18.16814,1.38119,95.589,0.94095
269.406,18.1832,1.38223,95.5591,0.94068
269.906,18.1983,1.38295,95.56265,0.94042
270.406,18.21348,1.38539,95.53796,0.94015
270.906,18.2286,1.38692,95.52654,0.93989
271.406,18.24373,1.38791,95.52773,0.93962
271.906,18.25885,1.3918,95.5131,0.93935
272.406,18.27402,1.3925,95.49335,0.93909
272.906,18.28915,1.39433,95.49467,0.93882
273.406,18.30422,1.39956,95.4945,0.93856
273.906,18.31931,1.39989,95.4883,0.93829
274.406,18.33438,1.40235,95.4355,0.93803
274.906,18.34948,1.40533,95.4303,0.93776
275.406,18.36457,1.40778,95.43236,0.9375
275.906,18.37971,1.41134,95.4067,0.93724
276.406,18.3947,1.41279,95.3979,0.93697
276.906,18.4097,1.41389,95.39067,0.93671
277.406,18.42472,1.41663,95.3575,0.93644
277.906,18.43971,1.41664,95.36046,0.93618
278.406,18.45484,1.41993,95.36259,0.93592
278.906,18.4699,1.42146,95.33664,0.93565
279.406,18.4851,1.42593,95.3282,0.93539
279.906,18.5004,1.4293,95.3284,0.93513
280.406,18.51567,1.43209,95.32777,0.93487
280.906,18.5309,1.43513,95.32692,0.9346
281.406,18.54605,1.43702,95.29539,0.93434
281.906,18.5612,1.44237,95.29343,0.93408
282.406,18.5764,1.44617,95.2654,0.93382
282.906,18.59156,1.44557,95.2572,0.93356
283.406,18.60673,1.45276,95.24006,0.93329
283.906,18.6219,1.45475,95.22072,0.93303
284.406,18.63706,1.45767,95.2196,0.93277
284.906,18.6522,1.46133,95.21655,0.93251
285.406,18.6672,1.46407,95.19686,0.93225
285.906,18.68224,1.46678,95.1789,0.93199
286.406,18.69731,1.47087,95.1609,0.93173
286.906,18.71238,1.4764,95.14273,0.93147
287.406,18.72741,1.47911,95.1121,0.93121
287.906,18.74247,1.48322,95.1064,0.93095
288.406,18.7576,1.48539,95.07387,0.93069
288.906,18.77272,1.49153,95.07016,0.93043
289.406,18.78781,1.4956,95.04949,0.93017
289.906,18.80291,1.50049,95.0346,0.92991
290.406,18.81804,1.50628,95.01038,0.92965
290.906,18.83311,1.50974,94.9841,0.92939
291.406,18.84824,1.51638,94.94677,0.92914
291.906,18.8634,1.52128,94.93952,0.92888
292.406,18.87857,1.52933,94.89824,0.92862
292.906,18.89376,1.53476,94.8834,0.92836
293.406,18.9089,1.54076,94.8355,0.9281
293.906,18.9241,1.5489,94.81464,0.92784
294.406,18.93928,1.55397,94.7967,0.92759
294.906,18.95437,1.56131,94.7654,0.92733
295.406,18.96951,1.56974,94.7282,0.92707
295.906,18.98459,1.57798,94.69193,0.92681
296.406,18.99971,1.58264,94.6533,0.92656
296.906,19.0149,1.59136,94.6242,0.9263
297.406,19.03,1.59555,94.59365,0.92604
297.906,19.04522,1.60637,94.5658,0.92579
298.406,19.0604,1.61264,94.58793,0.92553
298.906,19.07559,1.62083,94.54892,0.92527
299.406,19.09074,1.62453,94.53751,0.92502
299.906,19.10591,1.63185,94.4988,0.92476
300.406,19.12108,1.64015,94.45206,0.92451
300.906,19.1362,1.64629,94.41666,0.92425
301.406,19.15142,1.65078,94.3886,0.92399
301.906,19.16658,1.65781,94.35811,0.92374
302.406,19.18178,1.6652,94.3216,0.92348
302.906,19.19698,1.67218,94.28886,0.92323
303.406,19.21217,1.68146,94.25605,0.92297
303.906,19.2273,1.68543,94.21,0.92272
304.406,19.24251,1.6899,94.1637,0.92246
304.906,19.2577,1.69602,94.14071,0.92221
305.406,19.27289,1.70268,94.0992,0.92195
305.906,19.28809,1.71152,94.06697,0.9217
306.406,19.30323,1.71486,94.03022,0.92145
306.906,19.31841,1.72427,93.98626,0.92119
307.406,19.3336,1.72677,93.94112,0.92094
307.906,19.3488,1.73555,93.89485,0.92068
308.406,19.36393,1.74028,93.85396,0.92043
308.906,19.37912,1.74377,93.8176,0.92018
309.406,19.39435,1.74829,93.77603,0.91992
309.906,19.4096,1.75478,93.7285,0.91967
310.406,19.42481,1.75942,93.68211,0.91942
310.906,19.44001,1.76499,93.62809,0.91916
311.406,19.45526,1.77034,93.58196,0.91891
311.906,19.47044,1.77737,93.54397,0.91866
312.406,19.48565,1.7787,93.48731,0.91841
312.906,19.50084,1.78764,93.4362,0.91815
313.406,19.516,1.79206,93.37216,0.9179
313.906,19.53122,1.79696,93.3253,0.91765
314.406,19.54635,1.80092,93.2769,0.9174
314.906,19.5615,1.8062,93.22135,0.91714
315.406,19.5767,1.8112,93.18274,0.91689
315.906,19.5919,1.81768,93.12692,0.91664
316.406,19.6071,1.82167,93.0693,0.91639
316.906,19.62239,1.82392,93.02794,0.91614
317.406,19.6377,1.83288,92.96494,0.91589
317.906,19.653,1.83633,92.90945,0.91563
318.406,19.66831,1.83985,92.85158,0.91538
318.906,19.6836,1.84653,92.7893,0.91513
319.406,19.69886,1.85427,92.73692,0.91488
319.906,19.71404,1.85706,92.6678,0.91463
320.406,19.72927,1.86235,92.6204,0.91438
320.906,19.7445,1.86876,92.56175,0.91413
321.406,19.75967,1.87363,92.48175,0.91388
321.906,19.77487,1.88137,92.43387,0.91363
322.406,19.7901,1.8863,92.36448,0.91338
322.906,19.80536,1.89483,92.30564,0.91313
323.406,19.82057,1.90106,92.25894,0.91288
323.906,19.8357,1.90991,92.1933,0.91263
324.406,19.851,1.91694,92.1395,0.91238
324.906,19.86626,1.92575,92.06545,0.91213
325.406,19.88154,1.93606,91.9914,0.91188
325.906,19.89676,1.94671,91.91115,0.91163
326.406,19.912,1.95486,91.82555,0.91138
326.906,19.92725,1.96546,91.77023,0.91113
327.406,19.9425,1.97905,91.6884,0.91088
327.906,19.95774,1.99012,91.60381,0.91063
328.406,19.97298,2.0045,91.5487,0.91038
328.906,19.98826,2.01567,91.46128,0.91013
329.406,20.00348,2.03184,91.38244,0.90988
329.906,20.0187,2.04747,91.3002,0.90963
330.406,20.03396,2.05974,91.19795,0.90938
330.906,20.04926,2.07833,91.119,0.90914
331.406,20.0645,2.09436,91.03543,0.90889
331.906,20.0797,2.11131,90.92456,0.90864
332.406,20.095,2.1312,90.81004,0.90839
332.906,20.11027,2.15258,90.70262,0.90814
333.406,20.12556,2.17059,90.58555,0.90789
333.906,20.14086,2.19214,90.49824,0.90764
334.406,20.15614,2.21546,90.391,0.9074
334.906,20.17146,2.23798,90.30355,0.90715
335.406,20.18683,2.26019,90.2196,0.9069
335.906,20.20215,2.28259,90.0808,0.90665
336.406,20.21746,2.3124,89.9805,0.9064
336.906,20.23272,2.33666,89.8658,0.90616
337.406,20.24805,2.36644,89.73416,0.90591
337.906,20.2634,2.39165,89.61191,0.90566
338.406,20.2787,2.42396,89.46197,0.90541
338.906,20.294,2.454,89.3477,0.90517
339.406,20.30931,2.48354,89.21558,0.90492
339.906,20.32467,2.51721,89.0557,0.90467
340.406,20.34,2.55251,88.92705,0.90442
340.906,20.35533,2.58794,88.75743,0.90418
341.406,20.37065,2.6235,88.60713,0.90393
341.906,20.38601,2.65977,88.44498,0.90368
342.406,20.40128,2.69956,88.24752,0.90344
342.906,20.4166,2.73785,88.10015,0.90319
343.406,20.43198,2.77951,87.91558,0.90294
343.906,20.44729,2.82143,87.705,0.90269
344.406,20.46268,2.86487,87.53559,0.90245
344.906,20.47805,2.90982,87.31356,0.9022
345.406,20.4936,2.9552,87.1271,0.90195
345.906,20.50899,3.0053,86.8939,0.90171
346.406,20.5244,3.0534,86.6375,0.90146
346.906,20.5397,3.10568,86.45005,0.90122
347.406,20.555,3.15512,86.20313,0.90097
347.906,20.5703,3.20923,85.97546,0.90072
348.406,20.58555,3.26341,85.73521,0.90048
348.906,20.60088,3.32233,85.44816,0.90023
349.406,20.61621,3.37763,85.23742,0.89998
349.906,20.63162,3.43688,84.97686,0.89974
350.406,20.6471,3.49826,84.70246,0.89949
350.906,20.66252,3.56109,84.44932,0.89925
351.406,20.67801,3.62642,84.11952,0.899
351.906,20.69352,3.69181,83.854,0.89875
352.406,20.70911,3.75903,83.55095,0.89851
352.906,20.72468,3.82875,83.21818,0.89826
353.406,20.74026,3.89781,82.94123,0.89802
353.906,20.75583,3.96889,82.5886,0.89777
354.406,20.77137,4.04278,82.29403,0.89752
354.906,20.78686,4.11517,81.99898,0.89728
355.406,20.80237,4.18985,81.60109,0.89703
355.906,20.81789,4.26417,81.27964,0.89679
356.406,20.83338,4.34536,80.87244,0.89654
356.906,20.84893,4.42395,80.48782,0.8963
357.406,20.86451,4.5047,80.11655,0.89605
357.906,20.88005,4.58454,79.65472,0.89581
358.406,20.89561,4.66366,79.3019,0.89556
358.906,20.91116,4.74552,78.86171,0.89531
359.406,20.92676,4.83438,78.40173,0.89507
359.906,20.94233,4.91847,77.9748,0.89482
360.406,20.95785,5.00377,77.47299,0.89458
360.906,20.97341,5.09162,77.06956,0.89433
361.406,20.98893,5.17667,76.5941,0.89409
361.906,21.00456,5.26705,76.0558,0.89384
362.406,21.02016,5.35617,75.6149,0.8936
362.906,21.0358,5.44596,75.0496,0.89335
363.406,21.05142,5.53553,74.5705,0.89311
363.906,21.06713,5.62943,74.04866,0.89286
364.406,21.0828,5.72095,73.4409,0.89262
364.906,21.09846,5.81348,72.97536,0.89237
365.406,21.1141,5.90466,72.37869,0.89213
365.906,21.1297,5.99807,71.84161,0.89188
366.406,21.14538,6.08962,71.28118,0.89164
366.906,21.16098,6.18283,70.59447,0.89139
367.406,21.17665,6.27313,70.07084,0.89115
367.906,21.19233,6.36548,69.41657,0.8909
368.406,21.20805,6.45547,68.75179,0.89066
368.906,21.22379,6.54548,68.14958,0.89041
369.406,21.2395,6.63635,67.40191,0.89017
369.906,21.25524,6.72447,66.8316,0.88992
370.406,21.271,6.81314,66.138,0.88968
370.906,21.28663,6.89597,65.41896,0.88943
371.406,21.3023,6.9777,64.78141,0.88919
371.906,21.31806,7.05676,63.9772,0.88894
372.406,21.33367,7.13167,63.3394,0.8887
372.906,21.34927,7.20396,62.62034,0.88845
373.406,21.36495,7.27322,61.81415,0.88821
373.906,21.38073,7.34089,61.1464,0.88796
374.406,21.39649,7.4031,60.2943,0.88772
374.906,21.41226,7.4585,59.60705,0.88747
375.406,21.42813,7.51243,58.8494,0.88723
375.906,21.44397,7.56975,57.98307,0.88698
376.406,21.45976,7.63074,57.28261,0.88674
376.906,21.47545,7.67811,56.40308,0.88649
377.406,21.49117,7.72208,55.66242,0.88625
377.906,21.50693,7.76099,54.8777,0.886
378.406,21.52269,7.80776,53.9621,0.88576
378.906,21.53848,7.86118,53.25009,0.88551
379.406,21.55419,7.90384,52.36,0.88527
379.906,21.56994,7.93918,51.56641,0.88502
380.406,21.5856,7.97871,50.77255,0.88478
380.906,21.60136,8.01062,49.82658,0.88453
381.406,21.61709,8.03746,49.1169,0.88429
381.906,21.63285,8.06359,48.23422,0.88404
382.406,21.64862,8.07691,47.39485,0.8838
382.906,21.6644,8.07947,46.5936,0.88355
383.406,21.68009,8.06617,45.6109,0.88331
383.906,21.69581,8.05884,44.8809,0.88306
384.406,21.71154,8.05039,43.99568,0.88282
384.906,21.7272,8.05328,43.1281,0.88257
385.406,21.74289,8.03877,42.35003,0.88233
385.906,21.75856,8.02538,41.38337,0.88208
386.406,21.77427,8.00973,40.6401,0.88184
386.906,21.78989,7.97353,39.77875,0.88159
387.406,21.8055,8.03917,38.86675,0.88135
387.906,21.82122,8.02446,38.1175,0.8811
388.406,21.83691,7.95756,37.17053,0.88086
388.906,21.85255,7.99013,36.42629,0.88061
389.406,21.86819,7.95981,35.6037,0.88037
389.906,21.88385,7.88763,34.6815,0.88012
390.406,21.8995,7.82567,33.9544,0.87988
390.906,21.91509,7.75786,33.03842,0.87963
391.406,21.93068,7.68436,32.26765,0.87939
391.906,21.94632,7.66173,31.4792,0.87914
392.406,21.96196,7.61722,30.5557,0.8789
392.906,21.97754,7.59558,29.86467,0.87865
393.406,21.99315,7.55143,29.014,0.87841
393.906,22.00875,7.47297,28.23518,0.87816
394.406,22.02437,7.42926,27.49587,0.87792
394.906,22.03988,7.37319,26.5994,0.87767
395.406,22.05546,7.30489,25.92858,0.87742
395.906,22.07103,7.22773,25.11909,0.87718
396.406,22.08653,7.15832,24.31254,0.87693
396.906,22.10207,7.08542,23.62236,0.87669
397.406,22.11758,6.99381,22.77848,0.87644
397.906,22.13315,6.90988,22.1296,0.8762
398.406,22.14868,6.80896,21.39532,0.87595
398.906,22.1642,6.70576,20.591,0.8757
399.406,22.17969,6.6009,19.9645,0.87546
399.906,22.19513,6.49245,19.1932,0.87521
400.406,22.21056,6.37551,18.5487,0.87497
400.906,22.226,6.25894,17.90204,0.87472
401.406,22.2414,6.13406,17.1595,0.87447
401.906,22.25681,6.00366,16.59897,0.87423
402.406,22.27224,5.87364,15.9477,0.87398
402.906,22.2877,5.73763,15.3226,0.87374
403.406,22.30315,5.60042,14.7336,0.87349
403.906,22.31855,5.4605,14.01051,0.87324
404.406,22.33394,5.32216,13.48499,0.873
404.906,22.3493,5.18522,12.90697,0.87275
405.406,22.3647,5.04395,12.31809,0.8725
405.906,22.38,4.89834,11.85337,0.87226
406.406,22.39536,4.76037,11.2859,0.87201
406.906,22.41072,4.62295,10.8184,0.87176
407.406,22.42606,4.48026,10.34618,0.87152
407.906,22.44138,4.3385,9.79301,0.87127
408.406,22.45668,4.21236,9.39651,0.87102
408.906,22.472,4.07917,8.9338,0.87078
409.406,22.48726,3.9449,8.50143,0.87053
409.906,22.50255,3.80973,8.13329,0.87028
410.406,22.51785,3.68469,7.68851,0.87004
410.906,22.53315,3.56171,7.36099,0.86979
411.406,22.54841,3.43813,6.99807,0.86954
411.906,22.56373,3.31756,6.5929,0.86929
412.406,22.57899,3.194,6.28822,0.86905
412.906,22.59425,3.08259,5.91732,0.8688
413.406,22.60953,2.96651,5.61597,0.86855
413.906,22.62484,2.85499,5.32987,0.8683
414.406,22.64016,2.74413,4.99407,0.86806
414.906,22.65542,2.63412,4.74722,0.86781
415.406,22.6707,2.52913,4.46214,0.86756
415.906,22.68597,2.4253,4.18313,0.86731
416.406,22.70123,2.3222,3.9584,0.86707
416.906,22.7165,2.2238,3.68934,0.86682
417.406,22.73175,2.12689,3.48085,0.86657
417.906,22.74708,2.03168,3.25807,0.86632
418.406,22.7624,1.94048,3.01224,0.86607
418.906,22.77777,1.84965,2.82294,0.86582
419.406,22.79309,1.76185,2.60098,0.86558
419.906,22.8084,1.68121,2.41307,0.86533
420.406,22.82375,1.59764,2.24861,0.86508
420.906,22.839,1.521,2.05506,0.86483
421.406,22.8543,1.44212,1.91986,0.86458
421.906,22.8696,1.37063,1.76476,0.86433
422.406,22.88494,1.29947,1.60361,0.86408
422.906,22.90025,1.23447,1.47884,0.86384
423.406,22.9156,1.16645,1.32489,0.86359
423.906,22.93094,1.10331,1.20944,0.86334
424.406,22.94631,1.04181,1.09773,0.86309
424.906,22.96171,0.98487,0.99186,0.86284
425.406,22.97703,0.92734,0.92043,0.86259
425.906,22.99243,0.87863,0.82665,0.86234
426.406,23.00783,0.82675,0.71601,0.86209
426.906,23.02318,0.77822,0.61695,0.86184
427.406,23.0385,0.73307,0.49122,0.86159
427.906,23.05387,0.68964,0.41339,0.86134
428.406,23.06929,0.64573,0.32194,0.86109
428.906,23.08468,0.60585,0.23699,0.86084
429.406,23.10005,0.56604,0.19609,0.86059
429.906,23.1155,0.53163,0.12998,0.86034
430.406,23.131,0.49804,0.05595538,0.86009
430.906,23.14641,0.46612,0.00501303,0.85984
431.406,23.16185,0.43274,-0.05503253,0.85959
431.906,23.1773,0.40256,-0.10923,0.85934
432.406,23.19276,0.37677,-0.1396,0.85909
432.906,23.20823,0.35001,-0.17847,0.85884
433.406,23.22366,0.32502,-0.23238,0.85858
433.906,23.23912,0.29871,-0.28098,0.85833
434.406,23.2546,0.27745,-0.31542,0.85808
434.906,23.27009,0.25649,-0.3724,0.85783
435.406,23.2856,0.23582,-0.41626,0.85758
435.906,23.3011,0.21531,-0.4599,0.85733
436.406,23.31665,0.198,-0.49243,0.85708
436.906,23.33217,0.18132,-0.50768,0.85682
437.406,23.3477,0.16559,-0.54865,0.85657
437.906,23.36327,0.14647,-0.55605,0.85632
438.406,23.37885,0.1335,-0.58635,0.85607
438.906,23.39444,0.11882,-0.61124,0.85582
439.406,23.41006,0.10679,-0.62965,0.85556
439.906,23.42567,0.09405021,-0.67316,0.85531
440.406,23.44124,0.08257941,-0.67701,0.85506
440.906,23.4568,0.07029525,-0.70851,0.85481
441.406,23.4724,0.05941265,-0.70941,0.85455
441.906,23.48794,0.04901489,-0.72131,0.8543
442.406,23.50349,0.04094924,-0.74926,0.85405
442.906,23.51908,0.03159346,-0.75345,0.85379
443.406,23.5347,0.02236028,-0.78874,0.85354
443.906,23.55027,0.01756088,-0.7857,0.85329
444.406,23.56587,0.008942947,-0.84652,0.85303
444.906,23.58149,0.001273535,-0.85405,0.85278
445.406,23.59711,-0.004174485,-0.86517,0.85253
445.906,23.61274,-0.01140642,-0.88813,0.85227
446.406,23.6284,-0.01899315,-0.88737,0.85202
446.906,23.6441,-0.02204228,-0.89587,0.85177
447.406,23.6598,-0.02576149,-0.91928,0.85151
447.906,23.67545,-0.03066126,-0.91759,0.85126
448.406,23.6911,-0.03260163,-0.93638,0.851
448.906,23.70674,-0.03879336,-0.93515,0.85075
449.406,23.72241,-0.04143493,-0.93544,0.85049
449.906,23.73806,-0.04528088,-0.93539,0.85024
450.406,23.75371,-0.05150751,-0.93454,0.84998
450.906,23.76934,-0.0522057,-0.95002,0.84973
451.406,23.785,-0.05378424,-0.96865,0.84947
451.906,23.80068,-0.06000534,-0.96747,0.84922
452.406,23.81634,-0.06013384,-0.96879,0.84896
452.906,23.83205,-0.05897238,-0.94752,0.8487
453.406,23.8477,-0.0647778,-0.96266,0.84845
453.906,23.86347,-0.0599916,-0.96677,0.84819
454.406,23.87925,-0.06154242,-0.96751,0.84794
454.906,23.8949,-0.06211058,-0.96749,0.84768
455.406,23.91064,-0.05749468,-0.96748,0.84742
455.906,23.92635,-0.05489266,-0.96748,0.84717
456.406,23.9421,-0.05477457,-0.96748,0.84691
456.906,23.95777,-0.05048219,-0.96748,0.84665
457.406,23.97341,-0.04843806,-0.96748,0.8464
457.906,23.9892,-0.04823595,-0.97372,0.84614
458.406,24.00491,-0.05098382,-0.99094,0.84588
458.906,24.02064,-0.04912295,-0.96748,0.84562
459.406,24.03641,-0.05337497,-0.96749,0.84537
459.906,24.0522,-0.05328773,-0.96753,0.84511
460.406,24.06802,-0.05983093,-0.96716,0.84485
460.906,24.0838,-0.05990436,-0.98221,0.84459
461.406,24.0996,-0.06507602,-0.99183,0.84434
461.906,24.1155,-0.07018136,-0.99614,0.84408
462.406,24.13116,-0.07254577,-0.99932,0.84382
462.906,24.14697,-0.07733405,-1.01028,0.84356
463.406,24.16279,-0.08312295,-1.0384,0.8433
463.906,24.17857,-0.08664117,-1.06353,0.84304
464.406,24.19442,-0.09106347,-1.06375,0.84278
464.906,24.21023,-0.09816382,-1.06382,0.84252
465.406,24.22617,-0.10264,-1.06382,0.84226
465.906,24.24201,-0.10592,-1.06382,0.842
466.406,24.25788,-0.10882,-1.06382,0.84174
466.906,24.2738,-0.11581,-1.06382,0.84148
467.406,24.28961,-0.1168,-1.06382,0.84122
467.906,24.30546,-0.11993,-1.06382,0.84096
468.406,24.3214,-0.12134,-1.06382,0.8407
468.906,24.33719,-0.12433,-1.06382,0.84044
469.406,24.35304,-0.12494,-1.06387,0.84018
469.906,24.36891,-0.12558,-1.06364,0.83992
470.406,24.38482,-0.12837,-1.05765,0.83966
470.906,24.40071,-0.12924,-1.03132,0.8394
471.406,24.41662,-0.13056,-1.032,0.83914
471.906,24.43254,-0.12762,-1.0318,0.83888
472.406,24.44843,-0.12619,-1.03178,0.83861
472.906,24.46432,-0.12715,-1.03182,0.83835
473.406,24.48023,-0.12774,-1.0318,0.83809
473.906,24.4962,-0.12799,-1.02944,0.83783
474.406,24.51204,-0.12721,-1.0592,0.83757
474.906,24.52799,-0.12756,-1.06389,0.8373
475.406,24.5439,-0.12584,-1.06383,0.83704
475.906,24.55976,-0.12441,-1.06382,0.83678
476.406,24.57564,-0.12424,-1.06382,0.83651
476.906,24.59151,-0.12457,-1.06382,0.83625
477.406,24.60739,-0.12237,-1.06382,0.83599
477.906,24.6233,-0.12242,-1.06382,0.83572
478.406,24.6392,-0.12119,-1.06382,0.83546
478.906,24.6552,-0.12123,-1.06382,0.8352
479.406,24.6711,-0.11637,-1.06382,0.83493
479.906,24.6871,-0.11877,-1.06381,0.83467
480.406,24.70301,-0.11446,-1.06375,0.8344
480.906,24.71895,-0.11126,-1.06402,0.83414
481.406,24.73486,-0.11313,-1.0711,0.83387
481.906,24.75083,-0.10971,-1.09533,0.83361
482.406,24.76679,-0.1086,-1.08867,0.83334
482.906,24.78274,-0.1086,-1.11352,0.83308
483.406,24.7987,-0.10609,-1.1124,0.83281
483.906,24.81468,-0.10726,-1.11245,0.83255
484.406,24.83063,-0.10182,-1.11247,0.83228
484.906,24.84654,-0.10368,-1.11247,0.83201
485.406,24.8625,-0.10032,-1.11247,0.83175
485.906,24.8784,-0.09913921,-1.11247,0.83148
486.406,24.8944,-0.09599807,-1.11247,0.83121
486.906,24.9103,-0.09671797,-1.11247,0.83095
487.406,24.92633,-0.09388496,-1.11247,0.83068
487.906,24.94225,-0.09414141,-1.11247,0.83041
488.406,24.95824,-0.09404958,-1.11247,0.83014
488.906,24.97423,-0.09105254,-1.11247,0.82988
489.406,24.99019,-0.08814253,-1.11247,0.82961
489.906,25.00611,-0.09075761,-1.11246,0.82934
490.406,25.022,-0.08754727,-1.1124,0.82907
490.906,25.03802,-0.08783688,-1.11297,0.8288
491.406,25.05394,-0.08691081,-1.12078,0.82854
491.906,25.06983,-0.08582978,-1.14448,0.82827
492.406,25.0858,-0.0850673,-1.14445,0.828
492.906,25.10179,-0.08326793,-1.14448,0.82773
493.406,25.1178,-0.08371407,-1.14457,0.82746
493.906,25.13379,-0.08235001,-1.14546,0.82719
494.406,25.1497,-0.08211159,-1.12888,0.82692
494.906,25.1658,-0.08295023,-1.1114,0.82665
495.406,25.18177,-0.08103961,-1.11229,0.82638
495.906,25.1978,-0.07954466,-1.11356,0.82611
496.406,25.2137,-0.07928728,-1.0889,0.82584
496.906,25.22975,-0.08087601,-1.08014,0.82557
497.406,25.24573,-0.07935519,-1.08012,0.8253
497.906,25.26172,-0.08061787,-1.08019,0.82502
498.406,25.27767,-0.07693905,-1.08018,0.82475
498.906,25.29368,-0.07524346,-1.08003,0.82448
499.406,25.30971,-0.07602716,-1.08034,0.82421
499.906,25.32574,-0.07529465,-1.0714,0.82394
500.406,25.3417,-0.07475801,-1.07208,0.82366
500.906,25.3578,-0.07316526,-1.07214,0.82339
501.406,25.3739,-0.07019764,-1.07211,0.82312
501.906,25.38997,-0.07186193,-1.07213,0.82285
502.406,25.40595,-0.06899918,-1.0734,0.82257
502.906,25.42201,-0.06799164,-1.05191,0.8223
503.406,25.43806,-0.06540869,-1.03938,0.82203
503.906,25.4541,-0.06384384,-1.0399,0.82175
504.406,25.47007,-0.06563858,-1.03989,0.82148
504.906,25.4861,-0.06264328,-1.02565,0.8212
505.406,25.50212,-0.05975566,-1.00768,0.82093
505.906,25.51813,-0.06000328,-1.00782,0.82065
506.406,25.53418,-0.05817395,-1.00763,0.82038
506.906,25.55019,-0.0562001,-1.00772,0.8201
507.406,25.5663,-0.05648604,-0.9991,0.81983
507.906,25.5823,-0.05621833,-0.9997,0.81955
508.406,25.59835,-0.05391061,-0.99976,0.81928
508.906,25.61443,-0.05055257,-0.99975,0.819
509.406,25.63051,-0.05205229,-0.99974,0.81873
509.906,25.64656,-0.04879883,-1.00009,0.81845
510.406,25.6626,-0.04781251,-1.0025,0.81817
510.906,25.67868,-0.04751077,-1.0306,0.8179
511.406,25.6947,-0.04513472,-1.03145,0.81762
511.906,25.7107,-0.04332009,-1.03177,0.81734
512.406,25.7268,-0.04089107,-1.03178,0.81706
512.906,25.74285,-0.04121948,-1.03178,0.81679
513.406,25.75892,-0.04142724,-1.03178,0.81651
513.906,25.77496,-0.03995268,-1.03178,0.81623
514.406,25.79116,-0.03986174,-1.03178,0.81595
514.906,25.8072,-0.04079334,-1.03177,0.81567
515.406,25.82327,-0.03829015,-1.03166,0.81539
515.906,25.8394,-0.03513566,-1.03867,0.81511
516.406,25.8555,-0.03698434,-1.06613,0.81483
516.906,25.8716,-0.03572734,-1.06418,0.81455
517.406,25.88764,-0.032859,-1.06404,0.81427
517.906,25.9038,-0.03428502,-1.0641,0.81399
518.406,25.91977,-0.03191157,-1.06404,0.81371
518.906,25.93587,-0.03097018,-1.06149,0.81343
519.406,25.95196,-0.03113052,-1.09009,0.81315
519.906,25.968,-0.03113836,-1.08775,0.81287
520.406,25.98409,-0.03080132,-1.08797,0.81259
520.906,26.00018,-0.02821584,-1.08802,0.81231
521.406,26.01635,-0.02894603,-1.08802,0.81203
521.906,26.0324,-0.03177024,-1.08802,0.81175
522.406,26.04853,-0.02792457,-1.08802,0.81146
522.906,26.06465,-0.02701599,-1.08802,0.81118
523.406,26.08077,-0.02679865,-1.08802,0.8109
523.906,26.09685,-0.02523061,-1.08796,0.81062
524.406,26.11295,-0.02692938,-1.08751,0.81033
524.906,26.12904,-0.02069939,-1.09552,0.81005
525.406,26.14511,-0.02490196,-1.09587,0.80977
525.906,26.16123,-0.02408577,-1.09608,0.80948
526.406,26.1773,-0.02591623,-1.09608,0.8092
526.906,26.19347,-0.02332297,-1.09597,0.80891
527.406,26.2096,-0.02213991,-1.10331,0.80863
527.906,26.2257,-0.02507797,-1.13036,0.80834
528.406,26.2418,-0.02217336,-1.12847,0.80806
528.906,26.25794,-0.02070356,-1.12848,0.80777
529.406,26.27405,-0.01836041,-1.11003,0.80749
529.906,26.2902,-0.01987648,-1.09615,0.8072
530.406,26.30633,-0.02135131,-1.09597,0.80692
530.906,26.3225,-0.01810051,-1.09608,0.80663
531.406,26.3386,-0.01703065,-1.09606,0.80634
531.906,26.3547,-0.01639815,-1.09551,0.80606
532.406,26.3708,-0.01679639,-1.09484,0.80577
532.906,26.38693,-0.01688408,-1.06445,0.80548
533.406,26.403,-0.01554613,-1.06389,0.80519
533.906,26.4192,-0.01471908,-1.06374,0.80491
534.406,26.43525,-0.013954,-1.0615,0.80462
534.906,26.45144,-0.01415822,-1.09058,0.80433
535.406,26.4676,-0.01340662,-1.10025,0.80404
535.906,26.4837,-0.01272337,-1.13074,0.80375
536.406,26.49982,-0.01440935,-1.12834,0.80346
536.906,26.51595,-0.01197811,-1.12832,0.80317
537.406,26.5321,-0.01220213,-1.12836,0.80288
537.906,26.5483,-0.01277335,-1.12836,0.80259
538.406,26.5645,-0.009409826,-1.12836,0.8023
538.906,26.5807,-0.00990446,-1.12835,0.80201
539.406,26.5968,-0.00905994,-1.12852,0.80172
539.906,26.61293,-0.01028474,-1.11305,0.80143
540.406,26.6294,-0.009755903,-1.09587,0.80114
540.906,26.6457,-0.00863419,-1.09595,0.80085
541.406,26.66218,-0.007735638,-1.09608,0.80056
541.506,26.66488,-0.006647563,-1.09608,0.8005