File: 01_Data/Black_PMMA/STA/30K_min/Black_PMMA_STA_N2_30KData_220214_R1.csv
##Temp./Â°C,Time/min,DSC(subtr.2)/(mW/mg),Mass(subtr.2)/%,Sensit./(uV/mW)
48.949,10.00917,0.001380782,99.23818,1.08876
49.449,10.49398,0.0350382,99.22051,1.08834
49.949,10.60249,0.06302489,99.2127,1.08792
50.449,10.682,0.08914493,99.19965,1.0875
50.949,10.74728,0.11569,99.24422,1.08708
51.449,10.80237,0.13898,99.24374,1.08666
51.949,10.8515,0.16175,99.2503,1.08624
52.449,10.897,0.18122,99.26845,1.08582
52.949,10.93856,0.20367,99.2531,1.0854
53.449,10.9766,0.22156,99.28094,1.08498
53.949,11.01257,0.23834,99.29548,1.08456
54.449,11.04691,0.25631,99.28205,1.08414
54.949,11.07966,0.27163,99.28121,1.08373
55.449,11.1111,0.28891,99.26858,1.08331
55.949,11.14138,0.3044,99.23722,1.08289
56.449,11.1707,0.31908,99.2355,1.08248
56.949,11.1991,0.33409,99.2355,1.08206
57.449,11.2265,0.34752,99.2397,1.08165
57.949,11.25295,0.36135,99.24946,1.08123
58.449,11.27876,0.37558,99.23862,1.08082
58.949,11.30453,0.38674,99.2251,1.0804
59.449,11.32958,0.40006,99.23014,1.07999
59.949,11.35473,0.41205,99.23743,1.07958
60.449,11.37889,0.42229,99.23268,1.07916
60.949,11.4025,0.43619,99.21255,1.07875
61.449,11.42592,0.44612,99.19406,1.07834
61.949,11.44877,0.457,99.1946,1.07793
62.449,11.47135,0.46665,99.19428,1.07752
62.949,11.4937,0.47637,99.20626,1.07711
63.449,11.51577,0.48559,99.22756,1.0767
63.949,11.53758,0.49338,99.25928,1.07629
64.449,11.55916,0.50477,99.2894,1.07588
64.949,11.58028,0.51355,99.28017,1.07547
65.449,11.6014,0.52247,99.23051,1.07506
65.949,11.6223,0.5315,99.20725,1.07465
66.449,11.64304,0.54201,99.19841,1.07425
66.949,11.66356,0.54736,99.2076,1.07384
67.449,11.68399,0.55845,99.22006,1.07343
67.949,11.7041,0.56675,99.23119,1.07303
68.449,11.7241,0.57401,99.2393,1.07262
68.949,11.74405,0.58152,99.2222,1.07222
69.449,11.7639,0.58857,99.2116,1.07181
69.949,11.7836,0.59614,99.20959,1.07141
70.449,11.8033,0.60351,99.2101,1.071
70.949,11.82268,0.6097,99.19194,1.0706
71.449,11.84202,0.61853,99.19657,1.0702
71.949,11.8614,0.62584,99.2033,1.06979
72.449,11.8805,0.63223,99.21847,1.06939
72.949,11.89955,0.63915,99.19802,1.06899
73.449,11.9186,0.6472,99.20764,1.06859
73.949,11.93743,0.65371,99.21929,1.06819
74.449,11.95612,0.66087,99.2646,1.06779
74.949,11.97494,0.66707,99.28023,1.06739
75.449,11.9936,0.67247,99.28886,1.06699
75.949,12.0123,0.67996,99.27755,1.06659
76.449,12.03082,0.6833,99.29345,1.06619
76.949,12.04933,0.69209,99.27883,1.06579
77.449,12.0677,0.69902,99.27333,1.06539
77.949,12.08608,0.704,99.2671,1.065
78.449,12.1044,0.71086,99.25234,1.0646
78.949,12.12266,0.71484,99.27006,1.0642
79.449,12.14086,0.72242,99.2471,1.06381
79.949,12.15897,0.73009,99.2569,1.06341
80.449,12.17698,0.7362,99.2337,1.06301
80.949,12.19495,0.74234,99.2218,1.06262
81.449,12.2127,0.74778,99.20321,1.06223
81.949,12.2304,0.7518,99.2388,1.06183
82.449,12.24817,0.75843,99.20088,1.06144
82.949,12.2662,0.76174,99.2341,1.06104
83.449,12.2841,0.76554,99.21037,1.06065
83.949,12.3021,0.77141,99.23971,1.06026
84.449,12.32,0.77435,99.24861,1.05987
84.949,12.33784,0.77865,99.26075,1.05948
85.449,12.35533,0.7806,99.2371,1.05908
85.949,12.3728,0.78234,99.23733,1.05869
86.449,12.39027,0.78632,99.2325,1.0583
86.949,12.40753,0.78834,99.23448,1.05791
87.449,12.42483,0.79099,99.2276,1.05752
87.949,12.4423,0.79072,99.2379,1.05714
88.449,12.4597,0.7907,99.26742,1.05675
88.949,12.4771,0.79172,99.24118,1.05636
89.449,12.4948,0.79306,99.27249,1.05597
89.949,12.5124,0.79438,99.24569,1.05558
90.449,12.52966,0.79191,99.26106,1.0552
90.949,12.54693,0.79348,99.2821,1.05481
91.449,12.56415,0.79545,99.28141,1.05442
91.949,12.58133,0.79451,99.28135,1.05404
92.449,12.5985,0.79606,99.28107,1.05365
92.949,12.61563,0.79623,99.2689,1.05327
93.449,12.63283,0.79821,99.28075,1.05288
93.949,12.64995,0.79894,99.27878,1.0525
94.449,12.66708,0.7992,99.2501,1.05212
94.949,12.68418,0.80029,99.2693,1.05173
95.449,12.70125,0.80312,99.281,1.05135
95.949,12.71833,0.80509,99.28027,1.05097
96.449,12.7354,0.80448,99.31026,1.05059
96.949,12.7525,0.8068,99.27885,1.05021
97.449,12.76949,0.80807,99.28126,1.04983
97.949,12.78645,0.81056,99.27756,1.04945
98.449,12.80349,0.81074,99.24675,1.04906
98.949,12.82046,0.81437,99.2492,1.04869
99.449,12.8373,0.81593,99.23647,1.04831
99.949,12.85422,0.81907,99.21305,1.04793
100.449,12.8713,0.82213,99.24405,1.04755
100.949,12.88818,0.82185,99.2181,1.04717
101.449,12.9051,0.82625,99.2158,1.04679
101.949,12.92205,0.82899,99.2384,1.04642
102.449,12.93903,0.83193,99.24879,1.04604
102.949,12.9559,0.83169,99.24825,1.04566
103.449,12.9728,0.83184,99.2417,1.04529
103.949,12.98964,0.83764,99.21718,1.04491
104.449,13.0065,0.83998,99.24853,1.04454
104.949,13.02342,0.8426,99.24894,1.04416
105.449,13.04026,0.84535,99.24891,1.04379
105.949,13.05713,0.84604,99.25058,1.04341
106.449,13.074,0.84959,99.23421,1.04304
106.949,13.0909,0.85292,99.24914,1.04267
107.449,13.10762,0.85572,99.24861,1.0423
107.949,13.12451,0.85813,99.2465,1.04192
108.449,13.14135,0.86017,99.2769,1.04155
108.949,13.15821,0.86294,99.27498,1.04118
109.449,13.17511,0.86588,99.24709,1.04081
109.949,13.19198,0.87028,99.24883,1.04044
110.449,13.2087,0.87259,99.24905,1.04007
110.949,13.22551,0.87605,99.25068,1.0397
111.449,13.2421,0.87744,99.23054,1.03933
111.949,13.2587,0.88244,99.24067,1.03896
112.449,13.27546,0.88406,99.24074,1.03859
112.949,13.2923,0.88745,99.24087,1.03822
113.449,13.309,0.88952,99.2409,1.03786
113.949,13.3258,0.89588,99.24105,1.03749
114.449,13.34273,0.90074,99.24257,1.03712
114.949,13.35943,0.90201,99.21596,1.03676
115.449,13.3761,0.90655,99.2085,1.03639
115.949,13.39281,0.91031,99.21114,1.03603
116.449,13.40954,0.91698,99.21645,1.03566
116.949,13.4262,0.91867,99.18785,1.0353
117.449,13.4429,0.92337,99.21449,1.03493
117.949,13.4596,0.92623,99.2165,1.03457
118.449,13.47631,0.93101,99.2165,1.0342
118.949,13.49296,0.93734,99.2165,1.03384
119.449,13.50959,0.93982,99.21653,1.03348
119.949,13.5263,0.94652,99.21528,1.03312
120.449,13.5429,0.95029,99.24016,1.03275
120.949,13.55954,0.95551,99.2489,1.03239
121.449,13.5761,0.96308,99.2226,1.03203
121.949,13.5929,0.96597,99.21714,1.03167
122.449,13.6095,0.97273,99.21651,1.03131
122.949,13.62605,0.97735,99.2165,1.03095
123.449,13.6426,0.98344,99.21647,1.03059
123.949,13.6591,0.98934,99.2165,1.03023
124.449,13.6757,0.9941,99.1914,1.02987
124.949,13.6922,1.0015,99.18485,1.02952
125.449,13.7087,1.00791,99.18422,1.02916
125.949,13.72515,1.01499,99.18427,1.0288
126.449,13.7417,1.02108,99.18456,1.02844
126.949,13.7582,1.02855,99.18312,1.02809
127.449,13.7747,1.03434,99.21545,1.02773
127.949,13.7912,1.0386,99.2166,1.02737
128.449,13.80768,1.04697,99.2176,1.02702
128.949,13.82409,1.05055,99.1909,1.02666
129.449,13.8405,1.05864,99.18445,1.02631
129.949,13.8568,1.06377,99.18418,1.02596
130.449,13.8731,1.06829,99.18409,1.0256
130.949,13.8895,1.07447,99.18412,1.02525
131.449,13.90584,1.07763,99.2003,1.0249
131.949,13.9222,1.08124,99.21692,1.02454
132.449,13.9385,1.08813,99.21673,1.02419
132.949,13.955,1.08972,99.2161,1.02384
133.449,13.97135,1.09671,99.2127,1.02349
133.949,13.9876,1.10119,99.18445,1.02314
134.449,14.004,1.10592,99.18428,1.02279
134.949,14.02033,1.10847,99.18424,1.02244
135.449,14.03667,1.11222,99.18424,1.02209
135.949,14.0529,1.1142,99.18424,1.02174
136.449,14.06921,1.1212,99.18424,1.02139
136.949,14.0854,1.12418,99.18423,1.02104
137.449,14.1016,1.128,99.18421,1.02069
137.949,14.11784,1.1301,99.18434,1.02034
138.449,14.1341,1.13202,99.16335,1.02
138.949,14.1503,1.13515,99.15207,1.01965
139.449,14.1665,1.13675,99.1516,1.0193
139.949,14.18268,1.14277,99.15171,1.01896
140.449,14.1989,1.14371,99.15172,1.01861
140.949,14.2151,1.14963,99.15172,1.01826
141.449,14.2312,1.15078,99.15172,1.01792
141.949,14.2473,1.15124,99.15172,1.01757
142.449,14.2634,1.15591,99.15172,1.01723
142.949,14.27948,1.15835,99.15172,1.01689
143.449,14.29558,1.16399,99.15177,1.01654
143.949,14.3117,1.16406,99.15205,1.0162
144.449,14.32785,1.1685,99.14496,1.01586
144.949,14.3439,1.17151,99.13497,1.01551
145.449,14.35994,1.17322,99.1357,1.01517
145.949,14.37602,1.17623,99.124,1.01483
146.449,14.39201,1.18055,99.1199,1.01449
146.949,14.40801,1.18226,99.1194,1.01415
147.449,14.42399,1.18402,99.11945,1.01381
147.949,14.44,1.18808,99.11946,1.01347
148.449,14.45609,1.18857,99.11941,1.01313
148.949,14.47205,1.19123,99.11909,1.01279
149.449,14.48802,1.18972,99.12076,1.01245
149.949,14.50395,1.19637,99.0887,1.01211
150.449,14.5199,1.19689,99.087,1.01177
150.949,14.5358,1.20131,99.08694,1.01144
151.449,14.55171,1.20319,99.08694,1.0111
151.949,14.5676,1.20483,99.087,1.01076
152.449,14.58356,1.20767,99.08749,1.01042
152.949,14.59955,1.20996,99.07842,1.01009
153.449,14.61546,1.21139,99.07085,1.00975
153.949,14.63134,1.21435,99.06028,1.00942
154.449,14.64729,1.2174,99.05434,1.00908
154.949,14.6633,1.22206,99.0563,1.00875
155.449,14.67915,1.22095,99.03009,1.00841
155.949,14.69496,1.22387,99.02179,1.00808
156.449,14.7108,1.22743,99.02194,1.00774
156.949,14.72661,1.22972,99.02161,1.00741
157.449,14.7424,1.23093,99.01823,1.00708
157.949,14.75818,1.23454,98.9903,1.00675
158.449,14.7741,1.23778,98.9897,1.00641
158.949,14.79,1.23986,98.98942,1.00608
159.449,14.80587,1.24312,98.9894,1.00575
159.949,14.8217,1.24553,98.9894,1.00542
160.449,14.83753,1.24899,98.9894,1.00509
160.949,14.85335,1.2508,98.9894,1.00476
161.449,14.86917,1.25368,98.9894,1.00443
161.949,14.8849,1.25881,98.9894,1.0041
162.449,14.90066,1.25968,98.9894,1.00377
162.949,14.9164,1.26335,98.9894,1.00344
163.449,14.9322,1.26637,98.9894,1.00311
163.949,14.94795,1.26929,98.98939,1.00278
164.449,14.96369,1.27075,98.98912,1.00246
164.949,14.9795,1.27492,98.98914,1.00213
165.449,14.99528,1.27811,98.96181,1.0018
165.949,15.01109,1.27968,98.95742,1.00148
166.449,15.0269,1.28501,98.95706,1.00115
166.949,15.0427,1.28815,98.9567,1.00082
167.449,15.0585,1.29126,98.95799,1.0005
167.949,15.0742,1.29376,98.92652,1.00017
168.449,15.08995,1.29722,98.9249,0.99985
168.949,15.10565,1.29974,98.92485,0.99952
169.449,15.12135,1.3065,98.92477,0.9992
169.949,15.137,1.30838,98.92566,0.99888
170.449,15.15267,1.31347,98.89752,0.99855
170.949,15.16833,1.31679,98.86038,0.99823
171.449,15.184,1.31975,98.86025,0.99791
171.949,15.1996,1.32464,98.8508,0.99758
172.449,15.21526,1.32741,98.8255,0.99726
172.949,15.23099,1.33415,98.82721,0.99694
173.449,15.24665,1.33551,98.82734,0.99662
173.949,15.2623,1.34057,98.8271,0.9963
174.449,15.2779,1.34598,98.82807,0.99598
174.949,15.29355,1.34878,98.80269,0.99566
175.449,15.30915,1.35632,98.79507,0.99534
175.949,15.3247,1.35914,98.79495,0.99502
176.449,15.34027,1.36537,98.7949,0.9947
176.949,15.35595,1.3696,98.7692,0.99438
177.449,15.37156,1.37426,98.7632,0.99406
177.949,15.3872,1.38021,98.762,0.99374
178.449,15.40271,1.38619,98.7551,0.99343
178.949,15.4184,1.39203,98.7304,0.99311
179.449,15.43396,1.39612,98.73029,0.99279
179.949,15.44946,1.40004,98.7303,0.99248
180.449,15.465,1.40901,98.70696,0.99216
180.949,15.48046,1.41115,98.6982,0.99184
181.449,15.49603,1.41687,98.69767,0.99153
181.949,15.51155,1.42244,98.69776,0.99121
182.449,15.52706,1.4287,98.6979,0.9909
182.949,15.5426,1.43551,98.6987,0.99058
183.449,15.55816,1.44015,98.6836,0.99027
183.949,15.5737,1.4455,98.66402,0.98995
184.449,15.5893,1.45244,98.6653,0.98964
184.949,15.60475,1.45921,98.66499,0.98933
185.449,15.6203,1.46339,98.6644,0.98901
185.949,15.63574,1.47028,98.6348,0.9887
186.449,15.65122,1.47308,98.62889,0.98839
186.949,15.66664,1.47854,98.59554,0.98808
187.449,15.68201,1.48592,98.58672,0.98777
187.949,15.6975,1.49211,98.55462,0.98745
188.449,15.71289,1.49549,98.54613,0.98714
188.949,15.72829,1.50133,98.51697,0.98683
189.449,15.7437,1.50707,98.51602,0.98652
189.949,15.75906,1.51233,98.479,0.98621
190.449,15.7745,1.51574,98.45685,0.9859
190.949,15.78984,1.52248,98.4054,0.98559
191.449,15.80529,1.52645,98.39854,0.98529
191.949,15.8207,1.53155,98.3703,0.98498
192.449,15.8362,1.53545,98.36013,0.98467
192.949,15.85157,1.54172,98.32658,0.98436
193.449,15.86695,1.5435,98.31655,0.98405
193.949,15.88235,1.54819,98.29066,0.98375
194.449,15.89771,1.55359,98.29441,0.98344
194.949,15.91306,1.55685,98.25877,0.98313
195.449,15.9284,1.5613,98.24865,0.98283
195.949,15.94375,1.56501,98.20909,0.98252
196.449,15.9591,1.56728,98.19549,0.98221
196.949,15.97444,1.5713,98.1734,0.98191
197.449,15.9898,1.57218,98.15621,0.9816
197.949,16.00508,1.57527,98.13855,0.9813
198.449,16.02039,1.57631,98.1194,0.98099
198.949,16.03572,1.57912,98.09968,0.98069
199.449,16.0511,1.58089,98.1006,0.98039
199.949,16.06639,1.58074,98.074,0.98008
200.449,16.08175,1.58486,98.0694,0.97978
200.949,16.0971,1.58453,98.0283,0.97948
201.449,16.11244,1.58806,97.99695,0.97918
201.949,16.12775,1.5895,97.9555,0.97887
202.449,16.14305,1.59051,97.90085,0.97857
202.949,16.15842,1.59117,97.8737,0.97827
203.449,16.17366,1.59016,97.85648,0.97797
203.949,16.18892,1.59087,97.82036,0.97767
204.449,16.20419,1.59018,97.81486,0.97737
204.949,16.2195,1.58905,97.78183,0.97707
205.449,16.2347,1.58867,97.7685,0.97677
205.949,16.25,1.59007,97.7209,0.97647
206.449,16.26539,1.58761,97.6865,0.97617
206.949,16.28073,1.58754,97.65369,0.97587
207.449,16.29605,1.58746,97.63003,0.97557
207.949,16.31131,1.58767,97.58761,0.97527
208.449,16.32659,1.58565,97.57839,0.97497
208.949,16.34181,1.58613,97.54561,0.97468
209.449,16.357,1.58563,97.507,0.97438
209.949,16.3723,1.58362,97.49462,0.97408
210.449,16.3876,1.58521,97.45804,0.97378
210.949,16.40292,1.58241,97.44936,0.97349
211.449,16.41826,1.58026,97.42005,0.97319
211.949,16.43356,1.58156,97.41503,0.9729
212.449,16.44887,1.58082,97.3826,0.9726
212.949,16.46414,1.58206,97.38382,0.9723
213.449,16.47938,1.58176,97.3655,0.97201
213.949,16.49464,1.58053,97.34698,0.97172
214.449,16.50991,1.58163,97.32599,0.97142
214.949,16.5251,1.58338,97.30056,0.97113
215.449,16.54035,1.58361,97.2643,0.97083
215.949,16.5556,1.58468,97.26374,0.97054
216.449,16.5709,1.58448,97.2315,0.97025
216.949,16.5861,1.58605,97.2367,0.96995
217.449,16.60131,1.58724,97.19946,0.96966
217.949,16.61651,1.58738,97.17781,0.96937
218.449,16.63177,1.59131,97.1387,0.96908
218.949,16.64698,1.59147,97.09034,0.96878
219.449,16.66217,1.59449,97.08282,0.96849
219.949,16.6774,1.59658,97.04951,0.9682
220.449,16.69264,1.59886,97.04828,0.96791
220.949,16.70789,1.60009,97.03393,0.96762
221.449,16.72305,1.60241,96.99344,0.96733
221.949,16.7382,1.60672,96.96293,0.96704
222.449,16.7534,1.609,96.9307,0.96675
222.949,16.76859,1.61064,96.89421,0.96646
223.449,16.7838,1.6123,96.88548,0.96617
223.949,16.79908,1.61342,96.87406,0.96588
224.449,16.81426,1.61659,96.85854,0.96559
224.949,16.82951,1.61976,96.84446,0.9653
225.449,16.84475,1.62151,96.809,0.96502
225.949,16.85996,1.62466,96.79984,0.96473
226.449,16.8751,1.62813,96.75765,0.96444
226.949,16.8903,1.62977,96.7439,0.96415
227.449,16.90555,1.63257,96.70948,0.96387
227.949,16.92074,1.63603,96.69949,0.96358
228.449,16.93595,1.63909,96.67254,0.96329
228.949,16.95121,1.63989,96.66031,0.96301
229.449,16.96643,1.64181,96.63515,0.96272
229.949,16.9817,1.64057,96.63858,0.96244
230.449,16.99691,1.64402,96.5989,0.96215
230.949,17.01212,1.64525,96.57029,0.96187
231.449,17.02731,1.64595,96.54227,0.96158
231.949,17.04249,1.64633,96.5184,0.9613
232.449,17.05767,1.64678,96.48199,0.96101
232.949,17.07281,1.64913,96.45912,0.96073
233.449,17.08801,1.64735,96.4362,0.96044
233.949,17.1032,1.64576,96.40826,0.96016
234.449,17.1184,1.64434,96.3969,0.95988
234.949,17.13354,1.64648,96.35659,0.95959
235.449,17.14871,1.64142,96.35329,0.95931
235.949,17.1638,1.64157,96.3172,0.95903
236.449,17.17894,1.63844,96.31538,0.95875
236.949,17.19407,1.63779,96.2769,0.95847
237.449,17.2092,1.63286,96.2662,0.95818
237.949,17.22438,1.63236,96.2337,0.9579
238.449,17.2395,1.62618,96.22759,0.95762
238.949,17.25464,1.62156,96.19611,0.95734
239.449,17.26974,1.61794,96.189,0.95706
239.949,17.2849,1.61327,96.15547,0.95678
240.449,17.30005,1.60998,96.14765,0.9565
240.949,17.315,1.60529,96.11745,0.95622
241.449,17.33001,1.60281,96.11899,0.95594
241.949,17.34517,1.59612,96.0892,0.95566
242.449,17.36042,1.59218,96.0885,0.95538
242.949,17.37558,1.58761,96.0729,0.9551
243.449,17.3907,1.5824,96.0527,0.95482
243.949,17.406,1.57712,96.05032,0.95455
244.449,17.42136,1.57386,96.01225,0.95427
244.949,17.43659,1.57078,96.01754,0.95399
245.449,17.45166,1.56704,95.986,0.95371
245.949,17.46681,1.56216,95.97954,0.95343
246.449,17.48199,1.55909,95.97941,0.95316
246.949,17.49711,1.55577,95.98173,0.95288
247.449,17.5122,1.55467,95.95093,0.9526
247.949,17.5273,1.54837,95.94747,0.95233
248.449,17.54244,1.54756,95.94753,0.95205
248.949,17.55754,1.54593,95.94751,0.95178
249.449,17.57264,1.54396,95.94675,0.9515
249.949,17.58781,1.54129,95.91734,0.95123
250.449,17.603,1.53975,95.9157,0.95095
250.949,17.6181,1.53733,95.91499,0.95068
251.449,17.6333,1.53608,95.91499,0.9504
251.949,17.64847,1.53255,95.91506,0.95013
252.449,17.66368,1.5329,95.9161,0.94985
252.949,17.6787,1.53184,95.89968,0.94958
253.449,17.69371,1.52953,95.88156,0.9493
253.949,17.7089,1.5308,95.88277,0.94903
254.449,17.72402,1.52944,95.88279,0.94876
254.949,17.7392,1.52752,95.88276,0.94848
255.449,17.75422,1.52716,95.88243,0.94821
255.949,17.76945,1.52725,95.88253,0.94794
256.449,17.7847,1.52664,95.85587,0.94767
256.949,17.7998,1.52783,95.85036,0.94739
257.449,17.81489,1.52482,95.8502,0.94712
257.949,17.82999,1.52781,95.8503,0.94685
258.449,17.84516,1.52728,95.8499,0.94658
258.949,17.86027,1.52629,95.84925,0.94631
259.449,17.8754,1.52676,95.82215,0.94604
259.949,17.89056,1.52714,95.8179,0.94577
260.449,17.90571,1.52887,95.81784,0.9455
260.949,17.9209,1.52655,95.81851,0.94523
261.449,17.93599,1.52926,95.80141,0.94496
261.949,17.95112,1.53041,95.78533,0.94469
262.449,17.96629,1.53232,95.78545,0.94442
262.949,17.98142,1.53316,95.7851,0.94415
263.449,17.9966,1.53355,95.75802,0.94388
263.949,18.01162,1.53395,95.75353,0.94361
264.449,18.02679,1.53616,95.75288,0.94334
264.949,18.04189,1.53741,95.75294,0.94307
265.449,18.05697,1.53849,95.75296,0.9428
265.949,18.07205,1.54254,95.75296,0.94253
266.449,18.08717,1.54175,95.7529,0.94227
266.949,18.10235,1.54359,95.75255,0.942
267.449,18.11743,1.54491,95.7547,0.94173
267.949,18.13255,1.54618,95.72344,0.94146
268.449,18.14769,1.54825,95.7204,0.9412
268.949,18.16283,1.54931,95.7204,0.94093
269.449,18.178,1.55041,95.72044,0.94066
269.949,18.19315,1.55287,95.72044,0.9404
270.449,18.20832,1.5531,95.72044,0.94013
270.949,18.2235,1.55593,95.7204,0.93986
271.449,18.23866,1.55745,95.7205,0.9396
271.949,18.2538,1.56002,95.72174,0.93933
272.449,18.26894,1.56142,95.7046,0.93907
272.949,18.28408,1.56306,95.67599,0.9388
273.449,18.29924,1.56554,95.6559,0.93854
273.949,18.31436,1.56629,95.65598,0.93827
274.449,18.3295,1.56836,95.6559,0.93801
274.949,18.34467,1.57458,95.65592,0.93774
275.449,18.35983,1.57396,95.65593,0.93748
275.949,18.37496,1.577,95.65522,0.93721
276.449,18.39011,1.57937,95.65426,0.93695
276.949,18.4053,1.58103,95.61938,0.93668
277.449,18.42041,1.58426,95.61691,0.93642
277.949,18.43555,1.58741,95.5898,0.93616
278.449,18.45071,1.58954,95.58576,0.93589
278.949,18.46588,1.59438,95.58794,0.93563
279.449,18.48104,1.59566,95.5577,0.93537
279.949,18.49621,1.60043,95.54955,0.93511
280.449,18.5114,1.60367,95.5459,0.93484
280.949,18.52657,1.60721,95.5135,0.93458
281.449,18.5417,1.60878,95.51273,0.93432
281.949,18.55687,1.61209,95.5085,0.93406
282.449,18.57188,1.61435,95.4781,0.9338
282.949,18.58706,1.62017,95.48054,0.93353
283.449,18.6022,1.6226,95.46292,0.93327
283.949,18.61737,1.62685,95.44266,0.93301
284.449,18.6325,1.63052,95.40609,0.93275
284.949,18.64767,1.63616,95.3878,0.93249
285.449,18.66297,1.63841,95.36864,0.93223
285.949,18.67812,1.64094,95.34976,0.93197
286.449,18.69324,1.64768,95.34533,0.93171
286.949,18.7084,1.64824,95.3189,0.93145
287.449,18.7236,1.65378,95.31756,0.93119
287.949,18.73874,1.65831,95.28372,0.93093
288.449,18.75391,1.66236,95.28283,0.93067
288.949,18.7691,1.66805,95.24523,0.93041
289.449,18.78425,1.67036,95.2401,0.93015
289.949,18.79939,1.67819,95.2073,0.92989
290.449,18.81457,1.68046,95.19145,0.92963
290.949,18.8297,1.68523,95.18094,0.92937
291.449,18.84488,1.69076,95.16295,0.92911
291.949,18.86008,1.69673,95.15159,0.92885
292.449,18.8753,1.7017,95.13292,0.9286
292.949,18.89049,1.70775,95.11006,0.92834
293.449,18.90565,1.71258,95.0771,0.92808
293.949,18.92086,1.71739,95.0643,0.92782
294.449,18.93603,1.72324,95.0312,0.92756
294.949,18.95119,1.72894,95.0076,0.92731
295.449,18.96636,1.73617,94.99277,0.92705
295.949,18.98152,1.74439,94.9593,0.92679
296.449,18.9967,1.7531,94.9507,0.92654
296.949,19.0118,1.76202,94.90549,0.92628
297.449,19.0269,1.77119,94.887,0.92602
297.949,19.04202,1.78256,94.86673,0.92577
298.449,19.05709,1.79047,94.83435,0.92551
298.949,19.07224,1.79908,94.80986,0.92525
299.449,19.08739,1.80684,94.7588,0.925
299.949,19.10255,1.81578,94.71985,0.92474
300.449,19.1177,1.8248,94.69797,0.92448
300.949,19.13289,1.83474,94.6651,0.92423
301.449,19.14808,1.84097,94.62135,0.92397
301.949,19.16327,1.85063,94.6096,0.92372
302.449,19.17843,1.85872,94.55038,0.92346
302.949,19.1936,1.86709,94.50838,0.92321
303.449,19.2088,1.8716,94.476,0.92295
303.949,19.224,1.87957,94.43392,0.9227
304.449,19.2392,1.88784,94.38592,0.92244
304.949,19.25431,1.89415,94.34335,0.92219
305.449,19.26953,1.9019,94.304,0.92193
305.949,19.28471,1.90677,94.26462,0.92168
306.449,19.29991,1.91083,94.22462,0.92142
306.949,19.3151,1.9192,94.18235,0.92117
307.449,19.3303,1.92921,94.13215,0.92092
307.949,19.34553,1.93193,94.07384,0.92066
308.449,19.36074,1.93724,94.04252,0.92041
308.949,19.37596,1.94417,93.99756,0.92016
309.449,19.39118,1.94949,93.95017,0.9199
309.949,19.4064,1.95378,93.90769,0.91965
310.449,19.42154,1.96176,93.87029,0.9194
310.949,19.4367,1.96667,93.81936,0.91914
311.449,19.45191,1.97115,93.7887,0.91889
311.949,19.46711,1.97895,93.75242,0.91864
312.449,19.48229,1.98371,93.7107,0.91838
312.949,19.49749,1.98957,93.66558,0.91813
313.449,19.51275,1.99212,93.61802,0.91788
313.949,19.52796,2.00095,93.5727,0.91763
314.449,19.5432,2.00495,93.5197,0.91737
314.949,19.55845,2.01146,93.4879,0.91712
315.449,19.5737,2.01697,93.44723,0.91687
315.949,19.58897,2.02318,93.39509,0.91662
316.449,19.6042,2.02688,93.33159,0.91637
316.949,19.61942,2.03162,93.2748,0.91612
317.449,19.6346,2.0372,93.20209,0.91586
317.949,19.64979,2.04463,93.15125,0.91561
318.449,19.66497,2.0512,93.0915,0.91536
318.949,19.68018,2.05558,93.04425,0.91511
319.449,19.69537,2.06151,92.98773,0.91486
319.949,19.71058,2.06805,92.94385,0.91461
320.449,19.72581,2.07491,92.9079,0.91436
320.949,19.74099,2.07827,92.84634,0.91411
321.449,19.7562,2.08572,92.77379,0.91386
321.949,19.7714,2.09174,92.71913,0.91361
322.449,19.7866,2.09635,92.63428,0.91336
322.949,19.80183,2.1038,92.56804,0.91311
323.449,19.8171,2.11365,92.4996,0.91286
323.949,19.83233,2.12095,92.43777,0.91261
324.449,19.8476,2.12818,92.39399,0.91236
324.949,19.86286,2.13942,92.32794,0.91211
325.449,19.87811,2.14559,92.26101,0.91186
325.949,19.89337,2.15535,92.1818,0.91161
326.449,19.90855,2.1666,92.09804,0.91136
326.949,19.9238,2.17848,92.05059,0.91111
327.449,19.93899,2.18903,91.98501,0.91086
327.949,19.95426,2.20195,91.92094,0.91061
328.449,19.9695,2.21471,91.86442,0.91036
328.949,19.98475,2.22908,91.76302,0.91011
329.449,20,2.24369,91.68735,0.90986
329.949,20.01527,2.26244,91.59674,0.90961
330.449,20.0305,2.27447,91.51597,0.90936
330.949,20.0457,2.29572,91.42205,0.90911
331.449,20.06091,2.31521,91.33399,0.90887
331.949,20.07616,2.33622,91.23401,0.90862
332.449,20.09144,2.35695,91.14956,0.90837
332.949,20.10671,2.37963,91.04641,0.90812
333.449,20.12195,2.40319,90.96831,0.90787
333.949,20.13724,2.42603,90.86131,0.90762
334.449,20.15255,2.4512,90.73684,0.90738
334.949,20.16781,2.47821,90.6529,0.90713
335.449,20.18309,2.50588,90.53663,0.90688
335.949,20.19836,2.53205,90.42523,0.90663
336.449,20.21369,2.56189,90.30754,0.90638
336.949,20.229,2.59261,90.1563,0.90614
337.449,20.24437,2.62282,90.04217,0.90589
337.949,20.2597,2.65512,89.90089,0.90564
338.449,20.27502,2.68612,89.76138,0.90539
338.949,20.2904,2.72171,89.64246,0.90515
339.449,20.30569,2.75604,89.49517,0.9049
339.949,20.32099,2.79268,89.36814,0.90465
340.449,20.33632,2.82976,89.22358,0.9044
340.949,20.35164,2.86904,89.04581,0.90416
341.449,20.367,2.9093,88.91242,0.90391
341.949,20.3824,2.95069,88.7505,0.90366
342.449,20.3977,2.99243,88.59578,0.90341
342.949,20.41307,3.036,88.4314,0.90317
343.449,20.42839,3.08045,88.2123,0.90292
343.949,20.44373,3.12519,88.0426,0.90267
344.449,20.4591,3.17619,87.86792,0.90243
344.949,20.4744,3.22438,87.6593,0.90218
345.449,20.48984,3.27505,87.49135,0.90193
345.949,20.5052,3.32561,87.2779,0.90169
346.449,20.52061,3.37832,87.09408,0.90144
346.949,20.53601,3.43423,86.8825,0.90119
347.449,20.5514,3.48998,86.59626,0.90095
347.949,20.56683,3.54747,86.391,0.9007
348.449,20.58224,3.60832,86.12141,0.90045
348.949,20.59764,3.6648,85.8639,0.90021
349.449,20.6131,3.72888,85.62561,0.89996
349.949,20.62859,3.79193,85.33714,0.89972
350.449,20.64405,3.85807,85.11708,0.89947
350.949,20.6595,3.92432,84.84236,0.89922
351.449,20.67494,3.99371,84.53784,0.89898
351.949,20.69046,4.06229,84.27083,0.89873
352.449,20.70587,4.13312,83.926,0.89849
352.949,20.7213,4.20527,83.64815,0.89824
353.449,20.73674,4.27869,83.34346,0.89799
353.949,20.75224,4.35467,82.9824,0.89775
354.449,20.76771,4.43192,82.6974,0.8975
354.949,20.78319,4.51062,82.32267,0.89726
355.449,20.79872,4.58672,81.97519,0.89701
355.949,20.8142,4.67155,81.62039,0.89677
356.449,20.8298,4.7562,81.17249,0.89652
356.949,20.84532,4.83929,80.83482,0.89628
357.449,20.86086,4.92356,80.4199,0.89603
357.949,20.8764,5.01116,80.00562,0.89578
358.449,20.8919,5.09933,79.62634,0.89554
358.949,20.90745,5.1871,79.1307,0.89529
359.449,20.923,5.27932,78.7444,0.89505
359.949,20.9386,5.36949,78.28958,0.8948
360.449,20.95415,5.46444,77.80167,0.89456
360.949,20.96975,5.55719,77.3918,0.89431
361.449,20.98537,5.65271,76.86,0.89407
361.949,21.00095,5.74733,76.4181,0.89382
362.449,21.01653,5.84298,75.93026,0.89358
362.949,21.03214,5.94023,75.36394,0.89333
363.449,21.04782,6.04107,74.89774,0.89309
363.949,21.06343,6.13536,74.29047,0.89284
364.449,21.07904,6.23223,73.7629,0.8926
364.949,21.09469,6.33031,73.22309,0.89235
365.449,21.11035,6.4306,72.56567,0.89211
365.949,21.12594,6.52653,72.07414,0.89186
366.449,21.14159,6.62687,71.45156,0.89162
366.949,21.15725,6.72387,70.8475,0.89137
367.449,21.17292,6.81966,70.27297,0.89113
367.949,21.1886,6.9196,69.5431,0.89088
368.449,21.20427,7.01772,68.98059,0.89064
368.949,21.22,7.11348,68.31789,0.89039
369.449,21.23568,7.20653,67.63517,0.89015
369.949,21.25139,7.29903,67.0397,0.8899
370.449,21.2671,7.39155,66.26631,0.88966
370.949,21.2829,7.48236,65.65607,0.88941
371.449,21.29853,7.56821,64.9504,0.88917
371.949,21.31418,7.65669,64.17267,0.88892
372.449,21.32986,7.73966,63.52007,0.88868
372.949,21.34555,7.81734,62.68031,0.88843
373.449,21.36119,7.8965,61.9999,0.88819
373.949,21.37689,7.96977,61.26059,0.88794
374.449,21.39259,8.03921,60.4111,0.8877
374.949,21.40834,8.10662,59.7347,0.88745
375.449,21.4241,8.17078,58.867,0.88721
375.949,21.4398,8.23142,58.1195,0.88696
376.449,21.4556,8.28218,57.3418,0.88672
376.949,21.47126,8.33278,56.41945,0.88647
377.449,21.48708,8.39172,55.71091,0.88623
377.949,21.50284,8.44239,54.8187,0.88598
378.449,21.51853,8.49366,54.01418,0.88574
378.949,21.5343,8.54104,53.19031,0.88549
379.449,21.54999,8.58368,52.21882,0.88525
379.949,21.5657,8.61861,51.49839,0.885
380.449,21.5814,8.64191,50.60325,0.88476
380.949,21.59713,8.67274,49.7459,0.88451
381.449,21.61287,8.70574,48.95505,0.88427
381.949,21.62865,8.72994,47.98154,0.88402
382.449,21.64441,8.75589,47.25845,0.88378
382.949,21.66013,8.77556,46.36642,0.88353
383.449,21.6758,8.79674,45.46387,0.88329
383.949,21.69154,8.81185,44.68346,0.88304
384.449,21.70722,8.82516,43.69323,0.8828
384.949,21.72286,8.8318,42.92814,0.88255
385.449,21.73852,8.83592,42.0223,0.88231
385.949,21.7542,8.83363,41.0742,0.88206
386.449,21.7698,8.83215,40.30423,0.88182
386.949,21.7854,8.8185,39.33708,0.88157
387.449,21.80111,8.79821,38.55755,0.88133
387.949,21.81673,8.77223,37.71287,0.88108
388.449,21.83235,8.74083,36.73725,0.88084
388.949,21.84799,8.70381,35.98454,0.88059
389.449,21.86363,8.66763,35.02046,0.88035
389.949,21.87924,8.61659,34.19558,0.8801
390.449,21.89483,8.57345,33.3815,0.87986
390.949,21.91046,8.52075,32.40688,0.87961
391.449,21.9261,8.46177,31.68911,0.87937
391.949,21.94163,8.39639,30.8099,0.87912
392.449,21.95717,8.32553,29.97537,0.87888
392.949,21.97278,8.24642,29.20495,0.87863
393.449,21.9883,8.16891,28.25868,0.87839
393.949,22.00384,8.08014,27.55537,0.87814
394.449,22.01941,7.98396,26.7363,0.87789
394.949,22.03497,7.88891,25.8875,0.87765
395.449,22.05048,7.78388,25.18046,0.8774
395.949,22.06598,7.67453,24.29831,0.87716
396.449,22.08152,7.56086,23.61317,0.87691
396.949,22.09703,7.44724,22.8731,0.87667
397.449,22.11251,7.32032,22.0579,0.87642
397.949,22.12794,7.20056,21.43807,0.87617
398.449,22.14339,7.07481,20.657,0.87593
398.949,22.15887,6.94599,19.97811,0.87568
399.449,22.17425,6.81536,19.32493,0.87544
399.949,22.18964,6.68358,18.558,0.87519
400.449,22.205,6.55237,17.99804,0.87495
400.949,22.22046,6.42079,17.31581,0.8747
401.449,22.2359,6.28911,16.64056,0.87445
401.949,22.25122,6.1534,16.0732,0.87421
402.449,22.26663,6.01505,15.39021,0.87396
402.949,22.282,5.87636,14.8764,0.87371
403.449,22.29738,5.73563,14.3156,0.87347
403.949,22.3127,5.59562,13.70243,0.87322
404.449,22.32805,5.45711,13.23003,0.87298
404.949,22.34336,5.32288,12.63825,0.87273
405.449,22.3587,5.18606,12.12624,0.87248
405.949,22.374,5.04789,11.6432,0.87224
406.449,22.38938,4.90783,11.07998,0.87199
406.949,22.40475,4.76608,10.68722,0.87174
407.449,22.42012,4.62282,10.2185,0.8715
407.949,22.43548,4.49034,9.75161,0.87125
408.449,22.4508,4.35174,9.35807,0.871
408.949,22.46614,4.21686,8.87909,0.87076
409.449,22.48139,4.08654,8.52212,0.87051
409.949,22.4967,3.96015,8.13476,0.87026
410.449,22.51193,3.82875,7.70549,0.87001
410.949,22.52723,3.7146,7.3851,0.86977
411.449,22.54253,3.59711,6.99087,0.86952
411.949,22.55781,3.48328,6.6498,0.86927
412.449,22.57313,3.36738,6.34744,0.86903
412.949,22.5884,3.25479,5.98308,0.86878
413.449,22.60371,3.14956,5.72099,0.86853
413.949,22.619,3.03783,5.41976,0.86828
414.449,22.63428,2.93046,5.10324,0.86804
414.949,22.64958,2.82486,4.85414,0.86779
415.449,22.66487,2.72346,4.52602,0.86754
415.949,22.68013,2.62321,4.28671,0.86729
416.449,22.6954,2.52379,4.04599,0.86704
416.949,22.71071,2.42493,3.7777,0.8668
417.449,22.726,2.33143,3.58115,0.86655
417.949,22.74129,2.23577,3.34494,0.8663
418.449,22.7566,2.14779,3.13008,0.86605
418.949,22.77192,2.05938,2.94673,0.8658
419.449,22.7872,1.97131,2.73617,0.86555
419.949,22.80255,1.88683,2.6134,0.86531
420.449,22.81785,1.80813,2.43443,0.86506
420.949,22.8332,1.72698,2.24261,0.86481
421.449,22.84858,1.65205,2.09901,0.86456
421.949,22.86391,1.57636,1.92492,0.86431
422.449,22.87929,1.50851,1.7813,0.86406
422.949,22.89465,1.43859,1.64222,0.86381
423.449,22.91,1.37565,1.49469,0.86356
423.949,22.92534,1.31021,1.39435,0.86332
424.449,22.94068,1.24827,1.27454,0.86307
424.949,22.956,1.19123,1.16155,0.86282
425.449,22.97137,1.13501,1.08538,0.86257
425.949,22.98667,1.0786,0.9675,0.86232
426.449,23.00202,1.02872,0.88682,0.86207
426.949,23.01742,0.97807,0.79225,0.86182
427.449,23.03282,0.93132,0.6911,0.86157
427.949,23.04824,0.88676,0.61972,0.86132
428.449,23.06361,0.84211,0.53989,0.86107
428.949,23.0791,0.80181,0.47236,0.86082
429.449,23.09451,0.76403,0.38996,0.86057
429.949,23.1099,0.72334,0.33586,0.86032
430.449,23.12535,0.69272,0.2773,0.86007
430.949,23.1408,0.65753,0.20455,0.85982
431.449,23.15638,0.62715,0.15447,0.85957
431.949,23.1719,0.59374,0.07202201,0.85932
432.449,23.1874,0.56592,0.01305839,0.85907
432.949,23.20285,0.53971,-0.02009684,0.85881
433.449,23.2183,0.51234,-0.04895173,0.85856
433.949,23.2338,0.48736,-0.08626732,0.85831
434.449,23.24928,0.46302,-0.12265,0.85806
434.949,23.26473,0.44237,-0.15411,0.85781
435.449,23.28023,0.42251,-0.18732,0.85756
435.949,23.29578,0.40237,-0.22714,0.85731
436.449,23.31136,0.38354,-0.2695,0.85706
436.949,23.32685,0.36707,-0.30229,0.8568
437.449,23.34241,0.3496,-0.32676,0.85655
437.949,23.358,0.33488,-0.36632,0.8563
438.449,23.37354,0.317,-0.39152,0.85605
438.949,23.3891,0.30461,-0.41162,0.8558
439.449,23.40465,0.29228,-0.41918,0.85554
439.949,23.42023,0.2804,-0.44449,0.85529
440.449,23.4358,0.27198,-0.44376,0.85504
440.949,23.45141,0.2587,-0.45936,0.85478
441.449,23.46699,0.25323,-0.4886,0.85453
441.949,23.48245,0.2451,-0.50379,0.85428
442.449,23.49795,0.24005,-0.52023,0.85403
442.949,23.51343,0.23481,-0.51986,0.85377
443.449,23.5289,0.2332,-0.51971,0.85352
443.949,23.54435,0.22941,-0.52035,0.85327
444.449,23.5598,0.22562,-0.52083,0.85301
444.949,23.57542,0.22511,-0.55643,0.85276
445.449,23.591,0.22765,-0.5609,0.85251
445.949,23.60653,0.23089,-0.59429,0.85225
446.449,23.6221,0.22997,-0.59448,0.852
446.949,23.63768,0.23285,-0.60832,0.85174
447.449,23.6532,0.23594,-0.62892,0.85149
447.949,23.66885,0.23791,-0.62754,0.85123
448.449,23.68454,0.23895,-0.62526,0.85098
448.949,23.70017,0.24012,-0.65387,0.85073
449.449,23.71586,0.24169,-0.66022,0.85047
449.949,23.7315,0.24122,-0.66011,0.85022
450.449,23.74723,0.23886,-0.66012,0.84996
450.949,23.76287,0.23577,-0.66037,0.84971
451.449,23.77864,0.22813,-0.65972,0.84945
451.949,23.79435,0.22149,-0.68495,0.84919
452.449,23.8101,0.21206,-0.71044,0.84894
452.949,23.826,0.20235,-0.72576,0.84868
453.449,23.8417,0.19201,-0.72496,0.84843
453.949,23.85754,0.18061,-0.72487,0.84817
454.449,23.87331,0.16615,-0.72487,0.84791
454.949,23.88917,0.15474,-0.72487,0.84766
455.449,23.905,0.13312,-0.72473,0.8474
455.949,23.92081,0.11958,-0.73655,0.84715
456.449,23.93668,0.09599944,-0.75832,0.84689
456.949,23.95257,0.07658401,-0.75732,0.84663
457.449,23.96839,0.05755376,-0.75714,0.84637
457.949,23.98425,0.04037845,-0.75714,0.84612
458.449,24.00009,0.02572083,-0.75715,0.84586
458.949,24.016,0.01716797,-0.75716,0.8456
459.449,24.0318,0.01242942,-0.75725,0.84535
459.949,24.04768,0.01148945,-0.75668,0.84509
460.449,24.0636,0.01538504,-0.74659,0.84483
460.949,24.07948,0.02124102,-0.73288,0.84457
461.449,24.09534,0.02619545,-0.73261,0.84431
461.949,24.11119,0.03820284,-0.73274,0.84405
462.449,24.127,0.04643073,-0.73275,0.8438
462.949,24.14291,0.05572962,-0.73263,0.84354
463.449,24.15873,0.06705305,-0.74002,0.84328
463.949,24.17458,0.07637173,-0.76737,0.84302
464.449,24.19047,0.08755137,-0.76538,0.84276
464.949,24.20637,0.09448314,-0.76525,0.8425
465.449,24.22223,0.10293,-0.76527,0.84224
465.949,24.23809,0.11081,-0.76527,0.84198
466.449,24.25395,0.11942,-0.76523,0.84172
466.949,24.26983,0.1258,-0.7652,0.84146
467.449,24.2857,0.13185,-0.76766,0.8412
467.949,24.3016,0.13733,-0.73687,0.84094
468.449,24.3174,0.14178,-0.7327,0.84068
468.949,24.3333,0.14616,-0.73272,0.84042
469.449,24.3492,0.14986,-0.73275,0.84016
469.949,24.36506,0.15455,-0.73404,0.8399
470.449,24.38095,0.15855,-0.71289,0.83964
470.949,24.39685,0.1615,-0.6999,0.83938
471.449,24.41271,0.15841,-0.70021,0.83912
471.949,24.42865,0.1601,-0.7077,0.83885
472.449,24.44453,0.16041,-0.74213,0.83859
472.949,24.46047,0.16115,-0.76616,0.83833
473.449,24.47636,0.1645,-0.76505,0.83807
473.949,24.49225,0.16196,-0.76525,0.83781
474.449,24.5082,0.16263,-0.76528,0.83754
474.949,24.52412,0.1636,-0.76532,0.83728
475.449,24.54007,0.16298,-0.76538,0.83702
475.949,24.556,0.16411,-0.79129,0.83675
476.449,24.57193,0.16419,-0.79718,0.83649
476.949,24.58778,0.16403,-0.79784,0.83623
477.449,24.60357,0.16286,-0.79794,0.83596
477.949,24.61947,0.16481,-0.7979,0.8357
478.449,24.63539,0.16657,-0.78298,0.83544
478.949,24.6513,0.16627,-0.76513,0.83517
479.449,24.66718,0.16657,-0.76529,0.83491
479.949,24.6832,0.16737,-0.76528,0.83464
480.449,24.6992,0.16553,-0.76528,0.83438
480.949,24.7151,0.16499,-0.76528,0.83412
481.449,24.73099,0.16559,-0.76528,0.83385
481.949,24.7469,0.1665,-0.76528,0.83359
482.449,24.76284,0.16558,-0.76528,0.83332
482.949,24.77873,0.16755,-0.76528,0.83305
483.449,24.79467,0.16831,-0.76527,0.83279
483.949,24.8107,0.1701,-0.76527,0.83252
484.449,24.8266,0.16926,-0.76532,0.83226
484.949,24.84255,0.1693,-0.76572,0.83199
485.449,24.8585,0.16876,-0.76449,0.83172
485.949,24.87454,0.16836,-0.79643,0.83146
486.449,24.89048,0.1711,-0.79776,0.83119
486.949,24.9064,0.17054,-0.79779,0.83092
487.449,24.92231,0.17095,-0.79778,0.83066
487.949,24.93828,0.17296,-0.79779,0.83039
488.449,24.95413,0.17063,-0.79808,0.83012
488.949,24.97007,0.17115,-0.79852,0.82985
489.449,24.98603,0.1726,-0.82801,0.82959
489.949,25.00197,0.17277,-0.80802,0.82932
490.449,25.01795,0.17287,-0.79752,0.82905
490.949,25.0339,0.17616,-0.7977,0.82878
491.449,25.0499,0.17303,-0.79778,0.82851
491.949,25.06583,0.17623,-0.79779,0.82824
492.449,25.08174,0.17859,-0.79778,0.82797
492.949,25.09769,0.17585,-0.79778,0.82771
493.449,25.11369,0.17677,-0.79778,0.82744
493.949,25.12961,0.17747,-0.79778,0.82717
494.449,25.14554,0.18061,-0.79779,0.8269
494.949,25.16155,0.17678,-0.79779,0.82663
495.449,25.17755,0.17857,-0.79776,0.82636
495.949,25.19349,0.1789,-0.79738,0.82608
496.449,25.20946,0.18203,-0.79746,0.82581
496.949,25.22551,0.17967,-0.78024,0.82554
497.449,25.24151,0.18106,-0.78142,0.82527
497.949,25.25752,0.18034,-0.78154,0.825
498.449,25.27354,0.18164,-0.78152,0.82473
498.949,25.28957,0.181,-0.78152,0.82446
499.449,25.30554,0.18286,-0.78217,0.82419
499.949,25.32157,0.18331,-0.77096,0.82391
500.449,25.33756,0.18172,-0.76508,0.82364
500.949,25.3535,0.18461,-0.76523,0.82337
501.449,25.3695,0.18266,-0.76527,0.8231
501.949,25.38555,0.1833,-0.76528,0.82282
502.449,25.40159,0.18538,-0.76528,0.82255
502.949,25.41762,0.1873,-0.76528,0.82228
503.449,25.4337,0.1867,-0.76527,0.822
503.949,25.44973,0.18543,-0.76527,0.82173
504.449,25.4657,0.1884,-0.7653,0.82145
504.949,25.48174,0.1873,-0.76548,0.82118
505.449,25.49775,0.19416,-0.75916,0.82091
505.949,25.51379,0.19128,-0.73942,0.82063
506.449,25.52978,0.18854,-0.74085,0.82036
506.949,25.54585,0.19463,-0.74071,0.82008
507.449,25.56193,0.19448,-0.73941,0.81981
507.949,25.578,0.19328,-0.76499,0.81953
508.449,25.59405,0.19529,-0.77976,0.81925
508.949,25.61009,0.19575,-0.78033,0.81898
509.449,25.6261,0.19578,-0.81069,0.8187
509.949,25.64209,0.19669,-0.81128,0.81843
510.449,25.65813,0.1978,-0.81133,0.81815
510.949,25.67411,0.19818,-0.81132,0.81787
511.449,25.69013,0.19904,-0.8113,0.81759
511.949,25.70607,0.19725,-0.81465,0.81732
512.449,25.72208,0.19784,-0.84587,0.81704
512.949,25.73806,0.19698,-0.84348,0.81676
513.449,25.75403,0.19962,-0.84364,0.81648
513.949,25.76999,0.19913,-0.84378,0.81621
514.449,25.78605,0.20027,-0.83389,0.81593
514.949,25.8021,0.19865,-0.80723,0.81565
515.449,25.8182,0.20107,-0.80244,0.81537
515.949,25.8342,0.20157,-0.77407,0.81509
516.449,25.8503,0.20073,-0.77649,0.81481
516.949,25.86635,0.2015,-0.82482,0.81453
517.449,25.88241,0.20162,-0.84663,0.81425
517.949,25.89854,0.20423,-0.84649,0.81397
518.449,25.9146,0.20301,-0.86877,0.81369
518.949,25.93071,0.20398,-0.87838,0.81341
519.449,25.9468,0.20556,-0.87898,0.81313
519.949,25.9629,0.20679,-0.87979,0.81285
520.449,25.97888,0.20719,-0.86314,0.81257
520.949,25.9949,0.20755,-0.84551,0.81229
521.449,26.01098,0.20737,-0.84648,0.812
521.949,26.0271,0.20798,-0.84654,0.81172
522.449,26.04316,0.20726,-0.84628,0.81144
522.949,26.05934,0.2094,-0.84642,0.81116
523.449,26.07552,0.20829,-0.81831,0.81087
523.949,26.09165,0.20954,-0.81435,0.81059
524.449,26.10775,0.2099,-0.81401,0.81031
524.949,26.12386,0.21165,-0.81403,0.81002
525.449,26.13992,0.21153,-0.81404,0.80974
525.949,26.156,0.21368,-0.81404,0.80946
526.449,26.17211,0.21226,-0.81404,0.80917
526.949,26.1883,0.21441,-0.81404,0.80889
527.449,26.20438,0.2117,-0.81413,0.8086
527.949,26.2205,0.21231,-0.81436,0.80832
528.449,26.23664,0.21164,-0.80294,0.80803
528.949,26.25273,0.21539,-0.78026,0.80775
529.449,26.2689,0.21425,-0.78155,0.80746
529.949,26.285,0.21624,-0.78155,0.80718
530.449,26.3011,0.21454,-0.78153,0.80689
530.949,26.31721,0.21397,-0.78153,0.8066
531.449,26.33333,0.21618,-0.78153,0.80632
531.949,26.3495,0.21706,-0.78153,0.80603
532.449,26.3656,0.21731,-0.7814,0.80574
532.949,26.3818,0.21593,-0.78061,0.80546
533.449,26.3979,0.21748,-0.79632,0.80517
533.949,26.4142,0.22048,-0.79894,0.80488
534.449,26.43045,0.22243,-0.7803,0.80459
534.949,26.4467,0.2207,-0.78737,0.8043
535.449,26.46285,0.22027,-0.79847,0.80402
535.949,26.4789,0.22189,-0.79778,0.80373
536.449,26.49493,0.22136,-0.79777,0.80344
536.949,26.51101,0.2208,-0.79778,0.80315
537.449,26.52716,0.22326,-0.79778,0.80286
537.949,26.54328,0.22404,-0.79778,0.80257
538.449,26.5595,0.22091,-0.79778,0.80228
538.949,26.57586,0.22317,-0.79778,0.80199
539.449,26.59205,0.22368,-0.79776,0.8017
539.949,26.6082,0.22657,-0.79787,0.80141
540.449,26.6246,0.22541,-0.80003,0.80112
540.949,26.64098,0.22469,-0.77019,0.80082
541.449,26.65778,0.22609,-0.76523,0.80053
541.649,26.66347,0.2263,-0.76531,0.80042