File: 01_Data/Polyester_Batting_81B/MCC/Polyester_Batting_81B_MCC_30K_min_220301_R2.txt
Sample ID:	C:\MCC\MCC Cal\Test\Polyester_Batting_81B_MCC_30K_min_220301_R2.txt
Sample Weight (mg):	4.46
Heating Rate (C/s):	0.5
Combustor Temp (C):	900
N2 Flow Rate (cc/min):	80
O2 Flow Rate (cc/min):	20
Calibration File:	C:\MCC\MCC Cal\Coeff1 JN10440_30_210304.txt.txt
T Correction Coefficients:	0	1.024463	0
Time Shift (s):	14
*
Time (s)	Temperature (C)	N2 flow rate (cc/min)	O2 flow rate (cc/min)	Flow Rate (cc/min)	Oxygen (%)	HRR (W/g)	Heating rate (C/s)
0.000	115.377	80.010	19.992	103.746	20.094	-0.473	-0.031
1.500	115.346	80.011	19.993	103.744	20.094	-0.477	0.005
3.000	115.394	80.010	19.992	103.738	20.096	-0.641	0.004
4.500	115.374	80.010	19.992	103.740	20.097	-0.702	-0.004
6.000	115.379	80.010	19.994	103.745	20.100	-0.910	-0.007
7.500	115.359	80.010	19.992	103.745	20.095	-0.561	0.003
9.000	115.376	80.010	19.993	103.747	20.093	-0.441	0.018
10.501	115.332	80.011	19.993	103.747	20.097	-0.686	-0.044
12.000	115.365	80.011	19.993	103.744	20.099	-0.830	0.006
13.500	115.381	80.011	19.993	103.745	20.096	-0.598	0.012
15.000	115.370	80.012	19.993	103.760	20.095	-0.534	0.011
16.500	115.313	80.011	19.993	103.781	20.090	-0.197	-0.014
18.001	115.399	80.010	19.993	103.783	20.093	-0.412	0.049
19.500	115.438	80.013	19.993	103.793	20.090	-0.225	-0.003
21.000	115.426	80.012	19.993	103.808	20.087	0.052	0.005
22.500	115.500	80.013	19.994	103.808	20.085	0.189	0.040
24.000	115.523	80.013	19.992	103.832	20.079	0.572	0.022
25.500	115.612	80.012	19.994	103.865	20.076	0.807	0.063
27.000	115.662	80.010	19.995	103.876	20.074	0.986	0.035
28.500	115.728	80.010	19.994	103.891	20.075	0.926	0.062
30.001	115.825	80.011	19.993	103.902	20.066	1.532	0.061
31.500	115.949	80.010	19.994	103.912	20.066	1.576	0.105
33.000	116.108	80.009	19.992	103.929	20.067	1.452	0.077
34.500	116.248	80.009	19.993	103.937	20.064	1.729	0.113
36.000	116.462	80.009	19.994	103.938	20.058	2.159	0.138
37.500	116.619	80.009	19.993	103.938	20.057	2.175	0.114
39.000	116.832	80.010	19.994	103.940	20.054	2.432	0.159
40.500	117.042	80.009	19.993	103.945	20.053	2.480	0.139
42.000	117.324	80.009	19.993	103.942	20.054	2.392	0.197
43.500	117.585	80.010	19.994	103.921	20.053	2.500	0.194
45.000	117.844	80.009	19.993	103.924	20.056	2.267	0.163
46.500	118.148	80.009	19.996	103.941	20.051	2.623	0.204
48.001	118.424	80.009	19.994	103.939	20.052	2.599	0.165
49.500	118.681	80.009	19.994	103.941	20.052	2.543	0.172
51.000	119.026	80.009	19.994	103.941	20.050	2.722	0.232
52.500	119.348	80.010	19.994	103.944	20.052	2.575	0.200
54.000	119.616	80.010	19.994	103.947	20.052	2.589	0.186
55.501	119.992	80.009	19.994	103.945	20.053	2.469	0.242
57.000	120.420	80.007	19.993	103.942	20.050	2.683	0.277
58.500	120.762	80.009	19.994	103.948	20.052	2.541	0.236
60.000	121.174	80.008	19.994	103.960	20.052	2.569	0.290
61.500	121.534	80.008	19.995	103.964	20.050	2.694	0.240
63.000	121.935	80.008	19.993	103.955	20.050	2.728	0.263
64.500	122.365	80.008	19.994	103.964	20.053	2.503	0.284
66.000	122.836	80.007	19.993	103.969	20.049	2.808	0.319
67.500	123.222	80.009	19.993	103.952	20.051	2.658	0.259
69.000	123.669	80.010	19.994	103.960	20.051	2.644	0.322
70.501	124.111	80.009	19.994	103.978	20.051	2.651	0.301
72.001	124.623	80.010	19.993	103.981	20.054	2.453	0.350
73.501	125.091	80.009	19.994	103.983	20.052	2.549	0.317
75.000	125.574	80.009	19.992	103.982	20.054	2.423	0.344
76.500	126.029	80.010	19.994	103.979	20.053	2.479	0.305
78.000	126.525	80.011	19.992	103.976	20.055	2.363	0.338
79.500	127.043	80.011	19.993	103.972	20.051	2.608	0.349
81.000	127.533	80.010	19.994	103.964	20.055	2.339	0.344
82.501	128.088	80.012	19.993	103.976	20.056	2.284	0.367
84.000	128.621	80.012	19.993	103.980	20.052	2.605	0.345
85.500	129.166	80.011	19.993	103.978	20.050	2.696	0.363
87.000	129.723	80.010	19.993	103.979	20.051	2.662	0.367
88.501	130.250	80.011	19.993	103.980	20.049	2.776	0.368
90.000	130.839	80.010	19.992	103.919	20.049	2.754	0.388
91.500	131.352	80.012	19.994	103.877	20.053	2.467	0.357
93.001	131.911	80.010	19.995	104.013	20.054	2.435	0.380
94.500	132.468	80.011	19.995	104.061	20.053	2.503	0.381
96.000	133.079	80.011	19.994	103.990	20.053	2.487	0.409
97.500	133.644	80.011	19.993	103.979	20.051	2.634	0.386
99.000	134.218	80.010	19.994	103.978	20.050	2.748	0.381
100.500	134.789	80.012	19.992	103.985	20.050	2.684	0.388
102.001	135.406	80.012	19.994	103.985	20.052	2.547	0.421
103.500	136.054	80.012	19.993	103.981	20.050	2.702	0.440
105.000	136.613	80.012	19.992	103.984	20.048	2.897	0.375
106.501	137.284	80.013	19.994	103.987	20.049	2.777	0.431
108.000	137.939	80.013	19.992	103.984	20.049	2.809	0.441
109.500	138.549	80.012	19.992	103.980	20.051	2.662	0.436
111.000	139.152	80.013	19.993	103.979	20.046	2.978	0.394
112.501	139.803	80.010	19.994	103.979	20.049	2.791	0.442
114.001	140.480	80.010	19.992	103.984	20.049	2.789	0.459
115.500	141.133	80.010	19.993	103.987	20.046	2.992	0.438
117.001	141.805	80.008	19.990	103.997	20.048	2.851	0.445
118.500	142.530	80.011	19.995	103.998	20.043	3.243	0.482
120.000	143.177	80.009	19.993	103.985	20.044	3.177	0.412
121.500	143.884	80.010	19.992	103.986	20.044	3.126	0.481
123.001	144.523	80.009	19.997	103.997	20.042	3.279	0.426
124.501	145.236	80.010	19.995	103.998	20.040	3.409	0.463
126.000	145.912	80.009	19.993	103.990	20.040	3.454	0.447
127.501	146.592	80.009	19.993	103.985	20.045	3.100	0.448
129.000	147.275	80.008	19.992	103.990	20.043	3.210	0.462
130.500	148.019	80.011	19.994	103.994	20.046	2.996	0.499
132.000	148.738	80.011	19.994	103.990	20.044	3.144	0.462
133.500	149.425	80.009	19.995	103.992	20.044	3.186	0.451
135.000	150.128	80.010	19.996	103.990	20.044	3.144	0.463
136.500	150.825	80.009	19.993	103.983	20.041	3.391	0.447
138.000	151.546	80.009	19.994	103.983	20.041	3.357	0.506
139.500	152.234	80.010	19.994	103.984	20.044	3.150	0.461
141.000	153.012	80.009	19.994	103.985	20.046	2.981	0.526
142.500	153.732	80.008	19.993	103.989	20.042	3.285	0.464
144.000	154.480	80.009	19.995	103.989	20.041	3.363	0.483
145.500	155.196	80.009	19.994	103.984	20.045	3.070	0.484
147.000	155.903	80.009	19.995	103.985	20.048	2.859	0.483
148.500	156.638	80.008	19.995	103.984	20.046	2.971	0.503
150.000	157.371	80.007	19.993	103.980	20.044	3.132	0.515
151.500	158.096	80.008	19.994	103.978	20.045	3.070	0.457
153.000	158.860	80.009	19.994	103.978	20.044	3.126	0.490
154.500	159.657	80.008	19.994	103.977	20.045	3.110	0.559
156.000	160.360	80.011	19.992	103.978	20.042	3.297	0.466
157.500	161.103	80.010	19.994	103.977	20.046	2.983	0.492
159.000	161.865	80.011	19.993	103.978	20.045	3.073	0.499
160.500	162.646	80.011	19.994	103.971	20.048	2.828	0.500
162.000	163.400	80.011	19.994	103.973	20.045	3.065	0.503
163.500	164.164	80.011	19.993	103.977	20.047	2.941	0.516
165.000	164.941	80.011	19.995	103.977	20.051	2.656	0.522
166.500	165.679	80.010	19.994	103.979	20.045	3.065	0.506
168.000	166.474	80.009	19.993	103.973	20.049	2.798	0.534
169.500	167.206	80.011	19.993	103.969	20.047	2.969	0.497
171.000	167.976	80.012	19.992	103.966	20.045	3.093	0.509
172.500	168.765	80.011	19.993	103.955	20.045	3.083	0.535
174.000	169.512	80.010	19.994	103.964	20.050	2.743	0.512
175.500	170.313	80.012	19.993	103.973	20.045	3.113	0.523
177.000	171.077	80.010	19.992	103.971	20.047	2.920	0.528
178.500	171.791	80.011	19.995	103.973	20.048	2.888	0.486
180.000	172.556	80.009	19.995	103.965	20.048	2.862	0.545
181.500	173.357	80.014	19.994	103.962	20.049	2.761	0.546
183.000	174.117	80.010	19.994	103.951	20.050	2.707	0.503
184.500	174.843	80.013	19.992	103.951	20.052	2.535	0.475
186.000	175.587	80.011	19.993	103.950	20.052	2.575	0.497
187.500	176.417	80.015	19.993	103.947	20.051	2.635	0.545
189.000	177.136	80.011	19.993	103.948	20.052	2.543	0.485
190.500	177.846	80.012	19.993	103.950	20.051	2.614	0.474
192.000	178.665	80.009	19.993	103.947	20.055	2.351	0.542
193.500	179.418	80.011	19.992	103.951	20.053	2.508	0.506
195.000	180.153	80.012	19.991	103.948	20.054	2.394	0.518
196.500	180.945	80.009	19.993	103.944	20.052	2.585	0.529
198.000	181.708	80.010	19.993	103.945	20.051	2.659	0.499
199.500	182.418	80.009	19.993	103.953	20.051	2.607	0.465
201.000	183.219	80.010	19.993	103.931	20.048	2.866	0.520
202.500	183.992	80.009	19.992	103.919	20.055	2.340	0.490
204.000	184.798	80.009	19.991	103.941	20.053	2.530	0.514
205.500	185.504	80.010	19.993	103.945	20.049	2.809	0.485
207.000	186.292	80.009	19.994	103.945	20.050	2.713	0.511
208.500	187.035	80.009	19.994	103.945	20.053	2.522	0.511
210.000	187.827	80.013	19.994	103.943	20.051	2.617	0.521
211.500	188.561	80.008	19.993	103.943	20.054	2.430	0.508
213.000	189.324	80.010	19.995	103.942	20.053	2.506	0.522
214.501	190.069	80.010	19.993	103.939	20.052	2.572	0.485
216.000	190.839	80.010	19.995	103.932	20.052	2.556	0.537
217.500	191.572	80.010	19.994	103.935	20.055	2.379	0.490
219.000	192.346	80.010	19.994	103.935	20.055	2.331	0.504
220.500	193.056	80.007	19.994	103.936	20.054	2.438	0.472
222.000	193.797	80.009	19.993	103.935	20.057	2.227	0.494
223.500	194.544	80.010	19.995	103.934	20.056	2.303	0.483
225.000	195.283	80.010	19.994	103.919	20.057	2.223	0.460
226.500	196.049	80.010	19.995	103.921	20.052	2.568	0.504
228.000	196.725	80.009	19.993	103.919	20.054	2.442	0.437
229.500	197.492	80.010	19.995	103.915	20.056	2.297	0.493
231.000	198.223	80.007	19.994	103.929	20.055	2.337	0.477
232.500	198.999	80.009	19.993	103.922	20.055	2.369	0.525
234.000	199.755	80.008	19.996	103.912	20.053	2.468	0.499
235.500	200.441	80.010	19.993	103.926	20.059	2.034	0.487
237.000	201.189	80.009	19.994	103.923	20.057	2.225	0.494
238.500	201.964	80.011	19.995	103.931	20.054	2.413	0.535
240.000	202.686	80.012	19.995	103.941	20.055	2.315	0.461
241.500	203.446	80.011	19.994	103.932	20.056	2.281	0.494
243.000	204.161	80.010	19.996	103.928	20.058	2.160	0.506
244.500	204.902	80.011	19.996	103.932	20.058	2.154	0.491
246.000	205.634	80.009	19.994	103.928	20.059	2.082	0.483
247.500	206.421	80.010	19.995	103.925	20.056	2.254	0.498
249.000	207.122	80.010	19.993	103.920	20.059	2.082	0.463
250.500	207.901	80.011	19.995	103.908	20.061	1.935	0.526
252.000	208.608	80.010	19.996	103.914	20.058	2.124	0.482
253.500	209.325	80.010	19.993	103.925	20.058	2.104	0.487
255.000	210.084	80.010	19.994	103.914	20.058	2.128	0.487
256.500	210.801	80.010	19.994	103.914	20.061	1.921	0.477
258.000	211.561	80.010	19.994	103.907	20.061	1.919	0.541
259.500	212.307	80.011	19.993	103.908	20.062	1.829	0.496
261.001	212.993	80.010	19.993	103.910	20.059	2.054	0.472
262.500	213.753	80.011	19.993	103.910	20.059	2.090	0.525
264.000	214.538	80.012	19.993	103.910	20.060	1.998	0.512
265.500	215.244	80.012	19.994	103.917	20.057	2.214	0.484
267.000	216.008	80.011	19.995	103.916	20.060	1.961	0.507
268.500	216.711	80.011	19.993	103.918	20.062	1.817	0.477
270.000	217.484	80.011	19.993	103.922	20.058	2.154	0.513
271.500	218.226	80.012	19.992	103.913	20.061	1.949	0.481
273.000	218.939	80.012	19.992	103.907	20.059	2.044	0.490
274.500	219.705	80.012	19.992	103.907	20.061	1.939	0.505
276.000	220.410	80.012	19.993	103.909	20.057	2.190	0.473
277.500	221.143	80.010	19.992	103.903	20.062	1.807	0.509
279.000	221.851	80.010	19.994	103.907	20.063	1.761	0.465
280.500	222.590	80.010	19.994	103.915	20.063	1.797	0.499
282.000	223.369	80.009	19.995	103.914	20.064	1.718	0.512
283.500	224.105	80.009	19.996	103.907	20.063	1.795	0.474
285.000	224.823	80.010	19.993	103.902	20.063	1.736	0.502
286.500	225.596	80.010	19.994	103.901	20.063	1.753	0.521
288.000	226.342	80.010	19.993	103.901	20.061	1.933	0.478
289.500	227.094	80.011	19.994	103.905	20.062	1.829	0.508
291.000	227.824	80.011	19.993	103.905	20.065	1.654	0.497
292.500	228.602	80.009	19.992	103.901	20.060	1.983	0.516
294.000	229.393	80.011	19.993	103.903	20.060	1.991	0.540
295.500	230.169	80.012	19.994	103.903	20.060	1.951	0.514
297.000	230.889	80.009	19.991	103.906	20.064	1.694	0.473
298.500	231.672	80.010	19.994	103.907	20.063	1.758	0.506
300.000	232.443	80.010	19.994	103.903	20.061	1.889	0.505
301.500	233.235	80.011	19.993	103.904	20.059	2.088	0.537
303.000	233.961	80.012	19.993	103.903	20.057	2.214	0.483
304.500	234.719	80.011	19.993	103.903	20.059	2.068	0.493
306.000	235.491	80.009	19.994	103.902	20.063	1.795	0.531
307.500	236.282	80.010	19.994	103.903	20.062	1.847	0.512
309.000	236.965	80.010	19.994	103.903	20.065	1.648	0.451
310.500	237.747	80.011	19.993	103.899	20.065	1.622	0.530
312.000	238.500	80.010	19.995	103.900	20.069	1.359	0.505
313.500	239.213	80.009	19.996	103.902	20.067	1.486	0.498
315.000	239.913	80.009	19.995	103.903	20.067	1.443	0.465
316.501	240.678	80.010	19.994	103.903	20.063	1.755	0.514
318.000	241.398	80.011	19.994	103.903	20.069	1.343	0.483
319.500	242.204	80.010	19.994	103.905	20.063	1.801	0.523
321.000	242.908	80.011	19.994	103.909	20.065	1.642	0.494
322.500	243.693	80.011	19.994	103.906	20.065	1.634	0.514
324.000	244.400	80.010	19.993	103.905	20.061	1.909	0.467
325.500	245.137	80.012	19.994	103.905	20.065	1.642	0.477
327.000	245.912	80.010	19.994	103.904	20.066	1.546	0.505
328.500	246.640	80.010	19.993	103.902	20.063	1.740	0.495
330.000	247.360	80.010	19.993	103.902	20.066	1.564	0.495
331.500	248.042	80.011	19.993	103.902	20.065	1.628	0.444
333.000	248.759	80.010	19.995	103.903	20.066	1.546	0.492
334.500	249.527	80.011	19.993	103.900	20.063	1.752	0.517
336.000	250.313	80.009	19.993	103.900	20.066	1.528	0.516
337.500	251.002	80.010	19.994	103.903	20.065	1.632	0.452
339.000	251.755	80.011	19.993	103.902	20.062	1.815	0.508
340.500	252.470	80.010	19.994	103.902	20.060	1.975	0.492
342.000	253.206	80.009	19.995	103.903	20.065	1.654	0.492
343.500	253.945	80.010	19.995	103.900	20.065	1.642	0.523
345.000	254.723	80.010	19.994	103.895	20.065	1.620	0.501
346.500	255.439	80.013	19.994	103.893	20.067	1.465	0.472
348.000	256.158	80.011	19.995	103.898	20.065	1.612	0.459
349.500	256.887	80.011	19.994	103.894	20.065	1.600	0.468
351.000	257.587	80.011	19.993	103.896	20.068	1.381	0.474
352.500	258.405	80.012	19.994	103.898	20.067	1.489	0.533
354.000	259.088	80.012	19.993	103.900	20.067	1.505	0.453
355.500	259.830	80.011	19.994	103.898	20.063	1.785	0.501
357.000	260.593	80.011	19.993	103.891	20.066	1.524	0.505
358.500	261.358	80.012	19.994	103.886	20.062	1.877	0.516
360.000	262.053	80.012	19.994	103.896	20.065	1.592	0.463
361.500	262.820	80.010	19.995	103.898	20.065	1.608	0.521
363.000	263.553	80.011	19.994	103.884	20.061	1.923	0.473
364.500	264.368	80.011	19.995	103.887	20.061	1.903	0.553
366.000	265.070	80.011	19.994	103.896	20.062	1.875	0.462
367.500	265.844	80.008	19.993	103.894	20.070	1.293	0.498
369.000	266.543	80.009	19.993	103.890	20.060	1.979	0.436
370.500	267.316	80.010	19.994	103.883	20.059	2.068	0.490
372.000	268.015	80.010	19.993	103.892	20.065	1.626	0.461
373.500	268.804	80.008	19.993	103.898	20.060	2.003	0.522
375.000	269.497	80.010	19.993	103.896	20.067	1.499	0.488
376.501	270.303	80.010	19.994	103.898	20.066	1.556	0.540
378.000	271.055	80.013	19.994	103.901	20.064	1.700	0.513
379.500	271.828	80.009	19.993	103.898	20.066	1.544	0.528
381.001	272.558	80.011	19.994	103.893	20.065	1.642	0.478
382.500	273.306	80.010	19.995	103.897	20.063	1.774	0.497
384.000	274.037	80.009	19.994	103.903	20.065	1.612	0.496
385.500	274.766	80.010	19.993	103.900	20.066	1.533	0.501
387.000	275.566	80.008	19.993	103.895	20.066	1.550	0.541
388.500	276.321	80.009	19.993	103.894	20.065	1.628	0.526
390.000	277.039	80.010	19.993	103.892	20.064	1.682	0.502
391.500	277.842	80.009	19.993	103.899	20.062	1.861	0.520
393.000	278.605	80.008	19.993	103.896	20.065	1.626	0.513
394.500	279.400	80.009	19.992	103.893	20.066	1.580	0.514
396.000	280.123	80.009	19.992	103.892	20.063	1.760	0.496
397.500	280.877	80.009	19.993	103.892	20.064	1.698	0.496
399.000	281.633	80.008	19.993	103.899	20.065	1.630	0.520
400.500	282.392	80.009	19.993	103.894	20.064	1.710	0.509
402.000	283.180	80.009	19.993	103.900	20.069	1.297	0.489
403.500	283.932	80.010	19.993	103.897	20.063	1.788	0.515
405.000	284.662	80.010	19.993	103.883	20.063	1.774	0.492
406.500	285.416	80.011	19.994	103.883	20.064	1.728	0.490
408.000	286.193	80.011	19.994	103.881	20.066	1.564	0.514
409.500	286.943	80.011	19.994	103.884	20.069	1.355	0.484
411.000	287.730	80.010	19.995	103.890	20.070	1.277	0.539
412.500	288.483	80.012	19.994	103.883	20.064	1.710	0.506
414.000	289.198	80.012	19.995	103.881	20.065	1.614	0.497
415.500	290.002	80.012	19.994	103.892	20.067	1.513	0.536
417.000	290.746	80.009	19.993	103.890	20.067	1.453	0.489
418.500	291.534	80.011	19.995	103.894	20.070	1.266	0.518
420.000	292.313	80.011	19.994	103.896	20.069	1.327	0.537
421.500	293.055	80.010	19.995	103.891	20.068	1.411	0.500
423.001	293.846	80.009	19.995	103.889	20.066	1.521	0.527
424.500	294.580	80.011	19.993	103.892	20.067	1.489	0.489
426.000	295.405	80.011	19.993	103.889	20.067	1.483	0.567
427.500	296.079	80.011	19.993	103.889	20.069	1.345	0.459
429.000	296.903	80.012	19.993	103.883	20.067	1.491	0.559
430.500	297.652	80.012	19.993	103.873	20.068	1.415	0.518
432.000	298.430	80.012	19.993	103.876	20.067	1.463	0.516
433.500	299.190	80.012	19.994	103.876	20.066	1.567	0.487
435.000	299.931	80.012	19.994	103.880	20.062	1.830	0.486
436.500	300.655	80.011	19.994	103.875	20.062	1.806	0.496
438.000	301.446	80.012	19.994	103.864	20.063	1.790	0.536
439.500	302.158	80.012	19.994	103.867	20.062	1.806	0.466
441.000	302.958	80.011	19.995	103.874	20.064	1.700	0.523
442.500	303.660	80.010	19.994	103.870	20.065	1.598	0.462
444.000	304.425	80.010	19.994	103.868	20.066	1.551	0.505
445.500	305.184	80.010	19.996	103.875	20.063	1.762	0.512
447.000	305.936	80.009	19.994	103.875	20.066	1.577	0.492
448.500	306.664	80.007	19.994	103.871	20.064	1.666	0.492
450.000	307.454	80.009	19.994	103.882	20.066	1.515	0.519
451.500	308.214	80.009	19.994	103.886	20.067	1.483	0.515
453.000	308.963	80.010	19.993	103.875	20.065	1.613	0.504
454.500	309.702	80.009	19.994	103.870	20.068	1.403	0.496
456.000	310.479	80.010	19.992	103.869	20.064	1.732	0.512
457.500	311.250	80.010	19.993	103.866	20.069	1.359	0.513
459.000	312.031	80.010	19.992	103.872	20.066	1.557	0.517
460.500	312.813	80.010	19.994	103.883	20.068	1.423	0.514
462.000	313.531	80.009	19.993	103.878	20.066	1.580	0.475
463.500	314.268	80.010	19.992	103.871	20.064	1.726	0.490
465.000	315.059	80.009	19.993	103.873	20.065	1.588	0.512
466.500	315.852	80.010	19.993	103.873	20.066	1.565	0.518
468.000	316.556	80.009	19.992	103.873	20.064	1.714	0.480
469.500	317.343	80.010	19.992	103.882	20.061	1.925	0.508
471.000	318.087	80.010	19.993	103.876	20.063	1.754	0.497
472.500	318.870	80.009	19.993	103.879	20.064	1.680	0.525
474.000	319.650	80.009	19.994	103.893	20.065	1.611	0.530
475.500	320.340	80.010	19.994	103.883	20.068	1.387	0.464
477.000	321.125	80.008	19.991	103.875	20.066	1.560	0.524
478.500	321.838	80.009	19.995	103.887	20.066	1.575	0.457
480.000	322.610	80.009	19.993	103.887	20.068	1.373	0.516
481.500	323.329	80.009	19.993	103.874	20.065	1.640	0.486
483.000	324.119	80.010	19.994	103.877	20.064	1.720	0.513
484.500	324.920	80.010	19.994	103.873	20.066	1.575	0.543
486.000	325.682	80.011	19.993	103.866	20.067	1.509	0.520
487.500	326.429	80.011	19.993	103.879	20.063	1.752	0.528
489.000	327.151	80.011	19.993	103.881	20.064	1.722	0.473
490.500	327.966	80.011	19.992	103.871	20.067	1.511	0.511
492.000	328.684	80.011	19.993	103.867	20.062	1.846	0.466
493.500	329.450	80.010	19.992	103.871	20.064	1.700	0.515
495.000	330.195	80.010	19.993	103.871	20.060	2.001	0.506
496.500	330.972	80.011	19.993	103.868	20.061	1.892	0.508
498.000	331.689	80.011	19.992	103.866	20.059	2.065	0.513
499.500	332.440	80.009	19.993	103.866	20.060	2.019	0.504
501.000	333.199	80.011	19.994	103.864	20.058	2.101	0.541
502.500	333.993	80.010	19.994	103.864	20.060	1.969	0.527
504.000	334.745	80.010	19.993	103.864	20.055	2.368	0.495
505.500	335.481	80.010	19.994	103.863	20.061	1.895	0.475
507.000	336.216	80.010	19.994	103.872	20.059	2.093	0.447
508.500	336.922	80.010	19.994	103.869	20.059	2.085	0.440
510.000	337.620	80.009	19.994	103.862	20.060	1.967	0.438
511.500	338.406	80.010	19.993	103.865	20.058	2.109	0.472
513.000	339.232	80.010	19.994	103.869	20.059	2.027	0.529
514.500	340.017	80.010	19.993	103.867	20.058	2.160	0.624
516.000	340.605	80.011	19.993	103.869	20.059	2.068	0.384
517.500	341.438	80.010	19.993	103.876	20.058	2.166	0.363
519.000	342.214	80.011	19.993	103.872	20.056	2.294	0.520
520.500	342.909	80.011	19.993	103.870	20.057	2.212	0.417
522.000	343.727	80.010	19.993	103.869	20.053	2.525	0.517
523.500	344.444	80.011	19.993	103.870	20.055	2.374	0.452
525.000	345.150	80.011	19.993	103.886	20.060	1.953	0.472
526.500	345.881	80.010	19.994	103.895	20.060	1.993	0.526
528.000	346.676	80.009	19.994	103.885	20.054	2.441	0.537
529.500	347.389	80.008	19.994	103.877	20.057	2.204	0.464
531.000	348.184	80.008	19.994	103.877	20.055	2.330	0.506
532.500	348.966	80.007	19.994	103.875	20.055	2.374	0.491
534.000	349.661	80.008	19.994	103.868	20.057	2.218	0.494
535.500	350.466	80.007	19.994	103.870	20.056	2.246	0.512
537.000	351.225	80.007	19.993	103.878	20.055	2.320	0.492
538.500	351.982	80.008	19.996	103.886	20.055	2.350	0.521
540.000	352.786	80.009	19.995	103.885	20.057	2.240	0.523
541.500	353.541	80.008	19.994	103.874	20.057	2.207	0.487
543.000	354.252	80.008	19.995	103.870	20.055	2.378	0.471
544.500	355.076	80.009	19.993	103.883	20.052	2.555	0.539
546.001	355.837	80.009	19.994	103.883	20.054	2.422	0.538
547.500	356.588	80.011	19.994	103.870	20.056	2.304	0.512
549.000	357.398	80.010	19.992	103.874	20.051	2.667	0.537
550.500	358.136	80.010	19.993	103.871	20.052	2.549	0.499
552.000	358.942	80.009	19.993	103.867	20.053	2.525	0.537
553.500	359.690	80.009	19.993	103.868	20.053	2.506	0.487
555.000	360.462	80.010	19.992	103.872	20.050	2.711	0.494
556.500	361.258	80.009	19.992	103.878	20.046	2.980	0.531
558.000	362.021	80.010	19.994	103.874	20.049	2.777	0.494
559.500	362.758	80.009	19.993	103.880	20.048	2.846	0.483
561.000	363.571	80.009	19.994	103.880	20.046	2.970	0.537
562.500	364.280	80.008	19.993	103.872	20.047	2.964	0.481
564.000	365.063	80.009	19.993	103.869	20.043	3.241	0.544
565.500	365.874	80.010	19.994	103.870	20.043	3.219	0.533
567.000	366.622	80.010	19.993	103.878	20.039	3.532	0.518
568.500	367.403	80.009	19.993	103.870	20.038	3.618	0.533
570.000	368.180	80.009	19.994	103.864	20.034	3.899	0.505
571.500	368.934	80.010	19.993	103.864	20.035	3.797	0.505
573.000	369.718	80.011	19.993	103.865	20.036	3.711	0.544
574.500	370.430	80.010	19.994	103.863	20.032	4.028	0.494
576.000	371.235	80.012	19.994	103.865	20.028	4.301	0.539
577.501	372.000	80.011	19.992	103.873	20.027	4.409	0.510
579.001	372.757	80.010	19.993	103.874	20.021	4.807	0.496
580.500	373.525	80.011	19.993	103.867	20.020	4.891	0.518
582.000	374.285	80.011	19.994	103.868	20.019	4.958	0.511
583.500	375.066	80.010	19.995	103.878	20.018	5.014	0.505
585.000	375.843	80.010	19.994	103.876	20.014	5.317	0.507
586.500	376.615	80.010	19.993	103.869	20.006	5.944	0.508
588.000	377.369	80.011	19.993	103.872	20.001	6.283	0.479
589.500	378.087	80.010	19.994	103.878	20.000	6.316	0.490
591.000	378.780	80.010	19.993	103.884	19.998	6.480	0.473
592.500	379.591	80.011	19.993	103.883	19.994	6.755	0.514
594.000	380.331	80.011	19.993	103.881	19.989	7.126	0.499
595.500	381.119	80.012	19.993	103.891	19.989	7.124	0.520
597.000	381.922	80.010	19.992	103.901	19.981	7.729	0.544
598.500	382.621	80.010	19.993	103.901	19.971	8.423	0.476
600.000	383.349	80.012	19.994	103.903	19.968	8.692	0.463
601.500	384.073	80.012	19.993	103.902	19.962	9.094	0.484
603.000	384.884	80.013	19.993	103.894	19.959	9.350	0.540
604.500	385.623	80.013	19.994	103.895	19.955	9.617	0.502
606.000	386.416	80.012	19.994	103.894	19.949	10.056	0.523
607.500	387.105	80.010	19.993	103.900	19.941	10.641	0.465
609.000	387.929	80.011	19.994	103.901	19.932	11.292	0.544
610.500	388.694	80.011	19.994	103.911	19.924	11.904	0.504
612.000	389.404	80.010	19.993	103.929	19.917	12.381	0.472
613.500	390.224	80.011	19.994	103.916	19.909	12.943	0.567
615.000	390.959	80.011	19.994	103.919	19.900	13.593	0.489
616.500	391.747	80.011	19.994	103.924	19.895	14.023	0.532
618.000	392.535	80.010	19.994	103.918	19.884	14.772	0.526
619.500	393.310	80.010	19.993	103.917	19.875	15.463	0.530
621.000	394.061	80.009	19.994	103.935	19.860	16.502	0.510
622.500	394.865	80.010	19.994	103.943	19.850	17.265	0.514
624.000	395.635	80.009	19.993	103.942	19.833	18.470	0.516
625.500	396.292	80.009	19.994	103.937	19.820	19.468	0.464
627.000	397.114	80.010	19.994	103.950	19.804	20.608	0.521
628.500	397.889	80.011	19.994	103.954	19.791	21.580	0.508
630.000	398.640	80.009	19.995	103.951	19.779	22.463	0.496
631.500	399.406	80.010	19.995	103.951	19.767	23.290	0.505
633.000	400.143	80.009	19.995	103.942	19.753	24.318	0.488
634.500	400.946	80.010	19.996	103.948	19.740	25.285	0.531
636.000	401.669	80.009	19.995	103.972	19.724	26.433	0.475
637.500	402.438	80.009	19.995	103.981	19.711	27.370	0.511
639.000	403.214	80.010	19.994	103.984	19.699	28.277	0.512
640.500	403.920	80.008	19.996	103.996	19.679	29.717	0.499
642.000	404.701	80.010	19.994	104.000	19.665	30.728	0.521
643.500	405.421	80.009	19.994	104.007	19.646	32.117	0.483
645.000	406.199	80.025	19.997	104.023	19.621	33.938	0.508
646.500	406.904	80.025	19.998	104.050	19.601	35.409	0.465
648.000	407.653	80.026	20.000	104.087	19.572	37.486	0.481
649.500	408.423	80.042	20.006	104.103	19.528	40.727	0.502
651.000	409.199	80.046	20.009	104.116	19.494	43.245	0.519
652.500	410.020	80.047	20.009	104.122	19.465	45.350	0.552
654.000	410.780	80.048	20.010	104.099	19.441	47.089	0.498
655.500	411.593	80.030	20.004	104.076	19.416	48.953	0.547
657.000	412.325	80.029	20.001	104.060	19.392	50.679	0.481
658.500	413.058	80.032	20.000	104.069	19.362	52.855	0.493
660.000	413.799	80.025	19.995	104.123	19.334	54.915	0.497
661.501	414.520	80.011	19.994	104.172	19.305	57.056	0.492
663.000	415.272	80.012	19.998	104.179	19.266	59.877	0.501
664.500	416.017	80.011	19.997	104.178	19.233	62.301	0.482
666.000	416.789	80.010	19.994	104.179	19.200	64.715	0.498
667.500	417.578	80.011	19.994	104.191	19.161	67.549	0.518
669.000	418.321	80.010	19.993	104.210	19.109	71.352	0.487
670.500	419.101	80.011	19.994	104.226	19.052	75.572	0.522
672.000	419.929	80.011	19.993	104.260	19.006	78.977	0.552
673.500	420.690	80.011	19.995	104.257	18.962	82.214	0.522
675.000	421.463	80.011	19.993	104.238	18.923	85.039	0.515
676.500	422.238	80.011	19.993	104.215	18.885	87.814	0.540
678.000	422.976	80.013	19.993	104.217	18.841	91.012	0.500
679.500	423.803	80.012	19.994	104.246	18.798	94.154	0.563
681.000	424.588	80.013	19.992	104.326	18.751	97.619	0.531
682.500	425.340	80.013	19.993	104.369	18.698	101.558	0.508
684.000	426.097	80.014	19.994	104.385	18.642	105.705	0.514
685.500	426.893	80.012	19.994	104.388	18.592	109.377	0.528
687.001	427.623	80.013	19.993	104.387	18.540	113.124	0.485
688.500	428.347	80.012	19.993	104.404	18.489	116.851	0.486
690.000	429.075	80.012	19.993	104.416	18.424	121.716	0.478
691.500	429.813	80.011	19.994	104.436	18.358	126.597	0.487
693.000	430.594	80.009	19.994	104.491	18.290	131.570	0.506
694.500	431.353	80.011	19.994	104.525	18.232	135.845	0.514
696.000	432.105	80.010	19.993	104.535	18.180	139.628	0.510
697.500	432.881	80.010	19.995	104.524	18.130	143.290	0.511
699.000	433.640	80.009	19.995	104.513	18.070	147.719	0.510
700.500	434.445	80.009	19.995	104.537	18.001	152.785	0.557
702.000	435.211	80.009	19.995	104.623	17.937	157.514	0.510
703.500	435.963	80.009	19.995	104.654	17.881	161.673	0.516
705.000	436.747	80.009	19.994	104.684	17.833	165.177	0.533
706.500	437.527	80.010	19.995	104.661	17.789	168.389	0.516
708.000	438.303	80.009	19.994	104.627	17.742	171.915	0.514
709.500	439.072	80.010	19.994	104.635	17.711	174.223	0.515
711.000	439.811	80.009	19.994	104.689	17.682	176.281	0.506
712.500	440.627	80.010	19.993	104.713	17.662	177.800	0.572
714.000	441.378	80.011	19.992	104.730	17.640	179.337	0.520
715.500	442.133	80.010	19.994	104.731	17.626	180.398	0.481
717.000	442.951	80.007	19.992	104.737	17.607	181.749	0.529
718.500	443.717	80.009	19.995	104.761	17.589	183.086	0.511
720.000	444.499	80.009	19.995	104.785	17.574	184.180	0.483
721.500	445.275	80.009	19.995	104.786	17.567	184.694	0.505
723.000	446.025	80.008	19.993	104.780	17.560	185.166	0.507
724.500	446.792	80.008	19.994	104.774	17.564	184.848	0.528
726.000	447.569	80.009	19.994	104.760	17.564	184.800	0.507
727.500	448.326	80.008	19.994	104.757	17.579	183.650	0.507
729.000	449.166	80.007	19.995	104.757	17.592	182.715	0.552
730.500	449.861	80.008	19.994	104.761	17.611	181.240	0.485
732.000	450.627	80.008	19.995	104.759	17.639	179.178	0.482
733.500	451.397	80.009	19.994	104.736	17.669	176.952	0.504
735.000	452.140	80.010	19.995	104.715	17.705	174.224	0.486
736.500	452.911	80.010	19.994	104.699	17.752	170.780	0.526
738.000	453.692	80.010	19.994	104.687	17.804	166.923	0.507
739.500	454.450	80.011	19.994	104.670	17.861	162.746	0.492
741.000	455.248	80.012	19.993	104.649	17.921	158.311	0.531
742.500	455.990	80.010	19.993	104.623	17.986	153.449	0.492
744.000	456.768	80.010	19.993	104.595	18.055	148.413	0.511
745.500	457.513	80.012	19.993	104.570	18.131	142.855	0.506
747.000	458.300	80.012	19.994	104.537	18.210	137.019	0.509
748.500	459.039	80.010	19.993	104.521	18.289	131.219	0.513
750.000	459.835	80.010	19.993	104.499	18.377	124.771	0.554
751.500	460.577	80.011	19.993	104.456	18.469	118.049	0.503
753.000	461.333	80.010	19.994	104.421	18.569	110.698	0.525
754.500	462.111	80.012	19.994	104.397	18.667	103.533	0.515
756.000	462.886	80.010	19.993	104.365	18.762	96.580	0.512
757.501	463.645	80.011	19.993	104.341	18.859	89.456	0.506
759.000	464.411	80.010	19.992	104.321	18.946	83.147	0.511
760.500	465.187	80.011	19.993	104.298	19.031	76.936	0.503
762.000	465.933	80.011	19.993	104.267	19.111	71.128	0.493
763.500	466.714	80.010	19.994	104.234	19.187	65.532	0.516
765.000	467.461	80.012	19.993	104.196	19.256	60.493	0.493
766.501	468.273	80.012	19.993	104.173	19.326	55.379	0.539
768.000	468.990	80.012	19.994	104.153	19.385	51.148	0.478
769.500	469.794	80.011	19.992	104.134	19.441	47.036	0.520
771.000	470.578	80.012	19.992	104.123	19.493	43.262	0.530
772.500	471.320	80.012	19.993	104.099	19.535	40.179	0.487
774.000	472.081	80.009	19.993	104.080	19.583	36.715	0.511
775.500	472.848	80.010	19.995	104.060	19.619	34.094	0.518
777.000	473.658	80.008	19.991	104.044	19.653	31.614	0.538
778.500	474.479	80.008	19.994	104.038	19.683	29.382	0.556
780.000	475.244	80.010	19.991	104.026	19.708	27.574	0.499
781.501	476.021	80.009	19.992	104.008	19.738	25.376	0.513
783.000	476.811	80.009	19.992	103.986	19.761	23.741	0.521
784.500	477.566	80.009	19.993	103.983	19.785	21.965	0.502
786.000	478.373	80.009	19.993	103.981	19.806	20.451	0.508
787.500	479.151	80.010	19.993	103.981	19.823	19.187	0.511
789.000	479.895	80.010	19.993	103.976	19.842	17.871	0.483
790.500	480.664	80.009	19.993	103.974	19.857	16.775	0.510
792.000	481.450	80.009	19.993	103.956	19.873	15.600	0.520
793.500	482.204	80.009	19.993	103.949	19.885	14.741	0.489
795.000	482.920	80.009	19.992	103.947	19.897	13.866	0.478
796.500	483.627	80.009	19.992	103.936	19.911	12.796	0.479
798.000	484.448	80.009	19.994	103.922	19.920	12.188	0.539
799.500	485.204	80.008	19.994	103.929	19.931	11.384	0.517
801.000	485.919	80.009	19.994	103.924	19.939	10.756	0.487
802.500	486.741	80.010	19.994	103.916	19.949	10.081	0.536
804.000	487.468	80.010	19.994	103.919	19.957	9.486	0.485
805.500	488.231	80.009	19.993	103.908	19.963	9.055	0.505
807.000	489.005	80.008	19.994	103.907	19.970	8.497	0.498
808.500	489.789	80.011	19.994	103.909	19.975	8.176	0.527
810.000	490.539	80.009	19.993	103.901	19.982	7.683	0.515
811.500	491.336	80.009	19.993	103.901	19.990	7.047	0.546
813.000	492.076	80.009	19.994	103.902	19.991	7.000	0.507
814.500	492.893	80.009	19.994	103.890	20.000	6.373	0.557
816.000	493.664	80.009	19.993	103.889	20.003	6.114	0.518
817.500	494.413	80.009	19.993	103.893	20.008	5.737	0.502
819.000	495.196	80.009	19.994	103.897	20.010	5.649	0.536
820.500	495.984	80.011	19.994	103.887	20.013	5.380	0.530
822.000	496.752	80.010	19.994	103.886	20.020	4.900	0.507
823.500	497.518	80.010	19.995	103.880	20.019	4.944	0.507
825.000	498.303	80.010	19.995	103.868	20.025	4.545	0.514
826.500	499.078	80.010	19.995	103.865	20.028	4.308	0.494
828.000	499.820	80.009	19.994	103.866	20.029	4.224	0.508
829.500	500.659	80.010	19.993	103.866	20.028	4.290	0.543
831.000	501.396	80.011	19.993	103.861	20.027	4.403	0.487
832.500	502.148	80.011	19.994	103.860	20.031	4.065	0.510
834.000	502.922	80.010	19.994	103.860	20.029	4.232	0.501
835.500	503.661	80.010	19.994	103.861	20.033	3.957	0.499
837.000	504.494	80.009	19.992	103.863	20.036	3.718	0.561
838.500	505.250	80.010	19.994	103.865	20.037	3.622	0.519
840.000	506.010	80.009	19.993	103.863	20.036	3.706	0.511
841.500	506.735	80.011	19.992	103.863	20.041	3.331	0.475
843.000	507.499	80.010	19.993	103.863	20.041	3.365	0.478
844.500	508.228	80.010	19.993	103.861	20.043	3.253	0.484
846.000	509.019	80.011	19.993	103.861	20.041	3.367	0.529
847.500	509.748	80.011	19.993	103.856	20.041	3.359	0.502
849.000	510.512	80.011	19.992	103.863	20.042	3.293	0.519
850.500	511.282	80.013	19.993	103.852	20.042	3.293	0.516
852.000	512.052	80.012	19.992	103.844	20.042	3.317	0.486
853.500	512.813	80.011	19.992	103.850	20.046	2.981	0.512
855.000	513.582	80.011	19.993	103.854	20.044	3.130	0.526
856.500	514.310	80.010	19.993	103.849	20.046	3.007	0.478
858.000	515.095	80.009	19.993	103.848	20.046	2.972	0.540
859.500	515.816	80.008	19.992	103.848	20.050	2.737	0.484
861.000	516.635	80.008	19.993	103.849	20.045	3.050	0.523
862.500	517.358	80.009	19.993	103.851	20.050	2.698	0.477
864.000	518.162	80.008	19.993	103.843	20.045	3.104	0.528
865.500	518.927	80.009	19.993	103.839	20.045	3.062	0.508
867.000	519.673	80.010	19.993	103.843	20.044	3.146	0.502
868.500	520.459	80.009	19.993	103.849	20.048	2.839	0.514
870.000	521.261	80.010	19.993	103.846	20.045	3.078	0.531
871.500	522.001	80.010	19.994	103.841	20.049	2.769	0.489
873.000	522.777	80.010	19.993	103.837	20.046	2.998	0.529
874.500	523.533	80.010	19.993	103.835	20.047	2.917	0.507
876.000	524.294	80.011	19.993	103.843	20.048	2.847	0.530
877.500	525.034	80.011	19.993	103.843	20.049	2.817	0.491
879.000	525.792	80.010	19.993	103.849	20.049	2.786	0.500
880.500	526.565	80.010	19.994	103.842	20.047	2.901	0.516
882.000	527.313	80.009	19.995	103.835	20.048	2.849	0.500
883.500	528.103	80.010	19.994	103.847	20.050	2.718	0.529
885.000	528.901	80.009	19.994	103.840	20.050	2.734	0.532
886.500	529.648	80.010	19.994	103.828	20.052	2.586	0.499
888.000	530.378	80.008	19.994	103.827	20.048	2.887	0.489
889.500	531.161	80.008	19.994	103.830	20.045	3.085	0.509
891.000	531.921	80.008	19.994	103.830	20.048	2.881	0.519
892.500	532.680	80.008	19.994	103.832	20.046	2.986	0.507
894.000	533.416	80.007	19.995	103.827	20.046	2.983	0.512
895.500	534.167	80.009	19.995	103.833	20.045	3.097	0.516
897.000	534.976	80.008	19.993	103.836	20.049	2.818	0.531
898.500	535.691	80.010	19.995	103.830	20.047	2.907	0.477
900.000	536.448	80.009	19.994	103.836	20.046	2.993	0.507
901.500	537.230	80.011	19.994	103.833	20.045	3.089	0.516
903.000	537.936	80.011	19.994	103.848	20.047	2.951	0.483
904.500	538.667	80.010	19.994	103.844	20.049	2.766	0.485
906.000	539.412	80.009	19.993	103.825	20.046	2.983	0.491
907.500	540.205	80.011	19.994	103.826	20.049	2.796	0.529
909.000	540.954	80.011	19.993	103.825	20.052	2.536	0.488
910.500	541.685	80.009	19.993	103.825	20.053	2.498	0.489
912.000	542.467	80.009	19.994	103.825	20.048	2.851	0.550
913.500	543.228	80.009	19.994	103.826	20.049	2.751	0.518
915.000	543.970	80.010	19.994	103.825	20.052	2.552	0.503
916.500	544.726	80.009	19.994	103.825	20.052	2.588	0.504
918.000	545.500	80.006	19.993	103.827	20.049	2.779	0.505
919.500	546.227	80.009	19.994	103.828	20.050	2.740	0.497
921.000	547.087	80.009	19.994	103.837	20.045	3.049	0.566
922.500	547.836	80.011	19.995	103.844	20.050	2.738	0.493
924.000	548.670	80.010	19.994	103.847	20.050	2.704	0.565
925.500	549.414	80.009	19.994	103.840	20.047	2.925	0.488
927.000	550.186	80.012	19.993	103.835	20.052	2.564	0.528
928.500	550.973	80.011	19.992	103.835	20.049	2.761	0.506
930.000	551.741	80.011	19.993	103.828	20.051	2.668	0.514
931.500	552.511	80.012	19.993	103.828	20.049	2.764	0.497
933.000	553.268	80.013	19.993	103.833	20.051	2.664	0.513
934.500	554.086	80.011	19.993	103.831	20.050	2.690	0.529
936.000	554.894	80.013	19.993	103.828	20.052	2.566	0.546
937.500	555.659	80.011	19.993	103.834	20.048	2.837	0.515
939.000	556.438	80.011	19.994	103.845	20.052	2.542	0.534
940.500	557.250	80.010	19.993	103.835	20.048	2.853	0.547
942.000	558.060	80.010	19.994	103.827	20.049	2.788	0.561
943.500	558.797	80.010	19.994	103.829	20.055	2.355	0.501
945.000	559.604	80.006	19.994	103.831	20.051	2.666	0.526
946.500	560.374	80.007	19.993	103.833	20.052	2.574	0.519
948.000	561.119	80.010	19.994	103.834	20.050	2.708	0.509
949.500	561.947	80.010	19.994	103.828	20.049	2.819	0.543
951.000	562.717	80.009	19.993	103.829	20.050	2.744	0.528
952.500	563.492	80.012	19.993	103.830	20.051	2.618	0.511
954.000	564.249	80.008	19.993	103.826	20.048	2.887	0.501
955.500	565.052	80.010	19.993	103.827	20.051	2.638	0.539
957.000	565.802	80.008	19.992	103.832	20.048	2.856	0.503
958.500	566.583	80.009	19.995	103.833	20.048	2.877	0.498
960.000	567.384	80.010	19.994	103.841	20.050	2.730	0.529
961.500	568.132	80.010	19.994	103.829	20.047	2.901	0.495
963.000	568.923	80.010	19.994	103.824	20.048	2.833	0.478
964.500	569.662	80.009	19.993	103.825	20.050	2.708	0.480
966.000	570.470	80.010	19.992	103.824	20.046	2.971	0.537
967.500	571.218	80.010	19.993	103.824	20.047	2.961	0.518
969.000	571.952	80.009	19.994	103.825	20.047	2.917	0.493
970.500	572.756	80.009	19.993	103.826	20.048	2.861	0.531
972.000	573.495	80.010	19.994	103.828	20.047	2.895	0.512
973.500	574.290	80.008	19.994	103.831	20.045	3.063	0.519
975.000	575.039	80.008	19.993	103.841	20.048	2.869	0.503
976.500	575.799	80.007	19.993	103.843	20.050	2.733	0.507
978.000	576.611	80.007	19.995	103.844	20.048	2.879	0.530
979.500	577.362	80.009	19.994	103.844	20.045	3.109	0.496
981.000	578.083	80.010	19.994	103.832	20.044	3.155	0.463
982.500	578.848	80.010	19.994	103.828	20.045	3.069	0.529
984.000	579.608	80.010	19.995	103.826	20.044	3.117	0.505
985.500	580.344	80.010	20.004	103.833	20.042	3.318	0.482
987.000	581.123	80.010	20.003	103.848	20.044	3.167	0.489
988.500	581.893	80.011	19.996	103.839	20.040	3.458	0.521
990.000	582.627	80.010	19.995	103.829	20.038	3.559	0.501
991.500	583.421	80.011	19.994	103.827	20.041	3.330	0.525
993.000	584.111	80.010	19.995	103.829	20.041	3.364	0.444
994.500	584.860	80.010	19.994	103.826	20.039	3.514	0.502
996.000	585.576	80.009	19.994	103.827	20.039	3.524	0.468
997.500	586.294	80.009	19.994	103.828	20.039	3.510	0.495
999.000	587.010	80.011	19.994	103.827	20.040	3.434	0.461
1000.500	587.780	80.010	19.994	103.824	20.039	3.502	0.532
1002.000	588.551	80.011	19.993	103.825	20.035	3.765	0.508
1003.500	589.223	80.010	19.994	103.826	20.040	3.414	0.462
1005.000	590.021	80.010	19.994	103.824	20.038	3.577	0.525
1006.500	590.760	80.010	19.994	103.821	20.040	3.454	0.498
1008.000	591.508	80.010	19.993	103.822	20.036	3.757	0.498
1009.500	592.262	80.010	19.994	103.827	20.038	3.569	0.494
1011.000	593.068	80.011	19.994	103.826	20.034	3.847	0.548
1012.500	593.813	80.013	19.993	103.825	20.034	3.847	0.530
1014.000	594.604	80.012	19.994	103.829	20.034	3.910	0.517
1015.500	595.368	80.013	19.993	103.824	20.036	3.733	0.509
1017.000	596.164	80.009	19.993	103.829	20.032	4.010	0.533
1018.500	596.881	80.010	19.995	103.828	20.034	3.847	0.500
1020.000	597.698	80.011	19.995	103.830	20.033	3.982	0.535
1021.500	598.434	80.010	19.992	103.825	20.028	4.327	0.487
1023.000	599.197	80.010	19.994	103.823	20.030	4.186	0.521
1024.500	599.957	80.011	19.996	103.821	20.033	3.926	0.508
1026.000	600.714	80.009	19.994	103.826	20.034	3.868	0.505
1027.500	601.500	80.010	19.993	103.829	20.034	3.904	0.536
1029.000	602.241	80.012	19.993	103.825	20.032	3.984	0.509
1030.501	602.932	80.011	19.994	103.826	20.033	3.948	0.483
1032.001	603.768	80.009	19.993	103.824	20.031	4.076	0.545
1033.500	604.546	80.010	19.993	103.825	20.028	4.279	0.515
1035.000	605.253	80.010	19.994	103.825	20.032	4.044	0.483
1036.500	606.079	80.010	19.995	103.827	20.027	4.361	0.531
1038.000	606.806	80.009	19.993	103.830	20.034	3.874	0.502
1039.500	607.629	80.011	19.993	103.830	20.028	4.277	0.531
1041.001	608.348	80.010	19.994	103.832	20.028	4.297	0.491
1042.500	609.155	80.011	19.994	103.826	20.032	4.024	0.521
1044.000	609.915	80.010	19.993	103.824	20.031	4.058	0.519
1045.500	610.678	80.009	19.994	103.826	20.030	4.201	0.501
1047.001	611.457	80.010	19.994	103.831	20.031	4.084	0.500
1048.500	612.213	80.009	19.994	103.828	20.029	4.267	0.495
1050.001	613.030	80.010	19.993	103.826	20.030	4.199	0.541
1051.500	613.806	80.008	19.994	103.826	20.029	4.218	0.518
1053.000	614.618	80.010	19.994	103.825	20.033	3.930	0.531
1054.500	615.376	80.010	19.994	103.821	20.032	3.988	0.524
1056.001	616.157	80.010	19.993	103.833	20.035	3.795	0.500
1057.500	616.960	80.008	19.993	103.828	20.032	4.026	0.539
1059.000	617.739	80.009	19.993	103.828	20.036	3.747	0.512
1060.500	618.496	80.010	19.993	103.829	20.034	3.869	0.496
1062.000	619.303	80.010	19.993	103.826	20.030	4.138	0.526
1063.501	620.053	80.009	19.993	103.825	20.033	3.923	0.505
1065.000	620.827	80.012	19.993	103.830	20.035	3.805	0.496
1066.500	621.653	80.009	19.994	103.827	20.036	3.719	0.549
1068.001	622.400	80.010	19.994	103.825	20.036	3.719	0.501
1069.500	623.218	80.012	19.993	103.824	20.037	3.621	0.537
1071.000	623.975	80.011	19.993	103.824	20.039	3.488	0.487
1072.500	624.767	80.011	19.992	103.823	20.037	3.657	0.542
1074.000	625.534	80.010	19.993	103.821	20.038	3.585	0.513
1075.500	626.276	80.009	19.994	103.822	20.038	3.568	0.495
1077.000	627.051	80.012	19.991	103.823	20.040	3.438	0.550
1078.500	627.813	80.011	19.994	103.828	20.038	3.598	0.512
1080.000	628.600	80.013	19.994	103.825	20.039	3.518	0.517
1081.500	629.389	80.009	19.994	103.822	20.044	3.123	0.524
1083.001	630.155	80.011	19.994	103.823	20.044	3.117	0.479
1084.500	630.925	80.010	19.994	103.822	20.040	3.430	0.498
1086.001	631.706	80.008	19.994	103.816	20.044	3.125	0.491
1087.500	632.454	80.012	19.994	103.815	20.042	3.284	0.495
1089.000	633.245	80.011	19.994	103.818	20.046	3.029	0.551
1090.500	634.039	80.011	19.994	103.818	20.041	3.338	0.535
1092.000	634.747	80.012	19.994	103.817	20.041	3.384	0.494
1093.500	635.563	80.013	19.993	103.815	20.037	3.641	0.543
1095.001	636.381	80.014	19.993	103.819	20.038	3.554	0.530
1096.500	637.132	80.012	19.993	103.820	20.046	3.015	0.518
1098.000	637.887	80.012	19.994	103.820	20.046	3.035	0.505
1099.500	638.671	80.013	19.993	103.821	20.041	3.378	0.514
1101.000	639.477	80.011	19.993	103.822	20.038	3.548	0.528
1102.501	640.199	80.012	19.993	103.822	20.040	3.426	0.479
1104.000	640.937	80.009	19.993	103.818	20.039	3.484	0.476
1105.501	641.699	80.013	19.994	103.819	20.043	3.209	0.516
1107.001	642.449	80.010	19.995	103.815	20.044	3.173	0.503
1108.500	643.189	80.009	19.995	103.820	20.044	3.139	0.488
1110.000	643.924	80.011	19.994	103.814	20.041	3.358	0.488
1111.501	644.707	80.009	19.994	103.809	20.044	3.129	0.536
1113.000	645.472	80.011	19.994	103.822	20.045	3.039	0.507
1114.501	646.203	80.008	19.994	103.826	20.045	3.071	0.480
1116.000	646.901	80.009	19.995	103.825	20.046	2.993	0.489
1117.500	647.681	80.010	19.995	103.821	20.043	3.246	0.521
1119.001	648.459	80.011	19.994	103.817	20.042	3.325	0.502
1120.500	649.191	80.010	19.995	103.821	20.043	3.233	0.494
1122.000	649.923	80.012	19.995	103.820	20.045	3.051	0.495
1123.500	650.686	80.009	19.994	103.816	20.045	3.065	0.507
1125.000	651.437	80.009	19.993	103.822	20.044	3.177	0.511
1126.500	652.165	80.010	19.993	103.822	20.045	3.099	0.474
1128.000	652.913	80.012	19.993	103.823	20.048	2.870	0.494
1129.500	653.667	80.011	19.993	103.818	20.046	3.031	0.510
1131.000	654.372	80.009	19.994	103.803	20.043	3.209	0.463
1132.500	655.169	80.013	19.994	103.810	20.044	3.149	0.506
1134.000	655.874	80.010	19.994	103.813	20.044	3.127	0.469
1135.500	656.685	80.008	19.995	103.814	20.043	3.191	0.509
1137.000	657.432	80.009	19.992	103.806	20.045	3.093	0.484
1138.500	658.160	80.011	19.994	103.815	20.044	3.159	0.480
1140.000	658.894	80.010	19.993	103.822	20.044	3.181	0.493
1141.501	659.639	80.010	19.994	103.818	20.044	3.177	0.515
1143.001	660.419	80.009	19.994	103.819	20.046	3.033	0.516
1144.501	661.105	80.009	19.994	103.824	20.047	2.912	0.459
1146.000	661.884	80.010	19.993	103.811	20.046	2.968	0.493
1147.500	662.626	80.011	19.993	103.810	20.048	2.892	0.506
1149.000	663.355	80.010	19.994	103.821	20.045	3.059	0.470
1150.501	664.135	80.009	19.995	103.820	20.046	3.036	0.531
1152.000	664.867	80.012	19.994	103.817	20.046	3.026	0.479
1153.500	665.557	80.011	19.993	103.815	20.047	2.936	0.467
1155.001	666.353	80.012	19.993	103.818	20.050	2.745	0.548
1156.500	667.093	80.011	19.993	103.811	20.047	2.916	0.485
1158.001	667.888	80.012	19.993	103.800	20.048	2.886	0.515
1159.500	668.617	80.010	19.992	103.812	20.047	2.902	0.496
1161.000	669.376	80.012	19.994	103.806	20.042	3.273	0.508
1162.500	670.182	80.011	19.993	103.792	20.044	3.138	0.545
1164.000	670.919	80.010	19.993	103.796	20.044	3.139	0.489
1165.500	671.699	80.011	19.993	103.801	20.046	3.029	0.510
1167.000	672.456	80.011	19.994	103.801	20.046	3.022	0.503
1168.500	673.210	80.010	19.994	103.804	20.050	2.740	0.522
1170.000	674.048	80.011	19.993	103.805	20.051	2.607	0.523
1171.501	674.787	80.013	19.992	103.799	20.050	2.730	0.490
1173.001	675.530	80.012	19.993	103.793	20.052	2.557	0.485
1174.501	676.281	80.012	19.993	103.795	20.049	2.804	0.504
1176.000	677.066	80.012	19.993	103.809	20.049	2.752	0.506
1177.500	677.810	80.013	19.993	103.802	20.050	2.680	0.497
1179.000	678.574	80.012	19.994	103.802	20.048	2.826	0.521
1180.500	679.339	80.013	19.994	103.801	20.050	2.680	0.510
1182.001	680.117	80.011	19.994	103.809	20.052	2.545	0.516
1183.501	680.895	80.011	19.993	103.821	20.053	2.507	0.523
1185.000	681.716	80.011	19.994	103.818	20.053	2.495	0.552
1186.501	682.489	80.011	19.994	103.805	20.049	2.814	0.515
1188.001	683.258	80.011	19.993	103.812	20.051	2.654	0.527
1189.500	684.043	80.011	19.994	103.818	20.046	3.008	0.516
1191.001	684.801	80.010	19.994	103.815	20.050	2.741	0.502
1192.500	685.600	80.008	19.993	103.811	20.049	2.753	0.521
1194.000	686.403	80.008	19.994	103.819	20.046	2.972	0.518
1195.500	687.210	80.009	19.993	103.821	20.049	2.764	0.515
1197.000	688.000	80.007	19.993	103.818	20.048	2.840	0.523
1198.500	688.812	80.008	19.994	103.823	20.051	2.633	0.539
1200.000	689.579	80.010	19.994	103.813	20.050	2.686	0.507
1201.500	690.411	80.009	19.994	103.790	20.052	2.595	0.547
1203.000	691.173	80.012	19.994	103.786	20.050	2.737	0.511
1204.500	691.993	80.009	19.995	103.798	20.048	2.848	0.542
1206.000	692.796	80.010	19.994	103.815	20.049	2.814	0.546
1207.500	693.650	80.010	19.994	103.802	20.047	2.912	0.554
1209.000	694.440	80.010	19.995	103.798	20.048	2.864	0.528
1210.500	695.291	80.010	19.994	103.808	20.050	2.722	0.604
1212.000	696.093	80.012	19.995	103.801	20.050	2.713	0.535
1213.500	696.899	80.012	19.995	103.794	20.048	2.866	0.536
1215.000	697.681	80.010	19.995	103.808	20.048	2.866	0.526
1216.500	698.468	80.011	19.994	103.802	20.048	2.846	0.502
1218.000	699.272	80.009	19.994	103.785	20.051	2.667	0.547
1219.501	700.101	80.009	19.995	103.798	20.052	2.567	0.548
1221.000	700.870	80.010	19.995	103.809	20.052	2.589	0.514
1222.500	701.696	80.006	19.993	103.791	20.051	2.673	0.539
1224.000	702.510	80.010	19.995	103.794	20.051	2.647	0.535
1225.500	703.314	80.009	19.993	103.800	20.051	2.623	0.539
1227.001	704.101	80.012	19.993	103.793	20.051	2.663	0.506
1228.500	704.878	80.012	19.994	103.796	20.051	2.627	0.535
1230.000	705.633	80.010	19.993	103.795	20.048	2.868	0.509
1231.500	706.426	80.010	19.993	103.792	20.050	2.695	0.535
1233.000	707.253	80.011	19.994	103.795	20.047	2.910	0.548
1234.500	707.998	80.012	19.994	103.790	20.047	2.954	0.502
1236.000	708.742	80.011	19.993	103.800	20.046	2.982	0.499
1237.500	709.559	80.012	19.993	103.797	20.047	2.944	0.529
1239.000	710.339	80.013	19.993	103.789	20.050	2.699	0.522
1240.501	711.153	80.011	19.993	103.791	20.048	2.829	0.562
1242.000	711.870	80.011	19.993	103.789	20.049	2.759	0.472
1243.500	712.654	80.011	19.993	103.788	20.051	2.621	0.516
1245.001	713.414	80.011	19.993	103.793	20.050	2.697	0.500
1246.500	714.215	80.010	19.993	103.794	20.053	2.473	0.510
1248.001	714.959	80.011	19.994	103.791	20.052	2.549	0.515
1249.500	715.740	80.011	19.994	103.793	20.056	2.300	0.523
1251.000	716.551	80.011	19.993	103.783	20.054	2.449	0.517
1252.500	717.304	80.011	19.994	103.782	20.050	2.687	0.493
1254.001	718.040	80.011	19.993	103.787	20.048	2.875	0.497
1255.500	718.809	80.012	19.993	103.789	20.050	2.703	0.519
1257.001	719.601	80.011	19.991	103.791	20.052	2.593	0.530
1258.500	720.326	80.013	19.993	103.791	20.055	2.354	0.480
1260.000	721.103	80.013	19.993	103.789	20.055	2.320	0.515
1261.500	721.819	80.013	19.992	103.791	20.053	2.474	0.482
1263.000	722.589	80.012	19.992	103.793	20.053	2.470	0.497
1264.500	723.339	80.013	19.992	103.786	20.054	2.444	0.486
1266.000	724.095	80.013	19.992	103.785	20.052	2.557	0.501
1267.500	724.796	80.012	19.993	103.783	20.055	2.360	0.474
1269.001	725.516	80.013	19.993	103.783	20.053	2.490	0.492
1270.500	726.258	80.012	19.994	103.782	20.049	2.815	0.482
1272.000	727.039	80.012	19.994	103.784	20.049	2.773	0.526
1273.500	727.797	80.011	19.993	103.785	20.052	2.585	0.527
1275.000	728.531	80.010	19.993	103.784	20.053	2.510	0.519
1276.500	729.291	80.010	19.994	103.784	20.052	2.587	0.519
1278.000	730.041	80.010	19.995	103.785	20.052	2.543	0.502
1279.500	730.792	80.010	19.994	103.787	20.053	2.484	0.507
1281.000	731.549	80.011	19.994	103.786	20.055	2.362	0.515
1282.500	732.264	80.011	19.994	103.787	20.055	2.366	0.461
1284.000	733.051	80.010	19.994	103.788	20.053	2.499	0.506
1285.500	733.789	80.011	19.994	103.786	20.058	2.162	0.505
1287.001	734.531	80.012	19.994	103.785	20.053	2.521	0.500
1288.500	735.254	80.012	19.994	103.789	20.048	2.890	0.474
1290.000	736.013	80.012	19.994	103.786	20.051	2.639	0.507
1291.500	736.730	80.011	19.993	103.786	20.053	2.468	0.495
1293.001	737.522	80.012	19.994	103.788	20.052	2.575	0.501
1294.500	738.266	80.011	19.994	103.788	20.052	2.565	0.496
1296.000	738.984	80.011	19.994	103.787	20.052	2.547	0.485
1297.500	739.695	80.010	19.993	103.788	20.049	2.773	0.487
1299.000	740.431	80.011	19.994	103.788	20.057	2.216	0.496
1300.500	741.199	80.010	19.995	103.787	20.054	2.438	0.483
1302.000	741.877	80.010	19.994	103.789	20.053	2.496	0.454
1303.500	742.627	80.010	19.995	103.784	20.054	2.402	0.485
1305.000	743.348	80.009	19.995	103.783	20.057	2.224	0.469