File: 01_Data/Polyester_Batting_81B/MCC/Polyester_Batting_81B_MCC_30K_min_220301_R1.txt
Sample ID:	C:\MCC\MCC Cal\Test\Polyester_Batting_81B_MCC_30K_min_220301_R1.txt
Sample Weight (mg):	4.52
Heating Rate (C/s):	0.5
Combustor Temp (C):	900
N2 Flow Rate (cc/min):	80
O2 Flow Rate (cc/min):	20
Calibration File:	C:\MCC\MCC Cal\Coeff1 JN10440_30_210304.txt.txt
T Correction Coefficients:	0	1.024463	0
Time Shift (s):	14
*
Time (s)	Temperature (C)	N2 flow rate (cc/min)	O2 flow rate (cc/min)	Flow Rate (cc/min)	Oxygen (%)	HRR (W/g)	Heating rate (C/s)
0.000	115.661	80.011	19.992	103.748	20.113	-0.079	-0.007
1.500	115.666	80.011	19.994	103.748	20.112	-0.014	-0.010
3.000	115.667	80.010	19.993	103.747	20.111	0.075	0.017
4.500	115.686	80.010	19.994	103.744	20.114	-0.138	0.019
6.000	115.694	80.009	19.995	103.749	20.113	-0.034	-0.007
7.500	115.645	80.008	19.994	103.752	20.108	0.323	-0.024
9.000	115.704	80.009	19.994	103.750	20.111	0.079	0.029
10.500	115.642	80.008	19.994	103.760	20.111	0.077	-0.025
12.001	115.681	80.009	19.994	103.774	20.112	0.004	0.022
13.501	115.723	80.009	19.993	103.767	20.109	0.196	0.014
15.000	115.717	80.008	19.993	103.777	20.105	0.487	0.015
16.500	115.758	80.009	19.995	103.790	20.105	0.483	0.006
18.000	115.768	80.009	19.992	103.791	20.105	0.491	0.000
19.500	115.815	80.008	19.994	103.803	20.100	0.858	0.027
21.000	115.843	80.008	19.994	103.824	20.100	0.903	0.033
22.500	115.887	80.009	19.994	103.846	20.093	1.341	0.029
24.000	115.941	80.009	19.993	103.859	20.094	1.276	0.051
25.500	116.049	80.010	19.993	103.867	20.091	1.514	0.077
27.000	116.122	80.011	19.993	103.895	20.090	1.605	0.034
28.500	116.216	80.010	19.994	103.902	20.086	1.882	0.047
30.000	116.344	80.010	19.995	103.917	20.089	1.625	0.091
31.500	116.497	80.010	19.994	103.929	20.085	1.940	0.073
33.001	116.694	80.008	19.994	103.939	20.080	2.321	0.109
34.500	116.854	80.009	19.994	103.938	20.085	1.915	0.115
36.000	117.042	80.009	19.994	103.939	20.081	2.262	0.139
37.500	117.267	80.009	19.994	103.941	20.080	2.305	0.163
39.000	117.500	80.009	19.995	103.941	20.080	2.341	0.144
40.500	117.792	80.008	19.995	103.943	20.076	2.569	0.201
42.000	118.068	80.009	19.995	103.945	20.076	2.628	0.196
43.500	118.302	80.008	19.995	103.947	20.073	2.794	0.163
45.000	118.603	80.010	19.994	103.955	20.074	2.731	0.205
46.501	118.885	80.009	19.994	103.970	20.076	2.574	0.189
48.000	119.236	80.010	19.993	103.975	20.074	2.772	0.250
49.501	119.591	80.011	19.994	103.971	20.075	2.631	0.233
51.000	119.962	80.010	19.995	103.965	20.077	2.501	0.241
52.500	120.247	80.010	19.994	103.949	20.076	2.620	0.197
54.000	120.649	80.010	19.992	103.942	20.076	2.604	0.257
55.500	121.025	80.010	19.992	103.942	20.074	2.739	0.248
57.000	121.422	80.009	19.993	103.945	20.075	2.632	0.253
58.500	121.824	80.010	19.993	103.943	20.077	2.503	0.271
60.000	122.228	80.010	19.993	103.941	20.076	2.596	0.250
61.500	122.634	80.010	19.993	103.940	20.079	2.370	0.295
63.000	123.071	80.009	19.994	103.947	20.075	2.695	0.260
64.500	123.500	80.010	19.994	103.951	20.074	2.721	0.301
66.001	123.946	80.011	19.993	103.949	20.075	2.660	0.279
67.500	124.412	80.009	19.993	103.966	20.073	2.791	0.309
69.000	124.825	80.010	19.992	103.959	20.077	2.504	0.286
70.500	125.301	80.010	19.993	103.945	20.076	2.605	0.310
72.000	125.782	80.010	19.994	103.952	20.073	2.805	0.325
73.500	126.227	80.010	19.993	103.962	20.073	2.793	0.285
75.000	126.713	80.010	19.994	103.962	20.075	2.680	0.333
76.500	127.204	80.011	19.994	103.961	20.076	2.615	0.319
78.000	127.742	80.010	19.992	103.957	20.075	2.674	0.358
79.501	128.236	80.012	19.993	103.970	20.072	2.882	0.336
81.000	128.793	80.011	19.992	103.979	20.070	3.025	0.375
82.500	129.287	80.011	19.993	103.978	20.069	3.063	0.338
84.000	129.753	80.010	19.993	103.968	20.070	3.041	0.298
85.500	130.327	80.013	19.992	103.966	20.071	2.952	0.370
87.000	130.860	80.011	19.992	103.979	20.070	3.037	0.388
88.500	131.402	80.009	19.993	103.978	20.073	2.823	0.359
90.000	131.960	80.008	19.994	103.973	20.071	2.961	0.383
91.500	132.535	80.009	19.992	103.981	20.071	2.985	0.410
93.001	133.039	80.008	19.994	103.983	20.071	2.926	0.331
94.501	133.630	80.009	19.994	103.981	20.072	2.898	0.403
96.000	134.226	80.010	19.993	103.979	20.074	2.769	0.400
97.500	134.800	80.009	19.994	103.979	20.077	2.553	0.398
99.000	135.389	80.010	19.994	103.978	20.074	2.710	0.389
100.500	135.990	80.007	19.995	103.978	20.074	2.714	0.398
102.000	136.555	80.009	19.994	103.982	20.072	2.890	0.394
103.500	137.215	80.007	19.994	103.982	20.071	2.922	0.429
105.000	137.859	80.010	19.994	103.979	20.069	3.126	0.445
106.501	138.505	80.008	19.995	103.979	20.073	2.835	0.427
108.000	139.096	80.010	19.993	103.979	20.075	2.648	0.409
109.500	139.794	80.009	19.997	103.981	20.075	2.668	0.456
111.001	140.403	80.009	19.995	103.986	20.072	2.849	0.402
112.500	141.085	80.009	19.994	103.986	20.071	2.938	0.458
114.000	141.728	80.008	19.993	103.991	20.070	3.021	0.432
115.500	142.386	80.009	19.993	103.979	20.068	3.190	0.429
117.000	143.080	80.008	19.995	103.978	20.066	3.322	0.464
118.500	143.754	80.007	19.994	103.980	20.067	3.255	0.443
120.000	144.453	80.008	19.993	103.984	20.067	3.249	0.456
121.500	145.104	80.008	19.994	103.985	20.064	3.420	0.447
123.001	145.809	80.008	19.994	103.986	20.067	3.263	0.484
124.500	146.495	80.007	19.993	103.986	20.066	3.295	0.467
126.000	147.226	80.008	19.994	103.981	20.067	3.217	0.488
127.501	147.876	80.006	19.995	103.982	20.060	3.758	0.434
129.000	148.582	80.009	19.994	103.985	20.067	3.259	0.459
130.500	149.261	80.008	19.995	103.983	20.067	3.257	0.444
132.001	149.975	80.009	19.994	103.983	20.066	3.279	0.470
133.501	150.686	80.009	19.994	103.981	20.064	3.475	0.474
135.000	151.411	80.008	19.995	103.980	20.070	3.031	0.479
136.500	152.162	80.010	19.994	103.983	20.066	3.332	0.507
138.001	152.851	80.010	19.994	103.983	20.065	3.372	0.451
139.500	153.590	80.009	19.994	103.983	20.065	3.358	0.500
141.000	154.276	80.008	19.994	103.984	20.062	3.620	0.459
142.500	155.030	80.012	19.993	103.982	20.063	3.546	0.501
144.000	155.736	80.008	19.995	103.983	20.060	3.752	0.481
145.500	156.525	80.009	19.993	103.984	20.063	3.505	0.515
147.001	157.274	80.010	19.994	103.983	20.063	3.506	0.497
148.501	158.012	80.011	19.993	103.980	20.067	3.266	0.488
150.000	158.729	80.009	19.993	103.980	20.069	3.108	0.474
151.500	159.481	80.010	19.993	103.982	20.067	3.231	0.510
153.001	160.213	80.010	19.994	103.979	20.067	3.233	0.497
154.501	160.968	80.010	19.993	103.979	20.065	3.385	0.499
156.001	161.762	80.011	19.993	103.976	20.064	3.443	0.523
157.500	162.460	80.012	19.993	103.970	20.064	3.478	0.468
159.000	163.262	80.011	19.993	103.966	20.064	3.441	0.542
160.500	164.007	80.011	19.993	103.967	20.064	3.431	0.489
162.000	164.788	80.011	19.993	103.964	20.066	3.302	0.537
163.500	165.607	80.013	19.994	103.974	20.065	3.349	0.546
165.001	166.378	80.011	19.996	103.969	20.067	3.224	0.513
166.501	167.128	80.012	19.992	103.967	20.068	3.179	0.522
168.001	167.895	80.011	19.993	103.963	20.069	3.107	0.529
169.501	168.652	80.010	19.994	103.961	20.071	2.919	0.497
171.000	169.480	80.009	19.993	103.975	20.074	2.733	0.542
172.501	170.171	80.010	19.994	103.975	20.069	3.103	0.468
174.001	170.964	80.010	19.994	103.963	20.069	3.089	0.536
175.500	171.751	80.011	19.993	103.944	20.073	2.790	0.526
177.000	172.528	80.010	19.995	103.944	20.072	2.859	0.500
178.500	173.284	80.010	19.994	103.946	20.072	2.913	0.495
180.000	174.080	80.009	19.993	103.941	20.072	2.859	0.527
181.501	174.820	80.009	19.994	103.940	20.074	2.738	0.508
183.000	175.592	80.010	19.993	103.940	20.074	2.740	0.520
184.501	176.308	80.011	19.993	103.940	20.074	2.772	0.468
186.000	177.063	80.010	19.993	103.941	20.073	2.792	0.487
187.500	177.858	80.009	19.995	103.941	20.072	2.850	0.541
189.000	178.637	80.010	19.992	103.940	20.074	2.711	0.510
190.500	179.381	80.009	19.994	103.941	20.075	2.633	0.498
192.000	180.157	80.009	19.993	103.941	20.076	2.560	0.494
193.500	180.897	80.009	19.993	103.938	20.072	2.912	0.494
195.000	181.674	80.009	19.995	103.939	20.069	3.071	0.520
196.500	182.473	80.009	19.995	103.938	20.071	2.927	0.526
198.001	183.173	80.007	19.994	103.941	20.069	3.125	0.462
199.501	183.963	80.008	19.994	103.938	20.071	2.936	0.539
201.000	184.713	80.008	19.994	103.938	20.075	2.641	0.481
202.500	185.454	80.008	19.994	103.939	20.077	2.534	0.486
204.000	186.231	80.009	19.994	103.926	20.077	2.522	0.531
205.500	186.988	80.007	19.994	103.923	20.083	2.108	0.499
207.000	187.701	80.007	19.993	103.940	20.083	2.100	0.469
208.501	188.501	80.008	19.994	103.942	20.083	2.104	0.519
210.001	189.183	80.009	19.995	103.939	20.082	2.128	0.444
211.501	189.968	80.009	19.994	103.932	20.079	2.375	0.540
213.001	190.699	80.010	19.994	103.941	20.083	2.114	0.497
214.500	191.481	80.011	19.994	103.936	20.081	2.213	0.509
216.001	192.208	80.011	19.994	103.919	20.081	2.237	0.506
217.501	192.984	80.010	19.995	103.917	20.080	2.272	0.518
219.000	193.733	80.011	19.994	103.916	20.081	2.227	0.508
220.500	194.480	80.011	19.995	103.912	20.079	2.411	0.491
222.000	195.229	80.011	19.995	103.920	20.078	2.427	0.489
223.500	195.945	80.009	19.995	103.915	20.079	2.391	0.463
225.001	196.675	80.011	19.994	103.924	20.080	2.282	0.467
226.500	197.395	80.011	19.995	103.923	20.080	2.272	0.483
228.000	198.177	80.009	19.995	103.903	20.080	2.316	0.500
229.500	198.908	80.009	19.996	103.914	20.079	2.373	0.483
231.000	199.562	80.008	19.995	103.915	20.074	2.706	0.452
232.500	200.352	80.010	19.995	103.904	20.077	2.530	0.529
234.000	201.053	80.010	19.995	103.900	20.078	2.470	0.456
235.500	201.764	80.010	19.995	103.899	20.076	2.625	0.473
237.000	202.481	80.011	19.995	103.908	20.074	2.728	0.486
238.501	203.240	80.011	19.994	103.913	20.077	2.531	0.496
240.000	203.977	80.011	19.995	103.912	20.074	2.734	0.490
241.500	204.693	80.012	19.993	103.927	20.083	2.122	0.479
243.001	205.409	80.013	19.993	103.913	20.079	2.407	0.510
244.500	206.138	80.012	19.992	103.907	20.077	2.510	0.485
246.000	206.849	80.012	19.994	103.907	20.078	2.478	0.485
247.501	207.614	80.012	19.993	103.904	20.078	2.437	0.500
249.001	208.355	80.011	19.994	103.901	20.079	2.409	0.498
250.500	209.033	80.010	19.994	103.907	20.077	2.544	0.472
252.000	209.814	80.009	19.993	103.915	20.077	2.540	0.523
253.500	210.557	80.009	19.993	103.920	20.079	2.373	0.486
255.001	211.260	80.009	19.994	103.909	20.078	2.435	0.478
256.500	211.983	80.009	19.993	103.909	20.076	2.589	0.483
258.000	212.708	80.010	19.993	103.914	20.082	2.165	0.474
259.500	213.451	80.008	19.994	103.914	20.082	2.189	0.488
261.000	214.190	80.009	19.994	103.913	20.080	2.290	0.517
262.500	214.889	80.008	19.994	103.908	20.078	2.419	0.469
264.000	215.634	80.008	19.995	103.905	20.081	2.244	0.502
265.500	216.379	80.010	19.995	103.910	20.079	2.393	0.499
267.000	217.101	80.009	19.995	103.916	20.081	2.227	0.490
268.500	217.881	80.009	19.994	103.911	20.081	2.232	0.501
270.000	218.624	80.009	19.994	103.909	20.079	2.349	0.479
271.500	219.381	80.010	19.993	103.908	20.082	2.159	0.504
273.000	220.081	80.009	19.994	103.909	20.085	1.937	0.485
274.500	220.823	80.009	19.994	103.907	20.080	2.290	0.462
276.000	221.575	80.008	19.993	103.905	20.078	2.464	0.491
277.500	222.291	80.008	19.993	103.906	20.081	2.199	0.488
279.000	223.045	80.008	19.992	103.908	20.083	2.064	0.488
280.500	223.797	80.009	19.994	103.907	20.081	2.211	0.507
282.000	224.526	80.009	19.994	103.907	20.081	2.234	0.502
283.500	225.317	80.009	19.994	103.906	20.079	2.409	0.526
285.000	226.045	80.010	19.993	103.902	20.081	2.240	0.513
286.500	226.810	80.009	19.995	103.902	20.077	2.496	0.520
288.000	227.543	80.008	19.994	103.902	20.081	2.228	0.489
289.500	228.238	80.008	19.994	103.902	20.080	2.333	0.472
291.000	229.050	80.009	19.994	103.903	20.079	2.353	0.552
292.500	229.849	80.008	19.995	103.902	20.079	2.401	0.531
294.000	230.595	80.008	19.995	103.901	20.079	2.351	0.491
295.500	231.366	80.010	19.995	103.901	20.082	2.159	0.511
297.000	232.067	80.008	19.995	103.901	20.082	2.171	0.476
298.500	232.854	80.010	19.995	103.898	20.080	2.331	0.528
300.000	233.600	80.010	19.995	103.893	20.080	2.335	0.497
301.500	234.393	80.010	19.994	103.895	20.083	2.089	0.520
303.000	235.112	80.011	19.994	103.899	20.081	2.268	0.491
304.500	235.827	80.011	19.996	103.899	20.082	2.139	0.484
306.000	236.568	80.010	19.994	103.900	20.081	2.228	0.493
307.500	237.302	80.010	19.994	103.892	20.084	2.042	0.475
309.000	238.068	80.009	19.995	103.890	20.082	2.149	0.510
310.500	238.793	80.010	19.994	103.889	20.083	2.083	0.474
312.000	239.502	80.009	19.996	103.886	20.084	2.048	0.507
313.500	240.182	80.009	19.994	103.883	20.083	2.062	0.449
315.000	240.917	80.010	19.994	103.880	20.085	1.931	0.473
316.500	241.686	80.009	19.995	103.880	20.084	2.042	0.510
318.000	242.312	80.009	19.995	103.882	20.084	2.034	0.438
319.500	243.074	80.009	19.994	103.885	20.086	1.887	0.490
321.000	243.778	80.010	19.994	103.881	20.083	2.082	0.452
322.500	244.500	80.010	19.994	103.891	20.086	1.903	0.465
324.000	245.237	80.010	19.994	103.893	20.084	2.018	0.465
325.500	245.920	80.011	19.994	103.893	20.080	2.301	0.451
327.000	246.646	80.011	19.994	103.890	20.078	2.422	0.484
328.500	247.343	80.011	19.994	103.874	20.080	2.329	0.467
330.000	248.068	80.009	19.994	103.875	20.081	2.242	0.478
331.500	248.782	80.010	19.994	103.889	20.081	2.224	0.456
333.000	249.550	80.009	19.993	103.895	20.084	2.012	0.540
334.500	250.285	80.009	19.994	103.891	20.083	2.054	0.469
336.000	251.003	80.008	19.994	103.878	20.085	1.913	0.503
337.500	251.748	80.008	19.994	103.884	20.085	1.959	0.518
339.000	252.453	80.008	19.993	103.892	20.084	2.016	0.478
340.500	253.178	80.008	19.994	103.897	20.083	2.111	0.484
342.000	253.902	80.008	19.994	103.901	20.085	1.949	0.489
343.500	254.654	80.009	19.993	103.902	20.085	1.973	0.490
345.000	255.385	80.008	19.994	103.900	20.080	2.311	0.485
346.500	256.170	80.010	19.993	103.896	20.083	2.105	0.521
348.000	256.890	80.009	19.993	103.891	20.082	2.173	0.515
349.500	257.599	80.008	19.994	103.897	20.081	2.252	0.493
351.000	258.387	80.010	19.994	103.900	20.080	2.281	0.540
352.500	259.114	80.010	19.995	103.892	20.082	2.180	0.474
354.000	259.875	80.010	19.993	103.885	20.079	2.408	0.494
355.500	260.609	80.009	19.994	103.891	20.084	2.032	0.490
357.000	261.339	80.010	19.994	103.885	20.082	2.170	0.477
358.500	262.104	80.011	19.994	103.892	20.082	2.176	0.491
360.000	262.839	80.010	19.994	103.878	20.084	2.026	0.489
361.500	263.607	80.009	19.994	103.870	20.078	2.470	0.513
363.000	264.378	80.009	19.994	103.876	20.086	1.897	0.524
364.500	265.127	80.009	19.994	103.880	20.083	2.083	0.498
366.000	265.876	80.009	19.994	103.880	20.084	1.996	0.504
367.500	266.610	80.009	19.994	103.874	20.087	1.768	0.478
369.000	267.446	80.009	19.994	103.866	20.087	1.788	0.548
370.500	268.165	80.009	19.993	103.876	20.087	1.810	0.482
372.000	268.923	80.009	19.994	103.884	20.083	2.061	0.504
373.500	269.705	80.010	19.994	103.878	20.085	1.970	0.520
375.000	270.532	80.010	19.993	103.867	20.088	1.759	0.545
376.500	271.334	80.011	19.993	103.874	20.088	1.739	0.539
378.000	272.104	80.010	19.993	103.872	20.087	1.784	0.530
379.500	272.871	80.011	19.993	103.868	20.088	1.763	0.506
381.000	273.624	80.011	19.994	103.868	20.090	1.606	0.499
382.500	274.400	80.011	19.993	103.872	20.083	2.075	0.520
384.000	275.168	80.010	19.993	103.879	20.084	2.010	0.520
385.500	275.953	80.011	19.994	103.887	20.087	1.784	0.541
387.000	276.704	80.011	19.994	103.882	20.085	1.925	0.512
388.500	277.464	80.008	19.993	103.874	20.087	1.798	0.510
390.000	278.242	80.009	19.994	103.879	20.083	2.125	0.486
391.500	279.079	80.009	19.996	103.883	20.087	1.816	0.575
393.000	279.831	80.010	19.995	103.879	20.085	1.913	0.507
394.500	280.638	80.009	19.995	103.876	20.085	1.939	0.561
396.000	281.377	80.013	19.995	103.874	20.087	1.774	0.501
397.501	282.102	80.029	19.997	103.880	20.087	1.838	0.484
399.000	282.879	80.017	19.997	103.887	20.090	1.580	0.528
400.500	283.688	80.010	19.995	103.872	20.088	1.719	0.531
402.000	284.475	80.011	19.993	103.868	20.087	1.802	0.524
403.500	285.234	80.011	19.994	103.872	20.088	1.711	0.479
405.000	285.997	80.011	19.994	103.868	20.089	1.671	0.506
406.500	286.776	80.011	19.994	103.865	20.087	1.826	0.511
408.000	287.583	80.013	19.994	103.865	20.087	1.788	0.544
409.500	288.340	80.012	19.995	103.868	20.089	1.645	0.521
411.000	289.104	80.010	19.994	103.866	20.087	1.829	0.518
412.500	289.889	80.010	19.995	103.864	20.087	1.788	0.531
414.000	290.663	80.009	19.994	103.866	20.086	1.863	0.517
415.500	291.430	80.009	19.995	103.866	20.083	2.083	0.531
417.000	292.216	80.008	19.994	103.865	20.086	1.873	0.525
418.500	293.009	80.009	19.994	103.857	20.082	2.172	0.529
420.000	293.755	80.009	19.995	103.853	20.086	1.843	0.492
421.500	294.543	80.008	19.994	103.861	20.083	2.111	0.541
423.000	295.315	80.008	19.994	103.854	20.087	1.774	0.517
424.500	296.016	80.007	19.994	103.857	20.086	1.901	0.470
426.000	296.770	80.008	19.994	103.861	20.086	1.841	0.492
427.500	297.550	80.007	19.994	103.861	20.090	1.598	0.529
429.000	298.290	80.009	19.995	103.861	20.087	1.832	0.491
430.500	299.017	80.008	19.994	103.861	20.088	1.736	0.497
432.000	299.780	80.009	19.993	103.861	20.085	1.919	0.512
433.501	300.514	80.009	19.993	103.860	20.085	1.966	0.492
435.000	301.309	80.009	19.994	103.861	20.087	1.798	0.557
436.500	302.014	80.009	19.993	103.861	20.088	1.742	0.483
438.000	302.826	80.010	19.994	103.859	20.089	1.632	0.519
439.500	303.568	80.010	19.993	103.859	20.086	1.845	0.498
441.000	304.349	80.009	19.993	103.861	20.086	1.840	0.541
442.500	305.069	80.009	19.993	103.861	20.088	1.752	0.469
444.000	305.817	80.009	19.995	103.862	20.083	2.095	0.489
445.500	306.618	80.009	19.994	103.860	20.085	1.932	0.534
447.000	307.333	80.008	19.994	103.859	20.086	1.909	0.478
448.500	308.115	80.008	19.993	103.860	20.085	1.938	0.519
450.000	308.864	80.008	19.993	103.864	20.087	1.830	0.517
451.501	309.624	80.008	19.993	103.866	20.085	1.933	0.524
453.000	310.381	80.009	19.993	103.865	20.085	1.978	0.491
454.500	311.124	80.010	19.994	103.864	20.086	1.865	0.489
456.000	311.828	80.008	19.993	103.863	20.089	1.653	0.455
457.500	312.633	80.010	19.993	103.861	20.087	1.802	0.524
459.000	313.410	80.009	19.993	103.859	20.089	1.651	0.519
460.500	314.158	80.009	19.993	103.857	20.085	1.954	0.471
462.000	314.902	80.012	19.992	103.864	20.084	2.002	0.488
463.500	315.645	80.009	19.993	103.864	20.090	1.602	0.487
465.000	316.375	80.011	19.993	103.863	20.086	1.855	0.487
466.500	317.148	80.010	19.994	103.864	20.084	2.037	0.540
468.000	317.887	80.009	19.993	103.858	20.088	1.766	0.500
469.500	318.667	80.011	19.994	103.859	20.087	1.810	0.507
471.000	319.388	80.010	19.993	103.869	20.089	1.683	0.468
472.500	320.162	80.010	19.994	103.867	20.090	1.620	0.510
474.000	320.929	80.009	19.992	103.866	20.087	1.794	0.481
475.500	321.679	80.009	19.993	103.866	20.088	1.715	0.508
477.000	322.425	80.010	19.993	103.863	20.084	2.027	0.484
478.500	323.232	80.010	19.994	103.865	20.085	1.919	0.523
480.000	323.937	80.010	19.994	103.863	20.087	1.814	0.487
481.500	324.739	80.010	19.994	103.859	20.085	1.926	0.517
483.000	325.453	80.010	19.992	103.862	20.084	1.994	0.462
484.500	326.275	80.010	19.993	103.859	20.088	1.764	0.550
486.000	327.001	80.009	19.994	103.856	20.087	1.772	0.508
487.500	327.765	80.011	19.995	103.857	20.088	1.697	0.497
489.000	328.516	80.012	19.994	103.858	20.086	1.905	0.485
490.500	329.259	80.011	19.994	103.858	20.089	1.637	0.496
492.000	330.020	80.012	19.993	103.859	20.088	1.760	0.526
493.500	330.783	80.011	19.994	103.856	20.091	1.485	0.484
495.000	331.535	80.012	19.992	103.860	20.089	1.637	0.495
496.500	332.260	80.011	19.993	103.859	20.092	1.455	0.491
498.000	333.079	80.009	19.993	103.861	20.092	1.463	0.545
499.500	333.857	80.008	19.994	103.860	20.091	1.483	0.499
501.000	334.615	80.008	19.993	103.861	20.086	1.863	0.509
502.500	335.423	80.009	19.993	103.859	20.089	1.627	0.523
504.000	336.152	80.008	19.994	103.853	20.086	1.903	0.465
505.500	336.926	80.009	19.993	103.858	20.086	1.879	0.530
507.000	337.713	80.008	19.994	103.860	20.087	1.815	0.522
508.500	338.444	80.009	19.995	103.855	20.083	2.094	0.483
510.000	339.228	80.009	19.996	103.855	20.084	2.007	0.521
511.500	339.956	80.009	19.993	103.859	20.086	1.863	0.469
513.000	340.709	80.008	19.994	103.858	20.088	1.760	0.524
514.500	341.485	80.007	19.994	103.857	20.090	1.590	0.518
516.000	342.252	80.008	19.993	103.857	20.089	1.631	0.503
517.500	342.973	80.007	19.995	103.838	20.088	1.697	0.471
519.000	343.707	80.008	19.994	103.833	20.086	1.891	0.484
520.500	344.428	80.009	19.995	103.834	20.085	1.927	0.482
522.000	345.193	80.009	19.995	103.847	20.082	2.152	0.476
523.500	345.991	80.008	19.995	103.847	20.085	1.919	0.522
525.000	346.698	80.009	19.994	103.848	20.083	2.095	0.479
526.500	347.484	80.009	19.993	103.852	20.080	2.295	0.530
528.000	348.244	80.008	19.994	103.853	20.081	2.257	0.510
529.500	348.979	80.008	19.993	103.854	20.081	2.235	0.496
531.000	349.751	80.009	19.993	103.862	20.078	2.463	0.512
532.500	350.503	80.009	19.993	103.853	20.079	2.356	0.504
534.000	351.274	80.008	19.995	103.854	20.080	2.336	0.491
535.500	351.992	80.008	19.993	103.860	20.080	2.314	0.469
537.000	352.749	80.008	19.994	103.856	20.077	2.534	0.522
538.500	353.563	80.008	19.994	103.851	20.078	2.421	0.521
540.000	354.280	80.010	19.993	103.852	20.079	2.386	0.497
541.500	355.052	80.010	19.992	103.858	20.076	2.558	0.516
543.000	355.845	80.010	19.994	103.856	20.075	2.627	0.534
544.500	356.561	80.011	19.993	103.852	20.077	2.522	0.516
546.000	357.396	80.010	19.992	103.850	20.076	2.600	0.500
547.500	358.173	80.012	19.995	103.848	20.068	3.184	0.544
549.000	358.933	80.011	19.992	103.851	20.070	2.996	0.509
550.500	359.718	80.008	19.995	103.851	20.069	3.077	0.470
552.000	360.434	80.011	19.992	103.855	20.069	3.071	0.490
553.500	361.176	80.010	19.992	103.857	20.067	3.209	0.569
555.000	361.990	80.009	19.993	103.846	20.064	3.465	0.476
556.500	362.758	80.010	19.996	103.850	20.064	3.431	0.468
558.000	363.575	80.010	19.992	103.855	20.064	3.467	0.562
559.500	364.118	80.009	19.994	103.854	20.058	3.857	0.479
561.000	364.791	80.011	19.993	103.856	20.061	3.653	0.215
562.500	366.022	80.011	19.992	103.856	20.059	3.811	0.877
564.000	366.435	80.010	19.993	103.851	20.059	3.838	0.550
565.500	367.617	80.011	19.994	103.856	20.056	4.007	0.533
567.000	368.105	80.010	19.993	103.858	20.056	4.049	0.424
568.500	368.962	80.009	19.993	103.859	20.053	4.227	0.517
570.000	369.668	80.012	19.993	103.858	20.051	4.366	0.510
571.500	370.447	80.012	19.993	103.855	20.046	4.708	0.542
573.000	371.171	80.011	19.992	103.858	20.042	5.045	0.502
574.500	372.061	80.013	19.994	103.848	20.041	5.126	0.562
576.000	372.806	80.011	19.993	103.834	20.034	5.615	0.529
577.500	373.565	80.014	19.992	103.850	20.034	5.588	0.537
579.000	374.417	80.010	19.994	103.852	20.035	5.562	0.566
580.500	375.176	80.009	19.992	103.850	20.029	5.964	0.490
582.000	375.933	80.008	19.995	103.859	20.023	6.378	0.522
583.500	376.693	80.009	19.994	103.861	20.028	6.020	0.517
585.000	377.519	80.008	19.993	103.862	20.023	6.378	0.528
586.500	378.268	80.009	19.994	103.860	20.022	6.479	0.504
588.000	379.008	80.008	19.993	103.861	20.013	7.097	0.500
589.500	379.795	80.009	19.995	103.865	20.013	7.115	0.508
591.000	380.568	80.010	19.995	103.866	20.006	7.618	0.529
592.500	381.317	80.009	19.994	103.865	20.003	7.792	0.500
594.000	382.116	80.008	19.995	103.867	19.998	8.188	0.539
595.500	382.867	80.010	19.993	103.869	19.991	8.682	0.505
597.000	383.660	80.009	19.993	103.867	19.987	9.009	0.512
598.500	384.456	80.009	19.993	103.867	19.981	9.414	0.519
600.000	385.221	80.008	19.994	103.872	19.973	9.969	0.520
601.500	385.944	80.011	19.994	103.875	19.968	10.306	0.487
603.000	386.691	80.009	19.995	103.871	19.959	11.013	0.495
604.500	387.489	80.008	19.994	103.876	19.953	11.441	0.538
606.000	388.234	80.006	19.996	103.883	19.943	12.158	0.503
607.500	388.998	80.008	19.993	103.883	19.938	12.518	0.522
609.000	389.783	80.009	19.994	103.884	19.931	12.996	0.486
610.500	390.556	80.010	19.996	103.898	19.920	13.791	0.514
612.000	391.295	80.007	19.997	103.900	19.911	14.430	0.505
613.500	392.070	80.009	19.994	103.901	19.905	14.891	0.531
615.000	392.814	80.007	19.996	103.901	19.890	15.953	0.456
616.500	393.585	80.008	19.993	103.900	19.879	16.719	0.503
618.000	394.347	80.009	19.994	103.913	19.866	17.655	0.506
619.500	395.105	80.010	19.994	103.914	19.853	18.621	0.497
621.000	395.879	80.010	19.995	103.914	19.838	19.648	0.510
622.500	396.644	80.010	19.995	103.924	19.823	20.753	0.511
624.000	397.394	80.010	19.994	103.933	19.809	21.767	0.503
625.500	398.141	80.012	19.994	103.939	19.793	22.901	0.507
627.000	398.941	80.011	19.994	103.935	19.782	23.704	0.529
628.500	399.684	80.010	19.993	103.934	19.764	25.019	0.503
630.000	400.435	80.010	19.994	103.942	19.742	26.535	0.513
631.500	401.151	80.012	19.992	103.950	19.725	27.787	0.481
633.000	401.959	80.012	19.995	103.960	19.707	29.091	0.525
634.500	402.621	80.011	19.995	103.969	19.693	30.122	0.470
636.000	403.456	80.012	19.994	103.958	19.678	31.170	0.533
637.500	404.166	80.010	19.994	103.949	19.663	32.259	0.469
639.000	404.893	80.009	19.994	103.969	19.642	33.743	0.483
640.500	405.607	80.009	19.994	103.988	19.626	34.938	0.471
642.000	406.353	80.010	19.992	104.017	19.604	36.481	0.485
643.500	407.093	80.010	19.994	104.042	19.578	38.368	0.473
645.000	407.806	80.007	19.992	104.043	19.554	40.147	0.460
646.500	408.545	80.013	19.994	104.037	19.527	42.088	0.515
648.000	409.285	80.012	19.995	104.051	19.494	44.422	0.484
649.500	409.994	80.013	19.993	104.059	19.463	46.635	0.475
651.000	410.759	80.012	19.994	104.068	19.429	49.091	0.501
652.500	411.477	80.013	19.993	104.082	19.380	52.572	0.472
654.000	412.224	80.012	19.992	104.119	19.316	57.234	0.496
655.500	412.994	80.011	19.994	104.154	19.261	61.285	0.537
657.000	413.725	80.013	19.991	104.153	19.229	63.574	0.490
658.500	414.438	80.012	19.994	104.099	19.199	65.729	0.475
660.000	415.147	80.010	19.993	104.054	19.178	67.194	0.494
661.500	415.892	80.009	19.994	104.045	19.159	68.571	0.509
663.000	416.647	80.008	19.994	104.058	19.140	69.948	0.512
664.500	417.429	80.010	19.995	104.144	19.109	72.170	0.506
666.000	418.192	80.008	19.993	104.252	19.090	73.582	0.508
667.500	418.935	80.009	19.993	104.283	19.059	75.792	0.483
669.000	419.716	80.010	19.994	104.268	19.020	78.653	0.525
670.500	420.465	80.008	19.992	104.260	18.979	81.575	0.513
672.000	421.213	80.007	19.995	104.265	18.926	85.430	0.508
673.500	421.987	80.013	19.993	104.275	18.877	89.037	0.511
675.000	422.687	80.010	19.996	104.274	18.838	91.794	0.471
676.500	423.456	80.010	19.994	104.256	18.793	95.064	0.487
678.000	424.184	80.010	19.995	104.262	18.750	98.124	0.486
679.500	424.985	80.009	19.995	104.291	18.699	101.866	0.541
681.000	425.776	80.010	19.996	104.311	18.640	106.106	0.539
682.500	426.534	80.011	19.993	104.361	18.589	109.890	0.513
684.000	427.255	80.010	19.993	104.399	18.534	113.895	0.479
685.500	428.054	80.009	19.993	104.395	18.485	117.420	0.516
687.000	428.819	80.011	19.993	104.387	18.436	121.030	0.492
688.500	429.604	80.010	19.992	104.392	18.392	124.199	0.518
690.000	430.374	80.010	19.995	104.397	18.350	127.188	0.507
691.500	431.117	80.008	19.995	104.424	18.302	130.607	0.507
693.000	431.880	80.010	19.994	104.479	18.249	134.396	0.522
694.500	432.617	80.008	19.994	104.520	18.185	139.074	0.493
696.000	433.427	80.010	19.994	104.555	18.108	144.753	0.535
697.500	434.225	80.007	19.995	104.605	18.040	149.700	0.516
699.000	435.025	80.009	19.992	104.611	17.981	153.975	0.528
700.500	435.750	80.009	19.993	104.584	17.932	157.526	0.492
702.000	436.487	80.006	19.994	104.548	17.887	160.789	0.518
703.500	437.300	80.009	19.995	104.532	17.843	164.020	0.525
705.000	438.059	80.008	19.995	104.547	17.804	166.870	0.506
706.500	438.793	80.011	19.993	104.611	17.771	169.253	0.502
708.000	439.609	80.009	19.994	104.668	17.741	171.378	0.514
709.500	440.359	80.010	19.994	104.683	17.712	173.489	0.516
711.000	441.160	80.010	19.995	104.690	17.681	175.749	0.521
712.500	441.922	80.009	19.994	104.698	17.658	177.393	0.514
714.000	442.712	80.009	19.995	104.713	17.635	179.105	0.535
715.500	443.415	80.012	19.993	104.725	17.610	180.930	0.472
717.000	444.192	80.011	19.995	104.726	17.587	182.514	0.520
718.500	444.942	80.010	19.993	104.724	17.569	183.816	0.507
720.000	445.711	80.009	19.994	104.724	17.558	184.573	0.518
721.500	446.519	80.011	19.993	104.725	17.550	185.173	0.542
723.000	447.256	80.007	19.994	104.730	17.547	185.404	0.508
724.500	447.989	80.010	19.994	104.730	17.545	185.464	0.468
726.000	448.766	80.011	19.993	104.741	17.552	184.951	0.536
727.500	449.571	80.010	19.993	104.738	17.569	183.650	0.533
729.000	450.327	80.010	19.993	104.724	17.589	182.168	0.485
730.500	451.077	80.011	19.992	104.715	17.613	180.441	0.503
732.000	451.850	80.008	19.993	104.703	17.650	177.697	0.496
733.500	452.614	80.011	19.993	104.696	17.690	174.774	0.520
735.000	453.366	80.011	19.994	104.681	17.738	171.292	0.514
736.501	454.129	80.011	19.993	104.660	17.788	167.570	0.523
738.000	454.839	80.012	19.992	104.640	17.848	163.203	0.496
739.500	455.640	80.012	19.993	104.617	17.916	158.284	0.535
741.000	456.389	80.011	19.993	104.591	17.979	153.670	0.522
742.500	457.125	80.010	19.994	104.562	18.054	148.249	0.501
744.000	457.892	80.009	19.993	104.544	18.131	142.644	0.514
745.500	458.689	80.009	19.994	104.517	18.212	136.835	0.516
747.000	459.425	80.012	19.993	104.485	18.290	131.169	0.476
748.500	460.148	80.009	19.994	104.458	18.385	124.296	0.481
750.000	460.853	80.010	19.994	104.430	18.481	117.340	0.466
751.500	461.607	80.009	19.995	104.390	18.582	110.086	0.489
753.000	462.375	80.011	19.993	104.360	18.678	103.109	0.508
754.500	463.083	80.009	19.991	104.336	18.780	95.754	0.481
756.000	463.808	80.009	19.993	104.320	18.878	88.680	0.485
757.500	464.574	80.010	19.996	104.293	18.966	82.352	0.499
759.000	465.298	80.009	19.990	104.269	19.052	76.199	0.466
760.500	466.007	80.009	19.993	104.244	19.128	70.681	0.472
762.000	466.738	80.010	19.993	104.212	19.206	65.052	0.491
763.500	467.489	80.010	19.995	104.184	19.278	59.900	0.495
765.000	468.251	80.010	19.994	104.163	19.343	55.227	0.513
766.500	468.954	80.010	19.993	104.139	19.404	50.807	0.443
768.000	469.679	80.010	19.996	104.110	19.456	47.136	0.489
769.500	470.448	80.010	19.996	104.096	19.504	43.640	0.509
771.000	471.167	80.009	19.997	104.084	19.548	40.482	0.488
772.500	471.925	80.011	19.994	104.061	19.596	37.022	0.502
774.000	472.637	80.008	19.996	104.041	19.629	34.656	0.473
775.500	473.392	80.009	19.993	104.022	19.664	32.162	0.515
777.000	474.151	80.009	19.995	104.016	19.696	29.839	0.496
778.500	474.916	80.009	19.995	104.003	19.725	27.812	0.510
780.000	475.703	80.009	19.994	103.985	19.748	26.155	0.530
781.500	476.440	80.009	19.995	103.984	19.768	24.655	0.487
783.001	477.164	80.008	19.995	103.976	19.794	22.834	0.478
784.500	477.908	80.011	19.994	103.964	19.811	21.622	0.485
786.000	478.667	80.010	19.993	103.959	19.833	20.014	0.504
787.500	479.437	80.010	19.994	103.947	19.851	18.715	0.512
789.000	480.189	80.009	19.994	103.947	19.863	17.845	0.511
790.500	480.964	80.011	19.992	103.945	19.876	16.946	0.523
792.000	481.721	80.010	19.996	103.937	19.893	15.736	0.524
793.500	482.489	80.010	19.993	103.924	19.902	15.050	0.510
795.000	483.213	80.011	19.994	103.916	19.915	14.156	0.496
796.500	483.987	80.010	19.994	103.915	19.925	13.444	0.513
798.000	484.782	80.009	19.994	103.906	19.937	12.581	0.518
799.500	485.577	80.010	19.995	103.905	19.946	11.934	0.553
801.000	486.325	80.009	19.995	103.902	19.957	11.144	0.504
802.500	487.101	80.009	19.993	103.904	19.965	10.571	0.519
804.000	487.893	80.009	19.994	103.904	19.974	9.932	0.502
805.500	488.646	80.010	19.994	103.898	19.980	9.496	0.520
807.000	489.444	80.010	19.995	103.882	19.990	8.750	0.534
808.500	490.241	80.010	19.994	103.864	19.994	8.480	0.555
810.000	491.016	80.010	19.994	103.862	19.999	8.088	0.521
811.500	491.840	80.010	19.994	103.861	20.006	7.584	0.533
813.000	492.637	80.011	19.995	103.861	20.012	7.178	0.527
814.500	493.408	80.011	19.994	103.861	20.015	6.948	0.513
816.000	494.223	80.012	19.992	103.861	20.020	6.585	0.535
817.500	494.998	80.012	19.994	103.859	20.026	6.186	0.518
819.000	495.806	80.012	19.992	103.860	20.028	6.054	0.538
820.500	496.574	80.012	19.994	103.856	20.029	5.931	0.526
822.000	497.389	80.012	19.994	103.850	20.033	5.660	0.540
823.500	498.174	80.010	19.995	103.836	20.036	5.476	0.530
825.000	498.935	80.011	19.993	103.836	20.041	5.069	0.520
826.500	499.701	80.010	19.995	103.847	20.041	5.071	0.506
828.000	500.472	80.010	19.994	103.842	20.046	4.743	0.518
829.500	501.271	80.008	19.995	103.839	20.047	4.665	0.516
831.000	502.070	80.010	19.994	103.840	20.044	4.901	0.532
832.500	502.833	80.009	19.995	103.836	20.046	4.747	0.514
834.000	503.676	80.008	19.994	103.838	20.046	4.737	0.536
835.500	504.394	80.009	19.993	103.835	20.047	4.644	0.492
837.000	505.170	80.010	19.994	103.826	20.052	4.313	0.504
838.500	506.015	80.008	19.995	103.831	20.051	4.349	0.564
840.000	506.816	80.008	19.993	103.831	20.052	4.343	0.535
841.500	507.543	80.010	19.993	103.825	20.057	3.953	0.485
843.000	508.367	80.010	19.994	103.830	20.056	3.992	0.537
844.500	509.132	80.009	19.993	103.831	20.055	4.081	0.533
846.000	509.889	80.009	19.992	103.827	20.053	4.260	0.517
847.500	510.670	80.009	19.994	103.827	20.057	3.979	0.499
849.000	511.450	80.010	19.994	103.827	20.055	4.105	0.531
850.500	512.248	80.009	19.994	103.823	20.057	3.976	0.537
852.001	513.029	80.010	19.994	103.824	20.059	3.808	0.542
853.500	513.790	80.009	19.994	103.827	20.059	3.785	0.526
855.001	514.582	80.009	19.994	103.825	20.059	3.781	0.524
856.500	515.371	80.008	19.993	103.828	20.056	4.038	0.536
858.000	516.167	80.009	19.994	103.828	20.059	3.784	0.527
859.500	516.911	80.008	19.991	103.828	20.058	3.876	0.497
861.000	517.720	80.008	19.994	103.823	20.055	4.089	0.552
862.500	518.523	80.008	19.994	103.818	20.061	3.695	0.534
864.000	519.254	80.009	19.993	103.826	20.061	3.666	0.478
865.500	520.060	80.008	19.993	103.827	20.061	3.687	0.535
867.000	520.831	80.009	19.995	103.827	20.061	3.666	0.531
868.501	521.622	80.009	19.994	103.824	20.061	3.658	0.520
870.000	522.375	80.009	19.993	103.826	20.063	3.519	0.510
871.500	523.156	80.011	19.992	103.824	20.062	3.626	0.528
873.000	523.947	80.010	19.993	103.824	20.063	3.515	0.507
874.500	524.719	80.010	19.994	103.822	20.066	3.341	0.523
876.000	525.491	80.011	19.995	103.820	20.063	3.523	0.511
877.500	526.309	80.011	19.993	103.823	20.063	3.493	0.538
879.000	527.102	80.010	19.994	103.820	20.062	3.586	0.538
880.500	527.929	80.010	19.993	103.818	20.064	3.432	0.535
882.000	528.694	80.010	19.994	103.817	20.060	3.755	0.496
883.500	529.497	80.011	19.994	103.809	20.060	3.709	0.527
885.000	530.322	80.011	19.995	103.818	20.057	3.956	0.532
886.501	531.117	80.010	19.994	103.822	20.060	3.758	0.539
888.000	531.906	80.010	19.995	103.803	20.057	3.982	0.520
889.500	532.725	80.010	19.994	103.807	20.061	3.665	0.537
891.000	533.523	80.010	19.995	103.821	20.057	3.974	0.523
892.500	534.320	80.010	19.994	103.818	20.057	3.920	0.537
894.000	535.149	80.012	19.994	103.814	20.061	3.631	0.554
895.500	535.932	80.012	19.994	103.807	20.063	3.546	0.527
897.000	536.695	80.010	19.995	103.810	20.062	3.580	0.494
898.500	537.477	80.011	19.995	103.809	20.064	3.455	0.525
900.000	538.296	80.011	19.995	103.802	20.063	3.537	0.551
901.500	539.070	80.010	19.994	103.805	20.062	3.578	0.523
903.000	539.901	80.011	19.994	103.807	20.061	3.652	0.530
904.500	540.707	80.012	19.995	103.795	20.060	3.729	0.549
906.000	541.486	80.012	19.995	103.804	20.061	3.653	0.525
907.500	542.309	80.008	19.994	103.819	20.064	3.453	0.573
909.000	543.092	80.009	19.994	103.807	20.067	3.204	0.522
910.500	543.871	80.009	19.993	103.811	20.064	3.483	0.504
912.000	544.673	80.010	19.994	103.824	20.061	3.696	0.523
913.500	545.481	80.010	19.994	103.820	20.061	3.643	0.515
915.000	546.235	80.010	19.993	103.822	20.062	3.571	0.500
916.500	547.017	80.009	19.994	103.811	20.064	3.431	0.523
918.000	547.841	80.010	19.994	103.805	20.063	3.498	0.545
919.500	548.576	80.009	19.994	103.808	20.066	3.287	0.519
921.000	549.395	80.008	19.993	103.810	20.067	3.222	0.557
922.500	550.143	80.009	19.993	103.803	20.062	3.592	0.509
924.000	550.911	80.010	19.993	103.793	20.059	3.821	0.514
925.500	551.626	80.009	19.994	103.788	20.063	3.530	0.496
927.000	552.411	80.010	19.994	103.788	20.063	3.520	0.517
928.500	553.136	80.009	19.993	103.792	20.061	3.686	0.498
930.000	553.924	80.009	19.993	103.796	20.060	3.742	0.512
931.500	554.661	80.009	19.994	103.805	20.063	3.544	0.520
933.000	555.423	80.010	19.994	103.815	20.059	3.813	0.516
934.500	556.127	80.009	19.993	103.808	20.058	3.866	0.465
936.000	556.925	80.010	19.994	103.803	20.059	3.819	0.538
937.500	557.649	80.009	19.994	103.793	20.058	3.859	0.476
939.000	558.425	80.009	19.994	103.796	20.060	3.718	0.512
940.500	559.146	80.009	19.994	103.791	20.059	3.841	0.492
942.000	559.869	80.009	19.994	103.788	20.060	3.742	0.487
943.500	560.612	80.010	19.994	103.787	20.062	3.603	0.493
945.000	561.350	80.010	19.994	103.791	20.062	3.609	0.511
946.500	562.113	80.009	19.993	103.799	20.064	3.469	0.506
948.000	562.858	80.010	19.993	103.800	20.064	3.423	0.491
949.500	563.580	80.010	19.994	103.797	20.063	3.522	0.464
951.000	564.366	80.011	19.994	103.808	20.064	3.417	0.517
952.500	565.078	80.010	19.994	103.808	20.063	3.550	0.464
954.000	565.872	80.011	19.994	103.796	20.065	3.342	0.516
955.500	566.633	80.012	19.993	103.794	20.064	3.484	0.530
957.000	567.397	80.011	19.993	103.803	20.060	3.718	0.476
958.500	568.172	80.012	19.994	103.793	20.059	3.802	0.505
960.000	568.943	80.010	19.995	103.795	20.057	3.964	0.537
961.500	569.643	80.011	19.994	103.791	20.062	3.584	0.477
963.000	570.418	80.011	19.994	103.796	20.060	3.709	0.506
964.500	571.191	80.009	19.994	103.793	20.062	3.586	0.525
966.001	571.965	80.010	19.995	103.792	20.062	3.614	0.508
967.500	572.761	80.011	19.994	103.790	20.059	3.823	0.553
969.000	573.513	80.009	19.994	103.798	20.059	3.779	0.497
970.500	574.316	80.011	19.994	103.815	20.057	3.928	0.529
972.000	575.099	80.011	19.995	103.810	20.063	3.514	0.507
973.500	575.871	80.010	19.993	103.805	20.064	3.485	0.515
975.000	576.668	80.011	19.994	103.814	20.062	3.596	0.539
976.500	577.480	80.012	19.993	103.820	20.062	3.610	0.560
978.000	578.266	80.011	19.994	103.813	20.062	3.628	0.533
979.500	579.042	80.011	19.995	103.802	20.060	3.724	0.502
981.000	579.844	80.012	19.993	103.787	20.054	4.190	0.522
982.500	580.615	80.013	19.994	103.793	20.056	4.006	0.533
984.000	581.426	80.012	19.994	103.809	20.056	4.013	0.552
985.500	582.233	80.011	19.994	103.810	20.059	3.772	0.547
987.000	583.088	80.009	19.994	103.813	20.054	4.183	0.564
988.500	583.859	80.009	19.994	103.817	20.056	4.052	0.513
990.000	584.697	80.010	19.995	103.807	20.055	4.092	0.571
991.500	585.487	80.008	19.994	103.812	20.053	4.266	0.507
993.000	586.277	80.009	19.994	103.810	20.055	4.074	0.537
994.500	587.071	80.009	19.996	103.806	20.055	4.077	0.549
996.000	587.859	80.008	19.994	103.803	20.053	4.269	0.541
997.500	588.692	80.008	19.994	103.797	20.052	4.326	0.533
999.000	589.543	80.010	19.994	103.794	20.050	4.446	0.564
1000.500	590.309	80.010	19.995	103.802	20.050	4.489	0.479
1002.000	591.095	80.010	19.994	103.806	20.049	4.522	0.540
1003.500	591.906	80.009	19.995	103.792	20.047	4.680	0.527
1005.000	592.724	80.010	19.995	103.804	20.050	4.486	0.547
1006.500	593.516	80.010	19.995	103.803	20.046	4.707	0.544
1008.000	594.336	80.010	19.994	103.797	20.050	4.436	0.521
1009.500	595.100	80.011	19.996	103.793	20.045	4.808	0.509
1011.000	595.921	80.010	19.994	103.808	20.046	4.736	0.557
1012.500	596.661	80.009	19.995	103.810	20.048	4.627	0.509
1014.001	597.499	80.009	19.994	103.806	20.049	4.536	0.556
1015.500	598.273	80.010	19.994	103.800	20.047	4.658	0.520
1017.001	599.035	80.009	19.995	103.796	20.049	4.544	0.489
1018.500	599.792	80.009	19.994	103.795	20.049	4.553	0.486
1020.000	600.579	80.010	19.995	103.795	20.047	4.690	0.537
1021.500	601.331	80.010	19.994	103.800	20.049	4.500	0.509
1023.000	602.051	80.008	19.994	103.809	20.046	4.727	0.478
1024.500	602.847	80.010	19.995	103.807	20.049	4.541	0.530
1026.001	603.623	80.009	19.994	103.801	20.048	4.617	0.544
1027.500	604.377	80.010	19.994	103.808	20.050	4.444	0.501
1029.001	605.134	80.010	19.995	103.798	20.049	4.547	0.480
1030.500	605.914	80.011	19.994	103.791	20.048	4.615	0.531
1032.000	606.614	80.010	19.994	103.795	20.049	4.532	0.473
1033.500	607.364	80.011	19.995	103.800	20.049	4.540	0.492
1035.000	608.116	80.011	19.994	103.800	20.048	4.575	0.494
1036.500	608.843	80.010	19.993	103.803	20.049	4.540	0.489
1038.000	609.615	80.011	19.993	103.799	20.049	4.506	0.516
1039.500	610.346	80.010	19.992	103.790	20.048	4.623	0.485
1041.000	611.089	80.010	19.993	103.798	20.045	4.805	0.494
1042.500	611.838	80.011	19.993	103.807	20.049	4.506	0.492
1044.000	612.571	80.012	19.994	103.805	20.049	4.495	0.490
1045.500	613.290	80.010	19.993	103.797	20.050	4.468	0.483
1047.000	614.044	80.011	19.992	103.799	20.047	4.686	0.499
1048.500	614.809	80.011	19.993	103.810	20.048	4.593	0.495
1050.000	615.590	80.011	19.995	103.807	20.050	4.421	0.541
1051.500	616.353	80.011	19.994	103.804	20.052	4.282	0.492
1053.000	617.089	80.011	19.994	103.801	20.049	4.496	0.503
1054.500	617.896	80.010	19.993	103.791	20.049	4.508	0.529
1056.001	618.644	80.010	19.994	103.788	20.052	4.314	0.500
1057.500	619.447	80.010	19.994	103.793	20.048	4.617	0.522
1059.000	620.205	80.010	19.993	103.802	20.046	4.745	0.518
1060.500	620.980	80.012	19.993	103.805	20.048	4.579	0.512
1062.000	621.722	80.011	19.994	103.793	20.047	4.642	0.504
1063.500	622.487	80.012	19.993	103.799	20.046	4.725	0.501
1065.001	623.304	80.011	19.992	103.803	20.052	4.296	0.544
1066.501	624.062	80.012	19.994	103.792	20.051	4.381	0.500
1068.001	624.824	80.013	19.994	103.799	20.050	4.424	0.502
1069.501	625.603	80.010	19.996	103.792	20.054	4.173	0.517
1071.000	626.416	80.011	19.994	103.787	20.054	4.173	0.533
1072.500	627.181	80.010	19.995	103.787	20.053	4.242	0.528
1074.000	627.932	80.010	19.994	103.789	20.055	4.119	0.506
1075.501	628.653	80.010	19.994	103.796	20.059	3.831	0.471
1077.000	629.468	80.009	19.995	103.790	20.057	3.950	0.543
1078.500	630.265	80.009	19.995	103.787	20.056	4.043	0.523
1080.000	631.069	80.009	19.994	103.787	20.054	4.151	0.525
1081.500	631.850	80.008	19.995	103.788	20.055	4.084	0.508
1083.001	632.648	80.009	19.995	103.789	20.056	4.026	0.534
1084.500	633.405	80.009	19.996	103.786	20.055	4.100	0.514
1086.001	634.224	80.009	19.995	103.786	20.057	3.920	0.543
1087.500	635.004	80.009	19.996	103.791	20.054	4.173	0.530
1089.000	635.774	80.011	19.996	103.797	20.057	3.985	0.512
1090.500	636.583	80.010	19.995	103.789	20.057	3.965	0.542
1092.000	637.347	80.010	19.995	103.787	20.058	3.851	0.498
1093.500	638.125	80.009	19.996	103.784	20.057	3.916	0.524
1095.000	638.929	80.011	19.994	103.786	20.058	3.856	0.507
1096.500	639.671	80.011	19.995	103.785	20.060	3.706	0.499
1098.000	640.440	80.010	19.994	103.788	20.060	3.768	0.510
1099.500	641.234	80.010	19.995	103.793	20.057	3.936	0.517
1101.001	642.030	80.010	19.994	103.789	20.059	3.789	0.524
1102.500	642.786	80.010	19.994	103.801	20.063	3.536	0.501
1104.000	643.617	80.010	19.994	103.800	20.064	3.441	0.562
1105.500	644.347	80.009	19.993	103.791	20.063	3.528	0.498
1107.000	645.128	80.009	19.994	103.791	20.062	3.558	0.516
1108.500	645.913	80.010	19.995	103.793	20.063	3.534	0.497
1110.000	646.657	80.010	19.995	103.797	20.061	3.635	0.501
1111.500	647.495	80.009	19.994	103.795	20.060	3.766	0.523
1113.000	648.217	80.011	19.994	103.792	20.063	3.546	0.482
1114.501	648.971	80.011	19.994	103.790	20.062	3.558	0.510
1116.000	649.788	80.010	19.994	103.790	20.061	3.657	0.543
1117.500	650.547	80.011	19.993	103.788	20.059	3.791	0.490
1119.000	651.309	80.011	19.992	103.788	20.061	3.645	0.518
1120.500	652.092	80.010	19.994	103.788	20.056	4.045	0.517
1122.000	652.765	80.011	19.993	103.794	20.059	3.817	0.458
1123.500	653.626	80.010	19.994	103.798	20.054	4.183	0.549
1125.000	654.385	80.010	19.994	103.790	20.055	4.058	0.507
1126.501	655.151	80.010	19.993	103.789	20.057	3.937	0.514
1128.000	655.897	80.010	19.993	103.790	20.057	3.951	0.526
1129.500	656.643	80.011	19.996	103.800	20.054	4.143	0.506
1131.001	657.387	80.011	19.993	103.806	20.055	4.106	0.470
1132.500	658.133	80.011	19.994	103.801	20.059	3.819	0.499
1134.000	658.922	80.011	19.993	103.793	20.062	3.571	0.521
1135.500	659.651	80.011	19.993	103.786	20.057	3.943	0.453
1137.001	660.445	80.013	19.994	103.785	20.060	3.736	0.527
1138.500	661.203	80.011	19.993	103.789	20.056	4.040	0.477
1140.000	661.919	80.013	19.993	103.792	20.063	3.492	0.453
1141.500	662.791	80.012	19.993	103.785	20.060	3.735	0.592
1143.000	663.453	80.014	19.994	103.784	20.068	3.150	0.483
1144.501	664.229	80.013	19.992	103.784	20.064	3.471	0.508
1146.000	665.012	80.013	19.994	103.785	20.066	3.285	0.521
1147.500	665.743	80.012	19.994	103.787	20.065	3.397	0.482
1149.000	666.480	80.012	19.993	103.785	20.064	3.476	0.484
1150.500	667.285	80.012	19.994	103.784	20.061	3.635	0.513
1152.000	667.983	80.010	19.994	103.784	20.064	3.459	0.442
1153.500	668.746	80.010	19.995	103.784	20.065	3.405	0.500
1155.000	669.520	80.010	19.994	103.788	20.064	3.415	0.543
1156.500	670.231	80.009	19.994	103.792	20.065	3.362	0.475
1158.000	671.067	80.011	19.995	103.789	20.065	3.350	0.563
1159.500	671.823	80.009	19.994	103.783	20.065	3.364	0.514
1161.001	672.579	80.009	19.995	103.787	20.067	3.202	0.519
1162.500	673.362	80.010	19.994	103.787	20.065	3.383	0.520
1164.001	674.074	80.011	19.994	103.786	20.067	3.241	0.469
1165.500	674.906	80.010	19.993	103.787	20.066	3.318	0.547
1167.000	675.674	80.009	19.994	103.789	20.061	3.658	0.496
1168.501	676.395	80.011	19.994	103.786	20.062	3.603	0.493
1170.000	677.191	80.010	19.994	103.788	20.059	3.791	0.516
1171.500	677.964	80.010	19.994	103.790	20.065	3.358	0.542
1173.000	678.659	80.010	19.994	103.790	20.065	3.391	0.476
1174.500	679.437	80.009	19.994	103.787	20.066	3.336	0.508
1176.000	680.180	80.009	19.994	103.789	20.062	3.594	0.514
1177.500	680.984	80.009	19.994	103.787	20.063	3.536	0.517
1179.000	681.725	80.008	19.994	103.788	20.065	3.391	0.487
1180.501	682.509	80.008	19.994	103.796	20.064	3.453	0.529
1182.001	683.345	80.008	19.994	103.790	20.063	3.524	0.520
1183.500	684.000	80.008	19.995	103.786	20.063	3.526	0.446
1185.000	684.819	80.007	19.995	103.796	20.061	3.682	0.557
1186.501	685.648	80.007	19.994	103.803	20.063	3.508	0.534
1188.000	686.411	80.008	19.995	103.791	20.061	3.665	0.506
1189.500	687.158	80.008	19.996	103.788	20.064	3.435	0.506
1191.000	687.897	80.008	19.995	103.789	20.063	3.492	0.450
1192.500	688.690	80.009	19.994	103.789	20.063	3.498	0.533
1194.000	689.422	80.010	19.994	103.789	20.063	3.546	0.471
1195.500	690.208	80.011	19.993	103.788	20.065	3.371	0.510
1197.000	690.977	80.011	19.994	103.787	20.065	3.377	0.528
1198.501	691.700	80.011	19.993	103.795	20.061	3.678	0.478
1200.000	692.487	80.011	19.993	103.789	20.065	3.395	0.520
1201.500	693.237	80.011	19.993	103.780	20.065	3.385	0.504
1203.000	694.037	80.011	19.993	103.790	20.062	3.611	0.591
1204.500	694.814	80.010	19.994	103.787	20.059	3.801	0.500
1206.001	695.582	80.011	19.994	103.784	20.059	3.842	0.526
1207.501	696.296	80.011	19.995	103.784	20.056	4.042	0.477
1209.000	697.084	80.011	19.993	103.782	20.059	3.805	0.518
1210.500	697.861	80.009	19.994	103.782	20.059	3.830	0.522
1212.000	698.577	80.010	19.993	103.784	20.058	3.868	0.457
1213.500	699.378	80.010	19.993	103.785	20.057	3.963	0.531
1215.000	700.129	80.011	19.994	103.786	20.059	3.803	0.503
1216.500	700.878	80.009	19.994	103.786	20.064	3.450	0.505
1218.000	701.658	80.011	19.994	103.785	20.063	3.534	0.516
1219.500	702.360	80.011	19.994	103.783	20.062	3.587	0.484
1221.000	703.152	80.011	19.993	103.783	20.061	3.645	0.501
1222.500	703.905	80.012	19.993	103.783	20.060	3.720	0.506
1224.001	704.685	80.012	19.994	103.784	20.061	3.656	0.524
1225.500	705.476	80.012	19.994	103.784	20.060	3.738	0.540
1227.000	706.204	80.011	19.993	103.783	20.064	3.465	0.475
1228.501	707.033	80.012	19.993	103.780	20.059	3.821	0.553
1230.001	707.798	80.012	19.994	103.782	20.061	3.655	0.530
1231.500	708.571	80.011	19.993	103.786	20.059	3.811	0.537
1233.000	709.340	80.010	19.992	103.789	20.061	3.662	0.504
1234.501	710.084	80.008	19.994	103.787	20.058	3.910	0.492
1236.001	710.837	80.010	19.993	103.786	20.060	3.700	0.521
1237.500	711.601	80.010	19.992	103.786	20.060	3.753	0.530
1239.001	712.349	80.010	19.993	103.787	20.062	3.589	0.507
1240.500	713.109	80.009	19.994	103.789	20.065	3.368	0.525
1242.000	713.907	80.010	19.994	103.789	20.058	3.846	0.591
1243.500	714.819	80.009	19.995	103.787	20.057	3.965	0.579
1245.001	715.415	80.010	19.993	103.789	20.057	3.949	0.391
1246.501	716.203	80.010	19.994	103.789	20.060	3.765	0.511
1248.000	716.995	80.010	19.994	103.788	20.060	3.700	0.520
1249.500	717.730	80.008	19.995	103.787	20.060	3.747	0.473
1251.000	718.499	80.009	19.995	103.794	20.057	3.965	0.507
1252.500	719.271	80.008	19.995	103.792	20.061	3.678	0.508
1254.000	720.068	80.010	19.994	103.788	20.063	3.536	0.524
1255.500	720.783	80.008	19.992	103.786	20.061	3.654	0.443
1257.000	721.580	80.011	19.993	103.789	20.060	3.765	0.523
1258.500	722.265	80.010	19.994	103.790	20.057	3.933	0.460
1260.001	723.019	80.010	19.993	103.788	20.059	3.795	0.505
1261.501	723.770	80.009	19.995	103.786	20.055	4.121	0.505
1263.000	724.498	80.009	19.994	103.782	20.057	3.951	0.483
1264.500	725.240	80.009	19.993	103.778	20.056	4.020	0.467
1266.000	726.042	80.008	19.993	103.780	20.056	4.002	0.527
1267.501	726.802	80.010	19.995	103.784	20.053	4.228	0.496
1269.000	727.548	80.009	19.994	103.780	20.056	3.987	0.504
1270.500	728.287	80.009	19.994	103.777	20.060	3.763	0.488
1272.000	729.062	80.008	19.995	103.781	20.059	3.799	0.516
1273.500	729.760	80.010	19.994	103.781	20.062	3.565	0.462
1275.000	730.478	80.009	19.994	103.782	20.057	3.947	0.489
1276.500	731.196	80.009	19.994	103.781	20.060	3.765	0.480
1278.000	731.974	80.009	19.995	103.777	20.062	3.622	0.487
1279.500	732.732	80.009	19.994	103.781	20.060	3.757	0.492
1281.001	733.442	80.009	19.995	103.785	20.058	3.874	0.468
1282.500	734.184	80.010	19.995	103.785	20.058	3.866	0.490
1284.000	734.961	80.011	19.994	103.782	20.057	3.920	0.510
1285.500	735.657	80.012	19.994	103.780	20.059	3.783	0.473
1287.000	736.415	80.011	19.993	103.777	20.057	3.961	0.507
1288.500	737.134	80.010	19.994	103.778	20.057	3.955	0.476
1290.000	737.951	80.011	19.993	103.777	20.053	4.238	0.533
1291.500	738.699	80.010	19.994	103.782	20.056	4.008	0.505
1293.000	739.381	80.011	19.994	103.786	20.059	3.840	0.447
1294.500	740.158	80.012	19.994	103.785	20.056	4.020	0.523
1296.000	740.892	80.010	19.993	103.784	20.059	3.834	0.495
1297.500	741.673	80.011	19.994	103.780	20.060	3.710	0.532
1299.000	742.439	80.011	19.994	103.782	20.058	3.856	0.516
1300.500	743.170	80.011	19.993	103.783	20.059	3.793	0.478
1301.000	743.378	80.010	19.993	103.778	20.056	3.993	0.474