File: 01_Data/Polyester_Batting_81B/MCC/Polyester_Batting_81B_MCC_30K_min_220301_R3.txt
Sample ID:	C:\MCC\MCC Cal\Test\Polyester_Batting_81B_MCC_30K_min_220301_R3.txt
Sample Weight (mg):	4.54
Heating Rate (C/s):	0.5
Combustor Temp (C):	900
N2 Flow Rate (cc/min):	80
O2 Flow Rate (cc/min):	20
Calibration File:	C:\MCC\MCC Cal\Coeff1 JN10440_30_210304.txt.txt
T Correction Coefficients:	0	1.024463	0
Time Shift (s):	14
*
Time (s)	Temperature (C)	N2 flow rate (cc/min)	O2 flow rate (cc/min)	Flow Rate (cc/min)	Oxygen (%)	HRR (W/g)	Heating rate (C/s)
0.000	112.396	80.013	19.992	103.726	20.106	-0.093	-0.004
1.500	112.434	80.013	19.992	103.724	20.107	-0.148	0.039
3.000	112.450	80.012	19.995	103.724	20.111	-0.475	0.020
4.500	112.427	80.012	19.994	103.719	20.109	-0.359	-0.005
6.000	112.439	80.011	19.994	103.717	20.108	-0.262	0.003
7.500	112.436	80.012	19.993	103.723	20.106	-0.106	0.010
9.000	112.416	80.011	19.993	103.728	20.106	-0.085	-0.003
10.500	112.398	80.013	19.993	103.729	20.104	0.032	-0.015
12.000	112.386	80.012	19.994	103.736	20.105	-0.063	-0.011
13.500	112.405	80.012	19.993	103.754	20.105	-0.028	0.018
15.000	112.425	80.012	19.994	103.780	20.098	0.465	0.026
16.500	112.453	80.012	19.993	103.784	20.101	0.264	0.016
18.000	112.486	80.012	19.994	103.779	20.102	0.164	0.033
19.500	112.532	80.012	19.993	103.785	20.098	0.430	0.023
21.000	112.565	80.012	19.993	103.785	20.094	0.721	0.049
22.500	112.546	80.013	19.996	103.798	20.092	0.921	0.004
24.000	112.624	80.014	19.995	103.822	20.090	0.998	0.044
25.500	112.697	80.012	19.994	103.819	20.090	1.031	0.031
27.000	112.813	80.031	19.998	103.827	20.087	1.266	0.071
28.500	112.901	80.015	19.995	103.852	20.082	1.570	0.080
30.000	113.009	80.016	19.994	103.856	20.085	1.367	0.060
31.500	113.108	80.014	19.995	103.855	20.082	1.633	0.065
33.001	113.249	80.014	19.994	103.864	20.078	1.898	0.084
34.499	113.382	80.012	19.994	103.883	20.078	1.856	0.091
35.999	113.545	80.012	19.994	103.897	20.073	2.265	0.106
37.499	113.715	80.012	19.994	103.905	20.073	2.243	0.118
38.999	113.937	80.011	19.994	103.912	20.067	2.671	0.140
40.499	114.158	80.012	19.993	103.916	20.064	2.887	0.139
41.999	114.389	80.010	19.994	103.927	20.066	2.745	0.182
43.499	114.663	80.014	19.994	103.927	20.065	2.786	0.182
45.000	114.913	80.010	19.993	103.923	20.066	2.749	0.189
46.499	115.197	80.011	19.993	103.935	20.068	2.629	0.187
47.999	115.475	80.013	19.993	103.938	20.063	2.931	0.191
49.499	115.765	80.010	19.995	103.944	20.069	2.518	0.196
51.000	116.084	80.012	19.994	103.956	20.057	3.365	0.234
52.499	116.419	80.010	19.994	103.970	20.055	3.509	0.218
54.001	116.782	80.010	19.993	103.969	20.055	3.557	0.231
55.499	117.213	80.011	19.997	103.974	20.057	3.377	0.265
56.999	117.556	80.012	19.994	103.979	20.053	3.655	0.240
58.499	117.994	80.012	19.993	103.986	20.055	3.509	0.278
59.999	118.401	80.012	19.995	103.987	20.057	3.375	0.279
61.499	118.808	80.008	19.994	103.986	20.062	3.047	0.282
62.999	119.303	80.012	19.993	103.980	20.057	3.424	0.341
64.501	119.769	80.012	19.993	103.987	20.056	3.476	0.316
65.999	120.212	80.013	19.994	103.983	20.057	3.415	0.318
67.499	120.665	80.007	19.994	103.985	20.051	3.794	0.277
69.000	121.151	80.012	19.994	103.985	20.056	3.459	0.318
70.499	121.761	80.012	19.993	103.991	20.056	3.482	0.395
71.999	122.293	80.010	19.995	103.992	20.055	3.524	0.361
73.499	122.826	80.009	19.993	103.996	20.054	3.611	0.332
74.999	123.356	80.014	19.993	103.991	20.055	3.544	0.357
76.500	123.928	80.013	19.994	103.986	20.054	3.636	0.390
77.999	124.503	80.011	19.994	104.006	20.055	3.571	0.406
79.499	125.126	80.015	19.992	104.020	20.055	3.531	0.410
80.999	125.694	80.013	19.993	104.012	20.061	3.141	0.390
82.500	126.320	80.012	19.994	104.013	20.052	3.726	0.405
83.999	126.943	80.018	19.992	104.008	20.053	3.660	0.426
85.499	127.536	80.007	19.994	104.014	20.052	3.756	0.393
86.999	128.154	80.014	19.995	104.011	20.056	3.478	0.412
88.499	128.764	80.014	19.994	104.004	20.054	3.624	0.402
89.999	129.468	80.013	19.994	103.997	20.051	3.822	0.472
91.500	130.135	80.012	19.994	104.005	20.054	3.585	0.445
93.000	130.807	80.014	19.995	103.990	20.053	3.646	0.424
94.499	131.449	80.013	19.995	103.994	20.051	3.804	0.418
95.999	132.139	80.012	19.995	104.000	20.054	3.638	0.470
97.499	132.827	80.015	19.993	104.003	20.052	3.737	0.451
98.999	133.447	80.012	19.994	103.993	20.057	3.398	0.398
100.500	134.187	80.012	19.993	103.993	20.055	3.570	0.474
101.999	134.877	80.004	19.995	104.003	20.053	3.687	0.448
103.499	135.619	80.018	19.993	103.997	20.055	3.507	0.469
104.999	136.285	80.002	19.994	104.001	20.057	3.359	0.445
106.500	137.020	80.013	19.992	104.002	20.060	3.201	0.504
107.999	137.725	80.011	19.993	104.001	20.056	3.428	0.473
109.500	138.475	80.015	19.995	103.983	20.051	3.852	0.497
110.999	139.152	80.000	19.994	103.975	20.056	3.460	0.448
112.499	139.885	80.018	19.994	103.982	20.058	3.345	0.507
113.999	140.656	80.015	19.995	103.994	20.050	3.920	0.499
115.499	141.380	80.012	19.994	103.984	20.053	3.710	0.485
116.999	142.154	80.013	19.994	103.985	20.055	3.529	0.522
118.499	142.911	80.013	19.996	103.990	20.053	3.704	0.527
120.000	143.691	80.017	19.995	103.984	20.051	3.841	0.527
121.500	144.434	80.016	19.993	103.978	20.049	3.975	0.508
122.999	145.155	80.019	19.993	103.976	20.054	3.614	0.484
124.500	145.909	80.011	19.995	103.983	20.055	3.511	0.507
125.999	146.657	80.007	19.995	103.981	20.055	3.556	0.506
127.499	147.430	80.006	19.995	103.981	20.055	3.539	0.522
129.000	148.142	80.009	19.995	103.982	20.054	3.630	0.473
130.500	148.955	80.014	19.994	103.980	20.051	3.817	0.523
132.000	149.758	80.008	19.993	103.983	20.054	3.635	0.549
133.500	150.510	80.013	19.995	103.983	20.059	3.266	0.516
135.000	151.257	80.013	19.994	103.983	20.050	3.868	0.513
136.500	152.013	80.009	19.995	103.981	20.053	3.645	0.520
138.000	152.778	80.014	19.992	103.978	20.056	3.428	0.521
139.500	153.534	80.010	19.993	103.984	20.057	3.383	0.492
141.000	154.310	80.013	19.994	103.984	20.053	3.669	0.502
142.500	155.047	80.012	19.993	103.982	20.054	3.592	0.505
144.001	155.800	80.013	19.993	103.981	20.053	3.702	0.493
145.500	156.594	80.013	19.993	103.981	20.051	3.789	0.533
147.000	157.376	80.011	19.997	103.984	20.055	3.529	0.519
148.500	158.158	80.013	19.995	103.985	20.055	3.506	0.511
150.000	158.910	80.011	19.992	103.979	20.055	3.534	0.520
151.500	159.677	80.014	19.994	103.980	20.053	3.656	0.513
153.000	160.490	80.019	19.992	103.980	20.055	3.560	0.529
154.500	161.198	80.014	19.994	103.973	20.053	3.708	0.468
156.000	161.972	80.009	19.996	103.974	20.057	3.417	0.516
157.500	162.727	80.010	19.995	103.977	20.055	3.502	0.498
159.000	163.472	80.011	19.993	103.965	20.059	3.258	0.496
160.500	164.268	80.000	19.996	103.954	20.056	3.488	0.524
162.000	165.036	80.009	19.994	103.951	20.060	3.192	0.536
163.500	165.804	80.017	19.993	103.964	20.055	3.551	0.532
165.000	166.595	79.996	19.995	103.965	20.058	3.326	0.559
166.500	167.357	80.011	19.993	103.951	20.059	3.222	0.510
168.000	168.118	80.012	19.994	103.958	20.059	3.239	0.492
169.500	168.872	80.016	19.993	103.959	20.060	3.190	0.474
171.000	169.596	80.022	19.991	103.954	20.059	3.217	0.468
172.500	170.402	80.012	19.992	103.956	20.060	3.208	0.535
174.000	171.107	80.021	19.992	103.941	20.056	3.444	0.490
175.500	171.872	80.009	19.993	103.940	20.057	3.373	0.524
177.000	172.660	80.017	19.990	103.939	20.057	3.405	0.521
178.500	173.392	80.004	19.994	103.941	20.061	3.099	0.483
180.000	174.146	80.008	19.996	103.937	20.063	2.943	0.483
181.500	174.871	80.006	19.993	103.937	20.061	3.131	0.498
183.000	175.570	80.019	19.994	103.940	20.063	2.987	0.485
184.500	176.321	80.000	19.993	103.938	20.060	3.141	0.487
186.000	177.087	80.010	19.993	103.935	20.064	2.868	0.516
187.500	177.860	80.018	19.996	103.939	20.065	2.798	0.515
189.000	178.555	80.016	19.992	103.939	20.063	2.930	0.438
190.500	179.302	80.015	19.993	103.942	20.063	2.979	0.503
192.000	180.067	80.009	19.996	103.938	20.064	2.861	0.523
193.500	180.805	80.015	19.995	103.938	20.064	2.876	0.510
195.000	181.561	80.017	19.993	103.946	20.064	2.870	0.500
196.500	182.229	80.002	19.995	103.945	20.065	2.843	0.453
198.000	183.065	80.021	19.990	103.943	20.062	3.017	0.564
199.500	183.733	80.007	19.994	103.945	20.066	2.726	0.433
201.000	184.502	80.009	19.992	103.936	20.062	3.048	0.510
202.500	185.252	80.012	19.992	103.940	20.063	2.995	0.492
204.000	186.032	80.012	19.995	103.942	20.065	2.809	0.512
205.500	186.731	80.003	19.994	103.941	20.063	2.987	0.447
207.000	187.492	80.004	19.995	103.945	20.062	3.032	0.533
208.500	188.238	80.011	19.994	103.949	20.065	2.805	0.494
210.000	188.974	80.010	19.995	103.944	20.064	2.855	0.499
211.500	189.692	80.011	19.993	103.939	20.061	3.113	0.464
213.000	190.466	80.013	19.994	103.942	20.062	3.026	0.503
214.500	191.207	80.018	19.994	103.939	20.062	3.022	0.497
216.000	191.951	80.011	19.995	103.936	20.061	3.119	0.503
217.500	192.639	80.012	19.997	103.941	20.060	3.198	0.467
219.000	193.394	80.010	19.994	103.941	20.060	3.151	0.504
220.500	194.131	80.011	19.996	103.939	20.064	2.880	0.505
222.000	194.871	80.018	19.995	103.935	20.064	2.882	0.497
223.500	195.592	80.019	19.993	103.940	20.058	3.290	0.466
225.000	196.312	80.006	19.996	103.944	20.061	3.079	0.468
226.500	197.095	80.014	19.995	103.937	20.063	2.947	0.497
228.000	197.790	80.008	19.995	103.939	20.067	2.653	0.482
229.500	198.507	80.012	19.993	103.942	20.069	2.537	0.483
231.000	199.205	80.016	19.993	103.942	20.067	2.673	0.472
232.500	199.961	80.011	19.994	103.938	20.066	2.728	0.507
234.000	200.707	80.011	19.994	103.933	20.061	3.103	0.508
235.500	201.461	80.013	19.993	103.933	20.067	2.643	0.501
237.000	202.166	80.008	19.996	103.932	20.066	2.758	0.460
238.500	202.922	80.005	19.994	103.928	20.063	2.939	0.521
240.000	203.668	80.017	19.992	103.932	20.063	2.941	0.481
241.500	204.434	80.008	19.994	103.936	20.060	3.150	0.505
243.000	205.142	80.000	19.994	103.939	20.063	2.964	0.520
244.500	205.882	80.013	19.995	103.925	20.063	2.937	0.487
246.000	206.634	80.009	19.993	103.925	20.066	2.739	0.488
247.500	207.378	80.004	19.994	103.933	20.061	3.087	0.477
249.000	208.106	80.012	19.993	103.935	20.061	3.087	0.473
250.500	208.817	80.013	19.994	103.935	20.060	3.182	0.471
252.000	209.554	80.006	19.995	103.933	20.058	3.297	0.481
253.500	210.281	80.015	19.995	103.920	20.061	3.138	0.478
255.000	211.023	80.012	19.993	103.906	20.061	3.115	0.466
256.500	211.784	80.010	19.995	103.904	20.064	2.909	0.493
258.000	212.489	80.014	19.993	103.925	20.062	3.043	0.481
259.500	213.234	80.025	19.993	103.939	20.065	2.842	0.488
261.000	213.993	80.012	19.994	103.940	20.062	3.042	0.502
262.500	214.681	80.018	19.993	103.943	20.063	2.931	0.466
264.000	215.466	80.017	19.991	103.933	20.068	2.576	0.529
265.500	216.135	80.009	19.994	103.924	20.066	2.760	0.459
267.000	216.869	80.013	20.000	103.925	20.064	2.900	0.488
268.500	217.618	80.012	19.994	103.909	20.067	2.657	0.524
270.000	218.362	80.015	19.993	103.910	20.066	2.742	0.505
271.500	219.106	80.013	19.994	103.928	20.068	2.606	0.503
273.000	219.825	80.007	19.992	103.934	20.063	2.984	0.480
274.500	220.617	80.017	19.992	103.934	20.065	2.793	0.528
276.000	221.327	80.019	19.991	103.933	20.070	2.485	0.493
277.500	222.117	79.994	19.993	103.928	20.071	2.412	0.486
279.000	222.839	80.007	19.998	103.931	20.072	2.315	0.487
280.500	223.604	80.010	19.995	103.937	20.069	2.503	0.511
282.000	224.356	80.006	19.994	103.937	20.072	2.296	0.558
283.500	225.115	80.012	19.995	103.925	20.066	2.741	0.461
285.000	225.846	80.014	19.996	103.927	20.073	2.225	0.445
286.500	226.495	80.013	19.991	103.924	20.073	2.262	0.563
288.000	227.538	80.019	19.993	103.919	20.071	2.402	0.634
289.500	228.242	80.010	19.996	103.909	20.069	2.562	0.410
291.000	228.959	80.011	19.992	103.902	20.072	2.292	0.561
292.500	229.725	80.013	19.994	103.905	20.070	2.467	0.506
294.000	230.457	80.009	19.996	103.905	20.068	2.631	0.503
295.500	231.201	80.007	19.991	103.904	20.074	2.209	0.529
297.000	231.951	80.012	20.000	103.904	20.070	2.453	0.488
298.500	232.732	80.018	19.994	103.900	20.070	2.481	0.546
300.000	233.519	80.015	19.990	103.903	20.075	2.112	0.501
301.500	234.225	80.016	19.995	103.906	20.072	2.294	0.468
303.000	235.011	80.009	19.996	103.908	20.072	2.341	0.526
304.500	235.739	80.013	19.996	103.909	20.069	2.524	0.453
306.000	236.486	80.013	19.992	103.903	20.075	2.090	0.484
307.500	237.217	80.012	19.989	103.906	20.069	2.505	0.483
309.000	237.968	80.014	19.999	103.906	20.074	2.201	0.480
310.500	238.697	80.008	19.992	103.905	20.077	1.931	0.475
312.000	239.439	80.019	19.987	103.900	20.077	1.966	0.496
313.500	240.207	80.016	19.994	103.907	20.080	1.777	0.532
315.000	240.847	80.012	19.996	103.905	20.078	1.917	0.440
316.500	241.606	80.011	19.996	103.899	20.079	1.787	0.512
318.000	242.337	80.010	19.996	103.904	20.081	1.680	0.486
319.500	243.088	80.017	19.998	103.906	20.079	1.810	0.485
321.000	243.772	80.001	19.996	103.906	20.075	2.110	0.456
322.500	244.523	80.014	19.992	103.899	20.081	1.692	0.509
324.000	245.208	80.005	19.993	103.899	20.082	1.625	0.460
325.500	245.944	80.018	19.994	103.902	20.078	1.866	0.490
327.000	246.603	80.015	19.995	103.919	20.077	1.958	0.441
328.500	247.327	80.003	19.994	103.915	20.077	1.994	0.475
330.000	248.077	80.017	19.993	103.900	20.076	2.031	0.507
331.500	248.790	80.013	19.997	103.907	20.074	2.201	0.498
333.000	249.554	80.019	19.992	103.905	20.082	1.619	0.492
334.500	250.217	80.017	19.994	103.906	20.079	1.854	0.434
336.000	250.934	80.018	19.994	103.904	20.077	1.938	0.508
337.500	251.689	80.021	19.990	103.905	20.075	2.128	0.493
339.000	252.355	80.007	19.989	103.902	20.075	2.124	0.433
340.500	253.089	80.008	19.994	103.902	20.078	1.905	0.482
342.000	253.816	80.011	19.991	103.908	20.073	2.260	0.474
343.500	254.482	80.008	19.992	103.904	20.070	2.489	0.450
345.000	255.188	80.011	19.994	103.896	20.070	2.438	0.447
346.500	255.912	80.009	19.995	103.900	20.075	2.096	0.473
348.000	256.623	80.013	19.994	103.900	20.075	2.096	0.484
349.500	257.374	80.006	19.997	103.905	20.075	2.114	0.488
351.000	258.058	80.011	20.001	103.907	20.072	2.299	0.469
352.500	258.807	80.019	19.992	103.902	20.077	1.966	0.532
354.000	259.556	80.024	19.992	103.902	20.077	1.939	0.490
355.500	260.282	80.012	19.992	103.903	20.079	1.832	0.478
357.000	260.983	80.015	19.997	103.903	20.079	1.806	0.470
358.500	261.742	80.012	19.993	103.900	20.075	2.114	0.503
360.000	262.445	80.019	19.990	103.900	20.075	2.096	0.478
361.500	263.176	80.009	19.995	103.905	20.073	2.252	0.481
363.000	263.970	80.014	19.999	103.898	20.076	2.029	0.512
364.500	264.627	80.008	19.990	103.903	20.079	1.806	0.439
366.000	265.410	80.002	20.001	103.904	20.072	2.301	0.546
367.500	266.233	80.016	19.990	103.894	20.074	2.187	0.527
369.000	266.954	80.011	19.994	103.900	20.069	2.542	0.484
370.500	267.723	80.013	19.992	103.898	20.072	2.302	0.526
372.000	268.470	80.010	19.996	103.898	20.072	2.347	0.510
373.500	269.229	80.014	19.993	103.901	20.071	2.398	0.504
375.000	269.974	80.014	19.993	103.899	20.073	2.280	0.499
376.500	270.767	80.006	19.996	103.892	20.071	2.402	0.543
378.000	271.558	80.019	19.989	103.896	20.072	2.335	0.542
379.500	272.298	80.011	19.994	103.912	20.069	2.501	0.496
381.000	273.041	80.018	19.994	103.920	20.076	2.065	0.480
382.500	273.770	80.008	19.996	103.911	20.075	2.126	0.509
384.000	274.584	80.014	19.993	103.902	20.074	2.159	0.554
385.500	275.308	80.019	19.991	103.911	20.074	2.177	0.504
387.000	276.070	80.011	19.998	103.908	20.076	2.055	0.520
388.500	276.819	80.028	19.997	103.901	20.074	2.175	0.504
390.000	277.564	80.007	19.999	103.902	20.073	2.264	0.517
391.500	278.349	80.015	19.993	103.904	20.075	2.071	0.520
393.000	279.137	80.015	19.993	103.918	20.073	2.256	0.521
394.500	279.868	80.006	19.990	103.909	20.071	2.353	0.486
396.000	280.667	80.014	19.990	103.907	20.070	2.457	0.544
397.500	281.441	80.009	19.989	103.912	20.074	2.200	0.489
399.000	282.232	80.020	19.987	103.904	20.072	2.339	0.498
400.500	282.953	80.010	19.997	103.904	20.077	1.972	0.502
402.000	283.739	80.009	19.995	103.903	20.074	2.207	0.503
403.500	284.491	80.007	19.990	103.903	20.071	2.398	0.488
405.000	285.260	80.015	19.994	103.847	20.070	2.432	0.518
406.500	286.049	80.011	19.994	103.843	20.068	2.572	0.539
408.000	286.838	80.010	19.998	103.950	20.073	2.278	0.509
409.500	287.595	80.016	19.992	103.950	20.080	1.779	0.517
411.000	288.360	80.009	20.001	103.901	20.072	2.301	0.518
412.500	289.115	80.023	19.991	103.905	20.072	2.343	0.512
414.000	289.887	80.006	19.998	103.912	20.072	2.313	0.519
415.500	290.680	80.000	19.999	103.909	20.072	2.295	0.520
417.000	291.501	80.009	19.999	103.904	20.074	2.195	0.536
418.500	292.263	80.012	19.994	103.897	20.072	2.313	0.500
420.000	293.036	80.017	19.994	103.896	20.071	2.362	0.521
421.500	293.824	80.010	19.997	103.901	20.072	2.339	0.537
423.000	294.572	80.020	19.993	103.902	20.069	2.528	0.484
424.500	295.374	80.016	19.989	103.901	20.071	2.382	0.541
426.000	296.141	80.010	19.994	103.896	20.071	2.410	0.524
427.500	296.911	80.015	19.994	103.904	20.070	2.471	0.513
429.000	297.688	80.007	20.000	103.904	20.072	2.285	0.488
430.500	298.452	80.015	19.994	103.890	20.069	2.553	0.483
432.000	299.249	80.018	19.991	103.886	20.064	2.853	0.536
433.500	299.978	80.015	19.993	103.894	20.071	2.388	0.501
435.000	300.726	80.016	19.993	103.899	20.072	2.335	0.516
436.500	301.482	80.014	19.991	103.891	20.073	2.232	0.506
438.000	302.304	80.018	19.991	103.888	20.073	2.232	0.541
439.500	303.084	80.018	19.993	103.893	20.075	2.116	0.507
441.000	303.853	80.017	19.992	103.891	20.071	2.398	0.493
442.500	304.568	80.019	19.992	103.886	20.075	2.130	0.513
444.000	305.324	80.021	19.992	103.886	20.074	2.189	0.496
445.500	306.122	80.006	19.995	103.895	20.073	2.268	0.560
447.000	306.884	80.013	19.995	103.885	20.076	2.053	0.515
448.500	307.703	80.001	19.996	103.888	20.075	2.124	0.542
450.000	308.426	80.010	19.994	103.883	20.075	2.122	0.495
451.500	309.275	80.009	19.994	103.882	20.071	2.408	0.569
453.000	309.998	80.010	19.994	103.886	20.079	1.846	0.497
454.500	310.774	80.010	19.993	103.887	20.069	2.561	0.515
456.000	311.549	80.012	19.994	103.893	20.077	1.986	0.529
457.500	312.342	80.008	19.991	103.888	20.074	2.183	0.555
459.000	313.160	80.008	19.990	103.891	20.069	2.567	0.547
460.500	313.929	80.014	19.995	103.889	20.072	2.323	0.516
462.000	314.677	80.016	19.993	103.887	20.066	2.729	0.484
463.500	315.411	80.014	19.996	103.888	20.070	2.464	0.480
465.000	316.194	80.010	19.994	103.881	20.076	2.005	0.527
466.500	316.967	80.001	19.994	103.892	20.071	2.384	0.501
468.000	317.737	80.011	19.998	103.879	20.071	2.364	0.549
469.500	318.493	80.018	19.995	103.886	20.070	2.447	0.496
471.000	319.209	80.010	19.995	103.898	20.077	1.936	0.493
472.500	319.954	80.012	19.993	103.881	20.070	2.437	0.496
474.000	320.727	80.011	19.994	103.871	20.067	2.648	0.512
475.500	321.456	80.013	19.991	103.873	20.070	2.443	0.495
477.000	322.216	80.025	19.991	103.881	20.064	2.891	0.516
478.500	323.002	80.012	19.987	103.891	20.068	2.626	0.516
480.000	323.769	80.012	19.998	103.878	20.071	2.413	0.506
481.500	324.502	80.012	19.993	103.871	20.071	2.388	0.467
483.000	325.256	80.016	19.994	103.887	20.064	2.853	0.509
484.500	326.054	80.013	19.992	103.884	20.071	2.358	0.554
486.000	326.814	80.016	19.995	103.882	20.075	2.091	0.479
487.500	327.536	80.009	19.995	103.892	20.068	2.598	0.500
489.000	328.279	80.002	19.994	103.876	20.068	2.577	0.479
490.500	329.027	80.010	19.992	103.877	20.071	2.375	0.518
492.000	329.811	79.997	19.995	103.876	20.066	2.768	0.536
493.500	330.555	80.018	19.993	103.876	20.066	2.771	0.481
495.000	331.310	80.016	19.995	103.872	20.068	2.629	0.485
496.500	332.049	80.008	19.993	103.849	20.071	2.387	0.502
498.000	332.861	80.017	19.995	103.849	20.072	2.344	0.560
499.500	333.633	80.020	19.996	103.873	20.072	2.306	0.479
501.000	334.358	80.011	20.000	103.851	20.074	2.146	0.492
502.500	335.092	80.015	19.996	103.860	20.072	2.340	0.487
504.000	335.829	80.015	19.995	103.831	20.073	2.233	0.475
505.500	336.615	80.017	19.997	103.827	20.074	2.150	0.520
507.000	337.406	80.023	19.990	103.844	20.072	2.335	0.512
508.500	338.118	80.015	19.993	103.854	20.078	1.854	0.485
510.000	338.905	80.019	19.995	103.841	20.078	1.864	0.510
511.500	339.643	80.013	19.996	103.843	20.077	1.981	0.499
513.000	340.421	80.008	19.992	103.845	20.072	2.324	0.516
514.500	341.177	80.015	19.993	103.842	20.076	2.055	0.512
516.000	341.894	80.021	19.990	103.829	20.075	2.093	0.499
517.500	342.642	80.011	20.000	103.834	20.076	2.022	0.490
519.000	343.413	80.015	19.994	103.823	20.076	2.050	0.509
520.500	344.172	80.014	19.991	103.828	20.068	2.637	0.490
522.000	344.920	80.017	19.995	103.829	20.077	1.930	0.523
523.500	345.691	80.014	19.989	103.835	20.076	2.012	0.517
525.000	346.483	80.014	19.993	103.831	20.069	2.526	0.502
526.500	347.221	80.016	19.992	103.843	20.072	2.318	0.495
528.000	347.930	80.014	20.002	103.850	20.076	2.051	0.463
529.500	348.681	80.013	19.991	103.845	20.070	2.432	0.501
531.000	349.462	80.010	19.997	103.854	20.072	2.296	0.531
532.500	350.183	80.011	19.995	103.857	20.072	2.320	0.472
534.000	350.978	80.024	19.990	103.841	20.064	2.854	0.499
535.500	351.711	80.008	19.993	103.832	20.065	2.795	0.487
537.000	352.456	80.008	19.997	103.829	20.065	2.832	0.525
538.500	353.225	80.004	19.994	103.827	20.070	2.452	0.514
540.000	353.961	80.009	19.993	103.839	20.066	2.779	0.491
541.500	354.744	80.010	19.995	103.854	20.070	2.446	0.521
543.000	355.499	80.008	19.996	103.855	20.068	2.604	0.486
544.500	356.236	80.011	19.993	103.842	20.067	2.643	0.502
546.000	357.018	80.014	19.992	103.833	20.066	2.724	0.504
547.500	357.771	80.013	19.992	103.839	20.066	2.726	0.508
549.000	358.518	80.018	19.993	103.846	20.064	2.890	0.486
550.500	359.220	80.005	19.997	103.845	20.062	3.002	0.479
552.000	359.989	80.020	19.992	103.846	20.065	2.783	0.502
553.500	360.756	80.009	19.995	103.851	20.062	3.000	0.518
555.000	361.462	80.008	19.993	103.845	20.068	2.620	0.469
556.500	362.236	80.013	19.993	103.830	20.063	2.973	0.541
558.000	362.959	80.017	19.996	103.840	20.062	3.000	0.480
559.500	363.747	80.014	19.993	103.847	20.061	3.126	0.525
561.000	364.524	80.013	19.992	103.843	20.065	2.805	0.483
562.500	365.278	80.015	19.991	103.837	20.053	3.645	0.530
564.000	365.999	80.016	19.994	103.837	20.054	3.592	0.479
565.500	366.752	79.999	19.996	103.852	20.053	3.639	0.489
567.000	367.545	80.016	19.994	103.861	20.054	3.623	0.545
568.500	368.292	80.005	19.996	103.865	20.051	3.845	0.495
570.000	369.062	80.010	19.995	103.862	20.052	3.741	0.499
571.500	369.828	80.020	19.993	103.864	20.045	4.267	0.494
573.000	370.618	80.019	19.995	103.865	20.042	4.453	0.508
574.500	371.375	80.015	19.994	103.861	20.045	4.249	0.509
576.000	372.108	80.014	19.996	103.859	20.040	4.590	0.490
577.500	372.839	80.011	19.989	103.856	20.043	4.412	0.499
579.000	373.627	80.014	19.992	103.849	20.036	4.874	0.507
580.500	374.367	80.010	19.990	103.840	20.026	5.604	0.494
582.000	375.099	80.014	19.996	103.844	20.026	5.630	0.480
583.500	375.860	80.021	19.992	103.854	20.026	5.628	0.504
585.000	376.625	80.004	20.000	103.807	20.019	6.121	0.515
586.500	377.390	80.006	19.998	103.803	20.022	5.896	0.493
588.000	378.148	80.016	19.991	103.913	20.019	6.097	0.501
589.500	378.888	80.012	19.994	103.912	20.006	7.000	0.497
591.000	379.697	80.016	19.993	103.859	20.002	7.340	0.531
592.500	380.423	80.013	19.992	103.862	19.993	7.929	0.470
594.000	381.169	80.013	19.995	103.863	19.994	7.879	0.479
595.500	381.969	80.016	19.998	103.858	19.986	8.426	0.533
597.000	382.722	80.009	19.991	103.857	19.980	8.854	0.523
598.500	383.465	80.012	19.995	103.862	19.970	9.576	0.494
600.000	384.246	80.018	19.996	103.862	19.972	9.491	0.506
601.500	385.047	80.013	19.995	103.867	19.959	10.377	0.521
603.000	385.763	80.014	19.992	103.871	19.958	10.470	0.460
604.500	386.540	80.017	19.994	103.878	19.944	11.486	0.532
606.000	387.291	80.007	19.989	103.893	19.942	11.608	0.517
607.500	388.072	80.013	19.992	103.896	19.935	12.070	0.524
609.000	388.806	80.013	19.991	103.895	19.926	12.765	0.483
610.500	389.561	80.013	19.990	103.897	19.911	13.809	0.520
612.000	390.366	80.015	19.994	103.902	19.908	14.003	0.540
613.500	391.161	80.019	19.990	103.908	19.895	14.977	0.543
615.000	391.892	80.013	19.993	103.905	19.880	16.022	0.497
616.500	392.696	80.014	19.993	103.905	19.870	16.730	0.531
618.000	393.502	80.012	19.995	103.907	19.863	17.222	0.535
619.500	394.302	80.018	19.992	103.911	19.851	18.103	0.554
621.000	395.051	80.017	19.991	103.929	19.838	19.048	0.516
622.500	395.830	80.011	19.993	103.932	19.825	19.947	0.499
624.000	396.639	80.010	19.991	103.920	19.816	20.588	0.540
625.500	397.380	80.010	19.994	103.933	19.803	21.542	0.491
627.000	398.176	80.010	20.001	103.944	19.785	22.836	0.559
628.500	398.960	80.012	19.993	103.948	19.774	23.585	0.519
630.000	399.738	80.011	20.001	103.952	19.748	25.491	0.512
631.500	400.541	80.014	19.986	103.972	19.735	26.403	0.542
633.000	401.247	80.015	19.997	103.980	19.718	27.593	0.483
634.500	402.016	80.017	19.986	103.977	19.699	29.018	0.502
636.000	402.752	80.017	19.992	103.988	19.676	30.623	0.486
637.500	403.531	80.007	19.989	103.992	19.655	32.168	0.517
639.000	404.305	80.012	19.992	103.989	19.630	33.915	0.490
640.500	405.084	80.010	19.995	103.997	19.613	35.173	0.538
642.000	405.857	80.008	19.999	104.007	19.583	37.247	0.507
643.500	406.582	80.007	19.998	104.021	19.553	39.385	0.479
645.000	407.366	80.010	19.993	104.033	19.523	41.565	0.519
646.500	408.085	80.013	19.995	104.062	19.470	45.361	0.494
648.000	408.940	80.012	19.991	104.085	19.410	49.712	0.584
649.500	409.672	80.010	19.993	104.127	19.367	52.829	0.501
651.000	410.466	80.009	19.993	104.105	19.338	54.917	0.517
652.500	411.223	80.015	19.993	104.050	19.319	56.225	0.529
654.000	412.041	80.014	19.991	104.009	19.298	57.764	0.526
655.500	412.817	80.012	19.992	104.015	19.274	59.477	0.495
657.000	413.605	80.014	19.992	104.057	19.255	60.880	0.533
658.500	414.361	80.012	19.993	104.168	19.231	62.544	0.521
660.000	415.165	80.013	19.993	104.235	19.203	64.605	0.529
661.500	415.908	80.015	19.993	104.232	19.169	67.049	0.475
663.000	416.678	80.012	19.992	104.213	19.133	69.620	0.492
664.500	417.475	80.015	19.993	104.207	19.093	72.498	0.530
666.000	418.286	80.015	19.993	104.218	19.054	75.299	0.530
667.500	419.033	80.013	19.994	104.244	19.009	78.576	0.495
669.000	419.836	80.012	19.994	104.253	18.963	81.839	0.544
670.500	420.584	80.013	19.991	104.254	18.917	85.182	0.515
672.000	421.356	80.013	19.994	104.275	18.862	89.195	0.517
673.500	422.133	80.012	19.994	104.298	18.806	93.223	0.491
675.000	422.867	80.015	19.994	104.323	18.753	97.032	0.484
676.500	423.651	80.009	19.994	104.335	18.692	101.390	0.501
678.000	424.469	80.011	19.992	104.346	18.637	105.393	0.555
679.500	425.180	80.014	19.993	104.366	18.575	109.898	0.498
681.000	425.954	80.011	19.991	104.381	18.521	113.803	0.517
682.500	426.769	80.013	19.994	104.412	18.460	118.169	0.564
684.000	427.466	80.013	19.993	104.434	18.415	121.436	0.473
685.500	428.256	80.007	19.997	104.443	18.356	125.669	0.527
687.000	429.015	80.015	19.995	104.470	18.300	129.732	0.514
688.500	429.750	80.016	19.998	104.519	18.229	134.955	0.509
690.000	430.569	80.020	19.991	104.542	18.162	139.797	0.536
691.500	431.287	80.015	19.994	104.573	18.104	143.968	0.484
693.000	432.034	80.014	19.993	104.583	18.045	148.163	0.501
694.500	432.751	80.018	19.994	104.583	18.006	150.924	0.484
696.000	433.527	80.017	19.992	104.583	17.948	154.991	0.508
697.500	434.258	80.015	19.994	104.604	17.873	160.497	0.489
699.000	435.037	80.012	19.993	104.666	17.791	166.586	0.525
700.500	435.810	80.011	19.993	104.737	17.722	171.616	0.516
702.000	436.550	80.015	19.995	104.735	17.677	174.791	0.486
703.500	437.312	80.009	19.997	104.709	17.641	177.400	0.522
705.000	438.082	80.008	19.998	104.667	17.613	179.406	0.512
706.500	438.821	80.012	19.996	104.609	17.587	181.334	0.521
708.000	439.617	80.015	19.993	104.624	17.572	182.399	0.521
709.500	440.398	80.008	19.994	104.738	17.560	183.185	0.535
711.000	441.097	80.010	19.995	104.806	17.546	184.228	0.472
712.500	441.854	80.011	19.996	104.804	17.534	185.074	0.484
714.000	442.611	80.015	19.994	104.795	17.522	185.945	0.472
715.500	443.408	80.014	19.994	104.793	17.513	186.528	0.523
717.000	444.122	80.013	19.992	104.795	17.514	186.425	0.479
718.500	444.915	80.017	19.993	104.792	17.513	186.521	0.538
720.000	445.684	80.014	19.990	104.771	17.521	185.891	0.503
721.500	446.406	80.011	19.993	104.766	17.533	184.952	0.491
723.000	447.158	80.012	19.994	104.767	17.556	183.280	0.502
724.500	447.942	80.013	19.993	104.759	17.580	181.529	0.512
726.000	448.711	80.015	19.991	104.749	17.616	178.881	0.507
727.500	449.456	80.012	19.993	104.730	17.647	176.633	0.525
729.000	450.160	80.006	19.993	104.721	17.700	172.785	0.489
730.500	450.908	80.011	19.994	104.699	17.757	168.592	0.506
732.000	451.633	80.014	19.993	104.673	17.813	164.567	0.480
733.500	452.419	80.011	19.993	104.651	17.870	160.432	0.532
735.000	453.187	80.011	19.993	104.642	17.941	155.274	0.493
736.500	453.916	80.011	19.993	104.621	18.009	150.325	0.483
738.000	454.656	80.013	19.993	104.593	18.086	144.763	0.510
739.500	455.441	80.012	19.994	104.558	18.166	139.001	0.536
741.000	456.159	80.013	19.992	104.527	18.249	132.986	0.501
742.500	456.965	80.013	19.993	104.507	18.331	127.096	0.544
744.000	457.708	80.015	19.995	104.479	18.424	120.395	0.497
745.500	458.492	80.012	19.993	104.441	18.523	113.282	0.506
747.000	459.243	80.015	19.993	104.416	18.622	106.173	0.488
748.500	459.974	80.012	19.991	104.388	18.723	98.921	0.514
750.000	460.760	80.015	19.992	104.351	18.822	91.808	0.518
751.500	461.503	80.014	19.995	104.328	18.917	84.968	0.488
753.000	462.241	80.016	19.991	104.305	19.005	78.669	0.509
754.500	462.968	80.014	19.992	104.280	19.088	72.750	0.493
756.000	463.715	80.014	19.993	104.260	19.163	67.344	0.486
757.500	464.451	80.014	19.993	104.230	19.238	61.974	0.490
759.000	465.227	80.014	19.993	104.199	19.301	57.422	0.537
760.500	465.980	80.012	19.993	104.177	19.362	53.073	0.520
762.000	466.725	80.015	19.994	104.155	19.423	48.745	0.509
763.500	467.515	80.012	19.994	104.126	19.468	45.514	0.491
765.000	468.270	80.015	19.994	104.103	19.515	42.141	0.502
766.500	469.050	80.014	19.993	104.087	19.558	39.087	0.503
768.000	469.824	80.015	19.993	104.064	19.601	35.948	0.541
769.500	470.632	80.015	19.992	104.055	19.640	33.166	0.546
771.000	471.378	80.015	19.994	104.052	19.667	31.280	0.531
772.500	472.137	80.014	19.992	104.037	19.697	29.147	0.504
774.000	472.922	80.015	19.993	104.017	19.722	27.304	0.504
775.500	473.708	80.014	19.993	104.009	19.749	25.405	0.536
777.000	474.512	80.014	19.994	103.993	19.769	23.988	0.527
778.500	475.292	80.014	19.994	103.980	19.795	22.128	0.520
780.000	476.088	80.014	19.992	103.981	19.819	20.377	0.524
781.500	476.829	80.014	19.993	103.972	19.833	19.357	0.494
783.000	477.615	80.011	19.996	103.967	19.854	17.875	0.519
784.500	478.386	80.011	19.994	103.970	19.869	16.821	0.508
786.000	479.164	80.012	19.993	103.952	19.886	15.588	0.504
787.500	479.928	80.014	19.993	103.948	19.895	14.947	0.501
789.000	480.687	80.013	19.994	103.951	19.908	14.021	0.506
790.500	481.474	80.011	19.996	103.943	19.919	13.244	0.531
792.000	482.303	80.012	19.994	103.942	19.923	12.992	0.563
793.500	483.074	80.009	19.993	103.929	19.943	11.559	0.510
795.000	483.830	80.011	19.994	103.924	19.953	10.835	0.526
796.500	484.609	80.012	19.994	103.924	19.959	10.361	0.509
798.000	485.424	80.013	19.994	103.911	19.973	9.359	0.537
799.500	486.203	80.011	19.995	103.912	19.969	9.675	0.500
801.000	486.944	80.012	19.994	103.914	19.980	8.911	0.499
802.500	487.714	80.012	19.994	103.911	19.987	8.364	0.519
804.000	488.506	80.011	19.994	103.912	19.991	8.137	0.546
805.500	489.282	80.011	19.993	103.909	19.993	7.967	0.511
807.000	490.085	80.014	19.994	103.902	19.993	7.931	0.562
808.500	490.843	80.012	19.994	103.901	19.998	7.605	0.515
810.000	491.668	80.012	19.993	103.902	20.003	7.248	0.510
811.500	492.394	80.010	19.994	103.897	20.003	7.274	0.453
813.000	493.179	80.013	19.992	103.885	20.012	6.598	0.548
814.500	493.990	80.012	19.994	103.896	20.012	6.614	0.561
816.000	494.781	80.009	19.992	103.900	20.021	5.970	0.519
817.500	495.574	80.011	19.993	103.895	20.015	6.372	0.557
819.000	496.317	80.011	19.994	103.880	20.020	6.049	0.488
820.500	497.050	80.011	19.994	103.881	20.020	5.999	0.507
822.000	497.865	80.014	19.993	103.885	20.027	5.563	0.549
823.500	498.662	80.013	19.994	103.895	20.031	5.268	0.528
825.000	499.359	80.013	19.992	103.898	20.027	5.500	0.477
826.500	500.178	80.014	19.994	103.879	20.032	5.202	0.545
828.000	500.948	80.015	19.994	103.865	20.030	5.332	0.516
829.500	501.738	80.015	19.994	103.870	20.038	4.753	0.524
831.000	502.477	80.014	19.993	103.876	20.035	4.928	0.494
832.500	503.246	80.013	19.993	103.871	20.039	4.654	0.560
834.000	504.010	80.013	19.994	103.864	20.037	4.812	0.511
835.500	504.787	80.013	19.995	103.863	20.041	4.512	0.517
837.000	505.529	80.014	19.994	103.861	20.040	4.589	0.510
838.500	506.296	80.014	19.993	103.861	20.043	4.357	0.510
840.000	507.058	80.014	19.994	103.863	20.047	4.122	0.521
841.500	507.849	80.013	19.992	103.865	20.042	4.445	0.514
843.000	508.628	80.014	19.993	103.860	20.046	4.185	0.528
844.500	509.392	80.012	19.993	103.861	20.047	4.100	0.516
846.000	510.164	80.014	19.994	103.861	20.045	4.258	0.505
847.500	510.918	80.014	19.994	103.859	20.051	3.809	0.517
849.000	511.670	80.015	19.994	103.859	20.048	3.996	0.506
850.500	512.457	80.014	19.993	103.860	20.048	4.026	0.519
852.000	513.231	80.016	19.992	103.859	20.047	4.134	0.524
853.500	514.018	80.014	19.992	103.863	20.042	4.455	0.521
855.000	514.801	80.015	19.992	103.864	20.045	4.268	0.493
856.500	515.624	80.015	19.992	103.861	20.047	4.098	0.557
858.000	516.363	80.016	19.992	103.861	20.049	3.955	0.479
859.500	517.145	80.015	19.992	103.864	20.050	3.856	0.515
861.000	517.954	80.014	19.994	103.868	20.048	4.055	0.532
862.500	518.685	80.012	19.994	103.865	20.046	4.139	0.476
864.000	519.479	80.012	19.994	103.854	20.052	3.761	0.521
865.500	520.309	80.011	19.994	103.852	20.050	3.854	0.540
867.000	521.024	80.014	19.995	103.862	20.048	4.023	0.496
868.500	521.792	80.014	19.994	103.864	20.046	4.165	0.515
870.000	522.584	80.013	19.995	103.863	20.047	4.090	0.548
871.500	523.349	80.013	19.995	103.862	20.042	4.481	0.519
873.000	524.127	80.012	19.994	103.857	20.048	4.012	0.539
874.500	524.898	80.013	19.994	103.852	20.046	4.191	0.495
876.000	525.607	80.011	19.993	103.858	20.042	4.465	0.474
877.500	526.411	80.011	19.993	103.853	20.048	4.050	0.521
879.000	527.223	80.012	19.993	103.854	20.045	4.216	0.512
880.500	527.968	80.012	19.993	103.857	20.046	4.141	0.484
882.000	528.716	80.013	19.994	103.858	20.046	4.193	0.484
883.500	529.498	80.013	19.993	103.865	20.050	3.922	0.512
885.000	530.251	80.014	19.994	103.863	20.047	4.116	0.489
886.500	531.064	80.013	19.993	103.860	20.046	4.155	0.534
888.000	531.779	80.013	19.995	103.843	20.045	4.236	0.467
889.500	532.569	80.012	19.994	103.834	20.042	4.469	0.529
891.000	533.333	80.012	19.995	103.842	20.041	4.557	0.516
892.500	534.098	80.011	19.995	103.855	20.045	4.232	0.507
894.000	534.883	80.012	19.994	103.840	20.042	4.433	0.516
895.500	535.665	80.012	19.994	103.844	20.046	4.167	0.537
897.000	536.418	80.011	19.995	103.857	20.043	4.411	0.483
898.500	537.196	80.011	19.995	103.856	20.042	4.457	0.509
900.000	537.974	80.012	19.995	103.857	20.042	4.447	0.510
901.500	538.666	80.012	19.994	103.855	20.041	4.502	0.486
903.000	539.473	80.013	19.994	103.851	20.044	4.301	0.520
904.500	540.207	80.012	19.995	103.853	20.045	4.256	0.470
906.000	540.982	80.014	19.994	103.856	20.046	4.169	0.517
907.500	541.740	80.012	19.995	103.850	20.048	4.015	0.505
909.000	542.517	80.014	19.993	103.850	20.050	3.914	0.518
910.500	543.279	80.014	19.993	103.851	20.048	4.037	0.535
912.000	544.053	80.015	19.993	103.852	20.044	4.321	0.509
913.500	544.793	80.014	19.994	103.848	20.043	4.357	0.486
915.000	545.558	80.015	19.993	103.855	20.045	4.211	0.500
916.500	546.364	80.014	19.994	103.856	20.046	4.168	0.538
918.000	547.096	80.014	19.992	103.850	20.048	4.049	0.508
919.500	547.909	80.014	19.993	103.850	20.049	3.994	0.534
921.000	548.674	80.013	19.994	103.841	20.045	4.240	0.506
922.500	549.439	80.013	19.993	103.855	20.044	4.341	0.514
924.000	550.218	80.012	19.992	103.861	20.045	4.262	0.536
925.500	550.987	80.014	19.994	103.860	20.045	4.213	0.517
927.000	551.719	80.013	19.993	103.864	20.045	4.258	0.480
928.500	552.490	80.014	19.994	103.865	20.047	4.136	0.505
930.000	553.251	80.014	19.993	103.859	20.048	4.031	0.514
931.500	554.021	80.014	19.993	103.864	20.046	4.167	0.510
933.000	554.814	80.013	19.993	103.866	20.050	3.889	0.536
934.500	555.601	80.015	19.993	103.863	20.045	4.277	0.537
936.000	556.323	80.016	19.994	103.859	20.046	4.179	0.483
937.500	557.098	80.014	19.993	103.863	20.042	4.465	0.506
939.000	557.886	80.015	19.993	103.867	20.041	4.522	0.509
940.500	558.606	80.016	19.993	103.855	20.044	4.284	0.480
942.000	559.395	80.013	19.993	103.851	20.042	4.423	0.524
943.500	560.139	80.013	19.993	103.863	20.045	4.260	0.509
945.000	560.928	80.014	19.993	103.854	20.043	4.380	0.514
946.500	561.705	80.013	19.993	103.857	20.040	4.623	0.509
948.000	562.468	80.013	19.993	103.864	20.039	4.700	0.537
949.500	563.189	80.013	19.993	103.853	20.041	4.510	0.472
951.000	563.981	80.013	19.992	103.855	20.038	4.776	0.519
952.500	564.744	80.013	19.994	103.854	20.040	4.632	0.524
954.000	565.516	80.012	19.993	103.854	20.040	4.597	0.516
955.500	566.254	80.013	19.994	103.859	20.041	4.559	0.488
957.000	567.057	80.012	19.992	103.863	20.036	4.852	0.512
958.500	567.758	80.012	19.993	103.861	20.037	4.829	0.501
960.000	568.554	80.012	19.993	103.861	20.039	4.689	0.519
961.500	569.248	80.013	19.994	103.854	20.040	4.587	0.448
963.000	570.000	80.012	19.994	103.849	20.040	4.585	0.493
964.500	570.765	80.012	19.994	103.856	20.038	4.725	0.508
966.000	571.555	80.014	19.994	103.856	20.036	4.905	0.533
967.500	572.336	80.012	19.995	103.847	20.038	4.738	0.489
969.000	573.136	80.013	19.994	103.848	20.035	4.946	0.543
970.500	573.894	80.013	19.995	103.848	20.032	5.188	0.528
972.000	574.675	80.014	19.994	103.844	20.031	5.222	0.528
973.500	575.439	80.013	19.993	103.853	20.035	4.973	0.515
975.000	576.222	80.013	19.993	103.857	20.034	5.013	0.533
976.500	576.983	80.012	19.993	103.841	20.032	5.190	0.504
978.000	577.746	80.012	19.994	103.841	20.027	5.523	0.486
979.500	578.505	80.012	19.995	103.856	20.035	4.991	0.508
981.000	579.289	80.012	19.994	103.861	20.033	5.119	0.534
982.500	580.003	80.012	19.994	103.856	20.033	5.074	0.472
984.000	580.747	80.011	19.993	103.856	20.032	5.156	0.479
985.500	581.518	80.012	19.994	103.854	20.035	4.933	0.527
987.000	582.288	80.014	19.995	103.852	20.033	5.121	0.510
988.500	583.094	80.013	19.994	103.861	20.029	5.379	0.531
990.000	583.850	80.013	19.994	103.847	20.029	5.389	0.516
991.500	584.548	80.012	19.993	103.851	20.028	5.448	0.500
993.000	585.419	80.012	19.995	103.860	20.030	5.292	0.580
994.500	586.099	80.014	19.995	103.859	20.027	5.546	0.465
996.000	586.898	80.013	19.995	103.847	20.029	5.417	0.512
997.500	587.669	80.013	19.994	103.848	20.029	5.408	0.529
999.000	588.384	80.011	19.993	103.855	20.025	5.684	0.460
1000.500	589.138	80.012	19.994	103.849	20.026	5.565	0.494
1002.000	589.908	80.012	19.994	103.849	20.024	5.727	0.530
1003.500	590.634	80.013	19.994	103.844	20.024	5.747	0.470
1005.000	591.370	80.012	19.994	103.846	20.024	5.745	0.512
1006.500	592.112	80.014	19.994	103.834	20.025	5.684	0.473
1008.000	592.894	80.013	19.993	103.828	20.025	5.656	0.523
1009.500	593.661	80.014	19.991	103.833	20.029	5.390	0.528
1011.000	594.412	80.013	19.993	103.831	20.029	5.417	0.483
1012.500	595.187	80.013	19.993	103.833	20.031	5.254	0.510
1014.000	595.956	80.013	19.993	103.836	20.028	5.461	0.512
1015.500	596.707	80.014	19.993	103.829	20.027	5.524	0.506
1017.000	597.424	80.016	19.993	103.833	20.028	5.431	0.467
1018.500	598.207	80.017	19.992	103.824	20.026	5.606	0.522
1020.000	598.948	80.015	19.992	103.822	20.026	5.620	0.490
1021.500	599.696	80.016	19.993	103.827	20.027	5.524	0.513
1023.000	600.492	80.016	19.992	103.830	20.028	5.478	0.523
1024.499	601.200	80.015	19.992	103.828	20.025	5.695	0.504
1025.999	602.011	80.014	19.993	103.824	20.020	6.046	0.547
1027.499	602.758	80.014	19.994	103.824	20.023	5.808	0.504
1028.999	603.520	80.013	19.993	103.823	20.020	6.032	0.533
1030.499	604.240	80.013	19.993	103.822	20.022	5.876	0.496
1031.999	605.036	80.014	19.994	103.823	20.023	5.809	0.519
1033.499	605.776	80.013	19.993	103.824	20.023	5.778	0.491
1035.000	606.534	80.012	19.993	103.822	20.028	5.425	0.490
1036.499	607.309	80.013	19.994	103.828	20.028	5.453	0.507
1037.999	608.110	80.013	19.993	103.830	20.030	5.323	0.526
1039.499	608.856	80.013	19.994	103.825	20.029	5.378	0.517
1040.999	609.613	80.012	19.993	103.825	20.030	5.299	0.494
1042.501	610.363	80.012	19.994	103.823	20.030	5.301	0.504
1044.000	611.150	80.013	19.993	103.825	20.027	5.526	0.539
1045.500	611.966	80.013	19.992	103.829	20.026	5.605	0.538
1046.999	612.773	80.013	19.993	103.826	20.025	5.654	0.522
1048.499	613.572	80.013	19.994	103.830	20.023	5.803	0.526
1049.999	614.356	80.013	19.993	103.824	20.025	5.646	0.544
1051.499	615.147	80.013	19.993	103.830	20.022	5.853	0.555
1052.999	615.893	80.012	19.994	103.825	20.024	5.764	0.512
1054.499	616.712	80.012	19.993	103.825	20.024	5.776	0.527
1055.999	617.451	80.013	19.993	103.828	20.023	5.825	0.489
1057.499	618.215	80.012	19.994	103.827	20.026	5.595	0.529
1058.999	618.980	80.012	19.994	103.822	20.028	5.463	0.507
1060.500	619.742	80.013	19.993	103.822	20.027	5.520	0.506
1061.999	620.543	80.012	19.994	103.823	20.027	5.546	0.529
1063.499	621.314	80.012	19.993	103.821	20.029	5.384	0.512
1064.999	622.090	80.012	19.994	103.825	20.025	5.662	0.509
1066.499	622.875	80.012	19.995	103.827	20.028	5.453	0.539
1067.999	623.632	80.012	19.994	103.827	20.030	5.313	0.504
1069.500	624.390	80.012	19.994	103.826	20.030	5.327	0.515
1070.999	625.173	80.013	19.993	103.825	20.030	5.319	0.513
1072.500	625.945	80.013	19.994	103.832	20.032	5.187	0.497
1074.001	626.764	80.014	19.993	103.834	20.028	5.453	0.539
1075.500	627.485	80.013	19.994	103.825	20.030	5.322	0.488
1077.000	628.268	80.013	19.993	103.825	20.027	5.510	0.532
1078.500	629.002	80.014	19.994	103.826	20.028	5.464	0.493
1079.999	629.810	80.013	19.994	103.825	20.031	5.265	0.555
1081.501	630.604	80.015	19.992	103.826	20.030	5.314	0.540
1082.999	631.391	80.013	19.993	103.825	20.033	5.090	0.531
1084.499	632.153	80.013	19.994	103.825	20.038	4.711	0.501
1085.999	632.958	80.013	19.993	103.823	20.032	5.184	0.541
1087.499	633.725	80.012	19.994	103.823	20.033	5.088	0.531
1088.999	634.515	80.012	19.994	103.823	20.030	5.315	0.544
1090.499	635.282	80.013	19.994	103.821	20.034	5.054	0.501
1091.999	636.114	80.012	19.995	103.821	20.032	5.178	0.572
1093.499	636.917	80.013	19.995	103.820	20.029	5.366	0.542
1094.999	637.712	80.014	19.994	103.820	20.032	5.151	0.522
1096.499	638.496	80.014	19.994	103.819	20.034	5.053	0.525
1097.999	639.286	80.014	19.994	103.820	20.032	5.151	0.517
1099.499	640.093	80.016	19.994	103.820	20.030	5.300	0.541
1100.999	640.887	80.015	19.993	103.820	20.034	5.048	0.531
1102.500	641.709	80.017	19.993	103.819	20.036	4.912	0.567
1103.999	642.462	80.015	19.993	103.819	20.035	4.970	0.504
1105.499	643.218	80.015	19.993	103.821	20.037	4.792	0.506
1106.999	643.994	80.016	19.993	103.824	20.035	4.933	0.502
1108.501	644.838	80.014	19.994	103.828	20.035	4.983	0.557
1110.000	645.574	80.014	19.993	103.816	20.036	4.915	0.497
1111.499	646.336	80.012	19.993	103.817	20.034	5.005	0.496
1112.999	647.107	80.012	19.994	103.816	20.036	4.907	0.497
1114.499	647.909	80.013	19.994	103.819	20.033	5.068	0.538
1115.999	648.730	80.013	19.993	103.814	20.034	5.045	0.548
1117.499	649.408	80.013	19.993	103.801	20.034	5.029	0.441
1118.999	650.229	80.013	19.994	103.800	20.036	4.851	0.546
1120.499	651.003	80.012	19.993	103.817	20.035	4.936	0.528
1121.999	651.783	80.012	19.993	103.819	20.035	4.940	0.512
1123.499	652.553	80.012	19.993	103.815	20.036	4.909	0.549
1124.999	653.306	80.012	19.993	103.821	20.036	4.879	0.509
1126.499	654.049	80.013	19.994	103.824	20.041	4.507	0.479
1127.999	654.892	80.012	19.993	103.824	20.035	4.938	0.555
1129.499	655.627	80.012	19.994	103.817	20.037	4.846	0.500
1130.999	656.396	80.013	19.995	103.815	20.038	4.723	0.511
1132.499	657.155	80.013	19.993	103.822	20.039	4.637	0.508
1133.999	657.978	80.013	19.993	103.821	20.037	4.814	0.554
1135.499	658.775	80.012	19.994	103.823	20.038	4.765	0.519
1136.999	659.573	80.015	19.993	103.823	20.037	4.842	0.515
1138.500	660.356	80.012	19.993	103.814	20.038	4.727	0.526
1140.000	661.155	80.012	19.993	103.818	20.040	4.631	0.531
1141.499	661.930	80.013	19.993	103.822	20.036	4.889	0.517
1142.999	662.754	80.010	19.993	103.827	20.042	4.479	0.513
1144.499	663.522	80.012	19.993	103.830	20.036	4.871	0.529
1145.999	664.348	80.014	19.993	103.829	20.039	4.643	0.525
1147.499	665.119	80.012	19.994	103.826	20.038	4.771	0.495
1148.999	665.894	80.012	19.993	103.822	20.038	4.717	0.498
1150.500	666.647	80.013	19.993	103.816	20.038	4.745	0.504
1151.999	667.481	80.012	19.993	103.820	20.036	4.865	0.561
1153.500	668.244	80.014	19.993	103.822	20.037	4.845	0.532
1155.000	669.050	80.013	19.994	103.821	20.034	5.013	0.517
1156.500	669.861	80.014	19.993	103.822	20.038	4.733	0.551
1157.999	670.623	80.014	19.994	103.819	20.039	4.674	0.514
1159.499	671.420	80.015	19.994	103.815	20.040	4.616	0.530
1160.999	672.189	80.014	19.994	103.813	20.038	4.706	0.519
1162.499	672.995	80.015	19.994	103.820	20.038	4.707	0.537
1164.000	673.801	80.014	19.993	103.819	20.039	4.678	0.545
1165.500	674.610	80.013	19.993	103.814	20.035	4.946	0.531
1166.999	675.410	80.014	19.994	103.817	20.040	4.575	0.507
1168.499	676.184	80.014	19.993	103.816	20.036	4.902	0.489
1169.999	676.940	80.014	19.993	103.807	20.038	4.740	0.537
1171.499	677.738	80.014	19.993	103.794	20.040	4.604	0.550
1172.999	678.524	80.014	19.994	103.797	20.039	4.636	0.519
1174.499	679.292	80.014	19.994	103.808	20.036	4.857	0.523
1175.999	680.059	80.013	19.994	103.815	20.034	5.045	0.543
1177.499	680.872	80.013	19.994	103.811	20.039	4.665	0.546
1178.999	681.651	80.013	19.994	103.812	20.038	4.739	0.521
1180.499	682.406	80.015	19.995	103.803	20.037	4.800	0.493
1181.999	683.199	80.015	19.994	103.795	20.036	4.861	0.511
1183.500	683.926	80.014	19.994	103.799	20.037	4.796	0.455
1184.999	684.683	80.015	19.993	103.808	20.033	5.075	0.524
1186.499	685.467	80.015	19.994	103.803	20.036	4.912	0.536
1187.999	686.203	80.015	19.994	103.799	20.036	4.871	0.492
1189.499	686.973	80.015	19.994	103.812	20.038	4.761	0.481
1191.000	687.755	80.014	19.995	103.818	20.037	4.806	0.522
1192.499	688.556	80.013	19.995	103.816	20.038	4.774	0.529
1193.999	689.280	80.012	19.994	103.808	20.034	4.992	0.498
1195.499	689.970	80.011	19.995	103.804	20.037	4.833	0.449
1196.999	690.749	80.014	19.994	103.810	20.037	4.842	0.487
1198.499	691.496	80.014	19.993	103.808	20.038	4.771	0.467
1199.999	692.267	80.013	19.994	103.817	20.037	4.781	0.502
1201.499	692.989	80.012	19.994	103.813	20.040	4.630	0.498
1202.999	693.726	80.013	19.993	103.801	20.035	4.930	0.480
1204.500	694.497	80.012	19.993	103.800	20.035	4.969	0.486
1205.999	695.266	80.012	19.993	103.802	20.035	4.973	0.489
1207.499	695.975	80.013	19.993	103.821	20.038	4.714	0.458
1208.999	696.691	80.014	19.993	103.826	20.037	4.837	0.478
1210.499	697.449	80.013	19.992	103.826	20.038	4.745	0.494
1211.999	698.214	80.013	19.993	103.812	20.040	4.567	0.504
1213.500	698.937	80.012	19.992	103.804	20.041	4.503	0.506
1215.000	699.645	80.014	19.993	103.811	20.044	4.345	0.467
1216.499	700.398	80.012	19.992	103.817	20.039	4.669	0.505
1217.999	701.111	80.012	19.993	103.804	20.043	4.392	0.484
1219.499	701.794	80.013	19.993	103.796	20.043	4.406	0.464
1220.999	702.543	80.012	19.993	103.814	20.040	4.616	0.484
1222.499	703.299	80.014	19.994	103.814	20.038	4.734	0.486
1223.999	704.010	80.012	19.993	103.814	20.041	4.528	0.480
1225.499	704.766	80.012	19.994	103.815	20.042	4.433	0.514
1226.999	705.472	80.013	19.995	103.801	20.039	4.703	0.456
1228.501	706.177	80.013	19.995	103.813	20.034	4.992	0.471
1229.999	706.912	80.012	19.994	103.817	20.037	4.819	0.468
1231.499	707.617	80.013	19.994	103.806	20.037	4.846	0.485
1232.999	708.373	80.012	19.993	103.800	20.040	4.624	0.494
1234.499	709.082	80.013	19.993	103.806	20.038	4.708	0.470
1235.999	709.819	80.014	19.993	103.803	20.034	5.034	0.506
1237.499	710.535	80.013	19.993	103.796	20.037	4.812	0.479
1239.000	711.266	80.014	19.993	103.802	20.037	4.821	0.501
1240.499	712.056	80.014	19.993	103.798	20.036	4.864	0.496
1241.999	712.720	80.015	19.992	103.795	20.037	4.802	0.466
1243.499	713.509	80.015	19.992	103.800	20.034	5.005	0.500
1244.999	714.237	80.016	19.993	103.798	20.034	5.028	0.487
1246.499	715.051	80.015	19.993	103.796	20.036	4.864	0.535
1247.999	715.759	80.014	19.993	103.810	20.035	4.944	0.483
1249.499	716.538	80.014	19.993	103.807	20.036	4.849	0.521
1250.999	717.238	80.015	19.994	103.797	20.034	5.028	0.463
1252.499	718.008	80.014	19.993	103.802	20.033	5.103	0.490
1253.999	718.734	80.014	19.993	103.814	20.035	4.926	0.492
1255.499	719.519	80.013	19.994	103.806	20.037	4.831	0.510
1257.000	720.245	80.013	19.994	103.801	20.036	4.879	0.477
1258.499	721.012	80.012	19.995	103.812	20.036	4.857	0.524
1259.999	721.809	80.014	19.994	103.818	20.032	5.164	0.542
1261.501	722.514	80.013	19.994	103.815	20.033	5.081	0.465
1262.999	723.304	80.014	19.993	103.810	20.035	4.987	0.524
1264.499	724.080	80.015	19.995	103.800	20.033	5.127	0.507
1265.999	724.791	80.014	19.994	103.810	20.032	5.186	0.480
1267.499	725.622	80.016	19.993	103.815	20.031	5.206	0.581
1268.999	726.376	80.015	19.993	103.808	20.031	5.218	0.499
1270.499	727.156	80.017	19.994	103.814	20.027	5.546	0.519
1272.000	727.911	80.014	19.993	103.811	20.031	5.241	0.513
1273.500	728.684	80.015	19.993	103.813	20.032	5.184	0.506
1274.999	729.451	80.014	19.993	103.811	20.030	5.331	0.494
1276.499	730.251	80.012	19.994	103.815	20.033	5.082	0.521
1277.999	730.992	80.012	19.993	103.817	20.028	5.423	0.499
1279.500	731.830	80.011	19.993	103.814	20.029	5.357	0.559
1281.000	732.604	80.013	19.994	103.802	20.028	5.425	0.534
1282.500	733.357	80.012	19.994	103.804	20.031	5.209	0.494
1284.001	734.125	80.012	19.993	103.811	20.030	5.327	0.517
1285.499	734.919	80.012	19.995	103.801	20.032	5.150	0.528
1286.999	735.728	80.013	19.995	103.809	20.034	5.022	0.532
1288.499	736.504	80.012	19.995	103.815	20.031	5.241	0.516
1290.000	737.260	80.013	19.995	103.802	20.035	4.985	0.502
1291.499	738.044	80.011	19.994	103.793	20.037	4.788	0.523
1292.999	738.787	80.013	19.994	103.787	20.036	4.893	0.497
1294.500	739.559	80.012	19.994	103.792	20.035	4.920	0.542
1295.999	740.379	80.012	19.994	103.805	20.039	4.701	0.551
1297.499	741.201	80.013	19.994	103.807	20.037	4.811	0.554
1298.999	741.966	80.013	19.994	103.810	20.037	4.819	0.516
1300.499	742.746	80.013	19.994	103.819	20.038	4.756	0.526
1302.000	743.525	80.014	19.994	103.819	20.037	4.843	0.507