File: 01_Data/Feather_PillowA_Cover/MCC/Feather_PillowA_Cover_MCC_30K_min_220106_R2.txt
Sample ID:	C:\MCC\MCC Cal\Test\Feather_PillowA_Cover_MCC_30K_min_220106_R2.txt
Sample Weight (mg):	4.09
Heating Rate (C/s):	0.5
Combustor Temp (C):	900
N2 Flow Rate (cc/min):	80
O2 Flow Rate (cc/min):	20
Calibration File:	C:\MCC\MCC Cal\Coeff1 JN10440_30_210304.txt.txt
T Correction Coefficients:	0	1.024463	0
Time Shift (s):	14
*
Time (s)	Temperature (C)	N2 flow rate (cc/min)	O2 flow rate (cc/min)	Flow Rate (cc/min)	Oxygen (%)	HRR (W/g)	Heating rate (C/s)
0.000	111.897	80.008	19.994	104.220	20.061	-0.355	-0.018
2.000	111.922	80.008	19.994	104.219	20.060	-0.240	0.035
4.000	111.918	80.009	19.994	104.222	20.061	-0.390	-0.011
6.000	111.907	80.009	19.993	104.223	20.059	-0.198	-0.034
8.000	111.894	80.010	19.994	104.240	20.056	0.028	-0.009
10.000	111.883	80.010	19.993	104.257	20.052	0.329	-0.018
12.000	111.942	80.008	19.994	104.270	20.054	0.209	0.033
14.001	111.996	80.009	19.994	104.289	20.053	0.310	0.019
16.000	111.987	80.009	19.993	104.283	20.052	0.364	0.025
18.000	112.056	80.008	19.994	104.304	20.052	0.336	0.038
20.001	112.141	80.009	19.994	104.295	20.049	0.585	0.024
22.000	112.214	80.009	19.994	104.278	20.048	0.659	0.032
24.000	112.301	80.006	19.993	104.317	20.046	0.849	0.051
26.000	112.405	80.007	19.995	104.329	20.043	1.054	0.051
28.001	112.532	80.007	19.994	104.353	20.040	1.320	0.069
30.000	112.668	80.006	19.994	104.366	20.035	1.707	0.068
32.000	112.843	80.007	19.995	104.391	20.035	1.744	0.053
34.001	113.061	80.009	19.995	104.390	20.034	1.825	0.061
36.000	113.299	80.007	19.995	104.381	20.030	2.085	0.106
38.001	113.541	80.009	19.993	104.386	20.029	2.159	0.111
40.000	113.850	80.010	19.994	104.407	20.029	2.199	0.155
42.001	114.123	80.009	19.992	104.396	20.026	2.444	0.157
44.000	114.422	80.011	19.992	104.402	20.025	2.503	0.147
46.001	114.754	80.011	19.993	104.411	20.025	2.516	0.184
48.000	115.123	80.011	19.993	104.422	20.021	2.861	0.173
50.001	115.474	80.011	19.994	104.428	20.021	2.841	0.178
52.000	115.876	80.010	19.993	104.451	20.020	2.940	0.195
54.001	116.317	80.009	19.994	104.450	20.020	2.927	0.222
56.000	116.769	80.010	19.993	104.453	20.019	2.995	0.240
58.000	117.278	80.010	19.994	104.455	20.020	2.936	0.241
60.000	117.729	80.011	19.993	104.458	20.019	3.005	0.213
62.000	118.237	80.011	19.993	104.461	20.013	3.434	0.232
64.000	118.795	80.011	19.993	104.481	20.018	3.100	0.265
66.001	119.388	80.012	19.993	104.476	20.015	3.283	0.282
68.001	120.003	80.012	19.993	104.478	20.015	3.343	0.274
70.000	120.586	80.014	19.993	104.472	20.014	3.388	0.305
72.000	121.246	80.012	19.993	104.471	20.016	3.249	0.309
74.000	121.931	80.012	19.992	104.477	20.016	3.250	0.356
76.000	122.601	80.011	19.994	104.485	20.014	3.414	0.355
78.001	123.284	80.010	19.993	104.486	20.019	2.995	0.354
80.000	123.930	80.008	19.993	104.494	20.015	3.279	0.310
82.001	124.655	80.008	19.993	104.494	20.015	3.292	0.376
84.000	125.414	80.010	19.993	104.487	20.016	3.242	0.383
86.000	126.175	80.009	19.993	104.480	20.018	3.102	0.362
88.000	126.924	80.009	19.992	104.490	20.019	3.002	0.352
90.001	127.703	80.007	19.992	104.494	20.020	2.943	0.389
92.000	128.537	80.008	19.993	104.483	20.018	3.043	0.407
94.000	129.275	80.008	19.993	104.494	20.015	3.295	0.397
96.000	130.110	80.009	19.993	104.493	20.016	3.238	0.404
98.000	130.920	80.010	19.994	104.493	20.019	3.019	0.421
100.000	131.783	80.009	19.993	104.490	20.015	3.301	0.435
102.000	132.599	80.008	19.993	104.492	20.017	3.181	0.434
104.000	133.423	80.009	19.993	104.498	20.017	3.148	0.428
106.000	134.278	80.008	19.994	104.496	20.016	3.268	0.404
108.000	135.100	80.010	19.993	104.496	20.019	2.960	0.440
110.000	135.957	80.008	19.993	104.494	20.016	3.253	0.432
112.000	136.847	80.009	19.994	104.493	20.016	3.200	0.426
114.000	137.738	80.008	19.993	104.494	20.018	3.085	0.442
116.000	138.641	80.008	19.994	104.492	20.012	3.515	0.441
118.000	139.514	80.007	19.994	104.492	20.018	3.043	0.417
120.000	140.446	80.008	19.994	104.492	20.016	3.216	0.439
122.000	141.344	80.008	19.995	104.486	20.012	3.583	0.466
124.001	142.233	80.009	19.995	104.489	20.013	3.445	0.483
126.001	143.177	80.009	19.995	104.492	20.015	3.299	0.461
128.000	144.113	80.010	19.995	104.492	20.015	3.316	0.462
130.000	145.023	80.009	19.994	104.491	20.018	3.041	0.487
132.000	145.959	80.010	19.994	104.488	20.014	3.412	0.459
134.000	146.893	80.010	19.993	104.492	20.014	3.425	0.467
136.000	147.831	80.009	19.993	104.487	20.014	3.357	0.491
138.000	148.793	80.010	19.992	104.481	20.013	3.484	0.511
140.000	149.798	80.010	19.992	104.480	20.014	3.390	0.497
142.000	150.724	80.010	19.993	104.480	20.012	3.549	0.479
144.000	151.703	80.010	19.993	104.478	20.012	3.580	0.469
146.000	152.633	80.012	19.993	104.472	20.012	3.532	0.457
148.000	153.565	80.010	19.993	104.468	20.014	3.379	0.470
150.000	154.491	80.011	19.993	104.488	20.018	3.075	0.476
152.000	155.455	80.012	19.992	104.478	20.017	3.189	0.455
154.001	156.429	80.011	19.992	104.476	20.016	3.270	0.426
156.000	157.428	80.010	19.993	104.470	20.014	3.390	0.480
158.000	158.382	80.010	19.993	104.473	20.016	3.202	0.489
160.000	159.347	80.009	19.993	104.473	20.014	3.390	0.444
162.001	160.346	80.009	19.994	104.484	20.014	3.383	0.488
164.000	161.323	80.010	19.993	104.484	20.014	3.420	0.479
166.000	162.304	80.009	19.993	104.473	20.017	3.138	0.461
168.000	163.269	80.009	19.992	104.467	20.014	3.398	0.466
170.000	164.245	80.010	19.993	104.464	20.017	3.160	0.472
172.000	165.277	80.009	19.993	104.464	20.017	3.136	0.519
174.000	166.252	80.011	19.993	104.463	20.018	3.064	0.501
176.000	167.237	80.011	19.992	104.457	20.020	2.915	0.482
178.000	168.247	80.010	19.993	104.460	20.017	3.182	0.500
180.000	169.199	80.010	19.993	104.456	20.017	3.186	0.474
182.000	170.203	80.009	19.993	104.466	20.016	3.267	0.511
184.000	171.214	80.011	19.993	104.468	20.016	3.263	0.514
186.000	172.208	80.010	19.994	104.456	20.018	3.075	0.494
188.000	173.249	80.010	19.994	104.459	20.014	3.400	0.527
190.000	174.282	80.010	19.995	104.457	20.011	3.621	0.539
192.000	175.223	80.010	19.994	104.456	20.014	3.396	0.489
194.000	176.198	80.010	19.993	104.456	20.017	3.132	0.473
196.000	177.223	80.008	19.994	104.457	20.018	3.077	0.484
198.000	178.203	80.009	19.995	104.456	20.016	3.232	0.496
200.000	179.239	80.009	19.994	104.456	20.018	3.108	0.499
202.000	180.215	80.011	19.994	104.457	20.018	3.077	0.483
204.000	181.233	80.009	19.994	104.456	20.019	3.020	0.533
206.000	182.189	80.010	19.994	104.456	20.020	2.931	0.483
208.000	183.241	80.009	19.993	104.454	20.018	3.033	0.517
210.000	184.252	80.010	19.995	104.455	20.017	3.173	0.523
212.000	185.251	80.010	19.994	104.455	20.017	3.164	0.499
214.000	186.305	80.009	19.994	104.456	20.016	3.225	0.535
216.000	187.327	80.009	19.994	104.454	20.017	3.186	0.506
218.000	188.356	80.010	19.994	104.451	20.013	3.478	0.521
220.000	189.385	80.009	19.994	104.447	20.015	3.299	0.543
222.000	190.356	80.009	19.994	104.450	20.015	3.339	0.519
224.000	191.365	80.009	19.994	104.439	20.013	3.487	0.515
226.000	192.337	80.008	19.994	104.448	20.013	3.459	0.492
228.000	193.342	80.008	19.993	104.443	20.010	3.743	0.498
230.000	194.322	80.010	19.993	104.441	20.014	3.393	0.466
232.000	195.310	80.011	19.992	104.431	20.010	3.681	0.476
234.000	196.314	80.011	19.994	104.440	20.013	3.497	0.487
236.000	197.304	80.010	19.992	104.433	20.016	3.266	0.505
238.000	198.313	80.012	19.993	104.437	20.012	3.554	0.517
240.000	199.320	80.012	19.993	104.430	20.015	3.279	0.510
242.000	200.291	80.010	19.993	104.417	20.013	3.467	0.485
244.000	201.293	80.010	19.993	104.419	20.015	3.275	0.493
246.000	202.274	80.009	19.993	104.416	20.017	3.142	0.491
248.000	203.326	80.009	19.993	104.416	20.014	3.368	0.512
250.000	204.324	80.008	19.994	104.419	20.015	3.270	0.505
252.000	205.316	80.009	19.994	104.420	20.013	3.497	0.478
254.000	206.327	80.010	19.994	104.417	20.013	3.486	0.518
256.001	207.299	80.009	19.994	104.420	20.009	3.759	0.481
258.000	208.325	80.009	19.993	104.426	20.017	3.126	0.476
260.000	209.297	80.009	19.993	104.416	20.014	3.390	0.494
262.000	210.331	80.008	19.994	104.418	20.014	3.427	0.501
264.000	211.302	80.011	19.992	104.416	20.012	3.541	0.472
266.000	212.269	80.008	19.992	104.421	20.012	3.545	0.480
268.000	213.282	80.010	19.994	104.417	20.013	3.482	0.498
270.000	214.255	80.010	19.993	104.419	20.008	3.877	0.510
272.000	215.265	80.011	19.993	104.410	20.012	3.523	0.495
274.000	216.262	80.008	19.992	104.418	20.012	3.556	0.510
276.000	217.257	80.009	19.992	104.421	20.008	3.892	0.524
278.000	218.193	80.009	19.994	104.418	20.008	3.890	0.481
280.000	219.191	80.008	19.994	104.414	20.006	3.991	0.520
282.000	220.180	80.009	19.994	104.418	20.010	3.705	0.478
284.000	221.147	80.009	19.993	104.421	20.007	3.932	0.492
286.000	222.123	80.011	19.994	104.417	20.008	3.853	0.491
288.000	223.138	80.010	19.994	104.416	20.011	3.652	0.496
290.000	224.105	80.009	19.993	104.417	20.005	4.098	0.497
292.000	225.113	80.011	19.993	104.420	20.011	3.643	0.506
294.000	226.144	80.008	19.992	104.418	20.008	3.827	0.501
296.000	227.129	80.010	19.993	104.418	20.011	3.659	0.482
298.000	228.128	80.010	19.993	104.418	20.013	3.493	0.498
300.000	229.134	80.011	19.993	104.418	20.003	4.281	0.477
302.000	230.180	80.010	19.994	104.418	20.007	3.945	0.534
304.001	231.155	80.010	19.993	104.419	20.009	3.785	0.478
306.000	232.135	80.010	19.994	104.415	20.012	3.545	0.505
308.000	233.167	80.009	19.994	104.410	20.010	3.696	0.494
310.000	234.182	80.010	19.994	104.412	20.006	3.992	0.514
312.000	235.180	80.011	19.996	104.413	20.008	3.903	0.492
314.000	236.153	80.011	19.993	104.413	20.005	4.082	0.485
316.000	237.150	80.011	19.994	104.410	20.002	4.359	0.517
318.000	238.180	80.010	19.993	104.410	20.007	3.940	0.507
320.000	239.098	80.011	19.994	104.410	20.007	3.923	0.454
322.000	240.066	80.010	19.995	104.407	20.008	3.903	0.503
324.000	241.043	80.010	19.993	104.412	20.004	4.204	0.482
326.000	242.042	80.010	19.994	104.408	20.003	4.224	0.441
328.000	243.041	80.008	19.992	104.413	20.006	4.041	0.482
330.001	244.047	80.008	19.993	104.406	20.004	4.163	0.507
332.000	245.022	80.010	19.993	104.414	20.005	4.108	0.507
334.000	246.044	80.008	19.993	104.415	20.004	4.191	0.484
336.000	247.034	80.009	19.992	104.416	20.010	3.740	0.498
338.000	248.045	80.010	19.993	104.415	20.009	3.820	0.497
340.000	248.975	80.009	19.992	104.416	20.002	4.316	0.514
342.000	250.054	80.008	19.991	104.417	20.001	4.396	0.520
344.000	251.031	80.008	19.992	104.414	20.006	4.060	0.492
346.000	252.021	80.009	19.992	104.415	20.006	4.043	0.485
348.001	253.046	80.007	19.993	104.415	20.006	4.012	0.511
350.000	254.039	80.010	19.994	104.400	20.005	4.143	0.507
352.000	255.015	80.008	19.992	104.417	20.000	4.466	0.498
354.000	255.995	80.009	19.993	104.412	20.006	4.012	0.482
356.000	256.989	80.007	19.993	104.418	20.005	4.078	0.477
358.000	258.017	80.008	19.992	104.415	20.003	4.292	0.524
360.001	259.030	80.009	19.993	104.412	20.002	4.333	0.527
362.000	260.043	80.007	19.993	104.414	20.002	4.331	0.506
364.000	260.978	80.009	19.993	104.417	20.001	4.460	0.474
366.000	261.936	80.009	19.994	104.419	20.000	4.504	0.471
368.000	262.973	80.011	19.993	104.418	19.998	4.667	0.503
370.000	263.966	80.012	19.993	104.409	19.995	4.918	0.531
372.000	264.920	80.010	19.992	104.405	19.997	4.741	0.464
374.000	265.942	80.010	19.993	104.408	19.996	4.857	0.542
376.000	266.904	80.009	19.993	104.414	19.995	4.916	0.509
378.000	267.913	80.010	19.993	104.411	19.987	5.510	0.492
380.000	268.881	80.011	19.993	104.408	19.992	5.165	0.490
382.000	269.908	80.009	19.994	104.405	19.991	5.256	0.526
384.000	270.902	80.011	19.992	104.408	19.991	5.254	0.481
386.000	271.910	80.010	19.993	104.413	19.987	5.571	0.498
388.000	272.914	80.009	19.993	104.411	19.988	5.477	0.502
390.000	273.889	80.009	19.993	104.409	19.985	5.704	0.478
392.000	274.888	80.011	19.993	104.412	19.985	5.726	0.485
394.000	275.892	80.010	19.992	104.405	19.982	5.938	0.501
396.000	276.849	80.011	19.993	104.414	19.978	6.239	0.467
398.000	277.870	80.012	19.993	104.413	19.975	6.488	0.520
400.000	278.846	80.013	19.993	104.412	19.974	6.560	0.437
402.001	279.879	80.011	19.993	104.413	19.970	6.920	0.518
404.000	280.899	80.011	19.993	104.411	19.970	6.911	0.513
406.000	281.865	80.010	19.994	104.415	19.971	6.846	0.518
408.000	282.846	80.009	19.995	104.415	19.967	7.139	0.482
410.000	283.898	80.008	19.994	104.417	19.967	7.147	0.519
412.000	284.870	80.008	19.994	104.417	19.966	7.248	0.492
414.000	285.888	80.007	19.994	104.417	19.962	7.532	0.496
416.000	286.843	80.007	19.993	104.417	19.956	7.986	0.503
418.000	287.856	80.010	19.994	104.416	19.956	7.985	0.480
420.000	288.909	80.008	19.993	104.416	19.953	8.283	0.489
422.000	289.870	80.008	19.993	104.418	19.951	8.411	0.490
424.000	290.910	80.008	19.993	104.421	19.947	8.731	0.500
426.000	291.948	80.008	19.993	104.419	19.947	8.691	0.525
428.000	292.985	80.008	19.992	104.423	19.942	9.116	0.512
430.000	293.954	80.008	19.993	104.433	19.938	9.464	0.521
432.000	294.979	80.009	19.992	104.419	19.933	9.847	0.505
434.000	295.986	80.009	19.992	104.424	19.933	9.866	0.538
436.000	296.978	80.009	19.993	104.422	19.929	10.153	0.485
438.000	297.983	80.008	19.993	104.423	19.923	10.657	0.526
440.000	298.987	80.010	19.994	104.415	19.920	10.883	0.500
442.000	299.996	80.009	19.993	104.429	19.916	11.208	0.501
444.000	301.007	80.008	19.993	104.425	19.909	11.785	0.476
446.000	301.983	80.007	19.993	104.426	19.908	11.863	0.520
448.000	303.011	80.009	19.993	104.434	19.900	12.469	0.541
450.000	304.023	80.009	19.994	104.437	19.900	12.437	0.511
452.000	304.989	80.011	19.993	104.445	19.891	13.207	0.478
454.000	306.033	80.011	19.992	104.445	19.888	13.446	0.522
456.000	307.042	80.011	19.992	104.443	19.882	13.946	0.496
458.000	308.029	80.012	19.992	104.439	19.875	14.453	0.479
460.000	309.052	80.012	19.993	104.453	19.869	14.938	0.472
462.000	310.081	80.011	19.993	104.453	19.866	15.150	0.521
464.000	311.109	80.011	19.993	104.453	19.856	15.990	0.513
466.000	312.107	80.012	19.994	104.453	19.850	16.492	0.509
468.000	313.157	80.009	19.992	104.454	19.840	17.227	0.540
470.000	314.153	80.009	19.993	104.459	19.829	18.156	0.474
472.000	315.259	80.010	19.993	104.473	19.827	18.309	0.540
474.000	316.246	80.011	19.994	104.469	19.816	19.136	0.524
476.000	317.235	80.011	19.994	104.476	19.805	20.032	0.469
478.000	318.254	80.011	19.993	104.485	19.795	20.855	0.517
480.000	319.200	80.010	19.993	104.486	19.787	21.514	0.485
482.000	320.268	80.011	19.993	104.493	19.775	22.477	0.517
484.000	321.260	80.011	19.992	104.495	19.766	23.205	0.525
486.000	322.322	80.012	19.994	104.501	19.751	24.390	0.518
488.000	323.298	80.011	19.994	104.505	19.732	25.862	0.534
490.000	324.299	80.009	19.994	104.515	19.719	26.933	0.503
492.000	325.342	80.009	19.994	104.532	19.702	28.255	0.497
494.000	326.343	80.008	19.993	104.533	19.688	29.423	0.469
496.000	327.378	80.008	19.993	104.535	19.671	30.737	0.500
498.000	328.440	80.009	19.995	104.538	19.655	32.041	0.521
500.000	329.376	80.009	19.994	104.544	19.637	33.480	0.510
502.000	330.386	80.008	19.994	104.569	19.617	35.072	0.537
504.000	331.336	80.008	19.994	104.571	19.593	36.959	0.438
506.001	332.317	80.009	19.994	104.575	19.569	38.882	0.371
508.000	333.379	80.009	19.995	104.578	19.546	40.742	0.484
510.001	334.202	80.010	19.995	104.579	19.521	42.758	0.272
512.000	335.435	80.010	19.994	104.602	19.491	45.131	0.467
514.000	336.465	80.010	19.994	104.611	19.462	47.459	0.513
516.000	337.467	80.009	19.995	104.635	19.436	49.585	0.552
518.000	338.451	80.010	19.993	104.649	19.398	52.617	0.516
520.000	339.455	80.008	19.993	104.662	19.367	55.126	0.508
522.000	340.481	80.009	19.994	104.686	19.327	58.276	0.493
524.000	341.453	80.010	19.994	104.691	19.287	61.542	0.488
526.000	342.470	80.009	19.994	104.702	19.251	64.385	0.500
528.000	343.457	80.010	19.994	104.727	19.205	68.128	0.470
530.000	344.422	80.010	19.994	104.746	19.166	71.262	0.509
532.000	345.450	80.009	19.994	104.768	19.114	75.375	0.527
534.000	346.407	80.010	19.993	104.779	19.070	78.950	0.494
536.000	347.431	80.011	19.993	104.801	19.019	83.031	0.482
538.000	348.427	80.010	19.992	104.817	18.966	87.254	0.520
540.000	349.434	80.010	19.994	104.844	18.916	91.299	0.505
542.000	350.435	80.008	19.993	104.862	18.860	95.808	0.501
544.000	351.391	80.010	19.993	104.879	18.802	100.471	0.492
546.000	352.416	80.010	19.993	104.907	18.746	104.991	0.531
548.000	353.444	80.011	19.992	104.924	18.684	109.990	0.518
550.000	354.425	80.010	19.992	104.945	18.628	114.491	0.496
552.000	355.415	80.009	19.993	104.974	18.559	119.990	0.496
554.000	356.411	80.011	19.993	104.996	18.504	124.438	0.505
556.000	357.437	80.010	19.993	105.003	18.448	128.925	0.522
558.000	358.430	80.011	19.992	105.018	18.390	133.545	0.493
560.000	359.413	80.013	19.994	105.039	18.331	138.281	0.506
562.000	360.434	80.011	19.992	105.043	18.277	142.606	0.505
564.000	361.420	80.011	19.993	105.048	18.234	146.037	0.481
566.000	362.406	80.012	19.993	105.070	18.188	149.768	0.491
568.000	363.392	80.012	19.994	105.074	18.149	152.860	0.512
570.000	364.384	80.011	19.995	105.075	18.111	155.868	0.504
572.000	365.424	80.009	19.994	105.075	18.080	158.309	0.515
574.000	366.401	80.010	19.993	105.061	18.062	159.665	0.482
576.000	367.356	80.008	19.994	105.051	18.052	160.431	0.486
578.001	368.440	80.010	19.994	105.042	18.045	160.950	0.544
580.000	369.411	80.011	19.994	105.018	18.051	160.331	0.488
582.000	370.399	80.011	19.995	104.994	18.068	158.880	0.488
584.000	371.431	80.009	19.995	104.967	18.113	155.239	0.501
586.000	372.492	80.009	19.993	104.930	18.159	151.481	0.541
588.000	373.598	80.010	19.994	104.896	18.225	146.143	0.573
590.000	374.652	80.011	19.994	104.845	18.295	140.508	0.501
592.000	375.723	80.009	19.993	104.787	18.395	132.518	0.538
594.000	376.808	80.009	19.994	104.742	18.496	124.421	0.565
596.000	377.878	80.008	19.994	104.681	18.611	115.214	0.549
598.000	378.991	80.008	19.995	104.628	18.737	105.179	0.555
600.000	380.067	80.009	19.995	104.588	18.857	95.561	0.553
602.000	381.189	80.009	19.995	104.547	18.990	84.915	0.557
604.000	382.294	80.008	19.994	104.515	19.116	74.919	0.503
606.000	383.401	80.009	19.994	104.491	19.232	65.636	0.552
608.000	384.487	80.007	19.994	104.465	19.341	56.931	0.530
610.000	385.596	80.009	19.995	104.454	19.436	49.376	0.512
612.000	386.735	80.009	19.993	104.427	19.524	42.428	0.546
614.000	387.825	80.009	19.992	104.398	19.613	35.298	0.548
616.000	388.963	80.010	19.993	104.377	19.691	29.059	0.564
618.000	390.020	80.012	19.994	104.369	19.753	24.169	0.529
620.000	391.168	80.010	19.992	104.370	19.808	19.796	0.555
622.000	392.257	80.011	19.992	104.352	19.853	16.170	0.550
624.000	393.320	80.010	19.991	104.350	19.889	13.352	0.543
626.000	394.376	80.008	19.991	104.352	19.917	11.107	0.555
628.000	395.432	80.008	19.993	104.343	19.942	9.095	0.498
630.000	396.565	80.010	19.994	104.342	19.965	7.290	0.546
632.000	397.628	80.010	19.994	104.338	19.980	6.119	0.501
634.000	398.699	80.009	19.995	104.338	19.983	5.813	0.521
636.000	399.717	80.011	19.994	104.335	19.997	4.742	0.520
638.000	400.766	80.009	19.993	104.348	19.991	5.233	0.477
640.000	401.804	80.010	19.992	104.343	19.999	4.561	0.521
642.000	402.834	80.013	19.992	104.338	20.005	4.101	0.534
644.000	403.891	80.011	19.992	104.338	20.008	3.870	0.538
646.000	404.889	80.011	19.993	104.341	20.005	4.088	0.504
648.000	405.904	80.013	19.993	104.342	20.007	3.924	0.484
650.000	406.957	80.012	19.993	104.338	20.009	3.767	0.499
652.000	407.900	80.012	19.992	104.339	20.012	3.573	0.478
654.000	408.888	80.009	19.993	104.338	20.013	3.490	0.503
656.000	409.929	80.010	19.992	104.338	20.007	3.946	0.494
658.000	410.909	80.010	19.993	104.340	20.014	3.407	0.495
660.000	411.888	80.009	19.993	104.342	20.013	3.429	0.478
662.000	412.881	80.007	19.992	104.341	20.016	3.266	0.508
664.000	413.867	80.009	19.994	104.339	20.017	3.152	0.452
666.000	414.844	80.010	19.994	104.346	20.012	3.510	0.468
668.000	415.796	80.010	19.993	104.341	20.021	2.810	0.475
670.000	416.742	80.009	19.993	104.341	20.014	3.357	0.467
672.000	417.742	80.011	19.995	104.346	20.018	3.030	0.471
674.000	418.767	80.009	19.993	104.346	20.018	3.037	0.517
676.000	419.731	80.008	19.994	104.343	20.012	3.560	0.528
678.000	420.699	80.009	19.994	104.343	20.016	3.239	0.493
680.000	421.644	80.010	19.993	104.346	20.013	3.453	0.461
682.000	422.643	80.010	19.994	104.341	20.012	3.567	0.466
684.000	423.556	80.010	19.994	104.341	20.019	3.026	0.480
686.000	424.525	80.008	19.994	104.345	20.015	3.322	0.467
688.000	425.512	80.008	19.995	104.343	20.022	2.786	0.485
690.000	426.442	80.008	19.994	104.341	20.025	2.489	0.474
692.000	427.461	80.007	19.994	104.350	20.022	2.716	0.487
694.000	428.419	80.008	19.995	104.340	20.021	2.847	0.489
696.000	429.413	80.010	19.995	104.348	20.015	3.283	0.493
698.000	430.358	80.009	19.994	104.337	20.021	2.814	0.474
700.000	431.322	80.009	19.994	104.340	20.020	2.947	0.476
702.000	432.357	80.010	19.994	104.338	20.020	2.877	0.490
704.000	433.349	80.012	19.994	104.351	20.026	2.435	0.469
706.000	434.369	80.011	19.993	104.352	20.020	2.919	0.553
708.000	435.368	80.012	19.994	104.343	20.023	2.679	0.511
710.000	436.326	80.009	19.992	104.344	20.024	2.563	0.522
712.000	437.329	80.009	19.993	104.342	20.025	2.500	0.514
714.000	438.310	80.010	19.993	104.343	20.022	2.779	0.527
716.000	439.321	80.011	19.993	104.340	20.022	2.729	0.473
718.000	440.344	80.010	19.994	104.343	20.023	2.633	0.530
720.000	441.302	80.010	19.993	104.341	20.023	2.637	0.472
722.000	442.297	80.010	19.993	104.341	20.021	2.792	0.482
724.000	443.312	80.011	19.994	104.357	20.022	2.782	0.500
726.000	444.330	80.012	19.994	104.344	20.022	2.740	0.517
728.000	445.285	80.012	19.993	104.346	20.026	2.435	0.490
730.000	446.317	80.011	19.993	104.341	20.026	2.441	0.475
732.000	447.310	80.011	19.993	104.343	20.019	2.995	0.501
734.000	448.352	80.010	19.992	104.344	20.027	2.382	0.540
736.000	449.375	80.009	19.993	104.354	20.024	2.605	0.525
738.000	450.367	80.008	19.992	104.346	20.025	2.515	0.506
740.000	451.367	80.009	19.993	104.349	20.024	2.587	0.510
742.000	452.437	80.009	19.993	104.352	20.026	2.454	0.532
744.000	453.465	80.008	19.993	104.344	20.023	2.696	0.537
746.000	454.457	80.008	19.994	104.343	20.024	2.574	0.511
748.000	455.527	80.009	19.993	104.346	20.024	2.618	0.524
750.000	456.543	80.010	19.993	104.343	20.026	2.428	0.513
752.000	457.538	80.009	19.994	104.352	20.026	2.426	0.474
754.000	458.553	80.009	19.993	104.352	20.024	2.592	0.487
756.000	459.591	80.009	19.994	104.347	20.026	2.465	0.508
758.000	460.612	80.010	19.995	104.343	20.030	2.131	0.500
760.000	461.647	80.010	19.993	104.340	20.029	2.160	0.515
762.000	462.648	80.009	19.994	104.341	20.027	2.339	0.495
764.000	463.706	80.011	19.994	104.340	20.027	2.384	0.510
766.000	464.715	80.010	19.995	104.339	20.023	2.653	0.506
768.000	465.720	80.008	19.993	104.341	20.027	2.360	0.514
770.000	466.793	80.010	19.994	104.341	20.023	2.688	0.549
772.000	467.801	80.009	19.994	104.342	20.026	2.399	0.502
774.000	468.788	80.009	19.994	104.342	20.023	2.637	0.488
776.000	469.803	80.009	19.994	104.342	20.027	2.382	0.508
778.000	470.867	80.009	19.993	104.341	20.026	2.393	0.542
780.000	471.855	80.009	19.992	104.344	20.028	2.310	0.508
782.000	472.889	80.011	19.995	104.337	20.027	2.334	0.533
784.000	473.903	80.011	19.994	104.337	20.028	2.279	0.522
786.000	474.953	80.011	19.994	104.336	20.031	2.005	0.531
788.000	475.989	80.011	19.995	104.338	20.030	2.116	0.500
790.000	477.057	80.011	19.994	104.338	20.027	2.352	0.536
792.000	478.050	80.010	19.995	104.335	20.029	2.186	0.551
794.000	479.067	80.009	19.994	104.333	20.025	2.472	0.512
796.000	480.066	80.009	19.994	104.339	20.028	2.301	0.508
798.000	481.117	80.009	19.994	104.338	20.029	2.157	0.560
800.001	482.095	80.010	19.994	104.338	20.030	2.088	0.526
802.001	483.132	80.011	19.994	104.339	20.024	2.572	0.530
804.000	484.119	80.009	19.993	104.339	20.029	2.160	0.488
806.000	485.143	80.011	19.992	104.341	20.030	2.151	0.521
808.000	486.168	80.013	19.993	104.339	20.032	1.950	0.488
810.000	487.152	80.009	19.993	104.339	20.027	2.354	0.512
812.000	488.158	80.010	19.992	104.340	20.027	2.332	0.493
814.000	489.186	80.011	19.993	104.340	20.026	2.463	0.493
816.000	490.215	80.009	19.994	104.340	20.030	2.131	0.492
818.000	491.227	80.008	19.993	104.341	20.024	2.624	0.492
820.000	492.258	80.008	19.994	104.342	20.031	2.055	0.527
822.000	493.310	80.009	19.994	104.353	20.029	2.197	0.517
824.000	494.336	80.011	19.994	104.350	20.027	2.376	0.509
826.000	495.380	80.009	19.993	104.342	20.027	2.317	0.521
828.000	496.426	80.009	19.993	104.333	20.029	2.192	0.531
830.000	497.502	80.010	19.993	104.338	20.025	2.517	0.568
832.000	498.517	80.009	19.994	104.337	20.025	2.522	0.510
834.001	499.594	80.010	19.993	104.341	20.026	2.413	0.530
836.000	500.676	80.009	19.993	104.339	20.027	2.358	0.551
838.000	501.693	80.009	19.994	104.344	20.027	2.378	0.500
840.000	502.762	80.011	19.992	104.341	20.031	2.057	0.534
842.000	503.821	80.009	19.993	104.341	20.028	2.308	0.559
844.000	504.880	80.010	19.993	104.340	20.030	2.096	0.518
846.000	505.941	80.011	19.992	104.338	20.029	2.162	0.529
848.000	507.036	80.010	19.994	104.339	20.027	2.334	0.541
850.000	508.115	80.009	19.993	104.339	20.028	2.297	0.551
852.000	509.116	80.008	19.995	104.337	20.025	2.513	0.531
854.000	510.228	80.010	19.994	104.335	20.023	2.646	0.512
856.000	511.333	80.010	19.995	104.340	20.028	2.269	0.569
858.000	512.359	80.009	19.994	104.339	20.032	1.983	0.570
860.000	513.423	80.009	19.994	104.339	20.031	2.037	0.499
862.000	514.499	80.009	19.994	104.340	20.025	2.533	0.528
864.000	515.574	80.012	19.994	104.338	20.028	2.304	0.540
866.000	516.634	80.011	19.994	104.339	20.030	2.077	0.530
868.000	517.651	80.012	19.993	104.338	20.026	2.461	0.513
870.000	518.750	80.009	19.993	104.339	20.031	2.011	0.535
872.000	519.818	80.011	19.994	104.339	20.026	2.467	0.542
874.000	520.854	80.010	19.994	104.338	20.020	2.917	0.515
876.000	521.864	80.009	19.993	104.341	20.029	2.214	0.512
878.000	522.911	80.010	19.993	104.340	20.028	2.245	0.518
880.000	523.977	80.009	19.994	104.342	20.027	2.341	0.505
882.000	525.020	80.008	19.994	104.335	20.028	2.255	0.523
884.000	526.049	80.011	19.994	104.331	20.029	2.218	0.514
886.000	527.081	80.009	19.993	104.338	20.029	2.207	0.498
888.000	528.067	80.011	19.993	104.335	20.030	2.087	0.475
890.000	529.144	80.012	19.995	104.338	20.030	2.090	0.494
892.000	530.176	80.011	19.993	104.333	20.032	1.968	0.511
894.000	531.197	80.012	19.994	104.330	20.029	2.153	0.527
896.000	532.238	80.013	19.994	104.334	20.030	2.077	0.495
898.000	533.216	80.012	19.993	104.333	20.029	2.192	0.501
900.000	534.281	80.010	19.992	104.335	20.028	2.288	0.523
902.000	535.335	80.010	19.993	104.336	20.029	2.153	0.548
904.000	536.323	80.009	19.994	104.336	20.031	2.037	0.492
906.000	537.371	80.008	19.994	104.335	20.029	2.192	0.505
908.000	538.374	80.009	19.994	104.334	20.028	2.282	0.513
910.000	539.373	80.010	19.994	104.336	20.032	1.985	0.525
912.000	540.400	80.009	19.992	104.333	20.027	2.371	0.478
914.000	541.449	80.009	19.992	104.331	20.032	1.944	0.509
916.000	542.446	80.011	19.993	104.337	20.031	2.031	0.502
918.000	543.481	80.010	19.993	104.336	20.032	1.943	0.525
920.000	544.512	80.010	19.994	104.338	20.030	2.116	0.513
922.000	545.509	80.008	19.993	104.328	20.028	2.297	0.517
924.000	546.549	80.009	19.994	104.334	20.030	2.144	0.517
926.000	547.572	80.010	19.993	104.338	20.029	2.173	0.482
928.001	548.657	80.010	19.993	104.334	20.029	2.223	0.536
930.000	549.690	80.008	19.993	104.332	20.030	2.120	0.523
932.000	550.761	80.010	19.993	104.338	20.035	1.710	0.517
934.000	551.769	80.009	19.993	104.337	20.033	1.835	0.503
936.000	552.756	80.009	19.993	104.341	20.036	1.634	0.491
938.000	553.844	80.009	19.993	104.330	20.033	1.889	0.527
940.000	554.938	80.010	19.993	104.339	20.032	1.963	0.527
942.000	555.969	80.009	19.993	104.335	20.034	1.758	0.528
944.001	556.998	80.009	19.993	104.341	20.035	1.712	0.518
946.000	558.121	80.011	19.993	104.336	20.033	1.861	0.585
948.000	559.125	80.011	19.993	104.335	20.030	2.079	0.512
950.000	560.173	80.009	19.993	104.338	20.032	1.948	0.526
952.000	561.185	80.009	19.993	104.337	20.033	1.880	0.486
954.000	562.214	80.009	19.994	104.339	20.038	1.435	0.485
956.000	563.276	80.010	19.994	104.336	20.033	1.909	0.497
958.000	564.304	80.010	19.993	104.331	20.036	1.601	0.501
960.000	565.305	80.011	19.993	104.334	20.034	1.771	0.514
962.000	566.340	80.012	19.994	104.327	20.032	1.985	0.529
964.000	567.342	80.013	19.994	104.322	20.032	1.967	0.503
966.000	568.381	80.012	19.994	104.335	20.034	1.791	0.518
968.000	569.408	80.012	19.994	104.335	20.033	1.863	0.521
970.001	570.481	80.013	19.994	104.332	20.035	1.747	0.541
972.000	571.449	80.012	19.992	104.322	20.034	1.784	0.458
974.000	572.448	80.011	19.994	104.317	20.032	1.920	0.513
976.000	573.478	80.010	19.995	104.328	20.036	1.636	0.524
978.000	574.518	80.011	19.995	104.333	20.031	2.046	0.517
980.000	575.545	80.009	19.994	104.333	20.034	1.795	0.512
982.000	576.528	80.010	19.995	104.330	20.035	1.686	0.519
984.000	577.504	80.009	19.994	104.333	20.032	1.939	0.484
986.000	578.533	80.010	19.995	104.336	20.032	1.930	0.502
988.000	579.524	80.009	19.994	104.328	20.035	1.686	0.486
990.000	580.540	80.010	19.993	104.332	20.033	1.887	0.523
992.001	581.542	80.008	19.993	104.335	20.032	1.926	0.507
994.000	582.465	80.009	19.993	104.338	20.036	1.669	0.451
996.000	583.491	80.010	19.993	104.338	20.032	1.963	0.516
998.001	584.512	80.009	19.993	104.326	20.034	1.778	0.505
1000.000	585.483	80.010	19.993	104.336	20.028	2.256	0.485
1002.000	586.530	80.010	19.992	104.340	20.032	1.981	0.532
1004.000	587.496	80.011	19.993	104.340	20.032	1.959	0.472
1006.000	588.489	80.011	19.993	104.340	20.031	2.035	0.477
1008.000	589.518	80.009	19.993	104.340	20.030	2.079	0.515
1010.001	590.522	80.010	19.993	104.341	20.039	1.363	0.499
1012.000	591.532	80.008	19.994	104.340	20.036	1.647	0.488
1014.000	592.523	80.010	19.994	104.330	20.036	1.638	0.499
1016.000	593.550	80.009	19.994	104.323	20.033	1.885	0.505
1018.000	594.560	80.009	19.994	104.327	20.034	1.806	0.483
1020.000	595.651	80.012	19.993	104.335	20.033	1.895	0.521
1022.000	596.638	80.010	19.993	104.333	20.031	2.059	0.509
1024.000	597.689	80.012	19.994	104.338	20.031	2.070	0.510
1026.001	598.658	80.011	19.993	104.337	20.036	1.608	0.477
1028.000	599.695	80.012	19.993	104.337	20.030	2.129	0.519
1030.001	600.688	80.011	19.993	104.326	20.034	1.824	0.493
1032.000	601.691	80.014	19.992	104.337	20.032	1.939	0.521
1034.000	602.750	80.012	19.993	104.336	20.037	1.577	0.535
1036.000	603.737	80.011	19.994	104.337	20.034	1.819	0.481
1038.000	604.750	80.010	19.993	104.334	20.036	1.671	0.517
1040.001	605.773	80.012	19.993	104.335	20.037	1.562	0.527
1042.000	606.762	80.010	19.993	104.331	20.039	1.361	0.513
1044.001	607.816	80.010	19.993	104.335	20.035	1.693	0.538
1046.000	608.855	80.012	19.994	104.330	20.037	1.584	0.515
1048.000	609.865	80.013	19.995	104.333	20.037	1.555	0.487
1050.000	610.848	80.012	19.995	104.330	20.036	1.671	0.490
1052.000	611.880	80.012	19.993	104.324	20.038	1.466	0.489
1054.000	612.880	80.012	19.993	104.331	20.038	1.512	0.482
1056.000	613.912	80.013	19.993	104.328	20.037	1.544	0.506
1058.001	614.930	80.012	19.993	104.332	20.038	1.501	0.494
1060.001	615.926	80.013	19.994	104.335	20.036	1.649	0.484
1062.000	616.928	80.011	19.993	104.335	20.035	1.704	0.498
1064.000	617.925	80.011	19.993	104.330	20.038	1.499	0.476
1066.000	618.938	80.009	19.993	104.337	20.038	1.514	0.511
1068.001	619.961	80.009	19.994	104.339	20.035	1.717	0.514
1070.001	620.961	80.009	19.994	104.335	20.035	1.712	0.520
1072.000	621.948	80.010	19.995	104.333	20.036	1.599	0.497
1074.001	622.984	80.009	19.995	104.335	20.037	1.558	0.537
1076.001	623.983	80.008	19.994	104.332	20.036	1.610	0.518
1078.000	625.004	80.009	19.993	104.337	20.037	1.549	0.496
1080.000	625.978	80.011	19.994	104.330	20.036	1.621	0.495
1082.000	626.998	80.010	19.994	104.339	20.036	1.619	0.500
1084.000	628.042	80.011	19.994	104.339	20.037	1.531	0.496
1086.000	629.057	80.010	19.993	104.331	20.036	1.595	0.496
1088.000	630.066	80.011	19.993	104.329	20.038	1.514	0.485
1090.000	631.092	80.009	19.994	104.338	20.036	1.603	0.507
1092.000	632.076	80.011	19.994	104.337	20.035	1.680	0.493
1094.001	633.120	80.010	19.993	104.337	20.040	1.276	0.538
1096.000	634.110	80.009	19.993	104.336	20.036	1.673	0.500
1098.000	635.222	80.010	19.994	104.337	20.037	1.520	0.542
1100.000	636.216	80.008	19.993	104.326	20.033	1.910	0.515
1102.000	637.191	80.009	19.993	104.331	20.034	1.821	0.486
1104.000	638.234	80.009	19.994	104.336	20.035	1.701	0.505
1106.000	639.261	80.012	19.994	104.336	20.037	1.527	0.487
1108.000	640.287	80.011	19.993	104.330	20.035	1.693	0.518
1110.001	641.276	80.012	19.994	104.322	20.034	1.767	0.504
1112.001	642.286	80.011	19.992	104.310	20.033	1.852	0.519
1114.001	643.278	80.011	19.993	104.332	20.035	1.723	0.485
1116.001	644.306	80.011	19.993	104.330	20.039	1.387	0.500
1118.000	645.310	80.011	19.993	104.336	20.036	1.638	0.512
1120.000	646.286	80.012	19.993	104.332	20.032	1.937	0.509
1122.001	647.337	80.010	19.993	104.323	20.033	1.856	0.513
1124.000	648.317	80.010	19.993	104.334	20.036	1.653	0.494
1126.001	649.344	80.012	19.992	104.339	20.032	1.928	0.522
1128.001	650.383	80.011	19.994	104.324	20.034	1.773	0.549
1130.000	651.358	80.012	19.993	104.338	20.036	1.673	0.504
1132.001	652.383	80.011	19.993	104.338	20.034	1.830	0.539
1134.001	653.375	80.012	19.993	104.331	20.036	1.608	0.470
1136.000	654.403	80.012	19.993	104.337	20.035	1.747	0.494
1138.000	655.422	80.012	19.993	104.339	20.031	2.002	0.497
1140.000	656.467	80.011	19.993	104.339	20.034	1.760	0.505
1142.000	657.462	80.011	19.993	104.335	20.034	1.804	0.506
1144.000	658.468	80.011	19.993	104.337	20.032	1.961	0.490
1146.001	659.483	80.010	19.994	104.335	20.031	2.066	0.504
1148.000	660.509	80.009	19.994	104.337	20.033	1.874	0.500
1150.000	661.518	80.010	19.993	104.336	20.033	1.909	0.489
1152.000	662.500	80.008	19.993	104.336	20.034	1.830	0.530
1154.001	663.506	80.008	19.993	104.336	20.033	1.847	0.512
1156.001	664.530	80.010	19.994	104.334	20.031	2.063	0.513
1158.001	665.480	80.009	19.995	104.336	20.034	1.830	0.468
1160.000	666.525	80.009	19.994	104.336	20.032	1.924	0.489
1162.000	667.525	80.008	19.993	104.325	20.032	1.948	0.504
1164.000	668.529	80.010	19.994	104.334	20.030	2.109	0.490
1166.000	669.556	80.008	19.995	104.320	20.032	1.974	0.518
1168.000	670.551	80.010	19.995	104.334	20.034	1.773	0.494
1170.000	671.568	80.008	19.994	104.328	20.033	1.863	0.523
1172.001	672.636	80.009	19.994	104.316	20.030	2.122	0.516
1174.000	673.670	80.009	19.994	104.319	20.033	1.869	0.531
1176.000	674.661	80.010	19.994	104.330	20.033	1.872	0.501
1178.001	675.645	80.007	19.993	104.333	20.034	1.832	0.473
1180.000	676.686	80.010	19.994	104.334	20.033	1.876	0.516
1182.001	677.725	80.009	19.994	104.328	20.033	1.887	0.521
1184.000	678.730	80.009	19.994	104.336	20.031	2.022	0.495
1186.000	679.703	80.010	19.993	104.336	20.037	1.590	0.463
1188.000	680.738	80.012	19.993	104.336	20.035	1.725	0.525
1190.000	681.729	80.010	19.993	104.335	20.034	1.778	0.510
1192.000	682.735	80.013	19.993	104.328	20.029	2.164	0.506
1194.000	683.783	80.012	19.992	104.331	20.034	1.773	0.501
1196.001	684.757	80.011	19.993	104.325	20.035	1.710	0.504
1198.000	685.758	80.011	19.993	104.316	20.034	1.813	0.495
1200.000	686.815	80.011	19.993	104.332	20.028	2.251	0.522
1202.001	687.808	80.011	19.993	104.326	20.031	2.015	0.495
1204.000	688.825	80.010	19.993	104.331	20.029	2.177	0.519
1206.000	689.797	80.010	19.993	104.328	20.035	1.697	0.508
1208.000	690.880	80.012	19.993	104.335	20.032	1.980	0.532
1210.000	691.835	80.011	19.993	104.331	20.034	1.828	0.482
1212.000	692.838	80.011	19.992	104.331	20.032	1.963	0.476
1214.001	693.824	80.011	19.992	104.323	20.032	1.989	0.477
1216.000	694.852	80.013	19.993	104.334	20.028	2.253	0.506
1218.001	695.833	80.014	19.992	104.318	20.032	1.970	0.463
1220.000	696.906	80.013	19.993	104.320	20.029	2.177	0.544
1222.000	697.921	80.013	19.993	104.331	20.029	2.218	0.541
1224.000	698.878	80.013	19.993	104.329	20.028	2.281	0.498
1226.001	699.908	80.011	19.993	104.326	20.028	2.281	0.511
1228.001	700.891	80.011	19.994	104.322	20.029	2.214	0.486
1230.000	701.884	80.008	19.994	104.327	20.034	1.830	0.471
1232.001	702.872	80.010	19.994	104.323	20.033	1.884	0.537
1234.000	703.878	80.010	19.994	104.318	20.032	1.965	0.521
1236.000	704.872	80.010	19.994	104.320	20.035	1.691	0.483
1238.001	705.843	80.010	19.994	104.318	20.033	1.885	0.477
1240.000	706.875	80.010	19.993	104.316	20.031	2.026	0.517
1242.000	707.888	80.011	19.993	104.315	20.032	1.952	0.497
1244.000	708.888	80.011	19.993	104.321	20.033	1.869	0.510
1246.001	709.869	80.011	19.993	104.336	20.033	1.882	0.493
1248.001	710.918	80.011	19.994	104.337	20.034	1.799	0.487
1250.000	711.946	80.011	19.995	104.332	20.027	2.334	0.519
1252.000	712.913	80.009	19.993	104.324	20.031	2.057	0.503
1254.001	713.952	80.011	19.994	104.329	20.029	2.194	0.517
1256.000	714.997	80.011	19.993	104.310	20.028	2.246	0.517
1258.000	716.090	80.008	19.994	104.317	20.027	2.366	0.535
1260.000	717.133	80.010	19.994	104.334	20.027	2.336	0.529
1262.000	718.136	80.009	19.994	104.333	20.030	2.148	0.504
1264.001	719.142	80.007	19.995	104.323	20.028	2.273	0.516
1266.000	720.166	80.010	19.995	104.313	20.029	2.175	0.515
1268.000	721.157	80.011	19.994	104.303	20.026	2.397	0.479
1270.000	722.178	80.011	19.994	104.309	20.029	2.181	0.528
1272.000	723.177	80.011	19.993	104.318	20.030	2.107	0.485
1274.000	724.194	80.012	19.992	104.327	20.030	2.085	0.505
1276.001	725.229	80.011	19.993	104.337	20.030	2.109	0.531
1278.000	726.226	80.012	19.993	104.323	20.028	2.296	0.485
1280.000	727.277	80.012	19.993	104.316	20.028	2.306	0.500
1282.001	728.281	80.011	19.993	104.311	20.030	2.091	0.508
1284.001	729.352	80.011	19.992	104.317	20.029	2.174	0.532
1286.000	730.381	80.010	19.994	104.309	20.031	2.017	0.538
1288.000	731.428	80.011	19.993	104.309	20.026	2.449	0.533
1290.000	732.422	80.012	19.993	104.320	20.030	2.098	0.522
1292.001	733.488	80.013	19.994	104.320	20.025	2.502	0.536
1294.001	734.481	80.011	19.993	104.305	20.029	2.214	0.530
1296.001	735.535	80.012	19.993	104.310	20.024	2.567	0.505
1298.001	736.577	80.014	19.992	104.325	20.025	2.508	0.522
1300.000	737.657	80.016	19.993	104.320	20.026	2.426	0.553
1302.001	738.663	80.012	19.993	104.312	20.024	2.569	0.528
1304.000	739.735	80.011	19.993	104.330	20.027	2.366	0.535
1306.001	740.762	80.011	19.992	104.319	20.023	2.644	0.542
1308.000	741.811	80.012	19.994	104.331	20.025	2.497	0.532
1310.000	742.869	80.011	19.992	104.335	20.026	2.392	0.509
1311.000	743.437	80.010	19.993	104.333	20.022	2.724	0.552