File: 01_Data/Feather_PillowA_Cover/MCC/Feather_PillowA_Cover_MCC_30K_min_220106_R1.txt
Sample ID:	C:\MCC\MCC Cal\Test\Feather_PillowA_Cover_MCC_30K_min_220106_R1.txt
Sample Weight (mg):	4.29
Heating Rate (C/s):	0.5
Combustor Temp (C):	900
N2 Flow Rate (cc/min):	80
O2 Flow Rate (cc/min):	20
Calibration File:	C:\MCC\MCC Cal\Coeff1 JN10440_30_210304.txt.txt
T Correction Coefficients:	0	1.024463	0
Time Shift (s):	14
*
Time (s)	Temperature (C)	N2 flow rate (cc/min)	O2 flow rate (cc/min)	Flow Rate (cc/min)	Oxygen (%)	HRR (W/g)	Heating rate (C/s)
0.000	110.495	80.010	19.993	104.228	19.959	-0.268	-0.030
2.000	110.507	80.012	19.992	104.228	19.954	0.096	0.015
4.001	110.487	80.012	19.994	104.226	19.956	-0.039	-0.041
6.000	110.522	80.011	19.993	104.219	19.958	-0.212	-0.016
8.001	110.497	80.011	19.994	104.218	19.960	-0.355	0.003
10.001	110.442	80.010	19.993	104.223	19.959	-0.239	0.000
12.001	110.491	80.011	19.994	104.220	19.958	-0.173	-0.016
14.000	110.485	80.011	19.994	104.226	19.955	0.033	-0.003
16.000	110.447	80.010	19.994	104.249	19.951	0.351	0.003
18.000	110.481	80.011	19.993	104.276	19.947	0.622	0.029
20.000	110.516	80.011	19.994	104.308	19.950	0.443	0.024
22.000	110.601	80.011	19.993	104.320	19.945	0.755	0.041
24.001	110.652	80.010	19.993	104.325	19.944	0.853	0.053
26.000	110.725	80.011	19.993	104.331	19.939	1.256	0.056
28.000	110.822	80.012	19.995	104.347	19.942	1.044	0.047
30.000	110.957	80.011	19.993	104.345	19.940	1.201	0.023
32.000	111.116	80.011	19.993	104.349	19.937	1.430	0.085
34.000	111.324	80.012	19.993	104.376	19.936	1.498	0.108
36.000	111.491	80.010	19.994	104.372	19.935	1.577	0.110
38.000	111.758	80.011	19.993	104.358	19.929	1.972	0.126
40.000	112.024	80.010	19.993	104.379	19.926	2.206	0.142
42.000	112.259	80.008	19.994	104.400	19.930	1.894	0.148
44.000	112.551	80.008	19.995	104.423	19.927	2.160	0.152
46.001	112.881	80.008	19.994	104.365	19.928	2.094	0.143
48.001	113.226	80.009	19.994	104.439	19.927	2.160	0.184
50.000	113.600	80.007	19.994	104.462	19.925	2.302	0.188
52.001	113.966	80.011	19.993	104.418	19.926	2.250	0.174
54.000	114.392	80.008	19.992	104.416	19.928	2.109	0.210
56.000	114.816	80.010	19.994	104.398	19.925	2.328	0.209
58.000	115.257	80.010	19.992	104.418	19.924	2.407	0.212
60.001	115.704	80.008	19.993	104.424	19.925	2.299	0.209
62.000	116.196	80.008	19.993	104.430	19.924	2.367	0.234
64.001	116.659	80.009	19.993	104.441	19.923	2.501	0.246
66.000	117.163	80.008	19.993	104.457	19.922	2.523	0.274
68.000	117.711	80.008	19.993	104.453	19.921	2.596	0.262
70.000	118.267	80.009	19.993	104.455	19.921	2.626	0.279
72.001	118.841	80.010	19.993	104.456	19.922	2.561	0.286
74.001	119.411	80.008	19.994	104.457	19.917	2.927	0.331
76.001	120.044	80.010	19.993	104.457	19.920	2.665	0.300
78.001	120.720	80.009	19.994	104.458	19.920	2.703	0.300
80.001	121.285	80.008	19.993	104.460	19.915	3.098	0.293
82.000	121.977	80.010	19.994	104.459	19.915	3.088	0.338
84.000	122.616	80.010	19.995	104.461	19.915	3.038	0.317
86.000	123.351	80.011	19.994	104.458	19.915	3.063	0.336
88.000	124.004	80.011	19.993	104.458	19.914	3.165	0.307
90.000	124.766	80.011	19.993	104.462	19.916	3.013	0.368
92.000	125.510	80.011	19.992	104.463	19.917	2.921	0.392
94.000	126.226	80.010	19.994	104.461	19.916	2.975	0.377
96.001	126.957	80.011	19.993	104.457	19.915	3.096	0.381
98.000	127.736	80.009	19.993	104.463	19.913	3.256	0.401
100.000	128.513	80.009	19.993	104.459	19.915	3.082	0.382
102.000	129.313	80.010	19.993	104.463	19.915	3.105	0.375
104.001	130.114	80.010	19.993	104.462	19.913	3.250	0.420
106.001	130.958	80.010	19.993	104.464	19.914	3.123	0.425
108.000	131.727	80.009	19.992	104.465	19.916	3.009	0.406
110.000	132.569	80.010	19.994	104.464	19.915	3.061	0.424
112.000	133.413	80.009	19.993	104.469	19.919	2.765	0.442
114.001	134.222	80.012	19.994	104.468	19.919	2.805	0.412
116.001	135.068	80.012	19.993	104.466	19.913	3.219	0.398
118.000	135.931	80.011	19.993	104.461	19.919	2.792	0.423
120.000	136.802	80.012	19.993	104.468	19.913	3.210	0.435
122.000	137.704	80.012	19.994	104.462	19.917	2.946	0.427
124.000	138.544	80.010	19.994	104.462	19.915	3.107	0.451
126.000	139.464	80.010	19.994	104.461	19.918	2.832	0.456
128.000	140.396	80.009	19.994	104.467	19.916	3.029	0.487
130.000	141.266	80.007	19.993	104.459	19.919	2.771	0.441
132.000	142.131	80.009	19.994	104.461	19.919	2.788	0.410
134.000	143.035	80.009	19.993	104.462	19.912	3.273	0.434
136.000	143.968	80.009	19.995	104.461	19.915	3.086	0.417
138.000	144.926	80.008	19.994	104.461	19.914	3.184	0.477
140.000	145.835	80.009	19.994	104.460	19.912	3.335	0.452
142.000	146.801	80.009	19.994	104.460	19.913	3.231	0.465
144.000	147.683	80.010	19.995	104.465	19.914	3.138	0.438
146.000	148.597	80.011	19.994	104.467	19.911	3.375	0.462
148.000	149.533	80.009	19.993	104.471	19.915	3.065	0.471
150.000	150.473	80.009	19.993	104.464	19.916	3.002	0.486
152.000	151.376	80.009	19.992	104.455	19.914	3.163	0.446
154.000	152.298	80.010	19.993	104.462	19.914	3.169	0.452
156.000	153.283	80.010	19.994	104.458	19.916	2.994	0.482
158.000	154.214	80.009	19.993	104.457	19.912	3.335	0.471
160.000	155.137	80.009	19.994	104.458	19.914	3.146	0.492
162.000	156.079	80.009	19.994	104.457	19.917	2.904	0.470
164.000	157.041	80.009	19.994	104.458	19.913	3.260	0.491
166.000	158.019	80.009	19.994	104.456	19.912	3.296	0.494
168.000	158.984	80.008	19.994	104.458	19.913	3.250	0.472
170.000	159.930	80.010	19.994	104.456	19.916	2.996	0.480
172.000	160.926	80.009	19.993	104.456	19.911	3.356	0.497
174.000	161.909	80.009	19.993	104.456	19.913	3.208	0.500
176.000	162.881	80.010	19.992	104.457	19.911	3.346	0.481
178.000	163.873	80.011	19.993	104.453	19.913	3.202	0.519
180.000	164.844	80.009	19.993	104.457	19.913	3.217	0.472
182.000	165.844	80.011	19.993	104.457	19.913	3.233	0.487
184.000	166.815	80.010	19.994	104.458	19.915	3.073	0.490
186.000	167.784	80.010	19.994	104.458	19.915	3.038	0.489
188.000	168.749	80.007	19.993	104.459	19.913	3.217	0.481
190.000	169.775	80.009	19.992	104.460	19.916	2.996	0.509
192.001	170.735	80.010	19.993	104.459	19.915	3.089	0.464
194.000	171.704	80.011	19.993	104.455	19.913	3.185	0.492
196.000	172.741	80.011	19.993	104.455	19.914	3.183	0.504
198.000	173.748	80.013	19.993	104.458	19.912	3.264	0.519
200.000	174.686	80.011	19.993	104.454	19.914	3.154	0.479
202.000	175.648	80.011	19.993	104.443	19.917	2.923	0.493
204.000	176.660	80.011	19.994	104.448	19.913	3.212	0.487
206.000	177.676	80.010	19.994	104.448	19.916	2.966	0.508
208.000	178.675	80.011	19.993	104.433	19.912	3.280	0.499
210.000	179.617	80.010	19.993	104.439	19.917	2.955	0.441
212.000	180.665	80.009	19.992	104.441	19.915	3.075	0.494
214.000	181.686	80.007	19.995	104.438	19.919	2.743	0.519
216.000	182.634	80.009	19.994	104.441	19.913	3.212	0.463
218.000	183.664	80.009	19.994	104.429	19.912	3.322	0.515
220.000	184.662	80.010	19.995	104.425	19.910	3.447	0.524
222.000	185.649	80.010	19.993	104.426	19.914	3.110	0.500
224.000	186.674	80.009	19.994	104.432	19.915	3.045	0.518
226.000	187.702	80.009	19.993	104.422	19.912	3.297	0.514
228.000	188.673	80.009	19.994	104.433	19.912	3.262	0.505
230.000	189.666	80.009	19.995	104.444	19.912	3.276	0.517
232.000	190.668	80.008	19.995	104.441	19.918	2.810	0.482
234.000	191.656	80.009	19.994	104.422	19.914	3.170	0.487
236.000	192.689	80.008	19.994	104.421	19.916	3.028	0.527
238.000	193.680	80.008	19.994	104.421	19.915	3.066	0.502
240.000	194.652	80.008	19.995	104.422	19.918	2.829	0.491
242.000	195.665	80.009	19.996	104.418	19.915	3.053	0.501
244.000	196.617	80.008	19.994	104.422	19.917	2.926	0.524
246.000	197.625	80.008	19.994	104.423	19.915	3.085	0.504
248.000	198.646	80.008	19.994	104.419	19.915	3.080	0.509
250.000	199.586	80.009	19.994	104.421	19.913	3.199	0.480
252.000	200.589	80.009	19.993	104.419	19.915	3.035	0.500
254.000	201.627	80.009	19.994	104.421	19.919	2.760	0.541
256.001	202.599	80.010	19.993	104.423	19.915	3.066	0.487
258.000	203.579	80.010	19.993	104.421	19.911	3.343	0.493
260.000	204.575	80.009	19.993	104.422	19.911	3.401	0.502
262.000	205.556	80.009	19.993	104.420	19.909	3.505	0.492
264.000	206.568	80.009	19.993	104.421	19.911	3.361	0.504
266.000	207.581	80.009	19.994	104.424	19.913	3.247	0.495
268.000	208.535	80.010	19.994	104.426	19.910	3.440	0.478
270.000	209.498	80.010	19.993	104.423	19.911	3.353	0.433
272.000	210.531	80.008	19.992	104.421	19.913	3.211	0.486
274.000	211.495	80.009	19.994	104.426	19.909	3.534	0.492
276.000	212.432	80.011	19.992	104.418	19.911	3.378	0.504
278.000	213.420	80.010	19.994	104.416	19.910	3.474	0.492
280.000	214.444	80.011	19.994	104.418	19.911	3.394	0.514
282.000	215.438	80.012	19.994	104.416	19.908	3.571	0.510
284.000	216.423	80.010	19.993	104.416	19.908	3.592	0.509
286.000	217.403	80.013	19.993	104.415	19.905	3.807	0.514
288.000	218.426	80.012	19.992	104.416	19.910	3.463	0.487
290.000	219.349	80.013	19.994	104.417	19.904	3.925	0.476
292.000	220.347	80.011	19.992	104.414	19.910	3.465	0.487
294.000	221.384	80.013	19.995	104.414	19.907	3.675	0.528
296.000	222.308	80.009	19.994	104.416	19.903	3.944	0.512
298.000	223.324	80.008	19.993	104.414	19.906	3.763	0.465
300.000	224.322	80.009	19.994	104.416	19.902	4.071	0.502
302.000	225.319	80.008	19.993	104.417	19.907	3.663	0.520
304.000	226.291	80.007	19.993	104.417	19.913	3.253	0.493
306.000	227.270	80.008	19.994	104.418	19.901	4.152	0.469
308.000	228.285	80.008	19.994	104.419	19.904	3.919	0.465
310.000	229.296	80.008	19.995	104.418	19.906	3.788	0.518
312.000	230.335	80.007	19.992	104.418	19.903	3.969	0.504
314.000	231.339	80.010	19.995	104.420	19.896	4.531	0.517
316.000	232.318	80.009	19.995	104.417	19.905	3.813	0.497
318.000	233.321	80.009	19.995	104.419	19.904	3.877	0.499
320.000	234.369	80.009	19.992	104.418	19.904	3.936	0.497
322.000	235.338	80.008	19.994	104.418	19.908	3.619	0.490
324.000	236.362	80.009	19.994	104.419	19.908	3.611	0.519
326.000	237.346	80.008	19.994	104.418	19.907	3.669	0.505
328.000	238.328	80.008	19.994	104.420	19.905	3.796	0.497
330.000	239.310	80.008	19.995	104.420	19.902	4.042	0.482
332.000	240.292	80.006	19.992	104.415	19.908	3.584	0.481
334.000	241.318	80.007	19.996	104.418	19.906	3.777	0.505
336.000	242.354	80.008	19.994	104.410	19.907	3.657	0.516
338.000	243.389	80.009	19.996	104.407	19.906	3.771	0.523
340.000	244.399	80.010	19.995	104.413	19.899	4.299	0.524
342.000	245.373	80.010	19.994	104.413	19.900	4.218	0.485
344.000	246.412	80.009	19.994	104.409	19.905	3.794	0.547
346.001	247.382	80.010	19.994	104.412	19.907	3.686	0.497
348.000	248.390	80.012	19.994	104.414	19.904	3.927	0.507
350.000	249.418	80.012	19.994	104.407	19.901	4.117	0.536
352.000	250.430	80.012	19.994	104.405	19.902	4.044	0.464
354.000	251.445	80.010	19.992	104.412	19.898	4.389	0.502
356.000	252.441	80.010	19.992	104.407	19.901	4.114	0.501
358.000	253.412	80.011	19.994	104.415	19.905	3.833	0.503
360.001	254.448	80.011	19.994	104.411	19.900	4.189	0.519
362.000	255.436	80.011	19.993	104.417	19.898	4.335	0.513
364.001	256.431	80.010	19.994	104.416	19.903	3.971	0.530
366.000	257.411	80.011	19.994	104.415	19.901	4.121	0.496
368.000	258.425	80.011	19.993	104.406	19.895	4.618	0.508
370.000	259.467	80.012	19.994	104.406	19.895	4.601	0.530
372.000	260.461	80.012	19.994	104.411	19.893	4.729	0.531
374.000	261.429	80.013	19.994	104.412	19.897	4.437	0.496
376.000	262.461	80.011	19.993	104.407	19.891	4.918	0.526
378.000	263.475	80.012	19.994	104.415	19.894	4.691	0.480
380.000	264.438	80.011	19.994	104.412	19.895	4.627	0.525
382.000	265.382	80.009	19.992	104.413	19.889	5.008	0.492
384.000	266.429	80.009	19.994	104.419	19.890	4.993	0.477
386.000	267.455	80.009	19.993	104.417	19.890	4.939	0.511
388.000	268.456	80.008	19.993	104.416	19.881	5.640	0.591
390.000	269.427	80.009	19.994	104.416	19.887	5.197	0.536
392.000	270.275	80.009	19.993	104.421	19.884	5.418	0.595
394.000	271.636	80.009	19.992	104.426	19.883	5.467	0.849
396.000	272.458	80.009	19.994	104.419	19.881	5.632	0.451
398.000	273.489	80.010	19.993	104.420	19.882	5.540	0.521
400.000	274.491	80.010	19.993	104.421	19.878	5.867	0.504
402.000	275.488	80.010	19.993	104.421	19.874	6.163	0.495
404.000	276.509	80.010	19.994	104.415	19.876	6.061	0.507
406.000	277.517	80.009	19.994	104.418	19.876	6.005	0.526
408.000	278.507	80.010	19.993	104.415	19.877	5.932	0.520
410.000	279.543	80.010	19.994	104.412	19.874	6.200	0.545
412.000	280.541	80.009	19.995	104.415	19.870	6.450	0.494
414.000	281.558	80.009	19.994	104.418	19.869	6.587	0.520
416.000	282.541	80.010	19.994	104.418	19.872	6.337	0.485
418.000	283.520	80.009	19.994	104.417	19.863	7.030	0.482
420.000	284.544	80.009	19.994	104.417	19.863	7.032	0.550
422.000	285.596	80.009	19.995	104.418	19.866	6.781	0.508
424.000	286.559	80.009	19.993	104.420	19.861	7.159	0.536
426.000	287.563	80.009	19.994	104.418	19.859	7.307	0.490
428.000	288.604	80.011	19.994	104.416	19.856	7.536	0.500
430.000	289.540	80.012	19.995	104.414	19.849	8.100	0.483
432.000	290.569	80.011	19.995	104.413	19.847	8.222	0.478
434.000	291.609	80.011	19.995	104.413	19.844	8.497	0.545
436.000	292.596	80.011	19.996	104.414	19.844	8.459	0.489
438.000	293.607	80.010	19.994	104.413	19.838	8.913	0.493
440.000	294.580	80.010	19.994	104.419	19.837	8.981	0.511
442.000	295.601	80.009	19.995	104.419	19.836	9.078	0.486
444.000	296.599	80.010	19.992	104.431	19.831	9.480	0.502
446.000	297.571	80.010	19.993	104.425	19.823	10.087	0.496
448.000	298.648	80.010	19.994	104.431	19.821	10.201	0.534
450.000	299.601	80.010	19.994	104.430	19.818	10.466	0.491
452.000	300.595	80.010	19.992	104.430	19.816	10.606	0.500
454.000	301.654	80.011	19.993	104.438	19.813	10.852	0.547
456.000	302.595	80.013	19.994	104.448	19.808	11.166	0.471
458.000	303.634	80.012	19.993	104.445	19.801	11.741	0.485
460.000	304.617	80.011	19.993	104.444	19.798	11.947	0.482
462.000	305.626	80.011	19.993	104.459	19.791	12.478	0.485
464.000	306.606	80.009	19.994	104.459	19.785	12.953	0.491
466.000	307.655	80.008	19.993	104.458	19.780	13.365	0.488
468.000	308.605	80.008	19.993	104.460	19.771	14.004	0.490
470.000	309.671	80.009	19.993	104.461	19.765	14.476	0.550
472.000	310.633	80.009	19.994	104.460	19.757	15.058	0.496
474.000	311.640	80.008	19.994	104.457	19.752	15.452	0.505
476.000	312.672	80.012	19.993	104.466	19.746	15.880	0.508
478.000	313.696	80.008	19.993	104.457	19.737	16.583	0.514
480.000	314.698	80.008	19.993	104.460	19.728	17.304	0.508
482.000	315.701	80.009	19.993	104.478	19.717	18.156	0.497
484.000	316.700	80.010	19.993	104.464	19.717	18.085	0.488
486.000	317.702	80.009	19.992	104.474	19.704	19.136	0.485
488.000	318.736	80.010	19.993	104.491	19.691	20.093	0.518
490.000	319.734	80.009	19.993	104.494	19.685	20.545	0.488
492.000	320.723	80.009	19.993	104.496	19.676	21.234	0.478
494.000	321.732	80.008	19.993	104.496	19.663	22.226	0.486
496.000	322.778	80.009	19.993	104.498	19.649	23.278	0.506
498.000	323.837	80.007	19.994	104.504	19.636	24.283	0.524
500.000	324.789	80.009	19.995	104.509	19.623	25.250	0.510
502.000	325.742	80.008	19.996	104.513	19.612	26.134	0.470
504.000	326.805	80.009	19.995	104.533	19.592	27.640	0.516
506.000	327.789	80.010	19.996	104.534	19.574	29.029	0.494
508.000	328.743	80.009	19.994	104.549	19.554	30.512	0.487
510.000	329.768	80.010	19.994	104.572	19.541	31.535	0.490
512.000	330.790	80.009	19.994	104.574	19.516	33.464	0.476
514.000	331.725	80.012	19.995	104.576	19.498	34.808	0.482
516.000	332.760	80.011	19.994	104.583	19.480	36.216	0.528
518.000	333.722	80.012	19.994	104.604	19.458	37.897	0.482
520.000	334.761	80.010	19.994	104.605	19.429	40.081	0.520
522.000	335.703	80.012	19.994	104.615	19.404	41.956	0.488
524.000	336.716	80.010	19.994	104.624	19.374	44.256	0.495
526.000	337.693	80.010	19.995	104.650	19.341	46.789	0.474
528.000	338.735	80.009	19.994	104.651	19.302	49.770	0.504
530.000	339.662	80.009	19.994	104.667	19.266	52.534	0.463
532.000	340.682	80.010	19.995	104.693	19.229	55.369	0.515
534.000	341.701	80.011	19.994	104.709	19.196	57.886	0.527
536.000	342.658	80.010	19.993	104.727	19.151	61.328	0.488
538.000	343.663	80.012	19.995	104.737	19.115	64.101	0.501
540.000	344.617	80.012	19.994	104.761	19.065	67.948	0.504
542.000	345.608	80.013	19.993	104.782	19.012	72.011	0.503
544.000	346.575	80.012	19.993	104.796	18.965	75.610	0.454
546.000	347.571	80.011	19.992	104.819	18.908	79.932	0.488
548.000	348.614	80.012	19.994	104.846	18.855	83.996	0.523
550.000	349.577	80.010	19.995	104.880	18.791	88.955	0.504
552.000	350.624	80.010	19.993	104.892	18.732	93.400	0.495
554.000	351.652	80.011	19.993	104.912	18.674	97.901	0.532
556.000	352.628	80.010	19.994	104.941	18.608	102.934	0.497
558.000	353.649	80.009	19.993	104.965	18.532	108.773	0.477
560.000	354.687	80.011	19.994	104.993	18.464	113.993	0.504
562.000	355.708	80.010	19.993	105.005	18.400	118.933	0.525
564.000	356.665	80.010	19.993	105.020	18.335	123.891	0.478
566.000	357.698	80.010	19.993	105.056	18.268	129.058	0.522
568.000	358.757	80.010	19.993	105.085	18.201	134.174	0.551
570.000	359.760	80.010	19.993	105.105	18.135	139.236	0.536
572.000	360.774	80.009	19.994	105.121	18.069	144.261	0.508
574.000	361.801	80.010	19.993	105.131	18.009	148.784	0.523
576.000	362.837	80.009	19.994	105.142	17.957	152.755	0.521
578.000	363.925	80.012	19.995	105.156	17.908	156.491	0.571
580.000	364.940	80.009	19.994	105.145	17.864	159.781	0.528
582.000	365.995	80.010	19.994	105.146	17.835	161.971	0.547
584.000	367.023	80.009	19.994	105.139	17.812	163.671	0.548
586.000	368.034	80.009	19.994	105.117	17.801	164.385	0.499
588.000	369.062	80.010	19.994	105.099	17.805	164.023	0.498
590.000	370.136	80.010	19.995	105.073	17.816	163.109	0.545
592.000	371.201	80.011	19.993	105.035	17.847	160.720	0.540
594.001	372.257	80.010	19.993	105.003	17.892	157.165	0.544
596.000	373.343	80.011	19.995	104.971	17.950	152.668	0.549
598.000	374.409	80.012	19.992	104.908	18.026	146.785	0.529
600.000	375.459	80.010	19.994	104.864	18.115	139.940	0.506
602.000	376.551	80.012	19.995	104.815	18.218	132.093	0.556
604.000	377.626	80.012	19.995	104.759	18.326	123.852	0.530
606.000	378.677	80.012	19.994	104.703	18.455	114.029	0.556
608.000	379.763	80.010	19.994	104.660	18.591	103.637	0.547
610.000	380.808	80.010	19.993	104.597	18.724	93.496	0.542
612.000	381.872	80.010	19.993	104.557	18.856	83.455	0.541
614.000	382.978	80.013	19.994	104.522	18.989	73.364	0.560
616.000	384.034	80.012	19.993	104.489	19.116	63.711	0.551
618.000	385.083	80.014	19.994	104.459	19.230	55.036	0.540
620.000	386.200	80.013	19.993	104.439	19.344	46.375	0.551
622.000	387.252	80.012	19.995	104.407	19.442	38.985	0.545
624.000	388.336	80.013	19.994	104.395	19.524	32.715	0.533
626.000	389.386	80.012	19.994	104.377	19.603	26.749	0.512
628.000	390.454	80.013	19.994	104.360	19.666	21.944	0.541
630.000	391.488	80.011	19.994	104.354	19.721	17.804	0.520
632.000	392.552	80.011	19.993	104.344	19.765	14.458	0.514
634.000	393.640	80.011	19.995	104.361	19.803	11.570	0.537
636.000	394.685	80.011	19.994	104.373	19.826	9.844	0.529
638.000	395.732	80.010	19.995	104.368	19.846	8.322	0.541
640.001	396.801	80.010	19.994	104.345	19.863	7.016	0.534
642.000	397.800	80.010	19.994	104.363	19.873	6.237	0.472
644.000	398.907	80.009	19.993	104.367	19.880	5.724	0.551
646.000	399.924	80.010	19.993	104.351	19.887	5.184	0.519
648.000	400.968	80.011	19.994	104.356	19.896	4.495	0.496
650.000	402.012	80.011	19.994	104.350	19.898	4.381	0.516
652.000	403.058	80.010	19.994	104.366	19.900	4.202	0.532
654.000	404.077	80.011	19.994	104.361	19.904	3.876	0.523
656.000	405.081	80.010	19.993	104.364	19.904	3.930	0.503
658.000	406.075	80.011	19.993	104.357	19.908	3.611	0.491
660.000	407.106	80.010	19.993	104.362	19.906	3.782	0.507
662.000	408.119	80.010	19.993	104.364	19.909	3.530	0.511
664.000	409.169	80.010	19.994	104.373	19.909	3.510	0.498
666.000	410.154	80.010	19.994	104.374	19.912	3.270	0.497
668.000	411.192	80.011	19.993	104.368	19.906	3.724	0.513
670.000	412.202	80.010	19.994	104.367	19.906	3.755	0.506
672.000	413.195	80.009	19.994	104.360	19.911	3.366	0.505
674.000	414.164	80.009	19.994	104.372	19.906	3.740	0.484
676.000	415.140	80.011	19.994	104.371	19.914	3.126	0.491
678.000	416.113	80.012	19.993	104.374	19.911	3.345	0.494
680.000	417.183	80.011	19.993	104.369	19.908	3.574	0.516
682.000	418.135	80.012	19.992	104.377	19.916	2.981	0.516
684.000	419.118	80.013	19.993	104.369	19.909	3.561	0.460
686.000	420.136	80.013	19.994	104.354	19.908	3.567	0.504
688.000	421.126	80.013	19.994	104.356	19.911	3.343	0.479
690.000	422.120	80.011	19.993	104.367	19.913	3.236	0.493
692.000	423.118	80.011	19.994	104.359	19.912	3.299	0.514
694.000	424.104	80.012	19.994	104.355	19.914	3.151	0.482
696.000	425.087	80.011	19.994	104.352	19.913	3.245	0.473
698.000	426.068	80.013	19.995	104.362	19.916	3.018	0.510
700.000	427.091	80.011	19.994	104.362	19.916	3.018	0.489
702.000	428.062	80.012	19.994	104.349	19.916	2.958	0.484
704.000	429.057	80.011	19.995	104.355	19.914	3.135	0.493
706.000	430.075	80.012	19.994	104.351	19.913	3.184	0.501
708.000	431.041	80.014	19.995	104.348	19.920	2.669	0.508
710.000	432.040	80.013	19.993	104.343	19.916	2.958	0.472
712.000	433.049	80.011	19.992	104.353	19.913	3.257	0.488
714.000	434.052	80.011	19.993	104.357	19.915	3.058	0.515
716.000	435.023	80.011	19.993	104.359	19.917	2.897	0.491
718.000	435.988	80.008	19.993	104.354	19.915	3.097	0.466
720.000	436.989	80.010	19.994	104.350	19.915	3.049	0.493
722.000	437.972	80.008	19.994	104.348	19.918	2.831	0.486
724.000	438.945	80.009	19.994	104.351	19.912	3.307	0.505
726.000	439.915	80.009	19.995	104.352	19.918	2.875	0.464
728.000	440.882	80.009	19.995	104.357	19.915	3.064	0.450
730.000	441.933	80.009	19.994	104.359	19.913	3.247	0.515
732.000	442.870	80.009	19.995	104.363	19.917	2.883	0.473
734.000	443.889	80.009	19.995	104.352	19.917	2.954	0.498
736.000	444.870	80.011	19.994	104.375	19.914	3.112	0.526
738.000	445.831	80.011	19.993	104.365	19.917	2.908	0.462
740.000	446.827	80.011	19.994	104.353	19.915	3.039	0.487
742.000	447.822	80.010	19.993	104.356	19.918	2.860	0.482
744.000	448.825	80.011	19.993	104.366	19.916	2.962	0.510
746.000	449.873	80.010	19.994	104.371	19.915	3.054	0.528
748.000	450.855	80.009	19.994	104.360	19.916	2.968	0.496
750.000	451.804	80.010	19.993	104.368	19.917	2.935	0.471
752.000	452.814	80.007	19.993	104.367	19.915	3.035	0.474
754.000	453.816	80.010	19.995	104.362	19.920	2.654	0.486
756.000	454.832	80.010	19.995	104.349	19.919	2.774	0.497
758.000	455.816	80.010	19.994	104.362	19.924	2.396	0.493
760.000	456.837	80.010	19.993	104.355	19.920	2.700	0.513
762.000	457.841	80.010	19.994	104.360	19.921	2.650	0.524
764.000	458.823	80.011	19.994	104.355	19.923	2.452	0.509
766.000	459.844	80.011	19.994	104.344	19.922	2.519	0.499
768.000	460.877	80.012	19.993	104.347	19.919	2.783	0.516
770.000	461.846	80.011	19.993	104.345	19.920	2.718	0.496
772.000	462.883	80.011	19.993	104.349	19.919	2.741	0.486
774.000	463.883	80.011	19.993	104.352	19.922	2.542	0.497
776.000	464.863	80.012	19.993	104.351	19.921	2.646	0.491
778.000	465.884	80.011	19.992	104.357	19.922	2.571	0.508
780.000	466.899	80.010	19.992	104.348	19.923	2.431	0.534
782.000	467.909	80.012	19.993	104.344	19.925	2.342	0.498
784.000	468.927	80.012	19.992	104.353	19.923	2.438	0.514
786.000	469.952	80.011	19.992	104.356	19.920	2.656	0.539
788.000	471.016	80.013	19.993	104.357	19.923	2.490	0.539
790.000	471.986	80.013	19.993	104.354	19.924	2.348	0.499
792.000	473.047	80.011	19.993	104.345	19.927	2.153	0.549
794.000	474.097	80.013	19.993	104.343	19.924	2.363	0.533
796.000	475.154	80.011	19.994	104.350	19.922	2.506	0.539
798.000	476.185	80.011	19.993	104.361	19.930	1.918	0.558
800.000	477.159	80.012	19.993	104.349	19.927	2.165	0.491
802.000	478.198	80.009	19.994	104.346	19.929	2.005	0.527
804.000	479.212	80.009	19.993	104.342	19.930	1.918	0.501
806.000	480.269	80.010	19.994	104.352	19.929	1.999	0.523
808.000	481.299	80.008	19.993	104.351	19.928	2.092	0.511
810.000	482.326	80.009	19.993	104.342	19.928	2.101	0.512
812.000	483.376	80.009	19.993	104.339	19.932	1.816	0.578
814.000	484.437	80.011	19.994	104.344	19.931	1.818	0.524
816.000	485.460	80.009	19.994	104.346	19.928	2.048	0.517
818.000	486.487	80.009	19.994	104.342	19.931	1.826	0.508
820.000	487.503	80.010	19.994	104.347	19.928	2.049	0.501
822.000	488.556	80.009	19.994	104.344	19.930	1.965	0.520
824.000	489.594	80.012	19.995	104.341	19.928	2.078	0.526
826.000	490.663	80.009	19.995	104.338	19.931	1.880	0.540
828.000	491.697	80.010	19.996	104.337	19.933	1.703	0.546
830.000	492.736	80.010	19.995	104.340	19.931	1.820	0.544
832.000	493.783	80.010	19.994	104.346	19.934	1.662	0.531
834.000	494.840	80.010	19.994	104.341	19.931	1.847	0.542
836.000	495.854	80.009	19.994	104.340	19.932	1.747	0.500
838.000	496.890	80.013	19.994	104.341	19.930	1.965	0.538
840.000	497.936	80.010	19.993	104.341	19.929	1.982	0.524
842.000	499.023	80.012	19.994	104.342	19.934	1.589	0.543
844.000	500.001	80.009	19.993	104.345	19.932	1.774	0.490
846.000	501.065	80.011	19.994	104.342	19.935	1.522	0.480
848.000	502.105	80.011	19.993	104.342	19.933	1.689	0.509
850.000	503.148	80.012	19.994	104.340	19.932	1.770	0.506
852.000	504.195	80.014	19.993	104.349	19.928	2.067	0.522
854.000	505.228	80.010	19.993	104.343	19.930	1.897	0.513
856.000	506.293	80.012	19.993	104.342	19.933	1.672	0.535
858.000	507.327	80.011	19.992	104.341	19.933	1.705	0.539
860.000	508.345	80.011	19.993	104.343	19.935	1.572	0.509
862.000	509.395	80.009	19.993	104.344	19.932	1.793	0.501
864.000	510.449	80.011	19.993	104.346	19.931	1.847	0.519
866.000	511.391	80.010	19.993	104.344	19.930	1.893	0.493
868.000	512.440	80.010	19.994	104.344	19.929	1.988	0.520
870.000	513.522	80.010	19.994	104.344	19.932	1.813	0.552
872.000	514.593	80.012	19.992	104.342	19.932	1.805	0.539
874.000	515.632	80.014	19.994	104.343	19.934	1.664	0.515
876.000	516.663	80.015	19.994	104.339	19.935	1.581	0.504
878.000	517.694	80.013	19.993	104.339	19.937	1.368	0.498
880.000	518.708	80.014	19.993	104.339	19.934	1.591	0.497
882.000	519.746	80.012	19.994	104.339	19.937	1.429	0.523
884.000	520.786	80.011	19.993	104.339	19.936	1.502	0.530
886.000	521.805	80.011	19.993	104.344	19.937	1.371	0.519
888.000	522.825	80.012	19.995	104.342	19.938	1.319	0.499
890.000	523.906	80.011	19.994	104.341	19.938	1.314	0.562
892.000	524.913	80.012	19.993	104.339	19.937	1.383	0.534
894.000	525.903	80.008	19.995	104.340	19.940	1.190	0.525
896.000	526.928	80.012	19.994	104.342	19.939	1.279	0.522
898.000	527.975	80.010	19.994	104.341	19.939	1.269	0.507
900.001	529.013	80.009	19.995	104.341	19.939	1.265	0.517
902.000	530.046	80.010	19.994	104.340	19.939	1.235	0.517
904.000	531.038	80.009	19.995	104.341	19.938	1.306	0.503
906.000	532.067	80.010	19.994	104.347	19.942	0.984	0.519
908.001	533.071	80.010	19.994	104.343	19.938	1.339	0.493
910.000	534.124	80.011	19.994	104.345	19.940	1.181	0.551
912.000	535.106	80.010	19.993	104.343	19.939	1.256	0.490
914.000	536.112	80.009	19.994	104.345	19.939	1.279	0.531
916.000	537.106	80.010	19.996	104.350	19.938	1.306	0.500
918.000	538.129	80.008	19.995	104.345	19.937	1.371	0.515
920.000	539.136	80.009	19.994	104.343	19.937	1.425	0.535
922.000	540.134	80.009	19.996	104.344	19.939	1.275	0.495
924.000	541.177	80.005	19.994	104.341	19.936	1.485	0.521
926.000	542.165	80.010	19.994	104.342	19.938	1.308	0.523
928.000	543.180	80.009	19.994	104.346	19.939	1.242	0.530
930.000	544.168	80.012	19.992	104.343	19.937	1.427	0.494
932.000	545.159	80.011	19.992	104.344	19.937	1.420	0.507
934.000	546.186	80.008	19.995	104.345	19.939	1.217	0.499
936.000	547.198	80.011	19.993	104.341	19.940	1.175	0.512
938.000	548.214	80.013	19.992	104.347	19.939	1.215	0.514
940.000	549.270	80.011	19.992	104.342	19.936	1.487	0.523
942.000	550.241	80.011	19.993	104.339	19.937	1.364	0.523
944.000	551.309	80.012	19.992	104.339	19.937	1.362	0.534
946.000	552.288	80.010	19.993	104.341	19.941	1.131	0.504
948.000	553.305	80.010	19.994	104.340	19.939	1.246	0.541
950.000	554.424	80.012	19.993	104.339	19.938	1.337	0.554
952.000	555.434	80.012	19.994	104.336	19.940	1.146	0.535
954.000	556.442	80.011	19.993	104.341	19.941	1.131	0.514
956.000	557.472	80.012	19.994	104.339	19.939	1.223	0.517
958.001	558.489	80.013	19.994	104.339	19.939	1.229	0.502
960.000	559.590	80.013	19.993	104.337	19.938	1.316	0.538
962.000	560.583	80.014	19.992	104.341	19.937	1.402	0.520
964.000	561.609	80.012	19.993	104.339	19.938	1.285	0.510
966.000	562.653	80.012	19.992	104.341	19.942	1.025	0.548
968.000	563.677	80.012	19.993	104.339	19.942	1.052	0.529
970.000	564.649	80.010	19.994	104.337	19.939	1.235	0.491
972.000	565.681	80.009	19.993	104.339	19.941	1.071	0.494
974.000	566.701	80.012	19.993	104.345	19.937	1.427	0.536
976.001	567.739	80.011	19.993	104.342	19.939	1.229	0.483
978.000	568.776	80.012	19.993	104.345	19.941	1.106	0.550
980.000	569.814	80.008	19.994	104.343	19.943	0.953	0.533
982.000	570.819	80.009	19.993	104.343	19.940	1.159	0.492
984.000	571.854	80.007	19.994	104.348	19.940	1.173	0.498
986.000	572.863	80.012	19.994	104.344	19.939	1.283	0.525
988.000	573.897	80.010	19.993	104.341	19.937	1.389	0.498
990.000	574.983	80.011	19.996	104.341	19.942	0.986	0.581
992.000	576.020	80.007	19.995	104.344	19.943	0.913	0.514
994.000	577.036	80.011	19.995	104.360	19.941	1.075	0.532
996.000	578.044	80.011	19.995	104.354	19.940	1.133	0.521
998.000	579.034	80.012	19.994	104.343	19.941	1.081	0.477
1000.000	580.037	80.009	19.994	104.343	19.943	0.961	0.517
1002.000	581.052	80.009	19.993	104.341	19.942	1.032	0.529
1004.000	582.144	80.009	19.992	104.342	19.943	0.921	0.535
1006.000	583.075	80.011	19.993	104.341	19.941	1.088	0.466
1008.000	584.073	80.010	19.995	104.340	19.940	1.194	0.462
1010.000	585.063	80.011	19.993	104.343	19.942	1.009	0.484
1012.000	586.073	80.013	19.993	104.342	19.943	0.965	0.501
1014.000	587.072	80.012	19.994	104.343	19.942	1.057	0.482
1016.000	588.132	80.011	19.996	104.338	19.943	0.913	0.535
1018.000	589.201	80.013	19.993	104.340	19.939	1.240	0.529
1020.000	590.224	80.011	19.995	104.340	19.941	1.125	0.530
1022.000	591.251	80.010	19.996	104.337	19.940	1.169	0.508
1024.001	592.377	80.013	19.994	104.339	19.940	1.200	0.542
1026.000	593.468	80.012	19.995	104.346	19.939	1.281	0.606
1028.000	594.567	80.012	19.993	104.337	19.940	1.200	0.542
1030.000	595.651	80.016	19.991	104.345	19.941	1.092	0.548
1032.000	596.737	80.010	19.994	104.340	19.943	0.963	0.528
1034.000	597.829	80.009	19.994	104.341	19.939	1.265	0.559
1036.000	598.951	80.011	19.996	104.339	19.940	1.148	0.552
1038.000	600.082	80.011	19.993	104.347	19.940	1.152	0.561
1040.002	601.181	80.008	19.992	104.344	19.935	1.556	0.550
1042.000	602.283	80.010	19.995	104.344	19.940	1.156	0.554
1044.000	603.396	80.010	19.993	104.352	19.939	1.252	0.543
1046.000	604.524	80.015	19.993	104.342	19.940	1.196	0.580
1048.000	605.610	80.007	19.986	104.348	19.942	1.025	0.537
1050.000	606.723	80.010	19.992	104.341	19.940	1.194	0.547
1052.000	607.788	80.010	19.990	104.342	19.939	1.233	0.549
1054.000	608.937	80.008	19.994	104.349	19.939	1.256	0.554
1056.000	610.046	80.011	19.993	104.346	19.940	1.171	0.550
1058.000	611.137	80.010	19.994	104.350	19.941	1.094	0.567
1060.000	612.229	80.010	19.993	104.346	19.945	0.757	0.538
1062.000	613.362	80.013	19.992	104.345	19.942	0.986	0.551
1064.000	614.482	80.010	19.991	104.343	19.940	1.206	0.580
1066.000	615.529	80.009	19.989	104.342	19.939	1.242	0.548
1068.000	616.680	80.009	19.997	104.349	19.942	0.998	0.576
1070.000	617.738	80.011	19.987	104.354	19.942	1.032	0.562
1072.000	618.773	80.006	19.999	104.347	19.940	1.156	0.516
1074.000	619.894	80.011	19.994	104.340	19.942	1.017	0.554
1076.000	620.977	80.013	19.991	104.340	19.941	1.100	0.529
1078.000	622.034	80.008	19.992	104.343	19.942	1.007	0.513
1080.000	623.093	80.010	19.993	104.341	19.942	1.021	0.535
1082.000	624.181	80.010	19.996	104.339	19.942	1.046	0.529
1084.000	625.232	80.016	19.992	104.340	19.942	0.984	0.560
1086.000	626.305	80.009	19.992	104.336	19.943	0.907	0.542
1088.000	627.361	80.011	19.995	104.337	19.942	1.029	0.537
1090.000	628.399	80.009	19.992	104.341	19.943	0.959	0.534
1092.000	629.461	80.008	19.994	104.342	19.940	1.202	0.557
1094.000	630.504	80.012	19.993	104.343	19.946	0.751	0.504
1096.000	631.493	80.002	19.999	104.342	19.941	1.119	0.484
1098.000	632.557	80.013	19.997	104.331	19.940	1.165	0.515
1100.000	633.579	80.012	19.994	104.335	19.945	0.828	0.504
1102.000	634.628	80.017	19.992	104.337	19.943	0.946	0.501
1104.000	635.633	80.012	19.994	104.339	19.945	0.794	0.499
1106.000	636.721	80.000	19.994	104.339	19.946	0.745	0.540
1108.000	637.753	80.014	19.995	104.335	19.944	0.905	0.554
1110.000	638.762	80.015	19.994	104.337	19.942	0.994	0.544
1112.000	639.779	80.018	19.993	104.341	19.945	0.805	0.510
1114.000	640.776	80.011	19.992	104.347	19.946	0.728	0.485
1116.000	641.781	80.008	19.997	104.338	19.948	0.595	0.505
1118.000	642.794	80.009	19.996	104.335	19.950	0.391	0.486
1120.000	643.831	80.013	19.994	104.340	19.947	0.674	0.516
1122.000	644.802	80.012	19.994	104.338	19.943	0.950	0.500
1124.000	645.768	80.015	19.997	104.334	19.947	0.668	0.469
1126.000	646.778	80.014	19.991	104.336	19.948	0.549	0.509
1128.000	647.796	80.021	19.989	104.336	19.947	0.645	0.537
1130.000	648.768	80.012	19.993	104.339	19.946	0.734	0.484
1132.000	649.839	80.019	19.992	104.335	19.945	0.759	0.542
1134.000	650.816	80.013	19.996	104.338	19.948	0.541	0.499
1136.001	651.774	80.004	19.991	104.337	19.949	0.514	0.473
1138.000	652.822	80.017	19.992	104.335	19.948	0.557	0.510
1140.001	653.822	80.017	19.992	104.334	19.955	0.058	0.514
1142.000	654.816	80.008	19.993	104.324	19.947	0.641	0.482
1144.000	655.845	80.013	19.990	104.334	19.946	0.751	0.510
1146.000	656.830	80.003	19.993	104.336	19.952	0.264	0.501
1148.001	657.828	80.006	19.990	104.331	19.949	0.491	0.511
1150.000	658.813	80.018	19.991	104.332	19.949	0.485	0.525
1152.000	659.843	80.011	19.994	104.339	19.947	0.622	0.512
1154.001	660.808	80.015	19.993	104.339	19.946	0.734	0.497
1156.000	661.905	80.010	19.993	104.335	19.946	0.740	0.523
1158.000	662.822	80.026	19.993	104.336	19.944	0.875	0.517
1160.000	663.874	80.027	19.991	104.344	19.944	0.878	0.507
1162.000	664.848	79.998	19.992	104.334	19.946	0.728	0.488
1164.000	665.840	80.027	19.996	104.339	19.946	0.686	0.508
1166.001	666.863	80.015	19.992	104.337	19.948	0.576	0.473
1168.001	667.848	79.998	19.997	104.338	19.946	0.724	0.535
1170.000	668.765	80.016	19.996	104.332	19.944	0.876	0.500
1172.000	669.817	80.010	19.994	104.322	19.950	0.395	0.561
1174.001	670.840	80.017	19.994	104.329	19.947	0.638	0.522
1176.001	671.768	80.013	19.994	104.341	19.944	0.876	0.492
1178.000	672.757	80.006	19.995	104.340	19.947	0.674	0.506
1180.001	673.776	80.008	19.995	104.342	19.947	0.668	0.539
1182.001	674.750	80.012	19.992	104.332	19.944	0.871	0.465
1184.000	675.742	80.009	19.994	104.341	19.945	0.774	0.479
1186.001	676.742	80.009	19.994	104.339	19.946	0.680	0.513
1188.000	677.717	80.014	19.995	104.340	19.949	0.497	0.478
1190.000	678.712	80.012	19.994	104.340	19.942	0.990	0.511
1192.000	679.701	80.007	19.996	104.342	19.946	0.734	0.507
1194.000	680.679	80.009	19.993	104.340	19.945	0.797	0.498
1196.001	681.653	80.009	19.993	104.344	19.947	0.622	0.476
1198.001	682.643	80.013	19.992	104.340	19.941	1.115	0.499
1200.000	683.597	80.006	19.994	104.335	19.943	0.934	0.481
1202.000	684.651	80.010	19.994	104.342	19.944	0.855	0.543
1204.000	685.622	80.004	19.995	104.339	19.947	0.672	0.546
1206.000	686.616	80.017	19.990	104.330	19.951	0.347	0.515
1208.000	687.577	80.014	19.994	104.326	19.946	0.682	0.490
1210.001	688.580	80.020	19.995	104.333	19.946	0.688	0.517
1212.000	689.549	80.029	20.000	104.337	19.946	0.697	0.527
1214.000	690.540	80.014	19.992	104.334	19.945	0.761	0.499
1216.000	691.528	80.009	19.995	104.334	19.948	0.591	0.487
1218.000	692.516	80.013	19.993	104.333	19.942	1.002	0.494
1220.000	693.554	80.009	19.994	104.341	19.947	0.611	0.490
1222.000	694.549	80.014	19.993	104.333	19.944	0.905	0.508
1224.000	695.540	80.012	19.995	104.341	19.948	0.601	0.497
1226.000	696.565	80.006	19.993	104.336	19.944	0.886	0.503
1228.001	697.553	80.002	19.997	104.338	19.946	0.745	0.495
1230.000	698.576	80.016	19.993	104.330	19.941	1.079	0.534
1232.000	699.565	80.007	19.992	104.330	19.943	0.919	0.480
1234.000	700.552	80.011	19.998	104.333	19.945	0.763	0.486
1236.000	701.547	80.010	19.993	104.334	19.946	0.709	0.496
1238.000	702.531	80.017	19.994	104.339	19.944	0.886	0.442
1240.000	703.501	80.018	19.992	104.337	19.942	1.027	0.489
1242.000	704.496	80.016	19.993	104.342	19.945	0.799	0.493
1244.001	705.443	80.006	19.994	104.341	19.944	0.873	0.443
1246.000	706.438	80.013	19.995	104.349	19.943	0.973	0.484
1248.000	707.375	80.017	19.993	104.341	19.944	0.867	0.477
1250.000	708.336	80.011	19.994	104.334	19.946	0.715	0.456
1252.000	709.339	80.009	19.992	104.339	19.946	0.713	0.476
1254.000	710.230	80.012	19.994	104.334	19.945	0.828	0.449
1256.001	711.259	80.011	19.989	104.336	19.946	0.734	0.491
1258.000	712.239	80.014	19.994	104.340	19.946	0.751	0.471
1260.001	713.190	80.018	19.991	104.338	19.942	1.009	0.499
1262.000	714.165	80.011	19.995	104.343	19.946	0.734	0.475
1264.001	715.194	80.016	19.991	104.341	19.945	0.786	0.520
1266.001	716.239	80.014	19.993	104.346	19.946	0.699	0.528
1268.000	717.183	80.016	19.993	104.341	19.946	0.699	0.480
1270.000	718.171	80.008	19.992	104.343	19.943	0.940	0.499
1272.001	719.145	80.011	19.994	104.338	19.944	0.842	0.457
1274.000	720.146	80.007	19.997	104.341	19.944	0.873	0.492
1276.001	721.176	80.009	19.993	104.333	19.942	0.988	0.511
1278.000	722.167	79.999	19.998	104.337	19.941	1.102	0.495
1280.001	723.196	80.008	19.992	104.329	19.943	0.938	0.520
1282.001	724.187	80.008	19.995	104.328	19.942	1.054	0.473
1284.001	725.198	80.010	19.994	104.332	19.944	0.873	0.507
1286.000	726.185	80.001	19.994	104.333	19.939	1.227	0.480
1288.000	727.229	80.020	19.993	104.328	19.937	1.362	0.499
1290.000	728.239	80.015	19.994	104.334	19.938	1.323	0.493
1292.001	729.244	80.004	19.994	104.334	19.938	1.346	0.543
1294.000	730.257	80.027	19.997	104.339	19.941	1.129	0.484
1296.001	731.314	80.021	19.993	104.329	19.941	1.059	0.471
1298.000	732.296	80.016	19.997	104.325	19.943	0.942	0.518
1300.001	733.353	80.007	19.994	104.333	19.943	0.925	0.538
1302.001	734.366	80.019	19.993	104.385	19.940	1.150	0.519
1304.001	735.388	80.015	19.994	104.348	19.943	0.975	0.531
1306.000	736.383	79.997	19.996	104.338	19.941	1.100	0.513
1308.001	737.439	80.004	19.994	104.337	19.940	1.162	0.513
1310.000	738.447	80.008	19.995	104.338	19.941	1.083	0.483
1312.000	739.502	80.011	19.992	104.337	19.945	0.824	0.519
1314.000	740.465	80.009	19.996	104.338	19.941	1.127	0.492
1316.001	741.534	80.010	19.991	104.334	19.941	1.063	0.547
1318.000	742.521	80.009	19.995	104.325	19.943	0.921	0.520
1320.000	743.543	80.010	19.993	104.301	19.939	1.267	0.517