File: 01_Data/Rubber_Foam_Pipe_Insulation/Cone/Rubber_Foam_Pipe_Insulation_Cone_HF25Scan_220307_R1.csv
Names,Time,Stack TC,Smoke TC,Exh Press,Smoke Comp,Smoke Meas,CO Meter,CO2 Meter,O2 Meter,Sample Mass,Ext Coeff,Start Test,Flame Verif
Chan Gain,,500,500,1,1,1,1,1,1,1,1,1.0,1.0
Offset,,0,0,0.13378,0,0,0,0,0,0,0,0.0,0.0
Gain,,1,1,25.011,14.4955,14.6297,1,1,1,1.00092,1.00831,1.0,1.0
Units,sec,C,C,Pa,%,%,%,%,%,g,/m,,
Baseline,,19.7959,20.4549,179.313,110.51,104.088,-0.00184601,0.0386805,21.0604,-945.948,0.529631,,
2,0.25,18.1282,19.1679,179.336,110.216,102.189,-0.00128755,0.0411203,21.0561,-66.4908,0.6689,0.0,0.0
4,0.75,18.1078,18.6018,181.047,110.233,98.6749,-0.00108956,0.0433328,21.0525,-66.6009,0.979686,0.0,0.0
6,1.25,17.832,18.1482,172.342,110.224,98.5396,-0.000862538,0.047885,21.0393,-66.4808,0.991111,0.0,1.0
8,1.75,18.0188,18.3076,167.103,110.231,99.4022,-0.000596785,0.0540563,21.0286,-66.5008,0.914592,0.0,1.0
10,2.25,17.7988,18.6028,170.704,110.231,100.287,-0.000307845,0.0590551,21.012,-66.731,0.8362,0.0,1.0
12,2.75,18.246,18.6183,173.668,110.245,98.5811,-7.38035e-05,0.0682608,20.9985,-66.5509,0.989087,0.0,1.0
14,3.25,18.2283,18.7039,173.013,110.239,97.606,0.000217803,0.0783207,20.9875,-66.7711,1.07648,0.0,1.0
16,3.75,18.2523,18.6048,164.901,110.243,96.285,0.000545834,0.0888122,20.9715,-66.7711,1.19733,0.0,1.0
18,4.25,18.0422,19.0693,169.195,110.235,97.0975,0.000880078,0.0997035,20.9585,-66.7911,1.12236,0.0,1.0
20,4.75,18.4265,19.0783,167.591,110.245,95.0576,0.0012125,0.110679,20.9418,-66.8612,1.31101,0.0,1.0
22,5.25,18.9522,19.4731,172.679,110.236,96.2158,0.0015499,0.11957,20.9282,-66.9212,1.20319,0.0,1.0
24,5.75,19.0254,19.7345,165.903,110.255,94.3161,0.00188452,0.131208,20.9119,-66.9412,1.38109,0.0,1.0
26,6.25,19.2721,19.6106,167.254,110.245,94.1312,0.00215556,0.140635,20.8987,-66.9412,1.39759,0.0,1.0
28,6.75,18.6391,18.7682,171.77,110.251,93.3834,0.00255171,0.150379,20.8844,-67.0313,1.46864,0.0,1.0
30,7.25,19.5471,19.494,170.14,110.251,91.3569,0.00287258,0.160167,20.8697,-67.0513,1.66273,0.0,0.0
32,7.75,19.5102,19.797,169.208,110.261,91.0975,0.00330006,0.169485,20.8578,-67.1014,1.68862,0.0,0.0
34,8.25,19.6254,19.9865,168.628,110.238,90.097,0.00364631,0.178282,20.8437,-67.1514,1.78446,0.0,0.0
36,8.75,19.7688,20.139,171.585,110.255,90.1408,0.00404018,0.185409,20.8323,-67.2315,1.78158,0.0,0.0
38,9.25,20.3361,20.4422,165.119,110.248,88.8049,0.00446129,0.19426,20.8185,-67.2715,1.91307,0.0,0.0
40,9.75,20.6854,20.7824,168.647,110.255,86.3177,0.00480238,0.20143,20.8074,-67.3216,2.1649,0.0,0.0
42,10.25,20.7842,21.0556,171.73,110.249,84.9104,0.00521838,0.209583,20.7984,-67.3716,2.30978,0.0,0.0
44,10.75,21.1125,21.3884,168.644,110.254,85.0783,0.00568107,0.216188,20.7876,-67.4317,2.29274,0.0,0.0
46,11.25,21.2648,21.4845,168.411,110.242,83.2777,0.0061416,0.222806,20.7788,-67.4717,2.48091,0.0,0.0
48,11.75,21.3872,21.7023,169.326,110.252,83.8907,0.0065918,0.229308,20.7676,-67.5318,2.4169,0.0,0.0
50,12.25,21.5519,21.7064,163.242,110.244,81.8986,0.00695646,0.234575,20.7586,-67.6019,2.62883,0.0,0.0
52,12.75,21.7465,22.0934,163.322,110.252,83.7153,0.00737636,0.240663,20.745,-67.6419,2.43542,0.0,0.0
54,13.25,21.8264,22.2519,168.357,110.25,81.5008,0.00771648,0.245593,20.7413,-67.712,2.67235,0.0,0.0
56,13.75,22.4923,23.0947,166.718,110.253,80.9892,0.00807649,0.249587,20.7339,-67.752,2.7283,0.0,0.0
58,14.25,22.915,22.5473,169.398,110.243,80.198,0.00836809,0.254013,20.7268,-67.772,2.81427,0.0,0.0
60,14.75,23.0375,23.567,163.272,110.248,81.7593,0.00864977,0.257597,20.7206,-67.8521,2.6442,0.0,0.0
62,15.25,23.624,23.8902,163.151,110.244,81.0985,0.00898518,0.261251,20.7128,-67.8821,2.71566,0.0,0.0
64,15.75,23.5906,23.8522,166.849,110.239,81.0776,0.0090817,0.265835,20.7108,-67.9322,2.71755,0.0,0.0
66,16.25,23.6704,23.8065,165.269,110.239,80.1387,0.00924676,0.267298,20.7065,-68.0122,2.82054,0.0,0.0
68,16.75,23.8276,24.789,162.879,110.241,80.6789,0.00938046,0.269799,20.7024,-68.0322,2.76126,0.0,0.0
70,17.25,24.5094,24.5714,162.308,110.237,79.3198,0.00948875,0.272378,20.6991,-68.1123,2.91124,0.0,0.0
72,17.75,24.2764,24.769,167.511,110.237,78.9314,0.00958153,0.274468,20.6964,-68.1524,2.95462,0.0,0.0
74,18.25,24.3743,25.1252,162.775,110.24,78.6095,0.00965668,0.277828,20.6944,-68.2124,2.99101,0.0,0.0
76,18.75,24.7182,25.4945,162.897,110.234,79.5391,0.00971555,0.278731,20.6927,-68.2524,2.88654,0.0,0.0
78,19.25,25.5258,25.6179,169.881,110.234,79.1663,0.00976145,0.280277,20.691,-68.3325,2.92813,0.0,0.0
80,19.75,25.1509,25.711,167.246,110.228,78.6711,0.00979462,0.282139,20.6895,-68.3525,2.98312,0.0,0.0
82,20.25,25.4709,26.0942,162.505,110.231,77.7184,0.0098179,0.284197,20.687,-68.4226,3.09111,0.0,0.0
84,20.75,25.2942,26.4186,160.692,110.231,76.9389,0.00982212,0.285864,20.685,-68.4726,3.18027,0.0,0.0
86,21.25,25.2587,26.4978,165.732,110.22,77.8108,0.00981237,0.28813,20.6815,-68.5327,3.07971,0.0,0.0
88,21.75,26.3669,26.8058,163.45,110.223,78.3573,0.00977921,0.289965,20.6788,-68.6028,3.01806,0.0,0.0
90,22.25,26.7014,26.7315,170.774,110.218,77.48,0.00972962,0.291977,20.6752,-68.6928,3.11725,0.0,0.0
92,22.75,26.2768,27.5298,162.629,110.221,81.1146,0.00965893,0.294078,20.6723,-68.913,2.71206,0.0,0.0
94,23.25,26.8369,27.732,160.708,110.227,83.3505,0.00957418,0.2962,20.669,-68.853,2.47198,0.0,0.0
96,23.75,26.6531,28.1813,163.35,110.216,81.0396,0.00950554,0.298296,20.6664,-68.9331,2.71981,0.0,0.0
98,24.25,26.8708,28.2089,165.141,110.227,79.1042,0.0094115,0.300357,20.6642,-68.9531,2.9345,0.0,0.0
100,24.75,27.165,28.263,166.106,110.208,80.9043,0.00930075,0.302353,20.6616,-69.0031,2.73392,0.0,0.0
102,25.25,26.6722,27.8714,161.17,110.218,79.5654,0.00919449,0.304184,20.6595,-69.0432,2.88237,0.0,0.0
104,25.75,26.6471,28.125,167.418,110.215,80.5115,0.00909353,0.305861,20.6578,-69.0932,2.77754,0.0,0.0
106,26.25,27.7312,28.6948,163.256,110.216,79.4047,0.00900118,0.307219,20.6564,-69.1933,2.90008,0.0,0.0
108,26.75,27.5397,29.0994,164.204,110.207,80.165,0.00891685,0.307911,20.6553,-69.2233,2.81504,0.0,0.0
110,27.25,27.8364,29.0617,167.242,110.206,79.7346,0.00882739,0.308471,20.6543,-69.2834,2.86259,0.0,0.0
112,27.75,27.9026,29.4379,166.357,110.212,81.1222,0.00873591,0.308423,20.6543,-69.3234,2.71048,0.0,0.0
114,28.25,28.6812,29.3161,166.06,110.208,79.9605,0.00858206,0.30793,20.6552,-69.3434,2.8377,0.0,0.0
116,28.75,28.3176,29.7755,163.922,110.205,80.7695,0.00844569,0.307088,20.6566,-69.3935,2.74849,0.0,0.0
118,29.25,28.7342,29.8082,163.434,110.198,78.2015,0.00833523,0.306007,20.6585,-69.4535,3.03367,0.0,0.0
120,29.75,29.0751,29.8361,167.121,110.194,79.6324,0.00821645,0.304508,20.6594,-69.4936,2.87301,0.0,0.0
122,30.25,29.2403,30.1817,171.697,110.19,82.183,0.00801334,0.302735,20.6626,-69.5036,2.5938,0.0,0.0
124,30.75,28.9634,30.1844,171.116,110.197,82.7656,0.00784882,0.301298,20.6652,-69.5937,2.53185,0.0,0.0
126,31.25,28.9956,30.9031,164.84,110.194,84.6252,0.00755622,0.296661,20.6692,-69.6237,2.33512,0.0,0.0
128,31.75,29.0075,31.0006,164.696,110.184,82.5098,0.00731921,0.294291,20.6741,-69.6637,2.55823,0.0,0.0
130,32.25,29.6632,30.7542,169.233,110.186,84.7095,0.00704906,0.290314,20.6829,-69.6737,2.3257,0.0,0.0
132,32.75,29.8015,30.8729,165.903,110.19,84.6912,0.00683023,0.288619,20.6858,-69.7238,2.32789,0.0,0.0
134,33.25,29.5331,31.2506,164.491,110.183,82.6969,0.00660962,0.28572,20.6918,-69.7438,2.53813,0.0,0.0
136,33.75,30.0927,31.0196,170.499,110.174,85.5234,0.00643093,0.281892,20.6978,-69.7638,2.24013,0.0,0.0
138,34.25,29.9264,31.1643,158.03,110.186,81.6075,0.00627009,0.278791,20.7029,-69.7939,2.65563,0.0,0.0
140,34.75,29.3852,31.5711,170.63,110.174,84.5461,0.00613981,0.275626,20.7072,-69.8439,2.34178,0.0,0.0
142,35.25,30.0872,31.4029,169.487,110.18,82.7143,0.00603429,0.27197,20.7107,-69.8739,2.53602,0.0,0.0
144,35.75,30.0516,31.3644,176.173,110.183,81.6986,0.00594881,0.270819,20.7135,-69.924,2.64552,0.0,0.0
146,36.25,30.1029,31.8945,166.648,110.168,81.0503,0.00588082,0.26885,20.7163,-69.954,2.71481,0.0,0.0
148,36.75,30.2772,31.7608,164.711,110.166,80.2583,0.00582574,0.267016,20.719,-70.0041,2.80152,0.0,0.0
150,37.25,30.0703,32.1393,166.035,110.165,79.7234,0.00578113,0.265315,20.7211,-69.994,2.86052,0.0,0.0
152,37.75,30.6576,32.0447,167.031,110.162,82.312,0.00574994,0.263492,20.7233,-70.0641,2.57765,0.0,0.0
154,38.25,30.2265,31.8768,167.602,110.157,83.0616,0.00572468,0.261614,20.7251,-70.0741,2.49711,0.0,0.0
156,38.75,30.2325,32.3808,167.63,110.161,83.4697,0.00572397,0.259024,20.7265,-70.0841,2.45408,0.0,0.0
158,39.25,30.3463,31.8883,166.153,110.146,82.5652,0.0057234,0.256925,20.7289,-70.1242,2.54925,0.0,0.0
160,39.75,30.7486,32.0861,170.788,110.127,84.0193,0.00572293,0.254712,20.7318,-70.1442,2.3933,0.0,0.0
162,40.25,31.0745,32.8284,166.574,110.136,82.9902,0.00574669,0.252457,20.7342,-70.1742,2.50305,0.0,0.0
164,40.75,30.7335,32.3725,170.588,110.13,81.9129,0.00578766,0.25063,20.7375,-70.1942,2.61809,0.0,0.0
166,41.25,31.096,32.7662,166.342,110.124,82.3723,0.00582084,0.24912,20.7402,-70.2243,2.56812,0.0,0.0
168,41.75,31.0934,32.7228,166.876,110.113,76.1312,0.00585392,0.247869,20.7433,-70.2243,3.26416,0.0,0.0
170,42.25,30.8441,32.672,172.413,110.129,79.3073,0.00586375,0.246856,20.7458,-70.2543,2.90393,0.0,0.0
172,42.75,31.0052,33.3875,167.267,110.108,80.6565,0.00585644,0.245665,20.7483,-70.2743,2.75302,0.0,0.0
174,43.25,31.3831,32.9822,162.298,110.121,83.1474,0.00581924,0.244367,20.7503,-70.3043,2.48507,0.0,0.0
176,43.75,31.563,32.3447,171.105,110.105,82.7049,0.00576095,0.243315,20.7559,-70.3544,2.53102,0.0,0.0
178,44.25,31.1983,33.5697,170.972,110.111,86.1824,0.00571374,0.240958,20.7605,-70.3544,2.16716,0.0,0.0
180,44.75,31.7215,32.971,169.995,110.102,87.3633,0.00562281,0.239048,20.7642,-70.3744,2.04607,0.0,0.0
182,45.25,31.4221,33.2955,169.195,110.098,89.5429,0.00550176,0.23556,20.7721,-70.4144,1.82783,0.0,0.0
184,45.75,31.6818,32.8054,168.415,110.075,90.0854,0.00536348,0.232734,20.7785,-70.4244,1.77256,0.0,0.0
186,46.25,31.5142,33.624,170.998,110.089,91.2265,0.00521527,0.228501,20.7872,-70.4445,1.66229,0.0,0.0
188,46.75,31.3596,33.4232,169.115,110.066,92.1476,0.00509522,0.225073,20.7943,-70.4545,1.57162,0.0,0.0
190,47.25,31.716,33.3445,168.744,110.069,91.5734,0.00493522,0.220102,20.802,-70.4845,1.62715,0.0,0.0
192,47.75,31.5845,33.2252,170.892,110.062,93.633,0.00480563,0.216075,20.8098,-70.5345,1.42983,0.0,0.0
194,48.25,31.5963,33.1965,171.72,110.067,93.0039,0.00465274,0.212814,20.8183,-70.4945,1.48988,0.0,0.0
196,48.75,31.5871,33.4031,171.578,110.048,94.0469,0.0045289,0.20824,20.8271,-70.5245,1.38975,0.0,0.0
198,49.25,31.3096,33.0745,172.803,110.053,93.8075,0.00439183,0.204535,20.8356,-70.5445,1.41268,0.0,0.0
200,49.75,31.5975,33.3217,173.57,110.031,95.8229,0.00428081,0.199916,20.8438,-70.5445,1.22286,0.0,0.0
202,50.25,31.4386,33.8528,173.544,110.036,96.7337,0.00418379,0.196175,20.8504,-70.5746,1.13965,0.0,0.0
204,50.75,31.7728,33.0342,169.876,110.028,96.6145,0.00409881,0.191363,20.8592,-70.5946,1.14992,0.0,0.0
206,51.25,31.7605,33.8342,172.168,110.032,97.4337,0.00402997,0.187465,20.8663,-70.6246,1.07555,0.0,0.0
208,51.75,32.0289,33.2824,176.259,110.005,99.7718,0.00397292,0.182579,20.8737,-70.6146,0.863604,0.0,0.0
210,52.25,31.8833,33.2675,179.852,110.004,100.413,0.00392555,0.178621,20.8811,-70.6146,0.806843,0.0,0.0
212,52.75,31.3495,33.56,178.403,109.994,99.966,0.00388202,0.17439,20.8872,-70.6046,0.845513,0.0,0.0
214,53.25,30.717,33.0915,177.901,110.001,99.2562,0.00384212,0.17004,20.8952,-70.6346,0.909115,0.0,0.0
216,53.75,31.1604,32.9216,174.381,109.989,99.3892,0.0037969,0.166516,20.9017,-70.6346,0.896272,0.0,0.0
218,54.25,31.5728,33.491,175.028,109.979,100.187,0.00374866,0.161051,20.9105,-70.6546,0.824733,0.0,0.0
220,54.75,31.2329,33.1563,171.978,109.973,101.32,0.00369283,0.156624,20.9177,-70.6446,0.724836,0.0,0.0
222,55.25,31.3221,32.8541,177.936,109.969,100.779,0.00363253,0.152234,20.9262,-70.6646,0.771844,0.0,0.0
224,55.75,30.8915,32.7029,179.307,109.952,101.42,0.00356694,0.147953,20.933,-70.6747,0.714438,0.0,0.0
226,56.25,30.3144,33.1329,179.883,109.951,101.522,0.00349875,0.144015,20.9399,-70.6947,0.705422,0.0,0.0
228,56.75,30.4925,32.6762,171.428,109.948,101.335,0.00342422,0.140401,20.9455,-70.7147,0.721518,0.0,0.0
230,57.25,29.3059,32.0139,178.188,109.938,101.205,0.00334648,0.13718,20.9505,-70.7147,0.732086,0.0,0.0
232,57.75,29.8065,31.7054,177.925,109.92,101.445,0.00328351,0.134306,20.9545,-70.7447,0.709734,0.0,0.0
234,58.25,29.9241,32.1667,184.016,109.913,102.678,0.00320424,0.131795,20.9578,-70.7447,0.602224,0.0,0.0
236,58.75,30.1747,32.5446,174.498,109.91,101.906,0.00311458,0.129596,20.9609,-70.7547,0.668757,0.0,0.0
238,59.25,30.141,32.4748,176.608,109.89,102.452,0.00304196,0.127676,20.9634,-70.7547,0.619857,0.0,0.0
240,59.75,29.7781,32.3362,178.706,109.878,102.786,0.00294534,0.125995,20.9657,-70.7647,0.590073,0.0,0.0
242,60.25,29.8166,32.0268,173.324,109.872,101.889,0.00286708,0.124634,20.9677,-70.7647,0.667167,0.0,0.0
244,60.75,29.4173,31.5678,177.403,109.856,102.057,0.00279279,0.123267,20.9694,-70.7747,0.651325,0.0,0.0
246,61.25,28.7918,31.3782,179.295,109.865,102.422,0.0027228,0.122159,20.9707,-70.7848,0.620443,0.0,0.0
248,61.75,28.7241,30.8092,178.127,109.847,102.406,0.00266803,0.121262,20.9718,-70.7948,0.620408,0.0,0.0
250,62.25,29.6168,31.3919,178.91,109.84,103.182,0.00262541,0.120438,20.9727,-70.7948,0.553038,0.0,0.0
252,62.75,28.9897,31.1772,176.822,109.818,102.554,0.00259088,0.119771,20.9734,-70.7948,0.605265,0.0,0.0
254,63.25,29.2305,31.4985,173.08,109.811,103.064,0.00258343,0.119161,20.9739,-70.8148,0.560905,0.0,0.0
256,63.75,29.108,31.3598,176.533,109.802,102.795,0.00259587,0.118667,20.974,-70.8148,0.583252,0.0,0.0
258,64.25,28.9154,30.7082,175.32,109.803,102.299,0.00261879,0.118274,20.974,-70.8448,0.626103,0.0,0.0
260,64.75,29.3916,30.8008,172.985,109.779,103.153,0.00264891,0.117962,20.974,-70.8548,0.550679,0.0,0.0
262,65.25,28.8257,31.0586,176.75,109.778,103.208,0.00267331,0.117709,20.974,-70.8548,0.545862,0.0,0.0
264,65.75,28.3013,30.7094,172.788,109.766,102.773,0.00270649,0.117483,20.974,-70.8648,0.58225,0.0,0.0
266,66.25,28.5415,30.7871,178.565,109.75,102.45,0.00273337,0.11728,20.974,-70.8548,0.608788,0.0,0.0
268,66.75,28.4828,30.4776,176.268,109.743,103.236,0.0027405,0.117049,20.9742,-70.8849,0.540604,0.0,0.0
270,67.25,28.5291,30.8395,177.695,109.74,102.954,0.00274627,0.116803,20.9746,-70.8849,0.564559,0.0,0.0
272,67.75,28.355,30.3126,178.517,109.734,103.439,0.00272534,0.116604,20.9752,-70.9049,0.522577,0.0,0.0
274,68.25,28.5756,30.757,176.711,109.723,102.858,0.00270838,0.116248,20.9758,-70.9149,0.571419,0.0,0.0
276,68.75,28.2799,30.0347,180.228,109.719,103.413,0.00267392,0.11596,20.9764,-70.9149,0.52358,0.0,0.0
278,69.25,28.1102,30.4767,172.716,109.709,102.907,0.00264601,0.11561,20.9768,-70.9149,0.566091,0.0,0.0
280,69.75,28.4907,30.0078,173.851,109.702,102.896,0.00260026,0.11522,20.9772,-70.9249,0.566515,0.0,0.0
282,70.25,28.2837,29.6885,179.528,109.704,101.881,0.0025632,0.114832,20.9774,-70.9149,0.654287,0.0,0.0
284,70.75,27.868,29.9378,174.904,109.681,103.232,0.0025146,0.114452,20.9777,-70.9149,0.535916,0.0,0.0
286,71.25,28.6571,30.0509,178.102,109.673,102.942,0.00245852,0.114116,20.9779,-70.9149,0.560209,0.0,0.0
288,71.75,27.9701,30.0862,175.738,109.659,102.339,0.00241309,0.113844,20.978,-70.9349,0.61097,0.0,0.0
290,72.25,28.0519,29.8282,176.949,109.648,102.074,0.00235006,0.113513,20.9781,-70.9549,0.633067,0.0,0.0
292,72.75,27.8923,29.066,176.841,109.637,102.28,0.00227539,0.113245,20.9787,-70.9549,0.614391,0.0,0.0
294,73.25,28.1739,29.8944,173.948,109.626,102.766,0.00220277,0.112816,20.9791,-70.9449,0.571556,0.0,0.0
296,73.75,27.4859,29.3547,181.189,109.625,102.65,0.00213301,0.112278,20.9795,-70.9549,0.581407,0.0,0.0
298,74.25,27.5927,29.8763,176.287,109.612,103.006,0.00206628,0.111842,20.9798,-70.9549,0.549763,0.0,0.0
300,74.75,27.3027,29.3402,173.93,109.612,103.348,0.00200303,0.11119,20.9802,-70.9549,0.520521,0.0,0.0
302,75.25,27.454,29.7048,169.253,109.594,102.548,0.00193839,0.110394,20.9808,-70.9549,0.587722,0.0,0.0
304,75.75,27.3308,29.179,179.271,109.571,102.477,0.00187397,0.109748,20.9818,-70.9849,0.592026,0.0,0.0
306,76.25,28.2098,29.4223,175.37,109.561,103.398,0.00182178,0.108741,20.9825,-70.9649,0.512063,0.0,0.0
308,76.75,27.6024,29.9297,174.118,109.548,101.911,0.001748,0.107926,20.984,-70.9749,0.639131,0.0,0.0
310,77.25,27.1968,29.4917,172.692,109.535,102.876,0.00166784,0.106892,20.9852,-70.9749,0.554789,0.0,0.0
312,77.75,27.6757,29.251,174.35,109.535,102.444,0.00158455,0.106055,20.9867,-70.9849,0.591949,0.0,0.0
314,78.25,27.2556,29.2903,175.021,109.517,102.397,0.00151708,0.105046,20.9878,-70.9749,0.594534,0.0,0.0
316,78.75,27.4205,28.8955,173.916,109.527,102.121,0.00144016,0.104228,20.9888,-70.9849,0.619258,0.0,0.0
318,79.25,26.8063,29.1985,175.672,109.517,102.85,0.00135779,0.103207,20.9895,-70.9849,0.555512,0.0,0.0
320,79.75,27.3609,28.9911,172.93,109.502,102.394,0.00128408,0.102381,20.9901,-70.995,0.593624,0.0,0.0
322,80.25,27.1128,28.9343,179.768,109.491,102.944,0.00121807,0.101449,20.9909,-71.015,0.545307,0.0,0.0
324,80.75,27.5619,28.6546,173.626,109.497,102.42,0.00116461,0.100695,20.9917,-71.005,0.590995,0.0,0.0
326,81.25,27.3596,29.1703,176.212,109.497,102.881,0.00111405,0.0998493,20.9923,-71.025,0.551182,0.0,0.0
328,81.75,26.6128,28.6611,180.09,109.496,102.87,0.0010731,0.0991647,20.9929,-71.025,0.552144,0.0,0.0
330,82.25,26.8869,28.8986,179.286,109.489,102.401,0.00103802,0.0986102,20.9933,-71.035,0.591974,0.0,0.0
332,82.75,26.5782,28.7424,170.765,109.485,101.976,0.00100789,0.097982,20.9941,-71.055,0.628398,0.0,0.0
334,83.25,26.0816,28.429,168.383,109.478,101.965,0.000979669,0.0974733,20.9947,-71.055,0.628798,0.0,0.0
336,83.75,26.4822,28.3589,176.333,109.484,102.439,0.000953378,0.0969649,20.9952,-71.065,0.588261,0.0,0.0
338,84.25,26.364,28.6759,179.01,109.468,102.753,0.000924835,0.0965531,20.9957,-71.065,0.559917,0.0,0.0
340,84.75,26.3406,28.6498,174.911,109.465,102.621,0.000901716,0.0961761,20.996,-71.095,0.571088,0.0,0.0
342,85.25,26.3812,28.5064,175.602,109.462,102.76,0.000882989,0.0958316,20.9963,-71.095,0.558879,0.0,0.0
344,85.75,26.1033,27.9103,174.554,109.462,103.112,0.00086782,0.0954802,20.9965,-71.075,0.52861,0.0,0.0
346,86.25,26.638,28.5418,179.39,109.45,102.504,0.000853093,0.0951305,20.9966,-71.085,0.579961,0.0,0.0
348,86.75,26.2617,28.3993,171.175,109.456,102.122,0.000827909,0.094811,20.9963,-71.1051,0.613499,0.0,0.0
350,87.25,26.9824,28.3018,170.988,109.448,102.634,0.000808145,0.0945197,20.996,-71.1051,0.568542,0.0,0.0
352,87.75,26.3176,27.6273,172.281,109.462,102.917,0.000792707,0.0942837,20.9962,-71.095,0.545362,0.0,0.0
354,88.25,26.5136,27.7475,173.687,109.446,102.667,0.000785922,0.0940925,20.9964,-71.095,0.565588,0.0,0.0
356,88.75,25.2398,27.7723,176.435,109.457,102.737,0.000785573,0.0937865,20.9965,-71.075,0.560406,0.0,0.0
358,89.25,25.8167,27.947,174.423,109.452,103.219,0.000788469,0.093656,20.9967,-71.085,0.518638,0.0,0.0
360,89.75,25.8029,27.8129,169.818,109.453,102.59,0.000793674,0.0933679,20.9967,-71.1151,0.572743,0.0,0.0
362,90.25,25.9914,27.9101,181.522,109.441,102.566,0.00079662,0.0930759,20.9968,-71.1051,0.573856,0.0,0.0
364,90.75,26.1333,28.0922,176.435,109.44,101.888,0.000797861,0.0928394,20.9969,-71.1051,0.632427,0.0,0.0
366,91.25,25.9333,27.5477,178.627,109.434,102.924,0.000798867,0.092483,20.9969,-71.1251,0.542422,0.0,0.0
368,91.75,26.174,27.7369,174.535,109.436,102.432,0.000783986,0.0921943,20.997,-71.1151,0.584947,0.0,0.0
370,92.25,25.6561,27.9982,174.088,109.427,102.223,0.000771932,0.0917409,20.9975,-71.1251,0.602292,0.0,0.0
372,92.75,26.1372,27.5116,177.084,109.433,101.837,0.000736417,0.0913736,20.9978,-71.1351,0.636274,0.0,0.0
374,93.25,25.0254,26.9611,175.354,109.407,102.702,0.000713241,0.0908702,20.9984,-71.1351,0.559368,0.0,0.0
376,93.75,25.5394,27.1809,174.717,109.42,102.723,0.000673611,0.0904626,20.9991,-71.1451,0.558596,0.0,0.0
378,94.25,25.9392,27.4707,179.745,109.407,102.658,0.000627554,0.0899815,20.9996,-71.1451,0.563173,0.0,0.0
380,94.75,25.4111,27.6426,177.224,109.421,102.381,0.000577687,0.0895918,21,-71.1351,0.588198,0.0,0.0
382,95.25,25.8079,27.5008,173.292,109.424,102.237,0.000531589,0.0892761,21.0004,-71.1451,0.600844,0.0,0.0
384,95.75,25.671,27.795,170.955,109.407,102.358,0.000489113,0.0889656,21.0011,-71.1451,0.589062,0.0,0.0
386,96.25,25.7627,27.4478,176.232,109.407,102.079,0.000455342,0.0887141,21.0017,-71.1351,0.613205,0.0,0.0
388,96.75,25.8745,27.5325,178.016,109.414,102.734,0.000428559,0.0884382,21.0022,-71.1251,0.557246,0.0,0.0
390,97.25,25.6108,27.2945,174.665,109.415,102.349,0.000406864,0.0881498,21.0026,-71.1351,0.590439,0.0,0.0
392,97.75,24.4837,26.7804,174.831,109.416,102.622,0.000403748,0.0878657,21.0029,-71.1351,0.567006,0.0,0.0
394,98.25,25.4803,27.3497,178.159,109.422,102.751,0.000401224,0.0875902,21.0031,-71.1451,0.556394,0.0,0.0
396,98.75,25.6959,27.193,179.353,109.427,102.239,0.000402795,0.0873237,21.0033,-71.1551,0.601015,0.0,0.0
398,99.25,25.73,27.4803,179.542,109.432,102.291,0.000404068,0.0870689,21.0035,-71.1651,0.596854,0.0,0.0
400,99.75,25.2945,27.235,174.267,109.442,102.309,0.000405098,0.0868625,21.0036,-71.1451,0.596129,0.0,0.0
402,100.25,25.1301,27.0002,178.56,109.46,102.267,0.000392679,0.0865721,21.0037,-71.1551,0.601224,0.0,0.0
404,100.75,25.4207,26.8247,176.424,109.457,102.239,0.000382619,0.0863369,21.0038,-71.1651,0.603407,0.0,0.0
406,101.25,25.1315,26.7952,178.701,109.456,102.656,0.000350385,0.0861737,21.0039,-71.1651,0.567371,0.0,0.0
408,101.75,25.1447,26.543,175.406,109.469,102.281,0.000324275,0.0860415,21.0039,-71.1651,0.600707,0.0,0.0
410,102.25,25.4482,26.4904,175.261,109.483,102.586,0.000313144,0.085884,21.004,-71.1651,0.575481,0.0,0.0
412,102.75,25.3584,26.449,172.548,109.493,102.359,0.000271322,0.085711,21.0039,-71.1851,0.595918,0.0,0.0
414,103.25,24.8962,26.2496,176.693,109.474,101.857,0.000237446,0.0855709,21.0038,-71.1851,0.637814,0.0,0.0
416,103.75,24.2766,27.0362,175.583,109.48,102.662,0.000189559,0.0852247,21.0042,-71.1851,0.568728,0.0,0.0
418,104.25,25.3399,26.8556,170.734,109.487,102.503,0.000150771,0.0849442,21.0049,-71.1951,0.582965,0.0,0.0
420,104.75,24.799,26.9123,171.101,109.497,101.68,9.77079e-05,0.0848247,21.0055,-71.2051,0.655077,0.0,0.0
422,105.25,25.0526,26.6681,169.215,109.508,102.134,5.47268e-05,0.0844415,21.006,-71.1951,0.616636,0.0,0.0
424,105.75,24.8048,26.9106,169.09,109.523,102.753,-1.73264e-06,0.0841311,21.0066,-71.2051,0.564351,0.0,0.0
426,106.25,24.8001,26.6617,178.439,109.537,102.744,-4.74648e-05,0.0837292,21.0073,-71.2152,0.56626,0.0,0.0
428,106.75,25.1119,26.2148,177.685,109.535,102.45,-9.33684e-05,0.0834037,21.0079,-71.2051,0.591445,0.0,0.0
430,107.25,24.7989,26.7375,175.036,109.543,102.543,-0.000138525,0.0830033,21.0084,-71.2152,0.584,0.0,0.0
432,107.75,25.0866,26.7596,179.668,109.556,102.476,-0.000175102,0.0826789,21.0088,-71.2252,0.590962,0.0,0.0
434,108.25,24.8437,26.7627,180.968,109.564,102.447,-0.000204729,0.0823205,21.0091,-71.2352,0.594073,0.0,0.0
436,108.75,25.3101,26.3072,177.304,109.561,102.665,-0.000228727,0.0820302,21.0093,-71.2352,0.574993,0.0,0.0
438,109.25,25.0039,26.4599,176.892,109.566,103.121,-0.000248165,0.0817375,21.0095,-71.2552,0.536202,0.0,0.0
440,109.75,24.8239,27.1016,179.779,109.565,102.4,-0.000260303,0.0814487,21.0101,-71.2452,0.598157,0.0,0.0
442,110.25,24.8708,26.5937,174.219,109.574,102.249,-0.000270134,0.0812147,21.0109,-71.2152,0.61195,0.0,0.0
444,110.75,24.7012,26.153,184.095,109.582,102.383,-0.00028411,0.0808612,21.0115,-71.2252,0.600979,0.0,0.0
446,111.25,24.7254,26.2479,175.096,109.573,102.617,-0.000295431,0.0805749,21.012,-71.2352,0.580151,0.0,0.0
448,111.75,24.8079,26.3169,180.181,109.59,102.597,-0.000312828,0.080343,21.0125,-71.2452,0.583128,0.0,0.0
450,112.25,24.6476,26.398,176.042,109.605,103.139,-0.000334324,0.0798548,21.0128,-71.2452,0.537851,0.0,0.0
452,112.75,25.012,26.1061,174.707,109.608,102.905,-0.000363212,0.0794593,21.0131,-71.2452,0.558112,0.0,0.0
454,113.25,24.3463,26.3866,175.627,109.601,102.672,-0.000396941,0.0789479,21.0141,-71.2452,0.57767,0.0,0.0
456,113.75,24.1119,26.504,176.975,109.629,102.758,-0.000424261,0.0785337,21.0149,-71.2352,0.572423,0.0,0.0
458,114.25,24.5132,26.0542,174.665,109.627,102.581,-0.000453985,0.0780208,21.0155,-71.2452,0.587589,0.0,0.0
460,114.75,24.2989,25.9081,179.557,109.632,102.517,-0.000484898,0.0776054,21.0165,-71.2452,0.59352,0.0,0.0
462,115.25,24.7453,26.458,182.666,109.656,103.162,-0.000509304,0.0771478,21.0173,-71.2552,0.54,0.0,0.0
464,115.75,24.7522,26.1543,178.348,109.654,102.491,-0.000528503,0.0766682,21.018,-71.2552,0.597503,0.0,0.0
466,116.25,24.7712,26.3708,176.857,109.675,102.668,-0.000541523,0.0762797,21.0185,-71.2452,0.583933,0.0,0.0
468,116.75,24.4933,26.1262,181.032,109.667,102.899,-0.00054979,0.0758503,21.0189,-71.2452,0.563396,0.0,0.0
470,117.25,24.1797,26.3471,174.275,109.685,102.532,-0.000555221,0.0753991,21.0192,-71.2652,0.59646,0.0,0.0
472,117.75,24.4353,26.3024,175.019,109.694,102.714,-0.000558481,0.0750337,21.0195,-71.2752,0.581509,0.0,0.0
474,118.25,24.1881,25.5425,179.586,109.704,102.845,-0.000561121,0.0746832,21.0197,-71.2752,0.570998,0.0,0.0
476,118.75,24.1031,25.9012,179.678,109.711,103.711,-0.000560855,0.0743993,21.0199,-71.2752,0.497393,0.0,0.0
478,119.25,24.0665,25.7334,174.6,109.716,103.043,-0.000560639,0.0741149,21.0201,-71.2752,0.554968,0.0,0.0
480,119.75,24.3075,25.7826,175.473,109.73,103.269,-0.000570084,0.0738845,21.0202,-71.2752,0.536777,0.0,0.0
482,120.25,23.8635,25.7178,180.077,109.736,103.123,-0.000577735,0.0735072,21.0203,-71.2652,0.549787,0.0,0.0
484,120.75,24.3783,26.3436,181.646,109.749,102.943,-0.000583933,0.0732016,21.0204,-71.2652,0.56623,0.0,0.0
486,121.25,24.3052,26.0474,172.923,109.774,102.292,-0.000608193,0.0727635,21.0209,-71.2652,0.624334,0.0,0.0
488,121.75,24.3188,25.9976,176.976,109.789,103.648,-0.000627843,0.0724086,21.0213,-71.2652,0.509037,0.0,0.0
490,122.25,23.9498,25.3046,176.125,109.791,103.115,-0.000646084,0.071917,21.0219,-71.2752,0.554897,0.0,0.0
492,122.75,24.5947,25.5866,176.535,109.786,103.262,-0.00066086,0.0715189,21.0225,-71.2752,0.541842,0.0,0.0
494,123.25,23.772,25.3837,178.277,109.813,103.323,-0.000668398,0.0710747,21.023,-71.2752,0.538777,0.0,0.0
496,123.75,23.6755,25.5602,178.471,109.809,102.595,-0.000670516,0.0706054,21.0233,-71.2852,0.601047,0.0,0.0
498,124.25,23.2056,24.7885,177.324,109.825,102.747,-0.000669701,0.0702252,21.0235,-71.2852,0.58929,0.0,0.0
500,124.75,23.5458,25.1011,185.577,109.847,102.833,-0.000666761,0.0696998,21.0237,-71.2852,0.583585,0.0,0.0
502,125.25,23.9121,25.5761,179.686,109.853,102.563,-0.000666912,0.0692742,21.0239,-71.2952,0.60731,0.0,0.0
504,125.75,24.15,25.9587,173.193,109.863,103.382,-0.000669313,0.0688004,21.0249,-71.2952,0.537759,0.0,0.0
506,126.25,24.1122,25.5105,176.392,109.891,103.385,-0.000676954,0.0683003,21.0257,-71.2852,0.53981,0.0,0.0
508,126.75,24.0603,25.646,178.73,109.894,102.922,-0.000682909,0.067738,21.0263,-71.2852,0.579793,0.0,0.0
510,127.25,24.0851,25.337,176.118,109.914,103.455,-0.000693093,0.0671411,21.0273,-71.2952,0.535665,0.0,0.0
512,127.75,23.6685,25.1487,173.608,109.923,103.225,-0.000713367,0.0664933,21.0283,-71.2952,0.556058,0.0,0.0
514,128.25,23.7463,24.7006,172.52,109.94,102.906,-0.000740611,0.0658207,21.0294,-71.3052,0.584841,0.0,0.0
516,128.75,23.5122,24.9739,177.406,109.954,102.382,-0.000779135,0.0650976,21.0303,-71.2952,0.631072,0.0,0.0
518,129.25,23.5608,25.6146,177.562,109.959,103.178,-0.000825149,0.0643512,21.031,-71.2852,0.562995,0.0,0.0
520,129.75,23.8351,24.6903,179.265,109.969,103.397,-0.000916534,0.064033,21.0318,-71.2852,0.545079,0.0,0.0
522,130.25,23.6953,25.4716,177.375,110.008,102.955,-0.000990556,0.0631637,21.0326,-71.2852,0.586098,0.0,0.0
524,130.75,23.4447,24.9572,179.397,110.002,102.648,-0.00107773,0.0624596,21.0333,-71.2852,0.611989,0.0,0.0
526,131.25,23.9988,25.471,174.8,110.017,103.476,-0.00117283,0.0616469,21.0339,-71.2952,0.542199,0.0,0.0
528,131.75,23.5743,25.269,174.409,110.028,102.981,-0.00124986,0.0607706,21.0348,-71.2952,0.585512,0.0,0.0
530,132.25,23.1405,25.0857,181.038,110.047,103.325,-0.00131226,0.0598473,21.0355,-71.2852,0.557416,0.0,0.0
532,132.75,23.4867,24.3703,177.529,110.04,103.069,-0.00141331,0.0589071,21.0373,-71.2952,0.578848,0.0,0.0
534,133.25,23.6239,25.7159,181.607,110.055,103.252,-0.00149516,0.0579464,21.0388,-71.2952,0.564365,0.0,0.0
536,133.75,23.7452,25.0534,174.847,110.056,103.041,-0.00156386,0.0569889,21.04,-71.2752,0.582503,0.0,0.0
538,134.25,23.7618,25.2,173.665,110.075,103.327,-0.00161951,0.0562133,21.0414,-71.2752,0.559577,0.0,0.0
540,134.75,23.9952,24.9832,178.217,110.096,103.215,-0.00166458,0.0552653,21.0426,-71.2852,0.570804,0.0,0.0
542,135.25,23.4129,25.2618,179.417,110.099,103.218,-0.00169508,0.0542096,21.0437,-71.2852,0.570826,0.0,0.0
544,135.75,23.1016,24.6913,178.319,110.115,103.615,-0.00171979,0.0533545,21.0449,-71.2852,0.538083,0.0,0.0
546,136.25,22.6306,24.3715,174.956,110.141,103.296,-0.00173378,0.0522032,21.0465,-71.2952,0.567544,0.0,0.0
548,136.75,23.1644,24.5948,174.807,110.13,103.169,-0.00174512,0.0512707,21.0485,-71.2952,0.577446,0.0,0.0
550,137.25,23.4352,25.2916,178.203,110.15,103.421,-0.00175494,0.0503096,21.0501,-71.2852,0.557483,0.0,0.0
552,137.75,23.2872,24.8087,176.316,110.165,103.032,-0.00176346,0.049346,21.0514,-71.2752,0.592046,0.0,0.0
554,138.25,23.0972,25.1914,178.384,110.173,103.874,-0.00177353,0.0485655,21.0524,-71.2652,0.520695,0.0,0.0
556,138.75,23.9189,25.0034,169.809,110.176,102.7,-0.00178453,0.04761,21.0541,-71.2852,0.621495,0.0,0.0
558,139.25,23.4234,24.6564,175.366,110.202,103.393,-0.00179344,0.0468361,21.0555,-71.2852,0.564153,0.0,0.0
560,139.75,23.1239,24.5535,175.405,110.205,103.467,-0.00180667,0.0460887,21.0567,-71.2852,0.558029,0.0,0.0
562,140.25,23.1654,24.743,178.167,110.201,103.211,-0.00181739,0.045375,21.0576,-71.2852,0.579605,0.0,0.0
564,140.75,23.4476,24.6896,183.268,110.202,103.196,-0.00183569,0.0446977,21.0588,-71.2652,0.580978,0.0,0.0
566,141.25,23.3452,24.7792,175.391,110.221,103.54,-0.00185051,0.0440599,21.0598,-71.2652,0.553123,0.0,0.0
568,141.75,23.037,24.0482,175.436,110.235,103.187,-0.00186062,0.0435432,21.0606,-71.2652,0.58444,0.0,0.0
570,142.25,23.0325,24.4894,175.831,110.232,103.93,-0.0018671,0.0429499,21.0612,-71.2652,0.52074,0.0,0.0
572,142.75,23.0736,24.7237,175.712,110.226,103.439,-0.00187235,0.0424693,21.0617,-71.2752,0.562064,0.0,0.0
574,143.25,23.2803,24.6826,177.44,110.24,103.175,-0.00186337,0.0419724,21.0621,-71.2752,0.585826,0.0,0.0
576,143.75,23.4564,24.5097,168.647,110.243,103.427,-0.0018561,0.0415699,21.0625,-71.2652,0.564517,0.0,0.0
578,144.25,23.4563,24.647,178.66,110.244,103.829,-0.00184958,0.0412014,21.0627,-71.2752,0.530216,0.0,0.0
580,144.75,23.1301,24.6248,182.247,110.249,103.709,-0.00184372,0.0408648,21.063,-71.2652,0.540917,0.0,0.0
582,145.25,22.756,24.7812,179.696,110.269,103.876,-0.00184405,0.0405921,21.0631,-71.2552,0.528211,0.0,0.0
584,145.75,23.3379,24.8065,174.371,110.246,103.074,-0.00184658,0.0402771,21.0632,-71.2552,0.594977,0.0,0.0
586,146.25,23.0753,24.5382,175.174,110.256,103.276,-0.00185978,0.0400219,21.0633,-71.2652,0.578461,0.0,0.0
588,146.75,23.2137,24.6479,182.346,110.26,103.491,-0.00187844,0.0397657,21.0634,-71.2652,0.560369,0.0,0.0
590,147.25,23.0141,24.894,175.191,110.248,103.415,-0.00189862,0.0395136,21.0635,-71.2652,0.565938,0.0,0.0
592,147.75,23.04,24.3053,177.96,110.246,103.752,-0.00191953,0.0393165,21.0636,-71.2652,0.53694,0.0,0.0
594,148.25,22.8215,24.4465,175.703,110.249,103.287,-0.00193646,0.0391632,21.0637,-71.2852,0.576934,0.0,0.0
596,148.75,22.9155,24.4558,174.901,110.238,103.599,-0.00194954,0.0390979,21.0637,-71.2652,0.549328,0.0,0.0
598,149.25,22.7056,24.651,178.616,110.24,103.323,-0.00195957,0.0389727,21.0637,-71.2752,0.573168,0.0,0.0
600,149.75,23.0587,24.2996,177.66,110.241,103.835,-0.00196516,0.0388713,21.0638,-71.2752,0.529511,0.0,0.0
602,150.25,23.1782,24.3149,176.782,110.225,103.928,-0.00196741,0.0386816,21.0638,-71.2752,0.520289,0.0,0.0
604,150.75,22.5936,24.1343,177.556,110.218,104.015,-0.00196607,0.038528,21.0638,-71.2652,0.512312,0.0,0.0
606,151.25,23.2291,23.8823,177.959,110.212,103.497,-0.00196213,0.0383894,21.0638,-71.2552,0.556002,0.0,0.0
608,151.75,22.9968,24.2605,175.508,110.202,103.998,-0.00195704,0.0382645,21.0638,-71.2652,0.512441,0.0,0.0
610,152.25,22.7715,24.359,179.275,110.19,103.982,-0.00195121,0.0381632,21.0639,-71.2652,0.512923,0.0,0.0
612,152.75,22.9879,23.8179,177.048,110.181,103.336,-0.00194649,0.0380947,21.0639,-71.2652,0.567301,0.0,0.0
614,153.25,22.6386,23.3116,179.312,110.163,103.412,-0.00194267,0.0380391,21.0639,-71.2752,0.559351,0.0,0.0
616,153.75,22.9161,23.5588,176.644,110.15,103.459,-0.00193957,0.0379673,21.0639,-71.2752,0.554312,0.0,0.0
618,154.25,23.1009,24.1396,176.939,110.121,103.586,-0.00194307,0.0379091,21.0639,-71.2752,0.541131,0.0,0.0
620,154.75,22.9148,23.7388,179.904,110.115,103.492,-0.00194591,0.0378351,21.0639,-71.2752,0.548646,0.0,0.0
622,155.25,23.2575,24.376,174.147,110.105,103.333,-0.00194821,0.0377751,21.0639,-71.2652,0.56142,0.0,0.0
624,155.75,22.5802,24.2329,174.19,110.086,103.018,-0.00195087,0.0376862,21.0639,-71.2752,0.586948,0.0,0.0
626,156.25,22.5704,24.1277,174.023,110.053,102.434,-0.00195158,0.0376143,21.0639,-71.2652,0.634602,0.0,0.0
628,156.75,22.9841,23.8188,176.34,110.041,103.169,-0.0019528,0.0375963,21.0639,-71.2552,0.570378,0.0,0.0
630,157.25,22.8997,24.6622,179.645,110.007,103.021,-0.00195886,0.0375817,21.0639,-71.2652,0.580319,0.0,0.0
632,157.75,23.0712,24.0267,174.799,109.999,103.345,-0.00196831,0.0375699,21.0639,-71.2652,0.551855,0.0,0.0
634,158.25,22.3195,24.4154,178.468,109.966,103.148,-0.00197788,0.0375603,21.0639,-71.2752,0.566091,0.0,0.0
636,158.75,22.7552,23.8741,177.408,109.948,103.925,-0.00198733,0.0375301,21.0639,-71.2652,0.498303,0.0,0.0
638,159.25,22.9047,24.5448,179.725,109.904,103.277,-0.00199136,0.037522,21.0639,-71.2652,0.550014,0.0,0.0
640,159.75,22.7361,24.4958,180.446,109.887,103.482,-0.00199224,0.037501,21.0639,-71.2652,0.531203,0.0,0.0
642,160.25,22.666,24.5,174.563,109.863,102.987,-0.00199295,0.0374776,21.0639,-71.2652,0.571629,0.0,0.0
644,160.75,22.5303,23.164,179.031,109.841,102.842,-0.00198872,0.0374658,21.0639,-71.2652,0.582355,0.0,0.0
646,161.25,21.9906,23.6025,176.468,109.806,102.907,-0.00198529,0.0374626,21.0639,-71.2752,0.573936,0.0,0.0
648,161.75,22.1222,23.6904,173.78,109.778,102.907,-0.00198371,0.03746,21.0643,-71.2752,0.571691,0.0,0.0
650,162.25,22.422,23.8647,175.724,109.736,103.12,-0.00198244,0.0374588,21.0647,-71.2852,0.549981,0.0,0.0
652,162.75,22.5006,24.345,177.776,109.728,103.113,-0.00198773,0.0374569,21.065,-71.2752,0.549954,0.0,0.0
654,163.25,21.9842,23.0962,181.312,109.674,103.058,-0.00199772,0.0374554,21.0657,-71.2852,0.550315,0.0,0.0
656,163.75,21.5986,23.5782,175.544,109.652,103.122,-0.00200581,0.0374541,21.0662,-71.2652,0.543053,0.0,0.0
658,164.25,22.8137,23.6227,182.127,109.659,102.745,-0.0020304,0.0374397,21.0667,-71.2752,0.576036,0.0,0.0
660,164.75,22.6218,23.4491,177.929,109.675,102.673,-0.00205031,0.037428,21.067,-71.2652,0.583548,0.0,0.0
662,165.25,22.696,23.7001,170.034,109.673,103.035,,0.0373973,,-71.2752,0.552196,0.0,0.0
664,165.75,23.2975,23.8993,169.338,109.711,102.79,,0.0373533,,-71.2652,0.576293,0.0,0.0
666,166.25,22.5288,23.7237,172.795,109.693,103.208,,0.0373177,,-71.2852,0.538945,0.0,0.0
668,166.75,22.1939,24.1824,176.327,109.721,103.14,,0.0372889,,-71.2652,0.547086,0.0,0.0
670,167.25,22.2334,23.236,177.364,109.719,102.926,,0.0372655,,-71.2752,0.565299,0.0,0.0
672,167.75,21.8584,23.4645,175.116,109.743,102.996,,0.0372749,,-71.2852,0.561168,0.0,0.0
674,168.25,21.8722,23.624,177.417,109.748,103.125,,,,-71.2652,0.550525,0.0,0.0
676,168.75,22.1959,23.4046,178.172,109.782,102.673,,,,-71.2652,0.59214,0.0,0.0
678,169.25,22.534,23.5382,176.737,109.768,103.37,,,,-71.2652,0.531129,0.0,0.0
680,169.75,22.2425,23.2818,176.082,109.793,102.855,,,,-71.2752,0.577358,0.0,0.0
682,170.25,22.7552,24.0043,182.537,109.801,103.365,,,,-71.2752,0.534225,0.0,0.0
684,170.75,22.6786,23.834,171.316,109.821,103.01,,,,-71.2652,0.566323,0.0,0.0
686,171.25,21.5398,23.0042,164.839,109.827,103.432,,,,-71.2752,0.530596,0.0,0.0
688,171.75,21.4685,23.0933,180.496,109.859,102.677,,,,-71.2652,0.597998,0.0,0.0
690,172.25,22.447,23.3092,178.059,109.873,103.195,,,,-71.2752,0.55456,0.0,0.0
692,172.75,21.9834,23.3359,175.686,109.896,103.814,,,,-71.2652,0.503607,0.0,0.0
694,173.25,22.1029,23.2073,175.539,109.912,103.003,,,,-71.2652,0.574163,0.0,0.0
696,173.75,22.288,23.6689,173.851,109.934,103.566,,,,-71.2752,0.52777,0.0,0.0
698,174.25,22.0933,23.0767,176.291,109.933,103.573,,,,-71.2752,0.527124,0.0,0.0
700,174.75,21.9793,23.6751,179.537,109.967,103.819,,,,-71.2852,0.508882,0.0,0.0
702,175.25,22.3146,23.4596,177.208,109.985,103.947,,,,-71.2752,0.499468,0.0,0.0
704,175.75,22.4235,23.1451,172.38,110.002,103.864,,,,-71.2752,0.507853,0.0,0.0
705,176,22.3025,23.3478,166,110.01,103.713,,,,-71.2752,0.521316,0.0,0.0