File: 01_Data/Rubber_Foam_Pipe_Insulation/Cone/Rubber_Foam_Pipe_Insulation_Cone_HF75Scan_220307_R1.csv
Names,Time,Stack TC,Smoke TC,Exh Press,Smoke Comp,Smoke Meas,CO Meter,CO2 Meter,O2 Meter,Sample Mass,Ext Coeff,Start Test,Flame Verif
Chan Gain,,500,500,1,1,1,1,1,1,1,1,1.0,1.0
Offset,,0,0,0.13378,0,0,0,0,0,0,0,0.0,0.0
Gain,,1,1,25.011,14.4955,14.6297,1,1,1,1.00092,1.00831,1.0,1.0
Units,sec,C,C,Pa,%,%,%,%,%,g,/m,,
Baseline,,41.0222,42.8981,162.874,110.263,102.204,-0.00162427,0.0387075,21.058,-947.019,0.67133,,
2,0.25,39.72,41.2077,133.279,110.826,54.5014,0.00820849,0.138671,20.8783,-457.449,6.2775,0.0,1.0
4,0.75,38.9228,39.1927,137.858,110.838,61.2153,0.0100194,0.171642,20.8229,-457.459,5.25091,0.0,1.0
6,1.25,39.4867,41.1627,136.773,110.837,61.2895,0.0117776,0.214301,20.756,-457.669,5.24018,0.0,1.0
8,1.75,39.6848,41.4409,147.486,110.846,58.4281,0.0133673,0.248855,20.7019,-457.869,5.66373,0.0,1.0
10,2.25,40.5029,42.2933,141.676,110.824,61.0109,0.0148038,0.283787,20.6513,-457.889,5.27941,0.0,1.0
12,2.75,40.9868,42.3348,135.926,110.837,64.362,0.0160291,0.312081,20.6103,-457.929,4.80752,0.0,1.0
14,3.25,41.4573,41.6894,146.981,110.829,66.8796,0.0165808,0.335,20.5929,-458.079,4.46747,0.0,1.0
16,3.75,42.3535,43.5381,142.563,110.836,66.7617,0.0175213,0.354419,20.563,-458.189,4.4836,0.0,1.0
18,4.25,42.9445,44.029,144.594,110.832,68.1775,0.0182805,0.370148,20.5388,-458.279,4.29772,0.0,0.0
20,4.75,43.4961,44.1659,142.94,110.833,70.233,0.0188955,0.3833,20.5192,-458.369,4.03507,0.0,0.0
22,5.25,43.5434,45.3233,147.914,110.826,72.3287,0.0192963,0.393818,20.5033,-458.409,3.77441,0.0,0.0
24,5.75,44.3675,45.9939,143.002,110.819,70.7862,0.019621,0.402216,20.4905,-458.52,3.96458,0.0,1.0
26,6.25,44.7882,45.9409,144.12,110.812,71.4152,0.019807,0.405796,20.4801,-458.63,3.88576,0.0,1.0
28,6.75,44.7783,46.598,141.741,110.829,73.1225,0.0198883,0.410721,20.4725,-458.7,3.67814,0.0,1.0
30,7.25,45.0196,47.1236,143.107,110.815,71.1728,0.0199543,0.414711,20.4664,-458.74,3.91609,0.0,1.0
32,7.75,45.9514,47.6111,148.128,110.825,71.9648,0.0199241,0.416734,20.4615,-458.82,3.81894,0.0,1.0
34,8.25,46.0062,48.067,148.026,110.813,72.2055,0.0198997,0.418373,20.4575,-458.95,3.78846,0.0,1.0
36,8.75,46.4185,48.2154,146.137,110.826,72.1867,0.0198799,0.419656,20.4542,-459.04,3.79182,0.0,1.0
38,9.25,47.0494,48.5863,135.056,110.814,71.7103,0.0198799,0.420654,20.4516,-459.11,3.84946,0.0,1.0
40,9.75,46.9599,49.1674,139.703,110.832,72.664,0.0198943,0.421464,20.4516,-459.18,3.73403,0.0,1.0
42,10.25,47.5401,49.5531,145.909,110.811,70.8563,0.0199563,0.423357,20.4515,-459.27,3.95516,0.0,1.0
44,10.75,47.5543,49.8283,144.423,110.806,71.0072,0.0200518,0.426005,20.4497,-459.34,3.93595,0.0,1.0
46,11.25,47.6005,49.8905,139.956,110.803,69.7897,0.0201922,0.42815,20.4482,-459.43,4.08867,0.0,0.0
48,11.75,48.3565,50.1075,144.913,110.822,69.6964,0.0203626,0.432067,20.4408,-459.53,4.10199,0.0,0.0
50,12.25,48.7302,50.8901,142.901,110.791,66.2514,0.0205576,0.4372,20.4347,-459.641,4.5479,0.0,0.0
52,12.75,48.761,51.1719,144.187,110.799,62.9414,0.0207666,0.442635,20.424,-459.721,5.0019,0.0,0.0
54,13.25,49.0819,51.2177,147.313,110.793,65.6246,0.020936,0.448186,20.4154,-459.801,4.63213,0.0,0.0
56,13.75,49.7347,51.7026,140.37,110.788,59.1889,0.0211161,0.453052,20.4083,-459.931,5.54472,0.0,0.0
58,14.25,49.9639,51.9376,145.176,110.787,62.0676,0.0213006,0.457327,20.4026,-460.041,5.12456,0.0,0.0
60,14.75,50.6387,52.7355,141.537,110.783,62.6873,0.0214501,0.460152,20.398,-460.091,5.03633,0.0,0.0
62,15.25,50.8993,53.0358,142.286,110.766,57.8079,0.0214803,0.461867,20.3943,-460.201,5.75171,0.0,0.0
64,15.75,51.1605,53.4986,144.136,110.777,60.2644,0.0215047,0.463256,20.3913,-460.281,5.38455,0.0,0.0
66,16.25,51.2742,53.6358,146.906,110.767,60.71,0.0213246,0.461077,20.3912,-460.351,5.31855,0.0,0.0
68,16.75,51.5136,54.3111,143.557,110.756,58.2736,0.0211787,0.459311,20.3932,-460.411,5.67994,0.0,0.0
70,17.25,51.7782,54.2215,142.363,110.753,61.1868,0.0208286,0.457881,20.4001,-460.471,5.2483,0.0,0.0
72,17.75,52.7973,54.8664,145.284,110.738,60.0903,0.020545,0.451515,20.4103,-460.581,5.40704,0.0,0.0
74,18.25,52.8913,55.2272,149.277,110.741,65.3572,0.0199743,0.446359,20.4232,-460.631,4.66408,0.0,0.0
76,18.75,53.2604,55.4483,148.739,110.733,68.9387,0.019512,0.439764,20.438,-460.681,4.1916,0.0,0.0
78,19.25,52.6887,55.0808,148.053,110.719,69.9678,0.0188215,0.432247,20.4535,-460.742,4.05941,0.0,0.0
80,19.75,53.2174,56.2364,152.158,110.706,67.9413,0.0182622,0.422445,20.4692,-460.792,4.31835,0.0,0.0
82,20.25,53.684,56.2103,149.753,110.714,72.6113,0.0178092,0.414505,20.4819,-460.842,3.73098,0.0,0.0
84,20.75,54.1087,56.8079,153.668,110.699,71.8724,0.0169483,0.406223,20.4985,-460.902,3.82024,0.0,0.0
86,21.25,53.9322,56.7778,149.331,110.692,71.2616,0.016251,0.397848,20.5119,-460.962,3.8952,0.0,0.0
88,21.75,53.9912,56.9647,151.167,110.699,75.8629,0.0152897,0.387881,20.5261,-461.032,3.34235,0.0,0.0
90,22.25,54.2693,57.3469,149.265,110.687,80.7003,0.0145111,0.379808,20.5405,-461.032,2.79462,0.0,0.0
92,22.75,54.627,57.585,149.886,110.671,78.5734,0.0135157,0.370845,20.556,-461.062,3.02962,0.0,0.0
94,23.25,54.7097,57.6794,147.989,110.669,83.1268,0.0127094,0.361404,20.5719,-461.092,2.53117,0.0,0.0
96,23.75,54.2236,57.2159,148.595,110.652,85.4426,0.0117425,0.353757,20.5905,-461.132,2.28676,0.0,0.0
98,24.25,55.5153,57.985,156.303,110.642,89.5822,0.0109592,0.341948,20.6106,-461.152,1.86748,0.0,0.0
100,24.75,54.1666,58.0924,154.829,110.634,91.8605,0.0100457,0.332382,20.6316,-461.172,1.64475,0.0,0.0
102,25.25,54.6165,56.9047,150.418,110.626,91.5922,0.0093058,0.319798,20.6528,-461.212,1.67002,0.0,0.0
104,25.75,54.871,58.2466,153.539,110.621,95.7314,0.00847011,0.309605,20.6741,-461.212,1.27866,0.0,0.0
106,26.25,54.7375,58.3751,147.243,110.612,97.8128,0.0077932,0.297179,20.6948,-461.232,1.0877,0.0,0.0
108,26.75,55.1132,58.3188,149.42,110.603,98.6905,0.0072449,0.287113,20.7117,-461.232,1.00798,0.0,0.0
110,27.25,54.8391,57.9357,149.794,110.59,99.4825,0.00665428,0.274597,20.7291,-461.242,0.936184,0.0,0.0
112,27.75,55.2968,58.4504,152.403,110.576,100.402,0.00617588,0.264459,20.7466,-461.252,0.853768,0.0,0.0
114,28.25,55.2298,58.4489,158.191,110.563,101.297,0.0057819,0.252444,20.7607,-461.252,0.774123,0.0,0.0
116,28.75,55.4292,58.545,158.559,110.569,101.47,0.00545696,0.242711,20.778,-461.272,0.759509,0.0,0.0
118,29.25,54.8382,58.4772,159.118,110.557,101.879,0.00521964,0.234828,20.792,-461.292,0.723052,0.0,0.0
120,29.75,55.1224,58.6477,155.973,110.54,102.157,0.0050507,0.223792,20.8097,-461.312,0.697554,0.0,0.0
122,30.25,54.959,58.0795,159.358,110.534,102.043,0.00494689,0.214854,20.8239,-461.322,0.706956,0.0,0.0
124,30.75,55.2224,58.337,158.058,110.52,102.152,0.00489255,0.205882,20.8355,-461.302,0.696424,0.0,0.0
126,31.25,54.6672,58.063,160.448,110.498,102.089,0.00484853,0.197056,20.8507,-461.322,0.700071,0.0,0.0
128,31.75,54.6308,57.962,156.491,110.497,102.356,0.00481288,0.188571,20.8629,-461.312,0.676938,0.0,0.0
130,32.25,54.8885,58.6099,159.28,110.498,102.472,0.00490246,0.180496,20.874,-461.312,0.666907,0.0,0.0
132,32.75,54.7255,58.3515,155.897,110.477,101.85,0.00501017,0.173051,20.8839,-461.342,0.719129,0.0,0.0
134,33.25,54.5944,58.1264,160.678,110.469,102.226,0.00512906,0.166206,20.8942,-461.342,0.685829,0.0,0.0
136,33.75,54.9009,58.1882,151.22,110.447,102.355,0.00522537,0.160661,20.9025,-461.362,0.673013,0.0,0.0
138,34.25,54.1324,57.8386,160.061,110.459,101.952,0.00533271,0.15617,20.9093,-461.362,0.708833,0.0,0.0
140,34.75,54.0868,57.2776,164.467,110.423,102.685,0.00544608,0.150696,20.9161,-461.372,0.642632,0.0,0.0
142,35.25,53.2197,56.5212,157.897,110.431,102.223,0.00554443,0.146262,20.9216,-461.372,0.683125,0.0,0.0
144,35.75,53.4267,56.3937,161.59,110.39,102.267,0.00562997,0.141749,20.9278,-461.382,0.676043,0.0,0.0
146,36.25,53.6192,56.8045,163.501,110.381,101.915,0.00569925,0.138093,20.9329,-461.392,0.705852,0.0,0.0
148,36.75,53.4913,57.1022,161.974,110.354,102.65,0.00572939,0.134794,20.9375,-461.402,0.640103,0.0,0.0
150,37.25,53.273,56.403,158.367,110.345,102.308,0.00575381,0.131819,20.9416,-461.392,0.668878,0.0,0.0
152,37.75,53.2392,56.7564,157.681,110.318,101.758,0.00574137,0.129408,20.9449,-461.392,0.71443,0.0,0.0
154,38.25,53.2156,56.6387,163.075,110.294,102.04,0.0057313,0.12683,20.9474,-461.402,0.68795,0.0,0.0
156,38.75,53.469,56.5015,162.129,110.298,102.263,0.0057036,0.124742,20.9495,-461.412,0.669015,0.0,0.0
158,39.25,52.8826,56.7231,164.207,110.298,102.147,0.00566357,0.122467,20.953,-461.442,0.679098,0.0,0.0
160,39.75,52.3951,56.2261,162.202,110.315,102.358,0.00561293,0.120624,20.9558,-461.452,0.66218,0.0,0.0
162,40.25,53.186,56.7065,157.062,110.311,102.125,0.0055827,0.118659,20.957,-461.442,0.682021,0.0,0.0
164,40.75,53.2195,56.456,155.673,110.313,102.098,0.00553102,0.117067,20.959,-461.462,0.684484,0.0,0.0
166,41.25,52.4619,55.9349,152.514,110.34,102.214,0.00548916,0.115545,20.9607,-461.462,0.676596,0.0,0.0
168,41.75,52.8439,55.8361,158.181,110.317,101.89,0.00541942,0.114102,20.9629,-461.462,0.702841,0.0,0.0
170,42.25,52.4095,56.0357,156.851,110.33,102.127,0.00536293,0.112692,20.9647,-461.482,0.683354,0.0,0.0
172,42.75,52.3186,55.9348,165.68,110.332,102.439,0.00530236,0.111334,20.9662,-461.492,0.65651,0.0,0.0
174,43.25,52.6414,55.958,160.193,110.346,102.391,0.0052533,0.110755,20.9674,-461.482,0.661808,0.0,0.0
176,43.75,52.1629,56.2772,162.969,110.344,101.937,0.00519752,0.109547,20.9688,-461.482,0.700975,0.0,0.0
178,44.25,52.1855,55.9022,162.963,110.364,102.489,0.00515233,0.108372,20.9704,-461.482,0.654781,0.0,0.0
180,44.75,52.4047,55.5348,159.196,110.361,102.54,0.00510587,0.107421,20.9717,-461.492,0.650067,0.0,0.0
182,45.25,51.7033,55.549,161.65,110.375,101.985,0.00506823,0.106277,20.9727,-461.512,0.699236,0.0,0.0
184,45.75,52.2762,55.5051,164.014,110.365,101.939,0.00503897,0.105351,20.9741,-461.512,0.702409,0.0,0.0
186,46.25,51.8373,55.7696,163.52,110.384,102.523,0.00501527,0.104366,20.9755,-461.512,0.653413,0.0,0.0
188,46.75,51.6533,55.2635,156.08,110.388,101.914,0.00499865,0.103568,20.9767,-461.502,0.706425,0.0,0.0
190,47.25,52.0493,55.0517,161.603,110.395,102.04,0.00498748,0.102756,20.9777,-461.532,0.696034,0.0,0.0
192,47.75,51.6413,55.1188,164.306,110.406,102.009,0.00497844,0.102099,20.9785,-461.562,0.699703,0.0,0.0
194,48.25,51.4722,54.9368,161.985,110.413,102.175,0.00496593,0.101479,20.9791,-461.542,0.685808,0.0,0.0
196,48.75,51.6827,55.1987,158.366,110.429,102.256,0.00495111,0.100899,20.9803,-461.552,0.680052,0.0,0.0
198,49.25,51.6911,55.0111,159.258,110.44,102.514,0.00493911,0.100306,20.9812,-461.532,0.658681,0.0,0.0
200,49.75,51.6626,55.1374,157.455,110.436,102.07,0.00490843,0.0997144,20.9819,-461.542,0.696772,0.0,0.0
202,50.25,51.1729,54.8326,157.817,110.465,102.064,0.00488358,0.0992354,20.9825,-461.542,0.69962,0.0,0.0
204,50.75,51.3688,55.0623,166.058,110.464,102.538,0.00483264,0.0983528,20.9835,-461.552,0.658591,0.0,0.0
206,51.25,51.0523,54.2349,159.572,110.469,102.434,0.0047726,0.0976378,20.9842,-461.582,0.667923,0.0,0.0
208,51.75,51.0545,54.7029,162.879,110.482,102.325,0.00470704,0.0968851,20.9857,-461.572,0.678357,0.0,0.0
210,52.25,50.9178,54.5352,161.225,110.489,102.131,0.00464229,0.096119,20.987,-461.572,0.695728,0.0,0.0
212,52.75,50.8053,54.165,158.771,110.495,102.654,0.00457936,0.0954986,20.9879,-461.602,0.651024,0.0,0.0
214,53.25,50.8858,54.7999,156.25,110.505,102.196,0.00452385,0.0949135,20.9888,-461.602,0.691433,0.0,0.0
216,53.75,51.0961,54.2594,156.534,110.507,102.516,0.00447481,0.0944396,20.9894,-461.592,0.663913,0.0,0.0
218,54.25,50.9078,54.48,159.292,110.536,102.523,0.00443509,0.0940557,20.9899,-461.592,0.665633,0.0,0.0
220,54.75,50.864,54.3401,160.109,110.534,102.37,0.00440291,0.0937448,20.9903,-461.602,0.678713,0.0,0.0
222,55.25,50.8743,54.0336,158.382,110.547,102.325,0.00437555,0.0933556,20.9907,-461.612,0.683598,0.0,0.0
224,55.75,50.6785,54.2126,159.694,110.553,102.21,0.00435223,0.0930403,20.9908,-461.592,0.69402,0.0,0.0
226,56.25,50.5798,54.0051,158.21,110.553,102.475,0.00433593,0.0925926,20.991,-461.612,0.671174,0.0,0.0
228,56.75,50.7228,54.248,160.012,110.562,102.899,0.00432505,0.0922301,20.9915,-461.622,0.635311,0.0,0.0
230,57.25,50.7058,54.467,159.84,110.592,102.29,0.00431624,0.0919363,20.992,-461.622,0.690185,0.0,0.0
232,57.75,50.5734,54.0518,163.488,110.588,102.441,0.00431771,0.0915251,20.9923,-461.632,0.676864,0.0,0.0
234,58.25,50.0418,53.5353,163.407,110.604,102.507,0.00431891,0.0910359,20.9926,-461.632,0.672434,0.0,0.0
236,58.75,49.7116,52.9679,157.055,110.606,102.46,0.00431618,0.0905603,20.9928,-461.652,0.67666,0.0,0.0
238,59.25,49.9958,53.54,156.203,110.62,102.514,0.00431398,0.0901036,20.993,-461.672,0.673088,0.0,0.0
240,59.75,50.696,53.4489,154.134,110.633,102.258,0.00430358,0.0897336,20.9934,-461.672,0.696217,0.0,0.0
242,60.25,50.2099,53.6096,162.582,110.642,102.467,0.00429516,0.0892557,20.994,-461.682,0.678908,0.0,0.0
244,60.75,49.9881,54.0091,160.806,110.652,102.852,0.00427482,0.0888686,20.9946,-461.692,0.646523,0.0,0.0
246,61.25,50.5549,53.5794,164.649,110.656,102.21,0.00425835,0.0884728,20.9954,-461.682,0.702262,0.0,0.0
248,61.75,49.4535,53.6643,154.515,110.672,101.876,0.004245,0.0881523,20.996,-461.692,0.732556,0.0,0.0
250,62.25,49.4507,52.5497,158.346,110.675,102.375,0.00419488,0.0877692,20.9965,-461.712,0.689463,0.0,0.0
252,62.75,49.4632,53.2751,162.007,110.707,102.442,0.00415428,0.087459,20.9969,-461.712,0.68626,0.0,0.0
254,63.25,49.6683,53.2293,158.755,110.698,102.64,0.00407723,0.087114,20.9972,-461.702,0.668458,0.0,0.0
256,63.75,49.5702,53.3972,162.214,110.709,102.372,0.00401481,0.0867502,20.9979,-461.692,0.692529,0.0,0.0
258,64.25,49.8229,53.138,160.456,110.705,102.593,0.00393116,0.0863546,20.9985,-461.712,0.673103,0.0,0.0
260,64.75,49.7031,53.1039,157.753,110.722,102.261,0.0038634,0.0859433,20.9989,-461.702,0.703091,0.0,0.0
262,65.25,49.4284,53.3283,156.014,110.73,102.245,0.00379692,0.0856102,20.9993,-461.712,0.705152,0.0,0.0
264,65.75,49.3253,53.0213,158.487,110.755,102.604,0.00373262,0.08529,20.9996,-461.702,0.676134,0.0,0.0
266,66.25,48.9461,52.0167,157.812,110.754,102.223,0.00367152,0.0849852,20.9999,-461.712,0.708949,0.0,0.0
268,66.75,49.0023,52.1625,155.001,110.768,102.435,0.00361391,0.0847024,21.0005,-461.702,0.691756,0.0,0.0
270,67.25,49.667,52.731,163.275,110.778,102.707,0.00356724,0.0844408,21.001,-461.722,0.66908,0.0,0.0
272,67.75,49.4389,52.6819,160.794,110.79,102.885,0.00351982,0.0842145,21.0015,-461.722,0.65471,0.0,0.0
274,68.25,49.4165,52.7261,156.215,110.793,103.302,0.00347275,0.0840183,21.0018,-461.722,0.619217,0.0,0.0
276,68.75,49.1228,52.9776,162.004,110.813,102.367,0.00343462,0.0838738,21.0021,-461.712,0.701217,0.0,0.0
278,69.25,49.1877,52.7327,161.411,110.81,103.031,0.00338172,0.0837696,21.0022,-461.712,0.643793,0.0,0.0
280,69.75,49.2385,52.4613,162.435,110.826,102.599,0.00333887,0.0836853,21.0023,-461.732,0.682169,0.0,0.0
282,70.25,48.5652,51.6865,160.986,110.824,102.771,0.00329902,0.0835759,21.0023,-461.742,0.667257,0.0,0.0
284,70.75,48.65,51.6723,159.108,110.832,102.936,0.0032621,0.0834874,21.0023,-461.752,0.653651,0.0,0.0
286,71.25,48.4847,52.2492,162.361,110.841,102.539,0.00322706,0.0834156,21.0023,-461.732,0.688567,0.0,0.0
288,71.75,48.8223,52.7379,158.41,110.867,102.889,0.00319404,0.0832472,21.0023,-461.752,0.660508,0.0,0.0
290,72.25,49.0958,52.6956,160.728,110.861,102.38,0.00315958,0.0831107,21.0024,-461.742,0.703985,0.0,0.0
292,72.75,48.8986,52.2636,156.859,110.877,102.874,0.00312473,0.0829714,21.0028,-461.742,0.662586,0.0,0.0
294,73.25,48.6653,52.5356,159.579,110.887,102.96,0.00308749,0.0828326,21.0032,-461.752,0.656034,0.0,0.0
296,73.75,48.8563,52.0575,162.231,110.891,102.602,0.00304924,0.0826483,21.0035,-461.762,0.687087,0.0,0.0
298,74.25,48.5352,52.1576,160.189,110.887,102.414,0.00300733,0.0824342,21.0037,-461.762,0.703023,0.0,0.0
300,74.75,48.2787,51.9126,166.513,110.91,102.502,0.00296356,0.0822607,21.0039,-461.772,0.697304,0.0,0.0
302,75.25,49.0431,52.0654,155.632,110.916,102.544,0.0029281,0.0819152,21.0041,-461.762,0.694139,0.0,0.0
304,75.75,48.5827,52.4088,165.842,110.935,103.005,0.00287949,0.0815994,21.0042,-461.772,0.656006,0.0,0.0
306,76.25,49.0494,51.9434,159.971,110.934,102.646,0.0028222,0.0813112,21.0048,-461.772,0.686774,0.0,0.0
308,76.75,48.5866,51.9526,153.189,110.946,103.246,0.00275912,0.081049,21.0052,-461.772,0.636172,0.0,0.0
310,77.25,49.005,51.9846,162.798,110.95,102.68,0.00269303,0.0808107,21.0056,-461.752,0.685155,0.0,0.0
312,77.75,48.3589,52.1608,157.997,110.972,102.568,0.00263949,0.0806177,21.0059,-461.772,0.696576,0.0,0.0
314,78.25,48.5578,51.9634,159.089,110.96,102.837,0.00259612,0.0804204,21.0061,-461.772,0.672439,0.0,0.0
316,78.75,48.3032,51.9958,163.811,110.986,102.826,0.00252806,0.0802606,21.0067,-461.793,0.675483,0.0,0.0
318,79.25,48.411,51.8216,156.069,110.983,102.752,0.00247293,0.0801311,21.0077,-461.803,0.681578,0.0,0.0
320,79.75,48.4065,52.2436,161.777,111.003,102.881,0.00241854,0.0799989,21.0084,-461.803,0.672061,0.0,0.0
322,80.25,48.9955,52.2603,160.238,111.002,102.568,0.00237448,0.0798919,21.0092,-461.813,0.698942,0.0,0.0
324,80.75,48.3546,51.9319,156.163,111.007,102.67,0.00233111,0.0798051,21.0098,-461.823,0.690553,0.0,0.0
326,81.25,48.0363,52.0073,164.633,111.025,102.583,0.00228907,0.0796939,21.0104,-461.823,0.699501,0.0,0.0
328,81.75,48.2851,51.4953,162.56,111.028,102.661,0.0022435,0.0796038,21.0108,-461.793,0.693014,0.0,0.0
330,82.25,48.2349,51.1912,158.89,111.029,102.665,0.00219623,0.0794954,21.0111,-461.813,0.692735,0.0,0.0
332,82.75,48.4347,51.6608,158.697,111.046,102.595,0.00215794,0.0793756,21.0114,-461.813,0.700079,0.0,0.0
334,83.25,48.1082,51.6405,164.533,111.046,102.723,0.00210902,0.0792642,21.0116,-461.823,0.68904,0.0,0.0
336,83.75,48.6257,51.5354,160.121,111.055,102.685,0.00205329,0.079161,21.0118,-461.823,0.693013,0.0,0.0
338,84.25,48.3002,51.4731,162.328,111.065,103.069,0.00199792,0.0790774,21.0119,-461.813,0.66085,0.0,0.0
340,84.75,48.3426,50.9886,161.182,111.063,102.912,0.00194387,0.0790097,21.012,-461.823,0.674206,0.0,0.0
342,85.25,48.1916,51.778,160.661,111.085,102.56,0.00189307,0.0789549,21.0121,-461.833,0.706256,0.0,0.0
344,85.75,48.4093,51.6458,158.679,111.092,102.934,0.0018456,0.0788695,21.0122,-461.823,0.674612,0.0,0.0
346,86.25,47.7658,51.5676,159.064,111.084,102.989,0.00180141,0.0788003,21.0123,-461.823,0.669264,0.0,0.0
348,86.75,47.8822,50.981,158.718,111.102,102.561,0.00176044,0.0787443,21.0123,-461.803,0.707444,0.0,0.0
350,87.25,47.9568,51.3273,158.429,111.095,102.844,0.00172087,0.078617,21.0124,-461.803,0.682538,0.0,0.0
352,87.75,47.512,51.0736,164.592,111.119,102.66,0.00168308,0.0784421,21.0124,-461.813,0.700309,0.0,0.0
354,88.25,47.6051,51.1298,161.816,111.109,102.928,0.00164545,0.0782357,21.0129,-461.813,0.676449,0.0,0.0
356,88.75,48.0983,51.3591,157.946,111.114,103.073,0.00160866,0.0779967,21.0137,-461.813,0.66445,0.0,0.0
358,89.25,48.1241,51.3331,162.239,111.11,102.965,0.00157885,0.0777385,21.0144,-461.813,0.673339,0.0,0.0
360,89.75,47.9111,51.0229,161.702,111.125,102.509,0.00155344,0.0774863,21.0149,-461.813,0.713816,0.0,0.0
362,90.25,47.9113,51.2922,165.052,111.146,102.678,0.0015317,0.0772432,21.0154,-461.803,0.700921,0.0,0.0
364,90.75,48.0694,50.7497,163.989,111.134,102.312,0.00151652,0.0770104,21.0157,-461.833,0.731524,0.0,0.0
366,91.25,47.7076,51.1671,155.242,111.136,102.697,0.00150422,0.0767895,21.016,-461.843,0.698496,0.0,0.0
368,91.75,47.3502,50.964,158.872,111.142,102.592,0.00149235,0.0766106,21.0162,-461.833,0.708027,0.0,0.0
370,92.25,47.669,50.9691,161.486,111.137,102.411,0.00148101,0.0764112,21.0164,-461.873,0.723206,0.0,0.0
372,92.75,47.6742,50.97,162.843,111.137,102.91,0.00147182,0.0762496,21.0166,-461.863,0.680244,0.0,0.0
374,93.25,47.4765,50.8403,163.102,111.165,102.793,0.001445,0.0761259,21.0167,-461.863,0.692556,0.0,0.0
376,93.75,47.8729,50.8478,160.21,111.151,103.545,0.00142327,0.0760322,21.0168,-461.853,0.626935,0.0,0.0
378,94.25,47.9147,50.486,160.925,111.153,102.927,0.00139426,0.0759419,21.0171,-461.843,0.680086,0.0,0.0
380,94.75,48.1631,50.6233,164.762,111.161,102.909,0.00134465,0.0758559,21.0176,-461.833,0.682257,0.0,0.0
382,95.25,47.4303,51.1105,162.594,111.16,102.681,0.00126457,0.0757862,21.018,-461.843,0.701704,0.0,0.0
384,95.75,47.6581,51.2505,163.746,111.166,102.787,0.0011997,0.0756752,21.0183,-461.853,0.693122,0.0,0.0
386,96.25,47.0608,49.6917,162.129,111.174,102.531,0.00114716,0.0755853,21.0185,-461.843,0.71584,0.0,0.0
388,96.75,47.0633,50.1008,161.709,111.165,102.812,0.00105026,0.0753625,21.0187,-461.853,0.690866,0.0,0.0
390,97.25,46.6429,50.6749,162.925,111.179,102.851,0.000971775,0.0752675,21.0189,-461.903,0.688725,0.0,0.0
392,97.75,47.5291,50.5061,158.733,111.172,102.965,0.000876841,0.0749552,21.0193,-461.923,0.678339,0.0,0.0
394,98.25,46.7767,50.4468,158.994,111.185,102.882,0.000799944,0.0747022,21.0198,-461.893,0.686457,0.0,0.0
396,98.75,47.3353,50.1372,160.577,111.174,102.862,0.000721989,0.0744973,21.0202,-461.893,0.687304,0.0,0.0
398,99.25,47.1128,50.4894,156.101,111.187,102.668,0.000658845,0.0741814,21.0205,-461.893,0.705043,0.0,0.0
400,99.75,47.7232,50.8152,158.387,111.184,103.251,0.000608333,0.0739256,21.0208,-461.893,0.654777,0.0,0.0
402,100.25,47.6224,50.6881,159.381,111.188,102.813,0.000567989,0.0734869,21.021,-461.903,0.692658,0.0,0.0
404,100.75,47.1791,50.4875,162.037,111.184,103.191,0.00053531,0.0731315,21.0212,-461.893,0.659868,0.0,0.0
406,101.25,46.1268,49.9624,160.58,111.198,102.768,0.000526921,0.0727212,21.0213,-461.923,0.69727,0.0,0.0
408,101.75,46.7682,49.8828,159.79,111.183,102.54,0.000520126,0.0723888,21.0214,-461.903,0.715731,0.0,0.0
410,102.25,47.1004,50.0175,159.17,111.206,103.274,0.000514622,0.071929,21.0214,-461.903,0.654475,0.0,0.0
412,102.75,47.51,50.2223,160.193,111.195,102.583,0.000507752,0.0715566,21.0214,-461.833,0.712984,0.0,0.0
414,103.25,47.7046,50.1228,160.271,111.207,102.835,0.000502188,0.071255,21.0214,-461.833,0.692212,0.0,0.0
416,103.75,47.6512,50.2602,165.689,111.202,103.112,0.000473584,0.0708818,21.0214,-461.843,0.668052,0.0,0.0
418,104.25,47.4336,50.5986,159.941,111.211,102.956,0.000428728,0.0704636,21.0219,-461.843,0.68224,0.0,0.0
420,104.75,46.7729,50.4796,162.871,111.2,103.073,0.000392394,0.0701248,21.0222,-461.843,0.671318,0.0,0.0
422,105.25,46.7303,49.4092,156.494,111.21,102.899,0.000318441,0.0695921,21.0228,-461.873,0.687007,0.0,0.0
424,105.75,46.6409,49.716,158.843,111.223,102.955,0.000258538,0.0691606,21.0234,-461.903,0.683193,0.0,0.0
426,106.25,47.1112,50.3757,163.551,111.212,103.305,0.000167928,0.0686824,21.0239,-461.953,0.652329,0.0,0.0
428,106.75,46.7949,50.3273,163.241,111.221,103.105,7.55459e-05,0.0681792,21.0243,-461.953,0.670178,0.0,0.0
430,107.25,47.6164,50.4988,161.808,111.217,103.436,-1.63727e-05,0.0677716,21.0251,-461.893,0.641485,0.0,0.0
432,107.75,46.8947,50.2914,157.45,111.212,102.644,-0.000106017,0.0671835,21.0258,-461.893,0.709123,0.0,0.0
434,108.25,46.727,49.7806,159.593,111.23,103.268,-0.0001923,0.0667071,21.0268,-461.933,0.65691,0.0,0.0
436,108.75,46.8573,50.3201,161.125,111.221,102.603,-0.000272316,0.0659142,21.028,-461.913,0.713293,0.0,0.0
438,109.25,46.548,49.7713,165.4,111.229,103.117,-0.000346244,0.0652719,21.0292,-461.923,0.669809,0.0,0.0
440,109.75,46.8579,49.621,157.191,111.21,103.052,-0.000406125,0.0644262,21.0304,-461.933,0.673927,0.0,0.0
442,110.25,46.5772,50.2093,157.547,111.244,103.554,-0.000454629,0.0637412,21.0314,-461.953,0.633596,0.0,0.0
444,110.75,46.5557,50.2957,166.202,111.229,102.868,-0.000503538,0.0628883,21.0324,-461.953,0.69113,0.0,0.0
446,111.25,47.045,49.8054,163.285,111.228,103.11,-0.000543154,0.0621974,21.0335,-461.923,0.67032,0.0,0.0
448,111.75,46.6347,49.9193,162.573,111.224,102.792,-0.000575243,0.0613941,21.0343,-461.933,0.697348,0.0,0.0
450,112.25,46.4752,49.4702,159.995,111.236,102.926,-0.000601235,0.0607434,21.035,-461.953,0.686742,0.0,0.0
452,112.75,46.9206,49.5129,163.77,111.223,103.433,-0.000625453,0.0600239,21.0356,-461.963,0.64221,0.0,0.0
454,113.25,46.3557,49.8002,165.656,111.239,102.607,-0.000647918,0.0592681,21.0365,-461.933,0.714427,0.0,0.0
456,113.75,46.6224,49.4739,164.523,111.227,102.985,-0.000673077,0.0586559,21.0372,-461.933,0.680937,0.0,0.0
458,114.25,46.9219,49.6989,160.085,111.24,102.867,-0.000699722,0.0577003,21.0382,-461.933,0.692163,0.0,0.0
460,114.75,46.7334,49.9703,158.645,111.23,103.131,-0.000730798,0.0569263,21.0391,-461.923,0.66873,0.0,0.0
462,115.25,46.5782,49.5968,158.432,111.237,102.776,-0.000764514,0.0561073,21.0402,-461.923,0.699748,0.0,0.0
464,115.75,46.4974,49.7068,160.328,111.239,103.131,-0.000804482,0.0552711,21.0411,-461.933,0.669361,0.0,0.0
466,116.25,46.7929,49.628,159.413,111.235,102.844,-0.000848249,0.0544162,21.0423,-461.933,0.693698,0.0,0.0
468,116.75,46.7766,49.4388,159.555,111.242,103.331,-0.000883701,0.0535638,21.0432,-461.943,0.652505,0.0,0.0
470,117.25,46.8067,49.865,158.092,111.237,102.706,-0.000940265,0.0527668,21.044,-461.953,0.705708,0.0,0.0
472,117.75,46.6659,49.6239,160.05,111.237,103.25,-0.00101115,0.0520254,21.0451,-461.953,0.659006,0.0,0.0
474,118.25,46.3554,49.4501,158.844,111.242,103.097,-0.00108502,0.0512829,21.046,-461.963,0.672591,0.0,0.0
476,118.75,46.2447,48.9845,162.499,111.23,103.26,-0.00115966,0.0505537,21.0471,-461.953,0.657598,0.0,0.0
478,119.25,46.421,50.0255,162.489,111.233,103.851,-0.00122899,0.049963,21.0481,-461.973,0.60743,0.0,0.0
480,119.75,46.763,49.304,158.239,111.231,103.026,-0.00126274,0.0492284,21.0485,-461.943,0.67773,0.0,0.0
482,120.25,45.8878,49.1355,159.305,111.233,102.583,-0.00135828,0.0486334,21.0494,-461.933,0.715975,0.0,0.0
484,120.75,46.4313,49.341,158.504,111.235,102.724,-0.00138607,0.0480592,21.0499,-461.923,0.703994,0.0,0.0
486,121.25,46.2054,49.5311,159.119,111.236,102.944,-0.00143357,0.0475112,21.0508,-461.953,0.685246,0.0,0.0
488,121.75,46.8351,49.5372,163.399,111.234,103.191,-0.00148649,0.0469893,21.0515,-461.933,0.663841,0.0,0.0
490,122.25,46.4643,49.1538,161.364,111.237,102.759,-0.00152935,0.0464964,21.052,-461.943,0.701208,0.0,0.0
492,122.75,46.5185,49.057,163.78,111.229,103.1,-0.00157419,0.0462862,21.0525,-461.963,0.67123,0.0,0.0
494,123.25,46.4973,49.2794,159.83,111.229,103.086,-0.00161963,0.0456008,21.0533,-461.943,0.67249,0.0,0.0
496,123.75,46.8711,49.8584,161.252,111.217,103.199,-0.00165643,0.0454164,21.0544,-461.963,0.661816,0.0,0.0
498,124.25,46.4672,49.5704,158.808,111.241,103.456,-0.00168624,0.0449395,21.0553,-461.973,0.641702,0.0,0.0
500,124.75,45.6205,49.3232,162.303,111.228,103.437,-0.00173444,0.0445533,21.056,-461.983,0.642292,0.0,0.0
502,125.25,45.955,48.8007,159.032,111.228,103.664,-0.00175499,0.0441193,21.0563,-461.953,0.622881,0.0,0.0
504,125.75,46.137,49.3222,163.437,111.225,102.793,-0.0017857,0.0437677,21.0567,-461.973,0.697264,0.0,0.0
506,126.25,46.2457,49.011,159.065,111.228,103.246,-0.00180658,0.043483,21.0571,-461.973,0.658643,0.0,0.0
508,126.75,46.1366,49.1063,161.711,111.231,102.773,-0.00181527,0.0431532,21.0574,-461.963,0.699486,0.0,0.0
510,127.25,46.3994,49.3922,157.601,111.227,103.247,-0.0018149,0.0427968,21.0577,-461.963,0.658497,0.0,0.0
512,127.75,46.1469,48.8843,163.578,111.214,103.208,-0.00180384,0.0425081,21.0579,-461.953,0.660734,0.0,0.0
514,128.25,45.7409,48.8458,164.134,111.231,103.171,-0.0017852,0.042385,21.0585,-461.983,0.665317,0.0,0.0
516,128.75,46.5456,48.5753,160.321,111.217,102.897,-0.00175935,0.0420804,21.059,-461.963,0.687688,0.0,0.0
518,129.25,45.7986,49.1324,159.94,111.218,102.94,-0.00172872,0.0418266,21.0594,-461.963,0.68411,0.0,0.0
520,129.75,46.2551,48.9923,157.517,111.226,103.42,-0.00169631,0.0416147,21.0597,-461.963,0.643637,0.0,0.0
522,130.25,46.2606,48.6116,161.329,111.224,102.94,-0.00166323,0.0414146,21.06,-461.953,0.684603,0.0,0.0
524,130.75,46.0763,49.1747,159.226,111.208,102.448,-0.00163643,0.0412272,21.0602,-461.953,0.725712,0.0,0.0
526,131.25,46.0736,49.2385,160.451,111.217,102.643,-0.00161953,0.0410682,21.0604,-461.953,0.709587,0.0,0.0
528,131.75,45.4057,48.3927,161.286,111.242,103.104,-0.00160585,0.0409331,21.0605,-461.973,0.671943,0.0,0.0
530,132.25,45.9246,49.1417,159.109,111.221,102.978,-0.00160552,0.0408095,21.0606,-461.953,0.681058,0.0,0.0
532,132.75,45.6571,48.7521,161.258,111.227,102.459,-0.00161494,0.0406966,21.0603,-461.973,0.726264,0.0,0.0
534,133.25,45.6691,48.4367,158.528,111.217,103.208,-0.00162257,0.0406052,21.06,-461.973,0.661014,0.0,0.0
536,133.75,45.9176,48.5974,163.511,111.221,103.339,-0.0016504,0.0404908,21.0597,-461.983,0.650202,0.0,0.0
538,134.25,45.93,47.8236,158.571,111.203,102.958,-0.00167294,0.0403982,21.0596,-461.973,0.681377,0.0,0.0
540,134.75,45.8596,48.351,160.143,111.216,103.29,-0.00169841,0.0402877,21.0594,-461.973,0.65391,0.0,0.0
542,135.25,45.5499,48.6978,160.523,111.206,103.215,-0.00171905,0.0401664,21.0593,-461.993,0.659526,0.0,0.0
544,135.75,45.8713,48.4196,160.906,111.201,103.26,-0.00173696,0.0400469,21.0592,-461.983,0.655311,0.0,0.0
546,136.25,45.7668,48.8092,158.336,111.204,103.044,-0.00175147,0.039931,21.0591,-461.973,0.674086,0.0,0.0
548,136.75,46.0317,48.3638,160.017,111.214,102.737,-0.00176563,0.0398372,21.0593,-461.983,0.70123,0.0,0.0
550,137.25,45.9366,48.4937,163.599,111.2,103.025,-0.0017771,0.0397746,21.0596,-461.963,0.675382,0.0,0.0
552,137.75,46.1049,48.7431,164.418,111.203,102.885,-0.00178639,0.0397239,21.0599,-461.973,0.687631,0.0,0.0
554,138.25,46.0873,49.0598,159.68,111.198,102.82,-0.00180233,0.0396559,21.0601,-461.973,0.692779,0.0,0.0
556,138.75,46.146,48.7706,159.506,111.192,103.152,-0.00181525,0.0396009,21.0603,-461.973,0.66387,0.0,0.0
558,139.25,45.9152,48.2578,161.915,111.187,102.439,-0.00183052,0.0395294,21.0605,-461.973,0.724794,0.0,0.0
560,139.75,45.3985,48.7559,159.094,111.189,102.812,-0.00184289,0.0394715,21.0606,-461.963,0.692804,0.0,0.0
562,140.25,45.651,49.0723,163.449,111.179,102.998,-0.00183607,0.0394317,21.0607,-461.993,0.675994,0.0,0.0
564,140.75,45.497,48.7339,161.444,111.191,102.936,-0.00183055,0.0394058,21.0608,-461.973,0.682345,0.0,0.0
566,141.25,45.2688,48.1345,162.756,111.187,102.79,-0.00180202,0.0393848,21.0608,-461.983,0.694472,0.0,0.0
568,141.75,44.9233,47.9637,159.044,111.186,103.009,-0.00177892,0.0393006,21.0609,-461.943,0.675636,0.0,0.0
570,142.25,46.1683,48.4513,160.314,111.183,103.339,-0.00173976,0.0392324,21.0609,-461.953,0.647103,0.0,0.0
572,142.75,45.599,48.3401,157.487,111.177,102.84,-0.00172307,0.03911,21.0609,-461.953,0.689432,0.0,0.0
574,143.25,45.5639,48.175,159.131,111.202,103.05,,0.0390108,,-461.963,0.673377,0.0,0.0
576,143.75,46.2308,48.6398,158.91,111.18,103.092,,0.038917,,-461.973,0.668087,0.0,0.0
578,144.25,45.6352,48.3571,163.45,111.164,103.083,,0.038841,,-461.953,0.667477,0.0,0.0
580,144.75,45.7236,48.4379,163.563,111.194,102.676,,0.0387392,,-461.953,0.704912,0.0,0.0
582,145.25,45.1889,48.0573,165.146,111.164,102.762,,0.0386567,,-461.963,0.695133,0.0,0.0
584,145.75,44.9968,47.4762,159.193,111.173,103.213,,0.0386073,,-461.963,0.657114,0.0,0.0
586,146.25,45.4631,48.2621,155.254,111.181,103.201,,,,-461.963,0.658742,0.0,0.0
588,146.75,45.63,47.982,164.514,111.174,103.33,,,,-461.973,0.647163,0.0,0.0
590,147.25,45.0449,48.1466,160.753,111.164,103.072,,,,-461.973,0.668504,0.0,0.0
592,147.75,45.5248,47.9893,159.145,111.165,103.183,,,,-461.943,0.659041,0.0,0.0
594,148.25,45.5045,48.154,165.166,111.156,102.837,,,,-461.963,0.687976,0.0,0.0
596,148.75,45.35,48.0326,163.501,111.163,103.58,,,,-461.943,0.624907,0.0,0.0
598,149.25,45.6601,48.2057,159.805,111.153,103.017,,,,-461.963,0.672377,0.0,0.0
600,149.75,45.5166,48.1588,161.736,111.151,102.611,,,,-461.963,0.707114,0.0,0.0
602,150.25,45.5909,48.0866,161.173,111.14,103.18,,,,-461.953,0.657305,0.0,0.0
604,150.75,45.6297,47.9402,164.903,111.157,102.804,,,,-461.973,0.690924,0.0,0.0
606,151.25,45.4301,47.7971,161.998,111.144,102.979,,,,-461.963,0.674858,0.0,0.0
608,151.75,44.9936,48.0185,163.936,111.154,102.715,,,,-461.973,0.698398,0.0,0.0
610,152.25,45.4512,48.3466,161.866,111.137,103.025,,,,-461.993,0.670381,0.0,0.0
612,152.75,45.5281,47.9868,166.247,111.158,102.985,,,,-461.993,0.675487,0.0,0.0
614,153.25,44.9671,47.7675,165.998,111.128,102.805,,,,-461.993,0.688524,0.0,0.0
616,153.75,45.1629,48.0619,160.743,111.147,102.831,,,,-461.963,0.687848,0.0,0.0