File: 01_Data/Rubber_Foam_Pipe_Insulation/Cone/Rubber_Foam_Pipe_Insulation_Cone_HF50Scan_220307_R3.csv
Names,Time,Stack TC,Smoke TC,Exh Press,Smoke Comp,Smoke Meas,CO Meter,CO2 Meter,O2 Meter,Sample Mass,Ext Coeff,Start Test,Flame Verif
Chan Gain,,500,500,1,1,1,1,1,1,1,1,1.0,1.0
Offset,,0,0,0.13378,0,0,0,0,0,0,0,0.0,0.0
Gain,,1,1,25.011,14.4955,14.6297,1,1,1,1.00092,1.00831,1.0,1.0
Units,sec,C,C,Pa,%,%,%,%,%,g,/m,,
Baseline,,31.923,32.9984,169.681,110.573,102.966,-0.00195912,0.0382522,21.0656,-946.175,0.630464,,
2,0.25,30.9338,31.9029,160.029,111.172,83.893,0.00401346,0.0962423,20.9509,-464.565,2.49017,0.0,1.0
4,0.75,30.4214,31.6248,156.818,111.202,74.3641,0.00518708,0.11971,20.9009,-464.595,3.55893,0.0,1.0
6,1.25,29.7215,31.0907,148.45,111.185,61.0095,0.00633438,0.145633,20.8604,-464.875,5.30833,0.0,1.0
8,1.75,30.7674,31.5859,155.695,111.194,61.3475,0.00726369,0.172855,20.821,-464.865,5.26021,0.0,1.0
10,2.25,30.9638,31.8466,150.087,111.183,65.2661,0.00817983,0.198495,20.7831,-464.935,4.71167,0.0,1.0
12,2.75,31.353,32.4578,157.112,111.206,69.7428,0.00906895,0.222495,20.7511,-465.005,4.12673,0.0,1.0
14,3.25,31.7739,32.7853,151.672,111.185,70.9813,0.00978914,0.243351,20.7238,-465.096,3.96935,0.0,1.0
16,3.75,32.5629,32.6919,152.29,111.198,70.2991,0.0104059,0.261518,20.7017,-465.146,4.05583,0.0,1.0
18,4.25,33.0959,33.4032,153.568,111.19,71.4282,0.010871,0.276233,20.6839,-465.206,3.9143,0.0,1.0
20,4.75,33.148,33.8958,148.501,111.202,72.9131,0.0112167,0.288073,20.6694,-465.296,3.73326,0.0,1.0
22,5.25,33.578,33.978,153.252,111.189,72.5787,0.0114968,0.297663,20.6577,-465.366,3.77282,0.0,1.0
24,5.75,33.6685,34.2137,156.44,111.202,76.3933,0.0116422,0.305431,20.6482,-465.436,3.32078,0.0,0.0
26,6.25,33.6197,34.4132,146.815,111.198,75.0101,0.0116866,0.309097,20.6436,-465.496,3.48207,0.0,0.0
28,6.75,33.789,34.5045,154.28,111.202,79.306,0.0117227,0.312066,20.6399,-465.566,2.98989,0.0,0.0
30,7.25,34.398,35.26,154.37,111.197,79.2381,0.0116511,0.312483,20.6386,-465.646,2.997,0.0,0.0
32,7.75,34.9029,35.9229,158.573,111.212,79.3614,0.0115932,0.312821,20.6389,-465.676,2.98445,0.0,0.0
34,8.25,35.0617,35.5508,155.992,111.186,81.0651,0.0114864,0.312244,20.6404,-465.726,2.79455,0.0,0.0
36,8.75,35.2319,36.1963,156.549,111.202,82.7554,0.0114,0.311012,20.6427,-465.776,2.61329,0.0,0.0
38,9.25,36.3801,36.5983,155.469,111.216,80.6914,0.0113299,0.310014,20.6445,-465.836,2.83781,0.0,0.0
40,9.75,37.1462,37.2656,156.84,111.2,81.1106,0.0112605,0.308628,20.646,-465.926,2.79071,0.0,0.0
42,10.25,36.1284,37.2039,147.841,111.212,81.3454,0.0112136,0.307505,20.6472,-465.956,2.76605,0.0,0.0
44,10.75,35.9574,37.4137,153.766,111.209,82.629,0.0111841,0.307221,20.6482,-465.986,2.62736,0.0,0.0
46,11.25,36.4047,37.5171,161.328,111.192,81.8785,0.0111601,0.30699,20.649,-466.066,2.70673,0.0,0.0
48,11.75,36.7988,37.4228,153.809,111.214,80.4119,0.0111548,0.30767,20.647,-466.157,2.86835,0.0,0.0
50,12.25,37.1029,37.6045,154.415,111.198,81.5459,0.0111504,0.309001,20.6453,-466.207,2.74315,0.0,0.0
52,12.75,37.3516,38.1141,153.673,111.217,79.4319,0.0111634,0.310079,20.644,-466.257,2.97702,0.0,0.0
54,13.25,37.5854,38.5611,152.531,111.22,80.6963,0.0111739,0.312435,20.6417,-466.317,2.83758,0.0,0.0
56,13.75,37.8492,38.8634,162.846,111.212,81.3312,0.0111824,0.314343,20.6388,-466.377,2.7676,0.0,0.0
58,14.25,38.0234,39.1209,149.727,111.209,81.5624,0.0112581,0.317586,20.6358,-466.477,2.74228,0.0,0.0
60,14.75,38.013,39.127,154.734,111.21,83.1755,0.0113194,0.320212,20.6329,-466.527,2.56913,0.0,0.0
62,15.25,38.7125,39.6797,157.483,111.198,79.1216,0.0114033,0.324496,20.6305,-466.587,3.01013,0.0,0.0
64,15.75,38.9684,40.016,156.613,111.211,74.4221,0.0115021,0.327967,20.624,-466.667,3.55277,0.0,0.0
66,16.25,38.7577,40.0258,147.504,111.203,72.6046,0.0115821,0.330778,20.6188,-466.717,3.77083,0.0,0.0
68,16.75,39.3369,40.6907,152.1,111.211,73.623,0.0117156,0.33476,20.6146,-466.787,3.64826,0.0,0.0
70,17.25,39.3824,40.4697,149.753,111.204,73.26,0.0118855,0.337985,20.6081,-466.857,3.69141,0.0,0.0
72,17.75,39.7561,40.9472,157.85,111.204,73.264,0.0120508,0.34064,20.6028,-466.917,3.69089,0.0,0.0
74,18.25,40.0137,41.407,152.593,111.211,74.586,0.0122096,0.342829,20.5985,-466.947,3.53328,0.0,0.0
76,18.75,40.296,41.5461,157.312,111.206,73.7127,0.0123449,0.344602,20.595,-467.037,3.63703,0.0,0.0
78,19.25,40.6117,41.7262,152.824,111.198,74.4668,0.0124606,0.34528,20.5922,-467.077,3.54638,0.0,0.0
80,19.75,40.7864,41.9795,152.294,111.205,73.3997,0.0125409,0.34583,20.5899,-467.137,3.67459,0.0,0.0
82,20.25,41.0401,42.0857,146.664,111.19,75.9254,0.0125937,0.346275,20.5907,-467.207,3.37417,0.0,0.0
84,20.75,41.1533,42.8469,155.207,111.202,75.9165,0.0125974,0.345079,20.5914,-467.227,3.37616,0.0,0.0
86,21.25,41.5973,42.9501,154.334,111.215,71.5541,0.0125652,0.34411,20.5938,-467.278,3.90065,0.0,0.0
88,21.75,41.5748,42.721,151.581,111.202,73.5725,0.0125514,0.341951,20.5948,-467.358,3.65362,0.0,0.0
90,22.25,41.8938,43.313,154.348,111.193,73.685,0.0124002,0.340203,20.5981,-467.398,3.63933,0.0,0.0
92,22.75,41.9644,43.5335,157.588,111.193,73.0154,0.0122776,0.337073,20.6023,-467.478,3.72012,0.0,0.0
94,23.25,42.0835,43.7119,152.136,111.193,74.3333,0.0120646,0.334537,20.6057,-467.528,3.56189,0.0,0.0
96,23.75,42.6284,44.0677,157.373,111.189,77.9965,0.0117895,0.330527,20.612,-467.598,3.13606,0.0,0.0
98,24.25,42.8975,44.2416,156.403,111.176,75.5731,0.0114768,0.326224,20.6172,-467.638,3.41425,0.0,0.0
100,24.75,42.7152,44.4839,150.965,111.19,78.9153,0.0111425,0.32389,20.6245,-467.708,3.03262,0.0,0.0
102,25.25,42.7704,44.6593,155.664,111.179,78.3769,0.010798,0.319899,20.6304,-467.728,3.09229,0.0,0.0
104,25.75,42.8382,44.5369,159.363,111.184,78.585,0.0104527,0.3157,20.6368,-467.778,3.06923,0.0,0.0
106,26.25,42.9571,44.6986,163.72,111.184,80.5235,0.010173,0.31143,20.6435,-467.798,2.85366,0.0,0.0
108,26.75,43.4812,45.0055,156.333,111.181,81.2762,0.00978819,0.307971,20.6489,-467.838,2.77111,0.0,0.0
110,27.25,43.269,45.3648,157.774,111.171,81.9857,0.00947647,0.304009,20.656,-467.868,2.69344,0.0,0.0
112,27.75,43.4599,45.1696,155.739,111.168,82.433,0.00913839,0.300799,20.6617,-467.898,2.64513,0.0,0.0
114,28.25,43.6657,45.3603,152.365,111.164,80.9557,0.00878751,0.297568,20.6672,-467.908,2.80469,0.0,0.0
116,28.75,44.1407,45.8319,160.635,111.161,81.4026,0.00842984,0.29495,20.6717,-467.948,2.75583,0.0,0.0
118,29.25,43.6167,45.6747,157.314,111.161,84.8729,0.00807402,0.292223,20.678,-467.998,2.38654,0.0,0.0
120,29.75,44.0473,46.222,157.332,111.156,83.7613,0.00778581,0.289468,20.6831,-468.038,2.50273,0.0,0.0
122,30.25,44.1347,46.1224,159.09,111.167,85.3489,0.00745441,0.28652,20.6873,-468.068,2.33753,0.0,0.0
124,30.75,44.0795,46.0748,159.358,111.16,87.1146,0.00709781,0.283486,20.6933,-468.088,2.15585,0.0,0.0
126,31.25,44.4338,46.3484,164.71,111.149,85.502,0.00674394,0.280316,20.6982,-468.128,2.32027,0.0,0.0
128,31.75,44.6016,46.3707,158.239,111.127,88.5964,0.00639876,0.277106,20.7053,-468.158,2.00406,0.0,0.0
130,32.25,44.6851,46.6038,159.335,111.14,90.3591,0.00604594,0.274506,20.7111,-468.178,1.83088,0.0,0.0
132,32.75,44.3885,46.3951,150.044,111.145,90.3242,0.00569425,0.270205,20.7193,-468.198,1.83471,0.0,0.0
134,33.25,44.9371,46.814,159.471,111.125,93.4776,0.00533577,0.266722,20.726,-468.258,1.52953,0.0,0.0
136,33.75,44.3171,46.6542,162.421,111.129,93.3794,0.00497915,0.262478,20.7372,-468.258,1.53915,0.0,0.0
138,34.25,44.9025,46.7691,160.778,111.124,93.508,0.00462403,0.257762,20.7463,-468.258,1.52663,0.0,0.0
140,34.75,44.7139,46.9923,157.955,111.117,95.4845,0.00427675,0.253941,20.7576,-468.318,1.34102,0.0,0.0
142,35.25,44.9076,47.1239,165.289,111.122,96.1358,0.00394862,0.248452,20.7669,-468.308,1.28131,0.0,0.0
144,35.75,45.0622,47.1864,157.311,111.107,97.527,0.00364069,0.244005,20.7743,-468.318,1.15304,0.0,0.0
146,36.25,44.6236,47.0857,159.112,111.111,97.2739,0.00339127,0.238189,20.7835,-468.369,1.17634,0.0,0.0
148,36.75,44.8457,47.1105,158.131,111.104,97.5302,0.00318923,0.233478,20.791,-468.359,1.15251,0.0,0.0
150,37.25,44.6703,46.9841,160.364,111.097,99.053,0.00298846,0.22745,20.797,-468.399,1.01494,0.0,0.0
152,37.75,44.6629,46.8327,158.696,111.092,99.3606,0.00279243,0.22154,20.805,-468.429,0.987127,0.0,0.0
154,38.25,45.0398,47.3519,164.71,111.089,100.116,0.00263364,0.21583,20.8115,-468.419,0.919894,0.0,0.0
156,38.75,45.0662,47.2688,160.757,111.081,100.164,0.00249409,0.211205,20.8184,-468.419,0.914963,0.0,0.0
158,39.25,45.1827,47.2531,162.556,111.085,100.165,0.00238105,0.207458,20.8255,-468.439,0.915276,0.0,0.0
160,39.75,44.9872,47.3246,163.536,111.065,100.384,0.00228706,0.200789,20.8331,-468.469,0.894319,0.0,0.0
162,40.25,45.0212,47.2459,163.643,111.067,101.685,0.00221093,0.195387,20.841,-468.469,0.780527,0.0,0.0
164,40.75,44.8459,47.2915,164.674,111.057,101.293,0.00215655,0.191011,20.8507,-468.469,0.813953,0.0,0.0
166,41.25,44.5982,46.5682,168.267,111.055,101.523,0.0021125,0.184469,20.8615,-468.479,0.793723,0.0,0.0
168,41.75,44.309,46.7327,164.604,111.039,102.119,0.00210234,0.17917,20.8721,-468.469,0.740641,0.0,0.0
170,42.25,45.0766,47.5489,165.223,111.046,102.843,0.00209411,0.17305,20.8824,-468.489,0.678816,0.0,0.0
172,42.75,44.5329,47.4398,162.13,111.033,102.09,0.00210857,0.168093,20.8907,-468.499,0.742696,0.0,0.0
174,43.25,44.6758,46.968,169.983,111.029,101.278,0.0021393,0.162413,20.9002,-468.499,0.81302,0.0,0.0
176,43.75,44.7399,47.4378,165.084,111.01,102.139,0.00216419,0.157813,20.9078,-468.509,0.736611,0.0,0.0
178,44.25,44.5175,47.2866,168.022,111.01,102.197,0.00225012,0.152614,20.9152,-468.509,0.731551,0.0,0.0
180,44.75,44.1344,47.0094,161.47,110.996,102.882,0.00231972,0.148402,20.9222,-468.519,0.671455,0.0,0.0
182,45.25,44.1816,46.8905,164.24,110.993,101.761,0.00242246,0.144335,20.9289,-468.529,0.768077,0.0,0.0
184,45.75,43.9766,46.6577,165.892,110.983,102.717,0.00250568,0.140452,20.9351,-468.539,0.684538,0.0,0.0
186,46.25,44.2073,47.1108,164.13,110.985,102.954,0.00256366,0.137307,20.9378,-468.559,0.664324,0.0,0.0
188,46.75,44.3129,47.1584,163.362,110.984,101.91,0.0026628,0.133491,20.9445,-468.559,0.754464,0.0,0.0
190,47.25,44.0652,46.7497,174.516,110.96,102.037,0.00275532,0.1304,20.95,-468.559,0.74145,0.0,0.0
192,47.75,43.9595,46.4586,166.356,110.946,103.204,0.00284127,0.127334,20.9562,-468.569,0.639803,0.0,0.0
194,48.25,43.5341,46.0497,164.192,110.939,102.622,0.00291089,0.124343,20.9613,-468.569,0.689274,0.0,0.0
196,48.75,43.9463,46.0329,164.039,110.925,102.442,0.00298563,0.121513,20.9659,-468.579,0.703631,0.0,0.0
198,49.25,43.6304,46.299,167.383,110.933,102.121,0.00304617,0.120113,20.97,-468.589,0.732025,0.0,0.0
200,49.75,43.5986,45.8338,158.913,110.914,102.729,0.00310132,0.117464,20.9735,-468.589,0.678034,0.0,0.0
202,50.25,43.0253,45.3919,165.861,110.907,102.663,0.003146,0.115089,20.9766,-468.599,0.683234,0.0,0.0
204,50.75,42.4627,45.0364,165.858,110.895,102.719,0.00318219,0.113165,20.9792,-468.599,0.677327,0.0,0.0
206,51.25,42.682,45.5341,164.797,110.914,102.559,0.00320416,0.111206,20.9812,-468.629,0.692691,0.0,0.0
208,51.75,42.8906,45.3317,165.706,110.866,102.56,0.00322195,0.109619,20.9828,-468.609,0.688807,0.0,0.0
210,52.25,42.3425,45.0573,166.252,110.869,102.714,0.00323881,0.108152,20.9846,-468.619,0.675739,0.0,0.0
212,52.75,42.9346,45.2736,151.807,110.846,102.741,0.00325247,0.106801,20.9865,-468.629,0.671635,0.0,0.0
214,53.25,42.3356,44.9806,160.388,110.863,102.462,0.0032721,0.105531,20.9881,-468.639,0.697031,0.0,0.0
216,53.75,42.7216,44.7863,166.355,110.839,103.133,0.003288,0.104347,20.9893,-468.629,0.63735,0.0,0.0
218,54.25,42.5969,44.3368,169.358,110.836,103.27,0.00331556,0.103387,20.9905,-468.639,0.625395,0.0,0.0
220,54.75,42.0867,44.7607,168.754,110.812,102.711,0.00333789,0.102279,20.9918,-468.639,0.671457,0.0,0.0
222,55.25,42.2696,44.6776,165.049,110.813,102.584,0.00337802,0.101382,20.993,-468.649,0.682453,0.0,0.0
224,55.75,42.2876,44.4375,168.69,110.785,102.725,0.00342278,0.100407,20.9942,-468.659,0.668108,0.0,0.0
226,56.25,42.1987,44.917,166.235,110.78,102.808,0.00347007,0.0996172,20.9954,-468.659,0.660575,0.0,0.0
228,56.75,41.664,44.56,169.135,110.757,102.75,0.00350837,0.0987574,20.9966,-468.659,0.663769,0.0,0.0
230,57.25,41.6976,44.6112,168.378,110.755,102.363,0.00354584,0.098061,20.9975,-468.669,0.696941,0.0,0.0
232,57.75,41.354,44.0311,167.928,110.749,102.818,0.003582,0.0972768,20.9983,-468.679,0.657181,0.0,0.0
234,58.25,41.6489,44.4634,167.765,110.732,102.284,0.00361129,0.0966416,20.9989,-468.679,0.701931,0.0,0.0
236,58.75,41.2241,44.5352,167.714,110.711,103.278,0.00362889,0.0959347,20.9995,-468.689,0.614707,0.0,0.0
238,59.25,41.6688,44.1745,164.155,110.706,102.741,0.00364314,0.095362,20.9999,-468.689,0.660365,0.0,0.0
240,59.75,41.0132,44.3957,167.847,110.705,102.33,0.00365469,0.0948403,21.0002,-468.709,0.695838,0.0,0.0
242,60.25,41.5011,44.0264,168.648,110.684,103.1,0.00365433,0.0943657,21.0005,-468.719,0.627821,0.0,0.0
244,60.75,40.7777,43.8671,168.354,110.676,101.96,0.00364529,0.0939812,21.0006,-468.729,0.725477,0.0,0.0
246,61.25,41.1344,44.3374,168.433,110.657,102.607,0.00363218,0.0936835,21.0008,-468.739,0.668015,0.0,0.0
248,61.75,40.8203,43.6661,165.129,110.635,102.604,0.00361633,0.0934424,21.0009,-468.739,0.666555,0.0,0.0
250,62.25,41.471,43.4457,168.071,110.637,102.677,0.00360155,0.0932471,21.001,-468.749,0.660425,0.0,0.0
252,62.75,41.0392,43.9383,168.594,110.608,102.901,0.00358785,0.0930098,21.001,-468.759,0.638876,0.0,0.0
254,63.25,40.7334,43.3081,161.759,110.616,102.23,0.00357739,0.0927465,21.0011,-468.759,0.697341,0.0,0.0
256,63.75,40.6291,43.7517,165.492,110.602,102.436,0.0035695,0.0924971,21.0011,-468.749,0.678385,0.0,0.0
258,64.25,41.0563,43.6081,169.29,110.59,102.537,0.00356311,0.0922625,21.0012,-468.769,0.668757,0.0,0.0
260,64.75,40.3853,43.4773,166.316,110.577,102.346,0.00355019,0.0920364,21.0012,-468.759,0.684155,0.0,0.0
262,65.25,40.3502,43.3401,167.596,110.557,102.466,0.00353277,0.0918206,21.0012,-468.779,0.672224,0.0,0.0
264,65.75,40.8184,43.2458,166.661,110.543,102.372,0.00350385,0.0915809,21.0012,-468.779,0.679266,0.0,0.0
266,66.25,40.2689,42.7776,170.766,110.536,102.758,0.00346708,0.0913282,21.0013,-468.779,0.645396,0.0,0.0
268,66.75,40.1947,43.0571,166.561,110.512,102.347,0.00342056,0.0911234,21.0013,-468.779,0.678913,0.0,0.0
270,67.25,40.1915,43.3686,168.237,110.512,102.133,0.00336782,0.0908341,21.0013,-468.799,0.697415,0.0,0.0
272,67.75,40.3523,42.9664,166.949,110.493,102.316,0.0033116,0.0905997,21.0013,-468.789,0.680015,0.0,0.0
274,68.25,40.7684,43.3622,169.733,110.48,102.784,0.0032539,0.0903232,21.0018,-468.799,0.638632,0.0,0.0
276,68.75,40.5333,42.7012,157.116,110.455,102.035,0.00320716,0.0900213,21.0021,-468.789,0.701356,0.0,0.0
278,69.25,40.2708,42.6535,169.024,110.449,102.42,0.00315838,0.0896396,21.0024,-468.809,0.667521,0.0,0.0
280,69.75,40.3166,43.0454,157.788,110.442,102.167,0.00311886,0.089207,21.0031,-468.809,0.688807,0.0,0.0
282,70.25,40.8607,43.3195,167.616,110.421,101.949,0.00308557,0.0887483,21.0037,-468.819,0.706058,0.0,0.0
284,70.75,40.548,42.022,167.303,110.417,102.933,0.00305745,0.0882795,21.004,-468.819,0.620783,0.0,0.0
286,71.25,40.2389,42.611,167.478,110.4,102.509,0.00303467,0.0878997,21.0042,-468.819,0.655919,0.0,0.0
288,71.75,40.1104,42.0859,163.906,110.384,102.789,0.00300337,0.0875236,21.0044,-468.829,0.630561,0.0,0.0
290,72.25,39.8444,42.3066,167.64,110.369,102.512,0.00296645,0.0872189,21.0045,-468.829,0.653241,0.0,0.0
292,72.75,39.6799,42.2493,168.671,110.36,102.374,0.00292756,0.0869068,21.0046,-468.849,0.664373,0.0,0.0
294,73.25,40.3267,42.6868,166.302,110.343,102.077,0.00288796,0.0865951,21.0047,-468.839,0.68871,0.0,0.0
296,73.75,39.7614,42.1624,164.022,110.342,102.618,0.0028514,0.0863427,21.0048,-468.849,0.641918,0.0,0.0
298,74.25,39.4016,41.6097,167.411,110.321,102.156,0.00281773,0.086015,21.0049,-468.849,0.680057,0.0,0.0
300,74.75,39.3165,41.6036,169.407,110.314,102.131,0.00278982,0.0857495,21.0049,-468.859,0.681693,0.0,0.0
302,75.25,39.7536,42.1342,172.912,110.302,102.352,0.00276664,0.0855417,21.005,-468.859,0.661579,0.0,0.0
304,75.75,39.4564,41.9118,162.188,110.299,102.457,0.00275043,0.0853799,21.005,-468.859,0.652307,0.0,0.0
306,76.25,39.231,41.4792,166.463,110.266,102.892,0.00273961,0.0852416,21.0051,-468.869,0.612147,0.0,0.0
308,76.75,38.9168,41.3498,170.415,110.258,102.357,0.00273213,0.0851231,21.0051,-468.869,0.657645,0.0,0.0
310,77.25,39.689,41.7067,165.169,110.233,102.478,0.00272723,0.084955,21.0051,-468.869,0.64517,0.0,0.0
312,77.75,39.5872,41.7926,165.668,110.227,102.005,0.00272325,0.0847541,21.0051,-468.869,0.685649,0.0,0.0
314,78.25,39.5964,41.8214,167.495,110.208,101.809,0.00271041,0.0844905,21.0056,-468.859,0.701137,0.0,0.0
316,78.75,39.4849,41.6755,168.651,110.191,102.49,0.00269134,0.0841862,21.0064,-468.859,0.640757,0.0,0.0
318,79.25,39.7823,41.7749,159.763,110.174,101.885,0.00266243,0.0838749,21.0071,-468.879,0.691773,0.0,0.0
320,79.75,38.9864,41.4946,165.436,110.16,102.56,0.00262688,0.0835645,21.0076,-468.879,0.632336,0.0,0.0
322,80.25,38.8378,40.8772,164.91,110.151,101.887,0.00259809,0.0833131,21.008,-468.889,0.689768,0.0,0.0
324,80.75,38.8515,40.7375,165.126,110.151,102.021,0.00253574,0.083,21.0085,-468.879,0.678183,0.0,0.0
326,81.25,39.0996,41.7875,165.941,110.115,102.414,0.00248523,0.0827464,21.0089,-468.879,0.641199,0.0,0.0
328,81.75,38.6171,41.5842,166.108,110.094,102.504,0.00242767,0.082541,21.0093,-468.909,0.631857,0.0,0.0
330,82.25,39,41.3778,164.615,110.085,102.41,0.00236607,0.0823746,21.0095,-468.899,0.639243,0.0,0.0
332,82.75,38.9624,41.9664,171.507,110.078,102.685,0.00231617,0.0822398,21.0098,-468.909,0.614877,0.0,0.0
334,83.25,38.7675,41.4477,165.625,110.068,101.798,0.00225273,0.0821452,21.01,-468.899,0.690838,0.0,0.0
336,83.75,38.756,41.3094,155.227,110.055,101.597,0.00218062,0.0820686,21.0102,-468.909,0.70721,0.0,0.0
338,84.25,38.2612,40.4517,166.83,110.029,102.186,0.00210943,0.0819274,21.0103,-468.919,0.654103,0.0,0.0
340,84.75,38.4381,40.8414,165.134,110.036,102.134,0.00201078,0.0817417,21.0112,-468.929,0.659159,0.0,0.0
342,85.25,38.8544,40.9138,167.858,110,102.105,0.00198424,0.0815914,21.0114,-468.939,0.658753,0.0,0.0
344,85.75,38.6866,40.9947,160.693,110.005,101.67,0.00192354,0.0814696,21.0118,-468.919,0.696969,0.0,0.0
346,86.25,39.0313,41.1394,158.075,109.986,102.077,0.00186058,0.0811249,21.0121,-468.919,0.660088,0.0,0.0
348,86.75,39.0691,40.6104,165.335,109.979,101.972,0.00180256,0.0808458,21.0123,-468.919,0.668653,0.0,0.0
350,87.25,38.0882,40.7963,169.405,109.954,102.366,0.00174925,0.0804967,21.013,-468.919,0.632457,0.0,0.0
352,87.75,37.9565,40.7036,166.476,109.943,102.006,0.00170032,0.0800935,21.0135,-468.919,0.66275,0.0,0.0
354,88.25,38.3224,40.5033,167.832,109.926,101.841,0.00165552,0.0799203,21.0139,-468.919,0.675662,0.0,0.0
356,88.75,38.6101,40.7235,163.988,109.931,101.625,0.00161222,0.0796242,21.0143,-468.929,0.694915,0.0,0.0
358,89.25,38.6962,40.7141,156.611,109.905,102.146,0.00157084,0.0793843,21.0146,-468.929,0.647619,0.0,0.0
360,89.75,38.658,40.7548,166.7,109.9,102.349,0.00151673,0.0789989,21.0148,-468.949,0.629545,0.0,0.0
362,90.25,37.8753,40.63,169.656,109.88,101.613,0.0014729,0.0786508,21.015,-468.939,0.691792,0.0,0.0
364,90.75,38.0575,40.7301,166.99,109.865,102.231,0.0014374,0.0783366,21.0151,-468.949,0.636963,0.0,0.0
366,91.25,37.9356,40.3644,170.871,109.85,101.533,0.00135548,0.0780676,21.0157,-468.949,0.696368,0.0,0.0
368,91.75,38.2081,40.6096,172.501,109.849,102.025,0.00128913,0.0778369,21.0162,-468.939,0.653506,0.0,0.0
370,92.25,38.347,40.2465,169.228,109.83,102.939,0.00126084,0.0776428,21.0164,-468.979,0.573097,0.0,0.0
372,92.75,38.4423,40.3611,165.915,109.832,101.68,0.00115449,0.0774791,21.0166,-468.969,0.682047,0.0,0.0
374,93.25,38.0028,40.6085,162.357,109.812,102.306,0.00106834,0.077303,21.0167,-468.979,0.626237,0.0,0.0
376,93.75,37.6988,40.2844,166.616,109.804,102.14,0.000975635,0.0771212,21.0168,-468.979,0.639927,0.0,0.0
378,94.25,38.0546,40.0797,163.375,109.792,101.81,0.000900544,0.0769739,21.0169,-468.969,0.667585,0.0,0.0
380,94.75,37.7572,40.1697,167.914,109.785,101.693,0.000822838,0.0768043,21.017,-468.969,0.677258,0.0,0.0
382,95.25,37.7458,40.2019,163.861,109.777,101.896,0.000759896,0.0767082,21.017,-468.969,0.658891,0.0,0.0
384,95.75,37.9236,39.8194,165.335,109.765,101.582,0.000700031,0.0765439,21.0171,-468.989,0.685214,0.0,0.0
386,96.25,37.7849,40.1413,156.844,109.739,102.587,0.000643546,0.0763678,21.0171,-468.989,0.596072,0.0,0.0
388,96.75,37.8318,40.191,163.552,109.749,102.287,0.000588916,0.0761863,21.0171,-468.989,0.6228,0.0,0.0
390,97.25,37.9488,40.2646,162.405,109.708,101.999,0.000536675,0.0759891,21.0176,-469.009,0.644417,0.0,0.0
392,97.75,37.6111,40.0274,164.705,109.705,101.931,0.000480419,0.0757842,21.018,-469.009,0.650127,0.0,0.0
394,98.25,38.0712,40.3123,163.375,109.684,102.177,0.000422303,0.0755249,21.0183,-468.999,0.627021,0.0,0.0
396,98.75,37.9386,40.5251,164.975,109.688,102.062,0.000375229,0.075231,21.0185,-469.009,0.637355,0.0,0.0
398,99.25,37.4214,39.9152,169.153,109.669,102.021,0.000304615,0.0749212,21.019,-469.009,0.63942,0.0,0.0
400,99.75,38.1245,40.2166,166.317,109.679,102.007,0.000247418,0.0746057,21.0195,-468.999,0.641366,0.0,0.0
402,100.25,37.2226,39.5813,165.447,109.646,101.409,0.000197481,0.0743071,21.02,-468.999,0.690756,0.0,0.0
404,100.75,38.0196,39.622,164.517,109.644,101.643,0.000157031,0.0740266,21.0204,-469.009,0.670193,0.0,0.0
406,101.25,37.7614,39.279,172.679,109.618,101.611,0.000124268,0.0737993,21.0207,-469.019,0.670885,0.0,0.0
408,101.75,37.8434,40.015,165.697,109.611,101.668,0.000104944,0.073588,21.0209,-469.019,0.665415,0.0,0.0
410,102.25,37.5035,39.9499,161.352,109.598,101.768,8.92927e-05,0.0734169,21.0211,-469.019,0.655606,0.0,0.0
412,102.75,37.2136,39.906,161.379,109.592,101.501,8.3831e-05,0.0732065,21.0213,-469.029,0.67838,0.0,0.0
414,103.25,38.1053,39.7537,162.344,109.575,101.491,7.94071e-05,0.0729717,21.0214,-469.019,0.677808,0.0,0.0
416,103.75,37.4524,39.7198,164.516,109.577,102.163,7.22151e-05,0.0727098,21.0215,-469.019,0.619657,0.0,0.0
418,104.25,37.4282,39.9238,167.202,109.583,101.871,6.63895e-05,0.0724332,21.0216,-469.029,0.64551,0.0,0.0
420,104.75,37.0223,39.6331,163.765,109.556,101.308,5.80632e-05,0.0722091,21.0217,-469.019,0.692277,0.0,0.0
422,105.25,37.2665,39.5808,160.264,109.553,102.37,5.13189e-05,0.0719596,21.022,-469.029,0.599812,0.0,0.0
424,105.75,37.3073,39.9281,165.451,109.536,101.714,4.5856e-05,0.0717574,21.0224,-469.019,0.655342,0.0,0.0
426,106.25,37.1882,39.4471,167.886,109.539,102.126,3.95446e-05,0.0714712,21.0229,-469.029,0.619833,0.0,0.0
428,106.75,37.5761,39.6306,166.287,109.531,102.366,4.16449e-05,0.0712394,21.0232,-469.019,0.598412,0.0,0.0
430,107.25,37.6451,39.7383,164.171,109.519,102.085,4.52363e-05,0.0709292,21.0236,-469.019,0.62167,0.0,0.0
432,107.75,37.0524,39.5666,170.879,109.508,102.342,5.00452e-05,0.0706779,21.024,-469.039,0.598601,0.0,0.0
434,108.25,37.2376,39.3967,170.045,109.498,101.901,5.56503e-05,0.0704744,21.0247,-469.009,0.635942,0.0,0.0
436,108.75,37.3266,39.7866,170.553,109.492,101.652,5.17693e-05,0.0703095,21.0253,-469.029,0.657166,0.0,0.0
438,109.25,37.3347,39.9826,166.49,109.483,102.172,4.86256e-05,0.0699251,21.0258,-469.039,0.61124,0.0,0.0
440,109.75,37.0163,39.6322,165.087,109.472,101.521,3.40537e-05,0.0698216,21.0262,-469.019,0.666948,0.0,0.0
442,110.25,37.0193,39.4379,171.544,109.464,101.751,2.22505e-05,0.0696162,21.0265,-469.039,0.646222,0.0,0.0
444,110.75,36.8053,39.0366,171.186,109.452,101.65,-4.1459e-06,0.069424,21.027,-469.039,0.654145,0.0,0.0
446,111.25,36.6327,39.1757,167.161,109.456,101.944,-2.5527e-05,0.0691967,21.0276,-469.039,0.628902,0.0,0.0
448,111.75,36.1895,38.9844,166.915,109.449,101.394,-5.86685e-05,0.0689483,21.0281,-469.019,0.676146,0.0,0.0
450,112.25,37.0456,39.4792,165.916,109.448,101.297,-9.97535e-05,0.068697,21.0285,-469.039,0.684569,0.0,0.0
452,112.75,36.8437,39.3016,168.286,109.43,101.757,-0.000133032,0.0684483,21.0289,-469.039,0.643,0.0,0.0
454,113.25,36.6718,38.7514,168.509,109.434,101.53,-0.000180242,0.0681969,21.0291,-469.049,0.663136,0.0,0.0
456,113.75,36.6379,38.883,169.045,109.429,101.235,-0.00023671,0.0679481,21.0293,-469.049,0.688339,0.0,0.0
458,114.25,36.8542,38.9648,165.759,109.419,101.017,-0.000286879,0.0676895,21.0295,-469.029,0.706722,0.0,0.0
460,114.75,37.2707,38.6713,161.848,109.401,101.476,-0.000331503,0.0674284,21.0296,-469.039,0.665086,0.0,0.0
462,115.25,37.0031,38.8988,170.212,109.419,101.863,-0.00036132,0.067217,21.0298,-469.049,0.632914,0.0,0.0
464,115.75,37.4609,39.1369,171.285,109.398,101.504,-0.000379774,0.0669886,21.0299,-469.049,0.662456,0.0,0.0
466,116.25,36.9449,38.6798,169.319,109.396,101.312,-0.000384596,0.0667521,21.0299,-469.069,0.679021,0.0,0.0
468,116.75,36.9217,39.0921,171.498,109.387,101.635,-0.000379389,0.0665605,21.03,-469.049,0.650098,0.0,0.0
470,117.25,36.859,38.7461,169.215,109.376,101.207,-0.000365043,0.0663103,21.03,-469.059,0.686616,0.0,0.0
472,117.75,36.8529,39.0887,167.307,109.371,101.284,-0.000344309,0.0661076,21.0301,-469.059,0.679403,0.0,0.0
474,118.25,37.1985,38.6188,168.228,109.379,101.705,-0.000319287,0.0658484,21.0301,-469.079,0.643467,0.0,0.0
476,118.75,37.0499,39.1319,173.889,109.359,101.415,-0.000291615,0.0656384,21.0306,-469.079,0.667017,0.0,0.0
478,119.25,36.8551,39.0058,164.541,109.364,101.851,-0.0002692,0.0654412,21.031,-469.069,0.629415,0.0,0.0
480,119.75,36.92,39.0425,169.955,109.339,101.003,-0.000240917,0.0652815,21.0313,-469.079,0.70142,0.0,0.0
482,120.25,36.6487,38.876,166.106,109.353,101.945,-0.000208894,0.0650707,21.0315,-469.089,0.620454,0.0,0.0
484,120.75,36.4739,38.7014,166.28,109.341,101.523,-0.00018055,0.0648999,21.032,-469.099,0.656171,0.0,0.0
486,121.25,36.597,39.0156,164.216,109.334,101.12,-0.000157591,0.0645987,21.0325,-469.089,0.690754,0.0,0.0
488,121.75,36.8004,37.8541,165.344,109.326,101.869,-0.000151694,0.0643548,21.033,-469.089,0.624823,0.0,0.0
490,122.25,36.6281,38.9855,166.309,109.327,102.039,-0.000158348,0.0639944,21.0334,-469.079,0.610251,0.0,0.0
492,122.75,36.4942,38.8842,169.647,109.312,101.691,-0.000163737,0.0637025,21.0337,-469.119,0.639157,0.0,0.0
494,123.25,36.7023,38.5135,156.262,109.317,101.201,-0.000205381,0.0633947,21.0342,-469.129,0.682292,0.0,0.0
496,123.75,36.2319,38.6179,164.022,109.298,101.588,-0.000239113,0.0630811,21.035,-469.119,0.646948,0.0,0.0
498,124.25,36.4879,38.0342,167.918,109.305,101.401,-0.000290488,0.0627772,21.0356,-469.119,0.663898,0.0,0.0
500,124.75,36.5611,38.6469,174.321,109.292,101.174,-0.000332101,0.0624861,21.0361,-469.109,0.682629,0.0,0.0
502,125.25,36.5003,38.695,165.259,109.294,101.769,-0.000385048,0.0622503,21.0365,-469.089,0.630972,0.0,0.0
504,125.75,36.1068,38.6484,167.983,109.284,101.581,-0.000427936,0.0619109,21.0368,-469.079,0.646496,0.0,0.0
506,126.25,36.4312,38.8839,166.693,109.296,100.673,-0.000462675,0.0616361,21.0371,-469.089,0.726888,0.0,0.0
508,126.75,36.2483,38.5898,166.158,109.283,101.459,-0.000547406,0.0613593,21.0377,-469.079,0.657121,0.0,0.0
510,127.25,36.2089,38.8815,167.211,109.287,100.868,-0.000570199,0.061135,21.0387,-469.079,0.709014,0.0,0.0
512,127.75,36.4558,38.6821,168.857,109.271,101.18,-0.00063082,0.0608315,21.0395,-469.119,0.680477,0.0,0.0
514,128.25,36.688,38.6783,172.604,109.275,101.097,-0.000679924,0.0605856,21.0401,-469.099,0.688023,0.0,0.0
516,128.75,36.4132,38.4235,163.478,109.249,101.907,-0.000719697,0.060308,21.0407,-469.109,0.615299,0.0,0.0
518,129.25,36.4106,38.9575,169.395,109.267,101.887,-0.000758877,0.0600126,21.0411,-469.109,0.61851,0.0,0.0
520,129.75,36.6695,38.5092,168.5,109.247,101.146,-0.000796878,0.0597733,21.0414,-469.109,0.681471,0.0,0.0
522,130.25,36.4698,38.0833,168.176,109.258,101.407,-0.000818039,0.0594305,21.0416,-469.099,0.659521,0.0,0.0
524,130.75,36.568,38.5139,167.195,109.24,101.883,-0.000835179,0.0591529,21.0418,-469.109,0.616675,0.0,0.0
526,131.25,36.1823,38.3032,170.059,109.244,101.079,-0.000845454,0.058928,21.042,-469.129,0.687043,0.0,0.0
528,131.75,36.2788,38.6903,165.895,109.242,101.79,-0.000853777,0.0585749,21.0421,-469.139,0.624958,0.0,0.0
530,132.25,36.27,37.848,168.796,109.24,101.583,-0.00087381,0.058135,21.0422,-469.149,0.642762,0.0,0.0
532,132.75,36.5755,38.2469,164.291,109.222,101.434,-0.000901999,0.0576861,21.0425,-469.149,0.654281,0.0,0.0
534,133.25,36.5987,38.1986,165.675,109.218,101.019,-0.000924832,0.0572392,21.043,-469.129,0.690202,0.0,0.0
536,133.75,36.0547,38.1177,168.607,109.205,101.318,-0.000983791,0.0567919,21.0434,-469.129,0.66305,0.0,0.0
538,134.25,36.2079,38.1647,164.248,109.218,101.339,-0.00106797,0.0563526,21.0435,-469.139,0.662255,0.0,0.0
540,134.75,36.2157,38.0503,165.542,109.227,100.793,-0.00115387,0.0559115,21.0437,-469.139,0.710756,0.0,0.0
542,135.25,35.9391,38.1485,170.135,109.224,100.946,-0.0012394,0.0554773,21.0442,-469.129,0.697117,0.0,0.0
544,135.75,36.3724,38.3262,170.397,109.213,101.714,-0.00130994,0.0551256,21.0446,-469.139,0.629156,0.0,0.0
546,136.25,36.2042,38.3283,167.54,109.212,101.484,-0.00136822,0.054691,21.0454,-469.119,0.649101,0.0,0.0
548,136.75,36.1332,37.9099,170.247,109.196,101.751,-0.00140974,0.0542042,21.0461,-469.129,0.624572,0.0,0.0
550,137.25,36.1777,38.0823,168.191,109.193,101.641,-0.00143823,0.0538099,21.0466,-469.119,0.63391,0.0,0.0
552,137.75,36.2665,38.0967,175.372,109.184,101.375,-0.00145815,0.0533555,21.0471,-469.129,0.656419,0.0,0.0
554,138.25,36.126,37.9639,170.254,109.192,101.864,-0.00147144,0.0529874,21.0478,-469.139,0.614434,0.0,0.0
556,138.75,36.4228,38.4196,168.583,109.183,101.494,-0.00148157,0.0525137,21.0485,-469.149,0.645881,0.0,0.0
558,139.25,36.2279,38.4235,168.529,109.192,100.853,-0.0014892,0.05213,21.049,-469.159,0.702677,0.0,0.0
560,139.75,36.374,38.0354,168.495,109.174,101.19,-0.00149538,0.0516708,21.0494,-469.159,0.671661,0.0,0.0
562,140.25,35.7996,37.517,164.003,109.195,101.108,-0.0015052,0.0512988,21.05,-469.149,0.680638,0.0,0.0
564,140.75,35.8121,37.9041,167.977,109.17,101.117,-0.00151316,0.050849,21.0507,-469.159,0.6777,0.0,0.0
566,141.25,36.5424,37.7338,170.981,109.17,101.435,-0.00152023,0.0504066,21.0512,-469.159,0.649975,0.0,0.0
568,141.75,36.7231,38.2649,164.849,109.154,100.963,-0.00152355,0.049978,21.0515,-469.139,0.689972,0.0,0.0
570,142.25,36.1547,38.0537,165.629,109.163,101.654,-0.00152352,0.0496309,21.0519,-469.139,0.630385,0.0,0.0
572,142.75,36.1182,37.7859,173.696,109.141,101.146,-0.00151838,0.0491608,21.0522,-469.129,0.672947,0.0,0.0
574,143.25,36.0034,38.3917,167.984,109.148,101.5,-0.00151421,0.0487801,21.0525,-469.139,0.64254,0.0,0.0
576,143.75,35.9256,38.2989,165.539,109.145,101.171,-0.00149159,0.0483866,21.0527,-469.139,0.671012,0.0,0.0
578,144.25,36.2358,37.6242,173.23,109.161,101.238,-0.00147327,0.0479912,21.0528,-469.129,0.666485,0.0,0.0
580,144.75,36.4832,38.055,168.409,109.137,101.031,-0.0014464,0.0478227,21.053,-469.129,0.682625,0.0,0.0
582,145.25,36.045,37.5606,165.617,109.145,101.275,-0.00141382,0.0474267,21.0535,-469.119,0.661994,0.0,0.0
584,145.75,36.0786,38.0852,166.103,109.135,100.875,-0.00138047,0.0471059,21.054,-469.139,0.69614,0.0,0.0
586,146.25,36.0985,38.0468,169.232,109.119,100.637,-0.00134718,0.0467786,21.0544,-469.149,0.715737,0.0,0.0
588,146.75,35.321,38.1892,166.365,109.123,100.739,-0.00132022,0.0465136,21.0547,-469.139,0.70708,0.0,0.0
590,147.25,34.6198,36.9068,172.896,109.117,100.659,-0.0013032,0.0462493,21.0549,-469.149,0.713594,0.0,0.0
592,147.75,35.3577,37.4196,167.828,109.134,101.249,-0.00128941,0.0459905,21.0551,-469.149,0.663323,0.0,0.0
594,148.25,35.7819,37.7766,163.682,109.113,101.636,-0.00130228,0.0457384,21.0553,-469.139,0.627814,0.0,0.0
596,148.75,35.6805,37.631,162.108,109.114,101.58,-0.00131272,0.0454958,21.0554,-469.149,0.63282,0.0,0.0
598,149.25,35.5513,37.4196,167.783,109.101,101.067,-0.00135845,0.0452994,21.0555,-469.139,0.67656,0.0,0.0
600,149.75,35.3685,37.4551,165.51,109.114,101.704,-0.00139549,0.045046,21.0556,-469.139,0.622056,0.0,0.0
602,150.25,35.9721,37.8353,166.729,109.103,101.243,-0.00145675,0.0448408,21.0556,-469.149,0.661282,0.0,0.0
604,150.75,35.615,37.6101,168.071,109.101,101.572,-0.00150638,0.0446178,21.0557,-469.159,0.632481,0.0,0.0
606,151.25,35.9574,37.1535,174.997,109.098,101.127,-0.00154658,0.0443862,21.0562,-469.169,0.671036,0.0,0.0
608,151.75,35.1354,37.788,170.205,109.1,101.614,-0.00162123,0.0441844,21.0565,-469.159,0.628753,0.0,0.0
610,152.25,35.5676,37.4479,162.629,109.093,101.131,-0.0016817,0.0440082,21.0566,-469.149,0.670327,0.0,0.0
612,152.75,35.5641,37.5862,166.139,109.09,101.143,-0.0017439,0.0438301,21.0567,-469.149,0.668986,0.0,0.0
614,153.25,35.5142,37.2691,168.33,109.086,101.719,-0.00179429,0.0436539,21.0568,-469.159,0.618402,0.0,0.0
616,153.75,35.9694,37.485,166.351,109.093,101.343,-0.0018351,0.0435112,21.0569,-469.159,0.651762,0.0,0.0
618,154.25,35.9995,37.6018,167.354,109.093,100.929,-0.00186816,0.0433531,21.0569,-469.149,0.688033,0.0,0.0
620,154.75,36.0205,37.4122,166.081,109.093,101.609,-0.00189614,0.0431868,21.057,-469.149,0.628569,0.0,0.0
622,155.25,35.8445,37.6755,166.787,109.076,102.04,-0.0019188,0.0430308,21.057,-469.169,0.589747,0.0,0.0
624,155.75,35.7298,37.2487,168.474,109.081,101.454,-0.00193235,0.0428853,21.0573,-469.169,0.641097,0.0,0.0
626,156.25,35.7148,37.183,163.62,109.07,100.989,-0.00194332,0.0427675,21.0577,-469.169,0.680812,0.0,0.0
628,156.75,35.499,37.739,163.376,109.082,102.23,-0.00195341,0.0425779,21.058,-469.159,0.573779,0.0,0.0
630,157.25,35.4368,37.434,158.17,109.084,101.577,-0.00196159,0.0424243,21.0583,-469.149,0.630616,0.0,0.0
632,157.75,35.2456,37.1234,168.105,109.08,101.834,-0.00197542,0.0422998,21.0585,-469.149,0.607961,0.0,0.0
634,158.25,34.8731,37.1846,163.193,109.075,101.198,,0.0421183,,-469.149,0.663001,0.0,0.0
636,158.75,35.5,37.0893,169.596,109.101,101.661,,0.0419713,,-469.159,0.624709,0.0,0.0
638,159.25,35.5882,37.3119,167.197,109.07,101.576,,0.0417984,,-469.149,0.629582,0.0,0.0
640,159.75,35.2224,37.0346,166.622,109.077,100.597,,0.0416583,,-469.139,0.71586,0.0,0.0
642,160.25,35.802,37.4164,170.751,109.075,101.187,,0.0414507,,-469.159,0.663941,0.0,0.0
644,160.75,35.6287,37.4941,167.932,109.082,101.114,,0.0412826,,-469.149,0.670875,0.0,0.0
646,161.25,35.5367,37.1662,172.121,109.063,101.526,,,,-469.159,0.633324,0.0,0.0
648,161.75,35.3732,37.1224,166.826,109.072,101.295,,,,-469.159,0.654283,0.0,0.0
650,162.25,35.9163,36.8589,167.715,109.072,100.94,,,,-469.159,0.685369,0.0,0.0
652,162.75,35.0886,37.4816,160.856,109.079,101.265,,,,-469.159,0.657473,0.0,0.0
654,163.25,35.4705,37.448,171.952,109.069,101.671,,,,-469.149,0.621271,0.0,0.0
656,163.75,35.2249,37.5418,169.506,109.074,101.512,,,,-469.159,0.635504,0.0,0.0
658,164.25,35.674,37.1453,167.982,109.071,101.313,,,,-469.149,0.652542,0.0,0.0
660,164.75,35.8542,37.1791,166.429,109.08,101.631,,,,-469.149,0.625622,0.0,0.0
662,165.25,35.238,36.7158,170.852,109.072,100.811,,,,-469.139,0.696683,0.0,0.0
664,165.75,35.3321,37.2353,171.138,109.082,101.355,,,,-469.149,0.649853,0.0,0.0
666,166.25,35.3165,36.9315,168.321,109.071,101.659,,,,-469.149,0.622386,0.0,0.0
668,166.75,35.0741,37.003,168.023,109.084,100.753,,,,-469.159,0.702673,0.0,0.0
670,167.25,35.1964,37.3894,167.797,109.073,101.896,,,,-469.139,0.60204,0.0,0.0
672,167.75,34.8971,36.6563,170.77,109.092,101.581,,,,-469.129,0.630946,0.0,0.0
674,168.25,35.4455,37.1636,169.385,109.076,100.961,,,,-469.139,0.683815,0.0,0.0
676,168.75,35.8813,37.0599,161.476,109.094,101.543,,,,-469.129,0.634431,0.0,0.0