File: 01_Data/Rubber_Foam_Pipe_Insulation/Cone/Rubber_Foam_Pipe_Insulation_Cone_HF75Scan_220307_R3.csv
Names,Time,Stack TC,Smoke TC,Exh Press,Smoke Comp,Smoke Meas,CO Meter,CO2 Meter,O2 Meter,Sample Mass,Ext Coeff,Start Test,Flame Verif
Chan Gain,,500,500,1,1,1,1,1,1,1,1,1.0,1.0
Offset,,0,0,0.13378,0,0,0,0,0,0,0,0.0,0.0
Gain,,1,1,25.011,14.4955,14.6297,1,1,1,1.00092,1.00831,1.0,1.0
Units,sec,C,C,Pa,%,%,%,%,%,g,/m,,
Baseline,,43.6858,45.4738,163.034,110.417,102.192,-0.00199699,0.0384097,21.0612,-947.401,0.684711,,
2,0.25,42.213,43.3872,127.913,110.931,57.9535,0.00765763,0.148782,20.877,-465.866,5.74264,0.0,1.0
4,0.75,41.279,43.0921,139.024,110.964,57.7575,0.00900794,0.169735,20.8028,-466.036,5.77525,0.0,1.0
6,1.25,41.2042,42.7947,134.48,110.949,59.2924,0.00984471,0.212119,20.7712,-465.986,5.54203,0.0,1.0
8,1.75,41.6972,43.1176,137.368,110.963,58.8451,0.0112756,0.252349,20.7172,-466.217,5.61014,0.0,1.0
10,2.25,42.1948,43.2416,141.619,110.96,57.349,0.0124346,0.286352,20.6689,-466.287,5.83768,0.0,1.0
12,2.75,42.9955,44.0609,149.268,110.967,58.4026,0.0134875,0.315171,20.6298,-466.417,5.67721,0.0,1.0
14,3.25,43.6959,44.4029,142.45,110.964,62.9257,0.0144429,0.337741,20.5982,-466.487,5.01719,0.0,1.0
16,3.75,43.9264,45.0371,144.04,110.985,64.4705,0.0152016,0.355326,20.5725,-466.567,4.80438,0.0,1.0
18,4.25,44.9069,45.3388,146.996,110.979,64.8299,0.0158025,0.362823,20.5518,-466.667,4.75475,0.0,1.0
20,4.75,44.9962,46.5713,154.307,110.98,68.6748,0.0162891,0.373772,20.5349,-466.717,4.24521,0.0,1.0
22,5.25,45.0006,46.101,147.872,110.981,70.1763,0.0166123,0.380957,20.5232,-466.797,4.05399,0.0,1.0
24,5.75,45.5221,46.4931,146.044,111.009,68.8548,0.0168741,0.386776,20.5154,-466.887,4.2244,0.0,0.0
26,6.25,45.9752,47.217,147.087,110.991,73.2225,0.0170363,0.39149,20.509,-466.967,3.679,0.0,0.0
28,6.75,46.0221,47.7081,147.048,111.004,70.191,0.0171676,0.393631,20.5039,-467.097,4.05397,0.0,0.0
30,7.25,46.8309,48.47,147.557,111.006,74.0909,0.017274,0.395366,20.4998,-467.177,3.57593,0.0,0.0
32,7.75,47.0673,48.3674,150.153,111.014,71.6666,0.0173878,0.396236,20.4975,-467.197,3.87081,0.0,0.0
34,8.25,47.1147,49.0908,150.742,111.005,72.4126,0.0174799,0.396941,20.4966,-467.288,3.77843,0.0,0.0
36,8.75,47.9127,49.2831,144.688,111.018,72.9243,0.0176242,0.397996,20.4959,-467.378,3.71718,0.0,0.0
38,9.25,47.946,50.0333,146.788,111.023,72.7042,0.017741,0.398851,20.4953,-467.448,3.74434,0.0,0.0
40,9.75,48.6744,50.5258,146.273,111.016,70.2459,0.0178357,0.399544,20.4949,-467.528,4.048,0.0,0.0
42,10.25,48.6745,50.3606,141.092,111.013,70.2361,0.0180388,0.402,20.4904,-467.638,4.04903,0.0,0.0
44,10.75,48.8776,51.4026,146.326,111.026,70.0419,0.0182034,0.405694,20.4869,-467.718,4.07454,0.0,0.0
46,11.25,49.0364,51.0322,147.769,111.013,69.2226,0.0184291,0.410652,20.4802,-467.818,4.17759,0.0,0.0
48,11.75,49.9564,51.505,143.118,111.029,69.9615,0.018612,0.416437,20.4714,-467.878,4.08491,0.0,0.0
50,12.25,49.9969,51.9414,143.597,111.04,66.5086,0.0187817,0.422393,20.4643,-467.988,4.53346,0.0,0.0
52,12.75,50.3559,52.2908,141.882,111.032,68.4021,0.0189385,0.428361,20.4552,-468.068,4.28454,0.0,0.0
54,13.25,50.6728,52.4319,144.121,111.025,67.1386,0.0190484,0.433195,20.4479,-468.138,4.44888,0.0,0.0
56,13.75,51.2069,53.0318,144.391,111.035,67.4859,0.0191374,0.437318,20.4419,-468.228,4.40405,0.0,0.0
58,14.25,51.3187,53.4372,144.923,111.044,67.1122,0.019174,0.440658,20.4371,-468.298,4.4539,0.0,0.0
60,14.75,51.3075,53.1705,148.234,111.049,68.794,0.0191717,0.442679,20.4332,-468.379,4.23534,0.0,0.0
62,15.25,51.9499,54.1679,145.436,111.034,62.5346,0.0190984,0.443701,20.4301,-468.459,5.07794,0.0,0.0
64,15.75,52.6115,54.23,143.075,111.051,63.9446,0.0189746,0.443299,20.432,-468.539,4.88208,0.0,0.0
66,16.25,52.7415,55.0763,135.398,111.058,65.8697,0.0188744,0.441868,20.4335,-468.629,4.62032,0.0,0.0
68,16.75,53.3003,55.0287,143.193,111.06,67.2354,0.0186778,0.439355,20.4348,-468.679,4.43898,0.0,0.0
70,17.25,52.921,55.4205,148.284,111.041,70.9889,0.0184147,0.436102,20.4394,-468.769,3.957,0.0,0.0
72,17.75,53.6151,56.3776,147.185,111.052,68.4096,0.0181019,0.433467,20.4431,-468.789,4.28518,0.0,0.0
74,18.25,53.8936,56.4006,147.753,111.052,69.2771,0.0179213,0.427965,20.448,-468.879,4.17377,0.0,0.0
76,18.75,54.0414,56.7322,146.16,111.075,70.5701,0.0176125,0.423508,20.4564,-468.949,4.01201,0.0,0.0
78,19.25,54.6448,57.1495,145.814,111.064,69.4972,0.017118,0.416571,20.4655,-468.999,4.14659,0.0,0.0
80,19.75,54.3175,56.3332,150.455,111.092,72.9078,0.0167175,0.410952,20.475,-469.079,3.72514,0.0,0.0
82,20.25,54.7894,57.5031,144.387,111.055,71.4483,0.0161077,0.404549,20.486,-469.099,3.901,0.0,0.0
84,20.75,54.639,57.98,145.828,111.09,69.9022,0.0156138,0.397698,20.4979,-469.159,4.09728,0.0,0.0
86,21.25,54.8238,58.0052,146.212,111.068,74.9869,0.0148985,0.394777,20.5075,-469.199,3.47453,0.0,0.0
88,21.75,55.5584,58.4327,147.341,111.08,71.5331,0.0143192,0.386182,20.5221,-469.219,3.89251,0.0,0.0
90,22.25,55.1873,57.9631,150.745,111.065,75.0985,0.0136812,0.37922,20.5338,-469.299,3.46113,0.0,0.0
92,22.75,55.8806,57.9904,151.513,111.079,79.7976,0.0130128,0.369709,20.5505,-469.309,2.92541,0.0,0.0
94,23.25,55.953,59.0914,152.448,111.065,78.3475,0.0124713,0.362005,20.564,-469.359,3.08653,0.0,0.0
96,23.75,56.159,58.4778,146.68,111.088,79.0899,0.0117113,0.352433,20.5778,-469.409,3.0049,0.0,0.0
98,24.25,56.2399,59.4547,147.319,111.086,79.7409,0.0110956,0.344679,20.5915,-469.409,2.93226,0.0,0.0
100,24.75,56.6315,58.9868,147.316,111.087,79.5837,0.0104028,0.336551,20.6026,-469.48,2.94978,0.0,0.0
102,25.25,56.6699,59.2367,152.154,111.093,82.037,0.00984156,0.328306,20.6179,-469.51,2.68174,0.0,0.0
104,25.75,56.6365,59.5329,150.36,111.098,83.5702,0.00927029,0.321626,20.6302,-469.52,2.51835,0.0,0.0
106,26.25,56.2815,59.578,158.516,111.086,86.0333,0.00870253,0.312597,20.6428,-469.54,2.26048,0.0,0.0
108,26.75,56.2701,59.8285,152.065,111.094,87.424,0.00815198,0.305283,20.6554,-469.59,2.11925,0.0,0.0
110,27.25,56.6716,59.9282,151.298,111.092,87.7151,0.00762443,0.297161,20.6736,-469.57,2.0897,0.0,0.0
112,27.75,56.7734,59.5666,152.348,111.105,90.2617,0.00711789,0.288602,20.6883,-469.62,1.83763,0.0,0.0
114,28.25,56.9042,60.249,154.441,111.102,93.3964,0.00663628,0.28167,20.7075,-469.61,1.53543,0.0,0.0
116,28.75,56.9655,60.1838,151.301,111.121,93.5883,0.00618146,0.272205,20.723,-469.65,1.51878,0.0,0.0
118,29.25,56.7828,59.8187,150.121,111.098,95.0183,0.00575482,0.264539,20.7355,-469.69,1.38283,0.0,0.0
120,29.75,56.9361,60.0438,150.231,111.107,96.3644,0.00540924,0.254852,20.7515,-469.68,1.25911,0.0,0.0
122,30.25,56.7534,60.0434,155.369,111.111,97.8712,0.00512933,0.247006,20.7644,-469.68,1.12223,0.0,0.0
124,30.75,56.6889,59.6143,153.98,111.116,98.8807,0.00485356,0.237622,20.7749,-469.7,1.03182,0.0,0.0
126,31.25,57.0642,60.3775,152.903,111.11,99.9951,0.00458605,0.23002,20.7877,-469.71,0.932276,0.0,0.0
128,31.75,56.8091,60.0538,154.579,111.114,101.004,0.00436937,0.221036,20.798,-469.74,0.84376,0.0,0.0
130,32.25,57.0851,60.2074,157.38,111.117,101.953,0.00423428,0.213759,20.809,-469.76,0.761236,0.0,0.0
132,32.75,56.5739,59.9029,157.923,111.118,101.994,0.00412486,0.207865,20.8202,-469.76,0.757816,0.0,0.0
134,33.25,56.6533,59.9821,157.86,111.128,102.523,0.00411108,0.198264,20.8319,-469.77,0.712868,0.0,0.0
136,33.75,56.8339,59.8537,163.854,111.123,102.557,0.00409991,0.190487,20.8437,-469.76,0.709518,0.0,0.0
138,34.25,56.9565,59.9818,155.451,111.123,102.976,0.00416955,0.182631,20.8568,-469.74,0.67351,0.0,0.0
140,34.75,56.3992,59.6636,160.168,111.129,102.819,0.00422596,0.174867,20.8706,-469.78,0.6874,0.0,0.0
142,35.25,56.7065,60.0057,162.178,111.126,102.351,0.00434188,0.168577,20.8817,-469.77,0.727608,0.0,0.0
144,35.75,56.6956,60.3081,158.194,111.121,103.012,0.00443577,0.161558,20.8939,-469.77,0.670226,0.0,0.0
146,36.25,56.5395,59.9742,160.087,111.137,102.667,0.00454884,0.155872,20.9038,-469.77,0.701213,0.0,0.0
148,36.75,56.0207,59.5308,163.871,111.136,102.556,0.00467376,0.150161,20.9136,-469.77,0.710616,0.0,0.0
150,37.25,55.3796,59.3703,161.603,111.144,102.831,0.00477495,0.145535,20.9215,-469.79,0.687563,0.0,0.0
152,37.75,56.0129,59.4613,157.905,111.13,102.938,0.00489335,0.140909,20.9286,-469.8,0.677335,0.0,0.0
154,38.25,55.5223,58.6403,145.339,111.141,103.013,0.00502206,0.137161,20.935,-469.83,0.671698,0.0,0.0
156,38.75,55.5082,58.5158,159.774,111.139,102.459,0.0051486,0.133686,20.9402,-469.82,0.719223,0.0,0.0
158,39.25,55.4434,58.8426,158.494,111.146,102.583,0.00525109,0.130476,20.9453,-469.83,0.709152,0.0,0.0
160,39.75,55.2993,58.978,160.106,111.149,102.562,0.00533412,0.127876,20.9494,-469.86,0.711208,0.0,0.0
162,40.25,54.7946,58.7039,160.918,111.153,102.703,0.00540136,0.125297,20.9537,-469.87,0.699366,0.0,0.0
164,40.75,54.7408,58.5309,159.601,111.158,102.569,0.0054441,0.123208,20.9571,-469.85,0.711221,0.0,0.0
166,41.25,55.2053,58.449,155.134,111.16,102.909,0.00546817,0.121261,20.9603,-469.86,0.682186,0.0,0.0
168,41.75,54.711,58.1789,159.425,111.153,102.745,0.00546683,0.119453,20.963,-469.9,0.695679,0.0,0.0
170,42.25,54.7571,57.9323,155.778,111.162,102.575,0.00544699,0.11777,20.9651,-469.89,0.711076,0.0,0.0
172,42.75,54.3764,58.0879,161.005,111.169,103.433,0.00543092,0.116209,20.9668,-469.91,0.63799,0.0,0.0
174,43.25,54.811,57.9597,157.244,111.183,102.896,0.00536725,0.1148,20.9684,-469.91,0.685165,0.0,0.0
176,43.75,54.6137,58.4733,159.905,111.163,102.747,0.00531567,0.113527,20.9699,-469.91,0.696335,0.0,0.0
178,44.25,54.1243,58.0291,158.6,111.173,102.696,0.0052739,0.112496,20.9712,-469.88,0.701492,0.0,0.0
180,44.75,54.3685,57.5633,158.623,111.175,102.964,0.0052092,0.111356,20.9724,-469.9,0.678553,0.0,0.0
182,45.25,53.9997,57.5968,161.694,111.183,103.525,0.0051568,0.110433,20.9736,-469.9,0.63122,0.0,0.0
184,45.75,54.0976,57.5063,162.651,111.182,102.691,0.00512176,0.109394,20.9746,-469.91,0.702691,0.0,0.0
186,46.25,53.8568,57.422,158.026,111.178,103.08,0.00509338,0.108553,20.9759,-469.88,0.668871,0.0,0.0
188,46.75,53.8954,57.4839,154.389,111.185,102.482,0.00507948,0.107778,20.9769,-469.92,0.720914,0.0,0.0
190,47.25,53.5031,57.0114,155.179,111.186,103.136,0.00507641,0.107064,20.9777,-469.92,0.664752,0.0,0.0
192,47.75,53.6152,57.1955,158.61,111.176,103.551,0.00507587,0.106486,20.9784,-469.93,0.62848,0.0,0.0
194,48.25,53.9978,57.813,161.702,111.186,103.139,0.00507719,0.105825,20.9789,-469.95,0.664449,0.0,0.0
196,48.75,53.3556,57.5094,157.387,111.181,103.158,0.00507501,0.105289,20.9793,-469.94,0.662417,0.0,0.0
198,49.25,53.9212,56.9757,162.331,111.182,102.709,0.00507031,0.10471,20.9797,-469.94,0.701119,0.0,0.0
200,49.75,53.6617,57.0331,158.577,111.195,102.935,0.00505807,0.10411,20.98,-469.96,0.682703,0.0,0.0
202,50.25,53.0457,56.8659,155.701,111.191,102.768,0.00504055,0.103624,20.9811,-469.96,0.696781,0.0,0.0
204,50.75,53.2931,56.6196,159.265,111.179,102.61,0.00502637,0.103009,20.982,-469.96,0.709406,0.0,0.0
206,51.25,53.2981,56.676,155.024,111.187,103.435,0.0050087,0.102512,20.9827,-469.95,0.63928,0.0,0.0
208,51.75,53.3765,56.8218,159.176,111.182,103.028,0.0049944,0.101888,20.9833,-469.95,0.673707,0.0,0.0
210,52.25,52.9746,56.8005,163.286,111.191,103.133,0.00498605,0.101303,20.9838,-469.95,0.665443,0.0,0.0
212,52.75,53.0154,56.5588,161.032,111.19,102.82,0.00498222,0.100757,20.9842,-469.99,0.692215,0.0,0.0
214,53.25,53.1305,56.2745,159.051,111.202,103.318,0.00497912,0.100315,20.9845,-470.01,0.650377,0.0,0.0
216,53.75,52.6181,56.2006,163.275,111.181,103.274,0.0049831,0.0997503,20.9848,-470,0.652508,0.0,0.0
218,54.25,52.9206,56.5894,155.788,111.207,103.113,0.00499217,0.0992929,20.9852,-469.99,0.66836,0.0,0.0
220,54.75,52.711,56.1828,160.531,111.187,103.062,0.00500471,0.0988427,20.9855,-470,0.671216,0.0,0.0
222,55.25,52.422,56.243,157.579,111.21,102.919,0.00501955,0.0984062,20.9858,-470,0.685242,0.0,0.0
224,55.75,52.1582,55.9842,159.929,111.198,103.297,0.00503482,0.0980527,20.986,-470.01,0.651892,0.0,0.0
226,56.25,52.1265,55.8121,157.408,111.197,102.701,0.00505011,0.0977664,20.9862,-470.01,0.703007,0.0,0.0
228,56.75,52.1734,55.7178,162.169,111.181,102.505,0.00506249,0.0971904,20.9863,-470.03,0.718598,0.0,0.0
230,57.25,52.2915,55.5118,164.898,111.201,103.078,0.00506512,0.0967239,20.9864,-470.01,0.67089,0.0,0.0
232,57.75,52.603,55.7406,160.046,111.193,103.128,0.00506725,0.0961672,20.9865,-470,0.665966,0.0,0.0
234,58.25,52.3689,55.5508,160.767,111.204,102.818,0.00506377,0.0956439,20.9866,-470.02,0.693425,0.0,0.0
236,58.75,52.2425,55.1417,157.229,111.193,102.882,0.00505628,0.0951549,20.9876,-470.03,0.687055,0.0,0.0
238,59.25,52.3572,55.296,157.824,111.2,102.596,0.00504306,0.0947588,20.9883,-470.05,0.712294,0.0,0.0
240,59.75,51.7201,55.6737,157.133,111.184,102.648,0.00502593,0.0943281,20.989,-470.06,0.70656,0.0,0.0
242,60.25,52.1657,55.3611,157.394,111.206,102.934,0.00500361,0.0939791,20.9895,-470.04,0.683694,0.0,0.0
244,60.75,52.1037,55.2124,160.618,111.2,102.805,0.00497794,0.0935736,20.9903,-470.05,0.694334,0.0,0.0
246,61.25,51.8413,55.3674,159.876,111.21,102.759,0.00494546,0.0931345,20.991,-470.07,0.699101,0.0,0.0
248,61.75,51.8205,54.9725,159.854,111.202,102.875,0.00490864,0.0927788,20.992,-470.09,0.688373,0.0,0.0
250,62.25,51.1342,55.0478,160.435,111.206,103.156,0.00486585,0.0922024,20.9928,-470.09,0.664649,0.0,0.0
252,62.75,52.0777,54.9035,159.27,111.189,102.975,0.00481951,0.0917355,20.9935,-470.12,0.678796,0.0,0.0
254,63.25,51.473,55.4345,155.779,111.205,102.608,0.00477096,0.0910829,20.994,-470.1,0.711639,0.0,0.0
256,63.75,51.5463,54.9964,162.363,111.202,102.733,0.00472172,0.0905543,20.9949,-470.08,0.700588,0.0,0.0
258,64.25,51.5395,54.3352,158.596,111.209,102.985,0.00468184,0.0898931,20.9956,-470.11,0.679536,0.0,0.0
260,64.75,51.1933,54.6469,159.409,111.212,102.767,0.00463722,0.0893142,20.9962,-470.1,0.698512,0.0,0.0
262,65.25,51.3673,54.9019,159.541,111.221,102.838,0.00459001,0.0888063,20.9967,-470.1,0.69311,0.0,0.0
264,65.75,51.5104,54.7411,160.567,111.211,102.556,0.00455177,0.0884166,20.9971,-470.14,0.7166,0.0,0.0
266,66.25,51.5782,54.3872,163.988,111.228,103.007,0.00449619,0.0881204,20.9976,-470.16,0.67913,0.0,0.0
268,66.75,51.7091,54.615,157.42,111.214,102.53,0.00445118,0.0878805,20.9983,-470.15,0.719083,0.0,0.0
270,67.25,50.9654,54.8204,157.246,111.223,103.106,0.00436434,0.0876645,20.9988,-470.16,0.670312,0.0,0.0
272,67.75,50.9257,54.374,155.367,111.22,102.599,0.004294,0.0874701,20.9992,-470.16,0.713643,0.0,0.0
274,68.25,51.0886,54.4911,157.804,111.225,102.835,0.0042112,0.0873126,20.9996,-470.16,0.693658,0.0,0.0
276,68.75,50.297,54.0621,158.162,111.222,102.946,0.00412088,0.0869795,20.9999,-470.18,0.683926,0.0,0.0
278,69.25,50.4587,54.0629,160.355,111.216,102.896,0.00400237,0.0867097,21.0003,-470.16,0.687733,0.0,0.0
280,69.75,50.6918,53.8915,162.172,111.235,103.123,0.00390639,0.0863406,21.0009,-470.15,0.66973,0.0,0.0
282,70.25,50.9534,54.5006,154.945,111.232,103.224,0.0038048,0.0860415,21.0014,-470.18,0.660837,0.0,0.0
284,70.75,51.1874,54.4128,156.596,111.235,102.912,0.00370107,0.0857056,21.0018,-470.14,0.687865,0.0,0.0
286,71.25,51.019,54.5293,157.01,111.225,102.535,0.00361704,0.0853493,21.0021,-470.16,0.719571,0.0,0.0
288,71.75,50.991,53.9278,156.474,111.239,102.696,0.00352453,0.0849598,21.0023,-470.16,0.706772,0.0,0.0
290,72.25,50.812,54.193,160.331,111.232,102.931,0.0034276,0.0845535,21.003,-470.16,0.686007,0.0,0.0
292,72.75,50.6483,54.3304,158.587,111.232,102.814,0.00333494,0.0841597,21.0035,-470.16,0.696026,0.0,0.0
294,73.25,50.8468,53.9046,158.036,111.221,102.771,0.00324716,0.0837824,21.0039,-470.18,0.698908,0.0,0.0
296,73.75,50.6488,53.8678,161.977,111.248,102.693,0.00316578,0.0834767,21.0043,-470.19,0.707815,0.0,0.0
298,74.25,51.1849,53.7055,158.942,111.226,103.127,0.00309061,0.0831198,21.0046,-470.19,0.668682,0.0,0.0
300,74.75,50.9146,53.555,158.71,111.247,102.946,0.00302973,0.0828306,21.0048,-470.18,0.685898,0.0,0.0
302,75.25,50.3939,53.7978,157.378,111.233,102.666,0.00296821,0.0824813,21.005,-470.21,0.708888,0.0,0.0
304,75.75,50.3067,53.895,162.478,111.237,102.761,0.00291838,0.0820947,21.0054,-470.22,0.700945,0.0,0.0
306,76.25,50.7702,53.7045,158.737,111.236,103.056,0.00287802,0.0816953,21.0059,-470.18,0.675546,0.0,0.0
308,76.75,50.0621,54.0361,162.673,111.256,103.051,0.00284045,0.0812941,21.0063,-470.19,0.677662,0.0,0.0
310,77.25,50.732,53.7328,160.041,111.24,102.871,0.00281002,0.0809691,21.0067,-470.2,0.691814,0.0,0.0
312,77.75,49.9348,53.3396,158.431,111.238,102.952,0.00277959,0.0805693,21.0069,-470.21,0.684693,0.0,0.0
314,78.25,50.3862,53.106,160.765,111.23,102.751,0.00274975,0.0802455,21.0072,-470.21,0.701376,0.0,0.0
316,78.75,50.2923,53.8822,157.372,111.242,103.006,0.00272557,0.0799832,21.0073,-470.22,0.680297,0.0,0.0
318,79.25,50.0905,53.3565,159.438,111.239,103.098,0.00268739,0.0796205,21.0075,-470.24,0.672156,0.0,0.0
320,79.75,50.0252,53.7371,160.467,111.251,102.768,0.00263973,0.0793267,21.0076,-470.22,0.701457,0.0,0.0
322,80.25,50.1082,53.4714,160.404,111.244,102.943,0.00258125,0.0790069,21.0077,-470.25,0.685991,0.0,0.0
324,80.75,50.2136,52.9925,162.824,111.249,103.038,0.00251601,0.0787478,21.0082,-470.23,0.678173,0.0,0.0
326,81.25,50.03,53.3638,153.904,111.242,103.157,0.00244077,0.0785379,21.0087,-470.24,0.667383,0.0,0.0
328,81.75,49.6984,53.2885,158.251,111.255,102.889,0.00235966,0.0781905,21.0095,-470.21,0.691366,0.0,0.0
330,82.25,49.4949,53.2565,155.576,111.244,102.678,0.00227159,0.0779091,21.0101,-470.23,0.708659,0.0,0.0
332,82.75,49.7516,52.9786,158.082,111.248,102.807,0.00218011,0.0776309,21.0106,-470.22,0.697903,0.0,0.0
334,83.25,49.5464,52.7013,160.419,111.253,102.811,0.00208749,0.0773604,21.011,-470.22,0.69798,0.0,0.0
336,83.75,49.5586,53.5899,156.398,111.247,103.194,0.0019958,0.0771125,21.0114,-470.22,0.664632,0.0,0.0
338,84.25,49.2994,52.2916,154.834,111.252,103.049,0.00192154,0.0768859,21.0117,-470.22,0.677426,0.0,0.0
340,84.75,49.7233,52.5513,156.813,111.272,102.645,0.00184562,0.0765947,21.0121,-470.24,0.71383,0.0,0.0
342,85.25,49.6222,52.9272,156.655,111.258,102.618,0.00178412,0.0762619,21.0127,-470.24,0.715013,0.0,0.0
344,85.75,49.8286,52.2717,162.434,111.273,102.722,0.00173431,0.0759923,21.0132,-470.22,0.707212,0.0,0.0
346,86.25,50.1438,53.0041,161.55,111.255,103.138,0.00168669,0.0755423,21.0136,-470.22,0.670088,0.0,0.0
348,86.75,49.3596,52.7094,159.042,111.275,102.871,0.00164812,0.0751778,21.0139,-470.22,0.694557,0.0,0.0
350,87.25,50.1001,52.571,159.341,111.271,102.689,0.00160961,0.0747599,21.0141,-470.22,0.709878,0.0,0.0
352,87.75,49.3974,52.8991,160.461,111.267,102.5,0.00157841,0.0744214,21.0143,-470.25,0.725846,0.0,0.0
354,88.25,49.5501,52.042,162.227,111.269,103.09,0.00154677,0.0741472,21.0145,-470.26,0.675311,0.0,0.0
356,88.75,49.0328,52.2279,162.702,111.289,102.838,0.0015154,0.0738025,21.0146,-470.28,0.698526,0.0,0.0
358,89.25,49.4882,52.9755,156.881,111.263,103.004,0.00148234,0.0735234,21.0147,-470.28,0.682176,0.0,0.0
360,89.75,49.676,52.8338,157.837,111.292,102.926,0.00144867,0.0732291,21.0153,-470.27,0.691211,0.0,0.0
362,90.25,49.7821,52.3686,160.369,111.27,103.058,0.00140803,0.0729908,21.0157,-470.27,0.67814,0.0,0.0
364,90.75,49.2759,52.3915,158.017,111.283,102.784,0.00136306,0.0726752,21.016,-470.29,0.702643,0.0,0.0
366,91.25,49.1652,52.3681,155.182,111.271,102.662,0.00130564,0.0724196,21.0163,-470.28,0.712227,0.0,0.0
368,91.75,49.0266,52.718,160.468,111.291,102.928,0.00124022,0.0721481,21.017,-470.26,0.690984,0.0,0.0
370,92.25,48.6302,51.736,160.506,111.278,103.299,0.00118723,0.0718701,21.0176,-470.27,0.658105,0.0,0.0
372,92.75,48.6631,52.1219,158.748,111.287,102.9,0.00111253,0.071602,21.018,-470.28,0.693085,0.0,0.0
374,93.25,49.0291,52.0741,160.008,111.28,103.415,0.00102342,0.0713462,21.0184,-470.29,0.648351,0.0,0.0
376,93.75,48.9556,52.3712,163.75,111.29,102.538,0.000932192,0.0710888,21.0187,-470.28,0.724438,0.0,0.0
378,94.25,48.2506,51.5134,157.863,111.28,103.092,0.000841162,0.0708353,21.0193,-470.3,0.676002,0.0,0.0
380,94.75,48.7983,51.626,161.655,111.294,102.992,0.000767428,0.0706299,21.0199,-470.3,0.685711,0.0,0.0
382,95.25,48.4374,52.0741,157.124,111.294,102.804,0.000686011,0.0703819,21.0203,-470.3,0.701865,0.0,0.0
384,95.75,48.8459,52.0964,161.66,111.292,103.117,0.000620064,0.070181,21.0207,-470.31,0.674806,0.0,0.0
386,96.25,48.2696,52.1015,162.589,111.272,102.567,0.000569056,0.0700183,21.0212,-470.31,0.720526,0.0,0.0
388,96.75,49.2306,51.6966,162.023,111.292,103.058,0.00052774,0.0697913,21.0219,-470.31,0.679862,0.0,0.0
390,97.25,49.1995,51.4588,164.037,111.283,103.105,0.000496684,0.0696075,21.0224,-470.29,0.675098,0.0,0.0
392,97.75,48.5517,51.8161,158.741,111.302,103.215,0.000471528,0.0692954,21.0228,-470.28,0.667229,0.0,0.0
394,98.25,48.6192,51.8805,159.696,111.283,102.565,0.00044031,0.0690426,21.0232,-470.29,0.721562,0.0,0.0
396,98.75,48.5692,51.4999,162.805,111.297,102.821,0.000415023,0.0687427,21.0234,-470.29,0.700619,0.0,0.0
398,99.25,48.9087,50.9662,160.173,111.277,103.066,0.00039454,0.0684998,21.0237,-470.29,0.677974,0.0,0.0
400,99.75,48.2941,51.2357,163.791,111.287,102.73,0.000377949,0.0681943,21.0238,-470.29,0.707718,0.0,0.0
402,100.25,48.2736,51.5402,164.565,111.287,102.88,0.00033727,0.0679469,21.024,-470.28,0.694777,0.0,0.0
404,100.75,48.5319,51.7994,161.72,111.287,103.31,0.000279804,0.067675,21.0245,-470.28,0.657853,0.0,0.0
406,101.25,48.5368,51.4632,157.943,111.283,102.716,0.00022566,0.0673904,21.025,-470.3,0.708523,0.0,0.0
408,101.75,48.1544,51.6219,158.623,111.289,102.986,0.000174968,0.0671598,21.0258,-470.29,0.685749,0.0,0.0
410,102.25,48.3534,51.4646,157.887,111.286,103.335,0.000133907,0.0669731,21.0265,-470.29,0.655607,0.0,0.0
412,102.75,48.756,52.206,156.308,111.297,103.077,9.22301e-05,0.0665367,21.0273,-470.29,0.678637,0.0,0.0
414,103.25,48.151,51.7073,159.678,111.28,103.699,5.8472e-05,0.0661832,21.0281,-470.28,0.624057,0.0,0.0
416,103.75,48.7463,51.6725,160.58,111.281,102.733,1.3089e-05,0.0658968,21.0288,-470.3,0.706884,0.0,0.0
418,104.25,47.7988,51.2969,161.202,111.274,102.849,-2.36713e-05,0.0655156,21.0293,-470.29,0.696372,0.0,0.0
420,104.75,48.5967,51.5112,158.523,111.287,103.206,-7.87009e-05,0.0652068,21.0298,-470.3,0.666725,0.0,0.0
422,105.25,48.5169,51.0462,161.047,111.286,103.014,-0.000123275,0.0647803,21.0301,-470.3,0.683164,0.0,0.0
424,105.75,48.2107,51.2987,164.118,111.285,103.153,-0.000195456,0.0644348,21.0304,-470.3,0.671139,0.0,0.0
426,106.25,47.9803,51.698,162.115,111.273,103.688,-0.000253924,0.0640465,21.0307,-470.32,0.624449,0.0,0.0
428,106.75,48.4469,51.211,161.317,111.276,103.093,-0.000278849,0.0637319,21.0309,-470.33,0.675644,0.0,0.0
430,107.25,47.9778,51.6305,158.62,111.282,102.652,-0.000343033,0.0634093,21.0313,-470.29,0.713991,0.0,0.0
432,107.75,48.1936,51.0129,163.144,111.285,102.974,-0.000414428,0.063148,21.032,-470.32,0.686542,0.0,0.0
434,108.25,47.9112,51.1564,163.465,111.278,103.357,-0.000511944,0.062855,21.0325,-470.32,0.653101,0.0,0.0
436,108.75,47.6906,51.0204,160.166,111.269,103.118,-0.000590931,0.0626177,21.0334,-470.31,0.672898,0.0,0.0
438,109.25,48.2339,50.9468,159.862,111.276,102.76,-0.000669469,0.0624254,21.0341,-470.34,0.704187,0.0,0.0
440,109.75,48.0263,50.8151,162.107,111.273,103.083,-0.000746186,0.0622297,21.0347,-470.35,0.676167,0.0,0.0
442,110.25,48.3347,51.2367,161.957,111.277,102.76,-0.000808326,0.0618951,21.0352,-470.33,0.704258,0.0,0.0
444,110.75,48.1158,50.8687,160.771,111.272,102.978,-0.00085866,0.0615171,21.0361,-470.32,0.685177,0.0,0.0
446,111.25,48.3258,50.0766,162.111,111.282,102.655,-0.000891202,0.0611146,21.0367,-470.34,0.713756,0.0,0.0
448,111.75,48.182,50.7443,158.549,111.273,102.512,-0.000910156,0.0607031,21.0373,-470.35,0.725337,0.0,0.0
450,112.25,47.8759,51.1879,157.293,111.273,103.445,-0.000917914,0.0602928,21.0377,-470.34,0.645191,0.0,0.0
452,112.75,48.346,50.6038,159.272,111.263,103.367,-0.000917361,0.059825,21.0385,-470.33,0.651135,0.0,0.0
454,113.25,47.7419,50.9493,160.908,111.279,102.865,-0.000916914,0.0593243,21.0392,-470.33,0.695446,0.0,0.0
456,113.75,47.7043,50.9325,160.911,111.273,103.128,-0.00091402,0.0588404,21.0397,-470.33,0.672372,0.0,0.0
458,114.25,48.3071,51.0556,162.711,111.259,102.905,-0.000909397,0.0583779,21.0401,-470.34,0.690412,0.0,0.0
460,114.75,48.1903,51.0941,160.068,111.271,103.202,-0.000912615,0.0579534,21.0405,-470.33,0.665915,0.0,0.0
462,115.25,47.9878,50.9939,166.983,111.268,103.426,-0.000921488,0.0575647,21.0408,-470.36,0.646481,0.0,0.0
464,115.75,48.2627,50.3138,156.652,111.266,103.549,-0.000941966,0.0572499,21.041,-470.35,0.635736,0.0,0.0
466,116.25,47.2525,50.4594,161.68,111.268,103.008,-0.000970516,0.0568867,21.0416,-470.35,0.682253,0.0,0.0
468,116.75,47.9651,50.386,165.622,111.262,102.964,-0.00100246,0.0565925,21.0421,-470.35,0.685594,0.0,0.0
470,117.25,47.8736,50.2858,162.144,111.269,103.309,-0.00103627,0.056283,21.0426,-470.33,0.656487,0.0,0.0
472,117.75,48.49,50.8763,159.358,111.259,103.516,-0.00106555,0.0559682,21.0429,-470.33,0.637999,0.0,0.0
474,118.25,47.5786,50.9786,163.418,111.266,102.811,-0.00109098,0.0556493,21.043,-470.32,0.699003,0.0,0.0
476,118.75,47.6513,50.6355,154.402,111.251,103.311,-0.00111095,0.0553333,21.0431,-470.32,0.65493,0.0,0.0
478,119.25,47.1483,49.7206,159.59,111.26,103.012,-0.00112655,0.0550773,21.0432,-470.34,0.68124,0.0,0.0
480,119.75,47.1393,50.2982,162.408,111.255,103.019,-0.00113919,0.0547476,21.0432,-470.37,0.680205,0.0,0.0
482,120.25,47.6402,50.2464,160.736,111.252,102.862,-0.00115133,0.0544378,21.0433,-470.36,0.693535,0.0,0.0
484,120.75,47.6796,50.6109,162.684,111.246,103.076,-0.00116286,0.0541485,21.0433,-470.35,0.674707,0.0,0.0
486,121.25,47.7304,50.2938,161.473,111.265,102.737,-0.00117537,0.0538573,21.0433,-470.35,0.70531,0.0,0.0
488,121.75,47.4399,50.4531,160.186,111.245,102.792,-0.00118836,0.0535702,21.0434,-470.35,0.699001,0.0,0.0
490,122.25,46.9064,50.3701,157.178,111.251,102.961,-0.00119887,0.0533376,21.0438,-470.35,0.684907,0.0,0.0
492,122.75,47.2264,50.2084,159.446,111.232,102.507,-0.00120739,0.0531222,21.0442,-470.36,0.722525,0.0,0.0
494,123.25,46.9466,49.1555,161.173,111.235,103.306,-0.00121669,0.0529478,21.0444,-470.36,0.654085,0.0,0.0
496,123.75,47.5087,49.8445,159.63,111.239,103.194,-0.00122423,0.0528065,21.0446,-470.36,0.663963,0.0,0.0
498,124.25,47.5802,50.0537,158.282,111.25,103.272,-0.00122673,0.0525705,21.0449,-470.34,0.658223,0.0,0.0
500,124.75,47.4093,50.0352,159.996,111.244,102.787,-0.00122875,0.0523793,21.0454,-470.37,0.699279,0.0,0.0
502,125.25,47.0091,50.3318,158.494,111.231,103.689,-0.00123159,0.0522244,21.0458,-470.35,0.62103,0.0,0.0
504,125.75,47.4792,50.2718,158.311,111.23,102.885,-0.00123959,0.051883,21.0461,-470.36,0.689816,0.0,0.0
506,126.25,47.364,50.0094,165.208,111.229,103.386,-0.00125119,0.0516064,21.0464,-470.36,0.646751,0.0,0.0
508,126.75,47.6269,50.1295,159.872,111.227,103.152,-0.00126059,0.0513553,21.0466,-470.35,0.666573,0.0,0.0
510,127.25,46.9587,50.0485,165.916,111.22,103.29,-0.00126821,0.051152,21.0468,-470.34,0.654189,0.0,0.0
512,127.75,47.4186,49.8412,161.056,111.217,103.18,-0.00129963,0.0509333,21.0469,-470.36,0.663426,0.0,0.0
514,128.25,47.8804,50.1006,158.134,111.234,102.972,-0.00132508,0.0507562,21.047,-470.35,0.68265,0.0,0.0
516,128.75,47.425,50.1028,162.78,111.213,102.624,-0.00136373,0.0505317,21.0474,-470.35,0.710925,0.0,0.0
518,129.25,47.4157,50.1464,156.699,111.221,103.15,-0.00139504,0.0503499,21.0478,-470.36,0.666345,0.0,0.0
520,129.75,47.4341,50.3406,156.523,111.218,103.019,-0.00143179,0.0501387,21.0482,-470.36,0.677285,0.0,0.0
522,130.25,47.4927,49.833,162.598,111.205,102.928,-0.00145286,0.0499101,21.0484,-470.4,0.684088,0.0,0.0
524,130.75,47.2974,49.8375,155.24,111.202,102.92,-0.00148888,0.049725,21.0487,-470.37,0.684535,0.0,0.0
526,131.25,47.5758,50.1133,158.659,111.217,103.046,-0.0015397,0.0494671,21.0491,-470.38,0.674879,0.0,0.0
528,131.75,47.3708,49.9072,164.125,111.208,103.196,-0.00158087,0.0492582,21.0497,-470.37,0.66131,0.0,0.0
530,132.25,46.7813,50.2876,156.219,111.206,102.555,-0.00162624,0.0490393,21.0502,-470.37,0.716329,0.0,0.0
532,132.75,47.5187,49.8782,158.565,111.211,103.273,-0.00166299,0.0488173,21.0506,-470.38,0.654937,0.0,0.0
534,133.25,46.9832,50.0013,159.883,111.214,102.639,-0.00169757,0.0487226,21.0509,-470.39,0.709722,0.0,0.0
536,133.75,47.3923,49.7713,162.659,111.199,102.876,-0.00172558,0.0484664,21.0511,-470.39,0.68812,0.0,0.0
538,134.25,47.0633,49.6452,162.676,111.205,103.555,-0.00174763,0.0482588,21.0513,-470.41,0.630351,0.0,0.0
540,134.75,47.2846,50.1839,157.19,111.207,102.575,-0.00176493,0.0479963,21.0515,-470.41,0.714628,0.0,0.0
542,135.25,47.3324,50.2685,155.082,111.194,102.765,-0.0017783,0.0477837,21.0516,-470.41,0.697261,0.0,0.0
544,135.75,46.9664,49.9373,160.451,111.18,102.788,-0.00178857,0.0475305,21.0518,-470.39,0.694176,0.0,0.0
546,136.25,47.2262,49.5582,163.797,111.191,102.897,-0.00179688,0.0473255,21.0518,-470.38,0.685648,0.0,0.0
548,136.75,46.7989,49.8914,159.625,111.185,103.165,-0.00180361,0.0470885,21.0519,-470.4,0.662155,0.0,0.0
550,137.25,47.0757,50.0864,163.106,111.192,102.857,-0.00180907,0.0468327,21.052,-470.37,0.689208,0.0,0.0
552,137.75,47.5872,49.9544,163.64,111.181,103.101,-0.00181796,0.0466255,21.052,-470.39,0.667353,0.0,0.0
554,138.25,47.1048,49.5995,163.34,111.179,102.376,-0.00182919,0.0464038,21.0525,-470.39,0.729636,0.0,0.0
556,138.75,46.4336,49.1571,162.06,111.167,102.787,-0.00185095,0.0462242,21.0529,-470.4,0.693157,0.0,0.0
558,139.25,47.2702,49.4394,156.921,111.167,103.294,-0.00187997,0.0460113,21.0534,-470.41,0.649692,0.0,0.0
560,139.75,46.9355,49.5265,158.78,111.168,103.15,-0.00192056,0.0458389,21.0538,-470.41,0.662085,0.0,0.0
562,140.25,46.8727,49.631,156.024,111.148,103.281,-0.00196882,0.0456075,21.0541,-470.4,0.649329,0.0,0.0
564,140.75,47.3533,49.4707,162.769,111.158,103.314,-0.00200791,0.0453374,21.0543,-470.4,0.647275,0.0,0.0
566,141.25,47.2097,49.8239,160.802,111.16,103.093,-0.00205096,0.0450194,21.0546,-470.4,0.666388,0.0,0.0
568,141.75,46.6984,49.587,167.773,111.16,102.71,-0.00209609,0.0446726,21.0552,-470.41,0.69924,0.0,0.0
570,142.25,47.041,49.6865,160.816,111.156,103,-0.00212442,0.0443278,21.0557,-470.4,0.674007,0.0,0.0
572,142.75,47.2328,49.1654,157.611,111.137,102.678,-0.00213996,0.0439912,21.0561,-470.4,0.700143,0.0,0.0
574,143.25,47.2703,49.9481,163.317,111.15,102.766,-0.00215254,0.0437186,21.0564,-470.37,0.693661,0.0,0.0
576,143.75,46.4346,49.4349,164.713,111.136,103.201,-0.00215192,0.0433496,21.0567,-470.37,0.655152,0.0,0.0
578,144.25,46.919,49.3817,161.474,111.14,103.109,-0.00215141,0.0430508,21.0569,-470.36,0.663393,0.0,0.0
580,144.75,46.8951,49.3148,161.544,111.132,102.591,,0.0428088,,-470.37,0.707259,0.0,0.0
582,145.25,46.7223,49.4779,159.472,111.131,103.048,,0.042532,,-470.37,0.667937,0.0,0.0
584,145.75,47.0995,49.4126,162.018,111.137,102.999,,0.0423078,,-470.38,0.672605,0.0,0.0
586,146.25,46.6995,49.7331,164.477,111.134,103.069,,0.0420455,,-470.39,0.666345,0.0,0.0
588,146.75,46.4664,49.5184,158.997,111.128,102.324,,0.041833,,-470.37,0.730063,0.0,0.0
590,147.25,46.8247,49.0256,163.98,111.124,102.292,,0.0415399,,-470.38,0.732452,0.0,0.0
592,147.75,47.0215,49.5844,159.837,111.12,102.981,,,,-470.38,0.672766,0.0,0.0
594,148.25,46.6124,49.1524,157.682,111.114,102.486,,,,-470.37,0.714903,0.0,0.0
596,148.75,46.462,49.7951,162.941,111.112,102.643,,,,-470.37,0.701283,0.0,0.0
598,149.25,46.4989,48.9861,160.328,111.102,102.553,,,,-470.38,0.708246,0.0,0.0
600,149.75,47.0219,48.6931,156.952,111.103,102.574,,,,-470.39,0.706433,0.0,0.0
602,150.25,46.7042,49.3108,161.786,111.089,102.781,,,,-470.39,0.687534,0.0,0.0
604,150.75,46.3088,49.0387,155.346,111.102,102.713,,,,-470.39,0.694401,0.0,0.0
606,151.25,46.6344,48.9495,158.894,111.098,102.629,,,,-470.39,0.701384,0.0,0.0
608,151.75,46.5705,49.5188,160.534,111.093,102.478,,,,-470.41,0.713938,0.0,0.0
610,152.25,46.5118,49.0771,160.709,111.078,102.862,,,,-470.39,0.679703,0.0,0.0
612,152.75,46.2705,49.4205,158.139,111.081,103.216,,,,-470.41,0.649523,0.0,0.0
614,153.25,46.9395,49.0087,156.628,111.066,102.407,,,,-470.42,0.717919,0.0,0.0
616,153.75,47.2769,49.3843,159.899,111.069,102.583,,,,-470.43,0.703025,0.0,0.0
618,154.25,46.7979,49.2447,158.56,111.052,102.494,,,,-470.41,0.709311,0.0,0.0
620,154.75,46.5547,49.3909,164.558,111.068,102.602,,,,-470.41,0.701225,0.0,0.0
622,155.25,46.8644,48.7888,159.38,111.048,102.621,,,,-470.4,0.697987,0.0,0.0
623,155.5,46.451,49.0655,159.521,111.041,103.013,,,,-470.4,0.663741,0.0,0.0