File: 01_Data/Rubber_Foam_Pipe_Insulation/Cone/Rubber_Foam_Pipe_Insulation_Cone_HF50Scan_220307_R1.csv
Names,Time,Stack TC,Smoke TC,Exh Press,Smoke Comp,Smoke Meas,CO Meter,CO2 Meter,O2 Meter,Sample Mass,Ext Coeff,Start Test,Flame Verif
Chan Gain,,500,500,1,1,1,1,1,1,1,1,1.0,1.0
Offset,,0,0,0.13378,0,0,0,0,0,0,0,0.0,0.0
Gain,,1,1,25.011,14.4955,14.6297,1,1,1,1.00092,1.00831,1.0,1.0
Units,sec,C,C,Pa,%,%,%,%,%,g,/m,,
Baseline,,28.6379,30.0091,170.449,110.088,102.554,-0.0015919,0.0394034,21.0618,-946.013,0.627053,,
2,0.25,27.4904,28.9216,151.742,110.272,83.0103,0.00330605,0.0914247,20.9469,-462.303,2.51177,0.0,1.0
4,0.75,27.0292,28.4786,154.224,110.28,78.3671,0.00462666,0.11099,20.9154,-463.704,3.02156,0.0,1.0
6,1.25,27.7624,28.8951,155.743,110.288,65.5715,0.00569635,0.133166,20.8784,-463.954,4.59891,0.0,1.0
8,1.75,27.6684,28.3253,154.969,110.301,58.7879,0.00694079,0.162803,20.8484,-463.874,5.56586,0.0,1.0
10,2.25,27.8748,29.0507,153.344,110.303,59.7666,0.00794879,0.186809,20.8085,-463.774,5.41994,0.0,1.0
12,2.75,27.9848,28.8054,148.276,110.301,61.6359,0.00876527,0.209545,20.7762,-463.924,5.14743,0.0,1.0
14,3.25,28.1536,29.1246,148.313,110.311,65.955,0.0095971,0.230923,20.7488,-464.035,4.54913,0.0,1.0
16,3.75,29.0637,30.1316,150.404,110.319,68.286,0.0102709,0.248239,20.7254,-464.155,4.24258,0.0,1.0
18,4.25,29.7559,30.0776,153.673,110.323,70.0638,0.0107922,0.263075,20.7065,-464.235,4.0156,0.0,1.0
20,4.75,29.9254,30.465,154.372,110.329,72.6283,0.0112146,0.27582,20.6912,-464.225,3.69811,0.0,1.0
22,5.25,29.8532,30.5174,157.392,110.347,73.9471,0.0116183,0.286144,20.6787,-464.275,3.54043,0.0,1.0
24,5.75,30.4554,30.9479,153.229,110.349,76.0593,0.0117269,0.292903,20.6687,-464.345,3.29143,0.0,0.0
26,6.25,30.2062,31.6041,159.157,110.36,79.0721,0.0118665,0.298378,20.6612,-464.445,2.94874,0.0,0.0
28,6.75,30.799,31.8977,156.595,110.355,80.3253,0.0119796,0.301488,20.6559,-464.505,2.8093,0.0,0.0
30,7.25,30.9951,32.2616,161.77,110.378,80.5106,0.0120712,0.304007,20.6515,-464.555,2.79073,0.0,0.0
32,7.75,31.6881,32.5206,152.429,110.381,81.3794,0.0121339,0.305874,20.648,-464.585,2.69608,0.0,0.0
34,8.25,31.7499,32.9481,157.324,110.401,81.8825,0.0121847,0.30723,20.6451,-464.665,2.64312,0.0,0.0
36,8.75,32.3607,33.326,156.113,110.398,79.4261,0.0122373,0.308642,20.6428,-464.725,2.91231,0.0,0.0
38,9.25,32.0899,33.2261,149.912,110.406,79.9632,0.01228,0.309786,20.6409,-464.785,2.8533,0.0,0.0
40,9.75,32.6604,33.6359,156.859,110.403,80.5141,0.0123347,0.311186,20.6384,-464.875,2.79232,0.0,0.0
42,10.25,32.9046,33.7615,157.811,110.413,80.632,0.0123494,0.312745,20.6356,-464.905,2.78023,0.0,0.0
44,10.75,32.9682,34.0556,155.449,110.425,81.6227,0.0123784,0.314007,20.6333,-464.995,2.67318,0.0,0.0
46,11.25,33.5743,34.3275,151.614,110.434,79.7471,0.0124019,0.316311,20.6305,-465.045,2.87954,0.0,0.0
48,11.75,33.9891,34.7794,157.842,110.429,82.7018,0.012421,0.318178,20.6274,-465.116,2.55733,0.0,0.0
50,12.25,33.9695,35.1758,154.383,110.444,81.262,0.012458,0.321566,20.6248,-465.166,2.71384,0.0,0.0
52,12.75,34.1303,35.924,148.163,110.45,79.1622,0.0125074,0.324311,20.622,-465.246,2.94585,0.0,0.0
54,13.25,34.4252,35.8298,152.645,110.452,80.928,0.0125474,0.328859,20.6197,-465.346,2.7509,0.0,0.0
56,13.75,35.0409,36.0576,151.793,110.454,81.8915,0.0126798,0.332543,20.6159,-465.376,2.6464,0.0,0.0
58,14.25,35.2079,36.4396,145.941,110.471,80.5686,0.0127871,0.335526,20.6112,-465.406,2.7918,0.0,0.0
60,14.75,35.2556,36.6604,158.827,110.461,81.1762,0.012874,0.339203,20.6073,-465.516,2.72452,0.0,0.0
62,15.25,35.4511,37.0304,156.339,110.477,82.4469,0.0131002,0.343314,20.6031,-465.596,2.58846,0.0,0.0
64,15.75,35.978,37.2386,149.158,110.469,73.7087,0.0132834,0.346644,20.5988,-465.676,3.57877,0.0,0.0
66,16.25,36.2275,37.6463,153.741,110.488,73.6614,0.0135274,0.35058,20.5933,-465.666,3.58591,0.0,0.0
68,16.75,36.5589,37.6475,151.365,110.471,74.7838,0.013725,0.353769,20.5872,-465.766,3.45084,0.0,0.0
70,17.25,36.799,38.3587,152.674,110.483,70.9362,0.013951,0.356352,20.5823,-465.846,3.91898,0.0,0.0
72,17.75,37.3302,37.7929,154.415,110.495,73.2444,0.0141341,0.358721,20.5783,-465.886,3.63668,0.0,0.0
74,18.25,36.7151,39.4674,154.741,110.504,71.2599,0.0143097,0.36064,20.5751,-465.966,3.88038,0.0,0.0
76,18.75,37.5775,39.1227,149.578,110.496,65.6719,0.0144518,0.36192,20.5725,-466.056,4.60202,0.0,0.0
78,19.25,37.1226,39.3993,146.97,110.519,69.2186,0.0145501,0.362709,20.5703,-466.076,4.13864,0.0,0.0
80,19.75,37.5905,39.2767,151.877,110.507,66.5488,0.0146298,0.363032,20.5686,-466.136,4.48559,0.0,0.0
82,20.25,38.2748,39.971,158.609,110.526,69.4776,0.0146548,0.363008,20.5672,-466.197,4.10615,0.0,0.0
84,20.75,38.7041,40.1629,144.297,110.519,68.5047,0.0146395,0.362403,20.567,-466.297,4.23034,0.0,0.0
86,21.25,39.0189,40.1854,151.142,110.527,67.7966,0.0146271,0.361914,20.5668,-466.337,4.32291,0.0,0.0
88,21.75,39.0416,41.1015,156.114,110.518,69.2753,0.014526,0.360989,20.5666,-466.387,4.13133,0.0,0.0
90,22.25,39.4423,40.9536,155.829,110.537,65.2661,0.0143623,0.359764,20.5683,-466.487,4.66015,0.0,0.0
92,22.75,39.4679,41.0208,150.77,110.53,69.8191,0.0141316,0.357635,20.5696,-466.497,4.06313,0.0,0.0
94,23.25,39.293,41.2132,156.535,110.543,71.3032,0.0138566,0.354889,20.5729,-466.567,3.87812,0.0,0.0
96,23.75,39.5966,41.0165,160.129,110.535,76.3044,0.0136338,0.352665,20.5774,-466.637,3.27793,0.0,0.0
98,24.25,40.0624,42.1531,155.22,110.553,75.1405,0.0132968,0.348985,20.581,-466.677,3.41526,0.0,0.0
100,24.75,40.4285,42.3951,158.829,110.531,78.4921,0.0128829,0.344312,20.59,-466.727,3.02756,0.0,0.0
102,25.25,40.9177,42.1895,157.139,110.552,79.0319,0.0123409,0.340527,20.6007,-466.787,2.96864,0.0,0.0
104,25.75,40.4819,42.9135,158.914,110.543,80.7967,0.0119019,0.334219,20.6122,-466.827,2.77259,0.0,0.0
106,26.25,40.2459,42.9332,158.277,110.572,81.7316,0.011357,0.329109,20.6235,-466.887,2.6731,0.0,0.0
108,26.75,40.5358,43.1634,152.92,110.551,83.5255,0.0109156,0.322956,20.6343,-466.897,2.47941,0.0,0.0
110,27.25,40.8236,43.5578,158.286,110.565,81.6865,0.0103835,0.317973,20.6447,-466.947,2.67742,0.0,0.0
112,27.75,41.3087,43.2294,145.993,110.564,82.9697,0.00995243,0.313121,20.6546,-466.967,2.53953,0.0,0.0
114,28.25,41.4592,43.405,155.147,110.569,84.5126,0.00960329,0.308456,20.6626,-466.987,2.37691,0.0,0.0
116,28.75,41.3554,43.3887,162.205,110.565,86.1588,0.00911049,0.304086,20.6698,-467.037,2.20604,0.0,0.0
118,29.25,41.565,43.8238,155.681,110.583,86.4548,0.00871133,0.300012,20.6763,-467.047,2.17712,0.0,0.0
120,29.75,41.4162,43.7928,155.202,110.564,86.553,0.00825112,0.296115,20.6827,-467.097,2.16555,0.0,0.0
122,30.25,41.8449,43.9695,159.265,110.58,86.2141,0.00787836,0.292419,20.689,-467.117,2.20152,0.0,0.0
124,30.75,41.9883,44.0802,158.492,110.573,88.4991,0.00744127,0.289426,20.6959,-467.157,1.96963,0.0,0.0
126,31.25,41.7765,43.9427,160.292,110.579,90.1497,0.00708723,0.285198,20.7032,-467.167,1.80664,0.0,0.0
128,31.75,41.9331,44.5699,159.008,110.579,91.5654,0.00667443,0.281774,20.7113,-467.217,1.66879,0.0,0.0
130,32.25,42.2164,43.5713,161.674,110.572,92.3552,0.00634006,0.277906,20.7197,-467.207,1.59229,0.0,0.0
132,32.75,41.9507,44.311,167.384,110.576,93.8245,0.0059473,0.273788,20.7284,-467.258,1.45304,0.0,0.0
134,33.25,41.5831,43.9803,161.533,110.591,93.8049,0.00562916,0.269493,20.7371,-467.268,1.45602,0.0,0.0
136,33.75,41.7144,44.2228,160.22,110.581,93.9482,0.00529977,0.26515,20.7442,-467.298,1.44178,0.0,0.0
138,34.25,42.0966,44.2919,157.934,110.586,96.1725,0.00496844,0.259819,20.75,-467.288,1.2352,0.0,0.0
140,34.75,42.3292,44.3267,164.852,110.603,95.2514,0.00470005,0.255502,20.7577,-467.328,1.3217,0.0,0.0
142,35.25,41.5855,45.0267,157.794,110.589,96.9957,0.00448267,0.250129,20.764,-467.348,1.16006,0.0,0.0
144,35.75,42.4402,45.1188,164.813,110.596,97.9235,0.00421264,0.245777,20.7691,-467.368,1.07642,0.0,0.0
146,36.25,41.9449,45.0158,163.179,110.604,99.0629,0.00378007,0.240212,20.7759,-467.378,0.974742,0.0,0.0
148,36.75,42.291,44.6209,159.56,110.594,99.3057,0.00363935,0.235704,20.7814,-467.398,0.952236,0.0,0.0
150,37.25,42.2111,44.912,162.324,110.605,99.7473,0.0033987,0.232053,20.7877,-467.408,0.913879,0.0,0.0
152,37.75,42.5398,45.3519,159.619,110.607,99.6727,0.00320378,0.229095,20.7945,-467.428,0.920635,0.0,0.0
154,38.25,42.7923,44.6674,159.38,110.635,100.89,0.00302276,0.222908,20.8024,-467.428,0.815552,0.0,0.0
156,38.75,42.1719,44.9115,164.668,110.623,101.608,0.00287614,0.217897,20.8109,-467.468,0.751918,0.0,0.0
158,39.25,42.5921,44.7643,157.281,110.624,101.341,0.0027732,0.210917,20.8203,-467.478,0.775186,0.0,0.0
160,39.75,42.6981,44.756,169.074,110.618,101.15,0.00267543,0.208288,20.8346,-467.518,0.791383,0.0,0.0
162,40.25,42.1283,44.9851,165.15,110.627,101.391,0.00266247,0.203793,20.84,-467.488,0.77107,0.0,0.0
164,40.75,41.9223,45.0068,167.895,110.63,101.09,0.00264032,0.198136,20.8494,-467.498,0.797681,0.0,0.0
166,41.25,42.5032,44.7171,167.078,110.629,102.099,0.00268825,0.193554,20.8587,-467.498,0.709731,0.0,0.0
168,41.75,41.7234,45.3376,168.848,110.643,101.903,0.00272707,0.188095,20.8676,-467.508,0.727822,0.0,0.0
170,42.25,42.588,44.6623,164.621,110.646,101.421,0.00280162,0.183674,20.8749,-467.508,0.769947,0.0,0.0
172,42.75,42.227,44.8791,162.079,110.652,101.751,0.00290079,0.176332,20.8839,-467.518,0.741789,0.0,0.0
174,43.25,41.8502,44.5608,166,110.654,101.614,0.00299916,0.174356,20.8912,-467.538,0.753814,0.0,0.0
176,43.75,41.7879,45.033,169.251,110.672,101.892,0.00309508,0.169391,20.8989,-467.558,0.73109,0.0,0.0
178,44.25,41.7618,45.0929,166.258,110.656,101.943,0.00317277,0.165369,20.9051,-467.568,0.725435,0.0,0.0
180,44.75,41.8327,44.8416,170.114,110.664,101.954,0.00325407,0.16122,20.9116,-467.568,0.725064,0.0,0.0
182,45.25,41.863,44.4877,171.381,110.667,102.299,0.00331993,0.157058,20.9181,-467.578,0.695423,0.0,0.0
184,45.75,41.4622,44.6562,166.182,110.669,102.341,0.00338798,0.153687,20.9233,-467.588,0.692011,0.0,0.0
186,46.25,41.2311,44.786,165.04,110.667,102.447,0.0034431,0.149467,20.9303,-467.578,0.682655,0.0,0.0
188,46.75,41.294,44.3517,165.09,110.674,101.98,0.00349485,0.146049,20.9359,-467.588,0.723557,0.0,0.0
190,47.25,41.5925,44.4137,168.006,110.685,102.722,0.00354315,0.142022,20.9418,-467.598,0.660392,0.0,0.0
192,47.75,41.5126,44.1455,165.558,110.675,101.961,0.00358228,0.13876,20.9466,-467.598,0.725328,0.0,0.0
194,48.25,41.2859,43.8776,166.101,110.674,102.93,0.00362133,0.135545,20.9514,-467.608,0.64165,0.0,0.0
196,48.75,41.1828,44.0896,171.776,110.682,102.418,0.00365296,0.132426,20.9552,-467.618,0.686289,0.0,0.0
198,49.25,41.1464,43.4933,166.832,110.678,102.186,0.0036902,0.129899,20.9583,-467.628,0.706081,0.0,0.0
200,49.75,41.36,43.8241,171.483,110.69,102.781,0.00373083,0.126852,20.9622,-467.648,0.655711,0.0,0.0
202,50.25,40.7065,43.8269,169.489,110.675,102.517,0.00377666,0.124383,20.9653,-467.648,0.67728,0.0,0.0
204,50.75,40.1063,43.34,169.158,110.697,102.789,0.00382541,0.121648,20.9688,-467.638,0.655585,0.0,0.0
206,51.25,39.8505,42.7324,167.215,110.692,102.653,0.0038649,0.119433,20.9716,-467.658,0.666918,0.0,0.0
208,51.75,40.1691,42.6583,166.958,110.695,102.487,0.00391409,0.117282,20.974,-467.678,0.681488,0.0,0.0
210,52.25,40.0399,42.9902,161.526,110.696,102.558,0.00395457,0.115218,20.9763,-467.688,0.67536,0.0,0.0
212,52.75,40.0596,42.6233,168.267,110.713,102.065,0.00398795,0.113146,20.979,-467.688,0.719388,0.0,0.0
214,53.25,40.4268,42.5709,159.241,110.703,102.168,0.00400722,0.111108,20.9812,-467.698,0.709642,0.0,0.0
216,53.75,39.8853,42.8136,165.019,110.722,102.572,0.00401586,0.109457,20.9834,-467.698,0.676213,0.0,0.0
218,54.25,40.007,42.8221,169.005,110.709,102.751,0.00402285,0.107719,20.9852,-467.718,0.659802,0.0,0.0
220,54.75,39.0877,42.1381,167.809,110.715,102.06,0.00401009,0.106312,20.9869,-467.698,0.719881,0.0,0.0
222,55.25,39.466,42.4189,166.858,110.71,102.81,0.00399976,0.104938,20.9884,-467.708,0.654763,0.0,0.0
224,55.75,39.2705,42.19,169.327,110.715,102.11,0.00399139,0.103824,20.9897,-467.698,0.715697,0.0,0.0
226,56.25,39.363,42.08,165.037,110.709,102.456,0.00397357,0.102702,20.9912,-467.708,0.685204,0.0,0.0
228,56.75,38.9938,42.2692,169.406,110.714,102.469,0.00395913,0.101793,20.9924,-467.708,0.684513,0.0,0.0
230,57.25,38.9769,42.2119,168.706,110.708,102.682,0.0039548,0.100837,20.9934,-467.718,0.665655,0.0,0.0
232,57.75,38.5395,42.0236,160.622,110.709,102.858,0.00395129,0.100062,20.9944,-467.728,0.650621,0.0,0.0
234,58.25,38.8487,41.0558,166.42,110.729,102.676,0.00394845,0.0992746,20.9954,-467.728,0.667889,0.0,0.0
236,58.75,38.4285,41.5339,164.046,110.717,103.162,0.00394723,0.0984937,20.9959,-467.748,0.625078,0.0,0.0
238,59.25,38.6251,41.7449,166.903,110.707,102.79,0.00396235,0.0978611,20.9958,-467.758,0.65628,0.0,0.0
240,59.75,38.651,41.8453,164.414,110.72,102.65,0.00397201,0.0970599,20.9958,-467.768,0.669376,0.0,0.0
242,60.25,38.687,41.6867,167.245,110.714,102.461,0.00397751,0.0964109,20.9962,-467.768,0.685168,0.0,0.0
244,60.75,38.5026,41.7269,162.605,110.729,102.527,0.00397421,0.0958853,20.9965,-467.778,0.680632,0.0,0.0
246,61.25,38.6565,40.9003,163.206,110.725,102.709,0.00396456,0.0953076,20.9968,-467.788,0.664688,0.0,0.0
248,61.75,38.2025,40.8208,169.878,110.751,102.854,0.00394705,0.0949893,20.997,-467.788,0.654286,0.0,0.0
250,62.25,38.1566,40.9446,170.933,110.738,103.069,0.00392416,0.0944451,20.9971,-467.778,0.634743,0.0,0.0
252,62.75,37.772,40.7459,170.158,110.744,102.21,0.00390561,0.093867,20.9973,-467.788,0.709296,0.0,0.0
254,63.25,38.6807,41.3549,167.539,110.73,103.191,0.00386851,0.0933987,20.9974,-467.798,0.623686,0.0,0.0
256,63.75,38.2314,40.8618,167.663,110.753,102.625,0.00383846,0.0929782,20.9975,-467.808,0.674219,0.0,0.0
258,64.25,38.2875,40.5859,167.659,110.738,102.348,0.00380064,0.0926159,20.9976,-467.828,0.696833,0.0,0.0
260,64.75,38.1314,41.5059,164.555,110.751,103.016,0.00377,0.0923029,20.9976,-467.838,0.640364,0.0,0.0
262,65.25,37.9386,40.9101,167.009,110.742,102.838,0.00373615,0.0920493,20.9977,-467.818,0.654962,0.0,0.0
264,65.75,37.7618,40.4299,166.596,110.756,102.61,0.00370062,0.0916243,20.9977,-467.838,0.6757,0.0,0.0
266,66.25,37.1393,39.9596,164.594,110.754,102.54,0.00366409,0.0912801,20.9978,-467.828,0.681604,0.0,0.0
268,66.75,36.8245,39.8628,162.509,110.776,102.694,0.00362755,0.0908713,20.9982,-467.848,0.670093,0.0,0.0
270,67.25,37.5519,40.2554,167.886,110.756,102.276,0.00361197,0.0904231,20.9984,-467.848,0.704573,0.0,0.0
272,67.75,37.6824,41.1595,166.474,110.781,102.499,0.00357888,0.0899952,20.9988,-467.848,0.687301,0.0,0.0
274,68.25,37.8613,40.47,171.032,110.757,103.172,0.00354628,0.0895901,20.999,-467.858,0.62749,0.0,0.0
276,68.75,37.3754,40.9873,160.387,110.774,102.451,0.0035173,0.0892619,20.9993,-467.878,0.690824,0.0,0.0
278,69.25,37.5649,40.5729,164.426,110.769,102.592,0.00349151,0.0889276,20.9999,-467.878,0.678264,0.0,0.0
280,69.75,37.4402,40.4009,169.344,110.773,102.97,0.00347062,0.0886568,21.0004,-467.868,0.646076,0.0,0.0
282,70.25,37.196,39.8257,163.531,110.772,102.416,0.00344596,0.0885413,21.0008,-467.868,0.693654,0.0,0.0
284,70.75,37.6578,39.5278,167.316,110.784,102.407,0.00341904,0.0882754,21.0012,-467.888,0.69538,0.0,0.0
286,71.25,37.4632,39.8211,169.565,110.777,102.305,0.00338436,0.0880311,21.0014,-467.878,0.703758,0.0,0.0
288,71.75,37.1115,40.2027,165.648,110.782,102.994,0.00334467,0.0878072,21.0017,-467.888,0.644749,0.0,0.0
290,72.25,36.8828,39.9344,166.826,110.773,101.981,0.00329517,0.0876259,21.0018,-467.888,0.731431,0.0,0.0
292,72.75,37.2075,40.0692,167.918,110.797,102.326,0.00323943,0.0874105,21.002,-467.888,0.703534,0.0,0.0
294,73.25,37.0026,39.713,164.546,110.776,102.586,0.0031763,0.0872361,21.0021,-467.888,0.679295,0.0,0.0
296,73.75,37.2672,39.5467,164.984,110.786,102.743,0.00310896,0.0869794,21.0026,-467.898,0.666568,0.0,0.0
298,74.25,36.843,39.3734,166.434,110.804,102.969,0.00303388,0.0866676,21.0031,-467.888,0.648624,0.0,0.0
300,74.75,36.7215,39.9178,171.963,110.788,102.769,0.00295457,0.0864151,21.0034,-467.888,0.664551,0.0,0.0
302,75.25,37.0003,40.0978,168.77,110.798,102.898,0.0028743,0.0860326,21.0037,-467.898,0.654233,0.0,0.0
304,75.75,37.0977,39.1271,169.082,110.805,102.453,0.00279484,0.0857011,21.0042,-467.908,0.693178,0.0,0.0
306,76.25,36.9671,39.5673,163.185,110.799,102.383,0.00273049,0.0854131,21.0048,-467.898,0.698698,0.0,0.0
308,76.75,36.7078,39.9938,167.722,110.808,102.552,0.00266298,0.0851799,21.0053,-467.908,0.684798,0.0,0.0
310,77.25,36.8959,40.126,169.368,110.811,103.027,0.00259445,0.0849636,21.0056,-467.908,0.644173,0.0,0.0
312,77.75,36.4143,39.5714,171.462,110.826,102.726,0.00253894,0.0847668,21.006,-467.918,0.671354,0.0,0.0
314,78.25,36.6064,39.3757,168.75,110.818,102.431,0.00248547,0.0845879,21.0062,-467.938,0.696055,0.0,0.0
316,78.75,36.6745,39.6929,168.588,110.809,102.549,0.00242176,0.084443,21.0065,-467.928,0.685177,0.0,0.0
318,79.25,36.5165,38.9301,173.535,110.82,103.19,0.00240341,0.084304,21.0066,-467.938,0.631009,0.0,0.0
320,79.75,36.5234,38.9756,164.661,110.826,103.173,0.00237203,0.084172,21.0067,-467.928,0.632849,0.0,0.0
322,80.25,36.6437,39.4844,170.991,110.822,102.922,0.00233931,0.0840651,21.0068,-467.928,0.654176,0.0,0.0
324,80.75,36.5082,39.2017,161.591,110.819,103.036,0.00231282,0.0839209,21.0069,-467.928,0.644077,0.0,0.0
326,81.25,36.0685,39.4324,162.775,110.837,102.586,0.00229135,0.0837522,21.007,-467.938,0.684238,0.0,0.0
328,81.75,36.7938,39.4964,167.322,110.833,102.422,0.00226564,0.0834752,21.007,-467.958,0.697987,0.0,0.0
330,82.25,36.2922,39.1309,169.27,110.841,102.563,0.00223733,0.0833878,21.0078,-467.958,0.686558,0.0,0.0
332,82.75,36.5514,39.0527,169.282,110.836,102.889,0.00221312,0.0831951,21.0084,-467.958,0.658037,0.0,0.0
334,83.25,36.3556,38.8383,164.9,110.837,102.248,0.00219235,0.0830002,21.0093,-467.958,0.713355,0.0,0.0
336,83.75,36.0991,38.9147,165.388,110.834,102.488,0.00217553,0.0828423,21.0101,-467.948,0.692464,0.0,0.0
338,84.25,36.6524,39.3177,164.227,110.842,102.197,0.00216191,0.082628,21.0107,-467.968,0.718218,0.0,0.0
340,84.75,36.1336,38.9461,168.312,110.84,102.977,0.00215087,0.0823767,21.0112,-467.968,0.650836,0.0,0.0
342,85.25,35.6541,38.8134,169.669,110.85,102.842,0.00213809,0.0821084,21.0116,-467.978,0.663271,0.0,0.0
344,85.75,36.2267,38.9213,168.56,110.843,102.493,0.00212429,0.0818328,21.0119,-467.978,0.692707,0.0,0.0
346,86.25,35.8009,38.5005,168.076,110.857,102.389,0.0021131,0.0816096,21.0122,-467.978,0.702825,0.0,0.0
348,86.75,35.9271,38.8623,169.952,110.844,102.822,0.00208339,0.0813784,21.0124,-467.978,0.664504,0.0,0.0
350,87.25,35.6182,38.46,168.939,110.851,102.993,0.00205931,0.0811459,21.0126,-467.968,0.650334,0.0,0.0
352,87.75,35.9778,38.4699,164.497,110.853,102.476,0.00201188,0.0809575,21.0127,-467.968,0.69506,0.0,0.0
354,88.25,35.9654,38.8214,167.747,110.857,102.789,0.00194431,0.0807366,21.0129,-467.968,0.668407,0.0,0.0
356,88.75,35.9267,38.4044,166.837,110.865,102.828,0.00191807,0.0805146,21.0129,-467.968,0.665588,0.0,0.0
358,89.25,35.879,38.6297,168.669,110.886,103.182,0.0018732,0.0802959,21.013,-467.988,0.636845,0.0,0.0
360,89.75,35.3606,38.1405,169.08,110.859,102.472,0.0018223,0.0801187,21.0131,-467.978,0.695789,0.0,0.0
362,90.25,36.0173,38.6455,167.041,110.871,102.329,0.00178107,0.0799206,21.0136,-467.978,0.70912,0.0,0.0
364,90.75,35.7268,38.3721,170.059,110.858,103.258,0.00174768,0.0797601,21.014,-467.988,0.628154,0.0,0.0
366,91.25,35.7982,38.3896,167.31,110.872,103.508,0.00170365,0.0794245,21.0143,-468.028,0.607931,0.0,0.0
368,91.75,35.824,37.8721,172.881,110.862,102.651,0.00166799,0.0793106,21.0146,-467.998,0.6806,0.0,0.0
370,92.25,35.9716,38.0138,170.002,110.885,102.507,0.00163911,0.0790655,21.0148,-467.998,0.694831,0.0,0.0
372,92.75,35.4834,37.9244,166.729,110.87,103.322,0.00161571,0.0788217,21.0149,-468.018,0.623639,0.0,0.0
374,93.25,35.6623,38.2597,164.333,110.875,103.33,0.00159804,0.0786242,21.0151,-468.018,0.623342,0.0,0.0
376,93.75,35.6645,38.0668,167.767,110.872,102.78,0.00158487,0.0783551,21.0152,-468.038,0.670301,0.0,0.0
378,94.25,35.7078,37.773,171.33,110.875,102.27,0.00156087,0.0781371,21.0153,-468.028,0.714572,0.0,0.0
380,94.75,35.3874,37.5645,168.882,110.88,103.127,0.00154143,0.0778528,21.0158,-468.038,0.64106,0.0,0.0
382,95.25,34.9499,37.6056,169.563,110.884,102.422,0.00151357,0.0775256,21.0162,-468.038,0.702082,0.0,0.0
384,95.75,34.9432,38.1872,170.075,110.878,102.813,0.0014801,0.0772175,21.0166,-468.038,0.667955,0.0,0.0
386,96.25,35.6185,37.8729,168.57,110.879,102.689,0.00144535,0.0769291,21.0168,-468.048,0.678745,0.0,0.0
388,96.75,35.4684,37.5546,169.014,110.878,102.763,0.00141031,0.076674,21.0171,-468.048,0.672255,0.0,0.0
390,97.25,34.9684,37.8576,167.767,110.891,103.862,0.00138193,0.076448,21.0173,-468.018,0.579177,0.0,0.0
392,97.75,34.6706,37.1708,168.692,110.876,103.287,0.00135894,0.0762506,21.0174,-468.028,0.627153,0.0,0.0
394,98.25,35.4213,37.7167,159.243,110.887,102.216,0.00132217,0.0760778,21.0178,-468.028,0.72016,0.0,0.0
396,98.75,35.439,37.5625,163.289,110.881,103.112,0.00129238,0.0759378,21.0183,-468.038,0.642503,0.0,0.0
398,99.25,35.5984,37.838,167.092,110.904,102.817,0.00125495,0.0757835,21.0187,-468.048,0.669688,0.0,0.0
400,99.75,35.2966,37.661,163.704,110.886,102.571,0.00122463,0.0756585,21.019,-468.028,0.689394,0.0,0.0
402,100.25,35.0974,37.6204,161.154,110.899,102.497,0.00117105,0.0755286,21.0192,-468.048,0.696771,0.0,0.0
404,100.75,35.5708,38.0271,163.813,110.891,102.327,0.00112765,0.0753975,21.0195,-468.048,0.710937,0.0,0.0
406,101.25,34.4483,36.8576,168.87,110.892,102.231,0.00104781,0.0752914,21.0199,-468.058,0.719268,0.0,0.0
408,101.75,34.2927,37.0217,174.048,110.891,102.969,0.000983139,0.0750978,21.0204,-468.058,0.655584,0.0,0.0
410,102.25,34.6307,37.6078,168.57,110.904,102.504,0.000907264,0.0748441,21.0209,-468.058,0.696655,0.0,0.0
412,102.75,35.3565,38.0113,169.834,110.9,102.919,0.000824663,0.0745741,21.0212,-468.068,0.660621,0.0,0.0
414,103.25,34.9212,37.3326,168.142,110.906,102.458,0.000738098,0.0742973,21.0215,-468.058,0.700763,0.0,0.0
416,103.75,35.2744,37.9327,168.998,110.913,102.975,0.000650286,0.0740444,21.0217,-468.048,0.656846,0.0,0.0
418,104.25,34.977,38.0969,172.815,110.9,102.707,0.000579158,0.0738138,21.0219,-468.048,0.678862,0.0,0.0
420,104.75,34.7803,37.1915,168.409,110.902,102.706,0.000521545,0.073627,21.0221,-468.078,0.679007,0.0,0.0
422,105.25,34.366,37.2338,170.258,110.91,102.323,0.000433955,0.0734757,21.0221,-468.068,0.712727,0.0,0.0
424,105.75,33.888,36.4554,168.162,110.908,102.435,0.000363008,0.0733172,21.0221,-468.058,0.702905,0.0,0.0
426,106.25,34.4604,37.0695,165.772,110.926,102.823,0.000301109,0.0731567,21.0221,-468.058,0.670956,0.0,0.0
428,106.75,34.6142,37.2392,171.274,110.912,102.905,0.000246983,0.0730266,21.0225,-468.088,0.662725,0.0,0.0
430,107.25,35.4526,36.9616,163.43,110.92,102.492,0.00020314,0.0729212,21.0229,-468.078,0.698962,0.0,0.0
432,107.75,35.0024,37.4432,169.659,110.907,102.706,0.000159211,0.0727134,21.0232,-468.078,0.679429,0.0,0.0
434,108.25,34.7612,37.5394,166.157,110.922,103.863,0.000123628,0.072545,21.0234,-468.078,0.581602,0.0,0.0
436,108.75,34.7025,37.1408,164.16,110.921,102.867,7.43618e-05,0.0723584,21.0236,-468.088,0.666766,0.0,0.0
438,109.25,35.0225,36.8035,166.435,110.914,102.485,3.44566e-05,0.0721622,21.0238,-468.098,0.699083,0.0,0.0
440,109.75,35.0686,37.3614,159.64,110.912,102.895,-1.05248e-05,0.0720032,21.0239,-468.098,0.663605,0.0,0.0
442,110.25,34.6062,36.6223,167.739,110.918,103.041,-5.83521e-05,0.0717519,21.024,-468.098,0.651487,0.0,0.0
444,110.75,34.8329,37.2472,161.742,110.924,102.857,-0.000102156,0.0715484,21.0241,-468.108,0.667822,0.0,0.0
446,111.25,34.7192,37.3263,164.723,110.919,103.263,-0.000142193,0.0712203,21.0246,-468.108,0.632605,0.0,0.0
448,111.75,34.6302,37.1359,166.864,110.925,103.202,-0.000174624,0.0709545,21.025,-468.118,0.638301,0.0,0.0
450,112.25,34.8888,37.1181,165.668,110.915,103.078,-0.000204691,0.070682,21.0253,-468.118,0.64817,0.0,0.0
452,112.75,34.7718,37.0429,168.421,110.918,103.465,-0.000232462,0.0704097,21.0256,-468.128,0.615193,0.0,0.0
454,113.25,34.6555,37.1329,166.682,110.928,102.628,-0.000251792,0.0701533,21.0258,-468.138,0.687854,0.0,0.0
456,113.75,34.64,37.1757,169.848,110.928,103.152,-0.000264602,0.0699134,21.026,-468.128,0.642873,0.0,0.0
458,114.25,34.2243,37.1538,169.846,110.932,103.154,-0.000268648,0.0697192,21.0261,-468.138,0.642963,0.0,0.0
460,114.75,34.9323,37.3941,170.014,110.926,102.459,-0.00026623,0.069521,21.0267,-468.148,0.702347,0.0,0.0
462,115.25,34.2892,36.8717,164.814,110.937,102.603,-0.000262372,0.0693605,21.0272,-468.128,0.690715,0.0,0.0
464,115.75,34.9,36.6185,168.188,110.923,102.914,-0.000257538,0.0692305,21.0275,-468.138,0.662874,0.0,0.0
466,116.25,34.8885,36.8622,170.369,110.923,102.74,-0.000259952,0.0690572,21.0278,-468.128,0.677813,0.0,0.0
468,116.75,34.4508,36.8393,169.713,110.929,102.536,-0.000267603,0.0689168,21.0281,-468.118,0.695893,0.0,0.0
470,117.25,34.7415,36.6949,169.135,110.931,102.23,-0.000287029,0.0686808,21.0285,-468.138,0.722493,0.0,0.0
472,117.75,34.3772,36.8777,167.216,110.93,102.517,-0.000302764,0.0684681,21.0291,-468.128,0.69762,0.0,0.0
474,118.25,35.0005,36.8296,164.85,110.922,102.482,-0.000315509,0.0682765,21.0295,-468.138,0.699987,0.0,0.0
476,118.75,34.5104,36.6699,167.973,110.933,103.106,-0.000332162,0.0680999,21.0299,-468.138,0.647202,0.0,0.0
478,119.25,34.3906,36.7388,171.136,110.929,102.885,-0.000351346,0.0679375,21.0302,-468.148,0.66583,0.0,0.0
480,119.75,34.3756,36.7609,168.298,110.94,102.822,-0.000366886,0.0677488,21.0304,-468.148,0.672161,0.0,0.0
482,120.25,34.3354,36.9675,160.3,110.937,102.236,-0.000385486,0.0675445,21.0306,-468.158,0.722481,0.0,0.0
484,120.75,34.3284,36.5048,166.083,110.932,102.695,-0.000400552,0.0673789,21.0308,-468.158,0.682402,0.0,0.0
486,121.25,34.3895,36.6167,164.147,110.94,102.359,-0.00041997,0.0671362,21.0309,-468.158,0.712042,0.0,0.0
488,121.75,34.3826,36.5846,172.768,110.931,102.735,-0.000435699,0.0669395,21.031,-468.168,0.678913,0.0,0.0
490,122.25,34.633,36.3027,166.89,110.93,103.011,-0.000449643,0.0667088,21.0311,-468.158,0.655116,0.0,0.0
492,122.75,34.2718,36.6115,172.636,110.934,103.444,-0.000460937,0.0664575,21.0312,-468.168,0.61829,0.0,0.0
494,123.25,34.0983,37.0924,166.841,110.935,103.788,-0.000468882,0.066254,21.0312,-468.158,0.589018,0.0,0.0
496,123.75,34.0008,36.6323,172.921,110.945,102.422,-0.000475318,0.0659942,21.0313,-468.148,0.706954,0.0,0.0
498,124.25,34.6281,36.4037,167.33,110.943,102.828,-0.000481797,0.0657837,21.0313,-468.158,0.671835,0.0,0.0
500,124.75,34.0524,36.4776,170.451,110.943,102.239,-0.000488184,0.0654638,21.0313,-468.168,0.722595,0.0,0.0
502,125.25,34.4276,36.4664,169.298,110.926,102.357,-0.000493358,0.0652048,21.0314,-468.168,0.711065,0.0,0.0
504,125.75,34.0531,36.5889,166.646,110.95,103.231,-0.0005216,0.0649235,21.0314,-468.178,0.637863,0.0,0.0
506,126.25,34.3004,36.1352,174.03,110.933,103.381,-0.000544475,0.0646315,21.0314,-468.168,0.623644,0.0,0.0
508,126.75,34.1907,36.4556,165.008,110.937,103.09,-0.000587055,0.0643806,21.0314,-468.168,0.648937,0.0,0.0
510,127.25,34.038,36.5454,168.913,110.934,103.382,-0.000621545,0.0641645,21.0317,-468.168,0.6236,0.0,0.0
512,127.75,34.195,36.2869,170.35,110.937,103.242,-0.000649482,0.0639895,21.0321,-468.178,0.635884,0.0,0.0
514,128.25,34.1307,36.847,167.905,110.933,103.235,-0.000692553,0.0637664,21.0326,-468.168,0.636105,0.0,0.0
516,128.75,34.3123,36.0989,167.698,110.943,102.881,-0.000727441,0.0635856,21.0331,-468.168,0.667263,0.0,0.0
518,129.25,34.6081,36.3767,167.556,110.931,103.39,-0.000761397,0.0633464,21.0336,-468.188,0.6227,0.0,0.0
520,129.75,33.5934,36.1166,166.977,110.944,102.509,-0.000794028,0.0630691,21.0339,-468.188,0.699403,0.0,0.0
522,130.25,33.8942,35.9939,167.277,110.94,102.682,-0.000820458,0.0628445,21.0342,-468.188,0.684155,0.0,0.0
524,130.75,34.0528,36.4601,171.159,110.937,102.319,-0.0008575,0.0625271,21.0347,-468.198,0.715262,0.0,0.0
526,131.25,33.8244,36.1975,169.71,110.938,102.874,-0.000887504,0.0621479,21.0353,-468.188,0.66749,0.0,0.0
528,131.75,34.4259,36.132,169.295,110.94,103.025,-0.000919023,0.061624,21.0358,-468.188,0.654669,0.0,0.0
530,132.25,34.3004,36.0423,167.828,110.927,102.569,-0.000944553,0.0611997,21.0362,-468.208,0.692868,0.0,0.0
532,132.75,34.231,36.0972,169.768,110.94,102.949,-0.000967132,0.0607134,21.0365,-468.198,0.66115,0.0,0.0
534,133.25,34.1448,35.8763,169.083,110.922,102.761,-0.000987129,0.0601912,21.0372,-468.218,0.675901,0.0,0.0
536,133.75,33.8941,36.382,167.338,110.94,102.831,-0.00101155,0.0597683,21.0378,-468.208,0.671394,0.0,0.0
538,134.25,33.1957,35.4704,163.75,110.927,102.409,-0.00103875,0.0592226,21.0387,-468.198,0.706696,0.0,0.0
540,134.75,33.6886,35.4649,166.02,110.93,103.526,-0.0010709,0.0587807,21.0394,-468.198,0.610992,0.0,0.0
542,135.25,34.1621,36.3747,171.882,110.929,102.696,-0.00110605,0.0583372,21.04,-468.218,0.682078,0.0,0.0
544,135.75,34.068,36.4812,167.38,110.942,102.337,-0.00113453,0.0579011,21.0405,-468.208,0.714069,0.0,0.0
546,136.25,33.7678,36.4651,169.491,110.926,102.356,-0.00116842,0.0575479,21.0415,-468.198,0.711142,0.0,0.0
548,136.75,33.7571,35.5133,170.002,110.932,102.698,-0.00119586,0.0570589,21.0418,-468.188,0.682175,0.0,0.0
550,137.25,34.1665,36.0609,169.987,110.933,103.558,-0.00122531,0.0566628,21.0424,-468.198,0.608454,0.0,0.0
552,137.75,34.5927,36.173,159.938,110.939,102.581,-0.00124917,0.0561122,21.0429,-468.188,0.692781,0.0,0.0
554,138.25,33.8289,36.202,168.221,110.925,102.334,-0.00126912,0.0556661,21.0435,-468.198,0.713003,0.0,0.0
556,138.75,33.479,35.9873,172.471,110.933,102.877,-0.00128586,0.0551021,21.0442,-468.198,0.666872,0.0,0.0
558,139.25,33.7149,36.1485,165.768,110.919,102.63,-0.00129941,0.0543581,21.0448,-468.198,0.687033,0.0,0.0
560,139.75,34.0467,36.1881,168.264,110.94,103.202,-0.00132602,0.0540997,21.0453,-468.188,0.6395,0.0,0.0
562,140.25,33.6341,36.1929,165.165,110.929,102.648,-0.00134758,0.0536577,21.0456,-468.208,0.686196,0.0,0.0
564,140.75,34.0475,36.2736,168.283,110.931,102.873,-0.00137516,0.0531377,21.046,-468.208,0.667041,0.0,0.0
566,141.25,33.674,35.8411,169.344,110.913,102.953,-0.00140662,0.0527164,21.0462,-468.208,0.65869,0.0,0.0
568,141.75,33.6775,36.051,169.266,110.93,102.978,-0.00144666,0.0523752,21.0464,-468.228,0.65788,0.0,0.0
570,142.25,33.5748,35.6422,167.971,110.911,103.402,-0.00149219,0.0518559,21.0475,-468.218,0.620086,0.0,0.0
572,142.75,33.9592,35.8585,170.621,110.929,103.694,-0.00154427,0.0514352,21.0483,-468.218,0.596479,0.0,0.0
574,143.25,33.9584,36.1733,167.124,110.916,103.31,-0.00160011,0.0510022,21.049,-468.218,0.628344,0.0,0.0
576,143.75,33.4471,35.7328,172.598,110.924,102.875,-0.00165548,0.0505683,21.0496,-468.238,0.666284,0.0,0.0
578,144.25,33.8599,35.5157,169.777,110.905,102.368,-0.00170944,0.0502169,21.05,-468.228,0.708445,0.0,0.0
580,144.75,33.4749,36.0595,168.395,110.932,102.406,-0.00175378,0.0497973,21.0508,-468.218,0.707354,0.0,0.0
582,145.25,33.868,35.8347,173.217,110.907,102.571,-0.00179026,0.0494575,21.0515,-468.218,0.691161,0.0,0.0
584,145.75,33.8706,36.2557,165.793,110.923,102.326,-0.00181981,0.0490609,21.0523,-468.218,0.713518,0.0,0.0
586,146.25,34.1283,36.0303,166.835,110.908,102.814,-0.0018273,0.04869,21.0531,-468.218,0.670278,0.0,0.0
588,146.75,33.9818,35.5763,172.176,110.915,102.874,-0.00181855,0.0483448,21.0538,-468.228,0.665655,0.0,0.0
590,147.25,33.3991,35.4878,166.073,110.912,103.09,-0.00180007,0.0479439,21.0543,-468.218,0.646891,0.0,0.0
592,147.75,33.6436,35.826,163.146,110.911,103.296,-0.00177484,0.0476192,21.0548,-468.208,0.629102,0.0,0.0
594,148.25,33.5022,35.9434,166.061,110.905,103.41,-0.00175441,0.0473561,21.0551,-468.228,0.618901,0.0,0.0
596,148.75,33.7511,35.6089,167.637,110.909,102.748,-0.00172945,0.0470487,21.0554,-468.228,0.675993,0.0,0.0
598,149.25,33.8532,35.7377,166.874,110.902,102.446,-0.00170543,0.0467997,21.0561,-468.228,0.701524,0.0,0.0
600,149.75,33.5132,35.9512,170.784,110.904,102.441,-0.00168256,0.0465272,21.0567,-468.218,0.70209,0.0,0.0
602,150.25,33.5421,36.1641,167.16,110.89,102.51,-0.00166403,0.0462425,21.0571,-468.208,0.694984,0.0,0.0
604,150.75,33.3339,35.6261,166.945,110.895,102.656,-0.00164142,0.0459482,21.0575,-468.218,0.682819,0.0,0.0
606,151.25,33.727,35.0272,174.978,110.894,102.577,-0.00161628,0.0456523,21.0578,-468.218,0.68949,0.0,0.0
608,151.75,33.3202,35.7692,169.124,110.887,103.102,-0.00159592,0.0453347,21.0583,-468.228,0.643878,0.0,0.0
610,152.25,33.6631,35.6765,166.67,110.906,102.358,-0.00156672,0.0450073,21.0589,-468.228,0.709403,0.0,0.0
612,152.75,33.3466,35.2633,171.221,110.895,103.244,-0.00153163,0.0446925,21.0594,-468.218,0.632309,0.0,0.0
614,153.25,33.3886,35.588,167.308,110.889,102.758,-0.00150322,0.0443928,21.0597,-468.228,0.67356,0.0,0.0
616,153.75,33.8325,35.2135,169.516,110.883,103.348,-0.00146691,0.0441501,21.0599,-468.228,0.622449,0.0,0.0
618,154.25,33.3924,35.8923,168.189,110.892,102.746,-0.00142554,0.0439535,21.0601,-468.218,0.674844,0.0,0.0
620,154.75,33.5056,35.9079,167.289,110.874,102.902,-0.00139202,0.0436724,21.0602,-468.228,0.659959,0.0,0.0
622,155.25,33.3945,35.5671,164.711,110.883,103.098,-0.00136488,0.0434447,21.0606,-468.218,0.643869,0.0,0.0
624,155.75,33.9709,35.5745,165.723,110.875,103.695,-0.00135175,0.0431823,21.0611,-468.218,0.592134,0.0,0.0
626,156.25,33.7034,35.4927,168.938,110.888,102.708,-0.0013491,0.0428997,21.0615,-468.218,0.677759,0.0,0.0
628,156.75,33.5186,35.5413,165.562,110.874,102.92,-0.00135707,0.0426708,21.0618,-468.218,0.658386,0.0,0.0
630,157.25,33.5384,35.5254,164.901,110.884,102.639,-0.00137264,0.0423911,21.0623,-468.228,0.683404,0.0,0.0
632,157.75,33.3571,35.5174,164.245,110.865,103.015,-0.00139285,0.0421646,21.0629,-468.228,0.649547,0.0,0.0
634,158.25,33.6009,35.8042,168.868,110.871,103.313,-0.00141605,0.0419139,21.0634,-468.218,0.624439,0.0,0.0
636,158.75,33.9142,35.5972,165.271,110.858,102.788,,0.0417108,,-468.208,0.668518,0.0,0.0
638,159.25,33.8476,35.5666,169.547,110.859,103.084,,0.0414826,,-468.208,0.643116,0.0,0.0
640,159.75,34.014,35.2318,166.252,110.853,102.63,,0.0412405,,-468.218,0.681776,0.0,0.0
642,160.25,33.2816,35.9401,167.472,110.874,102.374,,0.0410018,,-468.218,0.70547,0.0,0.0
644,160.75,33.2335,35.4961,166.559,110.856,103.256,,0.0407703,,-468.218,0.628171,0.0,0.0
646,161.25,33.4931,35.1109,171.837,110.861,102.819,,0.0405828,,-468.238,0.666112,0.0,0.0
648,161.75,33.7942,35.1214,170.173,110.843,102.577,,,,-468.238,0.685509,0.0,0.0
650,162.25,33.1932,35.7804,172.95,110.842,102.485,,,,-468.238,0.693334,0.0,0.0
652,162.75,33.5931,35.1852,167.808,110.841,103.061,,,,-468.238,0.643697,0.0,0.0
654,163.25,33.7125,35.7048,172.582,110.837,102.602,,,,-468.228,0.682894,0.0,0.0
656,163.75,33.3606,35.6455,164.221,110.822,103.322,,,,-468.238,0.619828,0.0,0.0
658,164.25,33.3946,35.6421,167.888,110.826,102.837,,,,-468.218,0.661787,0.0,0.0
660,164.75,33.5568,35.5782,162.221,110.82,103.059,,,,-468.228,0.642229,0.0,0.0
662,165.25,33.0172,35.2623,158.59,110.834,102.501,,,,-468.218,0.691275,0.0,0.0
664,165.75,33.4945,35.4785,166.401,110.813,102.48,,,,-468.208,0.691502,0.0,0.0
666,166.25,33.4161,35.2687,161.267,110.826,102.389,,,,-468.198,0.700389,0.0,0.0
668,166.75,33.1435,35.5736,162.474,110.803,102.527,,,,-468.208,0.686531,0.0,0.0
670,167.25,33.2251,34.8594,168.526,110.815,103.188,,,,-468.208,0.630738,0.0,0.0
672,167.75,33.2609,34.9895,164.631,110.8,102.709,,,,-468.198,0.670696,0.0,0.0
674,168.25,33.2862,35.2887,170.32,110.811,102.881,,,,-468.228,0.656715,0.0,0.0
676,168.75,32.9234,35.6129,167.074,110.779,103.192,,,,-468.208,0.62746,0.0,0.0
678,169.25,33.3643,35.6401,172.95,110.805,102.57,,,,-468.218,0.683011,0.0,0.0
679,169.5,33.3464,35.443,168.05,110.792,102.843,,,,-468.228,0.658569,0.0,0.0