File: 01_Data/Rubber_Foam_Pipe_Insulation/Cone/Rubber_Foam_Pipe_Insulation_Cone_HF25Scan_220307_R3.csv
Names,Time,Stack TC,Smoke TC,Exh Press,Smoke Comp,Smoke Meas,CO Meter,CO2 Meter,O2 Meter,Sample Mass,Ext Coeff,Start Test,Flame Verif
Chan Gain,,500,500,1,1,1,1,1,1,1,1,1.0,1.0
Offset,,0,0,0.13378,0,0,0,0,0,0,0,0.0,0.0
Gain,,1,1,25.011,14.4955,14.6297,1,1,1,1.00092,1.00831,1.0,1.0
Units,sec,C,C,Pa,%,%,%,%,%,g,/m,,
Baseline,,20.1955,20.7404,177.287,110.356,104.027,-0.00203549,0.037163,21.0666,-945.822,0.52242,,
2,0.25,18.6061,19.5359,172.548,110.244,104.053,-0.00216881,0.0422428,21.0586,-463.834,0.511144,0.0,0.0
4,0.75,18.2113,18.8509,177.743,110.242,102.489,-0.00207167,0.0428658,21.0577,-463.884,0.644955,0.0,0.0
6,1.25,18.3947,19.3685,173.553,110.231,99.4638,-0.00195027,0.0434626,21.0567,-463.934,0.909148,0.0,0.0
8,1.75,18.6722,19.0687,173.616,110.242,97.6569,-0.00185193,0.044029,21.0557,-463.954,1.07211,0.0,0.0
10,2.25,18.3129,18.5636,179.329,110.227,95.7872,-0.00177228,0.0451626,21.0549,-463.944,1.2419,0.0,0.0
12,2.75,17.9767,19.4336,175.441,110.22,94.913,-0.00147206,0.0466881,21.0535,-463.944,1.32245,0.0,0.0
14,3.25,18.4811,19.0614,177.202,110.219,89.4398,-0.00122889,0.0479237,21.0518,-464.005,1.84772,0.0,0.0
16,3.75,18.5268,19.0479,172.143,110.211,93.6964,-0.000860913,0.054115,21.0452,-464.035,1.43585,0.0,0.0
18,4.25,18.6285,19.0341,165.748,110.197,98.6552,-0.00056285,0.05913,21.0352,-463.974,0.978607,0.0,0.0
20,4.75,18.5728,19.191,157.795,110.209,97.9306,-0.000203529,0.06792,21.0271,-464.115,1.04477,0.0,1.0
22,5.25,19.024,18.8356,161.69,110.203,97.6516,0.000193623,0.0792951,21.0084,-464.145,1.06951,0.0,1.0
24,5.75,18.7442,19.297,165.656,110.208,97.0261,0.000637795,0.0885089,20.9933,-464.245,1.12677,0.0,1.0
26,6.25,19.51,19.6178,160.244,110.2,94.3987,0.0011078,0.103737,20.9668,-464.245,1.36892,0.0,1.0
28,6.75,19.9392,18.9523,165.511,110.202,91.7761,0.00173623,0.116071,20.9406,-464.335,1.61826,0.0,1.0
30,7.25,19.2354,19.4981,165.238,110.201,89.8805,0.00224525,0.129279,20.9151,-464.405,1.80283,0.0,1.0
32,7.75,19.7071,20,161.49,110.2,84.3171,0.0028995,0.142872,20.8907,-464.445,2.36783,0.0,1.0
34,8.25,19.6398,20.617,158.958,110.196,84.3595,0.00342945,0.156374,20.8676,-464.505,2.3631,0.0,1.0
36,8.75,20.2199,20.8631,166.638,110.195,81.624,0.0038587,0.169554,20.8488,-464.555,2.65455,0.0,1.0
38,9.25,20.4099,20.5403,163.34,110.19,79.7645,0.00450103,0.182011,20.8283,-464.625,2.85803,0.0,1.0
40,9.75,20.3713,20.4471,157.374,110.181,76.5076,0.00502131,0.193704,20.8116,-464.655,3.22601,0.0,1.0
42,10.25,20.3956,20.5791,165.998,110.177,78.2791,0.00559405,0.204181,20.7967,-464.715,3.02326,0.0,1.0
44,10.75,20.79,20.6232,161.936,110.178,76.3009,0.00605797,0.213572,20.7834,-464.765,3.24973,0.0,0.0
46,11.25,21.5371,21.4719,162.45,110.166,78.3439,0.00647136,0.221896,20.7726,-464.835,3.01502,0.0,0.0
48,11.75,21.0924,21.7485,161.1,110.174,76.8295,0.00684007,0.229283,20.762,-464.875,3.18831,0.0,0.0
50,12.25,22.0506,21.4886,163.644,110.171,77.8675,0.00715393,0.235267,20.7535,-464.935,3.06936,0.0,0.0
52,12.75,22.0221,21.7131,161.94,110.172,78.8948,0.00742183,0.240766,20.7457,-464.965,2.9535,0.0,0.0
54,13.25,21.8501,22.3391,165.922,110.172,77.6219,0.00763883,0.245221,20.7394,-465.045,3.09737,0.0,0.0
56,13.75,22.61,22.2028,161.99,110.179,78.4068,0.00781083,0.248934,20.734,-465.086,3.00895,0.0,0.0
58,14.25,22.6161,22.6131,159.727,110.169,79.0216,0.00795016,0.252034,20.7295,-465.146,2.93909,0.0,0.0
60,14.75,22.8968,23.0875,162.807,110.171,79.3493,0.00804166,0.254546,20.7258,-465.176,2.90263,0.0,0.0
62,15.25,22.549,23.4007,161.284,110.172,81.0499,0.00811578,0.256595,20.7228,-465.226,2.71514,0.0,0.0
64,15.75,23.4266,23.4084,167.232,110.163,79.4292,0.00817582,0.258255,20.7204,-465.286,2.89312,0.0,0.0
66,16.25,23.3722,24.0859,160.669,110.16,82.6313,0.00819056,0.259828,20.7182,-465.326,2.54327,0.0,0.0
68,16.75,24.1037,23.9132,164.1,110.166,79.5399,0.00820251,0.261102,20.7162,-465.376,2.88105,0.0,0.0
70,17.25,24.1741,24.2421,165.513,110.154,80.1186,0.00819087,0.2625,20.7143,-465.416,2.81591,0.0,0.0
72,17.75,23.9665,24.4532,161.828,110.166,81.391,0.00818144,0.263632,20.7126,-465.476,2.67753,0.0,0.0
74,18.25,24.0906,24.278,161.945,110.15,82.0366,0.00815,0.264549,20.7112,-465.546,2.60641,0.0,0.0
76,18.75,24.9358,24.4796,163.377,110.144,80.5266,0.00812452,0.266162,20.7097,-465.576,2.77023,0.0,0.0
78,19.25,24.1756,25.3115,159.957,110.133,80.8883,0.00810389,0.267469,20.7079,-465.626,2.72967,0.0,0.0
80,19.75,25.0774,25.2616,167.47,110.135,82.0549,0.0080516,0.269569,20.7063,-465.716,2.60316,0.0,0.0
82,20.25,24.825,25.7853,164.261,110.134,81.3289,0.00797724,0.27127,20.7048,-465.756,2.68172,0.0,0.0
84,20.75,25.4847,25.9602,161.034,110.131,85.9244,0.00787426,0.273093,20.7036,-465.816,2.19528,0.0,0.0
86,21.25,25.1276,26.0995,162.649,110.121,86.1181,0.00775238,0.274969,20.7022,-465.866,2.17457,0.0,0.0
88,21.75,25.5425,26.4116,160.224,110.112,85.8221,0.00765366,0.27649,20.701,-465.926,2.20428,0.0,0.0
90,22.25,25.5937,25.5711,164.247,110.108,86.7744,0.00747767,0.278257,20.6999,-465.946,2.10639,0.0,0.0
92,22.75,26.0536,26.0054,162.909,110.109,88.3161,0.00733512,0.28017,20.6989,-465.996,1.95074,0.0,0.0
94,23.25,26.3427,26.7756,164.756,110.107,87.7022,0.00721965,0.281973,20.6981,-466.066,2.01226,0.0,0.0
96,23.75,26.0692,27.4836,160.252,110.108,87.0008,0.00701673,0.283659,20.6974,-466.106,2.08335,0.0,0.0
98,24.25,26.718,27.1296,160.648,110.1,85.8748,0.00685237,0.285026,20.6969,-466.177,2.19793,0.0,0.0
100,24.75,26.6407,28.0558,157.008,110.112,86.2851,0.00666342,0.28615,20.6964,-466.227,2.15673,0.0,0.0
102,25.25,26.6526,27.8129,157.907,110.114,85.0225,0.00651037,0.28706,20.6961,-466.287,2.28725,0.0,0.0
104,25.75,26.8084,28.0318,161.228,110.106,82.8915,0.00636162,0.287172,20.6963,-466.337,2.51112,0.0,0.0
106,26.25,26.6974,27.9763,161.699,110.115,82.6737,0.00624113,0.286699,20.6968,-466.347,2.53511,0.0,0.0
108,26.75,27.1905,27.546,161.785,110.101,86.2672,0.0061584,0.286316,20.6982,-466.417,2.15767,0.0,0.0
110,27.25,27.4878,28.301,163.753,110.109,84.5122,0.00609139,0.284683,20.7002,-466.467,2.34015,0.0,0.0
112,27.75,27.7359,28.7928,165.365,110.102,83.4612,0.00606687,0.283361,20.7023,-466.507,2.45022,0.0,0.0
114,28.25,27.8039,29.4641,165.393,110.102,85.014,0.006047,0.281784,20.7044,-466.567,2.28721,0.0,0.0
116,28.75,28.2455,29.4239,164.977,110.107,85.1471,0.00606068,0.280507,20.7061,-466.597,2.27377,0.0,0.0
118,29.25,28.0413,29.1399,164.364,110.106,84.2175,0.00607176,0.279334,20.7075,-466.647,2.37075,0.0,0.0
120,29.75,28.5573,29.12,161.806,110.094,85.0506,0.00609969,0.278385,20.7086,-466.697,2.28276,0.0,0.0
122,30.25,27.9567,29.0144,158.255,110.097,82.6255,0.00613937,0.277478,20.7095,-466.747,2.53885,0.0,0.0
124,30.75,28.3695,29.2585,157.645,110.1,82.3303,0.00618393,0.276743,20.7103,-466.777,2.57071,0.0,0.0
126,31.25,28.8151,29.4755,160.327,110.089,80.3262,0.00623121,0.275919,20.7111,-466.807,2.78779,0.0,0.0
128,31.75,28.9606,29.7081,166.387,110.088,82.542,0.00626951,0.275251,20.712,-466.887,2.54704,0.0,0.0
130,32.25,29.0783,30.1594,163.221,110.098,81.8115,0.00632421,0.274533,20.7127,-466.907,2.62648,0.0,0.0
132,32.75,29.2043,30.0823,167.324,110.093,79.4676,0.00636852,0.273793,20.7131,-466.937,2.88323,0.0,0.0
134,33.25,29.0802,30.3986,168.922,110.09,77.7166,0.00640376,0.273193,20.7135,-466.957,3.08005,0.0,0.0
136,33.75,29.4845,30.6298,163.071,110.072,81.4816,0.00643171,0.272188,20.7142,-467.017,2.66016,0.0,0.0
138,34.25,29.8925,30.7296,159.882,110.087,82.7085,0.00643996,0.271375,20.7148,-467.047,2.52915,0.0,0.0
140,34.75,29.6186,30.5189,163.969,110.07,78.4528,0.00643368,0.269725,20.7166,-467.077,2.99502,0.0,0.0
142,35.25,29.5564,30.8697,167.706,110.084,84.1349,0.00640963,0.268389,20.7181,-467.087,2.37769,0.0,0.0
144,35.75,30.0012,30.9492,168.731,110.071,84.8716,0.00637309,0.26678,20.7201,-467.127,2.29952,0.0,0.0
146,36.25,30.0249,31.0675,163.125,110.078,78.8859,0.00634349,0.265003,20.7218,-467.147,2.94697,0.0,0.0
148,36.75,30.2146,31.3592,156.356,110.083,81.7151,0.00628622,0.263118,20.7239,-467.187,2.6357,0.0,0.0
150,37.25,30.0341,31.5181,164.079,110.074,83.6916,0.00620985,0.261191,20.7262,-467.207,2.42357,0.0,0.0
152,37.75,30.2787,31.6754,165.004,110.071,83.822,0.00609969,0.25917,20.7293,-467.237,2.40959,0.0,0.0
154,38.25,30.1738,31.7401,163.744,110.078,85.5739,0.00601045,0.257119,20.7328,-467.278,2.22724,0.0,0.0
156,38.75,30.4765,31.3114,162.282,110.072,84.1997,0.00591928,0.255457,20.7357,-467.308,2.36989,0.0,0.0
158,39.25,30.3463,31.941,167.482,110.079,85.2832,0.00582844,0.253076,20.7389,-467.328,2.25736,0.0,0.0
160,39.75,30.4303,31.7726,160.668,110.069,82.9987,0.00573729,0.251146,20.7415,-467.368,2.49671,0.0,0.0
162,40.25,30.6167,31.7097,164.866,110.075,83.9519,0.00564765,0.248946,20.7458,-467.378,2.39621,0.0,0.0
164,40.75,30.6715,31.5978,165.411,110.062,86.8186,0.00555553,0.24659,20.7494,-467.418,2.09819,0.0,0.0
166,41.25,30.9784,32.0966,165.016,110.069,87.6415,0.00546337,0.244203,20.7522,-467.428,2.01529,0.0,0.0
168,41.75,31.0176,32.2857,167.219,110.06,87.5004,0.00538871,0.241839,20.7563,-467.468,2.02883,0.0,0.0
170,42.25,30.9881,32.3388,170.395,110.062,85.6047,0.00532825,0.239338,20.7596,-467.488,2.22274,0.0,0.0
172,42.75,31.3769,32.6732,158.006,110.062,84.9721,0.00516222,0.236784,20.7623,-467.488,2.28835,0.0,0.0
174,43.25,31.1887,32.4432,173.471,110.057,89.0608,0.00510243,0.234031,20.7667,-467.538,1.87228,0.0,0.0
176,43.75,31.5344,32.6446,167.465,110.044,90.072,0.00500018,0.231184,20.7703,-467.548,1.77135,0.0,0.0
178,44.25,31.485,32.7181,165.531,110.053,88.8273,0.00486236,0.228878,20.7732,-467.558,1.89518,0.0,0.0
180,44.75,31.1098,33.0511,164.09,110.039,87.9098,0.00470121,0.22701,20.7778,-467.618,1.98587,0.0,0.0
182,45.25,31.353,32.94,159.961,110.053,91.9364,0.00454291,0.223746,20.7815,-467.628,1.59088,0.0,0.0
184,45.75,31.1523,32.8265,166.511,110.043,92.1217,0.0043897,0.221102,20.7867,-467.638,1.57226,0.0,0.0
186,46.25,31.533,32.6566,166.029,110.039,91.7306,0.00426559,0.218961,20.791,-467.658,1.60953,0.0,0.0
188,46.75,31.353,32.8381,167.129,110.028,92.0757,0.00410871,0.215934,20.7994,-467.658,1.5755,0.0,0.0
190,47.25,31.3395,33.4528,169.761,110.028,95.6197,0.00395137,0.212319,20.8061,-467.668,1.24142,0.0,0.0
192,47.75,31.3728,33.1024,162.828,110.024,93.6508,0.00379669,0.208391,20.8152,-467.708,1.42516,0.0,0.0
194,48.25,31.3073,33.1989,169.286,110.02,94.0567,0.00364118,0.204309,20.8225,-467.738,1.38659,0.0,0.0
196,48.75,31.4392,33.1638,173.829,110.011,95.6135,0.00348803,0.201002,20.8312,-467.738,1.24061,0.0,0.0
198,49.25,31.3747,33.1748,175.102,110.013,96.9055,0.00334087,0.19675,20.8382,-467.758,1.1221,0.0,0.0
200,49.75,31.865,33.3301,173.648,110.013,96.11,0.00320086,0.193307,20.8461,-467.788,1.19501,0.0,0.0
202,50.25,31.3621,33.0315,168.898,110.012,96.0283,0.00308746,0.189096,20.8525,-467.778,1.20246,0.0,0.0
204,50.75,31.7104,33.1652,168.563,110.005,95.776,0.00297572,0.185685,20.8576,-467.788,1.22509,0.0,0.0
206,51.25,31.7728,32.9021,168.268,109.998,96.7497,0.00286732,0.181349,20.8641,-467.808,1.13509,0.0,0.0
208,51.75,31.8172,33.4562,169.692,109.997,97.5578,0.00277311,0.177838,20.8693,-467.818,1.06148,0.0,0.0
210,52.25,31.3454,33.1648,171.876,109.993,98.8646,0.00269104,0.173414,20.8752,-467.818,0.943435,0.0,0.0
212,52.75,31.6552,32.8192,168.199,109.986,98.8445,0.00262455,0.169831,20.8814,-467.828,0.944664,0.0,0.0
214,53.25,31.3221,33.239,171.118,109.991,99.0441,0.00257185,0.165442,20.8874,-467.838,0.927251,0.0,0.0
216,53.75,31.2784,32.8478,172.044,109.993,97.6936,0.00252916,0.161886,20.8931,-467.868,1.04883,0.0,0.0
218,54.25,31.1395,33.1962,174.148,109.978,98.5485,0.00249842,0.158272,20.8977,-467.878,0.970515,0.0,0.0
220,54.75,30.8942,33.2629,170.998,109.982,98.1436,0.00247699,0.154682,20.9048,-467.878,1.00725,0.0,0.0
222,55.25,31.0167,32.8593,174.401,109.978,100.092,0.00246091,0.151775,20.9105,-467.888,0.833101,0.0,0.0
224,55.75,31.0519,33.6557,172.626,109.973,99.5991,0.00244904,0.148198,20.9173,-467.918,0.876372,0.0,0.0
226,56.25,30.6693,32.7664,169.417,109.972,100.033,0.00244198,0.145301,20.9229,-467.918,0.837808,0.0,0.0
228,56.75,30.3428,33.2612,170.869,109.975,100.03,0.00243858,0.142306,20.9287,-467.928,0.838373,0.0,0.0
230,57.25,31.2672,32.5424,173.074,109.977,100.88,0.00243582,0.139297,20.9334,-467.948,0.763668,0.0,0.0
232,57.75,29.9974,33.0908,171.272,109.98,100.507,0.00243359,0.136573,20.9382,-467.948,0.796703,0.0,0.0
234,58.25,31.1038,32.4948,170.619,109.975,101.245,0.00243178,0.134109,20.9429,-467.938,0.731564,0.0,0.0
236,58.75,29.9755,32.7554,174.174,109.973,101.66,0.0024207,0.131841,20.9468,-467.958,0.695188,0.0,0.0
238,59.25,30.5518,32.7607,171.774,109.973,101.244,0.00240308,0.12976,20.9507,-467.958,0.731503,0.0,0.0
240,59.75,30.9117,32.5162,161.29,109.982,102.093,0.00236383,0.128074,20.954,-467.958,0.658374,0.0,0.0
242,60.25,30.8829,32.0446,176.127,109.956,102.256,0.00230956,0.125832,20.9579,-467.978,0.642094,0.0,0.0
244,60.75,30.2215,32.5691,172.03,109.959,102.196,0.00223684,0.124016,20.9611,-467.978,0.647562,0.0,0.0
246,61.25,29.9817,32.1762,169.288,109.962,102.156,0.00215204,0.12196,20.9655,-467.988,0.65136,0.0,0.0
248,61.75,30.2456,31.6357,173.969,109.952,102.435,0.00205717,0.119769,20.9691,-467.998,0.626338,0.0,0.0
250,62.25,29.7834,32.2355,177.174,109.948,101.827,0.00195676,0.117622,20.9728,-468.018,0.67868,0.0,0.0
252,62.75,30.2525,32.0904,173.906,109.945,101.474,0.00186268,0.115549,20.9759,-468.018,0.709161,0.0,0.0
254,63.25,29.6633,31.2657,171.248,109.943,100.677,0.00177499,0.113564,20.9791,-468.018,0.778718,0.0,0.0
256,63.75,30.0569,30.9656,168.636,109.951,100.983,0.00170397,0.111681,20.9823,-468.028,0.752567,0.0,0.0
258,64.25,29.9382,31.4411,177.552,109.943,102.018,0.00164643,0.109909,20.9849,-468.038,0.661712,0.0,0.0
260,64.75,29.6418,30.9426,180.547,109.947,102.318,0.00159741,0.108251,20.987,-468.048,0.636017,0.0,0.0
262,65.25,28.4187,30.6408,174.812,109.941,101.916,0.0015577,0.106719,20.989,-468.048,0.670399,0.0,0.0
264,65.75,28.9234,30.7601,174.35,109.951,102.603,0.00152554,0.105309,20.9907,-468.058,0.611822,0.0,0.0
266,66.25,28.8211,31.3645,170.34,109.95,101.889,0.00152372,0.104167,20.992,-468.058,0.673471,0.0,0.0
268,66.75,29.3177,30.7438,179.045,109.94,102.351,0.00152225,0.103067,20.9929,-468.068,0.632628,0.0,0.0
270,67.25,28.5266,30.4355,173.754,109.936,101.859,0.00153439,0.10202,20.9936,-468.078,0.675004,0.0,0.0
272,67.75,28.79,30.7434,174.865,109.95,102.615,0.00154423,0.101172,20.9941,-468.088,0.610677,0.0,0.0
274,68.25,28.546,30.9026,174.225,109.933,102.539,0.00155947,0.100485,20.9948,-468.088,0.615869,0.0,0.0
276,68.75,28.4478,30.8361,170.54,109.938,102.948,0.00156597,0.0996526,20.9952,-468.098,0.581055,0.0,0.0
278,69.25,28.8085,30.0771,172.156,109.923,103.356,0.00157836,0.0989788,20.9959,-468.108,0.544892,0.0,0.0
280,69.75,28.7747,30.1231,172.509,109.945,102.645,0.00158955,0.0982816,20.9974,-468.108,0.607671,0.0,0.0
282,70.25,28.5568,30.6701,169.193,109.936,103.055,0.00160116,0.0977168,20.9977,-468.118,0.571713,0.0,0.0
284,70.75,28.7824,30.0857,171.084,109.923,102.289,0.00161286,0.0971218,20.9984,-468.128,0.636604,0.0,0.0
286,71.25,28.6536,30.4184,177.06,109.933,103.234,0.00162235,0.0966399,20.9989,-468.128,0.556148,0.0,0.0
288,71.75,28.084,30.3966,167.409,109.921,102.954,0.00162492,0.0963982,20.9994,-468.128,0.579168,0.0,0.0
290,72.25,28.6901,30.1889,170.109,109.906,103.26,0.00162241,0.095985,21.0002,-468.138,0.551722,0.0,0.0
292,72.75,28.4973,29.7514,177.504,109.927,103.34,0.00160378,0.0956502,21.0008,-468.148,0.546514,0.0,0.0
294,73.25,27.5172,29.6535,172.028,109.905,103.268,0.00157377,0.0951866,21.0013,-468.158,0.550889,0.0,0.0
296,73.75,27.9496,29.6492,170.543,109.919,103.301,0.00154945,0.0948111,21.0018,-468.148,0.549237,0.0,0.0
298,74.25,27.9143,29.763,174.098,109.904,103.627,0.00148616,0.094287,21.0023,-468.158,0.520089,0.0,0.0
300,74.75,27.2752,29.7009,177.317,109.909,103.669,0.0014349,0.0938625,21.003,-468.168,0.516937,0.0,0.0
302,75.25,27.9277,29.5524,179.206,109.908,102.828,0.00137039,0.0934247,21.0036,-468.168,0.588958,0.0,0.0
304,75.75,27.4869,29.9253,173.288,109.891,103.023,0.00131813,0.0929855,21.004,-468.178,0.570839,0.0,0.0
306,76.25,27.3497,29.3347,174.444,109.901,102.907,0.00125767,0.0926298,21.0046,-468.188,0.581555,0.0,0.0
308,76.75,28.0958,29.7578,175.361,109.904,103.377,0.00120869,0.0921631,21.0053,-468.188,0.541492,0.0,0.0
310,77.25,27.455,29.4096,171.047,109.886,102.422,0.00115331,0.0917851,21.0059,-468.188,0.622158,0.0,0.0
312,77.75,27.5777,29.4225,177.509,109.893,102.856,0.00110845,0.0913562,21.0063,-468.208,0.585255,0.0,0.0
314,78.25,27.1092,29.1711,180.387,109.897,103.059,0.00107211,0.0908982,21.0067,-468.198,0.568197,0.0,0.0
316,78.75,27.852,29.1385,165.485,109.893,102.991,0.00102455,0.0904695,21.007,-468.208,0.573739,0.0,0.0
318,79.25,27.5457,29.1498,175.211,109.895,103.137,0.000986035,0.0900703,21.0073,-468.218,0.561316,0.0,0.0
320,79.75,27.1881,29.5538,174.796,109.901,103.285,0.000943967,0.0897252,21.0075,-468.218,0.549189,0.0,0.0
322,80.25,27.3798,29.112,178.235,109.89,102.796,0.000909891,0.0894263,21.0076,-468.228,0.590264,0.0,0.0
324,80.75,27.5206,29.1459,173.788,109.914,103.145,0.000870218,0.0891841,21.008,-468.248,0.562159,0.0,0.0
326,81.25,27.3871,29.3346,176.831,109.896,103.132,0.000838082,0.0888234,21.0085,-468.248,0.561844,0.0,0.0
328,81.75,27.4273,28.8904,174.57,109.9,102.78,0.000810147,0.0885313,21.0089,-468.238,0.592465,0.0,0.0
330,82.25,26.8432,28.9041,174.392,109.9,102.931,0.000785804,0.088172,21.0092,-468.248,0.579413,0.0,0.0
332,82.75,27.3675,28.7222,171.936,109.899,103.163,0.000766722,0.0877707,21.0095,-468.258,0.559417,0.0,0.0
334,83.25,27.1152,28.6674,173.712,109.908,102.979,0.000751837,0.0873807,21.0097,-468.258,0.575949,0.0,0.0
336,83.75,26.658,28.6321,170.879,109.895,103.52,0.000740416,0.0870064,21.0099,-468.268,0.5286,0.0,0.0
338,84.25,26.7037,28.9141,171.762,109.893,103.121,0.000731735,0.0866744,21.0105,-468.258,0.562553,0.0,0.0
340,84.75,26.5214,28.5964,174.222,109.913,102.581,0.000724704,0.0863795,21.011,-468.268,0.610576,0.0,0.0
342,85.25,26.4764,28.8527,171.801,109.887,102.963,0.000719009,0.0861046,21.0113,-468.278,0.575695,0.0,0.0
344,85.75,26.6703,28.476,174.372,109.891,102.744,0.000713266,0.0858495,21.0117,-468.288,0.594793,0.0,0.0
346,86.25,26.798,28.5239,172.637,109.889,102.94,0.000708613,0.0856141,21.0119,-468.278,0.577719,0.0,0.0
348,86.75,26.3889,28.5442,174.165,109.9,102.947,0.000701224,0.0853974,21.012,-468.298,0.57807,0.0,0.0
350,87.25,26.4673,27.9932,179.51,109.879,102.956,0.000695239,0.0852219,21.0121,-468.298,0.575591,0.0,0.0
352,87.75,26.6461,28.3163,176.918,109.891,103.526,0.000675913,0.0850217,21.0121,-468.308,0.527749,0.0,0.0
354,88.25,26.6584,28.6357,170.564,109.88,103.599,0.000660259,0.0848071,21.0121,-468.308,0.520567,0.0,0.0
356,88.75,26.2781,28.5211,173.593,109.881,102.912,0.000647579,0.0846334,21.0121,-468.308,0.579531,0.0,0.0
358,89.25,26.1662,27.9831,177.799,109.884,103.265,0.000625883,0.0844379,21.0121,-468.308,0.549445,0.0,0.0
360,89.75,26.0174,28.4097,179.339,109.894,102.562,0.000598028,0.0842796,21.012,-468.318,0.610771,0.0,0.0
362,90.25,26.0796,27.8968,174.089,109.902,102.785,0.000571848,0.0841225,21.0119,-468.328,0.59222,0.0,0.0
364,90.75,26.1217,27.9584,173.483,109.906,102.657,0.000550643,0.0839694,21.0119,-468.328,0.603537,0.0,0.0
366,91.25,25.9639,27.4902,168.985,109.891,102.999,0.0005407,0.0838453,21.0121,-468.328,0.572874,0.0,0.0
368,91.75,25.4185,27.2991,171.8,109.906,103.14,0.000532646,0.0836872,21.0125,-468.339,0.561977,0.0,0.0
370,92.25,26.0539,27.9553,173.792,109.893,103.263,0.000526123,0.0835073,21.0128,-468.349,0.550387,0.0,0.0
372,92.75,26.196,27.8142,177.015,109.894,103.599,0.000529279,0.0832824,21.013,-468.349,0.521745,0.0,0.0
374,93.25,26.0136,27.5779,175.734,109.892,102.586,0.000531836,0.083029,21.0132,-468.349,0.60848,0.0,0.0
376,93.75,25.9858,27.7716,175.17,109.89,103.415,0.000525466,0.0827733,21.0133,-468.359,0.537178,0.0,0.0
378,94.25,26.0703,27.9511,181.048,109.897,103.164,0.000520307,0.0825209,21.0135,-468.359,0.559162,0.0,0.0
380,94.75,25.838,27.648,172.844,109.894,102.586,0.000504668,0.0822445,21.0136,-468.359,0.608658,0.0,0.0
382,95.25,25.6917,27.4449,173.88,109.898,102.962,0.000481687,0.0819558,21.0137,-468.359,0.576662,0.0,0.0
384,95.75,25.2835,27.3566,174.144,109.897,102.919,0.000453562,0.081722,21.0137,-468.359,0.580163,0.0,0.0
386,96.25,25.2688,27.4367,174.183,109.903,102.979,0.000422221,0.0814097,21.014,-468.369,0.575522,0.0,0.0
388,96.75,25.9058,27.3828,178.881,109.886,102.595,0.00038923,0.0811566,21.0141,-468.369,0.607244,0.0,0.0
390,97.25,25.7193,27.1393,172.514,109.899,102.812,0.000355662,0.0808697,21.0143,-468.369,0.589629,0.0,0.0
392,97.75,25.8079,26.7049,175.981,109.886,103.252,0.000324671,0.0806373,21.0144,-468.369,0.55077,0.0,0.0
394,98.25,24.9117,27.4494,178.615,109.883,103.08,0.000296147,0.0803704,21.0145,-468.379,0.565332,0.0,0.0
396,98.75,25.9647,27.3242,170.901,109.879,103.023,0.000273043,0.0800835,21.0146,-468.399,0.569804,0.0,0.0
398,99.25,25.514,27.1801,170.35,109.877,103.146,0.000257496,0.0798511,21.0146,-468.409,0.559126,0.0,0.0
400,99.75,25.9958,27.4822,173.906,109.872,103.18,0.000247753,0.07954,21.0151,-468.409,0.55579,0.0,0.0
402,100.25,25.0133,27.1305,175.065,109.872,103.201,0.00024303,0.0792879,21.0155,-468.409,0.554029,0.0,0.0
404,100.75,25.4843,27.1593,168.706,109.868,102.914,0.000242056,0.0790702,21.0159,-468.399,0.578384,0.0,0.0
406,101.25,25.2072,26.6113,176.784,109.878,103.147,0.000237466,0.0788937,21.0161,-468.409,0.55916,0.0,0.0
408,101.75,24.8188,27.0855,172.551,109.88,102.883,0.000230326,0.0787221,21.0163,-468.409,0.581919,0.0,0.0
410,102.25,25.2622,26.7568,174.805,109.9,103.054,0.000224542,0.0785572,21.0165,-468.419,0.568871,0.0,0.0
412,102.75,25.0817,26.7784,174.277,109.87,103.031,0.000204211,0.0784237,21.0171,-468.419,0.568437,0.0,0.0
414,103.25,25.6542,27.4002,172.392,109.879,103.587,0.000187743,0.078138,21.0176,-468.419,0.521561,0.0,0.0
416,103.75,24.5789,26.7754,178.648,109.867,102.706,0.000157562,0.0779067,21.018,-468.419,0.596134,0.0,0.0
418,104.25,25.315,26.8878,171.868,109.882,102.448,0.000133115,0.0775147,21.0183,-468.419,0.61956,0.0,0.0
420,104.75,24.7877,26.4924,175.612,109.87,103.268,9.52747e-05,0.0771972,21.0185,-468.429,0.548115,0.0,0.0
422,105.25,25.3373,26.7353,179.698,109.869,104.028,6.46241e-05,0.0767627,21.0187,-468.439,0.483161,0.0,0.0
424,105.75,25.0712,27.0695,180.459,109.872,103.098,3.97972e-05,0.0764108,21.0189,-468.439,0.562909,0.0,0.0
426,106.25,25.2025,26.3807,172.766,109.879,103.206,-1.51861e-05,0.0761121,21.019,-468.449,0.55414,0.0,0.0
428,106.75,24.3164,26.6959,174.664,109.868,102.813,-5.97226e-05,0.0758701,21.0191,-468.449,0.587024,0.0,0.0
430,107.25,24.7609,26.5199,172.756,109.873,102.924,-0.000106557,0.0756605,21.0192,-468.439,0.577819,0.0,0.0
432,107.75,24.589,26.4885,179.794,109.865,102.96,-0.000154176,0.0754908,21.0193,-468.459,0.574148,0.0,0.0
434,108.25,24.9465,26.3691,175.789,109.877,103.328,-0.000203508,0.0753532,21.0194,-468.449,0.543523,0.0,0.0
436,108.75,24.9346,26.4749,179.695,109.884,102.865,-0.000253149,0.0751055,21.0198,-468.459,0.583811,0.0,0.0
438,109.25,24.514,26.0971,171.506,109.872,102.823,-0.000303486,0.0749049,21.0203,-468.459,0.586461,0.0,0.0
440,109.75,24.6479,26.4088,169.339,109.881,102.959,-0.000353373,0.074685,21.0206,-468.459,0.575503,0.0,0.0
442,110.25,24.7654,25.8308,175.771,109.873,102.645,-0.000393781,0.0744553,21.0208,-468.459,0.601905,0.0,0.0
444,110.75,24.9556,26.6256,174.557,109.865,103.146,-0.00043493,0.0742692,21.0211,-468.459,0.558165,0.0,0.0
446,111.25,24.7461,26.2385,176.835,109.875,102.742,-0.00046826,0.0739822,21.0212,-468.459,0.593738,0.0,0.0
448,111.75,24.7171,26.1762,174.386,109.847,102.919,-0.000495258,0.0737354,21.0214,-468.469,0.576288,0.0,0.0
450,112.25,24.319,26.2733,173.125,109.857,103.285,-0.000518328,0.0735226,21.0214,-468.479,0.54559,0.0,0.0
452,112.75,24.6931,26.5503,174.644,109.842,102.868,-0.000537015,0.0733503,21.0212,-468.479,0.580123,0.0,0.0
454,113.25,24.454,26.3659,179.234,109.847,102.985,-0.000552152,0.0731426,21.0211,-468.479,0.570498,0.0,0.0
456,113.75,24.25,26.1547,174.211,109.851,103.31,-0.000580045,0.0729743,21.0211,-468.479,0.542951,0.0,0.0
458,114.25,24.8376,25.7476,175.067,109.85,102.755,-0.000602639,0.0728381,21.021,-468.479,0.590593,0.0,0.0
460,114.75,24.5008,25.9045,175.021,109.838,103.28,-0.000634168,0.0726324,21.0212,-468.489,0.544479,0.0,0.0
462,115.25,24.7066,25.9412,177.972,109.853,102.84,-0.000659706,0.0724657,21.0215,-468.489,0.58347,0.0,0.0
464,115.75,24.6863,26.2859,174.98,109.835,102.8,-0.000676552,0.0723021,21.0218,-468.489,0.585503,0.0,0.0
466,116.25,24.186,26.2977,176.227,109.831,102.685,-0.000686741,0.0721438,21.0221,-468.489,0.595097,0.0,0.0
468,116.75,24.4103,25.8126,178.549,109.831,102.43,-0.000694994,0.0720156,21.0223,-468.499,0.617083,0.0,0.0
470,117.25,24.7944,26.3213,177.269,109.829,103.206,-0.000670414,0.071883,21.0227,-468.499,0.550113,0.0,0.0
472,117.75,24.1347,25.3426,178.57,109.824,102.499,-0.000650504,0.0717499,21.0231,-468.499,0.610502,0.0,0.0
474,118.25,24.8339,26.1966,175.225,109.82,103.026,-0.000611529,0.0716062,21.0233,-468.499,0.564911,0.0,0.0
476,118.75,24.4519,25.9644,176.17,109.82,103.386,-0.000594913,0.0714576,21.0235,-468.499,0.533997,0.0,0.0
478,119.25,23.9031,25.2543,175.569,109.807,103.784,-0.000562071,0.0712795,21.0237,-468.509,0.498997,0.0,0.0
480,119.75,24.0622,24.9877,175.496,109.813,102.896,-0.000531481,0.0710833,21.0238,-468.519,0.575466,0.0,0.0
482,120.25,24.3619,25.9681,175.921,109.812,102.605,-0.000506703,0.0709243,21.024,-468.519,0.600378,0.0,0.0
484,120.75,23.7011,25.5103,178.384,109.803,102.881,-0.000498658,0.070782,21.0241,-468.519,0.575875,0.0,0.0
486,121.25,24.1084,26.0318,171.917,109.807,103.012,-0.000492141,0.0706667,21.0242,-468.519,0.565029,0.0,0.0
488,121.75,24.0931,25.8322,176.855,109.786,102.848,-0.00050009,0.0706175,21.0243,-468.519,0.577435,0.0,0.0
490,122.25,23.9493,25.7444,176.106,109.795,102.709,-0.000506529,0.0705335,21.0243,-468.529,0.5901,0.0,0.0
492,122.75,23.5895,25.4245,169.692,109.79,102.674,-0.000521364,0.0704654,21.0244,-468.529,0.592707,0.0,0.0
494,123.25,23.4479,25.6191,176.26,109.802,103.275,-0.000533381,0.0703694,21.0244,-468.539,0.542013,0.0,0.0
496,123.75,23.8021,24.8169,173.605,109.791,103.197,-0.000549127,0.0702917,21.0244,-468.529,0.547891,0.0,0.0
498,124.25,24.044,25.6731,174.169,109.786,102.931,-0.000561882,0.0702015,21.0245,-468.529,0.570225,0.0,0.0
500,124.75,23.7013,25.7837,174.689,109.787,103.265,-0.000579428,0.0701285,21.0245,-468.539,0.541756,0.0,0.0
502,125.25,23.9272,25.4615,179.231,109.78,102.88,-0.00059364,0.0700285,21.0245,-468.539,0.574174,0.0,0.0
504,125.75,23.9632,25.6407,170.843,109.777,102.671,-0.00060876,0.0699475,21.0245,-468.539,0.591868,0.0,0.0
506,126.25,24.6616,25.2821,172.178,109.771,103.514,-0.000621006,0.0697867,21.025,-468.539,0.519051,0.0,0.0
508,126.75,23.7067,25.481,172.432,109.765,102.13,-0.000630926,0.0696565,21.0253,-468.539,0.637719,0.0,0.0
510,127.25,23.3418,24.899,174.625,109.762,102.506,-0.00063303,0.0694286,21.0256,-468.529,0.604899,0.0,0.0
512,127.75,23.0801,24.716,168.305,109.755,102.686,-0.000634734,0.069244,21.0259,-468.539,0.588817,0.0,0.0
514,128.25,23.9894,25.2657,173.788,109.752,103.016,-0.000629152,0.0690129,21.0262,-468.539,0.560266,0.0,0.0
516,128.75,24.1512,25.7485,165.77,109.727,102.885,-0.000618365,0.0688258,21.0265,-468.539,0.569397,0.0,0.0
518,129.25,23.9441,24.9153,167.593,109.745,103.094,-0.000607095,0.0686742,21.0267,-468.539,0.552951,0.0,0.0
520,129.75,23.526,25.1663,171.203,109.732,102.71,-0.000595689,0.0684299,21.0269,-468.549,0.584958,0.0,0.0
522,130.25,23.7619,24.8927,174.145,109.728,103.108,-0.000586449,0.068232,21.0271,-468.549,0.550408,0.0,0.0
524,130.75,23.4926,25.1008,178.258,109.723,102.794,-0.000584978,0.0680216,21.0272,-468.549,0.57691,0.0,0.0
526,131.25,23.6869,25.6981,174.863,109.724,102.311,-0.000583787,0.0678062,21.0273,-468.559,0.61868,0.0,0.0
528,131.75,23.7558,25.4245,180.84,109.72,103.002,-0.000593644,0.0675959,21.0279,-468.559,0.558854,0.0,0.0
530,132.25,23.7066,25.3693,174.671,109.72,102.731,-0.00061049,0.0673934,21.0283,-468.559,0.582114,0.0,0.0
532,132.75,24.0151,25.368,173.97,109.72,103.055,-0.000632109,0.0672294,21.0286,-468.559,0.554329,0.0,0.0
534,133.25,23.3333,25.5579,177.558,109.712,102.338,-0.000649621,0.0670287,21.0289,-468.569,0.615405,0.0,0.0
536,133.75,23.858,25.1523,170.196,109.72,103.276,-0.000675197,0.066866,21.0292,-468.559,0.535381,0.0,0.0
538,134.25,23.199,25.3741,164.242,109.707,102.987,-0.000706168,0.0667071,21.0293,-468.569,0.55912,0.0,0.0
540,134.75,23.8228,25.2756,160.301,109.707,102.639,-0.000731254,0.0665784,21.0295,-468.579,0.589005,0.0,0.0
542,135.25,23.7766,25.3079,171.288,109.705,102.752,-0.000752206,0.0664199,21.0296,-468.579,0.57906,0.0,0.0
544,135.75,23.4724,25.0797,164.35,109.706,103.119,-0.000769747,0.0662914,21.0303,-468.579,0.547707,0.0,0.0
546,136.25,23.5595,25.0141,174.217,109.709,103.587,-0.000783956,0.0661374,21.0308,-468.579,0.507879,0.0,0.0
548,136.75,23.3408,24.7836,172.039,109.713,103.071,-0.000773738,0.0659675,21.0313,-468.579,0.552375,0.0,0.0
550,137.25,24.1196,24.8763,177.3,109.715,102.829,-0.000765462,0.06583,21.0316,-468.579,0.573273,0.0,0.0
552,137.75,23.6412,25.0641,175.005,109.7,103.022,-0.00074072,0.0657186,21.0319,-468.589,0.555485,0.0,0.0
554,138.25,23.5883,24.9056,170.659,109.715,102.769,-0.000720679,0.0655468,21.032,-468.589,0.578459,0.0,0.0
556,138.75,23.8096,24.8759,175.034,109.693,102.398,-0.000703814,0.0654078,21.0321,-468.589,0.608625,0.0,0.0
558,139.25,23.1612,24.7597,174.428,109.696,102.873,-0.000689583,0.0652544,21.0321,-468.579,0.567977,0.0,0.0
560,139.75,23.4136,25.2457,174.577,109.702,102.489,-0.000686283,0.0651301,21.0321,-468.589,0.601587,0.0,0.0
562,140.25,23.9683,25.4589,172.726,109.702,103.12,-0.000691016,0.0650015,21.0326,-468.589,0.547235,0.0,0.0
564,140.75,23.9035,24.849,170.717,109.699,102.864,-0.000694849,0.0648974,21.033,-468.599,0.569033,0.0,0.0
566,141.25,23.5693,25.2804,175.313,109.689,102.32,-0.000713144,0.0647202,21.0333,-468.609,0.615094,0.0,0.0
568,141.75,23.5443,25.3749,176.808,109.693,103.47,-0.000741633,0.064493,21.0336,-468.599,0.516553,0.0,0.0
570,142.25,23.4179,24.7127,176.573,109.686,102.851,-0.00076914,0.0642448,21.0338,-468.599,0.569075,0.0,0.0
572,142.75,23.6875,24.9459,175.644,109.701,103.196,-0.000795408,0.0639859,21.0344,-468.599,0.540655,0.0,0.0
574,143.25,23.2857,25.0565,172.67,109.686,102.918,-0.000816684,0.0637762,21.0349,-468.599,0.563389,0.0,0.0
576,143.75,23.306,24.6252,170.32,109.703,102.973,-0.000829109,0.0634165,21.0353,-468.599,0.559988,0.0,0.0
578,144.25,23.5111,24.6005,173.686,109.69,102.836,-0.000830312,0.0631251,21.0356,-468.609,0.570661,0.0,0.0
580,144.75,23.2531,24.5753,179.951,109.69,103.169,-0.000823311,0.062832,21.0359,-468.609,0.542025,0.0,0.0
582,145.25,23.7129,24.8701,176.439,109.683,103.409,-0.000811945,0.0625432,21.0361,-468.609,0.521033,0.0,0.0
584,145.75,23.4874,24.9694,174.089,109.687,103.466,-0.000797612,0.0623093,21.0363,-468.609,0.516394,0.0,0.0
586,146.25,23.5101,25.294,177.96,109.684,102.821,-0.000782838,0.0619978,21.0366,-468.609,0.571503,0.0,0.0
588,146.75,23.1187,24.3579,173.5,109.691,102.706,-0.000768023,0.06166,21.0372,-468.619,0.58199,0.0,0.0
590,147.25,22.9753,24.8267,170.933,109.685,103.498,-0.000756023,0.0613093,21.0376,-468.609,0.513545,0.0,0.0
592,147.75,22.8557,24.8386,177.307,109.695,102.738,-0.000746303,0.0609397,21.0379,-468.619,0.57958,0.0,0.0
594,148.25,23.006,24.6126,177.049,109.686,103.086,-0.000744523,0.0605633,21.0382,-468.619,0.548898,0.0,0.0
596,148.75,23.1599,24.9128,176.126,109.694,102.948,-0.000743081,0.06018,21.0384,-468.619,0.561423,0.0,0.0
598,149.25,23.4989,24.5627,175.046,109.678,102.504,-0.00075204,0.059799,21.0392,-468.629,0.598312,0.0,0.0
600,149.75,23.18,24.525,178.536,109.679,103.39,-0.00076841,0.0594904,21.0398,-468.629,0.522317,0.0,0.0
602,150.25,22.9887,24.3987,178.787,109.681,102.764,-0.00078167,0.0591767,21.0404,-468.629,0.576096,0.0,0.0
604,150.75,23.1361,24.6337,173.72,109.688,103.133,-0.000820069,0.0588653,21.0408,-468.629,0.545021,0.0,0.0
606,151.25,23.3785,24.1372,176.019,109.678,103.005,-0.000851172,0.058613,21.0416,-468.619,0.555194,0.0,0.0
608,151.75,23.2003,24.7794,174.97,109.674,103.204,-0.000908835,0.0582869,21.0422,-468.619,0.537792,0.0,0.0
610,152.25,22.8986,24.1654,173.301,109.671,102.455,-0.000955542,0.0580227,21.0427,-468.629,0.60198,0.0,0.0
612,152.75,23.1599,24.6952,177.207,109.675,102.733,-0.00101021,0.0578016,21.0432,-468.619,0.578362,0.0,0.0
614,153.25,22.9181,24.3225,175.474,109.656,102.894,-0.00105449,0.0576161,21.0435,-468.619,0.563,0.0,0.0
616,153.75,23.267,24.1284,176.147,109.678,103.474,-0.00108555,0.0574303,21.0438,-468.629,0.514993,0.0,0.0
618,154.25,22.8558,24.3505,176.782,109.662,102.986,-0.0011107,0.0572477,21.044,-468.629,0.55552,0.0,0.0
620,154.75,22.8421,23.7492,173.461,109.669,103.209,-0.00113108,0.0570713,21.0442,-468.629,0.537016,0.0,0.0
622,155.25,22.5257,23.5671,172.342,109.671,103.024,-0.00112354,0.0569028,21.0443,-468.639,0.552976,0.0,0.0
624,155.75,22.1776,23.7728,172.546,109.681,103.106,-0.00111742,0.0567378,21.0444,-468.639,0.546822,0.0,0.0
626,156.25,22.9018,24.1627,173.638,109.677,102.85,-0.00111608,0.0565785,21.0445,-468.629,0.568435,0.0,0.0
628,156.75,23.256,24.5964,175.773,109.678,102.623,-0.00111499,0.0564495,21.0446,-468.629,0.588069,0.0,0.0
630,157.25,23.1734,24.2027,174.252,109.658,102.753,-0.00111411,0.0562909,21.0451,-468.639,0.575275,0.0,0.0
632,157.75,22.8942,24.1353,175.13,109.673,103.496,-0.00115068,0.0561625,21.0455,-468.629,0.51277,0.0,0.0
634,158.25,22.9766,24.127,174.435,109.658,102.775,-0.00118029,0.0560015,21.0459,-468.629,0.573357,0.0,0.0
636,158.75,22.6612,24.0461,173.478,109.66,103.441,-0.00122449,0.0558198,21.0461,-468.629,0.516391,0.0,0.0
638,159.25,22.4485,23.8239,177.172,109.661,103.261,-0.00127848,0.0556086,21.0464,-468.629,0.531899,0.0,0.0
640,159.75,22.8235,24.1822,181.516,109.65,103.26,-0.00133677,0.0553799,21.0464,-468.629,0.531087,0.0,0.0
642,160.25,22.9016,23.5004,174.275,109.646,102.785,-0.00139709,0.0551947,21.0464,-468.639,0.571545,0.0,0.0
644,160.75,23.2537,24.3659,174.312,109.637,103.443,-0.00144594,0.0550446,21.0464,-468.639,0.514347,0.0,0.0
646,161.25,23.0043,24.4447,171.852,109.627,102.418,-0.00149754,0.0547331,21.0464,-468.649,0.601686,0.0,0.0
648,161.75,23.1159,24.5594,176.83,109.642,103.011,-0.00153933,0.0544807,21.0466,-468.639,0.551768,0.0,0.0
650,162.25,22.4171,24.05,176.276,109.632,102.997,-0.00157319,0.0542336,21.047,-468.649,0.552138,0.0,0.0
652,162.75,22.8381,24.2907,171.533,109.639,102.999,-0.00159099,0.0539951,21.0474,-468.639,0.552556,0.0,0.0
654,163.25,22.7047,23.9499,173.363,109.627,103.289,-0.00160541,0.0537237,21.0476,-468.629,0.526741,0.0,0.0
656,163.75,22.4178,23.6727,174.405,109.625,102.766,-0.00160506,0.0534334,21.0479,-468.629,0.57145,0.0,0.0
658,164.25,22.7674,24.2974,173.787,109.613,103.29,-0.00160478,0.0531983,21.048,-468.639,0.525486,0.0,0.0
660,164.75,23.3518,23.8975,176.838,109.619,103.505,-0.00159493,0.0528863,21.0482,-468.639,0.507615,0.0,0.0
662,165.25,23.2914,24.372,173.162,109.608,103.119,-0.00158696,0.0526336,21.0483,-468.649,0.539785,0.0,0.0
664,165.75,22.8406,24.363,170.043,109.606,102.977,-0.00157088,0.0524289,21.0484,-468.649,0.55179,0.0,0.0
666,166.25,22.9487,23.9434,173.442,109.606,102.396,-0.00155785,0.0521551,21.0485,-468.639,0.601898,0.0,0.0
668,166.75,22.4905,23.8196,178.517,109.609,102.55,-0.00153407,0.0519333,21.0485,-468.649,0.588817,0.0,0.0
670,167.25,22.2987,23.4794,175.116,109.611,102.881,-0.00150659,0.0516726,21.0486,-468.649,0.560472,0.0,0.0
672,167.75,21.6631,23.6046,173.477,109.6,103.24,-0.00147691,0.0514615,21.0486,-468.649,0.528736,0.0,0.0
674,168.25,22.5484,23.6871,175.17,109.596,102.848,-0.00145288,0.051196,21.0486,-468.649,0.562062,0.0,0.0
676,168.75,22.878,24.1235,180.906,109.592,102.802,-0.00142898,0.0509809,21.0487,-468.649,0.565693,0.0,0.0
678,169.25,22.3957,23.8019,175.899,109.586,103.056,-0.00140564,0.0507258,21.0491,-468.649,0.543404,0.0,0.0
680,169.75,22.764,23.8827,174.214,109.591,102.785,-0.00138673,0.0505191,21.0495,-468.659,0.567084,0.0,0.0
682,170.25,23.1328,24.1455,175.167,109.594,102.77,-0.00137863,0.0502302,21.0498,-468.659,0.568601,0.0,0.0
684,170.75,22.8025,23.5132,173.029,109.578,102.607,-0.00137207,0.0499962,21.0501,-468.669,0.581356,0.0,0.0
686,171.25,22.7582,23.868,171.945,109.576,102.857,,0.0497499,,-468.679,0.559685,0.0,0.0
688,171.75,22.7261,23.6787,170.916,109.584,103.359,,0.0494993,,-468.669,0.517281,0.0,0.0
690,172.25,22.617,24.5216,176.569,109.58,102.846,,0.0492963,,-468.649,0.560965,0.0,0.0
692,172.75,22.5861,23.4254,170.052,109.587,103.685,,0.0490679,,-468.659,0.489686,0.0,0.0
694,173.25,22.5909,23.6826,176.146,109.58,102.374,,0.0488255,,-468.649,0.601642,0.0,0.0
696,173.75,22.8148,23.7341,177.409,109.572,103.328,,0.0486007,,-468.649,0.51899,0.0,0.0
698,174.25,22.4869,23.6272,174.548,109.576,102.947,,,,-468.649,0.551973,0.0,0.0
700,174.75,22.7088,22.9946,175.77,109.569,102.332,,,,-468.649,0.604378,0.0,0.0
702,175.25,22.5286,24.0286,170.597,109.563,102.456,,,,-468.659,0.593158,0.0,0.0
704,175.75,22.5339,23.7995,174.866,109.56,102.842,,,,-468.669,0.559742,0.0,0.0
706,176.25,22.8145,23.9953,175.662,109.567,102.855,,,,-468.709,0.559162,0.0,0.0
708,176.75,22.7576,23.3428,176.266,109.562,102.723,,,,-468.659,0.570104,0.0,0.0
710,177.25,22.2303,23.6897,172.594,109.558,102.663,,,,-468.619,0.574936,0.0,0.0
712,177.75,22.1093,23.8003,173.184,109.547,102.385,,,,-468.649,0.598078,0.0,0.0
714,178.25,22.5531,23.725,175.072,109.544,102.794,,,,-468.679,0.562492,0.0,0.0
716,178.75,22.679,23.7767,174.155,109.537,103.098,,,,-468.649,0.535798,0.0,0.0
718,179.25,22.0901,23.2216,175.815,109.535,103.19,,,,-468.629,0.527809,0.0,0.0
720,179.75,22.4486,23.9321,175.303,109.514,102.921,,,,-468.639,0.549198,0.0,0.0
722,180.25,22.4166,23.5841,174.867,109.526,102.607,,,,-468.629,0.577177,0.0,0.0
724,180.75,22.4116,23.8662,177.327,109.521,102.557,,,,-468.629,0.58106,0.0,0.0
726,181.25,22.3438,23.8002,173.208,109.527,102.582,,,,-468.639,0.579404,0.0,0.0
728,181.75,22.1529,23.8287,173.89,109.525,103.153,,,,-468.639,0.530089,0.0,0.0
729,182,22.7654,23.6667,165.469,109.519,102.592,,,,-468.649,0.577875,0.0,0.0