File: 01_Data/Rubber_Foam_Pipe_Insulation/Cone/Rubber_Foam_Pipe_Insulation_Cone_HF75Scan_220307_R2.csv
Names,Time,Stack TC,Smoke TC,Exh Press,Smoke Comp,Smoke Meas,CO Meter,CO2 Meter,O2 Meter,Sample Mass,Ext Coeff,Start Test,Flame Verif
Chan Gain,,500,500,1,1,1,1,1,1,1,1,1.0,1.0
Offset,,0,0,0.13378,0,0,0,0,0,0,0,0.0,0.0
Gain,,1,1,25.011,14.4955,14.6297,1,1,1,1.00092,1.00831,1.0,1.0
Units,sec,C,C,Pa,%,%,%,%,%,g,/m,,
Baseline,,42.8029,44.5946,163.316,109.422,101.375,-0.00218803,0.038269,21.0621,-947.276,0.675652,,
2,0.25,40.9715,42.5482,139.996,110.351,62.6646,0.00538642,0.099847,20.9496,-463.804,5.00501,0.0,0.0
4,0.75,40.3784,41.6367,142.609,110.354,59.9871,0.00631131,0.143417,20.9169,-465.086,5.39147,0.0,1.0
6,1.25,40.9032,42.1715,138.364,110.357,57.5722,0.00789286,0.178708,20.8609,-465.226,5.75516,0.0,1.0
8,1.75,40.5748,42.4175,140.447,110.358,57.1338,0.00967104,0.207294,20.8005,-465.376,5.8228,0.0,1.0
10,2.25,41.1196,42.5241,136.026,110.369,58.5607,0.0111114,0.246747,20.738,-465.446,5.60554,0.0,1.0
12,2.75,41.6588,42.6852,144.524,110.371,59.9871,0.0125223,0.278704,20.6874,-465.476,5.39282,0.0,1.0
14,3.25,42.4526,43.2315,146.656,110.367,61.7413,0.0136651,0.320147,20.6465,-465.596,5.13761,0.0,1.0
16,3.75,42.9075,43.8748,144.068,110.384,63.2735,0.0146054,0.331295,20.6132,-465.696,4.92209,0.0,1.0
18,4.25,43.4608,44.8108,145.152,110.39,64.4821,0.0153801,0.348286,20.5864,-465.796,4.75524,0.0,1.0
20,4.75,44.2179,45.9024,145.847,110.382,65.8764,0.0160076,0.362048,20.5646,-465.856,4.56539,0.0,1.0
22,5.25,44.2795,45.9964,143.492,110.384,67.5078,0.0164446,0.371407,20.5469,-465.956,4.34916,0.0,1.0
24,5.75,44.8127,46.7079,153.414,110.385,70.3107,0.0167343,0.377379,20.5362,-466.036,3.98942,0.0,1.0
26,6.25,44.9429,45.4915,147.767,110.396,70.6603,0.0169048,0.380536,20.5275,-466.116,3.94644,0.0,1.0
28,6.75,44.3961,46.0124,145.442,110.4,70.8415,0.0169851,0.381581,20.5205,-466.146,3.92413,0.0,0.0
30,7.25,45.5529,47.3089,148.905,110.405,71.847,0.0170502,0.382428,20.5197,-466.237,3.79991,0.0,0.0
32,7.75,45.9479,47.7359,143.869,110.42,72.5756,0.0170272,0.379796,20.5191,-466.297,3.71187,0.0,0.0
34,8.25,46.2006,48.2151,146.47,110.404,73.2475,0.0169404,0.377664,20.5242,-466.347,3.62908,0.0,0.0
36,8.75,46.4418,48.5284,148.689,110.419,74.2114,0.0168365,0.375269,20.5284,-466.417,3.51461,0.0,0.0
38,9.25,46.8444,49.5932,148.745,110.415,74.2355,0.0167221,0.372727,20.5335,-466.487,3.51142,0.0,0.0
40,9.75,47.4861,49.0536,145.246,110.415,72.7443,0.0165958,0.370668,20.5377,-466.527,3.69093,0.0,0.0
42,10.25,47.4297,48.8073,141.941,110.43,73.0372,0.0164633,0.369,20.5411,-466.627,3.65653,0.0,0.0
44,10.75,48.0343,49.9322,149.536,110.427,73.0546,0.016356,0.36747,20.5438,-466.707,3.65424,0.0,0.0
46,11.25,48.3641,50.3179,150.775,110.423,71.392,0.0161534,0.366265,20.5463,-466.747,3.85751,0.0,0.0
48,11.75,48.6355,50.747,152.995,110.44,75.6959,0.0159893,0.36532,20.5485,-466.817,3.34113,0.0,0.0
50,12.25,48.9618,51.3551,149.332,110.442,74.5003,0.0157644,0.364409,20.5503,-466.887,3.4821,0.0,0.0
52,12.75,49.1503,51.1445,148.801,110.445,75.3758,0.0154995,0.363541,20.5526,-466.967,3.37901,0.0,0.0
54,13.25,49.0939,52.0156,147.293,110.442,75.1191,0.0152258,0.362837,20.5545,-467.017,3.40893,0.0,0.0
56,13.75,49.5448,51.7036,148.595,110.456,76.6362,0.014951,0.361263,20.5572,-467.087,3.23322,0.0,0.0
58,14.25,50.1875,51.6854,147.317,110.445,77.7773,0.0148338,0.359988,20.5589,-467.157,3.10157,0.0,0.0
60,14.75,49.7128,51.8783,145.521,110.454,78.1858,0.0145779,0.358267,20.5619,-467.207,3.05601,0.0,0.0
62,15.25,50.2807,52.0444,150.064,110.467,74.1373,0.0143207,0.356255,20.566,-467.278,3.52731,0.0,0.0
64,15.75,50.771,53.1748,150.805,110.463,73.3306,0.0140921,0.354625,20.5694,-467.338,3.62373,0.0,0.0
66,16.25,51.3615,53.903,152.946,110.46,73.977,0.0138886,0.352469,20.5726,-467.388,3.54589,0.0,0.0
68,16.75,51.2256,53.5282,149.217,110.475,74.7637,0.0137171,0.350723,20.5752,-467.438,3.4535,0.0,0.0
70,17.25,51.1525,53.9753,143.823,110.466,75.291,0.013572,0.349616,20.5772,-467.498,3.39067,0.0,0.0
72,17.75,51.297,53.3927,141.388,110.477,74.2244,0.0134526,0.347723,20.5789,-467.578,3.51768,0.0,0.0
74,18.25,52.1055,54.7165,146.876,110.482,73.4663,0.0133539,0.346038,20.5805,-467.628,3.6089,0.0,0.0
76,18.75,52.1027,54.4351,146.954,110.491,73.248,0.0132741,0.344536,20.5821,-467.698,3.63597,0.0,0.0
78,19.25,52.1618,54.4263,144.929,110.485,72.0889,0.0131958,0.343194,20.5833,-467.778,3.77655,0.0,0.0
80,19.75,52.3337,54.7985,151.228,110.507,73.2993,0.0131204,0.341994,20.5847,-467.798,3.63105,0.0,0.0
82,20.25,52.5169,55.08,150.436,110.493,68.8633,0.0130295,0.341021,20.5859,-467.838,4.18208,0.0,0.0
84,20.75,53.018,55.2297,150.252,110.492,72.1684,0.0129293,0.339277,20.5886,-467.898,3.76733,0.0,0.0
86,21.25,53.1512,55.8022,141.66,110.502,72.8086,0.012848,0.337864,20.5908,-467.948,3.69006,0.0,0.0
88,21.75,52.8885,55.5088,151.199,110.509,75.1615,0.0125573,0.335826,20.5961,-468.008,3.40929,0.0,0.0
90,22.25,53.272,55.759,151.071,110.505,76.0651,0.012479,0.33337,20.5979,-468.058,3.3033,0.0,0.0
92,22.75,53.7705,56.687,148.504,110.514,75.4472,0.0121785,0.331382,20.6033,-468.098,3.37612,0.0,0.0
94,23.25,53.6504,56.6054,145.484,110.521,74.2775,0.011935,0.327612,20.6096,-468.188,3.51489,0.0,0.0
96,23.75,54.5379,56.5477,145.625,110.523,75.1097,0.0116165,0.324559,20.6147,-468.168,3.41648,0.0,0.0
98,24.25,54.399,56.9097,153.089,110.536,78.3108,0.0112492,0.320177,20.622,-468.248,3.04843,0.0,0.0
100,24.75,54.1415,56.4727,153.112,110.533,78.4274,0.0109518,0.315115,20.6278,-468.258,3.035,0.0,0.0
102,25.25,54.1986,57.4574,147.873,110.525,79.5239,0.0104891,0.312993,20.6338,-468.298,2.91156,0.0,0.0
104,25.75,54.2994,56.9441,149.617,110.534,77.5652,0.0101144,0.309365,20.6397,-468.359,3.13287,0.0,0.0
106,26.25,54.6592,57.5817,154.386,110.529,78.8734,0.00981088,0.305563,20.6444,-468.409,2.98456,0.0,0.0
108,26.75,54.8335,57.656,148.448,110.548,80.2092,0.0093471,0.301707,20.6499,-468.429,2.8375,0.0,0.0
110,27.25,55.2456,57.7832,151.205,110.558,80.9392,0.00897144,0.297525,20.6559,-468.439,2.75818,0.0,0.0
112,27.75,55.1605,58.0455,148.468,110.549,82.8723,0.00852504,0.293184,20.6628,-468.499,2.54871,0.0,0.0
114,28.25,55.1865,58.0657,149.189,110.543,84.0492,0.00816346,0.289667,20.6703,-468.509,2.42349,0.0,0.0
116,28.75,55.0179,58.3594,148.747,110.557,87.1365,0.00772157,0.284985,20.6818,-468.539,2.10556,0.0,0.0
118,29.25,55.2176,58.3381,148.504,110.545,86.6418,0.00736364,0.279542,20.6911,-468.549,2.15492,0.0,0.0
120,29.75,55.5111,58.534,150.468,110.565,89.4126,0.0068932,0.275134,20.6986,-468.589,1.87816,0.0,0.0
122,30.25,55.2035,58.6077,151.516,110.56,89.7193,0.00651214,0.26815,20.7085,-468.599,1.84741,0.0,0.0
124,30.75,55.1477,58.1916,154.134,110.565,91.7726,0.00620348,0.262493,20.7199,-468.619,1.6477,0.0,0.0
126,31.25,56.1276,58.5964,152.837,110.563,93.52,0.00570147,0.25516,20.7318,-468.659,1.48073,0.0,0.0
128,31.75,55.8113,58.8662,151.996,110.563,93.8754,0.00529484,0.249219,20.7439,-468.659,1.44718,0.0,0.0
130,32.25,55.0488,58.5916,157.991,110.573,96.2975,0.0048992,0.241608,20.7537,-468.699,1.22261,0.0,0.0
132,32.75,55.8845,59.1894,148.945,110.576,96.0211,0.00451909,0.235442,20.7661,-468.689,1.24828,0.0,0.0
134,33.25,55.6359,59.1868,147.855,110.574,98.0641,0.00421121,0.230448,20.7762,-468.709,1.06193,0.0,0.0
136,33.75,55.77,59.2323,147.15,110.586,98.3485,0.00387158,0.222266,20.7871,-468.729,1.03727,0.0,0.0
138,34.25,55.7701,59.2634,154.225,110.575,99.2486,0.00359648,0.215638,20.7984,-468.709,0.955806,0.0,0.0
140,34.75,55.358,58.9563,159.41,110.591,100.755,0.00335379,0.207805,20.8075,-468.739,0.823844,0.0,0.0
142,35.25,56.022,58.9883,151.213,110.58,100.201,0.00313934,0.201459,20.8198,-468.759,0.871767,0.0,0.0
144,35.75,55.472,59.2304,153.504,110.591,100.731,0.00296563,0.19632,20.8298,-468.789,0.825961,0.0,0.0
146,36.25,56.0545,59.6842,155.792,110.586,101.44,0.00282736,0.188898,20.8405,-468.799,0.763532,0.0,0.0
148,36.75,55.7534,59.0422,162.218,110.598,101.57,0.00271536,0.182887,20.8515,-468.809,0.753132,0.0,0.0
150,37.25,55.81,59.1943,162.032,110.589,101.678,0.00265264,0.176669,20.863,-468.819,0.743095,0.0,0.0
152,37.75,55.3416,58.7208,158.488,110.602,101.741,0.00260183,0.170418,20.8746,-468.819,0.73861,0.0,0.0
154,38.25,55.6654,58.7616,156.401,110.592,101.76,0.0026082,0.165354,20.8857,-468.819,0.736129,0.0,0.0
156,38.75,55.2776,58.6893,158.346,110.602,102.261,0.00261336,0.159199,20.8961,-468.829,0.69347,0.0,0.0
158,39.25,55.1353,58.734,160.906,110.595,102.368,0.00268344,0.154214,20.906,-468.829,0.683642,0.0,0.0
160,39.75,55.004,58.8327,161.566,110.599,102.117,0.0027402,0.148748,20.9153,-468.869,0.705704,0.0,0.0
162,40.25,55.0146,58.6417,156.478,110.595,102.218,0.00278618,0.144321,20.9228,-468.869,0.696648,0.0,0.0
164,40.75,55.2457,58.5723,152.045,110.608,102.749,0.00291515,0.139549,20.9307,-468.839,0.651894,0.0,0.0
166,41.25,55.1003,58.3239,159.477,110.603,102.318,0.00304153,0.135684,20.937,-468.849,0.688711,0.0,0.0
168,41.75,55.2716,58.2347,160.385,110.622,102.187,0.00316364,0.131649,20.9427,-468.859,0.701549,0.0,0.0
170,42.25,54.4674,58.3455,163.94,110.619,102.619,0.00326255,0.128381,20.9477,-468.859,0.663938,0.0,0.0
172,42.75,54.6294,58.0079,157.388,110.618,102.309,0.00338191,0.125252,20.9522,-468.879,0.690651,0.0,0.0
174,43.25,53.9293,57.826,158.037,110.617,101.985,0.00347859,0.122284,20.9563,-468.909,0.718647,0.0,0.0
176,43.75,53.685,56.7932,157.432,110.607,102.28,0.00359006,0.11988,20.9603,-468.909,0.692238,0.0,0.0
178,44.25,54.1262,57.8028,157.497,110.601,102.472,0.00368034,0.11724,20.9642,-468.919,0.675188,0.0,0.0
180,44.75,54.3045,57.658,158.317,110.608,102.284,0.00379771,0.115102,20.9675,-468.919,0.692032,0.0,0.0
182,45.25,53.6939,57.1986,158.977,110.604,102.455,0.00389279,0.112956,20.9705,-468.929,0.676903,0.0,0.0
184,45.75,53.5793,56.7588,159.613,110.596,102.634,0.00399441,0.111217,20.9729,-468.949,0.660899,0.0,0.0
186,46.25,53.7989,56.4304,160.158,110.611,102.881,0.00409887,0.109671,20.9748,-468.959,0.640779,0.0,0.0
188,46.75,53.7075,56.8193,164.542,110.601,102.307,0.00418348,0.108294,20.9764,-468.949,0.68946,0.0,0.0
190,47.25,53.3379,56.166,155.831,110.611,102.097,0.00427147,0.107113,20.9779,-468.949,0.70847,0.0,0.0
192,47.75,53.3263,56.4033,153.419,110.598,102.523,0.00436024,0.106098,20.9793,-468.959,0.670549,0.0,0.0
194,48.25,53.437,56.894,155.718,110.603,102.899,0.00443475,0.105268,20.9805,-468.969,0.638601,0.0,0.0
196,48.75,53.1159,56.6334,159.355,110.604,102.523,0.00449743,0.10459,20.9814,-468.969,0.671082,0.0,0.0
198,49.25,53.2233,56.3652,159.557,110.607,102.209,0.00453653,0.10404,20.9822,-468.969,0.698452,0.0,0.0
200,49.75,52.7641,56.1837,154.815,110.607,102.724,0.00455769,0.103388,20.9828,-468.969,0.65394,0.0,0.0
202,50.25,52.9691,55.9686,159.263,110.603,102.412,0.00456671,0.10286,20.9831,-468.989,0.680534,0.0,0.0
204,50.75,52.6202,56.208,160.241,110.605,102.535,0.00454028,0.102243,20.9838,-468.999,0.670039,0.0,0.0
206,51.25,52.7709,56.0345,155.769,110.603,102.696,0.00451887,0.101574,20.9845,-469.009,0.656047,0.0,0.0
208,51.75,52.8038,56.154,159.929,110.602,102.193,0.00444373,0.101032,20.9854,-469.019,0.699381,0.0,0.0
210,52.25,52.6592,56.1441,161.012,110.596,102.409,0.00438288,0.100358,20.9863,-469.019,0.680241,0.0,0.0
212,52.75,52.538,56.4254,162.429,110.6,101.865,0.00427711,0.099813,20.987,-469.019,0.727682,0.0,0.0
214,53.25,52.503,55.7182,159.487,110.598,102.371,0.00419143,0.099479,20.9876,-469.009,0.683732,0.0,0.0
216,53.75,52.1332,55.9,163.299,110.588,102.736,0.00412204,0.0989079,20.9881,-469.029,0.651346,0.0,0.0
218,54.25,52.2832,55.6463,157.431,110.584,102.564,0.00406583,0.0983366,20.9885,-469.039,0.665915,0.0,0.0
220,54.75,51.9975,55.5952,160.383,110.587,102.431,0.00397519,0.0977761,20.9888,-469.059,0.67768,0.0,0.0
222,55.25,52.1206,55.3043,160.849,110.588,102.299,0.00386117,0.0972425,20.9887,-469.049,0.689166,0.0,0.0
224,55.75,51.7021,55.3786,159.694,110.587,102.22,0.00375851,0.0967385,20.9887,-469.059,0.69582,0.0,0.0
226,56.25,51.8262,55.6276,157.897,110.586,102.196,0.00366609,0.0963303,20.9887,-469.069,0.697836,0.0,0.0
228,56.75,51.7063,55.4373,161.176,110.571,102.214,0.00359122,0.0959997,20.989,-469.049,0.695126,0.0,0.0
230,57.25,52.5391,55.1345,162.747,110.585,102.397,0.0035049,0.0955109,20.9891,-469.069,0.68043,0.0,0.0
232,57.75,52.2305,55.4936,156.093,110.57,102.41,0.00343498,0.095115,20.9893,-469.039,0.678035,0.0,0.0
234,58.25,51.5924,55.4723,161.935,110.584,102.21,0.00335757,0.0946352,20.9896,-469.039,0.696535,0.0,0.0
236,58.75,51.7435,54.8717,163.203,110.567,102.63,0.00325785,0.0941033,20.9903,-469.059,0.658874,0.0,0.0
238,59.25,51.9167,54.8383,158.138,110.575,102.405,0.00322454,0.0936725,20.9907,-469.069,0.678922,0.0,0.0
240,59.75,51.4138,54.985,157.007,110.561,102.11,0.00316757,0.0930901,20.9915,-469.079,0.70328,0.0,0.0
242,60.25,51.5786,54.8073,170.462,110.577,102.374,0.00310922,0.0926184,20.9921,-469.089,0.681763,0.0,0.0
244,60.75,51.5922,54.7473,162.173,110.561,102.603,0.00306195,0.0921127,20.9925,-469.069,0.660759,0.0,0.0
246,61.25,51.2484,54.9981,162.331,110.557,102.645,0.00302367,0.0917031,20.9929,-469.069,0.656749,0.0,0.0
248,61.75,51.5897,54.8951,154.95,110.553,102.427,0.00299754,0.090995,20.9935,-469.089,0.675228,0.0,0.0
250,62.25,51.5671,55.1277,162.856,110.557,102.319,0.00297637,0.0908046,20.9941,-469.109,0.684916,0.0,0.0
252,62.75,51.6523,54.5009,161.044,110.541,102.4,0.00297877,0.090328,20.9947,-469.119,0.67666,0.0,0.0
254,63.25,51.5014,54.7511,161.737,110.547,101.942,0.00298071,0.0899419,20.9951,-469.109,0.716775,0.0,0.0
256,63.75,51.0609,54.9202,162.14,110.545,102.38,0.00299688,0.0895643,20.9957,-469.119,0.678675,0.0,0.0
258,64.25,51.2909,54.3317,162.372,110.553,102.264,0.00300997,0.0891999,20.9964,-469.119,0.689349,0.0,0.0
260,64.75,50.7765,54.2886,157.071,110.507,102.148,0.00302546,0.0889048,20.997,-469.129,0.695707,0.0,0.0
262,65.25,51.0727,54.3349,161.006,110.529,101.991,0.00303801,0.088556,20.9976,-469.129,0.711064,0.0,0.0
264,65.75,51.1318,54.4912,159.23,110.516,102.76,0.00304753,0.0882736,20.9981,-469.139,0.643576,0.0,0.0
266,66.25,51.0397,54.1147,158.494,110.527,102.122,0.00305467,0.0879214,20.9989,-469.139,0.699472,0.0,0.0
268,66.75,51.3761,54.7499,162.144,110.506,102.301,0.00305852,0.0876362,20.9996,-469.129,0.682315,0.0,0.0
270,67.25,51.0396,54.5052,158.454,110.51,102.254,0.0030599,0.0872758,21.0001,-469.139,0.686762,0.0,0.0
272,67.75,51.1552,54.5236,162.881,110.496,102.398,0.00306102,0.0868676,21.0006,-469.149,0.673167,0.0,0.0
274,68.25,50.7125,53.9208,163.484,110.504,101.965,0.00306128,0.0864936,21.001,-469.139,0.711326,0.0,0.0
276,68.75,51.1765,54.2015,158.287,110.488,102.222,0.00306092,0.0861518,21.0012,-469.159,0.68777,0.0,0.0
278,69.25,50.7049,54.2939,159.794,110.492,102.261,0.00305933,0.0858605,21.0015,-469.179,0.684657,0.0,0.0
280,69.75,50.7186,54.1688,163.511,110.475,102.56,0.00305689,0.0856116,21.0017,-469.169,0.657554,0.0,0.0
282,70.25,50.4843,54.031,156.008,110.486,102.355,0.00305492,0.08541,21.0018,-469.159,0.676127,0.0,0.0
284,70.75,50.3831,53.5272,157.948,110.465,102.18,0.00304599,0.0852107,21.002,-469.179,0.689566,0.0,0.0
286,71.25,50.6695,54.1613,156.992,110.473,102.42,0.00303425,0.0850168,21.0021,-469.159,0.669436,0.0,0.0
288,71.75,50.2887,53.6586,162.606,110.463,102.376,0.0030207,0.0848597,21.0021,-469.159,0.672476,0.0,0.0
290,72.25,50.1781,53.9625,159.435,110.463,102.347,0.00300522,0.0845272,21.0022,-469.199,0.674941,0.0,0.0
292,72.75,50.102,53.3985,161.94,110.448,102.081,0.00298863,0.0842579,21.0027,-469.189,0.696765,0.0,0.0
294,73.25,50.5028,53.9139,161.762,110.448,101.847,0.0029752,0.0839303,21.0031,-469.189,0.717098,0.0,0.0
296,73.75,49.8766,53.4188,160.006,110.438,101.92,0.00295455,0.0836649,21.0034,-469.199,0.709923,0.0,0.0
298,74.25,50.1637,53.7097,160.279,110.441,102.103,0.00293782,0.0833679,21.0037,-469.199,0.6943,0.0,0.0
300,74.75,50.0553,53.6308,162.848,110.425,102.608,0.00292427,0.0831274,21.0039,-469.179,0.649394,0.0,0.0
302,75.25,50.1522,53.0416,167.135,110.433,102.211,0.00290719,0.0828368,21.0043,-469.189,0.684307,0.0,0.0
304,75.75,49.9961,53.3168,160.534,110.408,102.5,0.00289336,0.0826014,21.0049,-469.199,0.657362,0.0,0.0
306,76.25,49.8203,53.0762,161.457,110.419,102.11,0.00288948,0.0823287,21.0053,-469.209,0.691913,0.0,0.0
308,76.75,49.9882,53.2573,165.104,110.405,102.222,0.00288634,0.0821078,21.0057,-469.229,0.68111,0.0,0.0
310,77.25,49.8553,53.1817,163.095,110.416,102.213,0.00288379,0.0819001,21.006,-469.229,0.682806,0.0,0.0
312,77.75,49.5911,52.9481,161.583,110.389,102.029,0.00287719,0.081706,21.0062,-469.239,0.69654,0.0,0.0
314,78.25,49.5263,52.5731,162.008,110.4,101.737,0.00287483,0.0815487,21.0064,-469.229,0.722815,0.0,0.0
316,78.75,49.5351,53.2772,159.696,110.381,101.956,0.00287081,0.081353,21.0065,-469.239,0.702179,0.0,0.0
318,79.25,49.3264,52.5329,159.148,110.386,101.845,0.00285047,0.0811945,21.0071,-469.249,0.712288,0.0,0.0
320,79.75,49.9905,53.059,159.863,110.376,102.014,0.00283399,0.0810661,21.0076,-469.259,0.696794,0.0,0.0
322,80.25,49.2981,52.6091,159.206,110.372,102.258,0.00279015,0.0808758,21.0075,-469.249,0.675326,0.0,0.0
324,80.75,49.1861,52.252,157.059,110.358,101.976,0.00275464,0.080644,21.0075,-469.269,0.698667,0.0,0.0
326,81.25,49.6292,52.7436,150.81,110.359,102.667,0.00269664,0.0804562,21.0074,-469.279,0.638995,0.0,0.0
328,81.75,49.2851,52.0328,159.013,110.349,102.21,0.00264965,0.0801402,21.0074,-469.259,0.677616,0.0,0.0
330,82.25,49.2865,52.5108,160.864,110.351,102.034,0.00261159,0.0798842,21.0073,-469.269,0.693105,0.0,0.0
332,82.75,49.2844,52.5869,160.353,110.327,101.761,0.00254302,0.0796905,21.0075,-469.259,0.71483,0.0,0.0
334,83.25,49.4263,52.7772,156.563,110.331,102.033,0.00248748,0.0795337,21.0079,-469.279,0.691551,0.0,0.0
336,83.75,48.8429,52.4341,161.018,110.323,102.422,0.00242789,0.0794612,21.0082,-469.279,0.657226,0.0,0.0
338,84.25,49.1993,52.4962,168.712,110.312,102.251,0.00237962,0.0794026,21.0085,-469.289,0.671118,0.0,0.0
340,84.75,49.3509,52.128,164.536,110.316,101.949,0.00233925,0.0793478,21.0087,-469.309,0.697621,0.0,0.0
342,85.25,49.3746,52.5634,156.456,110.315,102.114,0.00230539,0.0792971,21.0089,-469.299,0.683343,0.0,0.0
344,85.75,49.1635,51.8583,161.943,110.298,102.257,0.00227797,0.0792559,21.009,-469.319,0.66952,0.0,0.0
346,86.25,48.8521,52.3724,156.078,110.285,102.23,0.00225211,0.0791953,21.0091,-469.319,0.670811,0.0,0.0
348,86.75,48.5614,52.3643,164.388,110.292,101.983,0.00223116,0.0791461,21.0092,-469.309,0.692801,0.0,0.0
350,87.25,49.5122,52.8082,160.294,110.278,102.614,0.00218987,0.0791207,21.0095,-469.309,0.637045,0.0,0.0
352,87.75,48.9642,51.8895,162.065,110.276,102.123,0.00215643,0.0791131,21.01,-469.319,0.679374,0.0,0.0
354,88.25,48.5148,51.9974,158.905,110.267,102.371,0.00209412,0.0791069,21.0103,-469.309,0.657191,0.0,0.0
356,88.75,49.0816,51.837,159.809,110.252,101.697,0.00204364,0.0790199,21.0106,-469.309,0.714425,0.0,0.0
358,89.25,49.1236,52.3777,162.569,110.25,101.708,0.00200276,0.0789495,21.0109,-469.309,0.713315,0.0,0.0
360,89.75,48.2506,52.2328,162.682,110.237,102.142,0.00194779,0.0787559,21.0113,-469.309,0.674588,0.0,0.0
362,90.25,49.448,52.2826,160.73,110.234,102.257,0.00190327,0.0785991,21.0119,-469.299,0.664336,0.0,0.0
364,90.75,48.7517,52.1203,157.986,110.233,102.041,0.00187328,0.0784039,21.0123,-469.319,0.68305,0.0,0.0
366,91.25,48.7404,51.8508,161.747,110.216,101.792,0.00184898,0.0782457,21.0127,-469.319,0.703321,0.0,0.0
368,91.75,48.0789,51.8963,162.978,110.215,101.873,0.00184265,0.0780673,21.013,-469.329,0.696121,0.0,0.0
370,92.25,48.4529,52.0184,160.06,110.197,101.752,0.00183753,0.0778775,21.0132,-469.319,0.705248,0.0,0.0
372,92.75,48.7918,51.8534,163.849,110.212,102.938,0.00184066,0.0777238,21.0134,-469.319,0.603904,0.0,0.0
374,93.25,48.5627,52.0674,161.749,110.185,102.025,0.0018432,0.0775038,21.0136,-469.329,0.6805,0.0,0.0
376,93.75,48.3041,51.9012,157.104,110.188,101.867,0.00183312,0.0773256,21.014,-469.319,0.694459,0.0,0.0
378,94.25,47.9327,51.2188,162.088,110.173,101.678,0.00182495,0.0771676,21.0145,-469.319,0.709703,0.0,0.0
380,94.75,48.844,51.8303,158.135,110.173,101.898,0.00179917,0.0770397,21.0149,-469.329,0.690578,0.0,0.0
382,95.25,48.3695,51.705,159.67,110.158,102.086,0.00176105,0.0768951,21.0152,-469.309,0.673103,0.0,0.0
384,95.75,48.1025,52.143,163.26,110.158,102.036,0.00173018,0.076778,21.0155,-469.319,0.677365,0.0,0.0
386,96.25,48.1805,51.6021,158.497,110.152,102.198,0.00167137,0.0766013,21.0157,-469.329,0.662867,0.0,0.0
388,96.75,48.7419,51.3696,165.215,110.142,101.782,0.00159331,0.0764581,21.0159,-469.349,0.698173,0.0,0.0
390,97.25,48.1637,51.3168,159.755,110.125,101.757,0.00151353,0.0762604,21.016,-469.349,0.698996,0.0,0.0
392,97.75,48.3659,51.8566,160.083,110.137,101.438,0.001434,0.0761002,21.0161,-469.349,0.727742,0.0,0.0
394,98.25,48.5746,51.8905,160.742,110.125,101.985,0.00136959,0.0759704,21.0162,-469.359,0.679226,0.0,0.0
396,98.75,48.0227,51.4462,160.076,110.129,102.126,0.00129806,0.0759062,21.0163,-469.359,0.667277,0.0,0.0
398,99.25,48.4862,51.3418,161.319,110.109,101.712,0.00124013,0.0758542,21.0164,-469.359,0.701673,0.0,0.0
400,99.75,47.9294,51.5909,157.151,110.11,101.848,0.00119078,0.0757978,21.0164,-469.369,0.689836,0.0,0.0
402,100.25,47.9689,50.8474,163.624,110.108,101.879,0.00115081,0.0757391,21.0165,-469.369,0.687058,0.0,0.0
404,100.75,47.941,51.5108,164.388,110.112,101.83,0.00111844,0.0756916,21.0165,-469.379,0.691607,0.0,0.0
406,101.25,48.4927,51.6821,161.151,110.101,102.147,0.00110494,0.0756258,21.0165,-469.389,0.663222,0.0,0.0
408,101.75,48.0727,51.3576,158.693,110.095,101.697,0.00110546,0.0755726,21.0165,-469.369,0.701856,0.0,0.0
410,102.25,48.2411,51.1622,162.713,110.081,101.87,0.00111799,0.0754204,21.0164,-469.399,0.685701,0.0,0.0
412,102.75,48.3651,51.5445,159.977,110.091,102.12,0.00113902,0.0752971,21.0164,-469.399,0.664766,0.0,0.0
414,103.25,48.1189,51.0061,166.98,110.093,101.887,0.00115606,0.0751972,21.0164,-469.399,0.685077,0.0,0.0
416,103.75,48.4152,51.8012,161.602,110.081,102.169,0.00118681,0.0750661,21.0163,-469.409,0.659693,0.0,0.0
418,104.25,47.5285,51.3413,159.135,110.067,102.684,0.00121172,0.0749147,21.0163,-469.399,0.614177,0.0,0.0
420,104.75,48.0634,51.3291,161.363,110.078,102.102,0.00122616,0.0747562,21.0163,-469.399,0.665243,0.0,0.0
422,105.25,48.2376,51.2014,161.811,110.06,101.709,0.0012327,0.0745955,21.0163,-469.409,0.698,0.0,0.0
424,105.75,47.9712,50.6342,164.271,110.083,101.828,0.00122334,0.0744654,21.0163,-469.399,0.689488,0.0,0.0
426,106.25,47.8823,51.1984,155.203,110.052,102.677,0.00120258,0.074251,21.0163,-469.399,0.613549,0.0,0.0
428,106.75,48.3874,51.1533,147.164,110.061,102.039,0.00116349,0.0740773,21.0163,-469.399,0.669386,0.0,0.0
430,107.25,47.9742,50.8733,157.557,110.043,101.914,0.00111179,0.0738721,21.0163,-469.409,0.678809,0.0,0.0
432,107.75,48.2519,50.851,156.093,110.051,101.637,0.00104957,0.0736478,21.0163,-469.419,0.703471,0.0,0.0
434,108.25,47.026,50.2275,157.108,110.049,101.588,0.00101341,0.0734661,21.0165,-469.389,0.70756,0.0,0.0
436,108.75,47.433,50.5451,159.09,110.035,101.534,0.000951578,0.0732372,21.0169,-469.409,0.711202,0.0,0.0
438,109.25,48.2627,50.8057,160.398,110.043,101.883,0.000883716,0.0730518,21.0172,-469.409,0.681448,0.0,0.0
440,109.75,47.8308,51.0111,160.39,110.034,101.702,0.000812747,0.0727927,21.0179,-469.399,0.696446,0.0,0.0
442,110.25,47.7251,50.8924,160.876,110.02,102.167,0.000755262,0.0725829,21.0185,-469.399,0.654944,0.0,0.0
444,110.75,47.8525,51.3828,159.306,110.028,101.699,0.000690618,0.0722223,21.019,-469.399,0.696258,0.0,0.0
446,111.25,48.0256,50.9458,159.869,109.989,101.799,0.000638256,0.0720686,21.0194,-469.409,0.684435,0.0,0.0
448,111.75,47.9585,50.6171,164.25,110.032,101.865,0.000588611,0.0716697,21.0197,-469.399,0.682142,0.0,0.0
450,112.25,47.4205,50.3395,164.403,109.996,102.525,0.000548399,0.0713466,21.0204,-469.409,0.622153,0.0,0.0
452,112.75,47.5509,50.6161,157.823,110.004,101.519,0.000510754,0.0710848,21.0209,-469.409,0.709924,0.0,0.0
454,113.25,48.1775,51.056,159.936,109.985,101.846,0.000475697,0.0707368,21.0214,-469.409,0.680043,0.0,0.0
456,113.75,48.4874,50.8661,161.258,109.988,101.847,0.000440327,0.0704549,21.0218,-469.43,0.680175,0.0,0.0
458,114.25,47.559,50.7326,163.205,109.983,101.339,0.000405402,0.0701693,21.0221,-469.43,0.723979,0.0,0.0
460,114.75,47.3528,50.8283,163.401,109.985,101.593,0.000369509,0.0698864,21.0223,-469.43,0.702054,0.0,0.0
462,115.25,47.8216,51.0135,161.382,109.982,101.91,0.000350605,0.0695929,21.0224,-469.419,0.674177,0.0,0.0
464,115.75,47.7928,50.5829,154.863,109.982,102.111,0.000295631,0.0692972,21.0227,-469.43,0.656718,0.0,0.0
466,116.25,47.2751,50.0935,157.012,109.963,102.484,0.000275248,0.068979,21.023,-469.43,0.622991,0.0,0.0
468,116.75,47.0484,50.6399,161.512,109.978,101.403,0.000240392,0.0686504,21.0235,-469.43,0.71802,0.0,0.0
470,117.25,47.3792,50.4303,158.415,109.955,101.5,0.000212159,0.0682698,21.0239,-469.44,0.707759,0.0,0.0
472,117.75,47.498,50.2872,156.91,109.962,101.669,0.00016753,0.0678586,21.0245,-469.43,0.693557,0.0,0.0
474,118.25,47.4963,50.4673,162.956,109.958,101.972,0.000155525,0.0676833,21.0251,-469.419,0.66691,0.0,0.0
476,118.75,47.2816,50.3772,159.795,109.951,101.883,0.000126577,0.0669071,21.0257,-469.43,0.674082,0.0,0.0
478,119.25,47.4997,50.6229,159.634,109.941,101.796,0.000103129,0.0666983,21.0261,-469.449,0.68079,0.0,0.0
480,119.75,47.5817,50.4403,158.152,109.943,102.126,6.00844e-05,0.0661984,21.0267,-469.44,0.652384,0.0,0.0
482,120.25,47.3233,50.3019,163.445,109.947,101.911,2.52187e-05,0.0656649,21.0274,-469.43,0.671323,0.0,0.0
484,120.75,47.1679,50.0893,160.967,109.945,102.336,-1.31494e-05,0.0652327,21.028,-469.44,0.634334,0.0,0.0
486,121.25,47.1174,50.2251,162.456,109.947,102.009,-5.33416e-05,0.0646792,21.0289,-469.449,0.662767,0.0,0.0
488,121.75,47.295,49.9384,160.083,109.939,102.153,-9.79229e-05,0.0642309,21.0296,-469.44,0.649703,0.0,0.0
490,122.25,47.5144,50.113,159.669,109.928,101.798,-0.000134034,0.0637321,21.0302,-469.449,0.679602,0.0,0.0
492,122.75,47.6381,50.541,165.689,109.944,101.721,-0.000169296,0.0633281,21.0307,-469.43,0.687596,0.0,0.0
494,123.25,47.157,50.6091,160.586,109.923,101.269,-0.000197859,0.0628939,21.0313,-469.449,0.725259,0.0,0.0
496,123.75,46.7542,49.9425,157.624,109.926,101.508,-0.000220995,0.0624458,21.032,-469.46,0.704635,0.0,0.0
498,124.25,47.1792,49.8554,159.634,109.924,101.697,-0.000239735,0.0620187,21.0326,-469.48,0.688052,0.0,0.0
500,124.75,47.3514,50.5842,157.662,109.922,102.135,-0.000256117,0.061615,21.0327,-469.47,0.649861,0.0,0.0
502,125.25,47.0604,49.9807,161.543,109.92,101.793,-0.000269386,0.0612067,21.0328,-469.47,0.679424,0.0,0.0
504,125.75,47.4394,50.025,162.801,109.911,101.474,-0.000284945,0.060876,21.0331,-469.47,0.706418,0.0,0.0
506,126.25,46.4506,49.6604,157.881,109.913,102.098,-0.000297547,0.0606081,21.0335,-469.47,0.65236,0.0,0.0
508,126.75,46.7565,50.2198,162.037,109.914,101.639,-0.000329401,0.0602984,21.0341,-469.48,0.692319,0.0,0.0
510,127.25,47.0239,50.0078,159.633,109.912,101.476,-0.000355204,0.0599642,21.0348,-469.47,0.706334,0.0,0.0
512,127.75,47.2527,49.8237,159.467,109.91,101.595,-0.000395344,0.0596935,21.0354,-469.47,0.695846,0.0,0.0
514,128.25,46.7614,50.0709,159.469,109.914,101.603,-0.000427857,0.0592982,21.0359,-469.46,0.69543,0.0,0.0
516,128.75,47.1616,49.789,164.365,109.931,101.374,-0.000477042,0.058978,21.0362,-469.46,0.716745,0.0,0.0
518,129.25,47.3271,50.0401,159.817,109.943,101.315,-0.000516882,0.0585562,21.0365,-469.46,0.72281,0.0,0.0
520,129.75,47.0224,50.3153,156.807,109.951,101.793,-0.000567508,0.0582146,21.0368,-469.449,0.681876,0.0,0.0
522,130.25,47.1025,50.2356,157.123,109.976,101.763,-0.000625033,0.0578524,21.037,-469.47,0.686546,0.0,0.0
524,130.75,47.3127,50.3478,159.345,109.979,101.577,-0.000671629,0.0574822,21.0371,-469.46,0.702913,0.0,0.0
526,131.25,46.7922,49.6922,160.518,109.998,101.137,-0.000726461,0.0571039,21.0373,-469.449,0.742896,0.0,0.0
528,131.75,47.2744,49.9578,160.567,110.008,101.623,-0.000786255,0.0567271,21.0374,-469.47,0.701187,0.0,0.0
530,132.25,46.641,49.685,161.945,110.016,101.575,-0.000844814,0.0563365,21.0375,-469.47,0.706095,0.0,0.0
532,132.75,47.2563,49.65,161.218,110.026,101.18,-0.000901362,0.0559432,21.038,-469.48,0.741354,0.0,0.0
534,133.25,46.9621,49.8944,160.483,110.034,101.43,-0.000954761,0.0556247,21.0384,-469.47,0.720123,0.0,0.0
536,133.75,47.0409,49.911,166.034,110.035,101.265,-0.00100485,0.055245,21.0387,-469.49,0.734646,0.0,0.0
538,134.25,46.5658,49.3718,162.189,110.051,101.998,-0.00105302,0.0549374,21.039,-469.48,0.672094,0.0,0.0
540,134.75,46.923,50.0785,156.236,110.07,101.288,-0.00109887,0.0546172,21.0392,-469.47,0.735427,0.0,0.0
542,135.25,46.8926,49.2975,159.9,110.076,102.448,-0.00111841,0.0542938,21.0393,-469.47,0.635178,0.0,0.0
544,135.75,46.9608,49.979,161.18,110.086,102.316,-0.00116266,0.0540318,21.0395,-469.48,0.647413,0.0,0.0
546,136.25,47.2987,49.2815,156.41,110.097,102.038,-0.0011985,0.0536711,21.0396,-469.5,0.672417,0.0,0.0
548,136.75,46.8385,49.6073,160.975,110.104,101.635,-0.00122633,0.0533788,21.0397,-469.5,0.707891,0.0,0.0
550,137.25,46.6229,50.1105,164.203,110.123,102.225,-0.00124887,0.053034,21.0403,-469.49,0.658277,0.0,0.0
552,137.75,47.0234,49.7857,161.894,110.116,102.084,-0.00126713,0.0527548,21.0407,-469.51,0.669921,0.0,0.0
554,138.25,46.6279,49.1572,163.951,110.12,102.055,-0.00126629,0.0525789,21.0413,-469.52,0.672717,0.0,0.0
556,138.75,46.2971,49.268,163.444,110.131,102.327,-0.0012656,0.0522781,21.042,-469.51,0.650111,0.0,0.0
558,139.25,46.9353,49.5513,161.263,110.146,102.144,-0.00125423,0.0518859,21.0425,-469.49,0.667045,0.0,0.0
560,139.75,46.9728,49.6671,156.627,110.158,101.853,-0.00124501,0.0515683,21.043,-469.5,0.693246,0.0,0.0
562,140.25,46.6977,49.8098,161.416,110.177,101.569,-0.00123565,0.0512258,21.0433,-469.49,0.719466,0.0,0.0
564,140.75,46.3534,49.3344,166.804,110.178,101.541,-0.00122636,0.0508716,21.0441,-469.48,0.722022,0.0,0.0
566,141.25,46.7563,49.6209,159.176,110.2,102.121,-0.00122136,0.0505847,21.0447,-469.48,0.67346,0.0,0.0
568,141.75,46.4455,49.5078,160.654,110.215,101.564,-0.00121959,0.0502444,21.0452,-469.5,0.723022,0.0,0.0
570,142.25,46.9477,49.654,162.988,110.225,101.606,-0.00122386,0.0499688,21.0456,-469.49,0.720148,0.0,0.0
572,142.75,46.3031,49.3773,162.241,110.234,102.645,-0.00123244,0.049678,21.0459,-469.51,0.630916,0.0,0.0
574,143.25,46.5902,49.2688,164.875,110.254,101.971,-0.00124255,0.0494426,21.0461,-469.5,0.690793,0.0,0.0
576,143.75,46.6596,49.587,163.253,110.264,102.221,-0.00125359,0.0492021,21.0463,-469.49,0.669916,0.0,0.0
578,144.25,46.6708,48.9524,160.155,110.281,101.85,-0.00126254,0.0489626,21.0465,-469.49,0.703497,0.0,0.0
580,144.75,46.5151,49.4979,163.665,110.296,102.27,-0.00127295,0.0487474,21.0467,-469.47,0.668293,0.0,0.0
582,145.25,46.6873,49.3011,165.852,110.31,102.085,-0.00128422,0.0485538,21.0472,-469.48,0.685357,0.0,0.0
584,145.75,46.5752,49.5974,157.212,110.314,101.964,-0.00129589,0.0483545,21.0477,-469.49,0.696239,0.0,0.0
586,146.25,46.5654,49.2816,160.157,110.336,102.093,-0.00130762,0.0481547,21.048,-469.49,0.686792,0.0,0.0
588,146.75,46.4711,49.0835,159.848,110.331,102.421,-0.00131712,0.0479929,21.0483,-469.48,0.658016,0.0,0.0
590,147.25,46.5575,49.1602,162.202,110.353,101.656,-0.00132482,0.0478078,21.0486,-469.49,0.72605,0.0,0.0
592,147.75,46.228,48.9996,156.563,110.357,102.518,-0.00135743,0.047658,21.0491,-469.5,0.651635,0.0,0.0
594,148.25,46.8595,49.7228,163.013,110.361,102.513,-0.00138384,0.0474727,21.0498,-469.49,0.65249,0.0,0.0
596,148.75,46.7153,49.5331,155.496,110.376,102.222,-0.00142688,0.0472652,21.0503,-469.49,0.678848,0.0,0.0
598,149.25,46.5191,49.3373,159.006,110.384,101.875,-0.00146174,0.0470971,21.0507,-469.47,0.709514,0.0,0.0
600,149.75,46.6728,49.2645,159.78,110.381,101.91,-0.00151162,0.046961,21.0509,-469.46,0.706207,0.0,0.0
602,150.25,46.4931,49.5051,160.918,110.399,102.498,-0.00155203,0.0467429,21.0511,-469.48,0.656772,0.0,0.0
604,150.75,46.3623,49.0592,156.779,110.402,102.377,-0.00158792,0.0465662,21.0513,-469.49,0.66747,0.0,0.0
606,151.25,46.0377,48.2582,161.616,110.421,102.382,,0.0463944,,-469.49,0.668531,0.0,0.0
608,151.75,45.8798,48.423,159.171,110.419,101.818,,0.0462293,,-469.48,0.717277,0.0,0.0
610,152.25,46.2125,48.9955,160.607,110.434,102.233,,0.0460459,,-469.52,0.682521,0.0,0.0
612,152.75,46.5175,49.1271,157.413,110.442,102.238,,0.0458527,,-469.52,0.682702,0.0,0.0
614,153.25,46.493,48.8987,157.818,110.452,102.245,,0.0456424,,-469.52,0.682934,0.0,0.0
616,153.75,46.3154,49.2095,160.041,110.455,102.333,,0.045472,,-469.51,0.675538,0.0,0.0
618,154.25,45.9259,48.7172,159.408,110.48,102.03,,,,-469.51,0.703724,0.0,0.0
620,154.75,46.4645,48.7828,159.963,110.479,102.138,,,,-469.51,0.69433,0.0,0.0
622,155.25,45.6698,48.4825,158.269,110.502,102.173,,,,-469.52,0.693121,0.0,0.0
624,155.75,45.5059,48.0482,162.322,110.506,102.347,,,,-469.53,0.67834,0.0,0.0
626,156.25,46.4431,48.8159,163.566,110.509,102.135,,,,-469.51,0.697047,0.0,0.0
628,156.75,46.0957,48.9662,163.917,110.529,102.518,,,,-469.54,0.665494,0.0,0.0
630,157.25,46.4195,48.8472,158.909,110.536,102.32,,,,-469.52,0.683175,0.0,0.0
632,157.75,46.2164,49.1929,163.163,110.541,102.161,,,,-469.52,0.697241,0.0,0.0
634,158.25,45.8359,48.9242,162.368,110.558,101.963,,,,-469.53,0.7158,0.0,0.0
636,158.75,46.134,48.5888,155.318,110.558,102.263,,,,-469.51,0.689848,0.0,0.0
638,159.25,45.9095,48.5541,161.965,110.568,102.499,,,,-469.51,0.670226,0.0,0.0
640,159.75,45.8663,48.8705,158.116,110.579,102.042,,,,-469.52,0.710685,0.0,0.0
642,160.25,46.1481,48.585,163.333,110.59,102.369,,,,-469.51,0.683248,0.0,0.0
644,160.75,45.9506,48.8774,162.802,110.594,102.538,,,,-469.52,0.668963,0.0,0.0
646,161.25,46.4218,48.9278,164.542,110.596,102.44,,,,-469.53,0.677574,0.0,0.0
648,161.75,46.0291,49.077,162.238,110.613,102.938,,,,-469.52,0.636045,0.0,0.0