File: 01_Data/Rubber_Foam_Pipe_Insulation/Cone/Rubber_Foam_Pipe_Insulation_Cone_HF50Scan_220307_R2.csv
Names,Time,Stack TC,Smoke TC,Exh Press,Smoke Comp,Smoke Meas,CO Meter,CO2 Meter,O2 Meter,Sample Mass,Ext Coeff,Start Test,Flame Verif
Chan Gain,,500,500,1,1,1,1,1,1,1,1,1.0,1.0
Offset,,0,0,0.13378,0,0,0,0,0,0,0,0.0,0.0
Gain,,1,1,25.011,14.4955,14.6297,1,1,1,1.00092,1.00831,1.0,1.0
Units,sec,C,C,Pa,%,%,%,%,%,g,/m,,
Baseline,,30.9185,32.0609,169.869,111.129,103.386,-0.00190038,0.0381952,21.0644,-946.109,0.638832,,
2,0.25,29.8667,30.9449,161.795,109.34,78.9917,0.00418155,0.10417,20.9411,-456.368,2.87559,0.0,1.0
4,0.75,29.3538,30.0862,153.364,109.331,66.9979,0.00534975,0.12773,20.9023,-456.458,4.33149,0.0,1.0
6,1.25,29.7699,30.4105,148.458,109.321,61.0069,0.00650039,0.146814,20.8709,-456.648,5.15921,0.0,1.0
8,1.75,30.0539,30.9421,149.376,109.323,60.5965,0.00761637,0.174275,20.8294,-456.688,5.21904,0.0,1.0
10,2.25,30.1922,30.7303,148.119,109.297,62.1172,0.00859588,0.196519,20.7958,-456.708,4.99774,0.0,1.0
12,2.75,30.5896,31.2941,149.827,109.29,67.0136,0.00945729,0.217808,20.7623,-456.788,4.32606,0.0,1.0
14,3.25,30.9601,31.9872,156.424,109.296,69.8597,0.010153,0.237996,20.7351,-456.848,3.9587,0.0,1.0
16,3.75,31.5052,32.0245,154.499,109.28,70.5424,0.0107147,0.255117,20.7132,-456.938,3.87137,0.0,1.0
18,4.25,32.0058,32.4244,152.274,109.267,68.54,0.0111697,0.269676,20.6954,-457.008,4.12499,0.0,1.0
20,4.75,32.2679,32.6295,155.544,109.262,70.7835,0.0115382,0.281018,20.6809,-457.078,3.83976,0.0,1.0
22,5.25,32.9694,32.827,153.88,109.255,72.5479,0.011743,0.289798,20.6703,-457.128,3.62138,0.0,1.0
24,5.75,32.7319,33.4258,155.634,109.253,74.4945,0.0118245,0.295886,20.6627,-457.188,3.38704,0.0,0.0
26,6.25,32.8483,33.6064,158.297,109.236,77.767,0.0118905,0.299897,20.6566,-457.228,3.00542,0.0,0.0
28,6.75,33.5979,34.5712,153.67,109.233,77.5719,0.0118088,0.303145,20.6535,-457.268,3.02735,0.0,0.0
30,7.25,33.6824,34.5643,158.565,109.236,77.2572,0.0117425,0.304365,20.6526,-457.328,3.06356,0.0,0.0
32,7.75,34.3295,34.7396,157.662,109.21,78.4662,0.0116392,0.304084,20.6536,-457.398,2.92417,0.0,0.0
34,8.25,34.2111,34.9923,156.091,109.208,78.155,0.0115555,0.303856,20.6559,-457.459,2.95914,0.0,0.0
36,8.75,34.661,35.4061,150.917,109.203,79.6868,0.011475,0.303671,20.6577,-457.499,2.78707,0.0,0.0
38,9.25,35.0414,35.8535,153.373,109.2,80.107,0.0114098,0.302867,20.6592,-457.539,2.74027,0.0,0.0
40,9.75,35.1719,36.2021,159.195,109.196,79.9717,0.0113544,0.302215,20.6604,-457.609,2.7549,0.0,0.0
42,10.25,35.1862,36.2133,148.673,109.192,77.6139,0.0113096,0.301851,20.6614,-457.679,3.0193,0.0,0.0
44,10.75,34.9869,36.9211,155.668,109.191,78.7194,0.0112554,0.301704,20.6617,-457.749,2.89414,0.0,0.0
46,11.25,35.5689,36.6345,157.091,109.184,80.2329,0.0112116,0.301815,20.6616,-457.829,2.72513,0.0,0.0
48,11.75,36.1146,36.6405,155.553,109.171,78.8153,0.0111265,0.302112,20.6614,-457.879,2.88172,0.0,0.0
50,12.25,36.0567,37.0263,153.878,109.179,80.699,0.0110576,0.302623,20.6609,-457.919,2.67347,0.0,0.0
52,12.75,36.7721,37.559,155.104,109.168,77.876,0.0110018,0.303282,20.6604,-457.989,2.98755,0.0,0.0
54,13.25,36.354,37.7114,152.139,109.167,81.8785,0.0108179,0.304153,20.6595,-458.069,2.54412,0.0,0.0
56,13.75,37.2122,37.9957,155.056,109.156,81.0892,0.010724,0.305163,20.6588,-458.119,2.62894,0.0,0.0
58,14.25,36.8937,38.4516,162.665,109.165,80.9642,0.0106652,0.306228,20.6586,-458.199,2.6433,0.0,0.0
60,14.75,37.4781,38.6715,154.548,109.15,79.873,0.0105648,0.307315,20.6572,-458.249,2.76209,0.0,0.0
62,15.25,37.6051,39.0685,160.286,109.15,81.2133,0.0104835,0.308194,20.6561,-458.339,2.61494,0.0,0.0
64,15.75,37.8464,39.4019,156.054,109.136,78.8725,0.010448,0.309001,20.6552,-458.369,2.87248,0.0,0.0
66,16.25,37.6843,39.7928,155.525,109.147,81.7486,0.0104192,0.309933,20.6545,-458.459,2.55658,0.0,0.0
68,16.75,38.354,39.6941,153.199,109.131,76.4018,0.0104745,0.31085,20.6532,-458.509,3.15358,0.0,0.0
70,17.25,38.1023,39.6734,154.371,109.133,77.676,0.0105194,0.31124,20.6516,-458.55,3.00743,0.0,0.0
72,17.75,38.5969,40.056,158.69,109.129,76.2879,0.0106072,0.312373,20.649,-458.59,3.16659,0.0,0.0
74,18.25,39.2506,39.8823,153.245,109.127,75.7776,0.0107247,0.313708,20.6459,-458.63,3.22578,0.0,0.0
76,18.75,39.3004,40.4281,152.039,109.12,71.9751,0.0108668,0.31479,20.6434,-458.71,3.68056,0.0,0.0
78,19.25,38.8034,40.7145,154.331,109.13,76.2116,0.0110241,0.315957,20.64,-458.77,3.17548,0.0,0.0
80,19.75,39.056,40.7151,158.174,109.118,75.1191,0.0111515,0.317164,20.6373,-458.83,3.30222,0.0,0.0
82,20.25,39.5906,41.4218,157.237,109.11,73.1113,0.0113212,0.3183,20.635,-458.89,3.54127,0.0,0.0
84,20.75,40.0982,41.3665,151.012,109.109,74.0958,0.0113935,0.319363,20.6341,-458.93,3.42282,0.0,0.0
86,21.25,40.1377,41.4952,146.377,109.121,70.1607,0.0114928,0.320082,20.6325,-458.97,3.90646,0.0,0.0
88,21.75,40.2663,41.9346,155.719,109.097,71.9787,0.0115733,0.320537,20.6312,-459.07,3.67829,0.0,0.0
90,22.25,40.5971,41.9957,157.253,109.106,72.105,0.0115942,0.320076,20.6301,-459.12,3.66346,0.0,0.0
92,22.75,40.8392,41.6843,158.405,109.1,72.8216,0.0115713,0.318955,20.6315,-459.19,3.57556,0.0,0.0
94,23.25,40.4128,42.129,153.392,109.105,72.6211,0.0114784,0.318047,20.6326,-459.21,3.6003,0.0,0.0
96,23.75,40.7433,42.3863,156.831,109.09,75.3731,0.0113363,0.316572,20.6371,-459.24,3.27014,0.0,0.0
98,24.25,41.2779,42.6621,158.754,109.101,75.9665,0.0111365,0.314049,20.6407,-459.3,3.20165,0.0,0.0
100,24.75,40.9091,43.1229,155.447,109.088,75.7464,0.0108985,0.311178,20.6463,-459.34,3.22631,0.0,0.0
102,25.25,41.7258,43.2389,155.19,109.102,76.7429,0.0106187,0.308108,20.6509,-459.38,3.11182,0.0,0.0
104,25.75,41.9407,43.6126,156.23,109.078,76.6857,0.0103137,0.30488,20.6546,-459.43,3.11647,0.0,0.0
106,26.25,42.2262,43.4314,158.681,109.087,79.5042,0.0100667,0.301598,20.6598,-459.47,2.79793,0.0,0.0
108,26.75,41.519,44.0806,154.514,109.088,80.6106,0.00986667,0.298939,20.664,-459.49,2.67577,0.0,0.0
110,27.25,41.9893,43.5683,157.355,109.098,79.7458,0.00943363,0.295246,20.6674,-459.53,2.772,0.0,0.0
112,27.75,41.7137,43.8229,157.069,109.079,81.3133,0.00908287,0.292254,20.6716,-459.58,2.59828,0.0,0.0
114,28.25,42.1514,44.2695,158.794,109.08,83.6367,0.00879875,0.288773,20.6763,-459.6,2.34914,0.0,0.0
116,28.75,42.2628,44.6776,162.382,109.076,83.8755,0.00838777,0.285954,20.6816,-459.631,2.32366,0.0,0.0
118,29.25,42.6997,44.7356,156.431,109.084,83.4568,0.00805488,0.28367,20.6872,-459.681,2.36858,0.0,0.0
120,29.75,42.8338,44.7865,155.333,109.068,81.7589,0.00767961,0.280522,20.6929,-459.731,2.54909,0.0,0.0
122,30.25,42.7276,44.8492,159.771,109.076,82.9996,0.00737565,0.277973,20.6987,-459.721,2.41648,0.0,0.0
124,30.75,42.8254,44.6011,158.678,109.05,84.3095,0.00702041,0.275908,20.7047,-459.781,2.27587,0.0,0.0
126,31.25,42.69,44.5175,156.192,109.074,85.1118,0.00673266,0.272746,20.7108,-459.791,2.19407,0.0,0.0
128,31.75,42.8507,45.0861,159.955,109.057,84.6363,0.00643977,0.270186,20.7172,-459.821,2.24222,0.0,0.0
130,32.25,43.4684,44.877,155.842,109.072,87.2745,0.00614869,0.267523,20.7237,-459.861,1.97192,0.0,0.0
132,32.75,43.1434,45.1012,154.851,109.045,85.8025,0.00580575,0.264835,20.7306,-459.891,2.12018,0.0,0.0
134,33.25,43.4109,45.7034,157.713,109.076,88.6179,0.00552797,0.261795,20.7376,-459.891,1.83717,0.0,0.0
136,33.75,42.9724,45.5236,158.347,109.062,90.4184,0.00530297,0.258556,20.7433,-459.961,1.65814,0.0,0.0
138,34.25,43.04,45.7511,158.145,109.078,89.8586,0.00495504,0.255073,20.7496,-459.951,1.71434,0.0,0.0
140,34.75,43.4192,45.7488,162.137,109.08,91.3837,0.00467321,0.25148,20.7562,-459.981,1.56566,0.0,0.0
142,35.25,43.1735,45.7909,159.699,109.075,91.9918,0.00433489,0.247622,20.7634,-460.011,1.5066,0.0,0.0
144,35.75,43.416,46.0569,160.603,109.068,92.2668,0.00406085,0.243644,20.7709,-460.021,1.47966,0.0,0.0
146,36.25,43.551,46.1662,162.542,109.064,94.2513,0.00377661,0.240422,20.777,-460.041,1.29105,0.0,0.0
148,36.75,43.6255,45.891,160.164,109.062,95.7854,0.00349034,0.235552,20.7836,-460.051,1.14814,0.0,0.0
150,37.25,43.2959,46.0171,159.112,109.068,94.6232,0.00325846,0.231607,20.7904,-460.091,1.25657,0.0,0.0
152,37.75,43.8005,46.1162,160.738,109.061,97.1257,0.00298312,0.225978,20.8006,-460.101,1.02509,0.0,0.0
154,38.25,44.1942,46.0661,158.901,109.069,97.5025,0.00276009,0.221418,20.8088,-460.111,0.991522,0.0,0.0
156,38.75,43.8369,46.2918,158.646,109.066,97.2761,0.0025491,0.216745,20.8173,-460.141,1.01183,0.0,0.0
158,39.25,44.1018,46.2776,154.003,109.086,97.8119,0.00238458,0.212076,20.826,-460.131,0.9649,0.0,0.0
160,39.75,43.7026,46.0197,166.254,109.055,98.87,0.00225707,0.208295,20.8374,-460.151,0.867185,0.0,0.0
162,40.25,43.9609,46.3874,159.874,109.071,99.1423,0.00215379,0.20243,20.8467,-460.151,0.844146,0.0,0.0
164,40.75,44.0382,45.9042,161.647,109.057,98.5923,0.00211104,0.19768,20.8542,-460.161,0.892242,0.0,0.0
166,41.25,44.5662,45.1448,165.577,109.069,99.2196,0.00211325,0.191853,20.8634,-460.171,0.83715,0.0,0.0
168,41.75,43.9373,46.1651,160.803,109.056,99.7062,0.00214963,0.187133,20.8709,-460.181,0.7928,0.0,0.0
170,42.25,42.1608,46.7788,161.635,109.065,99.5794,0.00221023,0.181287,20.88,-460.191,0.804772,0.0,0.0
172,42.75,43.9281,46.0434,162.339,109.058,100.133,0.00228305,0.176551,20.8875,-460.191,0.755161,0.0,0.0
174,43.25,44.7025,46.2016,163.969,109.075,100.594,0.0023634,0.170718,20.8966,-460.201,0.715955,0.0,0.0
176,43.75,43.8441,46.0235,163.146,109.064,100.357,0.00244262,0.165993,20.904,-460.211,0.735964,0.0,0.0
178,44.25,43.6189,46.4387,167.231,109.068,99.9044,0.00251949,0.162165,20.9132,-460.221,0.776165,0.0,0.0
180,44.75,44.1894,45.6196,167.156,109.072,100.4,0.00258755,0.15715,20.9206,-460.231,0.732797,0.0,0.0
182,45.25,43.8499,46.1982,166.28,109.07,100.737,0.00264788,0.152445,20.9293,-460.231,0.702968,0.0,0.0
184,45.75,43.8672,45.6076,170.141,109.065,101.247,0.00270188,0.148056,20.9363,-460.251,0.657959,0.0,0.0
186,46.25,43.7802,45.9876,164.612,109.065,100.582,0.00275026,0.143935,20.9433,-460.261,0.716191,0.0,0.0
188,46.75,43.0237,45.9054,168.637,109.067,100.523,0.00278944,0.140087,20.949,-460.261,0.721479,0.0,0.0
190,47.25,43.2619,45.7741,164.059,109.079,100.264,0.00282118,0.13697,20.9536,-460.281,0.745296,0.0,0.0
192,47.75,43.6747,45.181,160.686,109.073,100.873,0.00287261,0.133525,20.9578,-460.281,0.691235,0.0,0.0
194,48.25,43.2573,45.9224,166.661,109.07,100.853,0.00291427,0.130238,20.9617,-460.291,0.692782,0.0,0.0
196,48.75,42.9077,45.8272,169.001,109.068,100.97,0.0029639,0.127127,20.9654,-460.301,0.682387,0.0,0.0
198,49.25,42.659,45.7553,163.432,109.081,100.326,0.00300411,0.124607,20.969,-460.311,0.740007,0.0,0.0
200,49.75,42.6091,45.7858,165.663,109.084,100.781,0.00305502,0.121692,20.9719,-460.311,0.700275,0.0,0.0
202,50.25,42.8501,45.5176,173.622,109.08,100.539,0.00309626,0.119331,20.9747,-460.321,0.72114,0.0,0.0
204,50.75,43.0128,45.0453,165.467,109.096,100.84,0.00312966,0.117419,20.9774,-460.341,0.695998,0.0,0.0
206,51.25,42.9647,45.1973,172.448,109.086,100.283,0.00318976,0.114969,20.9797,-460.341,0.744181,0.0,0.0
208,51.75,42.5008,44.9064,163.347,109.087,100.86,0.00323844,0.112985,20.9816,-460.351,0.693595,0.0,0.0
210,52.25,42.5084,45.2033,169.426,109.091,100.541,0.00329502,0.111019,20.9835,-460.361,0.721915,0.0,0.0
212,52.75,42.2084,45.1592,168.012,109.099,100.361,0.00334084,0.109426,20.9851,-460.371,0.738332,0.0,0.0
214,53.25,42.2481,45.1674,167.012,109.091,101.217,0.00338531,0.108136,20.9867,-460.371,0.662618,0.0,0.0
216,53.75,42.1233,44.5326,169.385,109.097,100.743,0.00342133,0.106939,20.9883,-460.371,0.704572,0.0,0.0
218,54.25,42.1389,44.6876,168.547,109.088,101.038,0.00345051,0.105831,20.9895,-460.391,0.677983,0.0,0.0
220,54.75,42.1326,44.686,163.569,109.105,100.613,0.00346924,0.104769,20.9905,-460.391,0.716631,0.0,0.0
222,55.25,41.9236,44.4428,165.502,109.103,100.699,0.00348635,0.103908,20.9913,-460.401,0.708955,0.0,0.0
224,55.75,41.0715,43.6123,167.821,109.099,100.872,0.00350195,0.103066,20.9919,-460.411,0.693434,0.0,0.0
226,56.25,40.4543,43.3813,169.645,109.1,101.08,0.00351458,0.102253,20.9925,-460.431,0.675314,0.0,0.0
228,56.75,40.3628,43.6582,165.639,109.106,100.869,0.00353952,0.101443,20.9931,-460.431,0.694317,0.0,0.0
230,57.25,40.7671,43.5267,159.637,109.104,100.735,0.00355972,0.100649,20.9939,-460.431,0.705851,0.0,0.0
232,57.75,40.7789,43.3118,167.838,109.108,100.877,0.00358899,0.100006,20.9945,-460.441,0.693757,0.0,0.0
234,58.25,40.8713,42.7962,167.812,109.11,100.73,0.00362431,0.0991275,20.9954,-460.441,0.706821,0.0,0.0
236,58.75,40.3255,43.217,164.63,109.122,100.862,0.00365292,0.0984158,20.9962,-460.451,0.696231,0.0,0.0
238,59.25,39.5351,42.7286,169.556,109.112,101.362,0.00369695,0.0975505,20.9968,-460.461,0.651669,0.0,0.0
240,59.75,40.3457,42.6244,170.788,109.132,100.922,0.0037436,0.0968495,20.9973,-460.461,0.691739,0.0,0.0
242,60.25,41.0299,43.3473,165.164,109.11,100.713,0.00379127,0.0961031,20.9981,-460.451,0.708311,0.0,0.0
244,60.75,40.4643,42.9083,168.795,109.13,100.48,0.00382988,0.0954984,20.9988,-460.461,0.730343,0.0,0.0
246,61.25,40.0748,43.0886,163.101,109.124,101.543,0.00387602,0.0950087,20.9994,-460.471,0.636834,0.0,0.0
248,61.75,40.5647,43.3254,163.704,109.132,100.899,0.00392678,0.0944059,20.9998,-460.461,0.693771,0.0,0.0
250,62.25,40.4361,42.6842,160.576,109.124,101.614,0.00397371,0.0939176,21.0002,-460.461,0.630614,0.0,0.0
252,62.75,39.9132,42.6867,168.948,109.149,100.455,0.00401697,0.0933985,21.0009,-460.461,0.734157,0.0,0.0
254,63.25,39.1723,41.8601,170.427,109.138,101.253,0.00403541,0.092978,21.0013,-460.461,0.663295,0.0,0.0
256,63.75,39.8755,42.1808,165.304,109.146,101.201,0.0040608,0.0925723,21.0018,-460.471,0.668426,0.0,0.0
258,64.25,39.8784,42.4559,172.874,109.13,100.475,0.00408137,0.0921852,21.0022,-460.471,0.730811,0.0,0.0
260,64.75,39.8002,42.3957,167.602,109.146,101.168,0.00407468,0.0917489,21.0026,-460.471,0.671389,0.0,0.0
262,65.25,39.8598,42.8213,168.071,109.145,101.543,0.00406927,0.0912849,21.0029,-460.471,0.638551,0.0,0.0
264,65.75,40.3078,42.8002,164.372,109.157,101.176,0.00403787,0.0909091,21.0033,-460.491,0.671623,0.0,0.0
266,66.25,39.8184,42.5566,168.279,109.151,101.73,0.00401244,0.0906406,21.0039,-460.501,0.62278,0.0,0.0
268,66.75,39.6947,42.1909,170.417,109.167,100.99,0.0039808,0.0901814,21.0047,-460.501,0.688626,0.0,0.0
270,67.25,38.9674,41.5903,168.937,109.155,100.85,0.00395517,0.0897373,21.0054,-460.511,0.699867,0.0,0.0
272,67.75,39.2172,42.0687,170.534,109.159,101.13,0.00393441,0.0893127,21.0061,-460.511,0.675751,0.0,0.0
274,68.25,39.481,42.0655,164.246,109.159,101.3,0.00392496,0.0889138,21.0066,-460.511,0.660882,0.0,0.0
276,68.75,39.5853,42.5379,166.924,109.176,101.13,0.0039173,0.0885908,21.007,-460.511,0.677073,0.0,0.0
278,69.25,39.3862,41.0964,167.475,109.169,100.657,0.00390464,0.0882859,21.0074,-460.511,0.718023,0.0,0.0
280,69.75,39.1948,42.0132,167.177,109.19,101.09,0.00388858,0.0879999,21.0076,-460.501,0.681735,0.0,0.0
282,70.25,38.9189,41.6115,165.858,109.179,101.238,0.00386459,0.0876961,21.0079,-460.521,0.667955,0.0,0.0
284,70.75,39.3812,41.5734,166.554,109.188,101.472,0.00383528,0.0873852,21.008,-460.531,0.648217,0.0,0.0
286,71.25,39.0654,41.6761,163.715,109.183,101.591,0.00380058,0.0871333,21.0082,-460.521,0.637402,0.0,0.0
288,71.75,38.8854,41.6138,166.739,109.184,101.264,0.0037626,0.086814,21.0083,-460.531,0.666047,0.0,0.0
290,72.25,39.0599,41.5144,171.233,109.194,101.731,0.00371766,0.0864515,21.0084,-460.521,0.626176,0.0,0.0
292,72.75,38.5387,41.2843,163.887,109.204,101.824,0.00366848,0.0861218,21.0085,-460.531,0.618891,0.0,0.0
294,73.25,39.0485,41.503,167.982,109.194,101.222,0.00362866,0.0858224,21.0085,-460.551,0.670577,0.0,0.0
296,73.75,39.1759,41.205,173.189,109.215,101.334,0.00355519,0.0855726,21.0086,-460.571,0.662435,0.0,0.0
298,74.25,39.1827,41.6147,166.429,109.208,101.745,0.00345861,0.0853638,21.0086,-460.551,0.62608,0.0,0.0
300,74.75,38.7653,41.4761,166.094,109.22,101.112,0.00338038,0.085181,21.0085,-460.571,0.682219,0.0,0.0
302,75.25,38.6578,41.2186,165.952,109.21,100.909,0.00327974,0.085033,21.0082,-460.571,0.699293,0.0,0.0
304,75.75,38.8542,40.9075,172.474,109.224,100.969,0.00316469,0.084877,21.008,-460.561,0.695086,0.0,0.0
306,76.25,38.0103,41.263,164.673,109.212,101.379,0.0030606,0.0847182,21.0079,-460.571,0.658289,0.0,0.0
308,76.75,38.4346,41.2655,165.358,109.234,101.251,0.00296646,0.0845896,21.0077,-460.581,0.671228,0.0,0.0
310,77.25,38.6742,40.9914,164.695,109.229,100.619,0.00289021,0.0844855,21.0076,-460.591,0.726231,0.0,0.0
312,77.75,38.499,41.2004,163.996,109.229,101.088,0.00283332,0.0841685,21.0075,-460.601,0.685005,0.0,0.0
314,78.25,38.5749,41.1212,168.598,109.242,101.037,0.00278724,0.0839117,21.0074,-460.611,0.690573,0.0,0.0
316,78.75,38.1581,41.1292,165.17,109.256,101.246,0.00276943,0.0836533,21.0074,-460.601,0.673412,0.0,0.0
318,79.25,38.1691,41.0627,165.573,109.242,101.445,0.002755,0.0833987,21.0073,-460.611,0.654959,0.0,0.0
320,79.75,38.1212,41.335,165.661,109.248,100.951,0.00275162,0.0831996,21.0077,-460.621,0.698546,0.0,0.0
322,80.25,38.3252,40.8944,170.711,109.258,101.034,0.00275636,0.0830448,21.0081,-460.621,0.692175,0.0,0.0
324,80.75,38.0194,40.8214,164.323,109.266,101.243,0.00275764,0.0829195,21.0085,-460.621,0.674469,0.0,0.0
326,81.25,38.3179,40.9899,164.2,109.266,101.068,0.00275636,0.0828179,21.0089,-460.631,0.689771,0.0,0.0
328,81.75,38.5472,40.5045,168.547,109.284,100.696,0.00275532,0.0827357,21.0091,-460.641,0.723885,0.0,0.0
330,82.25,37.7992,40.4145,170.141,109.271,100.98,0.00273972,0.0826691,21.0094,-460.651,0.697905,0.0,0.0
332,82.75,38.3122,40.7314,164.21,109.298,102.253,0.00271379,0.0826151,21.0095,-460.641,0.589293,0.0,0.0
334,83.25,38.1339,40.6515,167.665,109.281,101.487,0.00268509,0.0825143,21.0097,-460.651,0.654491,0.0,0.0
336,83.75,38.039,40.8142,167.386,109.294,101.134,0.00266921,0.0823812,21.0098,-460.651,0.686285,0.0,0.0
338,84.25,38.0372,40.0878,169.597,109.283,101.405,0.00262599,0.0822734,21.0099,-460.681,0.661757,0.0,0.0
340,84.75,37.8592,40.739,169.524,109.299,102.026,0.00261153,0.082104,21.01,-460.641,0.609043,0.0,0.0
342,85.25,37.8376,40.478,167.791,109.304,101.308,0.00258681,0.0819669,21.01,-460.661,0.671894,0.0,0.0
344,85.75,37.8579,40.1453,165.832,109.32,100.93,0.00255703,0.081791,21.0103,-460.671,0.706256,0.0,0.0
346,86.25,37.7949,40.0063,167.911,109.314,101.481,0.00252587,0.0815903,21.0108,-460.671,0.657571,0.0,0.0
348,86.75,37.7785,40.4832,163.794,109.307,101.219,0.00249428,0.0815047,21.0111,-460.671,0.679941,0.0,0.0
350,87.25,37.8852,40.1889,167.613,109.329,100.754,0.0024578,0.08114,21.0114,-460.702,0.722479,0.0,0.0
352,87.75,37.5975,40.6286,168.669,109.32,100.935,0.00241845,0.0810419,21.0121,-460.702,0.705826,0.0,0.0
354,88.25,37.9624,40.2573,167.885,109.331,101.684,0.00238658,0.0807512,21.0127,-460.702,0.641315,0.0,0.0
356,88.75,37.9198,40.0212,165.887,109.338,101.491,0.00234028,0.0805157,21.0131,-460.681,0.658683,0.0,0.0
358,89.25,37.1277,39.7289,167.859,109.348,101.437,0.00228434,0.080243,21.0135,-460.681,0.664254,0.0,0.0
360,89.75,37.6925,39.8822,162.917,109.351,101.112,0.00223903,0.0800222,21.0138,-460.661,0.692891,0.0,0.0
362,90.25,37.1663,39.832,167.102,109.364,101.049,0.00216473,0.079775,21.014,-460.671,0.6994,0.0,0.0
364,90.75,37.7651,40.2538,162.134,109.356,101.124,0.00210456,0.0795747,21.0142,-460.681,0.692191,0.0,0.0
366,91.25,37.8217,39.7982,161.242,109.355,101.478,0.00203729,0.0793716,21.0144,-460.661,0.661246,0.0,0.0
368,91.75,37.9062,39.1078,163.671,109.349,101.384,0.00196613,0.079207,21.0148,-460.651,0.668957,0.0,0.0
370,92.25,37.3528,39.8436,172.094,109.363,101.234,0.0018806,0.0790522,21.0151,-460.661,0.683087,0.0,0.0
372,92.75,37.5592,39.8829,162.334,109.366,101.37,0.00181132,0.0789073,21.0154,-460.661,0.671524,0.0,0.0
374,93.25,36.7718,39.0676,169.667,109.36,101.618,0.00174372,0.07879,21.0156,-460.661,0.64939,0.0,0.0
376,93.75,36.8935,39.2413,168.372,109.377,101.319,0.00167864,0.0786586,21.0158,-460.681,0.676898,0.0,0.0
378,94.25,37.528,39.3006,171.803,109.381,102.007,0.00161572,0.0785195,21.0159,-460.691,0.617325,0.0,0.0
380,94.75,37.1851,39.2981,167.635,109.392,101.338,0.00155558,0.0783421,21.016,-460.702,0.6764,0.0,0.0
382,95.25,37.1339,39.7682,167.988,109.389,100.814,0.00150686,0.0781402,21.0161,-460.722,0.72198,0.0,0.0
384,95.75,37.739,39.3281,168.031,109.386,101.11,0.00144682,0.0778977,21.0162,-460.702,0.695873,0.0,0.0
386,96.25,37.5924,39.3653,170.602,109.404,101.464,0.00139819,0.0776301,21.0163,-460.722,0.666384,0.0,0.0
388,96.75,36.9809,39.4606,166.003,109.424,100.651,0.0013588,0.077356,21.0163,-460.722,0.739153,0.0,0.0
390,97.25,37.0658,39.1744,172.149,109.418,101.372,0.00130028,0.0770823,21.0167,-460.722,0.675549,0.0,0.0
392,97.75,36.8411,39.3822,167.072,109.417,101.877,0.00125288,0.0768605,21.0172,-460.732,0.631493,0.0,0.0
394,98.25,37.1389,39.5989,170.001,109.429,101.179,0.00119393,0.0766946,21.0177,-460.762,0.693294,0.0,0.0
396,98.75,36.8213,39.0481,171.356,109.417,101.841,0.00114619,0.0765601,21.018,-460.762,0.634709,0.0,0.0
398,99.25,36.5878,39.1071,168.821,109.435,101.473,0.00109664,0.0764512,21.0183,-460.762,0.668147,0.0,0.0
400,99.75,36.7015,38.6782,169.953,109.43,101.299,0.0010565,0.0763559,21.0185,-460.772,0.682909,0.0,0.0
402,100.25,36.8662,39.2791,164.128,109.448,101.005,0.00102399,0.0762721,21.0187,-460.762,0.710024,0.0,0.0
404,100.75,36.934,39.1982,170.2,109.428,101.561,0.00097109,0.07619,21.0189,-460.752,0.659877,0.0,0.0
406,101.25,36.9782,39.1942,171.955,109.44,101.327,0.000928239,0.0761105,21.019,-460.782,0.681237,0.0,0.0
408,101.75,36.4212,38.9113,170.847,109.443,101.897,0.000862154,0.0759887,21.0194,-460.782,0.631902,0.0,0.0
410,102.25,36.6481,39.3952,154.956,109.464,101.647,0.000808625,0.0758384,21.0198,-460.782,0.655271,0.0,0.0
412,102.75,36.4605,38.7922,159.122,109.448,101.314,0.000785804,0.0756377,21.02,-460.782,0.683046,0.0,0.0
414,103.25,36.401,38.9715,163.566,109.448,101.055,0.000709408,0.0754041,21.0204,-460.772,0.705688,0.0,0.0
416,103.75,36.5926,39.0806,162.599,109.452,101.717,0.000647526,0.0752149,21.0207,-460.752,0.648281,0.0,0.0
418,104.25,36.8134,38.7601,165.801,109.471,100.848,0.000582945,0.0748845,21.0209,-460.772,0.725654,0.0,0.0
420,104.75,36.7615,39.0672,166.676,109.465,101.116,0.000530635,0.0746168,21.0211,-460.772,0.701726,0.0,0.0
422,105.25,37.0487,38.9132,173.303,109.48,101.422,0.00048465,0.0743714,21.0215,-460.772,0.676157,0.0,0.0
424,105.75,36.8205,38.6643,170.749,109.461,101.521,0.000447402,0.0742531,21.022,-460.782,0.666058,0.0,0.0
426,106.25,37.4541,39.0899,166.171,109.481,101.175,0.000418435,0.0740509,21.0224,-460.772,0.69786,0.0,0.0
428,106.75,36.2815,38.6527,167.34,109.478,101.042,0.000394973,0.0737646,21.0228,-460.782,0.709174,0.0,0.0
430,107.25,36.3571,38.9589,168.442,109.49,101.273,0.00038199,0.0735326,21.0231,-460.782,0.689956,0.0,0.0
432,107.75,36.6792,38.1536,169.521,109.485,101.346,0.000371475,0.0732358,21.0233,-460.772,0.683209,0.0,0.0
434,108.25,36.5276,38.2287,171.523,109.5,101.133,0.000366992,0.0729954,21.0234,-460.762,0.703105,0.0,0.0
436,108.75,36.8888,38.3152,169.018,109.496,101.41,0.000359326,0.0727935,21.0236,-460.762,0.67853,0.0,0.0
438,109.25,36.4085,38.7746,168.819,109.513,101.145,0.000353117,0.0726235,21.0237,-460.752,0.703123,0.0,0.0
440,109.75,36.1153,38.3136,167.211,109.497,101.804,0.000348721,0.0724722,21.0238,-460.762,0.644326,0.0,0.0
442,110.25,36.3295,38.5409,163.756,109.519,101.016,0.000345732,0.0723496,21.0239,-460.782,0.714839,0.0,0.0
444,110.75,36.5291,38.4571,168.666,109.51,101.322,0.00034331,0.0721823,21.024,-460.792,0.687312,0.0,0.0
446,111.25,36.4143,38.4198,165.671,109.517,101.54,0.000341348,0.0721109,21.024,-460.792,0.668885,0.0,0.0
448,111.75,36.0799,38.7716,173.656,109.512,102.005,0.00033976,0.0719889,21.0241,-460.782,0.628061,0.0,0.0
450,112.25,36.6941,38.0312,167.312,109.532,101.207,0.000333654,0.071822,21.0241,-460.812,0.699124,0.0,0.0
452,112.75,36.2051,37.8232,158.152,109.521,101.143,0.000331051,0.0716869,21.0241,-460.802,0.703886,0.0,0.0
454,113.25,36.5815,38.4377,169.224,109.534,101.572,0.000327235,0.0715487,21.0241,-460.812,0.667556,0.0,0.0
456,113.75,36.1771,38.2725,169.501,109.527,101.182,0.000324713,0.071411,21.0246,-460.812,0.700952,0.0,0.0
458,114.25,36.3036,38.5479,169.266,109.538,101.131,0.000319502,0.0712995,21.025,-460.812,0.706334,0.0,0.0
460,114.75,36.4535,38.2816,172.52,109.538,100.955,0.000312428,0.0711662,21.0253,-460.822,0.721692,0.0,0.0
462,115.25,35.5588,38.9631,167.251,109.549,101.186,0.000294658,0.0710196,21.0255,-460.812,0.70239,0.0,0.0
464,115.75,36.051,38.4284,167.792,109.548,101.526,0.000269429,0.070957,21.0258,-460.812,0.672666,0.0,0.0
466,116.25,36.1092,38.3587,167.613,109.565,101.257,0.000248994,0.0707549,21.0259,-460.832,0.697508,0.0,0.0
468,116.75,36.216,38.1263,167.451,109.559,102.064,0.000210282,0.0705911,21.026,-460.822,0.626703,0.0,0.0
470,117.25,35.859,38.3158,169.517,109.561,101.355,0.000158983,0.0703769,21.0266,-460.812,0.688575,0.0,0.0
472,117.75,36.2272,38.7208,171.99,109.557,101.714,0.000107937,0.0702034,21.0271,-460.822,0.65702,0.0,0.0
474,118.25,35.507,37.9038,167.673,109.583,101.799,5.80444e-05,0.0699404,21.0274,-460.832,0.651718,0.0,0.0
476,118.75,35.6322,37.9381,166.035,109.569,101.296,1.19355e-05,0.0697274,21.0277,-460.832,0.694363,0.0,0.0
478,119.25,35.9244,38.1443,169.207,109.582,101.441,-3.05394e-05,0.0695119,21.0279,-460.832,0.682737,0.0,0.0
480,119.75,36.0456,38.2578,172.903,109.575,102.011,-6.49441e-05,0.0692987,21.0281,-460.842,0.632666,0.0,0.0
482,120.25,36.6459,37.9713,168.248,109.594,101.97,-9.28119e-05,0.0691046,21.0283,-460.822,0.637728,0.0,0.0
484,120.75,35.4032,37.4851,165.874,109.577,101.976,-0.00013222,0.068928,21.0285,-460.832,0.635828,0.0,0.0
486,121.25,35.6903,37.8885,169.468,109.587,101.769,-0.000164141,0.068785,21.0286,-460.842,0.654675,0.0,0.0
488,121.75,35.0493,37.8425,169.31,109.594,101.729,-0.000198857,0.0685876,21.0288,-460.852,0.658629,0.0,0.0
490,122.25,35.8339,37.9855,173.912,109.601,101.577,-0.000234952,0.0684277,21.0289,-460.862,0.672443,0.0,0.0
492,122.75,35.8523,37.847,167.462,109.591,101.686,-0.000272418,0.0682982,21.029,-460.852,0.662177,0.0,0.0
494,123.25,35.4195,38.0297,168.132,109.6,101.386,-0.00031017,0.068003,21.029,-460.842,0.689065,0.0,0.0
496,123.75,35.8997,37.7809,167.628,109.596,101.918,-0.000340749,0.067764,21.0291,-460.842,0.642402,0.0,0.0
498,124.25,35.899,37.9146,168.195,109.598,101.594,-0.000383872,0.0675296,21.0291,-460.842,0.670752,0.0,0.0
500,124.75,35.646,37.8437,170.636,109.603,101.692,-0.000435321,0.0673397,21.0292,-460.842,0.662675,0.0,0.0
502,125.25,35.993,37.4993,168.391,109.613,101.443,-0.000504653,0.0671072,21.0292,-460.852,0.685042,0.0,0.0
504,125.75,35.6188,37.5433,165.936,109.625,101.808,-0.000560812,0.0668482,21.0297,-460.852,0.654334,0.0,0.0
506,126.25,36.0451,37.5502,166.304,109.623,102.077,-0.000624655,0.0666384,21.0301,-460.852,0.630833,0.0,0.0
508,126.75,35.8581,37.5844,170.972,109.623,101.552,-0.000692887,0.0662783,21.0304,-460.842,0.67637,0.0,0.0
510,127.25,35.8516,38.2314,166.496,109.626,101.719,-0.000763345,0.0659867,21.0306,-460.852,0.662124,0.0,0.0
512,127.75,35.9262,37.8986,170.444,109.626,101.722,-0.000834087,0.065679,21.0308,-460.842,0.661856,0.0,0.0
514,128.25,35.9832,37.8302,166.825,109.633,101.84,-0.000907021,0.0653655,21.031,-460.852,0.652145,0.0,0.0
516,128.75,35.5525,37.6194,163.756,109.631,101.354,-0.000966097,0.065033,21.0316,-460.862,0.694369,0.0,0.0
518,129.25,34.7199,37.3453,157.975,109.634,101.656,-0.00101965,0.064693,21.032,-460.862,0.668245,0.0,0.0
520,129.75,35.3581,37.4392,165.445,109.642,101.634,-0.00106815,0.0643676,21.0324,-460.852,0.670866,0.0,0.0
522,130.25,34.9534,37.451,168.218,109.635,101.179,-0.00110743,0.064059,21.0327,-460.862,0.709937,0.0,0.0
524,130.75,35.576,37.6218,169.311,109.647,101.637,-0.00115008,0.0637591,21.033,-460.862,0.670948,0.0,0.0
526,131.25,35.6778,37.9933,172.411,109.654,101.53,-0.00118462,0.0634713,21.0332,-460.862,0.680847,0.0,0.0
528,131.75,35.5332,37.6954,166.403,109.657,101.33,-0.00121139,0.0631667,21.0333,-460.882,0.698578,0.0,0.0
530,132.25,35.5525,37.5267,168.63,109.65,101.286,-0.00123308,0.0628558,21.0337,-460.872,0.701753,0.0,0.0
532,132.75,35.9505,37.7197,164.059,109.664,101.8,-0.00125065,0.062604,21.0342,-460.882,0.658169,0.0,0.0
534,133.25,35.8769,37.4866,167.996,109.664,101.899,-0.00125165,0.0621966,21.0346,-460.872,0.649565,0.0,0.0
536,133.75,35.719,37.5915,167.873,109.675,101.966,-0.00125247,0.0618667,21.035,-460.862,0.64461,0.0,0.0
538,134.25,35.7476,37.7572,168.86,109.668,101.605,-0.00123989,0.0615139,21.0352,-460.882,0.675458,0.0,0.0
540,134.75,35.6669,37.4723,167.618,109.672,101.818,-0.00122971,0.0611511,21.0354,-460.882,0.657224,0.0,0.0
542,135.25,35.5898,37.1043,167.08,109.666,101.531,-0.00120944,0.0608573,21.0359,-460.882,0.681697,0.0,0.0
544,135.75,35.5521,37.8917,170.893,109.692,101.604,-0.00118985,0.0603754,21.0364,-460.882,0.677462,0.0,0.0
546,136.25,35.4463,37.3207,166.604,109.69,101.98,-0.00117114,0.0599852,21.0373,-460.892,0.644694,0.0,0.0
548,136.75,35.4184,37.5437,168.624,109.694,101.772,-0.00115598,0.0595201,21.038,-460.892,0.662929,0.0,0.0
550,137.25,35.8811,37.2818,169.809,109.678,101.069,-0.00114434,0.0591435,21.0386,-460.902,0.723007,0.0,0.0
552,137.75,35.6058,37.7251,169.282,109.697,100.963,-0.00113548,0.058703,21.0391,-460.892,0.733845,0.0,0.0
554,138.25,35.3802,37.1995,168.029,109.683,101.877,-0.00112766,0.0583463,21.0395,-460.892,0.652994,0.0,0.0
556,138.75,35.5403,37.2656,162.147,109.706,101.416,-0.00112077,0.057922,21.0402,-460.892,0.694945,0.0,0.0
558,139.25,35.5016,37.4537,173.866,109.692,101.518,-0.00111645,0.0575783,21.0408,-460.882,0.684931,0.0,0.0
560,139.75,35.3832,37.5994,168.601,109.702,102.187,-0.00111409,0.05707,21.0413,-460.862,0.627669,0.0,0.0
562,140.25,35.2588,37.6604,166.132,109.699,101.894,-0.00111787,0.0566583,21.0417,-460.882,0.652771,0.0,0.0
564,140.75,35.5341,37.1605,170.707,109.715,101.39,-0.00112606,0.0562323,21.042,-460.892,0.697952,0.0,0.0
566,141.25,34.8246,37.1642,169.35,109.723,101.213,-0.00114156,0.055804,21.0423,-460.872,0.714035,0.0,0.0
568,141.75,35.0613,38.1883,170.29,109.725,101.672,-0.00116209,0.055457,21.0425,-460.902,0.674192,0.0,0.0
570,142.25,35.5072,36.8665,171.028,109.725,101.57,-0.00117871,0.0549868,21.0427,-460.902,0.683129,0.0,0.0
572,142.75,35.3308,37.5144,166.329,109.73,102.096,-0.00119218,0.0546059,21.0428,-460.902,0.637842,0.0,0.0
574,143.25,35.5128,36.7856,172.223,109.719,101.709,-0.00121891,0.0541218,21.043,-460.912,0.670512,0.0,0.0
576,143.75,35.4369,37.2785,168.689,109.729,101.857,-0.00125481,0.0537297,21.044,-460.892,0.658452,0.0,0.0
578,144.25,35.5161,37.0965,169.195,109.732,101.651,-0.00128388,0.0532365,21.0448,-460.872,0.676631,0.0,0.0
580,144.75,35.4061,37.733,166.804,109.755,101.965,-0.00132072,0.052837,21.0455,-460.872,0.651139,0.0,0.0
582,145.25,34.8257,36.8624,168.937,109.739,101.567,-0.00136252,0.0525134,21.0465,-460.892,0.684507,0.0,0.0
584,145.75,35.1439,37.1756,169.876,109.739,101.184,-0.00140714,0.0520083,21.0473,-460.892,0.71789,0.0,0.0
586,146.25,35.4455,36.9768,168.399,109.745,101.199,-0.00145297,0.0515992,21.0485,-460.922,0.717027,0.0,0.0
588,146.75,35.6861,36.9318,168.336,109.756,102.363,-0.00149515,0.0512678,21.0493,-460.922,0.616771,0.0,0.0
590,147.25,34.7841,36.763,172.409,109.743,101.538,-0.00153388,0.0507295,21.0501,-460.912,0.687242,0.0,0.0
592,147.75,35.1288,37.1727,170.118,109.773,102.251,-0.00156271,0.0502935,21.0507,-460.912,0.627889,0.0,0.0
594,148.25,34.9153,37.2015,169.579,109.747,101.939,-0.00158379,0.0499403,21.0511,-460.912,0.652786,0.0,0.0
596,148.75,34.9242,36.9175,167.957,109.771,101.459,-0.00159074,0.0494789,21.0515,-460.902,0.696414,0.0,0.0
598,149.25,35.2137,36.6271,169.237,109.761,101.951,-0.00158725,0.0491052,21.0527,-460.912,0.652803,0.0,0.0
600,149.75,34.8158,36.6466,171.146,109.77,101.982,-0.00157366,0.0486811,21.0537,-460.922,0.650919,0.0,0.0
602,150.25,34.9579,36.742,171.085,109.765,102.452,-0.00155298,0.0482809,21.0545,-460.932,0.609885,0.0,0.0
604,150.75,35.1922,37.157,165.011,109.776,101.568,-0.00153622,0.0479056,21.0551,-460.922,0.687424,0.0,0.0
606,151.25,35.2832,37.1983,168.259,109.763,101.93,-0.00152455,0.0475449,21.0556,-460.922,0.654877,0.0,0.0
608,151.75,35.3504,36.637,169.073,109.786,102.696,-0.0015168,0.0472016,21.0561,-460.912,0.590538,0.0,0.0
610,152.25,35.1426,36.8802,166.387,109.779,101.395,-0.00152856,0.0468739,21.0566,-460.912,0.702732,0.0,0.0
612,152.75,35.1311,37.0601,170.531,109.797,101.625,-0.00153358,0.0465638,21.057,-460.902,0.684121,0.0,0.0
614,153.25,34.9062,37.1983,163.44,109.808,101.74,-0.00154215,0.0463127,21.0576,-460.912,0.674959,0.0,0.0
616,153.75,34.9077,36.3949,170.272,109.804,101.895,-0.00158157,0.0460149,21.0581,-460.912,0.661178,0.0,0.0
618,154.25,34.6554,36.8582,166.605,109.803,101.737,-0.00161349,0.0457737,21.0585,-460.902,0.674836,0.0,0.0
620,154.75,34.8531,36.7929,166.097,109.815,102.131,-0.00167543,0.0455146,21.0588,-460.902,0.641633,0.0,0.0
622,155.25,34.8503,36.9576,162.283,109.809,101.851,-0.0017256,0.0452472,21.0591,-460.902,0.665372,0.0,0.0
624,155.75,34.1804,36.9006,169.402,109.828,101.761,-0.00178307,0.0451333,21.0593,-460.892,0.674771,0.0,0.0
626,156.25,33.7937,35.9254,174.584,109.814,101.33,-0.00182962,0.0447902,21.0595,-460.882,0.711236,0.0,0.0
628,156.75,34.8847,36.1476,165.339,109.838,102.109,-0.00186733,0.0445124,21.0596,-460.902,0.645416,0.0,0.0
630,157.25,34.7441,36.3464,173.193,109.831,102.386,-0.00189787,0.0441123,21.0597,-460.892,0.620823,0.0,0.0
632,157.75,34.6434,37.0781,167.622,109.855,101.859,-0.00192261,0.0437883,21.0598,-460.892,0.668453,0.0,0.0
634,158.25,34.7469,36.6078,163.824,109.848,102.216,-0.00194265,0.043455,21.0604,-460.892,0.63692,0.0,0.0
636,158.75,34.4425,36.3772,169.231,109.858,101.868,-0.00195888,0.0431213,21.0612,-460.892,0.667849,0.0,0.0
638,159.25,34.2512,36.6464,169.518,109.872,102.207,-0.00198165,0.0428014,21.0619,-460.902,0.63958,0.0,0.0
640,159.75,34.674,36.3705,167.406,109.878,101.181,-0.00200009,0.0424977,21.0625,-460.902,0.729317,0.0,0.0
642,160.25,34.2927,35.9384,168.999,109.879,102.225,-0.00201187,0.0422517,21.063,-460.902,0.638604,0.0,0.0
644,160.75,34.0677,36.1049,163.447,109.879,102.005,-0.00201855,0.0419582,21.0633,-460.902,0.65763,0.0,0.0
646,161.25,34.6232,36.4706,171.522,109.878,102.14,-0.00201195,0.0417205,21.0636,-460.902,0.645879,0.0,0.0
648,161.75,34.221,36.5307,167.648,109.899,101.772,-0.00199577,0.0414643,21.0639,-460.902,0.679464,0.0,0.0
650,162.25,34.7381,36.4528,162.431,109.903,101.618,-0.00197191,0.0411994,21.0641,-460.892,0.693259,0.0,0.0
652,162.75,34.7337,36.3184,163.804,109.918,101.968,-0.0019429,0.0409424,21.0642,-460.902,0.664052,0.0,0.0
654,163.25,34.8429,36.6186,168.489,109.916,101.727,-0.00191307,0.040696,21.0644,-460.892,0.684775,0.0,0.0
656,163.75,34.6364,36.5974,169.279,109.924,102.167,,0.040454,,-460.892,0.647333,0.0,0.0
658,164.25,33.3907,36.143,168.435,109.928,102.506,,0.0402197,,-460.902,0.618292,0.0,0.0
660,164.75,34.2275,35.9689,169.801,109.946,101.868,,0.0400087,,-460.892,0.674934,0.0,0.0
662,165.25,34.3985,36.557,165.909,109.95,101.847,,0.0398187,,-460.892,0.677041,0.0,0.0
664,165.75,34.7151,36.0488,169.848,109.934,101.847,,0.0396153,,-460.902,0.675759,0.0,0.0
666,166.25,34.5328,36.3042,168.096,109.952,102.076,,0.0394059,,-460.912,0.657464,0.0,0.0
668,166.75,34.2654,36.5062,167.422,109.943,102.118,,,,-460.902,0.653045,0.0,0.0
670,167.25,33.575,35.9717,170.025,109.966,102.168,,,,-460.922,0.650599,0.0,0.0
672,167.75,33.6206,35.6542,165.028,109.952,102.03,,,,-460.912,0.661414,0.0,0.0
674,168.25,34.3433,36.0761,164.083,109.967,102.046,,,,-460.912,0.661266,0.0,0.0
676,168.75,34.5274,36.5946,169.069,109.976,101.962,,,,-460.912,0.669217,0.0,0.0
678,169.25,34.2684,36.3838,169.201,109.998,102.072,,,,-460.912,0.661434,0.0,0.0
680,169.75,34.4275,35.9824,162.418,109.996,101.839,,,,-460.922,0.681475,0.0,0.0
682,170.25,34.3865,35.982,164.709,110.013,102.561,,,,-460.912,0.620347,0.0,0.0
684,170.75,34.2936,36.4375,167.322,110.009,102.249,,,,-460.912,0.646981,0.0,0.0
686,171.25,34.3421,36.592,170.501,110.019,101.846,,,,-460.922,0.682742,0.0,0.0
688,171.75,34.5092,36.6585,169.949,110.024,102.333,,,,-460.912,0.641007,0.0,0.0
690,172.25,34.9272,36.4426,167.517,110.053,102.34,,,,-460.902,0.642627,0.0,0.0
692,172.75,34.6437,36.2507,165.693,110.058,101.958,,,,-460.912,0.676145,0.0,0.0
694,173.25,34.3498,36.156,169.89,110.063,102.008,,,,-460.912,0.672273,0.0,0.0
696,173.75,34.786,36.3017,167.584,110.063,102.561,,,,-460.922,0.624404,0.0,0.0
698,174.25,34.1048,36.1102,168.299,110.089,102.526,,,,-460.912,0.62954,0.0,0.0
699,174.5,34.2561,36.3359,165.908,110.089,102.869,,,,-460.912,0.599935,0.0,0.0