File: 01_Data/Rubber_Foam_Pipe_Insulation/Cone/Rubber_Foam_Pipe_Insulation_Cone_HF25Scan_220307_R2.csv
Names,Time,Stack TC,Smoke TC,Exh Press,Smoke Comp,Smoke Meas,CO Meter,CO2 Meter,O2 Meter,Sample Mass,Ext Coeff,Start Test,Flame Verif
Chan Gain,,500,500,1,1,1,1,1,1,1,1,1.0,1.0
Offset,,0,0,0.13378,0,0,0,0,0,0,0,0.0,0.0
Gain,,1,1,25.011,14.4955,14.6297,1,1,1,1.00092,1.00831,1.0,1.0
Units,sec,C,C,Pa,%,%,%,%,%,g,/m,,
Baseline,,19.5818,20.2427,178.251,111.112,104.931,-0.0017978,0.0371905,21.0609,-945.835,0.506331,,
2,0.25,18.8464,19.4874,180.108,110.638,104.224,-0.00164585,0.0386601,21.0626,-454.055,0.528152,0.0,0.0
4,0.75,18.0926,18.673,175.072,110.629,102.59,-0.00159453,0.0386456,21.0616,-453.245,0.667214,0.0,0.0
6,1.25,18.2515,19.1709,179.564,110.627,100.498,-0.00155296,0.038945,21.0608,-455.547,0.849309,0.0,0.0
8,1.75,18.9159,19.4977,178.488,110.628,97.1221,-0.00134733,0.0394675,21.0597,-455.597,1.15165,0.0,0.0
10,2.25,17.9541,18.6638,173.477,110.615,94.7375,-0.00118076,0.0398907,21.0583,-455.557,1.37046,0.0,0.0
12,2.75,18.5028,19.0786,174.719,110.615,92.5695,-0.000847268,0.044015,21.0542,-454.386,1.57526,0.0,0.0
14,3.25,19.0039,18.9203,175.47,110.619,91.0194,-0.000577137,0.0473556,21.0481,-454.486,1.72491,0.0,0.0
16,3.75,18.1074,18.6878,168.535,110.611,95.8059,-0.000107785,0.0546597,21.0347,-452.354,1.27099,0.0,1.0
18,4.25,17.8159,18.969,162.955,110.606,96.1966,0.000272391,0.0647144,21.0162,-454.346,1.23458,0.0,1.0
20,4.75,18.1671,18.5788,168.128,110.613,95.4898,0.000857078,0.0728587,20.9942,-455.837,1.30036,0.0,1.0
22,5.25,18.5924,19.3883,169.431,110.61,94.1111,0.00133067,0.0878847,20.97,-455.787,1.42871,0.0,1.0
24,5.75,18.596,19.035,170.292,110.6,92.3159,0.00184677,0.100056,20.9504,-455.677,1.59825,0.0,1.0
26,6.25,18.562,19.7221,169.605,110.607,90.731,0.00238404,0.115863,20.926,-455.106,1.75199,0.0,1.0
28,6.75,18.9523,19.6902,165.903,110.608,88.7969,0.00281923,0.128668,20.9063,-455.977,1.94271,0.0,1.0
30,7.25,19.1672,19.9125,171.71,110.611,84.5457,0.00347107,0.14381,20.8863,-456.077,2.37681,0.0,1.0
32,7.75,19.765,19.8576,165.011,110.602,82.4991,0.00399907,0.156075,20.8665,-456.157,2.59284,0.0,1.0
34,8.25,19.7231,20.1162,170.075,110.591,81.1414,0.00452571,0.168115,20.8505,-456.167,2.73876,0.0,1.0
36,8.75,19.5933,19.6737,173.223,110.597,80.6405,0.00504136,0.179762,20.8326,-456.177,2.79403,0.0,1.0
38,9.25,19.8161,19.9147,170.154,110.593,80.7217,0.00552087,0.189195,20.8181,-456.267,2.78477,0.0,1.0
40,9.75,19.6881,20.1188,164.716,110.592,79.9784,0.00596493,0.199613,20.8026,-456.338,2.86656,0.0,1.0
42,10.25,20.3405,20.5876,164.28,110.58,79.9208,0.00636617,0.208052,20.7901,-456.418,2.87191,0.0,1.0
44,10.75,20.428,20.3598,163.802,110.595,82.4665,0.00672857,0.215774,20.7777,-456.448,2.59581,0.0,1.0
46,11.25,20.78,20.9012,165.972,110.583,80.5967,0.00702211,0.222827,20.7677,-456.498,2.79766,0.0,1.0
48,11.75,21.3484,21.4802,166.475,110.591,78.8881,0.0072925,0.22854,20.7591,-454.576,2.98782,0.0,1.0
50,12.25,21.1608,21.138,171.528,110.576,80.3824,0.00751152,0.233966,20.7517,-452.084,2.82072,0.0,1.0
52,12.75,21.8178,21.733,163.627,110.584,81.854,0.00768628,0.238362,20.7457,-452.044,2.66086,0.0,1.0
54,13.25,21.5726,21.6483,163.851,110.579,81.7763,0.00782546,0.241937,20.7409,-451.123,2.66884,0.0,0.0
56,13.75,21.8288,21.9151,175.677,110.588,81.9839,0.0079382,0.244833,20.7369,-450.402,2.64715,0.0,0.0
58,14.25,22.0174,22.4216,163.129,110.579,84.9524,0.008027,0.246952,20.7337,-449.631,2.33185,0.0,0.0
60,14.75,22.3351,22.9859,168.564,110.574,83.4157,0.00809894,0.248668,20.7312,-448.841,2.49289,0.0,0.0
62,15.25,22.3651,22.5997,165.989,110.575,84.9091,0.00814967,0.249971,20.7293,-448.31,2.33601,0.0,0.0
64,15.75,22.8871,23.0596,170.14,110.579,84.7144,0.00819077,0.250948,20.728,-448.691,2.35666,0.0,0.0
66,16.25,22.7648,23.671,169.764,110.576,84.8229,0.00820821,0.251739,20.7272,-449.511,2.34509,0.0,0.0
68,16.75,23.3323,23.5546,164.404,110.576,84.335,0.00820807,0.25241,20.7268,-449.952,2.39609,0.0,0.0
70,17.25,22.8244,23.3734,161.917,110.566,83.3639,0.00815534,0.252953,20.7264,-450.262,2.49778,0.0,0.0
72,17.75,23.2938,23.9422,165.64,110.573,84.114,0.00811262,0.253441,20.7261,-452.024,2.41908,0.0,0.0
74,18.25,24.105,24.244,158.856,110.572,86.9927,0.00803259,0.253879,20.7259,-454.085,2.12137,0.0,0.0
76,18.75,24.0965,24.5392,169.094,110.577,85.4118,0.00792689,0.254314,20.7257,-456.388,2.28397,0.0,0.0
78,19.25,23.6459,24.7205,169.834,110.58,86.4579,0.00784127,0.254737,20.7253,-457.308,2.17652,0.0,0.0
80,19.75,24.5363,24.4214,168.225,110.573,86.2244,0.00777192,0.255351,20.7248,-457.348,2.19994,0.0,0.0
82,20.25,24.7042,24.5683,166.035,110.574,87.7084,0.0075635,0.256092,20.7248,-457.398,2.04907,0.0,0.0
84,20.75,24.4725,24.9363,165.166,110.608,87.82,0.00739468,0.257276,20.7253,-457.429,2.04052,0.0,0.0
86,21.25,24.8289,25.5793,164.879,110.571,87.82,0.00725794,0.258759,20.7257,-457.479,2.03758,0.0,0.0
88,21.75,24.8539,25.47,165.537,110.574,86.6048,0.00701482,0.259961,20.7247,-457.579,2.16104,0.0,0.0
90,22.25,24.6898,25.3875,161.008,110.576,87.4017,0.00689514,0.260934,20.7242,-457.609,2.0802,0.0,0.0
92,22.75,25.1251,25.5735,166.132,110.571,85.3484,0.00684629,0.264523,20.7219,-457.679,2.29008,0.0,0.0
94,23.25,24.8532,25.3651,162.975,110.574,84.0519,0.00676275,0.26743,20.7179,-457.719,2.42568,0.0,0.0
96,23.75,25.2554,25.6765,164.078,110.575,85.8418,0.00673239,0.270718,20.713,-457.759,2.23942,0.0,0.0
98,24.25,25.4428,25.8835,162.934,110.564,85.2279,0.0067078,0.27422,20.7076,-457.839,2.30201,0.0,0.0
100,24.75,25.706,26.3517,169.069,110.568,85.7168,0.00674888,0.278266,20.7016,-457.879,2.25174,0.0,0.0
102,25.25,25.725,26.701,164.494,110.569,85.5194,0.00678216,0.28218,20.6952,-457.919,2.2722,0.0,0.0
104,25.75,26.1648,26.9504,161.966,110.56,83.4648,0.00684165,0.283848,20.6903,-457.989,2.48655,0.0,0.0
106,26.25,25.7232,26.4216,165.213,110.562,83.1742,0.00694338,0.287473,20.6821,-457.999,2.51761,0.0,0.0
108,26.75,26.3086,27.1966,160.565,110.567,81.9401,0.0071371,0.291104,20.6744,-458.059,2.65018,0.0,0.0
110,27.25,26.9029,27.5631,165.364,110.564,83.7157,0.007294,0.295284,20.6674,-458.119,2.46032,0.0,0.0
112,27.75,26.3238,27.0777,159.012,110.561,83.2063,0.00742109,0.298669,20.6617,-458.179,2.51405,0.0,0.0
114,28.25,26.668,27.4849,165.844,110.565,82.5879,0.00773881,0.302372,20.6561,-458.139,2.58042,0.0,0.0
116,28.75,27.3047,28.1558,162.592,110.564,83.3429,0.00799616,0.30395,20.6508,-458.299,2.49983,0.0,0.0
118,29.25,27.588,28.3366,157.414,110.551,83.3898,0.00829899,0.30728,20.6464,-458.349,2.49383,0.0,0.0
120,29.75,27.4646,28.0355,164.575,110.562,81.3838,0.00862921,0.309978,20.6411,-458.459,2.71008,0.0,0.0
122,30.25,27.3564,28.7118,166.351,110.576,80.6173,0.00889668,0.312163,20.6368,-458.499,2.79492,0.0,0.0
124,30.75,28.1857,29.3174,160.825,110.56,80.4445,0.00921342,0.314534,20.6333,-458.54,2.81255,0.0,0.0
126,31.25,28.3338,28.5235,154.15,110.557,74.1043,0.00946998,0.316455,20.6303,-457.148,3.53841,0.0,0.0
128,31.75,28.0398,28.7548,159.602,110.559,75.7352,0.00972221,0.318002,20.6279,-454.156,3.34603,0.0,0.0
130,32.25,27.9798,28.6615,154.317,110.553,77.2,0.00992652,0.319248,20.626,-452.994,3.1761,0.0,0.0
132,32.75,28.3216,29.4106,159.011,110.554,78.6863,0.01009,0.320257,20.6244,-453.335,3.00754,0.0,0.0
134,33.25,28.9594,30.0948,163.055,110.551,77.8854,0.0102206,0.320756,20.6236,-454.536,3.09779,0.0,0.0
136,33.75,28.6362,29.4891,166.312,110.56,77.5273,0.0103144,0.32116,20.6229,-455.717,3.13925,0.0,0.0
138,34.25,28.8363,30.0695,163.063,110.552,78.2872,0.0103795,0.321029,20.6233,-456.638,3.05234,0.0,0.0
140,34.75,29.5421,30.5507,162.073,110.558,78.6734,0.0104323,0.320923,20.6235,-457.238,3.00931,0.0,0.0
142,35.25,28.9586,29.8955,160.032,110.553,78.7068,0.0104497,0.319907,20.6249,-457.809,3.0052,0.0,0.0
144,35.75,29.3555,30.8344,159.695,110.543,79.5591,0.0104409,0.319084,20.6271,-458.249,2.90912,0.0,0.0
146,36.25,29.8488,31.3091,160.612,110.546,77.955,0.0104091,0.317674,20.6289,-458.66,3.08949,0.0,0.0
148,36.75,30.2167,31.2651,169.543,110.552,78.9238,0.0103612,0.315862,20.633,-459.01,2.98074,0.0,0.0
150,37.25,29.9999,31.5515,166.03,110.55,80.1802,0.0102911,0.314394,20.6364,-459.11,2.84091,0.0,0.0
152,37.75,30.3113,31.2741,165.291,110.549,76.6451,0.0102061,0.311971,20.6409,-459.16,3.23959,0.0,0.0
154,38.25,30.5132,31.6649,168.916,110.561,79.0091,0.0101041,0.310009,20.6445,-459.22,2.9719,0.0,0.0
156,38.75,29.9688,31.5804,165.723,110.545,80.5449,0.00999151,0.3081,20.6482,-459.23,2.80034,0.0,0.0
158,39.25,30.1652,31.8096,165.167,110.544,78.0648,0.00990032,0.306265,20.6518,-459.26,3.0769,0.0,0.0
160,39.75,31.2426,32.0891,163.337,110.548,79.1252,0.00971174,0.304387,20.6556,-459.31,2.95785,0.0,0.0
162,40.25,30.6229,31.872,162.402,110.533,79.8145,0.00955899,0.302512,20.6596,-459.36,2.87996,0.0,0.0
164,40.75,30.6297,31.9131,165.099,110.544,80.9642,0.00937838,0.300994,20.6628,-459.37,2.75435,0.0,0.0
166,41.25,30.4693,32.0256,168.772,110.553,81.8267,0.0091809,0.298618,20.6683,-459.43,2.66133,0.0,0.0
168,41.75,30.7747,32.2045,160.939,110.542,82.3263,0.00902094,0.296694,20.6727,-459.44,2.60657,0.0,0.0
170,42.25,31.3436,32.1403,165.697,110.547,82.9259,0.00874109,0.293671,20.6763,-459.48,2.54285,0.0,0.0
172,42.75,31.0284,32.4734,166.171,110.554,83.6336,0.00851441,0.291223,20.6791,-459.49,2.46822,0.0,0.0
174,43.25,31.4245,32.572,168.791,110.539,83.3326,0.0083308,0.287936,20.6842,-459.52,2.4989,0.0,0.0
176,43.75,31.6496,32.9273,169.79,110.538,86.5396,0.00810067,0.2841,20.6882,-459.54,2.16483,0.0,0.0
178,44.25,31.1851,32.4454,166.231,110.556,85.7435,0.00784099,0.280992,20.6941,-459.58,2.24802,0.0,0.0
180,44.75,30.7799,32.2282,169.475,110.546,88.5013,0.00763065,0.275474,20.7011,-459.6,1.96717,0.0,0.0
182,45.25,31.6885,32.8583,169.673,110.554,89.2313,0.00735709,0.271005,20.7094,-459.49,1.89519,0.0,0.0
184,45.75,31.7566,33.4193,164.154,110.545,89.5679,0.00713551,0.267384,20.7184,-459.13,1.86118,0.0,0.0
186,46.25,31.6531,33.0896,172.422,110.554,93.504,0.00685684,0.262019,20.7295,-458.94,1.48154,0.0,0.0
188,46.75,31.4711,33.2152,166.727,110.553,93.837,0.00663111,0.255484,20.7419,-458.67,1.44998,0.0,0.0
190,47.25,31.8515,33.1664,163.287,110.557,93.5571,0.00635058,0.250191,20.7557,-458.389,1.47673,0.0,0.0
192,47.75,31.1579,32.7451,172.238,110.539,94.3513,0.00612335,0.242949,20.7702,-458.249,1.40051,0.0,0.0
194,48.25,31.3586,33.1389,171.592,110.565,95.3045,0.00584308,0.237084,20.7841,-457.889,1.31369,0.0,0.0
196,48.75,31.8071,33.0607,170.339,110.542,98.6048,0.00561606,0.229758,20.7973,-458.149,1.01075,0.0,0.0
198,49.25,31.7542,33.0453,169.005,110.545,100.077,0.00537779,0.223824,20.808,-458.179,0.879899,0.0,0.0
200,49.75,31.6531,33.6277,172.645,110.537,100.892,0.00513584,0.216233,20.8215,-457.569,0.807577,0.0,0.0
202,50.25,31.5999,33.2135,171.477,110.547,101.388,0.00493986,0.210083,20.8325,-456.898,0.764899,0.0,0.0
204,50.75,31.6412,33.2515,172.77,110.549,102.552,0.00472097,0.202185,20.8438,-456.608,0.66416,0.0,0.0
206,51.25,31.1979,32.8539,170.849,110.549,102.581,0.00454367,0.195787,20.855,-458.149,0.661618,0.0,0.0
208,51.75,30.6991,32.5344,173.635,110.544,102.467,0.00436205,0.188934,20.8662,-457.709,0.671051,0.0,0.0
210,52.25,31.5845,33.4558,169.029,110.553,102.487,0.00419754,0.181878,20.8772,-457.519,0.670133,0.0,0.0
212,52.75,30.7129,32.7835,173.35,110.546,102.981,0.00404862,0.176163,20.891,-457.539,0.627017,0.0,0.0
214,53.25,31.5118,33.268,173.848,110.574,102.647,0.003928,0.168487,20.9022,-457.609,0.657979,0.0,0.0
216,53.75,30.7686,32.8214,177.582,110.565,102.513,0.00380826,0.162269,20.9122,-457.829,0.668854,0.0,0.0
218,54.25,30.9172,32.9035,178.182,110.56,102.481,0.00371128,0.155649,20.9212,-458.059,0.671204,0.0,0.0
220,54.75,30.7972,32.256,175.63,110.564,102.356,0.00361804,0.150287,20.9291,-457.909,0.682283,0.0,0.0
222,55.25,30.9127,32.5857,176.922,110.563,102.952,0.00354252,0.144798,20.9362,-457.889,0.630816,0.0,0.0
224,55.75,30.0421,31.6677,176.886,110.565,103.407,0.00348135,0.140353,20.9419,-457.789,0.591959,0.0,0.0
226,56.25,30.4749,32.5918,180.245,110.569,103.226,0.00341835,0.135931,20.9473,-457.919,0.607795,0.0,0.0
228,56.75,29.8928,31.8427,179.314,110.559,102.936,0.00336732,0.132348,20.9523,-458.249,0.631843,0.0,0.0
230,57.25,29.7609,31.9676,170.671,110.57,103.185,0.00330765,0.129016,20.9563,-458.319,0.611386,0.0,0.0
232,57.75,29.7986,31.7159,177.614,110.56,103.58,0.00325932,0.125928,20.9605,-458.369,0.576768,0.0,0.0
234,58.25,30.3144,31.7074,171.733,110.563,103.234,0.00320732,0.123426,20.9638,-458.439,0.606646,0.0,0.0
236,58.75,29.6612,31.6254,179.777,110.553,103.645,0.00315362,0.120693,20.967,-458.6,0.57071,0.0,0.0
238,59.25,30.0754,31.6023,173.661,110.573,103.542,0.00309599,0.11848,20.9696,-458.77,0.581145,0.0,0.0
240,59.75,29.704,31.2298,173.166,110.558,103.667,0.0030366,0.116257,20.9721,-458.76,0.569268,0.0,0.0
242,60.25,29.6237,31.0911,174.862,110.573,103.411,0.00298848,0.114457,20.9741,-458.88,0.592255,0.0,0.0
244,60.75,29.6657,31.2832,173.329,110.598,103.14,0.00290439,0.112868,20.976,-458.91,0.617519,0.0,0.0
246,61.25,29.4783,31.4143,172.987,110.583,103.526,0.00283628,0.111463,20.9778,-458.95,0.58326,0.0,0.0
248,61.75,29.1407,30.7183,174.904,110.579,103.202,0.00274456,0.110128,20.9797,-459.07,0.610636,0.0,0.0
250,62.25,29.4821,31.2378,173.339,110.575,103.572,0.00267027,0.108871,20.9816,-459.21,0.578731,0.0,0.0
252,62.75,29.5044,31.5859,176.592,110.573,103.34,0.0026101,0.107852,20.9832,-459.43,0.598402,0.0,0.0
254,63.25,28.13,30.3467,173.316,110.572,103.788,0.00254067,0.106737,20.9845,-459.48,0.560049,0.0,0.0
256,63.75,28.8352,30.5809,177.299,110.574,103.63,0.00248443,0.105833,20.9855,-459.651,0.573667,0.0,0.0
258,64.25,28.7884,30.6026,174.412,110.576,103.268,0.00244374,0.104985,20.9864,-459.51,0.604768,0.0,0.0
260,64.75,28.716,30.4733,171.776,110.581,103.825,0.00241078,0.104194,20.9875,-459.691,0.557635,0.0,0.0
262,65.25,29.2907,30.55,178.971,110.585,103.81,0.00238537,0.103488,20.9884,-459.841,0.55921,0.0,0.0
264,65.75,28.8141,30.7647,173.254,110.583,103.496,0.00236594,0.102857,20.9891,-459.891,0.585816,0.0,0.0
266,66.25,28.6328,30.4277,172.964,110.584,103.715,0.0023502,0.102346,20.9897,-459.951,0.567207,0.0,0.0
268,66.75,29.102,30.8087,179.81,110.587,104.148,0.00232208,0.101932,20.9902,-459.991,0.530565,0.0,0.0
270,67.25,28.6654,29.7896,171.214,110.578,103.69,0.00228548,0.101596,20.9907,-460.001,0.56888,0.0,0.0
272,67.75,27.8798,29.6872,175.515,110.588,103.512,0.00225583,0.101223,20.9912,-460.001,0.584831,0.0,0.0
274,68.25,28.2199,30.5364,174.706,110.582,103.269,0.00219292,0.10083,20.9915,-460.031,0.605222,0.0,0.0
276,68.75,27.7085,29.565,165.878,110.581,103.837,0.00214196,0.100511,20.9918,-460.031,0.556534,0.0,0.0
278,69.25,28.2001,30.1218,176.351,110.588,103.75,0.00206426,0.100252,20.9922,-460.041,0.564555,0.0,0.0
280,69.75,27.7094,30.0782,175.061,110.586,103.579,0.00200132,0.0998363,20.9928,-460.041,0.579006,0.0,0.0
282,70.25,27.9844,30.1892,171.862,110.581,103.515,0.00195034,0.0994994,20.9933,-460.051,0.583996,0.0,0.0
284,70.75,27.9809,29.5572,165.116,110.58,103.379,0.00187994,0.0990749,20.9937,-460.051,0.595568,0.0,0.0
286,71.25,27.4717,29.7121,172.509,110.579,103.744,0.00182291,0.0987311,20.994,-460.071,0.564271,0.0,0.0
288,71.75,27.6768,29.3997,176.853,110.602,103.811,0.00175254,0.0982461,20.9945,-460.071,0.560514,0.0,0.0
290,72.25,28.2223,29.7339,178.9,110.601,103.248,0.00169555,0.0978533,20.9951,-460.071,0.608465,0.0,0.0
292,72.75,27.8753,29.6714,179.114,110.589,103.773,0.00163217,0.0974409,20.9956,-460.081,0.562649,0.0,0.0
294,73.25,27.8422,29.8893,177.317,110.588,103.298,0.00156534,0.0970221,20.9962,-460.071,0.603124,0.0,0.0
296,73.75,27.6892,30.0086,170.68,110.589,103.153,0.00148956,0.0966829,20.9968,-460.081,0.615625,0.0,0.0
298,74.25,28.024,29.5328,180.025,110.59,103.868,0.00140869,0.0963787,20.9972,-460.081,0.554656,0.0,0.0
300,74.75,27.2096,29.3664,173.283,110.591,103.765,0.00132664,0.0961058,20.9976,-460.091,0.563549,0.0,0.0
302,75.25,27.18,29.4897,174.488,110.597,103.92,0.0012453,0.0958485,20.9979,-460.101,0.550775,0.0,0.0
304,75.75,27.4473,29.1582,177.925,110.588,103.857,0.00117941,0.0956076,20.9981,-460.101,0.555465,0.0,0.0
306,76.25,26.4931,28.6951,180.013,110.586,103.126,0.00111879,0.0953617,20.9983,-460.121,0.617748,0.0,0.0
308,76.75,26.8989,28.5212,169.943,110.59,104.262,0.00106969,0.095117,20.9985,-460.131,0.521148,0.0,0.0
310,77.25,27.1826,29.097,175.829,110.584,103.515,0.00102992,0.0948898,20.9986,-460.121,0.584355,0.0,0.0
312,77.75,26.9412,28.641,175.325,110.608,103.418,0.00102913,0.0946797,20.9987,-460.131,0.594473,0.0,0.0
314,78.25,27.026,28.888,178.325,110.576,103.69,0.00102848,0.0945095,20.9988,-460.141,0.568776,0.0,0.0
316,78.75,27.294,29.0987,175.868,110.577,103.893,0.00105336,0.09435,20.9991,-460.141,0.551463,0.0,0.0
318,79.25,27.3854,28.8934,173.778,110.586,103.475,0.00107351,0.0942012,20.9995,-460.141,0.587855,0.0,0.0
320,79.75,26.7353,29.4429,171.178,110.569,103.658,0.00110678,0.0940807,20.9999,-460.131,0.570806,0.0,0.0
322,80.25,26.8325,29.1249,170.785,110.57,103.589,0.00113372,0.0939144,21.0002,-460.131,0.576893,0.0,0.0
324,80.75,27.0908,28.8237,173.342,110.574,103.073,0.0011616,0.0937797,21.0005,-460.131,0.621389,0.0,0.0
326,81.25,26.4419,28.6947,178.054,110.556,103.16,0.00118418,0.0935259,21.0007,-460.141,0.612394,0.0,0.0
328,81.75,26.8436,28.8158,179.684,110.587,103.142,0.00119355,0.0931901,21.0007,-460.141,0.616479,0.0,0.0
330,82.25,26.726,28.5389,174.36,110.563,103.074,0.00119333,0.092817,21.0009,-460.151,0.620353,0.0,0.0
332,82.75,26.7965,28.8785,179.438,110.56,102.812,0.00119293,0.0924237,21.001,-460.151,0.642585,0.0,0.0
334,83.25,26.6651,28.749,176.898,110.565,103.341,0.001166,0.0919751,21.0011,-460.171,0.597686,0.0,0.0
336,83.75,26.4304,28.3099,174.951,110.575,103.654,0.00114419,0.0914946,21.0012,-460.171,0.57168,0.0,0.0
338,84.25,26.4433,27.9135,179.987,110.561,103.055,0.00112652,0.0910116,21.0012,-460.171,0.621825,0.0,0.0
340,84.75,26.4101,28.1965,176.477,110.579,103.717,0.00107958,0.0907613,21.0015,-460.181,0.566629,0.0,0.0
342,85.25,26.3843,28.5047,175.541,110.553,103.43,0.00104155,0.0903331,21.002,-460.181,0.589056,0.0,0.0
344,85.75,25.9539,28.5088,173.07,110.563,103.627,0.000997463,0.0897944,21.0023,-460.171,0.57301,0.0,0.0
346,86.25,26.3892,27.9168,176.276,110.545,103.836,0.000961752,0.089358,21.0026,-460.191,0.553708,0.0,0.0
348,86.75,26.6585,28.2143,175.351,110.557,103.018,0.00092558,0.0889612,21.0028,-460.201,0.624649,0.0,0.0
350,87.25,26.3253,28.1313,175.795,110.55,103.25,0.000896281,0.0886008,21.003,-460.211,0.604211,0.0,0.0
352,87.75,26.0258,28.0249,172.95,110.547,103.246,0.000868101,0.0883089,21.0034,-460.211,0.60434,0.0,0.0
354,88.25,26.1085,27.4634,172.172,110.538,103.792,0.000841272,0.0878396,21.004,-460.211,0.556908,0.0,0.0
356,88.75,26.1656,28.2759,178.065,110.549,103.264,0.000803852,0.0874594,21.0044,-460.211,0.602954,0.0,0.0
358,89.25,26.3093,27.6502,168.844,110.546,103.352,0.000773541,0.0870361,21.005,-460.221,0.595138,0.0,0.0
360,89.75,26.0222,28.1887,173.597,110.548,103.616,0.000748989,0.0865894,21.0056,-460.231,0.572725,0.0,0.0
362,90.25,26.0221,27.6103,167.66,110.546,103.677,0.000710695,0.0861844,21.0062,-460.221,0.567438,0.0,0.0
364,90.75,25.9814,27.6359,176.788,110.549,103.352,0.000663108,0.0858174,21.0069,-460.221,0.595386,0.0,0.0
366,91.25,25.8589,27.7229,175.67,110.539,103.09,0.000624563,0.0854481,21.0074,-460.231,0.617102,0.0,0.0
368,91.75,25.5308,27.3369,171.722,110.548,102.991,0.000577487,0.0850842,21.0079,-460.221,0.62628,0.0,0.0
370,92.25,26.0516,27.9592,175.165,110.538,103.436,0.000525087,0.0847894,21.0082,-460.231,0.587357,0.0,0.0
372,92.75,25.8659,27.3415,171.033,110.55,103.52,0.00046676,0.0844137,21.0085,-460.231,0.5811,0.0,0.0
374,93.25,26.0816,27.6246,172.237,110.531,103.678,0.000405221,0.0839864,21.0092,-460.241,0.566119,0.0,0.0
376,93.75,25.413,27.3746,176.876,110.536,103.231,0.000343977,0.0836402,21.0098,-460.251,0.604793,0.0,0.0
378,94.25,25.8785,27.7425,178.505,110.521,103.86,0.000284111,0.0831684,21.0108,-460.261,0.549817,0.0,0.0
380,94.75,25.74,27.4282,174.49,110.535,103.472,0.000231822,0.0827862,21.0117,-460.241,0.584052,0.0,0.0
382,95.25,25.6706,27.2265,180.256,110.53,103.298,0.000186051,0.0824767,21.0124,-460.241,0.598449,0.0,0.0
384,95.75,25.7896,27.1583,177.236,110.525,102.901,0.000148976,0.0820218,21.013,-460.251,0.632224,0.0,0.0
386,96.25,25.1409,27.1525,174.739,110.52,102.922,0.000129769,0.0816533,21.0136,-460.251,0.629957,0.0,0.0
388,96.75,25.5816,27.517,176.979,110.531,103.006,0.000114211,0.0812319,21.0144,-460.251,0.623593,0.0,0.0
390,97.25,25.5158,27.3883,171.517,110.519,103.344,0.000112374,0.0808906,21.015,-460.251,0.59374,0.0,0.0
392,97.75,25.3904,26.9694,173.048,110.544,103.511,0.000120576,0.0804912,21.0155,-460.261,0.581441,0.0,0.0
394,98.25,25.4387,27.272,164.423,110.524,103.365,0.000127219,0.0801677,21.016,-460.261,0.592293,0.0,0.0
396,98.75,25.4025,27.0627,176.663,110.52,103.002,0.000149454,0.0798237,21.0163,-460.281,0.623088,0.0,0.0
398,99.25,25.3544,26.9199,179.946,110.513,102.892,0.000167464,0.0795451,21.0166,-460.281,0.631961,0.0,0.0
400,99.75,25.3441,27.1522,175.57,110.519,103.039,0.000180151,0.0792691,21.0168,-460.291,0.619912,0.0,0.0
402,100.25,24.9221,26.8874,175.834,110.524,102.877,0.000188717,0.0790003,21.0174,-460.301,0.634187,0.0,0.0
404,100.75,25.1626,27.0462,177.059,110.531,102.881,0.000182985,0.0787825,21.0179,-460.311,0.634407,0.0,0.0
406,101.25,25.0391,26.8445,169.518,110.511,103.946,0.000166941,0.0784833,21.0183,-460.301,0.541632,0.0,0.0
408,101.75,25.3807,26.6444,175.763,110.525,103.317,0.000142549,0.078241,21.0186,-460.301,0.596529,0.0,0.0
410,102.25,25.2768,26.2148,177.054,110.526,102.94,0.000112537,0.0779441,21.0189,-460.301,0.628843,0.0,0.0
412,102.75,24.0503,26.1412,175.65,110.524,103.214,8.82271e-05,0.0776132,21.0191,-460.301,0.605291,0.0,0.0
414,103.25,25.0056,26.8941,177.043,110.519,103.303,7.21438e-05,0.0772662,21.0193,-460.321,0.597218,0.0,0.0
416,103.75,25.2227,26.6979,176.109,110.524,103.556,5.91162e-05,0.076914,21.0195,-460.321,0.576034,0.0,0.0
418,104.25,25.4422,26.8809,175.824,110.525,103.648,5.82635e-05,0.076557,21.0197,-460.331,0.568178,0.0,0.0
420,104.75,25.0267,26.594,177.417,110.53,103.315,5.75728e-05,0.0762033,21.0201,-460.321,0.597074,0.0,0.0
422,105.25,25.0951,26.976,162.476,110.522,103.07,5.70134e-05,0.0758235,21.0203,-460.321,0.617404,0.0,0.0
424,105.75,24.618,26.5069,178.109,110.542,103.806,5.53573e-05,0.075432,21.0208,-460.321,0.556118,0.0,0.0
426,106.25,24.0787,26.1108,173.369,110.515,103.064,5.40159e-05,0.0751148,21.0214,-460.331,0.617339,0.0,0.0
428,106.75,24.2111,26.0413,174.18,110.533,103.724,4.5334e-05,0.0747072,21.0219,-460.331,0.562303,0.0,0.0
430,107.25,24.6805,26.3601,174.479,110.521,103.363,3.14658e-05,0.074377,21.0223,-460.311,0.592239,0.0,0.0
432,107.75,24.6967,26.6986,171.802,110.54,103.292,4.40987e-06,0.0740379,21.0226,-460.311,0.599835,0.0,0.0
434,108.25,24.6017,26.5934,170.574,110.525,103.699,-3.1746e-05,0.0736987,21.0228,-460.321,0.563835,0.0,0.0
436,108.75,25.0065,27.0607,172.171,110.551,102.768,-7.74876e-05,0.073424,21.023,-460.321,0.645716,0.0,0.0
438,109.25,25.2838,26.3517,174.638,110.534,103.351,-0.000129348,0.0731226,21.0232,-460.321,0.594332,0.0,0.0
440,109.75,24.6342,26.0632,177.249,110.542,103.039,-0.000184013,0.0728075,21.0233,-460.341,0.621679,0.0,0.0
442,110.25,24.1374,26.1062,179.036,110.542,103.453,-0.000239683,0.0725165,21.0234,-460.331,0.586259,0.0,0.0
444,110.75,24.2341,25.8333,175.938,110.544,102.696,-0.000291106,0.0722486,21.0235,-460.351,0.651377,0.0,0.0
446,111.25,24.6983,26.3039,170.333,110.542,103.67,-0.000338454,0.0720172,21.0236,-460.371,0.567657,0.0,0.0
448,111.75,24.6394,26.1742,173.436,110.549,103.106,-0.000376806,0.0718169,21.0237,-460.381,0.616499,0.0,0.0
450,112.25,24.1885,26.3978,173.706,110.565,103.445,-0.000415086,0.0716045,21.0237,-460.351,0.588713,0.0,0.0
452,112.75,24.7509,26.133,178.339,110.572,103.295,-0.000446093,0.0713873,21.0237,-460.341,0.602115,0.0,0.0
454,113.25,23.9529,25.637,181.204,110.562,103.648,-0.000471209,0.0711398,21.0238,-460.351,0.571152,0.0,0.0
456,113.75,24.0501,25.5758,176.701,110.583,103.283,-0.000497881,0.0708749,21.0238,-460.371,0.604035,0.0,0.0
458,114.25,24.6959,25.9258,173.413,110.578,103.928,-0.000525183,0.0706603,21.0239,-460.371,0.548643,0.0,0.0
460,114.75,24.5837,25.969,175.425,110.584,103.815,-0.000555567,0.0703369,21.0241,-460.371,0.558683,0.0,0.0
462,115.25,23.8867,25.5264,177.188,110.578,103.127,-0.000587622,0.0700749,21.0248,-460.351,0.617073,0.0,0.0
464,115.75,24.1647,25.6109,172.134,110.589,102.618,-0.000624346,0.0698627,21.0253,-460.361,0.66168,0.0,0.0
466,116.25,24.1711,25.815,174.489,110.598,103.14,-0.000663776,0.0695907,21.0263,-460.351,0.617479,0.0,0.0
468,116.75,24.5017,25.4617,176.565,110.6,103.349,-0.000703309,0.0692801,21.027,-460.351,0.599684,0.0,0.0
470,117.25,24.4985,25.6833,177.903,110.612,103.84,-0.000742167,0.0690004,21.0276,-460.361,0.558818,0.0,0.0
472,117.75,24.5604,25.7753,180.562,110.615,103.618,-0.000773642,0.0687485,21.0281,-460.361,0.577915,0.0,0.0
474,118.25,24.1583,25.8866,177.681,110.64,103.434,-0.000796731,0.0684801,21.0287,-460.361,0.595682,0.0,0.0
476,118.75,24.5417,25.9618,174.86,110.642,103.89,-0.000815433,0.0682047,21.0294,-460.371,0.556894,0.0,0.0
478,119.25,24.2902,26.0016,177.817,110.64,103.356,-0.000830581,0.0679816,21.03,-460.381,0.60233,0.0,0.0
480,119.75,24.0743,25.7017,175.721,110.638,103.411,-0.000828422,0.0677195,21.0305,-460.391,0.597491,0.0,0.0
482,120.25,23.964,25.1917,178.781,110.66,103.793,-0.000826672,0.0675071,21.0309,-460.391,0.566634,0.0,0.0
484,120.75,24.6465,25.6412,175.273,110.649,103.12,-0.00082285,0.0672128,21.0312,-460.391,0.623342,0.0,0.0
486,121.25,24.3074,25.592,161.517,110.668,103.381,-0.000819754,0.0669745,21.0314,-460.381,0.602456,0.0,0.0
488,121.75,24.2966,25.5646,165.682,110.652,103.466,-0.000822057,0.066667,21.0316,-460.391,0.593926,0.0,0.0
490,122.25,24.1891,25.9567,173.691,110.666,103.222,-0.000823922,0.0663151,21.0318,-460.381,0.615921,0.0,0.0
492,122.75,24.1256,25.7695,172.269,110.664,103.398,-0.00083866,0.0660301,21.0319,-460.381,0.60061,0.0,0.0
494,123.25,24.3134,25.2526,173.576,110.674,103.329,-0.000850598,0.0657134,21.032,-460.381,0.607418,0.0,0.0
496,123.75,24.2212,25.4697,183.53,110.681,103.896,-0.000873496,0.0653798,21.0324,-460.381,0.559582,0.0,0.0
498,124.25,23.9077,25.3301,177.125,110.696,103.09,-0.000892043,0.0649603,21.0328,-460.371,0.629695,0.0,0.0
500,124.75,24.0252,25.2317,179.329,110.691,104.003,-0.000917193,0.0646206,21.0332,-460.371,0.551243,0.0,0.0
502,125.25,23.5432,25.17,177.507,110.697,103.092,-0.000946679,0.0643046,21.0335,-460.371,0.629573,0.0,0.0
504,125.75,23.8701,25.7034,174.889,110.701,102.765,-0.000970562,0.0640487,21.0338,-460.381,0.657939,0.0,0.0
506,126.25,23.7915,25.2669,176.493,110.719,103.354,-0.00100554,0.0638008,21.034,-460.381,0.608849,0.0,0.0
508,126.75,24.0328,25.2468,174.776,110.719,103.595,-0.00103387,0.0635999,21.0341,-460.401,0.588241,0.0,0.0
510,127.25,23.4502,25.4964,171.958,110.735,103.628,-0.00107246,0.063373,21.0343,-460.401,0.586728,0.0,0.0
512,127.75,24.4232,25.8934,172.511,110.73,103.346,-0.00110371,0.0631313,21.0348,-460.401,0.610346,0.0,0.0
514,128.25,23.8601,25.2209,171.897,110.768,103.638,-0.00113978,0.0629356,21.0353,-460.401,0.58854,0.0,0.0
516,128.75,24.0063,25.5011,167.044,110.753,103.605,-0.00117868,0.0625195,21.0357,-460.391,0.590087,0.0,0.0
518,129.25,23.8382,25.1038,173.725,110.78,103.21,-0.00121526,0.0621824,21.0359,-460.401,0.626039,0.0,0.0
520,129.75,24.0077,25.3728,174.603,110.782,103.465,-0.00124944,0.0617953,21.0366,-460.401,0.604394,0.0,0.0
522,130.25,23.6063,25.5272,179.033,110.803,103.769,-0.0012765,0.0613791,21.0372,-460.391,0.580102,0.0,0.0
524,130.75,24.1634,25.3865,172.433,110.81,103.566,-0.00129784,0.0610419,21.0381,-460.391,0.597958,0.0,0.0
526,131.25,23.7175,25.3017,171.288,110.821,103.336,-0.00130817,0.0605656,21.0388,-460.381,0.618463,0.0,0.0
528,131.75,24.2282,25.243,169.244,110.818,104.074,-0.00131027,0.0600872,21.0398,-460.391,0.555344,0.0,0.0
530,132.25,23.8675,25.2465,173.9,110.839,103.815,-0.00131197,0.0596163,21.0407,-460.391,0.579037,0.0,0.0
532,132.75,23.5129,24.6371,174.45,110.837,103.752,-0.00130385,0.0591423,21.0414,-460.401,0.584337,0.0,0.0
534,133.25,23.8513,25.1335,177.308,110.878,104.237,-0.00128873,0.058675,21.0419,-460.391,0.546273,0.0,0.0
536,133.75,23.3751,25.5758,177.166,110.867,103.76,-0.00127459,0.0582965,21.0424,-460.411,0.585944,0.0,0.0
538,134.25,23.9765,24.9357,175.194,110.894,104.018,-0.00126142,0.0577599,21.0432,-460.391,0.566199,0.0,0.0
540,134.75,23.9012,25.049,165.648,110.891,103.801,-0.00125076,0.0573253,21.0438,-460.391,0.584386,0.0,0.0
542,135.25,23.7091,25.562,173.81,110.905,104.247,-0.00124212,0.0568245,21.0444,-460.401,0.547627,0.0,0.0
544,135.75,23.5824,24.3968,176.733,110.913,103.611,-0.00123512,0.0564189,21.0448,-460.391,0.602371,0.0,0.0
546,136.25,23.5179,25.1042,172.225,110.929,103.7,-0.00122945,0.0560263,21.0451,-460.401,0.596057,0.0,0.0
548,136.75,23.9064,25.5358,169.718,110.919,103.905,-0.00123328,0.0556506,21.0452,-460.391,0.577781,0.0,0.0
550,137.25,23.9849,25.2264,173.932,110.953,103.748,-0.00123638,0.055261,21.045,-460.391,0.593777,0.0,0.0
552,137.75,23.8262,24.3383,181.149,110.949,103.824,-0.00125813,0.0548686,21.0449,-460.391,0.587065,0.0,0.0
554,138.25,23.0964,24.5887,175.685,110.975,103.207,-0.00127575,0.0545507,21.0453,-460.401,0.641791,0.0,0.0
556,138.75,22.9615,24.3196,177.022,110.972,104.259,-0.00130205,0.0542932,21.0456,-460.401,0.551965,0.0,0.0
558,139.25,23.9394,24.8367,176.386,110.968,104,-0.00133417,0.053774,21.0458,-460.411,0.573608,0.0,0.0
560,139.75,23.8886,25.2417,175.444,110.984,104.094,-0.00136019,0.0533534,21.046,-460.401,0.566867,0.0,0.0
562,140.25,23.8683,25.4646,170.882,110.993,104.158,-0.00139582,0.0528919,21.0461,-460.411,0.562148,0.0,0.0
564,140.75,22.9154,24.7275,174.523,110.999,103.988,-0.00143779,0.0524093,21.0467,-460.411,0.577066,0.0,0.0
566,141.25,23.691,24.5249,170.751,111.014,103.661,-0.00147747,0.0520185,21.0472,-460.411,0.606214,0.0,0.0
568,141.75,22.9281,24.5467,179.337,111.025,104.177,-0.00151475,0.0515534,21.048,-460.411,0.563096,0.0,0.0
570,142.25,22.6458,24.0571,168.406,111.029,104.062,-0.00154494,0.0511768,21.0486,-460.401,0.573194,0.0,0.0
572,142.75,22.9311,24.3889,177.191,111.039,103.97,-0.00156939,0.0506962,21.0492,-460.411,0.581827,0.0,0.0
574,143.25,23.523,24.3359,171.842,111.053,104.207,-0.00158984,0.050307,21.0496,-460.401,0.562775,0.0,0.0
576,143.75,23.7984,25.028,175.753,111.07,104.016,-0.00160696,0.0499917,21.0504,-460.411,0.580347,0.0,0.0
578,144.25,23.2773,24.6645,170.217,111.078,103.231,-0.0016202,0.0495206,21.0511,-460.401,0.647937,0.0,0.0
580,144.75,23.4247,24.5898,178.341,111.082,104.372,-0.00162555,0.0491389,21.0513,-460.411,0.551092,0.0,0.0
582,145.25,23.5738,24.6345,177.545,111.092,104.529,-0.00163469,0.0486545,21.0518,-460.401,0.538592,0.0,0.0
584,145.75,22.6992,24.244,177.508,111.092,103.819,-0.00163667,0.0482622,21.0524,-460.391,0.598863,0.0,0.0
586,146.25,22.5604,23.922,174.97,111.11,104.184,-0.0016372,0.0478231,21.0525,-460.401,0.569251,0.0,0.0
588,146.75,22.7395,23.5692,173.639,111.113,103.805,-0.00164352,0.0474674,21.0528,-460.391,0.601774,0.0,0.0
590,147.25,23.3454,24.8338,175.719,111.132,103.925,-0.00164839,0.0471119,21.0528,-460.401,0.593062,0.0,0.0
592,147.75,23.5242,24.7104,176.24,111.137,104.017,-0.00165671,0.0469604,21.0528,-460.411,0.585588,0.0,0.0
594,148.25,23.0341,24.8656,174.747,111.157,103.956,-0.00168149,0.0465934,21.0528,-460.411,0.592408,0.0,0.0
596,148.75,23.2677,24.371,176.258,111.158,104.552,-0.00170156,0.0461695,21.0529,-460.401,0.54195,0.0,0.0
598,149.25,22.5057,24.5025,175.284,111.164,104.253,-0.00173225,0.0460196,21.0529,-460.401,0.567713,0.0,0.0
600,149.75,23.3648,24.2413,170.651,111.173,104.239,-0.00175711,0.0457633,21.0529,-460.421,0.569662,0.0,0.0
602,150.25,22.4677,24.0122,170.795,111.179,104.777,-0.00177363,0.0455558,21.0529,-460.421,0.524516,0.0,0.0
604,150.75,23.067,23.9569,173.009,111.188,103.905,-0.00178702,0.0453068,21.0529,-460.431,0.599206,0.0,0.0
606,151.25,22.798,24.8502,178.307,111.19,104.038,-0.00179305,0.0451051,21.0529,-460.431,0.588063,0.0,0.0
608,151.75,23.1555,24.7495,178.2,111.197,104.67,-0.00179794,0.0448475,21.0529,-460.421,0.535081,0.0,0.0
610,152.25,22.869,24.8833,178.897,111.213,103.969,-0.00179709,0.0446389,21.0529,-460.431,0.595703,0.0,0.0
612,152.75,23.1098,23.9396,177.936,111.219,104.261,-0.0017964,0.0444344,21.0529,-460.431,0.571356,0.0,0.0
614,153.25,23.2386,24.5638,173.212,111.229,103.815,-0.00179457,0.0442369,21.0529,-460.421,0.610124,0.0,0.0
616,153.75,22.6405,24.2022,176.308,111.249,104.417,-0.00179195,0.0440096,21.0534,-460.421,0.560576,0.0,0.0
618,154.25,23.2405,24.0627,170.05,111.236,104.111,-0.0017911,0.0438255,21.0538,-460.431,0.5855,0.0,0.0
620,154.75,22.9066,24.1885,168.174,111.25,104.367,-0.00179155,0.0436091,21.054,-460.431,0.564919,0.0,0.0
622,155.25,23.0516,23.685,165.432,111.246,104.191,-0.00179191,0.0434338,21.0543,-460.411,0.579449,0.0,0.0
624,155.75,22.9164,24.0819,170.033,111.271,104.492,-0.00179942,0.0432635,21.0545,-460.411,0.555946,0.0,0.0
626,156.25,22.6485,24.0877,173.017,111.253,103.869,-0.0018055,0.0431,21.0546,-460.411,0.607456,0.0,0.0
628,156.75,22.6827,24.5827,174.235,111.267,104.297,-0.00182125,0.0429676,21.0548,-460.421,0.572159,0.0,0.0
630,157.25,23.1129,24.0365,177.711,111.263,104.481,-0.00183401,0.042793,21.0549,-460.401,0.556257,0.0,0.0
632,157.75,22.8517,24.0171,176.221,111.275,104.32,-0.00185276,0.0426516,21.055,-460.421,0.570864,0.0,0.0
634,158.25,22.9202,23.661,174.647,111.276,103.716,-0.00186795,0.0424833,21.055,-460.421,0.622332,0.0,0.0
636,158.75,22.9268,23.9351,170.379,111.286,103.634,-0.00188025,0.0423469,21.0551,-460.431,0.630148,0.0,0.0
638,159.25,22.6053,24.6247,174.152,111.275,104.595,-0.00189781,0.042194,21.0551,-460.421,0.547648,0.0,0.0
640,159.75,23.0967,24.0097,175.699,111.283,103.856,-0.00191887,0.0420319,21.0561,-460.421,0.610877,0.0,0.0
642,160.25,22.7682,24.1122,178.453,111.269,104.202,-0.00193592,0.0418467,21.0569,-460.421,0.580442,0.0,0.0
644,160.75,22.5427,23.816,175.655,111.286,104.387,-0.00194974,0.0416968,21.0575,-460.421,0.566026,0.0,0.0
646,161.25,23.2176,23.7119,176.286,111.29,103.933,-0.00196815,0.0415753,21.058,-460.421,0.604864,0.0,0.0
648,161.75,22.6028,23.7974,167.599,111.29,104.403,-0.00198179,0.0414486,21.0584,-460.431,0.564984,0.0,0.0
650,162.25,22.7413,24.4039,175.917,111.293,104.122,-0.0019917,0.0413205,21.0587,-460.431,0.589088,0.0,0.0
652,162.75,22.9103,24.0924,177.469,111.281,104.401,-0.00199973,0.0412167,21.059,-460.431,0.564432,0.0,0.0
654,163.25,22.7543,23.9609,175.513,111.272,103.995,-0.00200263,0.0410902,21.0595,-460.431,0.598216,0.0,0.0
656,163.75,22.1667,23.9618,175.044,111.283,104.622,,0.0409495,,-460.421,0.545907,0.0,0.0
658,164.25,22.7736,23.6521,174.057,111.276,104.641,,0.0408355,,-460.421,0.543792,0.0,0.0
660,164.75,22.8638,23.6697,170.117,111.258,104.46,,0.0406759,,-460.421,0.557612,0.0,0.0
662,165.25,22.8278,23.7865,170.414,111.265,104.357,,0.0405467,,-460.431,0.566909,0.0,0.0
664,165.75,22.856,24.0368,175.882,111.27,104.019,,0.0403747,,-460.411,0.596025,0.0,0.0
666,166.25,22.8943,24.0085,175.319,111.27,104.532,,0.0402355,,-460.411,0.552551,0.0,0.0
668,166.75,23.3305,23.6706,179.842,111.257,104.628,,,,-460.421,0.543336,0.0,0.0
670,167.25,23.0675,23.506,177.127,111.245,104.317,,,,-460.421,0.568771,0.0,0.0
672,167.75,23.0437,22.9666,175.363,111.248,104.011,,,,-460.421,0.595023,0.0,0.0
674,168.25,22.8065,24.2019,172.439,111.233,104.19,,,,-460.421,0.578543,0.0,0.0
676,168.75,22.6008,24.0841,177.92,111.245,104.599,,,,-460.411,0.544805,0.0,0.0
678,169.25,22.4746,23.4849,175.645,111.226,104.634,,,,-460.401,0.540422,0.0,0.0
680,169.75,22.7664,23.5392,179.462,111.22,104.639,,,,-460.421,0.539479,0.0,0.0
682,170.25,22.8708,24.2435,183.522,111.204,103.824,,,,-460.431,0.607351,0.0,0.0
684,170.75,22.3063,24.0784,179.322,111.199,104.297,,,,-460.421,0.566816,0.0,0.0
686,171.25,22.459,23.87,173.226,111.191,104.824,,,,-460.401,0.521582,0.0,0.0
688,171.75,22.9174,23.6296,176.205,111.18,104.235,,,,-460.401,0.570494,0.0,0.0
690,172.25,22.2343,23.7769,177.895,111.171,104.218,,,,-460.411,0.571232,0.0,0.0
692,172.75,22.9522,23.4543,178.32,111.164,104.342,,,,-460.421,0.560176,0.0,0.0
694,173.25,22.1623,23.6719,174.227,111.134,104.582,,,,-460.421,0.537481,0.0,0.0
696,173.75,22.8661,23.2578,179.382,111.131,104.71,,,,-460.411,0.526407,0.0,0.0
698,174.25,22.6414,23.901,172.93,111.121,104.353,,,,-460.401,0.55578,0.0,0.0
699,174.5,22.4288,23.4663,177.5,111.128,104.424,,,,-460.411,0.550402,0.0,0.0