File: 01_Data/Fiberglass_Insulation_R13_Paper_Faced/MCC/R13_Fiberglass_Insulation_MCC_30K_min_220124_R1.txt
Sample ID:	C:\MCC\MCC Cal\Test\Fiberglas_Inaulation1_MCC_30K_min_220124_R1.txt
Sample Weight (mg):	4.71
Heating Rate (C/s):	0.5
Combustor Temp (C):	900
N2 Flow Rate (cc/min):	80
O2 Flow Rate (cc/min):	20
Calibration File:	C:\MCC\MCC Cal\Coeff1 JN10440_30_210304.txt.txt
T Correction Coefficients:	0	1.024463	0
Time Shift (s):	14
*
Time (s)	Temperature (C)	N2 flow rate (cc/min)	O2 flow rate (cc/min)	Flow Rate (cc/min)	Oxygen (%)	HRR (W/g)	Heating rate (C/s)
0.000	110.360	80.009	19.994	103.743	20.159	-0.289	-0.017
1.500	110.323	80.010	19.993	103.741	20.158	-0.198	-0.019
3.000	110.371	80.010	19.993	103.744	20.158	-0.221	0.012
4.500	110.350	80.010	19.994	103.748	20.157	-0.118	-0.025
6.000	110.339	80.010	19.992	103.744	20.159	-0.274	0.003
7.500	110.364	80.011	19.993	103.742	20.156	-0.061	0.006
9.000	110.334	80.008	19.993	103.744	20.155	-0.019	-0.015
10.500	110.355	80.009	19.993	103.754	20.154	0.078	0.016
12.000	110.348	80.007	19.992	103.775	20.154	0.111	-0.015
13.500	110.368	80.009	19.994	103.789	20.150	0.360	0.011
15.000	110.354	80.009	19.993	103.811	20.145	0.722	-0.011
16.500	110.446	80.009	19.993	103.844	20.141	0.991	0.050
18.000	110.448	80.009	19.993	103.878	20.137	1.265	0.021
19.500	110.517	80.009	19.993	103.868	20.140	1.075	0.045
21.000	110.618	80.009	19.994	103.886	20.135	1.369	0.078
22.500	110.696	80.010	19.993	103.905	20.133	1.502	0.035
24.000	110.803	80.011	19.993	103.912	20.132	1.586	0.067
25.500	110.973	80.010	19.994	103.923	20.131	1.632	0.111
27.000	111.113	80.012	19.993	103.919	20.128	1.839	0.097
28.500	111.237	80.010	19.993	103.917	20.129	1.801	0.098
30.000	111.435	80.009	19.994	103.929	20.127	1.966	0.140
31.500	111.619	80.010	19.994	103.963	20.121	2.354	0.118
33.001	111.834	80.008	19.994	103.968	20.121	2.351	0.159
34.500	112.090	80.008	19.994	103.952	20.120	2.445	0.162
36.000	112.299	80.010	19.994	103.951	20.119	2.510	0.138
37.500	112.584	80.008	19.993	103.951	20.119	2.509	0.200
39.001	112.840	80.008	19.993	103.955	20.120	2.429	0.179
40.500	113.175	80.008	19.995	103.971	20.114	2.814	0.228
42.000	113.524	80.008	19.994	103.966	20.114	2.807	0.221
43.501	113.818	80.007	19.995	103.923	20.114	2.814	0.197
45.001	114.168	80.007	19.994	103.951	20.118	2.565	0.237
46.500	114.521	80.007	19.995	104.032	20.116	2.713	0.236
48.000	114.852	80.007	19.994	104.009	20.116	2.704	0.242
49.500	115.249	80.009	19.996	103.986	20.113	2.902	0.260
51.000	115.630	80.007	19.995	103.990	20.114	2.858	0.275
52.500	116.057	80.007	19.994	103.990	20.111	3.026	0.286
54.000	116.494	80.007	19.996	103.987	20.112	2.979	0.280
55.500	116.912	80.007	19.995	103.989	20.111	3.074	0.265
57.000	117.371	80.007	19.995	103.987	20.112	2.941	0.308
58.500	117.820	80.008	19.995	103.984	20.113	2.907	0.315
60.000	118.299	80.008	19.995	103.988	20.112	2.956	0.327
61.500	118.763	80.007	19.994	103.988	20.110	3.122	0.327
63.000	119.236	80.007	19.995	103.986	20.113	2.874	0.320
64.500	119.706	80.007	19.993	104.006	20.111	3.044	0.321
66.000	120.194	80.008	19.994	104.013	20.112	2.998	0.327
67.500	120.695	80.008	19.992	104.016	20.109	3.151	0.328
69.000	121.257	80.007	19.993	104.018	20.109	3.147	0.391
70.500	121.769	80.008	19.993	104.016	20.109	3.155	0.339
72.000	122.339	80.007	19.993	104.018	20.108	3.267	0.388
73.500	122.929	80.007	19.993	104.015	20.107	3.292	0.381
75.000	123.471	80.008	19.993	104.012	20.108	3.267	0.351
76.500	124.035	80.009	19.994	104.013	20.111	3.034	0.395
78.000	124.630	80.010	19.994	104.017	20.109	3.200	0.388
79.500	125.212	80.010	19.994	104.022	20.108	3.258	0.383
81.000	125.840	80.011	19.994	104.020	20.108	3.248	0.407
82.500	126.416	80.010	19.993	104.014	20.108	3.219	0.375
84.000	127.017	80.008	19.993	104.016	20.107	3.336	0.387
85.501	127.656	80.008	19.993	104.022	20.107	3.302	0.412
87.000	128.292	80.010	19.994	104.019	20.106	3.363	0.447
88.500	128.887	80.009	19.994	104.017	20.107	3.332	0.384
90.000	129.519	80.009	19.994	104.019	20.107	3.326	0.424
91.500	130.173	80.009	19.994	104.011	20.107	3.338	0.427
93.000	130.812	80.009	19.992	104.013	20.105	3.468	0.421
94.500	131.494	80.007	19.992	104.024	20.109	3.181	0.476
96.000	132.102	80.008	19.994	104.025	20.111	3.067	0.429
97.500	132.788	80.009	19.993	104.025	20.109	3.164	0.460
99.000	133.465	80.009	19.993	104.026	20.106	3.410	0.431
100.500	134.149	80.009	19.992	104.020	20.108	3.233	0.454
102.000	134.793	80.008	19.993	104.010	20.109	3.156	0.415
103.500	135.489	80.010	19.994	104.019	20.108	3.275	0.453
105.000	136.207	80.011	19.995	104.023	20.107	3.286	0.468
106.500	136.914	80.011	19.993	104.019	20.108	3.265	0.490
108.000	137.624	80.011	19.993	104.020	20.106	3.377	0.489
109.500	138.342	80.010	19.993	104.018	20.107	3.295	0.481
111.000	139.065	80.009	19.993	104.018	20.107	3.293	0.477
112.500	139.800	80.009	19.993	104.017	20.108	3.280	0.490
114.000	140.450	80.009	19.993	104.013	20.107	3.339	0.441
115.500	141.188	80.008	19.993	104.023	20.108	3.248	0.482
117.000	141.883	80.008	19.992	104.024	20.108	3.221	0.460
118.500	142.638	80.008	19.995	104.010	20.109	3.181	0.489
120.000	143.392	80.008	19.995	103.998	20.110	3.127	0.486
121.500	144.108	80.008	19.994	104.008	20.109	3.166	0.474
123.000	144.832	80.008	19.994	103.999	20.110	3.137	0.488
124.500	145.611	80.007	19.993	103.996	20.113	2.883	0.512
126.000	146.336	80.008	19.995	104.001	20.108	3.236	0.464
127.500	147.062	80.009	19.994	104.007	20.111	3.036	0.501
129.000	147.823	80.008	19.994	104.001	20.109	3.185	0.521
130.500	148.566	80.008	19.994	104.000	20.111	3.076	0.487
132.000	149.341	80.007	19.995	104.004	20.109	3.192	0.502
133.500	150.102	80.009	19.995	103.994	20.108	3.247	0.498
135.000	150.842	80.008	19.994	103.988	20.109	3.201	0.501
136.500	151.588	80.008	19.994	103.987	20.112	2.938	0.528
138.000	152.338	80.008	19.995	103.996	20.111	3.051	0.494
139.500	153.133	80.008	19.994	104.011	20.109	3.188	0.523
141.000	153.842	80.008	19.995	103.995	20.112	2.959	0.479
142.500	154.577	80.008	19.994	103.987	20.108	3.232	0.476
144.000	155.304	80.007	19.996	103.988	20.109	3.182	0.510
145.500	156.054	80.007	19.995	103.986	20.108	3.245	0.501
147.000	156.825	80.007	19.995	103.985	20.112	2.957	0.509
148.500	157.580	80.008	19.995	103.984	20.105	3.428	0.510
150.000	158.354	80.007	19.994	103.984	20.108	3.261	0.506
151.500	159.083	80.008	19.995	103.983	20.107	3.304	0.491
153.000	159.873	80.006	19.995	103.985	20.108	3.278	0.538
154.500	160.578	80.007	19.997	103.983	20.102	3.634	0.468
156.000	161.341	80.006	19.996	103.984	20.106	3.360	0.504
157.500	162.080	80.008	19.995	103.985	20.107	3.285	0.487
159.000	162.876	80.008	19.994	103.985	20.109	3.182	0.538
160.500	163.587	80.009	19.994	103.990	20.109	3.205	0.481
162.000	164.324	80.009	19.993	103.989	20.107	3.306	0.487
163.500	165.107	80.010	19.994	103.986	20.106	3.360	0.510
165.000	165.895	80.010	19.994	103.985	20.107	3.291	0.525
166.500	166.623	80.010	19.995	103.985	20.109	3.192	0.495
168.000	167.335	80.008	19.993	103.981	20.107	3.293	0.496
169.500	168.151	80.009	19.994	103.982	20.110	3.142	0.520
171.000	168.890	80.009	19.993	103.981	20.110	3.100	0.497
172.500	169.661	80.009	19.993	103.970	20.109	3.188	0.527
174.000	170.393	80.008	19.993	103.980	20.108	3.247	0.503
175.500	171.127	80.008	19.994	103.984	20.109	3.186	0.489
177.000	171.889	80.008	19.993	103.985	20.106	3.409	0.506
178.500	172.639	80.007	19.994	103.981	20.110	3.136	0.497
180.000	173.378	80.006	19.993	103.979	20.109	3.205	0.485
181.500	174.128	80.008	19.993	103.984	20.108	3.224	0.491
183.000	174.860	80.009	19.993	103.974	20.110	3.141	0.508
184.500	175.629	80.009	19.993	103.975	20.111	3.014	0.506
186.000	176.344	80.009	19.994	103.983	20.106	3.368	0.458
187.500	177.120	80.010	19.994	103.973	20.111	3.069	0.512
189.000	177.840	80.010	19.993	103.964	20.110	3.139	0.462
190.500	178.592	80.010	19.994	103.961	20.110	3.092	0.497
192.000	179.364	80.012	19.994	103.966	20.108	3.225	0.516
193.500	180.074	80.011	19.994	103.956	20.108	3.267	0.474
195.000	180.823	80.010	19.995	103.959	20.108	3.256	0.495
196.500	181.583	80.009	19.993	103.953	20.107	3.286	0.515
198.000	182.343	80.009	19.993	103.957	20.107	3.343	0.521
199.500	183.130	80.009	19.993	103.959	20.109	3.151	0.519
201.000	183.843	80.008	19.993	103.966	20.110	3.128	0.483
202.500	184.578	80.009	19.993	103.965	20.107	3.336	0.485
204.000	185.359	80.008	19.993	103.949	20.108	3.240	0.517
205.500	186.121	80.008	19.993	103.951	20.107	3.300	0.495
207.000	186.914	80.009	19.993	103.957	20.111	3.075	0.515
208.500	187.649	80.008	19.994	103.957	20.105	3.435	0.498
210.000	188.387	80.009	19.993	103.958	20.109	3.166	0.502
211.500	189.117	80.007	19.995	103.966	20.108	3.261	0.499
213.000	189.867	80.008	19.993	103.960	20.107	3.305	0.499
214.500	190.627	80.008	19.994	103.947	20.106	3.383	0.500
216.000	191.372	80.008	19.993	103.956	20.110	3.107	0.484
217.500	192.117	80.007	19.994	103.964	20.110	3.143	0.484
219.000	192.831	80.008	19.993	103.957	20.107	3.311	0.521
220.500	193.601	80.008	19.994	103.945	20.107	3.288	0.517
222.000	194.345	80.009	19.993	103.951	20.107	3.316	0.495
223.500	195.083	80.008	19.996	103.958	20.105	3.477	0.491
225.000	195.793	80.008	19.995	103.959	20.108	3.236	0.468
226.500	196.554	80.007	19.994	103.952	20.108	3.221	0.505
228.000	197.308	80.007	19.994	103.948	20.110	3.133	0.492
229.500	198.052	80.008	19.994	103.950	20.108	3.276	0.498
231.000	198.821	80.007	19.995	103.950	20.107	3.341	0.519
232.500	199.498	80.009	19.995	103.949	20.108	3.227	0.463
234.000	200.226	80.006	19.994	103.948	20.112	2.998	0.492
235.500	200.976	80.007	19.995	103.950	20.112	2.939	0.505
237.000	201.724	80.007	19.994	103.950	20.111	3.042	0.493
238.500	202.466	80.007	19.994	103.948	20.110	3.078	0.514
240.000	203.203	80.008	19.994	103.947	20.110	3.112	0.465
241.500	203.956	80.007	19.994	103.946	20.108	3.236	0.496
243.000	204.710	80.008	19.995	103.950	20.109	3.156	0.493
244.500	205.454	80.008	19.995	103.945	20.110	3.128	0.479
246.000	206.188	80.007	19.995	103.946	20.111	3.013	0.501
247.500	206.928	80.009	19.995	103.946	20.111	3.067	0.491
249.000	207.689	80.009	19.993	103.950	20.109	3.164	0.523
250.500	208.424	80.009	19.995	103.947	20.111	3.038	0.492
252.000	209.193	80.009	19.993	103.944	20.112	2.948	0.504
253.500	209.914	80.008	19.993	103.943	20.111	3.034	0.490
255.000	210.621	80.009	19.994	103.943	20.111	3.015	0.476
256.500	211.428	80.008	19.994	103.944	20.112	2.987	0.529
258.000	212.130	80.009	19.994	103.945	20.113	2.882	0.485
259.500	212.860	80.010	19.993	103.945	20.111	3.051	0.503
261.000	213.601	80.008	19.993	103.945	20.114	2.826	0.501
262.500	214.365	80.010	19.993	103.944	20.110	3.139	0.515
264.000	215.151	80.009	19.993	103.940	20.111	3.042	0.528
265.500	215.828	80.008	19.993	103.943	20.112	2.987	0.465
267.000	216.623	80.009	19.994	103.945	20.113	2.906	0.505
268.500	217.331	80.011	19.993	103.943	20.111	3.021	0.465
270.000	218.111	80.011	19.994	103.942	20.111	3.021	0.529
271.500	218.856	80.011	19.993	103.943	20.111	3.061	0.496
273.000	219.582	80.010	19.994	103.943	20.111	3.019	0.473
274.500	220.349	80.011	19.993	103.941	20.105	3.473	0.528
276.000	221.061	80.010	19.993	103.942	20.111	3.046	0.491
277.500	221.817	80.009	19.995	103.942	20.109	3.160	0.489
279.000	222.565	80.009	19.993	103.943	20.107	3.286	0.508
280.500	223.290	80.008	19.994	103.943	20.109	3.164	0.458
282.000	224.017	80.009	19.993	103.943	20.111	3.023	0.481
283.500	224.746	80.008	19.995	103.945	20.112	2.996	0.472
285.000	225.499	80.009	19.994	103.947	20.109	3.179	0.485
286.500	226.273	80.008	19.993	103.945	20.109	3.149	0.505
288.000	226.977	80.006	19.993	103.945	20.108	3.280	0.470
289.500	227.708	80.008	19.993	103.946	20.108	3.227	0.486
291.000	228.523	80.008	19.993	103.946	20.108	3.248	0.536
292.500	229.274	80.007	19.993	103.944	20.109	3.171	0.518
294.000	229.998	80.007	19.993	103.943	20.109	3.154	0.472
295.500	230.785	80.007	19.993	103.947	20.111	3.044	0.543
297.000	231.537	80.009	19.993	103.947	20.106	3.358	0.513
298.500	232.237	80.010	19.993	103.943	20.103	3.591	0.477
300.000	233.004	80.008	19.993	103.945	20.107	3.305	0.500
301.500	233.712	80.009	19.994	103.947	20.108	3.248	0.517
303.000	234.487	80.008	19.994	103.942	20.106	3.404	0.511
304.500	235.204	80.009	19.993	103.940	20.103	3.608	0.492
306.000	235.965	80.007	19.994	103.944	20.105	3.465	0.516
307.500	236.701	80.007	19.993	103.945	20.105	3.480	0.485
309.000	237.449	80.007	19.994	103.944	20.106	3.366	0.515
310.500	238.195	80.007	19.995	103.947	20.104	3.522	0.499
312.000	238.920	80.008	19.994	103.947	20.107	3.320	0.490
313.500	239.677	80.008	19.994	103.943	20.106	3.383	0.489
315.000	240.402	80.008	19.994	103.943	20.108	3.278	0.480
316.500	241.182	80.008	19.994	103.936	20.107	3.329	0.519
318.000	241.873	80.007	19.994	103.938	20.104	3.497	0.451
319.500	242.672	80.009	19.996	103.942	20.106	3.356	0.513
321.000	243.390	80.009	19.993	103.936	20.103	3.566	0.487
322.500	244.178	80.008	19.993	103.940	20.106	3.379	0.525
324.000	244.900	80.008	19.992	103.943	20.106	3.398	0.493
325.500	245.632	80.010	19.995	103.944	20.106	3.405	0.490
327.000	246.412	80.011	19.994	103.940	20.107	3.343	0.527
328.500	247.170	80.010	19.994	103.934	20.107	3.347	0.508
330.000	247.907	80.011	19.994	103.933	20.108	3.279	0.479
331.500	248.642	80.009	19.994	103.929	20.107	3.300	0.484
333.000	249.426	80.009	19.994	103.937	20.106	3.392	0.513
334.500	250.203	80.008	19.995	103.927	20.104	3.501	0.517
336.000	250.976	80.009	19.994	103.923	20.105	3.430	0.533
337.500	251.723	80.008	19.994	103.938	20.106	3.411	0.492
339.000	252.502	80.008	19.995	103.941	20.107	3.289	0.503
340.500	253.172	80.008	19.995	103.930	20.100	3.812	0.483
342.000	253.981	80.009	19.995	103.917	20.103	3.581	0.521
343.500	254.729	80.009	19.996	103.926	20.103	3.576	0.522
345.000	255.469	80.008	19.994	103.933	20.101	3.739	0.500
346.500	256.209	80.009	19.995	103.931	20.103	3.625	0.506
348.000	256.975	80.011	19.993	103.928	20.101	3.698	0.489
349.500	257.733	80.010	19.993	103.940	20.104	3.525	0.495
351.000	258.477	80.009	19.994	103.940	20.104	3.531	0.501
352.500	259.263	80.010	19.995	103.929	20.104	3.498	0.493
354.000	259.985	80.011	19.994	103.917	20.101	3.720	0.473
355.500	260.770	80.011	19.993	103.924	20.100	3.767	0.528
357.000	261.500	80.011	19.994	103.930	20.099	3.845	0.499
358.500	262.238	80.010	19.993	103.920	20.102	3.663	0.503
360.000	262.959	80.010	19.993	103.915	20.099	3.898	0.493
361.500	263.697	80.009	19.994	103.922	20.104	3.538	0.489
363.000	264.488	80.008	19.994	103.921	20.103	3.575	0.514
364.500	265.243	80.008	19.992	103.925	20.101	3.748	0.512
366.000	265.992	80.007	19.993	103.922	20.102	3.691	0.505
367.500	266.727	80.008	19.995	103.921	20.102	3.680	0.495
369.000	267.495	80.008	19.994	103.926	20.103	3.609	0.492
370.500	268.254	80.008	19.994	103.918	20.101	3.754	0.479
372.000	268.990	80.008	19.994	103.919	20.100	3.788	0.516
373.500	269.791	80.008	19.993	103.920	20.098	3.940	0.535
375.000	270.531	80.008	19.993	103.917	20.098	3.915	0.503
376.500	271.274	80.009	19.996	103.923	20.098	3.957	0.524
378.000	272.019	80.007	19.994	103.927	20.100	3.813	0.502
379.500	272.808	80.008	19.996	103.923	20.100	3.793	0.485
381.000	273.551	80.009	19.996	103.918	20.102	3.685	0.510
382.500	274.332	80.008	19.993	103.919	20.099	3.849	0.512
384.000	275.054	80.009	19.994	103.910	20.100	3.820	0.471
385.500	275.792	80.009	19.994	103.908	20.095	4.114	0.499
387.000	276.550	80.009	19.994	103.912	20.097	4.001	0.512
388.500	277.287	80.009	19.994	103.912	20.095	4.160	0.484
390.000	278.084	80.009	19.994	103.910	20.095	4.171	0.512
391.500	278.822	80.008	19.992	103.911	20.094	4.226	0.508
393.000	279.598	80.008	19.994	103.916	20.094	4.177	0.514
394.500	280.341	80.009	19.994	103.909	20.094	4.211	0.513
396.000	281.079	80.008	19.994	103.911	20.095	4.134	0.480
397.500	281.811	80.008	19.994	103.914	20.094	4.203	0.490
399.000	282.593	80.006	19.994	103.917	20.094	4.182	0.513
400.500	283.358	80.009	19.995	103.912	20.091	4.413	0.509
402.000	284.083	80.008	19.995	103.910	20.092	4.346	0.496
403.500	284.855	80.009	19.996	103.919	20.093	4.289	0.540
405.000	285.571	80.009	19.995	103.915	20.094	4.228	0.500
406.500	286.359	80.008	19.994	103.907	20.092	4.378	0.541
408.000	287.156	80.009	19.993	103.912	20.092	4.340	0.532
409.500	287.861	80.009	19.995	103.911	20.093	4.306	0.462
411.000	288.603	80.010	19.994	103.906	20.093	4.291	0.496
412.500	289.354	80.011	19.993	103.909	20.095	4.155	0.501
414.000	290.150	80.010	19.993	103.908	20.092	4.361	0.539
415.500	290.906	80.009	19.993	103.907	20.091	4.399	0.508
417.000	291.681	80.009	19.994	103.907	20.092	4.329	0.504
418.500	292.424	80.009	19.993	103.908	20.094	4.224	0.486
420.000	293.203	80.008	19.994	103.907	20.095	4.136	0.509
421.500	293.911	80.009	19.994	103.907	20.093	4.283	0.492
423.000	294.697	80.009	19.994	103.908	20.092	4.351	0.505
424.500	295.415	80.008	19.995	103.908	20.092	4.378	0.491
426.000	296.202	80.008	19.994	103.905	20.094	4.228	0.519
427.500	296.964	80.008	19.994	103.905	20.094	4.199	0.518
429.000	297.737	80.009	19.993	103.907	20.093	4.308	0.515
430.500	298.492	80.010	19.993	103.905	20.093	4.291	0.510
432.000	299.227	80.009	19.993	103.905	20.093	4.260	0.472
433.500	299.986	80.010	19.994	103.908	20.095	4.109	0.497
435.000	300.744	80.009	19.993	103.905	20.093	4.266	0.494
436.500	301.521	80.010	19.993	103.905	20.092	4.365	0.499
438.000	302.253	80.010	19.994	103.907	20.093	4.254	0.500
439.500	303.009	80.010	19.993	103.908	20.090	4.460	0.518
441.000	303.768	80.008	19.994	103.906	20.095	4.117	0.499
442.500	304.547	80.009	19.993	103.906	20.095	4.117	0.515
444.000	305.251	80.008	19.993	103.905	20.094	4.229	0.473
445.500	306.039	80.008	19.995	103.905	20.094	4.216	0.533
447.000	306.821	80.009	19.995	103.904	20.093	4.245	0.527
448.500	307.502	80.009	19.994	103.908	20.096	4.092	0.442
450.000	308.257	80.009	19.994	103.906	20.093	4.289	0.501
451.500	309.013	80.008	19.993	103.905	20.095	4.174	0.498
453.000	309.787	80.008	19.994	103.908	20.095	4.111	0.510
454.500	310.518	80.010	19.994	103.900	20.096	4.039	0.499
456.000	311.297	80.008	19.995	103.900	20.096	4.062	0.522
457.500	312.069	80.010	19.993	103.905	20.093	4.309	0.508
459.000	312.875	80.008	19.993	103.903	20.096	4.054	0.543
460.500	313.599	80.008	19.993	103.904	20.094	4.216	0.480
462.000	314.359	80.009	19.993	103.903	20.095	4.136	0.504
463.500	315.094	80.009	19.995	103.900	20.093	4.285	0.491
465.000	315.821	80.009	19.994	103.905	20.093	4.247	0.490
466.500	316.560	80.007	19.995	103.905	20.095	4.125	0.492
468.000	317.354	80.007	19.996	103.897	20.093	4.285	0.534
469.500	318.123	80.008	19.994	103.897	20.093	4.300	0.504
471.000	318.869	80.009	19.995	103.898	20.095	4.152	0.487
472.500	319.619	80.010	19.995	103.897	20.094	4.194	0.504
474.000	320.337	80.009	19.993	103.903	20.096	4.056	0.476
475.500	321.115	80.008	19.994	103.907	20.094	4.237	0.524
477.000	321.843	80.008	19.993	103.907	20.095	4.152	0.493
478.500	322.662	80.008	19.994	103.905	20.093	4.249	0.541
480.000	323.397	80.008	19.993	103.906	20.094	4.197	0.493
481.500	324.119	80.008	19.993	103.908	20.094	4.176	0.492
483.000	324.885	80.009	19.994	103.910	20.092	4.313	0.501
484.500	325.654	80.009	19.994	103.910	20.096	4.056	0.526
486.000	326.423	80.009	19.994	103.909	20.092	4.353	0.520
487.500	327.156	80.009	19.992	103.908	20.094	4.226	0.479
489.000	327.909	80.011	19.993	103.908	20.094	4.220	0.502
490.500	328.677	80.010	19.993	103.907	20.094	4.226	0.511
492.000	329.429	80.010	19.994	103.908	20.095	4.140	0.511
493.500	330.207	80.011	19.994	103.907	20.094	4.239	0.507
495.000	330.949	80.010	19.994	103.906	20.098	3.950	0.465
496.500	331.663	80.008	19.994	103.906	20.095	4.161	0.484
498.000	332.463	80.009	19.994	103.899	20.094	4.216	0.538
499.500	333.243	80.009	19.993	103.903	20.093	4.302	0.547
501.000	334.005	80.010	19.993	103.908	20.092	4.363	0.524
502.500	334.764	80.009	19.995	103.900	20.094	4.225	0.494
504.000	335.535	80.010	19.994	103.898	20.092	4.361	0.490
505.500	336.340	80.008	19.995	103.907	20.091	4.385	0.499
507.000	337.074	80.009	19.994	103.905	20.092	4.355	0.497
508.500	337.842	80.009	19.994	103.901	20.091	4.393	0.530
510.000	338.606	80.009	19.993	103.902	20.094	4.227	0.510
511.500	339.331	80.009	19.994	103.902	20.093	4.301	0.471
513.000	340.079	80.012	19.993	103.898	20.093	4.277	0.498
514.500	340.836	80.011	19.992	103.895	20.095	4.151	0.506
516.000	341.607	80.011	19.994	103.895	20.089	4.542	0.514
517.500	342.362	80.011	19.993	103.902	20.095	4.166	0.502
519.000	343.134	80.010	19.994	103.900	20.094	4.210	0.516
520.500	343.821	80.010	19.995	103.890	20.090	4.502	0.479
522.000	344.582	80.009	19.995	103.878	20.094	4.199	0.514
523.500	345.342	80.010	19.996	103.886	20.095	4.114	0.510
525.000	346.117	80.008	19.996	103.895	20.091	4.404	0.528
526.500	346.905	80.008	19.996	103.895	20.092	4.378	0.531
528.000	347.630	80.007	19.996	103.895	20.092	4.328	0.478
529.500	348.332	80.007	19.996	103.883	20.092	4.372	0.478
531.000	349.135	80.009	19.995	103.890	20.091	4.446	0.503
532.500	349.896	80.008	19.995	103.896	20.094	4.235	0.493
534.000	350.630	80.008	19.995	103.887	20.091	4.420	0.494
535.500	351.405	80.009	19.993	103.891	20.092	4.372	0.515
537.000	352.184	80.010	19.993	103.893	20.092	4.352	0.532
538.500	352.917	80.011	19.993	103.895	20.092	4.319	0.505
540.000	353.680	80.009	19.994	103.894	20.091	4.399	0.496
541.500	354.496	80.008	19.995	103.895	20.094	4.240	0.538
543.000	355.214	80.008	19.994	103.897	20.092	4.320	0.498
544.500	355.991	80.010	19.993	103.891	20.092	4.346	0.537
546.000	356.715	80.008	19.993	103.896	20.091	4.423	0.487
547.500	357.482	80.008	19.993	103.886	20.091	4.393	0.510
549.000	358.261	80.009	19.994	103.891	20.090	4.458	0.500
550.500	358.966	80.008	19.995	103.899	20.092	4.366	0.477
552.000	359.719	80.008	19.993	103.893	20.091	4.431	0.500
553.500	360.509	80.008	19.994	103.893	20.092	4.347	0.517
555.000	361.251	80.007	19.995	103.881	20.091	4.437	0.499
556.500	362.008	80.007	19.993	103.875	20.089	4.556	0.496
558.000	362.789	80.007	19.995	103.888	20.092	4.315	0.511
559.500	363.523	80.008	19.994	103.894	20.091	4.410	0.475
561.000	364.298	80.007	19.995	103.889	20.086	4.758	0.492
562.500	365.068	80.008	19.993	103.895	20.091	4.434	0.488
564.000	365.800	80.007	19.994	103.895	20.091	4.438	0.502
565.500	366.534	80.007	19.993	103.893	20.089	4.553	0.477
567.000	367.276	80.007	19.994	103.888	20.090	4.453	0.508
568.500	368.080	80.009	19.994	103.895	20.088	4.653	0.512
570.000	368.820	80.010	19.994	103.889	20.084	4.876	0.517
571.500	369.542	80.008	19.994	103.876	20.086	4.750	0.494
573.000	370.306	80.011	19.993	103.882	20.090	4.478	0.495
574.500	371.049	80.010	19.994	103.882	20.088	4.648	0.503
576.000	371.835	80.011	19.993	103.884	20.090	4.490	0.540
577.500	372.570	80.010	19.993	103.879	20.088	4.615	0.498
579.000	373.346	80.009	19.995	103.873	20.084	4.881	0.497
580.500	374.113	80.009	19.993	103.879	20.086	4.758	0.500
582.000	374.848	80.010	19.992	103.878	20.083	4.943	0.485
583.500	375.597	80.008	19.995	103.885	20.089	4.533	0.522
585.000	376.366	80.008	19.994	103.893	20.089	4.560	0.509
586.500	377.126	80.009	19.994	103.890	20.089	4.567	0.522
588.000	377.880	80.009	19.995	103.885	20.086	4.742	0.500
589.500	378.640	80.007	19.996	103.875	20.086	4.779	0.487
591.000	379.410	80.009	19.994	103.873	20.088	4.644	0.522
592.500	380.176	80.010	19.994	103.881	20.089	4.549	0.540
594.000	380.947	80.010	19.994	103.879	20.089	4.522	0.510
595.500	381.690	80.010	19.993	103.887	20.085	4.832	0.498
597.000	382.437	80.011	19.993	103.880	20.087	4.680	0.501
598.500	383.244	80.010	19.995	103.874	20.086	4.783	0.531
600.000	383.997	80.010	19.993	103.874	20.088	4.614	0.512
601.500	384.735	80.010	19.993	103.873	20.088	4.651	0.484
603.000	385.481	80.010	19.991	103.882	20.087	4.705	0.489
604.500	386.248	80.009	19.995	103.881	20.085	4.805	0.507
606.000	387.002	80.008	19.992	103.873	20.087	4.701	0.507
607.500	387.762	80.008	19.993	103.874	20.087	4.690	0.506
609.000	388.544	80.007	19.994	103.878	20.088	4.634	0.501
610.500	389.244	80.008	19.994	103.885	20.084	4.929	0.485
612.000	390.037	80.008	19.993	103.881	20.083	4.969	0.521
613.500	390.765	80.009	19.994	103.883	20.082	5.009	0.492
615.000	391.561	80.006	19.994	103.879	20.084	4.920	0.515
616.500	392.308	80.007	19.994	103.874	20.082	5.049	0.490
618.000	393.015	80.006	19.995	103.888	20.084	4.924	0.479
619.500	393.859	80.008	19.994	103.887	20.083	4.986	0.556
621.000	394.610	80.006	19.996	103.871	20.084	4.865	0.502
622.500	395.357	80.007	19.994	103.871	20.085	4.822	0.511
624.000	396.074	80.007	19.995	103.874	20.084	4.913	0.475
625.500	396.865	80.007	19.995	103.883	20.081	5.084	0.524
627.000	397.592	80.007	19.994	103.884	20.082	5.061	0.511
628.500	398.349	80.008	19.993	103.880	20.081	5.114	0.519
630.000	399.124	80.008	19.993	103.895	20.084	4.882	0.516
631.500	399.855	80.008	19.992	103.891	20.084	4.888	0.508
633.000	400.653	80.008	19.992	103.890	20.084	4.904	0.533
634.500	401.388	80.007	19.993	103.894	20.081	5.086	0.494
636.000	402.132	80.007	19.994	103.888	20.083	4.996	0.505
637.500	402.901	80.007	19.996	103.888	20.081	5.108	0.523
639.000	403.664	80.007	19.994	103.878	20.079	5.211	0.517
640.500	404.444	80.008	19.994	103.884	20.080	5.190	0.520
642.000	405.209	80.007	19.994	103.889	20.079	5.261	0.509
643.500	405.981	80.007	19.995	103.874	20.081	5.110	0.521
645.000	406.740	80.009	19.995	103.879	20.081	5.100	0.491
646.500	407.490	80.008	19.994	103.887	20.080	5.196	0.491
648.000	408.253	80.008	19.995	103.880	20.085	4.851	0.491
649.500	409.005	80.008	19.994	103.871	20.082	5.063	0.507
651.000	409.795	80.008	19.993	103.878	20.082	5.001	0.539
652.500	410.544	80.009	19.995	103.885	20.080	5.142	0.499
654.000	411.316	80.011	19.994	103.875	20.083	4.984	0.499
655.500	412.079	80.009	19.995	103.869	20.083	4.977	0.526
657.000	412.836	80.009	19.993	103.871	20.080	5.198	0.517
658.500	413.576	80.009	19.994	103.875	20.080	5.168	0.496
660.000	414.339	80.010	19.994	103.874	20.077	5.356	0.495
661.500	415.113	80.010	19.994	103.872	20.080	5.165	0.533
663.000	415.848	80.010	19.994	103.869	20.080	5.144	0.497
664.500	416.608	80.009	19.994	103.872	20.078	5.286	0.513
666.000	417.380	80.011	19.993	103.878	20.081	5.082	0.517
667.500	418.120	80.009	19.994	103.872	20.080	5.153	0.491
669.000	418.910	80.008	19.994	103.884	20.078	5.286	0.530
670.500	419.636	80.010	19.994	103.883	20.076	5.445	0.496
672.000	420.412	80.009	19.994	103.875	20.076	5.434	0.526
673.500	421.148	80.010	19.994	103.871	20.076	5.451	0.490
675.000	421.947	80.010	19.993	103.877	20.077	5.350	0.544
676.500	422.742	80.011	19.992	103.877	20.077	5.361	0.530
678.000	423.413	80.010	19.992	103.882	20.081	5.131	0.485
679.500	424.244	80.011	19.993	103.885	20.081	5.076	0.537
681.000	424.974	80.011	19.993	103.870	20.079	5.207	0.478
682.500	425.738	80.009	19.994	103.870	20.081	5.114	0.507
684.000	426.509	80.009	19.993	103.867	20.076	5.470	0.512
685.500	427.283	80.009	19.995	103.872	20.076	5.474	0.509
687.000	428.022	80.008	19.994	103.870	20.075	5.517	0.513
688.500	428.769	80.008	19.994	103.870	20.077	5.352	0.488
690.000	429.558	80.007	19.994	103.871	20.074	5.598	0.520
691.500	430.335	80.007	19.994	103.876	20.073	5.630	0.522
693.000	431.108	80.006	19.993	103.873	20.076	5.428	0.528
694.500	431.877	80.008	19.994	103.869	20.079	5.274	0.510
696.000	432.632	80.007	19.994	103.873	20.075	5.506	0.495
697.500	433.366	80.008	19.994	103.871	20.075	5.506	0.489
699.000	434.189	80.009	19.993	103.877	20.075	5.529	0.537
700.500	434.946	80.008	19.994	103.886	20.075	5.483	0.521
702.000	435.714	80.009	19.993	103.875	20.077	5.411	0.522
703.500	436.468	80.009	19.995	103.868	20.077	5.356	0.497
705.000	437.234	80.009	19.995	103.874	20.075	5.538	0.496
706.500	437.994	80.007	19.995	103.869	20.077	5.397	0.505
708.000	438.782	80.008	19.995	103.867	20.077	5.365	0.529
709.500	439.501	80.008	19.996	103.874	20.074	5.590	0.484
711.000	440.302	80.007	19.996	103.872	20.076	5.459	0.530
712.500	441.096	80.008	19.995	103.871	20.075	5.498	0.508
714.000	441.846	80.007	19.995	103.872	20.079	5.268	0.500
715.500	442.611	80.007	19.996	103.870	20.077	5.383	0.527
717.000	443.406	80.008	19.996	103.864	20.077	5.401	0.528
718.500	444.163	80.008	19.996	103.867	20.077	5.401	0.488
720.000	444.874	80.007	19.995	103.869	20.075	5.496	0.487
721.500	445.660	80.008	19.995	103.872	20.078	5.287	0.528
723.000	446.403	80.006	19.995	103.867	20.078	5.315	0.497
724.500	447.191	80.009	19.994	103.866	20.078	5.340	0.534
726.000	447.943	80.008	19.994	103.875	20.078	5.329	0.502
727.500	448.712	80.008	19.993	103.876	20.076	5.428	0.507
729.000	449.470	80.009	19.994	103.865	20.076	5.474	0.499
730.500	450.274	80.009	19.993	103.869	20.075	5.533	0.514
732.000	451.031	80.009	19.994	103.866	20.074	5.615	0.516
733.500	451.793	80.009	19.994	103.867	20.075	5.535	0.496
735.000	452.552	80.010	19.993	103.869	20.076	5.453	0.496
736.500	453.337	80.009	19.994	103.870	20.077	5.367	0.534
738.000	454.122	80.009	19.993	103.868	20.077	5.388	0.525
739.500	454.878	80.009	19.994	103.868	20.075	5.517	0.505
741.000	455.645	80.009	19.993	103.870	20.080	5.156	0.482
742.500	456.396	80.011	19.994	103.871	20.077	5.350	0.512
744.000	457.145	80.009	19.993	103.870	20.077	5.354	0.494
745.500	457.930	80.008	19.994	103.871	20.081	5.112	0.534
747.000	458.691	80.010	19.993	103.871	20.080	5.178	0.499
748.500	459.452	80.008	19.994	103.868	20.079	5.257	0.523
750.000	460.219	80.009	19.994	103.868	20.079	5.220	0.506
751.500	461.009	80.009	19.993	103.870	20.079	5.234	0.507
753.000	461.768	80.010	19.993	103.869	20.076	5.415	0.493
754.500	462.528	80.010	19.994	103.873	20.081	5.125	0.527
756.000	463.283	80.010	19.993	103.871	20.080	5.142	0.501
757.500	464.062	80.011	19.993	103.869	20.077	5.376	0.503
759.000	464.797	80.010	19.993	103.869	20.077	5.373	0.491
760.500	465.606	80.012	19.992	103.872	20.077	5.399	0.520
762.000	466.365	80.009	19.992	103.870	20.077	5.359	0.509
763.500	467.121	80.012	19.994	103.870	20.077	5.367	0.490
765.000	467.855	80.011	19.994	103.869	20.076	5.414	0.486
766.500	468.606	80.010	19.994	103.868	20.077	5.367	0.506
768.000	469.393	80.011	19.993	103.867	20.079	5.272	0.520
769.500	470.133	80.010	19.993	103.867	20.080	5.167	0.503
771.000	470.942	80.008	19.995	103.867	20.082	5.039	0.524
772.500	471.674	80.010	19.994	103.866	20.080	5.146	0.509
774.000	472.419	80.008	19.993	103.866	20.079	5.207	0.511
775.500	473.207	80.009	19.996	103.867	20.078	5.319	0.541
777.000	474.041	80.009	19.994	103.868	20.079	5.205	0.536
778.500	474.770	80.009	19.996	103.866	20.079	5.226	0.483
780.000	475.557	80.008	19.995	103.864	20.082	5.066	0.524
781.500	476.350	80.009	19.994	103.866	20.082	5.056	0.527
783.000	477.079	80.009	19.994	103.866	20.082	5.053	0.505
784.500	477.856	80.009	19.994	103.862	20.081	5.100	0.523
786.000	478.639	80.009	19.994	103.861	20.082	5.024	0.518
787.500	479.442	80.010	19.994	103.865	20.083	4.988	0.499
789.001	480.179	80.010	19.993	103.861	20.081	5.087	0.493
790.500	480.945	80.010	19.993	103.864	20.083	4.948	0.515
792.000	481.739	80.009	19.993	103.864	20.080	5.186	0.546
793.500	482.484	80.010	19.993	103.866	20.080	5.180	0.497
795.000	483.222	80.008	19.994	103.864	20.079	5.237	0.507
796.500	484.023	80.008	19.994	103.863	20.081	5.121	0.531
798.000	484.768	80.009	19.995	103.864	20.081	5.068	0.493
799.500	485.545	80.009	19.994	103.867	20.082	5.024	0.539
801.000	486.279	80.009	19.993	103.868	20.081	5.106	0.482
802.500	487.121	80.009	19.995	103.865	20.080	5.178	0.539
804.000	487.876	80.008	19.994	103.866	20.081	5.104	0.513
805.500	488.594	80.006	19.994	103.867	20.084	4.873	0.487
807.000	489.370	80.008	19.996	103.867	20.083	4.995	0.488
808.500	490.159	80.007	19.995	103.867	20.079	5.211	0.517
810.000	490.907	80.008	19.995	103.860	20.083	4.957	0.513
811.500	491.739	80.008	19.995	103.856	20.081	5.091	0.552
813.000	492.505	80.009	19.994	103.865	20.084	4.876	0.537
814.500	493.283	80.008	19.996	103.867	20.082	5.003	0.519
816.000	494.126	80.010	19.993	103.864	20.080	5.176	0.536
817.500	494.905	80.010	19.995	103.863	20.085	4.815	0.487
819.000	495.668	80.011	19.994	103.863	20.084	4.912	0.515
820.500	496.411	80.010	19.993	103.866	20.082	5.054	0.496
822.000	497.166	80.009	19.993	103.869	20.082	5.033	0.486
823.500	498.006	80.011	19.996	103.869	20.084	4.886	0.548
825.000	498.747	80.010	19.995	103.867	20.083	4.957	0.506
826.500	499.511	80.009	19.993	103.868	20.082	5.052	0.506
828.000	500.280	80.008	19.994	103.867	20.080	5.150	0.495
829.500	501.084	80.010	19.993	103.868	20.085	4.843	0.566
831.000	501.804	80.009	19.992	103.868	20.077	5.384	0.479
832.500	502.645	80.009	19.993	103.858	20.093	4.285	0.529
834.000	503.413	80.009	19.994	103.854	20.075	5.498	0.512
835.500	504.196	80.011	19.994	103.854	20.085	4.846	0.525
837.000	504.976	80.010	19.993	103.856	20.082	5.029	0.493
838.500	505.588	80.010	19.993	103.861	20.080	5.141	0.472
840.000	506.553	80.011	19.993	103.863	20.086	4.732	0.595
841.500	507.220	80.011	19.993	103.863	20.080	5.146	0.565
843.000	507.948	80.012	19.993	103.866	20.084	4.866	0.560
844.500	508.804	80.013	19.994	103.867	20.083	4.957	0.365
846.000	509.918	80.011	19.995	103.850	20.082	5.001	0.541
847.500	510.203	80.012	19.993	103.854	20.081	5.127	0.035
849.000	511.527	80.011	19.993	103.854	20.083	4.967	1.067
850.500	511.933	80.011	19.993	103.853	20.084	4.893	0.193
852.000	512.709	80.009	19.993	103.862	20.082	5.031	0.697
853.500	513.371	80.010	19.993	103.862	20.084	4.925	0.472
855.000	514.238	80.009	19.993	103.858	20.084	4.917	0.568
856.500	515.044	80.009	19.993	103.861	20.080	5.157	0.546
858.000	515.847	80.009	19.993	103.862	20.083	4.964	0.517
859.500	516.633	80.010	19.993	103.860	20.077	5.399	0.556
861.000	517.342	80.010	19.993	103.863	20.080	5.159	0.464
862.500	518.142	80.010	19.994	103.862	20.075	5.538	0.527
864.000	518.888	80.009	19.993	103.863	20.080	5.149	0.532
865.500	519.738	80.008	19.993	103.866	20.083	4.971	0.527
867.000	520.470	80.009	19.994	103.857	20.084	4.900	0.523
868.500	521.312	80.009	19.993	103.850	20.079	5.213	0.514
870.000	521.997	80.009	19.993	103.862	20.079	5.226	0.484
871.500	522.778	80.007	19.994	103.855	20.082	5.005	0.483
873.000	523.534	80.009	19.993	103.854	20.083	4.982	0.555
874.500	524.303	80.007	19.994	103.847	20.083	4.950	0.549
876.000	525.029	80.009	19.994	103.861	20.083	4.942	0.465
877.501	525.811	80.007	19.993	103.867	20.086	4.732	0.528
879.000	526.609	80.008	19.994	103.867	20.081	5.070	0.556
880.500	527.399	80.009	19.994	103.867	20.081	5.070	0.547
882.000	528.158	80.008	19.994	103.865	20.083	4.997	0.507
883.500	528.860	80.008	19.996	103.866	20.081	5.089	0.478
885.000	529.634	80.008	19.995	103.867	20.079	5.216	0.508
886.500	530.404	80.009	19.994	103.868	20.082	5.045	0.502
888.000	531.185	80.008	19.993	103.859	20.080	5.157	0.544
889.500	531.917	80.008	19.993	103.862	20.081	5.092	0.493
891.000	532.659	80.008	19.994	103.868	20.081	5.082	0.509
892.500	533.417	80.008	19.994	103.868	20.080	5.151	0.506
894.000	534.213	80.008	19.994	103.868	20.081	5.108	0.530
895.500	534.971	80.008	19.995	103.867	20.081	5.113	0.512
897.000	535.753	80.009	19.994	103.862	20.079	5.227	0.506
898.500	536.539	80.009	19.994	103.862	20.081	5.130	0.493
900.000	537.296	80.009	19.994	103.855	20.077	5.376	0.498
901.500	538.039	80.009	19.995	103.850	20.078	5.305	0.514
903.000	538.809	80.011	19.995	103.853	20.080	5.187	0.526
904.500	539.565	80.010	19.994	103.842	20.081	5.113	0.498
906.000	540.344	80.009	19.996	103.850	20.081	5.068	0.518
907.500	541.118	80.009	19.995	103.855	20.081	5.094	0.524
909.000	541.894	80.010	19.994	103.855	20.078	5.322	0.539
910.500	542.674	80.009	19.995	103.857	20.081	5.071	0.527
912.000	543.373	80.010	19.994	103.858	20.082	5.045	0.478
913.500	544.152	80.010	19.993	103.854	20.082	5.040	0.498
915.000	544.930	80.011	19.993	103.856	20.079	5.212	0.521
916.500	545.679	80.009	19.993	103.859	20.082	5.022	0.492
918.000	546.436	80.010	19.993	103.862	20.081	5.096	0.513
919.500	547.202	80.010	19.992	103.857	20.079	5.235	0.503
921.000	547.994	80.011	19.993	103.858	20.081	5.125	0.521
922.500	548.781	80.011	19.993	103.864	20.082	5.052	0.537
924.000	549.534	80.012	19.993	103.851	20.080	5.201	0.500
925.500	550.317	80.011	19.993	103.849	20.077	5.366	0.538
927.000	551.028	80.011	19.993	103.859	20.078	5.309	0.479
928.500	551.829	80.011	19.993	103.858	20.078	5.336	0.526
930.000	552.582	80.011	19.994	103.858	20.079	5.216	0.501
931.500	553.352	80.009	19.993	103.859	20.079	5.232	0.523
933.000	554.121	80.010	19.993	103.858	20.079	5.268	0.495
934.500	554.874	80.008	19.993	103.856	20.079	5.224	0.489
936.000	555.645	80.007	19.993	103.848	20.078	5.330	0.516
937.500	556.461	80.008	19.993	103.844	20.077	5.386	0.529
939.000	557.182	80.009	19.994	103.849	20.077	5.357	0.502
940.500	557.970	80.009	19.993	103.863	20.080	5.200	0.506
942.000	558.683	80.007	19.993	103.852	20.079	5.252	0.505
943.500	559.460	80.009	19.996	103.837	20.078	5.311	0.514
945.000	560.281	80.009	19.994	103.855	20.081	5.101	0.529
946.500	561.045	80.008	19.993	103.861	20.079	5.230	0.493
948.000	561.754	80.008	19.993	103.862	20.076	5.440	0.489
949.500	562.546	80.007	19.993	103.858	20.078	5.303	0.514
951.000	563.276	80.009	19.993	103.848	20.079	5.210	0.488
952.500	564.040	80.008	19.992	103.856	20.076	5.468	0.483
954.000	564.827	80.008	19.993	103.856	20.080	5.185	0.518
955.500	565.600	80.008	19.993	103.844	20.080	5.178	0.509
957.000	566.316	80.008	19.992	103.842	20.083	4.979	0.469
958.500	567.112	80.009	19.993	103.844	20.082	5.008	0.510
960.000	567.859	80.008	19.994	103.851	20.078	5.288	0.500
961.500	568.636	80.008	19.994	103.856	20.080	5.200	0.513
963.000	569.398	80.007	19.993	103.846	20.078	5.274	0.486
964.500	570.157	80.008	19.993	103.846	20.079	5.232	0.511
966.000	570.942	80.007	19.993	103.854	20.077	5.356	0.514
967.500	571.691	80.007	19.993	103.847	20.078	5.327	0.525
969.000	572.501	80.007	19.994	103.850	20.080	5.181	0.527
970.500	573.233	80.009	19.994	103.857	20.077	5.360	0.491
972.000	574.004	80.008	19.994	103.853	20.079	5.208	0.517
973.500	574.821	80.009	19.994	103.842	20.077	5.351	0.546
975.000	575.574	80.009	19.994	103.839	20.080	5.172	0.504
976.500	576.321	80.009	19.994	103.839	20.078	5.284	0.497
978.000	577.069	80.010	19.995	103.838	20.077	5.393	0.497
979.500	577.860	80.009	19.994	103.842	20.075	5.518	0.516
981.000	578.596	80.011	19.994	103.854	20.075	5.524	0.492
982.500	579.329	80.011	19.994	103.851	20.078	5.328	0.495
984.000	580.090	80.008	19.994	103.853	20.076	5.463	0.506
985.500	580.891	80.011	19.995	103.853	20.077	5.373	0.537
987.000	581.626	80.011	19.993	103.850	20.079	5.224	0.478
988.500	582.374	80.011	19.993	103.849	20.076	5.441	0.514
990.000	583.137	80.009	19.994	103.841	20.076	5.430	0.519
991.500	583.883	80.010	19.994	103.847	20.075	5.542	0.518
993.000	584.597	80.009	19.995	103.850	20.074	5.556	0.501
994.500	585.374	80.009	19.994	103.842	20.076	5.420	0.502
996.000	586.080	80.008	19.995	103.832	20.077	5.410	0.478
997.500	586.877	80.009	19.994	103.830	20.074	5.560	0.525
999.000	587.575	80.010	19.996	103.833	20.074	5.560	0.465
1000.500	588.295	80.009	19.994	103.840	20.076	5.430	0.469
1002.000	589.026	80.009	19.995	103.837	20.075	5.497	0.499
1003.500	589.741	80.011	19.995	103.837	20.078	5.338	0.472
1005.000	590.460	80.010	19.995	103.850	20.075	5.536	0.472
1006.500	591.214	80.011	19.993	103.864	20.076	5.467	0.513
1008.000	591.869	80.010	19.992	103.844	20.075	5.530	0.459
1009.500	592.625	80.009	19.993	103.836	20.076	5.448	0.513
1011.000	593.389	80.011	19.992	103.842	20.074	5.602	0.509
1012.500	594.102	80.011	19.993	103.847	20.074	5.598	0.498
1014.000	594.865	80.009	19.992	103.856	20.073	5.653	0.524
1015.500	595.585	80.009	19.993	103.858	20.075	5.493	0.454
1017.000	596.269	80.009	19.993	103.851	20.074	5.573	0.457
1018.500	596.985	80.009	19.994	103.847	20.074	5.601	0.486
1020.000	597.711	80.009	19.994	103.853	20.071	5.817	0.471
1021.500	598.424	80.009	19.994	103.849	20.076	5.478	0.465
1023.000	599.145	80.008	19.994	103.839	20.077	5.354	0.470
1024.500	599.790	80.008	19.995	103.845	20.076	5.423	0.456
1026.000	600.536	80.007	19.994	103.838	20.073	5.653	0.491
1027.500	601.247	80.008	19.994	103.843	20.074	5.567	0.475
1029.000	601.979	80.008	19.994	103.857	20.076	5.470	0.490
1030.501	602.660	80.008	19.993	103.853	20.075	5.495	0.474
1032.000	603.350	80.009	19.994	103.851	20.078	5.331	0.466
1033.500	604.059	80.008	19.993	103.842	20.075	5.487	0.459
1035.000	604.779	80.010	19.994	103.839	20.076	5.432	0.478
1036.500	605.498	80.009	19.994	103.848	20.077	5.365	0.494
1038.000	606.202	80.010	19.995	103.842	20.076	5.455	0.466
1039.500	606.905	80.010	19.994	103.833	20.076	5.453	0.467
1041.000	607.608	80.009	19.992	103.833	20.076	5.467	0.450
1042.500	608.320	80.010	19.993	103.838	20.075	5.543	0.454
1044.000	609.017	80.009	19.993	103.843	20.075	5.494	0.457
1045.500	609.752	80.009	19.993	103.832	20.076	5.442	0.478
1047.000	610.466	80.008	19.993	103.829	20.076	5.415	0.462
1048.500	611.184	80.009	19.994	103.831	20.076	5.447	0.465
1050.000	611.899	80.009	19.993	103.833	20.078	5.312	0.487
1051.500	612.647	80.008	19.993	103.842	20.076	5.463	0.481
1053.000	613.360	80.008	19.993	103.843	20.076	5.418	0.482
1054.500	614.114	80.008	19.994	103.852	20.078	5.277	0.479
1056.000	614.867	80.009	19.994	103.854	20.073	5.619	0.500
1057.500	615.622	80.008	19.995	103.848	20.076	5.423	0.494
1059.000	616.344	80.009	19.993	103.837	20.078	5.326	0.495
1060.500	617.109	80.009	19.993	103.843	20.077	5.358	0.495
1062.000	617.841	80.009	19.993	103.850	20.075	5.492	0.481
1063.500	618.579	80.010	19.995	103.854	20.075	5.521	0.490
1065.000	619.368	80.010	19.994	103.859	20.078	5.310	0.515
1066.500	620.108	80.010	19.994	103.853	20.076	5.428	0.509
1068.000	620.824	80.008	19.993	103.846	20.074	5.575	0.491
1069.500	621.625	80.009	19.993	103.845	20.071	5.766	0.535
1071.000	622.342	80.008	19.994	103.846	20.073	5.656	0.497
1072.500	623.120	80.008	19.995	103.852	20.072	5.711	0.538
1074.001	623.885	80.009	19.993	103.861	20.071	5.784	0.493
1075.500	624.670	80.009	19.993	103.864	20.071	5.797	0.523
1077.000	625.438	80.010	19.994	103.864	20.073	5.662	0.487
1078.500	626.248	80.009	19.994	103.857	20.072	5.692	0.534
1080.000	627.011	80.008	19.995	103.846	20.069	5.902	0.520
1081.500	627.822	80.009	19.993	103.851	20.071	5.812	0.537
1083.000	628.594	80.009	19.994	103.859	20.069	5.914	0.521
1084.500	629.420	80.010	19.994	103.864	20.069	5.911	0.523
1086.000	630.166	80.011	19.994	103.861	20.070	5.847	0.510
1087.500	630.959	80.011	19.994	103.862	20.069	5.946	0.542
1089.000	631.787	80.010	19.994	103.860	20.071	5.788	0.540
1090.500	632.557	80.010	19.994	103.845	20.071	5.761	0.521
1092.000	633.362	80.010	19.994	103.827	20.071	5.822	0.512
1093.500	634.190	80.010	19.993	103.843	20.070	5.885	0.538
1095.000	634.953	80.009	19.994	103.851	20.069	5.916	0.514
1096.500	635.774	80.008	19.995	103.844	20.070	5.854	0.545
1098.000	636.579	80.007	19.994	103.831	20.066	6.099	0.540
1099.500	637.372	80.008	19.994	103.829	20.068	5.996	0.529
1101.000	638.089	80.008	19.995	103.832	20.065	6.174	0.475
1102.500	638.931	80.008	19.994	103.835	20.070	5.841	0.555
1104.000	639.673	80.009	19.993	103.835	20.069	5.956	0.477
1105.500	640.380	80.008	19.993	103.840	20.069	5.946	0.490
1107.000	641.175	80.009	19.994	103.837	20.068	6.011	0.519
1108.500	641.919	80.009	19.993	103.843	20.070	5.852	0.487
1110.000	642.646	80.009	19.993	103.842	20.067	6.039	0.504
1111.500	643.382	80.007	19.994	103.835	20.063	6.323	0.486
1113.000	644.118	80.008	19.994	103.830	20.066	6.148	0.544
1114.500	644.837	80.009	19.994	103.837	20.068	5.975	0.506
1116.000	645.593	80.009	19.994	103.845	20.066	6.150	0.487
1117.500	646.308	80.009	19.994	103.842	20.064	6.237	0.487
1119.001	647.051	80.009	19.994	103.850	20.063	6.305	0.494
1120.500	647.779	80.009	19.993	103.859	20.067	6.032	0.482
1122.000	648.502	80.009	19.993	103.842	20.065	6.229	0.473
1123.500	649.267	80.009	19.995	103.838	20.065	6.190	0.478
1125.000	649.960	80.009	19.995	103.840	20.064	6.239	0.468
1126.500	650.744	80.008	19.994	103.838	20.067	6.038	0.517
1128.000	651.447	80.007	19.994	103.853	20.065	6.173	0.487
1129.500	652.210	80.007	19.994	103.858	20.068	6.006	0.514
1131.000	652.915	80.008	19.994	103.847	20.067	6.085	0.471
1132.500	653.643	80.009	19.994	103.847	20.065	6.211	0.486
1134.000	654.411	80.007	19.994	103.845	20.065	6.189	0.521
1135.501	655.154	80.009	19.992	103.836	20.066	6.101	0.514
1137.000	655.877	80.009	19.994	103.840	20.066	6.154	0.477
1138.500	656.598	80.009	19.993	103.841	20.066	6.133	0.487
1140.000	657.334	80.009	19.994	103.846	20.062	6.384	0.471
1141.500	658.111	80.009	19.994	103.840	20.065	6.234	0.494
1143.000	658.797	80.009	19.993	103.838	20.065	6.174	0.494
1144.500	659.530	80.009	19.994	103.849	20.063	6.339	0.476
1146.000	660.279	80.009	19.993	103.854	20.063	6.353	0.494
1147.500	661.014	80.009	19.993	103.850	20.065	6.185	0.476
1149.000	661.763	80.010	19.994	103.852	20.064	6.253	0.495
1150.500	662.465	80.009	19.994	103.845	20.064	6.283	0.483
1152.000	663.213	80.008	19.993	103.843	20.062	6.387	0.477
1153.500	663.952	80.007	19.995	103.855	20.064	6.276	0.522
1155.000	664.674	80.009	19.994	103.857	20.065	6.223	0.473
1156.500	665.391	80.009	19.995	103.859	20.066	6.152	0.485
1158.000	666.143	80.010	19.994	103.859	20.061	6.484	0.497
1159.500	666.939	80.009	19.995	103.840	20.064	6.290	0.519
1161.000	667.682	80.009	19.995	103.839	20.065	6.206	0.510
1162.500	668.420	80.009	19.994	103.846	20.060	6.560	0.502
1164.000	669.196	80.011	19.994	103.852	20.063	6.327	0.510
1165.501	669.951	80.010	19.994	103.854	20.062	6.403	0.496
1167.000	670.695	80.010	19.994	103.853	20.064	6.268	0.507
1168.500	671.447	80.010	19.993	103.851	20.060	6.540	0.497
1170.000	672.238	80.011	19.993	103.850	20.060	6.512	0.495
1171.500	672.962	80.012	19.993	103.854	20.059	6.583	0.443
1173.000	673.770	80.012	19.994	103.850	20.060	6.514	0.536
1174.500	674.551	80.011	19.994	103.843	20.061	6.482	0.495
1176.000	675.341	80.010	19.994	103.838	20.061	6.470	0.502
1177.500	676.154	80.009	19.994	103.837	20.060	6.573	0.509
1179.000	676.876	80.009	19.994	103.829	20.057	6.770	0.513
1180.500	677.625	80.009	19.995	103.839	20.059	6.618	0.514
1182.000	678.388	80.008	19.994	103.856	20.061	6.465	0.493
1183.500	679.180	80.007	19.996	103.841	20.060	6.570	0.531
1185.001	679.908	80.008	19.996	103.845	20.058	6.669	0.496
1186.500	680.721	80.008	19.996	103.852	20.060	6.572	0.534
1188.000	681.500	80.008	19.994	103.848	20.057	6.727	0.544
1189.500	682.273	80.009	19.994	103.858	20.059	6.626	0.522
1191.000	683.041	80.008	19.994	103.859	20.058	6.703	0.510
1192.501	683.776	80.009	19.994	103.859	20.059	6.584	0.495
1194.000	684.588	80.008	19.994	103.860	20.062	6.419	0.533
1195.500	685.344	80.008	19.993	103.856	20.059	6.620	0.513
1197.000	686.148	80.008	19.993	103.861	20.060	6.555	0.536
1198.501	686.866	80.009	19.993	103.867	20.062	6.421	0.488
1200.000	687.646	80.009	19.994	103.865	20.059	6.596	0.527
1201.500	688.423	80.009	19.993	103.862	20.058	6.690	0.512
1203.000	689.176	80.010	19.993	103.847	20.056	6.793	0.507
1204.500	689.951	80.009	19.994	103.845	20.058	6.682	0.521
1206.000	690.725	80.009	19.993	103.862	20.055	6.861	0.522
1207.500	691.511	80.010	19.993	103.868	20.058	6.694	0.516
1209.000	692.252	80.009	19.994	103.860	20.055	6.883	0.502
1210.500	693.036	80.009	19.993	103.847	20.056	6.799	0.494
1212.000	693.788	80.008	19.993	103.856	20.056	6.813	0.521
1213.500	694.539	80.006	19.992	103.855	20.054	6.929	0.515
1215.000	695.276	80.009	19.993	103.853	20.055	6.889	0.518
1216.500	696.000	80.007	19.992	103.852	20.055	6.899	0.488
1218.000	696.783	80.008	19.993	103.856	20.052	7.116	0.504
1219.500	697.473	80.008	19.994	103.865	20.055	6.872	0.495
1221.000	698.224	80.010	19.994	103.850	20.052	7.102	0.491
1222.500	698.978	80.010	19.993	103.841	20.053	7.021	0.507
1224.001	699.695	80.009	19.995	103.842	20.053	7.046	0.485
1225.500	700.450	80.010	19.993	103.836	20.057	6.766	0.477
1227.000	701.181	80.011	19.994	103.847	20.052	7.118	0.489
1228.500	701.907	80.011	19.993	103.857	20.051	7.140	0.490
1230.000	702.629	80.010	19.992	103.848	20.052	7.090	0.475
1231.500	703.386	80.010	19.993	103.855	20.053	7.004	0.497
1233.000	704.126	80.011	19.993	103.862	20.056	6.816	0.507
1234.500	704.869	80.011	19.993	103.854	20.053	7.010	0.503
1236.000	705.588	80.011	19.993	103.849	20.052	7.062	0.484
1237.500	706.334	80.011	19.994	103.855	20.052	7.122	0.501
1239.000	707.081	80.008	19.993	103.861	20.053	7.019	0.491
1240.500	707.793	80.010	19.993	103.858	20.051	7.131	0.487
1242.000	708.561	80.010	19.994	103.847	20.053	7.006	0.511
1243.500	709.310	80.010	19.996	103.854	20.052	7.073	0.506
1245.000	710.082	80.010	19.996	103.863	20.056	6.846	0.508
1246.500	710.818	80.011	19.994	103.847	20.055	6.873	0.508
1248.001	711.554	80.010	19.994	103.851	20.057	6.773	0.486
1249.500	712.314	80.010	19.995	103.856	20.056	6.854	0.510
1251.000	713.061	80.011	19.994	103.846	20.053	7.051	0.478
1252.500	713.814	80.010	19.994	103.854	20.055	6.895	0.513
1254.000	714.596	80.010	19.994	103.858	20.053	7.035	0.543
1255.500	715.332	80.011	19.993	103.860	20.053	7.049	0.501
1257.000	716.110	80.011	19.995	103.860	20.052	7.090	0.523
1258.500	716.908	80.010	19.994	103.859	20.054	6.959	0.505
1260.000	717.663	80.009	19.993	103.840	20.054	6.947	0.501
1261.500	718.385	80.009	19.993	103.840	20.053	7.031	0.465
1263.000	719.133	80.008	19.993	103.850	20.054	6.945	0.476
1264.501	719.904	80.009	19.993	103.862	20.054	6.982	0.483
1266.000	720.608	80.008	19.994	103.855	20.056	6.829	0.464
1267.500	721.346	80.009	19.993	103.852	20.056	6.835	0.483
1269.000	722.039	80.010	19.994	103.860	20.056	6.845	0.473
1270.500	722.835	80.008	19.994	103.861	20.057	6.751	0.521
1272.000	723.557	80.009	19.994	103.859	20.057	6.735	0.495
1273.500	724.321	80.008	19.994	103.859	20.057	6.764	0.497
1275.000	725.050	80.009	19.994	103.839	20.057	6.760	0.468
1276.500	725.735	80.007	19.993	103.832	20.052	7.062	0.438
1278.000	726.495	80.008	19.995	103.837	20.055	6.884	0.494
1279.500	727.229	80.009	19.995	103.839	20.054	6.945	0.493
1281.000	727.962	80.008	19.995	103.838	20.053	7.021	0.489
1282.500	728.663	80.007	19.995	103.846	20.054	6.991	0.468
1284.000	729.432	80.008	19.995	103.852	20.055	6.918	0.493
1285.500	730.159	80.008	19.994	103.849	20.053	7.040	0.496
1287.001	730.917	80.009	19.992	103.847	20.053	7.030	0.512
1288.500	731.718	80.009	19.995	103.848	20.052	7.070	0.537
1290.000	732.476	80.009	19.993	103.850	20.053	7.012	0.521
1291.500	733.323	80.009	19.992	103.860	20.050	7.223	0.560
1293.000	734.090	80.009	19.992	103.862	20.051	7.171	0.524
1294.500	734.881	80.009	19.994	103.848	20.051	7.196	0.524
1296.000	735.726	80.009	19.993	103.846	20.049	7.271	0.555
1297.500	736.528	80.009	19.994	103.845	20.048	7.389	0.557
1299.000	737.364	80.009	19.993	103.844	20.048	7.388	0.565
1300.500	738.231	80.009	19.994	103.861	20.049	7.315	0.586
1302.000	739.062	80.010	19.993	103.861	20.048	7.339	0.549
1303.500	739.925	80.011	19.996	103.847	20.049	7.280	0.570
1305.000	740.760	80.009	19.994	103.851	20.052	7.120	0.560
1306.500	741.599	80.011	19.993	103.860	20.051	7.172	0.537
1308.000	742.444	80.012	19.994	103.862	20.049	7.280	0.567
1308.500	742.760	80.011	19.994	103.857	20.052	7.097	0.586