File: 01_Data/Black_PMMA/STA/N2/3K_min/Black_PMMA_STA_N2_3KData_220214_R1.csv
##Temp./Â°C,Time/min,DSC(subtr.2)/(mW/mg),Mass(subtr.2)/%,Sensit./(uV/mW)
50.232,10.0158,0.00567056,100.0495,1.04796
50.732,11.00051,0.02978161,100.014,1.04774
51.232,11.323,0.04532729,100.03,1.04752
51.732,11.57964,0.05661389,100.044,1.0473
52.232,11.80857,0.06440272,100.05,1.04708
52.732,12.02052,0.06745778,100.013,1.04686
53.232,12.22385,0.07047056,100.048,1.04664
53.732,12.42141,0.0738864,100.065,1.04641
54.232,12.61565,0.07803528,100.08,1.04619
54.732,12.807,0.07702415,100.047,1.04597
55.232,12.99675,0.07587495,100.081,1.04575
55.732,13.1837,0.07792932,100.0304,1.04553
56.232,13.36863,0.07751017,100.03,1.04531
56.732,13.55206,0.07814991,100.063,1.04509
57.232,13.73219,0.08056214,100.0304,1.04487
57.732,13.913,0.07814807,100.0471,1.04465
58.232,14.09324,0.08015614,100.03,1.04444
58.732,14.2719,0.08334675,100.031,1.04422
59.232,14.45071,0.08341174,100.0304,1.044
59.732,14.6265,0.08291108,100.026,1.04378
60.232,14.801,0.08485918,100.0304,1.04356
60.732,14.9749,0.08513021,100.046,1.04334
61.232,15.1465,0.08707176,100.032,1.04312
61.732,15.3195,0.08723639,100.037,1.0429
62.232,15.49208,0.08420132,100.044,1.04269
62.732,15.6647,0.08645523,100.0304,1.04247
63.232,15.83823,0.08636971,100.056,1.04225
63.732,16.0095,0.08713974,100.039,1.04203
64.232,16.1809,0.08800403,100.039,1.04181
64.732,16.35127,0.08864449,100.038,1.0416
65.232,16.5224,0.08897875,100.014,1.04138
65.732,16.69313,0.09184609,100.047,1.04116
66.232,16.86371,0.09006804,100.022,1.04094
66.732,17.03529,0.09103002,100.055,1.04073
67.232,17.2058,0.08873867,100.056,1.04051
67.732,17.37686,0.09002962,100.072,1.04029
68.232,17.5469,0.08705574,100.039,1.04007
68.732,17.7161,0.08921947,100.014,1.03986
69.232,17.88488,0.08993363,100.032,1.03964
69.732,18.05271,0.09039125,100.015,1.03943
70.232,18.2209,0.09367353,100.039,1.03921
70.732,18.38888,0.0922234,100.006,1.03899
71.232,18.55661,0.09482021,100.039,1.03878
71.732,18.72449,0.09490038,100.039,1.03856
72.232,18.89225,0.0960236,100.029,1.03834
72.732,19.05958,0.09389175,100.03,1.03813
73.232,19.22701,0.09125494,99.996,1.03791
73.732,19.3947,0.09557938,99.99724,1.0377
74.232,19.56288,0.09486436,100.03,1.03748
74.732,19.7315,0.0957438,100.03,1.03727
75.232,19.8997,0.09390179,99.99723,1.03705
75.732,20.06782,0.0932086,99.99749,1.03684
76.232,20.23544,0.09278283,99.99749,1.03662
76.732,20.40335,0.09201944,99.98986,1.03641
77.232,20.57129,0.09127251,99.99724,1.03619
77.732,20.7389,0.0921714,99.96381,1.03598
78.232,20.90638,0.0911814,99.9641,1.03576
78.732,21.07357,0.09051724,99.9808,1.03555
79.232,21.2411,0.09174956,99.9924,1.03534
79.732,21.4089,0.09177081,100.003,1.03512
80.232,21.5768,0.09408495,99.96996,1.03491
80.732,21.74464,0.09316968,99.99704,1.03469
81.232,21.9124,0.09421665,99.96714,1.03448
81.732,22.0805,0.09228565,99.9727,1.03427
82.232,22.2492,0.09231994,99.95578,1.03405
82.732,22.41832,0.09286135,99.95578,1.03384
83.232,22.5883,0.09043884,99.96105,1.03363
83.732,22.75797,0.09166333,99.9409,1.03341
84.232,22.92742,0.09009481,99.93945,1.0332
84.732,23.0961,0.09164489,99.97498,1.03299
85.232,23.2626,0.09166245,99.90621,1.03277
85.732,23.4292,0.09210559,99.9063,1.03256
86.232,23.5949,0.09363115,99.9726,1.03235
86.732,23.7603,0.09553644,99.9392,1.03214
87.232,23.9262,0.09491248,99.93823,1.03192
87.732,24.09165,0.09717218,99.93916,1.03171
88.232,24.25725,0.09588496,99.94714,1.0315
88.732,24.42482,0.09450615,99.91464,1.03129
89.232,24.5932,0.09626693,99.93405,1.03108
89.732,24.76124,0.09530909,99.90584,1.03086
90.232,24.93003,0.09518603,99.88995,1.03065
90.732,25.0965,0.09507615,99.9068,1.03044
91.232,25.26318,0.09314025,99.9185,1.03023
91.732,25.43006,0.09416587,99.90653,1.03002
92.232,25.59674,0.0941861,99.90655,1.02981
92.732,25.76415,0.09478135,99.93945,1.0296
93.232,25.9311,0.09548444,99.9164,1.02938
93.732,26.09842,0.09562172,99.89797,1.02917
94.232,26.2646,0.0964785,99.93138,1.02896
94.732,26.43007,0.0971646,99.8981,1.02875
95.232,26.5957,0.09845438,99.9153,1.02854
95.732,26.76081,0.09870813,99.91476,1.02833
96.232,26.92693,0.09779067,99.88982,1.02812
96.732,27.09327,0.09881659,99.92479,1.02791
97.232,27.2593,0.09714271,99.85941,1.0277
97.732,27.4257,0.09750299,99.93104,1.02749
98.232,27.59142,0.09737169,99.92289,1.02728
98.732,27.75674,0.09946457,99.89704,1.02707
99.232,27.92162,0.09824501,99.8621,1.02686
99.732,28.08575,0.099606,99.898,1.02665
100.232,28.2502,0.10059,99.898,1.02644
100.732,28.41487,0.10012,99.9298,1.02623
101.232,28.5796,0.10088,99.89824,1.02602
101.732,28.74512,0.09844433,99.89824,1.02581
102.232,28.91078,0.09976601,99.92215,1.0256
102.732,29.0762,0.09778285,99.8819,1.02539
103.232,29.24168,0.10002,99.90624,1.02518
103.732,29.4074,0.10105,99.8887,1.02497
104.232,29.57292,0.09881478,99.857,1.02476
104.732,29.7391,0.09913492,99.88996,1.02456
105.232,29.9061,0.09905874,99.88159,1.02435
105.732,30.07283,0.09936624,99.8682,1.02414
106.232,30.23978,0.10176,99.8626,1.02393
106.732,30.40526,0.10181,99.88166,1.02372
107.232,30.56877,0.10119,99.86498,1.02351
107.732,30.7336,0.1012,99.86431,1.0233
108.232,30.89782,0.10536,99.8156,1.0231
108.732,31.06144,0.1045,99.84573,1.02289
109.232,31.2264,0.10561,99.82642,1.02268
109.732,31.39027,0.10572,99.87029,1.02247
110.232,31.5538,0.10755,99.87312,1.02226
110.732,31.7181,0.1073,99.865,1.02206
111.232,31.88318,0.10603,99.86514,1.02185
111.732,32.04724,0.10496,99.82369,1.02164
112.232,32.2126,0.10528,99.85656,1.02143
112.732,32.37788,0.10582,99.83208,1.02123
113.232,32.54312,0.10823,99.83924,1.02102
113.732,32.7086,0.10945,99.80351,1.02081
114.232,32.87377,0.10845,99.8377,1.0206
114.732,33.03928,0.10654,99.79926,1.0204
115.232,33.20478,0.11037,99.8247,1.02019
115.732,33.37045,0.1071,99.82547,1.01998
116.232,33.53572,0.11047,99.80745,1.01978
116.732,33.7008,0.10981,99.82365,1.01957
117.232,33.8659,0.11021,99.79045,1.01936
117.732,34.03071,0.11296,99.8236,1.01916
118.232,34.19569,0.11311,99.79047,1.01895
118.732,34.3607,0.11398,99.79045,1.01874
119.232,34.52613,0.1137,99.79046,1.01854
119.732,34.692,0.11691,99.78936,1.01833
120.232,34.85815,0.1154,99.7723,1.01812
120.732,35.02467,0.11417,99.80675,1.01792
121.232,35.19146,0.11458,99.7907,1.01771
121.732,35.35838,0.11562,99.7908,1.0175
122.232,35.52513,0.11643,99.7493,1.0173
122.732,35.69215,0.11691,99.74925,1.01709
123.232,35.85848,0.11704,99.74925,1.01689
123.732,36.02493,0.11809,99.71497,1.01668
124.232,36.19088,0.11864,99.74863,1.01647
124.732,36.35625,0.11886,99.7492,1.01627
125.232,36.52165,0.12054,99.77564,1.01606
125.732,36.68633,0.12149,99.73268,1.01586
126.232,36.85055,0.12551,99.73266,1.01565
126.732,37.01443,0.12718,99.69976,1.01545
127.232,37.17772,0.12937,99.74565,1.01524
127.732,37.341,0.1264,99.7084,1.01504
128.232,37.50394,0.12963,99.69975,1.01483
128.732,37.6676,0.12885,99.6996,1.01463
129.232,37.83112,0.12758,99.67415,1.01442
129.732,37.9944,0.12729,99.6503,1.01422
130.232,38.1578,0.12855,99.68301,1.01401
130.732,38.321,0.12684,99.70735,1.01381
131.232,38.4848,0.13159,99.66648,1.0136
131.732,38.6492,0.12863,99.65,1.0134
132.232,38.81478,0.12834,99.62512,1.01319
132.732,38.9798,0.13175,99.6844,1.01299
133.232,39.14432,0.13118,99.6181,1.01278
133.732,39.30891,0.13237,99.6502,1.01258
134.232,39.47285,0.13082,99.65025,1.01237
134.732,39.63694,0.13067,99.65025,1.01217
135.232,39.8011,0.12999,99.65024,1.01197
135.732,39.96543,0.13278,99.63367,1.01176
136.232,40.13017,0.12988,99.62,1.01156
136.732,40.29531,0.12929,99.62615,1.01135
137.232,40.46043,0.13117,99.5935,1.01115
137.732,40.62489,0.12874,99.58873,1.01094
138.232,40.78938,0.12963,99.61675,1.01074
138.732,40.95332,0.13132,99.5624,1.01054
139.232,41.11761,0.13259,99.59804,1.01033
139.732,41.28157,0.13245,99.57563,1.01013
140.232,41.44554,0.13345,99.57563,1.00993
140.732,41.60983,0.13097,99.56752,1.00972
141.232,41.7736,0.13095,99.54266,1.00952
141.732,41.93813,0.13132,99.55034,1.00931
142.232,42.10202,0.12957,99.51784,1.00911
142.732,42.26607,0.12751,99.51784,1.00891
143.232,42.43075,0.13032,99.51809,1.0087
143.732,42.59454,0.1321,99.4846,1.0085
144.232,42.75906,0.13289,99.49294,1.0083
144.732,42.92284,0.13323,99.43474,1.00809
145.232,43.08655,0.13359,99.49287,1.00789
145.732,43.25053,0.13307,99.4496,1.00769
146.232,43.4139,0.13417,99.42663,1.00748
146.732,43.57677,0.1352,99.40205,1.00728
147.232,43.74003,0.1354,99.41766,1.00708
147.732,43.90347,0.13488,99.41025,1.00687
148.232,44.0663,0.13727,99.37739,1.00667
148.732,44.2297,0.13665,99.33591,1.00647
149.232,44.39297,0.13862,99.37711,1.00627
149.732,44.55518,0.13857,99.36069,1.00606
150.232,44.7185,0.13828,99.37115,1.00586
150.732,44.8819,0.1366,99.32764,1.00566
151.232,45.0454,0.1397,99.29596,1.00545
151.732,45.20922,0.13831,99.32764,1.00525
152.232,45.37267,0.13992,99.29477,1.00505
152.732,45.53541,0.14082,99.27847,1.00485
153.232,45.698,0.14382,99.27772,1.00464
153.732,45.86102,0.14396,99.27682,1.00444
154.232,46.02347,0.14238,99.26172,1.00424
154.732,46.1864,0.14238,99.26154,1.00404
155.232,46.35005,0.14129,99.2604,1.00383
155.732,46.5136,0.14094,99.16265,1.00363
156.232,46.67773,0.14198,99.19844,1.00343
156.732,46.8422,0.14253,99.19865,1.00323
157.232,47.00591,0.14413,99.16501,1.00302
157.732,47.16981,0.14474,99.16508,1.00282
158.232,47.33327,0.14495,99.1323,1.00262
158.732,47.49691,0.14423,99.15768,1.00242
159.232,47.66001,0.1451,99.09047,1.00221
159.732,47.8232,0.14725,99.12259,1.00201
160.232,47.9866,0.14678,99.0543,1.00181
160.732,48.15,0.14567,99.09087,1.00161
161.232,48.31337,0.14717,99.05734,1.00141
161.732,48.47654,0.15012,98.99892,1.0012
162.232,48.63981,0.15088,98.99121,1.001
162.732,48.8033,0.15043,98.99121,1.0008
163.232,48.96694,0.15095,98.9824,1.0006
163.732,49.13067,0.15013,98.99199,1.0004
164.232,49.2943,0.14987,98.90899,1.00019
164.732,49.4576,0.15185,98.92914,0.99999
165.232,49.6214,0.15269,98.92493,0.99979
165.732,49.78539,0.15228,98.87217,0.99959
166.232,49.94925,0.15096,98.8593,0.99939
166.732,50.11295,0.15376,98.8257,0.99918
167.232,50.2766,0.15355,98.88144,0.99898
167.732,50.43975,0.15571,98.8626,0.99878
168.232,50.60248,0.15775,98.76259,0.99858
168.732,50.76579,0.1586,98.7601,0.99838
169.232,50.92897,0.15832,98.7261,0.99817
169.732,51.09169,0.16063,98.7272,0.99797
170.232,51.25445,0.15943,98.6609,0.99777
170.732,51.41677,0.16071,98.68541,0.99757
171.232,51.57928,0.16023,98.65236,0.99737
171.732,51.742,0.16002,98.59414,0.99717
172.232,51.90435,0.16194,98.5625,0.99696
172.732,52.06755,0.16006,98.59312,0.99676
173.232,52.23049,0.15804,98.4973,0.99656
173.732,52.39306,0.15979,98.52831,0.99636
174.232,52.5559,0.1605,98.46222,0.99616
174.732,52.71768,0.15976,98.4374,0.99596
175.232,52.8798,0.16209,98.42161,0.99575
175.732,53.04175,0.15954,98.39655,0.99555
176.232,53.2046,0.15903,98.36241,0.99535
176.732,53.3681,0.15888,98.29451,0.99515
177.232,53.5315,0.1608,98.27348,0.99495
177.732,53.6948,0.15919,98.2465,0.99475
178.232,53.8576,0.15958,98.21433,0.99454
178.732,54.02066,0.15752,98.15887,0.99434
179.232,54.18331,0.15843,98.14822,0.99414
179.732,54.3466,0.15718,98.11521,0.99394
180.232,54.51015,0.15753,98.0826,0.99374
180.732,54.67343,0.15862,98.0656,0.99354
181.232,54.8375,0.15677,98.03243,0.99334
181.732,55.00169,0.15531,97.9992,0.99313
182.232,55.16604,0.15525,97.99924,0.99293
182.732,55.33124,0.15294,97.9411,0.99273
183.232,55.4961,0.15109,97.93334,0.99253
183.732,55.661,0.15012,97.9,0.99233
184.232,55.8253,0.14918,97.89935,0.99213
184.732,55.9894,0.15205,97.8672,0.99192
185.232,56.15305,0.15133,97.8173,0.99172
185.732,56.3158,0.15215,97.7677,0.99152
186.232,56.47866,0.15079,97.801,0.99132
186.732,56.64141,0.15517,97.7325,0.99112
187.232,56.80361,0.1517,97.73467,0.99092
187.732,56.966,0.15518,97.7013,0.99072
188.232,57.1281,0.1543,97.70167,0.99051
188.732,57.2906,0.15398,97.66834,0.99031
189.232,57.4532,0.15158,97.60039,0.99011
189.732,57.6162,0.15261,97.6353,0.98991
190.232,57.77875,0.15259,97.5855,0.98971
190.732,57.9417,0.1544,97.60597,0.98951
191.232,58.10461,0.15375,97.53385,0.9893
191.732,58.2669,0.15201,97.5363,0.9891
192.232,58.4298,0.15486,97.5116,0.9889
192.732,58.5926,0.15424,97.4886,0.9887
193.232,58.75549,0.15381,97.46978,0.9885
193.732,58.91927,0.15527,97.46208,0.9883
194.232,59.08319,0.15118,97.44609,0.98809
194.732,59.24717,0.15215,97.45368,0.98789
195.232,59.41195,0.15259,97.38747,0.98769
195.732,59.57635,0.15138,97.41224,0.98749
196.232,59.74134,0.15082,97.3459,0.98729
196.732,59.9063,0.14995,97.3811,0.98708
197.232,60.07111,0.14842,97.31306,0.98688
197.732,60.23582,0.15031,97.33785,0.98668
198.232,60.40019,0.14743,97.30497,0.98648
198.732,60.5637,0.14898,97.28819,0.98628
199.232,60.7271,0.15044,97.25484,0.98608
199.732,60.8895,0.15015,97.2829,0.98587
200.232,61.05146,0.15267,97.2226,0.98567
200.732,61.21241,0.15148,97.2056,0.98547
201.232,61.3726,0.15262,97.23869,0.98527
201.732,61.53269,0.15044,97.23869,0.98507
202.232,61.69285,0.15083,97.23491,0.98486
202.732,61.85402,0.14946,97.228,0.98466
203.232,62.0145,0.15115,97.1972,0.98446
203.732,62.17549,0.14748,97.15539,0.98426
204.232,62.33639,0.14757,97.17235,0.98405
204.732,62.49658,0.14765,97.14774,0.98385
205.232,62.65668,0.14896,97.131,0.98365
205.732,62.81684,0.14735,97.1643,0.98345
206.232,62.97674,0.14857,97.18949,0.98325
206.732,63.13619,0.14694,97.1198,0.98304
207.232,63.29575,0.15051,97.0898,0.98284
207.732,63.45573,0.14702,97.1105,0.98264
208.232,63.61571,0.14693,97.1063,0.98244
208.732,63.7764,0.14654,97.0651,0.98223
209.232,63.93781,0.14674,97.0651,0.98203
209.732,64.09871,0.14231,97.0651,0.98183
210.232,64.26087,0.14453,97.0651,0.98163
210.732,64.42302,0.14291,97.10025,0.98142
211.232,64.58577,0.141,97.0489,0.98122
211.732,64.75025,0.13952,97.04849,0.98102
212.232,64.91386,0.14242,97.04849,0.98082
212.732,65.0774,0.13991,97.04862,0.98061
213.232,65.241,0.13996,97.03191,0.98041
213.732,65.4041,0.14059,97.03191,0.98021
214.232,65.5672,0.13919,97.0322,0.98
214.732,65.73105,0.13835,97.00729,0.9798
215.232,65.89524,0.14213,97.00729,0.9796
215.732,66.05892,0.13886,96.98156,0.9794
216.232,66.2218,0.13998,96.98241,0.97919
216.732,66.3846,0.14187,96.98241,0.97899
217.232,66.54684,0.1393,96.98142,0.97879
217.732,66.70921,0.14245,96.96563,0.97858
218.232,66.87151,0.14188,96.96766,0.97838
218.732,67.0334,0.14009,96.94095,0.97818
219.232,67.19591,0.14021,96.94927,0.97797
219.732,67.3587,0.14171,96.94925,0.97777
220.232,67.52156,0.14096,96.94925,0.97757
220.732,67.6844,0.14097,96.974,0.97736
221.232,67.8469,0.14409,96.94095,0.97716
221.732,68.00931,0.14464,96.94095,0.97696
222.232,68.1718,0.14378,96.94287,0.97675
222.732,68.33421,0.14346,96.9161,0.97655
223.232,68.4969,0.1445,96.94936,0.97635
223.732,68.6601,0.14392,96.95192,0.97614
224.232,68.82316,0.14151,96.91476,0.97594
224.732,68.9863,0.14349,96.94095,0.97573
225.232,69.14962,0.14183,96.94073,0.97553
225.732,69.3125,0.14343,96.90804,0.97533
226.232,69.4752,0.14405,96.87517,0.97512
226.732,69.6375,0.14449,96.91187,0.97492
227.232,69.80049,0.14541,96.93266,0.97471
227.732,69.96248,0.1432,96.87486,0.97451
228.232,70.12465,0.1463,96.87487,0.9743
228.732,70.28693,0.14731,96.87487,0.9741
229.232,70.44866,0.147,96.87487,0.9739
229.732,70.61086,0.14802,96.87487,0.97369
230.232,70.7731,0.14703,96.87788,0.97349
230.732,70.9353,0.14777,96.86125,0.97328
231.232,71.09732,0.1467,96.82615,0.97308
231.732,71.25918,0.14718,96.8506,0.97287
232.232,71.42113,0.14763,96.84276,0.97267
232.732,71.58285,0.15043,96.8168,0.97246
233.232,71.74422,0.15135,96.81673,0.97226
233.732,71.90547,0.15195,96.85834,0.97205
234.232,72.06692,0.14974,96.83213,0.97185
234.732,72.22796,0.15096,96.82585,0.97164
235.232,72.39001,0.15107,96.80708,0.97144
235.732,72.55275,0.14873,96.82938,0.97123
236.232,72.71528,0.14889,96.7922,0.97103
236.732,72.87885,0.14884,96.76735,0.97082
237.232,73.04301,0.14819,96.76734,0.97062
237.732,73.20725,0.14958,96.76732,0.97041
238.232,73.3716,0.14935,96.71032,0.97021
238.732,73.5356,0.14992,96.75831,0.97
239.232,73.69877,0.15323,96.75905,0.96979
239.732,73.86214,0.15332,96.72588,0.96959
240.232,74.02505,0.15432,96.67707,0.96938
240.732,74.1883,0.15082,96.69295,0.96918
241.232,74.35121,0.15303,96.67694,0.96897
241.732,74.51405,0.15534,96.6764,0.96876
242.232,74.6765,0.15436,96.65132,0.96856
242.732,74.83856,0.15903,96.6521,0.96835
243.232,75.00054,0.15731,96.62728,0.96815
243.732,75.1623,0.15776,96.61839,0.96794
244.232,75.3243,0.15758,96.6092,0.96773
244.732,75.4867,0.15823,96.59214,0.96753
245.232,75.64902,0.15793,96.55253,0.96732
245.732,75.81156,0.15912,96.55253,0.96711
246.232,75.97298,0.15892,96.55241,0.96691
246.732,76.1344,0.16116,96.51935,0.9667
247.232,76.29626,0.16156,96.50429,0.96649
247.732,76.45742,0.16092,96.4862,0.96628
248.232,76.62018,0.16185,96.4781,0.96608
248.732,76.7828,0.16271,96.43672,0.96587
249.232,76.94521,0.16196,96.42026,0.96566
249.732,77.10766,0.16156,96.38694,0.96545
250.232,77.2705,0.16233,96.41176,0.96525
250.732,77.43257,0.16388,96.34572,0.96504
251.232,77.59499,0.16344,96.35234,0.96483
251.732,77.7577,0.16366,96.33744,0.96462
252.232,77.9199,0.16302,96.33766,0.96442
252.732,78.08282,0.16359,96.2791,0.96421
253.232,78.24559,0.16841,96.2675,0.964
253.732,78.408,0.1691,96.23003,0.96379
254.232,78.57048,0.1739,96.24086,0.96358
254.732,78.73221,0.17605,96.2133,0.96337
255.232,78.89368,0.17824,96.2162,0.96317
255.732,79.05541,0.1801,96.15553,0.96296
256.232,79.2169,0.18004,96.1225,0.96275
256.732,79.37854,0.18156,96.08975,0.96254
257.232,79.5407,0.18479,96.09276,0.96233
257.732,79.703,0.1839,96.0301,0.96212
258.232,79.86454,0.18592,96.0232,0.96191
258.732,80.0271,0.18683,95.9902,0.9617
259.232,80.18991,0.18577,95.98895,0.96149
259.732,80.35285,0.18365,95.9268,0.96129
260.232,80.51682,0.18331,95.91579,0.96108
260.732,80.67989,0.18645,95.84876,0.96087
261.232,80.84311,0.18782,95.84949,0.96066
261.732,81.00536,0.19118,95.81665,0.96045
262.232,81.167,0.19144,95.80675,0.96024
262.732,81.32929,0.18987,95.75023,0.96003
263.232,81.4906,0.19282,95.6931,0.95982
263.732,81.65228,0.19403,95.72371,0.95961
264.232,81.8138,0.19341,95.63463,0.9594
264.732,81.975,0.1945,95.60821,0.95919
265.232,82.1365,0.19532,95.63595,0.95897
265.732,82.29782,0.19455,95.53486,0.95876
266.232,82.45987,0.19771,95.51863,0.95855
266.732,82.62297,0.19597,95.48592,0.95834
267.232,82.786,0.19798,95.454,0.95813
267.732,82.94882,0.1947,95.4029,0.95792
268.232,83.11149,0.19442,95.37026,0.95771
268.732,83.27341,0.20031,95.34005,0.9575
269.232,83.43417,0.19966,95.3013,0.95729
269.732,83.59617,0.20124,95.26897,0.95707
270.232,83.75907,0.20112,95.2196,0.95686
270.732,83.92241,0.20108,95.13851,0.95665
271.232,84.087,0.20354,95.10937,0.95644
271.732,84.25071,0.20414,95.0723,0.95623
272.232,84.41341,0.20423,95.00883,0.95602
272.732,84.5764,0.20418,94.97129,0.9558
273.232,84.7393,0.20651,94.94096,0.95559
273.732,84.90222,0.2073,94.87183,0.95538
274.232,85.0644,0.20752,94.84095,0.95517
274.732,85.226,0.20661,94.80745,0.95495
275.232,85.3882,0.20823,94.7418,0.95474
275.732,85.55075,0.20814,94.70868,0.95453
276.232,85.7137,0.20912,94.64237,0.95431
276.732,85.8767,0.21105,94.61284,0.9541
277.232,86.03933,0.20914,94.5433,0.95389
277.732,86.20152,0.20721,94.4783,0.95367
278.232,86.36354,0.20909,94.44151,0.95346
278.732,86.52574,0.21426,94.34573,0.95325
279.232,86.68757,0.21569,94.32822,0.95303
279.732,86.84936,0.21569,94.22914,0.95282
280.232,87.01143,0.21657,94.20992,0.9526
280.732,87.17285,0.21754,94.15426,0.95239
281.232,87.33458,0.21708,94.06945,0.95218
281.732,87.49665,0.21864,94.0423,0.95196
282.232,87.65839,0.22048,93.95526,0.95175
282.732,87.82115,0.2193,93.92429,0.95153
283.232,87.98416,0.21745,93.8326,0.95132
283.732,88.14751,0.21714,93.79949,0.9511
284.232,88.31151,0.21667,93.72162,0.95089
284.732,88.4744,0.21621,93.68285,0.95067
285.232,88.63801,0.21738,93.6184,0.95046
285.732,88.80111,0.21712,93.55095,0.95024
286.232,88.9643,0.21685,93.48499,0.95002
286.732,89.12765,0.21699,93.41869,0.94981
287.232,89.29061,0.2199,93.35171,0.94959
287.732,89.45321,0.22147,93.31705,0.94938
288.232,89.616,0.21992,93.25059,0.94916
288.732,89.7791,0.22223,93.1931,0.94894
289.232,89.94162,0.22304,93.08626,0.94873
289.732,90.10505,0.22379,93.05261,0.94851
290.232,90.268,0.22367,92.95401,0.94829
290.732,90.4307,0.22102,92.85672,0.94808
291.232,90.5938,0.22328,92.82431,0.94786
291.732,90.75636,0.22427,92.7855,0.94764
292.232,90.91886,0.22637,92.69,0.94742
292.732,91.08152,0.22646,92.6139,0.94721
293.232,91.24441,0.22675,92.51195,0.94699
293.732,91.40749,0.22549,92.43129,0.94677
294.232,91.57043,0.22559,92.37477,0.94655
294.732,91.73323,0.22773,92.2824,0.94633
295.232,91.896,0.22678,92.2166,0.94612
295.732,92.0583,0.22966,92.08341,0.9459
296.232,92.22126,0.23237,92.04521,0.94568
296.732,92.38365,0.23337,91.93418,0.94546
297.232,92.5455,0.2379,91.8377,0.94524
297.732,92.7074,0.23917,91.765,0.94502
298.232,92.8695,0.2427,91.66162,0.9448
298.732,93.0318,0.2445,91.5653,0.94458
299.232,93.19466,0.24676,91.5101,0.94436
299.732,93.35803,0.24894,91.35674,0.94414
300.232,93.52145,0.25144,91.25887,0.94392
300.732,93.68526,0.2543,91.1605,0.9437
301.232,93.84918,0.25641,91.02938,0.94348
301.732,94.0128,0.25889,90.89712,0.94326
302.232,94.17648,0.26061,90.80192,0.94304
302.732,94.33941,0.26428,90.70662,0.94282
303.232,94.50165,0.26645,90.59241,0.9426
303.732,94.66405,0.26802,90.4504,0.94238
304.232,94.82593,0.27158,90.29601,0.94216
304.732,94.98731,0.27628,90.21222,0.94194
305.232,95.14972,0.2812,90.0587,0.94172
305.732,95.3116,0.28238,89.9529,0.9415
306.232,95.47465,0.28974,89.82285,0.94127
306.732,95.6383,0.29004,89.6456,0.94105
307.232,95.8011,0.29208,89.46518,0.94083
307.732,95.9641,0.29713,89.33378,0.94061
308.232,96.12821,0.29969,89.19253,0.94039
308.732,96.29266,0.30382,89.06371,0.94016
309.232,96.458,0.30794,88.8451,0.93994
309.732,96.6237,0.31477,88.69811,0.93972
310.232,96.7877,0.31881,88.54146,0.93949
310.732,96.95115,0.32106,88.3451,0.93927
311.232,97.11403,0.32572,88.18131,0.93905
311.732,97.2765,0.3304,87.98815,0.93882
312.232,97.43898,0.3397,87.7912,0.9386
312.732,97.6001,0.3422,87.60738,0.93838
313.232,97.7615,0.34833,87.3836,0.93815
313.732,97.9238,0.35495,87.23602,0.93793
314.232,98.08573,0.36212,86.99965,0.9377
314.732,98.24886,0.36622,86.7587,0.93748
315.232,98.4122,0.37346,86.54261,0.93725
315.732,98.57478,0.38121,86.31403,0.93703
316.232,98.7375,0.38533,86.04915,0.9368
316.732,98.9011,0.39061,85.8018,0.93658
317.232,99.06555,0.39858,85.5372,0.93635
317.732,99.23042,0.40397,85.2637,0.93613
318.232,99.39549,0.41083,84.99863,0.9359
318.732,99.5607,0.41915,84.71521,0.93568
319.232,99.72544,0.42973,84.41422,0.93545
319.732,99.88996,0.43611,84.10369,0.93522
320.232,100.054,0.44336,83.7673,0.935
320.732,100.218,0.45232,83.49031,0.93477
321.232,100.382,0.46055,83.09987,0.93454
321.732,100.545,0.47053,82.79684,0.93432
322.232,100.708,0.47925,82.40162,0.93409
322.732,100.871,0.48887,82.07978,0.93386
323.232,101.034,0.49877,81.67503,0.93363
323.732,101.197,0.51028,81.2781,0.93341
324.232,101.36,0.52178,80.93593,0.93318
324.732,101.522,0.53137,80.51892,0.93295
325.232,101.6846,0.54378,80.12415,0.93272
325.732,101.848,0.55272,79.65652,0.93249
326.232,102.01,0.56378,79.20725,0.93226
326.732,102.173,0.57456,78.768,0.93204
327.232,102.337,0.58624,78.29642,0.93181
327.732,102.499,0.59839,77.83375,0.93158
328.232,102.663,0.60793,77.33548,0.93135
328.732,102.826,0.62233,76.85022,0.93112
329.232,102.989,0.63376,76.29093,0.93089
329.732,103.153,0.64573,75.75665,0.93066
330.232,103.317,0.65673,75.2089,0.93043
330.732,103.4816,0.66782,74.63503,0.9302
331.232,103.647,0.67671,74.04848,0.92997
331.732,103.8117,0.68886,73.43853,0.92974
332.232,103.976,0.70346,72.82151,0.9295
332.732,104.141,0.71714,72.17357,0.92927
333.232,104.306,0.72748,71.53054,0.92904
333.732,104.47,0.74158,70.9015,0.92881
334.232,104.634,0.75264,70.1892,0.92858
334.732,104.798,0.76342,69.49941,0.92835
335.232,104.962,0.7761,68.82058,0.92811
335.732,105.126,0.78469,68.12791,0.92788
336.232,105.29,0.79772,67.3668,0.92765
336.732,105.4546,0.80761,66.63974,0.92742
337.232,105.619,0.81818,65.89406,0.92718
337.732,105.7837,0.82929,65.1511,0.92695
338.232,105.949,0.83695,64.3734,0.92672
338.732,106.112,0.84625,63.5841,0.92648
339.232,106.276,0.8532,62.80585,0.92625
339.732,106.44,0.86246,61.96431,0.92602
340.232,106.605,0.87198,61.1349,0.92578
340.732,106.77,0.88022,60.29617,0.92555
341.232,106.935,0.88568,59.4495,0.92531
341.732,107.099,0.89311,58.59921,0.92508
342.232,107.263,0.90123,57.7339,0.92484
342.732,107.427,0.90793,56.90181,0.92461
343.232,107.592,0.91101,55.99527,0.92437
343.732,107.756,0.91572,55.12,0.92414
344.232,107.92,0.9217,54.22035,0.9239
344.732,108.085,0.92148,53.35205,0.92366
345.232,108.249,0.92564,52.39512,0.92343
345.732,108.413,0.92447,51.48212,0.92319
346.232,108.578,0.92532,50.60136,0.92295
346.732,108.742,0.92496,49.6319,0.92272
347.232,108.907,0.92121,48.78452,0.92248
347.732,109.071,0.92002,47.87162,0.92224
348.232,109.2343,0.91598,46.92664,0.92201
348.732,109.398,0.91898,46.06115,0.92177
349.232,109.561,0.91449,45.12027,0.92153
349.732,109.7247,0.91413,44.19769,0.92129
350.232,109.888,0.90954,43.32593,0.92105
350.732,110.052,0.90674,42.40702,0.92081
351.232,110.216,0.89688,41.48446,0.92058
351.732,110.379,0.89118,40.61997,0.92034
352.232,110.5434,0.88588,39.70897,0.9201
352.732,110.708,0.87816,38.78613,0.91986
353.232,110.872,0.86509,37.9474,0.91962
353.732,111.036,0.85959,37.07292,0.91938
354.232,111.2,0.85436,36.18019,0.91914
354.732,111.3631,0.84401,35.32414,0.9189
355.232,111.526,0.83632,34.49199,0.91866
355.732,111.688,0.83326,33.62016,0.91842
356.232,111.85,0.82704,32.77357,0.91818
356.732,112.012,0.81958,31.9042,0.91793
357.232,112.175,0.80972,31.0596,0.91769
357.732,112.337,0.80297,30.2172,0.91745
358.232,112.499,0.79203,29.40832,0.91721
358.732,112.663,0.783,28.55785,0.91697
359.232,112.825,0.77376,27.76172,0.91672
359.732,112.988,0.76409,26.95542,0.91648
360.232,113.152,0.75434,26.22925,0.91624
360.732,113.3151,0.74162,25.39451,0.916
361.232,113.479,0.73035,24.65288,0.91575
361.732,113.643,0.71577,23.9136,0.91551
362.232,113.807,0.70595,23.16614,0.91527
362.732,113.971,0.69335,22.42367,0.91502
363.232,114.135,0.68332,21.73126,0.91478
363.732,114.298,0.6673,21.03216,0.91453
364.232,114.462,0.65466,20.31705,0.91429
364.732,114.626,0.63847,19.63371,0.91404
365.232,114.789,0.62687,18.97615,0.9138
365.732,114.953,0.61144,18.33746,0.91355
366.232,115.117,0.60141,17.71503,0.91331
366.732,115.2817,0.58261,17.09088,0.91306
367.232,115.446,0.5718,16.47845,0.91282
367.732,115.611,0.55524,15.8946,0.91257
368.232,115.776,0.5402,15.3152,0.91232
368.732,115.941,0.52737,14.75339,0.91208
369.232,116.106,0.51314,14.2074,0.91183
369.732,116.269,0.49776,13.68181,0.91158
370.232,116.433,0.48417,13.17107,0.91133
370.732,116.596,0.47288,12.6721,0.91109
371.232,116.758,0.45429,12.20853,0.91084
371.732,116.921,0.44363,11.7308,0.91059
372.232,117.084,0.42885,11.28713,0.91034
372.732,117.247,0.41555,10.86678,0.91009
373.232,117.41,0.41054,10.40282,0.90984
373.732,117.572,0.40022,9.9631,0.9096
374.232,117.7354,0.3877,9.55991,0.90935
374.732,117.899,0.37453,9.16537,0.9091
375.232,118.062,0.36026,8.82733,0.90885
375.732,118.226,0.34872,8.44986,0.9086
376.232,118.389,0.34065,8.09787,0.90835
376.732,118.552,0.32618,7.73596,0.9081
377.232,118.716,0.31462,7.4058,0.90784
377.732,118.88,0.30581,7.13159,0.90759
378.232,119.044,0.29317,6.81513,0.90734
378.732,119.208,0.28429,6.51671,0.90709
379.232,119.373,0.27207,6.26095,0.90684
379.732,119.538,0.26434,5.95365,0.90659
380.232,119.704,0.25458,5.66923,0.90633
380.732,119.869,0.2465,5.42725,0.90608
381.232,120.034,0.23703,5.17559,0.90583
381.732,120.199,0.22802,4.93995,0.90558
382.232,120.364,0.22037,4.76089,0.90532
382.732,120.528,0.21009,4.49252,0.90507
383.232,120.692,0.20544,4.28147,0.90482
383.732,120.856,0.19593,4.07983,0.90456
384.232,121.019,0.18866,3.89296,0.90431
384.732,121.183,0.18257,3.73737,0.90405
385.232,121.346,0.17636,3.54418,0.9038
385.732,121.508,0.16873,3.41376,0.90354
386.232,121.6704,0.16301,3.2306,0.90329
386.732,121.833,0.15666,3.07138,0.90303
387.232,121.996,0.14812,2.93286,0.90278
387.732,122.16,0.14273,2.7953,0.90252
388.232,122.3241,0.13507,2.68082,0.90226
388.732,122.489,0.13061,2.49669,0.90201
389.232,122.655,0.12315,2.4006,0.90175
389.732,122.8207,0.11936,2.30453,0.90149
390.232,122.986,0.11392,2.18276,0.90124
390.732,123.15,0.10974,2.06515,0.90098
391.232,123.315,0.10919,1.96583,0.90072
391.732,123.479,0.10572,1.86739,0.90046
392.232,123.644,0.10281,1.76602,0.9002
392.732,123.808,0.09518213,1.7281,0.89995
393.232,123.972,0.09285307,1.66372,0.89969
393.732,124.137,0.09085274,1.568,0.89943
394.232,124.301,0.08797124,1.47329,0.89917
394.732,124.466,0.08338091,1.401,0.89891
395.232,124.63,0.08463683,1.36902,0.89865
395.732,124.794,0.08000081,1.29104,0.89839
396.232,124.958,0.08227251,1.23691,0.89813
396.732,125.123,0.08108432,1.20258,0.89787
397.232,125.287,0.07815751,1.13584,0.89761
397.732,125.4517,0.07807585,1.0697,0.89734
398.232,125.616,0.07798278,1.05356,0.89708
398.732,125.781,0.07667187,0.95488,0.89682
399.232,125.946,0.07625279,0.95489,0.89656
399.732,126.111,0.0767398,0.89183,0.8963
400.232,126.276,0.07455549,0.85524,0.89603
400.732,126.44,0.07460279,0.78912,0.89577
401.232,126.605,0.07503203,0.78857,0.89551
401.732,126.769,0.07788691,0.71849,0.89524
402.232,126.934,0.07410488,0.67339,0.89498
402.732,127.0982,0.07241502,0.67307,0.89472
403.232,127.263,0.07555687,0.63548,0.89445
403.732,127.427,0.07488393,0.59574,0.89419
404.232,127.591,0.07288574,0.57458,0.89392
404.732,127.754,0.07278141,0.53887,0.89366
405.232,127.918,0.07287189,0.50808,0.89339
405.732,128.0818,0.06782892,0.50886,0.89313
406.232,128.246,0.06477707,0.49152,0.89286
406.732,128.409,0.06461741,0.43603,0.8926
407.232,128.573,0.06243469,0.45607,0.89233
407.732,128.7366,0.05972665,0.4318,0.89206
408.232,128.901,0.05805948,0.42538,0.8918
408.732,129.066,0.05573373,0.40031,0.89153
409.232,129.232,0.05218703,0.39221,0.89126
409.732,129.397,0.0472494,0.37966,0.89099
410.232,129.562,0.0407623,0.36928,0.89073
410.732,129.727,0.03566853,0.38452,0.89046
411.232,129.893,0.03344863,0.3546,0.89019
411.732,130.059,0.03237877,0.33332,0.88992
412.232,130.224,0.02672351,0.35116,0.88965
412.732,130.389,0.02151862,0.28572,0.88938
413.232,130.553,0.01811731,0.30684,0.88911
413.732,130.718,0.0144663,0.30154,0.88884
414.232,130.884,0.006951629,0.30151,0.88857
414.732,131.051,0.001822475,0.30148,0.8883
415.232,131.218,-0.00176723,0.3181,0.88803
415.732,131.384,-0.009861301,0.28502,0.88776
416.232,131.55,-0.01299539,0.25209,0.88749
416.732,131.7153,-0.01748027,0.3181,0.88722
417.232,131.881,-0.01829756,0.25356,0.88694
417.732,132.047,-0.02331296,0.28492,0.88667
418.232,132.212,-0.0212396,0.28492,0.8864
418.732,132.377,-0.01922726,0.28467,0.88613
419.232,132.542,-0.01768799,0.3202,0.88585
419.732,132.707,-0.0102516,0.26937,0.88558
420.232,132.871,-0.00521875,0.29144,0.88531
420.732,133.037,-0.005185147,0.26692,0.88503
421.232,133.203,-0.00131569,0.29322,0.88476
421.732,133.369,0.002372951,0.29307,0.88448
422.232,133.536,0.004784635,0.24843,0.88421
422.732,133.7024,0.004812886,0.27688,0.88393
423.232,133.869,0.007819264,0.27688,0.88366
423.732,134.035,0.004575685,0.31104,0.88338
424.232,134.2,0.008542012,0.28463,0.88311
424.732,134.365,0.00863889,0.30956,0.88283
425.232,134.53,0.00982393,0.30955,0.88256
425.732,134.695,0.006540714,0.27662,0.88228
426.232,134.86,0.01074761,0.2771,0.882
426.732,135.024,0.01190388,0.29322,0.88172
427.232,135.188,0.01339869,0.23522,0.88145
427.732,135.353,0.0124155,0.26826,0.88117
428.232,135.517,0.01269523,0.26793,0.88089
428.732,135.681,0.01066258,0.27662,0.88061
429.232,135.844,0.01227279,0.27581,0.88033
429.732,136.008,0.01132381,0.25698,0.88005
430.232,136.174,0.01476117,0.2593,0.87978
430.732,136.339,0.01212322,0.26834,0.8795
431.232,136.505,0.01016919,0.30215,0.87922
431.732,136.671,0.009088152,0.26834,0.87894
432.232,136.836,0.00771942,0.26823,0.87865
432.732,137.002,0.01011211,0.25974,0.87837
433.232,137.169,0.01095846,0.25228,0.87809
433.732,137.337,0.009367201,0.25175,0.87781
434.232,137.505,0.009169358,0.21883,0.87753
434.732,137.672,0.01102881,0.25173,0.87725
435.232,137.837,0.01347351,0.25183,0.87697
435.732,138.0016,0.01341055,0.23518,0.87668
436.232,138.1659,0.01354305,0.23518,0.8764
436.732,138.33,0.01114712,0.26838,0.87612
437.232,138.495,0.0125238,0.26085,0.87583
437.732,138.6602,0.01197801,0.27011,0.87555
438.232,138.826,0.01075801,0.2358,0.87527
438.732,138.992,0.01392022,0.23543,0.87498
439.232,139.158,0.01315522,0.23543,0.8747
439.732,139.323,0.01178911,0.23559,0.87441
440.232,139.489,0.01097515,0.25165,0.87413
440.732,139.654,0.01229849,0.25175,0.87384
441.232,139.819,0.01400099,0.22713,0.87356
441.732,139.984,0.01734783,0.22714,0.87327
442.232,140.15,0.01533868,0.27638,0.87298
442.732,140.316,0.01340009,0.24372,0.8727
443.232,140.481,0.01364145,0.24372,0.87241
443.732,140.646,0.01353215,0.24372,0.87212
444.232,140.811,0.0144803,0.26889,0.87183
444.732,140.9766,0.01273378,0.22214,0.87155
445.232,141.142,0.00960248,0.26799,0.87126
445.732,141.308,0.01037822,0.26859,0.87097
446.232,141.475,0.01135347,0.26859,0.87068
446.732,141.641,0.00992945,0.26859,0.87039
447.232,141.808,0.01434305,0.26771,0.8701
447.732,141.973,0.01041535,0.23543,0.86981
448.232,142.138,0.009174368,0.23543,0.86952
448.732,142.302,0.01259504,0.23999,0.86923
449.232,142.467,0.01488981,0.25201,0.86894
449.732,142.631,0.01400491,0.2603,0.86865
450.232,142.797,0.01395203,0.26031,0.86836
450.732,142.963,0.01415176,0.25861,0.86807
451.232,143.129,0.01415538,0.24389,0.86777
451.732,143.297,0.0142773,0.21068,0.86748
452.232,143.464,0.01294764,0.22852,0.86719
452.732,143.632,0.01031984,0.26005,0.8669
453.232,143.8,0.01174294,0.22788,0.8666
453.732,143.966,0.009501284,0.22686,0.86631
454.232,144.133,0.01017959,0.24348,0.86602
454.732,144.298,0.01199254,0.21209,0.86572
455.232,144.463,0.01491374,0.21055,0.86543
455.732,144.628,0.01432673,0.20132,0.86513
456.232,144.793,0.01425268,0.21092,0.86484
456.732,144.957,0.0161441,0.22659,0.86454
457.232,145.121,0.01599071,0.19344,0.86425
457.732,145.286,0.01517155,0.23646,0.86395
458.232,145.45,0.01369361,0.20229,0.86366
458.732,145.614,0.01897528,0.19422,0.86336
459.232,145.779,0.01569846,0.24337,0.86306
459.732,145.9438,0.01571242,0.21054,0.86277
460.232,146.11,0.01617653,0.24692,0.86247
460.732,146.276,0.01529003,0.17764,0.86217
461.232,146.443,0.01527357,0.18644,0.86187
461.732,146.61,0.01653559,0.21835,0.86157
462.232,146.7769,0.0170136,0.20731,0.86127
462.732,146.944,0.01546431,0.21882,0.86098
463.232,147.112,0.01406583,0.25153,0.86068
463.732,147.279,0.01675382,0.21465,0.86038
464.232,147.446,0.01764641,0.21884,0.86008
464.732,147.613,0.01816445,0.21884,0.85978
465.232,147.779,0.01856741,0.21888,0.85948
465.732,147.945,0.01819408,0.23512,0.85918
466.232,148.112,0.01976253,0.23452,0.85887
466.732,148.278,0.01613842,0.24297,0.85857
467.232,148.445,0.01989062,0.21051,0.85827
467.732,148.613,0.0188495,0.24628,0.85797
468.232,148.78,0.01629498,0.22717,0.85767
468.732,148.948,0.0192648,0.22714,0.85736
469.232,149.115,0.01853642,0.22714,0.85706
469.732,149.281,0.02070207,0.22714,0.85676
470.232,149.447,0.01972286,0.22729,0.85645
470.732,149.613,0.02071736,0.19396,0.85615
471.232,149.778,0.01963504,0.22714,0.85584
471.732,149.943,0.02222479,0.22716,0.85554
472.232,150.108,0.02123787,0.19379,0.85523
472.732,150.272,0.0211295,0.22714,0.85493
473.232,150.436,0.01881722,0.22717,0.85462
473.732,150.6,0.02104047,0.227,0.85432
474.232,150.765,0.02379206,0.22713,0.85401
474.732,150.931,0.02396952,0.1935,0.8537
475.232,151.098,0.0207982,0.21084,0.8534
475.732,151.263,0.02282633,0.21055,0.85309
476.232,151.43,0.021865,0.21055,0.85278
476.732,151.5965,0.0216302,0.21055,0.85247
477.232,151.762,0.02001142,0.19404,0.85217
477.732,151.929,0.02284676,0.19397,0.85186
478.232,152.096,0.02360601,0.19471,0.85155
478.732,152.262,0.02237094,0.21896,0.85124
479.232,152.429,0.02499354,0.19908,0.85093
479.732,152.594,0.0198252,0.20634,0.85062
480.232,152.76,0.02253335,0.21055,0.85031
480.732,152.927,0.02485203,0.17695,0.85
481.232,153.093,0.02233084,0.19405,0.84969
481.732,153.26,0.02363268,0.17738,0.84938
482.232,153.426,0.02306682,0.14421,0.84907
482.732,153.59,0.02298509,0.16524,0.84876
483.232,153.755,0.02220742,0.21062,0.84844
483.732,153.9196,0.0218346,0.1774,0.84813
484.232,154.085,0.02347521,0.14297,0.84782
484.732,154.252,0.02301631,0.17739,0.8475
485.232,154.4196,0.02165773,0.17656,0.84719
485.732,154.587,0.02222033,0.20401,0.84688
486.232,154.753,0.0234475,0.20195,0.84656
486.732,154.919,0.02250164,0.1853,0.84625
487.232,155.085,0.02586292,0.18568,0.84593
487.732,155.251,0.02454094,0.18568,0.84562
488.232,155.416,0.02130601,0.18531,0.8453
488.732,155.582,0.02495459,0.15276,0.84499
489.232,155.748,0.02445392,0.18566,0.84467
489.732,155.915,0.02388042,0.15276,0.84436
490.232,156.081,0.02503533,0.18542,0.84404
490.732,156.247,0.0235849,0.16898,0.84372
491.232,156.413,0.02409362,0.16935,0.84341
491.732,156.579,0.02683511,0.18655,0.84309
492.232,156.746,0.02710743,0.15269,0.84277
492.732,156.913,0.02603338,0.15272,0.84245
493.232,157.081,0.02908588,0.18567,0.84213
493.732,157.248,0.02588913,0.18567,0.84181
494.232,157.416,0.02369615,0.15274,0.8415
494.732,157.583,0.02670042,0.1691,0.84118
495.232,157.75,0.02764712,0.15148,0.84086
495.732,157.917,0.02757241,0.17833,0.84054
496.232,158.082,0.03034467,0.14422,0.84021
496.732,158.248,0.02788283,0.15252,0.83989
497.232,158.413,0.02751931,0.15252,0.83957
497.732,158.578,0.0242807,0.15252,0.83925
498.232,158.744,0.02573983,0.15252,0.83893
498.732,158.91,0.02371002,0.15252,0.83861
499.232,159.077,0.02304656,0.15232,0.83828
499.732,159.245,0.02505484,0.16476,0.83796
500.232,159.412,0.02318725,0.14399,0.83764
500.732,159.58,0.02676946,0.12714,0.83732
501.232,159.749,0.02521438,0.15247,0.83699
501.732,159.917,0.02345985,0.15252,0.83667
502.232,160.085,0.02337331,0.15252,0.83634
502.732,160.252,0.02232702,0.15252,0.83602
503.232,160.418,0.02567569,0.15252,0.83569
503.732,160.584,0.02127433,0.15251,0.83537
504.232,160.75,0.02384442,0.15241,0.83504
504.732,160.915,0.02353822,0.15252,0.83472
505.232,161.08,0.02338952,0.16692,0.83439
505.732,161.244,0.02256684,0.15304,0.83406
506.232,161.409,0.0251589,0.15289,0.83373
506.732,161.574,0.02478927,0.13618,0.83341
507.232,161.739,0.02490407,0.16814,0.83308
507.732,161.904,0.02477366,0.14406,0.83275
508.232,162.071,0.02367836,0.14447,0.83242
508.732,162.237,0.0287715,0.1364,0.83209
509.232,162.403,0.0264905,0.13618,0.83176
509.732,162.57,0.0257455,0.14596,0.83144
510.232,162.737,0.02854696,0.11221,0.83111
510.732,162.9045,0.02708477,0.13271,0.83078
511.232,163.072,0.02770408,0.14448,0.83044
511.732,163.24,0.02615255,0.13699,0.83011
512.232,163.407,0.02758851,0.10338,0.82978
512.732,163.575,0.02786155,0.13618,0.82945
513.232,163.742,0.02887422,0.13635,0.82912
513.732,163.91,0.0300738,0.11328,0.82879
514.232,164.078,0.03005638,0.12789,0.82845
514.732,164.245,0.02920683,0.13658,0.82812
515.232,164.413,0.02876767,0.13618,0.82779
515.732,164.579,0.02794874,0.13618,0.82746
516.232,164.746,0.02888992,0.13609,0.82712
516.732,164.912,0.02570105,0.16081,0.82679
517.232,165.0773,0.02805782,0.16017,0.82645
517.732,165.242,0.02758594,0.13666,0.82612
518.232,165.4073,0.02844403,0.10702,0.82578
518.732,165.573,0.02879623,0.11464,0.82545
519.232,165.739,0.02905523,0.14444,0.82511
519.732,165.906,0.02770348,0.14698,0.82478
520.232,166.0729,0.03003759,0.14598,0.82444
520.732,166.241,0.02991542,0.14422,0.8241
521.232,166.408,0.02578932,0.11126,0.82377
521.732,166.575,0.02886822,0.14211,0.82343
522.232,166.742,0.03009447,0.14345,0.82309
522.732,166.909,0.02752374,0.11113,0.82275
523.232,167.077,0.0286961,0.1196,0.82241
523.732,167.244,0.02827979,0.1196,0.82207
524.232,167.411,0.03115767,0.1196,0.82173
524.732,167.578,0.03162605,0.1196,0.8214
525.232,167.746,0.02894923,0.1196,0.82106
525.732,167.913,0.03072721,0.1237,0.82072
526.232,168.0811,0.03036568,0.12789,0.82037
526.732,168.249,0.03104848,0.12789,0.82003
527.232,168.417,0.03427748,0.12789,0.81969
527.732,168.584,0.03265422,0.10301,0.81935
528.232,168.75,0.03333071,0.10302,0.81901
528.732,168.916,0.03559642,0.1196,0.81867
529.232,169.082,0.03248327,0.13669,0.81832
529.732,169.248,0.03205648,0.09473996,0.81798
530.232,169.415,0.03326446,0.1606,0.81764
530.732,169.582,0.03275114,0.12789,0.8173
531.232,169.748,0.03176619,0.12789,0.81695
531.732,169.915,0.03595907,0.12789,0.81661
532.232,170.081,0.03520888,0.12789,0.81626
532.732,170.247,0.03801621,0.12789,0.81592
533.232,170.414,0.03412112,0.13121,0.81557
533.732,170.581,0.03575768,0.13622,0.81523
534.232,170.748,0.03630714,0.12648,0.81488
534.732,170.915,0.03506157,0.12789,0.81453
535.232,171.083,0.03651917,0.12789,0.81419
535.732,171.251,0.03847175,0.13683,0.81384
536.232,171.417,0.03383898,0.1196,0.81349
536.732,171.584,0.03705666,0.14568,0.81315
537.232,171.752,0.03479057,0.16954,0.8128
537.732,171.92,0.03558513,0.1362,0.81245
538.232,172.088,0.03582038,0.17104,0.8121
538.732,172.256,0.03610242,0.12855,0.81175
539.232,172.423,0.03484968,0.10259,0.8114
539.732,172.591,0.03698423,0.14282,0.81105
540.232,172.758,0.03585948,0.11389,0.8107
540.732,172.925,0.03962154,0.13698,0.81035
541.232,173.0933,0.04081675,0.15249,0.81
541.732,173.261,0.03954745,0.15268,0.80965
542.232,173.428,0.04035427,0.13184,0.8093
542.732,173.596,0.03997281,0.12764,0.80895
543.232,173.763,0.04198561,0.12764,0.8086
543.732,173.93,0.04454545,0.11214,0.80824
544.232,174.097,0.03908949,0.14448,0.80789
544.732,174.264,0.04237964,0.10925,0.80754
545.232,174.431,0.03886154,0.11072,0.80718
545.732,174.598,0.03816291,0.0947305,0.80683
546.232,174.765,0.03931926,0.09472593,0.80648
546.732,174.932,0.03716127,0.06154436,0.80612
547.232,175.0982,0.04069119,0.08513959,0.80577
547.732,175.264,0.03904156,0.06155574,0.80541
548.232,175.43,0.04199558,0.06052792,0.80506
548.732,175.595,0.04455874,0.08642902,0.8047
549.232,175.761,0.04284862,0.05331064,0.80435
549.732,175.9273,0.04320351,0.10297,0.80399
550.232,176.094,0.04210155,0.07814098,0.80363
550.732,176.261,0.03921498,0.07813851,0.80328
551.232,176.428,0.04491889,0.07813851,0.80292
551.732,176.595,0.04465384,0.07813851,0.80256
551.932,176.662,0.04327867,0.07813851,0.80242