File: 01_Data/Oak_Flooring/STA/N2/3K_min/Oak_Flooring_STA_N2_3KData_211209_R1.csv
##Temp./Â°C,Time/min,Mass loss(subtr.2)/mg,DSC(subtr.2)/(mW/mg),Sensit./(uV/mW)
50.038,10.01,-0.03893,0.01614162,1.06378
50.738,11.14299,-0.03948964,0.04002088,1.06361
51.438,11.54387,-0.04027386,0.05031184,1.06344
52.138,11.87054,-0.04223395,0.05852321,1.06327
52.838,12.16653,-0.04248114,0.06148154,1.0631
53.538,12.4475,-0.04222007,0.06645852,1.06293
54.238,12.721,-0.04523756,0.06980276,1.06276
54.938,12.9885,-0.04353409,0.07052806,1.06259
55.638,13.2525,-0.04617,0.07325008,1.06242
56.338,13.51326,-0.04909432,0.07621923,1.06225
57.038,13.7712,-0.04771,0.07842885,1.06208
57.738,14.026,-0.04738006,0.07882472,1.06191
58.438,14.2785,-0.04935197,0.08239067,1.06174
59.138,14.5297,-0.04830945,0.08142988,1.06157
59.838,14.77852,-0.04996341,0.08429117,1.0614
60.538,15.0251,-0.05000953,0.08506034,1.06123
61.238,15.2697,-0.05068187,0.08994415,1.06106
61.938,15.5133,-0.05023758,0.08854017,1.06089
62.638,15.7557,-0.05232679,0.08922814,1.06071
63.338,15.99739,-0.05183374,0.08994313,1.06054
64.038,16.2383,-0.05225142,0.09265754,1.06037
64.738,16.47791,-0.05384822,0.09095533,1.0602
65.438,16.7162,-0.05286021,0.09362895,1.06002
66.138,16.95417,-0.05252938,0.09388868,1.05985
66.838,17.19281,-0.05209117,0.09428629,1.05968
67.538,17.4317,-0.05347698,0.09223196,1.0595
68.238,17.66999,-0.05472,0.09430957,1.05933
68.938,17.90812,-0.05571,0.09369119,1.05916
69.638,18.14545,-0.05702755,0.09396315,1.05898
70.338,18.38264,-0.0586714,0.09478496,1.05881
71.038,18.6194,-0.05998979,0.09303067,1.05863
71.738,18.85531,-0.05999,0.09264432,1.05846
72.438,19.0919,-0.06129074,0.09141327,1.05828
73.138,19.32881,-0.06359264,0.09293542,1.05811
73.838,19.56595,-0.06427014,0.0917764,1.05793
74.538,19.80288,-0.06420187,0.09199245,1.05776
75.238,20.0384,-0.0650642,0.09340069,1.05758
75.938,20.2734,-0.06424537,0.09185913,1.0574
76.638,20.50852,-0.06591053,0.09191026,1.05723
77.338,20.74384,-0.06601936,0.09153229,1.05705
78.038,20.97883,-0.06602702,0.09192387,1.05687
78.738,21.21319,-0.0673399,0.09171774,1.05669
79.438,21.44728,-0.0673383,0.09137322,1.05652
80.138,21.68146,-0.06733897,0.08988846,1.05634
80.838,21.91604,-0.06965703,0.08724726,1.05616
81.538,22.15046,-0.06964,0.08375817,1.05598
82.238,22.38545,-0.06931114,0.08358414,1.0558
82.938,22.61968,-0.0703,0.08488633,1.05562
83.638,22.85377,-0.0707542,0.08378879,1.05544
84.338,23.0873,-0.07117965,0.08056799,1.05527
85.038,23.32206,-0.07189643,0.08027746,1.05509
85.738,23.55725,-0.07304004,0.08115161,1.05491
86.438,23.79278,-0.0727109,0.07992348,1.05472
87.138,24.0272,-0.07272,0.08090245,1.05454
87.838,24.2614,-0.07272008,0.08081951,1.05436
88.538,24.49559,-0.07403,0.08148379,1.05418
89.238,24.7295,-0.07403,0.08355619,1.054
89.938,24.9637,-0.07402838,0.08265531,1.05382
90.638,25.19806,-0.07436201,0.082039,1.05364
91.338,25.43263,-0.07483136,0.08345595,1.05345
92.038,25.6665,-0.07466564,0.08168914,1.05327
92.738,25.89979,-0.07534,0.08098274,1.05309
93.438,26.13244,-0.07534024,0.08113566,1.05291
94.138,26.3651,-0.07533577,0.08066459,1.05272
94.838,26.5973,-0.07448704,0.08041344,1.05254
95.538,26.82968,-0.07524067,0.08407486,1.05235
96.238,27.06162,-0.07503442,0.08128904,1.05217
96.938,27.29328,-0.07621559,0.07948161,1.05199
97.638,27.5253,-0.07622261,0.07699223,1.0518
98.338,27.75783,-0.07747928,0.0807102,1.05162
99.038,27.99085,-0.07753985,0.07793309,1.05143
99.738,28.2237,-0.07754001,0.07873411,1.05124
100.438,28.4568,-0.07720342,0.07672693,1.05106
101.138,28.689,-0.0788131,0.07824529,1.05087
101.838,28.9214,-0.07886,0.0786376,1.05068
102.538,29.15342,-0.07983341,0.07905672,1.0505
103.238,29.3864,-0.07886006,0.0759876,1.05031
103.938,29.61915,-0.07919,0.07762579,1.05012
104.638,29.85152,-0.07985875,0.07913255,1.04993
105.338,30.0828,-0.07952077,0.07893037,1.04975
106.038,30.3134,-0.08116,0.07892888,1.04956
106.738,30.54435,-0.07984,0.07746902,1.04937
107.438,30.7758,-0.07951457,0.07873042,1.04918
108.138,31.0084,-0.07984656,0.07643463,1.04899
108.838,31.2415,-0.0805,0.077289,1.0488
109.538,31.47444,-0.08118649,0.07686672,1.04861
110.238,31.70652,-0.081159,0.07914222,1.04842
110.938,31.93855,-0.08115764,0.07952008,1.04823
111.638,32.17112,-0.08115909,0.07816806,1.04804
112.338,32.4027,-0.08039538,0.07881727,1.04785
113.038,32.63439,-0.08018012,0.07882358,1.04765
113.738,32.8657,-0.0815,0.08048246,1.04746
114.438,33.09783,-0.08017988,0.07909513,1.04727
115.138,33.3288,-0.08149664,0.07955733,1.04708
115.838,33.5595,-0.08186084,0.07996075,1.04688
116.538,33.7902,-0.08150394,0.08051719,1.04669
117.238,34.02127,-0.08220722,0.0816342,1.0465
117.938,34.25253,-0.08182,0.08062178,1.0463
118.638,34.48406,-0.08085843,0.08038558,1.04611
119.338,34.71577,-0.08115851,0.08280742,1.04591
120.038,34.9473,-0.08018,0.08253609,1.04572
120.738,35.17837,-0.08022942,0.0837013,1.04552
121.438,35.4095,-0.07919384,0.08148825,1.04533
122.138,35.6415,-0.0791901,0.08046563,1.04513
122.838,35.87338,-0.07976141,0.07934635,1.04493
123.538,36.1051,-0.07918,0.0815728,1.04474
124.238,36.33593,-0.07950833,0.0825156,1.04454
124.938,36.56617,-0.07786956,0.08199573,1.04434
125.638,36.7966,-0.07919025,0.08330259,1.04414
126.338,37.0274,-0.07919,0.08389281,1.04395
127.038,37.25895,-0.07919539,0.08359541,1.04375
127.738,37.4906,-0.08051367,0.08494837,1.04355
128.438,37.72231,-0.07885754,0.08586507,1.04335
129.138,37.9539,-0.08115816,0.08395499,1.04315
129.838,38.18521,-0.08116,0.08502348,1.04295
130.538,38.41598,-0.07984665,0.08731552,1.04275
131.238,38.64723,-0.08116,0.08835992,1.04255
131.938,38.8769,-0.08003363,0.08756455,1.04235
132.638,39.1077,-0.0837898,0.08599749,1.04214
133.338,39.33741,-0.08116986,0.08589488,1.04194
134.038,39.56839,-0.08379006,0.08663142,1.04174
134.738,39.79793,-0.08312979,0.08719781,1.04154
135.438,40.02816,-0.08447169,0.08761077,1.04133
136.138,40.25823,-0.08364325,0.08601453,1.04113
136.838,40.48875,-0.08324016,0.08574687,1.04093
137.538,40.71857,-0.08455119,0.08678512,1.04072
138.238,40.94923,-0.08456092,0.08830115,1.04052
138.938,41.18015,-0.08554968,0.08513022,1.04031
139.638,41.41209,-0.08423959,0.08788382,1.04011
140.338,41.64358,-0.08423,0.08697478,1.0399
141.038,41.8751,-0.08423,0.08568258,1.0397
141.738,42.10611,-0.08426862,0.0830352,1.03949
142.438,42.3374,-0.08555627,0.08693015,1.03928
143.138,42.56837,-0.08421829,0.08773975,1.03907
143.838,42.79936,-0.08455978,0.0889325,1.03887
144.538,43.02962,-0.08390004,0.09075675,1.03866
145.238,43.25853,-0.08524687,0.08947671,1.03845
145.938,43.4878,-0.08522,0.09068704,1.03824
146.638,43.7173,-0.08522,0.0912285,1.03803
147.338,43.9478,-0.0839069,0.08857789,1.03782
148.038,44.17753,-0.08522002,0.086582,1.03761
148.738,44.4071,-0.08591083,0.08905799,1.0374
149.438,44.636,-0.08457701,0.08805052,1.03719
150.138,44.86538,-0.08447445,0.08875183,1.03698
150.838,45.0944,-0.08455977,0.08824149,1.03677
151.538,45.32343,-0.08357136,0.09014471,1.03655
152.238,45.55187,-0.08357514,0.08915907,1.03634
152.938,45.78071,-0.08356948,0.09140803,1.03613
153.638,46.0099,-0.08290018,0.09021929,1.03592
154.338,46.2389,-0.08291052,0.09013806,1.0357
155.038,46.46776,-0.08258678,0.09080533,1.03549
155.738,46.69658,-0.08259,0.0910484,1.03527
156.438,46.92559,-0.08259,0.09205164,1.03506
157.138,47.1539,-0.0825904,0.0913931,1.03484
157.838,47.3822,-0.0814529,0.09169828,1.03463
158.538,47.6113,-0.08226,0.0927392,1.03441
159.238,47.84086,-0.08120283,0.08874152,1.03419
159.938,48.07034,-0.08093968,0.09113823,1.03398
160.638,48.29963,-0.08226,0.09087698,1.03376
161.338,48.52878,-0.08130188,0.09077367,1.03354
162.038,48.75885,-0.08226004,0.09078672,1.03332
162.738,48.98764,-0.08227658,0.09288119,1.0331
163.438,49.21737,-0.08291,0.09309477,1.03288
164.138,49.44699,-0.08325003,0.09427223,1.03266
164.838,49.6772,-0.0839,0.09579775,1.03244
165.538,49.90593,-0.08410196,0.09783695,1.03222
166.238,50.13429,-0.08389999,0.09904596,1.032
166.938,50.36275,-0.08380893,0.09860492,1.03178
167.638,50.59215,-0.08389416,0.0971803,1.03156
168.338,50.8214,-0.08521363,0.09811754,1.03133
169.038,51.0512,-0.08527384,0.09259286,1.03111
169.738,51.281,-0.0839005,0.0970149,1.03089
170.438,51.51073,-0.08525651,0.0967287,1.03066
171.138,51.7403,-0.08293785,0.09636138,1.03044
171.838,51.96955,-0.08503762,0.09646026,1.03021
172.538,52.19894,-0.08434,0.0970607,1.02999
173.238,52.42814,-0.08532063,0.09885448,1.02976
173.938,52.6573,-0.08533,0.09642502,1.02954
174.638,52.8861,-0.08533,0.09816216,1.02931
175.338,53.11464,-0.08662638,0.098144,1.02908
176.038,53.342,-0.08664,0.09839653,1.02885
176.738,53.56938,-0.08795985,0.09802405,1.02863
177.438,53.79667,-0.0879889,0.09844459,1.0284
178.138,54.02494,-0.08928004,0.09984398,1.02817
178.838,54.25365,-0.08994506,0.10043,1.02794
179.538,54.4822,-0.09107305,0.10001,1.02771
180.238,54.7109,-0.08894948,0.10081,1.02748
180.938,54.9389,-0.0915989,0.09911981,1.02725
181.638,55.16666,-0.0906,0.1009,1.02701
182.338,55.3941,-0.09192001,0.10046,1.02678
183.038,55.62209,-0.0906013,0.09962294,1.02655
183.738,55.85089,-0.09190563,0.09770398,1.02632
184.438,56.0801,-0.08927964,0.10078,1.02608
185.138,56.31,-0.09059001,0.10081,1.02585
185.838,56.5401,-0.09058937,0.10102,1.02561
186.538,56.77091,-0.09059,0.10068,1.02538
187.238,57.0012,-0.09156395,0.09978702,1.02514
187.938,57.23101,-0.08895,0.10109,1.02491
188.638,57.46011,-0.0895997,0.10208,1.02467
189.338,57.6889,-0.09058963,0.10342,1.02444
190.038,57.9174,-0.09026,0.10356,1.0242
190.738,58.14535,-0.08944182,0.10528,1.02396
191.438,58.3734,-0.09125,0.10663,1.02372
192.138,58.60162,-0.08993165,0.10522,1.02348
192.838,58.82986,-0.09125,0.10505,1.02324
193.538,59.0587,-0.09125,0.10477,1.023
194.238,59.28742,-0.09223984,0.10568,1.02276
194.938,59.51579,-0.09224,0.10476,1.02252
195.638,59.74365,-0.09183857,0.10341,1.02228
196.338,59.97119,-0.09453886,0.10422,1.02204
197.038,60.2001,-0.09454,0.10387,1.02179
197.738,60.42885,-0.09486898,0.10339,1.02155
198.438,60.65794,-0.09552435,0.10398,1.02131
199.138,60.88587,-0.09683298,0.10453,1.02106
199.838,61.11395,-0.09783997,0.10447,1.02082
200.538,61.3412,-0.09881944,0.10617,1.02057
201.238,61.5687,-0.09915,0.10988,1.02033
201.938,61.79566,-0.09933242,0.10728,1.02008
202.638,62.02336,-0.10276,0.10775,1.01984
203.338,62.2511,-0.10079,0.10747,1.01959
204.038,62.47942,-0.10207,0.10848,1.01934
204.738,62.70856,-0.1031,0.10865,1.01909
205.438,62.93805,-0.1031,0.10664,1.01884
206.138,63.1675,-0.10376,0.10898,1.01859
206.838,63.3964,-0.10507,0.11089,1.01834
207.538,63.62497,-0.10508,0.11339,1.01809
208.238,63.8531,-0.10505,0.11259,1.01784
208.938,64.08111,-0.10639,0.11248,1.01759
209.638,64.30852,-0.1077,0.11264,1.01734
210.338,64.53652,-0.10902,0.11045,1.01709
211.038,64.7647,-0.11041,0.11279,1.01683
211.738,64.99328,-0.11264,0.11186,1.01658
212.438,65.22115,-0.11264,0.11267,1.01632
213.138,65.44806,-0.11331,0.11427,1.01607
213.838,65.6752,-0.11594,0.11428,1.01581
214.538,65.902,-0.11824,0.11357,1.01556
215.238,66.12924,-0.11955,0.11617,1.0153
215.938,66.3565,-0.11972,0.11568,1.01504
216.638,66.5844,-0.12252,0.11665,1.01479
217.338,66.81164,-0.12515,0.11427,1.01453
218.038,67.0393,-0.12646,0.11564,1.01427
218.738,67.26765,-0.12778,0.11666,1.01401
219.438,67.4971,-0.1297,0.1164,1.01375
220.138,67.72636,-0.13205,0.11578,1.01349
220.838,67.95528,-0.1318,0.11732,1.01323
221.538,68.18359,-0.13433,0.11811,1.01297
222.238,68.4113,-0.13633,0.11873,1.0127
222.938,68.63851,-0.13765,0.12117,1.01244
223.638,68.86542,-0.14029,0.12027,1.01218
224.338,69.09268,-0.14291,0.11775,1.01191
225.038,69.31998,-0.14423,0.12055,1.01165
225.738,69.54719,-0.14686,0.12503,1.01138
226.438,69.7743,-0.14822,0.12277,1.01112
227.138,70.00196,-0.15078,0.12191,1.01085
227.838,70.23043,-0.15282,0.12308,1.01059
228.538,70.4593,-0.15673,0.12348,1.01032
229.238,70.68855,-0.15805,0.12168,1.01005
229.938,70.9179,-0.16068,0.12074,1.00978
230.638,71.1472,-0.16225,0.12228,1.00951
231.338,71.37573,-0.16496,0.12411,1.00924
232.038,71.60351,-0.16792,0.12429,1.00897
232.738,71.83114,-0.16999,0.12599,1.0087
233.438,72.0592,-0.17246,0.12502,1.00843
234.138,72.2872,-0.1757,0.12276,1.00816
234.838,72.51514,-0.17911,0.12166,1.00788
235.538,72.74235,-0.18172,0.12356,1.00761
236.238,72.96974,-0.18438,0.12387,1.00734
236.938,73.19752,-0.18767,0.12384,1.00706
237.638,73.42564,-0.19162,0.12231,1.00679
238.338,73.65347,-0.19425,0.12286,1.00651
239.038,73.88167,-0.1993,0.12249,1.00624
239.738,74.10967,-0.20357,0.11751,1.00596
240.438,74.3386,-0.20751,0.11769,1.00568
241.138,74.56703,-0.21018,0.11755,1.0054
241.838,74.79589,-0.21619,0.11753,1.00512
242.538,75.02463,-0.22005,0.11829,1.00484
243.238,75.25282,-0.22473,0.11698,1.00456
243.938,75.48119,-0.23067,0.11707,1.00428
244.638,75.7094,-0.23528,0.11891,1.004
245.338,75.93705,-0.24065,0.11962,1.00372
246.038,76.1647,-0.24584,0.11784,1.00344
246.738,76.3912,-0.24994,0.1179,1.00315
247.438,76.61868,-0.2579,0.11896,1.00287
248.138,76.846,-0.26235,0.118,1.00259
248.838,77.07412,-0.26736,0.11734,1.0023
249.538,77.30215,-0.27507,0.12145,1.00201
250.238,77.5307,-0.28046,0.12012,1.00173
250.938,77.75963,-0.28748,0.12005,1.00144
251.638,77.98904,-0.29328,0.11942,1.00115
252.338,78.21777,-0.30029,0.1142,1.00087
253.038,78.44672,-0.30749,0.11482,1.00058
253.738,78.67455,-0.31585,0.1164,1.00029
254.438,78.90225,-0.32383,0.11706,1.0
255.138,79.12907,-0.32944,0.11807,0.99971
255.838,79.35713,-0.3398,0.11648,0.99941
256.538,79.5855,-0.34838,0.11756,0.99912
257.238,79.815,-0.35656,0.11632,0.99883
257.938,80.04355,-0.36718,0.1137,0.99854
258.638,80.2727,-0.37659,0.11606,0.99824
259.338,80.5005,-0.38542,0.11262,0.99795
260.038,80.7286,-0.39663,0.11605,0.99765
260.738,80.9557,-0.40535,0.114,0.99736
261.438,81.18281,-0.41579,0.11416,0.99706
262.138,81.40965,-0.42567,0.11308,0.99676
262.838,81.63659,-0.43751,0.11337,0.99646
263.538,81.8633,-0.44587,0.11256,0.99617
264.238,82.09,-0.45771,0.11325,0.99587
264.938,82.31653,-0.46857,0.11216,0.99557
265.638,82.5438,-0.47927,0.1135,0.99527
266.338,82.77136,-0.49169,0.11037,0.99496
267.038,82.9998,-0.50597,0.10909,0.99466
267.738,83.22878,-0.51617,0.10798,0.99436
268.438,83.45819,-0.52973,0.10541,0.99406
269.138,83.68745,-0.54264,0.10367,0.99375
269.838,83.91648,-0.55516,0.1028,0.99345
270.538,84.14608,-0.56774,0.10211,0.99314
271.238,84.37553,-0.58041,0.10154,0.99284
271.938,84.60446,-0.59378,0.10293,0.99253
272.638,84.8321,-0.60814,0.09981809,0.99222
273.338,85.06015,-0.62204,0.10287,0.99191
274.038,85.28905,-0.63417,0.10085,0.99161
274.738,85.51804,-0.64766,0.09828742,0.9913
275.438,85.74671,-0.66277,0.09847894,0.99099
276.138,85.97502,-0.67537,0.09684744,0.99068
276.838,86.2043,-0.69012,0.09715627,0.99036
277.538,86.43341,-0.70524,0.09490759,0.99005
278.238,86.66239,-0.72077,0.09760839,0.98974
278.938,86.89039,-0.73359,0.09596273,0.98943
279.638,87.11868,-0.74751,0.09649267,0.98911
280.338,87.34642,-0.76188,0.09409376,0.9888
281.038,87.57441,-0.77799,0.09466528,0.98848
281.738,87.80234,-0.79217,0.09463732,0.98817
282.438,88.03108,-0.80801,0.09366751,0.98785
283.138,88.25961,-0.82391,0.09478447,0.98753
283.838,88.48761,-0.83689,0.09506089,0.98721
284.538,88.715,-0.85373,0.09774735,0.98689
285.238,88.9421,-0.86813,0.09782632,0.98657
285.938,89.1696,-0.88362,0.10008,0.98625
286.638,89.3973,-0.89892,0.09762456,0.98593
287.338,89.62532,-0.91306,0.09836581,0.98561
288.038,89.85407,-0.92866,0.09804575,0.98529
288.738,90.08336,-0.9432,0.10058,0.98496
289.438,90.31375,-0.96009,0.0986627,0.98464
290.138,90.5437,-0.97498,0.10272,0.98432
290.838,90.7731,-0.9897,0.10328,0.98399
291.538,91.0018,-1.00627,0.10333,0.98367
292.238,91.2302,-1.02009,0.10593,0.98334
292.938,91.4584,-1.0365,0.10811,0.98301
293.638,91.6862,-1.05167,0.10804,0.98268
294.338,91.91402,-1.06718,0.10807,0.98235
295.038,92.14224,-1.0819,0.10958,0.98202
295.738,92.37108,-1.09938,0.11059,0.98169
296.438,92.6002,-1.11497,0.11213,0.98136
297.138,92.82939,-1.13069,0.11511,0.98103
297.838,93.05809,-1.14528,0.11344,0.9807
298.538,93.28615,-1.16275,0.11464,0.98037
299.238,93.51455,-1.17821,0.11814,0.98003
299.938,93.74297,-1.19458,0.11832,0.9797
300.638,93.9718,-1.21152,0.12207,0.97936
301.338,94.20008,-1.2298,0.12356,0.97903
302.038,94.428,-1.24791,0.1221,0.97869
302.738,94.65613,-1.26575,0.12667,0.97835
303.438,94.8844,-1.28329,0.12751,0.97801
304.138,95.11377,-1.30025,0.1288,0.97767
304.838,95.3442,-1.32168,0.12921,0.97733
305.538,95.57506,-1.33817,0.12769,0.97699
306.238,95.8048,-1.35776,0.1342,0.97665
306.938,96.0339,-1.37698,0.13662,0.97631
307.638,96.2623,-1.39583,0.1385,0.97597
308.338,96.4906,-1.41599,0.13935,0.97562
309.038,96.71849,-1.4365,0.14199,0.97528
309.738,96.94578,-1.45549,0.14318,0.97493
310.438,97.1738,-1.47609,0.14407,0.97459
311.138,97.40196,-1.49562,0.14867,0.97424
311.838,97.63131,-1.51641,0.1491,0.9739
312.538,97.86012,-1.53813,0.14955,0.97355
313.238,98.08883,-1.56029,0.15401,0.9732
313.938,98.31721,-1.58419,0.1538,0.97285
314.638,98.54558,-1.60693,0.15637,0.9725
315.338,98.77421,-1.63036,0.15597,0.97215
316.038,99.003,-1.65651,0.15771,0.9718
316.738,99.23225,-1.67797,0.16011,0.97144
317.438,99.4612,-1.70378,0.16062,0.97109
318.138,99.69059,-1.72707,0.16355,0.97074
318.838,99.92,-1.75234,0.16408,0.97038
319.538,100.15,-1.77943,0.16434,0.97003
320.238,100.379,-1.80491,0.16301,0.96967
320.938,100.609,-1.82909,0.16592,0.96931
321.638,100.838,-1.85583,0.16699,0.96896
322.338,101.067,-1.88292,0.16841,0.9686
323.038,101.2963,-1.91137,0.16847,0.96824
323.738,101.525,-1.93532,0.17152,0.96788
324.438,101.754,-1.96402,0.17226,0.96752
325.138,101.984,-1.99255,0.17339,0.96716
325.838,102.214,-2.02014,0.16843,0.9668
326.538,102.444,-2.04912,0.16907,0.96643
327.238,102.674,-2.07766,0.16801,0.96607
327.938,102.904,-2.10585,0.1678,0.9657
328.638,103.135,-2.13516,0.16336,0.96534
329.338,103.366,-2.16579,0.16395,0.96497
330.038,103.596,-2.19346,0.16412,0.96461
330.738,103.826,-2.22436,0.16061,0.96424
331.438,104.055,-2.25335,0.16179,0.96387
332.138,104.283,-2.28245,0.1594,0.9635
332.838,104.5113,-2.31108,0.15703,0.96313
333.538,104.738,-2.33875,0.15436,0.96276
334.238,104.966,-2.3668,0.15101,0.96239
334.938,105.1931,-2.39402,0.14522,0.96202
335.638,105.421,-2.42002,0.14047,0.96164
336.338,105.65,-2.44829,0.13516,0.96127
337.038,105.88,-2.47372,0.13098,0.9609
337.738,106.11,-2.49742,0.12637,0.96052
338.438,106.34,-2.52292,0.1165,0.96014
339.138,106.571,-2.54727,0.11201,0.95977
339.838,106.801,-2.56878,0.10468,0.95939
340.538,107.032,-2.59236,0.0962616,0.95901
341.238,107.263,-2.61143,0.08957553,0.95863
341.938,107.493,-2.62997,0.08257191,0.95825
342.638,107.722,-2.6497,0.0732408,0.95787
343.338,107.951,-2.66445,0.06373078,0.95749
344.038,108.179,-2.67988,0.05759062,0.95711
344.738,108.407,-2.69416,0.05056021,0.95672
345.438,108.636,-2.70746,0.04236979,0.95634
346.138,108.866,-2.71886,0.03981098,0.95595
346.838,109.095,-2.73074,0.03182747,0.95557
347.538,109.325,-2.74047,0.02721451,0.95518
348.238,109.554,-2.74807,0.0225457,0.9548
348.938,109.783,-2.75526,0.01683697,0.95441
349.638,110.012,-2.76354,0.01330746,0.95402
350.338,110.242,-2.7702,0.01028183,0.95363
351.038,110.472,-2.77402,0.009488095,0.95324
351.738,110.702,-2.77932,0.006518234,0.95285
352.438,110.932,-2.78196,0.005814265,0.95246
353.138,111.162,-2.78727,0.003544968,0.95206
353.838,111.393,-2.78966,8.388515e-05,0.95167
354.538,111.623,-2.79209,-0.001700246,0.95128
355.238,111.853,-2.79578,-0.00481279,0.95088
355.938,112.082,-2.79874,-0.00438262,0.95048
356.638,112.312,-2.80269,-0.005461512,0.95009
357.338,112.542,-2.8058,-0.007236603,0.94969
358.038,112.7715,-2.80928,-0.01000161,0.94929
358.738,113.001,-2.81454,-0.01028118,0.94889
359.438,113.231,-2.81724,-0.01068985,0.94849
360.138,113.461,-2.82242,-0.0111727,0.94809
360.838,113.691,-2.8256,-0.01159535,0.94769
361.538,113.921,-2.82903,-0.01099634,0.94729
362.238,114.152,-2.83165,-0.01220944,0.94689
362.938,114.383,-2.83487,-0.01265987,0.94648
363.638,114.615,-2.83522,-0.01404751,0.94608
364.338,114.846,-2.83654,-0.01430394,0.94567
365.038,115.077,-2.84054,-0.01539609,0.94526
365.738,115.3078,-2.84185,-0.01679548,0.94486
366.438,115.538,-2.84449,-0.02061898,0.94445
367.138,115.768,-2.84706,-0.02073016,0.94404
367.838,115.998,-2.84909,-0.01639124,0.94363
368.538,116.228,-2.85304,-0.01942183,0.94322
369.238,116.457,-2.85568,-0.02058085,0.94281
369.938,116.686,-2.85929,-0.0212054,0.9424
370.638,116.915,-2.86197,-0.02298492,0.94198
371.338,117.143,-2.86324,-0.02218877,0.94157
372.038,117.373,-2.86587,-0.02523106,0.94116
372.738,117.603,-2.8684,-0.02654653,0.94074
373.438,117.8324,-2.87246,-0.02861914,0.94032
374.138,118.063,-2.8741,-0.02703745,0.93991
374.838,118.295,-2.87673,-0.02790946,0.93949
375.538,118.526,-2.88063,-0.02865978,0.93907
376.238,118.756,-2.8846,-0.0290049,0.93865
376.938,118.987,-2.88594,-0.03120387,0.93823
377.638,119.218,-2.88725,-0.02874902,0.93781
378.338,119.449,-2.89049,-0.03251169,0.93739
379.038,119.679,-2.89188,-0.02679923,0.93697
379.738,119.9091,-2.89384,-0.02830663,0.93654
380.438,120.139,-2.8968,-0.03010027,0.93612
381.138,120.3697,-2.89875,-0.02855967,0.93569
381.838,120.6006,-2.90075,-0.028139,0.93527
382.538,120.8316,-2.90305,-0.03104013,0.93484
383.238,121.062,-2.907,-0.03067128,0.93441
383.938,121.293,-2.90803,-0.03287318,0.93398
384.638,121.524,-2.90832,-0.0315617,0.93355
385.338,121.754,-2.91227,-0.03239893,0.93312
386.038,121.985,-2.91388,-0.03059344,0.93269
386.738,122.215,-2.91655,-0.0319119,0.93226
387.438,122.444,-2.91786,-0.03017718,0.93183
388.138,122.675,-2.9205,-0.0328503,0.93139
388.838,122.905,-2.92181,-0.03108592,0.93096
389.538,123.135,-2.92444,-0.02924438,0.93053
390.238,123.365,-2.92493,-0.03408915,0.93009
390.938,123.596,-2.92838,-0.03617973,0.92965
391.638,123.827,-2.93231,-0.03562964,0.92921
392.338,124.057,-2.93366,-0.03396046,0.92878
393.038,124.288,-2.93497,-0.02861757,0.92834
393.738,124.519,-2.93892,-0.03140418,0.9279
394.438,124.75,-2.94024,-0.02902895,0.92746
395.138,124.982,-2.94287,-0.02761856,0.92701
395.838,125.214,-2.94522,-0.02931594,0.92657
396.538,125.446,-2.94649,-0.02993031,0.92613
397.238,125.676,-2.94775,-0.02812405,0.92568
397.938,125.907,-2.95145,-0.02586634,0.92524
398.638,126.138,-2.95276,-0.02544398,0.92479
399.338,126.37,-2.95506,-0.02874785,0.92435
400.038,126.602,-2.9557,-0.02835122,0.9239
400.738,126.834,-2.95702,-0.02699246,0.92345
401.438,127.066,-2.95768,-0.02547288,0.923
402.138,127.2986,-2.95899,-0.02765235,0.92255
402.838,127.531,-2.96163,-0.02825214,0.9221
403.538,127.764,-2.96294,-0.02690663,0.92165
404.238,127.996,-2.96369,-0.02686113,0.92119
404.938,128.227,-2.96755,-0.02489583,0.92074
405.638,128.459,-2.96887,-0.02789387,0.92029
406.338,128.69,-2.97019,-0.02941623,0.91983
407.038,128.92,-2.97249,-0.02800611,0.91938
407.738,129.15,-2.9738,-0.02776151,0.91892
408.438,129.38,-2.97479,-0.02633962,0.91846
409.138,129.61,-2.97511,-0.02593123,0.918
409.838,129.8402,-2.97842,-0.02637816,0.91754
410.538,130.071,-2.9794,-0.02555426,0.91708
411.238,130.302,-2.98203,-0.0257055,0.91662
411.938,130.533,-2.98335,-0.0285486,0.91616
412.638,130.764,-2.98532,-0.0266067,0.9157
413.338,130.996,-2.98544,-0.02564895,0.91523
414.038,131.227,-2.98927,-0.02641998,0.91477
414.738,131.458,-2.98927,-0.02215769,0.9143
415.438,131.69,-2.9919,-0.02324485,0.91384
416.138,131.922,-2.99322,-0.02195985,0.91337
416.838,132.155,-2.99322,-0.02240174,0.9129
417.538,132.387,-2.99452,-0.02277692,0.91243
418.238,132.619,-2.99815,-0.01906554,0.91196
418.938,132.851,-2.99881,-0.01814365,0.91149
419.638,133.083,-3.00052,-0.01775236,0.91102
420.338,133.315,-3.00121,-0.01406249,0.91055
421.038,133.547,-3.00342,-0.01257863,0.91008
421.738,133.779,-3.00341,-0.01109412,0.9096
422.438,134.011,-3.00539,-0.009627884,0.90913
423.138,134.242,-3.00756,-0.0060332,0.90865
423.838,134.474,-3.00769,-0.00448735,0.90818
424.538,134.705,-3.00868,-0.00762176,0.9077
425.238,134.936,-3.00868,-0.003937126,0.90722
425.938,135.166,-3.00996,-0.003958019,0.90674
426.638,135.397,-3.01,-0.00320601,0.90626
427.338,135.628,-3.01,-0.0005731989,0.90578
428.038,135.86,-3.01263,0.000883813,0.9053
428.738,136.091,-3.01394,0.002123602,0.90482
429.438,136.322,-3.01658,0.002106635,0.90434
430.138,136.554,-3.0179,0.000894372,0.90385
430.838,136.786,-3.01855,0.002916495,0.90337
431.538,137.018,-3.02053,0.00292769,0.90288
432.238,137.25,-3.02185,0.00085379,0.9024
432.938,137.4818,-3.02382,0.001264819,0.90191
433.638,137.714,-3.02514,0.00219848,0.90142
434.338,137.946,-3.02645,0.002905597,0.90093
435.038,138.179,-3.02777,-0.001453633,0.90044
435.738,138.412,-3.02843,0.000721797,0.89995
436.438,138.644,-3.0281,0.0002825419,0.89946
437.138,138.876,-3.02941,0.0003307603,0.89897
437.838,139.107,-3.03072,-8.80658e-05,0.89847
438.538,139.339,-3.03267,-0.0005961421,0.89798
439.238,139.5713,-3.03303,0.001147517,0.89748
439.938,139.804,-3.03435,0.002511572,0.89699
440.638,140.036,-3.036,0.0005509505,0.89649
441.338,140.2683,-3.03832,0.003071175,0.89599
442.038,140.5,-3.03961,0.00177675,0.8955
442.738,140.733,-3.03962,0.003136704,0.895
443.438,140.9656,-3.0406,0.005202199,0.8945
444.138,141.198,-3.04161,0.004997895,0.894
444.838,141.431,-3.04159,0.00565318,0.89349
445.538,141.663,-3.04298,0.004077091,0.89299
446.238,141.896,-3.04323,0.003651717,0.89249
446.938,142.1291,-3.04323,0.00302332,0.89198
447.638,142.361,-3.04357,0.002558377,0.89148
448.338,142.593,-3.04357,0.00191526,0.89097
449.038,142.824,-3.04553,-0.000520243,0.89047
449.738,143.056,-3.04688,-0.002129111,0.88996
450.438,143.287,-3.04784,-0.00128608,0.88945
451.138,143.519,-3.04817,-0.002422751,0.88894
451.838,143.751,-3.04952,-0.00457026,0.88843
452.538,143.983,-3.04888,-0.00761259,0.88792
453.238,144.215,-3.05081,-0.009823771,0.88741
453.938,144.447,-3.05212,-0.01428767,0.88689
454.638,144.68,-3.05212,-0.01539633,0.88638
455.338,144.913,-3.05344,-0.01862718,0.88587
456.038,145.146,-3.05343,-0.02213869,0.88535
456.738,145.379,-3.05387,-0.02065485,0.88484
457.438,145.611,-3.05574,-0.02791993,0.88432
458.138,145.844,-3.05705,-0.0265291,0.8838
458.838,146.0769,-3.05719,-0.02803243,0.88328
459.538,146.31,-3.05837,-0.02978664,0.88276
460.238,146.543,-3.05804,-0.03209899,0.88224
460.938,146.777,-3.05838,-0.03054892,0.88172
461.638,147.011,-3.05936,-0.02889867,0.8812
462.338,147.244,-3.06199,-0.0307999,0.88068
463.038,147.476,-3.06166,-0.03217011,0.88015
463.738,147.709,-3.06361,-0.02985069,0.87963
464.438,147.941,-3.06429,-0.03179643,0.8791
465.138,148.173,-3.06561,-0.02849408,0.87858
465.838,148.405,-3.06753,-0.02853108,0.87805
466.538,148.6384,-3.0689,-0.03146081,0.87752
467.238,148.8713,-3.0702,-0.03087671,0.87699
467.938,149.1039,-3.07054,-0.03083035,0.87646
468.638,149.336,-3.06989,-0.03277621,0.87593
469.338,149.569,-3.06989,-0.03463219,0.8754
470.038,149.802,-3.07055,-0.03547547,0.87487
470.738,150.035,-3.0699,-0.03616575,0.87434
471.438,150.267,-3.06989,-0.03664584,0.8738
472.138,150.499,-3.07121,-0.0369518,0.87327
472.838,150.732,-3.07121,-0.04041811,0.87273
473.538,150.965,-3.07118,-0.04044616,0.8722
474.238,151.199,-3.07351,-0.04467381,0.87166
474.938,151.433,-3.07361,-0.0439306,0.87112
475.638,151.666,-3.07572,-0.04413536,0.87058
476.338,151.899,-3.07647,-0.04802137,0.87004
477.038,152.131,-3.0768,-0.04950298,0.8695
477.738,152.365,-3.07812,-0.04993354,0.86896
478.438,152.599,-3.07943,-0.05123042,0.86842
479.138,152.834,-3.07946,-0.05491235,0.86787
479.838,153.069,-3.08144,-0.05870868,0.86733
480.538,153.304,-3.08141,-0.06075158,0.86679
481.238,153.54,-3.08075,-0.06337964,0.86624
481.938,153.774,-3.08186,-0.06225607,0.86569
482.638,154.0083,-3.08295,-0.06273857,0.86515
483.338,154.241,-3.08447,-0.06390227,0.8646
484.038,154.473,-3.08307,-0.0645475,0.86405
484.738,154.705,-3.08342,-0.06693758,0.8635
485.438,154.937,-3.08447,-0.06565394,0.86295
486.138,155.169,-3.08512,-0.06528653,0.8624
486.838,155.401,-3.08579,-0.06308137,0.86185
487.538,155.634,-3.08579,-0.06448253,0.86129
488.238,155.868,-3.0858,-0.06792201,0.86074
488.938,156.102,-3.08678,-0.06574565,0.86018
489.638,156.3365,-3.08558,-0.06742274,0.85963
490.338,156.5717,-3.08678,-0.07166706,0.85907
491.038,156.807,-3.0881,-0.06984803,0.85851
491.738,157.041,-3.08941,-0.06843147,0.85796
492.438,157.275,-3.08941,-0.07141337,0.8574
493.138,157.509,-3.09073,-0.07044869,0.85684
493.838,157.743,-3.09205,-0.07119953,0.85628
494.538,157.977,-3.09205,-0.07163591,0.85572
495.238,158.211,-3.09332,-0.07319395,0.85515
495.938,158.4443,-3.0913,-0.07351961,0.85459
496.638,158.6785,-3.09435,-0.07520342,0.85403
497.338,158.912,-3.09435,-0.0742806,0.85346
498.038,159.147,-3.09475,-0.07380969,0.8529
498.738,159.381,-3.09533,-0.07340405,0.85233
499.438,159.615,-3.09533,-0.0721467,0.85176
500.138,159.848,-3.09732,-0.07384257,0.8512
500.838,160.08,-3.0983,-0.0715531,0.85063
501.538,160.313,-3.0983,-0.07286781,0.85006
502.238,160.546,-3.09833,-0.07425822,0.84949
502.938,160.7805,-3.09961,-0.07467542,0.84892
503.638,161.015,-3.10093,-0.07460602,0.84834
504.338,161.2487,-3.10093,-0.0770864,0.84777
505.038,161.483,-3.10093,-0.07541136,0.8472
505.738,161.717,-3.10225,-0.0739181,0.84662
506.438,161.951,-3.10225,-0.07759897,0.84605
507.138,162.185,-3.10093,-0.07514914,0.84547
507.838,162.42,-3.10224,-0.07782545,0.84489
508.538,162.655,-3.10484,-0.07662717,0.84432
509.238,162.89,-3.10356,-0.07743786,0.84374
509.938,163.125,-3.10351,-0.07766116,0.84316
510.638,163.358,-3.1049,-0.07688141,0.84258
511.338,163.591,-3.10455,-0.07676878,0.842
512.038,163.824,-3.10522,-0.07928514,0.84142
512.738,164.058,-3.10563,-0.07862232,0.84083
513.438,164.292,-3.10556,-0.0800419,0.84025
514.138,164.527,-3.10688,-0.07632436,0.83967
514.838,164.7621,-3.10751,-0.07695246,0.83908
515.538,164.998,-3.10619,-0.07879329,0.83849
516.238,165.2328,-3.10883,-0.07726288,0.83791
516.938,165.467,-3.10922,-0.07885079,0.83732
517.638,165.701,-3.10881,-0.07741067,0.83673
518.338,165.935,-3.10981,-0.07358834,0.83614
519.038,166.17,-3.11014,-0.07516942,0.83555
519.738,166.4041,-3.11017,-0.07562704,0.83496
520.438,166.638,-3.11245,-0.07490965,0.83437
521.138,166.872,-3.11245,-0.07542832,0.83378
521.838,167.107,-3.11245,-0.0769175,0.83318
522.538,167.341,-3.11219,-0.07549493,0.83259
523.238,167.575,-3.11239,-0.07655779,0.832
523.938,167.808,-3.11475,-0.07682291,0.8314
524.638,168.042,-3.11479,-0.07528396,0.8308
525.338,168.276,-3.11574,-0.07688113,0.83021
526.038,168.512,-3.11606,-0.08039461,0.82961
526.738,168.746,-3.11705,-0.08032459,0.82901
527.438,168.981,-3.11639,-0.0804141,0.82841
528.138,169.215,-3.11902,-0.07756316,0.82781
528.838,169.45,-3.11902,-0.08049081,0.82721
529.538,169.686,-3.11902,-0.08067053,0.82661
530.238,169.922,-3.12032,-0.07912442,0.82601
530.938,170.157,-3.12001,-0.07918493,0.8254
531.638,170.391,-3.12133,-0.07744583,0.8248
532.338,170.625,-3.12265,-0.07693386,0.82419
533.038,170.859,-3.1233,-0.07769227,0.82359
533.738,171.0935,-3.12228,-0.07733576,0.82298
534.438,171.3276,-3.12232,-0.0760621,0.82237
535.138,171.562,-3.12495,-0.0789962,0.82176
535.838,171.797,-3.12402,-0.07764384,0.82116
536.538,172.033,-3.12331,-0.08151565,0.82055
537.238,172.268,-3.12429,-0.07973109,0.81994
537.938,172.504,-3.12428,-0.08050805,0.81932
538.638,172.739,-3.12429,-0.08061239,0.81871
539.338,172.9742,-3.12339,-0.08033913,0.8181
540.038,173.209,-3.12561,-0.07782013,0.81749
540.738,173.443,-3.12594,-0.07901024,0.81687
541.438,173.676,-3.12461,-0.07764647,0.81626
542.138,173.91,-3.12594,-0.08063759,0.81564
542.838,174.142,-3.1258,-0.07991362,0.81502
543.538,174.375,-3.12528,-0.08048636,0.81441
544.238,174.608,-3.1279,-0.08013448,0.81379
544.938,174.843,-3.1276,-0.08288904,0.81317
545.638,175.078,-3.1289,-0.0845275,0.81255
546.338,175.313,-3.12955,-0.08514551,0.81193
547.038,175.547,-3.12956,-0.08412342,0.81131
547.738,175.782,-3.13054,-0.07933807,0.81068
548.438,176.016,-3.13092,-0.08148847,0.81006
549.138,176.251,-3.13087,-0.08152006,0.80944
549.838,176.486,-3.13024,-0.08099652,0.80881
550.538,176.721,-3.13153,-0.08551755,0.80819
551.238,176.955,-3.13187,-0.0811105,0.80756
551.938,177.188,-3.13119,-0.07929124,0.80694
552.638,177.422,-3.13317,-0.08306671,0.80631
553.338,177.657,-3.1339,-0.08517906,0.80568
554.038,177.893,-3.13451,-0.0851036,0.80505
554.738,178.128,-3.13449,-0.08415212,0.80442
555.438,178.365,-3.13482,-0.08239604,0.80379
556.138,178.6,-3.13613,-0.08625777,0.80316
556.838,178.836,-3.13613,-0.08289798,0.80253
557.538,179.071,-3.13712,-0.08190436,0.80189
558.238,179.306,-3.1368,-0.08066231,0.80126
558.938,179.541,-3.13811,-0.07837218,0.80063
559.638,179.7752,-3.13746,-0.0800349,0.79999
560.338,180.009,-3.13877,-0.07983402,0.79936
561.038,180.243,-3.13877,-0.08301808,0.79872
561.738,180.477,-3.13842,-0.08539787,0.79808
562.438,180.712,-3.13844,-0.08445004,0.79744
563.138,180.945,-3.1391,-0.08173402,0.79681
563.838,181.179,-3.13877,-0.08131975,0.79617
564.538,181.412,-3.13844,-0.07908852,0.79553
565.238,181.647,-3.13875,-0.08028744,0.79489
565.938,181.883,-3.13877,-0.07937468,0.79424
566.638,182.119,-3.14008,-0.08027801,0.7936
567.338,182.3563,-3.13976,-0.0839635,0.79296
568.038,182.593,-3.14107,-0.08225073,0.79231
568.738,182.827,-3.14102,-0.07957223,0.79167
569.438,183.061,-3.14239,-0.07948842,0.79102
570.138,183.295,-3.14265,-0.07674229,0.79038
570.838,183.529,-3.14404,-0.07757072,0.78973
571.538,183.762,-3.14568,-0.07933551,0.78908
572.238,183.998,-3.1457,-0.07850304,0.78844
572.938,184.233,-3.14698,-0.08178004,0.78779
573.638,184.47,-3.14568,-0.07953632,0.78714
574.338,184.706,-3.14831,-0.07964899,0.78649
575.038,184.9418,-3.14765,-0.08020196,0.78583
575.738,185.178,-3.14765,-0.07873295,0.78518
576.438,185.414,-3.14902,-0.07957706,0.78453
577.138,185.65,-3.14864,-0.07891815,0.78388
577.838,185.886,-3.1484,-0.07549254,0.78322
578.538,186.121,-3.14963,-0.07989917,0.78257
579.238,186.355,-3.15095,-0.07699161,0.78191
579.938,186.59,-3.14963,-0.07640634,0.78126
580.638,186.825,-3.15141,-0.07918451,0.7806
581.338,187.06,-3.15128,-0.08050618,0.77994
582.038,187.295,-3.15062,-0.07791021,0.77928
582.738,187.53,-3.15062,-0.07739488,0.77862
583.438,187.765,-3.15067,-0.07809345,0.77797
584.138,187.999,-3.15226,-0.07966396,0.7773
584.838,188.234,-3.15324,-0.07737682,0.77664
585.538,188.469,-3.15325,-0.07974414,0.77598
586.238,188.705,-3.15359,-0.07811162,0.77532
586.938,188.942,-3.15458,-0.0759909,0.77466
587.638,189.18,-3.15555,-0.07986784,0.77399
588.338,189.418,-3.15555,-0.08283591,0.77333
589.038,189.655,-3.15415,-0.08161298,0.77266
589.738,189.892,-3.15687,-0.08298706,0.772
590.438,190.127,-3.15588,-0.08427371,0.77133
591.138,190.361,-3.15587,-0.08072963,0.77066
591.838,190.593,-3.1572,-0.07837545,0.76999
592.538,190.825,-3.15888,-0.08177549,0.76933
593.238,191.057,-3.15654,-0.07853026,0.76866
593.938,191.2908,-3.15851,-0.08054628,0.76799
594.638,191.525,-3.15851,-0.07809914,0.76731
595.338,191.761,-3.15917,-0.08075193,0.76664
596.038,191.997,-3.15917,-0.07757312,0.76597
596.738,192.234,-3.16048,-0.08032959,0.7653
597.438,192.4703,-3.15917,-0.0797995,0.76462
598.138,192.706,-3.16016,-0.08063119,0.76395
598.838,192.942,-3.16049,-0.08191875,0.76328
599.538,193.177,-3.1618,-0.08551958,0.7626
600.238,193.413,-3.15951,-0.08103051,0.76192
600.938,193.648,-3.16213,-0.08376457,0.76125
601.638,193.882,-3.16214,-0.08194523,0.76057
602.338,194.117,-3.16333,-0.08060452,0.75989
603.038,194.351,-3.16345,-0.08109578,0.75921
603.738,194.586,-3.16378,-0.08330147,0.75853
604.438,194.822,-3.16247,-0.08689345,0.75785
605.138,195.0576,-3.16243,-0.08625334,0.75717
605.838,195.294,-3.16378,-0.08620388,0.75649
606.538,195.532,-3.16248,-0.08741696,0.75581
607.238,195.769,-3.1638,-0.08482316,0.75512
607.938,196.004,-3.16378,-0.08676243,0.75444
608.638,196.24,-3.16378,-0.08826694,0.75376
609.338,196.476,-3.16444,-0.08679813,0.75307
610.038,196.711,-3.16444,-0.08441337,0.75239
610.738,196.945,-3.16444,-0.08324307,0.7517
611.438,197.179,-3.1651,-0.08514041,0.75101
612.138,197.415,-3.1651,-0.08927923,0.75033
612.838,197.65,-3.16576,-0.09055625,0.74964
613.538,197.885,-3.16576,-0.08548242,0.74895
614.238,198.121,-3.16641,-0.08960214,0.74826
614.938,198.3577,-3.16651,-0.08952539,0.74757
615.638,198.594,-3.16642,-0.09377556,0.74688
616.338,198.83,-3.16872,-0.08787592,0.74619
617.038,199.065,-3.16735,-0.09180686,0.7455
617.738,199.3,-3.16741,-0.09119008,0.7448
618.438,199.536,-3.16641,-0.09300621,0.74411
619.138,199.771,-3.16872,-0.09501975,0.74342
619.838,200.007,-3.16871,-0.09432193,0.74272
620.538,200.243,-3.16883,-0.09165957,0.74203
621.238,200.479,-3.16871,-0.09575024,0.74133
621.938,200.715,-3.16918,-0.09295528,0.74064
622.638,200.95,-3.16805,-0.09595814,0.73994
623.338,201.186,-3.16937,-0.09843774,0.73924
624.038,201.422,-3.16873,-0.09818556,0.73854
624.738,201.657,-3.16938,-0.09553539,0.73784
625.438,201.893,-3.16938,-0.09629528,0.73714
626.138,202.129,-3.16971,-0.10018,0.73644
626.838,202.365,-3.16971,-0.10103,0.73574
627.538,202.6,-3.17034,-0.10374,0.73504
628.238,202.835,-3.17233,-0.1029,0.73434
628.938,203.071,-3.17234,-0.10073,0.73364
629.638,203.308,-3.17235,-0.10369,0.73294
630.338,203.545,-3.17168,-0.10397,0.73223
631.038,203.782,-3.17299,-0.10865,0.73153
631.738,204.019,-3.17366,-0.11067,0.73082
632.438,204.255,-3.17366,-0.11209,0.73012
633.138,204.4903,-3.17366,-0.11154,0.72941
633.838,204.726,-3.17592,-0.11111,0.7287
634.538,204.961,-3.17595,-0.11829,0.728
635.238,205.195,-3.17327,-0.1145,0.72729
635.938,205.43,-3.17497,-0.11345,0.72658
636.638,205.666,-3.17497,-0.11269,0.72587
637.338,205.901,-3.17629,-0.11599,0.72516
638.038,206.138,-3.17497,-0.11656,0.72445
638.738,206.374,-3.17532,-0.11653,0.72374
639.438,206.611,-3.17596,-0.11947,0.72303
640.138,206.848,-3.17569,-0.12043,0.72232
640.838,207.084,-3.17694,-0.12383,0.72161
641.538,207.32,-3.17694,-0.12424,0.72089
642.238,207.557,-3.17826,-0.1221,0.72018
642.938,207.793,-3.17826,-0.12383,0.71947
643.638,208.03,-3.17826,-0.12332,0.71875
644.338,208.268,-3.17826,-0.12432,0.71804
645.038,208.506,-3.17694,-0.12614,0.71732
645.738,208.742,-3.17958,-0.12827,0.7166
646.438,208.977,-3.17859,-0.12926,0.71589
647.138,209.212,-3.17991,-0.12597,0.71517
647.838,209.4477,-3.1799,-0.12527,0.71445
648.538,209.684,-3.18023,-0.12743,0.71373
649.238,209.919,-3.18154,-0.12435,0.71301
649.938,210.154,-3.18287,-0.12415,0.71229
650.638,210.388,-3.18287,-0.12507,0.71157
651.338,210.624,-3.18408,-0.12631,0.71085
652.038,210.86,-3.18418,-0.12397,0.71013
652.738,211.096,-3.18451,-0.12296,0.70941
653.438,211.332,-3.18451,-0.12518,0.70869
654.138,211.568,-3.18583,-0.12388,0.70796
654.838,211.804,-3.18583,-0.12623,0.70724
655.538,212.04,-3.18583,-0.12948,0.70651
656.238,212.277,-3.18712,-0.13101,0.70579
656.938,212.513,-3.18451,-0.12757,0.70506
657.638,212.75,-3.18583,-0.13154,0.70434
658.338,212.987,-3.18715,-0.12946,0.70361
659.038,213.2237,-3.18715,-0.12885,0.70289
659.738,213.461,-3.18813,-0.12853,0.70216
660.438,213.697,-3.18682,-0.13022,0.70143
661.138,213.934,-3.18741,-0.1286,0.7007
661.838,214.171,-3.1887,-0.12744,0.69997
662.538,214.408,-3.18846,-0.12797,0.69924
663.238,214.644,-3.18977,-0.1278,0.69851
663.938,214.879,-3.18977,-0.12796,0.69778
664.638,215.114,-3.18977,-0.1268,0.69705
665.338,215.348,-3.19208,-0.12833,0.69632
666.038,215.582,-3.19173,-0.12803,0.69559
666.738,215.817,-3.19072,-0.12461,0.69486
667.438,216.053,-3.19241,-0.12627,0.69412
668.138,216.288,-3.19372,-0.12709,0.69339
668.838,216.524,-3.1934,-0.13043,0.69266
669.538,216.761,-3.1934,-0.12848,0.69192
670.238,216.999,-3.1934,-0.12886,0.69119
670.938,217.2371,-3.19372,-0.12829,0.69045
671.638,217.475,-3.19504,-0.12699,0.68972
672.338,217.713,-3.19239,-0.12815,0.68898
673.038,217.951,-3.19239,-0.12712,0.68824
673.738,218.188,-3.19472,-0.12298,0.6875
674.438,218.424,-3.19472,-0.1219,0.68677
675.138,218.661,-3.19603,-0.12366,0.68603
675.838,218.898,-3.19503,-0.12702,0.68529
676.538,219.135,-3.19438,-0.1236,0.68455
677.238,219.372,-3.19654,-0.12624,0.68381
677.938,219.609,-3.1961,-0.12669,0.68307
678.638,219.845,-3.19701,-0.12568,0.68233
679.338,220.08,-3.19701,-0.12545,0.68159
680.038,220.316,-3.19701,-0.12305,0.68085
680.738,220.5517,-3.19965,-0.12398,0.6801
681.438,220.788,-3.19851,-0.12711,0.67936
682.138,221.025,-3.19965,-0.12372,0.67862
682.838,221.262,-3.19965,-0.12398,0.67787
683.538,221.498,-3.20031,-0.12298,0.67713
684.238,221.734,-3.2003,-0.12215,0.67639
684.938,221.97,-3.2003,-0.11918,0.67564
685.638,222.204,-3.2003,-0.12185,0.6749
686.338,222.439,-3.2003,-0.11797,0.67415
687.038,222.675,-3.20029,-0.12053,0.6734
687.738,222.912,-3.20129,-0.1162,0.67266
688.438,223.149,-3.20063,-0.12045,0.67191
689.138,223.386,-3.20326,-0.12058,0.67116
689.838,223.624,-3.20198,-0.124,0.67041
690.538,223.86,-3.20426,-0.11826,0.66967
691.238,224.097,-3.20426,-0.11847,0.66892
691.938,224.333,-3.20426,-0.11451,0.66817
692.638,224.569,-3.20459,-0.11571,0.66742
693.338,224.805,-3.20492,-0.10986,0.66667
694.038,225.042,-3.20597,-0.10895,0.66592
694.738,225.279,-3.20491,-0.10905,0.66517
695.438,225.517,-3.20458,-0.10597,0.66441
696.138,225.755,-3.20515,-0.10708,0.66366
696.838,225.993,-3.2055,-0.10776,0.66291
697.538,226.23,-3.20491,-0.11053,0.66216
698.238,226.468,-3.2059,-0.10759,0.6614
698.938,226.704,-3.20458,-0.10562,0.66065
699.638,226.94,-3.20557,-0.105,0.6599
700.338,227.176,-3.20524,-0.10493,0.65914
701.038,227.412,-3.20689,-0.10312,0.65839
701.738,227.6485,-3.20458,-0.10512,0.65763
702.438,227.885,-3.20695,-0.10388,0.65688
703.138,228.121,-3.2059,-0.10019,0.65612
703.838,228.358,-3.20821,-0.10039,0.65536
704.538,228.5941,-3.20821,-0.09631301,0.65461
705.238,228.831,-3.20827,-0.09689561,0.65385
705.938,229.068,-3.20952,-0.09999405,0.65309
706.638,229.305,-3.20985,-0.09311693,0.65233
707.338,229.54,-3.20985,-0.09464022,0.65158
708.038,229.775,-3.21117,-0.09306685,0.65082
708.738,230.01,-3.21117,-0.0903648,0.65006
709.438,230.246,-3.20985,-0.09318951,0.6493
710.138,230.482,-3.21253,-0.09182013,0.64854
710.838,230.719,-3.21018,-0.0904466,0.64778
711.538,230.956,-3.21148,-0.08733469,0.64702
712.238,231.193,-3.21148,-0.0921422,0.64626
712.938,231.431,-3.2105,-0.08743541,0.64549
713.638,231.669,-3.21185,-0.08510569,0.64473
714.338,231.907,-3.21215,-0.08698086,0.64397
715.038,232.144,-3.21315,-0.08626089,0.64321
715.738,232.381,-3.21281,-0.08640987,0.64245
716.438,232.619,-3.21281,-0.08595787,0.64168
717.138,232.8564,-3.21413,-0.08866733,0.64092
717.838,233.095,-3.21413,-0.08923939,0.64015
718.538,233.3342,-3.2151,-0.08478474,0.63939
719.238,233.572,-3.21744,-0.08425644,0.63863
719.938,233.8093,-3.21676,-0.08389192,0.63786
720.638,234.046,-3.21775,-0.08051713,0.6371
721.338,234.282,-3.21775,-0.08194507,0.63633
722.038,234.519,-3.21643,-0.07619095,0.63556
722.738,234.754,-3.21676,-0.08248251,0.6348
723.438,234.99,-3.21676,-0.08197752,0.63403
724.138,235.226,-3.21676,-0.07920778,0.63326
724.838,235.462,-3.21675,-0.07707157,0.6325
725.538,235.698,-3.21807,-0.07466212,0.63173
726.238,235.9339,-3.2171,-0.07535127,0.63096
726.938,236.17,-3.21676,-0.08142961,0.63019
727.638,236.407,-3.21742,-0.07990547,0.62942
728.338,236.644,-3.2161,-0.07945149,0.62865
729.038,236.8807,-3.21742,-0.07911909,0.62789
729.738,237.12,-3.21676,-0.07654831,0.62712
730.438,237.359,-3.21742,-0.07788709,0.62635
731.138,237.598,-3.21807,-0.07632295,0.62558
731.838,237.835,-3.21807,-0.03208761,0.62481
732.538,238.072,-3.21873,-0.02985519,0.62403
733.238,238.309,-3.21807,-0.0539809,0.62326
733.938,238.546,-3.21906,-0.06158859,0.62249
734.638,238.783,-3.22038,-0.06612609,0.62172
735.338,239.02,-3.21939,-0.07131017,0.62095
736.038,239.258,-3.22071,-0.070738,0.62018
736.738,239.496,-3.22137,-0.07089979,0.6194
737.438,239.734,-3.22008,-0.07324557,0.61863
738.138,239.972,-3.22038,-0.07229907,0.61786
738.838,240.21,-3.22071,-0.07685557,0.61708
739.538,240.447,-3.22202,-0.07811599,0.61631
740.238,240.683,-3.22169,-0.07192146,0.61554
740.938,240.919,-3.22103,-0.07491317,0.61476
741.638,241.155,-3.21972,-0.07763113,0.61399
742.338,241.392,-3.22104,-0.08127143,0.61321
743.038,241.629,-3.22101,-0.08310661,0.61244
743.738,241.867,-3.22005,-0.08135587,0.61166
744.438,242.105,-3.22005,-0.08143242,0.61088
745.138,242.3429,-3.22136,-0.0774026,0.61011
745.838,242.58,-3.22104,-0.07749667,0.60933
746.538,242.817,-3.22071,-0.07881106,0.60856
747.238,243.055,-3.22202,-0.07967453,0.60778
747.938,243.293,-3.22136,-0.07838449,0.607
748.038,243.327,-3.22136,-0.08121385,0.60689