File: 01_Data/PVC_R06/MCC/PVC_R06_MCC_30K_min_211014_R2.txt
Sample ID:	C:\MCC\MCC Cal\Test\PVC_R06_MCC_30K_min_211014_R2.txt
Sample Weight (mg):	4.39
Heating Rate (C/s):	0.5
Combustor Temp (C):	900
N2 Flow Rate (cc/min):	80
O2 Flow Rate (cc/min):	20
Calibration File:	C:\MCC\MCC Cal\Coeff1 JN10440_30_210304.txt.txt
T Correction Coefficients:	0	1.024463	0
Time Shift (s):	14
*
Time (s)	Temperature (C)	N2 flow rate (cc/min)	O2 flow rate (cc/min)	Flow Rate (cc/min)	Oxygen (%)	HRR (W/g)	Heating rate (C/s)
0.000	107.791	79.991	19.994	102.707	20.421	-0.095	-0.032
2.000	107.754	79.992	19.997	102.711	20.419	0.040	0.009
4.000	107.801	79.993	19.995	102.708	20.418	0.093	0.028
6.000	107.754	79.994	19.993	102.707	20.419	0.026	-0.032
8.000	107.773	79.993	19.996	102.713	20.418	0.120	0.018
10.000	107.756	79.992	19.998	102.713	20.418	0.103	-0.001
12.000	107.745	79.992	19.997	102.721	20.418	0.095	-0.001
14.000	107.735	79.988	19.998	102.749	20.411	0.598	-0.025
16.000	107.754	79.994	19.996	102.778	20.408	0.855	0.019
18.000	107.802	79.993	19.994	102.818	20.404	1.119	0.015
20.000	107.870	79.992	19.995	102.812	20.402	1.247	0.038
22.000	107.927	79.991	19.997	102.835	20.394	1.833	0.056
24.000	108.039	79.991	19.995	102.842	20.394	1.855	0.065
26.000	108.202	79.990	20.000	102.869	20.390	2.171	0.059
28.000	108.308	79.992	19.997	102.868	20.393	1.912	0.059
30.000	108.533	79.994	19.992	102.893	20.387	2.332	0.106
32.000	108.697	79.994	19.987	102.907	20.384	2.553	0.093
34.000	108.995	79.988	19.995	102.910	20.381	2.802	0.116
36.000	109.280	79.991	19.997	102.914	20.377	3.105	0.153
38.000	109.556	79.988	19.998	102.912	20.379	2.975	0.123
40.000	109.915	79.988	19.997	102.911	20.377	3.075	0.172
42.000	110.298	79.990	19.994	102.915	20.376	3.148	0.190
44.000	110.659	79.990	19.994	102.915	20.373	3.369	0.196
46.000	111.054	79.989	19.994	102.932	20.374	3.314	0.159
48.001	111.492	79.991	19.995	102.943	20.373	3.371	0.207
50.000	111.947	79.990	19.995	102.945	20.371	3.509	0.241
52.000	112.407	79.993	20.000	102.948	20.371	3.525	0.252
54.000	112.936	79.993	19.993	102.949	20.372	3.477	0.264
56.000	113.457	79.993	19.994	102.953	20.368	3.762	0.270
58.000	113.991	79.998	19.989	102.952	20.369	3.685	0.272
60.000	114.590	79.994	19.987	102.963	20.367	3.844	0.301
62.001	115.204	79.993	19.994	102.951	20.368	3.767	0.343
64.000	115.783	79.990	19.995	102.951	20.368	3.728	0.296
66.000	116.411	79.991	19.996	102.951	20.370	3.605	0.324
68.000	117.058	79.994	19.995	102.950	20.368	3.747	0.340
70.000	117.701	79.986	19.999	102.953	20.366	3.864	0.329
72.000	118.372	79.991	19.996	102.959	20.365	4.009	0.326
74.000	119.049	79.992	19.995	102.959	20.366	3.903	0.324
76.001	119.758	79.990	19.996	102.951	20.367	3.795	0.359
78.001	120.487	79.989	20.003	102.964	20.363	4.116	0.380
80.000	121.240	79.990	20.003	102.962	20.364	4.020	0.354
82.000	121.998	79.992	19.995	102.960	20.366	3.933	0.396
84.000	122.752	79.993	19.994	102.965	20.366	3.874	0.410
86.000	123.532	79.993	19.995	102.962	20.365	3.945	0.375
88.000	124.293	79.991	19.998	102.960	20.365	3.992	0.375
90.000	125.127	79.991	19.996	102.955	20.365	3.976	0.433
92.000	125.884	79.993	19.996	102.956	20.364	4.022	0.390
94.000	126.669	79.992	19.997	102.960	20.365	3.968	0.402
96.001	127.529	79.991	19.995	102.957	20.364	4.029	0.450
98.000	128.368	79.994	19.997	102.971	20.365	3.953	0.449
100.000	129.218	79.991	19.997	102.965	20.364	4.063	0.448
102.000	130.066	79.993	19.996	102.959	20.367	3.840	0.423
104.000	130.947	79.996	19.995	102.954	20.367	3.842	0.444
106.000	131.802	79.996	19.996	102.970	20.365	3.994	0.462
108.000	132.669	79.993	19.997	102.955	20.362	4.219	0.432
110.000	133.582	79.995	19.997	102.958	20.364	4.061	0.468
112.001	134.459	79.994	19.997	102.955	20.357	4.550	0.452
114.000	135.376	79.993	19.993	102.958	20.362	4.166	0.460
116.000	136.260	79.994	19.995	102.961	20.362	4.205	0.436
118.000	137.177	79.991	19.995	102.954	20.362	4.176	0.442
120.000	138.101	79.994	19.995	102.952	20.364	4.045	0.463
122.000	139.013	79.992	19.994	102.961	20.364	4.032	0.463
124.000	139.940	79.992	19.996	102.960	20.364	4.020	0.461
126.000	140.868	79.991	19.996	102.949	20.367	3.813	0.501
128.000	141.806	79.991	19.995	102.951	20.363	4.091	0.460
130.000	142.745	79.992	19.995	102.954	20.362	4.207	0.474
132.000	143.692	79.992	19.995	102.952	20.365	4.002	0.472
134.000	144.660	79.987	19.994	102.953	20.363	4.095	0.485
136.000	145.639	79.992	19.995	102.955	20.366	3.864	0.475
138.000	146.633	79.991	19.995	102.951	20.364	4.018	0.530
140.000	147.564	79.992	19.995	102.952	20.362	4.205	0.485
142.000	148.547	79.993	19.996	102.953	20.365	4.010	0.483
144.000	149.468	79.992	19.995	102.954	20.367	3.805	0.475
146.000	150.453	79.991	19.995	102.952	20.365	3.957	0.453
148.000	151.366	79.990	19.995	102.955	20.365	3.947	0.452
150.000	152.409	79.992	19.995	102.956	20.364	4.014	0.479
152.000	153.337	79.991	19.996	102.956	20.366	3.868	0.488
154.000	154.298	79.992	19.996	102.951	20.366	3.921	0.469
156.000	155.319	79.993	19.996	102.948	20.365	3.965	0.507
158.000	156.317	79.992	19.997	102.949	20.363	4.101	0.517
160.000	157.260	79.993	19.996	102.946	20.365	3.987	0.471
162.000	158.263	79.994	19.995	102.943	20.362	4.190	0.509
164.000	159.212	79.994	19.997	102.947	20.365	3.957	0.482
166.000	160.213	79.993	19.997	102.947	20.364	4.016	0.504
168.000	161.162	79.996	19.996	102.944	20.360	4.371	0.458
170.000	162.144	79.994	19.996	102.940	20.365	3.945	0.472
172.000	163.119	79.992	19.996	102.936	20.362	4.192	0.502
174.000	164.102	79.994	19.997	102.943	20.360	4.310	0.498
176.000	165.081	79.993	19.996	102.944	20.363	4.121	0.471
178.000	166.097	79.995	19.996	102.942	20.364	4.075	0.505
180.000	167.081	79.992	19.997	102.936	20.366	3.930	0.487
182.000	168.057	79.995	19.996	102.937	20.362	4.196	0.495
184.000	169.062	79.995	19.995	102.941	20.361	4.300	0.502
186.000	169.988	79.995	19.995	102.943	20.361	4.242	0.483
188.000	170.987	79.994	19.996	102.945	20.361	4.285	0.479
190.000	171.974	79.995	19.995	102.940	20.360	4.324	0.502
192.000	172.931	79.993	19.996	102.927	20.359	4.387	0.493
194.000	173.896	79.993	19.996	102.940	20.361	4.255	0.499
196.000	174.860	79.992	19.995	102.938	20.358	4.506	0.450
198.000	175.824	79.990	19.996	102.926	20.360	4.342	0.473
200.000	176.827	79.991	19.996	102.933	20.360	4.319	0.498
202.000	177.795	79.991	19.996	102.947	20.357	4.530	0.502
204.000	178.779	79.992	19.995	102.933	20.355	4.719	0.484
206.000	179.740	79.992	19.995	102.927	20.355	4.716	0.433
208.000	180.743	79.992	19.996	102.919	20.356	4.665	0.508
210.000	181.761	79.990	19.994	102.934	20.356	4.623	0.511
212.000	182.799	79.992	19.996	102.916	20.360	4.351	0.525
214.000	183.777	79.991	19.996	102.919	20.359	4.377	0.515
216.000	184.749	79.993	19.995	102.925	20.361	4.262	0.492
218.000	185.823	79.991	19.995	102.912	20.362	4.227	0.506
220.000	186.775	79.992	19.996	102.910	20.361	4.260	0.506
222.000	187.826	79.992	19.996	102.914	20.361	4.229	0.546
224.000	188.796	79.993	19.996	102.906	20.362	4.211	0.506
226.000	189.799	79.992	19.995	102.908	20.360	4.361	0.504
228.000	190.766	79.993	19.995	102.910	20.360	4.365	0.508
230.000	191.788	79.993	19.995	102.910	20.360	4.373	0.516
232.000	192.741	79.992	19.996	102.913	20.358	4.515	0.476
234.000	193.726	79.994	19.996	102.913	20.359	4.428	0.464
236.000	194.760	79.992	19.996	102.910	20.356	4.594	0.516
238.000	195.744	79.994	19.996	102.910	20.357	4.541	0.503
240.000	196.703	79.993	19.996	102.909	20.361	4.288	0.475
242.000	197.681	79.994	19.995	102.912	20.358	4.464	0.470
244.000	198.683	79.992	19.996	102.909	20.360	4.359	0.490
246.000	199.646	79.994	19.994	102.909	20.364	4.049	0.489
248.000	200.654	79.992	19.995	102.905	20.359	4.393	0.504
250.000	201.599	79.993	19.996	102.905	20.358	4.515	0.468
252.000	202.654	79.992	19.996	102.909	20.359	4.407	0.517
254.000	203.636	79.994	19.996	102.907	20.360	4.365	0.494
256.000	204.577	79.993	19.995	102.910	20.360	4.359	0.469
258.000	205.567	79.993	19.995	102.901	20.358	4.468	0.482
260.000	206.582	79.992	19.996	102.904	20.358	4.468	0.494
262.000	207.524	79.992	19.996	102.902	20.359	4.436	0.459
264.000	208.556	79.993	19.995	102.898	20.361	4.292	0.492
266.000	209.509	79.995	19.995	102.896	20.361	4.280	0.466
268.000	210.486	79.994	19.995	102.898	20.362	4.195	0.452
270.000	211.506	79.995	19.995	102.903	20.362	4.187	0.479
272.000	212.467	79.995	19.995	102.909	20.362	4.174	0.491
274.000	213.459	79.992	19.995	102.908	20.361	4.276	0.512
276.000	214.424	79.993	19.995	102.909	20.361	4.251	0.480
278.000	215.409	79.992	19.996	102.909	20.362	4.225	0.467
280.000	216.393	79.992	19.997	102.910	20.362	4.165	0.499
282.000	217.363	79.991	19.996	102.914	20.361	4.292	0.491
284.000	218.340	79.992	19.997	102.898	20.361	4.235	0.491
286.000	219.302	79.991	19.996	102.899	20.359	4.405	0.485
288.000	220.296	79.991	19.997	102.899	20.357	4.569	0.479
290.000	221.246	79.993	19.996	102.883	20.359	4.399	0.468
292.000	222.229	79.992	19.996	102.893	20.359	4.381	0.459
294.000	223.217	79.992	19.995	102.895	20.360	4.346	0.471
296.000	224.192	79.992	19.996	102.903	20.357	4.564	0.484
298.000	225.170	79.994	19.994	102.901	20.358	4.462	0.475
300.000	226.156	79.993	19.995	102.892	20.356	4.628	0.499
302.000	227.117	79.992	19.994	102.907	20.356	4.656	0.493
304.000	228.095	79.993	19.995	102.900	20.352	4.888	0.505
306.000	229.103	79.991	19.995	102.901	20.353	4.848	0.517
308.000	230.084	79.992	19.996	102.897	20.352	4.931	0.486
310.000	231.043	79.991	19.997	102.884	20.354	4.751	0.466
312.000	231.980	79.992	19.995	102.900	20.352	4.931	0.462
314.000	232.956	79.991	19.995	102.890	20.350	5.053	0.497
316.000	233.944	79.992	19.996	102.907	20.349	5.122	0.469
318.000	234.912	79.991	19.995	102.912	20.347	5.314	0.503
320.000	235.880	79.992	19.996	102.913	20.345	5.458	0.458
322.000	236.869	79.994	19.995	102.912	20.344	5.523	0.482
324.000	237.874	79.993	19.994	102.911	20.341	5.725	0.494
326.000	238.896	79.994	19.994	102.912	20.343	5.576	0.466
328.000	239.927	79.993	19.994	102.912	20.340	5.823	0.531
330.000	240.915	79.994	19.995	102.911	20.335	6.204	0.505
332.000	241.919	79.994	19.994	102.914	20.335	6.189	0.507
334.000	242.974	79.993	19.995	102.921	20.328	6.706	0.534
336.000	244.016	79.992	19.994	102.940	20.325	6.873	0.506
338.000	245.022	79.993	19.995	102.949	20.322	7.149	0.491
340.000	246.050	79.994	19.995	102.935	20.315	7.625	0.481
342.000	247.085	79.994	19.996	102.932	20.310	8.006	0.526
344.000	248.117	79.993	19.995	102.926	20.299	8.821	0.528
346.000	249.204	79.993	19.995	102.916	20.293	9.267	0.533
348.000	250.258	79.993	19.995	102.910	20.288	9.635	0.524
350.000	251.321	79.993	19.996	102.909	20.278	10.316	0.536
352.000	252.371	79.994	19.995	102.907	20.276	10.506	0.512
354.000	253.426	79.993	19.995	102.907	20.269	11.001	0.552
356.000	254.457	79.992	19.995	102.908	20.260	11.654	0.533
358.000	255.511	79.993	19.995	102.909	20.257	11.880	0.520
360.000	256.593	79.993	19.995	102.909	20.253	12.161	0.538
362.000	257.639	79.992	19.995	102.911	20.249	12.447	0.507
364.000	258.679	79.992	19.996	102.908	20.244	12.786	0.523
366.000	259.778	79.991	19.995	102.908	20.238	13.255	0.544
368.000	260.806	79.992	19.996	102.908	20.235	13.505	0.494
370.000	261.843	79.992	19.996	102.913	20.233	13.594	0.516
372.000	262.844	79.992	19.995	102.904	20.234	13.561	0.509
374.000	263.938	79.992	19.997	102.899	20.236	13.425	0.521
376.000	264.980	79.991	19.997	102.906	20.234	13.582	0.485
378.000	266.058	79.991	19.998	102.905	20.236	13.436	0.517
380.000	267.045	79.992	19.997	102.907	20.237	13.314	0.525
382.000	268.118	79.991	19.996	102.903	20.236	13.410	0.494
384.000	269.148	79.991	19.996	102.902	20.239	13.199	0.549
386.000	270.217	79.991	19.995	102.907	20.245	12.778	0.539
388.000	271.249	79.993	19.995	102.908	20.244	12.816	0.549
390.000	272.273	79.991	19.996	102.908	20.246	12.691	0.489
392.000	273.259	79.992	19.995	102.907	20.244	12.786	0.468
394.000	274.316	79.991	19.995	102.911	20.244	12.842	0.493
396.000	275.335	79.992	19.996	102.912	20.247	12.581	0.507
398.000	276.335	79.991	19.995	102.912	20.250	12.405	0.509
400.000	277.423	79.992	19.995	102.918	20.248	12.547	0.519
402.000	278.418	79.993	19.996	102.919	20.251	12.299	0.499
404.000	279.426	79.993	19.995	102.930	20.249	12.494	0.528
406.000	280.389	79.992	19.996	102.950	20.245	12.751	0.474
408.000	281.412	79.994	19.995	102.903	20.243	12.926	0.502
410.000	282.350	79.993	19.995	102.977	20.243	12.915	0.476
412.000	283.569	79.992	19.996	103.022	20.240	13.113	0.708
414.000	284.348	79.993	19.995	102.975	20.239	13.232	0.525
416.000	285.276	79.993	19.995	102.994	20.232	13.697	0.498
418.000	286.410	79.993	19.995	103.015	20.224	14.281	0.501
420.000	287.384	79.993	19.995	103.032	20.225	14.259	0.572
422.000	288.340	79.993	19.995	103.056	20.212	15.186	0.489
424.000	289.318	79.995	19.995	103.064	20.207	15.520	0.468
426.000	290.322	79.994	19.995	103.078	20.202	15.910	0.519
428.000	291.389	79.994	19.995	103.096	20.186	17.098	0.502
430.000	292.388	79.996	19.995	103.091	20.181	17.427	0.499
432.000	293.370	79.995	19.995	103.055	20.174	17.960	0.469
434.000	294.342	79.994	19.996	103.013	20.171	18.168	0.482
436.000	295.356	79.995	19.995	102.959	20.162	18.832	0.513
438.000	296.325	79.993	19.996	102.923	20.158	19.102	0.486
440.000	297.361	79.993	19.996	102.900	20.155	19.351	0.526
442.000	298.300	79.992	19.996	102.882	20.153	19.453	0.490
444.000	299.294	79.993	19.996	102.873	20.150	19.694	0.481
446.000	300.271	79.990	19.996	102.871	20.153	19.475	0.487
448.000	301.337	79.992	19.996	102.872	20.154	19.382	0.523
450.000	302.274	79.992	19.996	102.871	20.154	19.432	0.439
452.000	303.303	79.993	19.995	102.869	20.155	19.316	0.518
454.000	304.302	79.993	19.996	102.865	20.157	19.213	0.519
456.000	305.280	79.992	19.995	102.853	20.159	19.070	0.485
458.000	306.271	79.993	19.995	102.852	20.163	18.745	0.506
460.000	307.293	79.992	19.996	102.871	20.164	18.686	0.489
462.000	308.269	79.993	19.996	102.873	20.169	18.283	0.487
464.000	309.288	79.992	19.996	102.882	20.165	18.588	0.495
466.000	310.287	79.992	19.997	102.897	20.169	18.308	0.490
468.000	311.318	79.991	19.997	102.899	20.168	18.354	0.503
470.000	312.317	79.991	19.996	102.891	20.172	18.065	0.487
472.000	313.338	79.991	19.997	102.900	20.173	17.997	0.488
474.000	314.339	79.992	19.997	102.902	20.177	17.694	0.511
476.000	315.345	79.993	19.997	102.891	20.181	17.446	0.512
478.000	316.316	79.993	19.996	102.895	20.179	17.586	0.489
480.000	317.313	79.992	19.997	102.889	20.180	17.476	0.488
482.000	318.294	79.993	19.996	102.871	20.182	17.377	0.475
484.000	319.275	79.994	19.994	102.872	20.181	17.406	0.505
486.000	320.314	79.994	19.995	102.877	20.187	16.970	0.515
488.000	321.289	79.993	19.996	102.879	20.187	17.010	0.504
490.000	322.318	79.995	19.995	102.869	20.189	16.839	0.520
492.000	323.289	79.996	19.995	102.868	20.189	16.851	0.507
494.000	324.257	79.994	19.995	102.867	20.193	16.539	0.475
496.000	325.282	79.993	19.995	102.850	20.194	16.439	0.507
498.000	326.260	79.994	19.996	102.846	20.194	16.474	0.533
500.000	327.240	79.994	19.996	102.842	20.199	16.104	0.514
502.000	328.227	79.993	19.995	102.836	20.199	16.110	0.499
504.000	329.230	79.995	19.995	102.838	20.203	15.813	0.483
506.000	330.205	79.993	19.995	102.839	20.203	15.796	0.492
508.000	331.220	79.994	19.995	102.831	20.201	15.936	0.493
510.000	332.206	79.995	19.994	102.825	20.208	15.463	0.470
512.000	333.233	79.994	19.994	102.831	20.204	15.723	0.506
514.001	334.225	79.995	19.995	102.826	20.209	15.377	0.518
516.000	335.227	79.995	19.995	102.810	20.213	15.053	0.512
518.000	336.227	79.995	19.994	102.804	20.213	15.060	0.512
520.000	337.209	79.994	19.994	102.793	20.214	14.973	0.473
522.000	338.171	79.993	19.995	102.799	20.214	14.997	0.477
524.000	339.177	79.993	19.995	102.796	20.217	14.757	0.489
526.000	340.175	79.993	19.995	102.793	20.220	14.539	0.497
528.000	341.187	79.993	19.995	102.793	20.224	14.244	0.508
530.000	342.244	79.993	19.996	102.799	20.225	14.223	0.528
532.000	343.175	79.992	19.996	102.796	20.227	14.036	0.470
534.000	344.187	79.994	19.996	102.800	20.228	13.998	0.508
536.000	345.205	79.991	19.996	102.797	20.232	13.701	0.488
538.000	346.191	79.993	19.996	102.797	20.234	13.561	0.509
540.000	347.228	79.993	19.996	102.794	20.236	13.389	0.515
542.000	348.218	79.993	19.995	102.800	20.239	13.173	0.481
544.000	349.250	79.993	19.996	102.797	20.240	13.118	0.497
546.000	350.277	79.993	19.995	102.797	20.241	13.067	0.521
548.000	351.296	79.992	19.996	102.801	20.245	12.706	0.533
550.000	352.312	79.992	19.995	102.813	20.248	12.543	0.488
552.000	353.347	79.992	19.996	102.812	20.245	12.754	0.519
554.000	354.363	79.992	19.996	102.827	20.250	12.370	0.521
556.000	355.396	79.992	19.996	102.830	20.251	12.284	0.501
558.000	356.387	79.990	19.996	102.829	20.253	12.185	0.492
560.000	357.451	79.991	19.997	102.829	20.255	11.985	0.503
562.000	358.447	79.991	19.996	102.835	20.258	11.785	0.512
564.000	359.479	79.991	19.997	102.841	20.258	11.765	0.534
566.000	360.460	79.993	19.996	102.841	20.257	11.834	0.515
568.000	361.488	79.993	19.996	102.853	20.257	11.887	0.515
570.000	362.485	79.994	19.995	102.812	20.255	11.989	0.481
572.000	363.533	79.994	19.995	102.820	20.255	12.017	0.515
574.000	364.547	79.993	19.995	102.929	20.257	11.872	0.508
576.000	365.594	79.994	19.995	102.873	20.258	11.829	0.531
578.000	366.573	79.992	19.995	102.881	20.260	11.634	0.497
580.000	367.545	79.993	19.994	102.893	20.259	11.711	0.490
582.000	368.566	79.993	19.995	102.891	20.257	11.860	0.525
584.000	369.555	79.994	19.995	102.892	20.255	12.049	0.494
586.000	370.543	79.994	19.995	102.888	20.252	12.241	0.527
588.000	371.530	79.993	19.996	102.886	20.251	12.282	0.486
590.000	372.575	79.994	19.995	102.895	20.251	12.305	0.495
592.000	373.572	79.993	19.996	102.902	20.252	12.233	0.502
594.000	374.597	79.996	19.995	102.902	20.250	12.389	0.510
596.000	375.558	79.995	19.995	102.903	20.250	12.404	0.461
598.000	376.571	79.995	19.994	102.906	20.245	12.753	0.485
600.000	377.526	79.994	19.994	102.910	20.248	12.542	0.476
602.000	378.509	79.993	19.994	102.906	20.244	12.818	0.483
604.000	379.558	79.992	19.995	102.906	20.242	12.954	0.504
606.000	380.531	79.991	19.994	102.904	20.243	12.915	0.506
608.000	381.521	79.992	19.995	102.907	20.240	13.100	0.508
610.000	382.499	79.993	19.995	102.908	20.235	13.445	0.490
612.000	383.477	79.994	19.995	102.910	20.236	13.412	0.455
614.000	384.498	79.992	19.996	102.909	20.230	13.814	0.505
616.000	385.508	79.993	19.996	102.906	20.227	14.046	0.491
618.000	386.486	79.992	19.995	102.888	20.225	14.192	0.493
620.000	387.522	79.994	19.996	102.891	20.218	14.754	0.558
622.000	388.521	79.993	19.996	102.907	20.220	14.612	0.520
624.000	389.475	79.993	19.996	102.913	20.216	14.835	0.474
626.000	390.524	79.994	19.996	102.914	20.211	15.238	0.505
628.000	391.533	79.994	19.996	102.907	20.206	15.599	0.494
630.000	392.586	79.992	19.997	102.911	20.203	15.808	0.525
632.000	393.566	79.994	19.995	102.908	20.198	16.190	0.493
634.000	394.611	79.993	19.995	102.903	20.188	16.883	0.516
636.000	395.620	79.993	19.996	102.896	20.183	17.284	0.524
638.000	396.685	79.994	19.996	102.906	20.176	17.809	0.505
640.000	397.715	79.992	19.996	102.906	20.170	18.206	0.538
642.000	398.722	79.992	19.995	102.910	20.163	18.762	0.523
644.000	399.777	79.993	19.996	102.910	20.154	19.439	0.521
646.000	400.800	79.993	19.997	102.909	20.151	19.589	0.506
648.000	401.822	79.993	19.996	102.909	20.139	20.487	0.522
650.000	402.845	79.995	19.997	102.909	20.130	21.124	0.514
652.000	403.844	79.993	19.995	102.896	20.123	21.639	0.493
654.000	404.888	79.994	19.997	102.902	20.114	22.329	0.520
656.000	405.892	79.993	19.996	102.908	20.105	23.002	0.514
658.000	406.902	79.993	19.996	102.908	20.094	23.816	0.503
660.000	407.907	79.993	19.996	102.907	20.079	24.894	0.511
662.000	408.901	79.994	19.996	102.910	20.071	25.509	0.494
664.000	409.936	79.991	19.996	102.911	20.062	26.165	0.494
666.000	410.936	79.993	19.996	102.911	20.050	27.032	0.510
668.000	411.926	79.994	19.994	102.908	20.034	28.148	0.486
670.000	412.956	79.993	19.995	102.905	20.022	29.042	0.505
672.000	413.921	79.993	19.995	102.903	20.005	30.319	0.483
674.000	414.881	79.995	19.995	102.903	19.993	31.198	0.480
676.000	415.847	79.996	19.995	102.898	19.983	31.911	0.476
678.000	416.842	79.996	19.996	102.903	19.962	33.454	0.475
680.000	417.831	79.995	19.996	102.903	19.948	34.466	0.500
682.000	418.807	79.996	19.996	102.907	19.934	35.486	0.495
684.000	419.750	79.994	19.995	102.896	19.919	36.603	0.480
686.000	420.749	79.993	19.995	102.899	19.904	37.702	0.497
688.000	421.650	79.993	19.995	102.901	19.885	39.087	0.458
690.000	422.648	79.992	19.995	102.906	19.870	40.163	0.457
692.000	423.607	79.992	19.995	102.908	19.848	41.758	0.461
694.000	424.570	79.993	19.995	102.907	19.832	42.999	0.473
696.000	425.605	79.992	19.995	102.912	19.814	44.251	0.496
698.000	426.587	79.993	19.995	102.910	19.797	45.531	0.481
700.000	427.599	79.992	19.995	102.912	19.774	47.213	0.478
702.000	428.569	79.993	19.995	102.871	19.756	48.532	0.500
704.000	429.599	79.993	19.996	102.858	19.738	49.854	0.528
706.000	430.605	79.992	19.995	102.961	19.718	51.270	0.519
708.000	431.614	79.993	19.995	102.910	19.700	52.632	0.504
710.000	432.664	79.994	19.996	102.911	19.680	54.070	0.469
712.000	433.671	79.993	19.995	102.907	19.658	55.692	0.515
714.000	434.735	79.993	19.995	102.913	19.641	56.892	0.546
716.000	435.750	79.992	19.995	102.913	19.621	58.372	0.519
718.000	436.804	79.991	19.995	102.911	19.596	60.200	0.548
720.000	437.824	79.993	19.996	102.911	19.573	61.855	0.505
722.000	438.889	79.990	19.996	102.916	19.549	63.612	0.525
724.000	439.878	79.992	19.996	102.910	19.525	65.436	0.521
726.000	440.923	79.991	19.996	102.911	19.501	67.169	0.509
728.000	441.950	79.990	19.996	102.900	19.482	68.563	0.502
730.000	442.981	79.993	19.995	102.882	19.467	69.663	0.488
732.000	444.026	79.994	19.994	102.880	19.450	70.931	0.521
734.000	445.061	79.993	19.996	102.896	19.436	71.884	0.529
736.000	446.086	79.993	19.996	102.907	19.428	72.484	0.524
738.000	447.115	79.994	19.996	102.903	19.424	72.823	0.514
740.000	448.166	79.993	19.996	102.907	19.420	73.051	0.515
742.000	449.178	79.992	19.996	102.908	19.410	73.833	0.491
744.000	450.220	79.993	19.996	102.912	19.401	74.456	0.533
746.000	451.242	79.994	19.996	102.908	19.397	74.801	0.494
748.000	452.283	79.992	19.998	102.909	19.393	75.043	0.530
750.000	453.273	79.992	19.997	102.903	19.394	74.970	0.518
752.000	454.335	79.992	19.996	102.903	19.394	75.060	0.502
754.000	455.419	79.993	19.996	102.906	19.391	75.163	0.550
756.000	456.422	79.993	19.996	102.908	19.392	75.114	0.498
758.000	457.366	79.994	19.995	102.921	19.380	76.001	0.483
760.000	458.444	79.996	19.996	102.872	19.369	76.814	0.514
762.000	459.515	79.993	19.995	102.974	19.367	76.934	0.524
764.000	460.513	79.993	19.995	102.911	19.369	76.783	0.473
766.000	461.563	79.994	19.995	102.878	19.368	76.848	0.531
768.000	462.607	79.992	19.995	102.886	19.376	76.287	0.533
770.001	463.676	79.993	19.996	102.910	19.395	74.905	0.532
772.000	464.702	79.992	19.995	102.904	19.419	73.193	0.562
774.000	465.724	79.993	19.995	102.894	19.460	70.179	0.533
776.000	466.790	79.993	19.995	102.866	19.490	67.967	0.502
778.000	467.829	79.993	19.994	102.911	19.521	65.685	0.504
780.000	468.883	79.992	19.996	102.936	19.549	63.657	0.506
782.000	469.938	79.992	19.995	102.937	19.569	62.202	0.545
784.000	470.975	79.994	19.996	102.927	19.585	61.001	0.524
786.000	472.010	79.993	19.995	102.887	19.607	59.432	0.519
788.000	473.028	79.992	19.994	102.903	19.628	57.878	0.524
790.000	474.083	79.994	19.995	102.905	19.647	56.497	0.506
792.000	475.185	79.996	19.995	102.892	19.693	53.106	0.542
794.000	476.189	79.993	19.995	102.862	19.735	50.029	0.526
796.000	477.223	79.993	19.995	102.871	19.754	48.624	0.536
798.000	478.261	79.993	19.996	102.923	19.763	47.958	0.544
800.000	479.288	79.992	19.996	102.954	19.766	47.760	0.508
802.000	480.322	79.993	19.996	102.931	19.779	46.801	0.512
804.000	481.400	79.992	19.995	102.880	19.791	45.957	0.539
806.000	482.441	79.992	19.995	102.844	19.809	44.622	0.518
808.000	483.446	79.993	19.996	102.858	19.824	43.546	0.517
810.000	484.440	79.992	19.996	102.890	19.830	43.053	0.518
812.000	485.498	79.994	19.997	102.905	19.828	43.221	0.537
814.000	486.439	79.994	19.997	102.907	19.839	42.452	0.488
816.000	487.489	79.995	19.997	102.870	19.862	40.712	0.505
818.000	488.526	79.994	19.995	102.831	19.879	39.466	0.532
820.000	489.537	79.996	19.996	102.857	19.883	39.196	0.521
822.000	490.564	79.994	19.997	102.897	19.894	38.402	0.527
824.000	491.593	79.995	19.996	102.907	19.907	37.425	0.531
826.000	492.602	79.994	19.996	102.874	19.920	36.475	0.495
828.000	493.599	79.992	19.995	102.856	19.931	35.709	0.510
830.000	494.658	79.993	19.995	102.868	19.947	34.533	0.515
832.000	495.660	79.994	19.996	102.870	19.963	33.379	0.471
834.000	496.706	79.993	19.995	102.870	19.975	32.484	0.512
836.000	497.726	79.994	19.994	102.883	19.983	31.922	0.514
838.000	498.755	79.994	19.996	102.880	19.999	30.728	0.481
840.000	499.752	79.994	19.996	102.865	20.019	29.264	0.488
842.000	500.786	79.995	19.997	102.861	20.029	28.534	0.499
844.000	501.797	79.996	19.997	102.869	20.047	27.231	0.493
846.000	502.809	79.995	19.995	102.874	20.060	26.266	0.492
848.000	503.839	79.993	19.996	102.873	20.071	25.472	0.515
850.000	504.820	79.992	19.995	102.862	20.082	24.647	0.481
852.000	505.859	79.992	19.995	102.865	20.089	24.144	0.503
854.000	506.926	79.991	19.996	102.870	20.104	23.033	0.534
856.000	507.900	79.992	19.994	102.871	20.115	22.248	0.499
858.000	508.908	79.992	19.996	102.871	20.125	21.497	0.505
860.000	509.910	79.992	19.996	102.872	20.132	21.000	0.502
862.000	510.911	79.992	19.995	102.871	20.145	20.075	0.519
864.000	511.929	79.993	19.996	102.870	20.148	19.848	0.495
866.000	512.932	79.992	19.996	102.862	20.157	19.203	0.530
868.000	513.949	79.993	19.995	102.851	20.163	18.739	0.513
870.000	515.006	79.992	19.995	102.866	20.172	18.073	0.527
872.000	515.993	79.993	19.997	102.867	20.181	17.428	0.522
874.000	517.023	79.993	19.995	102.847	20.183	17.239	0.512
876.000	518.023	79.994	19.997	102.839	20.192	16.650	0.515
878.000	519.049	79.992	19.996	102.847	20.192	16.592	0.517
880.000	520.036	79.993	19.995	102.855	20.199	16.093	0.485
882.000	521.071	79.993	19.995	102.852	20.206	15.597	0.488
884.000	522.085	79.992	19.994	102.846	20.207	15.510	0.518
886.000	523.091	79.992	19.996	102.864	20.209	15.363	0.530
888.000	524.101	79.993	19.995	102.852	20.216	14.892	0.503
890.000	525.126	79.993	19.995	102.848	20.221	14.483	0.507
892.000	526.092	79.996	19.995	102.837	20.223	14.322	0.501
894.000	527.090	79.994	19.996	102.844	20.226	14.163	0.503
896.000	528.090	79.996	19.995	102.851	20.230	13.805	0.524
898.000	529.055	79.995	19.995	102.839	20.231	13.786	0.503
900.000	530.060	79.994	19.996	102.838	20.236	13.372	0.490
902.000	531.094	79.995	19.995	102.846	20.241	13.016	0.515
904.000	532.092	79.994	19.996	102.852	20.244	12.836	0.442
906.000	533.044	79.994	19.997	102.848	20.247	12.623	0.474
908.000	534.082	79.993	19.995	102.849	20.251	12.320	0.518
910.000	535.072	79.995	19.996	102.837	20.253	12.146	0.474
912.000	536.051	79.994	19.996	102.835	20.258	11.808	0.487
914.000	537.059	79.994	19.997	102.842	20.261	11.587	0.493
916.000	538.020	79.994	19.995	102.847	20.260	11.650	0.491
918.000	538.976	79.995	19.995	102.837	20.261	11.563	0.467
920.000	540.000	79.995	19.995	102.837	20.266	11.169	0.494
922.000	540.948	79.995	19.995	102.839	20.267	11.137	0.507
924.000	541.892	79.996	19.996	102.842	20.264	11.364	0.485
926.000	542.903	79.994	19.996	102.835	20.267	11.124	0.506
928.000	543.913	79.995	19.996	102.837	20.269	10.960	0.488
930.000	544.851	79.993	19.996	102.835	20.273	10.686	0.495
932.000	545.811	79.993	19.995	102.832	20.275	10.569	0.490
934.000	546.823	79.993	19.996	102.831	20.273	10.668	0.495
936.000	547.865	79.991	19.996	102.841	20.278	10.360	0.513
938.000	548.863	79.991	19.997	102.846	20.278	10.302	0.501
940.000	549.869	79.992	19.995	102.843	20.277	10.398	0.514
942.000	550.931	79.993	19.996	102.846	20.278	10.357	0.555
944.000	551.912	79.995	19.996	102.842	20.274	10.618	0.488
946.000	552.959	79.993	19.995	102.845	20.282	10.062	0.530
948.000	553.984	79.994	19.995	102.843	20.284	9.925	0.542
950.000	555.048	79.993	19.996	102.858	20.286	9.749	0.517
952.000	556.123	79.994	19.995	102.850	20.280	10.203	0.536
954.000	557.180	79.992	19.995	102.833	20.288	9.595	0.545
956.000	558.197	79.993	19.996	102.835	20.285	9.822	0.520
958.000	559.229	79.993	19.994	102.837	20.283	9.985	0.514
960.000	560.329	79.992	19.996	102.831	20.288	9.622	0.534
962.000	561.325	79.992	19.996	102.836	20.289	9.507	0.497
964.000	562.419	79.992	19.995	102.834	20.289	9.559	0.522
966.000	563.478	79.993	19.994	102.838	20.292	9.328	0.550
968.000	564.518	79.991	19.996	102.837	20.293	9.201	0.532
970.000	565.490	79.991	19.995	102.839	20.295	9.097	0.490
972.000	566.551	79.992	19.994	102.842	20.292	9.290	0.492
974.000	567.623	79.992	19.996	102.842	20.291	9.387	0.516
976.000	568.613	79.994	19.995	102.839	20.298	8.898	0.527
978.000	569.664	79.993	19.994	102.838	20.299	8.812	0.523
980.000	570.675	79.995	19.996	102.837	20.299	8.824	0.465
982.000	571.704	79.995	19.995	102.835	20.299	8.781	0.503
984.000	572.703	79.994	19.995	102.842	20.300	8.696	0.489
986.000	573.753	79.994	19.995	102.850	20.300	8.750	0.528
988.000	574.786	79.992	19.995	102.850	20.299	8.804	0.534
990.000	575.819	79.993	19.996	102.836	20.298	8.840	0.542
992.000	576.802	79.994	19.996	102.843	20.296	9.003	0.465
994.000	577.858	79.992	19.996	102.838	20.302	8.562	0.529
996.000	578.904	79.993	19.996	102.830	20.302	8.582	0.556
998.000	579.884	79.994	19.996	102.848	20.302	8.604	0.500
1000.000	580.908	79.994	19.996	102.844	20.298	8.852	0.503
1002.000	581.904	79.996	19.996	102.847	20.302	8.589	0.520
1004.000	582.946	79.994	19.995	102.840	20.304	8.459	0.485
1006.000	583.950	79.994	19.995	102.833	20.301	8.645	0.483
1008.000	584.978	79.996	19.995	102.836	20.306	8.279	0.507
1010.000	586.014	79.996	19.996	102.847	20.299	8.817	0.507
1012.000	587.000	79.994	19.996	102.838	20.306	8.286	0.507
1014.000	588.022	79.993	19.995	102.841	20.300	8.692	0.522
1016.000	589.020	79.992	19.997	102.838	20.307	8.188	0.511
1018.000	590.057	79.993	19.996	102.839	20.303	8.471	0.517
1020.000	591.065	79.991	19.996	102.852	20.302	8.607	0.518
1022.000	592.048	79.992	19.997	102.843	20.303	8.500	0.467
1024.000	593.092	79.991	19.998	102.832	20.302	8.603	0.511
1026.000	594.147	79.993	19.997	102.847	20.313	7.797	0.540
1028.001	595.151	79.992	19.997	102.845	20.310	7.963	0.503
1030.000	596.187	79.992	19.997	102.843	20.304	8.425	0.533
1032.000	597.209	79.993	19.996	102.843	20.304	8.395	0.509
1034.001	598.213	79.993	19.996	102.838	20.306	8.308	0.500
1036.000	599.203	79.993	19.996	102.850	20.304	8.438	0.504
1038.001	600.227	79.993	19.994	102.851	20.305	8.376	0.510
1040.000	601.280	79.992	19.995	102.842	20.306	8.310	0.527
1042.001	602.295	79.991	19.996	102.839	20.302	8.592	0.511
1044.000	603.295	79.992	19.996	102.861	20.308	8.119	0.510
1046.000	604.307	79.992	19.996	102.852	20.307	8.216	0.509
1048.000	605.361	79.990	19.994	102.843	20.310	7.972	0.532
1050.000	606.346	79.992	19.995	102.846	20.308	8.163	0.525
1052.000	607.384	79.992	19.994	102.860	20.308	8.133	0.512
1054.001	608.432	79.991	19.995	102.845	20.308	8.159	0.535
1056.000	609.447	79.993	19.996	102.844	20.309	8.052	0.489
1058.000	610.483	79.995	19.997	102.836	20.311	7.937	0.505
1060.000	611.546	79.995	19.995	102.834	20.311	7.900	0.546
1062.001	612.536	79.995	19.995	102.840	20.308	8.136	0.535
1064.000	613.556	79.996	19.996	102.832	20.309	8.062	0.488
1066.000	614.578	79.994	19.994	102.838	20.309	8.089	0.499
1068.000	615.593	79.995	19.995	102.844	20.307	8.218	0.515
1070.000	616.611	79.993	19.994	102.845	20.308	8.129	0.523
1072.000	617.590	79.992	19.995	102.841	20.310	7.957	0.518
1074.000	618.599	79.993	19.995	102.846	20.312	7.871	0.477
1076.001	619.584	79.993	19.995	102.842	20.305	8.360	0.474
1078.000	620.608	79.995	19.995	102.853	20.308	8.122	0.499
1080.000	621.640	79.994	19.996	102.842	20.303	8.504	0.512
1082.000	622.651	79.995	19.996	102.843	20.308	8.105	0.512
1084.000	623.682	79.995	19.995	102.852	20.301	8.622	0.522
1086.000	624.724	79.996	19.996	102.853	20.302	8.566	0.536
1088.000	625.707	79.996	19.996	102.839	20.306	8.310	0.537
1090.000	626.783	79.994	19.994	102.855	20.305	8.346	0.530
1092.000	627.791	79.993	19.995	102.834	20.300	8.747	0.517
1094.000	628.865	79.993	19.995	102.851	20.300	8.705	0.541
1096.000	629.898	79.993	19.997	102.836	20.299	8.775	0.545
1098.000	630.952	79.992	19.995	102.844	20.307	8.243	0.546
1100.000	631.990	79.991	19.995	102.847	20.301	8.654	0.527
1102.000	633.051	79.994	19.996	102.861	20.301	8.650	0.544
1104.000	634.105	79.991	19.995	102.853	20.305	8.327	0.496
1106.001	635.195	79.992	19.995	102.858	20.306	8.314	0.548
1108.000	636.246	79.990	19.995	102.850	20.298	8.873	0.536
1110.000	637.276	79.991	19.995	102.844	20.301	8.664	0.539
1112.000	638.344	79.992	19.995	102.841	20.302	8.550	0.494
1114.000	639.416	79.990	19.994	102.847	20.302	8.570	0.552
1116.000	640.466	79.993	19.996	102.845	20.304	8.454	0.501
1118.000	641.553	79.992	19.996	102.855	20.302	8.554	0.565
1120.000	642.595	79.993	19.998	102.841	20.306	8.268	0.526
1122.000	643.610	79.990	19.995	102.838	20.304	8.440	0.523
1124.000	644.612	79.992	19.996	102.833	20.308	8.104	0.502
1126.000	645.673	79.991	19.996	102.831	20.304	8.455	0.503
1128.000	646.708	79.991	19.995	102.831	20.307	8.225	0.542
1130.000	647.706	79.993	19.998	102.834	20.307	8.197	0.524
1132.000	648.758	79.991	19.996	102.835	20.306	8.286	0.538
1134.000	649.770	79.992	19.996	102.831	20.308	8.104	0.520
1136.000	650.789	79.992	19.994	102.835	20.307	8.244	0.503
1138.000	651.825	79.993	19.996	102.833	20.307	8.213	0.463
1140.000	652.823	79.993	19.995	102.831	20.301	8.673	0.504
1142.000	653.881	79.995	19.996	102.831	20.308	8.171	0.515
1144.000	654.868	79.996	19.996	102.832	20.309	8.089	0.528
1146.000	655.925	79.995	19.996	102.836	20.301	8.616	0.548
1148.000	656.898	79.995	19.996	102.831	20.306	8.277	0.513
1150.000	657.935	79.993	19.995	102.831	20.309	8.099	0.505
1152.000	658.934	79.993	19.995	102.833	20.310	8.012	0.482
1154.000	659.974	79.994	19.995	102.829	20.310	8.025	0.537
1156.000	660.952	79.995	19.995	102.834	20.303	8.485	0.494
1158.000	661.968	79.994	19.995	102.849	20.302	8.548	0.488
1160.000	662.933	79.993	19.995	102.840	20.307	8.201	0.505
1162.000	663.979	79.994	19.995	102.848	20.297	8.907	0.524
1164.000	664.966	79.996	19.996	102.838	20.303	8.510	0.490
1166.000	665.962	79.996	19.996	102.836	20.309	8.050	0.510
1168.000	666.913	79.996	19.995	102.839	20.303	8.469	0.488
1170.000	667.938	79.996	19.995	102.837	20.309	8.057	0.489
1172.000	668.964	79.996	19.994	102.838	20.302	8.540	0.490
1174.000	670.013	79.995	19.995	102.849	20.303	8.475	0.521
1176.000	670.923	79.993	19.995	102.851	20.303	8.501	0.468
1178.001	671.961	79.994	19.997	102.842	20.299	8.797	0.518
1180.000	672.974	79.992	19.995	102.834	20.302	8.571	0.515
1182.001	673.987	79.993	19.996	102.834	20.300	8.693	0.495
1184.000	675.035	79.993	19.997	102.834	20.308	8.128	0.514
1186.000	676.044	79.994	19.996	102.833	20.300	8.734	0.511
1188.000	677.061	79.995	19.995	102.832	20.303	8.531	0.502
1190.000	678.027	79.993	19.997	102.831	20.304	8.426	0.502
1192.000	679.071	79.993	19.994	102.824	20.302	8.572	0.504
1194.000	680.064	79.994	19.996	102.829	20.300	8.726	0.485
1196.000	681.100	79.994	19.995	102.831	20.300	8.722	0.524
1198.000	682.070	79.994	19.996	102.829	20.305	8.323	0.500
1200.000	683.071	79.994	19.997	102.832	20.298	8.896	0.500
1202.000	684.067	79.994	19.996	102.830	20.305	8.365	0.501
1204.000	685.099	79.993	19.996	102.830	20.301	8.655	0.532
1206.000	686.094	79.991	19.996	102.829	20.304	8.424	0.500
1208.000	687.120	79.993	19.997	102.829	20.295	9.079	0.509
1210.001	688.105	79.992	19.996	102.833	20.299	8.787	0.499
1212.000	689.124	79.993	19.998	102.830	20.298	8.856	0.509
1214.000	690.159	79.993	19.996	102.835	20.302	8.572	0.516
1216.000	691.158	79.994	19.996	102.834	20.300	8.748	0.509
1218.000	692.176	79.992	19.995	102.834	20.299	8.764	0.510
1220.000	693.193	79.993	19.996	102.833	20.302	8.592	0.525
1222.000	694.185	79.993	19.995	102.834	20.304	8.402	0.525
1224.001	695.227	79.993	19.995	102.832	20.297	8.969	0.541
1226.000	696.195	79.994	19.994	102.831	20.299	8.811	0.498
1228.000	697.187	79.995	19.997	102.834	20.300	8.710	0.501
1230.000	698.219	79.992	19.995	102.833	20.294	9.139	0.520
1232.000	699.208	79.995	19.994	102.832	20.296	9.038	0.482
1234.001	700.196	79.994	19.995	102.834	20.296	9.023	0.470
1236.000	701.217	79.994	19.995	102.833	20.297	8.935	0.480
1238.000	702.183	79.992	19.994	102.832	20.294	9.164	0.471
1240.000	703.188	79.992	19.994	102.832	20.300	8.723	0.487
1242.000	704.172	79.994	19.995	102.831	20.297	8.938	0.497
1244.000	705.154	79.994	19.995	102.829	20.299	8.784	0.475
1246.000	706.096	79.996	19.994	102.829	20.299	8.794	0.443
1248.000	707.063	79.995	19.994	102.835	20.301	8.628	0.491
1250.000	708.039	79.997	19.995	102.827	20.300	8.711	0.462
1252.000	709.027	79.995	19.994	102.827	20.294	9.143	0.496
1254.000	710.020	79.994	19.995	102.828	20.301	8.615	0.503
1256.000	710.960	79.993	19.996	102.826	20.297	8.955	0.507
1258.000	711.958	79.993	19.995	102.825	20.296	8.997	0.480
1260.000	712.929	79.993	19.996	102.827	20.299	8.770	0.476
1262.000	713.897	79.994	19.994	102.828	20.297	8.952	0.517
1264.000	714.925	79.993	19.994	102.830	20.298	8.843	0.513
1266.000	715.933	79.995	19.995	102.840	20.298	8.884	0.494
1268.000	716.893	79.993	19.996	102.830	20.292	9.321	0.493
1270.000	717.886	79.994	19.996	102.829	20.299	8.775	0.532
1272.000	718.824	79.992	19.996	102.829	20.297	8.948	0.475
1274.000	719.849	79.994	19.996	102.827	20.294	9.127	0.517
1276.000	720.837	79.992	19.995	102.827	20.297	8.928	0.512
1278.000	721.811	79.995	19.996	102.829	20.296	9.003	0.519
1280.000	722.779	79.993	19.996	102.834	20.296	9.011	0.486
1282.000	723.754	79.992	19.996	102.833	20.298	8.867	0.484
1284.000	724.754	79.995	19.995	102.832	20.293	9.220	0.476
1286.001	725.731	79.994	19.995	102.836	20.301	8.628	0.481
1288.000	726.740	79.993	19.996	102.829	20.299	8.795	0.456
1290.000	727.745	79.996	19.996	102.830	20.300	8.738	0.518
1292.000	728.726	79.992	19.996	102.830	20.297	8.930	0.511
1294.000	729.753	79.994	19.996	102.830	20.296	9.032	0.492
1296.000	730.801	79.992	19.996	102.830	20.297	8.962	0.517
1298.000	731.774	79.993	19.996	102.830	20.300	8.754	0.513
1300.000	732.847	79.993	19.996	102.832	20.300	8.744	0.517
1302.000	733.800	79.993	19.996	102.831	20.295	9.076	0.475
1304.000	734.855	79.995	19.996	102.830	20.296	8.989	0.512
1306.000	735.850	79.991	19.995	102.829	20.295	9.116	0.498
1308.000	736.933	79.994	19.996	102.829	20.293	9.260	0.546
1310.000	737.904	79.993	19.995	102.831	20.296	9.048	0.500
1312.000	738.984	79.992	19.995	102.829	20.296	9.001	0.561
1314.000	739.977	79.993	19.995	102.830	20.293	9.226	0.533
1316.001	741.012	79.995	19.995	102.828	20.293	9.195	0.521
1318.001	742.035	79.992	19.996	102.827	20.293	9.205	0.524
1320.000	743.045	79.993	19.994	102.829	20.297	8.940	0.521
1321.000	743.600	79.995	19.995	102.829	20.297	8.960	0.532