File: 01_Data/PVC_R06/MCC/PVC_R06_MCC_30K_min_211014_R3.txt
Sample ID:	C:\MCC\MCC Cal\Test\PVC_R06_MCC_30K_min_211014_R3.txt
Sample Weight (mg):	4.6
Heating Rate (C/s):	0.5
Combustor Temp (C):	900
N2 Flow Rate (cc/min):	80
O2 Flow Rate (cc/min):	20
Calibration File:	C:\MCC\MCC Cal\Coeff1 JN10440_30_210304.txt.txt
T Correction Coefficients:	0	1.024463	0
Time Shift (s):	14
*
Time (s)	Temperature (C)	N2 flow rate (cc/min)	O2 flow rate (cc/min)	Flow Rate (cc/min)	Oxygen (%)	HRR (W/g)	Heating rate (C/s)
0.000	108.377	79.992	19.995	102.697	20.429	0.095	-0.006
2.000	108.366	79.993	19.995	102.688	20.430	-0.006	0.018
4.000	108.391	79.993	19.995	102.695	20.430	0.029	0.005
6.000	108.374	79.993	19.995	102.679	20.429	0.042	-0.022
8.000	108.392	79.992	19.995	102.690	20.427	0.220	0.005
10.000	108.364	79.993	19.994	102.685	20.429	0.068	0.004
12.000	108.373	79.993	19.996	102.692	20.430	-0.015	-0.004
14.000	108.327	79.993	19.995	102.692	20.428	0.147	-0.024
16.000	108.328	79.991	19.996	102.698	20.429	0.093	0.004
18.000	108.337	79.992	19.995	102.708	20.428	0.118	-0.019
20.000	108.311	79.993	19.995	102.706	20.429	0.100	-0.014
22.000	108.309	79.991	19.997	102.700	20.430	0.012	-0.020
24.000	108.314	79.992	19.997	102.722	20.426	0.261	-0.004
26.000	108.350	79.992	19.997	102.740	20.424	0.427	0.010
28.000	108.401	79.992	19.996	102.742	20.423	0.504	0.030
30.000	108.452	79.994	19.995	102.747	20.422	0.551	0.018
32.000	108.502	79.994	19.996	102.739	20.419	0.744	0.036
34.000	108.553	79.994	19.995	102.713	20.417	0.918	0.031
36.000	108.654	79.993	19.995	102.785	20.417	0.880	0.029
38.000	108.775	79.995	19.994	102.850	20.414	1.137	0.053
40.000	108.888	79.994	19.995	102.791	20.411	1.323	0.042
42.000	109.031	79.994	19.995	102.794	20.411	1.325	0.059
44.000	109.219	79.994	19.995	102.825	20.406	1.700	0.102
46.000	109.409	79.992	19.996	102.826	20.405	1.716	0.082
48.000	109.610	79.992	19.995	102.823	20.405	1.780	0.108
50.000	109.781	79.995	19.995	102.830	20.404	1.825	0.059
52.000	110.026	79.994	19.996	102.844	20.402	1.988	0.113
54.000	110.313	79.994	19.995	102.867	20.400	2.089	0.139
56.000	110.627	79.995	19.995	102.891	20.395	2.462	0.166
58.000	110.930	79.995	19.994	102.903	20.393	2.602	0.138
60.000	111.326	79.995	19.995	102.927	20.387	2.971	0.207
62.000	111.679	79.996	19.995	102.941	20.387	3.022	0.212
64.000	112.130	79.996	19.994	102.947	20.386	3.059	0.215
66.000	112.567	79.993	19.994	102.948	20.380	3.486	0.219
68.000	113.067	79.994	19.994	102.954	20.383	3.264	0.241
70.000	113.576	79.994	19.994	102.952	20.383	3.268	0.252
72.000	114.159	79.993	19.994	102.957	20.382	3.382	0.257
74.000	114.751	79.993	19.995	102.954	20.383	3.303	0.300
76.000	115.365	79.991	19.996	102.958	20.381	3.387	0.317
78.000	116.003	79.992	19.995	102.960	20.384	3.214	0.331
80.000	116.644	79.991	19.996	102.978	20.383	3.268	0.314
82.000	117.372	79.991	19.995	102.969	20.381	3.406	0.363
84.000	118.083	79.993	19.995	102.979	20.380	3.462	0.350
86.000	118.835	79.991	19.996	102.960	20.378	3.654	0.377
88.000	119.575	79.992	19.996	102.954	20.377	3.731	0.365
90.000	120.359	79.992	19.994	102.972	20.379	3.590	0.399
92.000	121.112	79.993	19.995	102.964	20.381	3.439	0.376
94.000	121.910	79.992	19.995	102.981	20.381	3.402	0.408
96.000	122.777	79.993	19.996	102.975	20.375	3.847	0.424
98.000	123.624	79.991	19.995	102.984	20.378	3.659	0.454
100.000	124.412	79.992	19.996	102.981	20.377	3.686	0.407
102.000	125.296	79.991	19.996	102.975	20.377	3.680	0.443
104.000	126.200	79.992	19.996	102.983	20.377	3.701	0.423
106.000	127.075	79.992	19.997	102.978	20.379	3.595	0.422
108.000	127.995	79.992	19.996	102.978	20.378	3.616	0.435
110.000	128.930	79.993	19.996	102.975	20.378	3.641	0.496
112.000	129.872	79.993	19.996	102.972	20.379	3.591	0.487
114.000	130.813	79.992	19.997	102.967	20.381	3.401	0.455
116.000	131.713	79.992	19.996	102.950	20.380	3.500	0.463
118.000	132.687	79.992	19.997	102.957	20.380	3.510	0.478
120.000	133.661	79.993	19.996	102.958	20.379	3.585	0.489
122.000	134.693	79.992	19.995	102.955	20.380	3.505	0.496
124.000	135.647	79.993	19.995	102.958	20.382	3.326	0.487
126.000	136.663	79.992	19.995	102.948	20.383	3.260	0.517
128.000	137.688	79.993	19.994	102.954	20.382	3.324	0.501
130.000	138.678	79.993	19.995	102.949	20.381	3.393	0.468
132.000	139.663	79.993	19.995	102.947	20.384	3.200	0.501
134.000	140.718	79.993	19.995	102.945	20.385	3.147	0.498
136.000	141.747	79.994	19.994	102.897	20.387	3.031	0.525
138.000	142.755	79.995	19.994	103.006	20.383	3.273	0.534
140.000	143.850	79.994	19.996	102.949	20.387	3.033	0.529
142.000	144.888	79.996	19.995	102.947	20.384	3.197	0.524
144.000	145.900	79.994	19.995	102.947	20.382	3.335	0.506
146.000	146.899	79.994	19.996	102.948	20.384	3.246	0.475
148.000	147.945	79.992	19.995	102.942	20.386	3.075	0.507
150.000	149.003	79.992	19.995	102.942	20.384	3.218	0.523
152.000	150.004	79.992	19.996	102.938	20.383	3.250	0.519
154.000	151.074	79.993	19.995	102.940	20.386	3.100	0.523
156.000	152.036	79.992	19.995	102.937	20.386	3.062	0.497
158.000	153.028	79.991	19.995	102.932	20.387	3.007	0.460
160.000	154.117	79.991	19.996	102.932	20.387	3.023	0.493
162.000	155.103	79.992	19.995	102.930	20.388	2.914	0.511
164.000	156.137	79.992	19.996	102.930	20.391	2.719	0.467
166.000	157.173	79.993	19.995	102.928	20.390	2.819	0.484
168.000	158.200	79.991	19.996	102.930	20.388	2.933	0.526
170.000	159.192	79.992	19.995	102.928	20.390	2.821	0.504
172.000	160.236	79.994	19.995	102.917	20.388	2.918	0.541
174.000	161.217	79.991	19.996	102.908	20.387	2.976	0.504
176.000	162.246	79.991	19.996	102.911	20.391	2.738	0.521
178.000	163.289	79.991	19.995	102.911	20.389	2.871	0.483
180.000	164.244	79.991	19.996	102.907	20.390	2.782	0.448
182.000	165.307	79.989	19.996	102.907	20.391	2.715	0.516
184.000	166.243	79.991	19.996	102.909	20.390	2.784	0.477
186.000	167.268	79.992	19.995	102.909	20.393	2.587	0.490
188.000	168.276	79.992	19.996	102.910	20.390	2.790	0.502
190.000	169.296	79.993	19.996	102.913	20.390	2.769	0.489
192.000	170.320	79.993	19.996	102.907	20.390	2.780	0.536
194.000	171.283	79.993	19.995	102.910	20.390	2.761	0.461
196.000	172.293	79.993	19.996	102.908	20.390	2.776	0.509
198.000	173.295	79.992	19.997	102.903	20.393	2.554	0.475
200.000	174.341	79.994	19.995	102.906	20.389	2.885	0.535
202.000	175.303	79.991	19.997	102.898	20.391	2.701	0.504
204.000	176.304	79.992	19.996	102.900	20.387	2.973	0.476
206.000	177.250	79.991	19.995	102.906	20.384	3.210	0.507
208.000	178.243	79.993	19.996	102.901	20.389	2.848	0.488
210.000	179.220	79.994	19.996	102.903	20.390	2.803	0.487
212.000	180.224	79.994	19.995	102.895	20.386	3.092	0.463
214.000	181.204	79.996	19.994	102.897	20.390	2.795	0.525
216.000	182.132	79.994	19.996	102.883	20.391	2.741	0.441
218.000	183.130	79.994	19.995	102.901	20.387	2.981	0.501
220.000	184.112	79.995	19.994	102.898	20.388	2.954	0.499
222.000	185.069	79.995	19.994	102.892	20.386	3.066	0.501
224.000	186.134	79.993	19.995	102.883	20.391	2.739	0.523
226.000	187.130	79.994	19.996	102.886	20.397	2.306	0.481
228.000	188.138	79.992	19.996	102.893	20.404	1.797	0.503
230.000	189.053	79.992	19.995	102.888	20.392	2.629	0.476
232.000	190.062	79.991	19.995	102.887	20.389	2.857	0.521
234.000	191.031	79.993	19.995	102.878	20.385	3.138	0.515
236.000	192.061	79.993	19.996	102.889	20.384	3.186	0.497
238.000	193.039	79.992	19.996	102.893	20.392	2.644	0.517
240.000	194.009	79.992	19.995	102.881	20.386	3.047	0.474
242.000	194.965	79.993	19.994	102.890	20.388	2.961	0.474
244.000	196.020	79.994	19.994	102.883	20.386	3.050	0.495
246.000	196.999	79.992	19.995	102.886	20.387	3.000	0.504
248.000	198.026	79.993	19.995	102.880	20.391	2.725	0.536
250.000	198.898	79.993	19.995	102.882	20.390	2.813	0.519
252.000	199.878	79.993	19.995	102.871	20.391	2.721	0.484
254.000	200.895	79.992	19.995	102.871	20.391	2.712	0.531
256.000	201.878	79.992	19.996	102.873	20.393	2.609	0.488
258.000	202.848	79.991	19.996	102.874	20.392	2.652	0.462
260.000	203.816	79.990	19.996	102.887	20.392	2.623	0.469
262.000	204.795	79.990	19.996	102.878	20.392	2.632	0.485
264.000	205.791	79.992	19.996	102.876	20.390	2.773	0.470
266.000	206.812	79.994	19.996	102.872	20.393	2.615	0.523
268.000	207.768	79.993	19.995	102.871	20.390	2.775	0.489
270.000	208.748	79.993	19.995	102.866	20.389	2.841	0.469
272.000	209.720	79.992	19.995	102.868	20.392	2.673	0.479
274.000	210.707	79.993	19.995	102.861	20.394	2.493	0.481
276.000	211.640	79.994	19.996	102.861	20.395	2.435	0.463
278.000	212.588	79.994	19.995	102.865	20.395	2.421	0.465
280.000	213.603	79.994	19.996	102.863	20.392	2.681	0.511
282.000	214.533	79.993	19.995	102.868	20.390	2.822	0.478
284.000	215.482	79.993	19.995	102.862	20.393	2.588	0.458
286.000	216.463	79.993	19.996	102.854	20.389	2.893	0.456
288.000	217.413	79.992	19.996	102.865	20.393	2.617	0.502
290.000	218.373	79.993	19.997	102.862	20.389	2.851	0.466
292.000	219.357	79.992	19.997	102.865	20.389	2.870	0.489
294.000	220.290	79.993	19.996	102.866	20.390	2.785	0.505
296.000	221.250	79.994	19.996	102.861	20.391	2.712	0.518
298.000	222.221	79.995	19.995	102.862	20.390	2.785	0.478
300.000	223.142	79.996	19.996	102.864	20.393	2.571	0.500
302.000	224.105	79.996	19.995	102.861	20.390	2.810	0.470
304.000	225.023	79.995	19.995	102.857	20.392	2.619	0.455
306.000	225.950	79.993	19.994	102.864	20.390	2.774	0.455
308.000	226.946	79.994	19.995	102.866	20.387	2.996	0.442
310.000	227.952	79.993	19.995	102.869	20.393	2.596	0.506
312.000	228.935	79.993	19.996	102.869	20.386	3.083	0.468
314.000	229.942	79.993	19.995	102.867	20.387	2.969	0.494
316.000	230.883	79.993	19.995	102.868	20.384	3.184	0.462
318.000	231.837	79.992	19.996	102.869	20.384	3.234	0.452
320.000	232.804	79.993	19.995	102.868	20.383	3.247	0.477
322.000	233.779	79.992	19.995	102.869	20.383	3.305	0.493
324.000	234.784	79.993	19.995	102.865	20.381	3.398	0.475
326.000	235.815	79.992	19.995	102.869	20.378	3.644	0.517
328.000	236.703	79.993	19.995	102.869	20.375	3.847	0.552
330.000	237.638	79.992	19.995	102.870	20.370	4.170	0.467
332.000	238.611	79.993	19.995	102.869	20.369	4.277	0.477
334.000	239.562	79.993	19.996	102.865	20.369	4.226	0.316
336.000	240.587	79.992	19.995	102.869	20.366	4.441	0.506
338.000	241.541	79.992	19.996	102.870	20.364	4.633	0.506
340.000	242.557	79.992	19.994	102.873	20.354	5.314	0.485
342.000	243.538	79.992	19.995	102.872	20.351	5.508	0.486
344.000	244.501	79.992	19.995	102.873	20.349	5.623	0.486
346.000	245.541	79.992	19.996	102.870	20.342	6.133	0.488
348.000	246.550	79.992	19.995	102.873	20.342	6.116	0.519
350.000	247.576	79.994	19.996	102.891	20.331	6.936	0.518
352.000	248.510	79.993	19.995	102.868	20.331	6.930	0.483
354.000	249.522	79.994	19.995	102.870	20.324	7.385	0.494
356.000	250.525	79.995	19.996	102.868	20.320	7.659	0.511
358.000	251.510	79.994	19.996	102.869	20.312	8.234	0.480
360.000	252.625	79.995	19.995	102.865	20.308	8.508	0.557
362.000	253.549	79.993	19.996	102.866	20.301	8.995	0.508
364.000	254.558	79.993	19.997	102.873	20.301	9.009	0.514
366.000	255.542	79.993	19.996	102.872	20.294	9.475	0.475
368.000	256.627	79.994	19.996	102.868	20.289	9.839	0.563
370.000	257.606	79.994	19.995	102.867	20.286	10.065	0.467
372.000	258.578	79.993	19.995	102.867	20.282	10.353	0.519
374.000	259.636	79.994	19.995	102.862	20.280	10.446	0.514
376.000	260.609	79.994	19.995	102.868	20.278	10.599	0.491
378.000	261.602	79.995	19.996	102.868	20.276	10.742	0.501
380.000	262.651	79.994	19.996	102.867	20.278	10.595	0.575
382.000	263.615	79.993	19.995	102.866	20.278	10.586	0.541
384.000	264.617	79.993	19.995	102.866	20.279	10.559	0.501
386.000	265.620	79.992	19.996	102.867	20.278	10.621	0.481
388.000	266.653	79.991	19.996	102.868	20.282	10.328	0.525
390.000	267.702	79.991	19.995	102.870	20.283	10.247	0.539
392.000	268.648	79.992	19.996	102.869	20.283	10.284	0.488
394.000	269.679	79.992	19.995	102.869	20.285	10.089	0.503
396.000	270.721	79.992	19.995	102.875	20.289	9.816	0.545
398.000	271.687	79.993	19.994	102.869	20.290	9.787	0.508
400.000	272.693	79.992	19.996	102.869	20.291	9.672	0.489
402.000	273.722	79.992	19.995	102.875	20.297	9.314	0.474
404.000	274.701	79.993	19.994	102.892	20.294	9.495	0.512
406.000	275.769	79.993	19.996	102.895	20.294	9.528	0.553
408.000	276.766	79.994	19.995	102.891	20.296	9.342	0.535
410.000	277.713	79.993	19.996	102.893	20.297	9.258	0.546
412.000	278.724	79.990	19.995	102.900	20.295	9.456	0.500
414.000	279.657	79.992	19.996	102.901	20.296	9.391	0.439
416.000	280.674	79.992	19.996	102.915	20.293	9.575	0.500
418.000	281.649	79.992	19.996	102.907	20.291	9.677	0.500
420.000	282.661	79.992	19.995	102.921	20.289	9.860	0.478
422.000	283.694	79.992	19.994	102.930	20.289	9.841	0.505
424.000	284.683	79.994	19.995	102.936	20.285	10.110	0.504
426.000	285.669	79.992	19.995	102.951	20.278	10.607	0.518
428.000	286.706	79.993	19.994	102.973	20.278	10.632	0.535
430.000	287.670	79.995	19.995	102.982	20.269	11.244	0.494
432.000	288.669	79.995	19.995	102.996	20.265	11.545	0.509
434.000	289.630	79.994	19.996	103.018	20.257	12.070	0.476
436.000	290.675	79.994	19.995	103.028	20.249	12.629	0.508
438.000	291.687	79.993	19.995	103.039	20.244	12.982	0.505
440.000	292.652	79.994	19.994	103.035	20.236	13.594	0.491
442.000	293.675	79.994	19.997	103.031	20.226	14.227	0.503
444.000	294.666	79.994	19.997	103.025	20.218	14.823	0.508
446.000	295.659	79.994	19.996	103.029	20.211	15.302	0.508
448.000	296.615	79.993	19.996	103.029	20.203	15.824	0.492
450.000	297.594	79.995	19.996	103.046	20.194	16.475	0.498
452.000	298.623	79.995	19.996	103.042	20.185	17.060	0.500
454.000	299.618	79.994	19.996	103.026	20.176	17.670	0.482
456.000	300.583	79.993	19.995	102.993	20.173	17.912	0.479
458.000	301.515	79.995	19.995	102.937	20.168	18.272	0.470
460.000	302.537	79.996	19.995	102.861	20.170	18.091	0.487
462.000	303.499	79.995	19.995	102.809	20.169	18.172	0.486
464.000	304.441	79.995	19.996	102.758	20.171	18.084	0.469
466.000	305.411	79.994	19.995	102.752	20.170	18.129	0.458
468.000	306.385	79.991	19.995	102.759	20.173	17.895	0.481
470.000	307.332	79.992	19.996	102.761	20.176	17.731	0.472
472.000	308.354	79.991	19.997	102.786	20.176	17.712	0.506
474.000	309.327	79.990	19.996	102.803	20.183	17.236	0.482
476.000	310.294	79.994	19.996	102.822	20.188	16.873	0.489
478.000	311.272	79.991	19.997	102.833	20.194	16.471	0.498
480.000	312.315	79.992	19.997	102.851	20.198	16.213	0.527
482.000	313.321	79.993	19.996	102.853	20.210	15.345	0.531
484.000	314.341	79.992	19.996	102.860	20.201	15.989	0.504
486.000	315.410	79.992	19.996	102.866	20.204	15.760	0.552
488.000	316.362	79.992	19.995	102.860	20.209	15.430	0.502
490.000	317.361	79.993	19.996	102.863	20.212	15.231	0.502
492.000	318.440	79.992	19.995	102.865	20.208	15.507	0.535
494.000	319.403	79.992	19.995	102.862	20.212	15.181	0.441
496.000	320.424	79.993	19.996	102.865	20.222	14.485	0.476
498.000	321.548	79.993	19.995	102.862	20.223	14.463	0.597
500.000	322.566	79.992	19.995	102.866	20.233	13.726	0.562
502.000	323.474	79.992	19.996	102.861	20.237	13.430	0.475
504.000	324.703	79.991	19.996	102.857	20.228	14.085	0.625
506.000	325.427	79.992	19.996	102.851	20.228	14.062	0.287
508.000	326.522	79.992	19.995	102.852	20.233	13.707	0.126
510.000	327.522	79.992	19.995	102.833	20.237	13.476	0.177
512.000	328.697	79.993	19.994	102.832	20.237	13.437	0.518
514.000	329.759	79.993	19.995	102.827	20.239	13.288	0.461
516.000	330.832	79.995	19.994	102.827	20.248	12.723	0.466
518.000	331.871	79.995	19.995	102.827	20.243	13.007	0.527
520.000	332.967	79.994	19.994	102.817	20.250	12.570	0.506
522.000	333.992	79.993	19.995	102.810	20.245	12.889	0.544
524.000	335.069	79.992	19.993	102.797	20.250	12.577	0.542
526.000	336.157	79.994	19.994	102.796	20.251	12.495	0.563
528.000	337.202	79.993	19.994	102.790	20.252	12.395	0.549
530.000	338.246	79.994	19.995	102.787	20.254	12.245	0.507
532.000	339.294	79.995	19.995	102.773	20.252	12.422	0.539
534.000	340.343	79.994	19.995	102.772	20.256	12.106	0.510
536.000	341.453	79.994	19.996	102.771	20.259	11.944	0.526
538.000	342.479	79.995	19.994	102.763	20.256	12.100	0.529
540.000	343.489	79.995	19.996	102.769	20.260	11.855	0.482
542.000	344.511	79.996	19.995	102.771	20.259	11.926	0.532
544.000	345.551	79.995	19.995	102.758	20.261	11.799	0.501
546.000	346.555	79.995	19.995	102.760	20.266	11.439	0.476
548.000	347.602	79.992	19.995	102.771	20.267	11.391	0.483
550.000	348.616	79.992	19.995	102.775	20.270	11.133	0.500
552.000	349.672	79.993	19.995	102.784	20.272	11.022	0.522
554.000	350.686	79.992	19.995	102.788	20.272	11.003	0.510
556.000	351.700	79.991	19.995	102.786	20.270	11.136	0.509
558.000	352.758	79.990	19.995	102.799	20.279	10.522	0.533
560.000	353.797	79.992	19.996	102.800	20.280	10.472	0.487
562.000	354.788	79.991	19.996	102.792	20.282	10.316	0.487
564.000	355.824	79.992	19.995	102.818	20.282	10.304	0.509
566.000	356.850	79.992	19.996	102.827	20.284	10.157	0.491
568.000	357.902	79.993	19.996	102.831	20.289	9.833	0.562
570.000	358.848	79.992	19.996	102.841	20.289	9.860	0.472
572.000	359.939	79.992	19.996	102.832	20.299	9.156	0.533
574.000	360.941	79.993	19.995	102.847	20.298	9.188	0.527
576.000	361.965	79.993	19.995	102.856	20.292	9.656	0.552
578.000	362.951	79.992	19.995	102.864	20.295	9.422	0.509
580.000	363.945	79.992	19.994	102.861	20.292	9.596	0.509
582.000	364.974	79.991	19.994	102.867	20.293	9.540	0.491
584.000	365.978	79.991	19.995	102.873	20.304	8.818	0.494
586.000	366.965	79.991	19.994	102.871	20.298	9.198	0.486
588.000	367.961	79.992	19.995	102.874	20.309	8.414	0.480
590.000	369.028	79.993	19.995	102.871	20.296	9.327	0.540
592.000	370.010	79.993	19.995	102.875	20.296	9.355	0.473
594.000	371.089	79.994	19.995	102.870	20.300	9.105	0.547
596.000	372.001	79.996	19.994	102.877	20.296	9.372	0.526
598.000	372.999	79.994	19.995	102.884	20.297	9.257	0.532
600.000	374.035	79.994	19.994	102.897	20.301	8.988	0.529
602.000	374.970	79.993	19.994	102.894	20.300	9.047	0.444
604.000	375.996	79.993	19.995	102.870	20.297	9.284	0.557
606.000	377.008	79.993	19.995	102.888	20.295	9.437	0.531
608.000	378.023	79.995	19.995	102.897	20.292	9.599	0.505
610.000	378.984	79.993	19.995	102.888	20.291	9.683	0.507
612.000	380.042	79.994	19.995	102.900	20.296	9.324	0.541
614.000	381.003	79.994	19.995	102.892	20.289	9.816	0.495
616.000	382.009	79.993	19.995	102.900	20.288	9.882	0.477
618.000	383.033	79.995	19.995	102.890	20.287	10.000	0.515
620.000	384.013	79.995	19.995	102.894	20.282	10.360	0.483
622.000	384.998	79.996	19.994	102.903	20.287	10.002	0.499
624.000	386.035	79.994	19.995	102.894	20.279	10.531	0.525
626.000	387.042	79.996	19.995	102.889	20.275	10.828	0.514
628.000	388.074	79.994	19.995	102.899	20.276	10.742	0.509
630.000	389.030	79.992	19.995	102.894	20.271	11.108	0.480
632.000	390.031	79.993	19.996	102.896	20.266	11.476	0.488
634.000	391.060	79.992	19.996	102.887	20.263	11.657	0.473
636.000	392.105	79.992	19.996	102.892	20.261	11.804	0.523
638.000	393.090	79.993	19.995	102.886	20.262	11.709	0.516
640.000	394.122	79.993	19.996	102.897	20.257	12.096	0.546
642.000	395.178	79.995	19.995	102.880	20.236	13.558	0.534
644.000	396.218	79.993	19.995	102.878	20.233	13.755	0.506
646.000	397.200	79.993	19.995	102.895	20.228	14.112	0.512
648.000	398.196	79.993	19.995	102.887	20.221	14.596	0.516
650.000	399.197	79.992	19.996	102.882	20.216	14.933	0.516
652.000	400.214	79.992	19.996	102.891	20.208	15.495	0.508
654.000	401.219	79.992	19.995	102.898	20.203	15.863	0.481
656.000	402.202	79.992	19.996	102.886	20.197	16.295	0.494
658.000	403.240	79.993	19.996	102.893	20.187	16.924	0.524
660.000	404.222	79.992	19.996	102.898	20.178	17.574	0.466
662.000	405.274	79.992	19.997	102.885	20.171	18.089	0.521
664.000	406.318	79.992	19.995	102.880	20.163	18.604	0.514
666.000	407.302	79.991	19.996	102.889	20.151	19.434	0.521
668.000	408.311	79.992	19.996	102.882	20.143	19.994	0.526
670.000	409.313	79.995	19.995	102.886	20.129	20.987	0.505
672.000	410.302	79.995	19.995	102.874	20.121	21.527	0.509
674.000	411.332	79.994	19.995	102.877	20.107	22.553	0.497
676.000	412.314	79.995	19.995	102.879	20.096	23.314	0.484
678.000	413.329	79.994	19.995	102.873	20.083	24.244	0.516
680.000	414.298	79.996	19.995	102.888	20.071	25.080	0.461
682.000	415.312	79.995	19.994	102.883	20.060	25.823	0.509
684.000	416.330	79.994	19.994	102.874	20.041	27.119	0.542
686.000	417.304	79.995	19.995	102.875	20.028	28.059	0.503
688.000	418.305	79.994	19.996	102.876	20.014	29.020	0.499
690.000	419.273	79.994	19.995	102.869	19.997	30.227	0.476
692.000	420.242	79.993	19.994	102.870	19.981	31.345	0.473
694.000	421.267	79.993	19.995	102.871	19.963	32.602	0.526
696.000	422.190	79.993	19.995	102.870	19.946	33.791	0.479
698.000	423.161	79.995	19.996	102.870	19.924	35.330	0.474
700.000	424.138	79.995	19.996	102.869	19.905	36.641	0.479
702.000	425.083	79.995	19.994	102.872	19.884	38.132	0.485
704.000	426.048	79.995	19.995	102.874	19.864	39.489	0.493
706.000	427.028	79.994	19.994	102.877	19.845	40.829	0.494
708.000	427.985	79.994	19.995	102.870	19.828	41.985	0.460
710.000	428.985	79.993	19.995	102.877	19.804	43.665	0.489
712.000	429.940	79.994	19.995	102.875	19.783	45.152	0.467
714.000	430.914	79.993	19.995	102.884	19.764	46.489	0.492
716.000	431.910	79.992	19.995	102.894	19.746	47.738	0.485
718.000	432.924	79.993	19.996	102.873	19.724	49.264	0.517
720.000	433.920	79.994	19.995	102.878	19.706	50.523	0.521
722.000	434.946	79.993	19.995	102.874	19.684	52.060	0.486
724.000	435.959	79.994	19.997	102.875	19.666	53.324	0.506
726.000	436.949	79.992	19.996	102.870	19.644	54.861	0.470
728.000	437.950	79.994	19.995	102.867	19.623	56.285	0.505
730.000	438.979	79.994	19.995	102.869	19.605	57.578	0.470
732.000	439.986	79.994	19.995	102.879	19.584	59.026	0.488
734.000	441.045	79.995	19.995	102.881	19.566	60.255	0.510
736.000	442.043	79.994	19.995	102.875	19.545	61.759	0.501
738.000	443.022	79.994	19.996	102.875	19.525	63.138	0.510
740.000	444.063	79.994	19.995	102.870	19.506	64.465	0.501
742.000	445.041	79.992	19.996	102.868	19.490	65.597	0.480
744.000	446.038	79.993	19.996	102.868	19.472	66.826	0.499
746.000	447.039	79.993	19.996	102.875	19.455	68.038	0.493
748.000	448.070	79.992	19.996	102.876	19.436	69.333	0.501
750.001	449.067	79.993	19.997	102.877	19.421	70.391	0.510
752.000	450.063	79.993	19.996	102.869	19.409	71.221	0.524
754.000	451.067	79.994	19.995	102.866	19.405	71.488	0.500
756.000	452.086	79.995	19.995	102.864	19.407	71.397	0.509
758.000	453.042	79.994	19.996	102.868	19.407	71.356	0.518
760.000	454.099	79.994	19.995	102.870	19.413	70.984	0.534
762.000	455.122	79.996	19.994	102.877	19.422	70.363	0.554
764.000	456.158	79.995	19.994	102.871	19.436	69.336	0.528
766.000	457.168	79.995	19.995	102.869	19.457	67.919	0.495
768.000	458.190	79.995	19.994	102.868	19.484	66.029	0.516
770.000	459.248	79.993	19.994	102.877	19.510	64.239	0.514
772.000	460.307	79.993	19.995	102.886	19.544	61.830	0.518
774.000	461.373	79.994	19.994	102.883	19.569	60.049	0.524
776.000	462.374	79.993	19.994	102.899	19.585	58.969	0.461
778.000	463.421	79.993	19.995	102.910	19.597	58.104	0.516
780.000	464.406	79.995	19.994	102.905	19.607	57.405	0.518
782.000	465.463	79.994	19.994	102.879	19.618	56.661	0.528
784.000	466.503	79.995	19.995	102.851	19.649	54.502	0.511
786.000	467.528	79.994	19.995	102.834	19.672	52.904	0.522
788.000	468.531	79.995	19.994	102.850	19.687	51.821	0.512
790.000	469.580	79.994	19.994	102.885	19.693	51.413	0.488
792.000	470.628	79.993	19.996	102.905	19.705	50.581	0.546
794.000	471.663	79.994	19.995	102.887	19.721	49.484	0.513
796.000	472.642	79.993	19.994	102.853	19.743	47.930	0.490
798.000	473.720	79.994	19.994	102.845	19.754	47.174	0.536
800.000	474.798	79.993	19.995	102.882	19.762	46.614	0.532
802.000	475.881	79.993	19.995	102.888	19.767	46.261	0.555
804.000	476.888	79.994	19.995	102.874	19.769	46.124	0.506
806.000	477.972	79.994	19.996	102.868	19.771	45.941	0.545
808.000	479.043	79.993	19.995	102.867	19.770	46.043	0.529
810.000	480.107	79.993	19.995	102.864	19.773	45.858	0.543
812.000	481.202	79.993	19.995	102.851	19.776	45.622	0.548
814.000	482.257	79.993	19.996	102.832	19.784	45.086	0.531
816.000	483.332	79.993	19.996	102.837	19.789	44.733	0.508
818.000	484.396	79.992	19.996	102.860	19.793	44.409	0.521
820.000	485.466	79.992	19.995	102.867	19.802	43.837	0.532
822.000	486.537	79.991	19.996	102.859	19.802	43.811	0.515
824.000	487.631	79.993	19.996	102.854	19.808	43.401	0.515
826.000	488.698	79.992	19.995	102.865	19.819	42.616	0.540
828.000	489.769	79.992	19.995	102.845	19.830	41.846	0.540
830.000	490.856	79.991	19.995	102.849	19.841	41.073	0.519
832.000	491.906	79.993	19.995	102.862	19.852	40.334	0.537
834.000	492.946	79.991	19.994	102.864	19.862	39.636	0.515
836.000	494.018	79.993	19.996	102.863	19.872	38.914	0.543
838.000	495.129	79.993	19.995	102.863	19.889	37.727	0.544
840.000	496.207	79.994	19.995	102.847	19.906	36.523	0.514
842.000	497.246	79.990	19.996	102.851	19.921	35.505	0.528
844.000	498.279	79.992	19.995	102.865	19.934	34.586	0.519
846.000	499.324	79.993	19.996	102.859	19.951	33.443	0.484
848.000	500.405	79.993	19.996	102.861	19.969	32.140	0.533
850.000	501.450	79.992	19.995	102.845	19.982	31.224	0.519
852.000	502.517	79.994	19.995	102.836	19.997	30.230	0.519
854.000	503.577	79.993	19.995	102.852	20.015	28.973	0.535
856.000	504.620	79.995	19.995	102.853	20.026	28.197	0.516
858.000	505.691	79.995	19.995	102.836	20.042	27.035	0.525
860.000	506.735	79.996	19.995	102.832	20.057	26.009	0.511
862.000	507.741	79.994	19.995	102.844	20.072	24.974	0.504
864.000	508.796	79.995	19.995	102.838	20.084	24.157	0.511
866.000	509.849	79.995	19.995	102.833	20.099	23.112	0.510
868.000	510.846	79.996	19.994	102.831	20.114	22.061	0.512
870.000	511.849	79.995	19.995	102.828	20.128	21.057	0.492
872.000	512.871	79.994	19.996	102.837	20.135	20.542	0.498
874.000	513.911	79.994	19.996	102.835	20.148	19.696	0.518
876.000	514.974	79.994	19.995	102.828	20.162	18.697	0.501
878.000	516.000	79.993	19.994	102.832	20.170	18.134	0.542
880.000	517.048	79.993	19.995	102.829	20.179	17.480	0.498
882.000	518.135	79.993	19.995	102.830	20.190	16.707	0.527
884.000	519.194	79.994	19.995	102.829	20.200	16.028	0.532
886.000	520.176	79.994	19.995	102.832	20.209	15.396	0.515
888.000	521.231	79.993	19.995	102.835	20.222	14.526	0.537
890.000	522.258	79.993	19.995	102.830	20.229	14.021	0.525
892.000	523.259	79.994	19.994	102.830	20.238	13.368	0.528
894.000	524.287	79.994	19.994	102.832	20.247	12.740	0.522
896.000	525.327	79.993	19.995	102.830	20.252	12.385	0.500
898.000	526.314	79.993	19.995	102.830	20.261	11.796	0.522
900.000	527.373	79.993	19.996	102.829	20.262	11.739	0.522
902.000	528.360	79.992	19.997	102.831	20.273	10.956	0.515
904.000	529.388	79.991	19.995	102.832	20.281	10.388	0.486
906.000	530.374	79.991	19.996	102.831	20.285	10.131	0.524
908.000	531.409	79.992	19.995	102.827	20.287	9.949	0.487
910.000	532.434	79.991	19.996	102.830	20.295	9.410	0.492
912.000	533.451	79.994	19.996	102.824	20.301	8.988	0.498
914.000	534.470	79.994	19.995	102.828	20.304	8.810	0.536
916.000	535.499	79.995	19.995	102.826	20.305	8.684	0.531
918.000	536.531	79.995	19.995	102.830	20.311	8.321	0.518
920.000	537.478	79.994	19.996	102.825	20.318	7.824	0.490
922.000	538.489	79.993	19.996	102.826	20.320	7.693	0.517
924.000	539.483	79.994	19.996	102.824	20.321	7.621	0.466
926.000	540.540	79.994	19.996	102.825	20.324	7.416	0.517
928.000	541.522	79.993	19.996	102.818	20.328	7.081	0.502
930.000	542.509	79.992	19.996	102.820	20.332	6.853	0.474
932.000	543.538	79.994	19.996	102.822	20.335	6.592	0.502
934.000	544.541	79.993	19.997	102.821	20.335	6.604	0.543
936.000	545.540	79.994	19.996	102.824	20.339	6.341	0.498
938.000	546.529	79.995	19.995	102.819	20.345	5.901	0.534
940.000	547.566	79.995	19.995	102.823	20.344	6.015	0.544
942.000	548.552	79.994	19.996	102.809	20.346	5.866	0.521
944.000	549.579	79.997	19.995	102.817	20.346	5.829	0.521
946.000	550.633	79.995	19.995	102.819	20.352	5.448	0.529
948.000	551.612	79.995	19.996	102.822	20.348	5.740	0.484
950.000	552.605	79.994	19.995	102.828	20.351	5.508	0.516
952.000	553.640	79.994	19.995	102.828	20.355	5.251	0.496
954.000	554.674	79.991	19.995	102.820	20.357	5.085	0.514
956.000	555.660	79.993	19.995	102.823	20.358	5.000	0.504
958.000	556.717	79.993	19.995	102.828	20.361	4.841	0.527
960.000	557.704	79.993	19.996	102.831	20.357	5.100	0.506
962.000	558.754	79.991	19.995	102.817	20.362	4.774	0.534
964.000	559.753	79.993	19.996	102.825	20.363	4.669	0.497
966.000	560.799	79.993	19.994	102.831	20.364	4.584	0.511
968.000	561.828	79.994	19.995	102.823	20.355	5.206	0.515
970.000	562.896	79.993	19.995	102.829	20.362	4.733	0.525
972.000	563.870	79.993	19.994	102.828	20.365	4.552	0.495
974.000	564.875	79.992	19.994	102.830	20.361	4.803	0.484
976.000	565.875	79.993	19.994	102.829	20.364	4.601	0.456
978.000	566.909	79.995	19.996	102.823	20.368	4.310	0.512
980.000	567.913	79.993	19.994	102.827	20.367	4.359	0.503
982.000	568.922	79.993	19.995	102.808	20.367	4.379	0.497
984.000	569.882	79.992	19.994	102.822	20.371	4.112	0.481
986.000	570.891	79.994	19.996	102.829	20.371	4.116	0.502
988.000	571.937	79.992	19.994	102.827	20.366	4.456	0.513
990.000	572.946	79.991	19.994	102.821	20.370	4.162	0.500
992.000	574.043	79.991	19.995	102.824	20.371	4.146	0.499
994.000	575.036	79.993	19.995	102.825	20.373	3.975	0.494
996.000	576.096	79.995	19.995	102.824	20.373	3.951	0.514
998.000	577.049	79.994	19.996	102.825	20.372	4.025	0.482
1000.000	578.105	79.995	19.995	102.824	20.369	4.226	0.521
1002.000	579.061	79.994	19.996	102.810	20.373	3.957	0.512
1004.000	580.091	79.994	19.996	102.812	20.369	4.255	0.516
1006.000	581.083	79.992	19.996	102.807	20.376	3.780	0.504
1008.000	582.101	79.993	19.994	102.810	20.373	4.002	0.545
1010.000	583.108	79.994	19.996	102.819	20.375	3.820	0.518
1012.000	584.115	79.993	19.996	102.810	20.375	3.820	0.522
1014.000	585.092	79.994	19.995	102.806	20.374	3.935	0.486
1016.000	586.133	79.994	19.996	102.820	20.375	3.839	0.507
1018.000	587.095	79.995	19.995	102.819	20.374	3.872	0.511
1020.000	588.083	79.995	19.996	102.820	20.374	3.938	0.486
1022.000	589.112	79.994	19.995	102.812	20.374	3.882	0.522
1024.000	590.087	79.994	19.996	102.801	20.375	3.841	0.481
1026.000	591.114	79.993	19.994	102.800	20.374	3.890	0.511
1028.000	592.127	79.995	19.995	102.808	20.378	3.611	0.521
1030.001	593.101	79.994	19.996	102.814	20.375	3.847	0.484
1032.000	594.116	79.991	19.995	102.818	20.375	3.826	0.473
1034.000	595.165	79.991	19.994	102.822	20.378	3.639	0.522
1036.000	596.179	79.992	19.996	102.821	20.377	3.720	0.523
1038.001	597.158	79.993	19.996	102.822	20.374	3.915	0.528
1040.000	598.172	79.993	19.996	102.819	20.372	4.062	0.493
1042.000	599.175	79.993	19.995	102.821	20.381	3.422	0.497
1044.000	600.179	79.992	19.995	102.824	20.377	3.719	0.538
1046.000	601.206	79.993	19.995	102.824	20.374	3.919	0.532
1048.000	602.189	79.993	19.996	102.817	20.376	3.783	0.508
1050.000	603.193	79.994	19.995	102.819	20.378	3.661	0.501
1052.000	604.206	79.993	19.995	102.818	20.376	3.793	0.504
1054.000	605.208	79.993	19.995	102.815	20.371	4.083	0.503
1056.000	606.226	79.993	19.996	102.818	20.379	3.567	0.488
1058.000	607.263	79.994	19.994	102.821	20.380	3.507	0.525
1060.000	608.234	79.993	19.996	102.814	20.379	3.561	0.474
1062.001	609.243	79.993	19.996	102.812	20.383	3.267	0.503
1064.000	610.260	79.994	19.995	102.804	20.383	3.276	0.505
1066.000	611.280	79.994	19.995	102.815	20.378	3.601	0.511
1068.000	612.255	79.992	19.995	102.812	20.383	3.285	0.505
1070.000	613.314	79.993	19.995	102.812	20.382	3.354	0.520
1072.000	614.342	79.994	19.995	102.816	20.380	3.485	0.518
1074.000	615.328	79.992	19.995	102.813	20.387	2.988	0.498
1076.000	616.396	79.995	19.995	102.804	20.378	3.629	0.528
1078.000	617.363	79.995	19.995	102.824	20.381	3.428	0.496
1080.000	618.400	79.995	19.995	102.808	20.381	3.387	0.503
1082.000	619.386	79.996	19.996	102.813	20.386	3.037	0.502
1084.000	620.400	79.996	19.996	102.807	20.384	3.205	0.520
1086.000	621.394	79.993	19.995	102.813	20.385	3.116	0.494
1088.000	622.440	79.992	19.996	102.823	20.382	3.364	0.517
1090.001	623.464	79.993	19.996	102.819	20.386	3.095	0.527
1092.000	624.498	79.993	19.996	102.807	20.384	3.239	0.531
1094.000	625.481	79.995	19.995	102.800	20.382	3.313	0.524
1096.000	626.493	79.993	19.995	102.802	20.381	3.414	0.497
1098.000	627.511	79.995	19.994	102.818	20.382	3.375	0.502
1100.000	628.536	79.994	19.995	102.814	20.382	3.346	0.512
1102.000	629.537	79.994	19.994	102.805	20.382	3.377	0.490
1104.000	630.549	79.996	19.994	102.801	20.383	3.296	0.487
1106.000	631.538	79.996	19.995	102.822	20.385	3.121	0.492
1108.000	632.598	79.996	19.994	102.807	20.385	3.162	0.501
1110.000	633.604	79.995	19.996	102.799	20.380	3.472	0.476
1112.000	634.656	79.995	19.996	102.813	20.385	3.133	0.528
1114.000	635.677	79.993	19.997	102.815	20.382	3.331	0.508
1116.000	636.689	79.993	19.995	102.800	20.386	3.091	0.509
1118.000	637.702	79.992	19.996	102.798	20.383	3.263	0.518
1120.000	638.725	79.992	19.996	102.811	20.380	3.460	0.505
1122.000	639.731	79.994	19.996	102.799	20.385	3.162	0.520
1124.000	640.743	79.993	19.996	102.801	20.377	3.665	0.504
1126.000	641.770	79.993	19.997	102.805	20.381	3.387	0.537
1128.000	642.848	79.994	19.995	102.797	20.384	3.174	0.524
1130.000	643.859	79.996	19.996	102.796	20.380	3.491	0.517
1132.000	644.853	79.995	19.996	102.804	20.383	3.276	0.527
1134.000	645.877	79.994	19.995	102.802	20.382	3.317	0.515
1136.000	646.876	79.994	19.994	102.808	20.386	3.041	0.519
1138.000	647.930	79.994	19.994	102.797	20.383	3.310	0.525
1140.001	648.964	79.994	19.994	102.805	20.386	3.100	0.514
1142.000	650.036	79.993	19.995	102.807	20.385	3.104	0.536
1144.000	651.093	79.993	19.995	102.805	20.386	3.069	0.521
1146.000	652.103	79.992	19.995	102.810	20.384	3.180	0.523
1148.000	653.131	79.992	19.994	102.823	20.391	2.714	0.486
1150.000	654.168	79.994	19.996	102.805	20.384	3.239	0.509
1152.000	655.205	79.994	19.995	102.798	20.388	2.961	0.518
1154.000	656.244	79.993	19.995	102.798	20.381	3.425	0.506
1156.000	657.243	79.993	19.995	102.802	20.385	3.122	0.477
1158.000	658.249	79.993	19.994	102.807	20.381	3.394	0.539
1160.000	659.261	79.994	19.994	102.794	20.388	2.926	0.504
1162.000	660.245	79.995	19.995	102.801	20.386	3.046	0.503
1164.000	661.193	79.995	19.995	102.797	20.382	3.329	0.434
1166.000	662.226	79.995	19.994	102.800	20.386	3.102	0.510
1168.000	663.219	79.992	19.994	102.806	20.388	2.926	0.485
1170.000	664.165	79.994	19.995	102.795	20.387	3.005	0.494
1172.001	665.185	79.994	19.993	102.796	20.384	3.203	0.505
1174.000	666.185	79.993	19.994	102.818	20.389	2.893	0.513
1176.000	667.199	79.994	19.994	102.801	20.387	2.980	0.492
1178.001	668.209	79.993	19.994	102.797	20.388	2.961	0.524
1180.000	669.163	79.994	19.994	102.794	20.386	3.046	0.485
1182.001	670.188	79.995	19.995	102.794	20.384	3.230	0.503
1184.000	671.178	79.995	19.994	102.789	20.383	3.307	0.478
1186.000	672.174	79.994	19.994	102.791	20.388	2.899	0.477
1188.000	673.165	79.996	19.996	102.790	20.384	3.189	0.475
1190.000	674.188	79.996	19.997	102.801	20.383	3.284	0.511
1192.000	675.201	79.996	19.995	102.788	20.379	3.533	0.503
1194.000	676.179	79.994	19.995	102.795	20.384	3.239	0.486
1196.000	677.175	79.994	19.995	102.794	20.385	3.166	0.512
1198.000	678.182	79.993	19.994	102.789	20.383	3.305	0.533
1200.000	679.191	79.992	19.995	102.808	20.386	3.061	0.519
1202.000	680.196	79.994	19.995	102.801	20.381	3.444	0.509
1204.000	681.234	79.992	19.996	102.796	20.383	3.297	0.491
1206.000	682.215	79.993	19.996	102.793	20.384	3.210	0.502
1208.000	683.227	79.993	19.996	102.797	20.381	3.383	0.492
1210.000	684.263	79.993	19.996	102.790	20.384	3.177	0.523
1212.000	685.296	79.991	19.995	102.794	20.380	3.452	0.534
1214.000	686.282	79.993	19.996	102.792	20.380	3.510	0.478
1216.000	687.287	79.992	19.996	102.799	20.383	3.295	0.496
1218.000	688.301	79.992	19.995	102.791	20.385	3.120	0.514
1220.000	689.358	79.992	19.996	102.804	20.380	3.475	0.551
1222.000	690.333	79.995	19.996	102.792	20.384	3.201	0.492
1224.000	691.347	79.992	19.994	102.796	20.385	3.104	0.497
1226.000	692.336	79.992	19.994	102.797	20.391	2.729	0.484
1228.000	693.338	79.992	19.993	102.803	20.379	3.547	0.501
1230.000	694.336	79.992	19.995	102.803	20.379	3.549	0.493
1232.000	695.368	79.993	19.997	102.793	20.381	3.413	0.513
1234.000	696.415	79.992	19.994	102.802	20.384	3.228	0.516
1236.000	697.439	79.994	19.995	102.796	20.381	3.384	0.518
1238.000	698.441	79.993	19.995	102.804	20.380	3.481	0.496
1240.000	699.476	79.995	19.995	102.797	20.383	3.278	0.517
1242.000	700.477	79.996	19.995	102.793	20.379	3.566	0.493
1244.000	701.501	79.995	19.994	102.804	20.381	3.434	0.510
1246.000	702.511	79.993	19.995	102.805	20.380	3.496	0.519
1248.000	703.504	79.995	19.994	102.788	20.384	3.220	0.517
1250.001	704.511	79.994	19.997	102.788	20.381	3.403	0.498
1252.000	705.508	79.993	19.996	102.790	20.381	3.398	0.498
1254.000	706.525	79.994	19.995	102.789	20.380	3.496	0.514
1256.000	707.530	79.993	19.996	102.787	20.380	3.456	0.499
1258.000	708.582	79.993	19.993	102.788	20.388	2.961	0.520
1260.000	709.557	79.993	19.995	102.791	20.385	3.129	0.482
1262.000	710.580	79.994	19.993	102.790	20.382	3.374	0.510
1264.000	711.545	79.996	19.996	102.791	20.380	3.504	0.501
1266.000	712.583	79.994	19.995	102.791	20.383	3.290	0.517
1268.000	713.545	79.994	19.993	102.789	20.384	3.179	0.489
1270.000	714.522	79.994	19.994	102.789	20.381	3.396	0.471
1272.000	715.538	79.995	19.997	102.793	20.387	2.992	0.532
1274.000	716.527	79.993	19.994	102.790	20.384	3.218	0.483
1276.000	717.530	79.993	19.995	102.790	20.384	3.195	0.452
1278.000	718.523	79.992	19.995	102.793	20.386	3.100	0.494
1280.001	719.526	79.993	19.996	102.792	20.382	3.363	0.510
1282.000	720.482	79.993	19.994	102.791	20.382	3.349	0.463
1284.000	721.481	79.992	19.996	102.793	20.379	3.558	0.482
1286.000	722.521	79.993	19.996	102.793	20.381	3.435	0.495
1288.001	723.501	79.993	19.996	102.793	20.380	3.487	0.491
1290.000	724.490	79.993	19.995	102.786	20.381	3.382	0.466
1292.000	725.505	79.991	19.994	102.795	20.380	3.477	0.504
1294.000	726.513	79.992	19.994	102.793	20.374	3.902	0.522
1296.000	727.506	79.992	19.995	102.790	20.381	3.409	0.543
1298.000	728.503	79.993	19.996	102.799	20.380	3.490	0.509
1300.000	729.480	79.994	19.996	102.789	20.377	3.728	0.488
1302.000	730.467	79.994	19.996	102.788	20.380	3.516	0.520
1304.000	731.495	79.993	19.996	102.787	20.378	3.643	0.529
1306.000	732.517	79.993	19.994	102.786	20.379	3.544	0.511
1308.000	733.561	79.990	19.995	102.790	20.380	3.506	0.497
1310.000	734.531	79.993	19.996	102.789	20.380	3.454	0.512
1312.000	735.504	79.993	19.996	102.790	20.372	4.031	0.482
1314.000	736.480	79.994	19.997	102.792	20.379	3.587	0.476
1316.000	737.470	79.992	19.995	102.790	20.381	3.397	0.526
1318.000	738.476	79.992	19.995	102.789	20.380	3.461	0.483
1320.000	739.510	79.993	19.994	102.788	20.377	3.665	0.519
1322.000	740.518	79.995	19.994	102.787	20.376	3.776	0.483
1324.000	741.538	79.995	19.995	102.787	20.372	4.030	0.507
1326.000	742.531	79.995	19.994	102.786	20.378	3.657	0.478
1328.000	743.572	79.996	19.994	102.785	20.374	3.896	0.518