File: 01_Data/PVC_R06/MCC/PVC_R06_MCC_30K_min_211014_R1.txt
Sample ID:	C:\MCC\MCC Cal\Test\PVC_R06_MCC_30K_min_211014_R1.txt
Sample Weight (mg):	4.8
Heating Rate (C/s):	0.5
Combustor Temp (C):	900
N2 Flow Rate (cc/min):	80
O2 Flow Rate (cc/min):	20
Calibration File:	C:\MCC\MCC Cal\Coeff1 JN10440_30_210304.txt.txt
T Correction Coefficients:	0	1.024463	0
Time Shift (s):	14
*
Time (s)	Temperature (C)	N2 flow rate (cc/min)	O2 flow rate (cc/min)	Flow Rate (cc/min)	Oxygen (%)	HRR (W/g)	Heating rate (C/s)
0.000	107.192	79.993	19.998	102.703	20.322	-0.176	0.004
2.000	107.225	79.992	19.999	102.716	20.317	0.154	0.033
4.000	107.179	79.994	19.996	102.709	20.321	-0.087	-0.037
6.000	107.157	79.994	19.997	102.714	20.319	0.020	-0.026
8.000	107.181	79.995	19.996	102.720	20.316	0.248	0.021
10.000	107.206	79.992	19.997	102.727	20.316	0.221	-0.006
12.000	107.221	79.993	19.997	102.733	20.310	0.641	-0.011
14.000	107.247	79.992	19.997	102.766	20.311	0.552	0.057
16.000	107.264	79.994	19.995	102.785	20.308	0.721	-0.005
18.000	107.297	79.994	19.996	102.808	20.306	0.864	0.025
20.000	107.412	79.993	19.995	102.847	20.302	1.160	0.038
22.000	107.526	79.994	19.995	102.855	20.300	1.302	0.051
24.000	107.666	79.993	19.996	102.857	20.300	1.295	0.096
26.000	107.803	79.993	19.997	102.863	20.298	1.445	0.086
28.000	108.001	79.994	19.995	102.842	20.293	1.734	0.069
30.000	108.212	79.995	19.996	102.822	20.296	1.584	0.142
32.000	108.439	79.993	19.997	102.810	20.304	1.023	0.133
33.999	108.659	79.996	19.996	102.817	20.299	1.381	0.137
35.999	108.851	79.993	19.998	102.806	20.300	1.272	0.106
38.000	109.111	79.995	19.997	102.815	20.299	1.327	0.107
39.999	109.303	79.996	19.998	102.822	20.302	1.179	0.093
41.999	109.562	79.996	19.996	102.819	20.296	1.526	0.114
44.000	109.849	79.996	19.996	102.845	20.298	1.394	0.140
45.999	110.125	79.995	19.997	102.873	20.300	1.259	0.134
47.999	110.374	79.996	19.996	102.880	20.293	1.752	0.137
49.999	110.702	79.997	19.995	102.882	20.292	1.812	0.145
51.999	111.026	79.995	19.995	102.898	20.290	1.951	0.155
53.999	111.388	79.996	19.997	102.892	20.294	1.719	0.168
55.999	111.772	79.992	19.996	102.908	20.291	1.923	0.171
57.999	112.194	79.992	19.997	102.910	20.290	1.972	0.179
59.999	112.581	79.993	19.998	102.908	20.289	2.033	0.203
61.999	112.963	79.993	19.997	102.906	20.286	2.244	0.179
63.999	113.456	79.992	19.996	102.912	20.284	2.342	0.220
65.999	113.895	79.994	19.996	102.916	20.287	2.161	0.222
67.999	114.408	79.993	19.996	102.919	20.285	2.322	0.237
69.999	114.876	79.993	19.997	102.935	20.284	2.326	0.243
71.999	115.410	79.993	19.996	102.929	20.282	2.462	0.254
73.999	115.938	79.993	19.997	102.942	20.285	2.270	0.280
75.999	116.473	79.991	19.997	102.930	20.281	2.543	0.269
77.999	117.055	79.992	19.997	102.937	20.287	2.165	0.287
79.999	117.666	79.991	19.999	102.944	20.285	2.295	0.308
81.999	118.241	79.991	19.997	102.952	20.285	2.260	0.292
83.999	118.844	79.991	19.997	102.948	20.281	2.555	0.271
85.999	119.506	79.992	19.997	102.947	20.286	2.221	0.295
87.999	120.135	79.992	19.997	102.951	20.285	2.323	0.314
89.999	120.773	79.992	19.996	102.955	20.285	2.293	0.324
91.999	121.477	79.992	19.997	102.956	20.286	2.247	0.353
93.999	122.157	79.992	19.996	102.959	20.284	2.373	0.362
95.999	122.821	79.991	19.997	102.962	20.285	2.277	0.358
97.999	123.564	79.994	19.996	102.974	20.278	2.729	0.381
99.999	124.244	79.995	19.996	102.981	20.283	2.445	0.341
102.000	124.988	79.995	19.995	102.973	20.279	2.672	0.373
103.999	125.740	79.996	19.997	102.976	20.280	2.621	0.372
105.999	126.559	79.994	19.998	102.981	20.283	2.440	0.370
107.999	127.326	79.996	19.996	102.979	20.287	2.191	0.398
109.999	128.082	79.995	19.997	102.976	20.280	2.657	0.408
111.999	128.909	79.994	19.996	102.971	20.279	2.690	0.418
113.999	129.732	79.995	19.996	102.967	20.278	2.752	0.429
115.999	130.571	79.996	19.996	102.964	20.283	2.416	0.400
117.999	131.399	79.993	19.996	102.975	20.277	2.846	0.421
119.999	132.264	79.995	19.995	102.966	20.281	2.592	0.426
122.000	133.087	79.995	19.995	102.960	20.278	2.781	0.399
124.000	133.988	79.997	19.995	102.948	20.280	2.646	0.443
125.999	134.827	79.997	19.997	102.891	20.280	2.607	0.422
127.999	135.674	79.998	19.994	103.026	20.284	2.353	0.432
130.000	136.598	79.996	19.994	102.989	20.282	2.468	0.476
132.000	137.491	79.994	19.994	102.977	20.279	2.711	0.435
134.000	138.364	79.994	19.999	102.977	20.285	2.295	0.454
136.000	139.290	79.992	19.993	102.972	20.284	2.367	0.427
138.000	140.229	79.992	19.998	102.973	20.279	2.694	0.464
140.000	141.156	79.995	19.997	102.980	20.280	2.607	0.468
142.000	142.056	79.995	19.997	102.967	20.285	2.264	0.464
144.000	143.012	79.994	19.996	102.966	20.279	2.698	0.481
146.000	143.974	79.993	19.997	102.959	20.278	2.771	0.472
148.000	144.968	79.994	19.996	102.960	20.286	2.238	0.472
150.000	145.900	79.994	19.997	102.971	20.283	2.395	0.490
152.000	146.841	79.993	19.996	102.980	20.282	2.505	0.463
154.000	147.794	79.993	19.996	102.961	20.284	2.332	0.465
156.000	148.765	79.992	19.993	102.980	20.281	2.588	0.489
158.000	149.786	79.993	19.995	102.987	20.283	2.436	0.482
160.000	150.750	79.993	19.996	102.970	20.284	2.326	0.486
162.000	151.744	79.992	19.997	102.966	20.285	2.315	0.507
164.000	152.737	79.993	19.995	102.967	20.281	2.530	0.524
166.000	153.703	79.992	19.997	102.958	20.288	2.083	0.505
168.000	154.701	79.991	19.996	102.956	20.289	2.048	0.473
170.000	155.678	79.990	19.996	102.965	20.289	2.042	0.470
172.000	156.689	79.992	19.997	102.963	20.289	2.035	0.494
174.000	157.676	79.992	19.997	102.960	20.286	2.209	0.531
176.000	158.689	79.992	19.997	102.951	20.291	1.916	0.501
178.000	159.647	79.993	19.997	102.951	20.293	1.779	0.452
180.000	160.659	79.995	19.998	102.951	20.295	1.653	0.498
182.000	161.676	79.996	19.995	102.948	20.291	1.879	0.515
184.000	162.664	79.995	19.995	102.951	20.292	1.803	0.536
186.000	163.677	79.996	19.996	102.948	20.288	2.113	0.507
188.000	164.714	79.995	19.996	102.937	20.289	2.022	0.534
190.000	165.704	79.994	19.996	102.943	20.291	1.901	0.533
192.000	166.688	79.994	19.996	102.942	20.293	1.784	0.489
194.000	167.643	79.995	19.997	102.948	20.288	2.081	0.454
196.000	168.669	79.995	19.996	102.929	20.289	2.014	0.492
198.000	169.718	79.994	19.997	102.943	20.290	1.955	0.529
200.000	170.688	79.995	19.995	102.950	20.291	1.864	0.505
202.000	171.660	79.995	19.995	102.948	20.297	1.461	0.465
204.000	172.652	79.995	19.996	102.931	20.293	1.740	0.479
206.000	173.680	79.995	19.996	102.920	20.293	1.779	0.505
208.000	174.648	79.996	19.995	102.924	20.296	1.565	0.498
210.000	175.645	79.995	19.996	102.929	20.295	1.654	0.501
212.000	176.588	79.993	19.995	102.931	20.292	1.827	0.468
214.000	177.647	79.991	19.995	102.921	20.286	2.199	0.491
216.000	178.615	79.994	19.996	102.941	20.290	1.940	0.503
218.000	179.609	79.993	19.996	102.925	20.293	1.765	0.518
220.000	180.618	79.991	19.994	102.924	20.292	1.804	0.487
222.000	181.573	79.992	19.996	102.933	20.294	1.704	0.479
224.000	182.594	79.994	19.996	102.919	20.297	1.478	0.482
226.000	183.596	79.993	19.997	102.927	20.295	1.602	0.470
228.000	184.602	79.991	19.994	102.915	20.291	1.875	0.502
230.000	185.587	79.993	19.997	102.915	20.291	1.901	0.515
232.000	186.624	79.992	19.995	102.936	20.292	1.849	0.493
234.000	187.632	79.994	19.995	102.918	20.294	1.669	0.501
236.000	188.641	79.992	19.997	102.915	20.292	1.817	0.491
238.000	189.621	79.992	19.996	102.935	20.296	1.532	0.496
240.000	190.603	79.995	19.998	102.925	20.297	1.476	0.513
242.000	191.611	79.993	19.995	102.924	20.293	1.732	0.469
244.000	192.548	79.993	19.999	102.916	20.297	1.498	0.481
246.000	193.573	79.993	19.999	102.919	20.291	1.865	0.530
248.000	194.560	79.992	19.996	102.916	20.293	1.767	0.520
250.000	195.537	79.990	19.997	102.914	20.293	1.752	0.495
252.000	196.547	79.994	19.998	102.917	20.291	1.869	0.527
254.000	197.524	79.993	19.998	102.912	20.292	1.823	0.508
256.000	198.509	79.993	19.997	102.912	20.297	1.515	0.494
258.000	199.466	79.996	19.997	102.914	20.294	1.673	0.467
260.000	200.480	79.993	19.996	102.911	20.295	1.598	0.507
262.000	201.456	79.990	19.998	102.913	20.298	1.395	0.479
264.000	202.452	79.991	19.997	102.912	20.298	1.448	0.509
266.000	203.484	79.995	19.997	102.915	20.294	1.660	0.517
268.000	204.452	79.994	19.997	102.913	20.296	1.539	0.492
270.000	205.470	79.994	19.996	102.912	20.296	1.543	0.502
272.000	206.425	79.993	19.995	102.913	20.301	1.191	0.482
274.000	207.444	79.992	19.998	102.916	20.300	1.317	0.482
276.000	208.432	79.994	19.996	102.912	20.295	1.635	0.474
278.000	209.447	79.993	19.994	102.907	20.294	1.667	0.506
280.000	210.426	79.994	19.993	102.913	20.300	1.261	0.498
282.000	211.393	79.993	19.993	102.916	20.297	1.482	0.511
284.000	212.378	79.995	19.995	102.913	20.303	1.055	0.501
286.000	213.376	79.997	19.997	102.912	20.301	1.196	0.494
288.000	214.360	79.992	19.995	102.904	20.300	1.283	0.507
290.000	215.325	79.994	19.995	102.900	20.300	1.292	0.462
292.000	216.290	79.992	19.996	102.909	20.295	1.613	0.469
294.000	217.273	79.993	19.996	102.905	20.302	1.164	0.484
296.000	218.252	79.993	19.996	102.906	20.299	1.339	0.482
298.000	219.241	79.993	19.996	102.909	20.295	1.595	0.508
300.000	220.228	79.993	19.995	102.906	20.304	1.053	0.488
302.000	221.180	79.994	19.996	102.905	20.295	1.602	0.507
304.000	222.145	79.994	19.997	102.908	20.300	1.300	0.508
306.000	223.103	79.993	19.995	102.909	20.297	1.476	0.474
308.000	224.085	79.992	19.993	102.901	20.300	1.311	0.493
310.000	225.064	79.992	19.997	102.905	20.296	1.528	0.501
312.000	226.026	79.993	19.996	102.895	20.301	1.240	0.455
314.000	226.988	79.995	19.996	102.900	20.297	1.455	0.492
316.000	227.964	79.992	19.997	102.886	20.299	1.350	0.510
318.000	228.975	79.993	19.995	102.890	20.296	1.535	0.485
320.000	229.975	79.991	19.997	102.893	20.295	1.615	0.485
322.000	230.933	79.992	19.997	102.879	20.296	1.550	0.488
324.000	231.904	79.990	19.995	102.894	20.291	1.862	0.475
326.000	232.829	79.992	19.998	102.894	20.288	2.099	0.501
328.000	233.834	79.992	19.996	102.891	20.288	2.101	0.533
330.000	234.766	79.993	19.997	102.896	20.292	1.832	0.476
332.000	235.758	79.992	19.996	102.899	20.290	1.940	0.479
334.000	236.732	79.994	19.996	102.902	20.288	2.094	0.473
336.000	237.733	79.994	19.995	102.907	20.286	2.199	0.504
338.000	238.705	79.993	19.995	102.903	20.279	2.683	0.464
340.000	239.664	79.995	19.994	102.910	20.279	2.683	0.495
342.000	240.564	79.993	19.996	102.911	20.274	3.038	0.465
344.000	241.610	79.992	19.998	102.906	20.277	2.819	0.510
346.000	242.629	79.992	19.997	102.915	20.273	3.099	0.502
348.000	243.626	79.992	19.998	102.914	20.267	3.466	0.469
350.000	244.608	79.992	19.997	102.915	20.266	3.586	0.478
352.000	245.631	79.994	19.996	102.926	20.271	3.240	0.475
354.000	246.641	79.994	19.997	102.920	20.265	3.614	0.512
356.000	247.654	79.995	19.996	102.922	20.261	3.926	0.545
358.000	248.665	79.995	19.994	102.916	20.254	4.367	0.515
360.000	249.694	79.996	19.997	102.916	20.248	4.758	0.530
362.000	250.708	79.996	19.994	102.912	20.241	5.247	0.500
364.000	251.725	79.995	19.993	102.918	20.232	5.833	0.484
366.000	252.763	79.995	19.996	102.915	20.226	6.240	0.532
368.000	253.774	79.995	19.996	102.911	20.221	6.590	0.512
370.000	254.807	79.993	19.998	102.911	20.215	6.963	0.509
372.000	255.819	79.995	19.996	102.906	20.211	7.237	0.509
374.000	256.834	79.994	19.996	102.905	20.211	7.212	0.498
376.000	257.845	79.993	19.995	102.910	20.205	7.629	0.502
378.000	258.913	79.995	19.997	102.910	20.203	7.764	0.527
380.000	259.915	79.994	19.997	102.909	20.203	7.796	0.514
382.000	260.928	79.993	19.996	102.910	20.202	7.824	0.505
384.000	261.923	79.994	19.994	102.915	20.197	8.167	0.506
386.000	262.917	79.993	19.995	102.914	20.201	7.928	0.479
388.000	263.999	79.996	19.997	102.915	20.201	7.939	0.528
390.000	264.937	79.992	19.996	102.916	20.196	8.234	0.496
392.000	265.946	79.994	19.996	102.914	20.201	7.930	0.481
394.000	266.935	79.994	19.995	102.914	20.199	8.023	0.466
396.000	267.956	79.992	19.995	102.912	20.198	8.095	0.504
398.000	268.938	79.992	19.992	102.918	20.199	8.022	0.517
400.000	269.947	79.992	19.995	102.917	20.203	7.753	0.488
402.000	270.960	79.993	19.996	102.917	20.195	8.313	0.504
404.000	272.012	79.993	19.998	102.920	20.201	7.892	0.528
406.000	273.004	79.991	19.996	102.842	20.203	7.750	0.487
408.000	274.004	79.992	19.996	102.932	20.200	7.981	0.486
410.000	275.008	79.993	19.997	102.981	20.209	7.410	0.510
412.000	276.030	79.994	19.998	102.931	20.206	7.550	0.533
414.000	276.983	79.993	19.996	102.919	20.213	7.110	0.472
416.000	278.023	79.993	19.996	102.915	20.215	7.001	0.508
418.000	278.985	79.995	19.995	102.922	20.211	7.243	0.490
420.000	280.030	79.994	19.997	102.936	20.204	7.683	0.510
422.000	281.019	79.993	19.995	102.947	20.211	7.243	0.518
424.000	281.969	79.994	19.997	102.950	20.209	7.374	0.483
426.000	283.038	79.993	19.995	102.950	20.204	7.726	0.526
428.000	284.014	79.992	19.999	102.954	20.204	7.700	0.481
430.000	284.968	79.995	19.998	102.959	20.203	7.781	0.459
432.000	285.995	79.996	19.998	102.980	20.199	8.089	0.517
434.000	286.976	79.994	19.997	102.984	20.195	8.332	0.474
436.000	287.926	79.994	19.997	102.992	20.190	8.631	0.477
438.000	288.944	79.995	19.997	103.015	20.186	8.942	0.487
440.000	289.946	79.994	19.996	103.026	20.180	9.337	0.519
442.000	290.956	79.995	19.998	103.043	20.176	9.572	0.513
444.000	291.937	79.995	19.995	103.067	20.166	10.276	0.515
446.000	292.933	79.993	19.998	103.076	20.156	10.927	0.492
448.000	293.934	79.993	19.993	103.095	20.150	11.342	0.509
450.000	294.928	79.992	19.995	103.101	20.141	11.923	0.518
452.000	295.905	79.992	19.996	103.111	20.128	12.829	0.492
454.000	296.873	79.993	19.996	103.112	20.126	12.935	0.483
456.000	297.937	79.993	19.995	103.110	20.114	13.720	0.538
458.000	298.925	79.993	19.998	103.086	20.105	14.324	0.524
460.000	299.878	79.993	19.995	103.062	20.099	14.685	0.477
462.000	300.879	79.991	19.995	102.993	20.095	14.966	0.488
464.000	301.865	79.992	19.996	102.939	20.092	15.185	0.516
466.000	302.848	79.993	19.995	102.857	20.089	15.400	0.476
468.000	303.855	79.992	19.995	102.780	20.092	15.161	0.501
470.000	304.842	79.992	19.995	102.756	20.102	14.536	0.497
472.000	305.816	79.992	19.998	102.751	20.103	14.490	0.490
474.000	306.831	79.993	19.996	102.772	20.102	14.518	0.511
476.000	307.783	79.993	19.997	102.796	20.112	13.888	0.456
478.000	308.755	79.993	19.995	102.826	20.116	13.612	0.452
480.000	309.764	79.993	19.996	102.838	20.119	13.389	0.484
482.000	310.784	79.992	19.996	102.857	20.125	12.972	0.505
484.000	311.785	79.993	19.996	102.876	20.131	12.585	0.512
486.000	312.822	79.994	19.996	102.879	20.136	12.287	0.505
488.000	313.829	79.992	19.994	102.873	20.140	12.014	0.505
490.000	314.846	79.994	19.996	102.889	20.144	11.687	0.518
492.000	315.901	79.995	19.996	102.883	20.148	11.437	0.517
494.000	316.921	79.996	19.997	102.889	20.148	11.421	0.510
496.000	317.945	79.995	19.996	102.886	20.148	11.456	0.521
498.000	318.997	79.995	19.996	102.875	20.151	11.221	0.513
500.000	320.044	79.995	19.997	102.873	20.154	11.043	0.530
502.000	321.090	79.995	19.997	102.876	20.159	10.717	0.526
504.000	322.150	79.994	19.997	102.879	20.162	10.494	0.544
506.000	323.176	79.993	19.996	102.883	20.162	10.546	0.507
508.000	324.253	79.993	19.996	102.866	20.168	10.119	0.550
510.000	325.260	79.993	19.997	102.842	20.171	9.940	0.529
512.000	326.358	79.994	19.996	102.839	20.175	9.639	0.528
514.000	327.375	79.996	19.996	102.835	20.176	9.602	0.525
516.000	328.448	79.994	19.998	102.796	20.179	9.376	0.544
518.000	329.532	79.995	19.997	102.892	20.180	9.312	0.553
520.000	330.550	79.994	19.996	102.845	20.191	8.567	0.538
522.000	331.568	79.995	19.996	102.833	20.189	8.704	0.487
524.000	332.599	79.994	19.997	102.832	20.189	8.729	0.500
526.000	333.657	79.991	19.997	102.823	20.196	8.255	0.537
528.000	334.671	79.991	19.998	102.804	20.197	8.158	0.510
530.000	335.712	79.992	19.998	102.796	20.195	8.281	0.517
532.000	336.684	79.991	19.996	102.798	20.201	7.930	0.511
534.000	337.689	79.993	19.997	102.789	20.194	8.374	0.487
536.000	338.662	79.994	19.997	102.782	20.201	7.921	0.480
538.000	339.653	79.992	19.997	102.781	20.204	7.684	0.481
540.000	340.659	79.993	19.996	102.778	20.201	7.911	0.499
542.000	341.647	79.995	19.996	102.770	20.204	7.680	0.489
544.000	342.637	79.994	19.997	102.776	20.201	7.894	0.504
546.000	343.545	79.993	19.996	102.769	20.205	7.646	0.485
548.000	344.511	79.993	19.996	102.772	20.208	7.453	0.438
550.000	345.507	79.992	19.996	102.767	20.207	7.485	0.511
552.000	346.520	79.993	19.996	102.776	20.209	7.390	0.514
554.000	347.489	79.993	19.995	102.781	20.213	7.087	0.487
556.000	348.503	79.994	19.997	102.787	20.212	7.146	0.525
558.000	349.561	79.990	19.996	102.793	20.213	7.102	0.553
560.000	350.555	79.993	19.997	102.796	20.210	7.302	0.537
562.000	351.587	79.994	19.996	102.797	20.212	7.138	0.511
564.000	352.562	79.993	19.996	102.796	20.222	6.529	0.480
566.000	353.606	79.993	19.997	102.802	20.226	6.211	0.532
568.000	354.661	79.994	19.996	102.805	20.213	7.074	0.524
570.000	355.703	79.995	19.996	102.804	20.221	6.582	0.550
572.000	356.775	79.995	19.996	102.809	20.227	6.172	0.564
574.000	357.677	79.994	19.994	102.822	20.232	5.842	0.487
576.000	358.794	79.995	19.995	102.830	20.226	6.264	0.555
578.000	360.061	79.995	19.995	102.823	20.237	5.528	0.608
580.000	361.010	79.995	19.996	102.834	20.234	5.677	0.864
582.000	361.728	79.993	19.995	102.839	20.234	5.693	0.193
584.000	363.026	79.994	19.997	102.831	20.236	5.554	0.542
586.000	363.962	79.992	19.996	102.852	20.234	5.698	0.525
588.000	365.081	79.994	19.996	102.849	20.237	5.521	0.521
590.000	366.091	79.994	19.995	102.853	20.239	5.352	0.498
592.000	367.161	79.994	19.996	102.843	20.240	5.329	0.531
594.000	368.190	79.995	19.996	102.846	20.242	5.137	0.550
596.000	369.242	79.994	19.996	102.848	20.237	5.471	0.527
598.000	370.300	79.996	19.997	102.848	20.247	4.831	0.492
600.000	371.303	79.995	19.995	102.856	20.243	5.118	0.501
602.000	372.387	79.995	19.995	102.838	20.248	4.789	0.578
604.000	373.465	79.994	19.996	102.838	20.248	4.776	0.545
606.000	374.519	79.991	19.996	102.852	20.243	5.073	0.523
608.000	375.553	79.993	19.998	102.844	20.246	4.894	0.567
610.000	376.640	79.991	19.997	102.841	20.250	4.628	0.544
612.000	377.624	79.995	19.998	102.850	20.254	4.385	0.475
614.000	378.687	79.991	19.997	102.851	20.251	4.595	0.513
616.000	379.720	79.993	19.999	102.850	20.245	4.971	0.519
618.000	380.766	79.993	19.998	102.852	20.245	4.989	0.556
620.000	381.781	79.992	19.997	102.843	20.245	4.973	0.543
622.000	382.837	79.993	19.997	102.858	20.244	5.062	0.513
624.000	383.841	79.994	19.998	102.868	20.238	5.408	0.497
626.000	384.901	79.996	19.997	102.861	20.240	5.308	0.523
628.000	385.912	79.994	19.997	102.856	20.238	5.401	0.513
630.000	386.958	79.993	19.995	102.865	20.236	5.588	0.493
632.000	388.024	79.993	19.996	102.874	20.227	6.181	0.535
634.000	389.052	79.992	19.995	102.867	20.228	6.082	0.510
636.000	390.102	79.994	19.996	102.848	20.224	6.361	0.554
638.000	391.090	79.993	19.996	102.870	20.224	6.348	0.474
640.000	392.142	79.993	19.996	102.858	20.213	7.113	0.522
642.000	393.204	79.993	19.997	102.853	20.210	7.294	0.537
644.000	394.189	79.993	19.996	102.868	20.210	7.323	0.502
646.000	395.226	79.994	19.997	102.865	20.205	7.653	0.507
648.000	396.262	79.993	19.996	102.864	20.192	8.525	0.519
650.000	397.308	79.994	19.994	102.848	20.194	8.362	0.512
652.000	398.296	79.994	19.994	102.864	20.188	8.767	0.521
654.000	399.343	79.994	19.996	102.866	20.180	9.278	0.516
656.000	400.339	79.993	19.995	102.868	20.179	9.393	0.503
658.000	401.331	79.992	19.994	102.868	20.170	9.991	0.495
660.000	402.362	79.993	19.995	102.875	20.164	10.389	0.498
662.000	403.384	79.994	19.996	102.870	20.154	11.031	0.503
664.000	404.381	79.995	19.996	102.863	20.145	11.648	0.477
666.000	405.424	79.994	19.997	102.858	20.141	11.888	0.493
668.000	406.396	79.994	19.995	102.859	20.134	12.398	0.512
670.000	407.434	79.995	19.996	102.852	20.126	12.932	0.521
672.000	408.388	79.996	19.997	102.856	20.118	13.429	0.505
674.000	409.418	79.996	19.995	102.867	20.111	13.895	0.494
676.000	410.411	79.994	19.995	102.858	20.108	14.094	0.501
678.000	411.430	79.994	19.995	102.862	20.092	15.201	0.517
680.000	412.454	79.995	19.995	102.867	20.076	16.246	0.533
682.000	413.391	79.995	19.996	102.870	20.064	17.081	0.491
684.000	414.431	79.994	19.996	102.864	20.049	18.054	0.522
686.000	415.393	79.994	19.996	102.857	20.043	18.487	0.497
688.000	416.409	79.992	19.997	102.876	20.025	19.652	0.499
690.000	417.407	79.993	19.996	102.860	20.012	20.550	0.485
692.000	418.432	79.993	19.998	102.871	20.001	21.308	0.500
694.000	419.397	79.992	19.995	102.872	19.981	22.648	0.465
696.000	420.408	79.992	19.996	102.870	19.961	23.925	0.496
698.000	421.422	79.992	19.998	102.869	19.945	25.020	0.527
700.000	422.384	79.993	19.998	102.872	19.926	26.329	0.475
702.000	423.444	79.993	19.997	102.876	19.912	27.257	0.505
704.000	424.402	79.992	19.997	102.873	19.886	28.990	0.517
706.000	425.445	79.993	19.997	102.873	19.867	30.269	0.508
708.000	426.434	79.993	19.999	102.872	19.846	31.656	0.457
710.000	427.436	79.994	19.997	102.871	19.819	33.423	0.508
712.000	428.418	79.991	19.996	102.874	19.804	34.438	0.464
714.000	429.438	79.993	19.996	102.869	19.781	35.979	0.481
716.000	430.476	79.992	19.997	102.867	19.752	37.915	0.523
718.000	431.430	79.992	19.996	102.874	19.734	39.148	0.497
720.000	432.392	79.993	19.997	102.877	19.708	40.871	0.490
722.000	433.412	79.991	19.996	102.872	19.690	42.057	0.519
724.000	434.442	79.992	19.996	102.875	19.664	43.848	0.512
726.000	435.475	79.993	19.995	102.872	19.640	45.415	0.536
728.000	436.432	79.993	19.996	102.876	19.619	46.833	0.495
730.000	437.430	79.993	19.995	102.874	19.591	48.697	0.481
732.000	438.433	79.994	19.996	102.864	19.574	49.824	0.498
734.000	439.426	79.994	19.997	102.866	19.551	51.367	0.516
736.000	440.458	79.993	19.998	102.873	19.528	52.891	0.549
738.000	441.457	79.995	19.996	102.871	19.511	54.018	0.494
740.000	442.504	79.992	19.996	102.871	19.486	55.695	0.514
742.000	443.550	79.993	19.995	102.873	19.469	56.838	0.537
744.000	444.539	79.994	19.995	102.869	19.445	58.470	0.514
746.000	445.598	79.993	19.995	102.876	19.419	60.210	0.539
748.000	446.556	79.995	19.995	102.877	19.399	61.559	0.480
750.000	447.607	79.994	19.995	102.871	19.379	62.900	0.503
752.000	448.650	79.996	19.996	102.871	19.359	64.195	0.522
754.000	449.633	79.996	19.995	102.865	19.334	65.841	0.504
756.000	450.675	79.996	19.996	102.869	19.304	67.854	0.539
758.000	451.710	79.995	19.996	102.886	19.290	68.798	0.535
760.000	452.662	79.994	19.996	102.875	19.278	69.634	0.464
762.000	453.690	79.992	19.995	102.862	19.275	69.851	0.491
764.000	454.738	79.992	19.996	102.837	19.280	69.476	0.537
766.000	455.763	79.993	19.996	102.853	19.292	68.680	0.486
768.000	456.817	79.992	19.996	102.868	19.307	67.715	0.491
770.000	457.794	79.993	19.996	102.876	19.311	67.416	0.476
772.000	458.875	79.992	19.997	102.880	19.331	66.104	0.549
774.000	459.903	79.993	19.996	102.879	19.352	64.678	0.484
776.000	460.917	79.993	19.996	102.874	19.370	63.441	0.509
778.000	461.934	79.993	19.996	102.885	19.388	62.292	0.505
780.000	462.998	79.993	19.996	102.892	19.406	61.052	0.519
782.000	464.024	79.993	19.997	102.890	19.420	60.121	0.535
784.000	465.009	79.993	19.996	102.878	19.434	59.153	0.492
786.000	466.031	79.992	19.997	102.872	19.447	58.324	0.506
788.000	467.033	79.993	19.996	102.880	19.455	57.761	0.504
790.000	468.091	79.992	19.996	102.880	19.470	56.768	0.536
792.000	469.140	79.993	19.998	102.855	19.488	55.576	0.544
794.000	470.138	79.992	19.998	102.841	19.515	53.753	0.511
796.000	471.161	79.992	19.998	102.841	19.528	52.920	0.525
798.000	472.185	79.992	19.998	102.864	19.549	51.529	0.500
800.000	473.202	79.991	19.997	102.881	19.566	50.395	0.519
802.000	474.259	79.994	19.997	102.876	19.593	48.573	0.512
804.000	475.279	79.993	19.996	102.849	19.610	47.442	0.511
806.000	476.274	79.992	19.996	102.861	19.626	46.369	0.478
808.000	477.323	79.994	19.996	102.877	19.639	45.487	0.523
810.000	478.348	79.995	19.997	102.874	19.649	44.787	0.515
812.000	479.343	79.995	19.996	102.871	19.655	44.399	0.505
814.000	480.354	79.994	19.996	102.848	19.662	43.963	0.507
816.000	481.380	79.993	19.996	102.837	19.686	42.359	0.484
818.000	482.378	79.993	19.996	102.841	19.699	41.458	0.503
820.000	483.408	79.993	19.995	102.847	19.717	40.268	0.507
822.000	484.401	79.992	19.996	102.856	19.718	40.186	0.512
824.000	485.398	79.992	19.996	102.857	19.731	39.354	0.512
826.000	486.392	79.992	19.996	102.857	19.741	38.655	0.464
828.000	487.326	79.993	19.996	102.849	19.746	38.312	0.498
830.000	488.240	79.993	19.996	102.842	19.754	37.816	0.479
832.000	489.221	79.995	19.995	102.846	19.764	37.148	0.493
834.000	490.192	79.994	19.995	102.852	19.785	35.733	0.480
836.000	491.131	79.995	19.995	102.835	19.808	34.165	0.445
838.000	492.096	79.994	19.995	102.834	19.827	32.880	0.447
840.000	493.053	79.994	19.996	102.853	19.844	31.776	0.463
842.000	493.983	79.992	19.996	102.874	19.860	30.677	0.468
844.000	494.958	79.993	19.996	102.873	19.881	29.276	0.491
846.000	495.866	79.994	19.997	102.842	19.900	28.039	0.484
848.000	496.804	79.992	19.996	102.839	19.919	26.764	0.453
850.000	497.770	79.993	19.997	102.865	19.935	25.699	0.479
852.000	498.685	79.993	19.997	102.867	19.952	24.583	0.467
854.000	499.658	79.994	19.995	102.847	19.972	23.211	0.499
856.000	500.631	79.992	19.995	102.841	19.988	22.115	0.490
858.000	501.594	79.994	19.996	102.843	20.002	21.244	0.467
860.000	502.545	79.994	19.996	102.846	20.016	20.245	0.487
862.000	503.519	79.993	19.997	102.851	20.028	19.489	0.492
864.000	504.509	79.992	19.996	102.845	20.043	18.482	0.501
866.000	505.468	79.995	19.997	102.839	20.057	17.543	0.484
868.000	506.493	79.993	19.997	102.852	20.072	16.498	0.489
870.000	507.485	79.992	19.996	102.854	20.083	15.794	0.485
872.000	508.432	79.993	19.996	102.847	20.091	15.235	0.496
874.000	509.426	79.993	19.998	102.840	20.104	14.388	0.510
876.000	510.386	79.993	19.997	102.849	20.118	13.455	0.502
878.000	511.413	79.992	19.998	102.837	20.127	12.833	0.500
880.000	512.416	79.992	19.998	102.848	20.139	12.078	0.498
882.000	513.370	79.992	19.997	102.834	20.147	11.529	0.530
884.000	514.459	79.994	19.997	102.836	20.156	10.946	0.557
886.000	515.423	79.994	19.998	102.839	20.163	10.425	0.504
888.000	516.478	79.993	19.997	102.835	20.171	9.916	0.541
890.000	517.515	79.994	19.996	102.833	20.177	9.541	0.524
892.000	518.522	79.995	19.997	102.836	20.188	8.756	0.503
894.000	519.549	79.994	19.996	102.836	20.195	8.338	0.524
896.000	520.597	79.994	19.996	102.845	20.203	7.755	0.530
898.000	521.587	79.993	19.996	102.858	20.207	7.488	0.495
900.000	522.596	79.995	19.996	102.838	20.212	7.175	0.502
902.000	523.672	79.993	19.996	102.837	20.225	6.269	0.534
904.000	524.700	79.994	19.996	102.850	20.230	5.945	0.515
906.000	525.759	79.994	19.995	102.846	20.233	5.739	0.515
908.000	526.812	79.992	19.995	102.839	20.242	5.194	0.519
910.000	527.878	79.994	19.995	102.840	20.248	4.792	0.552
912.000	528.915	79.995	19.995	102.837	20.255	4.277	0.511
914.000	529.995	79.995	19.995	102.842	20.263	3.780	0.542
916.000	531.053	79.994	19.996	102.835	20.260	3.938	0.518
918.000	532.150	79.993	19.996	102.837	20.270	3.276	0.545
920.000	533.189	79.992	19.996	102.833	20.267	3.493	0.528
922.000	534.280	79.992	19.996	102.836	20.269	3.330	0.577
924.000	535.345	79.993	19.996	102.839	20.278	2.744	0.532
926.000	536.427	79.993	19.997	102.837	20.278	2.757	0.528
928.000	537.477	79.991	19.995	102.835	20.280	2.616	0.510
930.000	538.596	79.994	19.997	102.833	20.285	2.307	0.546
932.000	539.647	79.993	19.997	102.835	20.284	2.366	0.566
934.000	540.664	79.993	19.996	102.841	20.289	2.031	0.532
936.000	541.726	79.993	19.996	102.835	20.293	1.725	0.538
938.000	542.795	79.993	19.996	102.835	20.297	1.499	0.522
940.000	543.852	79.993	19.997	102.834	20.301	1.190	0.550
942.000	544.894	79.993	19.996	102.835	20.301	1.253	0.528
944.000	545.917	79.991	19.998	102.823	20.300	1.308	0.498
946.000	546.949	79.993	19.997	102.833	20.300	1.299	0.513
948.000	548.004	79.991	19.996	102.833	20.307	0.827	0.550
950.000	549.031	79.994	19.997	102.835	20.303	1.086	0.512
952.000	550.098	79.991	19.997	102.835	20.307	0.812	0.541
954.000	551.091	79.991	19.997	102.846	20.307	0.795	0.497
956.000	552.149	79.992	19.998	102.856	20.309	0.665	0.512
958.000	553.246	79.992	19.997	102.857	20.315	0.298	0.553
960.000	554.302	79.991	19.996	102.848	20.313	0.395	0.551
962.000	555.407	79.992	19.997	102.856	20.320	-0.041	0.563
964.000	556.508	79.994	19.996	102.849	20.319	0.011	0.549
966.000	557.607	79.992	19.996	102.840	20.315	0.254	0.556
968.000	558.703	79.994	19.996	102.836	20.322	-0.195	0.529
970.000	559.836	79.993	19.997	102.837	20.322	-0.169	0.557
972.000	560.948	79.991	19.998	102.844	20.322	-0.193	0.561
974.000	562.063	79.994	19.997	102.837	20.321	-0.141	0.559
976.000	563.226	79.992	19.996	102.836	20.324	-0.302	0.569
978.000	564.296	79.992	19.996	102.840	20.323	-0.263	0.578
980.000	565.396	79.992	19.997	102.833	20.325	-0.352	0.542
982.000	566.549	79.993	19.995	102.834	20.326	-0.461	0.599
984.000	567.622	79.996	19.995	102.833	20.325	-0.361	0.532
986.000	568.758	79.994	19.995	102.833	20.323	-0.222	0.554
988.000	569.869	79.995	19.995	102.833	20.325	-0.415	0.541
990.000	570.978	79.994	19.996	102.832	20.330	-0.695	0.524
992.000	572.082	79.995	19.995	102.840	20.326	-0.456	0.561
994.000	573.178	79.994	19.996	102.836	20.327	-0.545	0.532
996.000	574.343	79.993	19.995	102.835	20.330	-0.699	0.597
998.000	575.443	79.991	19.996	102.834	20.331	-0.754	0.564
1000.000	576.535	79.991	19.996	102.832	20.330	-0.695	0.552
1002.000	577.603	79.992	19.996	102.835	20.333	-0.917	0.545
1004.000	578.694	79.993	19.997	102.834	20.334	-1.001	0.522
1006.000	579.808	79.994	19.996	102.830	20.336	-1.114	0.554
1008.000	580.869	79.993	19.996	102.829	20.332	-0.862	0.541
1010.000	581.974	79.993	19.996	102.834	20.333	-0.889	0.581
1012.000	583.019	79.993	19.996	102.835	20.331	-0.786	0.536
1014.000	584.092	79.991	19.994	102.835	20.334	-1.008	0.518
1016.000	585.167	79.993	19.995	102.836	20.335	-1.049	0.531
1018.000	586.206	79.992	19.996	102.837	20.334	-0.954	0.538
1020.000	587.275	79.993	19.996	102.835	20.339	-1.325	0.540
1022.000	588.284	79.993	19.994	102.828	20.336	-1.125	0.538
1024.000	589.368	79.992	19.996	102.830	20.338	-1.229	0.524
1025.999	590.385	79.991	19.995	102.836	20.336	-1.141	0.505
1027.999	591.435	79.990	19.994	102.835	20.339	-1.317	0.522
1029.999	592.491	79.990	19.996	102.833	20.341	-1.427	0.507
1031.999	593.536	79.991	19.997	102.837	20.342	-1.492	0.503
1033.999	594.625	79.992	19.996	102.836	20.340	-1.369	0.541
1035.999	595.647	79.991	19.996	102.840	20.338	-1.241	0.514
1037.999	596.706	79.991	19.996	102.838	20.338	-1.219	0.562
1039.999	597.708	79.994	19.996	102.837	20.341	-1.436	0.482
1041.999	598.721	79.995	19.996	102.837	20.344	-1.636	0.498
1043.999	599.746	79.994	19.996	102.822	20.342	-1.505	0.512
1045.999	600.815	79.994	19.997	102.831	20.347	-1.862	0.510
1047.999	601.819	79.992	19.996	102.832	20.343	-1.603	0.503
1049.999	602.830	79.994	19.996	102.815	20.348	-1.944	0.499
1051.999	603.827	79.994	19.997	102.831	20.347	-1.875	0.490
1053.999	604.871	79.993	19.997	102.826	20.347	-1.858	0.533
1055.999	605.900	79.991	19.997	102.832	20.345	-1.747	0.527
1057.999	606.864	79.992	19.997	102.832	20.352	-2.161	0.477
1059.999	607.938	79.993	19.998	102.832	20.350	-2.025	0.493
1061.999	608.964	79.993	19.997	102.833	20.349	-1.990	0.522
1064.000	609.965	79.994	19.997	102.834	20.347	-1.881	0.523
1065.999	610.994	79.994	19.996	102.830	20.347	-1.862	0.510
1067.999	611.968	79.994	19.996	102.833	20.345	-1.747	0.496
1069.999	613.006	79.995	19.997	102.832	20.349	-1.998	0.498
1071.999	614.019	79.994	19.995	102.831	20.352	-2.175	0.525
1073.999	615.033	79.993	19.996	102.832	20.350	-2.027	0.510
1075.999	616.061	79.992	19.995	102.835	20.349	-1.964	0.543
1077.999	617.058	79.993	19.996	102.844	20.353	-2.229	0.509
1079.999	618.070	79.992	19.996	102.838	20.352	-2.183	0.504
1081.999	619.083	79.990	19.995	102.837	20.353	-2.233	0.489
1083.999	620.090	79.993	19.995	102.838	20.350	-2.059	0.500
1085.999	621.105	79.992	19.996	102.834	20.356	-2.472	0.498
1087.999	622.101	79.992	19.995	102.833	20.356	-2.440	0.507
1089.999	623.142	79.991	19.995	102.836	20.355	-2.376	0.513
1091.999	624.128	79.992	19.997	102.843	20.355	-2.383	0.509
1093.999	625.099	79.991	19.996	102.837	20.354	-2.303	0.465
1095.999	626.151	79.991	19.995	102.837	20.352	-2.198	0.518
1097.999	627.147	79.994	19.995	102.837	20.349	-2.010	0.507
1100.000	628.192	79.992	19.996	102.839	20.353	-2.234	0.501
1101.999	629.175	79.992	19.995	102.842	20.352	-2.181	0.516
1103.999	630.167	79.991	19.996	102.838	20.349	-1.983	0.488
1105.999	631.224	79.993	19.995	102.839	20.353	-2.238	0.530
1107.999	632.207	79.992	19.996	102.835	20.354	-2.327	0.519
1109.999	633.193	79.992	19.994	102.831	20.354	-2.338	0.491
1111.999	634.200	79.993	19.996	102.820	20.351	-2.114	0.504
1113.999	635.197	79.993	19.996	102.839	20.351	-2.138	0.504
1115.999	636.249	79.994	19.997	102.834	20.353	-2.248	0.535
1117.999	637.254	79.992	19.995	102.839	20.355	-2.403	0.525
1119.999	638.235	79.993	19.997	102.829	20.356	-2.437	0.487
1121.999	639.227	79.993	19.997	102.831	20.354	-2.299	0.494
1123.999	640.263	79.994	19.996	102.834	20.353	-2.281	0.538
1125.999	641.250	79.994	19.997	102.832	20.354	-2.313	0.499
1127.999	642.212	79.993	19.997	102.831	20.354	-2.342	0.473
1129.999	643.254	79.994	19.996	102.832	20.356	-2.472	0.488
1132.000	644.274	79.995	19.996	102.833	20.352	-2.157	0.503
1133.999	645.287	79.992	19.996	102.838	20.359	-2.672	0.501
1135.999	646.276	79.992	19.996	102.836	20.353	-2.268	0.511
1137.999	647.298	79.992	19.996	102.834	20.357	-2.546	0.496
1139.999	648.291	79.992	19.996	102.833	20.356	-2.457	0.528
1141.999	649.329	79.994	19.996	102.837	20.350	-2.047	0.514
1143.999	650.328	79.992	19.996	102.843	20.358	-2.603	0.497
1145.999	651.392	79.994	19.996	102.834	20.351	-2.138	0.521
1147.999	652.396	79.994	19.997	102.835	20.349	-2.014	0.524
1149.999	653.448	79.994	19.996	102.833	20.350	-2.062	0.509
1151.999	654.452	79.992	19.996	102.831	20.349	-1.999	0.498
1153.999	655.461	79.992	19.997	102.833	20.352	-2.174	0.531
1155.999	656.439	79.992	19.997	102.833	20.351	-2.101	0.471
1158.000	657.539	79.991	19.996	102.833	20.352	-2.164	0.543
1159.999	658.536	79.991	19.996	102.836	20.352	-2.160	0.518
1161.999	659.519	79.992	19.996	102.834	20.348	-1.910	0.472
1163.999	660.546	79.992	19.995	102.833	20.350	-2.034	0.536
1165.999	661.588	79.992	19.995	102.840	20.354	-2.351	0.519
1167.999	662.618	79.992	19.995	102.837	20.353	-2.227	0.533
1169.999	663.621	79.991	19.995	102.833	20.352	-2.194	0.514
1172.000	664.631	79.993	19.995	102.826	20.349	-2.012	0.503
1173.999	665.634	79.993	19.997	102.832	20.354	-2.324	0.526
1175.999	666.663	79.994	19.996	102.834	20.351	-2.127	0.507
1177.999	667.696	79.992	19.996	102.834	20.356	-2.433	0.503
1179.999	668.731	79.993	19.996	102.833	20.353	-2.223	0.536
1181.999	669.729	79.992	19.996	102.833	20.348	-1.923	0.500
1183.999	670.769	79.993	19.996	102.832	20.353	-2.275	0.512
1185.999	671.786	79.993	19.995	102.833	20.353	-2.272	0.503
1187.999	672.800	79.991	19.995	102.835	20.353	-2.235	0.490
1189.999	673.860	79.990	19.997	102.833	20.350	-2.051	0.531
1191.999	674.861	79.992	19.996	102.833	20.354	-2.303	0.501
1193.999	675.931	79.992	19.995	102.838	20.353	-2.266	0.541
1195.999	676.871	79.993	19.995	102.834	20.355	-2.366	0.466
1197.999	677.973	79.993	19.995	102.833	20.353	-2.259	0.550
1199.999	678.966	79.994	19.996	102.832	20.355	-2.377	0.511
1201.999	679.992	79.995	19.996	102.823	20.353	-2.262	0.520
1203.999	680.970	79.994	19.996	102.835	20.351	-2.148	0.472
1205.999	682.066	79.992	19.994	102.834	20.351	-2.118	0.524
1207.999	683.065	79.993	19.996	102.830	20.357	-2.505	0.500
1209.999	684.093	79.993	19.997	102.826	20.354	-2.344	0.511
1211.999	685.116	79.993	19.997	102.826	20.354	-2.335	0.472
1213.999	686.126	79.993	19.997	102.827	20.354	-2.305	0.549
1215.999	687.128	79.992	19.996	102.833	20.356	-2.459	0.508
1217.999	688.145	79.992	19.997	102.834	20.353	-2.223	0.511
1219.999	689.155	79.992	19.994	102.835	20.354	-2.336	0.493
1221.999	690.229	79.994	19.996	102.829	20.354	-2.299	0.511
1224.000	691.227	79.995	19.996	102.834	20.352	-2.195	0.505
1225.999	692.243	79.995	19.995	102.814	20.355	-2.407	0.510
1228.000	693.256	79.994	19.995	102.824	20.354	-2.334	0.486
1229.999	694.279	79.995	19.996	102.825	20.356	-2.466	0.503
1231.999	695.295	79.994	19.996	102.817	20.355	-2.358	0.535
1233.999	696.299	79.992	19.997	102.820	20.360	-2.711	0.491
1235.999	697.302	79.993	19.998	102.829	20.352	-2.190	0.527
1237.999	698.331	79.992	19.996	102.832	20.355	-2.357	0.538
1239.999	699.354	79.992	19.996	102.824	20.359	-2.645	0.522
1241.999	700.328	79.992	19.998	102.823	20.358	-2.564	0.524
1243.999	701.360	79.992	19.997	102.818	20.356	-2.446	0.493
1245.999	702.371	79.993	19.997	102.825	20.361	-2.818	0.520
1247.999	703.385	79.993	19.996	102.815	20.364	-3.000	0.529
1249.999	704.381	79.993	19.996	102.825	20.364	-2.961	0.481
1252.000	705.369	79.993	19.996	102.814	20.364	-2.973	0.528
1253.999	706.385	79.993	19.996	102.822	20.364	-3.022	0.476
1255.999	707.357	79.993	19.997	102.824	20.362	-2.877	0.503
1257.999	708.329	79.993	19.997	102.814	20.361	-2.766	0.486
1260.000	709.321	79.993	19.997	102.826	20.358	-2.558	0.507
1261.999	710.323	79.992	19.995	102.812	20.357	-2.524	0.490
1264.000	711.308	79.993	19.996	102.814	20.361	-2.764	0.492
1265.999	712.291	79.992	19.997	102.815	20.358	-2.612	0.503
1267.999	713.244	79.993	19.996	102.806	20.362	-2.855	0.483
1269.999	714.182	79.992	19.996	102.809	20.364	-2.983	0.469
1271.999	715.216	79.993	19.996	102.823	20.360	-2.753	0.517
1274.000	716.194	79.994	19.996	102.824	20.357	-2.548	0.470
1275.999	717.210	79.994	19.996	102.808	20.363	-2.945	0.510
1277.999	718.210	79.994	19.996	102.825	20.362	-2.879	0.464
1279.999	719.187	79.994	19.996	102.808	20.362	-2.831	0.513
1281.999	720.153	79.995	19.995	102.813	20.366	-3.142	0.514
1283.999	721.167	79.995	19.996	102.821	20.362	-2.844	0.510
1285.999	722.126	79.995	19.995	102.817	20.364	-3.021	0.502
1287.999	723.102	79.994	19.995	102.813	20.365	-3.036	0.500
1289.999	724.080	79.992	19.994	102.830	20.363	-2.940	0.500
1291.999	725.075	79.993	19.995	102.823	20.364	-2.966	0.510
1293.999	726.070	79.994	19.995	102.805	20.366	-3.122	0.482
1295.999	727.085	79.994	19.996	102.804	20.368	-3.229	0.503
1297.999	728.086	79.994	19.995	102.804	20.365	-3.053	0.502
1299.999	729.075	79.995	19.996	102.816	20.361	-2.803	0.486
1301.999	730.076	79.995	19.996	102.819	20.358	-2.619	0.492
1303.999	731.080	79.996	19.997	102.807	20.364	-2.988	0.489
1306.000	732.053	79.996	19.996	102.819	20.364	-2.996	0.497
1307.999	733.072	79.995	19.996	102.805	20.364	-2.957	0.492
1309.999	734.067	79.995	19.995	102.801	20.364	-2.971	0.504
1311.999	735.052	79.995	19.996	102.806	20.366	-3.105	0.496
1313.999	736.050	79.992	19.997	102.800	20.365	-3.031	0.525
1315.999	737.044	79.993	19.997	102.814	20.368	-3.238	0.458
1317.999	738.080	79.993	19.996	102.822	20.366	-3.147	0.498
1319.999	739.117	79.991	19.997	102.812	20.370	-3.416	0.491
1322.000	740.159	79.993	19.997	102.800	20.366	-3.134	0.522
1323.999	741.165	79.991	19.997	102.798	20.368	-3.282	0.505
1325.999	742.164	79.992	19.996	102.810	20.366	-3.123	0.526
1328.000	743.216	79.991	19.997	102.801	20.364	-3.021	0.544
1328.999	743.712	79.991	19.997	102.809	20.367	-3.208	0.494