File: 01_Data/Luan_Panel/STA/N2/3K_min/Luan_Panel_STA_N2_3KData_221103_R1.csv
##Temp./Â°C,Time/min,Mass loss(subtr.2)/mg,DSC(subtr.2)/(mW/mg),Sensit./(uV/mW)
50.121,10.01667,-0.03279,0.02278453,1.04801
50.821,11.15175,-0.03557127,0.0488408,1.0477
51.521,11.54313,-0.03565311,0.06201892,1.04739
52.221,11.86228,-0.03685821,0.07247467,1.04708
52.921,12.1546,-0.03552906,0.077864,1.04677
53.621,12.4327,-0.03818125,0.08183288,1.04646
54.321,12.70192,-0.03818376,0.08266433,1.04616
55.021,12.9674,-0.03816998,0.08661401,1.04585
55.721,13.22933,-0.03799376,0.08405255,1.04554
56.421,13.48867,-0.03972039,0.08706655,1.04523
57.121,13.74399,-0.03963609,0.08854866,1.04492
57.821,13.99652,-0.04061098,0.09247405,1.04462
58.521,14.2459,-0.03937294,0.09327948,1.04431
59.221,14.4925,-0.04189091,0.0968947,1.044
59.921,14.7371,-0.04189691,0.09919309,1.0437
60.621,14.97945,-0.04189439,0.09972251,1.04339
61.321,15.22215,-0.04108029,0.10167,1.04308
62.021,15.4636,-0.04353635,0.10245,1.04278
62.721,15.7041,-0.04332867,0.10317,1.04247
63.421,15.94374,-0.04387995,0.1038,1.04217
64.121,16.18431,-0.04417995,0.10297,1.04186
64.821,16.42438,-0.04614463,0.10332,1.04156
65.521,16.66385,-0.04594652,0.10844,1.04125
66.221,16.90215,-0.04651005,0.10911,1.04095
66.921,17.14023,-0.04912276,0.10995,1.04064
67.621,17.37726,-0.04881514,0.10736,1.04034
68.321,17.6142,-0.04853334,0.10631,1.04004
69.021,17.8516,-0.04880823,0.10762,1.03973
69.721,18.08833,-0.05013176,0.10958,1.03943
70.421,18.32548,-0.0514427,0.10946,1.03913
71.121,18.56092,-0.05153489,0.10984,1.03882
71.821,18.7953,-0.05275896,0.11061,1.03852
72.521,19.02917,-0.05379545,0.10989,1.03822
73.221,19.26357,-0.05540207,0.10894,1.03792
73.921,19.4997,-0.05407995,0.10536,1.03762
74.621,19.73477,-0.05539,0.10465,1.03732
75.321,19.96849,-0.05479263,0.10908,1.03701
76.021,20.20121,-0.05541476,0.10723,1.03671
76.721,20.4345,-0.05671023,0.10885,1.03641
77.421,20.66649,-0.05802,0.10774,1.03611
78.121,20.89943,-0.05835355,0.10526,1.03581
78.821,21.13317,-0.05836007,0.10595,1.03551
79.521,21.36942,-0.05900829,0.10398,1.03521
80.221,21.60463,-0.06032993,0.10122,1.03491
80.921,21.8407,-0.05900414,0.10222,1.03461
81.621,22.0766,-0.06032997,0.10297,1.03431
82.321,22.3121,-0.06132008,0.10322,1.03402
83.021,22.5459,-0.06164,0.10188,1.03372
83.721,22.77895,-0.06062998,0.10429,1.03342
84.421,23.01164,-0.06064954,0.10207,1.03312
85.121,23.24391,-0.06325992,0.10167,1.03282
85.821,23.47716,-0.06197,0.09998207,1.03252
86.521,23.7105,-0.06329537,0.09905814,1.03223
87.221,23.94387,-0.06263039,0.10024,1.03193
87.921,24.17568,-0.06394003,0.10131,1.03163
88.621,24.40858,-0.06416294,0.10139,1.03134
89.321,24.64155,-0.06458584,0.10193,1.03104
90.021,24.87611,-0.06332725,0.10078,1.03074
90.721,25.11028,-0.06560264,0.10291,1.03045
91.421,25.34469,-0.06558318,0.10543,1.03015
92.121,25.57841,-0.06362113,0.10596,1.02985
92.821,25.811,-0.06492305,0.10218,1.02956
93.521,26.0426,-0.06558559,0.10225,1.02926
94.221,26.2733,-0.06559,0.10196,1.02897
94.921,26.5039,-0.06527127,0.10263,1.02867
95.621,26.7348,-0.06753385,0.1005,1.02838
96.321,26.96545,-0.06822999,0.10079,1.02808
97.021,27.19722,-0.06702976,0.09905911,1.02779
97.721,27.42966,-0.06921333,0.09772084,1.02749
98.421,27.66177,-0.06788992,0.09679272,1.0272
99.121,27.8929,-0.06987313,0.0952254,1.02691
99.821,28.12455,-0.06854951,0.09636155,1.02661
100.521,28.35701,-0.06987297,0.09824832,1.02632
101.221,28.59007,-0.06856,0.09552804,1.02602
101.921,28.8225,-0.06986988,0.0959478,1.02573
102.621,29.05438,-0.06954723,0.09581501,1.02544
103.321,29.28562,-0.06987128,0.09522301,1.02515
104.021,29.51793,-0.07118001,0.09442843,1.02485
104.721,29.7512,-0.07118351,0.09398553,1.02456
105.421,29.98459,-0.07150986,0.09285017,1.02427
106.121,30.216,-0.07316069,0.09454326,1.02398
106.821,30.448,-0.0725103,0.09602758,1.02368
107.521,30.68008,-0.07352976,0.09593236,1.02339
108.221,30.9118,-0.07290756,0.0949397,1.0231
108.921,31.143,-0.07249314,0.09710695,1.02281
109.621,31.3734,-0.07519194,0.09719828,1.02252
110.321,31.60437,-0.074552,0.09958014,1.02223
111.021,31.835,-0.07447999,0.09727013,1.02194
111.721,32.06621,-0.07579107,0.09709516,1.02165
112.421,32.298,-0.07567129,0.09809371,1.02135
113.121,32.52939,-0.07580624,0.09480639,1.02106
113.821,32.7611,-0.07580099,0.09383207,1.02077
114.521,32.99248,-0.07437702,0.09482048,1.02048
115.221,33.22399,-0.07678303,0.09554738,1.02019
115.921,33.45479,-0.07644996,0.09584418,1.0199
116.621,33.68524,-0.07578233,0.09389257,1.01961
117.321,33.91632,-0.07612,0.09543285,1.01933
118.021,34.14728,-0.07744028,0.09563249,1.01904
118.721,34.37787,-0.07724029,0.09512625,1.01875
119.421,34.60761,-0.07511403,0.09558174,1.01846
120.121,34.83713,-0.07667921,0.09633962,1.01817
120.821,35.0668,-0.07710305,0.09842418,1.01788
121.521,35.29589,-0.07631164,0.09752675,1.01759
122.221,35.5257,-0.07776791,0.09654934,1.0173
122.921,35.7564,-0.07645,0.09720358,1.01701
123.621,35.9877,-0.07842968,0.09722812,1.01673
124.321,36.21865,-0.07809,0.09791762,1.01644
125.021,36.44939,-0.0780885,0.09699075,1.01615
125.721,36.67904,-0.07743174,0.09790484,1.01586
126.421,36.908,-0.07973986,0.0990369,1.01558
127.121,37.1376,-0.07973967,0.10166,1.01529
127.821,37.36745,-0.07872078,0.10109,1.015
128.521,37.59803,-0.07962232,0.10094,1.01471
129.221,37.82793,-0.0803366,0.1008,1.01443
129.921,38.0586,-0.08005879,0.09887936,1.01414
130.621,38.28921,-0.07988025,0.10143,1.01385
131.321,38.51967,-0.08062271,0.10184,1.01357
132.021,38.74922,-0.08073,0.10141,1.01328
132.721,38.97887,-0.08073004,0.10336,1.01299
133.421,39.20897,-0.08171833,0.10367,1.01271
134.121,39.43909,-0.08072988,0.10382,1.01242
134.821,39.66921,-0.0823687,0.10301,1.01213
135.521,39.899,-0.08106062,0.10416,1.01185
136.221,40.1284,-0.0817185,0.10462,1.01156
136.921,40.35767,-0.0820409,0.10621,1.01128
137.621,40.58636,-0.08304001,0.10657,1.01099
138.321,40.81564,-0.08304,0.10865,1.0107
139.021,41.04462,-0.08470259,0.10765,1.01042
139.721,41.27301,-0.08353445,0.10793,1.01013
140.421,41.50096,-0.08336028,0.10718,1.00985
141.121,41.72935,-0.08472775,0.10986,1.00956
141.821,41.95851,-0.08303,0.10885,1.00928
142.521,42.18803,-0.08514707,0.10876,1.00899
143.221,42.4176,-0.08533461,0.1113,1.00871
143.921,42.64744,-0.08437568,0.11104,1.00842
144.621,42.8775,-0.08563344,0.11058,1.00814
145.321,43.1066,-0.08567161,0.11243,1.00785
146.021,43.33603,-0.08665,0.11067,1.00757
146.721,43.56505,-0.08663164,0.11319,1.00728
147.421,43.7948,-0.08664991,0.11323,1.007
148.121,44.02395,-0.08665,0.11345,1.00672
148.821,44.2524,-0.08698012,0.11553,1.00643
149.521,44.48199,-0.08829145,0.11285,1.00615
150.221,44.7122,-0.08795981,0.1154,1.00586
150.921,44.94375,-0.08698004,0.11418,1.00558
151.621,45.17427,-0.08830893,0.11543,1.0053
152.321,45.40453,-0.08830375,0.11757,1.00501
153.021,45.63394,-0.08961302,0.1179,1.00473
153.721,45.863,-0.08960882,0.12197,1.00444
154.421,46.0919,-0.08992599,0.12033,1.00416
155.121,46.3202,-0.08995606,0.12032,1.00388
155.821,46.54852,-0.0899443,0.12078,1.00359
156.521,46.7759,-0.09124792,0.12267,1.00331
157.221,47.00315,-0.09126,0.1284,1.00303
157.921,47.23072,-0.09224939,0.12718,1.00274
158.621,47.4589,-0.09225,0.1234,1.00246
159.321,47.68748,-0.09365656,0.12699,1.00218
160.021,47.9157,-0.09224994,0.12814,1.0019
160.721,48.1428,-0.09250116,0.12739,1.00161
161.421,48.37059,-0.09488,0.13226,1.00133
162.121,48.5982,-0.0948798,0.13179,1.00105
162.821,48.82716,-0.09587001,0.1334,1.00076
163.521,49.05584,-0.09590298,0.13504,1.00048
164.221,49.28524,-0.09717992,0.13317,1.0002
164.921,49.51533,-0.09882971,0.1353,0.99991
165.621,49.7456,-0.09883014,0.13682,0.99963
166.321,49.97514,-0.09981998,0.13686,0.99935
167.021,50.20357,-0.10147,0.14025,0.99907
167.721,50.43173,-0.09950273,0.14272,0.99878
168.421,50.65992,-0.10208,0.14288,0.9985
169.121,50.88756,-0.10212,0.14355,0.99822
169.821,51.11501,-0.10344,0.15017,0.99794
170.521,51.3418,-0.10442,0.15122,0.99765
171.221,51.56864,-0.10579,0.15264,0.99737
171.921,51.79479,-0.1064,0.15258,0.99709
172.621,52.02207,-0.1064,0.15303,0.99681
173.321,52.25057,-0.10903,0.15432,0.99653
174.021,52.4796,-0.11034,0.1547,0.99624
174.721,52.7091,-0.11166,0.15417,0.99596
175.421,52.93881,-0.1123,0.15304,0.99568
176.121,53.1689,-0.11231,0.15583,0.9954
176.821,53.39861,-0.11462,0.15764,0.99511
177.521,53.62745,-0.11594,0.15821,0.99483
178.221,53.856,-0.11638,0.15954,0.99455
178.921,54.0835,-0.11923,0.16168,0.99427
179.621,54.31149,-0.11926,0.16314,0.99398
180.321,54.53951,-0.12187,0.1656,0.9937
181.021,54.768,-0.12284,0.16769,0.99342
181.721,54.9959,-0.12393,0.16819,0.99314
182.421,55.22381,-0.1245,0.16895,0.99286
183.121,55.45086,-0.12681,0.17094,0.99257
183.821,55.6774,-0.12913,0.17117,0.99229
184.521,55.9032,-0.12873,0.17338,0.99201
185.221,56.1303,-0.13014,0.17085,0.99173
185.921,56.3581,-0.13049,0.17283,0.99145
186.621,56.58712,-0.13548,0.17173,0.99116
187.321,56.8159,-0.13443,0.17134,0.99088
188.021,57.0453,-0.13669,0.17248,0.9906
188.721,57.27398,-0.13809,0.17208,0.99032
189.421,57.50229,-0.14077,0.17235,0.99003
190.121,57.73013,-0.1415,0.17462,0.98975
190.821,57.9587,-0.14375,0.17472,0.98947
191.521,58.18731,-0.14535,0.1737,0.98919
192.221,58.4166,-0.14665,0.17334,0.9889
192.921,58.64598,-0.14761,0.1707,0.98862
193.621,58.8757,-0.14925,0.17019,0.98834
194.321,59.1043,-0.15158,0.17138,0.98806
195.021,59.3321,-0.15523,0.17315,0.98778
195.721,59.5598,-0.1546,0.1721,0.98749
196.421,59.78776,-0.15587,0.1711,0.98721
197.121,60.0156,-0.15849,0.17417,0.98693
197.821,60.2432,-0.15853,0.17583,0.98665
198.521,60.4707,-0.16114,0.17517,0.98636
199.221,60.69777,-0.16362,0.1729,0.98608
199.921,60.92527,-0.1637,0.17381,0.9858
200.621,61.1523,-0.16771,0.1742,0.98551
201.321,61.37986,-0.16837,0.17565,0.98523
202.021,61.60663,-0.17055,0.17664,0.98495
202.721,61.83427,-0.17232,0.17617,0.98467
203.421,62.0616,-0.17359,0.17503,0.98438
204.121,62.28938,-0.17645,0.17506,0.9841
204.821,62.51675,-0.17791,0.17976,0.98382
205.521,62.74435,-0.18163,0.1762,0.98353
206.221,62.9718,-0.18052,0.18117,0.98325
206.921,63.19899,-0.18448,0.18084,0.98297
207.621,63.42585,-0.1858,0.18002,0.98268
208.321,63.6528,-0.18818,0.18036,0.9824
209.021,63.88069,-0.18975,0.18011,0.98212
209.721,64.10846,-0.19333,0.17928,0.98183
210.421,64.33649,-0.19404,0.18224,0.98155
211.121,64.56286,-0.19875,0.18518,0.98127
211.821,64.78955,-0.20032,0.18757,0.98098
212.521,65.0163,-0.20292,0.18565,0.9807
213.221,65.24404,-0.20423,0.1877,0.98041
213.921,65.47227,-0.2072,0.18723,0.98013
214.621,65.6996,-0.20952,0.18837,0.97985
215.321,65.92781,-0.21206,0.18825,0.97956
216.021,66.15596,-0.21474,0.19114,0.97928
216.721,66.38454,-0.21877,0.19031,0.97899
217.421,66.61169,-0.2205,0.1947,0.97871
218.121,66.83838,-0.22307,0.19275,0.97843
218.821,67.06534,-0.22763,0.19495,0.97814
219.521,67.29358,-0.23044,0.19308,0.97786
220.221,67.522,-0.23171,0.19404,0.97757
220.921,67.7496,-0.23757,0.19529,0.97729
221.621,67.97599,-0.2383,0.19756,0.977
222.321,68.20212,-0.24315,0.19768,0.97672
223.021,68.42865,-0.24585,0.19786,0.97643
223.721,68.65488,-0.25093,0.19447,0.97615
224.421,68.88203,-0.25376,0.19348,0.97586
225.121,69.10946,-0.25556,0.19469,0.97558
225.821,69.33775,-0.25995,0.19271,0.97529
226.521,69.566,-0.2642,0.19591,0.975
227.221,69.79352,-0.26652,0.19504,0.97472
227.921,70.02024,-0.2697,0.19743,0.97443
228.621,70.2454,-0.27326,0.19411,0.97415
229.321,70.47067,-0.27768,0.19571,0.97386
230.021,70.6966,-0.28169,0.19632,0.97357
230.721,70.92324,-0.28643,0.19639,0.97329
231.421,71.14953,-0.28856,0.1951,0.973
232.121,71.37595,-0.29286,0.19461,0.97271
232.821,71.60301,-0.29549,0.19435,0.97243
233.521,71.8317,-0.30087,0.19508,0.97214
234.221,72.06061,-0.30535,0.194,0.97185
234.921,72.28941,-0.30808,0.19306,0.97157
235.621,72.51716,-0.31271,0.19188,0.97128
236.321,72.7448,-0.31799,0.19312,0.97099
237.021,72.9719,-0.32196,0.19443,0.9707
237.721,73.1986,-0.32625,0.1952,0.97042
238.421,73.42452,-0.33293,0.19399,0.97013
239.121,73.6507,-0.33695,0.19499,0.96984
239.821,73.87715,-0.34208,0.19599,0.96955
240.521,74.10398,-0.3473,0.19445,0.96926
241.221,74.33034,-0.35144,0.1939,0.96897
241.921,74.55739,-0.35799,0.19611,0.96869
242.621,74.7847,-0.36208,0.19496,0.9684
243.321,75.0123,-0.36955,0.1948,0.96811
244.021,75.2406,-0.37378,0.19499,0.96782
244.721,75.4692,-0.37919,0.19536,0.96753
245.421,75.69766,-0.38556,0.19437,0.96724
246.121,75.92551,-0.3923,0.1955,0.96695
246.821,76.1529,-0.39783,0.19547,0.96666
247.521,76.37991,-0.4057,0.19982,0.96637
248.221,76.60553,-0.41106,0.20008,0.96608
248.921,76.83057,-0.41895,0.20108,0.96579
249.621,77.0556,-0.4252,0.20129,0.9655
250.321,77.2809,-0.43388,0.20041,0.96521
251.021,77.50675,-0.44162,0.19929,0.96492
251.721,77.7326,-0.44762,0.2004,0.96463
252.421,77.95961,-0.45573,0.1957,0.96434
253.121,78.18711,-0.46348,0.19684,0.96405
253.821,78.4156,-0.47328,0.1985,0.96375
254.521,78.64321,-0.47998,0.19809,0.96346
255.221,78.86975,-0.48959,0.19978,0.96317
255.921,79.09606,-0.49898,0.20137,0.96288
256.621,79.32249,-0.50794,0.19847,0.96259
257.321,79.54915,-0.51482,0.20078,0.96229
258.021,79.77531,-0.52501,0.19768,0.962
258.721,80.00193,-0.53624,0.19809,0.96171
259.421,80.22815,-0.54541,0.19743,0.96142
260.121,80.45376,-0.55528,0.19697,0.96112
260.821,80.67837,-0.56782,0.19657,0.96083
261.521,80.90397,-0.57748,0.19282,0.96054
262.221,81.13068,-0.58859,0.19273,0.96024
262.921,81.35858,-0.59964,0.191,0.95995
263.621,81.5856,-0.6104,0.1898,0.95965
264.321,81.81265,-0.62128,0.18781,0.95936
265.021,82.03939,-0.63316,0.18725,0.95906
265.721,82.2663,-0.64624,0.1845,0.95877
266.421,82.49298,-0.65513,0.18092,0.95847
267.121,82.71999,-0.66746,0.18102,0.95818
267.821,82.94725,-0.6812,0.17953,0.95788
268.521,83.17406,-0.6938,0.18059,0.95759
269.221,83.40021,-0.70386,0.17905,0.95729
269.921,83.62661,-0.71757,0.17563,0.95699
270.621,83.85287,-0.73005,0.17327,0.9567
271.321,84.0787,-0.74304,0.16956,0.9564
272.021,84.30423,-0.75614,0.17061,0.9561
272.721,84.52999,-0.76909,0.1669,0.95581
273.421,84.75622,-0.78214,0.16927,0.95551
274.121,84.98201,-0.79626,0.1659,0.95521
274.821,85.20814,-0.80859,0.16299,0.95491
275.521,85.43496,-0.82452,0.16104,0.95462
276.221,85.66265,-0.83607,0.15984,0.95432
276.921,85.89116,-0.85081,0.15766,0.95402
277.621,86.11938,-0.86442,0.15515,0.95372
278.321,86.3479,-0.87882,0.1553,0.95342
279.021,86.57647,-0.89436,0.15464,0.95312
279.721,86.80526,-0.90676,0.15195,0.95282
280.421,87.03362,-0.92228,0.15044,0.95252
281.121,87.262,-0.93818,0.14828,0.95222
281.821,87.49008,-0.95283,0.15113,0.95192
282.521,87.71842,-0.96631,0.14937,0.95162
283.221,87.94654,-0.98267,0.15074,0.95132
283.921,88.17413,-0.99892,0.14968,0.95102
284.621,88.401,-1.0134,0.15076,0.95072
285.321,88.6266,-1.02957,0.15172,0.95042
286.021,88.8524,-1.04401,0.14948,0.95011
286.721,89.07816,-1.05993,0.14875,0.94981
287.421,89.3045,-1.07458,0.14921,0.94951
288.121,89.53121,-1.0902,0.14839,0.94921
288.821,89.75819,-1.10718,0.15029,0.9489
289.521,89.98443,-1.12355,0.15026,0.9486
290.221,90.21109,-1.13887,0.15097,0.9483
290.921,90.4381,-1.15614,0.15149,0.94799
291.621,90.66606,-1.17404,0.15127,0.94769
292.321,90.8938,-1.18868,0.15108,0.94739
293.021,91.12175,-1.20629,0.15239,0.94708
293.721,91.3501,-1.22225,0.14966,0.94678
294.421,91.578,-1.24147,0.15107,0.94647
295.121,91.80587,-1.26066,0.15313,0.94616
295.821,92.0331,-1.27682,0.15392,0.94586
296.521,92.26052,-1.29486,0.15458,0.94555
297.221,92.4875,-1.31322,0.15557,0.94525
297.921,92.7154,-1.33029,0.15871,0.94494
298.621,92.94336,-1.3501,0.15861,0.94463
299.321,93.17182,-1.36682,0.1552,0.94433
300.021,93.4001,-1.38798,0.15668,0.94402
300.721,93.62831,-1.40543,0.1592,0.94371
301.421,93.8558,-1.42515,0.16148,0.9434
302.121,94.08351,-1.44501,0.16136,0.94309
302.821,94.31182,-1.46548,0.16222,0.94278
303.521,94.54058,-1.48618,0.16726,0.94247
304.221,94.76918,-1.50625,0.1651,0.94217
304.921,94.9969,-1.52617,0.16352,0.94186
305.621,95.22351,-1.54634,0.16708,0.94155
306.321,95.44975,-1.56805,0.16931,0.94124
307.021,95.67589,-1.58946,0.1677,0.94092
307.721,95.90298,-1.61047,0.17026,0.94061
308.421,96.1308,-1.63264,0.16742,0.9403
309.121,96.3599,-1.65438,0.16844,0.93999
309.821,96.58957,-1.67632,0.16875,0.93968
310.521,96.8193,-1.69883,0.1683,0.93937
311.221,97.0484,-1.72193,0.16816,0.93905
311.921,97.27719,-1.74587,0.16807,0.93874
312.621,97.5055,-1.76747,0.17156,0.93843
313.321,97.73429,-1.79087,0.17194,0.93811
314.021,97.96261,-1.81449,0.17205,0.9378
314.721,98.19034,-1.83848,0.17439,0.93748
315.421,98.41758,-1.8605,0.1732,0.93717
316.121,98.64444,-1.88506,0.17173,0.93685
316.821,98.87171,-1.90916,0.17434,0.93654
317.521,99.0989,-1.93352,0.17416,0.93622
318.221,99.32725,-1.95663,0.17336,0.93591
318.921,99.5562,-1.98134,0.16946,0.93559
319.621,99.78517,-2.00566,0.17266,0.93527
320.321,100.014,-2.02935,0.17005,0.93496
321.021,100.243,-2.05272,0.16995,0.93464
321.721,100.473,-2.07945,0.16872,0.93432
322.421,100.702,-2.10246,0.16635,0.934
323.121,100.931,-2.12724,0.16506,0.93368
323.821,101.16,-2.15204,0.16407,0.93337
324.521,101.39,-2.17626,0.16198,0.93305
325.221,101.62,-2.19987,0.15851,0.93273
325.921,101.848,-2.22324,0.15764,0.93241
326.621,102.076,-2.24652,0.15584,0.93209
327.321,102.304,-2.27,0.15488,0.93177
328.021,102.531,-2.29078,0.15243,0.93144
328.721,102.758,-2.31263,0.14545,0.93112
329.421,102.985,-2.33419,0.14403,0.9308
330.121,103.214,-2.35623,0.14172,0.93048
330.821,103.442,-2.37855,0.13616,0.93016
331.521,103.67,-2.39887,0.13204,0.92983
332.221,103.898,-2.4184,0.1241,0.92951
332.921,104.126,-2.43796,0.12747,0.92919
333.621,104.3541,-2.45357,0.11795,0.92886
334.321,104.583,-2.47224,0.11335,0.92854
335.021,104.813,-2.48967,0.11306,0.92821
335.721,105.043,-2.50571,0.1026,0.92789
336.421,105.274,-2.52041,0.0980903,0.92756
337.121,105.503,-2.53415,0.09577188,0.92724
337.821,105.733,-2.546,0.08958944,0.92691
338.521,105.961,-2.5584,0.08472971,0.92658
339.221,106.189,-2.56878,0.07928234,0.92625
339.921,106.417,-2.57872,0.07713574,0.92593
340.621,106.645,-2.58617,0.07485026,0.9256
341.321,106.874,-2.59413,0.0710685,0.92527
342.021,107.102,-2.60271,0.06721066,0.92494
342.721,107.332,-2.60923,0.06376296,0.92461
343.421,107.56,-2.61437,0.06430051,0.92428
344.121,107.79,-2.6185,0.06193477,0.92395
344.821,108.02,-2.6266,0.06050871,0.92362
345.521,108.25,-2.63203,0.05681869,0.92329
346.221,108.479,-2.63454,0.05434736,0.92296
346.921,108.708,-2.63985,0.05646076,0.92263
347.621,108.938,-2.64526,0.05544356,0.9223
348.321,109.168,-2.64815,0.05311674,0.92196
349.021,109.397,-2.65344,0.05289163,0.92163
349.721,109.626,-2.65615,0.05182208,0.9213
350.421,109.853,-2.65998,0.05286693,0.92096
351.121,110.081,-2.66369,0.05330683,0.92063
351.821,110.309,-2.66504,0.05263018,0.92029
352.521,110.538,-2.6689,0.05214176,0.91996
353.221,110.767,-2.67098,0.05024766,0.91962
353.921,110.996,-2.67665,0.05254798,0.91929
354.621,111.226,-2.67863,0.05261585,0.91895
355.321,111.4565,-2.6815,0.05126732,0.91861
356.021,111.687,-2.68407,0.04958002,0.91828
356.721,111.918,-2.6881,0.05052205,0.91794
357.421,112.149,-2.69101,0.04857299,0.9176
358.121,112.379,-2.69367,0.04975716,0.91726
358.821,112.61,-2.69527,0.04939085,0.91692
359.521,112.84,-2.69892,0.05021777,0.91658
360.221,113.07,-2.7015,0.0495649,0.91624
360.921,113.2991,-2.70584,0.04807862,0.9159
361.621,113.529,-2.70855,0.04674676,0.91556
362.321,113.7576,-2.71043,0.04989771,0.91522
363.021,113.986,-2.7131,0.04760561,0.91488
363.721,114.214,-2.71571,0.05054697,0.91454
364.421,114.443,-2.71802,0.0482141,0.9142
365.121,114.671,-2.71795,0.04813233,0.91385
365.821,114.9,-2.72195,0.04931579,0.91351
366.521,115.129,-2.72426,0.0515219,0.91317
367.221,115.358,-2.72809,0.04863303,0.91282
367.921,115.589,-2.72954,0.04611912,0.91248
368.621,115.82,-2.73122,0.04515427,0.91213
369.321,116.051,-2.73348,0.04621626,0.91179
370.021,116.281,-2.73608,0.04730455,0.91144
370.721,116.512,-2.73881,0.04789466,0.91109
371.421,116.743,-2.74018,0.04480415,0.91074
372.121,116.974,-2.74366,0.04685732,0.9104
372.821,117.205,-2.74402,0.04762163,0.91005
373.521,117.436,-2.74861,0.04693233,0.9097
374.221,117.666,-2.74929,0.04549345,0.90935
374.921,117.895,-2.75257,0.04523241,0.909
375.621,118.125,-2.75357,0.04888956,0.90865
376.321,118.354,-2.75685,0.05047202,0.9083
377.021,118.583,-2.75817,0.04874949,0.90795
377.721,118.812,-2.75943,0.04579806,0.9076
378.421,119.0414,-2.76309,0.04936602,0.90725
379.121,119.27,-2.76444,0.04972822,0.90689
379.821,119.5,-2.76574,0.04968174,0.90654
380.521,119.7289,-2.76968,0.04813293,0.90619
381.221,119.9588,-2.77103,0.04919096,0.90583
381.921,120.189,-2.77367,0.04804354,0.90548
382.621,120.419,-2.77633,0.0491332,0.90513
383.321,120.651,-2.77757,0.04745555,0.90477
384.021,120.882,-2.77893,0.04623136,0.90441
384.721,121.1138,-2.78119,0.04724308,0.90406
385.421,121.346,-2.78348,0.04790905,0.9037
386.121,121.578,-2.78576,0.04843334,0.90334
386.821,121.8099,-2.78844,0.04846649,0.90299
387.521,122.04,-2.78846,0.04541479,0.90263
388.221,122.27,-2.79139,0.05062813,0.90227
388.921,122.499,-2.79403,0.05155579,0.90191
389.621,122.728,-2.79605,0.05093902,0.90155
390.321,122.957,-2.79668,0.05010912,0.90119
391.021,123.186,-2.79947,0.05027513,0.90083
391.721,123.414,-2.80161,0.05036995,0.90047
392.421,123.643,-2.80285,0.04938175,0.90011
393.121,123.872,-2.80417,0.053106,0.89974
393.821,124.101,-2.80719,0.05039552,0.89938
394.521,124.33,-2.80836,0.05292199,0.89902
395.221,124.56,-2.81125,0.05086366,0.89865
395.921,124.7915,-2.81243,0.04844406,0.89829
396.621,125.024,-2.81383,0.05069809,0.89792
397.321,125.255,-2.8176,0.05086285,0.89756
398.021,125.486,-2.81904,0.05064027,0.89719
398.721,125.717,-2.81904,0.05216547,0.89683
399.421,125.946,-2.82112,0.04996034,0.89646
400.121,126.176,-2.82299,0.05352143,0.89609
400.821,126.405,-2.82562,0.05270762,0.89572
401.521,126.634,-2.82973,0.04987453,0.89536
402.221,126.864,-2.8285,0.05155702,0.89499
402.921,127.094,-2.83098,0.0529602,0.89462
403.621,127.3248,-2.83308,0.05215722,0.89425
404.321,127.556,-2.83415,0.05124223,0.89388
405.021,127.787,-2.83637,0.05107578,0.89351
405.721,128.018,-2.83769,0.05215349,0.89313
406.421,128.25,-2.84032,0.05025498,0.89276
407.121,128.481,-2.84165,0.04990441,0.89239
407.821,128.712,-2.8423,0.04891861,0.89202
408.521,128.943,-2.84556,0.05048977,0.89164
409.221,129.174,-2.84694,0.05086031,0.89127
409.921,129.405,-2.84822,0.05085552,0.89089
410.621,129.636,-2.8497,0.04887068,0.89052
411.321,129.866,-2.85184,0.05039488,0.89014
412.021,130.096,-2.85208,0.05309951,0.88976
412.721,130.327,-2.85313,0.05078362,0.88939
413.421,130.557,-2.85706,0.05162056,0.88901
414.121,130.7876,-2.85579,0.05021365,0.88863
414.821,131.018,-2.85875,0.05293513,0.88825
415.521,131.251,-2.85977,0.05201748,0.88787
416.221,131.484,-2.86208,0.05165321,0.88749
416.921,131.718,-2.86436,0.05321458,0.88711
417.621,131.951,-2.86635,0.05246178,0.88673
418.321,132.183,-2.86566,0.04951632,0.88635
419.021,132.4144,-2.8683,0.05113657,0.88597
419.721,132.645,-2.86675,0.05056073,0.88559
420.421,132.876,-2.87049,0.05453925,0.8852
421.121,133.107,-2.87313,0.05345478,0.88482
421.821,133.339,-2.87312,0.05362651,0.88444
422.521,133.5714,-2.87347,0.05564786,0.88405
423.221,133.803,-2.87606,0.05610124,0.88367
423.921,134.034,-2.8774,0.05215827,0.88328
424.621,134.265,-2.8787,0.0543688,0.88289
425.321,134.495,-2.87945,0.05655861,0.88251
426.021,134.726,-2.88168,0.0545316,0.88212
426.721,134.955,-2.88031,0.05380123,0.88173
427.421,135.186,-2.88305,0.05511952,0.88134
428.121,135.417,-2.88563,0.05597237,0.88095
428.821,135.648,-2.8854,0.05776643,0.88056
429.521,135.878,-2.8868,0.06468601,0.88017
430.221,136.109,-2.88946,0.06628568,0.87978
430.921,136.339,-2.88969,0.06968119,0.87939
431.621,136.5708,-2.88971,0.07088863,0.879
432.321,136.803,-2.891,0.07117833,0.8786
433.021,137.036,-2.89279,0.06956498,0.87821
433.721,137.27,-2.8944,0.07389214,0.87782
434.421,137.503,-2.89572,0.07095917,0.87742
435.121,137.736,-2.89473,0.07463984,0.87703
435.821,137.967,-2.89772,0.07787673,0.87663
436.521,138.198,-2.89909,0.07514928,0.87624
437.221,138.427,-2.899,0.07631223,0.87584
437.921,138.657,-2.90032,0.07385451,0.87544
438.621,138.887,-2.90131,0.07557893,0.87504
439.321,139.119,-2.90271,0.07239676,0.87465
440.021,139.351,-2.90392,0.07430016,0.87425
440.721,139.582,-2.9046,0.07355437,0.87385
441.421,139.813,-2.90624,0.07571278,0.87345
442.121,140.043,-2.90822,0.07669463,0.87305
442.821,140.273,-2.90953,0.0783874,0.87264
443.521,140.504,-2.9093,0.07848238,0.87224
444.221,140.736,-2.91185,0.0793458,0.87184
444.921,140.969,-2.91054,0.07918494,0.87144
445.621,141.201,-2.91255,0.07704614,0.87103
446.321,141.432,-2.91414,0.07737747,0.87063
447.021,141.663,-2.91546,0.08063513,0.87022
447.721,141.895,-2.91618,0.08139834,0.86982
448.421,142.128,-2.91678,0.08136851,0.86941
449.121,142.361,-2.91812,0.08011263,0.86901
449.821,142.594,-2.92043,0.07980882,0.8686
450.521,142.827,-2.92072,0.08255929,0.86819
451.221,143.059,-2.92204,0.08127995,0.86778
451.921,143.29,-2.92335,0.08163323,0.86737
452.621,143.519,-2.92472,0.08211727,0.86696
453.321,143.75,-2.92665,0.08063117,0.86655
454.021,143.981,-2.92664,0.07905728,0.86614
454.721,144.217,-2.92796,0.07895715,0.86573
455.421,144.45,-2.92796,0.07919331,0.86532
456.121,144.6825,-2.9303,0.08353238,0.8649
456.821,144.9132,-2.93191,0.08226586,0.86449
457.521,145.145,-2.93118,0.08160721,0.86408
458.221,145.375,-2.93221,0.0797601,0.86366
458.921,145.605,-2.9327,0.08032986,0.86325
459.621,145.835,-2.93355,0.07791483,0.86283
460.321,146.065,-2.93487,0.08039463,0.86241
461.021,146.296,-2.93776,0.08139715,0.862
461.721,146.527,-2.93761,0.08112851,0.86158
462.421,146.758,-2.94024,0.08146029,0.86116
463.121,146.99,-2.93947,0.07844034,0.86074
463.821,147.223,-2.94025,0.07445585,0.86032
464.521,147.456,-2.94277,0.07140685,0.8599
465.221,147.689,-2.94277,0.06960548,0.85948
465.921,147.923,-2.9431,0.06333656,0.85906
466.621,148.157,-2.94574,0.05972553,0.85864
467.321,148.391,-2.94704,0.06251021,0.85822
468.021,148.625,-2.94789,0.06166408,0.85779
468.721,148.859,-2.94836,0.05792017,0.85737
469.421,149.091,-2.94803,0.05882482,0.85695
470.121,149.3245,-2.95105,0.05707159,0.85652
470.821,149.558,-2.951,0.05720011,0.85609
471.521,149.792,-2.952,0.05391585,0.85567
472.221,150.026,-2.95234,0.05419941,0.85524
472.921,150.258,-2.95363,0.05164137,0.85481
473.621,150.489,-2.95496,0.04983163,0.85439
474.321,150.72,-2.95623,0.05280103,0.85396
475.021,150.952,-2.95627,0.04913247,0.85353
475.721,151.184,-2.9589,0.05020775,0.8531
476.421,151.417,-2.95856,0.04938145,0.85267
477.121,151.651,-2.95988,0.04758362,0.85224
477.821,151.885,-2.96119,0.04475134,0.8518
478.521,152.118,-2.96284,0.04334004,0.85137
479.221,152.3513,-2.96413,0.04281392,0.85094
479.921,152.585,-2.96151,0.0435593,0.8505
480.621,152.818,-2.96347,0.04123316,0.85007
481.321,153.052,-2.96483,0.04182628,0.84963
482.021,153.285,-2.96614,0.04419268,0.8492
482.721,153.518,-2.96614,0.04288793,0.84876
483.421,153.749,-2.96872,0.04038847,0.84833
484.121,153.979,-2.96772,0.04076714,0.84789
484.821,154.211,-2.97016,0.03725236,0.84745
485.521,154.442,-2.97009,0.03668263,0.84701
486.221,154.674,-2.97074,0.03509105,0.84657
486.921,154.9061,-2.97351,0.03387855,0.84613
487.621,155.139,-2.97075,0.03118459,0.84569
488.321,155.371,-2.97337,0.03266689,0.84525
489.021,155.604,-2.9745,0.02969574,0.84481
489.721,155.836,-2.97501,0.03019068,0.84436
490.421,156.069,-2.97463,0.03063018,0.84392
491.121,156.303,-2.97502,0.02979019,0.84348
491.821,156.537,-2.97769,0.02915932,0.84303
492.521,156.772,-2.97832,0.02823277,0.84259
493.221,157.006,-2.97996,0.02702092,0.84214
493.921,157.241,-2.9793,0.02488308,0.84169
494.621,157.4749,-2.97994,0.02254096,0.84125
495.321,157.7105,-2.98289,0.02425104,0.8408
496.021,157.945,-2.98326,0.02290775,0.84035
496.721,158.178,-2.98259,0.02408079,0.8399
497.421,158.411,-2.9839,0.02556156,0.83945
498.121,158.643,-2.98376,0.02297593,0.839
498.821,158.876,-2.98621,0.02248294,0.83855
499.521,159.108,-2.98622,0.02475231,0.8381
500.221,159.341,-2.98654,0.02534652,0.83765
500.921,159.573,-2.98655,0.02225777,0.83719
501.621,159.806,-2.98786,0.02598602,0.83674
502.321,160.039,-2.98785,0.02439614,0.83628
503.021,160.272,-2.98851,0.0256081,0.83583
503.721,160.506,-2.99018,0.0241168,0.83537
504.421,160.741,-2.98986,0.02521153,0.83492
505.121,160.974,-2.9892,0.02364684,0.83446
505.821,161.205,-2.99205,0.02606988,0.834
506.521,161.437,-2.99312,0.02565387,0.83355
507.221,161.67,-2.99317,0.02485607,0.83309
507.921,161.903,-2.99345,0.02626348,0.83263
508.621,162.1366,-2.99476,0.02544847,0.83217
509.321,162.371,-2.99673,0.02331968,0.83171
510.021,162.606,-2.99543,0.02468056,0.83124
510.721,162.84,-2.99563,0.02080803,0.83078
511.421,163.075,-2.99806,0.02362146,0.83032
512.121,163.3086,-2.99741,0.02380615,0.82986
512.821,163.543,-2.99871,0.02446425,0.82939
513.521,163.777,-3.00036,0.02315221,0.82893
514.221,164.01,-3.00146,0.02452326,0.82846
514.921,164.2427,-3.00134,0.02329905,0.828
515.621,164.476,-3.00211,0.02471921,0.82753
516.321,164.711,-3.00268,0.02290721,0.82706
517.021,164.945,-3.00412,0.0224106,0.82659
517.721,165.179,-3.00338,0.02153776,0.82613
518.421,165.413,-3.00306,0.02466604,0.82566
519.121,165.647,-3.00454,0.02728028,0.82519
519.821,165.88,-3.00731,0.0246888,0.82472
520.521,166.112,-3.00628,0.02713968,0.82424
521.221,166.343,-3.0076,0.02242111,0.82377
521.921,166.575,-3.00628,0.02327281,0.8233
522.621,166.807,-3.00693,0.02415431,0.82283
523.321,167.04,-3.00826,0.02634484,0.82235
524.021,167.272,-3.00922,0.02730683,0.82188
524.721,167.506,-3.0109,0.02702472,0.8214
525.421,167.74,-3.01064,0.02826155,0.82093
526.121,167.975,-3.01244,0.0286579,0.82045
526.821,168.209,-3.01254,0.03021923,0.81997
527.521,168.443,-3.01155,0.02988605,0.8195
528.221,168.676,-3.01288,0.02927343,0.81902
528.921,168.909,-3.01516,0.02985356,0.81854
529.621,169.143,-3.01418,0.03021792,0.81806
530.321,169.375,-3.01432,0.02930287,0.81758
531.021,169.609,-3.01483,0.02913108,0.8171
531.721,169.842,-3.01417,0.03219374,0.81661
532.421,170.078,-3.01681,0.03011516,0.81613
533.121,170.313,-3.01713,0.03036608,0.81565
533.821,170.549,-3.01714,0.03262861,0.81517
534.521,170.784,-3.01976,0.02992362,0.81468
535.221,171.019,-3.01982,0.03438615,0.8142
535.921,171.252,-3.01714,0.03217347,0.81371
536.621,171.4861,-3.01813,0.03112304,0.81322
537.321,171.72,-3.01985,0.03117663,0.81274
538.021,171.9546,-3.02042,0.03324731,0.81225
538.721,172.19,-3.0214,0.03391083,0.81176
539.421,172.426,-3.0204,0.03434581,0.81127
540.121,172.661,-3.02241,0.03480295,0.81078
540.821,172.897,-3.02259,0.0352108,0.81029
541.521,173.132,-3.0218,0.0330872,0.8098
542.221,173.367,-3.02372,0.03381618,0.80931
542.921,173.601,-3.02635,0.03448487,0.80882
543.621,173.8364,-3.02504,0.03581894,0.80832
544.321,174.071,-3.02503,0.03561512,0.80783
545.021,174.304,-3.02536,0.0361767,0.80733
545.721,174.537,-3.02569,0.03635573,0.80684
546.421,174.77,-3.02719,0.04012183,0.80634
547.121,175.0049,-3.02731,0.03961591,0.80585
547.821,175.24,-3.02719,0.03713944,0.80535
548.521,175.474,-3.02898,0.03841159,0.80485
549.221,175.708,-3.02898,0.03900378,0.80435
549.921,175.942,-3.02908,0.03622955,0.80385
550.621,176.175,-3.03053,0.03914152,0.80336
551.321,176.409,-3.03162,0.03927386,0.80285
552.021,176.643,-3.03095,0.03759339,0.80235
552.721,176.8774,-3.03271,0.04019965,0.80185
553.421,177.111,-3.03222,0.04131778,0.80135
554.121,177.345,-3.03345,0.04307406,0.80085
554.821,177.578,-3.03359,0.04183155,0.80034
555.521,177.812,-3.03491,0.04104713,0.79984
556.221,178.0463,-3.03773,0.04359642,0.79933
556.921,178.281,-3.03444,0.04441205,0.79883
557.621,178.515,-3.03842,0.04283171,0.79832
558.321,178.749,-3.0371,0.04576625,0.79781
559.021,178.983,-3.03776,0.04623507,0.79731
559.721,179.218,-3.03776,0.04599367,0.7968
560.421,179.451,-3.03911,0.04585349,0.79629
561.121,179.685,-3.03907,0.04516304,0.79578
561.821,179.919,-3.04171,0.0476324,0.79527
562.521,180.153,-3.04149,0.04633327,0.79476
563.221,180.387,-3.04039,0.04652861,0.79425
563.921,180.621,-3.04159,0.0507675,0.79373
564.621,180.855,-3.0422,0.05008611,0.79322
565.321,181.089,-3.04203,0.051414,0.79271
566.021,181.323,-3.04075,0.05506074,0.79219
566.721,181.558,-3.04059,0.05287559,0.79168
567.421,181.794,-3.04302,0.05340338,0.79116
568.121,182.031,-3.04401,0.05139879,0.79065
568.821,182.2671,-3.04401,0.05040444,0.79013
569.521,182.503,-3.04417,0.05185685,0.78961
570.221,182.738,-3.04563,0.05455682,0.78909
570.921,182.972,-3.04499,0.05575555,0.78858
571.621,183.206,-3.04688,0.05428728,0.78806
572.321,183.4392,-3.04576,0.05540032,0.78754
573.021,183.6734,-3.04537,0.05637718,0.78701
573.721,183.909,-3.04642,0.05723282,0.78649
574.421,184.145,-3.04772,0.05827293,0.78597
575.121,184.382,-3.04708,0.05696659,0.78545
575.821,184.619,-3.04708,0.05854921,0.78492
576.521,184.854,-3.04774,0.06101895,0.7844
577.221,185.089,-3.04905,0.06113585,0.78388
577.921,185.3232,-3.04774,0.06301411,0.78335
578.621,185.557,-3.04984,0.0618872,0.78282
579.321,185.791,-3.04906,0.06172708,0.7823
580.021,186.025,-3.04906,0.06222384,0.78177
580.721,186.26,-3.04906,0.06426425,0.78124
581.421,186.495,-3.05005,0.06346341,0.78071
582.121,186.73,-3.05096,0.064759,0.78018
582.821,186.966,-3.05103,0.06412402,0.77965
583.521,187.202,-3.05112,0.06059952,0.77912
584.221,187.439,-3.05298,0.06626355,0.77859
584.921,187.675,-3.05235,0.06444909,0.77806
585.621,187.91,-3.05375,0.06275074,0.77753
586.321,188.145,-3.05471,0.06350687,0.77699
587.021,188.3798,-3.05432,0.0664898,0.77646
587.721,188.614,-3.05498,0.06811938,0.77592
588.421,188.849,-3.05565,0.06584063,0.77539
589.121,189.084,-3.05564,0.06938624,0.77485
589.821,189.318,-3.05558,0.06926588,0.77432
590.521,189.553,-3.05827,0.0719843,0.77378
591.221,189.789,-3.05827,0.07143791,0.77324
591.921,190.024,-3.05815,0.07549844,0.7727
592.621,190.259,-3.05791,0.07430429,0.77216
593.321,190.494,-3.05992,0.07296532,0.77162
594.021,190.73,-3.05992,0.07435234,0.77108
594.721,190.967,-3.06058,0.07531528,0.77054
595.421,191.204,-3.06188,0.07395192,0.77
596.121,191.441,-3.06034,0.07579757,0.76946
596.821,191.678,-3.06131,0.07287585,0.76891
597.521,191.9153,-3.06189,0.07595226,0.76837
598.221,192.152,-3.06249,0.07786083,0.76782
598.921,192.388,-3.06376,0.07745899,0.76728
599.621,192.624,-3.06378,0.07931292,0.76673
600.321,192.858,-3.06288,0.07608079,0.76619
601.021,193.092,-3.06269,0.07694275,0.76564
601.721,193.325,-3.06342,0.07618496,0.76509
602.421,193.559,-3.06375,0.07682964,0.76454
603.121,193.793,-3.06507,0.07587383,0.764
603.821,194.027,-3.06646,0.08030234,0.76345
604.521,194.2612,-3.0654,0.07858974,0.76289
605.221,194.496,-3.06749,0.07840626,0.76234
605.921,194.731,-3.06757,0.08027705,0.76179
606.621,194.967,-3.0677,0.08029978,0.76124
607.321,195.203,-3.06803,0.07876192,0.76069
608.021,195.44,-3.06705,0.08024448,0.76013
608.721,195.676,-3.0677,0.0796223,0.75958
609.421,195.912,-3.06803,0.07907872,0.75902
610.121,196.147,-3.06803,0.07872821,0.75847
610.821,196.383,-3.06902,0.0786626,0.75791
611.521,196.6169,-3.06802,0.08100142,0.75736
612.221,196.852,-3.06803,0.08004276,0.7568
612.921,197.086,-3.0688,0.07814729,0.75624
613.621,197.321,-3.06935,0.07755892,0.75568
614.321,197.557,-3.07048,0.07821393,0.75512
615.021,197.794,-3.0703,0.0826237,0.75456
615.721,198.033,-3.07164,0.07931243,0.754
616.421,198.271,-3.07098,0.07616857,0.75344
617.121,198.508,-3.06934,0.07778004,0.75288
617.821,198.743,-3.07033,0.07998873,0.75232
618.521,198.978,-3.06966,0.0744669,0.75175
619.221,199.212,-3.07028,0.07701365,0.75119
619.921,199.447,-3.07133,0.07564782,0.75063
620.621,199.683,-3.07297,0.07710556,0.75006
621.321,199.919,-3.07165,0.07790825,0.7495
622.021,200.154,-3.07231,0.07770137,0.74893
622.721,200.389,-3.07201,0.07877209,0.74836
623.421,200.625,-3.07237,0.08022449,0.74779
624.121,200.861,-3.07461,0.07770961,0.74723
624.821,201.096,-3.07328,0.07559872,0.74666
625.521,201.332,-3.0733,0.07938428,0.74609
626.221,201.568,-3.0756,0.08323022,0.74552
626.921,201.805,-3.0739,0.0801719,0.74495
627.621,202.042,-3.07462,0.07989606,0.74438
628.321,202.279,-3.07579,0.07346337,0.7438
629.021,202.516,-3.07494,0.07783316,0.74323
629.721,202.754,-3.07625,0.08077213,0.74266
630.421,202.989,-3.07604,0.07848932,0.74208
631.121,203.224,-3.07593,0.08351014,0.74151
631.821,203.459,-3.07626,0.08416621,0.74094
632.521,203.695,-3.07587,0.08430183,0.74036
633.221,203.929,-3.07626,0.08213625,0.73978
633.921,204.164,-3.07658,0.08344524,0.73921
634.621,204.4,-3.0779,0.0806711,0.73863
635.321,204.636,-3.07889,0.08167975,0.73805
636.021,204.872,-3.07727,0.08173467,0.73747
636.721,205.108,-3.07987,0.08171661,0.73689
637.421,205.3441,-3.07856,0.08216637,0.73631
638.121,205.579,-3.07856,0.07886211,0.73573
638.821,205.814,-3.07988,0.08191206,0.73515
639.521,206.051,-3.07924,0.08031626,0.73457
640.221,206.287,-3.08053,0.07753421,0.73399
640.921,206.524,-3.07856,0.08031916,0.7334
641.621,206.761,-3.08086,0.07841975,0.73282
642.321,206.998,-3.07989,0.08007592,0.73224
643.021,207.234,-3.07987,0.08485361,0.73165
643.721,207.47,-3.08119,0.08075978,0.73106
644.421,207.706,-3.08152,0.0804721,0.73048
645.121,207.943,-3.08117,0.08479596,0.72989
645.821,208.179,-3.0812,0.08484173,0.7293
646.521,208.415,-3.08115,0.08361102,0.72872
647.221,208.649,-3.0812,0.0831744,0.72813
647.921,208.885,-3.08251,0.08521367,0.72754
648.621,209.1222,-3.08251,0.08290182,0.72695
649.321,209.359,-3.08124,0.08230075,0.72636
650.021,209.596,-3.0826,0.0878785,0.72577
650.721,209.833,-3.08152,0.08775457,0.72518
651.421,210.0697,-3.08417,0.08801126,0.72458
652.121,210.307,-3.08349,0.09041627,0.72399
652.821,210.544,-3.08514,0.08924708,0.7234
653.521,210.781,-3.08501,0.09121103,0.7228
654.221,211.019,-3.08514,0.0892262,0.72221
654.921,211.256,-3.08551,0.08971112,0.72161
655.621,211.493,-3.08547,0.08792389,0.72102
656.321,211.729,-3.08547,0.08809933,0.72042
657.021,211.963,-3.08549,0.08488609,0.71983
657.721,212.198,-3.08711,0.08810635,0.71923
658.421,212.433,-3.08741,0.0914157,0.71863
659.121,212.668,-3.08713,0.09107569,0.71803
659.821,212.903,-3.08646,0.08647219,0.71743
660.521,213.138,-3.08778,0.08699381,0.71683
661.221,213.374,-3.08645,0.08865929,0.71623
661.921,213.611,-3.08782,0.0905707,0.71563
662.621,213.8488,-3.08943,0.09467976,0.71503
663.321,214.086,-3.08873,0.09485137,0.71443
664.021,214.324,-3.09008,0.09383125,0.71382
664.721,214.561,-3.09085,0.09500092,0.71322
665.421,214.797,-3.07836,0.09262298,0.71262
666.121,215.033,-3.08831,0.09322943,0.71201
666.821,215.268,-3.09278,0.09823203,0.71141
667.521,215.503,-3.09603,0.09747738,0.7108
668.221,215.738,-3.09336,0.09565545,0.71019
668.921,215.974,-3.09169,0.0948139,0.70959
669.621,216.211,-3.08812,0.09723597,0.70898
670.321,216.448,-3.09135,0.09813026,0.70837
671.021,216.684,-3.0969,0.10184,0.70776
671.721,216.919,-3.10196,0.10801,0.70715
672.421,217.1552,-3.09564,0.10525,0.70654
673.121,217.391,-3.09524,0.10426,0.70593
673.821,217.628,-3.09261,0.1008,0.70532
674.521,217.863,-3.0926,0.10474,0.70471
675.221,218.099,-3.09389,0.10208,0.7041
675.921,218.335,-3.09293,0.10213,0.70349
676.621,218.572,-3.09356,0.10393,0.70287
677.321,218.81,-3.09293,0.10753,0.70226
678.021,219.0485,-3.09425,0.10604,0.70165
678.721,219.287,-3.09425,0.10994,0.70103
679.421,219.523,-3.09488,0.10945,0.70042
680.121,219.7588,-3.09459,0.11234,0.6998
680.821,219.9933,-3.09459,0.11239,0.69918
681.521,220.228,-3.09551,0.11346,0.69857
682.221,220.463,-3.0954,0.11766,0.69795
682.921,220.7,-3.09359,0.11998,0.69733
683.621,220.935,-3.09589,0.11979,0.69671
684.321,221.171,-3.09457,0.12225,0.69609
685.021,221.405,-3.09616,0.1215,0.69547
685.721,221.641,-3.09755,0.12347,0.69485
686.421,221.876,-3.0965,0.12016,0.69423
687.121,222.112,-3.09713,0.12219,0.69361
687.821,222.348,-3.09656,0.12694,0.69299
688.521,222.583,-3.09589,0.12592,0.69237
689.221,222.819,-3.09589,0.1268,0.69174
689.921,223.056,-3.09617,0.13293,0.69112
690.621,223.293,-3.09692,0.13241,0.69049
691.321,223.531,-3.09918,0.12799,0.68987
692.021,223.769,-3.09852,0.13244,0.68924
692.721,224.007,-3.09852,0.13041,0.68862
693.421,224.244,-3.09951,0.13417,0.68799
694.121,224.48,-3.09951,0.13248,0.68736
694.821,224.718,-3.09851,0.13177,0.68674
695.521,224.955,-3.10017,0.1306,0.68611
696.221,225.193,-3.10017,0.13203,0.68548
696.921,225.431,-3.10213,0.12863,0.68485
697.621,225.6672,-3.10083,0.12773,0.68422
698.321,225.903,-3.10079,0.12583,0.68359
699.021,226.138,-3.10073,0.12739,0.68296
699.721,226.373,-3.10214,0.1314,0.68233
700.421,226.608,-3.10181,0.13219,0.6817
701.121,226.843,-3.10255,0.12668,0.68107
701.821,227.078,-3.10229,0.13092,0.68043
702.521,227.314,-3.10346,0.12862,0.6798
703.221,227.5495,-3.10182,0.12698,0.67917
703.921,227.786,-3.10173,0.13068,0.67853
704.621,228.023,-3.10247,0.13154,0.6779
705.321,228.261,-3.10241,0.12581,0.67726
706.021,228.498,-3.10247,0.1299,0.67663
706.721,228.735,-3.10121,0.12867,0.67599
707.421,228.972,-3.10278,0.13006,0.67535
708.121,229.21,-3.10307,0.1283,0.67472
708.821,229.4481,-3.10346,0.12593,0.67408
709.521,229.687,-3.10476,0.12503,0.67344
710.221,229.924,-3.10541,0.12321,0.6728
710.921,230.161,-3.10511,0.12863,0.67216
711.621,230.397,-3.10511,0.12343,0.67152
712.321,230.633,-3.1051,0.12702,0.67088
713.021,230.869,-3.10642,0.12471,0.67024
713.721,231.105,-3.10741,0.12003,0.6696
714.421,231.341,-3.10846,0.11927,0.66896
715.121,231.577,-3.10642,0.12045,0.66831
715.821,231.812,-3.1077,0.12269,0.66767
716.521,232.047,-3.10719,0.1198,0.66703
717.221,232.284,-3.10873,0.1228,0.66638
717.921,232.522,-3.10863,0.11843,0.66574
718.621,232.7597,-3.1084,0.11941,0.66509
719.321,232.996,-3.10872,0.11617,0.66445
720.021,233.232,-3.11107,0.11841,0.6638
720.721,233.466,-3.10905,0.11448,0.66316
721.421,233.702,-3.11009,0.11273,0.66251
722.121,233.937,-3.11004,0.11266,0.66186
722.821,234.173,-3.11039,0.11397,0.66121
723.521,234.408,-3.11136,0.11133,0.66057
724.221,234.644,-3.11136,0.11123,0.65992
724.921,234.88,-3.11266,0.10618,0.65927
725.621,235.116,-3.113,0.10319,0.65862
726.321,235.353,-3.11366,0.10463,0.65797
727.021,235.5894,-3.11301,0.10244,0.65732
727.721,235.826,-3.1127,0.09937418,0.65667
728.421,236.063,-3.11203,0.10207,0.65601
729.121,236.3,-3.11333,0.09896016,0.65536
729.821,236.537,-3.11332,0.09687345,0.65471
730.521,236.776,-3.11333,0.09512353,0.65406
731.221,237.016,-3.11465,0.0937994,0.6534
731.921,237.257,-3.11465,0.09149072,0.65275
732.621,237.497,-3.11529,0.08675844,0.65209
733.321,237.735,-3.11561,0.091709,0.65144
734.021,237.972,-3.11563,0.08803582,0.65078
734.721,238.208,-3.11576,0.08599762,0.65013
735.421,238.446,-3.1173,0.0891284,0.64947
736.121,238.683,-3.11926,0.08377347,0.64881
736.821,238.921,-3.11662,0.08421721,0.64816
737.521,239.157,-3.11827,0.08225522,0.6475
738.221,239.394,-3.11697,0.08434358,0.64684
738.921,239.629,-3.11794,0.08458172,0.64618
739.621,239.865,-3.11794,0.07869735,0.64552
740.321,240.1,-3.11958,0.08120418,0.64486
741.021,240.336,-3.11888,0.0781419,0.6442
741.721,240.572,-3.11925,0.08163321,0.64354
742.421,240.809,-3.12057,0.0797006,0.64288
743.121,241.046,-3.12156,0.08075729,0.64222
743.821,241.283,-3.11892,0.08023172,0.64156
744.521,241.519,-3.12004,0.07828892,0.6409
745.221,241.755,-3.12157,0.07930827,0.64024
745.921,241.991,-3.12156,0.07671404,0.63957
746.621,242.227,-3.12255,0.07705305,0.63891
747.321,242.463,-3.12119,0.07741655,0.63824
748.021,242.701,-3.12123,0.07523232,0.63758
748.721,242.938,-3.1222,0.07499987,0.63692
749.421,243.176,-3.12059,0.07668063,0.63625
749.821,243.312,-3.12121,0.07117894,0.63587