File: 01_Data/Black_PMMA/Cone/Black_PMMA_Cone_HF75Scan_220315_R2.csv
Names,Time,Stack TC,Smoke TC,Exh Press,Smoke Comp,Smoke Meas,CO Meter,CO2 Meter,O2 Meter,Sample Mass,Ext Coeff,Start Test,Flame Verif
Chan Gain,,500,500,1,1,1,1,1,1,1,1,1.0,1.0
Offset,,0,0,0.132973,0,0,0,0,0,0,0,0.0,0.0
Gain,,1,1,25.011,13.0548,13.4146,1,1,1,1.00087,1.01298,1.0,1.0
Units,sec,C,C,Pa,%,%,%,%,%,g,/m,,
Baseline,,48.8948,48.4652,144.512,99.3813,94.7789,0.000567432,0.047817,21.0247,-833.515,0.421357,,
4,0.75,47.6243,47.3829,141.771,99.4208,95.0767,0.000482005,0.055976,21.0149,-238.687,0.396986,0.0,0.0
8,1.75,47.4917,47.1007,147.134,99.4232,95.9921,0.000390236,0.0561858,21.0155,-238.737,0.312059,0.0,0.0
12,2.75,47.067,46.6774,147.121,99.4439,94.9838,0.000306475,0.0560144,21.0167,-238.807,0.407739,0.0,0.0
16,3.75,47.2026,46.9656,146.95,99.4431,95.5287,0.000262014,0.0556216,21.0178,-238.767,0.356841,0.0,0.0
20,4.75,46.8567,46.8715,147.698,99.461,95.114,0.000261804,0.0550999,21.0185,-238.807,0.3971,0.0,0.0
24,5.75,47.0291,46.8973,141.122,99.4423,94.9069,0.000302605,0.0545148,21.019,-238.817,0.414801,0.0,0.0
28,6.75,47.1866,46.8681,145.316,99.4519,95.0591,0.000353182,0.0538499,21.0191,-238.797,0.401409,0.0,0.0
32,7.75,47.1714,46.6145,143.713,99.455,94.8033,0.00039222,0.0532056,21.0186,-238.817,0.425642,0.0,0.0
36,8.75,47.5406,47.0949,143.344,99.469,95.1111,0.00046364,0.0524896,21.0176,-238.837,0.39808,0.0,0.0
40,9.75,47.0758,46.7499,142.683,99.4618,94.7881,0.000603432,0.0521176,21.0159,-238.867,0.427667,0.0,0.0
44,10.75,47.0267,46.9956,149.314,99.4522,95.2098,0.000827884,0.0558523,21.0105,-238.867,0.387373,0.0,0.0
48,11.75,46.8032,46.9795,147.439,99.4427,95.2364,0.00130138,0.070095,20.9683,-238.927,0.384036,0.0,0.0
52,12.75,46.9552,46.8071,124.525,99.4427,94.6105,0.00202634,0.105591,20.8469,-239.058,0.44263,0.0,1.0
56,13.75,46.9553,46.9361,118.74,99.4435,93.4138,0.00301009,0.205049,20.6527,-239.288,0.555804,0.0,1.0
60,14.75,47.9724,47.7696,105.236,99.4363,91.0787,0.00398442,0.345524,20.4752,-239.488,0.780108,0.0,1.0
64,15.75,50.0559,49.1496,111.855,99.4287,89.094,0.00533903,0.53829,20.2506,-239.658,0.9752,0.0,1.0
68,16.75,51.7548,51.1731,106.722,99.4112,87.1163,0.00667841,0.716139,20.0143,-239.918,1.1731,0.0,1.0
72,17.75,54.6111,54.0658,99.5683,99.4236,87.7943,0.00807652,0.90686,19.7922,-240.229,1.10533,0.0,1.0
76,18.75,57.8423,57.1772,105.378,99.412,86.8646,0.00944763,1.07182,19.5471,-240.499,1.19889,0.0,0.0
80,19.75,60.3873,60.4652,94.8749,99.4036,86.9812,0.0107667,1.23589,19.3162,-240.779,1.18622,0.0,0.0
84,20.75,63.3488,63.4575,100.683,99.3905,85.2381,0.0120633,1.38471,19.1376,-240.999,1.36492,0.0,0.0
88,21.75,67.4938,67.7359,86.9475,99.3801,83.4953,0.0129141,1.52212,18.9861,-241.36,1.54755,0.0,0.0
92,22.75,70.5786,71.3867,86.2178,99.3642,85.8481,0.0141747,1.64081,18.853,-241.63,1.29921,0.0,0.0
96,23.75,73.9342,75.0457,89.6472,99.3483,84.3845,0.0153354,1.74502,18.7342,-241.95,1.45058,0.0,0.0
100,24.75,76.7284,78.594,82.8182,99.3307,83.0933,0.0163234,1.83543,18.6061,-242.18,1.58602,0.0,0.0
104,25.75,80.8488,83.3026,86.8544,99.3128,83.3926,0.0171852,1.91952,18.4871,-242.541,1.55247,0.0,0.0
108,26.75,83.993,86.6204,95.7954,99.2949,83.8912,0.0178201,1.99669,18.3766,-242.871,1.4979,0.0,0.0
112,27.75,86.9125,90.2102,92.74,99.2813,83.978,0.0182987,2.06343,18.2869,-243.231,1.4875,0.0,0.0
116,28.75,90.4065,94.0407,84.4455,99.2622,84.2408,0.018746,2.12037,18.2148,-243.581,1.45802,0.0,0.0
120,29.75,93.6976,97.9607,88.5298,99.2471,81.8799,0.0192107,2.17415,18.1516,-243.882,1.70925,0.0,0.0
124,30.75,97.1628,102.023,87.3979,99.2347,81.9286,0.0197563,2.22147,18.0887,-244.232,1.70286,0.0,0.0
128,31.75,99.6125,105.158,104.014,99.2172,83.4712,0.0202698,2.27385,18.0249,-244.502,1.53554,0.0,0.0
132,32.75,102.459,108.396,82.4793,99.1913,83.6947,0.0207104,2.32176,17.9648,-244.893,1.50946,0.0,0.0
136,33.75,105.496,112.117,88.7496,99.1781,84.7075,0.0210551,2.36051,17.9142,-245.223,1.4014,0.0,0.0
140,34.75,108.914,115.619,84.1425,99.1471,83.933,0.0213538,2.39168,17.8731,-245.523,1.48024,0.0,0.0
144,35.75,111.529,119.509,87.0636,99.1192,80.077,0.0216314,2.41745,17.8426,-245.843,1.89564,0.0,0.0
148,36.75,114.673,122.533,91.299,99.1052,81.5389,0.0219399,2.43962,17.8141,-246.184,1.73363,0.0,0.0
152,37.75,117.067,126.182,82.474,99.0797,81.7739,0.0222233,2.46586,17.7805,-246.544,1.70577,0.0,0.0
156,38.75,119.712,128.627,95.4275,99.061,82.4891,0.0223982,2.49514,17.7357,-246.874,1.62671,0.0,0.0
160,39.75,122.081,131.817,85.4973,99.0303,83.264,0.0225769,2.53388,17.6939,-247.265,1.54087,0.0,0.0
164,40.75,124.6,134.77,78.6217,99.0148,80.7304,0.0226856,2.57705,17.6329,-247.585,1.81407,0.0,0.0
168,41.75,127.81,138.397,87.3528,98.9809,82.5636,0.0227363,2.60749,17.5842,-247.995,1.61151,0.0,0.0
172,42.75,130.328,141.407,86.7628,98.9793,83.1507,0.0227883,2.64302,17.5504,-248.356,1.54841,0.0,0.0
176,43.75,132.768,144.672,84.1234,98.9419,84.6588,0.0228578,2.67169,17.5239,-248.656,1.38532,0.0,0.0
180,44.75,135.428,148.065,87.9451,98.9323,81.2008,0.0229197,2.69391,17.5009,-248.956,1.75504,0.0,0.0
184,45.75,138.38,151.055,76.825,98.9025,84.6031,0.0229287,2.71404,17.4843,-249.336,1.38762,0.0,0.0
188,46.75,140.308,153.841,84.6256,98.8833,83.2731,0.0229297,2.72996,17.4695,-249.687,1.52671,0.0,0.0
192,47.75,142.886,156.546,82.6999,98.8662,83.4802,0.022986,2.73826,17.4566,-249.977,1.5031,0.0,0.0
196,48.75,145.228,159.818,78.3767,98.8431,83.8695,0.0231241,2.73958,17.4459,-250.397,1.45968,0.0,0.0
200,49.75,147.24,162.18,90.6097,98.8268,81.7473,0.0233256,2.7463,17.4341,-250.728,1.68595,0.0,0.0
204,50.75,148.719,164.441,83.9471,98.7989,82.0248,0.0235624,2.76207,17.419,-251.138,1.65332,0.0,0.0
208,51.75,151.18,166.808,80.4902,98.7969,82.6025,0.0237423,2.78091,17.3932,-251.488,1.59078,0.0,0.0
212,52.75,152.862,169.206,85.0638,98.7642,81.8902,0.023842,2.80828,17.3595,-251.809,1.6648,0.0,0.0
216,53.75,155.389,172.291,77.7539,98.7335,82.3978,0.0238797,2.831,17.3348,-252.229,1.60713,0.0,0.0
220,54.75,156.914,174.617,79.2888,98.7212,82.6979,0.0238801,2.84584,17.3138,-252.559,1.57372,0.0,0.0
224,55.75,159.091,177.352,85.9286,98.6913,82.1776,0.0239364,2.85675,17.2984,-252.98,1.62711,0.0,0.0
228,56.75,161.173,179.835,92.1454,98.6674,83.0852,0.0240736,2.86958,17.2826,-253.34,1.52736,0.0,0.0
232,57.75,162.848,182.029,81.9061,98.6546,83.549,0.0242171,2.8898,17.2645,-253.73,1.47674,0.0,0.0
236,58.75,164.987,184.34,81.6496,98.6327,82.643,0.0243912,2.91656,17.2324,-254.011,1.57165,0.0,0.0
240,59.75,166.83,186.641,81.984,98.6044,82.7302,0.024511,2.93964,17.2047,-254.411,1.55973,0.0,0.0
244,60.75,168.544,188.759,89.016,98.5945,81.735,0.024569,2.94971,17.181,-254.751,1.66637,0.0,0.0
248,61.75,170.547,191.49,75.0756,98.5778,82.5124,0.0245811,2.96076,17.1643,-255.121,1.58075,0.0,0.0
252,62.75,172.057,193.512,88.0436,98.5566,82.6795,0.0245577,2.9706,17.1525,-255.512,1.56087,0.0,0.0
256,63.75,173.739,195.756,85.8278,98.5415,81.6237,0.024527,2.9786,17.1439,-255.842,1.67371,0.0,0.0
260,64.75,175.412,197.78,84.5852,98.52,81.2978,0.024547,2.98462,17.1376,-256.182,1.70731,0.0,0.0
264,65.75,177.093,199.91,81.5428,98.5184,82.4535,0.0246384,2.99215,17.1308,-256.533,1.58174,0.0,0.0
268,66.75,178.284,201.639,81.6237,98.4841,81.7862,0.0248268,2.99987,17.1242,-256.923,1.65086,0.0,0.0
272,67.75,180.182,203.284,76.8769,98.4714,83.7246,0.0250107,3.00716,17.1199,-257.333,1.44156,0.0,0.0
276,68.75,181.236,205.31,88.9137,98.455,82.2557,0.0252612,3.00776,17.1166,-257.724,1.59736,0.0,0.0
280,69.75,182.978,207.264,76.6777,98.4435,81.0472,0.0255071,3.00487,17.1124,-258.084,1.72784,0.0,0.0
284,70.75,184.01,208.607,80.8993,98.4156,80.0877,0.02576,3.00733,17.108,-258.404,1.83115,0.0,0.0
288,71.75,185.422,210.371,84.1807,98.4319,81.0923,0.0260664,3.01623,17.1045,-258.805,1.72186,0.0,0.0
292,72.75,186.596,212.085,84.3722,98.4009,82.5325,0.0262735,3.03127,17.0871,-259.185,1.56263,0.0,0.0
296,73.75,187.956,213.816,78.4698,98.3817,81.6953,0.0266013,3.05522,17.0583,-259.595,1.6515,0.0,0.0
300,74.75,189.102,215.619,81.0925,98.3793,82.9255,0.026875,3.07486,17.0349,-259.966,1.51847,0.0,0.0
304,75.75,190.434,217.224,78.6797,98.3674,82.0953,0.0271348,3.08699,17.016,-260.386,1.6068,0.0,0.0
308,76.75,191.978,219.138,79.6819,98.3554,80.8937,0.0273578,3.1003,17.0014,-260.736,1.73673,0.0,0.0
312,77.75,193.54,221.024,75.2702,98.3503,81.7628,0.0275158,3.11154,16.9919,-261.107,1.64131,0.0,0.0
316,78.75,194.126,221.903,80.9673,98.3355,81.7043,0.0276254,3.11488,16.984,-261.477,1.64634,0.0,0.0
320,79.75,195.721,223.811,76.9326,98.3355,80.1151,0.0277035,3.11338,16.9765,-261.807,1.82088,0.0,0.0
324,80.75,197.177,225.522,73.3666,98.3196,82.3032,0.0277667,3.11835,16.9715,-262.238,1.58,0.0,0.0
328,81.75,198.291,227.005,80.0987,98.316,81.0006,0.0278102,3.13281,16.9539,-262.568,1.72144,0.0,0.0
332,82.75,198.892,228.103,80.8421,98.3001,82.496,0.0278353,3.14713,16.9424,-262.988,1.55745,0.0,0.0
336,83.75,200.441,230.121,80.9245,98.2985,81.1168,0.0278194,3.15533,16.9292,-263.339,1.70711,0.0,0.0
340,84.75,201.774,231.77,80.0651,98.2981,80.9392,0.0277912,3.15752,16.9189,-263.769,1.72656,0.0,0.0
344,85.75,202.852,233.212,85.4973,98.2869,80.4213,0.0277747,3.16164,16.9113,-264.149,1.78259,0.0,0.0
348,86.75,203.154,233.789,82.1122,98.2817,81.8042,0.0278252,3.16719,16.9011,-264.53,1.63062,0.0,0.0
352,87.75,204.675,235.735,77.6966,98.273,83.2035,0.0279647,3.18171,16.8836,-264.9,1.47912,0.0,0.0
356,88.75,205.437,236.706,84.8882,98.2654,80.2477,0.0281837,3.19809,16.8638,-265.29,1.79984,0.0,0.0
360,89.75,206.563,237.984,79.8567,98.2674,82.0887,0.0284126,3.21539,16.8439,-265.691,1.59847,0.0,0.0
364,90.75,208.382,240.112,83.9547,98.2602,81.5307,0.0286265,3.23339,16.8261,-266.061,1.65843,0.0,0.0
368,91.75,208.753,241.005,84.831,98.2566,81.2667,0.0287227,3.24841,16.8102,-266.491,1.68693,0.0,0.0
372,92.75,209.75,242.729,67.6756,98.2519,80.4504,0.0287115,3.26183,16.7993,-266.862,1.77621,0.0,0.0
376,93.75,210.868,243.798,89.635,98.2435,83.3095,0.0286592,3.27159,16.7921,-267.192,1.46514,0.0,0.0
380,94.75,212.029,245.483,79.7422,98.2395,81.2953,0.0285935,3.27165,16.7874,-267.582,1.68225,0.0,0.0
384,95.75,213.086,246.827,80.13,98.228,82.0674,0.0285629,3.27108,16.7838,-268.003,1.59721,0.0,0.0
388,96.75,213.756,247.469,78.363,98.2371,80.4672,0.0285605,3.27081,16.7814,-268.333,1.77302,0.0,0.0
392,97.75,215.363,249.532,78.35,98.2319,80.9629,0.0285589,3.27226,16.7782,-268.733,1.71797,0.0,0.0
396,98.75,215.538,250.031,84.0082,98.2339,82.9382,0.0284911,3.28054,16.7748,-269.154,1.50397,0.0,0.0
400,99.75,216.86,251.558,76.8876,98.2276,82.5787,0.0283532,3.29335,16.7683,-269.484,1.54199,0.0,0.0
404,100.75,217.152,252.626,82.6251,98.2284,81.3932,0.0281342,3.30068,16.7549,-269.904,1.67055,0.0,0.0
408,101.75,218.722,254.288,91.9103,98.2216,80.4365,0.0279088,3.29799,16.7424,-270.305,1.775,0.0,0.0
412,102.75,219.606,255.271,72.6415,98.2204,83.4929,0.0277701,3.29971,16.731,-270.695,1.44351,0.0,0.0
416,103.75,219.409,255.546,73.0704,98.226,81.8427,0.0277774,3.31082,16.7164,-271.125,1.6214,0.0,0.0
420,104.75,220.789,256.815,73.8215,98.2192,80.5134,0.0278411,3.32929,16.695,-271.446,1.76629,0.0,0.0
424,105.75,221.292,257.707,79.7521,98.2232,82.1239,0.0281019,3.34776,16.6809,-271.816,1.59066,0.0,0.0
428,106.75,222.543,259.128,74.4062,98.222,81.1344,0.0283627,3.36078,16.6679,-272.276,1.69827,0.0,0.0
432,107.75,223.027,259.925,78.4843,98.218,80.0263,0.0285535,3.36718,16.6584,-272.707,1.82011,0.0,0.0
436,108.75,223.879,260.867,71.0577,98.2228,81.184,0.0286624,3.37035,16.6521,-273.067,1.69292,0.0,0.0
440,109.75,224.824,262.378,75.1595,98.2268,81.3748,0.0286926,3.37408,16.6471,-273.447,1.67242,0.0,0.0
444,110.75,225.59,263.543,76.8784,98.2228,81.5901,0.0286947,3.37713,16.6422,-273.828,1.64858,0.0,0.0
448,111.75,226.075,263.759,73.5437,98.2208,82.3008,0.0286893,3.38258,16.6367,-274.248,1.57133,0.0,0.0
452,112.75,226.715,264.799,77.6928,98.2276,80.0913,0.0287033,3.3895,16.63,-274.608,1.81375,0.0,0.0
456,113.75,227.397,265.961,70.8127,98.2303,80.9691,0.0287847,3.40224,16.6205,-275.019,1.71716,0.0,0.0
460,114.75,228.043,266.459,78.424,98.2284,83.0061,0.0289153,3.41449,16.6042,-275.459,1.49619,0.0,0.0
464,115.75,228.515,267.054,83.5441,98.2212,81.1258,0.029226,3.42714,16.5936,-275.849,1.69914,0.0,0.0
468,116.75,229.209,268.371,88.368,98.2296,80.9031,0.0295439,3.43834,16.5755,-276.25,1.72432,0.0,0.0
472,117.75,229.862,269.253,77.2043,98.2268,82.173,0.0298197,3.4596,16.5501,-276.67,1.58567,0.0,0.0
476,118.75,230.255,269.757,70.473,98.2248,81.7125,0.0300255,3.48087,16.5191,-277.121,1.63544,0.0,0.0
480,119.75,231.427,270.895,76.725,98.2299,83.1588,0.0301289,3.50465,16.4875,-277.481,1.48,0.0,0.0
484,120.75,232.777,272.606,73.5177,98.2371,82.2435,0.03013,3.52903,16.4625,-277.831,1.579,0.0,0.0
488,121.75,233.022,273.126,88.8756,98.2383,80.4946,0.0300462,3.54804,16.4431,-278.242,1.7701,0.0,0.0
492,122.75,233.72,273.65,74.716,98.2427,81.5295,0.0299554,3.56008,16.4297,-278.642,1.65698,0.0,0.0
496,123.75,235.33,275.128,82.2427,98.2435,81.4132,0.0298986,3.56452,16.421,-279.112,1.66973,0.0,0.0
500,124.75,235.393,276.286,76.5914,98.2511,78.9111,0.0298908,3.56635,16.4161,-279.453,1.9478,0.0,0.0
504,125.75,235.576,277.006,83.8448,98.2531,79.5477,0.0299141,3.56378,16.42,-279.903,1.87658,0.0,0.0
508,126.75,236.342,277.853,80.7948,98.2539,80.755,0.0299788,3.55668,16.4226,-280.313,1.74281,0.0,0.0
512,127.75,237.121,278.535,79.0568,98.2511,80.2526,0.0300562,3.55327,16.4241,-280.714,1.798,0.0,0.0
516,128.75,237.771,279.325,74.2405,98.265,82.0404,0.030109,3.55996,16.4144,-281.134,1.60349,0.0,0.0
520,129.75,238.398,279.828,72.9994,98.2718,81.0841,0.0301267,3.57208,16.3991,-281.524,1.70829,0.0,0.0
524,130.75,238.912,280.665,77.2127,98.2782,80.6784,0.0301261,3.58259,16.3878,-281.945,1.75343,0.0,0.0
528,131.75,239.537,281.476,79.8704,98.2782,79.9648,0.0301223,3.58966,16.378,-282.355,1.83237,0.0,0.0
532,132.75,240.165,282.233,77.1791,98.2913,81.4689,0.0301186,3.60054,16.3677,-282.765,1.66798,0.0,0.0
536,133.75,240.837,283.114,75.9739,98.2845,80.9998,0.0301087,3.61473,16.3483,-283.226,1.71869,0.0,0.0
540,134.75,241.425,283.375,73.1948,98.2937,81.5856,0.0300821,3.63499,16.3247,-283.616,1.65548,0.0,0.0
544,135.75,241.672,284.536,67.9756,98.3021,82.7785,0.0300596,3.65793,16.3032,-284.007,1.52725,0.0,0.0
548,136.75,242.798,285.611,74.813,98.3132,80.2391,0.0300666,3.67505,16.2859,-284.447,1.80512,0.0,0.0
552,137.75,243.455,286.289,68.432,98.3212,81.4787,0.0300851,3.68451,16.2682,-284.857,1.66961,0.0,0.0
556,138.75,244.279,287.357,78.0332,98.3252,79.9194,0.0301226,3.68918,16.2543,-285.278,1.84167,0.0,0.0
560,139.75,244.094,287.647,70.2288,98.3311,81.5344,0.0301533,3.69645,16.2458,-285.688,1.66444,0.0,0.0
564,140.75,244.801,288.198,74.3008,98.3415,81.4644,0.0301915,3.70487,16.2362,-286.118,1.67301,0.0,0.0
568,141.75,246.091,289.386,76.7967,98.3479,81.8218,0.0302137,3.71463,16.2257,-286.529,1.63469,0.0,0.0
572,142.75,245.884,289.476,71.2813,98.3523,81.2593,0.030214,3.72452,16.209,-286.909,1.69638,0.0,0.0
576,143.75,246.717,290.647,72.7811,98.3702,81.4484,0.0302009,3.73968,16.19,-287.329,1.67734,0.0,0.0
580,144.75,247.571,291.2,72.6041,98.3694,80.712,0.0301988,3.75001,16.1751,-287.74,1.75798,0.0,0.0
584,145.75,248.11,291.973,63.7989,98.3774,81.378,0.0302314,3.7588,16.1637,-288.21,1.68567,0.0,0.0
588,146.75,248.613,292.788,74.7962,98.3869,82.3417,0.0302731,3.76762,16.153,-288.631,1.58193,0.0,0.0
592,147.75,249.471,293.621,77.6669,98.3945,81.3125,0.0303381,3.77523,16.1447,-289.021,1.69438,0.0,0.0
596,148.75,250.208,294.637,65.0263,98.4152,81.157,0.0303455,3.78483,16.1335,-289.441,1.71326,0.0,0.0
600,149.75,250.277,295.078,77.9729,98.408,81.4922,0.0302752,3.79329,16.1234,-289.842,1.67598,0.0,0.0
604,150.75,250.75,295.489,70.5051,98.414,82.006,0.0301412,3.80196,16.114,-290.272,1.62068,0.0,0.0
608,151.75,251.998,296.858,75.5121,98.4168,81.6437,0.0299606,3.80867,16.1071,-290.702,1.66027,0.0,0.0
612,152.75,252.491,297.496,76.5075,98.4276,80.7398,0.0297692,3.81279,16.1012,-291.123,1.76017,0.0,0.0
616,153.75,252.91,298.333,73.0407,98.4327,80.8065,0.0296019,3.81749,16.0963,-291.583,1.7533,0.0,0.0
620,154.75,253.544,299.318,80.8131,98.4375,82.433,0.0294721,3.82792,16.0828,-291.983,1.57665,0.0,0.0
624,155.75,253.398,299.443,70.9523,98.4451,80.4287,0.0293859,3.84082,16.0667,-292.424,1.79606,0.0,0.0
628,156.75,254.727,300.716,76.1182,98.4566,81.9156,0.0293589,3.85649,16.0474,-292.874,1.63433,0.0,0.0
632,157.75,254.76,301.162,82.1038,98.4638,80.6022,0.0294164,3.87317,16.0243,-293.235,1.7786,0.0,0.0
636,158.75,255.502,301.854,67.5581,98.4698,82.3601,0.0295645,3.89086,16.0002,-293.675,1.58742,0.0,0.0
640,159.75,256.022,302.456,70.8012,98.475,82.422,0.0297577,3.91023,15.9809,-294.105,1.58123,0.0,0.0
644,160.75,256.987,303.567,72.9994,98.4774,81.4231,0.0299633,3.93525,15.9597,-294.546,1.68979,0.0,0.0
648,161.75,257.215,303.982,81.3314,98.4865,81.7354,0.0302908,3.95992,15.9266,-295.046,1.65659,0.0,0.0
652,162.75,258.748,305.779,77.8554,98.4889,81.5,0.0306164,3.97811,15.9043,-295.447,1.68243,0.0,0.0
656,163.75,259.305,306.457,69.5456,98.4977,80.6694,0.0308881,3.98903,15.8882,-295.877,1.77425,0.0,0.0
660,164.75,259.119,306.482,64.2424,98.5005,81.4816,0.0310714,3.9984,15.8729,-296.327,1.68549,0.0,0.0
664,165.75,260.32,307.75,72.44,98.5025,81.3539,0.0311513,4.0088,15.8536,-296.708,1.69961,0.0,0.0
668,166.75,260.85,308.564,74.6115,98.4985,83.2903,0.0311306,4.02538,15.8305,-297.138,1.49023,0.0,0.0
672,167.75,261.534,309.244,70.2043,98.5088,81.2998,0.0311004,4.04075,15.8122,-297.588,1.70609,0.0,0.0
676,168.75,262.262,310.156,69.9364,98.5132,80.5932,0.0311004,4.05373,15.798,-298.059,1.78404,0.0,0.0
680,169.75,262.895,310.904,75.4969,98.518,82.8862,0.0311664,4.06318,15.7889,-298.479,1.5352,0.0,0.0
684,170.75,263.542,311.706,82.545,98.5136,82.3323,0.0313456,4.07089,15.7773,-298.909,1.59438,0.0,0.0
688,171.75,264.761,312.588,74.6359,98.5248,82.71875,0.0316237,4.0775,15.7622,-299.32,1.55378,0.0,0.0
692,172.75,264.526,312.996,69.5975,98.5244,82.6377,0.0318725,4.09427,15.7359,-299.84,1.56245,0.0,0.0
696,173.75,264.98,313.466,62.4311,98.514,82.3892,0.0320789,4.12111,15.7011,-300.241,1.58828,0.0,0.0
700,174.75,265.812,314.509,74.0115,98.5315,83.2469,0.0322104,4.1508,15.6717,-300.661,1.49784,0.0,0.0
704,175.75,266.41,315.267,72.156,98.5371,82.4678,0.0322496,4.1794,15.6444,-301.121,1.58189,0.0,0.0
708,176.75,266.371,315.333,73.6383,98.5343,84.1446,0.032182,4.19901,15.6243,-301.582,1.40278,0.0,0.0
712,177.75,268.391,317.556,75.7365,98.5343,83.4974,0.0320365,4.20997,15.6112,-301.982,1.47139,0.0,0.0
716,178.75,268.657,318.349,79.169,98.5447,83.1916,0.0318296,4.21291,15.6061,-302.443,1.50493,0.0,0.0
720,179.75,269.848,319.575,74.9504,98.5554,82.0097,0.0316082,4.20905,15.6054,-302.873,1.63304,0.0,0.0
724,180.75,269.988,320.162,75.0191,98.5443,82.1583,0.0314569,4.20155,15.6049,-303.313,1.61595,0.0,0.0
728,181.75,270.558,320.678,74.1512,98.5523,82.3323,0.0314076,4.20224,15.6045,-303.784,1.59787,0.0,0.0
732,182.75,270.918,321.275,75.8327,98.5626,81.986,0.031445,4.21887,15.5955,-304.254,1.63626,0.0,0.0
736,183.75,271.791,322.397,64.1775,98.5678,81.9336,0.0315869,4.23388,15.5829,-304.715,1.64241,0.0,0.0
740,184.75,272.671,323.258,69.4899,98.569,83.1822,0.0318086,4.23958,15.5758,-305.105,1.50812,0.0,0.0
744,185.75,272.96,324.09,67.8664,98.5889,81.8681,0.0319854,4.24191,15.5712,-305.555,1.65142,0.0,0.0
748,186.75,273.957,325.019,72.3644,98.5809,80.8941,0.032102,4.23824,15.5681,-306.066,1.75704,0.0,0.0
752,187.75,274.353,325.595,79.2621,98.5877,81.595,0.0321762,4.23944,15.5661,-306.436,1.681,0.0,0.0
756,188.75,274.485,325.952,75.4992,98.577,80.502,0.0323035,4.25048,15.5498,-306.936,1.79986,0.0,0.0
760,189.75,274.272,326.214,76.1533,98.5793,81.9029,0.0324732,4.27312,15.5249,-307.407,1.64678,0.0,0.0
764,190.75,275.461,326.808,58.9941,98.5881,80.7934,0.0326466,4.29405,15.5015,-307.857,1.76875,0.0,0.0
768,191.75,275.995,327.626,66.4956,98.5881,82.2586,0.0328091,4.30978,15.4816,-308.308,1.60906,0.0,0.0
772,192.75,276.875,328.36,74.9954,98.5861,82.3892,0.0329364,4.32232,15.4635,-308.778,1.59478,0.0,0.0
776,193.75,277.697,329.518,66.7207,98.5881,82.2664,0.0330271,4.33421,15.4476,-309.198,1.60822,0.0,0.0
780,194.75,277.638,329.618,63.1753,98.5977,80.3959,0.0330929,4.3439,15.4368,-309.719,1.81344,0.0,0.0
784,195.75,278.054,330.632,69.8494,98.5853,81.1451,0.033162,4.35455,15.4257,-310.179,1.72991,0.0,0.0
788,196.75,278.138,330.658,80.2315,98.5762,82.2038,0.0332531,4.36704,15.4073,-310.58,1.61391,0.0,0.0
792,197.75,279.224,331.899,80.5887,98.5817,82.2529,0.0333454,4.38293,15.3904,-311.07,1.6091,0.0,0.0
796,198.75,279.722,332.38,76.7242,98.5813,80.4639,0.0334187,4.40528,15.3697,-311.51,1.80446,0.0,0.0
800,199.75,280.969,333.685,62.7311,98.5774,82.3745,0.0334809,4.42608,15.3447,-311.961,1.59558,0.0,0.0
804,200.75,280.971,334.01,79.6041,98.5937,80.8131,0.0335522,4.43828,15.3248,-312.361,1.7671,0.0,0.0
808,201.75,281.553,335.354,66.5528,98.5893,80.4184,0.0336399,4.44396,15.3102,-312.872,1.8102,0.0,0.0
812,202.75,282.044,335.475,67.8145,98.5762,80.2273,0.0337526,4.44957,15.3007,-313.222,1.83016,0.0,0.0
816,203.75,282.356,335.896,63.1204,98.5722,82.3364,0.0338539,4.46016,15.295,-313.752,1.59922,0.0,0.0
820,204.75,282.868,336.519,78.2928,98.5889,81.3911,0.0339385,4.46149,15.2909,-314.293,1.70333,0.0,0.0
824,205.75,284.006,337.612,77.7142,98.567,81.1553,0.0340067,4.46109,15.2857,-314.773,1.72714,0.0,0.0
828,206.75,284.577,338.359,65.9529,98.5634,82.5308,0.034027,4.46526,15.2766,-315.124,1.57747,0.0,0.0
832,207.75,284.82,338.5,77.7287,98.5694,79.989,0.033944,4.47535,15.2664,-315.654,1.85598,0.0,0.0
836,208.75,285.591,339.345,71.6691,98.573,80.2866,0.0338599,4.49152,15.2484,-316.074,1.8233,0.0,0.0
840,209.75,285.9,340.36,70.4074,98.5658,82.623,0.0337445,4.52112,15.2212,-316.505,1.56777,0.0,0.0
844,210.75,286.006,340.623,71.1844,98.5758,81.5729,0.0336385,4.54966,15.1907,-317.035,1.68233,0.0,0.0
848,211.75,287.049,341.588,72.3308,98.5662,82.232,0.0335772,4.57138,15.1705,-317.516,1.60996,0.0,0.0
852,212.75,287.391,342.244,62.2449,98.5774,84.6183,0.0335542,4.58307,15.1591,-317.956,1.35678,0.0,0.0
856,213.75,288.178,343.287,74.7947,98.5738,81.4669,0.033539,4.58218,15.1535,-318.366,1.6937,0.0,0.0
860,214.75,288.995,344.465,68.645,98.571,83.7754,0.0335208,4.57503,15.1501,-318.847,1.44516,0.0,0.0
864,215.75,289.52,344.978,76.0022,98.5754,81.8762,0.0335032,4.56078,15.1695,-319.287,1.64931,0.0,0.0
868,216.75,289.624,345.882,68.6228,98.5698,81.5455,0.0335681,4.53231,15.1853,-319.768,1.68478,0.0,0.0
872,217.75,290.256,346.494,68.2992,98.5774,82.234,0.0336871,4.51579,15.1965,-320.248,1.61074,0.0,0.0
876,218.75,290.915,346.533,73.82,98.5754,83.2796,0.0338074,4.51107,15.2066,-320.698,1.4983,0.0,0.0
880,219.75,290.982,346.998,61.9518,98.5702,82.6848,0.0338879,4.51316,15.2126,-321.199,1.56152,0.0,0.0
884,220.75,291.428,347.532,75.116,98.567,81.8513,0.0338905,4.51402,15.2142,-321.589,1.65126,0.0,0.0
888,221.75,291.661,348.194,63.7165,98.5666,83.5023,0.0338273,4.51435,15.2133,-322.04,1.47377,0.0,0.0
892,222.75,292.711,349.078,66.2216,98.5618,81.8279,0.0337026,4.52021,15.2088,-322.48,1.65333,0.0,0.0
896,223.75,292.774,348.905,61.345,98.555,83.4593,0.0335071,4.54109,15.1923,-322.97,1.47731,0.0,0.0
900,224.75,293.146,349.547,67.4909,98.5562,83.5535,0.0333391,4.55799,15.171,-323.441,1.4674,0.0,0.0
904,225.75,293.788,350.219,78.1432,98.5519,83.8879,0.0332594,4.56226,15.1565,-323.891,1.4315,0.0,0.0
908,226.75,295.034,351.662,72.6148,98.5491,82.772,0.0333114,4.5698,15.1436,-324.292,1.55025,0.0,0.0
912,227.75,294.853,352.011,61.7343,98.557,83.1609,0.0335141,4.58752,15.1233,-324.832,1.50932,0.0,0.0
916,228.75,295.717,352.365,72.6857,98.5511,82.58,0.0337935,4.61346,15.1011,-325.292,1.57107,0.0,0.0
920,229.75,295.342,352.678,62.0632,98.5503,81.7461,0.0340061,4.65074,15.0546,-325.833,1.66118,0.0,0.0
924,230.75,296.277,353.353,60.1505,98.5387,82.2271,0.034229,4.68248,15.0235,-326.223,1.60801,0.0,0.0
928,231.75,296.979,354.453,75.3534,98.5411,81.7997,0.0344823,4.70059,14.9996,-326.644,1.65453,0.0,0.0
932,232.75,297.505,355.253,65.2972,98.5431,82.3073,0.0347572,4.71642,14.976,-327.194,1.59974,0.0,0.0
936,233.75,297.788,355.484,64.492,98.5451,81.8934,0.0351393,4.73643,14.9319,-327.664,1.64471,0.0,0.0
940,234.75,298.284,356.17,73.0529,98.5455,81.0374,0.035588,4.7814,14.8613,-328.135,1.73812,0.0,0.0
944,235.75,298.008,356.109,57.7965,98.5395,80.9981,0.0360625,4.8385,14.7904,-328.685,1.74189,0.0,0.0
948,236.75,299.695,358.027,73.6436,98.5339,80.6997,0.0364848,4.90035,14.7241,-329.176,1.77419,0.0,0.0
952,237.75,301.187,359.541,61.3778,98.5299,81.7485,0.0371458,4.96227,14.6598,-329.666,1.65908,0.0,0.0
956,238.75,301.441,360.335,65.1049,98.5005,82.869,0.037759,5.03021,14.5844,-330.187,1.53546,0.0,0.0
960,239.75,302.747,361.941,59.101,98.5104,81.593,0.0382944,5.09417,14.496,-330.687,1.67425,0.0,0.0
964,240.75,303.25,362.833,50.4034,98.5248,83.0418,0.0387031,5.15235,14.4287,-331.188,1.51915,0.0,0.0
968,241.75,304.93,364.751,63.6531,98.5068,80.3263,0.0390073,5.19059,14.383,-331.698,1.81295,0.0,0.0
972,242.75,305.624,366.044,69.2441,98.4973,81.5487,0.0393022,5.21537,14.3463,-332.228,1.67788,0.0,0.0
976,243.75,306.189,366.989,78.827,98.4754,79.1064,0.0395606,5.23762,14.3172,-332.729,1.9461,0.0,0.0
980,244.75,307.049,367.982,56.7615,98.479,81.8038,0.0398881,5.26768,14.279,-333.179,1.64848,0.0,0.0
984,245.75,307.124,368.469,59.2811,98.473,79.8048,0.0401395,5.3003,14.2498,-333.85,1.86777,0.0,0.0
988,246.75,308.254,369.843,70.6188,98.459,80.495,0.0405746,5.36648,14.1819,-334.32,1.79,0.0,0.0
992,247.75,308.746,370.55,71.8034,98.4547,82.1186,0.0410868,5.45077,14.0735,-334.781,1.61216,0.0,0.0
996,248.75,309.973,372.213,69.5502,98.4471,80.2469,0.0415894,5.52297,13.9626,-335.441,1.81634,0.0,0.0
1000,249.75,310.588,373.348,59.9528,98.4347,83.3598,0.0420089,5.60864,13.8652,-335.932,1.47705,0.0,0.0
1004,250.75,311.603,374.92,60.5642,98.4204,82.7601,0.0423991,5.6836,13.798,-336.452,1.53992,0.0,0.0
1008,251.75,312.723,376.454,70.1906,98.4064,79.9562,0.0427882,5.72529,13.754,-336.912,1.84492,0.0,0.0
1012,252.75,313.82,378.129,53.5405,98.4053,83.5695,0.0431887,5.73989,13.7207,-337.513,1.45208,0.0,0.0
1016,253.75,314.109,378.885,63.5455,98.3905,80.0471,0.0436952,5.74302,13.6981,-338.023,1.83339,0.0,0.0
1020,254.75,315.18,380.321,64.1241,98.3786,83.0937,0.0441478,5.74953,13.6905,-338.474,1.50039,0.0,0.0
1024,255.75,315.595,381.055,72.9086,98.369,81.5463,0.0443945,5.755,13.7072,-339.014,1.66657,0.0,0.0
1028,256.75,316.828,382.647,66.3215,98.3666,80.2436,0.0443404,5.67522,13.7618,-339.445,1.80944,0.0,0.0
1032,257.75,317.671,384.018,71.6629,98.3491,79.2685,0.0441725,5.50541,13.9875,-339.905,1.9165,0.0,0.0
1036,258.75,317.455,383.767,67.4726,98.3415,78.0211,0.043118,5.27462,14.2581,-340.315,2.05676,0.0,0.0
1040,259.75,317.157,383.755,73.4513,98.3307,75.8497,0.0415811,5.00429,14.5874,-340.676,2.30659,0.0,0.0
1044,260.75,316.443,382.703,74.9458,98.3104,78.0334,0.0393639,4.71879,15.0083,-341.016,2.05255,0.0,0.0
1048,261.75,314.897,380.568,87.291,98.3064,80.3816,0.0365592,4.3435,15.5484,-341.246,1.78874,0.0,0.0
1052,262.75,313.52,378.612,89.722,98.2977,81.4001,0.0334685,3.9309,16.0746,-341.506,1.67606,0.0,0.0
1056,263.75,311.333,375.405,94.162,98.2805,81.7854,0.0301406,3.50395,16.6207,-341.687,1.63256,0.0,0.0
1060,264.75,308.211,371.931,94.4437,98.2722,82.6774,0.0269722,3.10166,17.127,-341.817,1.53541,0.0,0.0
1064,265.75,305.129,368.254,101.083,98.2682,86.0425,0.0238879,2.67255,17.6637,-341.947,1.18055,0.0,0.0
1068,266.75,301.501,363.137,109.258,98.2618,88.4083,0.0213314,2.29401,18.2079,-342.017,0.938952,0.0,0.0
1072,267.75,297.154,358.525,118.769,98.2499,93.2472,0.0190061,1.90112,18.6815,-342.027,0.464367,0.0,0.0
1076,268.75,292.64,352.838,119.867,98.2387,95.8525,0.0169474,1.55321,19.1248,-342.077,0.218497,0.0,0.0
1080,269.75,287.669,347.073,123.691,98.2299,97.226,0.0152544,1.24693,19.5455,-342.087,0.091283,0.0,0.0
1084,270.75,282.498,340.837,125.291,98.2164,97.7566,0.0139585,1.00012,19.8805,-342.107,0.0417016,0.0,0.0
1088,271.75,277.88,335.099,126.842,98.2208,97.9314,0.0129035,0.794475,20.1299,-342.087,0.0262226,0.0,0.0
1092,272.75,272.407,328.38,127.133,98.2136,97.8622,0.0120649,0.632472,20.3264,-342.087,0.0318532,0.0,0.0
1096,273.75,267.7,322.898,127.183,98.2168,97.9133,0.0113637,0.506695,20.4835,-342.087,0.0274962,0.0,0.0
1100,274.75,263.041,317.028,127.555,98.2172,98.0394,0.0107288,0.416428,20.6016,-342.077,0.0160968,0.0,0.0
1104,275.75,258.089,310.46,125,98.2248,97.7173,0.0102214,0.344094,20.6935,-342.097,0.0460306,0.0,0.0
1108,276.75,253.277,305.274,126.926,98.2092,98.1406,0.00949061,0.287729,20.7589,-342.097,0.00621571,0.0,0.0
1112,277.75,249.312,299.989,126.09,98.2096,97.9834,0.00876225,0.245221,20.8077,-342.077,0.0204964,0.0,0.0
1116,278.75,245.34,294.945,127.645,98.2025,98.003,0.00810136,0.213797,20.8432,-342.137,0.0180664,0.0,0.0
1120,279.75,240.83,289.88,128.094,98.2136,98.0718,0.00740294,0.188543,20.871,-342.107,0.0128417,0.0,0.0
1124,280.75,237.298,284.768,129.527,98.206,97.9653,0.00679563,0.169593,20.8956,-342.057,0.0218057,0.0,0.0
1128,281.75,233.427,280.198,127.914,98.2084,97.8286,0.00622099,0.154858,20.9149,-342.077,0.0344334,0.0,0.0
1132,282.75,229.691,275.838,125.686,98.2196,98.0239,0.00573948,0.142724,20.9307,-342.097,0.0177229,0.0,0.0
1136,283.75,226.181,271.035,126.685,98.222,98.1909,0.00521289,0.132415,20.9435,-342.137,0.0028119,0.0,0.0
1140,284.75,223.416,267.283,129.645,98.2248,98.301,0.00485255,0.123777,20.9512,-342.127,-0.00689637,0.0,0.0
1144,285.75,219.407,262.431,128.439,98.2327,98.3694,0.00440043,0.116525,20.9589,-342.107,-0.0123527,0.0,0.0
1148,286.75,216.04,258.496,129.644,98.2415,98.1839,0.00394411,0.110505,20.9662,-342.077,0.00520688,0.0,0.0
1152,287.75,212.852,253.931,129.918,98.2491,97.8024,0.00354206,0.106794,20.9725,-342.077,0.0404891,0.0,0.0
1156,288.75,210.017,250.378,128.322,98.257,97.8585,0.00321629,0.101942,20.9778,-342.077,0.0361163,0.0,0.0
1160,289.75,207.304,247.325,126.031,98.2829,97.6378,0.00294163,0.0972179,20.9821,-342.107,0.0585156,0.0,0.0
1164,290.75,204.11,242.705,128.025,98.2841,98.1778,0.00272591,0.0932255,20.987,-342.107,0.00961821,0.0,0.0
1168,291.75,201.744,239.078,128.225,98.3064,97.8282,0.00256252,0.0899228,20.9913,-342.117,0.0433335,0.0,0.0
1172,292.75,198.096,235.749,129.405,98.3025,98.274,0.00238712,0.08687,20.9947,-342.117,0.00257152,0.0,0.0
1176,293.75,196.703,232.493,129.812,98.3116,98.1504,0.0022393,0.0840354,20.9971,-342.147,0.0145857,0.0,0.0
1180,294.75,192.996,228.697,129.955,98.3383,97.9854,0.00206001,0.0815251,20.9996,-342.107,0.0319471,0.0,0.0
1184,295.75,190.798,226.206,131.181,98.3503,98.0087,0.00187281,0.0792474,21.0017,-342.107,0.0309106,0.0,0.0
1188,296.75,188.56,223.181,127.32,98.3634,98.3407,0.0016961,0.0776011,21.0039,-342.097,0.00204838,0.0,0.0
1192,297.75,186.207,220.319,128.62,98.3865,97.768,0.00154506,0.075291,21.0058,-342.117,0.056037,0.0,0.0
1196,298.75,183.575,216.465,129.164,98.3957,98.1152,0.00143421,0.0732336,21.0084,-342.107,0.0253681,0.0,0.0
1200,299.75,181.666,213.104,131.201,98.4156,98.2748,0.00134748,0.071367,21.0096,-342.077,0.012719,0.0,0.0
1204,300.75,179.884,211.515,126.339,98.4419,98.2376,0.00124816,0.0697935,21.0085,-342.077,0.0184618,0.0,0.0
1208,301.75,177.838,208.096,130.071,98.457,98.3813,0.00115647,0.0686673,21.0083,-342.087,0.00684022,0.0,0.0
1212,302.75,175.452,205.748,127.049,98.4837,98.2646,0.00107236,0.0671665,21.0092,-342.097,0.0197936,0.0,0.0
1216,303.75,173.939,203.444,128.167,98.5056,97.9465,0.00100715,0.0657755,21.0106,-342.107,0.0505818,0.0,0.0
1220,304.75,171.64,200.431,130.363,98.5264,98.0632,0.000967332,0.0645407,21.0114,-342.107,0.0418714,0.0,0.0
1224,305.75,169.766,197.855,130.918,98.5554,98.1663,0.000928308,0.0634027,21.0121,-342.127,0.0351509,0.0,0.0
1228,306.75,167.901,195.333,132.168,98.5658,98.1725,0.000892375,0.062216,21.013,-342.107,0.0355286,0.0,0.0
1232,307.75,166.223,192.877,128.844,98.604,98.4668,0.00084881,0.0613892,21.0141,-342.107,0.0123742,0.0,0.0
1236,308.75,164.934,190.545,130.35,98.6256,98.3551,0.000808359,0.0604584,21.0155,-342.157,0.0244037,0.0,0.0
1240,309.75,162.478,188.089,131.465,98.659,98.4803,0.000779574,0.0596217,21.0163,-342.127,0.0161085,0.0,0.0
1244,310.75,160.874,186.187,136.507,98.6809,98.2486,0.00078172,0.0588278,21.0169,-342.107,0.0390127,0.0,0.0
1248,311.75,159.219,184.09,128.32,98.7017,98.3678,0.000799695,0.058062,21.0173,-342.087,0.0301104,0.0,0.0
1252,312.75,157.762,181.656,132.938,98.7307,98.6949,0.000816137,0.0573147,21.0183,-342.097,0.00323017,0.0,0.0
1256,313.75,156.15,179.802,128.877,98.7618,98.6023,0.000785425,0.0566508,21.019,-342.137,0.0143605,0.0,0.0
1260,314.75,154.788,177.223,132.275,98.7853,97.9305,0.000748072,0.0560335,21.0199,-342.137,0.0772228,0.0,0.0
1264,315.75,152.936,175.944,131.291,98.8148,98.2609,0.000722378,0.055484,21.0213,-342.107,0.0499477,0.0,0.0
1268,316.75,151.915,173.303,131.078,98.8355,98.4734,0.000727091,0.0549647,21.0225,-342.097,0.0326173,0.0,0.0
1272,317.75,150.161,171.439,127.131,98.865,98.2253,0.000766722,0.0544008,21.0234,-342.127,0.0576821,0.0,0.0
1276,318.75,149.038,169.187,132.106,98.8897,98.1561,0.000832061,0.0539094,21.0239,-342.127,0.0661626,0.0,0.0
1280,319.75,147.645,167.576,131.725,98.9068,98.1414,0.000889629,0.0534504,21.0243,-342.137,0.0690367,0.0,0.0
1284,320.75,145.845,166.009,129.149,98.9499,98.4279,0.00093655,0.0530649,21.0245,-342.147,0.0469927,0.0,0.0
1288,321.75,144.596,164.88,132.427,98.9658,98.6056,0.000951825,0.0526906,21.0246,-342.147,0.0323988,0.0,0.0
1292,322.75,143.791,162.13,132.001,98.9921,98.4087,0.000926834,0.0523472,21.0244,-342.107,0.0525217,0.0,0.0
1296,323.75,142.39,160.564,129.947,99.0104,98.4169,0.000857985,0.0520544,21.0232,-342.097,0.0534272,0.0,0.0
1300,324.75,141.424,159.357,131.733,99.0439,98.3796,0.00080392,0.0518076,21.0227,-342.087,0.059794,0.0,0.0
1304,325.75,139.384,157.526,131.075,99.065,98.344,0.000772615,0.0515235,21.0228,-342.107,0.0649061,0.0,0.0
1308,326.75,138.855,156.225,128.904,99.0893,98.5405,0.000760337,0.0512882,21.0227,-342.117,0.0493484,0.0,0.0
1312,327.75,137.98,154.094,131.459,99.108,98.6904,0.000742428,0.0510606,21.0226,-342.077,0.0375267,0.0,0.0
1316,328.75,137.24,152.894,133.487,99.1327,98.3407,0.000719764,0.0508524,21.0226,-342.127,0.0712741,0.0,0.0
1320,329.75,135.181,150.651,127.942,99.1734,98.4959,0.000694573,0.0506783,21.0232,-342.117,0.0609082,0.0,0.0
1324,330.75,134.865,150.028,130.569,99.1881,98.5115,0.000659794,0.0504476,21.0237,-342.117,0.0608262,0.0,0.0
1328,331.75,133.528,148.596,133.312,99.1985,98.4836,0.000601875,0.0502492,21.0241,-342.107,0.0642646,0.0,0.0
1332,332.75,133.132,147.201,131.606,99.2144,98.8345,0.000538372,0.0500844,21.0243,-342.137,0.0340937,0.0,0.0
1336,333.75,131.614,145.404,129.916,99.2295,98.1762,0.000495257,0.0499692,21.0245,-342.127,0.0948302,0.0,0.0
1340,334.75,130.93,144.559,127.094,99.2487,98.0382,0.000474699,0.0498762,21.0246,-342.097,0.109038,0.0,0.0
1344,335.75,129.993,143.2,131.768,99.2789,97.8352,0.000493756,0.0496687,21.0246,-342.117,0.130172,0.0,0.0
1348,336.75,128.63,141.743,132.527,99.2813,98.4713,0.000523711,0.0494364,21.0249,-342.117,0.0727924,0.0,0.0
1352,337.75,128.438,141.011,133.121,99.2905,98.4415,0.000536819,0.049285,21.0252,-342.147,0.0763102,0.0,0.0
1356,338.75,127.515,139.411,132.842,99.3132,98.2969,0.000512704,0.0492083,21.0253,-342.157,0.0913962,0.0,0.0
1360,339.75,126.627,137.953,131.108,99.3264,97.9072,0.000446751,0.0491515,21.0254,-342.177,0.127874,0.0,0.0
1364,340.75,125.874,137.023,135.673,99.3503,98.3825,0.000373397,0.0490613,21.0255,-342.147,0.0869792,0.0,0.0
1368,341.75,124.953,135.817,131.241,99.3491,98.2364,0.000300904,0.0488752,21.0256,-342.127,0.100082,0.0,0.0
1372,342.75,123.95,134.404,133.12,99.365,97.9023,0.000258406,0.0487202,21.0256,-342.147,0.131776,0.0,0.0
1376,343.75,123.073,133.608,131.034,99.369,98.6003,0.000247943,0.0486186,21.0256,-342.127,0.0690051,0.0,0.0
1380,344.75,122.296,132.725,129.911,99.3857,98.0132,0.000253435,0.0485031,21.0261,-342.157,0.123563,0.0,0.0
1384,345.75,121.531,131.194,130.375,99.3949,98.5016,0.000263147,0.0483696,21.0264,-342.157,0.0802161,0.0,0.0
1388,346.75,120.753,130.775,129.944,99.4009,98.1729,0.000266043,0.0482665,21.0257,-342.127,0.110455,0.0,0.0
1392,347.75,119.965,129.646,134.468,99.4136,98.5446,0.00026112,0.0482059,21.0251,-342.137,0.0780135,0.0,0.0
1396,348.75,119.364,128.116,130.412,99.412,98.2544,0.000196936,0.0481835,21.0246,-342.127,0.104082,0.0,0.0
1400,349.75,119.062,127.783,133.051,99.424,97.881,0.000111318,0.0482407,21.0243,-342.167,0.138978,0.0,0.0
1404,350.75,118.215,126.147,132.586,99.4303,98.283,5.07949e-05,0.048259,21.025,-342.167,0.103128,0.0,0.0
1408,351.75,117.522,125.79,131.602,99.4443,98.3031,4.80627e-05,0.0482119,21.0254,-342.127,0.102561,0.0,0.0
1412,352.75,116.957,124.648,134.828,99.4347,98.0173,0.000100682,0.0481643,21.0256,-342.137,0.127573,0.0,0.0
1416,353.75,116.075,123.976,132.675,99.4375,98.143,0.00015065,0.0481549,21.0258,-342.167,0.116436,0.0,0.0
1420,354.75,115.471,122.504,130.531,99.4335,97.7893,0.000182775,0.0481218,21.0259,-342.147,0.148162,0.0,0.0
1424,355.75,114.333,121.765,134.764,99.4423,98.8631,0.00019033,0.0480498,21.026,-342.137,0.0519035,0.0,0.0
1428,356.75,114.123,121.058,136.019,99.4415,97.9891,0.000182379,0.0479333,21.026,-342.137,0.130739,0.0,0.0
1432,357.75,113.53,120.201,134.318,99.4363,98.9417,0.000165326,0.0479057,21.0264,-342.137,0.0443085,0.0,0.0
1436,358.75,113.109,119.349,134.918,99.4335,98.3076,0.000162012,0.0478876,21.0266,-342.147,0.101193,0.0,0.0
1440,359.75,112.062,118.618,134.445,99.4172,97.5179,0.00018161,0.0478383,21.0267,-342.137,0.1714,0.0,0.0
1444,360.75,111.608,117.81,133.305,99.4228,98.642,0.000209914,0.0477574,21.0268,-342.107,0.0700509,0.0,0.0
1448,361.75,110.48,116.413,133.713,99.4052,97.9031,0.000237067,0.0476555,21.0269,-342.147,0.135298,0.0,0.0
1452,362.75,110.806,116.297,132.465,99.4068,98.0005,0.000259598,0.0476168,21.0269,-342.187,0.126603,0.0,0.0
1456,363.75,109.674,115.281,130.39,99.3933,97.9891,0.000279941,0.0475747,21.0269,-342.157,0.126431,0.0,0.0
1460,364.75,109.612,114.664,130.568,99.3865,97.8487,0.000291399,0.047504,21.027,-342.137,0.138567,0.0,0.0
1464,365.75,108.838,113.973,131.944,99.3698,97.899,0.000286591,0.0474057,21.027,-342.127,0.1325,0.0,0.0
1468,366.75,108.787,113.044,132.265,99.3702,98.0521,0.000271547,0.04739,21.027,-342.157,0.11865,0.0,0.0
1472,367.75,108.329,112.737,132.466,99.3562,97.2743,0.000249322,0.0474773,21.027,-342.177,0.188173,0.0,0.0
1476,368.75,107.455,111.739,132.627,99.3403,97.8143,0.00022651,0.0474961,21.027,-342.137,0.137558,0.0,0.0
1480,369.75,106.996,110.913,134.373,99.3391,97.734,0.000189572,0.047402,21.0268,-342.147,0.144743,0.0,0.0
1484,370.75,106.454,110.691,132.631,99.3192,98.2732,0.000161973,0.0473144,21.0266,-342.227,0.0940777,0.0,0.0
1488,371.75,106.134,109.688,132.492,99.2945,97.486,0.00015537,0.0471837,21.0265,-342.157,0.163335,0.0,0.0
1492,372.75,105.501,109.071,132.984,99.2937,97.8282,0.000170521,0.0471364,21.0265,-342.157,0.132124,0.0,0.0
1496,373.75,105.235,108.887,132.61,99.259,98.0251,0.000224024,0.0471349,21.0264,-342.127,0.111154,0.0,0.0
1500,374.75,104.991,108.038,133.089,99.2487,97.2833,0.000290038,0.0471391,21.0264,-342.137,0.177724,0.0,0.0
1504,375.75,104.162,106.991,136.624,99.2379,97.558,0.000352249,0.0471611,21.0264,-342.137,0.151706,0.0,0.0
1508,376.75,103.753,106.363,131.882,99.206,97.594,0.000394712,0.0471672,21.0264,-342.147,0.145571,0.0,0.0
1512,377.75,102.67,105.886,135,99.1893,96.8846,0.00040275,0.0471603,21.0264,-342.147,0.208902,0.0,0.0
1516,378.75,102.664,105.485,136.396,99.1734,97.4319,0.000390917,0.04717,21.0268,-342.077,0.157417,0.0,0.0
1520,379.75,102.38,104.638,130.24,99.1602,97.4753,0.000390225,0.0472039,21.0274,-342.137,0.152282,0.0,0.0
1524,380.75,102.523,103.867,132.241,99.1411,97.0229,0.000420033,0.0472088,21.0278,-342.137,0.191902,0.0,0.0
1528,381.75,101.854,103.141,135.006,99.1204,97.3443,0.000469827,0.047212,21.0281,-342.127,0.160661,0.0,0.0
1532,382.75,101.292,103.314,134.29,99.1128,96.9145,0.000565832,0.0471409,21.0283,-342.127,0.199307,0.0,0.0
1536,383.75,100.674,102.457,134.731,99.0925,97.5163,,0.0471675,,-342.147,0.142479,0.0,0.0
1540,384.75,100.505,102.108,134.484,99.0714,96.939,,0.0471117,,-342.157,0.19334,0.0,0.0
1544,385.75,99.3559,101.809,135.503,99.0395,96.573,,0.0470559,,-342.147,0.224091,0.0,0.0
1548,386.75,99.6716,101.001,132.512,99.0319,97.2027,,,,-342.197,0.165669,0.0,0.0
1552,387.75,99.0883,100.426,132.86,99.0275,97.4982,,,,-342.167,0.138296,0.0,0.0
1556,388.75,99.0832,100.074,133.751,99.0068,96.8883,,,,-342.147,0.192204,0.0,0.0
1560,389.75,98.4195,99.4323,135.135,98.9917,96.7654,,,,-342.127,0.202116,0.0,0.0
1564,390.75,98.4653,99.1843,134.428,98.9817,96.8887,,,,-342.147,0.189914,0.0,0.0
1568,391.75,97.7925,98.5659,133.777,98.9789,96.4322,,,,-342.137,0.231624,0.0,0.0
1572,392.75,97.5031,97.4544,134.069,98.9495,97.1838,,,,-342.117,0.159987,0.0,0.0
1576,393.75,97.6769,97.6282,135.591,98.965,96.6234,,,,-342.177,0.212774,0.0,0.0