File: 01_Data/Black_PMMA/Cone/Black_PMMA_Cone_HF50Scan_220315_R2.csv
Names,Time,Stack TC,Smoke TC,Exh Press,Smoke Comp,Smoke Meas,CO Meter,CO2 Meter,O2 Meter,Sample Mass,Ext Coeff,Start Test,Flame Verif
Chan Gain,,500,500,1,1,1,1,1,1,1,1,1.0,1.0
Offset,,0,0,0.136235,0,0,0,0,0,0,0,0.0,0.0
Gain,,1,1,25.011,13.6985,14.3472,1,1,1,1.00091,1.01482,1.0,1.0
Units,sec,C,C,Pa,%,%,%,%,%,g,/m,,
Baseline,,40.0356,38.347,165.487,103.658,99.4267,0.000801802,0.0449582,21.0156,-833.582,0.371054,,
5,1,37.0002,35.5656,165.888,104.493,100.861,0.000556641,0.0514587,21.0099,-241.829,0.314902,0.0,0.0
10,2.25,36.1151,35.166,168.539,104.453,100.603,0.000604997,0.0505695,21.0111,-241.769,0.334272,0.0,0.0
15,3.5,36.1756,35.3448,166.306,104.395,100.272,0.000671156,0.049559,21.0121,-241.769,0.358693,0.0,0.0
20,4.75,35.9908,35.2599,164.047,104.349,99.8941,0.000710222,0.0487109,21.0127,-241.819,0.388383,0.0,0.0
25,6,36.9038,35.2409,164.591,104.297,100.201,0.000726784,0.0481123,21.0131,-241.809,0.35665,0.0,0.0
30,7.25,36.182,35.0176,168.052,104.26,100.035,0.000742755,0.0477206,21.0136,-241.859,0.368303,0.0,0.0
35,8.5,36.1382,35.3222,170.138,104.234,100.673,0.000785789,0.0475763,21.0139,-241.839,0.309465,0.0,0.0
40,9.75,36.834,35.3278,163.671,104.204,100.635,0.000853571,0.0475577,21.0141,-241.799,0.310224,0.0,0.0
45,11,36.3453,35.5159,167.53,104.153,100.102,0.000925742,0.0475283,21.0143,-241.809,0.353126,0.0,0.0
50,12.25,36.1186,34.9496,169.419,104.117,100.52,0.000957851,0.0474105,21.0143,-241.809,0.312982,0.0,0.0
55,13.5,36.1834,35.1432,165.763,104.188,100.181,0.000925941,0.0473325,21.0144,-241.819,0.349083,0.0,0.0
60,14.75,36.2916,35.1557,164.225,104.261,99.9755,0.000847053,0.0474832,21.0144,-241.799,0.373672,0.0,0.0
65,16,36.4159,35.322,167.268,104.344,100.322,0.000785426,0.0479772,21.0132,-241.819,0.349913,0.0,0.0
70,17.25,36.41,35.2248,164.32,104.409,100.451,0.000756841,0.0488298,21.0118,-241.829,0.34402,0.0,0.0
75,18.5,36.7843,34.9071,165.678,104.465,99.8661,0.000785016,0.0496106,21.011,-241.829,0.400789,0.0,0.0
80,19.75,36.5137,35.2974,168.783,104.519,100.5,0.000830777,0.0501014,21.0105,-241.829,0.349045,0.0,0.0
85,21,36.3647,35.3963,167.532,104.551,100.443,0.000875828,0.0502836,21.0102,-241.809,0.356833,0.0,0.0
90,22.25,36.5005,35.3677,161.641,104.595,100.656,0.000938327,0.0500725,21.0112,-241.839,0.341656,0.0,0.0
95,23.5,36.3966,35.4416,165.979,104.621,100.722,0.0010227,0.0498078,21.0117,-241.839,0.338088,0.0,0.0
100,24.75,36.1203,35.3581,164.513,104.624,100.499,0.00112432,0.0493162,21.0116,-241.839,0.358094,0.0,0.0
105,26,36.2935,35.4582,164,104.636,100.709,0.00128946,0.051201,21.0078,-241.869,0.340532,0.0,0.0
110,27.25,36.7201,35.1793,158.734,104.626,100.989,0.0015518,0.0634616,20.9856,-241.93,0.314982,0.0,1.0
115,28.5,36.5741,35.3864,152.151,104.611,100.479,0.00196029,0.100324,20.9084,-242.06,0.358704,0.0,1.0
120,29.75,37.357,36.3953,140.127,104.578,99.6572,0.0026349,0.17903,20.7403,-242.2,0.429038,0.0,1.0
125,31,38.5213,37.0441,130.234,104.537,100.896,0.00309025,0.27543,20.6092,-242.4,0.315514,0.0,1.0
130,32.25,39.2854,37.711,122.711,104.497,99.7404,0.0038363,0.392092,20.4472,-242.62,0.414704,0.0,1.0
135,33.5,42.4887,40.4918,121.218,104.445,100.106,0.00456541,0.513451,20.2893,-242.83,0.377791,0.0,0.0
140,34.75,44.6894,43.0436,122.228,104.374,98.556,0.00526713,0.641621,20.1103,-243.071,0.510601,0.0,0.0
145,36,46.8177,45.0035,118.229,104.306,98.3686,0.00589973,0.761755,19.948,-243.321,0.521696,0.0,0.0
150,37.25,50.5418,48.9088,116.418,104.227,97.7491,0.00650769,0.860978,19.8173,-243.571,0.571228,0.0,0.0
155,38.5,52.5873,51.4362,119.734,104.135,97.6847,0.00706049,0.943532,19.7198,-243.851,0.569198,0.0,0.0
160,39.75,55.036,54.1006,114.655,104.044,96.6413,0.0076077,1.01067,19.6377,-244.132,0.657069,0.0,0.0
165,41,58.459,57.8868,118.954,103.94,97.1554,0.00802754,1.06346,19.5844,-244.352,0.600935,0.0,0.0
170,42.25,60.8863,60.441,117.021,103.839,96.4229,0.00848425,1.11081,19.5181,-244.672,0.659638,0.0,0.0
175,43.5,63.5798,63.1907,122.137,103.764,95.9955,0.00884353,1.14933,19.4594,-244.912,0.692725,0.0,0.0
180,44.75,65.7122,66.1348,113.405,103.732,96.341,0.00920767,1.19878,19.4009,-245.192,0.65802,0.0,0.0
185,46,68.7325,69.3383,117.576,103.761,97.0258,0.00959946,1.24175,19.3548,-245.503,0.59748,0.0,0.0
190,47.25,70.8302,71.7893,118.043,103.784,96.658,0.00996205,1.27744,19.3135,-245.783,0.633226,0.0,0.0
195,48.5,74.1664,75.0799,116.357,103.788,96.485,0.0102972,1.30808,19.2759,-246.073,0.649527,0.0,0.0
200,49.75,76.5483,78.2892,113.969,103.816,95.3375,0.0105797,1.33144,19.2459,-246.384,0.758442,0.0,0.0
205,51,78.5463,80.8627,110.621,103.856,95.5231,0.010825,1.35037,19.2226,-246.704,0.744493,0.0,0.0
210,52.25,80.8621,83.2264,118.121,103.888,95.7096,0.011027,1.3695,19.1983,-246.984,0.729887,0.0,0.0
215,53.5,83.4051,86.257,117.324,103.909,95.9268,0.0112022,1.38771,19.1767,-247.234,0.711501,0.0,0.0
220,54.75,85.1963,87.991,112.717,103.934,95.8462,0.0113517,1.40356,19.1554,-247.545,0.721129,0.0,0.0
225,56,87.993,91.4508,115.42,103.97,95.7525,0.0114927,1.41909,19.1337,-247.845,0.732915,0.0,0.0
230,57.25,89.7912,93.3426,110.137,103.995,95.2236,0.0116463,1.43284,19.116,-248.145,0.784372,0.0,0.0
235,58.5,91.8835,95.6912,109.655,104.029,95.9158,0.0118189,1.44309,19.1043,-248.435,0.72279,0.0,0.0
240,59.75,93.6952,98.2424,111.43,104.083,95.9014,0.0119692,1.45227,19.0945,-248.756,0.728816,0.0,0.0
245,61,95.8939,100.788,117.998,104.115,95.6842,0.0120883,1.4587,19.0865,-249.046,0.751679,0.0,0.0
250,62.25,98.0677,103.057,102.251,104.153,95.1807,0.0121622,1.46659,19.0753,-249.376,0.801899,0.0,0.0
255,63.5,99.5918,105.041,112.082,104.182,95.9649,0.0121861,1.47703,19.0599,-249.697,0.731395,0.0,0.0
260,64.75,101.508,106.748,116.56,104.23,95.1199,0.0121794,1.48747,19.0459,-249.987,0.814165,0.0,0.0
265,66,103.386,109.376,119.223,104.259,95.9723,0.012162,1.50054,19.0311,-250.247,0.737239,0.0,0.0
270,67.25,104.471,110.916,111.711,104.267,96.0533,0.0121373,1.5137,19.0162,-250.647,0.730408,0.0,0.0
275,68.5,106.921,113.293,106.426,104.301,96.4316,0.0121375,1.52649,19.0019,-250.918,0.698342,0.0,0.0
280,69.75,107.957,115.105,113.881,104.324,96.6322,0.0121617,1.53663,18.9905,-251.218,0.681813,0.0,0.0
285,71,109.596,116.749,106.891,104.352,95.4211,0.0121987,1.55166,18.9707,-251.558,0.796473,0.0,0.0
290,72.25,111.448,118.996,112.923,104.353,96.693,0.0122064,1.55946,18.9575,-251.859,0.678633,0.0,0.0
295,73.5,113.288,121.337,104.555,104.373,96.2473,0.0121893,1.56688,18.9486,-252.179,0.721475,0.0,0.0
300,74.75,114.674,122.955,108.046,104.385,96.4246,0.0121742,1.57437,18.9389,-252.519,0.706122,0.0,0.0
305,76,116.392,124.873,110.573,104.38,96.538,0.0122224,1.5815,18.9303,-252.789,0.695231,0.0,0.0
310,77.25,117.498,126.644,110.655,104.386,96.2044,0.0123289,1.58825,18.9242,-253.1,0.726621,0.0,0.0
315,78.5,118.774,128.105,110.471,104.379,95.7893,0.0124697,1.59204,18.9207,-253.42,0.764433,0.0,0.0
320,79.75,120.041,129.942,119.662,104.377,95.1431,0.0125819,1.59164,18.9185,-253.75,0.824552,0.0,0.0
325,81,121.429,131.262,115.202,104.358,95.9005,0.0126298,1.59252,18.9173,-254.081,0.752358,0.0,0.0
330,82.25,122.572,132.654,103.317,104.351,96.0384,0.0126197,1.59768,18.9099,-254.411,0.738959,0.0,0.0
335,83.5,124.096,134.313,105.957,104.325,94.8296,0.0126011,1.60763,18.8935,-254.691,0.849547,0.0,0.0
340,84.75,125.27,135.87,101.894,104.302,95.2254,0.0126364,1.61937,18.8745,-255.051,0.810435,0.0,0.0
345,86,126.188,137.109,106.823,104.286,95.0139,0.0127278,1.63373,18.8556,-255.332,0.828905,0.0,0.0
350,87.25,127.478,138.518,109.484,104.268,96.2079,0.0128472,1.646,18.842,-255.742,0.716166,0.0,0.0
355,88.5,128.838,140.048,111.526,104.215,95.5927,0.0129445,1.65272,18.8314,-256.052,0.768771,0.0,0.0
360,89.75,129.669,141.424,104.798,104.187,94.9657,0.013005,1.65815,18.8242,-256.353,0.824993,0.0,0.0
365,91,130.92,143.105,110.532,104.143,95.4115,0.0130406,1.66551,18.8168,-256.653,0.779523,0.0,0.0
370,92.25,132.118,144.278,104.728,104.114,95.7368,0.0131055,1.67373,18.8092,-256.973,0.746721,0.0,0.0
375,93.5,133.005,145.549,102.1,104.077,95.1527,0.0131989,1.68205,18.8013,-257.323,0.798016,0.0,0.0
380,94.75,134.684,147.323,97.9975,104.037,95.8222,0.0132356,1.69121,18.7954,-257.654,0.732206,0.0,0.0
385,96,135.792,148.741,105.355,103.986,95.2753,0.013207,1.69352,18.7919,-257.954,0.77879,0.0,0.0
390,97.25,136.631,149.983,115.222,103.948,95.4539,0.0131592,1.68965,18.7898,-258.334,0.758858,0.0,0.0
395,98.5,137.184,150.457,107.98,103.906,93.6487,0.0131563,1.68797,18.7872,-258.655,0.925207,0.0,0.0
400,99.75,138.553,152.221,109.359,103.845,94.6903,0.013206,1.69393,18.7791,-258.965,0.82151,0.0,0.0
405,101,139.544,153.227,108.023,103.805,94.4202,0.0132962,1.70517,18.7671,-259.285,0.843537,0.0,0.0
410,102.25,140.453,154.939,106.056,103.773,95.2875,0.0134555,1.71825,18.7525,-259.636,0.759411,0.0,0.0
415,103.5,140.661,155.063,99.6401,103.717,94.2809,0.0136734,1.72981,18.737,-259.966,0.849107,0.0,0.0
420,104.75,142.112,156.89,110.989,103.671,95.2424,0.0138784,1.73786,18.7262,-260.316,0.754835,0.0,0.0
425,106,143.221,157.937,113.697,103.605,94.9228,0.0140804,1.74254,18.7176,-260.626,0.779086,0.0,0.0
430,107.25,143.811,158.827,105.921,103.567,94.4894,0.0142712,1.74953,18.7063,-261.007,0.816597,0.0,0.0
435,108.5,145.223,160.533,119.399,103.512,93.6456,0.0144096,1.75658,18.697,-261.307,0.891733,0.0,0.0
440,109.75,146.141,161.268,102.303,103.46,95.5796,0.0144591,1.76365,18.6912,-261.667,0.705269,0.0,0.0
445,111,146.909,162.231,98.9013,103.413,94.1527,0.0144057,1.7693,18.6875,-261.958,0.835104,0.0,0.0
450,112.25,147.872,163.455,109.126,103.366,94.9211,0.0143124,1.76981,18.6846,-262.338,0.75868,0.0,0.0
455,113.5,148.552,164.116,105.265,103.342,94.3979,0.0142421,1.76971,18.6832,-262.658,0.805868,0.0,0.0
460,114.75,148.77,165.41,99.1157,103.279,94.4276,0.0141539,1.77074,18.6834,-262.969,0.797658,0.0,0.0
465,116,149.797,165.95,103.095,103.241,94.1457,0.0140902,1.77198,18.6825,-263.339,0.820928,0.0,0.0
470,117.25,150.514,166.839,106.964,103.214,94.2039,0.0140847,1.77917,18.6758,-263.679,0.813152,0.0,0.0
475,118.5,151.077,168.137,100.984,103.182,94.5003,0.0141273,1.79038,18.6575,-264.04,0.782408,0.0,0.0
480,119.75,152.412,169.514,102.758,103.151,94.1807,0.01419,1.80344,18.638,-264.4,0.809864,0.0,0.0
485,121,153.144,170.367,110.335,103.12,93.4079,0.0142549,1.81534,18.6228,-264.73,0.880538,0.0,0.0
490,122.25,154.048,171.05,109.73,103.117,94.0725,0.0143334,1.82324,18.6139,-265.06,0.817169,0.0,0.0
495,123.5,154.371,171.791,103.303,103.086,93.8142,0.0144424,1.8287,18.6077,-265.391,0.839012,0.0,0.0
500,124.75,154.891,173.165,98.6112,103.076,93.414,0.014599,1.83509,18.6,-265.781,0.876201,0.0,0.0
505,126,155.863,173.597,98.3883,103.088,93.8492,0.0147629,1.84293,18.5881,-266.071,0.835834,0.0,0.0
510,127.25,156.967,174.356,100.442,103.08,92.7279,0.0149096,1.84947,18.5784,-266.462,0.942185,0.0,0.0
515,128.5,157.454,175.813,105.203,103.075,93.9346,0.0150129,1.85507,18.5687,-266.812,0.826656,0.0,0.0
520,129.75,158.266,176.516,103.832,103.095,94.351,0.0151174,1.86415,18.5558,-267.172,0.78898,0.0,0.0
525,131,158.83,177.447,106.708,103.119,93.5392,0.0152255,1.87242,18.5469,-267.493,0.867957,0.0,0.0
530,132.25,159.277,178.694,107.969,103.117,93.7345,0.0153523,1.87723,18.5404,-267.883,0.849248,0.0,0.0
535,133.5,160.637,178.956,106.932,103.134,93.1868,0.0154448,1.88137,18.5336,-268.173,0.902827,0.0,0.0
540,134.75,161.273,179.89,105.81,103.177,94.372,0.0154867,1.88703,18.5265,-268.554,0.79407,0.0,0.0
545,136,161.658,181.1,106.455,103.21,93.5178,0.0155313,1.89206,18.522,-268.944,0.877863,0.0,0.0
550,137.25,161.941,181.643,103.306,103.246,93.4552,0.0156271,1.89775,18.5174,-269.294,0.886925,0.0,0.0
555,138.5,163.032,182.655,108.017,103.29,94.7696,0.0157913,1.90362,18.5123,-269.605,0.76638,0.0,0.0
560,139.75,162.77,182.64,100.98,103.343,92.6517,0.0159207,1.909,18.5072,-269.965,0.972109,0.0,0.0
565,141,163.815,183.727,105.123,103.409,94.6619,0.0159853,1.91522,18.5041,-270.335,0.786765,0.0,0.0
570,142.25,164.992,184.637,107.654,103.437,95.2692,0.016043,1.91401,18.5016,-270.686,0.73225,0.0,0.0
575,143.5,165.655,185.927,104.134,103.497,95.182,0.0161849,1.91141,18.4999,-271.016,0.745539,0.0,0.0
580,144.75,166.023,185.891,99.7416,103.558,93.5222,0.0164345,1.91548,18.4917,-271.426,0.907395,0.0,0.0
585,146,166.98,186.931,105.575,103.626,93.0961,0.0166882,1.92773,18.4752,-271.747,0.953859,0.0,0.0
590,147.25,167.1,187.92,94.343,103.687,93.5375,0.016825,1.94386,18.4573,-272.157,0.916998,0.0,0.0
595,148.5,168.001,188.612,104.701,103.749,93.8991,0.0169019,1.95321,18.4449,-272.507,0.887955,0.0,0.0
600,149.75,168.663,189.401,100.142,103.824,94.3037,0.0169842,1.95769,18.437,-272.938,0.856174,0.0,0.0
605,151,168.91,190.125,96.8564,103.887,94.3703,0.0171096,1.96291,18.4297,-273.248,0.855269,0.0,0.0
610,152.25,169.479,190.635,101.789,103.951,94.8764,0.0172153,1.97216,18.4213,-273.558,0.813167,0.0,0.0
615,153.5,170.597,191.759,94.5033,104.038,94.3554,0.017349,1.98498,18.4066,-273.949,0.869595,0.0,0.0
620,154.75,171.313,192.168,106.541,104.11,94.1776,0.0174539,1.9935,18.3964,-274.289,0.892532,0.0,0.0
625,156,171.587,192.835,99.8424,104.172,94.89,0.0175116,1.99781,18.3866,-274.679,0.830739,0.0,0.0
630,157.25,172.135,193.842,96.8267,104.245,95.0205,0.017484,1.99757,18.3808,-275.08,0.824757,0.0,0.0
635,158.5,172.87,194.842,96.2741,104.314,94.0515,0.0173442,1.9994,18.3812,-275.45,0.921923,0.0,0.0
640,159.75,173.017,194.784,102.754,104.396,95.0086,0.0171918,2.0014,18.3827,-275.8,0.838814,0.0,0.0
645,161,174.092,196.112,105.882,104.473,94.6531,0.0170263,1.99421,18.3814,-276.161,0.878708,0.0,0.0
650,162.25,174.35,196.851,113.564,104.52,95.196,0.0169305,1.99048,18.3782,-276.521,0.831782,0.0,0.0
655,163.5,174.428,196.921,96.6588,104.59,94.506,0.0168888,2.00449,18.3659,-276.921,0.902488,0.0,0.0
660,164.75,175.054,197.491,104.576,104.658,94.6093,0.0169649,2.01691,18.3562,-277.272,0.898593,0.0,0.0
665,166,176.215,198.729,100.693,104.696,94.0222,0.0171403,2.0246,18.3468,-277.632,0.957211,0.0,0.0
670,167.25,176.782,199.194,98.8891,104.771,95.2438,0.0172747,2.03442,18.3377,-278.002,0.848729,0.0,0.0
675,168.5,177.078,200.139,100.071,104.82,94.5126,0.0173517,2.04565,18.3223,-278.353,0.921488,0.0,0.0
680,169.75,177.205,199.971,103.792,104.868,94.8103,0.0173189,2.05327,18.3106,-278.753,0.897501,0.0,0.0
685,171,178.212,201.189,97.677,104.904,94.9994,0.0172592,2.0615,18.3021,-279.143,0.88281,0.0,0.0
690,172.25,178.612,201.579,105.368,104.927,94.8007,0.0172338,2.06943,18.2912,-279.524,0.903443,0.0,0.0
695,173.5,178.586,201.603,103.383,104.962,95.1137,0.0173107,2.0781,18.2804,-279.824,0.877073,0.0,0.0
700,174.75,180.236,202.757,103.275,104.978,94.7735,0.01745,2.08612,18.2691,-280.214,0.910353,0.0,0.0
705,176,180.246,203.99,97.0038,105.006,95.1194,0.0175598,2.09381,18.2595,-280.675,0.880227,0.0,0.0
710,177.25,180.093,203.407,112.016,105.007,96.1387,0.0176254,2.09926,18.2531,-281.025,0.785484,0.0,0.0
715,178.5,181.177,204.579,95.2933,105.023,95.3077,0.0176623,2.10248,18.2493,-281.385,0.864113,0.0,0.0
720,179.75,181.583,205.289,93.2744,105.014,95.8449,0.0176548,2.10755,18.2434,-281.766,0.813331,0.0,0.0
725,181,182.388,206.161,100.245,105.006,95.8826,0.0175903,2.11491,18.2306,-282.146,0.809162,0.0,0.0
730,182.25,183.035,206.566,101.266,104.997,96.4465,0.017569,2.1261,18.2178,-282.486,0.756142,0.0,0.0
735,183.5,183.612,207.61,100.879,104.972,94.5958,0.0177162,2.1357,18.206,-282.937,0.926499,0.0,0.0
740,184.75,184.047,207.548,96.0459,104.943,95.0498,0.0179188,2.14159,18.2015,-283.287,0.881427,0.0,0.0
745,186,184.611,208.784,101.377,104.929,94.5704,0.0183114,2.14673,18.1955,-283.677,0.925237,0.0,0.0
750,187.25,184.693,209.133,98.399,104.901,96.1615,0.0186187,2.15338,18.1855,-284.028,0.77437,0.0,0.0
755,188.5,185.067,209.831,90.0999,104.871,95.1606,0.0188006,2.16599,18.1678,-284.458,0.864957,0.0,0.0
760,189.75,186.473,210.992,101.638,104.825,94.3615,0.0188897,2.17916,18.1456,-284.848,0.936083,0.0,0.0
765,191,186.395,211.083,98.3555,104.797,94.3576,0.0189031,2.19126,18.1313,-285.199,0.934075,0.0,0.0
770,192.25,187.053,211.81,89.2863,104.749,94.541,0.0188826,2.20203,18.1202,-285.579,0.912771,0.0,0.0
775,193.5,188.558,213.372,96.8458,104.691,94.6019,0.0188619,2.20745,18.1128,-285.999,0.902067,0.0,0.0
780,194.75,188.414,213.296,104.941,104.645,94.3891,0.0188714,2.21058,18.1054,-286.4,0.918202,0.0,0.0
785,196,189.167,214.201,92.6768,104.598,95.27,0.0189062,2.21807,18.0962,-286.72,0.831522,0.0,0.0
790,197.25,189.488,214.515,91.1777,104.543,94.4101,0.0189688,2.2248,18.0877,-287.221,0.907538,0.0,0.0
795,198.5,190.118,215.23,95.1795,104.483,93.5511,0.0189808,2.23155,18.0788,-287.541,0.983852,0.0,0.0
800,199.75,190.657,215.297,97.2411,104.442,94.4408,0.0189586,2.24208,18.0667,-287.931,0.896102,0.0,0.0
805,201,191.48,216.773,98.5891,104.39,93.805,0.0188966,2.24906,18.0596,-288.352,0.951739,0.0,0.0
810,202.25,191.031,216.268,102.263,104.347,93.4718,0.0188355,2.24959,18.0562,-288.722,0.979743,0.0,0.0
815,203.5,191.799,217.429,99.1997,104.282,93.8514,0.0188216,2.2484,18.0543,-289.112,0.938133,0.0,0.0
820,204.75,191.759,217.121,99.7065,104.252,94.1001,0.0188411,2.25007,18.0532,-289.553,0.912041,0.0,0.0
825,206,192.861,218.536,90.5205,104.222,93.7297,0.0188826,2.25568,18.0494,-289.933,0.944546,0.0,0.0
830,207.25,193.395,219.355,92.1341,104.173,93.8203,0.0189261,2.26655,18.0407,-290.373,0.931764,0.0,0.0
835,208.5,193.474,218.97,100.712,104.156,93.2271,0.0190002,2.28089,18.0234,-290.704,0.98677,0.0,0.0
840,209.75,194.514,219.78,100.313,104.187,93.5839,0.0191236,2.29191,18.0095,-291.204,0.955404,0.0,0.0
845,211,194.551,220.453,98.3273,104.284,94.1334,0.0193222,2.29693,17.9978,-291.545,0.911571,0.0,0.0
850,212.25,194.585,220.632,95.8504,104.348,93.4451,0.0194915,2.30387,17.9878,-291.855,0.982394,0.0,0.0
855,213.5,195.449,221.763,97.6472,104.416,93.481,0.0195611,2.31298,17.9764,-292.325,0.984749,0.0,0.0
860,214.75,195.934,222.492,112.54,104.494,92.9407,0.0195428,2.32603,17.9586,-292.706,1.04305,0.0,0.0
865,216,196.039,222.644,91.7112,104.544,93.5095,0.0195356,2.34685,17.9305,-293.146,0.992975,0.0,0.0
870,217.25,197.29,223.427,92.621,104.579,94.1492,0.0196232,2.36501,17.907,-293.566,0.935239,0.0,0.0
875,218.5,198.339,224.264,95.4894,104.619,93.6732,0.019735,2.38089,17.8871,-293.927,0.98377,0.0,0.0
880,219.75,198.502,224.794,87.7994,104.645,94.8085,0.0198719,2.39534,17.8753,-294.377,0.878731,0.0,0.0
885,221,199.286,226.25,92.1799,104.641,95.2928,0.0199717,2.40209,17.8683,-294.727,0.833022,0.0,0.0
890,222.25,199.573,226.952,90.9418,104.646,94.8296,0.0200859,2.39844,17.873,-295.198,0.876829,0.0,0.0
895,223.5,200.252,227.526,98.499,104.651,93.3842,0.020237,2.39412,17.8769,-295.558,1.01398,0.0,0.0
900,224.75,200.691,227.536,108.079,104.644,92.8812,0.0203693,2.38919,17.8806,-295.999,1.06149,0.0,0.0
905,226,201.69,229.069,91.8433,104.608,94.4035,0.0204248,2.38637,17.8838,-296.359,0.913745,0.0,0.0
910,227.25,201.646,229.198,103.827,104.574,94.3409,0.0204345,2.38519,17.8855,-296.749,0.916698,0.0,0.0
915,228.5,202.157,229.72,94.6597,104.54,93.3308,0.020491,2.3823,17.8859,-297.19,1.00968,0.0,0.0
920,229.75,203.326,230.331,94.3491,104.5,92.9565,0.0206815,2.38341,17.8835,-297.62,1.04204,0.0,0.0
925,231,203.006,230.285,102.621,104.418,94.2897,0.020973,2.39485,17.8757,-297.98,0.908285,0.0,0.0
930,232.25,203.49,231.491,99.6233,104.357,94.0668,0.0212295,2.40522,17.8624,-298.461,0.92411,0.0,0.0
935,233.5,204.661,232.451,88.5016,104.272,94.0633,0.0213509,2.41133,17.8533,-298.831,0.917235,0.0,0.0
940,234.75,204.622,232.764,91.2639,104.19,92.812,0.0213749,2.41379,17.8476,-299.352,1.02942,0.0,0.0
945,236,204.731,232.964,100.343,104.086,93.682,0.0213286,2.41709,17.8442,-299.662,0.937468,0.0,0.0
950,237.25,204.942,232.97,96.4466,103.999,93.6202,0.0211881,2.42333,17.8323,-300.052,0.935896,0.0,0.0
955,238.5,206.013,234.206,95.9443,103.883,93.0432,0.0210592,2.43058,17.8199,-300.553,0.981021,0.0,0.0
960,239.75,206.888,235.088,97.4778,103.773,92.0611,0.0210058,2.44268,17.8098,-300.943,1.06602,0.0,0.0
965,241,206.655,234.785,84.9066,103.738,92.9302,0.0210816,2.46224,17.7878,-301.363,0.97943,0.0,0.0
970,242.25,207.679,235.903,95.007,103.763,92.6285,0.0212471,2.48259,17.7591,-301.784,1.01049,0.0,0.0
975,243.5,208.446,236.211,100.017,103.794,92.5221,0.0214295,2.5012,17.726,-302.204,1.02338,0.0,0.0
980,244.75,208.065,236.515,87.5308,103.827,91.4691,0.0215161,2.52504,17.6932,-302.645,1.1281,0.0,0.0
985,246,209.096,237.618,84.4639,103.835,92.5953,0.0215218,2.54499,17.6717,-303.075,1.01986,0.0,0.0
990,247.25,209.56,237.884,90.3533,103.881,92.2861,0.0214772,2.557,17.6567,-303.485,1.05357,0.0,0.0
995,248.5,210.372,239.009,92.276,103.896,92.2594,0.0214679,2.56581,17.6452,-303.886,1.05747,0.0,0.0
1000,249.75,210.618,239.403,82.6488,103.917,93.8304,0.0214859,2.57571,17.6315,-304.386,0.908955,0.0,0.0
1005,251,211.378,240.171,95.7489,103.949,93.1815,0.0215011,2.58821,17.6197,-304.757,0.973451,0.0,0.0
1010,252.25,211.962,240.528,85.8622,103.994,92.8317,0.0215587,2.59929,17.608,-305.217,1.01076,0.0,0.0
1015,253.5,212.451,241.218,95.5619,104.036,92.6561,0.0216957,2.60944,17.5997,-305.627,1.03123,0.0,0.0
1020,254.75,212.924,241.824,76.9739,104.05,91.8859,0.0219498,2.61921,17.5901,-306.058,1.10668,0.0,0.0
1025,256,213.741,242.555,88.2337,104.098,93.3987,0.0223283,2.63317,17.5766,-306.468,0.965499,0.0,0.0
1030,257.25,214.204,243.625,94.0652,104.144,92.0939,0.0227865,2.64223,17.5686,-306.818,1.09463,0.0,0.0
1035,258.5,214.693,244.139,79.9072,104.178,91.3443,0.0231635,2.63856,17.5676,-307.379,1.17031,0.0,0.0
1040,259.75,214.953,244.565,90.5426,104.208,90.4748,0.0233975,2.63148,17.569,-307.829,1.25796,0.0,0.0
1045,261,215.304,244.811,91.4616,104.241,91.6898,0.0234793,2.62711,17.5698,-308.29,1.14207,0.0,0.0
1050,262.25,215.853,245.48,84.3807,104.268,92.3299,0.0234303,2.63358,17.5607,-308.65,1.08242,0.0,0.0
1055,263.5,216.225,245.841,94.0682,104.288,91.8654,0.0233581,2.63912,17.5535,-309.08,1.12907,0.0,0.0
1060,264.75,216.544,246.213,93.1935,104.319,91.4761,0.0233473,2.64536,17.5441,-309.561,1.16951,0.0,0.0
1065,266,217.235,247.123,88.5711,104.33,93.0725,0.023499,2.65736,17.5257,-310.011,1.01639,0.0,0.0
1070,267.25,217.307,247.238,91.6364,104.34,91.9087,0.0236349,2.67498,17.5037,-310.502,1.12933,0.0,0.0
1075,268.5,218.279,248.015,87.1674,104.343,92.1416,0.023788,2.69681,17.4793,-310.872,1.10701,0.0,0.0
1080,269.75,218.701,248.815,82.5611,104.358,90.6236,0.0237158,2.71589,17.4609,-311.353,1.25614,0.0,0.0
1085,271,219.362,249.415,88.8153,104.365,93.0821,0.0235446,2.72739,17.4499,-311.753,1.01846,0.0,0.0
1090,272.25,220.246,250.196,85.5646,104.363,93.0528,0.0233689,2.72462,17.4443,-312.233,1.02109,0.0,0.0
1095,273.5,220.254,251.286,85.7905,104.36,93.0086,0.0232699,2.7215,17.4411,-312.594,1.02508,0.0,0.0
1100,274.75,220.808,251.673,92.4188,104.363,92.8715,0.0232143,2.72415,17.4392,-313.054,1.03849,0.0,0.0
1105,276,221.856,252.226,89.2558,104.361,91.1885,0.0232509,2.73166,17.4368,-313.554,1.20115,0.0,0.0
1110,277.25,221.614,252.376,83.0114,104.351,92.2454,0.0233639,2.74703,17.4201,-314.045,1.09771,0.0,0.0
1115,278.5,222.667,253.57,95.4436,104.338,92.2152,0.0234782,2.76338,17.4002,-314.485,1.09948,0.0,0.0
1120,279.75,223.367,254.115,92.6218,104.315,92.6355,0.0235992,2.78689,17.368,-314.916,1.05703,0.0,0.0
1125,281,224.193,255.111,91.0571,104.311,92.7073,0.0236768,2.81141,17.3447,-315.296,1.04978,0.0,0.0
1130,282.25,224.814,255.599,85.031,104.275,91.5186,0.0237081,2.82624,17.3309,-315.817,1.16163,0.0,0.0
1135,283.5,225.086,256.332,96.1359,104.262,91.2979,0.0237295,2.82745,17.3245,-316.207,1.18198,0.0,0.0
1140,284.75,225.766,257.053,90.6037,104.226,92.3225,0.0237768,2.82003,17.3228,-316.697,1.0796,0.0,0.0
1145,286,225.753,257.111,82.6107,104.198,92.8146,0.0237987,2.81727,17.3218,-317.088,1.02985,0.0,0.0
1150,287.25,226.282,258.226,91.6326,104.15,91.1745,0.0237411,2.82105,17.3188,-317.538,1.18446,0.0,0.0
1155,288.5,226.688,258.338,85.418,104.123,90.9428,0.0236467,2.82507,17.3158,-317.968,1.20481,0.0,0.0
1160,289.75,227.296,259.052,92.8294,104.097,92.3838,0.0234592,2.82997,17.3107,-318.489,1.06262,0.0,0.0
1165,291,227.431,258.834,84.8715,104.05,92.5462,0.0232936,2.83522,17.3065,-318.929,1.04301,0.0,0.0
1170,292.25,228.109,260.029,85.7668,104.023,90.146,0.0232064,2.83681,17.302,-319.37,1.27458,0.0,0.0
1175,293.5,228.661,260.736,95.7176,104.027,91.9499,0.0231925,2.83684,17.2978,-319.83,1.09859,0.0,0.0
1180,294.75,229.095,261.312,95.8955,103.984,91.2809,0.0232123,2.84306,17.2953,-320.371,1.15988,0.0,0.0
1185,296,229.705,261.764,91.5555,103.957,90.4433,0.023252,2.84606,17.2936,-320.751,1.23965,0.0,0.0
1190,297.25,229.896,261.919,86.4293,103.922,90.9617,0.0233218,2.84672,17.2896,-321.261,1.18573,0.0,0.0
1195,298.5,229.894,262.393,90.4327,103.901,90.6372,0.0235361,2.85353,17.2783,-321.702,1.21578,0.0,0.0
1200,299.75,230.621,262.668,86.4492,103.88,91.3658,0.0239141,2.87877,17.2548,-322.172,1.14272,0.0,0.0
1205,301,231.071,263.394,92.244,103.866,91.8549,0.024283,2.90132,17.22,-322.623,1.09397,0.0,0.0
1210,302.25,231.906,263.871,85.7577,103.838,90.2213,0.0245407,2.92459,17.1979,-323.083,1.25128,0.0,0.0
1215,303.5,232.412,264.9,84.0334,103.829,90.6131,0.0247346,2.93534,17.1849,-323.524,1.21198,0.0,0.0
1220,304.75,232.982,264.921,86.7041,103.838,89.903,0.0249203,2.92813,17.1924,-323.954,1.28281,0.0,0.0
1225,306,232.239,264.75,85.6997,103.789,90.5536,0.0251216,2.9188,17.1997,-324.404,1.21443,0.0,0.0
1230,307.25,233.615,266.475,78.2898,103.787,89.4651,0.0253524,2.9168,17.204,-324.875,1.32186,0.0,0.0
1235,308.5,233.469,266.727,76.4137,103.783,89.7791,0.0255873,2.92833,17.1846,-325.295,1.29036,0.0,0.0
1240,309.75,233.826,266.443,75.1199,103.79,89.8259,0.0258235,2.94852,17.1607,-325.856,1.28629,0.0,0.0
1245,311,234.176,267.063,92.4577,103.76,90.7769,0.0260721,2.96153,17.1441,-326.216,1.18999,0.0,0.0
1250,312.25,234.728,267.918,82.903,103.763,89.4761,0.0262845,2.97207,17.1215,-326.766,1.31873,0.0,0.0
1255,313.5,235.521,268.788,87.3308,103.774,91.0794,0.0264551,2.99185,17.0996,-327.127,1.16156,0.0,0.0
1260,314.75,235.077,268.659,90.822,103.761,90.3553,0.0266242,3.01017,17.086,-327.667,1.23154,0.0,0.0
1265,316,236.208,269.866,92.4317,103.756,90.79,0.0267727,3.01622,17.078,-328.138,1.18835,0.0,0.0
1270,317.25,237.162,270.625,88.7909,103.798,89.9616,0.0269309,3.01494,17.0758,-328.568,1.27353,0.0,0.0
1275,318.5,237.944,271.407,86.5477,103.805,90.413,0.0270708,3.00925,17.0851,-329.009,1.22958,0.0,0.0
1280,319.75,237.762,271.753,81.6169,103.815,90.4945,0.0271471,2.9991,17.0936,-329.549,1.22246,0.0,0.0
1285,321,238.476,272.764,82.5855,103.834,90.6998,0.0271222,2.98965,17.104,-330.009,1.20386,0.0,0.0
1290,322.25,238.968,272.734,98.3441,103.858,91.1464,0.0269705,2.9796,17.1118,-330.42,1.16222,0.0,0.0
1295,323.5,238.807,273.248,84.7211,103.886,90.2357,0.0268354,2.97617,17.1164,-330.91,1.25401,0.0,0.0
1300,324.75,239.314,273.864,85.8493,103.895,89.4896,0.0267557,2.98748,17.1086,-331.431,1.32867,0.0,0.0
1305,326,239.773,273.38,79.3309,103.922,90.4117,0.0267311,3.01331,17.0798,-331.821,1.23971,0.0,0.0
1310,327.25,240.406,274.912,86.15,103.95,90.942,0.026762,3.04359,17.0466,-332.312,1.19005,0.0,0.0
1315,328.5,240.772,275.148,83.8655,103.973,92.234,0.026833,3.06257,17.0232,-332.792,1.06651,0.0,0.0
1320,329.75,241.203,275.567,83.5632,104.001,90.9586,0.0268869,3.07059,17.0062,-333.322,1.19283,0.0,0.0
1325,331,242.011,276.61,80.4873,104.041,90.2029,0.0269129,3.07752,16.9999,-333.773,1.27053,0.0,0.0
1330,332.25,242.261,277.32,85.7279,104.068,91.4928,0.026934,3.07865,16.9936,-334.283,1.14642,0.0,0.0
1335,333.5,243.184,278.096,96.5733,104.1,90.4437,0.0269869,3.07732,16.987,-334.644,1.2518,0.0,0.0
1340,334.75,242.808,277.777,77.7547,104.127,89.5877,0.0270773,3.08296,16.9759,-335.164,1.33878,0.0,0.0
1345,336,242.95,278.29,85.0234,104.176,89.4809,0.0272146,3.09866,16.9579,-335.705,1.35362,0.0,0.0
1350,337.25,243.404,278.636,87.3987,104.203,89.0785,0.0273915,3.12006,16.935,-336.145,1.39606,0.0,0.0
1355,338.5,244.21,278.914,83.319,104.23,88.5062,0.0275757,3.14407,16.9126,-336.645,1.45571,0.0,0.0
1360,339.75,244.802,279.693,94.6132,104.241,90.8561,0.027689,3.15886,16.8988,-337.086,1.22334,0.0,0.0
1365,341,245.014,279.672,84.7532,104.275,91.6149,0.0277437,3.16435,16.8906,-337.536,1.15227,0.0,0.0
1370,342.25,245.516,280.772,92.5256,104.302,90.8938,0.0278103,3.15946,16.8969,-338.017,1.22493,0.0,0.0
1375,343.5,245.883,281.373,78.4997,104.328,91.4249,0.027883,3.14456,16.9093,-338.527,1.17528,0.0,0.0
1380,344.75,246.138,282.178,97.5541,104.336,89.8977,0.0279259,3.12304,16.9255,-338.908,1.32588,0.0,0.0
1385,346,246.484,282.398,109.886,104.358,89.392,0.0279166,3.09501,16.9591,-339.408,1.37802,0.0,0.0
1390,347.25,246.365,282.195,91.9509,104.365,89.4121,0.0277907,3.04878,17.0166,-339.798,1.37655,0.0,0.0
1395,348.5,246.298,281.761,88.7863,104.369,88.5951,0.0275609,2.99444,17.1088,-340.209,1.45863,0.0,0.0
1400,349.75,245.199,281.371,91.7501,104.363,89.6319,0.0272416,2.93363,17.2088,-340.699,1.35452,0.0,0.0
1405,351,245.138,280.605,92.9912,104.361,91.3518,0.0268875,2.8609,17.2973,-341.059,1.18515,0.0,0.0
1410,352.25,244.83,280.441,95.0208,104.349,87.5548,0.0264123,2.78252,17.3965,-341.51,1.5621,0.0,0.0
1415,353.5,243.479,279.094,88.0551,104.341,89.9778,0.0257669,2.69022,17.4994,-341.83,1.31841,0.0,0.0
1420,354.75,242.976,278.293,95.5978,104.312,89.1424,0.0249433,2.58613,17.6531,-342.251,1.39899,0.0,0.0
1425,356,241.735,276.363,107.785,104.284,91.1469,0.0237979,2.47257,17.8298,-342.551,1.19858,0.0,0.0
1430,357.25,240.264,275.044,97.2205,104.232,87.5062,0.022715,2.35439,17.9932,-342.911,1.55705,0.0,0.0
1435,358.5,238.736,273.082,103.391,104.202,91.2931,0.0212582,2.2257,18.1623,-343.271,1.17734,0.0,0.0
1440,359.75,237.152,271.041,106.138,104.155,94.3422,0.0196091,2.11517,18.3485,-343.512,0.880844,0.0,0.0
1445,361,234.869,268.899,105.754,104.103,91.0628,0.0181601,1.96144,18.5416,-343.772,1.1914,0.0,0.0
1450,362.25,232.612,266.026,109.188,104.033,90.2948,0.0168723,1.80804,18.7362,-343.952,1.26078,0.0,0.0
1455,363.5,230.338,263.295,118.385,104.021,89.5282,0.0155906,1.65024,18.9385,-344.152,1.33565,0.0,0.0
1460,364.75,227.727,260.24,115.688,103.964,91.5742,0.0144075,1.48019,19.1364,-344.312,1.1296,0.0,0.0
1465,366,224.312,256.584,125.666,103.919,94.0953,0.0130886,1.3158,19.3041,-344.443,0.883966,0.0,0.0
1470,367.25,221.153,253.139,131.198,103.868,94.957,0.0113461,1.14474,19.5019,-344.503,0.798449,0.0,0.0
1475,368.5,217.483,248.852,137.193,103.839,98.3362,0.00968673,0.969105,19.7241,-344.573,0.484686,0.0,0.0
1480,369.75,213.74,244.688,143.372,103.827,101.091,0.0082191,0.817501,19.9956,-344.613,0.237726,0.0,0.0
1485,371,209.139,239.675,144.699,103.764,103.514,0.00698539,0.656602,20.2344,-344.623,0.0215321,0.0,0.0
1490,372.25,205.294,235.136,148.367,103.741,104.371,0.00597596,0.52042,20.4224,-344.623,-0.0538985,0.0,0.0
1495,373.5,200.391,229.763,150.501,103.847,104.229,0.0051509,0.410087,20.5662,-344.633,-0.0327199,0.0,0.0
1500,374.75,196.5,225.202,146.609,104.034,105.294,0.00456686,0.322242,20.6829,-344.643,-0.107198,0.0,0.0
1505,376,192.459,219.957,150.756,104.161,104.281,0.00409684,0.254023,20.7743,-344.643,-0.0102969,0.0,0.0
1510,377.25,188.256,215.398,150.747,104.294,104.284,0.00371566,0.201841,20.8425,-344.613,0.00083406,0.0,0.0
1515,378.5,183.809,210.513,150.557,104.406,104.952,0.00345221,0.164043,20.8893,-344.623,-0.0464245,0.0,0.0
1520,379.75,181.014,207.131,146.913,104.518,105.169,0.00320875,0.136957,20.9225,-344.643,-0.0552796,0.0,0.0
1525,381,177.155,202.912,150.452,104.589,104.982,0.00299103,0.118141,20.9466,-344.653,-0.0334256,0.0,0.0
1530,382.25,174.16,198.718,152.346,104.639,104.982,0.00279442,0.103383,20.9644,-344.613,-0.0290844,0.0,0.0
1535,383.5,170.935,195.122,149.703,104.663,105.237,0.00262265,0.0924021,20.9772,-344.633,-0.0486761,0.0,0.0
1540,384.75,167.683,191.2,151.024,104.673,105.142,0.00245873,0.084138,20.9863,-344.623,-0.0398174,0.0,0.0
1545,386,164.316,187.379,147.123,104.615,105.39,0.00228389,0.07786,20.993,-344.623,-0.0657198,0.0,0.0
1550,387.25,161.396,184.291,149.062,104.562,104.792,0.00213201,0.0730346,20.998,-344.623,-0.0195405,0.0,0.0
1555,388.5,158.996,181.012,150.191,104.465,104.055,0.00203118,0.069184,21.0014,-344.573,0.0349845,0.0,0.0
1560,389.75,156.257,177.437,152.428,104.342,104.554,0.00201322,0.0659733,21.0045,-344.613,-0.0180948,0.0,0.0
1565,391,154.117,174.034,146.835,104.179,105.016,0.00198606,0.0634497,21.0054,-344.623,-0.0712582,0.0,0.0
1570,392.25,150.831,171.196,152.582,104.182,103.672,0.00193631,0.0614681,21.0059,-344.613,0.043668,0.0,0.0
1575,393.5,148.329,168.634,151.788,104.251,104.508,0.00173603,0.0596781,21.0068,-344.633,-0.0219598,0.0,0.0
1580,394.75,146.168,165.553,149.363,104.348,104.545,0.00147182,0.0584097,21.0077,-344.633,-0.0167784,0.0,0.0
1585,396,144.1,162.772,151.453,104.422,105.157,0.001221,0.0569688,21.0082,-344.653,-0.0624368,0.0,0.0
1590,397.25,141.842,160.044,150.66,104.53,104.829,0.00104628,0.0557088,21.0095,-344.623,-0.0254424,0.0,0.0
1595,398.5,139.734,156.917,152.668,104.646,104.123,0.000952202,0.0546084,21.0102,-344.653,0.0446627,0.0,0.0
1600,399.75,137.568,154.821,150.302,104.748,104.285,0.000903488,0.0537093,21.0107,-344.643,0.0394969,0.0,0.0
1605,401,135.703,152.663,148.477,104.848,105.173,0.000873878,0.0529714,21.0109,-344.673,-0.0275631,0.0,0.0
1610,402.25,134.208,150.056,151.244,104.914,104.453,0.000848828,0.0523324,21.0113,-344.703,0.0392497,0.0,0.0
1615,403.5,132.445,147.564,147.519,104.98,105.855,0.000872399,0.0518088,21.0123,-344.673,-0.0739083,0.0,0.0
1620,404.75,129.981,145.498,150.454,105.011,104.665,0.000956996,0.0513017,21.0128,-344.693,0.0293953,0.0,0.0
1625,406,128.158,142.994,150.209,105.029,105.173,0.00106898,0.0508439,21.0131,-344.683,-0.0122073,0.0,0.0
1630,407.25,126.865,140.948,151.192,105.017,104.471,0.00120451,0.0504477,21.0134,-344.663,0.0464027,0.0,0.0
1635,408.5,125.511,138.815,149.637,104.982,104.763,0.00132774,0.0500774,21.0141,-344.653,0.018614,0.0,0.0
1640,409.75,123.448,137.172,151.12,104.911,104.929,0.00140373,0.0497553,21.0145,-344.643,-0.0015394,0.0,0.0
1645,411,121.711,134.855,152.819,104.849,104.322,0.00140695,0.0495029,21.0147,-344.653,0.0449151,0.0,0.0
1650,412.25,120.129,132.806,151.328,104.732,104.472,0.00137751,0.0492808,21.0149,-344.663,0.0221291,0.0,0.0
1655,413.5,118.864,131.267,151.699,104.59,103.751,0.00131836,0.0490344,21.0144,-344.663,0.0717356,0.0,0.0
1660,414.75,117.093,129.026,152.758,104.432,103.917,0.00125352,0.0488451,21.0134,-344.653,0.0440852,0.0,0.0
1665,416,116.09,127.258,150.759,104.269,104.115,0.00121681,0.0486361,21.0128,-344.673,0.013166,0.0,0.0
1670,417.25,114.911,125.686,149.841,104.085,103.967,0.00116399,0.0483872,21.0129,-344.663,0.0100756,0.0,0.0
1675,418.5,113.56,124.102,152.776,103.895,103.395,0.00110212,0.0482309,21.0129,-344.663,0.0429246,0.0,0.0
1680,419.75,111.99,122.335,152.952,103.695,103.117,0.00104531,0.0481047,21.0129,-344.653,0.0497559,0.0,0.0
1685,421,110.922,121.006,155.951,103.531,102.721,0.0010196,0.0478963,21.0129,-344.663,0.0698763,0.0,0.0
1690,422.25,109.266,118.821,154.98,103.402,102.313,0.00103023,0.047624,21.0129,-344.633,0.0942344,0.0,0.0
1695,423.5,108.442,117.23,156.538,103.251,103.251,0.00107004,0.0473935,21.0129,-344.643,-3.55501e-05,0.0,0.0
1700,424.75,107.301,116.031,151.036,103.158,102.365,0.00111749,0.0473066,21.0129,-344.663,0.068657,0.0,0.0
1705,426,106.014,114.622,149.822,103.114,102.366,0.00114942,0.0473044,21.0129,-344.663,0.0648305,0.0,0.0
1710,427.25,105.527,113.107,153.333,103.082,102.229,0.00114649,0.0471871,21.0137,-344.663,0.0739743,0.0,0.0
1715,428.5,103.78,112.043,151.708,103.088,101.332,0.00108978,0.0471178,21.0137,-344.673,0.152872,0.0,0.0
1720,429.75,103.024,110.693,152.256,103.156,102.612,0.000988492,0.0470189,21.0143,-344.663,0.0471026,0.0,0.0
1725,431,101.816,109.21,155.43,103.228,102.702,0.000865896,0.0468813,21.0147,-344.683,0.0454092,0.0,0.0
1730,432.25,100.893,108.229,153.417,103.328,102.357,0.000749124,0.0467478,21.0149,-344.663,0.0841243,0.0,0.0
1735,433.5,100.572,106.734,153.279,103.449,101.622,0.000686283,0.0466979,21.015,-344.673,0.158619,0.0,0.0
1740,434.75,98.9643,105.837,154.664,103.593,102.059,0.0006891,0.0466648,21.0151,-344.673,0.132826,0.0,0.0
1745,436,98.9915,104.454,154.303,103.74,102.972,0.00073214,0.0465868,21.0148,-344.693,0.0661156,0.0,0.0
1750,437.25,97.4654,103.487,155.236,103.899,103.1,0.000803711,0.0464584,21.0134,-344.683,0.0687265,0.0,0.0
1755,438.5,96.7434,102.342,153.431,104.024,103.023,0.000861455,0.0463552,21.0125,-344.693,0.0860121,0.0,0.0
1760,439.75,95.5154,100.671,153.931,104.167,102.623,0.000919468,0.0462653,21.0121,-344.653,0.132994,0.0,0.0
1765,441,95.1032,100.396,157.789,104.262,102.796,0.000983133,0.0462542,21.0122,-344.673,0.126075,0.0,0.0
1770,442.25,93.8218,98.3452,151.008,104.333,103.267,0.00105993,0.0463014,21.0128,-344.683,0.0913999,0.0,0.0
1775,443.5,92.7023,97.1673,153.914,104.373,103.569,0.00115341,0.0462609,21.0132,-344.683,0.0688171,0.0,0.0
1780,444.75,92.8044,96.9359,153.777,104.376,102.661,0.0012536,0.0461847,21.0134,-344.673,0.147464,0.0,0.0
1785,446,92.2277,96.2432,154.687,104.353,103.155,0.0013394,0.0461349,21.0135,-344.673,0.102777,0.0,0.0
1790,447.25,90.4096,94.4719,153.976,104.261,102.872,0.00138686,0.0460617,21.0136,-344.683,0.119409,0.0,0.0
1795,448.5,90.3917,94.2953,155.928,104.164,102.149,0.00136733,0.046076,21.0136,-344.693,0.173934,0.0,0.0
1800,449.75,89.6697,93.2186,157.616,104.047,102.146,0.00129204,0.046087,21.0136,-344.703,0.164191,0.0,0.0
1805,451,88.0845,91.4777,154.864,103.937,102.74,0.00119009,0.0461391,21.0137,-344.683,0.103189,0.0,0.0
1810,452.25,88.3954,90.9063,151.908,103.851,101.871,0.00109392,0.0461516,21.0137,-344.653,0.171323,0.0,0.0
1815,453.5,87.4864,89.9367,149.553,103.783,102.178,0.00104495,0.0461005,21.0137,-344.663,0.1387,0.0,0.0
1820,454.75,87.1347,89.4548,151.755,103.742,102.272,0.00104954,0.0459764,21.0137,-344.663,0.127061,0.0,0.0
1825,456,86.0967,88.9013,152.48,103.961,102.17,0.00107749,0.0458812,21.0145,-344.663,0.154725,0.0,0.0
1830,457.25,85.4795,87.894,154.021,104.21,101.625,0.0011111,0.0458462,21.0151,-344.683,0.223618,0.0,0.0
1835,458.5,85.19,87.3955,157.074,104.399,102.631,0.00113473,0.0459181,21.0155,-344.693,0.152116,0.0,0.0
1840,459.75,85.1187,86.1368,151.776,104.539,102.684,0.00113049,0.045915,21.015,-344.693,0.159382,0.0,0.0
1845,461,84.0535,85.7367,153.123,104.602,102.504,0.00110817,0.0458252,21.0143,-344.673,0.180369,0.0,0.0
1850,462.25,83.157,85.4245,155.543,104.607,103.1,0.00105361,0.0457764,21.0146,-344.823,0.129234,0.0,0.0
1855,463.5,83.1727,84.0404,157.279,104.553,103.026,0.00097933,0.0457227,21.015,-344.623,0.130998,0.0,0.0
1860,464.75,82.4945,83.5487,154.306,104.421,102.677,0.000929513,0.0456982,21.0153,-344.633,0.149871,0.0,0.0
1865,466,81.9362,82.8493,154.433,104.221,102.711,0.00091363,0.0458034,21.0155,-344.653,0.129933,0.0,0.0
1870,467.25,81.4875,82.1685,162.295,104.146,101.918,0.000902299,0.0458706,21.0156,-344.663,0.192567,0.0,0.0
1875,468.5,81.1536,82.0664,152.321,104.254,102.339,0.000849849,0.0458986,21.0156,-344.653,0.164994,0.0,0.0
1880,469.75,80.0084,81.2894,153.427,104.384,102.115,0.000803951,0.0459335,21.0156,-344.703,0.195647,0.0,0.0
1885,471,79.8766,80.1069,152.261,104.519,102.059,0.000772945,0.0460008,21.0147,-344.713,0.212006,0.0,0.0
1890,472.25,79.4443,79.478,157.841,104.656,102.487,0.000754636,0.0458814,21.0142,-344.723,0.186441,0.0,0.0
1895,473.5,79.1197,79.3529,157.184,104.778,103.186,0.000742117,0.045794,21.0138,-344.703,0.136328,0.0,0.0
1900,474.75,78.7377,78.5837,158.036,104.884,102.08,0.000725465,0.045831,21.0136,-344.713,0.241201,0.0,0.0
1905,476,77.5314,78.3983,153.753,104.949,102.272,0.000704235,0.0458439,21.0135,-344.683,0.229952,0.0,0.0
1910,477.25,77.6567,77.3165,156.731,104.986,102.835,0.000701666,0.0457936,21.0135,-344.663,0.184306,0.0,0.0
1915,478.5,76.6472,75.7878,156.631,105.003,103.118,0.000736921,0.0457059,21.0134,-344.653,0.16127,0.0,0.0
1920,479.75,76.8234,75.7998,155.422,104.935,102.516,0.000798464,0.0456102,21.0134,-344.673,0.207653,0.0,0.0
1925,481,76.3497,75.5343,155.777,104.837,103.049,0.000852388,0.045476,21.014,-344.683,0.153127,0.0,0.0
1930,482.25,75.4245,74.7485,155.922,104.726,102.047,0.000892627,0.0455045,21.0143,-344.673,0.23068,0.0,0.0
1935,483.5,75.7561,74.8821,154.92,104.538,102.75,0.000914112,0.0455446,21.0138,-344.683,0.153618,0.0,0.0
1940,484.75,75.2016,74.5124,155.759,104.333,101.65,,0.0454724,,-344.673,0.23189,0.0,0.0
1945,486,74.1642,72.4177,156.221,104.112,101.78,,0.0453673,,-344.683,0.201691,0.0,0.0
1950,487.25,74.7816,73.7507,156.931,103.888,101.214,,,,-344.693,0.232092,0.0,0.0
1955,488.5,73.829,72.6031,153.71,103.654,101.102,,,,-344.723,0.221947,0.0,0.0
1960,489.75,73.3897,72.7474,153.725,103.459,100.577,,,,-344.673,0.251505,0.0,0.0
1965,491,73.4431,72.0002,154.747,103.3,100.397,,,,-344.703,0.253731,0.0,0.0
1970,492.25,73.0983,71.8284,157.856,103.186,100.419,,,,-344.703,0.241948,0.0,0.0
1975,493.5,72.3386,70.7754,159.679,103.113,100.13,,,,-344.733,0.261329,0.0,0.0
1979,494.5,72.4515,71.1303,154.9,103.1,100.243,,,,-344.713,0.250171,0.0,0.0