File: 01_Data/Black_PMMA/Cone/Black_PMMA_Cone_HF50Scan_220315_R1.csv
Names,Time,Stack TC,Smoke TC,Exh Press,Smoke Comp,Smoke Meas,CO Meter,CO2 Meter,O2 Meter,Sample Mass,Ext Coeff,Start Test,Flame Verif
Chan Gain,,500,500,1,1,1,1,1,1,1,1,1.0,1.0
Offset,,0,0,0.136235,0,0,0,0,0,0,0,0.0,0.0
Gain,,1,1,25.011,13.6985,14.3472,1,1,1,1.00091,1.01482,1.0,1.0
Units,sec,C,C,Pa,%,%,%,%,%,g,/m,,
Baseline,,28.5958,29.5503,169.51,104.135,100.717,0.00105177,0.0444027,21.0159,-833.252,0.297103,,
5,1,27.62,28.8428,167.743,103.135,100.25,0.00119454,0.0474543,21.0146,-236.384,0.252618,0.0,0.0
10,2.25,26.4767,28.4149,168.031,103.161,100.03,0.00116032,0.0470534,21.015,-236.425,0.274396,0.0,0.0
15,3.5,27.2897,27.6557,172.792,103.203,100.573,0.00109709,0.0466563,21.0161,-236.415,0.229817,0.0,0.0
20,4.75,27.0724,27.9038,169.219,103.282,100.348,0.000964118,0.0461816,21.0168,-236.435,0.25657,0.0,0.0
25,6,27.4499,28.1048,171.088,103.369,100.189,0.000842233,0.0458574,21.0163,-236.425,0.278133,0.0,0.0
30,7.25,27.1699,28.4045,171.827,103.444,100.441,0.000744501,0.0455791,21.0164,-236.415,0.262309,0.0,0.0
35,8.5,27.5513,27.86,168.564,103.549,100.733,0.000634612,0.0454339,21.0166,-236.425,0.245454,0.0,0.0
40,9.75,27.3934,28.3613,168.807,103.665,101.121,0.00051081,0.0453127,21.0167,-236.465,0.221144,0.0,0.0
45,11,27.3984,28.1407,169.737,103.783,100.761,0.000414336,0.0451635,21.0165,-236.445,0.263039,0.0,0.0
50,12.25,27.0305,27.9311,170.454,103.906,101.092,0.000311133,0.0450672,21.0163,-236.455,0.244417,0.0,0.0
55,13.5,27.7689,28.5757,166.085,104.034,101.078,0.000245945,0.0450318,21.0162,-236.455,0.256606,0.0,0.0
60,14.75,26.9474,27.8792,169.467,104.16,101.385,0.000274761,0.0449169,21.0154,-236.455,0.240409,0.0,0.0
65,16,27.0246,28.1915,165.555,104.272,101.508,0.000373447,0.0447749,21.0157,-236.485,0.239186,0.0,0.0
70,17.25,27.5962,28.2074,168.369,104.387,101.146,0.000508594,0.0446529,21.0159,-236.475,0.280766,0.0,0.0
75,18.5,27.107,28.1274,168.019,104.501,101.744,0.000639952,0.0444804,21.0159,-236.475,0.238086,0.0,0.0
80,19.75,27.4567,29.0943,170.77,104.606,102.237,0.000734062,0.0443346,21.016,-236.475,0.203877,0.0,0.0
85,21,27.5211,28.5385,173.824,104.687,101.885,0.000805416,0.0441466,21.016,-236.475,0.241516,0.0,0.0
90,22.25,26.9916,28.4127,166.669,104.779,102.606,0.00086527,0.0439927,21.0142,-236.505,0.186624,0.0,0.0
95,23.5,27.5873,28.5311,167.325,104.864,102.408,0.000931503,0.0440464,21.0122,-236.505,0.211018,0.0,0.0
100,24.75,27.5155,28.7557,170.325,104.941,102.147,0.00102776,0.0463491,21.0037,-236.525,0.24022,0.0,0.0
105,26,27.301,28.5519,163.974,104.988,101.333,0.00131514,0.0587954,20.9726,-236.585,0.315445,0.0,1.0
110,27.25,27.3544,28.3766,156.108,105.046,100.404,0.00168541,0.0886303,20.9266,-236.665,0.402295,0.0,1.0
115,28.5,28.0841,29.2019,149.977,105.08,99.2167,0.0023226,0.149885,20.8404,-236.815,0.511071,0.0,1.0
120,29.75,29.1146,29.9909,133.091,105.102,100.611,0.00299323,0.242198,20.7198,-237.065,0.388773,0.0,1.0
125,31,30.2495,31.1095,138.824,105.102,100.716,0.00372988,0.343175,20.5604,-237.205,0.37948,0.0,1.0
130,32.25,32.3519,33.1818,129.289,105.089,100.359,0.00447985,0.46289,20.3809,-237.385,0.409978,0.0,0.0
135,33.5,34.6488,35.5068,126.745,105.083,99.8372,0.00524288,0.572203,20.2131,-237.636,0.455862,0.0,0.0
140,34.75,36.8736,37.2988,128.752,105.052,98.9856,0.00592121,0.682851,20.0576,-237.986,0.529464,0.0,0.0
145,36,39.277,39.9619,125.118,105.005,98.7767,0.00654062,0.783782,19.9145,-238.146,0.544333,0.0,0.0
150,37.25,42.1264,43.0636,121.074,104.962,98.7561,0.00704203,0.874132,19.7991,-238.396,0.542537,0.0,0.0
155,38.5,44.5017,46.3454,121.046,104.908,97.5424,0.00743038,0.955665,19.7073,-238.697,0.648008,0.0,0.0
160,39.75,47.2831,49.3773,122.265,104.855,98.134,0.00782341,1.01796,19.6351,-238.947,0.589716,0.0,0.0
165,41,49.6763,51.9841,122.022,104.787,97.1077,0.00824565,1.06876,19.5771,-239.227,0.677482,0.0,0.0
170,42.25,52.4119,54.809,129.286,104.736,98.0044,0.00866663,1.11386,19.5172,-239.487,0.591324,0.0,0.0
175,43.5,54.3575,58.1395,118.343,104.669,97.7714,0.00895323,1.15402,19.4733,-239.748,0.606856,0.0,0.0
180,44.75,57.6044,60.8862,117.076,104.6,96.1194,0.00925819,1.19205,19.4271,-240.048,0.752647,0.0,0.0
185,46,60.3368,63.6876,114.69,104.546,95.9412,0.0095223,1.22705,19.3912,-240.328,0.764611,0.0,0.0
190,47.25,62.0134,65.5175,124.867,104.501,96.7701,0.009769,1.25063,19.3502,-240.628,0.684157,0.0,0.0
195,48.5,64.7151,69.369,117.739,104.439,96.9281,0.0100102,1.27844,19.3104,-240.889,0.664392,0.0,0.0
200,49.75,67.2306,71.5618,118.776,104.369,95.6974,0.010262,1.30664,19.2748,-241.179,0.772198,0.0,0.0
205,51,69.7657,74.9422,125.817,104.321,94.6571,0.0104821,1.32908,19.2481,-241.489,0.865363,0.0,0.0
210,52.25,71.4695,77.517,114.623,104.286,97.1002,0.0107334,1.34511,19.2335,-241.809,0.635517,0.0,0.0
215,53.5,74.0507,79.8116,116.322,104.244,95.3598,0.0109659,1.35695,19.2238,-242.11,0.792952,0.0,0.0
220,54.75,76.1781,82.2045,109.128,104.299,95.432,0.0111406,1.37296,19.2039,-242.38,0.790922,0.0,0.0
225,56,78.0296,84.8303,111.98,104.42,95.0419,0.0112597,1.39457,19.1719,-242.64,0.837692,0.0,0.0
230,57.25,79.8139,86.5197,121.439,104.517,94.6163,0.011344,1.41627,19.1425,-242.99,0.885944,0.0,0.0
235,58.5,82.3306,89.7779,114.158,104.599,95.7884,0.011431,1.43202,19.1223,-243.281,0.783284,0.0,0.0
240,59.75,84.2601,91.8059,118.05,104.657,95.7823,0.0115347,1.44601,19.1053,-243.601,0.788834,0.0,0.0
245,61,87.0961,94.1247,113.316,104.727,96.3007,0.0116619,1.45982,19.0886,-243.841,0.74672,0.0,0.0
250,62.25,87.9811,96.7537,113.118,104.754,96.228,0.011742,1.47176,19.0744,-244.202,0.755715,0.0,0.0
255,63.5,90.5086,98.8986,108.196,104.758,96.7206,0.0117648,1.48154,19.0617,-244.472,0.710583,0.0,0.0
260,64.75,92.2954,100.99,109.906,104.765,96.3821,0.0118128,1.48919,19.0529,-244.812,0.742393,0.0,0.0
265,66,93.8608,103.273,115.352,104.759,96.6269,0.0118762,1.4956,19.0455,-245.132,0.719319,0.0,0.0
270,67.25,96.3547,105.447,116.85,104.732,94.763,0.0120536,1.50692,19.0324,-245.413,0.890401,0.0,0.0
275,68.5,97.8061,107.254,112.453,104.675,96.6549,0.0122182,1.51829,19.023,-245.773,0.709594,0.0,0.0
280,69.75,99.4961,109.522,112.494,104.611,96.4864,0.0123582,1.52239,19.0174,-246.063,0.719727,0.0,0.0
285,71,101.139,111.557,109.665,104.542,95.8655,0.0124828,1.52387,19.0141,-246.374,0.771286,0.0,0.0
290,72.25,102.641,113.359,109.61,104.426,95.8313,0.0125812,1.52488,19.0122,-246.694,0.764556,0.0,0.0
295,73.5,103.754,115.247,115.03,104.301,95.6991,0.0126073,1.52605,19.0098,-246.964,0.766185,0.0,0.0
300,74.75,105.637,117.245,113.537,104.192,96.9697,0.0124814,1.52807,19.0078,-247.344,0.639489,0.0,0.0
305,76,106.22,117.743,109.254,104.027,95.3672,0.0123282,1.53138,19.0054,-247.655,0.773711,0.0,0.0
310,77.25,108.402,119.714,116.789,103.869,94.9206,0.0121988,1.53839,18.9969,-247.975,0.801963,0.0,0.0
315,78.5,109.903,121.45,105.71,103.852,95.0686,0.0121306,1.55208,18.9728,-248.325,0.786661,0.0,0.0
320,79.75,111.642,123.124,118.349,103.873,94.7683,0.0121198,1.56481,18.9536,-248.626,0.816623,0.0,0.0
325,81,112.62,125.28,113.091,103.917,94.7818,0.0121558,1.57862,18.9359,-248.866,0.819109,0.0,0.0
330,82.25,113.95,126.903,115.918,103.94,95.3348,0.0122485,1.58896,18.9252,-249.226,0.769256,0.0,0.0
335,83.5,115.39,128.644,120.168,103.979,95.1098,0.0123728,1.59702,18.9177,-249.516,0.793696,0.0,0.0
340,84.75,115.14,128.995,116.184,104.032,95.8064,0.0124988,1.60458,18.9109,-249.847,0.733276,0.0,0.0
345,86,117.76,131.322,108.806,104.076,93.7617,0.0125981,1.60755,18.9059,-250.177,0.929077,0.0,0.0
350,87.25,118.795,132.116,109.531,104.109,94.9355,0.012677,1.60855,18.903,-250.527,0.821145,0.0,0.0
355,88.5,119.789,133.626,109.283,104.15,94.6824,0.0127707,1.60982,18.8982,-250.848,0.848408,0.0,0.0
360,89.75,120.824,135.043,106.198,104.19,94.5616,0.0128893,1.61485,18.8852,-251.168,0.863207,0.0,0.0
365,91,121.653,136.323,104.747,104.223,94.7131,0.0129659,1.62437,18.8668,-251.498,0.851743,0.0,0.0
370,92.25,122.787,137.741,109.637,104.252,95.8388,0.0129758,1.63622,18.8544,-251.848,0.749063,0.0,0.0
375,93.5,124.238,139,102.204,104.306,96.0398,0.0129713,1.64463,18.847,-252.169,0.734984,0.0,0.0
380,94.75,125.304,140.101,109.847,104.34,95.0467,0.0129906,1.65356,18.8427,-252.459,0.830432,0.0,0.0
385,96,126.327,141.748,105.559,104.367,96.0494,0.0130256,1.66033,18.8372,-252.859,0.739298,0.0,0.0
390,97.25,127.611,142.894,115.944,104.373,95.8515,0.0130924,1.66085,18.833,-253.15,0.75823,0.0,0.0
395,98.5,128.574,144.231,105.837,104.386,95.4859,0.0131953,1.66164,18.8289,-253.45,0.793282,0.0,0.0
400,99.75,129.651,145.046,112.594,104.384,94.5091,0.0133186,1.66611,18.8237,-253.86,0.884712,0.0,0.0
405,101,130.797,146.313,108.532,104.366,95.601,0.0134184,1.67373,18.8145,-254.191,0.780914,0.0,0.0
410,102.25,131.285,147.826,110.684,104.342,97.0437,0.0135151,1.68061,18.8081,-254.481,0.645512,0.0,0.0
415,103.5,132.299,148.755,108.08,104.316,94.7223,0.0135984,1.68704,18.8016,-254.811,0.858838,0.0,0.0
420,104.75,133.505,150.067,114.725,104.291,94.5809,0.0136542,1.69603,18.7857,-255.192,0.869962,0.0,0.0
425,106,134.525,150.915,107.593,104.225,93.3203,0.0136645,1.70761,18.7704,-255.532,0.983762,0.0,0.0
430,107.25,134.936,152.539,107.128,104.189,93.8291,0.0136289,1.71996,18.7604,-255.832,0.932326,0.0,0.0
435,108.5,135.984,153.407,110.665,104.131,96.3918,0.01356,1.72644,18.7544,-256.132,0.687452,0.0,0.0
440,109.75,136.82,155.023,107.209,104.076,95.4513,0.0134814,1.72732,18.7509,-256.473,0.770088,0.0,0.0
445,111,137.879,155.056,100.612,103.999,95.8366,0.0134105,1.72612,18.7488,-256.793,0.727572,0.0,0.0
450,112.25,138.055,155.876,108.005,103.935,95.9246,0.0134206,1.72953,18.7377,-257.183,0.713996,0.0,0.0
455,113.5,139.431,157.537,104.635,103.871,95.5953,0.0135178,1.74019,18.721,-257.494,0.739053,0.0,0.0
460,114.75,140.284,158.867,112.156,103.798,95.3935,0.0136264,1.75215,18.7075,-257.844,0.75167,0.0,0.0
465,116,140.64,159.121,103.896,103.718,94.4885,0.0137707,1.76141,18.6977,-258.224,0.829604,0.0,0.0
470,117.25,142.088,160.698,101.817,103.65,94.9495,0.0138381,1.76734,18.6919,-258.535,0.78046,0.0,0.0
475,118.5,142.986,161.721,106.694,103.575,95.5726,0.0138218,1.76884,18.6885,-258.855,0.715772,0.0,0.0
480,119.75,143.128,162.621,110.687,103.498,95.0818,0.0137599,1.7673,18.6872,-259.205,0.754993,0.0,0.0
485,121,144.021,163.851,109.036,103.429,93.8948,0.013708,1.76852,18.6874,-259.525,0.860889,0.0,0.0
490,122.25,145.229,164.41,117.527,103.361,94.8593,0.0136841,1.77155,18.6872,-259.856,0.764039,0.0,0.0
495,123.5,144.94,164.742,111.107,103.302,94.5809,0.0137249,1.77598,18.6838,-260.236,0.785132,0.0,0.0
500,124.75,146.094,165.978,106.678,103.251,93.4915,0.0138468,1.78166,18.675,-260.546,0.883933,0.0,0.0
505,126,147.125,166.771,108.028,103.189,93.3588,0.014048,1.78873,18.6656,-260.917,0.891203,0.0,0.0
510,127.25,147.87,167.72,100.5,103.153,94.4263,0.0143958,1.7966,18.6549,-261.247,0.786858,0.0,0.0
515,128.5,148.344,168.649,101.003,103.111,94.7008,0.0147207,1.80733,18.6412,-261.667,0.757369,0.0,0.0
520,129.75,148.766,169.806,109.14,103.065,93.4184,0.0151264,1.81523,18.6315,-261.988,0.874845,0.0,0.0
525,131,149.86,170.416,99.6676,103.05,92.6259,0.0155181,1.82223,18.6196,-262.348,0.949313,0.0,0.0
530,132.25,150.288,171.558,111.021,103.029,92.791,0.0158134,1.83273,18.5954,-262.638,0.931693,0.0,0.0
535,133.5,150.731,172.485,99.9698,103.011,93.6697,0.0160197,1.85232,18.572,-263.049,0.846197,0.0,0.0
540,134.75,152.057,173.29,107.56,102.991,94.3606,0.0161266,1.86843,18.5604,-263.379,0.779114,0.0,0.0
545,136,153.309,173.775,114.061,103.003,93.6715,0.0161586,1.87453,18.5513,-263.699,0.845344,0.0,0.0
550,137.25,154.073,175.331,110.182,103.001,93.5708,0.0160855,1.8747,18.5458,-264.07,0.854775,0.0,0.0
555,138.5,154.486,175.761,109.175,103.014,93.9898,0.015992,1.87701,18.5435,-264.43,0.816083,0.0,0.0
560,139.75,154.8,176.913,100.616,103.037,94.2529,0.0158637,1.8815,18.5412,-264.8,0.793183,0.0,0.0
565,141,155.924,177.699,106.335,103.074,93.3764,0.0157178,1.88395,18.5397,-265.081,0.879573,0.0,0.0
570,142.25,156.677,178.358,104.128,103.103,92.8615,0.0155708,1.88513,18.5394,-265.521,0.931323,0.0,0.0
575,143.5,156.753,179.344,99.1272,103.128,93.5681,0.0154601,1.88303,18.5423,-265.851,0.865965,0.0,0.0
580,144.75,157.382,179.71,100.648,103.177,93.601,0.0154082,1.87948,18.5455,-266.222,0.8671,0.0,0.0
585,146,157.836,180.257,103.009,103.228,92.4433,0.0154057,1.88131,18.5474,-266.602,0.982247,0.0,0.0
590,147.25,157.747,180.698,103.848,103.3,93.6378,0.0154459,1.89058,18.5366,-266.952,0.874163,0.0,0.0
595,148.5,159.404,181.549,110.215,103.369,94.5038,0.0155553,1.90131,18.5218,-267.293,0.798223,0.0,0.0
600,149.75,159.901,182.494,106.975,103.453,94.633,0.0157681,1.9059,18.5117,-267.653,0.793261,0.0,0.0
605,151,159.832,182.644,101.409,103.527,95.3283,0.0160337,1.91167,18.5045,-268.023,0.734425,0.0,0.0
610,152.25,160.659,183.865,111.02,103.609,93.6522,0.0161892,1.92127,18.491,-268.353,0.899409,0.0,0.0
615,153.5,161.658,184.551,103.352,103.703,93.5003,0.016137,1.93507,18.4733,-268.764,0.921905,0.0,0.0
620,154.75,161.955,185.685,94.1667,103.794,94.9281,0.0158961,1.94823,18.4612,-269.134,0.794849,0.0,0.0
625,156,162.971,186.015,104.369,103.874,93.6483,0.0155956,1.95526,18.4541,-269.434,0.922562,0.0,0.0
630,157.25,163.403,186.824,103.01,103.949,92.5541,0.0153506,1.958,18.4499,-269.825,1.03356,0.0,0.0
635,158.5,163.802,187.787,109.16,104.033,93.2139,0.0153012,1.95342,18.4474,-270.215,0.977513,0.0,0.0
640,159.75,163.87,187.188,98.5257,104.122,92.9026,0.0154748,1.94566,18.446,-270.555,1.01494,0.0,0.0
645,161,164.373,187.997,114.318,104.19,93.7288,0.0157192,1.94949,18.4442,-270.966,0.941951,0.0,0.0
650,162.25,165.071,188.276,102.295,104.23,94.5345,0.0159368,1.96075,18.4306,-271.346,0.86912,0.0,0.0
655,163.5,165.721,188.999,101.118,104.294,93.5502,0.0161104,1.97537,18.419,-271.686,0.967788,0.0,0.0
660,164.75,165.902,189.768,92.4249,104.359,92.7971,0.0162665,1.9897,18.4036,-272.067,1.04527,0.0,0.0
665,166,166.93,190.633,96.9763,104.414,94.0099,0.0163766,1.99964,18.3914,-272.417,0.934382,0.0,0.0
670,167.25,167.009,191.266,100.244,104.465,95.2223,0.016355,2.00521,18.3835,-272.767,0.824626,0.0,0.0
675,168.5,167.848,191.644,103.636,104.531,94.8427,0.0162151,2.00988,18.3773,-273.178,0.865811,0.0,0.0
680,169.75,168.136,192.461,102.272,104.585,94.5187,0.0160628,2.01584,18.3675,-273.498,0.900901,0.0,0.0
685,171,168.955,192.975,103.066,104.632,95.0581,0.0159929,2.02508,18.3564,-273.898,0.854226,0.0,0.0
690,172.25,169.991,193.34,99.3936,104.675,94.7411,0.0160878,2.03453,18.3468,-274.259,0.887659,0.0,0.0
695,173.5,169.869,195.293,96.3947,104.715,94.6479,0.0163055,2.04049,18.3389,-274.609,0.899768,0.0,0.0
700,174.75,171.064,195.128,96.8107,104.746,94.3116,0.0165212,2.04489,18.3336,-274.979,0.934116,0.0,0.0
705,176,171.302,195.946,103.842,104.762,94.6667,0.0166939,2.04865,18.3293,-275.35,0.902048,0.0,0.0
710,177.25,171.662,196.927,97.2778,104.781,94.4806,0.0168107,2.05231,18.3256,-275.73,0.921162,0.0,0.0
715,178.5,172.351,197.773,101.733,104.819,95.2521,0.0169254,2.05406,18.3226,-276.171,0.851964,0.0,0.0
720,179.75,172.725,197.958,105.181,104.833,95.091,0.0170374,2.05668,18.3168,-276.451,0.868279,0.0,0.0
725,181,173.198,198.832,96.0397,104.845,93.7293,0.017117,2.06368,18.3051,-276.871,0.997668,0.0,0.0
730,182.25,174.246,199.199,102.118,104.869,94.721,0.0171429,2.07198,18.295,-277.272,0.906033,0.0,0.0
735,183.5,174.898,200.194,104.275,104.88,95.1763,0.0171141,2.07834,18.2889,-277.622,0.864264,0.0,0.0
740,184.75,174.805,200.62,99.5722,104.895,95.0673,0.0170895,2.08379,18.2836,-278.002,0.875744,0.0,0.0
745,186,175.288,201.768,110.187,104.896,95.2258,0.0171079,2.08682,18.2772,-278.443,0.861022,0.0,0.0
750,187.25,175.675,202.139,97.9495,104.919,95.1063,0.0171811,2.09103,18.2729,-278.753,0.874118,0.0,0.0
755,188.5,176.414,203.107,105.441,104.929,95.0752,0.0172856,2.09923,18.2652,-279.183,0.877916,0.0,0.0
760,189.75,177.076,202.824,99.3218,104.93,94.3926,0.0174116,2.10979,18.2496,-279.514,0.942092,0.0,0.0
765,191,177.614,204.05,96.4878,104.919,94.0327,0.0175372,2.12071,18.2315,-279.894,0.975141,0.0,0.0
770,192.25,178.57,204.383,100.451,104.942,94.1719,0.0177223,2.13328,18.2156,-280.264,0.963921,0.0,0.0
775,193.5,178.688,205.438,103.94,104.929,94.3576,0.0180575,2.1433,18.2031,-280.645,0.945326,0.0,0.0
780,194.75,178.24,205.173,101.276,104.922,94.8361,0.0184344,2.1509,18.1897,-281.045,0.899723,0.0,0.0
785,196,180.082,206.24,94.0377,104.922,94.4692,0.0188181,2.16273,18.1712,-281.415,0.934159,0.0,0.0
790,197.25,180.462,206.774,98.4792,104.925,93.4998,0.0190891,2.17856,18.1503,-281.836,1.0263,0.0,0.0
795,198.5,180.564,207.14,94.6674,104.932,94.9417,0.0191617,2.19503,18.1358,-282.216,0.890605,0.0,0.0
800,199.75,181.653,208.25,104.423,104.924,95.0178,0.0190245,2.20502,18.125,-282.586,0.882825,0.0,0.0
805,201,182.596,208.868,101.568,104.928,93.8444,0.0188513,2.20979,18.1142,-283.027,0.993764,0.0,0.0
810,202.25,182.642,209.87,98.6379,104.937,94.8738,0.0186592,2.21832,18.1076,-283.417,0.897431,0.0,0.0
815,203.5,182.681,210.932,94.4735,104.929,95.6965,0.0184808,2.22792,18.1039,-283.818,0.819861,0.0,0.0
820,204.75,183.73,211.947,103.421,104.917,94.4237,0.0183457,2.22895,18.0989,-284.188,0.938026,0.0,0.0
825,206,184.592,211.913,101.999,104.917,94.4609,0.0183001,2.22779,18.0959,-284.598,0.934554,0.0,0.0
830,207.25,185.05,212.646,107.069,104.904,94.2888,0.0183114,2.23182,18.0907,-284.969,0.94972,0.0,0.0
835,208.5,185.775,213.234,97.9151,104.896,94.5283,0.0183469,2.24353,18.0769,-285.369,0.926464,0.0,0.0
840,209.75,186.215,213.791,89.4969,104.864,95.298,0.0184454,2.25594,18.0687,-285.759,0.851538,0.0,0.0
845,211,186.315,215.045,100.396,104.874,95.439,0.018724,2.26063,18.0649,-286.17,0.83923,0.0,0.0
850,212.25,187.623,215.077,100.841,104.846,93.9245,0.0191277,2.2559,18.0639,-286.6,0.979247,0.0,0.0
855,213.5,186.778,215.202,101.103,104.826,91.2174,0.0196197,2.25182,18.0632,-287,1.23789,0.0,0.0
860,214.75,187.97,216.133,97.1053,104.802,92.9841,0.0200034,2.25705,18.0554,-287.391,1.06504,0.0,0.0
865,216,188.707,216.778,95.0742,104.792,92.868,0.0202885,2.27247,18.0327,-287.811,1.07537,0.0,0.0
870,217.25,188.632,216.442,96.961,104.768,93.9451,0.0205183,2.28995,18.0058,-288.201,0.970657,0.0,0.0
875,218.5,189.127,217.734,96.5221,104.728,94.4443,0.02071,2.30876,17.9797,-288.672,0.92011,0.0,0.0
880,219.75,190.156,217.996,98.6074,104.706,92.2428,0.0209859,2.32478,17.9643,-288.992,1.12819,0.0,0.0
885,221,190.825,218.872,91.238,104.67,92.9258,0.0212783,2.34208,17.9465,-289.423,1.05942,0.0,0.0
890,222.25,190.799,219.854,97.3678,104.641,93.4473,0.0215206,2.35845,17.9343,-289.813,1.00715,0.0,0.0
895,223.5,191.246,220.318,101.072,104.598,93.2174,0.021677,2.36376,17.9319,-290.303,1.02545,0.0,0.0
900,224.75,192.084,221.622,93.3973,104.555,93.5073,0.0217276,2.35839,17.9361,-290.614,0.994144,0.0,0.0
905,226,192.387,221.917,106.603,104.499,92.9657,0.0216796,2.35187,17.9385,-291.074,1.04109,0.0,0.0
910,227.25,192.722,222.267,101.886,104.437,92.646,0.021546,2.35467,17.9312,-291.535,1.06644,0.0,0.0
915,228.5,193.498,222.774,96.8595,104.379,92.5243,0.0213798,2.36787,17.9073,-291.935,1.07322,0.0,0.0
920,229.75,194.001,222.925,89.7641,104.325,93.1609,0.0212516,2.3859,17.8903,-292.305,1.00751,0.0,0.0
925,231,194.853,223.658,96.2886,104.274,93.2187,0.0211696,2.39534,17.8811,-292.716,0.997634,0.0,0.0
930,232.25,195.072,224.562,97.0412,104.192,93.6391,0.0211552,2.39708,17.878,-292.996,0.950659,0.0,0.0
935,233.5,195.912,225.029,96.6252,104.121,93.8755,0.0212287,2.39713,17.8762,-293.486,0.9221,0.0,0.0
940,234.75,196.522,225.295,93.6431,104.053,94.0791,0.0214293,2.40076,17.8762,-293.897,0.896986,0.0,0.0
945,236,196.936,226.154,93.2233,103.971,93.7284,0.021603,2.40631,17.8705,-294.277,0.923221,0.0,0.0
950,237.25,197.628,226.761,95.52,103.871,93.9517,0.0216393,2.41911,17.8571,-294.717,0.893443,0.0,0.0
955,238.5,197.511,228.182,92.8531,103.788,94.5454,0.0215398,2.4267,17.8481,-295.168,0.830269,0.0,0.0
960,239.75,198.559,228.782,96.6061,103.691,92.2314,0.0213859,2.42976,17.8423,-295.538,1.04253,0.0,0.0
965,241,199.587,228.962,93.0332,103.593,92.463,0.0212783,2.43162,17.8388,-296.009,1.01177,0.0,0.0
970,242.25,199.621,229.843,92.3249,103.498,91.9122,0.0212598,2.43467,17.834,-296.399,1.05683,0.0,0.0
975,243.5,200.085,230.569,91.3242,103.42,92.4009,0.0212714,2.44125,17.8211,-296.799,1.00291,0.0,0.0
980,244.75,200.885,231.005,87.4514,103.333,92.5699,0.0212446,2.45154,17.8035,-297.17,0.979151,0.0,0.0
985,246,201.463,231.551,92.4821,103.256,90.7922,0.0212024,2.46205,17.791,-297.71,1.14513,0.0,0.0
990,247.25,201.738,232.798,101.303,103.183,91.7962,0.0211662,2.46993,17.7836,-298.02,1.04092,0.0,0.0
995,248.5,202.312,232.613,93.9026,103.128,90.8071,0.0211373,2.4763,17.7792,-298.501,1.1326,0.0,0.0
1000,249.75,202.134,232.759,88.6276,103.082,90.649,0.0211155,2.47948,17.7754,-298.941,1.14414,0.0,0.0
1005,251,202.788,234.239,101.24,103.029,89.6022,0.021114,2.4775,17.7685,-299.362,1.24303,0.0,0.0
1010,252.25,203.293,233.803,100.039,102.998,91.216,0.0211473,2.47979,17.7637,-299.772,1.08141,0.0,0.0
1015,253.5,202.854,234.126,97.0999,102.986,91.7546,0.0212293,2.49268,17.7516,-300.202,1.02799,0.0,0.0
1020,254.75,204.467,235.188,87.791,102.991,91.8746,0.0213296,2.50562,17.7343,-300.623,1.01676,0.0,0.0
1025,256,204.467,236.254,100.646,102.992,90.9481,0.0214116,2.52266,17.7185,-301.033,1.10705,0.0,0.0
1030,257.25,204.797,236.003,90.3678,103.022,92.8063,0.0215057,2.535,17.7038,-301.474,0.929645,0.0,0.0
1035,258.5,205.933,237.452,95.8863,103.07,90.1937,0.0216163,2.54106,17.6934,-301.924,1.18792,0.0,0.0
1040,259.75,206.175,237.847,97.3671,103.114,92.0571,0.0217011,2.54871,17.6793,-302.354,1.00967,0.0,0.0
1045,261,205.977,237.543,94.2102,103.178,93.1312,0.021692,2.55834,17.6678,-302.795,0.912,0.0,0.0
1050,262.25,207.634,238.423,94.7239,103.256,93.1338,0.0216675,2.56571,17.6597,-303.145,0.918492,0.0,0.0
1055,263.5,208.183,239.911,85.2631,103.343,91.6981,0.0217565,2.57214,17.6521,-303.575,1.06424,0.0,0.0
1060,264.75,208.118,240.222,83.8686,103.422,91.227,0.0219951,2.58024,17.6426,-304.016,1.11694,0.0,0.0
1065,266,208.798,240.608,100.455,103.527,90.4319,0.0223413,2.58655,17.6366,-304.456,1.20389,0.0,0.0
1070,267.25,209.462,241.094,90.7877,103.64,92.9153,0.0226557,2.58832,17.6317,-304.867,0.972423,0.0,0.0
1075,268.5,209.892,241.112,98.8234,103.757,91.2914,0.0228083,2.58998,17.6277,-305.347,1.1394,0.0,0.0
1080,269.75,210.196,242.166,91.2189,103.865,92.6728,0.0227369,2.59682,17.6179,-305.757,1.01499,0.0,0.0
1085,271,210.62,242.726,93.3324,103.95,92.801,0.0225512,2.61031,17.5963,-306.328,1.00991,0.0,0.0
1090,272.25,211.142,243.862,100.851,104.071,92.2432,0.0224496,2.62835,17.5689,-306.628,1.07399,0.0,0.0
1095,273.5,212.101,244.038,92.7706,104.152,91.6648,0.0224482,2.6459,17.5527,-307.069,1.13685,0.0,0.0
1100,274.75,212.152,244.639,99.1096,104.212,92.2143,0.0225969,2.65531,17.5442,-307.499,1.08879,0.0,0.0
1105,276,213.114,244.715,86.3095,104.269,93.3689,0.0227873,2.65927,17.5411,-307.959,0.982876,0.0,0.0
1110,277.25,212.97,246.048,96.3733,104.328,92.9727,0.0229079,2.65615,17.5436,-308.38,1.02584,0.0,0.0
1115,278.5,214.091,246.284,96.9999,104.343,92.6495,0.0229494,2.64735,17.5464,-308.8,1.05808,0.0,0.0
1120,279.75,214.329,246.487,89.9946,104.342,92.0541,0.0229553,2.64339,17.5494,-309.291,1.1154,0.0,0.0
1125,281,214.876,246.862,94.5788,104.335,92.4556,0.0230256,2.65369,17.5436,-309.751,1.07602,0.0,0.0
1130,282.25,214.799,247.657,90.664,104.302,91.8877,0.0233323,2.6666,17.5246,-310.181,1.12808,0.0,0.0
1135,283.5,215.934,247.966,93.4339,104.237,91.0199,0.023765,2.68536,17.5039,-310.632,1.20702,0.0,0.0
1140,284.75,216.063,248.561,90.1862,104.18,93.206,0.024236,2.7066,17.4753,-311.072,0.990812,0.0,0.0
1145,286,216.592,249.153,89.0634,104.132,92.1001,0.0245711,2.73009,17.4487,-311.533,1.093,0.0,0.0
1150,287.25,217.551,249.875,97.9884,104.066,91.4722,0.0247671,2.7464,17.4275,-311.963,1.14825,0.0,0.0
1155,288.5,217.646,249.433,93.624,103.991,91.4429,0.0248967,2.75773,17.4139,-312.353,1.14474,0.0,0.0
1160,289.75,218.529,251.328,78.5165,103.925,91.2914,0.024998,2.77029,17.405,-312.804,1.15377,0.0,0.0
1165,291,218.746,252.03,86.8606,103.868,89.1433,0.0250329,2.77774,17.3998,-313.274,1.36093,0.0,0.0
1170,292.25,218.546,251.86,87.9651,103.825,91.9687,0.0249754,2.77851,17.3992,-313.775,1.07947,0.0,0.0
1175,293.5,219.588,253.107,83.7121,103.793,92.2988,0.0248772,2.77389,17.4001,-314.205,1.04482,0.0,0.0
1180,294.75,220.23,253.828,99.621,103.976,89.6192,0.0248018,2.77059,17.4007,-314.615,1.3227,0.0,0.0
1185,296,220.017,253.256,98.5196,104.199,91.2064,0.0247688,2.77104,17.3997,-315.016,1.18555,0.0,0.0
1190,297.25,220.534,254.881,92.0203,104.371,93.2884,0.0247601,2.77459,17.3922,-315.546,0.9993,0.0,0.0
1195,298.5,221.313,254.382,82.7672,104.502,93.6019,0.024789,2.78508,17.3751,-315.977,0.980588,0.0,0.0
1200,299.75,221.397,255.136,93.224,104.619,93.516,0.0248386,2.79829,17.3597,-316.427,0.99872,0.0,0.0
1205,301,222.696,256.301,92.2875,104.69,92.8466,0.0248511,2.80823,17.3513,-316.908,1.06876,0.0,0.0
1210,302.25,222.868,256.85,86.6217,104.7,93.0546,0.0248489,2.81445,17.3447,-317.328,1.04969,0.0,0.0
1215,303.5,223.769,257.463,89.0703,104.676,93.0283,0.0248351,2.82158,17.3383,-317.718,1.05011,0.0,0.0
1220,304.75,224.313,258.237,93.1698,104.613,91.8518,0.0248432,2.83092,17.3243,-318.209,1.15803,0.0,0.0
1225,306,224.497,259.114,83.8777,104.503,91.1456,0.0248523,2.84997,17.3017,-318.739,1.21742,0.0,0.0
1230,307.25,224.95,259.521,92.9645,104.322,91.2458,0.0248643,2.86922,17.2733,-319.16,1.19223,0.0,0.0
1235,308.5,225.992,259.835,89.213,104.161,90.5983,0.0249314,2.88224,17.2547,-319.71,1.24182,0.0,0.0
1240,309.75,226.371,260.308,97.6289,104.233,91.4043,0.0251126,2.89418,17.2378,-320.08,1.16918,0.0,0.0
1245,311,226.585,261.121,91.1349,104.338,92.5037,0.0254111,2.91015,17.2173,-320.591,1.07167,0.0,0.0
1250,312.25,227.285,261.485,91.0578,104.447,93.2104,0.0257756,2.92856,17.189,-321.051,1.01319,0.0,0.0
1255,313.5,227.992,262.392,97.9548,104.587,91.1517,0.0261548,2.94883,17.158,-321.512,1.22394,0.0,0.0
1260,314.75,228.824,263.43,94.2086,104.702,93.2761,0.0264188,2.96766,17.1351,-321.912,1.02863,0.0,0.0
1265,316,228.746,264.441,85.2058,104.812,91.66,0.0265526,2.98202,17.1209,-322.443,1.19356,0.0,0.0
1270,317.25,229.971,265.416,90.6449,104.9,92.4048,0.0265776,2.99082,17.112,-322.843,1.129,0.0,0.0
1275,318.5,230.514,265.802,86.9568,104.97,93.1264,0.0266209,2.99677,17.1051,-323.373,1.06572,0.0,0.0
1280,319.75,231.496,266.399,81.807,105.011,92.9175,0.0267399,3.00214,17.0977,-323.854,1.08915,0.0,0.0
1285,321,231.397,267.314,93.4896,105.02,90.9621,0.0269546,3.01052,17.084,-324.354,1.2793,0.0,0.0
1290,322.25,232.078,268.31,84.9784,104.993,92.4604,0.0271984,3.02521,17.06,-324.775,1.13156,0.0,0.0
1295,323.5,232.296,267.856,92.3898,104.931,91.7034,0.0274041,3.03993,17.0425,-325.285,1.19946,0.0,0.0
1300,324.75,233.492,269.577,94.3392,104.838,91.0943,0.0275167,3.04939,17.0312,-325.816,1.2509,0.0,0.0
1305,326,234.211,269.599,80.3682,104.7,91.7209,0.0275229,3.05897,17.025,-326.256,1.17816,0.0,0.0
1310,327.25,233.545,270.187,85.3356,104.537,90.5737,0.0274146,3.06552,17.019,-326.786,1.27629,0.0,0.0
1315,328.5,235.4,271.474,94.085,104.352,92.5699,0.0272101,3.07563,17.0075,-327.237,1.06652,0.0,0.0
1320,329.75,235.701,271.751,90.967,104.154,91.3522,0.0270473,3.08514,16.9963,-327.607,1.16747,0.0,0.0
1325,331,235.09,271.886,77.812,103.913,89.6403,0.0270018,3.09814,16.9835,-328.128,1.31528,0.0,0.0
1330,332.25,236.935,272.846,96.6481,103.703,89.653,0.0271223,3.10581,16.9716,-328.568,1.29602,0.0,0.0
1335,333.5,237.137,273.494,85.8386,103.496,90.3583,0.0274753,3.11104,16.951,-329.099,1.20844,0.0,0.0
1340,334.75,237.301,274.07,79.727,103.322,90.9262,0.0279396,3.13357,16.9159,-329.599,1.13766,0.0,0.0
1345,336,238.294,274.673,79.4988,103.179,91.4153,0.0283148,3.16614,16.8804,-330.14,1.07758,0.0,0.0
1350,337.25,238.971,275.772,88.9733,103.094,90.2751,0.0284654,3.19442,16.859,-330.49,1.18202,0.0,0.0
1355,338.5,240.01,276.93,77.7822,103.027,91.5199,0.0284078,3.20725,16.8465,-331.12,1.05433,0.0,0.0
1360,339.75,240.251,277.628,95.9726,103.016,90.1709,0.0283525,3.20955,16.8348,-331.541,1.18551,0.0,0.0
1365,341,240.307,278.699,78.8729,103.083,89.48,0.0284204,3.20989,16.828,-332.001,1.25976,0.0,0.0
1370,342.25,241.361,278.489,88.478,103.151,89.8552,0.0285739,3.22049,16.8239,-332.432,1.22843,0.0,0.0
1375,343.5,242.181,279.375,91.6463,103.279,87.5285,0.0286846,3.23112,16.8215,-332.972,1.47296,0.0,0.0
1380,344.75,242.783,280.49,90.9311,103.438,90.1376,0.028719,3.22465,16.8334,-333.503,1.22524,0.0,0.0
1385,346,242.919,280.981,90.5869,103.614,90.0374,0.0287439,3.2089,16.8448,-333.903,1.25025,0.0,0.0
1390,347.25,242.946,281.981,89.7954,103.806,91.0615,0.0288256,3.19684,16.8576,-334.403,1.16607,0.0,0.0
1395,348.5,244.156,281.868,86.4286,103.983,90.9091,0.0289093,3.18483,16.8651,-334.894,1.19609,0.0,0.0
1400,349.75,244.089,282.386,82.7,104.129,89.1792,0.0289445,3.18007,16.8658,-335.384,1.37968,0.0,0.0
1405,351,244.559,282.616,95.4955,104.254,89.0697,0.0288941,3.18155,16.8769,-335.855,1.40122,0.0,0.0
1410,352.25,244.499,283,96.9984,104.331,89.8679,0.0286565,3.18146,16.8824,-336.315,1.32844,0.0,0.0
1415,353.5,245.011,283.227,94.4598,104.369,90.9266,0.0282624,3.17217,16.9028,-336.796,1.22739,0.0,0.0
1420,354.75,244.08,283.001,97.1465,104.353,90.1595,0.0278627,3.15172,16.9388,-337.296,1.30149,0.0,0.0
1425,356,245.153,283.02,82.2054,104.297,90.7165,0.0274944,3.11328,17.0024,-337.716,1.24189,0.0,0.0
1430,357.25,245.244,283.46,98.641,104.187,91.2292,0.0271187,3.05656,17.085,-338.067,1.18233,0.0,0.0
1435,358.5,244.895,283.053,90.2709,104.054,90.1232,0.0266555,2.98067,17.1819,-338.587,1.27951,0.0,0.0
1440,359.75,244.346,282.532,97.9975,103.963,88.3565,0.0260705,2.89042,17.2901,-338.917,1.44798,0.0,0.0
1445,361,243.652,281.676,92.4256,103.876,88.0343,0.0252532,2.77561,17.4364,-339.288,1.47306,0.0,0.0
1450,362.25,241.551,279.569,89.3848,103.778,85.0355,0.0241653,2.64736,17.6232,-339.608,1.77315,0.0,0.0
1455,363.5,240.711,278.508,107.075,103.958,88.3731,0.0229184,2.50888,17.8223,-340.009,1.44587,0.0,0.0
1460,364.75,239.423,276.097,103.549,104.291,88.1166,0.0215846,2.33782,18.0201,-340.229,1.50021,0.0,0.0
1465,366,237.499,274.127,112.962,104.531,90.5094,0.0197622,2.17224,18.2308,-340.499,1.28212,0.0,0.0
1470,367.25,235.099,271.624,111.652,104.664,93.8935,0.0178998,2.00066,18.468,-340.749,0.96667,0.0,0.0
1475,368.5,232.841,268.873,118.807,104.68,93.7161,0.016223,1.82359,18.7083,-340.959,0.984848,0.0,0.0
1480,369.75,230.003,265.492,117.409,104.623,93.1461,0.0146408,1.64111,18.9616,-341.15,1.03436,0.0,0.0
1485,371,226.891,261.838,125.773,104.463,95.4215,0.0133326,1.47024,19.16,-341.34,0.805878,0.0,0.0
1490,372.25,223.972,258.376,123.855,104.228,93.4709,0.0123658,1.30033,19.3467,-341.47,0.969656,0.0,0.0
1495,373.5,220.57,254.029,129.929,104.216,95.7538,0.0112127,1.14345,19.5302,-341.63,0.753886,0.0,0.0
1500,374.75,216.95,249.645,131.261,104.338,97.2386,0.0101552,1.00652,19.7339,-341.73,0.627264,0.0,0.0
1505,376,212.895,245.834,134.989,104.503,98.5477,0.00903055,0.871812,19.9395,-341.81,0.522293,0.0,0.0
1510,377.25,209.769,241.138,139.385,104.649,102.04,0.00792978,0.733573,20.1536,-341.81,0.224753,0.0,0.0
1515,378.5,205.105,236.77,150.204,104.797,103.912,0.00694033,0.606229,20.3294,-341.82,0.0754802,0.0,0.0
1520,379.75,201.629,232.134,149.322,104.921,104.758,0.0060576,0.495123,20.466,-341.85,0.0138103,0.0,0.0
1525,381,197.003,227.295,149.936,104.991,104.895,0.00522588,0.401567,20.5852,-341.88,0.00816427,0.0,0.0
1530,382.25,193.066,222.976,147.815,105.006,106.714,0.004521,0.331657,20.6859,-341.88,-0.14366,0.0,0.0
1535,383.5,189.672,218.388,146.017,104.961,105.766,0.00394821,0.269451,20.766,-341.88,-0.0680261,0.0,0.0
1540,384.75,185.836,213.258,149.294,104.881,105.449,0.00351889,0.220609,20.8309,-341.88,-0.0481501,0.0,0.0
1545,386,182.272,209.367,151.273,104.728,105.323,0.00322043,0.182697,20.8757,-341.88,-0.0504224,0.0,0.0
1550,387.25,178.927,204.635,150.927,104.509,105.04,0.00298053,0.153225,20.912,-341.85,-0.0451221,0.0,0.0
1555,388.5,175.673,200.69,151.603,104.258,104.12,0.00277214,0.130742,20.9387,-341.86,0.0117535,0.0,0.0
1560,389.75,171.965,196.401,149.547,103.997,104.464,0.00255432,0.113115,20.9592,-341.88,-0.0399224,0.0,0.0
1565,391,168.554,192.629,151.015,103.702,104.004,0.00233463,0.0990421,20.9754,-341.87,-0.0258862,0.0,0.0
1570,392.25,165.433,189.492,150.939,103.46,104.664,0.00214044,0.088833,20.9868,-341.85,-0.102987,0.0,0.0
1575,393.5,162.48,185.324,153.806,103.249,103.327,0.0020105,0.0808398,20.9949,-341.86,-0.00666998,0.0,0.0
1580,394.75,159.187,182.306,152.411,103.117,103.617,0.00194904,0.0748755,21.0003,-341.87,-0.043115,0.0,0.0
1585,396,156.844,178.609,152.572,103.043,102.914,0.00189728,0.0703609,21.0022,-341.86,0.0111493,0.0,0.0
1590,397.25,152.982,175.002,154.978,103.051,103.676,0.00181956,0.0667644,21.0024,-341.89,-0.0537843,0.0,0.0
1595,398.5,151.414,172,151.467,103.121,103.647,0.00171169,0.0638846,21.0036,-341.88,-0.0453119,0.0,0.0
1600,399.75,149.123,169.061,151.766,103.261,103.682,0.00159873,0.0614238,21.0052,-341.9,-0.036237,0.0,0.0
1605,401,146.688,166.284,150.651,103.437,103.677,0.00146257,0.0595888,21.0061,-341.91,-0.0206653,0.0,0.0
1610,402.25,144.096,163.529,152.015,103.648,103.692,0.00129645,0.0580128,21.0074,-341.91,-0.0037553,0.0,0.0
1615,403.5,141.522,160.433,151.437,103.853,103.539,0.00116398,0.0565925,21.009,-341.9,0.0269485,0.0,0.0
1620,404.75,140.094,157.494,151.357,104.077,104.262,0.0011045,0.0553987,21.0101,-341.89,-0.0157982,0.0,0.0
1625,406,137.754,155.249,151.592,104.199,104.177,0.00108381,0.0543607,21.0108,-341.87,0.00185159,0.0,0.0
1630,407.25,135.486,152.481,152.555,104.323,103.653,0.00107463,0.0535592,21.0112,-341.88,0.0573876,0.0,0.0
1635,408.5,133.514,150.286,151.396,104.367,103.821,0.0010865,0.052811,21.0124,-341.89,0.0467067,0.0,0.0
1640,409.75,131.614,147.927,153.974,104.355,103.989,0.00108807,0.0520264,21.0131,-341.89,0.0312683,0.0,0.0
1645,411,128.91,145.65,158.391,104.264,103.929,0.00106078,0.0514464,21.0135,-341.89,0.0286253,0.0,0.0
1650,412.25,127.788,142.981,153.271,104.15,103.623,0.00100335,0.0509742,21.0137,-341.9,0.0452023,0.0,0.0
1655,413.5,126.407,140.791,151.627,104.02,103.659,0.000932212,0.0504748,21.0139,-341.89,0.0309616,0.0,0.0
1660,414.75,123.898,138.676,153.842,103.911,103.278,0.000866344,0.0501065,21.014,-341.88,0.0543557,0.0,0.0
1665,416,122.689,136.245,152.75,103.795,102.954,0.000834311,0.0497973,21.014,-341.88,0.0724387,0.0,0.0
1670,417.25,121.527,134.409,153.672,103.795,103.188,0.000863121,0.0495277,21.014,-341.86,0.0522808,0.0,0.0
1675,418.5,119.565,132.826,151.31,104.156,103.42,0.000908108,0.0492254,21.0149,-341.89,0.0630615,0.0,0.0
1680,419.75,118.555,130.338,152.729,104.433,103.946,0.000938755,0.0488772,21.0145,-341.9,0.0416065,0.0,0.0
1685,421,116.673,128.836,153.627,104.599,104.321,0.000945762,0.0485782,21.0143,-341.93,0.0237391,0.0,0.0
1690,422.25,114.63,126.129,156.074,104.661,103.264,0.00089184,0.0482277,21.0142,-341.91,0.11962,0.0,0.0
1695,423.5,114.083,125.481,155.66,104.6,104.067,0.000848284,0.0480349,21.0141,-341.94,0.0455074,0.0,0.0
1700,424.75,112.145,123.319,152.818,104.461,104.271,0.000827693,0.0479578,21.0141,-341.9,0.0161781,0.0,0.0
1705,426,111.608,122.018,153.348,104.179,103.046,0.000814736,0.0478769,21.0147,-341.87,0.0973073,0.0,0.0
1710,427.25,110.127,120.353,153.43,104.233,103.654,0.000800999,0.0477944,21.0153,-341.87,0.0496398,0.0,0.0
1715,428.5,108.565,118.425,155.483,104.389,103.301,0.000826777,0.0476783,21.0157,-341.88,0.0932715,0.0,0.0
1720,429.75,106.968,116.664,155.014,104.568,104.097,0.000896299,0.0475316,21.016,-341.9,0.0401836,0.0,0.0
1725,431,105.943,115.677,155.729,104.725,104.022,0.000961905,0.0474113,21.0161,-341.94,0.0599978,0.0,0.0
1730,432.25,105.393,114.447,155.57,104.888,103.839,0.00101804,0.04736,21.0162,-341.93,0.0895217,0.0,0.0
1735,433.5,102.791,111.907,154.581,104.973,104.084,0.00105465,0.0473206,21.0166,-341.89,0.0757254,0.0,0.0
1740,434.75,103.284,110.982,152.019,105.001,103.195,0.00107349,0.0472476,21.0168,-341.88,0.154482,0.0,0.0
1745,436,101.973,109.996,155.661,104.961,104.098,0.00107862,0.0471825,21.017,-341.89,0.0735344,0.0,0.0
1750,437.25,100.833,109.112,155.43,104.863,104.099,0.00108327,0.0471441,21.0171,-341.92,0.0650886,0.0,0.0
1755,438.5,99.9542,107.579,150.132,104.686,103.015,0.00110995,0.0471349,21.0171,-341.93,0.143219,0.0,0.0
1760,439.75,98.8121,106.235,154.816,104.432,103.956,0.00113468,0.0470682,21.0171,-341.9,0.0407467,0.0,0.0
1765,441,97.9223,104.573,157.505,104.168,102.776,0.00114145,0.0470384,21.0171,-341.89,0.11982,0.0,0.0
1770,442.25,96.6243,103.209,150.968,103.892,102.777,0.00111793,0.047059,21.0169,-341.9,0.0960234,0.0,0.0
1775,443.5,96.0401,102.501,156.551,103.609,101.743,0.00105514,0.0470422,21.0157,-341.87,0.161804,0.0,0.0
1780,444.75,95.3218,101.023,150.499,103.359,102.3,0.00101366,0.0469939,21.0148,-341.91,0.0916657,0.0,0.0
1785,446,94.3892,100.224,155.467,103.19,101.611,0.00100551,0.0469256,21.0142,-341.93,0.137246,0.0,0.0
1790,447.25,93.2373,98.7059,149.993,103.088,101.701,0.00103167,0.0468365,21.0139,-341.9,0.12058,0.0,0.0
1795,448.5,92.421,97.8936,150.48,103.05,101.173,0.00105368,0.0467353,21.0137,-341.89,0.163598,0.0,0.0
1800,449.75,91.6942,97.01,156.402,103.128,101.185,0.00104477,0.0465957,21.0136,-341.9,0.169306,0.0,0.0
1805,451,90.9731,95.6839,155.897,103.236,101.769,0.000993042,0.0465493,21.0136,-341.88,0.127338,0.0,0.0
1810,452.25,90.2776,94.539,155.005,103.406,101.579,0.000932023,0.0465728,21.0135,-341.91,0.158708,0.0,0.0
1815,453.5,89.8489,94.0758,152.598,103.61,102.283,0.000884,0.0465817,21.0135,-341.9,0.114804,0.0,0.0
1820,454.75,88.3394,92.9569,156.427,103.825,102.123,0.000861738,0.0465751,21.0135,-341.89,0.147131,0.0,0.0
1825,456,88.0884,91.7471,157.283,104.024,102.638,0.000867371,0.0466296,21.0135,-341.88,0.119441,0.0,0.0
1830,457.25,87.4494,91.0954,158.754,104.18,102.877,0.000880437,0.0467198,21.0135,-341.9,0.112027,0.0,0.0
1835,458.5,86.6497,90.4418,155.383,104.295,102.885,0.000890075,0.0468114,21.0143,-341.88,0.121198,0.0,0.0
1840,459.75,86.34,89.1006,152.862,104.351,102.99,0.00086206,0.0468167,21.0149,-341.89,0.11682,0.0,0.0
1845,461,85.3037,88.8605,155.092,104.361,102.848,0.000812772,0.0466657,21.0153,-341.91,0.129982,0.0,0.0
1850,462.25,84.4844,87.6036,155.597,104.306,102.88,0.000764642,0.0466034,21.015,-342,0.122507,0.0,0.0
1855,463.5,84.2171,86.9924,155.337,104.206,102.42,0.000753941,0.0466552,21.0144,-341.91,0.153956,0.0,0.0
1860,464.75,82.6441,84.9999,152.501,104.095,102.737,0.000775949,0.0466961,21.014,-341.93,0.116866,0.0,0.0
1865,466,82.4201,84.9355,154.152,103.936,102.567,0.000852475,0.0466707,21.0139,-341.93,0.118004,0.0,0.0
1870,467.25,82.1613,84.5354,155.062,103.836,101.402,0.000914936,0.0466241,21.0138,-341.92,0.211217,0.0,0.0
1875,468.5,81.1578,82.9253,153.491,103.751,102.018,0.000960788,0.0466539,21.0138,-341.93,0.15002,0.0,0.0
1880,469.75,81.4963,83.2123,157.654,103.782,101.386,0.000993213,0.0467062,21.0137,-341.9,0.20794,0.0,0.0
1885,471,80.6691,82.2043,151.788,104.064,101.224,0.00102337,0.0466702,21.0137,-341.93,0.246312,0.0,0.0
1890,472.25,78.85,80.2264,155.267,104.316,102.241,0.00105771,0.0466096,21.0143,-341.92,0.17881,0.0,0.0
1895,473.5,80.0174,80.9227,155.953,104.495,102.416,0.00108565,0.0465547,21.015,-341.92,0.178869,0.0,0.0
1900,474.75,79.6898,80.2869,151.916,104.587,101.917,0.00108694,0.0465125,21.0154,-341.93,0.230226,0.0,0.0
1905,476,78.6659,79.8924,157.546,104.597,102.62,0.00106637,0.0465165,21.0153,-341.94,0.169836,0.0,0.0
1910,477.25,78.2458,79.3681,155.31,104.545,102.991,0.00103979,0.0464594,21.0152,-341.94,0.13331,0.0,0.0
1915,478.5,77.7201,78.2511,155.735,104.433,102.33,0.00103987,0.0464045,21.0152,-341.93,0.181096,0.0,0.0
1920,479.75,77.6687,78.2584,156.944,104.207,101.746,0.00105027,0.0462992,21.0152,-341.95,0.212789,0.0,0.0
1925,481,77.7196,77.3852,159.532,104.139,101.941,0.00105817,0.0462286,21.0152,-341.92,0.189823,0.0,0.0
1930,482.25,76.1932,77.0247,156.158,104.246,101.739,0.00105248,0.0462217,21.0151,-341.92,0.216758,0.0,0.0
1935,483.5,75.7968,76.3438,155.625,104.381,101.69,0.000994838,0.0462517,21.0151,-341.9,0.232573,0.0,0.0
1940,484.75,75.8562,75.4045,156.343,104.522,102.164,0.000885662,0.046274,21.0151,-341.89,0.203166,0.0,0.0
1945,486,75.5078,75.3406,154.182,104.648,102.575,0.00080162,0.0462872,21.0155,-341.93,0.178124,0.0,0.0
1950,487.25,74.8882,74.221,159.2,104.788,102.364,0.000779318,0.0462951,21.0157,-341.9,0.208365,0.0,0.0
1955,488.5,74.6646,74.059,154.862,104.887,102.607,0.000839932,0.0462793,21.015,-341.93,0.195669,0.0,0.0
1960,489.75,74.132,73.6467,154.617,104.945,102.62,0.000920835,0.0462919,21.0142,-341.93,0.199499,0.0,0.0
1965,491,73.9347,73.2792,154.76,104.975,102.858,0.000966435,0.0463723,21.0137,-341.92,0.181412,0.0,0.0
1970,492.25,73.0542,72.6656,156.59,104.98,102.385,0.00100122,0.0464094,21.0134,-341.94,0.222785,0.0,0.0
1975,493.5,72.5325,72.3771,154.32,104.94,102.273,0.00104315,0.0464557,21.0133,-341.94,0.229205,0.0,0.0
1980,494.75,72.5882,71.7612,156.166,104.863,102.578,0.00107724,0.0464272,21.0132,-341.94,0.196115,0.0,0.0
1985,496,71.743,70.1388,153.684,104.757,102.492,0.00108261,0.0463793,21.0131,-341.94,0.194551,0.0,0.0
1990,497.25,71.877,70.849,157.851,104.646,102.154,,0.0463644,,-341.95,0.214541,0.0,0.0
1995,498.5,71.7573,70.241,156.309,104.49,101.902,,0.0463577,,-341.93,0.22327,0.0,0.0
2000,499.75,71.1459,69.8788,156.796,104.31,101.429,,0.046319,,-341.96,0.249384,0.0,0.0
2005,501,70.6578,69.7163,158.172,104.131,102.208,,,,-341.94,0.165926,0.0,0.0
2010,502.25,70.9071,69.4361,158.585,103.956,101.139,,,,-341.94,0.244554,0.0,0.0
2015,503.5,70.4148,68.542,157.319,103.771,101.209,,,,-341.94,0.222515,0.0,0.0
2020,504.75,70.196,68.3832,155.49,103.595,100.471,,,,-341.96,0.272574,0.0,0.0
2025,506,69.1422,67.8353,157.251,103.446,100.3,,,,-341.94,0.274958,0.0,0.0
2030,507.25,69.4607,67.5745,154.285,103.318,100.521,,,,-341.94,0.244301,0.0,0.0
2033,508,69.0534,67.4604,157.694,103.262,100.543,,,,-341.94,0.237609,0.0,0.0