File: 01_Data/Black_PMMA/Cone/Black_PMMA_Cone_HF75Scan_220315_R1.csv
Names,Time,Stack TC,Smoke TC,Exh Press,Smoke Comp,Smoke Meas,CO Meter,CO2 Meter,O2 Meter,Sample Mass,Ext Coeff,Start Test,Flame Verif
Chan Gain,,500,500,1,1,1,1,1,1,1,1,1.0,1.0
Offset,,0,0,0.132973,0,0,0,0,0,0,0,0.0,0.0
Gain,,1,1,25.011,13.0548,13.4146,1,1,1,1.00087,1.01298,1.0,1.0
Units,sec,C,C,Pa,%,%,%,%,%,g,/m,,
Baseline,,41.1469,42.3511,146.688,99.3361,94.3244,0.000593551,0.0519158,21.0197,-833.136,0.460067,,
4,0.75,40.6054,41.1041,140.99,99.4614,94.3349,0.000254356,0.0592674,21.013,-238.227,0.470217,0.0,0.0
8,1.75,40.3537,41.8853,147.826,99.4507,93.7696,0.000239676,0.0591852,21.0131,-238.317,0.522669,0.0,0.0
12,2.75,40.1308,40.939,149.183,99.4634,94.0873,0.00021769,0.0590791,21.0132,-238.247,0.493754,0.0,0.0
16,3.75,40.1662,41.0191,146.234,99.4654,94.0905,0.000225573,0.0589359,21.0141,-238.307,0.493624,0.0,0.0
20,4.75,39.789,41.627,148.863,99.469,94.4545,0.000259617,0.0587068,21.0152,-238.267,0.45964,0.0,0.0
24,5.75,40.0683,41.1474,144.537,99.469,94.2301,0.000319748,0.0585202,21.0154,-238.287,0.48077,0.0,0.0
28,6.75,39.8071,41.3327,144.968,99.4718,94.4324,0.000386226,0.0583732,21.0148,-238.307,0.46197,0.0,0.0
32,7.75,39.7477,41.0533,146.341,99.4694,94.0566,0.000479272,0.0584238,21.0127,-238.307,0.497189,0.0,0.0
36,8.75,39.6609,41.5587,146.661,99.4742,94.4393,0.000592963,0.0586531,21.0098,-238.307,0.461528,0.0,0.0
40,9.75,40.115,40.9188,145.551,99.4801,93.9166,0.000864163,0.0605702,21.0047,-238.337,0.511386,0.0,0.0
44,10.75,40.3379,41.558,148.137,99.4797,94.1188,0.0013774,0.0760251,20.9821,-238.407,0.492238,0.0,0.0
48,11.75,39.9765,40.9783,128.587,99.4805,93.7192,0.00209151,0.118169,20.9129,-238.477,0.530112,0.0,1.0
52,12.75,40.147,41.412,117.769,99.4829,92.5333,0.00299876,0.194184,20.7509,-238.777,0.643488,0.0,1.0
56,13.75,40.7863,42.272,113.029,99.4913,90.4249,0.00406796,0.333034,20.5033,-238.917,0.849033,0.0,1.0
60,14.75,42.093,43.1748,108.995,99.4885,89.7724,0.00534789,0.510541,20.2279,-239.128,0.913141,0.0,1.0
64,15.75,44.7402,45.3957,96.8808,99.4905,88.279,0.00652867,0.697502,20.0036,-239.388,1.06238,0.0,1.0
68,16.75,47.27,48.1608,93.9139,99.508,88.1365,0.00797342,0.881452,19.7786,-239.688,1.0783,0.0,1.0
72,17.75,49.432,51.0009,100.359,99.4997,87.0279,0.00928991,1.04118,19.5619,-239.888,1.19003,0.0,0.0
76,18.75,52.0074,53.7031,106.886,99.4905,86.8019,0.0106051,1.20203,19.3729,-240.239,1.21231,0.0,0.0
80,19.75,56.4327,57.7838,90.3426,99.4973,86.3405,0.0118219,1.3425,19.1837,-240.549,1.26027,0.0,0.0
84,20.75,59.5567,61.8068,86.7453,99.4941,87.0222,0.012943,1.46865,18.9973,-240.779,1.19012,0.0,0.0
88,21.75,62.9394,65.2884,98.7149,99.5001,84.9028,0.0140052,1.58996,18.8307,-241.079,1.40973,0.0,0.0
92,22.75,65.5395,68.5132,96.3587,99.4985,84.8422,0.0148963,1.69885,18.7045,-241.39,1.41594,0.0,0.0
96,23.75,69.9727,73.3426,95.7771,99.4909,84.7747,0.0157667,1.78778,18.6009,-241.65,1.42234,0.0,0.0
100,24.75,73.0103,76.7335,83.0686,99.5032,83.5486,0.01651,1.86687,18.5091,-242.02,1.55289,0.0,0.0
104,25.75,76.5217,80.7565,91.9516,99.4977,83.3938,0.0171647,1.93374,18.4365,-242.36,1.56887,0.0,0.0
108,26.75,79.1606,84.0112,91.9905,99.5009,84.1524,0.0178517,2.00823,18.3566,-242.671,1.48869,0.0,0.0
112,27.75,82.3898,87.6314,100.154,99.4921,84.5098,0.0185054,2.07949,18.2685,-242.961,1.45025,0.0,0.0
116,28.75,86.4425,91.196,86.9804,99.4925,84.3927,0.0191541,2.13228,18.1869,-243.321,1.4626,0.0,0.0
120,29.75,89.8333,94.9462,94.565,99.4973,84.6306,0.0196699,2.20185,18.1103,-243.591,1.43802,0.0,0.0
124,30.75,92.1123,99.3069,91.2211,99.4929,83.26,0.0201986,2.25673,18.0449,-243.982,1.58272,0.0,0.0
128,31.75,95.6993,102.931,91.1715,99.4977,84.5008,0.020548,2.30794,17.9974,-244.312,1.4517,0.0,0.0
132,32.75,99.1592,106.771,91.7546,99.4945,84.3227,0.0209284,2.35502,17.9368,-244.622,1.47016,0.0,0.0
136,33.75,102.043,110.11,88.7725,99.4929,86.1277,0.0212638,2.39445,17.8829,-245.023,1.28182,0.0,0.0
140,34.75,105.114,113.62,93.6506,99.4973,84.7333,0.0215887,2.41797,17.8406,-245.273,1.42724,0.0,0.0
144,35.75,107.925,117.112,91.2295,99.4885,83.9223,0.0218956,2.44642,17.8019,-245.623,1.51191,0.0,0.0
148,36.75,110.437,120.904,84.6936,99.4965,83.2812,0.0221393,2.47662,17.762,-246.014,1.58077,0.0,0.0
152,37.75,113.978,123.372,88.971,99.5016,83.6689,0.0223779,2.50856,17.7178,-246.334,1.53996,0.0,0.0
156,38.75,116.158,127.404,89.2984,99.5009,83.6796,0.0226189,2.54584,17.6721,-246.674,1.53876,0.0,0.0
160,39.75,118.896,130.197,86.8765,99.4949,83.7316,0.0228487,2.58235,17.639,-247.034,1.5327,0.0,0.0
164,40.75,121.846,133.432,88.5993,99.5032,85.4763,0.0232151,2.61594,17.5918,-247.385,1.3502,0.0,0.0
168,41.75,124.358,136.721,77.2723,99.4913,83.6546,0.0235906,2.64789,17.5409,-247.715,1.54056,0.0,0.0
172,42.75,127.213,139.852,79.601,99.4925,83.6861,0.0240107,2.67223,17.5069,-248.085,1.53732,0.0,0.0
176,43.75,130.227,142.898,79.6476,99.4869,81.9872,0.0242945,2.69667,17.4841,-248.446,1.71907,0.0,0.0
180,44.75,132.62,146.855,80.2941,99.4889,83.8957,0.0244399,2.71241,17.4685,-248.836,1.51477,0.0,0.0
184,45.75,135.033,149.329,89.935,99.4821,83.7529,0.0244469,2.72271,17.4576,-249.146,1.52931,0.0,0.0
188,46.75,137.832,152.221,84.328,99.4889,82.4494,0.0243813,2.73035,17.4472,-249.527,1.66929,0.0,0.0
192,47.75,139.551,154.885,83.9799,99.4977,83.594,0.0242979,2.74288,17.4325,-249.837,1.54756,0.0,0.0
196,48.75,141.947,157.67,85.6255,99.4793,84.224,0.0242302,2.75926,17.4141,-250.277,1.47921,0.0,0.0
200,49.75,144.003,160.494,83.5723,99.4861,84.2142,0.0241761,2.78088,17.39,-250.578,1.48085,0.0,0.0
204,50.75,146.094,162.986,85.4469,99.4758,82.9984,0.0241582,2.8008,17.3698,-250.908,1.60915,0.0,0.0
208,51.75,148.232,165.492,86.6453,99.4785,82.2242,0.0241783,2.8148,17.3583,-251.338,1.69267,0.0,0.0
212,52.75,150.404,168.456,78.0676,99.473,83.3062,0.0242323,2.8302,17.3439,-251.699,1.576,0.0,0.0
216,53.75,151.728,170.653,80.0468,99.4785,81.936,0.0243559,2.85522,17.3152,-252.149,1.72387,0.0,0.0
220,54.75,154.443,173.291,76.2388,99.4785,83.0254,0.0244761,2.87839,17.274,-252.419,1.6065,0.0,0.0
224,55.75,156.447,175.841,76.6418,99.4817,82.1137,0.0245648,2.90879,17.2422,-252.789,1.7049,0.0,0.0
228,56.75,157.797,178.302,86.0667,99.477,84.0316,0.0246377,2.92915,17.2176,-253.2,1.49932,0.0,0.0
232,57.75,160.236,181.053,81.9672,99.4765,83.7508,0.024718,2.94008,17.1993,-253.51,1.52903,0.0,0.0
236,58.75,161.697,183.112,78.1309,99.4754,82.3859,0.0248177,2.94746,17.1844,-253.89,1.67492,0.0,0.0
240,59.75,164.141,185.602,78.4378,99.473,82.8268,0.02496,2.95766,17.1731,-254.321,1.62728,0.0,0.0
244,60.75,165.263,188.286,82.1664,99.4682,82.1608,0.0251399,2.96829,17.1609,-254.591,1.6986,0.0,0.0
248,61.75,166.792,189.519,86.7666,99.4765,82.365,0.0253392,2.97697,17.1485,-254.991,1.67728,0.0,0.0
252,62.75,169.168,191.999,87.5635,99.4702,83.2485,0.0254596,2.98871,17.1344,-255.452,1.58191,0.0,0.0
256,63.75,170.781,194.049,73.4231,99.4682,83.4474,0.0255907,3.00523,17.114,-255.812,1.56052,0.0,0.0
260,64.75,172.195,196.554,84.7462,99.4606,82.2402,0.0256713,3.01958,17.0976,-256.172,1.68934,0.0,0.0
264,65.75,174.127,198.537,80.491,99.471,84.4697,0.0257156,3.02719,17.0857,-256.543,1.45258,0.0,0.0
268,66.75,175.742,200.843,78.3172,99.4678,83.996,0.0257428,3.03657,17.074,-256.863,1.50226,0.0,0.0
272,67.75,177.133,202.684,80.7757,99.4714,82.9279,0.0257685,3.0486,17.0572,-257.213,1.6163,0.0,0.0
276,68.75,178.92,204.23,91.9813,99.4662,84.1413,0.0257923,3.06374,17.0406,-257.634,1.48676,0.0,0.0
280,69.75,180.337,206.435,76.5242,99.4546,82.2615,0.0257982,3.0797,17.0209,-257.974,1.6865,0.0,0.0
284,70.75,182.11,208.993,79.1201,99.4638,82.6316,0.0257759,3.09361,17.008,-258.364,1.64744,0.0,0.0
288,71.75,183.456,210.629,85.608,99.4582,81.9045,0.025709,3.10081,16.9995,-258.755,1.72547,0.0,0.0
292,72.75,184.682,212.662,76.9005,99.4467,83.3246,0.0256546,3.0992,16.994,-259.125,1.57169,0.0,0.0
296,73.75,186.393,214.692,81.7107,99.455,82.5767,0.0256489,3.09561,16.9925,-259.555,1.65256,0.0,0.0
300,74.75,187.789,215.928,80.4826,99.4602,84.4824,0.0257009,3.09259,16.9925,-259.906,1.45029,0.0,0.0
304,75.75,188.956,217.727,76.4647,99.4495,82.6799,0.0258504,3.09659,16.9925,-260.336,1.64096,0.0,0.0
308,76.75,189.604,219.151,82.5961,99.4566,82.1767,0.0259974,3.10198,16.9925,-260.616,1.69584,0.0,0.0
312,77.75,191.114,220.739,77.8127,99.4395,82.9701,0.0261407,3.1041,16.9919,-261.047,1.60893,0.0,0.0
316,78.75,192.596,222.636,82.4755,99.4407,83.6042,0.0262389,3.10717,16.9904,-261.407,1.54139,0.0,0.0
320,79.75,193.32,223.697,68.5396,99.4395,83.0806,0.0262998,3.113,16.9849,-261.797,1.5971,0.0,0.0
324,80.75,193.728,224.872,81.8847,99.4375,82.7052,0.0263306,3.12017,16.9751,-262.168,1.63717,0.0,0.0
328,81.75,195.629,226.482,74.9702,99.4359,82.0969,0.0263356,3.12732,16.9648,-262.588,1.70263,0.0,0.0
332,82.75,196.486,228.22,76.7044,99.4355,82.0916,0.0263123,3.1381,16.946,-262.998,1.70317,0.0,0.0
336,83.75,197.106,229.398,81.6618,99.4367,81.8218,0.0262932,3.15535,16.926,-263.289,1.73252,0.0,0.0
340,84.75,198.639,230.372,83.7219,99.4351,82.4117,0.0262781,3.1794,16.8937,-263.749,1.66855,0.0,0.0
344,85.75,200.037,232.398,80.062,99.4343,84.7968,0.0262886,3.20364,16.8672,-264.109,1.41497,0.0,0.0
348,86.75,201.168,233.606,84.0601,99.4307,83.1646,0.0263352,3.21826,16.8456,-264.48,1.58735,0.0,0.0
352,87.75,202.376,235.341,78.3996,99.4299,81.7293,0.0263805,3.23331,16.8309,-264.87,1.74197,0.0,0.0
356,88.75,203.087,236.727,71.8698,99.4331,83.4782,0.0263865,3.24575,16.8212,-265.28,1.55412,0.0,0.0
360,89.75,203.677,237.434,69.7624,99.4232,83.4679,0.0263493,3.25392,16.8149,-265.641,1.55432,0.0,0.0
364,90.75,205.277,239.102,78.6942,99.4252,82.4383,0.0263036,3.25012,16.8052,-265.991,1.66479,0.0,0.0
368,91.75,206.694,241.078,75.0221,99.4208,83.086,0.0262701,3.25013,16.7988,-266.381,1.59486,0.0,0.0
372,92.75,207.619,242.187,72.9827,99.4168,82.8199,0.0263317,3.26161,16.7856,-266.812,1.62301,0.0,0.0
376,93.75,208.493,243.391,71.2012,99.416,83.8155,0.0265037,3.27956,16.7676,-267.182,1.51676,0.0,0.0
380,94.75,209.369,244.59,85.0531,99.4188,83.3574,0.0267014,3.29292,16.754,-267.592,1.5657,0.0,0.0
384,95.75,210.461,246.288,74.239,99.414,83.0385,0.0269663,3.30193,16.7425,-267.983,1.59934,0.0,0.0
388,96.75,211.582,247.131,78.6919,99.4196,82.5562,0.0272518,3.30921,16.7355,-268.353,1.65159,0.0,0.0
392,97.75,212.321,248.294,77.6737,99.4204,84.0271,0.0273999,3.31652,16.7286,-268.803,1.49474,0.0,0.0
396,98.75,213.197,249.782,71.6607,99.4132,82.8166,0.0274221,3.32337,16.7235,-269.154,1.62304,0.0,0.0
400,99.75,213.972,251.183,70.747,99.4172,83.7058,0.0274271,3.33234,16.7188,-269.574,1.5285,0.0,0.0
404,100.75,214.893,251.73,71.6439,99.4168,82.3106,0.027487,3.33595,16.7146,-269.854,1.67782,0.0,0.0
408,101.75,216.031,252.952,80.6444,99.4156,83.54,0.0276692,3.33575,16.712,-270.325,1.54598,0.0,0.0
412,102.75,217.019,254.202,86.3209,99.418,82.1428,0.0279055,3.33543,16.7104,-270.705,1.69606,0.0,0.0
416,103.75,217.668,255.341,78.6126,99.4064,82.1616,0.0281876,3.33452,16.7094,-271.095,1.69299,0.0,0.0
420,104.75,219.037,256.068,74.9748,99.416,83.4041,0.0284319,3.33506,16.7056,-271.496,1.56048,0.0,0.0
424,105.75,219.739,257.213,78.9499,99.4044,82.0191,0.0286117,3.33732,16.7022,-271.866,1.70824,0.0,0.0
428,106.75,219.81,258.543,69.9998,99.4032,83.1036,0.0287729,3.34138,16.6974,-272.296,1.59141,0.0,0.0
432,107.75,220.813,259.175,69.1106,99.4044,83.3255,0.0289357,3.34991,16.6868,-272.657,1.56783,0.0,0.0
436,108.75,221.466,260.586,75.0534,99.4064,81.7923,0.0290605,3.36124,16.6659,-273.107,1.73302,0.0,0.0
440,109.75,222.328,261.471,70.7913,99.4072,82.7151,0.0290889,3.38101,16.6444,-273.457,1.63341,0.0,0.0
444,110.75,223.243,262.625,77.0013,99.4025,83.7352,0.0290237,3.39754,16.6303,-273.848,1.52406,0.0,0.0
448,111.75,224.391,263.442,77.4333,99.4096,84.529,0.0288947,3.40622,16.6202,-274.238,1.44086,0.0,0.0
452,112.75,225.067,264.748,77.2028,99.4056,83.244,0.0287359,3.40808,16.612,-274.608,1.57662,0.0,0.0
456,113.75,225.713,265.74,75.9907,99.4028,82.241,0.0286081,3.41278,16.6075,-275.089,1.68409,0.0,0.0
460,114.75,226.439,266.64,73.5322,99.4036,82.1035,0.028565,3.4165,16.6044,-275.419,1.69903,0.0,0.0
464,115.75,226.636,266.69,74.7084,99.3985,81.9798,0.0286004,3.41694,16.6007,-275.859,1.71196,0.0,0.0
468,116.75,227.927,268.306,82.561,99.4044,83.3697,0.0286841,3.41739,16.5945,-276.23,1.56311,0.0,0.0
472,117.75,228.465,269.246,73.201,99.4005,82.4305,0.0287644,3.42439,16.588,-276.62,1.66342,0.0,0.0
476,118.75,229.075,269.953,86.4743,99.4064,82.5734,0.0288248,3.43388,16.5774,-277.021,1.64856,0.0,0.0
480,119.75,228.696,270.33,78.9789,99.4052,82.4121,0.0289019,3.44298,16.568,-277.461,1.66583,0.0,0.0
484,120.75,230.519,271.821,74.5481,99.4056,82.0453,0.0289821,3.45193,16.5585,-277.851,1.70551,0.0,0.0
488,121.75,231.049,272.176,72.5712,99.3969,83.7893,0.0290605,3.46215,16.5476,-278.322,1.51782,0.0,0.0
492,122.75,231.732,273.267,78.4866,99.4052,84.4877,0.0291293,3.47726,16.5294,-278.652,1.44481,0.0,0.0
496,123.75,231.926,273.08,77.2089,99.4224,82.9873,0.0291846,3.49913,16.5028,-279.092,1.60556,0.0,0.0
500,124.75,232.735,274.741,79.7453,99.4096,82.3343,0.0292579,3.53639,16.471,-279.463,1.67461,0.0,0.0
504,125.75,233.592,275.732,81.8893,99.4116,83.7713,0.0293682,3.55895,16.4501,-279.873,1.52105,0.0,0.0
508,126.75,234.755,277.021,83.1258,99.4204,82.3024,0.0294885,3.56676,16.4332,-280.283,1.67902,0.0,0.0
512,127.75,235.044,277.271,77.8165,99.4188,82.4023,0.0295477,3.56884,16.4235,-280.644,1.6681,0.0,0.0
516,128.75,236.236,278.545,77.6806,99.4172,83.3729,0.0294985,3.57036,16.4186,-281.104,1.5639,0.0,0.0
520,129.75,236.604,279.343,75.4686,99.4228,83.1842,0.0293297,3.57058,16.4158,-281.494,1.58454,0.0,0.0
524,130.75,237.541,280.15,76.2907,99.4275,83.3398,0.0291207,3.56934,16.4137,-281.915,1.56836,0.0,0.0
528,131.75,237.509,280.699,83.8273,99.4216,83.4401,0.0288946,3.56731,16.4117,-282.295,1.55714,0.0,0.0
532,132.75,238.844,281.769,77.2532,99.4259,82.6373,0.0287219,3.56683,16.4104,-282.745,1.64344,0.0,0.0
536,133.75,239.25,282.447,77.1135,99.4319,82.5227,0.0286175,3.57203,16.4032,-283.086,1.65631,0.0,0.0
540,134.75,239.658,283.293,71.0287,99.4268,83.4585,0.0286487,3.58274,16.391,-283.536,1.55564,0.0,0.0
544,135.75,239.905,284.122,72.5346,99.4287,84.493,0.0287789,3.59218,16.3803,-283.987,1.44636,0.0,0.0
548,136.75,240.849,284.52,79.7208,99.4379,81.9315,0.0289706,3.60483,16.3656,-284.377,1.72072,0.0,0.0
552,137.75,241.273,285.825,76.6746,99.4311,83.8139,0.029198,3.62129,16.34375,-284.787,1.51828,0.0,0.0
556,138.75,241.618,286.343,68.3954,99.4299,82.4371,0.0294438,3.64005,16.324,-285.168,1.66535,0.0,0.0
560,139.75,242.682,286.772,80.059,99.4287,82.799,0.029651,3.65071,16.3113,-285.598,1.62632,0.0,0.0
564,140.75,243.188,288.237,77.4646,99.4291,82.7666,0.029924,3.65726,16.2984,-285.998,1.62983,0.0,0.0
568,141.75,243.758,288.972,79.8147,99.4371,80.7648,0.0302171,3.66527,16.2899,-286.429,1.8481,0.0,0.0
572,142.75,244.116,288.611,77.9729,99.4307,80.2809,0.0304828,3.67272,16.2822,-286.859,1.90093,0.0,0.0
576,143.75,244.418,289.068,74.4489,99.4403,81.7289,0.0306392,3.68698,16.2693,-287.279,1.74294,0.0,0.0
580,144.75,245.205,290.7,68.116,99.4427,83.4736,0.0306692,3.69887,16.2516,-287.74,1.55546,0.0,0.0
584,145.75,245.745,291.265,77.054,99.4483,82.6381,0.0305729,3.71285,16.2308,-288.12,1.64535,0.0,0.0
588,146.75,246.981,292.049,69.7952,99.4467,84.1757,0.0304015,3.73432,16.1991,-288.54,1.48139,0.0,0.0
592,147.75,247.018,292.742,67.4604,99.4495,83.3901,0.0302441,3.75482,16.1744,-288.871,1.56495,0.0,0.0
596,148.75,248.047,293.815,68.2702,99.4487,83.0577,0.0300732,3.77029,16.1575,-289.341,1.60038,0.0,0.0
600,149.75,248.739,294.767,68.084,99.4503,83.9547,0.0299436,3.78303,16.1463,-289.782,1.50507,0.0,0.0
604,150.75,249.141,295.381,77.1425,99.4566,82.799,0.029866,3.79246,16.1389,-290.172,1.62881,0.0,0.0
608,151.75,249.324,296.054,77.4959,99.453,83.0819,0.0298432,3.79608,16.136,-290.522,1.59818,0.0,0.0
612,152.75,249.943,296.658,84.5783,99.4534,82.7712,0.0298567,3.79009,16.1345,-291.033,1.63151,0.0,0.0
616,153.75,251.22,297.708,75.1916,99.4578,80.6907,0.0299146,3.7854,16.1336,-291.443,1.85811,0.0,0.0
620,154.75,251.752,298.363,71.5904,99.4558,83.9047,0.0299888,3.78852,16.133,-291.863,1.51086,0.0,0.0
624,155.75,251.806,298.355,69.8021,99.4582,82.1002,0.0301138,3.79294,16.1262,-292.344,1.70426,0.0,0.0
628,156.75,253.199,299.279,71.969,99.463,83.2665,0.0302386,3.81151,16.105,-292.664,1.57935,0.0,0.0
632,157.75,253.332,300.085,73.3879,99.4622,83.4565,0.0304009,3.84513,16.0692,-293.185,1.55903,0.0,0.0
636,158.75,253.863,300.999,61.2557,99.463,84.084,0.0305426,3.87757,16.0397,-293.585,1.49253,0.0,0.0
640,159.75,254.024,301.232,68.6083,99.4662,83.7676,0.030623,3.89917,16.0204,-294.005,1.52632,0.0,0.0
644,160.75,255.421,302.8,74.1176,99.4578,84.1676,0.030633,3.90659,16.0115,-294.356,1.48325,0.0,0.0
648,161.75,255.92,304.039,68.187,99.4666,85.3908,0.0306019,3.9042,16.0086,-294.886,1.35582,0.0,0.0
652,162.75,255.985,304.939,74.8763,99.4578,82.9341,0.0305806,3.89668,16.008,-295.196,1.61443,0.0,0.0
656,163.75,256.54,304.273,70.4715,99.4586,84.0542,0.0305925,3.89289,16.0075,-295.687,1.4953,0.0,0.0
660,164.75,257.531,305.768,67.2184,99.4758,82.5468,0.0306733,3.89355,16.0072,-296.087,1.65762,0.0,0.0
664,165.75,258.019,306.324,82.5572,99.467,82.7978,0.0308793,3.90848,15.9909,-296.577,1.62987,0.0,0.0
668,166.75,258.169,307.157,74.5955,99.4789,81.7751,0.0311491,3.94596,15.9468,-296.998,1.74137,0.0,0.0
672,167.75,259.056,307.698,69.3594,99.4642,82.1055,0.0313297,3.97696,15.9063,-297.418,1.70422,0.0,0.0
676,168.75,259.743,308.35,75.6992,99.4785,83.6059,0.031543,4.01905,15.8582,-297.899,1.54459,0.0,0.0
680,169.75,260.648,309.318,69.151,99.4762,84.0709,0.0316678,4.04695,15.8247,-298.199,1.49509,0.0,0.0
684,170.75,261.143,310.537,73.791,99.4722,84.2298,0.0317446,4.05826,15.8023,-298.759,1.47796,0.0,0.0
688,171.75,262.497,310.857,70.2715,99.4646,84.6997,0.0318507,4.06817,15.7895,-299.13,1.42785,0.0,0.0
692,172.75,262.787,311.78,66.6711,99.4833,82.5693,0.0320646,4.07216,15.7815,-299.63,1.65588,0.0,0.0
696,173.75,263.049,312.676,73.9818,99.4658,82.1972,0.0324181,4.06997,15.7745,-299.96,1.69445,0.0,0.0
700,174.75,263.938,313.039,81.1123,99.4754,83.9854,0.0328607,4.07883,15.7579,-300.471,1.50407,0.0,0.0
704,175.75,264.203,314.13,58.6621,99.4746,82.5988,0.0332819,4.10205,15.7376,-300.941,1.65192,0.0,0.0
708,176.75,264.653,314.81,72.7995,99.4694,81.9487,0.0336678,4.12433,15.727,-301.342,1.72167,0.0,0.0
712,177.75,266.103,315.584,71.956,99.4781,81.4697,0.0340633,4.13738,15.7172,-301.832,1.77454,0.0,0.0
716,178.75,266.653,316.665,70.2746,99.4765,83.0942,0.0342828,4.13643,15.7084,-302.272,1.59897,0.0,0.0
720,179.75,266.801,317.446,75.348,99.469,81.507,0.0342282,4.13566,15.7026,-302.723,1.76966,0.0,0.0
724,180.75,267.159,318.213,78.2554,99.4773,81.3047,0.0340516,4.13656,15.6988,-303.153,1.79248,0.0,0.0
728,181.75,267.848,318.929,71.6042,99.5068,82.2934,0.0339019,4.14164,15.6906,-303.574,1.68772,0.0,0.0
732,182.75,268.958,319.357,71.0325,99.4754,82.1968,0.0337409,4.15197,15.6775,-304.024,1.69535,0.0,0.0
736,183.75,268.83,320.233,72.011,99.4722,83.1875,0.0336227,4.16502,15.6616,-304.444,1.5886,0.0,0.0
740,184.75,268.917,320.299,73.6803,99.471,83.5105,0.0335623,4.17384,15.6472,-304.925,1.55406,0.0,0.0
744,185.75,270.092,321.032,66.1933,99.4758,82.713,0.0335659,4.1883,15.6262,-305.365,1.63975,0.0,0.0
748,186.75,270.64,322.33,71.002,99.475,81.8312,0.0336272,4.20712,15.6016,-305.826,1.73492,0.0,0.0
752,187.75,271.772,322.502,75.0801,99.4797,81.2343,0.0336902,4.22472,15.5811,-306.256,1.8004,0.0,0.0
756,188.75,271.843,323.372,55.1106,99.4861,83.8159,0.0337818,4.24369,15.5613,-306.686,1.52298,0.0,0.0
760,189.75,272.373,323.764,65.1545,99.4821,82.3204,0.0338502,4.26544,15.5441,-307.197,1.6826,0.0,0.0
764,190.75,272.983,325.006,70.3837,99.4837,85.0105,0.0338646,4.28427,15.5312,-307.517,1.39701,0.0,0.0
768,191.75,273.171,325.282,64.4813,99.4889,85.4772,0.0338151,4.30268,15.5227,-307.967,1.34883,0.0,0.0
772,192.75,274.298,326.578,68.9052,99.4801,83.8904,0.0337536,4.30215,15.5171,-308.508,1.51455,0.0,0.0
776,193.75,275.097,327.975,62.967,99.4857,82.135,0.0337388,4.29022,15.5193,-308.938,1.70296,0.0,0.0
780,194.75,275.593,328.279,67.339,99.4817,82.2439,0.0338706,4.27518,15.5213,-309.339,1.69083,0.0,0.0
784,195.75,275.927,328.833,66.1712,99.4865,80.3161,0.0341061,4.27198,15.5226,-309.789,1.90201,0.0,0.0
788,196.75,276.453,329.744,70.2074,99.4853,80.0447,0.0343685,4.28093,15.5167,-310.279,1.93199,0.0,0.0
792,197.75,276.782,329.295,68.719,99.4789,82.1313,0.0345901,4.29547,15.4965,-310.7,1.70275,0.0,0.0
796,198.75,276.454,330.059,74.3169,99.4833,80.8483,0.0347108,4.30805,15.4832,-311.2,1.84304,0.0,0.0
800,199.75,277.961,330.874,66.8154,99.4941,83.7803,0.0347134,4.31585,15.4745,-311.591,1.52747,0.0,0.0
804,200.75,278.281,331.383,68.1694,99.5056,80.8745,0.0346145,4.31765,15.4744,-312.021,1.84216,0.0,0.0
808,201.75,278.395,332.206,74.2985,99.4833,81.229,0.0344451,4.31393,15.4743,-312.481,1.8013,0.0,0.0
812,202.75,278.604,332.148,64.3721,99.4857,81.3707,0.0342778,4.31274,15.4742,-312.972,1.78603,0.0,0.0
816,203.75,279.614,333.269,72.3781,99.4889,79.6463,0.0341451,4.31852,15.4667,-313.472,1.97664,0.0,0.0
820,204.75,279.857,333.689,73.8581,99.4897,79.9562,0.0341142,4.33786,15.4389,-313.953,1.9422,0.0,0.0
824,205.75,280.004,334.26,78.8316,99.4933,82.503,0.0342267,4.36552,15.4028,-314.333,1.66391,0.0,0.0
828,206.75,280.451,334.895,70.7608,99.4977,80.9646,0.0344897,4.39521,15.3657,-314.803,1.83156,0.0,0.0
832,207.75,281.005,335.514,66.001,99.4973,80.2072,0.0348369,4.42095,15.338,-315.264,1.91503,0.0,0.0
836,208.75,282.285,336.258,67.5107,99.5009,83.0037,0.0351918,4.43767,15.319,-315.704,1.61082,0.0,0.0
840,209.75,282.488,337.298,69.4678,99.4925,82.8903,0.0354574,4.44843,15.3062,-316.174,1.62222,0.0,0.0
844,210.75,283.068,337.04,70.5295,99.4977,80.9404,0.0356517,4.45854,15.2952,-316.625,1.83421,0.0,0.0
848,211.75,283.765,338.249,63.4944,99.5001,83.5846,0.0357083,4.46793,15.2868,-317.055,1.54878,0.0,0.0
852,212.75,283.736,339.201,66.9711,99.4973,80.4475,0.0356716,4.47453,15.2821,-317.536,1.88845,0.0,0.0
856,213.75,284.694,340.156,65.7644,99.4893,82.5665,0.0355843,4.4749,15.2851,-317.986,1.65672,0.0,0.0
860,214.75,285.492,339.834,76.6677,99.5001,82.3908,0.0354614,4.4655,15.2921,-318.436,1.6766,0.0,0.0
864,215.75,286.176,340.397,69.6418,99.4985,82.7102,0.0353213,4.45042,15.2967,-318.937,1.64208,0.0,0.0
868,216.75,285.197,341.216,62.0579,99.4965,84.0636,0.0351927,4.44567,15.2998,-319.347,1.49768,0.0,0.0
872,217.75,285.638,340.573,76.3281,99.4969,82.557,0.0350187,4.45754,15.2885,-319.828,1.65841,0.0,0.0
876,218.75,286.459,342.352,58.1453,99.5028,83.5973,0.0348508,4.47694,15.2751,-320.298,1.54768,0.0,0.0
880,219.75,287.02,342.44,70.9355,99.5009,82.4449,0.0347586,4.48795,15.2619,-320.738,1.67084,0.0,0.0
884,220.75,288.126,342.657,77.3524,99.4921,82.3556,0.0347787,4.49592,15.2497,-321.159,1.67969,0.0,0.0
888,221.75,287.203,343.709,67.816,99.4993,83.6763,0.0349025,4.50491,15.2344,-321.699,1.53896,0.0,0.0
892,222.75,288.806,344.744,71.2706,99.5084,83.723,0.0350845,4.51985,15.2146,-322.12,1.53483,0.0,0.0
896,223.75,288.842,344.737,65.3522,99.5024,82.5787,0.0352742,4.53646,15.1971,-322.57,1.65657,0.0,0.0
900,224.75,289.273,345.651,72.0759,99.4941,82.4465,0.0354606,4.55089,15.1834,-323.111,1.67006,0.0,0.0
904,225.75,289.638,346.063,60.0299,99.4993,84.1954,0.0356673,4.56084,15.172,-323.521,1.48401,0.0,0.0
908,226.75,290.455,346.789,64.6378,99.4969,81.8558,0.0359155,4.56659,15.1645,-324.031,1.73421,0.0,0.0
912,227.75,290.86,346.711,74.958,99.5204,83.007,0.0362135,4.57983,15.1428,-324.462,1.61221,0.0,0.0
916,228.75,291.267,348.185,64.3554,99.5064,82.1915,0.0364585,4.60393,15.1128,-324.882,1.6987,0.0,0.0
920,229.75,291.699,348.764,60.5436,99.5024,83.7938,0.0368379,4.63254,15.0762,-325.413,1.52678,0.0,0.0
924,230.75,292.57,349.811,66.204,99.504,83.382,0.0371828,4.65708,15.0467,-325.873,1.5707,0.0,0.0
928,231.75,293.656,350.129,59.1407,99.4965,82.9501,0.0374881,4.67165,15.0248,-326.303,1.61617,0.0,0.0
932,232.75,293.952,351.482,72.9079,99.4913,82.1894,0.0377907,4.68655,15.0089,-326.804,1.69757,0.0,0.0
936,233.75,294.784,351.89,63.3226,99.5013,81.3002,0.038013,4.69823,14.996,-327.314,1.79511,0.0,0.0
940,234.75,294.96,353.004,73.5368,99.4997,82.7503,0.0384193,4.71549,14.9792,-327.795,1.63788,0.0,0.0
944,235.75,295.373,353.717,62.4533,99.4985,81.8197,0.0388712,4.74235,14.9454,-328.305,1.73826,0.0,0.0
948,236.75,296.184,354.245,69.9418,99.4965,80.5724,0.0393693,4.77371,14.9053,-328.765,1.8746,0.0,0.0
952,237.75,296.7,355.051,72.6598,99.4977,82.7151,0.039786,4.81331,14.8623,-329.246,1.64149,0.0,0.0
956,238.75,297.549,355.767,70.054,99.5016,80.1986,0.0401787,4.85529,14.8112,-329.706,1.91637,0.0,0.0
960,239.75,298.014,356.952,66.0567,99.5108,82.243,0.0405408,4.8906,14.7537,-330.247,1.69351,0.0,0.0
964,240.75,298.751,356.973,59.8932,99.4969,82.5648,0.0409388,4.93985,14.6962,-330.737,1.65757,0.0,0.0
968,241.75,298.859,358.627,65.6972,99.5013,81.6433,0.041373,4.98563,14.6337,-331.248,1.75769,0.0,0.0
972,242.75,300.182,359.8,60.9992,99.4985,82.1902,0.0419446,5.03144,14.5704,-331.758,1.69812,0.0,0.0
976,243.75,300.571,360.591,58.6056,99.5048,81.0219,0.0425021,5.08187,14.5018,-332.238,1.82591,0.0,0.0
980,244.75,301.895,361.657,72.1957,99.4929,81.6175,0.0430797,5.14135,14.4255,-332.749,1.75975,0.0,0.0
984,245.75,302.356,362.713,60.4726,99.4973,83.5236,0.0436018,5.22414,14.3307,-333.269,1.55502,0.0,0.0
988,246.75,303.648,363.814,67.3253,99.4993,84.2261,0.0440207,5.29286,14.2484,-333.79,1.48077,0.0,0.0
992,247.75,305.103,365.306,62.8784,99.4997,83.6218,0.0444228,5.35522,14.1823,-334.42,1.54478,0.0,0.0
996,248.75,305.763,367.438,63.3959,99.4913,79.4552,0.0448971,5.39438,14.1332,-334.861,1.9982,0.0,0.0
1000,249.75,306.189,368.625,70.3066,99.4993,80.8581,0.0454647,5.42017,14.0932,-335.371,1.84339,0.0,0.0
1004,250.75,307.003,369.171,70.8004,99.4949,80.357,0.0459514,5.44898,14.0619,-335.942,1.89823,0.0,0.0
1008,251.75,307.736,370.575,76.1144,99.4909,79.397,0.0465028,5.47399,14.0414,-336.462,2.00467,0.0,0.0
1012,252.75,308.568,371.034,72.6231,99.4957,79.5723,0.0468944,5.48603,14.0279,-336.973,1.98551,0.0,0.0
1016,253.75,308.657,371.804,69.999,99.4981,79.4048,0.047055,5.48115,14.0195,-337.533,2.00444,0.0,0.0
1020,254.75,309.278,372.838,62.1991,99.4925,82.7662,0.0469561,5.47664,14.0231,-338.043,1.63553,0.0,0.0
1024,255.75,310.056,373.307,59.0758,99.4889,80.2367,0.0466934,5.47461,14.0345,-338.554,1.91102,0.0,0.0
1028,256.75,309.476,373.128,71.1279,99.4857,80.0525,0.0464805,5.46549,14.0465,-338.864,1.93116,0.0,0.0
1032,257.75,311.164,375.054,71.108,99.4913,80.7578,0.0460916,5.42606,14.0805,-339.535,1.8537,0.0,0.0
1036,258.75,311.913,375.189,64.2325,99.4897,77.1364,0.045651,5.37966,14.1274,-339.955,2.26123,0.0,0.0
1040,259.75,311.843,375.838,67.7138,99.4925,78.1439,0.0450769,5.30501,14.1887,-340.446,2.14618,0.0,0.0
1044,260.75,311.418,375.73,77.1395,99.4865,77.4541,0.0444244,5.22202,14.3004,-340.846,2.22443,0.0,0.0
1048,261.75,311.955,376.066,70.1692,99.4917,79.0646,0.0434766,5.11363,14.5125,-341.276,2.04202,0.0,0.0
1052,262.75,311.488,375.874,73.8856,99.4865,81.4243,0.0425555,4.9642,14.7009,-341.747,1.78025,0.0,0.0
1056,263.75,311.323,375.461,72.1026,99.4957,80.1204,0.0412399,4.78868,14.9305,-342.067,1.92451,0.0,0.0
1060,264.75,309.527,373.741,75.2839,99.4829,77.2359,0.0398662,4.58199,15.2047,-342.467,2.24918,0.0,0.0
1064,265.75,309.804,373.282,75.113,99.4897,79.2574,0.038036,4.34757,15.4857,-342.838,2.0202,0.0,0.0
1068,266.75,308.561,372.032,81.9595,99.4897,80.2223,0.035625,4.08395,15.7915,-343.108,1.91268,0.0,0.0
1072,267.75,307.504,369.518,82.3183,99.4861,79.5935,0.0333803,3.81601,16.1098,-343.428,1.98228,0.0,0.0
1076,268.75,305.158,368.181,81.1978,99.4841,80.1961,0.0307881,3.5416,16.4785,-343.668,1.91508,0.0,0.0
1080,269.75,303.63,364.883,83.8494,99.4993,78.7654,0.0283334,3.22781,16.9159,-343.909,2.0764,0.0,0.0
1084,270.75,300.918,361.849,93.8201,99.4861,80.54,0.0257708,2.93253,17.3267,-344.059,1.87724,0.0,0.0
1088,271.75,297.678,358.399,101.043,99.4905,84.4992,0.0234457,2.57281,17.805,-344.229,1.45123,0.0,0.0
1092,272.75,294.551,353.878,107.534,99.4885,85.3855,0.0207807,2.24531,18.2483,-344.279,1.35833,0.0,0.0
1096,273.75,290.954,349.751,114.49,99.4833,88.7019,0.0184057,1.91189,18.654,-344.369,1.01928,0.0,0.0
1100,274.75,286.78,344.69,115.31,99.4817,92.2975,0.0163027,1.61266,19.053,-344.359,0.666054,0.0,0.0
1104,275.75,282.368,339.023,121.344,99.4849,96.4993,0.0145348,1.37164,19.4366,-344.399,0.270747,0.0,0.0
1108,276.75,277.773,333.63,121.67,99.4821,97.5138,0.0130844,1.10516,19.7996,-344.409,0.177574,0.0,0.0
1112,277.75,272.663,327.773,121.779,99.4821,98.5389,0.0121731,0.886466,20.0115,-344.389,0.0846523,0.0,0.0
1116,278.75,267.754,321.942,122.402,99.4885,99.0498,0.0112069,0.711771,20.2337,-344.409,0.0392701,0.0,0.0
1120,279.75,262.619,316.154,127.348,99.4738,99.4498,0.0104258,0.573366,20.3882,-344.399,0.00214475,0.0,0.0
1124,280.75,258.919,310.718,130.803,99.4742,99.5627,0.00982414,0.491569,20.5147,-344.399,-0.00790934,0.0,0.0
1128,281.75,254.133,305.16,128.762,99.4793,99.3085,0.00929699,0.401727,20.612,-344.409,0.015271,0.0,0.0
1132,282.75,249.376,299.335,127.843,99.4742,99.6434,0.00883354,0.33897,20.6937,-344.399,-0.0151047,0.0,0.0
1136,283.75,245.391,294.128,128.748,99.4765,99.3716,0.00841391,0.283453,20.7581,-344.419,0.0093833,0.0,0.0
1140,284.75,240.929,289.029,129.367,99.4726,99.5365,0.00794292,0.241562,20.8115,-344.409,-0.00571339,0.0,0.0
1144,285.75,237.36,284.11,127.157,99.4726,99.252,0.00751242,0.210473,20.8505,-344.429,0.0197228,0.0,0.0
1148,286.75,233.16,279.172,127.119,99.4678,99.2377,0.00704933,0.187034,20.8783,-344.429,0.0205788,0.0,0.0
1152,287.75,228.93,274.292,130.755,99.469,99.2925,0.00656799,0.168435,20.9005,-344.379,0.0157743,0.0,0.0
1156,288.75,225.507,270.298,126.304,99.4606,99.5394,0.0060977,0.153529,20.9181,-344.389,-0.0070363,0.0,0.0
1160,289.75,222.387,266.041,129.359,99.4658,99.2144,0.00567251,0.141841,20.9326,-344.409,0.0224894,0.0,0.0
1164,290.75,218.837,261.665,132.607,99.4638,99.625,0.00528832,0.131904,20.9443,-344.419,-0.0143869,0.0,0.0
1168,291.75,215.525,257.384,127.576,99.4618,99.313,0.00493867,0.12421,20.9541,-344.379,0.0133029,0.0,0.0
1172,292.75,211.388,252.22,129.97,99.4642,99.4809,0.00464636,0.117434,20.9615,-344.409,-0.00148839,0.0,0.0
1176,293.75,208.954,249.32,129.615,99.4666,99.3871,0.00435062,0.111614,20.9688,-344.419,0.00710271,0.0,0.0
1180,294.75,205.729,245.513,129.17,99.4522,99.3982,0.00398821,0.106498,20.9736,-344.409,0.00483317,0.0,0.0
1184,295.75,203.314,241.785,125.785,99.4654,99.2786,0.00363199,0.102004,20.978,-344.409,0.0166995,0.0,0.0
1188,296.75,199.815,237.491,132.917,99.4519,99.3998,0.00326934,0.0980217,20.9825,-344.439,0.00465107,0.0,0.0
1192,297.75,197.598,234.256,128.023,99.4526,99.7134,0.00295649,0.0945022,20.9864,-344.419,-0.0232665,0.0,0.0
1196,298.75,194.726,231.159,129.674,99.4519,99.3597,0.00269179,0.0911957,20.9903,-344.399,0.00823832,0.0,0.0
1200,299.75,192.56,228.127,132.653,99.467,99.2381,0.00246104,0.0882583,20.9938,-344.419,0.02047,0.0,0.0
1204,300.75,189.065,224.111,130.168,99.4491,99.41,0.00222095,0.0853908,20.9971,-344.429,0.00348641,0.0,0.0
1208,301.75,187.203,221.607,127.917,99.4598,99.2221,0.00201055,0.0831884,21.0001,-344.419,0.0212594,0.0,0.0
1212,302.75,184.863,217.832,130.015,99.4415,99.5173,0.0018274,0.0807801,21.0021,-344.449,-0.00677181,0.0,0.0
1216,303.75,182.254,215.26,125.936,99.4515,99.2054,0.00166752,0.0786167,21.0018,-344.409,0.022016,0.0,0.0
1220,304.75,180.515,211.945,128.635,99.4483,99.663,0.00153621,0.0766129,21.0005,-344.449,-0.0191695,0.0,0.0
1224,305.75,177.749,209.487,128.808,99.4351,99.1464,0.00140709,0.0751832,21.0005,-344.419,0.0258381,0.0,0.0
1228,306.75,175.698,206.62,131.937,99.4455,99.2049,0.00129788,0.0734322,21.001,-344.439,0.0215183,0.0,0.0
1232,307.75,174.469,203.394,131.792,99.4447,99.4109,0.00114535,0.0717911,21.0026,-344.429,0.00302157,0.0,0.0
1236,308.75,171.823,201.301,127.057,99.4403,98.9086,0.00100158,0.0702224,21.0046,-344.439,0.0476428,0.0,0.0
1240,309.75,169.665,197.994,127.318,99.4339,99.2279,0.000900378,0.0687863,21.0061,-344.419,0.0184333,0.0,0.0
1244,310.75,167.943,195.592,130.323,99.4343,99.566,0.000857938,0.0675174,21.0071,-344.479,-0.0117614,0.0,0.0
1248,311.75,166.042,193.26,130.74,99.4319,99.3339,0.000862862,0.0663461,21.0082,-344.469,0.00876533,0.0,0.0
1252,312.75,163.833,190.966,130.214,99.4463,99.3425,0.00087304,0.0653314,21.0097,-344.419,0.00927749,0.0,0.0
1256,313.75,162.217,188.954,132.246,99.4248,99.2917,0.000861298,0.0643157,21.011,-344.469,0.0118971,0.0,0.0
1260,314.75,160.309,185.83,127.658,99.4275,99.4563,0.000808669,0.0634039,21.0127,-344.439,-0.00257015,0.0,0.0
1264,315.75,158.871,183.94,133.003,99.424,99.1489,0.000732672,0.0626317,21.0138,-344.429,0.0246202,0.0,0.0
1268,316.75,156.968,181.781,133.242,99.4204,98.9847,0.000680628,0.0618062,21.0152,-344.409,0.0390243,0.0,0.0
1272,317.75,155.888,179.82,132.188,99.4204,99.218,0.000674851,0.0610713,21.0162,-344.429,0.0181013,0.0,0.0
1276,318.75,154.224,177.325,131.853,99.4311,98.8443,0.000695074,0.0604153,21.0169,-344.429,0.0525996,0.0,0.0
1280,319.75,152.863,174.918,127.562,99.4204,99.4322,0.000703976,0.059832,21.018,-344.429,-0.00105297,0.0,0.0
1284,320.75,151.04,173.265,133.264,99.422,99.5722,0.000686905,0.0592836,21.0189,-344.449,-0.013413,0.0,0.0
1288,321.75,150.066,171.037,133.893,99.4224,99.2815,0.000651119,0.0587168,21.0194,-344.449,0.0125984,0.0,0.0
1292,322.75,148.088,169.647,134.571,99.4208,99.3335,0.000626374,0.0582572,21.02,-344.479,0.00780441,0.0,0.0
1296,323.75,146.821,167.18,132.359,99.4092,99.3138,0.000625124,0.0578577,21.021,-344.479,0.00852934,0.0,0.0
1300,324.75,145.488,165.501,127.019,99.4072,99.2004,0.00064613,0.0574486,21.0216,-344.479,0.018503,0.0,0.0
1304,325.75,144.117,164.261,131.238,99.4216,99.1824,0.000669681,0.0570578,21.0221,-344.469,0.0213989,0.0,0.0
1308,326.75,143.454,162.399,131.653,99.4176,98.9655,0.000688573,0.0567524,21.0211,-344.459,0.0405028,0.0,0.0
1312,327.75,142.113,160.014,129.134,99.404,99.1517,0.000689835,0.0564786,21.0196,-344.449,0.0225834,0.0,0.0
1316,328.75,139.867,157.957,131.842,99.4124,99.1566,0.00064793,0.0562989,21.0186,-344.419,0.0228909,0.0,0.0
1320,329.75,139.483,156.976,130.47,99.406,99.3724,0.00058795,0.0558873,21.0179,-344.429,0.00300886,0.0,0.0
1324,330.75,138.143,155.671,134.177,99.4013,98.9994,0.000481036,0.0555401,21.0175,-344.449,0.0359928,0.0,0.0
1328,331.75,136.38,153.333,128.382,99.4048,99.0334,0.000369709,0.0552145,21.0176,-344.449,0.0332632,0.0,0.0
1332,332.75,135.694,152.429,131.392,99.3961,99.0928,0.0002513,0.0549936,21.0181,-344.489,0.0271551,0.0,0.0
1336,333.75,134.612,151.225,129.522,99.3981,98.7317,0.00015239,0.0548169,21.0184,-344.459,0.0597709,0.0,0.0
1340,334.75,133.688,149.036,132.091,99.3945,99.017,0.000108303,0.0545826,21.0188,-344.479,0.0338067,0.0,0.0
1344,335.75,132.269,147.486,130.939,99.3913,98.5823,0.000144561,0.0543586,21.0196,-344.459,0.0726232,0.0,0.0
1348,336.75,131.331,146.498,134.661,99.3885,99.1198,0.00023962,0.054125,21.0202,-344.479,0.0240561,0.0,0.0
1352,337.75,130.548,145.119,129.486,99.408,99.2524,0.000404556,0.0538738,21.0205,-344.449,0.0139184,0.0,0.0
1356,338.75,129.649,144.26,131.969,99.3813,98.839,0.000563682,0.0536897,21.0216,-344.439,0.0486268,0.0,0.0
1360,339.75,128.077,141.571,132.534,99.3889,99.0973,0.000671308,0.053506,21.0223,-344.459,0.0261106,0.0,0.0
1364,340.75,127.936,141.324,135.529,99.3785,98.3088,0.000723327,0.0533563,21.0227,-344.479,0.0961663,0.0,0.0
1368,341.75,126.69,139.649,131.395,99.3837,98.5966,0.00069716,0.0532337,21.023,-344.449,0.0706552,0.0,0.0
1372,342.75,125.693,138.757,134.257,99.3762,98.8647,0.000605859,0.0531153,21.0232,-344.479,0.0458451,0.0,0.0
1376,343.75,125.252,137.305,131.703,99.3809,98.527,0.000514632,0.0530015,21.0233,-344.469,0.076681,0.0,0.0
1380,344.75,124.406,136.366,131.759,99.3746,98.43,0.000450817,0.0528921,21.0234,-344.489,0.0848643,0.0,0.0
1384,345.75,123.389,135.416,131.946,99.3785,98.7902,0.000420454,0.0527715,21.0234,-344.469,0.0527586,0.0,0.0
1388,346.75,122.601,134.054,133.839,99.3849,98.6678,0.000432397,0.0526153,21.0235,-344.429,0.0643445,0.0,0.0
1392,347.75,121.7,132.676,133.218,99.3722,98.3854,0.00047271,0.0525691,21.0235,-344.459,0.0886804,0.0,0.0
1396,348.75,120.826,131.926,132.259,99.3722,98.9343,0.00052667,0.052521,21.0235,-344.429,0.0392363,0.0,0.0
1400,349.75,119.445,130.485,131.079,99.361,98.414,0.00058217,0.0523442,21.0235,-344.449,0.0850951,0.0,0.0
1404,350.75,119.269,129.375,133.5,99.3574,98.3899,0.000652729,0.052219,21.0234,-344.449,0.086955,0.0,0.0
1408,351.75,118.82,128.245,135.094,99.3586,98.6801,0.000705498,0.0521587,21.0234,-344.449,0.0608872,0.0,0.0
1412,352.75,117.927,127.42,131.312,99.3546,98.4836,0.000733211,0.0521192,21.0233,-344.489,0.0782434,0.0,0.0
1416,353.75,116.973,127.006,134.377,99.3499,98.6756,0.000731242,0.0520739,21.0233,-344.489,0.0605095,0.0,0.0
1420,354.75,116.276,125.532,134.506,99.3423,98.5057,0.000721156,0.0519428,21.0233,-344.489,0.0751444,0.0,0.0
1424,355.75,115.826,124.324,132.71,99.3439,98.7104,0.000646896,0.051773,21.0239,-344.489,0.0568412,0.0,0.0
1428,356.75,115.151,123.578,133.4,99.3526,98.2973,0.000572426,0.0516461,21.0243,-344.489,0.0948868,0.0,0.0
1432,357.75,114.89,122.81,133.407,99.3467,98.2564,0.000476061,0.0516014,21.0248,-344.469,0.0980544,0.0,0.0
1436,358.75,113.584,121.396,133.729,99.3483,98.3469,0.000391717,0.0515554,21.025,-344.439,0.0900195,0.0,0.0
1440,359.75,113.407,121.306,133.656,99.3419,98.4652,0.000324106,0.0515144,21.0252,-344.489,0.0787653,0.0,0.0
1444,360.75,112.419,119.628,134.1,99.3359,98.7174,0.000287064,0.051448,21.0253,-344.479,0.0555034,0.0,0.0
1448,361.75,111.859,118.963,133.797,99.3347,98.3088,0.000270556,0.0513351,21.0254,-344.479,0.0922475,0.0,0.0
1452,362.75,111.23,118.479,134.671,99.3399,98.3473,0.000316373,0.051261,21.0255,-344.459,0.0892331,0.0,0.0
1456,363.75,110.485,117.204,135.187,99.3315,98.6068,0.000396587,0.0512613,21.0255,-344.469,0.0650659,0.0,0.0
1460,364.75,110.271,116.751,134.621,99.3307,98.2941,0.00049504,0.0512126,21.0255,-344.459,0.0932235,0.0,0.0
1464,365.75,108.544,115.406,135.345,99.322,98.3064,0.000590202,0.0511537,21.0255,-344.439,0.0913291,0.0,0.0
1468,366.75,108.952,114.805,135.025,99.3287,98.107,0.000670113,0.0510661,21.0255,-344.459,0.109974,0.0,0.0
1472,367.75,108.2,113.836,136.185,99.3184,97.9829,0.000733466,0.0510273,21.0255,-344.469,0.120289,0.0,0.0
1476,368.75,107.653,113.066,131.346,99.3212,98.527,0.000761139,0.0510212,21.0255,-344.469,0.0713351,0.0,0.0
1480,369.75,106.684,112.798,130.921,99.3327,98.4681,0.000772536,0.0509522,21.0255,-344.469,0.077687,0.0,0.0
1484,370.75,106.936,112.009,138.559,99.3136,97.9109,0.000772267,0.0508632,21.0255,-344.479,0.126398,0.0,0.0
1488,371.75,105.879,110.733,133.145,99.3268,98.38,0.000754884,0.050875,21.0255,-344.459,0.0850982,0.0,0.0
1492,372.75,105.849,110.789,131.562,99.3176,98.3813,0.000720762,0.0508858,21.0258,-344.439,0.0841676,0.0,0.0
1496,373.75,105.256,109.949,133.213,99.3124,97.7447,0.000662029,0.0508352,21.0254,-344.469,0.141388,0.0,0.0
1500,374.75,104.67,109.473,134.635,99.3088,97.8761,0.000579425,0.0507865,21.0257,-344.479,0.129129,0.0,0.0
1504,375.75,104.169,108.028,133.541,99.3252,97.9637,0.000503766,0.0506567,21.026,-344.469,0.12264,0.0,0.0
1508,376.75,103.997,107.706,133.308,99.312,97.9977,0.000399669,0.0506205,21.0262,-344.459,0.118383,0.0,0.0
1512,377.75,103.224,106.616,134.254,99.3172,97.8622,0.00033137,0.0506456,21.0263,-344.459,0.131141,0.0,0.0
1516,378.75,102.867,105.94,135.193,99.304,97.9772,0.000317453,0.050585,21.0264,-344.449,0.119525,0.0,0.0
1520,379.75,101.971,106.008,131.285,99.2985,97.6051,0.000373321,0.0505246,21.0264,-344.459,0.15284,0.0,0.0
1524,380.75,101.917,104.724,137.103,99.3112,97.5961,0.000478533,0.0504849,21.0265,-344.479,0.154801,0.0,0.0
1528,381.75,101.38,104.664,134.73,99.3005,97.7017,0.000596326,0.050466,21.0265,-344.499,0.144226,0.0,0.0
1532,382.75,100.672,104.493,135.88,99.3136,97.935,0.000682869,0.0504638,21.0265,-344.489,0.124207,0.0,0.0
1536,383.75,100.286,103.255,132.477,99.3216,97.5691,0.000761503,0.050438,21.0265,-344.519,0.158188,0.0,0.0
1540,384.75,100.184,102.564,137.945,99.3104,97.5445,0.000804352,0.0504037,21.0265,-344.509,0.159426,0.0,0.0
1544,385.75,99.9218,102.169,133.788,99.3036,97.8135,0.00080391,0.0503812,21.0265,-344.469,0.134353,0.0,0.0
1548,386.75,99.0718,101.615,135.07,99.31,97.8847,0.000781934,0.0503471,21.0265,-344.469,0.128455,0.0,0.0
1552,387.75,99.1254,101.506,136.081,99.306,97.3451,0.000715131,0.0503197,21.0265,-344.489,0.177215,0.0,0.0
1556,388.75,98.4083,100.374,136.176,99.304,98.1299,0.000629859,0.0503401,21.0265,-344.459,0.105687,0.0,0.0
1560,389.75,98.3144,99.9196,136.27,99.3064,97.1007,0.000561236,0.0503446,21.0259,-344.469,0.199588,0.0,0.0
1564,390.75,96.8614,98.6712,135.266,99.3287,97.4266,,0.0503154,,-344.459,0.171813,0.0,0.0
1568,391.75,97.366,98.594,131.945,99.3064,97.9604,,0.0502815,,-344.449,0.121262,0.0,0.0
1572,392.75,96.7084,98.497,133.009,99.2989,97.5465,,0.0502766,,-344.459,0.158207,0.0,0.0
1576,393.75,96.0133,96.745,138.282,99.3152,97.3324,,,,-344.469,0.179193,0.0,0.0
1580,394.75,96.1908,97.1201,135.974,99.3032,97.951,,,,-344.459,0.12183,0.0,0.0
1584,395.75,95.8485,96.8985,136.862,99.2981,97.8978,,,,-344.469,0.126197,0.0,0.0
1588,396.75,95.3272,96.3712,134.313,99.3172,97.7332,,,,-344.459,0.142858,0.0,0.0
1592,397.75,94.4341,95.2243,134.737,99.3048,97.3046,,,,-344.479,0.180809,0.0,0.0
1596,398.75,94.576,95.537,136.271,99.2929,97.5343,,,,-344.489,0.158791,0.0,0.0
1600,399.75,94.1952,95.2548,137.319,99.3001,97.3603,,,,-344.459,0.175296,0.0,0.0
1604,400.75,94.3831,94.4464,136.521,99.2981,97.2907,,,,-344.479,0.181473,0.0,0.0
1605,401,93.6105,94.595,136.933,99.2941,97.0921,,,,-344.449,0.19927,0.0,0.0