File: 01_Data/Black_PMMA/Cone/Black_PMMA_Cone_HF75Scan_220315_R3.csv
Names,Time,Stack TC,Smoke TC,Exh Press,Smoke Comp,Smoke Meas,CO Meter,CO2 Meter,O2 Meter,Sample Mass,Ext Coeff,Start Test,Flame Verif
Chan Gain,,500,500,1,1,1,1,1,1,1,1,1.0,1.0
Offset,,0,0,0.132973,0,0,0,0,0,0,0,0.0,0.0
Gain,,1,1,25.011,13.0548,13.4146,1,1,1,1.00087,1.01298,1.0,1.0
Units,sec,C,C,Pa,%,%,%,%,%,g,/m,,
Baseline,,54.8734,54.0266,142.736,98.9834,93.4208,0.000329859,0.0466014,21.0257,-833.677,0.513958,,
4,0.75,50.3972,49.9878,145.581,98.8809,93.3176,0.000275934,0.0523032,21.0191,-243.852,0.51455,0.0,0.0
8,1.75,50.4743,50.096,138.821,98.9355,93.3553,0.000263657,0.0521339,21.0192,-243.852,0.51587,0.0,0.0
12,2.75,50.5981,49.8029,146.983,98.9714,93.2493,0.000295211,0.0522081,21.0193,-243.952,0.529186,0.0,0.0
16,3.75,50.366,50.1251,140.699,99.0331,93.49,0.000371301,0.0525009,21.0193,-243.932,0.511821,0.0,0.0
20,4.75,50.7826,50.0008,143.486,99.0929,93.5931,0.000460019,0.0528572,21.0192,-243.952,0.507381,0.0,0.0
24,5.75,50.0677,49.4972,143.518,99.1463,93.5477,0.00053477,0.0535068,21.0185,-243.982,0.516483,0.0,0.0
28,6.75,50.1899,49.878,143.167,99.2001,93.4216,0.000592547,0.0542757,21.0173,-243.952,0.533286,0.0,0.0
32,7.75,50.2297,49.8514,141.148,99.2718,93.6873,0.000634361,0.0548305,21.0159,-243.952,0.514473,0.0,0.0
36,8.75,50.5868,50.3519,144.859,99.2909,93.2902,0.000705477,0.0549987,21.0134,-243.962,0.553927,0.0,0.0
40,9.75,50.2154,49.2976,144.595,99.3375,93.542,0.000854902,0.0550845,21.0106,-243.982,0.534149,0.0,0.0
44,10.75,50.3488,50.374,145.613,99.3738,93.7737,0.00115456,0.0605243,21.0027,-244.002,0.515408,0.0,0.0
48,11.75,49.9342,49.4552,139.142,99.3917,95.055,0.0016173,0.0840697,20.964,-244.122,0.396415,0.0,0.0
52,12.75,50.6164,50.3962,122.151,99.4283,95.177,0.00248096,0.146081,20.8761,-244.242,0.388294,0.0,1.0
56,13.75,50.3593,50.2529,116.369,99.4491,92.5529,0.00288184,0.256573,20.7869,-244.262,0.638575,0.0,1.0
60,14.75,51.6166,51.2045,104.414,99.4646,91.4353,0.00422762,0.392602,20.6198,-244.672,0.747916,0.0,1.0
64,15.75,52.8916,52.3499,109.38,99.4993,89.2639,0.00550081,0.579317,20.4168,-244.813,0.964572,0.0,1.0
68,16.75,55.2014,54.3776,97.7715,99.4913,88.4439,0.00693737,0.737131,20.1928,-245.113,1.04586,0.0,1.0
72,17.75,57.7756,56.8189,101.886,99.5048,87.915,0.00846962,0.90599,19.9006,-245.373,1.10037,0.0,1.0
76,18.75,60.6954,59.8986,98.2677,99.5168,86.3663,0.00987032,1.07255,19.6098,-245.633,1.25936,0.0,1.0
80,19.75,63.9368,63.3318,94.059,99.52,87.5928,0.0111481,1.24086,19.3513,-245.954,1.13435,0.0,0.0
84,20.75,66.7419,66.5453,95.7023,99.5359,87.6334,0.0123043,1.39138,19.1348,-246.184,1.13166,0.0,0.0
88,21.75,69.8412,70.0466,90.3968,99.5267,87.3308,0.0132463,1.53024,18.9736,-246.504,1.16157,0.0,0.0
92,22.75,73.3545,73.922,94.217,99.5076,86.9423,0.0141522,1.65033,18.8313,-246.794,1.19948,0.0,0.0
96,23.75,76.2362,78.1265,79.9078,99.5192,86.2145,0.0151264,1.75093,18.7072,-247.125,1.27522,0.0,0.0
100,24.75,79.5775,81.7709,93.7865,99.4929,84.5086,0.0161116,1.85468,18.5925,-247.365,1.45045,0.0,0.0
104,25.75,82.8885,85.3154,83.2548,99.4861,86.5817,0.0170246,1.94123,18.4732,-247.705,1.2345,0.0,0.0
108,26.75,86.2756,88.9649,84.2448,99.4758,86.2628,0.0178969,2.02477,18.3572,-247.985,1.26636,0.0,0.0
112,27.75,89.6641,92.5774,93.5689,99.4522,86.9612,0.0186689,2.09394,18.2572,-248.316,1.19261,0.0,0.0
116,28.75,92.6039,96.3726,89.0435,99.4495,85.5766,0.019281,2.15113,18.1845,-248.696,1.33497,0.0,0.0
120,29.75,96.5695,100.193,87.5108,99.4351,84.8672,0.0198832,2.19372,18.1328,-248.966,1.40766,0.0,0.0
124,30.75,99.3621,103.848,87.4368,99.4176,85.882,0.0204088,2.23285,18.0814,-249.296,1.30047,0.0,0.0
128,31.75,102.637,107.782,84.4623,99.404,83.8437,0.0208785,2.27956,18.023,-249.637,1.51269,0.0,0.0
132,32.75,105.426,111.025,87.7734,99.3777,84.0971,0.0212742,2.32495,17.9474,-249.987,1.48353,0.0,0.0
136,33.75,108.789,114.462,81.6092,99.3574,84.0857,0.0216889,2.37457,17.8846,-250.357,1.48292,0.0,0.0
140,34.75,111.508,118.452,86.6888,99.3192,83.4851,0.0220871,2.42027,17.8273,-250.698,1.54319,0.0,0.0
144,35.75,114.219,122.101,80.8032,99.3005,84.1295,0.0223937,2.46225,17.7864,-251.008,1.4732,0.0,0.0
148,36.75,116.838,125.375,85.5568,99.2658,84.1418,0.0227052,2.49909,17.7512,-251.338,1.4688,0.0,0.0
152,37.75,120.132,128.473,82.2427,99.2451,85.9091,0.0230286,2.533,17.7144,-251.689,1.28224,0.0,0.0
156,38.75,122.985,131.644,81.7527,99.2164,83.8114,0.0233439,2.56672,17.6772,-251.929,1.49933,0.0,0.0
160,39.75,125.197,135.176,84.0509,99.1845,83.4724,0.0236624,2.59482,17.6345,-252.449,1.53249,0.0,0.0
164,40.75,128.574,138.372,80.5543,99.1566,83.0864,0.0240023,2.63179,17.5833,-252.749,1.57118,0.0,0.0
168,41.75,130.603,141.87,88.4466,99.1347,83.3234,0.0243331,2.66974,17.5298,-253.11,1.5439,0.0,0.0
172,42.75,132.897,144.133,82.4877,99.104,82.2295,0.0245836,2.70849,17.4821,-253.41,1.65858,0.0,0.0
176,43.75,136.095,147.946,85.4225,99.0766,82.7413,0.024766,2.74611,17.4384,-253.74,1.60098,0.0,0.0
180,44.75,137.944,150.484,80.6024,99.0949,83.2784,0.0248579,2.77733,17.4002,-254.171,1.54513,0.0,0.0
184,45.75,141.331,153.944,89.9296,99.1013,82.2169,0.0248986,2.79986,17.3744,-254.491,1.6597,0.0,0.0
188,46.75,143.647,156.895,88.6122,99.1017,83.3226,0.0249572,2.81776,17.3505,-254.881,1.54102,0.0,0.0
192,47.75,146.319,160.109,87.9207,99.1108,83.4712,0.0250545,2.83399,17.3303,-255.212,1.52601,0.0,0.0
196,48.75,148.026,162.735,91.9661,99.1228,84.1925,0.0251242,2.8483,17.3157,-255.572,1.45063,0.0,0.0
200,49.75,150.678,165.628,84.2677,99.1355,83.0278,0.0251656,2.86399,17.2971,-255.862,1.57555,0.0,0.0
204,50.75,152.737,168.5,75.0519,99.1451,82.4023,0.0251483,2.88103,17.2756,-256.313,1.64361,0.0,0.0
208,51.75,154.68,171.353,90.4678,99.163,82.9656,0.0251026,2.89337,17.2563,-256.683,1.58468,0.0,0.0
212,52.75,157.167,173.175,84.3532,99.1801,83.716,0.0250561,2.90823,17.2375,-257.023,1.5062,0.0,0.0
216,53.75,158.743,177.168,84.4921,99.1873,83.3197,0.0250142,2.92292,17.2212,-257.423,1.54901,0.0,0.0
220,54.75,161.22,179.19,80.407,99.2024,82.4629,0.0249671,2.93653,17.2105,-257.814,1.64221,0.0,0.0
224,55.75,163.933,181.279,78.1989,99.208,83.0454,0.024931,2.94571,17.1971,-258.164,1.58016,0.0,0.0
228,56.75,165.279,184.203,78.608,99.2268,83.4814,0.0249556,2.949,17.1879,-258.554,1.53531,0.0,0.0
232,57.75,167.682,186.703,83.2892,99.2403,82.8448,0.0250567,2.95484,17.1796,-258.885,1.60454,0.0,0.0
236,58.75,168.768,188.889,79.1186,99.257,81.6425,0.0253154,2.97409,17.1678,-259.225,1.73595,0.0,0.0
240,59.75,171.361,191.211,79.6155,99.2618,83.6656,0.0254539,2.9963,17.1425,-259.645,1.51886,0.0,0.0
244,60.75,171.586,194.021,80.978,99.2825,82.7388,0.0257348,3.03097,17.1018,-260.036,1.6197,0.0,0.0
248,61.75,174.12,195.733,76.3113,99.2985,83.6173,0.0259487,3.06264,17.0704,-260.346,1.52728,0.0,0.0
252,62.75,176.044,198.141,75.1992,99.3072,84.1364,0.0260743,3.07197,17.0499,-260.746,1.47307,0.0,0.0
256,63.75,177.482,201.077,79.3125,99.3291,82.7024,0.0261239,3.07745,17.0373,-261.157,1.62779,0.0,0.0
260,64.75,179.441,203.289,83.9395,99.3439,82.9312,0.026115,3.0772,17.0297,-261.487,1.60455,0.0,0.0
264,65.75,181.02,204.998,82.751,99.3594,84.256,0.0261025,3.07663,17.0247,-261.897,1.46512,0.0,0.0
268,66.75,182.422,206.997,89.5511,99.3734,83.4544,0.026111,3.08134,17.0222,-262.278,1.55131,0.0,0.0
272,67.75,184.305,208.705,81.0176,99.3877,82.3434,0.0261437,3.0862,17.0198,-262.668,1.67168,0.0,0.0
276,68.75,185.462,210.609,73.7184,99.3949,82.6664,0.026206,3.09463,17.0094,-262.978,1.63754,0.0,0.0
280,69.75,187.379,212.46,88.5359,99.4204,82.9595,0.026289,3.10861,16.9919,-263.379,1.60836,0.0,0.0
284,70.75,188.445,214.803,79.7002,99.4379,82.1403,0.0263662,3.12618,16.9716,-263.739,1.69811,0.0,0.0
288,71.75,190.074,216.615,84.3417,99.4526,85.4133,0.0264669,3.14461,16.9532,-264.169,1.35223,0.0,0.0
292,72.75,191.799,218.396,76.4372,99.4658,84.8013,0.0265842,3.16437,16.9252,-264.53,1.41731,0.0,0.0
296,73.75,192.631,220.35,83.2235,99.4861,83.1818,0.0267027,3.17964,16.9061,-264.95,1.59046,0.0,0.0
300,74.75,194.586,222.108,77.8539,99.5024,83.3128,0.026797,3.18811,16.8935,-265.32,1.57794,0.0,0.0
304,75.75,195.289,224.13,74.2924,99.5164,82.1399,0.0268656,3.19318,16.8852,-265.731,1.70516,0.0,0.0
308,76.75,196.977,226.085,78.0386,99.5303,82.5579,0.0269229,3.193,16.8798,-266.021,1.66131,0.0,0.0
312,77.75,198.6,227.926,86.8811,99.5518,82.1268,0.0269824,3.19846,16.8728,-266.461,1.70975,0.0,0.0
316,78.75,200.168,229.189,82.116,99.563,84.055,0.0270377,3.21778,16.8653,-266.822,1.50453,0.0,0.0
320,79.75,200.429,230.257,80.2154,99.5825,83.2415,0.0270525,3.24388,16.8389,-267.202,1.59269,0.0,0.0
324,80.75,202.051,232.036,81.8366,99.5981,82.347,0.027009,3.26613,16.8216,-267.602,1.69007,0.0,0.0
328,81.75,203.814,233.928,71.3981,99.6196,83.3177,0.0269576,3.27134,16.8102,-267.993,1.58787,0.0,0.0
332,82.75,205.133,235.871,76.0266,99.6491,84.152,0.0269412,3.26588,16.8013,-268.303,1.50196,0.0,0.0
336,83.75,205.777,237.33,84.8913,99.651,83.5887,0.0269674,3.26294,16.7984,-268.783,1.56182,0.0,0.0
340,84.75,207.419,238.514,73.8482,99.6674,82.5182,0.0270145,3.27048,16.7968,-269.134,1.67781,0.0,0.0
344,85.75,208.182,239.746,87.3635,99.6821,84.7149,0.0270652,3.28158,16.782,-269.544,1.44567,0.0,0.0
348,86.75,209.229,241.567,79.5186,99.6909,82.5849,0.0271004,3.29554,16.765,-269.994,1.67272,0.0,0.0
352,87.75,210.585,243.093,80.6528,99.7072,83.2825,0.0271298,3.30796,16.7485,-270.285,1.59944,0.0,0.0
356,88.75,211.452,244.472,87.607,99.7196,83.9281,0.0271566,3.31895,16.737,-270.665,1.53192,0.0,0.0
360,89.75,212.593,246.119,71.3615,99.7327,83.82,0.0271797,3.3296,16.7268,-271.095,1.54454,0.0,0.0
364,90.75,213.954,247.226,77.1249,99.7491,83.5514,0.0271841,3.33403,16.7158,-271.476,1.57451,0.0,0.0
368,91.75,214.849,248.517,73.5895,99.7598,82.5501,0.027163,3.33439,16.7068,-271.876,1.68261,0.0,0.0
372,92.75,215.458,250.104,81.455,99.7797,83.4041,0.027081,3.34228,16.6961,-272.296,1.59293,0.0,0.0
376,93.75,216.293,250.691,69.9662,99.7897,83.4249,0.0269757,3.35312,16.6859,-272.687,1.5916,0.0,0.0
380,94.75,217.399,252.708,79.1522,99.8084,82.8231,0.026881,3.36093,16.6761,-273.057,1.65759,0.0,0.0
384,95.75,218.827,253.65,84.8249,99.8076,83.5916,0.0268104,3.37039,16.6624,-273.387,1.57546,0.0,0.0
388,96.75,219.131,254.694,72.6231,99.8168,83.097,0.0267606,3.38047,16.6491,-273.938,1.629,0.0,0.0
392,97.75,220.221,255.88,76.6204,99.8459,84.4148,0.0266958,3.39193,16.6391,-274.238,1.49178,0.0,0.0
396,98.75,221.038,256.818,76.2823,99.8479,83.1642,0.0266124,3.40155,16.6326,-274.588,1.62459,0.0,0.0
400,99.75,221.917,258.254,73.178,99.865,82.7875,0.0265223,3.40286,16.6284,-274.989,1.66645,0.0,0.0
404,100.75,222.663,259.214,81.8679,99.8769,82.4793,0.0264853,3.40134,16.6208,-275.429,1.70066,0.0,0.0
408,101.75,223.504,260.103,75.8831,99.8817,83.6153,0.0265728,3.40439,16.6103,-275.819,1.57953,0.0,0.0
412,102.75,223.94,261.081,89.564,99.8925,82.0895,0.0267469,3.42094,16.5941,-276.22,1.74413,0.0,0.0
416,103.75,224.953,262.205,76.354,99.8989,82.2627,0.0270304,3.44126,16.5705,-276.68,1.72597,0.0,0.0
420,104.75,226.294,263.418,78.7263,99.9028,83.1453,0.0272938,3.46309,16.5378,-277.021,1.6315,0.0,0.0
424,105.75,227.128,264.545,68.0053,99.9291,83.7692,0.0275313,3.48069,16.525,-277.391,1.56741,0.0,0.0
428,106.75,227.649,265.424,81.5886,99.9399,84.7071,0.0277045,3.50167,16.502,-277.841,1.46943,0.0,0.0
432,107.75,229.184,266.566,77.2501,99.9299,84.4832,0.0278653,3.51676,16.4881,-278.182,1.49207,0.0,0.0
436,108.75,229.788,268.143,86.7124,99.9311,82.5038,0.0280082,3.52582,16.4767,-278.632,1.70283,0.0,0.0
440,109.75,230.795,269.452,72.6376,99.9379,83.7328,0.0281442,3.53065,16.4686,-279.072,1.57205,0.0,0.0
444,110.75,231.569,270.289,69.0052,99.9391,84.9094,0.0282858,3.53414,16.4595,-279.433,1.44817,0.0,0.0
448,111.75,232.186,271.237,77.6615,99.9415,83.0106,0.0284161,3.54343,16.4443,-279.773,1.64934,0.0,0.0
452,112.75,232.82,272.111,73.8261,99.9491,83.4122,0.0284933,3.55462,16.4306,-280.223,1.60713,0.0,0.0
456,113.75,233.674,273.472,68.3053,99.963,83.8994,0.0284918,3.56703,16.4172,-280.584,1.55662,0.0,0.0
460,114.75,234.405,274.226,73.5727,99.9518,84.4316,0.0284032,3.57814,16.4051,-281.064,1.49944,0.0,0.0
464,115.75,235.38,275.318,79.6621,99.9534,82.7814,0.028303,3.5893,16.3924,-281.484,1.67498,0.0,0.0
468,116.75,236.439,276.245,63.6089,99.9538,84.3153,0.0282106,3.60359,16.3748,-281.915,1.51186,0.0,0.0
472,117.75,236.424,276.996,85.0905,99.957,83.5768,0.0282169,3.61483,16.3627,-282.235,1.59032,0.0,0.0
476,118.75,237.453,278.378,81.0505,99.955,82.0502,0.0283111,3.62696,16.3412,-282.705,1.75395,0.0,0.0
480,119.75,237.829,279.37,76.0846,99.9479,82.521,0.0284612,3.65212,16.3228,-283.056,1.70247,0.0,0.0
484,120.75,238.728,280.37,74.1192,99.957,82.9873,0.028618,3.67745,16.3071,-283.476,1.65322,0.0,0.0
488,121.75,239.642,281.136,72.4026,99.9423,85.2467,0.0287805,3.68791,16.2954,-283.977,1.41322,0.0,0.0
492,122.75,240.392,281.988,74.4146,99.9471,84.0558,0.0289405,3.68773,16.2857,-284.307,1.53866,0.0,0.0
496,123.75,241.464,282.603,70.0013,99.9339,83.7103,0.0290926,3.68528,16.2828,-284.697,1.57409,0.0,0.0
500,124.75,241.938,283.953,74.0306,99.9351,83.6092,0.029243,3.68668,16.2804,-285.238,1.58493,0.0,0.0
504,125.75,242.661,285.22,82.1107,99.9263,82.5943,0.0293663,3.68497,16.2777,-285.588,1.69267,0.0,0.0
508,126.75,243.48,286.027,75.5778,99.9232,82.8453,0.0295499,3.68432,16.2734,-286.028,1.66543,0.0,0.0
512,127.75,244.189,286.409,78.9194,99.9168,83.5952,0.0297682,3.69142,16.263,-286.409,1.58478,0.0,0.0
516,128.75,244.291,288.054,73.4421,99.9064,82.8498,0.0299807,3.70294,16.2543,-286.799,1.66346,0.0,0.0
520,129.75,245.434,288.229,72.4064,99.904,81.9855,0.0301635,3.71353,16.2399,-287.249,1.75642,0.0,0.0
524,130.75,246.112,289.141,66.1719,99.9188,83.8245,0.0303441,3.7239,16.2258,-287.66,1.56063,0.0,0.0
528,131.75,246.307,290.133,75.7297,99.8909,82.7036,0.0305054,3.73198,16.2159,-288.06,1.67777,0.0,0.0
532,132.75,247.103,290.815,70.1517,99.8833,82.5812,0.0306162,3.75222,16.1952,-288.51,1.69025,0.0,0.0
536,133.75,247.842,291.514,83.9051,99.8841,83.5924,0.0306764,3.79014,16.1595,-288.881,1.58218,0.0,0.0
540,134.75,248.618,292.317,66.3353,99.8761,82.853,0.0306877,3.82627,16.1101,-289.361,1.66042,0.0,0.0
544,135.75,249.456,293.758,77.4547,99.8642,82.9611,0.0306472,3.85119,16.0777,-289.681,1.64777,0.0,0.0
548,136.75,250.5,294.983,76.7288,99.8777,83.0565,0.0305779,3.86408,16.061,-290.142,1.63876,0.0,0.0
552,137.75,250.717,296.066,74.9771,99.8471,84.2245,0.0304377,3.8592,16.0646,-290.612,1.51195,0.0,0.0
556,138.75,251.52,296.748,71.3386,99.8443,82.8014,0.030303,3.8445,16.067,-291.003,1.66311,0.0,0.0
560,139.75,252.408,297.741,74.0024,99.8371,84.3501,0.0301845,3.84123,16.0685,-291.403,1.49781,0.0,0.0
564,140.75,252.98,298.204,69.3716,99.8208,82.3831,0.0300792,3.85045,16.0603,-291.863,1.70603,0.0,0.0
568,141.75,253.548,298.98,78.1935,99.8072,82.7933,0.0299638,3.86748,16.0456,-292.324,1.66069,0.0,0.0
572,142.75,254.2,299.174,74.2962,99.7821,84.3301,0.0298319,3.8811,16.0314,-292.694,1.49503,0.0,0.0
576,143.75,255.123,300.922,78.0355,99.7698,84.0832,0.0297321,3.89094,16.0212,-293.165,1.51998,0.0,0.0
580,144.75,255.339,301.536,68.6106,99.7694,83.883,0.0297151,3.89465,16.0122,-293.525,1.54113,0.0,0.0
584,145.75,257.034,302.36,74.2932,99.7666,82.9415,0.0297996,3.89608,16.001,-293.985,1.64118,0.0,0.0
588,146.75,256.499,302.83,68.003,99.7427,83.6849,0.0299044,3.91158,15.9806,-294.366,1.55976,0.0,0.0
592,147.75,257.162,304.127,72.8254,99.7204,83.6824,0.0301339,3.9361,15.9573,-294.866,1.55804,0.0,0.0
596,148.75,258.082,304.538,73.0246,99.7092,83.262,0.0303826,3.95563,15.9392,-295.246,1.6018,0.0,0.0
600,149.75,258.538,306.188,82.358,99.6989,83.8609,0.0306271,3.96459,15.9261,-295.647,1.53719,0.0,0.0
604,150.75,258.837,306.725,70.3921,99.6829,84.3624,0.0308829,3.96766,15.9142,-296.167,1.48279,0.0,0.0
608,151.75,259.677,307.189,72.9926,99.6722,81.5999,0.0311766,3.9723,15.9046,-296.537,1.77767,0.0,0.0
612,152.75,261.185,308.654,65.0713,99.6546,84.3162,0.0313693,3.98776,15.8863,-296.948,1.48514,0.0,0.0
616,153.75,261.48,308.847,73.8268,99.6431,82.7298,0.0317082,4.00821,15.867,-297.438,1.65288,0.0,0.0
620,154.75,261.965,309.492,74.0161,99.6264,82.2893,0.0320025,4.02912,15.8468,-297.879,1.69883,0.0,0.0
624,155.75,262.275,310.212,77.3356,99.6188,81.2188,0.0322209,4.05963,15.8099,-298.289,1.81451,0.0,0.0
628,156.75,263.421,312.182,71.9889,99.6076,83.1605,0.0323458,4.09309,15.7705,-298.749,1.60358,0.0,0.0
632,157.75,263.082,312.631,72.2568,99.5993,83.2133,0.0323984,4.11698,15.7356,-299.14,1.59719,0.0,0.0
636,158.75,264.906,313.419,78.8736,99.5873,83.7009,0.0324005,4.14138,15.706,-299.57,1.54421,0.0,0.0
640,159.75,264.971,313.948,72.1736,99.5773,83.5649,0.0323627,4.16469,15.6865,-300.091,1.55777,0.0,0.0
644,160.75,266.267,314.698,79.0988,99.5773,81.638,0.0323119,4.17467,15.6737,-300.511,1.76507,0.0,0.0
648,161.75,266.33,316.287,67.0734,99.5503,82.1907,0.0321879,4.16542,15.6753,-300.931,1.7027,0.0,0.0
652,162.75,267.435,317.957,76.6929,99.5447,81.5123,0.0320252,4.14806,15.6767,-301.382,1.77584,0.0,0.0
656,163.75,267.774,317.898,76.3204,99.5343,81.6073,0.0319213,4.14004,15.6777,-301.832,1.76457,0.0,0.0
660,164.75,268.038,318.43,68.4404,99.5132,83.5306,0.0318693,4.14427,15.6713,-302.312,1.5557,0.0,0.0
664,165.75,268.91,318.736,69.6647,99.5084,83.8212,0.0318618,4.16783,15.6486,-302.683,1.52441,0.0,0.0
668,166.75,269.059,319.444,64.5042,99.5028,83.1294,0.0318904,4.19063,15.6288,-303.203,1.59755,0.0,0.0
672,167.75,270.021,320.462,66.3857,99.4941,83.1723,0.031926,4.20414,15.6136,-303.604,1.59218,0.0,0.0
676,168.75,270.928,321.124,75.2603,99.4809,80.9445,0.0320026,4.2148,15.6017,-304.084,1.83226,0.0,0.0
680,169.75,270.676,322.436,62.6242,99.4646,84.351,0.0320807,4.22367,15.593,-304.484,1.46451,0.0,0.0
684,170.75,271.048,322.974,78.408,99.4594,80.0303,0.0321618,4.23224,15.586,-304.945,1.93126,0.0,0.0
688,171.75,271.915,324.099,79.888,99.4582,82.0056,0.0322471,4.24456,15.5723,-305.445,1.71451,0.0,0.0
692,172.75,273.702,324.761,71.1806,99.4522,82.8105,0.0323354,4.26075,15.5487,-305.906,1.62719,0.0,0.0
696,173.75,274.131,325.132,70.1662,99.4343,82.083,0.0324256,4.2797,15.525,-306.246,1.70399,0.0,0.0
700,174.75,273.961,325.097,71.6637,99.4351,81.8971,0.0325229,4.29341,15.508,-306.776,1.7242,0.0,0.0
704,175.75,274.791,326.482,69.915,99.4287,82.5431,0.0326299,4.30504,15.4967,-307.147,1.65382,0.0,0.0
708,176.75,275.189,327.544,67.7183,99.4268,82.2889,0.0327506,4.31309,15.488,-307.667,1.68105,0.0,0.0
712,177.75,275.365,328.016,65.5835,99.4132,82.5157,0.0328834,4.32604,15.478,-308.107,1.65538,0.0,0.0
716,178.75,276.325,328.583,65.9376,99.4028,84.8373,0.0329653,4.3366,15.4621,-308.518,1.40791,0.0,0.0
720,179.75,276.874,329.606,72.7766,99.4028,81.5148,0.032949,4.34947,15.4454,-309.008,1.7629,0.0,0.0
724,180.75,277.804,330.704,70.1601,99.402,82.3945,0.0328379,4.35733,15.4345,-309.429,1.66744,0.0,0.0
728,181.75,277.882,331.055,66.5536,99.3781,83.6411,0.0326338,4.36381,15.4274,-309.899,1.53188,0.0,0.0
732,182.75,279.135,331.923,75.9838,99.3742,82.3413,0.0323563,4.3653,15.4227,-310.349,1.67069,0.0,0.0
736,183.75,279.481,332.543,61.9732,99.3646,82.9067,0.03208,4.36327,15.4178,-310.83,1.60904,0.0,0.0
740,184.75,279.919,333.513,79.6102,99.3499,81.3027,0.031917,4.36659,15.4133,-311.2,1.78131,0.0,0.0
744,185.75,280.029,333.739,66.6322,99.3495,82.932,0.0317867,4.37508,15.405,-311.651,1.60496,0.0,0.0
748,186.75,280.79,334.886,70.2219,99.3435,84.195,0.0317537,4.38549,15.3944,-312.061,1.47013,0.0,0.0
752,187.75,281.574,335.673,73.7459,99.3379,81.3092,0.031772,4.39128,15.3866,-312.571,1.77953,0.0,0.0
756,188.75,282.418,336.466,77.344,99.3331,83.1584,0.031818,4.39964,15.3792,-313.042,1.57928,0.0,0.0
760,189.75,282.372,336.647,69.8868,99.3303,83.5662,0.0318558,4.40901,15.3743,-313.482,1.53557,0.0,0.0
764,190.75,283.884,337.561,68.9694,99.3184,83.5035,0.0318734,4.41265,15.3718,-313.953,1.54116,0.0,0.0
768,191.75,284.577,338.285,68.9579,99.3052,82.6086,0.0319215,4.40637,15.3778,-314.363,1.63573,0.0,0.0
772,192.75,284.402,339.589,70.2784,99.2909,81.7538,0.0320255,4.39435,15.3886,-314.813,1.72687,0.0,0.0
776,193.75,285.322,340.247,66.7055,99.2889,82.0588,0.0321529,4.38601,15.3956,-315.294,1.6936,0.0,0.0
780,194.75,284.933,340.576,69.5533,99.2698,82.8755,0.0322999,4.38051,15.3958,-315.714,1.60389,0.0,0.0
784,195.75,285.727,340.605,74.0604,99.2626,81.6036,0.0324202,4.38936,15.3853,-316.225,1.74068,0.0,0.0
788,196.75,286.123,341.079,67.4894,99.2538,83.5146,0.0325346,4.40578,15.3683,-316.645,1.53421,0.0,0.0
792,197.75,286.533,341.838,59.8635,99.2431,83.2305,0.0326198,4.42527,15.3469,-317.115,1.56353,0.0,0.0
796,198.75,286.83,342.704,74.8885,99.2467,82.2349,0.0326656,4.44266,15.3308,-317.606,1.67078,0.0,0.0
800,199.75,287.419,343.173,68.806,99.2323,82.0056,0.0326683,4.4559,15.321,-317.956,1.6943,0.0,0.0
804,200.75,288.07,344.22,75.8197,99.2224,83.045,0.0325644,4.45905,15.3181,-318.386,1.58149,0.0,0.0
808,201.75,288.484,344.841,70.9317,99.2184,82.3094,0.0324424,4.45623,15.3208,-318.867,1.6602,0.0,0.0
812,202.75,288.609,345.065,71.2981,99.2001,81.9188,0.0323085,4.43725,15.3297,-319.337,1.70082,0.0,0.0
816,203.75,289.359,345.454,64.6332,99.1973,85.593,0.0321807,4.4217,15.3355,-319.818,1.31071,0.0,0.0
820,204.75,289.008,345.962,66.8619,99.1682,81.8267,0.0320743,4.42016,15.3394,-320.178,1.70796,0.0,0.0
824,205.75,289.686,345.861,69.986,99.1762,81.5225,0.031997,4.42701,15.3368,-320.658,1.74177,0.0,0.0
828,206.75,290.303,347.008,69.3449,99.1546,82.7535,0.031954,4.44525,15.3142,-321.139,1.60667,0.0,0.0
832,207.75,290.969,347.13,67.8664,99.1327,81.6994,0.0319503,4.4793,15.2789,-321.539,1.71862,0.0,0.0
836,208.75,290.766,348.472,69.8738,99.1132,83.8585,0.0319742,4.5092,15.2557,-322.02,1.4851,0.0,0.0
840,209.75,291.862,348.942,70.1486,99.0961,84.3374,0.0320013,4.51901,15.2405,-322.39,1.43295,0.0,0.0
844,210.75,292.258,349.693,69.8174,99.0889,82.618,0.0320823,4.50361,15.2563,-322.85,1.61534,0.0,0.0
848,211.75,292.38,350.27,65.2324,99.0594,82.2918,0.032214,4.48046,15.2736,-323.431,1.64785,0.0,0.0
852,212.75,292.295,350.709,65.7018,99.0439,83.0827,0.0323783,4.4695,15.2849,-323.851,1.56146,0.0,0.0
856,213.75,292.695,351.052,72.975,99.0351,80.1704,0.0325291,4.46723,15.2941,-324.272,1.87774,0.0,0.0
860,214.75,293.759,351.08,62.8502,99.016,82.5783,0.032598,4.46734,15.3016,-324.742,1.61307,0.0,0.0
864,215.75,293.943,351.594,61.9152,98.9813,82.833,0.032576,4.46237,15.3183,-325.182,1.5826,0.0,0.0
868,216.75,294.576,352.471,72.7132,98.9538,84.4222,0.0325151,4.43433,15.339,-325.633,1.41127,0.0,0.0
872,217.75,294.073,352.399,73.6749,98.9339,80.0803,0.0324401,4.39773,15.3528,-326.123,1.87865,0.0,0.0
876,218.75,294.749,352.93,71.7935,98.9092,82.4117,0.0324751,4.36952,15.3618,-326.584,1.62143,0.0,0.0
880,219.75,294.897,352.681,66.8719,98.8865,82.9697,0.032611,4.37859,15.3646,-327.014,1.55943,0.0,0.0
884,220.75,295.12,352.399,69.4846,98.8738,82.2967,0.0327395,4.40972,15.329,-327.494,1.63065,0.0,0.0
888,221.75,295.104,352.846,67.2879,98.8574,81.3408,0.0329729,4.45329,15.2907,-327.925,1.733,0.0,0.0
892,222.75,295.62,353.377,62.1907,98.8319,80.8626,0.0331763,4.49778,15.2526,-328.385,1.7831,0.0,0.0
896,223.75,296.058,353.22,65.5667,98.8033,82.3323,0.0334327,4.53177,15.2163,-328.886,1.62047,0.0,0.0
900,224.75,296.311,354.219,67.9061,98.7941,81.611,0.0336793,4.56813,15.1819,-329.356,1.69784,0.0,0.0
904,225.75,296.877,355.031,64.8553,98.7642,81.3752,0.0339085,4.62852,15.1373,-329.816,1.72086,0.0,0.0
908,226.75,296.999,354.692,69.3998,98.7495,81.5999,0.034101,4.69578,15.0605,-330.247,1.69503,0.0,0.0
912,227.75,297.348,355.592,62.1815,98.7136,81.1357,0.034298,4.75979,14.9674,-330.817,1.7425,0.0,0.0
916,228.75,298.303,356.743,65.2491,98.7144,81.2941,0.0345542,4.81507,14.8809,-331.348,1.72524,0.0,0.0
920,229.75,299.104,358.03,71.2218,98.6905,80.016,0.0349727,4.87423,14.7729,-331.708,1.86389,0.0,0.0
924,230.75,299.269,358.487,73.5047,98.6762,81.516,0.0354024,4.95188,14.6791,-332.308,1.69757,0.0,0.0
928,231.75,300.042,359.2,57.5424,98.6538,83.1036,0.036021,5.03446,14.5809,-332.839,1.52417,0.0,0.0
932,232.75,301.349,360.198,76.7853,98.6379,79.9251,0.0366105,5.10236,14.5006,-333.319,1.86926,0.0,0.0
936,233.75,301.887,362.661,61.1404,98.6204,81.8959,0.0371867,5.15412,14.4422,-333.83,1.65123,0.0,0.0
940,234.75,303.205,363.421,62.1106,98.6056,80.6919,0.0376376,5.1992,14.3791,-334.35,1.78151,0.0,0.0
944,235.75,303.336,363.893,64.7194,98.5857,80.0267,0.0379703,5.25217,14.3117,-334.861,1.85327,0.0,0.0
948,236.75,304.215,365.369,61.5022,98.5658,81.1692,0.0382878,5.3084,14.2463,-335.321,1.72551,0.0,0.0
952,237.75,305.252,366.307,58.7911,98.5519,81.3105,0.0386899,5.35582,14.1909,-335.932,1.7088,0.0,0.0
956,238.75,305.956,367.597,62.7937,98.5383,81.7027,0.0391317,5.39988,14.1573,-336.552,1.66482,0.0,0.0
960,239.75,307.036,368.812,68.3748,98.5347,80.0672,0.0399819,5.44515,14.0991,-337.063,1.84418,0.0,0.0
964,240.75,307.534,369.52,61.7366,98.5164,79.9071,0.0410714,5.51032,14.0173,-337.533,1.8603,0.0,0.0
968,241.75,308.522,371.308,65.9659,98.5021,82.2365,0.0420809,5.57017,13.9267,-338.084,1.60369,0.0,0.0
972,242.75,308.816,371.715,60.4871,98.4949,80.7128,0.0427204,5.6375,13.8798,-338.604,1.76922,0.0,0.0
976,243.75,310.468,373.123,65.0087,98.4809,80.4696,0.0434001,5.67313,13.8365,-339.114,1.79478,0.0,0.0
980,244.75,310.922,374.642,66.072,98.4857,80.0529,0.0437944,5.67796,13.8081,-339.595,1.84135,0.0,0.0
984,245.75,311.945,375.241,59.8078,98.4538,80.8151,0.0440114,5.67019,13.807,-340.185,1.75426,0.0,0.0
988,246.75,312.155,376.44,64.5958,98.4443,80.1761,0.0438609,5.64783,13.8098,-340.646,1.82394,0.0,0.0
992,247.75,312.791,377.548,70.3654,98.4475,81.6683,0.0435593,5.60097,13.8386,-341.126,1.66037,0.0,0.0
996,248.75,313.57,378.709,69.68,98.4256,79.7859,0.0431256,5.53496,13.9483,-341.617,1.86559,0.0,0.0
1000,249.75,314.196,378.979,67.1329,98.4276,80.441,0.0425346,5.37979,14.1639,-341.957,1.79312,0.0,0.0
1004,250.75,313.613,378.678,74.9481,98.4196,75.1951,0.0417849,5.2149,14.4189,-342.367,2.39163,0.0,0.0
1008,251.75,313.871,378.182,67.7321,98.4188,76.244,0.0407787,4.9847,14.689,-342.828,2.26847,0.0,0.0
1012,252.75,312.866,378.174,73.117,98.3953,78.6225,0.0391496,4.72388,15.0168,-343.198,1.99339,0.0,0.0
1016,253.75,312.448,376.96,76.2762,98.3993,73.2072,0.037367,4.4096,15.3682,-343.468,2.62787,0.0,0.0
1020,254.75,310.96,375.29,84.2135,98.3897,75.731,0.0348794,4.07566,15.7848,-343.738,2.32583,0.0,0.0
1024,255.75,309.073,372.899,83.0716,98.3861,81.2589,0.0320695,3.72759,16.2918,-344.009,1.69948,0.0,0.0
1028,256.75,306.479,369.85,89.1969,98.3885,79.9366,0.0290998,3.33884,16.8396,-344.209,1.84548,0.0,0.0
1032,257.75,304.71,366.583,96.1503,98.3949,84.2691,0.0262121,2.96971,17.3606,-344.359,1.37706,0.0,0.0
1036,258.75,301.48,362.709,104.144,98.3889,84.7513,0.0236163,2.57936,17.8427,-344.509,1.32581,0.0,0.0
1040,259.75,298.299,358.575,109.347,98.3817,87.3984,0.0211549,2.2071,18.2693,-344.589,1.05188,0.0,0.0
1044,260.75,294.33,353.528,110.302,98.3754,87.1949,0.0188952,1.89012,18.6759,-344.679,1.07201,0.0,0.0
1048,261.75,289.473,348.269,114.457,98.361,90.5449,0.0168232,1.57073,19.0717,-344.679,0.73573,0.0,0.0
1052,262.75,285.204,343.248,115.762,98.3682,92.0547,0.0149837,1.30042,19.4231,-344.719,0.589433,0.0,0.0
1056,263.75,280.597,337.193,119.152,98.3622,94.5609,0.0133885,1.06714,19.7484,-344.749,0.35021,0.0,0.0
1060,264.75,276.873,331.585,123.257,98.3562,95.6188,0.0120919,0.874228,20.0033,-344.759,0.250817,0.0,0.0
1064,265.75,272.187,325.88,123.537,98.3495,96.7945,0.0109343,0.721572,20.2063,-344.819,0.141611,0.0,0.0
1068,266.75,267.477,320.68,122.726,98.355,98.0067,0.00997321,0.593825,20.3685,-344.819,0.0315281,0.0,0.0
1072,267.75,263.033,315.3125,127.107,98.3371,98.089,0.00915253,0.492601,20.497,-344.849,0.0224513,0.0,0.0
1076,268.75,258.435,309.878,127.187,98.3315,98.1647,0.00853817,0.409061,20.5962,-344.869,0.0150891,0.0,0.0
1080,269.75,254.196,304.292,125.642,98.3339,98.3952,0.00797158,0.338653,20.6794,-344.819,-0.00553373,0.0,0.0
1084,270.75,249.548,299.315,128.812,98.3216,98.5319,0.00746189,0.284483,20.7462,-344.809,-0.0189885,0.0,0.0
1088,271.75,245.929,293.641,128.615,98.3176,98.3072,0.00700309,0.246796,20.8023,-344.829,0.000941636,0.0,0.0
1092,272.75,240.962,288.886,129.436,98.3124,98.1872,0.00658378,0.210513,20.8463,-344.819,0.0113227,0.0,0.0
1096,273.75,237.442,284.314,127.635,98.3144,98.179,0.00620128,0.182789,20.8809,-344.819,0.0122441,0.0,0.0
1100,274.75,234.332,279.533,127.019,98.3037,98.2028,0.00583241,0.162176,20.9068,-344.819,0.009123,0.0,0.0
1104,275.75,230.473,274.97,127.935,98.3041,98.2789,0.00546579,0.145152,20.9269,-344.819,0.00227183,0.0,0.0
1108,276.75,226.978,270.694,126.554,98.3029,98.4001,0.00509879,0.131672,20.9449,-344.829,-0.00878564,0.0,0.0
1112,277.75,222.945,266.354,125.462,98.2953,98.3043,0.00471452,0.120573,20.9591,-344.789,-0.000815141,0.0,0.0
1116,278.75,220.766,262.435,127.597,98.2953,98.5475,0.00436637,0.111223,20.9708,-344.799,-0.0227684,0.0,0.0
1120,279.75,216.573,257.777,127.506,98.2965,98.2384,0.00402785,0.103437,20.9798,-344.799,0.0052524,0.0,0.0
1124,280.75,213.894,254.434,127.864,98.2905,98.0791,0.00365432,0.0969078,20.987,-344.809,0.0191277,0.0,0.0
1128,281.75,211.2,250.409,128.928,98.2909,98.2499,0.0033101,0.0915778,20.9927,-344.839,0.00371195,0.0,0.0
1132,282.75,208.314,246.948,131.675,98.2877,98.5295,0.00299365,0.0874718,20.9981,-344.819,-0.021828,0.0,0.0
1136,283.75,204.547,242.568,126.812,98.2813,98.3379,0.00269481,0.0832217,21.003,-344.799,-0.00510977,0.0,0.0
1140,284.75,202.212,239.066,129.206,98.2837,98.6048,0.00241953,0.0793975,21.0072,-344.789,-0.0289789,0.0,0.0
1144,285.75,199.727,235.671,127.913,98.2997,98.1377,0.00220746,0.0761002,21.0105,-344.809,0.0146545,0.0,0.0
1148,286.75,197.131,233.213,128.666,98.2869,98.5704,0.00204075,0.0731002,21.0127,-344.829,-0.0255921,0.0,0.0
1152,287.75,193.804,228.371,128.516,98.2865,98.615,0.0018727,0.0704926,21.0157,-344.819,-0.0296495,0.0,0.0
1156,288.75,192.06,225.568,129.579,98.2778,98.441,0.00175353,0.0683747,21.0183,-344.819,-0.0147508,0.0,0.0
1160,289.75,189.447,222.712,126.533,98.2754,98.2994,0.00167568,0.0668556,21.0207,-344.829,-0.00217176,0.0,0.0
1164,290.75,187.796,220.03,130.007,98.2758,98.4374,0.00162507,0.0649584,21.0224,-344.829,-0.0145986,0.0,0.0
1168,291.75,184.864,216.608,128.18,98.273,98.4091,0.00157433,0.0632691,21.0228,-344.829,-0.0123002,0.0,0.0
1172,292.75,183.369,214.197,133.023,98.2841,98.6023,0.00150816,0.0617685,21.0216,-344.849,-0.0287217,0.0,0.0
1176,293.75,180.287,211.662,127.789,98.273,98.3178,0.00143934,0.0605058,21.0208,-344.799,-0.00405314,0.0,0.0
1180,294.75,178.652,208.459,127.099,98.2726,98.5708,0.00135546,0.0594608,21.0209,-344.799,-0.0269254,0.0,0.0
1184,295.75,176.451,205.967,130.039,98.2718,98.4992,0.00127428,0.0585214,21.0218,-344.809,-0.0205364,0.0,0.0
1188,296.75,174.429,203.101,129.01,98.265,98.1844,0.00118101,0.057714,21.0225,-344.809,0.0072964,0.0,0.0
1192,297.75,172.904,200.922,128.944,98.275,98.4124,0.00107701,0.056964,21.023,-344.809,-0.0124158,0.0,0.0
1196,298.75,170.699,197.767,129.987,98.2742,98.3825,0.000966082,0.0562027,21.0233,-344.839,-0.00978982,0.0,0.0
1200,299.75,169.067,195.45,126.078,98.2658,98.3215,0.000868522,0.0554718,21.0239,-344.829,-0.00503505,0.0,0.0
1204,300.75,166.92,193.179,129.8,98.269,98.396,0.000789034,0.0549107,21.0247,-344.819,-0.0114771,0.0,0.0
1208,301.75,165.158,190.683,128.823,98.2654,98.7579,0.000732717,0.0544796,21.0252,-344.859,-0.044422,0.0,0.0
1212,302.75,163.626,188.527,131.351,98.265,98.464,0.000690946,0.0540866,21.0256,-344.849,-0.0179732,0.0,0.0
1216,303.75,162.101,185.904,129.823,98.2634,98.5258,0.000641555,0.0536953,21.0258,-344.859,-0.0236929,0.0,0.0
1220,304.75,160.143,184.241,129.243,98.2758,98.4812,0.000582458,0.0532713,21.0259,-344.859,-0.0185512,0.0,0.0
1224,305.75,158.132,182.068,131.82,98.2893,98.1733,0.000537097,0.0529238,21.0266,-344.809,0.0104943,0.0,0.0
1228,306.75,156.943,179.542,129.605,98.2638,98.5753,0.000515067,0.052598,21.0273,-344.819,-0.0281234,0.0,0.0
1232,307.75,155.882,178.199,128.171,98.2738,98.536,0.000541869,0.0522376,21.0277,-344.839,-0.0236801,0.0,0.0
1236,308.75,154.415,175.749,129.545,98.2622,98.1713,0.000582591,0.0519034,21.028,-344.839,0.00822985,0.0,0.0
1240,309.75,153.131,174.364,132.258,98.2614,98.5598,0.000615988,0.0516166,21.0282,-344.849,-0.0269382,0.0,0.0
1244,310.75,151.279,172.093,130.49,98.2666,98.2224,0.00065431,0.0513169,21.0283,-344.819,0.00399571,0.0,0.0
1248,311.75,149.749,170.3,127.23,98.263,98.2568,0.000699304,0.0509745,21.0292,-344.789,0.000560333,0.0,0.0
1252,312.75,148.865,168.393,129.591,98.2618,98.3706,0.000753603,0.0507113,21.0297,-344.839,-0.0098333,0.0,0.0
1256,313.75,146.987,166.371,131.095,98.2646,98.3858,0.000799006,0.0504653,21.0301,-344.849,-0.0109495,0.0,0.0
1260,314.75,146.164,165.231,128.548,98.2698,98.4808,0.000869869,0.0502519,21.0304,-344.829,-0.0190549,0.0,0.0
1264,315.75,144.705,162.872,130.152,98.2754,98.4693,0.00097002,0.0499654,21.0292,-344.829,-0.0175163,0.0,0.0
1268,316.75,143.553,161.651,132.848,98.2718,98.7473,0.00100639,0.0497966,21.0284,-344.839,-0.0428886,0.0,0.0
1272,317.75,142.125,159.884,129.468,98.271,98.2683,0.00100982,0.0496911,21.028,-344.839,0.000244687,0.0,0.0
1276,318.75,141.05,157.756,129.558,98.2833,98.403,0.000986782,0.049493,21.0276,-344.839,-0.0108095,0.0,0.0
1280,319.75,140.068,156.724,129.639,98.2674,98.1246,0.000927961,0.0493209,21.0274,-344.849,0.0129232,0.0,0.0
1284,320.75,139.276,155.557,130.244,98.2746,98.1283,0.00085006,0.0491742,21.0274,-344.859,0.0132384,0.0,0.0
1288,321.75,138.496,153.772,131.578,98.2774,98.473,0.000769711,0.0489616,21.0281,-344.829,-0.0176686,0.0,0.0
1292,322.75,136.178,151.508,131.622,98.275,98.5851,0.000712456,0.0487629,21.0284,-344.849,-0.0280007,0.0,0.0
1296,323.75,135.75,150.585,130.147,98.2885,98.5262,0.000626796,0.0486221,21.0287,-344.849,-0.0214612,0.0,0.0
1300,324.75,134.804,149.487,132.872,98.2722,98.0538,0.000551202,0.0485369,21.0289,-344.879,0.0197714,0.0,0.0
1304,325.75,134.129,147.417,128.733,98.2754,98.301,0.000484297,0.0485065,21.029,-344.849,-0.00232009,0.0,0.0
1308,326.75,132.673,146.309,130.15,98.279,98.4455,0.000413419,0.0484051,21.0291,-344.809,-0.015049,0.0,0.0
1312,327.75,132.126,145.225,131.113,98.2833,98.1876,0.000357647,0.048241,21.0291,-344.849,0.00865633,0.0,0.0
1316,328.75,131.03,143.925,130.233,98.2794,98.4791,0.000329638,0.0481089,21.0291,-344.879,-0.0180428,0.0,0.0
1320,329.75,130.531,141.98,131.578,98.277,98.2478,0.00031872,0.0480222,21.0294,-344.829,0.00263612,0.0,0.0
1324,330.75,128.884,141.181,133.01,98.279,98.4877,0.000312941,0.0479249,21.0301,-344.839,-0.0188542,0.0,0.0
1328,331.75,128.279,140.572,131.791,98.2989,98.482,0.000305717,0.0478417,21.0306,-344.859,-0.0165367,0.0,0.0
1332,332.75,127.689,139.372,129.018,98.2762,97.9637,0.000304867,0.0478116,21.0309,-344.839,0.0282976,0.0,0.0
1336,333.75,127.064,138.091,130.192,98.2786,98.342,0.000314229,0.0477758,21.0311,-344.829,-0.00573194,0.0,0.0
1340,334.75,125.594,137.176,128.159,98.2766,98.3956,0.000325246,0.0477233,21.0313,-344.829,-0.0107559,0.0,0.0
1344,335.75,125.491,135.642,129.615,98.2694,98.5741,0.000345552,0.0476716,21.0314,-344.809,-0.0275087,0.0,0.0
1348,336.75,124.29,134.763,130.683,98.275,97.8937,0.000356694,0.0475889,21.0314,-344.829,0.0345411,0.0,0.0
1352,337.75,123.496,134.236,130.936,98.2805,98.1479,0.000365209,0.0475538,21.0315,-344.849,0.0119997,0.0,0.0
1356,338.75,122.754,132.62,131.527,98.2881,98.3972,0.000371771,0.0475225,21.0308,-344.879,-0.00985928,0.0,0.0
1360,339.75,122.148,131.274,129.215,98.2857,97.8753,0.0003325,0.0474371,21.0298,-344.879,0.0371859,0.0,0.0
1364,340.75,121.429,130.564,129.927,98.2746,97.7742,0.000267541,0.0473374,21.0292,-344.889,0.0453625,0.0,0.0
1368,341.75,120.464,129.67,133.142,98.2837,97.969,0.000194454,0.0473104,21.0287,-344.839,0.0284983,0.0,0.0
1372,342.75,120.41,128.774,132.53,98.2758,97.9539,0.000141358,0.04738,21.0284,-344.839,0.0291518,0.0,0.0
1376,343.75,119.944,127.328,132.4,98.2706,97.8863,0.000108744,0.0474059,21.0283,-344.859,0.0348133,0.0,0.0
1380,344.75,118.718,126.485,132.912,98.2797,98.1549,0.000101087,0.0473767,21.0281,-344.879,0.0112962,0.0,0.0
1384,345.75,118.389,125.513,132.472,98.2734,98.3334,0.000118057,0.0473466,21.0281,-344.879,-0.0054235,0.0,0.0
1388,346.75,117.795,124.744,132.386,98.2794,98.2789,0.000158782,0.0472292,21.028,-344.869,3.81334e-05,0.0,0.0
1392,347.75,116.819,123.795,133.473,98.2897,98.396,0.000205023,0.0471522,21.028,-344.849,-0.00960424,0.0,0.0
1396,348.75,115.95,122.536,130.422,98.275,98.2593,0.000247059,0.0470773,21.028,-344.879,0.0014193,0.0,0.0
1400,349.75,115.184,122.057,132.118,98.2758,97.8536,0.000272461,0.0469549,21.0279,-344.869,0.0382555,0.0,0.0
1404,350.75,115.019,120.611,134.242,98.2825,97.7582,0.000271699,0.0468746,21.0279,-344.839,0.0475332,0.0,0.0
1408,351.75,113.735,120.082,134.048,98.2802,98.2077,0.000251598,0.0468027,21.0279,-344.859,0.00655337,0.0,0.0
1412,352.75,113.482,119.193,131.666,98.2754,97.8519,0.000251502,0.0467774,21.0284,-344.849,0.0383683,0.0,0.0
1416,353.75,113.138,119.214,132.473,98.2833,98.028,0.000275448,0.0467825,21.029,-344.839,0.023117,0.0,0.0
1420,354.75,112.7,118.183,133.433,98.2849,97.2948,0.000316386,0.046759,21.0295,-344.839,0.0899724,0.0,0.0
1424,355.75,111.38,116.842,136.083,98.2849,97.5379,0.000352096,0.0467083,21.03,-344.869,0.0677911,0.0,0.0
1428,356.75,111.412,116.964,132.787,98.2802,97.9969,0.000389874,0.0466153,21.0304,-344.849,0.0256501,0.0,0.0
1432,357.75,110.645,115.535,130.102,98.2797,97.8736,0.000427033,0.0464823,21.0314,-344.839,0.0367935,0.0,0.0
1436,358.75,110.679,114.968,129.935,98.2841,98.2503,0.00049068,0.0463951,21.0321,-344.889,0.00306287,0.0,0.0
1440,359.75,110.083,114.326,132.433,98.2817,97.8847,0.000569548,0.0463378,21.0319,-344.869,0.0359707,0.0,0.0
1444,360.75,109.684,113.665,133.019,98.2718,98.4799,0.000638762,0.0463138,21.0319,-344.849,-0.0188006,0.0,0.0
1448,361.75,108.661,112.939,133.635,98.2829,97.5502,0.000667285,0.0463089,21.032,-344.879,0.0664927,0.0,0.0
1452,362.75,108.324,112.022,133.413,98.2825,97.2231,0.000672318,0.0462922,21.031,-344.829,0.0963015,0.0,0.0
1456,363.75,108.015,111.307,133.705,98.2758,97.6051,0.00064943,0.0462703,21.0304,-344.889,0.0608493,0.0,0.0
1460,364.75,107.366,110.87,133.358,98.2794,97.4835,0.00061914,0.0461983,21.03,-344.869,0.0722482,0.0,0.0
1464,365.75,106.817,109.977,132.145,98.2794,97.9969,0.000590671,0.0461356,21.0298,-344.859,0.0255783,0.0,0.0
1468,366.75,106.566,109.621,132.222,98.2809,97.3771,0.000578276,0.0461086,21.0296,-344.849,0.0821002,0.0,0.0
1472,367.75,105.766,108.757,136.571,98.2929,97.3521,0.000587931,0.0461397,21.0295,-344.859,0.0854602,0.0,0.0
1476,368.75,104.825,107.81,135.163,98.2841,97.7123,0.000601867,0.0461876,21.0298,-344.839,0.0518456,0.0,0.0
1480,369.75,105.22,107.588,131.415,98.2853,97.5478,0.000601785,0.0461946,21.0304,-344.859,0.0669332,0.0,0.0
1484,370.75,104.631,107.275,135.342,98.275,97.7168,0.000568729,0.0461819,21.0308,-344.859,0.0506082,0.0,0.0
1488,371.75,104.27,106.068,134.982,98.2841,97.8352,0.000521864,0.0461736,21.0311,-344.829,0.0406852,0.0,0.0
1492,372.75,103.447,105.535,130.124,98.2813,97.3865,0.000478746,0.046095,21.0312,-344.839,0.0812763,0.0,0.0
1496,373.75,103.149,105.403,133.221,98.2726,97.5916,0.000439559,0.0460703,21.0314,-344.849,0.0617908,0.0,0.0
1500,374.75,102.49,104.388,134.188,98.2698,97.5867,0.000398595,0.0461164,21.0308,-344.879,0.0619854,0.0,0.0
1504,375.75,102.111,104.163,133.733,98.2786,97.7074,0.000354455,0.046139,21.0309,-344.869,0.0517888,0.0,0.0
1508,376.75,102.439,102.918,135.424,98.2642,97.1155,0.000315869,0.046121,21.031,-344.879,0.10449,0.0,0.0
1512,377.75,101.391,102.958,131.942,98.2638,97.3496,0.000285162,0.046116,21.0309,-344.859,0.0830542,0.0,0.0
1516,378.75,101.183,101.997,136.834,98.2734,97.5695,0.000272981,0.046129,21.0309,-344.859,0.0638755,0.0,0.0
1520,379.75,100.932,101.799,131.161,98.2686,97.4188,,0.046162,,-344.839,0.0771735,0.0,0.0
1524,380.75,100.552,101.565,135.186,98.2682,97.6358,,0.0461349,,-344.839,0.0573695,0.0,0.0
1528,381.75,100.444,100.768,132.978,98.2598,97.5453,,0.0460683,,-344.859,0.0648514,0.0,0.0
1532,382.75,99.3046,100.443,133.48,98.2766,96.4531,,,,-344.879,0.166421,0.0,0.0
1536,383.75,99.0616,99.6848,131.407,98.2754,97.4164,,,,-344.819,0.0780104,0.0,0.0
1540,384.75,98.7573,99.1618,130.707,98.2714,97.3934,,,,-344.829,0.0797416,0.0,0.0
1544,385.75,98.4968,98.7212,136.234,98.2638,97.05,,,,-344.849,0.110449,0.0,0.0
1548,386.75,98.4379,98.2519,137.124,98.2658,97.0119,,,,-344.849,0.114116,0.0,0.0
1552,387.75,97.4484,98.0563,136.905,98.2722,97.0405,,,,-344.859,0.112068,0.0,0.0
1556,388.75,97.7605,97.6926,133.706,98.271,96.8936,,,,-344.829,0.125428,0.0,0.0
1560,389.75,97.5672,96.7854,136.72,98.279,97.1228,,,,-344.829,0.105148,0.0,0.0
1562,390.25,97.276,96.7228,132.936,98.2722,97.7254,,,,-344.839,0.0495738,0.0,0.0