File: 01_Data/Black_PMMA/Cone/Black_PMMA_Cone_HF25Scan_220309_R1.csv
Names,Time,Stack TC,Smoke TC,Exh Press,Smoke Comp,Smoke Meas,CO Meter,CO2 Meter,O2 Meter,Sample Mass,Ext Coeff,Start Test,Flame Verif
Chan Gain,,500,500,1,1,1,1,1,1,1,1,1.0,1.0
Offset,,0,0,0.134647,0,0,0,0,0,0,0,0.0,0.0
Gain,,1,1,25.011,13.2859,13.1681,1,1,1,1.00096,0.993885,1.0,1.0
Units,sec,C,C,Pa,%,%,%,%,%,g,/m,,
Baseline,,16.9235,17.4311,165.179,99.9874,96.2545,0.00108421,0.0716553,20.982,-870.724,0.331797,,
7,1.5,15.3359,16.1658,166.005,100.239,96.3503,0.00074665,0.0759702,20.9785,-285.004,0.344928,0.0,0.0
14,3.25,15.5671,16.1821,162.635,100.241,96.9695,0.000774144,0.075821,20.9778,-285.054,0.289319,0.0,0.0
21,5,15.7675,16.2195,167.781,100.235,96.4077,0.000805977,0.0761372,20.9776,-285.004,0.339411,0.0,0.0
28,6.75,15.358,15.9578,165.234,100.207,96.9169,0.000831288,0.0763585,20.977,-285.014,0.29109,0.0,0.0
35,8.5,15.6719,16.3599,165.855,100.232,96.4813,0.000867816,0.0762757,20.9788,-285.044,0.332481,0.0,0.0
42,10.25,15.5954,16.2667,169.36,100.177,96.5307,0.000906538,0.0757978,20.9808,-285.014,0.323219,0.0,0.0
49,12,15.5299,16.2894,163.035,100.143,96.7541,0.0009674,0.075179,20.9817,-285.024,0.300133,0.0,0.0
56,13.75,15.8921,16.6773,164.902,100.092,96.7766,0.00102763,0.0749216,20.9822,-284.984,0.293657,0.0,0.0
63,15.5,16.2003,16.3753,167.184,100.046,96.589,0.00104792,0.0752217,20.9824,-284.984,0.306552,0.0,0.0
70,17.25,15.9561,16.6698,170.274,99.995,96.3402,0.00106958,0.076156,20.9825,-285.004,0.324617,0.0,0.0
77,19,16.2229,16.3447,162.586,99.9301,95.8941,0.00114249,0.0774621,20.9813,-285.024,0.359419,0.0,0.0
84,20.75,15.4104,16.4515,166.534,99.8676,96.2301,0.00124316,0.0784798,20.9798,-284.994,0.323479,0.0,0.0
91,22.5,15.8595,16.7345,158.973,99.7963,96.6235,0.00128257,0.079395,20.9788,-285.024,0.281677,0.0,0.0
98,24.25,15.7963,15.8602,168.543,99.7347,96.4419,0.00124867,0.0801068,20.9775,-285.004,0.292695,0.0,0.0
105,26,16.0084,16.2473,167.254,99.6633,96.116,0.00120502,0.0803389,20.9777,-285.004,0.315968,0.0,0.0
112,27.75,15.9621,17.0865,167.579,99.5883,96.0416,0.00117867,0.0800298,20.9778,-284.994,0.316149,0.0,0.0
119,29.5,16.1344,16.177,160.357,99.5149,96.382,0.00120806,0.0794387,20.9776,-285.004,0.27888,0.0,0.0
126,31.25,16.0202,16.9392,168.535,99.463,96.3567,0.00126773,0.0789824,20.9769,-284.994,0.276622,0.0,0.0
133,33,15.6626,16.6838,165.28,99.3754,96.2257,0.00126015,0.0787136,20.9766,-285.004,0.280803,0.0,0.0
140,34.75,16.5013,16.5591,166.092,99.3235,95.895,0.00123064,0.0784771,20.9764,-285.004,0.306266,0.0,0.0
147,36.5,15.914,16.8666,163.1,99.2331,95.6892,0.00119777,0.0783706,20.9755,-285.004,0.317052,0.0,0.0
154,38.25,16.261,16.5744,161.712,99.1865,96.1634,0.00110567,0.0791989,20.9743,-285.014,0.269856,0.0,0.0
161,40,15.6912,16.8128,165.931,99.1305,95.6084,0.000948606,0.0812408,20.9721,-285.024,0.315397,0.0,0.0
168,41.75,16.1944,16.6387,163.897,99.062,95.8777,0.000911379,0.0834724,20.9697,-285.044,0.284851,0.0,0.0
175,43.5,15.7224,16.8105,161.815,99.0028,95.0908,0.000963082,0.0852112,20.9682,-285.024,0.351483,0.0,0.0
182,45.25,15.8927,17.0232,164.072,98.9586,95.6647,0.000969524,0.085916,20.968,-285.014,0.295136,0.0,0.0
189,47,16.5155,16.4532,164.39,98.9311,95.7077,0.000876972,0.0858238,20.9682,-285.034,0.288789,0.0,0.0
196,48.75,16.8904,16.504,164.427,98.8994,95.129,0.000828388,0.0849077,20.9683,-285.044,0.338876,0.0,0.0
203,50.5,16.1669,16.9018,166.536,98.8617,95.8065,0.000856882,0.0835584,20.9708,-285.054,0.273676,0.0,0.0
210,52.25,16.0938,16.9427,166.584,98.8402,95.6056,0.000961179,0.082169,20.9726,-285.054,0.290085,0.0,0.0
217,54,16.4797,16.9132,163.616,98.8333,95.2861,0.00113361,0.0813189,20.9745,-285.044,0.318659,0.0,0.0
224,55.75,16.4586,16.7446,165.827,98.837,95.6567,0.0011751,0.0814977,20.9732,-285.044,0.285146,0.0,0.0
231,57.5,16.4143,16.9314,166.183,98.8419,96.1381,0.00105118,0.0817366,20.9717,-285.054,0.241807,0.0,0.0
238,59.25,17.0416,17.0948,162.193,98.8532,95.4778,0.000942333,0.0815523,20.9709,-285.095,0.30289,0.0,0.0
245,61,16.5968,16.7869,163.287,98.8755,95.5654,0.000924915,0.081116,20.9705,-285.074,0.296861,0.0,0.0
252,62.75,16.3534,17.3376,164.963,98.9238,95.9918,0.00093567,0.0804505,20.9711,-285.074,0.262303,0.0,0.0
259,64.5,16.5182,16.9107,162.804,98.9473,96.0352,0.000879954,0.0792715,20.972,-285.054,0.260435,0.0,0.0
266,66.25,16.4453,17.1678,166.632,98.9992,95.3657,0.000772633,0.077862,20.9741,-285.044,0.325997,0.0,0.0
273,68,16.6943,16.8327,165.954,99.0434,95.4517,0.000666476,0.0764939,20.9759,-285.064,0.322031,0.0,0.0
280,69.75,16.1823,16.8638,167.153,99.1086,95.9384,0.000619361,0.0749289,20.9778,-285.074,0.283438,0.0,0.0
287,71.5,16.7945,16.8888,160.596,99.1711,95.7869,0.000622405,0.0737037,20.9786,-285.074,0.302707,0.0,0.0
294,73.25,16.6049,16.7844,162.525,99.2477,95.8873,0.000656969,0.0729884,20.9783,-285.054,0.300302,0.0,0.0
301,75,16.5858,17.1866,164.138,99.3175,96.2932,0.000711359,0.072963,20.9777,-285.054,0.269601,0.0,0.0
308,76.75,16.2326,16.8002,163.535,99.3953,95.8576,0.000794332,0.0735926,20.9766,-285.064,0.315961,0.0,0.0
315,78.5,16.8699,17.2349,162.896,99.5011,96.3169,0.000860894,0.0748306,20.9753,-285.074,0.283562,0.0,0.0
322,80.25,16.505,17.5179,163.609,99.5749,96.0939,0.00092517,0.0766582,20.9727,-285.085,0.310238,0.0,0.0
329,82,16.761,17.7829,166.276,99.6674,96.1019,0.00102461,0.0781196,20.9715,-285.085,0.317597,0.0,0.0
336,83.75,17.1417,17.1782,167.217,99.7493,96.5086,0.00109794,0.0789432,20.9709,-285.095,0.287944,0.0,0.0
343,85.5,16.9844,17.3357,154.501,99.8405,96.6083,0.00106068,0.078799,20.9717,-285.095,0.286915,0.0,0.0
350,87.25,16.5676,17.2095,161.608,99.9398,96.5508,0.000984178,0.0782521,20.9729,-285.115,0.300773,0.0,0.0
357,89,17.2564,17.1834,169.972,100.032,96.8019,0.000947666,0.077283,20.9746,-285.085,0.286148,0.0,0.0
364,90.75,17.0381,17.5885,162.306,100.12,96.6191,0.000932322,0.0761846,20.9765,-285.085,0.310331,0.0,0.0
371,92.5,16.3454,16.7532,166.057,100.216,96.7131,0.000887853,0.076105,20.9762,-285.105,0.310144,0.0,0.0
378,94.25,17.0064,17.344,165.834,100.31,97.1644,0.000865498,0.0771672,20.9744,-285.125,0.277771,0.0,0.0
385,96,16.8825,17.0863,166.947,100.394,97.4642,0.000930275,0.0784791,20.9728,-285.135,0.258204,0.0,0.0
392,97.75,16.4474,17.2718,169.537,100.459,97.3131,0.000998153,0.0788875,20.972,-285.145,0.277398,0.0,0.0
399,99.5,16.8697,17.5738,167.32,100.52,96.9458,0.000956178,0.0787854,20.9719,-285.145,0.315643,0.0,0.0
406,101.25,16.7039,17.3077,168.454,100.604,96.8763,0.000939154,0.0793458,20.9711,-285.155,0.329138,0.0,0.0
413,103,16.7803,17.5468,163.928,100.665,97.539,0.00100058,0.0807718,20.9692,-285.105,0.275045,0.0,0.0
420,104.75,16.6753,17.4614,166.032,100.715,97.4702,0.00114165,0.0814846,20.9682,-285.175,0.285507,0.0,0.0
427,106.5,17.2827,17.4849,165.324,100.749,97.3907,0.00129154,0.0814055,20.9677,-285.175,0.295575,0.0,0.0
434,108.25,16.9751,17.8828,156.806,100.807,96.7706,0.00147394,0.0866585,20.961,-285.225,0.356241,0.0,0.0
441,110,17.1715,18.0213,160.37,100.848,96.4865,0.00166198,0.100511,20.936,-285.255,0.385487,0.0,1.0
448,111.75,16.9088,17.736,159.463,100.873,95.9572,0.00184875,0.124318,20.8868,-285.385,0.435577,0.0,1.0
455,113.5,17.5233,18.1997,151.975,100.892,93.8832,0.0020328,0.165305,20.826,-285.435,0.627725,0.0,1.0
462,115.25,17.9147,18.5496,153.217,100.908,91.4685,0.00231385,0.217416,20.7587,-285.535,0.856304,0.0,1.0
469,117,18.947,19.1337,155.029,100.93,92.3783,0.00263018,0.267349,20.6956,-285.625,0.771871,0.0,0.0
476,118.75,19.9147,20.0587,144.388,100.925,92.5209,0.00296756,0.320951,20.6222,-285.765,0.757997,0.0,0.0
483,120.5,21.1189,21.7809,143.888,100.932,92.0998,0.00327272,0.365533,20.5677,-285.915,0.798404,0.0,0.0
490,122.25,22.8151,22.924,150.463,100.928,92.1958,0.00355284,0.410095,20.5233,-286.075,0.788896,0.0,0.0
497,124,24.1072,24.2613,138.695,100.921,91.6264,0.00374686,0.446223,20.4738,-286.206,0.842385,0.0,0.0
504,125.75,25.4393,25.8754,140.913,100.891,92.8465,0.00392502,0.483532,20.4188,-286.406,0.724401,0.0,0.0
511,127.5,26.4226,26.9484,135.121,100.876,91.0204,0.00404836,0.518179,20.369,-286.546,0.896314,0.0,0.0
518,129.25,28.8085,29.4732,140.463,100.835,91.6385,0.00420572,0.547016,20.3366,-286.756,0.833774,0.0,0.0
525,131,29.8823,30.6541,138.305,100.804,91.7671,0.00443488,0.568953,20.3093,-286.966,0.818884,0.0,0.0
532,132.75,31.7309,32.4133,138.978,100.779,91.5219,0.00469938,0.587145,20.2766,-287.156,0.839994,0.0,0.0
539,134.5,33.3545,34.1795,137.525,100.738,90.5775,0.00484875,0.607846,20.2476,-287.327,0.926879,0.0,0.0
546,136.25,35.727,35.8137,137.289,100.691,90.2504,0.00485224,0.627239,20.2243,-287.557,0.954384,0.0,0.0
553,138,36.9622,38.1351,127.241,100.642,90.7925,0.00475727,0.642378,20.2043,-287.717,0.897924,0.0,0.0
560,139.75,38.6535,39.5282,139.683,100.604,90.7805,0.00470272,0.655412,20.187,-287.937,0.895744,0.0,0.0
567,141.5,40.0915,41.1853,140.246,100.565,90.6567,0.00482237,0.664845,20.1747,-288.137,0.904336,0.0,0.0
574,143.25,41.7881,42.8804,131.263,100.522,90.6459,0.00510307,0.672955,20.1637,-288.348,0.901652,0.0,0.0
581,145,43.0505,44.3569,128.53,100.477,90.805,0.00532581,0.681178,20.1561,-288.558,0.882421,0.0,0.0
588,146.75,44.4978,46.0043,129.424,100.441,90.6113,0.00548247,0.68962,20.1445,-288.788,0.897941,0.0,0.0
595,148.5,45.7315,47.4276,127.849,100.4,90.2416,0.00554034,0.698864,20.1353,-288.978,0.929961,0.0,0.0
602,150.25,47.1868,49.0498,134.816,100.352,89.7332,0.00547611,0.704844,20.1264,-289.229,0.975091,0.0,0.0
609,152,48.2539,50.7006,134.608,100.314,89.5508,0.00547928,0.712128,20.1167,-289.429,0.989559,0.0,0.0
616,153.75,49.3786,52.036,137.993,100.271,89.8325,0.00556029,0.715515,20.1115,-289.649,0.95844,0.0,0.0
623,155.5,50.8005,53.5427,138.848,100.238,89.4885,0.0056708,0.721068,20.1019,-289.859,0.988963,0.0,0.0
630,157.25,52.1776,54.5507,133.154,100.2,89.7618,0.0057867,0.728533,20.0927,-290.099,0.959065,0.0,0.0
637,159,52.7528,56.2712,129.358,100.175,90.2794,0.00587413,0.733203,20.0874,-290.32,0.906785,0.0,0.0
644,160.75,53.962,57.3972,134.317,100.15,89.2494,0.00590831,0.735311,20.0837,-290.52,1.00467,0.0,0.0
651,162.5,54.5099,58.0564,128.618,100.15,89.6681,0.00593354,0.739211,20.0777,-290.78,0.96386,0.0,0.0
658,164.25,56.3138,59.7129,136.328,100.237,89.8787,0.00593792,0.745711,20.0688,-290.98,0.950924,0.0,0.0
665,166,57.2073,60.2914,135.241,100.31,88.7258,0.0059329,0.752711,20.0613,-291.22,1.0699,0.0,0.0
672,167.75,58.1384,62.1961,136.754,100.403,89.7565,0.00595853,0.758156,20.0551,-291.451,0.977229,0.0,0.0
679,169.5,59.1981,62.5502,127.391,100.442,89.9707,0.00606938,0.761734,20.0517,-291.661,0.959828,0.0,0.0
686,171.25,60.2685,64.2086,137.38,100.507,88.9283,0.00620456,0.765115,20.0475,-291.931,1.06713,0.0,0.0
693,173,61.0226,65.1012,132.334,100.565,89.7164,0.00629793,0.769858,20.0388,-292.161,0.995205,0.0,0.0
700,174.75,62.0631,66.3078,134.287,100.614,90.162,0.00637889,0.776776,20.0275,-292.361,0.956256,0.0,0.0
707,176.5,63.1992,67.1581,127.41,100.641,89.7353,0.00650055,0.782481,20.0214,-292.582,0.999975,0.0,0.0
714,178.25,64.058,67.9897,130.243,100.684,90.6889,0.00661899,0.784533,20.0184,-292.832,0.911501,0.0,0.0
721,180,64.5588,69.4861,131.872,100.711,90.2171,0.00664779,0.785988,20.0159,-293.042,0.959362,0.0,0.0
728,181.75,65.2288,70.6161,133.539,100.731,89.6187,0.00659528,0.788195,20.0103,-293.282,1.01906,0.0,0.0
735,183.5,66.1099,71.3806,128.609,100.728,89.6633,0.00650628,0.793286,20.0036,-293.533,1.01452,0.0,0.0
742,185.25,67.1485,71.8745,128.865,100.745,90.3272,0.00644733,0.800198,19.9956,-293.813,0.951641,0.0,0.0
749,187,67.8468,72.917,132.671,100.748,89.4986,0.00640257,0.807471,19.9852,-294.083,1.03227,0.0,0.0
756,188.75,68.4192,73.7853,128.836,100.735,89.9398,0.00638945,0.815493,19.9757,-294.283,0.988235,0.0,0.0
763,190.5,69.2673,74.5262,127.706,100.719,90.4964,0.00640992,0.82035,19.9712,-294.534,0.93308,0.0,0.0
770,192.25,70.1713,75.7731,133.533,100.708,89.9872,0.00646662,0.820989,19.9702,-294.784,0.981288,0.0,0.0
777,194,70.5457,76.8938,127.848,100.692,89.5182,0.00651639,0.820253,19.9708,-294.984,1.02544,0.0,0.0
784,195.75,70.894,76.9019,126.659,100.655,89.1835,0.00653668,0.818992,19.9712,-295.284,1.05494,0.0,0.0
791,197.5,71.9989,78.1682,130.988,100.623,90.2167,0.00655004,0.818773,19.9714,-295.505,0.951712,0.0,0.0
798,199.25,72.1262,79.1082,128.85,100.575,89.5058,0.00655265,0.820715,19.969,-295.755,1.01653,0.0,0.0
805,201,72.8167,79.6038,122.082,100.533,89.0199,0.00657295,0.827222,19.958,-296.035,1.0604,0.0,0.0
812,202.75,73.3073,79.8145,130.171,100.479,89.3933,0.00667447,0.836784,19.9416,-296.245,1.01924,0.0,0.0
819,204.5,74.5041,80.9605,129.709,100.417,89.4704,0.00678964,0.848033,19.928,-296.495,1.0063,0.0,0.0
826,206.25,74.8433,81.2062,116.757,100.349,89.4564,0.00683026,0.854203,19.9227,-296.756,1.00175,0.0,0.0
833,208,75.8379,82.5916,130.47,100.272,89.3969,0.00678563,0.852065,19.925,-297.046,1.00086,0.0,0.0
840,209.75,75.7338,83.6089,129.141,100.215,89.6573,0.00664494,0.850387,19.9257,-297.316,0.970524,0.0,0.0
847,211.5,76.6063,83.8128,124.779,100.117,88.7812,0.00649445,0.851771,19.9228,-297.526,1.04763,0.0,0.0
854,213.25,77.0387,84.5217,125.613,100.025,89.2667,0.00641046,0.854689,19.9196,-297.817,0.992102,0.0,0.0
861,215,77.5105,85.0514,126.423,99.9293,88.1905,0.00650416,0.858365,19.9179,-298.027,1.08947,0.0,0.0
868,216.75,78.2948,85.2948,125.45,99.9431,89.3438,0.00668102,0.863777,19.9107,-298.287,0.977392,0.0,0.0
875,218.5,78.6082,86.5957,137.291,99.954,88.4304,0.00686745,0.869191,19.9029,-298.578,1.06794,0.0,0.0
882,220.25,79.1425,87.3293,122.135,99.9674,87.6448,0.00696924,0.874359,19.8974,-298.828,1.14691,0.0,0.0
889,222,79.9318,87.7864,124.432,99.9832,88.5731,0.00693843,0.878592,19.8911,-299.088,1.05643,0.0,0.0
896,223.75,80.1116,88.2634,130.331,100.006,88.9086,0.00687259,0.882491,19.8866,-299.328,1.02548,0.0,0.0
903,225.5,80.4614,89.045,125.936,100.025,89.2165,0.00691375,0.885468,19.8823,-299.558,0.996974,0.0,0.0
910,227.25,81.3587,89.5468,123.62,100.046,89.4616,0.00704849,0.891515,19.8751,-299.859,0.97489,0.0,0.0
917,229,81.6701,89.6108,128.026,100.07,89.2333,0.00717216,0.89576,19.8702,-300.139,0.999246,0.0,0.0
924,230.75,82.5928,90.6983,120.607,100.069,88.3846,0.00724052,0.897006,19.8676,-300.439,1.0825,0.0,0.0
931,232.5,82.3932,90.7627,126.826,100.111,88.3086,0.0072736,0.898346,19.8655,-300.659,1.09363,0.0,0.0
938,234.25,83.5445,91.5967,129.447,100.126,89.1084,0.00736256,0.903778,19.8577,-300.94,1.01637,0.0,0.0
945,236,83.4214,92.7506,127.687,100.138,89.1779,0.00748095,0.910007,19.8493,-301.21,1.01056,0.0,0.0
952,237.75,84.3847,93.06,126.142,100.151,88.8913,0.00749531,0.916588,19.8428,-301.48,1.03979,0.0,0.0
959,239.5,84.6189,93.5599,121.424,100.163,88.2102,0.00746591,0.918588,19.8382,-301.751,1.10791,0.0,0.0
966,241.25,84.4665,93.9651,126.239,100.184,89.4965,0.00743629,0.91963,19.833,-302.021,0.983524,0.0,0.0
973,243,85.582,94.8707,130.581,100.196,89.2526,0.0074231,0.923971,19.8259,-302.251,1.00838,0.0,0.0
980,244.75,86.1023,95.33,126.844,100.205,89.4411,0.00733107,0.930541,19.8169,-302.541,0.990762,0.0,0.0
987,246.5,86.6466,95.9079,128.041,100.201,89.6493,0.00721271,0.936552,19.81,-302.822,0.970142,0.0,0.0
994,248.25,87.43,96.4801,117.888,100.237,89.0967,0.00721605,0.941588,19.8036,-303.122,1.02718,0.0,0.0
1001,250,87.6967,97.3553,128.487,100.235,88.5924,0.00732169,0.946796,19.795,-303.342,1.0765,0.0,0.0
1008,251.75,88.2915,97.7812,128.602,100.236,89.4539,0.00739424,0.953863,19.7861,-303.692,0.992189,0.0,0.0
1015,253.5,88.8627,98.294,123.148,100.232,88.8966,0.00739996,0.961484,19.7778,-303.993,1.04633,0.0,0.0
1022,255.25,89.1459,98.633,126.07,100.237,88.0438,0.00741406,0.971249,19.7643,-304.253,1.13079,0.0,0.0
1029,257,89.7279,99.4121,118.284,100.239,89.4266,0.00748995,0.979466,19.7517,-304.533,0.9951,0.0,0.0
1036,258.75,90.0354,100.353,127.921,100.235,88.4915,0.00761266,0.985914,19.7431,-304.894,1.08643,0.0,0.0
1043,260.5,90.2161,100.087,125.318,100.225,88.1129,0.00768178,0.991513,19.7381,-305.144,1.12292,0.0,0.0
1050,262.25,90.6674,101.11,120.711,100.216,88.9464,0.00762539,0.995494,19.7343,-305.434,1.04,0.0,0.0
1057,264,91.0897,100.848,126.002,100.216,88.4441,0.00760417,0.998739,19.7295,-305.684,1.08941,0.0,0.0
1064,265.75,92.4059,102.122,118.894,100.214,87.6267,0.00771956,1.00355,19.7252,-306.005,1.17022,0.0,0.0
1071,267.5,92.5675,102.866,121.338,100.21,88.9589,0.00794438,1.00573,19.7232,-306.335,1.03828,0.0,0.0
1078,269.25,93.2702,103.073,119.059,100.205,89.853,0.00823075,1.0009,19.7253,-306.585,0.950703,0.0,0.0
1085,271,93.5559,103.866,131.062,100.215,87.8003,0.00837536,0.998168,19.7266,-306.946,1.15303,0.0,0.0
1092,272.75,93.8535,104.267,118.76,100.216,89.2004,0.00834712,0.999299,19.7252,-307.166,1.01514,0.0,0.0
1099,274.5,94.1336,104.541,123.786,100.209,89.3049,0.00819712,1.0057,19.7165,-307.466,1.00437,0.0,0.0
1106,276.25,94.2258,105.029,117.598,100.198,89.4756,0.00806351,1.01775,19.7027,-307.716,0.986723,0.0,0.0
1113,278,95.2107,105.42,119.235,100.192,89.3937,0.00805658,1.02788,19.6922,-308.047,0.994186,0.0,0.0
1120,279.75,95.4449,106.379,124.983,100.184,88.9452,0.00811952,1.03046,19.684,-308.357,1.03736,0.0,0.0
1127,281.5,95.6622,106.59,119.323,100.184,88.3862,0.00825457,1.0347,19.6792,-308.587,1.09233,0.0,0.0
1134,283.25,96.2147,106.983,119.404,100.164,88.8777,0.00832683,1.04333,19.6707,-308.937,1.04222,0.0,0.0
1141,285,96.5218,107.438,124.264,100.143,87.8895,0.00825336,1.0555,19.6608,-309.238,1.13786,0.0,0.0
1148,286.75,97.1502,108.019,117.829,100.143,88.436,0.00814358,1.05825,19.6572,-309.508,1.08381,0.0,0.0
1155,288.5,97.6801,108.664,130.009,100.127,88.1989,0.00808659,1.05586,19.6572,-309.808,1.10584,0.0,0.0
1162,290.25,98.2607,108.859,123.284,100.109,88.8837,0.00801427,1.05353,19.6584,-310.109,1.03686,0.0,0.0
1169,292,98.448,109.386,116.517,100.087,87.8409,0.0079188,1.05321,19.6574,-310.379,1.13788,0.0,0.0
1176,293.75,99.0322,109.503,124.529,100.068,88.2114,0.00792975,1.05587,19.6521,-310.679,1.09953,0.0,0.0
1183,295.5,98.5962,109.897,122.016,100.05,89.8992,0.00810063,1.06059,19.6468,-310.969,0.932664,0.0,0.0
1190,297.25,99.4408,110.447,117.669,100.031,88.7853,0.00828799,1.06846,19.6376,-311.29,1.03971,0.0,0.0
1197,299,99.6525,110.674,123.921,100.001,87.9574,0.00834796,1.07559,19.6313,-311.66,1.1188,0.0,0.0
1204,300.75,100.421,111.382,120.35,99.9824,88.8078,0.00828696,1.07721,19.6254,-311.92,1.03329,0.0,0.0
1211,302.5,100.937,112.279,116.091,99.9581,89.0368,0.008235,1.07927,19.6225,-312.201,1.00871,0.0,0.0
1218,304.25,100.576,112.442,123.844,99.9423,88.3512,0.00833403,1.08037,19.6212,-312.521,1.07472,0.0,0.0
1225,306,101.59,112.594,117.862,99.9122,89.6247,0.00845456,1.08258,19.6196,-312.831,0.947337,0.0,0.0
1232,307.75,101.518,112.584,116.551,99.8916,89.0597,0.00853627,1.08842,19.611,-313.142,1.00067,0.0,0.0
1239,309.5,102.123,113.519,112.667,99.8664,88.3078,0.00854059,1.09312,19.6037,-313.482,1.07239,0.0,0.0
1246,311.25,102.149,114.366,127.233,99.8316,88.2062,0.00855098,1.09841,19.5946,-313.762,1.07939,0.0,0.0
1253,313,102.568,114.923,115.042,99.8158,87.6291,0.00854371,1.10356,19.5868,-314.052,1.13523,0.0,0.0
1260,314.75,103.656,114.734,114.21,99.7841,87.9908,0.00851319,1.11029,19.5759,-314.433,1.09656,0.0,0.0
1267,316.5,103.822,115.473,112.463,99.7675,86.8374,0.00846652,1.11941,19.5648,-314.683,1.21014,0.0,0.0
1274,318.25,104.223,115.997,119.278,99.7387,88.4023,0.00844118,1.1251,19.5584,-315.013,1.05191,0.0,0.0
1281,320,104.744,116.587,112.588,99.7099,88.608,0.00848063,1.12593,19.5542,-315.324,1.02913,0.0,0.0
1288,321.75,104.992,117.085,117.209,99.6876,87.6862,0.00858779,1.12922,19.5497,-315.644,1.11836,0.0,0.0
1295,323.5,105.361,117.906,119.193,99.6475,86.2825,0.00877807,1.13453,19.5443,-315.974,1.25554,0.0,0.0
1302,325.25,106.148,117.132,109.444,99.6219,86.2801,0.00895081,1.14015,19.5377,-316.325,1.25355,0.0,0.0
1309,327,105.825,118.729,114.91,99.5814,88.3938,0.00899246,1.14461,19.5345,-316.605,1.03898,0.0,0.0
1316,328.75,106.245,119.087,115.375,99.5518,88.7109,0.00893712,1.14498,19.533,-316.935,1.00518,0.0,0.0
1323,330.5,107.389,119.08,119.524,99.5323,88.6828,0.00888587,1.14522,19.5337,-317.245,1.00624,0.0,0.0
1330,332.25,106.849,118.861,112.826,99.5145,87.4784,0.00891748,1.15057,19.5277,-317.536,1.12389,0.0,0.0
1337,334,107.373,120.325,122.297,99.478,87.251,0.00900973,1.16043,19.5163,-317.876,1.14339,0.0,0.0
1344,335.75,107.715,119.691,115.376,99.4379,88.9368,0.00905242,1.1652,19.5103,-318.236,0.973026,0.0,0.0
1351,337.5,108.761,121.406,116.256,99.4062,88.1608,0.00898893,1.16433,19.5097,-318.537,1.04666,0.0,0.0
1358,339.25,108.828,120.676,121.834,99.3685,87.5017,0.00896876,1.16355,19.5096,-318.857,1.10877,0.0,0.0
1365,341,109.301,121.566,119.236,99.3466,87.0291,0.00900008,1.17039,19.4986,-319.157,1.15406,0.0,0.0
1372,342.75,110,122.121,115.494,99.3219,87.9241,0.00907416,1.17687,19.4901,-319.538,1.06269,0.0,0.0
1379,344.5,109.346,122.928,117.504,99.2964,89.0489,0.00918064,1.18127,19.485,-319.808,0.949627,0.0,0.0
1386,346.25,110.499,123.244,120.278,99.2635,88.4091,0.00916466,1.18643,19.4787,-320.148,1.0096,0.0,0.0
1393,348,110.759,123.504,118.825,99.2311,87.8039,0.00912925,1.18997,19.4734,-320.529,1.06664,0.0,0.0
1400,349.75,111.035,123.786,120.152,99.223,88.2733,0.00919934,1.19437,19.4669,-320.789,1.01945,0.0,0.0
1407,351.5,111.524,124.227,117.956,99.1978,86.0321,0.00936272,1.20128,19.4586,-321.129,1.24145,0.0,0.0
1414,353.25,112.214,124.549,117.999,99.1747,86.6534,0.00946224,1.20858,19.4502,-321.49,1.17668,0.0,0.0
1421,355,112.111,125.328,109.318,99.1504,87.5672,0.00945108,1.21737,19.4388,-321.85,1.08308,0.0,0.0
1428,356.75,112.653,125.853,118.488,99.1492,87.4772,0.00935728,1.2246,19.4329,-322.16,1.09194,0.0,0.0
1435,358.5,113.48,126.102,118.396,99.1484,87.9996,0.00927869,1.22492,19.4294,-322.47,1.03996,0.0,0.0
1442,360.25,113.657,126.573,117.611,99.135,87.8702,0.0092798,1.22366,19.43,-322.831,1.05161,0.0,0.0
1449,362,113.806,127.15,125.028,99.1297,88.0583,0.00927855,1.2237,19.4317,-323.131,1.03251,0.0,0.0
1456,363.75,114.484,127.406,113.939,99.1334,87.1204,0.00928102,1.22134,19.4319,-323.562,1.12619,0.0,0.0
1463,365.5,114.736,128.054,116.387,99.1459,87.2992,0.00929104,1.22188,19.4322,-323.842,1.10942,0.0,0.0
1470,367.25,115.034,128.455,119.564,99.1305,87.9317,0.00926237,1.22118,19.4334,-324.162,1.04512,0.0,0.0
1477,369,115.394,129.001,118.875,99.1224,88.7607,0.00919737,1.21668,19.4349,-324.472,0.962597,0.0,0.0
1484,370.75,114.947,128.485,119.582,99.1216,88.7732,0.00918886,1.21768,19.4353,-324.843,0.961301,0.0,0.0
1491,372.5,115.286,129.565,114.34,99.1192,86.6128,0.00925116,1.22919,19.4195,-325.223,1.17588,0.0,0.0
1498,374.25,116.311,129.808,118.663,99.1151,88.6623,0.00930985,1.23803,19.4096,-325.503,0.971631,0.0,0.0
1505,376,116.88,130.02,116.811,99.1111,87.4402,0.00931481,1.24054,19.4056,-325.844,1.09228,0.0,0.0
1512,377.75,117.096,130.517,121.211,99.0997,88.2697,0.00931959,1.24012,19.4069,-326.214,1.00897,0.0,0.0
1519,379.5,117.533,131.16,113.055,99.1103,88.3625,0.00936572,1.24049,19.4077,-326.454,1.00073,0.0,0.0
1526,381.25,117.624,131.528,118.889,99.1224,87.5515,0.0093463,1.23821,19.4121,-326.865,1.08218,0.0,0.0
1533,383,117.256,131.505,114.855,99.139,87.0352,0.00926511,1.23304,19.4156,-327.275,1.13522,0.0,0.0
1540,384.75,118.617,131.825,116.74,99.1508,87.8067,0.00927274,1.23462,19.4087,-327.545,1.05931,0.0,0.0
1547,386.5,118.15,132.439,106.943,99.178,87.4587,0.00942708,1.24761,19.3862,-327.856,1.09632,0.0,0.0
1554,388.25,119.186,132.149,112.283,99.1922,88.1415,0.00960931,1.26355,19.3654,-328.186,1.02977,0.0,0.0
1561,390,119.711,132.772,119.382,99.2096,87.6817,0.00970332,1.27671,19.3512,-328.636,1.07689,0.0,0.0
1568,391.75,119.738,133.884,101.414,99.2311,87.7629,0.00972219,1.28866,19.3416,-328.887,1.07071,0.0,0.0
1575,393.5,120.379,134.255,119.778,99.253,88.2845,0.00969065,1.293,19.3377,-329.237,1.02097,0.0,0.0
1582,395.25,120.75,134.676,116.942,99.2976,87.6854,0.00975152,1.29277,19.3387,-329.617,1.08426,0.0,0.0
1589,397,120.908,134.485,113.048,99.3235,87.5588,0.0099106,1.287,19.3471,-329.958,1.09913,0.0,0.0
1596,398.75,121.487,135.598,112.195,99.3637,87.083,0.0100019,1.27966,19.3521,-330.378,1.15016,0.0,0.0
1603,400.5,121.898,135.702,112.678,99.4111,88.5373,0.00978509,1.27858,19.3544,-330.738,1.00993,0.0,0.0
1610,402.25,121.828,135.969,116.667,99.4748,86.9222,0.00951803,1.28988,19.3405,-331.029,1.17601,0.0,0.0
1617,404,122.508,135.973,113.91,99.5165,87.9699,0.00943054,1.30114,19.3233,-331.399,1.07522,0.0,0.0
1624,405.75,122.414,136.466,112.536,99.5709,88.1419,0.0095018,1.31563,19.3029,-331.769,1.06295,0.0,0.0
1631,407.5,122.387,136.895,112.007,99.628,88.3512,0.00965081,1.32951,19.2842,-332.11,1.04727,0.0,0.0
1638,409.25,123.708,137.356,110.187,99.6771,88.0462,0.00982505,1.34248,19.2683,-332.47,1.08171,0.0,0.0
1645,411,124.003,137.705,112.936,99.7383,88.4698,0.00993665,1.36004,19.2455,-332.861,1.04522,0.0,0.0
1652,412.75,124.554,138.622,107.028,99.772,88.4043,0.0100002,1.37445,19.2327,-333.201,1.05462,0.0,0.0
1659,414.5,125.407,138.669,120.098,99.8348,88.9303,0.0100909,1.36601,19.2445,-333.591,1.00839,0.0,0.0
1666,416.25,125.214,140.029,112.3,99.892,88.8556,0.0102064,1.34728,19.2579,-333.962,1.02071,0.0,0.0
1673,418,125.599,139.953,121.764,99.937,88.0941,0.0103305,1.34307,19.2566,-334.292,1.09968,0.0,0.0
1680,419.75,125.987,140.596,110.289,99.9958,88.2142,0.0104115,1.35969,19.2378,-334.672,1.09292,0.0,0.0
1687,421.5,126.725,140.573,108.64,100.039,89.1759,0.0104312,1.38164,19.2149,-334.993,1.00218,0.0,0.0
1694,423.25,126.952,141.914,102.96,100.078,88.86,0.0103927,1.3969,19.1993,-335.453,1.03647,0.0,0.0
1701,425,127.524,142.462,116.928,100.116,89.0726,0.0103476,1.40552,19.189,-335.823,1.01896,0.0,0.0
1708,426.75,127.998,142.681,107.603,100.148,89.0091,0.0102832,1.40997,19.1837,-336.154,1.028,0.0,0.0
1715,428.5,128.066,143.271,108.641,100.169,89.0023,0.0101807,1.41284,19.1827,-336.484,1.0305,0.0,0.0
1722,430.25,129.236,144.081,113.901,100.184,88.7716,0.0100551,1.40608,19.1845,-336.864,1.05443,0.0,0.0
1729,432,129.386,144.418,108.424,100.199,88.4368,0.0100273,1.40187,19.1829,-337.235,1.08864,0.0,0.0
1736,433.75,129.711,144.395,109.169,100.207,88.7776,0.0100683,1.41546,19.1662,-337.605,1.05585,0.0,0.0
1743,435.5,130.222,145.4,108.042,100.221,89.3012,0.0101728,1.43284,19.1477,-338.056,1.00578,0.0,0.0
1750,437.25,131.134,146.084,109.954,100.223,88.2194,0.0103488,1.4436,19.1352,-338.426,1.11221,0.0,0.0
1757,439,130.928,146.684,108.343,100.233,89.2213,0.0105685,1.45001,19.1284,-338.806,1.01458,0.0,0.0
1764,440.75,131.523,147.013,112.112,100.238,88.6478,0.0107391,1.4527,19.1259,-339.147,1.07125,0.0,0.0
1771,442.5,132.306,147.592,114.821,100.22,88.4071,0.0108034,1.45253,19.1252,-339.537,1.09341,0.0,0.0
1778,444.25,132.764,147.519,109.007,100.194,88.178,0.0107323,1.44988,19.1273,-339.897,1.11377,0.0,0.0
1785,446,133.854,148.548,106.939,100.162,88.7965,0.0106199,1.44703,19.132,-340.318,1.05004,0.0,0.0
1792,447.75,133.64,149.384,114.8,100.113,88.385,0.0105893,1.44767,19.1333,-340.678,1.08627,0.0,0.0
1799,449.5,134.663,149.343,109.858,100.068,89.4025,0.0106086,1.45629,19.1243,-341.008,0.982592,0.0,0.0
1806,451.25,134.564,150.3,106.896,100.024,88.5429,0.0106208,1.46847,19.1032,-341.489,1.06293,0.0,0.0
1813,453,135.313,150.703,106.39,99.9771,88.7234,0.0106159,1.48436,19.0814,-341.859,1.04112,0.0,0.0
1820,454.75,135.893,150.94,112.289,99.9431,88.9605,0.0106439,1.49926,19.0648,-342.199,1.01488,0.0,0.0
1827,456.5,136.085,152.182,107.461,100.049,88.895,0.0108391,1.51302,19.0447,-342.63,1.03057,0.0,0.0
1834,458.25,137.08,152.469,114.361,100.258,89.1835,0.0111669,1.52784,19.0293,-342.97,1.02046,0.0,0.0
1841,460,137.251,153.226,108.044,100.436,88.9098,0.011533,1.53279,19.0286,-343.401,1.06272,0.0,0.0
1848,461.75,138.267,153.615,105.768,100.559,88.7676,0.0118181,1.52825,19.0301,-343.851,1.08737,0.0,0.0
1855,463.5,138.434,154.388,106.923,100.661,88.9299,0.0119258,1.52888,19.0289,-344.201,1.08026,0.0,0.0
1862,465.25,138.809,154.955,95.2101,100.726,88.9146,0.0117843,1.53621,19.0175,-344.572,1.08741,0.0,0.0
1869,467,139.265,155.363,111.601,100.756,88.2737,0.0116093,1.54055,19.0085,-344.982,1.15311,0.0,0.0
1876,468.75,140.38,156.651,104.554,100.721,89.0111,0.0115591,1.55332,18.9981,-345.443,1.07753,0.0,0.0
1883,470.5,140.073,157.309,103.694,100.645,88.4786,0.0115421,1.56472,18.9812,-345.773,1.12328,0.0,0.0
1890,472.25,140.4,156.611,109.864,100.529,88.5622,0.0115457,1.57224,18.9721,-346.193,1.10499,0.0,0.0
1897,474,141.33,158.138,107.756,100.366,89.3736,0.0115547,1.57448,18.967,-346.634,1.01134,0.0,0.0
1904,475.75,141.871,158.308,114.194,100.144,89.7385,0.0114901,1.57752,18.9656,-346.954,0.956494,0.0,0.0
1911,477.5,142.664,158.794,108.464,100.194,89.6167,0.0114294,1.57632,18.9651,-347.374,0.972638,0.0,0.0
1918,479.25,142.785,159.634,106.135,100.286,89.2474,0.0114162,1.57318,18.9634,-347.795,1.01664,0.0,0.0
1925,481,143.796,159.539,104.348,100.383,88.8086,0.0114603,1.58013,18.9527,-348.205,1.06804,0.0,0.0
1932,482.75,143.515,160.51,106.852,100.505,88.6985,0.0115725,1.59099,18.9426,-348.636,1.08945,0.0,0.0
1939,484.5,144.054,161.134,101.674,100.631,88.6245,0.0116652,1.60112,18.9303,-349.046,1.10769,0.0,0.0
1946,486.25,144.632,161.368,106.61,100.729,88.8098,0.0116442,1.60893,18.9202,-349.466,1.09798,0.0,0.0
1953,488,145.51,161.868,110.692,100.83,89.4584,0.0116207,1.61748,18.9097,-349.857,1.04323,0.0,0.0
1960,489.75,145.959,162.433,106.222,100.892,89.6926,0.0116909,1.62633,18.9029,-350.277,1.02583,0.0,0.0
1967,491.5,146.205,163.658,102.824,100.919,89.763,0.0117095,1.6226,18.9065,-350.648,1.02131,0.0,0.0
1974,493.25,146.942,163.849,107.231,100.915,88.8057,0.0116746,1.61452,18.9144,-351.018,1.11443,0.0,0.0
1981,495,147.177,164.474,104.284,100.869,90.3445,0.0116752,1.61685,18.9132,-351.498,0.960703,0.0,0.0
1988,496.75,147.505,164.961,105.481,100.767,89.8771,0.01172,1.62598,18.903,-351.889,0.997051,0.0,0.0
1995,498.5,148.281,165.281,104.847,100.634,88.9412,0.0118361,1.63267,18.8944,-352.319,1.07687,0.0,0.0
2002,500.25,148.616,166.06,103.512,100.451,88.424,0.0120615,1.63639,18.8887,-352.71,1.11179,0.0,0.0
2009,502,148.763,166.944,99.6188,100.241,88.6924,0.0121743,1.63799,18.8866,-353.08,1.06715,0.0,0.0
2016,503.75,149.666,167.056,106.925,100.001,88.291,0.0122224,1.64073,18.8821,-353.51,1.08584,0.0,0.0
2023,505.5,149.656,167.762,114.225,99.7472,88.0904,0.0122458,1.64427,18.878,-353.961,1.08347,0.0,0.0
2030,507.25,150.299,168.057,101.754,99.5145,87.7915,0.0122256,1.65534,18.8617,-354.351,1.09274,0.0,0.0
2037,509,150.227,168.033,102.767,99.2538,86.9492,0.0122218,1.661,18.8517,-354.792,1.15392,0.0,0.0
2044,510.75,150.846,169.211,107.232,99.0758,86.96,0.0122931,1.66567,18.8448,-355.222,1.13719,0.0,0.0
2051,512.5,151.697,169.167,106.555,98.925,87.6146,0.0123223,1.67183,18.8384,-355.622,1.05852,0.0,0.0
2058,514.25,151.645,170.243,103.224,98.841,87.1581,0.0122892,1.68462,18.821,-356.023,1.09666,0.0,0.0
2065,516,152.747,170.004,102.028,98.8281,87.2228,0.0122168,1.69818,18.8074,-356.463,1.08905,0.0,0.0
2072,517.75,153.013,170.797,104.987,98.899,87.7372,0.0122015,1.70473,18.8013,-356.914,1.04404,0.0,0.0
2079,519.5,153.017,171.116,98.1968,99.0296,87.2787,0.0122569,1.70091,18.8012,-357.304,1.10123,0.0,0.0
2086,521.25,153.872,172.071,107.302,99.1999,87.3687,0.0123146,1.69678,18.8016,-357.744,1.10722,0.0,0.0
2093,523,154.117,172.754,105.815,99.3823,87.5584,0.0122959,1.7028,18.7979,-358.135,1.10433,0.0,0.0
2100,524.75,154.681,172.684,102.193,99.5826,87.9257,0.0121268,1.7154,18.7829,-358.525,1.08539,0.0,0.0
2107,526.5,154.715,173.21,106.262,99.7866,88.2166,0.012003,1.7222,18.7757,-359.006,1.07442,0.0,0.0
2114,528.25,155.42,173.706,96.3962,99.9633,88.77,0.0119515,1.7189,18.7752,-359.396,1.03534,0.0,0.0
2121,530,155.911,174.707,99.3921,100.107,88.6679,0.0119078,1.71968,18.7765,-359.877,1.05791,0.0,0.0
2128,531.75,156.256,174.807,97.8785,100.184,87.8256,0.0118721,1.72008,18.7735,-360.257,1.14784,0.0,0.0
2135,533.5,156.919,174.982,105.669,100.232,87.9558,0.0119401,1.73335,18.7549,-360.697,1.13905,0.0,0.0
2142,535.25,157.025,175.873,99.2875,100.208,88.7419,0.0121464,1.74986,18.7402,-361.098,1.0594,0.0,0.0
2149,537,157.342,176.748,102.319,100.189,87.8875,0.0123667,1.75373,18.7281,-361.558,1.14212,0.0,0.0
2156,538.75,157.491,176.693,96.352,100.129,87.095,0.0125907,1.75923,18.7233,-361.969,1.21586,0.0,0.0
2163,540.5,158.37,177.25,100.378,100.038,88.6522,0.0125893,1.76772,18.7199,-362.349,1.05345,0.0,0.0
2170,542.25,159.259,177.791,104.897,99.9617,85.6958,0.0125803,1.76982,18.713,-362.799,1.34248,0.0,0.0
2177,544,159.05,178.744,97.3877,99.9074,87.3944,0.0127122,1.77843,18.6991,-363.26,1.16661,0.0,0.0
2184,545.75,159.806,178.673,104.595,100.244,88.461,0.0128852,1.79267,18.6849,-363.7,1.09018,0.0,0.0
2191,547.5,159.405,179.221,99.9134,100.523,87.869,0.0130146,1.79691,18.676,-364.151,1.17294,0.0,0.0
2198,549.25,160.839,179.413,102.751,100.687,87.1734,0.0130333,1.79949,18.6645,-364.541,1.25646,0.0,0.0
2205,551,160.895,180.165,106.782,100.724,89.2787,0.0130041,1.81371,18.6485,-365.042,1.05157,0.0,0.0
2212,552.75,161.238,180.466,98.9753,100.644,87.8509,0.0131526,1.82399,18.6391,-365.482,1.18524,0.0,0.0
2219,554.5,161.735,181.932,91.38,100.428,86.5252,0.013447,1.83813,18.6207,-365.902,1.29911,0.0,0.0
2226,556.25,162.388,182.342,107.611,100.152,86.7185,0.0137189,1.84883,18.6064,-366.343,1.25565,0.0,0.0
2233,558,163.207,182.919,110.194,100.268,87.4744,0.0138645,1.8555,18.5984,-366.843,1.19004,0.0,0.0
2240,559.75,163.374,183.572,94.2033,100.446,88.0077,0.0139216,1.86182,18.5927,-367.294,1.15255,0.0,0.0
2247,561.5,163.789,184.198,99.8653,100.623,88.2785,0.0139611,1.86611,18.5884,-367.654,1.14109,0.0,0.0
2254,563.25,164.009,185.051,93.8576,100.79,87.7947,0.0140268,1.86249,18.5937,-368.145,1.20343,0.0,0.0
2261,565,165.179,184.666,99.3119,100.898,88.1632,0.0140811,1.85129,18.6047,-368.575,1.1763,0.0,0.0
2268,566.75,165.33,185.866,98.8379,100.945,86.1145,0.0141393,1.84482,18.61,-369.075,1.38535,0.0,0.0
2275,568.5,165.417,185.741,101.411,100.879,85.5125,0.0143111,1.84946,18.6038,-369.526,1.4408,0.0,0.0
2282,570.25,165.379,185.701,96.6,100.734,85.9746,0.0146728,1.85782,18.5974,-369.996,1.38125,0.0,0.0
2289,572,165.638,186.867,104.113,100.503,83.1034,0.0150173,1.86055,18.5949,-370.407,1.65733,0.0,0.0
2296,573.75,165.994,186.021,104.78,100.235,82.4206,0.0153639,1.85046,18.5943,-370.877,1.70598,0.0,0.0
2303,575.5,166.325,187.083,103.091,99.911,84.0128,0.0156409,1.85194,18.5876,-371.328,1.51098,0.0,0.0
2310,577.25,165.754,185.954,99.2501,99.6009,84.0783,0.0157082,1.87072,18.5786,-371.728,1.47708,0.0,0.0
2317,579,166.423,186.966,100.936,99.2915,85.2332,0.0156275,1.87773,18.5743,-372.238,1.33101,0.0,0.0
2324,580.75,166.627,187.756,109.041,99.0677,84.9961,0.0156256,1.86391,18.5863,-372.659,1.33562,0.0,0.0
2331,582.5,166.914,188.246,103.703,98.9189,84.2185,0.0157679,1.84441,18.6097,-373.079,1.40264,0.0,0.0
2338,584.25,166.211,187.031,102.286,98.8625,83.6117,0.0158741,1.83332,18.6219,-373.5,1.46072,0.0,0.0
2345,586,166.887,188.408,105.192,98.9096,83.2086,0.0157734,1.832,18.6304,-374,1.507,0.0,0.0
2352,587.75,167.543,188.258,98.9128,99.075,84.3764,0.0155124,1.82445,18.6401,-374.391,1.40006,0.0,0.0
2359,589.5,167.824,187.98,94.5537,99.2968,84.9162,0.0153455,1.80813,18.6612,-374.821,1.36396,0.0,0.0
2366,591.25,167.375,188.251,103.139,99.5534,84.8028,0.0152363,1.79478,18.6793,-375.251,1.39811,0.0,0.0
2373,593,168.284,187.617,94.3812,99.8052,85.1641,0.0151088,1.7825,18.6933,-375.702,1.38307,0.0,0.0
2380,594.75,167.207,188.408,101.311,100.025,86.6771,0.0148999,1.77182,18.7056,-376.142,1.24869,0.0,0.0
2387,596.5,167.788,188.261,104.85,100.168,84.9656,0.0146511,1.75727,18.7217,-376.573,1.4351,0.0,0.0
2394,598.25,168.148,187.782,101.739,100.234,86.6506,0.0144569,1.74938,18.7289,-376.963,1.26961,0.0,0.0
2401,600,168.105,187.697,108.47,100.209,82.2856,0.0144046,1.75045,18.7304,-377.493,1.71808,0.0,0.0
2408,601.75,167.6,187.991,105.077,100.148,86.5674,0.01447,1.7541,18.73,-377.854,1.27046,0.0,0.0
2415,603.5,167.623,187.861,110.577,100.066,86.0144,0.014502,1.75208,18.7333,-378.264,1.31923,0.0,0.0
2422,605.25,167.454,187.723,100.694,99.9743,86.4906,0.0143678,1.73808,18.7549,-378.705,1.26308,0.0,0.0
2429,607,167.678,188.12,107.256,99.8725,87.5616,0.0141578,1.713,18.7826,-379.135,1.14691,0.0,0.0
2436,608.75,167.219,188.271,109.279,100.106,87.179,0.0139474,1.6935,18.8066,-379.525,1.20545,0.0,0.0
2443,610.5,167.3,187.89,109.634,100.472,84.3499,0.0139099,1.67407,18.8302,-379.966,1.52485,0.0,0.0
2450,612.25,166.742,187.362,100.423,100.687,86.0574,0.0139708,1.66157,18.8487,-380.306,1.36879,0.0,0.0
2457,614,167.269,187.004,113.023,100.695,84.8302,0.0140919,1.64637,18.8675,-380.737,1.49472,0.0,0.0
2464,615.75,166.474,187.408,93.8927,100.538,86.0189,0.0141735,1.63624,18.8782,-381.157,1.35981,0.0,0.0
2471,617.5,165.992,185.819,108.854,100.19,84.4042,0.0140095,1.62803,18.8879,-381.557,1.49473,0.0,0.0
2478,619.25,165.765,186.49,97.1961,100.237,86.6349,0.0135153,1.62315,18.8986,-381.928,1.27143,0.0,0.0
2485,621,165.341,185.404,106.237,100.426,87.8308,0.0129782,1.60763,18.9185,-382.308,1.16836,0.0,0.0
2492,622.75,165.535,185.714,106.262,100.639,87.697,0.0124835,1.57932,18.9523,-382.688,1.20011,0.0,0.0
2499,624.5,165.176,185.465,107.263,100.81,87.1585,0.01217,1.54761,19.007,-383.099,1.26858,0.0,0.0
2506,626.25,164.841,184.902,108.106,100.921,88.2114,0.0118612,1.49975,19.0754,-383.369,1.17346,0.0,0.0
2513,628,164.241,184.231,110.769,100.906,86.8374,0.01155,1.45723,19.1233,-383.78,1.30903,0.0,0.0
2520,629.75,163.583,183.181,111.823,100.776,87.4921,0.011393,1.43184,19.1512,-384.16,1.23234,0.0,0.0
2527,631.5,162.997,182,103.333,100.534,85.3092,0.0114445,1.41559,19.1676,-384.53,1.43165,0.0,0.0
2534,633.25,162.617,181.086,108.251,100.191,86.8881,0.0114531,1.38701,19.2029,-384.811,1.24197,0.0,0.0
2541,635,161.416,180.488,115.613,99.8141,86.7868,0.0113152,1.34064,19.268,-385.121,1.2193,0.0,0.0
2548,636.75,160.168,179.245,106.333,99.435,84.7586,0.0108929,1.29601,19.3283,-385.411,1.39228,0.0,0.0
2555,638.5,158.962,177.943,110.95,99.1395,87.4591,0.0103831,1.24283,19.4066,-385.771,1.09289,0.0,0.0
2562,640.25,158.298,176.024,116.576,98.9181,85.9558,0.00996259,1.18653,19.4962,-386.092,1.22456,0.0,0.0
2569,642,156.812,175.108,115.823,98.8796,85.134,0.00969159,1.12893,19.5681,-386.292,1.30492,0.0,0.0
2576,643.75,155.318,173.238,120.791,98.9765,85.5708,0.00937358,1.07476,19.6269,-386.542,1.26884,0.0,0.0
2583,645.5,153.656,171.555,116.338,99.1978,88.4268,0.00898875,1.02099,19.7025,-386.832,1.00209,0.0,0.0
2590,647.25,152.013,169.585,120.954,99.4829,86.8202,0.00868991,0.966356,19.7841,-387.073,1.18697,0.0,0.0
2597,649,150.122,167.786,126.095,99.7898,87.2341,0.00854909,0.922907,19.836,-387.253,1.17236,0.0,0.0
2604,650.75,148.33,165.607,123.294,100.023,86.0414,0.00847145,0.885544,19.8859,-387.483,1.31276,0.0,0.0
2611,652.5,146.128,163.355,122.569,100.182,87.4724,0.00833525,0.837186,19.9455,-387.643,1.18279,0.0,0.0
2618,654.25,144.827,161.322,130.872,100.227,84.8081,0.0078474,0.77156,20.0277,-387.863,1.45639,0.0,0.0
2625,656,142.333,158.357,130.464,100.151,84.2551,0.00723246,0.704828,20.1214,-387.974,1.50675,0.0,0.0
2632,657.75,140.227,155.838,134.128,100.055,86.5883,0.00646378,0.629177,20.2273,-388.144,1.26024,0.0,0.0
2639,659.5,137.454,153.217,126.943,99.9386,87.9888,0.00584343,0.5636,20.3137,-388.284,1.11025,0.0,0.0
2646,661.25,135.202,150.82,141.337,99.8413,87.8441,0.00511448,0.502782,20.4074,-388.384,1.1161,0.0,0.0
2653,663,132.284,147.504,138.8,99.9771,89.2972,0.00450091,0.457284,20.4737,-388.484,0.984912,0.0,0.0
2660,664.75,129.74,144.503,139.64,100.396,90.4879,0.00385364,0.405588,20.5371,-388.544,0.905877,0.0,0.0
2667,666.5,127.292,141.63,141.834,100.634,91.2844,0.00328054,0.35919,20.6053,-388.564,0.850082,0.0,0.0
2674,668.25,124.256,138.592,143.532,100.658,92.2332,0.00283957,0.31382,20.6755,-388.594,0.762075,0.0,0.0
2681,670,121.652,135.185,147.481,100.502,91.4411,0.00250219,0.274872,20.7256,-388.624,0.823702,0.0,0.0
2688,671.75,118.713,132.102,147.479,100.158,90.797,0.00222256,0.242219,20.7704,-388.764,0.855461,0.0,0.0
2695,673.5,116.624,129.425,151.083,100.219,91.407,0.0020166,0.214959,20.8096,-388.764,0.802375,0.0,0.0
2702,675.25,113.23,126.005,151.587,100.411,91.4978,0.00184583,0.192899,20.8373,-388.784,0.810385,0.0,0.0
2709,677,111.146,123.582,150.603,100.621,91.7241,0.00168875,0.174863,20.855,-388.774,0.80707,0.0,0.0
2716,678.75,108.401,120.967,151.525,100.783,91.7904,0.00149945,0.161685,20.8706,-388.774,0.814811,0.0,0.0
2723,680.5,106.159,117.949,147.977,100.902,92.1818,0.00132044,0.150337,20.8872,-388.784,0.787985,0.0,0.0
2730,682.25,103.714,115.338,149.032,100.904,92.2505,0.00118196,0.139823,20.902,-388.784,0.781698,0.0,0.0
2737,684,101.601,113.179,149.318,100.813,92.1046,0.00110919,0.130498,20.9124,-388.814,0.787609,0.0,0.0
2744,685.75,99.5563,109.622,153.097,100.609,91.7108,0.0010529,0.121495,20.9232,-388.844,0.807347,0.0,0.0
2751,687.5,97.1704,108.161,159.357,100.348,91.7104,0.00100076,0.11367,20.9347,-388.874,0.784729,0.0,0.0
2758,689.25,95.6141,105.667,146.885,100.026,91.2872,0.000971569,0.106096,20.9459,-388.914,0.796999,0.0,0.0
2765,691,93.424,103.203,149.964,99.6901,91.1016,0.000948033,0.100084,20.9535,-388.914,0.785439,0.0,0.0
2772,692.75,91.6605,100.588,155.635,99.3852,90.7982,0.000899799,0.0950085,20.9594,-388.904,0.787817,0.0,0.0
2779,694.5,89.91,98.8067,158.854,99.1245,90.3999,0.0008904,0.0907236,20.9644,-388.894,0.803239,0.0,0.0
2786,696.25,87.9457,96.5958,152.806,98.9651,90.3376,0.000976895,0.0875578,20.9674,-388.935,0.795222,0.0,0.0
2793,698,86.6553,94.7523,155.094,98.9023,90.2412,0.00118366,0.0845441,20.9716,-388.904,0.798998,0.0,0.0
2800,699.75,84.8932,92.8028,151.411,98.9298,90.0049,0.00127381,0.0822965,20.9743,-388.914,0.824286,0.0,0.0
2807,701.5,83.6055,90.5424,157.107,99.0482,90.4554,0.00114832,0.0800114,20.9772,-388.904,0.791186,0.0,0.0
2814,703.25,81.7237,89.1408,150.907,99.2201,90.641,0.0009755,0.0777206,20.9809,-388.914,0.788428,0.0,0.0
2821,705,80.5683,87.3866,155.967,99.4472,90.9939,0.00084859,0.0757126,20.9832,-388.935,0.774486,0.0,0.0
2828,706.75,78.2075,84.8734,156.906,99.6515,90.7375,0.000744013,0.0739838,20.9848,-388.894,0.816981,0.0,0.0
2835,708.5,76.9517,83.3122,149.526,99.8595,90.8862,0.000734795,0.0725442,20.9873,-388.914,0.820885,0.0,0.0
2842,710.25,75.1994,81.3944,147.851,100.007,91.2571,0.000796211,0.0711962,20.9893,-388.884,0.798252,0.0,0.0
2849,712,74.5505,80.2911,158.443,100.154,91.3929,0.000881719,0.0699616,20.9909,-388.874,0.798072,0.0,0.0
2856,713.75,73.5702,78.8263,154.011,100.212,91.2607,0.000932977,0.0689786,20.9929,-388.894,0.815738,0.0,0.0
2863,715.5,72.3357,77.5724,151.234,100.226,91.1229,0.000927748,0.0681841,20.9938,-388.904,0.830116,0.0,0.0
2870,717.25,71.0291,76.2392,155.349,100.189,91.3053,0.000883373,0.0675423,20.9943,-388.914,0.809503,0.0,0.0
2877,719,70.0456,74.7352,156.384,100.114,91.2278,0.000818168,0.0670557,20.9945,-388.874,0.810382,0.0,0.0
2884,720.75,69.2047,73.434,152.702,100.031,91.3238,0.000728022,0.0666469,20.9946,-388.904,0.793932,0.0,0.0
2891,722.5,68.5939,72.401,154.093,99.9564,90.8323,0.000613521,0.066392,20.9947,-388.954,0.834508,0.0,0.0
2898,724.25,67.0612,71.0684,153.882,99.8441,90.6724,0.00046122,0.0661174,20.9931,-388.924,0.840071,0.0,0.0
2905,726,66.3877,70.6549,152.887,99.7934,90.7652,0.000423184,0.0658306,20.9924,-388.894,0.826724,0.0,0.0
2912,727.75,65.1676,68.865,155.952,99.7622,90.7299,0.000444499,0.065626,20.9923,-388.904,0.827393,0.0,0.0
2919,729.5,64.829,68.0675,160.177,100.059,91.0658,0.000450989,0.0655464,20.9932,-388.884,0.821069,0.0,0.0
2926,731.25,64.0463,66.914,153.25,100.312,91.4552,0.000415947,0.0653772,20.9949,-388.904,0.805886,0.0,0.0
2933,733,62.9947,65.5213,154.646,100.484,91.536,0.000365146,0.0651173,20.9957,-388.965,0.813118,0.0,0.0
2940,734.75,61.9357,64.78,152.419,100.601,91.4829,0.000391977,0.0651166,20.996,-388.975,0.828332,0.0,0.0
2947,736.5,61.4001,63.6414,151.072,100.642,91.7417,0.000484514,0.0653893,20.996,-388.935,0.807286,0.0,0.0
2954,738.25,60.8768,62.6925,155.607,100.609,91.6835,0.000567908,0.0656355,20.995,-388.884,0.80991,0.0,0.0
2961,740,60.4429,62.2222,155.257,100.504,91.3989,0.000714357,0.0657889,20.9943,-388.945,0.827937,0.0,0.0
2968,741.75,59.2994,60.8237,154.388,100.35,91.6099,0.000850552,0.0660848,20.9929,-388.945,0.794425,0.0,0.0
2975,743.5,59.0336,60.4626,154.457,100.151,90.9919,0.00092258,0.0666834,20.9917,-388.914,0.836202,0.0,0.0
2982,745.25,57.9577,59.9886,156.734,100.132,91.2716,0.000915444,0.0675455,20.9905,-388.924,0.807785,0.0,0.0
2989,747,57.654,58.1277,149.112,100.206,91.2,0.000858123,0.0685091,20.9896,-388.914,0.821044,0.0,0.0
2996,748.75,56.9709,57.9407,152.127,100.306,91.2712,0.000807036,0.0694017,20.9879,-388.914,0.822885,0.0,0.0
3003,750.5,55.7507,56.4897,153.063,100.415,91.491,0.000734587,0.0701801,20.9871,-388.904,0.811457,0.0,0.0
3010,752.25,55.3186,56.8249,154.407,100.535,91.6377,0.000679582,0.0700876,20.9875,-388.924,0.807836,0.0,0.0
3017,754,54.891,55.078,157.528,100.623,92.095,0.000737754,0.069394,20.9891,-388.914,0.772061,0.0,0.0
3024,755.75,55.4295,55.2203,155.919,100.708,91.6389,0.000832244,0.0686018,20.9901,-388.914,0.822756,0.0,0.0
3031,757.5,54.4531,54.5135,156.703,100.813,91.8611,0.000890351,0.0675471,20.993,-388.894,0.81069,0.0,0.0
3038,759.25,53.6475,53.6018,154.639,100.857,92.3441,0.000858564,0.0667926,20.9944,-388.914,0.768753,0.0,0.0
3045,761,53.5578,53.7155,158.571,100.882,91.9555,0.000790205,0.0663187,20.9955,-388.874,0.807762,0.0,0.0
3052,762.75,52.7148,52.5068,156.409,100.863,92.2376,0.000734658,0.0659944,20.9961,-388.945,0.779339,0.0,0.0
3059,764.5,52.5872,52.1475,157.225,100.901,92.2589,0.000659588,0.0656304,20.9964,-388.874,0.78062,0.0,0.0
3066,766.25,52.2523,51.0346,155.957,100.926,92.2119,0.000523427,0.0653856,20.9965,-388.945,0.787235,0.0,0.0
3073,768,51.845,51.1867,158.083,100.92,92.0914,0.000350851,0.0650936,20.9965,-388.914,0.798151,0.0,0.0
3080,769.75,51.2241,49.985,155.726,100.9,92.0564,0.000324241,0.0648254,20.9962,-388.935,0.799675,0.0,0.0
3087,771.5,50.8362,49.9677,159.598,100.858,92.0612,0.000455345,0.0645903,20.9956,-388.965,0.795645,0.0,0.0
3094,773.25,50.4293,49.3684,157.635,100.836,92.3092,0.000572865,0.0644223,20.9953,-389.005,0.770302,0.0,0.0
3101,775,50.2582,48.9458,154.025,100.788,92.2991,0.000690492,0.0642912,20.9963,-388.935,0.767043,0.0,0.0
3108,776.75,49.6216,48.4344,157.148,100.726,92.3767,0.000779683,0.0641286,20.9969,-388.965,0.754423,0.0,0.0
3115,778.5,49.4775,47.9574,152.362,100.647,92.3996,0.000831659,0.0639313,20.9971,-388.975,0.745416,0.0,0.0
3122,780.25,49.0319,47.6061,159.022,100.565,92.318,0.000848864,0.0638292,20.9973,-388.954,0.746019,0.0,0.0
3129,782,48.8698,47.1107,153.299,100.47,91.6887,0.000903239,0.0638526,20.9973,-388.965,0.797354,0.0,0.0
3136,783.75,47.732,46.1084,152.221,100.358,91.7863,0.000906683,0.063815,20.9969,-388.965,0.778392,0.0,0.0
3143,785.5,47.1744,46.0537,153.829,100.257,91.5263,0.000763036,0.0638092,20.9967,-388.975,0.794349,0.0,0.0
3150,787.25,47.6997,45.5169,151.546,100.168,91.5151,0.000568928,0.0638065,20.9966,-388.975,0.787626,0.0,0.0
3157,789,46.7627,45.3335,160.027,100.074,91.3973,0.000502936,0.0639437,20.9966,-388.965,0.790695,0.0,0.0
3164,790.75,46.7405,45.0382,156.297,99.9775,91.0734,0.000586468,0.0640077,20.9966,-388.954,0.813235,0.0,0.0
3171,792.5,46.8252,45.1407,159.797,99.8758,91.245,0.000741725,0.0640951,20.9969,-388.924,0.787945,0.0,0.0
3178,794.25,46.7729,44.1109,157.465,99.7476,91.7755,0.000914641,0.0643481,20.9977,-388.924,0.726217,0.0,0.0
3185,796,46.2485,44.2547,157.815,99.6759,91.2559,0.00103125,0.064694,20.9976,-388.985,0.769442,0.0,0.0
3192,797.75,45.7035,43.0212,156.667,99.5778,91.2105,0.00101027,0.0657009,20.9956,-388.924,0.765195,0.0,0.0
3199,799.5,45.4813,43.1953,159.934,99.4991,90.8412,0.000916274,0.0673485,20.9934,-388.945,0.793677,0.0,0.0
3206,801.25,45.4899,43.0644,158.128,99.4062,91.3166,0.000845191,0.0687397,20.9924,-388.975,0.740031,0.0,0.0
3213,803,44.9177,42.858,156.048,99.3158,91.2282,0.000816562,0.0694016,20.9919,-388.924,0.740543,0.0,0.0
3220,804.75,45.1827,42.7224,155.456,99.2566,91.1309,0.000815757,0.0694781,20.9919,-388.924,0.744644,0.0,0.0
3227,806.5,44.7252,42.3606,156.583,99.1901,90.5964,0.000790178,0.0689749,20.9928,-388.904,0.790083,0.0,0.0
3234,808.25,44.6344,42.3856,157.931,99.1415,90.9979,0.000706667,0.0683622,20.9933,-388.874,0.747257,0.0,0.0
3241,810,44.513,41.21,159.989,99.079,91.3359,0.000575364,0.0679041,20.9935,-388.904,0.709446,0.0,0.0
3248,811.75,44.1402,41.8013,159.336,99.0482,90.7885,0.000422166,0.067601,20.9946,-388.884,0.759136,0.0,0.0
3255,813.5,44.3511,41.1621,155.751,99.017,90.8038,,0.067061,,-388.884,0.754921,0.0,0.0
3262,815.25,43.8769,40.7344,154.143,98.9979,90.586,,0.0664457,,-388.924,0.77418,0.0,0.0
3269,817,43.7105,40.5453,159.718,98.9882,90.9669,,,,-388.894,0.736735,0.0,0.0
3276,818.75,43.2106,40.5487,156.332,98.9797,91.012,,,,-388.874,0.731673,0.0,0.0
3283,820.5,43.1111,40.5381,158.342,98.9785,91.2547,,,,-388.914,0.708346,0.0,0.0
3290,822.25,42.3499,40.2237,159.7,98.9996,90.7725,,,,-388.914,0.756396,0.0,0.0
3297,824,42.6981,40.233,156.754,99.0142,90.9786,,,,-388.935,0.737903,0.0,0.0