File: 01_Data/Black_PMMA/Cone/Black_PMMA_Cone_HF25Scan_220909_R4.csv
Names,Time,Stack TC,Smoke TC,Exh Press,Smoke Comp,Smoke Meas,CO Meter,CO2 Meter,O2 Meter,Sample Mass,Ext Coeff,Start Test,Flame Verif
Chan Gain,,500,500,1,1,1,1,1,1,1,1,1.0,1.0
Offset,,0,0,0.142519,0,0,0,0,0,0,0,0.0,0.0
Gain,,1,1,25.011,13.0826,14.7555,1,1,1,1.00088,1.03743,1.0,1.0
Units,sec,C,C,Pa,%,%,%,%,%,g,/m,,
Baseline,,43.0835,43.7684,138.131,100.044,107.935,6.03809e-05,0.0448369,21.0016,-443.229,-0.690866,,
7,1.5,41.303,42.4508,138.186,100.039,107.893,0.00032487,0.0564661,20.9879,151.614,-0.687764,0.0,0.0
14,3.25,41.2713,42.621,135.569,100.045,107.795,0.000324456,0.0549811,20.9888,151.553,-0.678973,0.0,0.0
21,5,41.5926,42.5201,135.777,100.029,107.931,0.000294439,0.0546238,20.9887,151.573,-0.691934,0.0,0.0
28,6.75,41.7422,42.3919,137.351,100.047,107.787,0.000302077,0.0552994,20.988,151.573,-0.678108,0.0,0.0
35,8.5,41.6132,42.2721,140.74,100.038,107.843,0.000269277,0.0555801,20.9876,151.583,-0.683655,0.0,0.0
42,10.25,41.614,42.3458,135.297,100.03,107.863,0.000191288,0.0551706,20.987,151.573,-0.68609,0.0,0.0
49,12,41.8012,42.3553,137.093,100.023,107.919,0.000133531,0.054151,20.9879,151.553,-0.691381,0.0,0.0
56,13.75,41.2029,42.4995,138.291,100.036,107.949,6.96968e-05,0.0537022,20.9883,151.553,-0.692801,0.0,0.0
63,15.5,42.0348,42.1137,136.168,100.04,107.956,4.80477e-06,0.0534687,20.9898,151.533,-0.693005,0.0,0.0
70,17.25,41.6188,42.1486,136.702,100.036,107.833,-0.000100068,0.0529,20.9909,151.533,-0.683001,0.0,0.0
77,19,41.8887,42.6977,138.662,100.015,107.87,-0.000175332,0.0523378,20.9915,151.543,-0.688079,0.0,0.0
84,20.75,41.8331,42.6208,136.891,100.024,107.978,-8.36974e-05,0.051869,20.992,151.523,-0.696393,0.0,0.0
91,22.5,41.9486,41.8317,138.869,100.026,107.822,0.000114604,0.0510118,20.9932,151.543,-0.683033,0.0,0.0
98,24.25,41.5439,42.3789,138.869,100.048,107.865,0.000213879,0.0501982,20.9949,151.523,-0.684645,0.0,0.0
105,26,41.648,42.5072,138.182,100.016,107.728,0.000144332,0.0497045,20.9957,151.533,-0.675958,0.0,0.0
112,27.75,41.8225,43.1123,134.432,100.017,108.023,4.45902e-05,0.0499779,20.996,151.523,-0.700693,0.0,0.0
119,29.5,41.9023,42.5201,135.285,100.034,107.794,-8.04268e-06,0.0505087,20.9951,151.513,-0.679914,0.0,0.0
126,31.25,41.7869,42.567,136.255,100.026,107.881,-6.96759e-05,0.0509961,20.9947,151.513,-0.68801,0.0,0.0
133,33,41.7322,42.558,136.231,100.019,107.797,-0.000145139,0.0509869,20.9945,151.503,-0.681486,0.0,0.0
140,34.75,41.5609,42.4187,140.313,100.008,107.919,-0.000195522,0.0508595,20.9944,151.503,-0.692798,0.0,0.0
147,36.5,41.7883,42.4091,139.042,100.018,107.795,-0.000214936,0.0506519,20.9944,151.513,-0.681443,0.0,0.0
154,38.25,41.7952,42.2794,137.229,100.027,107.881,-0.000225829,0.0507435,20.9943,151.503,-0.687865,0.0,0.0
161,40,41.5478,42.1885,138.538,100.025,107.953,-0.000258683,0.0508565,20.9948,151.493,-0.694158,0.0,0.0
168,41.75,41.238,42.4952,137.321,100.019,107.872,-0.000356706,0.0509184,20.9956,151.483,-0.687869,0.0,0.0
175,43.5,41.6423,42.2647,133.367,100.018,107.905,-0.000457597,0.0506756,20.9959,151.493,-0.69075,0.0,0.0
182,45.25,42.0671,42.0276,134.344,100.025,107.776,-0.000527351,0.0502566,20.9961,151.503,-0.679265,0.0,0.0
189,47,42.0557,42.7674,138.984,100.021,107.956,-0.000529707,0.0499388,20.9962,151.503,-0.694714,0.0,0.0
196,48.75,41.4894,42.7083,139.646,100.019,107.783,-0.000494505,0.0496217,20.9962,151.503,-0.680344,0.0,0.0
203,50.5,42.1168,42.5235,134.139,100.014,107.951,-0.000398899,0.0491621,20.9963,151.503,-0.694988,0.0,0.0
210,52.25,42.0278,42.8534,140.187,100.026,107.834,-0.000246391,0.0487386,20.9963,151.493,-0.683985,0.0,0.0
217,54,41.6329,42.4571,138.712,100.027,108.058,-0.000167444,0.0484697,20.9963,151.493,-0.702744,0.0,0.0
224,55.75,41.8485,42.9305,135.12,100.023,107.898,-0.000122649,0.0482911,20.9963,151.503,-0.689745,0.0,0.0
231,57.5,42.1941,42.7616,140.552,100.013,107.964,-5.16046e-05,0.0483693,20.9963,151.483,-0.696086,0.0,0.0
238,59.25,42.1202,42.6514,137.102,100.014,107.823,2.12088e-05,0.0488648,20.9963,151.513,-0.684161,0.0,0.0
245,61,41.8836,42.4058,139.352,100.024,107.922,8.24367e-05,0.0493865,20.9963,151.483,-0.691575,0.0,0.0
252,62.75,41.6345,42.6303,134.632,100.028,108.028,0.000105606,0.049568,20.996,151.463,-0.700243,0.0,0.0
259,64.5,42.2201,42.8437,138.053,100.031,107.882,1.72728e-05,0.0494624,20.9958,151.483,-0.687614,0.0,0.0
266,66.25,41.8337,42.4546,138.161,100.021,107.92,-0.00011039,0.0491158,20.9957,151.473,-0.691714,0.0,0.0
273,68,41.9876,42.8268,139.088,100.036,107.885,-0.000202201,0.0490914,20.9957,151.473,-0.68737,0.0,0.0
280,69.75,42.1167,42.8056,139.741,100.042,107.979,-0.000218889,0.0495598,20.9957,151.473,-0.694835,0.0,0.0
287,71.5,41.9006,42.7278,140.837,100.047,107.891,-0.000206137,0.0498348,20.9956,151.473,-0.68692,0.0,0.0
294,73.25,42.1693,42.925,136.423,100.035,107.79,-0.000225874,0.0494532,20.9959,151.473,-0.679499,0.0,0.0
301,75,42.4058,43.2432,139.866,100.036,107.904,-0.000278822,0.0486489,20.997,151.473,-0.68904,0.0,0.0
308,76.75,42.4416,42.5403,139.634,100.046,107.907,-0.000296557,0.047428,20.9981,151.463,-0.688398,0.0,0.0
315,78.5,42.1643,42.3631,140.365,100.057,107.872,-0.000267496,0.0462941,20.9991,151.463,-0.684344,0.0,0.0
322,80.25,42.4389,42.9442,138.325,100.048,107.895,-0.000256338,0.0454758,20.9997,151.463,-0.687191,0.0,0.0
329,82,42.1249,42.8715,133.943,100.037,107.997,-0.000282362,0.0448173,21.0008,151.453,-0.696752,0.0,0.0
336,83.75,42.3627,42.7573,138.238,100.062,107.929,-0.000278973,0.0443394,21.0017,151.453,-0.688732,0.0,0.0
343,85.5,42.2767,42.5969,137.338,100.07,107.895,-0.000245399,0.044013,21.0026,151.443,-0.685083,0.0,0.0
350,87.25,42.0929,42.6256,137.194,100.066,107.854,-0.000245575,0.0437592,21.0033,151.433,-0.68199,0.0,0.0
357,89,42.5003,42.9631,139.514,100.065,107.955,-0.000291563,0.0435139,21.0036,151.433,-0.690642,0.0,0.0
364,90.75,42.2076,42.9633,135.89,100.072,107.904,-0.000307547,0.0434937,21.0037,151.423,-0.685661,0.0,0.0
371,92.5,42.3249,43.2094,138.187,100.081,107.947,-0.00025934,0.0433616,21.0038,151.413,-0.688545,0.0,0.0
378,94.25,41.9712,42.8832,135.203,100.07,107.822,-0.000153686,0.0433973,21.0038,151.413,-0.678964,0.0,0.0
385,96,42.4357,43.1229,136.026,100.063,107.931,-5.54028e-05,0.0434702,21.0039,151.393,-0.688775,0.0,0.0
392,97.75,42.3275,42.7433,137.014,100.062,107.797,1.43607e-05,0.0433307,21.0028,151.383,-0.677562,0.0,0.0
399,99.5,41.862,43.111,133.975,100.069,107.966,0.000189694,0.0435481,20.9989,151.363,-0.691191,0.0,0.0
406,101.25,42.2356,42.6757,134.721,100.071,107.868,0.000442341,0.0524239,20.9849,151.333,-0.682806,0.0,0.0
413,103,42.6828,42.8997,129.167,100.084,107.28,0.000819099,0.0876933,20.9429,151.293,-0.631857,0.0,1.0
420,104.75,43.9849,43.6908,125.634,100.057,104.345,0.00128275,0.148363,20.8544,151.153,-0.381843,0.0,1.0
427,106.5,44.2435,43.1409,118.585,100.068,102.69,0.00181849,0.233923,20.7406,151.033,-0.235419,0.0,1.0
434,108.25,46.3569,44.7908,119.129,100.057,101.294,0.00219276,0.320232,20.6409,150.843,-0.111804,0.0,1.0
441,110,49.4181,45.608,119.785,100.062,102.539,0.00267442,0.404119,20.5493,150.633,-0.222513,0.0,1.0
448,111.75,52.4856,47.661,115.009,100.059,101.527,0.00311274,0.488457,20.4171,150.392,-0.132477,0.0,0.0
455,113.5,55.4528,49.9348,112.864,100.048,101.104,0.00351743,0.570333,20.2909,150.212,-0.0955903,0.0,0.0
462,115.25,59.3651,51.9798,104.208,100.053,99.651,0.00388965,0.635132,20.2014,149.942,0.0366253,0.0,0.0
469,117,61.732,54.9655,109.514,100.07,98.8013,0.00424009,0.680538,20.142,149.722,0.116081,0.0,0.0
476,118.75,64.8813,57.4145,104.617,100.054,99.6925,0.00454948,0.721974,20.0859,149.462,0.032952,0.0,0.0
483,120.5,67.5687,59.5253,103.105,100.055,98.7522,0.00482101,0.753318,20.0456,149.151,0.119296,0.0,0.0
490,122.25,70.671,61.7722,111.869,100.062,98.6906,0.00506153,0.774983,20.0158,148.951,0.125564,0.0,0.0
497,124,73.1949,63.9784,104.223,100.058,98.714,0.00522693,0.792949,19.9956,148.671,0.123078,0.0,0.0
504,125.75,75.3641,66.5695,110.643,100.061,98.4663,0.00534493,0.803043,19.9817,148.431,0.146193,0.0,0.0
511,127.5,77.6004,68.4541,105.552,100.066,98.7032,0.00542329,0.806901,19.975,148.191,0.124764,0.0,0.0
518,129.25,79.0922,71.0473,103.337,100.06,98.3375,0.00552029,0.809912,19.9718,147.91,0.158066,0.0,0.0
525,131,81.1029,73.0385,107.759,100.066,98.5496,0.005643,0.813132,19.969,147.68,0.139005,0.0,0.0
532,132.75,82.9107,74.6984,110.408,100.072,98.1326,0.00571618,0.816492,19.967,147.4,0.178099,0.0,0.0
539,134.5,84.4124,76.9072,106.957,100.07,97.8904,0.00569337,0.817957,19.9653,147.15,0.200376,0.0,0.0
546,136.25,86.3673,77.9829,102.041,100.062,98.5275,0.00556957,0.819323,19.9621,146.899,0.140643,0.0,0.0
553,138,87.3292,80.2073,107.172,100.085,98.2308,0.00542731,0.821848,19.9598,146.659,0.170162,0.0,0.0
560,139.75,88.9261,81.8003,109.518,100.08,98.1709,0.0053831,0.825946,19.9583,146.399,0.17524,0.0,0.0
567,141.5,90.1958,83.4515,108.558,100.081,98.759,0.00538554,0.827434,19.9552,146.169,0.121033,0.0,0.0
574,143.25,91.2209,85.2449,105.446,100.082,98.1808,0.00539506,0.827626,19.9523,145.868,0.174504,0.0,0.0
581,145,92.4153,86.0679,108.622,100.084,97.944,0.00540798,0.83126,19.9472,145.648,0.196738,0.0,0.0
588,146.75,93.6276,88.1223,110.046,100.09,98.0277,0.00543125,0.834876,19.9431,145.348,0.189431,0.0,0.0
595,148.5,94.7914,89.2341,108.726,100.112,98.3308,0.00547633,0.837125,19.9397,145.078,0.163374,0.0,0.0
602,150.25,95.516,90.5282,102.636,100.08,97.8219,0.00553603,0.837687,19.9382,144.858,0.207721,0.0,0.0
609,152,96.2859,91.8367,106.986,100.089,98.5762,0.00562305,0.836725,19.9392,144.617,0.138584,0.0,0.0
616,153.75,97.0797,93.2099,110.637,100.1,97.7472,0.00572388,0.835005,19.94,144.367,0.216456,0.0,0.0
623,155.5,97.8891,94.2334,111.025,100.098,96.6286,0.00575651,0.837675,19.9382,144.067,0.320977,0.0,0.0
630,157.25,98.7569,95.2082,109.374,100.096,97.1789,0.00572496,0.843003,19.9309,143.797,0.269119,0.0,0.0
637,159,99.5601,96.4864,111.425,100.097,97.0141,0.00573308,0.849792,19.9229,143.546,0.284674,0.0,0.0
644,160.75,99.9215,97.2656,102.768,100.096,97.3032,0.005799,0.854838,19.9151,143.296,0.257488,0.0,0.0
651,162.5,101.431,98.9465,106.404,100.106,98.3114,0.0058472,0.859602,19.9063,143.006,0.164658,0.0,0.0
658,164.25,101.879,99.7607,108.281,100.11,98.5163,0.00584464,0.866969,19.899,142.746,0.146003,0.0,0.0
665,166,103.245,101.501,112.411,100.107,96.8772,0.00583023,0.870825,19.8945,142.485,0.298468,0.0,0.0
672,167.75,103.298,102.287,108.787,100.104,97.4675,0.00583595,0.870079,19.894,142.225,0.242855,0.0,0.0
679,169.5,103.828,102.678,105.781,100.113,97.1384,0.00585605,0.868384,19.8948,141.965,0.274512,0.0,0.0
686,171.25,104.466,103.781,108.92,100.118,97.0758,0.00593549,0.868514,19.8957,141.695,0.280813,0.0,0.0
693,173,104.776,104.578,109.407,100.118,96.7615,0.00602884,0.868234,19.8944,141.425,0.310361,0.0,0.0
700,174.75,105.818,105.608,106.224,100.127,97.001,0.00602004,0.872914,19.8883,141.164,0.288659,0.0,0.0
707,176.5,106.478,106.58,106.446,100.152,97.9268,0.00597909,0.877473,19.8846,140.914,0.204498,0.0,0.0
714,178.25,107.152,107.073,100.818,100.158,97.0289,0.00597308,0.878864,19.883,140.624,0.288833,0.0,0.0
721,180,107.395,108.003,102.361,100.171,96.6493,0.00602469,0.876152,19.8839,140.384,0.325703,0.0,0.0
728,181.75,107.767,108.644,105.077,100.183,97.5328,0.0061046,0.875845,19.8834,140.113,0.244018,0.0,0.0
735,183.5,107.948,109.112,103.12,100.193,96.9907,0.00623218,0.8805,19.8783,139.863,0.295579,0.0,0.0
742,185.25,108.619,110.143,102.24,100.206,97.3072,0.00637962,0.882945,19.876,139.583,0.267122,0.0,0.0
749,187,109.448,110.889,104.21,100.239,96.7925,0.00651363,0.884778,19.8757,139.283,0.318358,0.0,0.0
756,188.75,109.784,111.795,109.326,100.257,96.0856,0.00656541,0.881246,19.876,139.042,0.386701,0.0,0.0
763,190.5,110.095,112.447,106.454,100.28,96.7218,0.00656599,0.881817,19.8759,138.782,0.328775,0.0,0.0
770,192.25,110.478,113.106,110.576,100.331,97.1262,0.00651044,0.884439,19.8731,138.512,0.295409,0.0,0.0
777,194,110.748,113.612,108.002,100.346,96.7885,0.00631064,0.888885,19.8666,138.222,0.32852,0.0,0.0
784,195.75,111.177,114.412,104.314,100.384,97.3338,0.0060704,0.893506,19.8612,137.941,0.28083,0.0,0.0
791,197.5,111.689,114.921,100.22,100.405,97.7116,0.00592687,0.897262,19.8564,137.701,0.247494,0.0,0.0
798,199.25,112.034,115.216,108.215,100.448,96.163,0.00591474,0.903295,19.8484,137.381,0.396747,0.0,0.0
805,201,112.755,116.353,105.337,100.476,96.4917,0.00598154,0.913317,19.8372,137.121,0.368222,0.0,0.0
812,202.75,112.61,116.688,99.3196,100.509,95.5249,0.00612152,0.921196,19.8254,136.831,0.462864,0.0,0.0
819,204.5,113.712,117.515,108.857,100.547,96.5917,0.00627041,0.929265,19.815,136.56,0.365198,0.0,0.0
826,206.25,113.882,118.188,100.876,100.584,96.4859,0.0063944,0.935296,19.8093,136.28,0.37857,0.0,0.0
833,208,114.267,118.523,104.182,100.619,96.9488,0.00653105,0.934857,19.8058,135.97,0.338119,0.0,0.0
840,209.75,114.784,119.308,105.512,100.661,95.7451,0.00656501,0.938457,19.7962,135.71,0.455601,0.0,0.0
847,211.5,115.583,119.908,98.5708,100.7,96.0405,0.00649269,0.950248,19.7782,135.409,0.431177,0.0,0.0
854,213.25,116.088,120.658,104.361,100.724,96.3283,0.00644037,0.961416,19.768,135.109,0.406117,0.0,0.0
861,215,116.499,120.902,101.555,100.786,97.8165,0.00645811,0.965387,19.7634,134.859,0.272148,0.0,0.0
868,216.75,117.042,121.882,111.669,100.835,97.0474,0.00648938,0.962101,19.7645,134.589,0.348381,0.0,0.0
875,218.5,117.089,122.408,108.142,100.865,97.3946,0.00654162,0.959677,19.7685,134.288,0.318622,0.0,0.0
882,220.25,117.899,123.081,104.199,100.905,96.4431,0.00659123,0.958848,19.769,133.998,0.41153,0.0,0.0
889,222,118.201,123.372,105.362,100.944,94.917,0.00660084,0.960198,19.7669,133.728,0.560244,0.0,0.0
896,223.75,118.67,124.064,106.6,100.993,98.7851,0.00658606,0.963675,19.765,133.387,0.201133,0.0,0.0
903,225.5,118.72,124.668,111.272,101.037,97.518,0.00654934,0.965373,19.7632,133.127,0.322576,0.0,0.0
910,227.25,119.438,125.107,105.981,101.067,97.3297,0.00651452,0.968316,19.7609,132.827,0.342927,0.0,0.0
917,229,119.497,125.911,108.828,101.09,97.3595,0.00644205,0.975081,19.7533,132.527,0.342198,0.0,0.0
924,230.75,120.239,126.214,99.644,101.119,97.1064,0.00640093,0.983118,19.7422,132.236,0.368507,0.0,0.0
931,232.5,120.388,126.687,104.102,101.15,96.5007,0.0064846,0.98872,19.7355,131.966,0.428174,0.0,0.0
938,234.25,121.145,126.942,109.406,101.172,97.3198,0.00661472,0.992437,19.7295,131.636,0.353304,0.0,0.0
945,236,121.289,127.884,107.547,101.193,96.8123,0.00676895,0.9972,19.7218,131.346,0.40275,0.0,0.0
952,237.75,122.204,128.23,98.5449,101.196,96.9848,0.0069572,1.00417,19.71,131.065,0.386839,0.0,0.0
959,239.5,122.291,129.079,95.878,101.213,95.5056,0.00716626,1.01811,19.6889,130.765,0.528182,0.0,0.0
966,241.25,123.155,129.151,101.33,101.214,95.6528,0.00730559,1.0278,19.6789,130.445,0.51427,0.0,0.0
973,243,123.249,130.114,101.561,101.214,94.7301,0.00727831,1.03252,19.6741,130.105,0.602514,0.0,0.0
980,244.75,123.855,130.73,95.8467,101.208,95.1021,0.00714224,1.03428,19.6718,129.834,0.566242,0.0,0.0
987,246.5,124.308,131.087,99.9531,101.206,96.9515,0.00703105,1.03098,19.6755,129.524,0.390792,0.0,0.0
994,248.25,124.757,131.6,101.963,101.199,96.6691,0.00698595,1.02971,19.6778,129.224,0.416759,0.0,0.0
1001,250,125.053,132.205,100.44,101.174,96.0675,0.00695073,1.03578,19.6708,128.964,0.471308,0.0,0.0
1008,251.75,125.751,132.482,99.1471,101.154,97.7985,0.00690335,1.04388,19.6615,128.613,0.306965,0.0,0.0
1015,253.5,126.204,133.093,100.435,101.142,97.3563,0.00687143,1.048,19.6571,128.363,0.347127,0.0,0.0
1022,255.25,126.718,133.718,101.14,101.11,96.3039,0.00684207,1.04785,19.6558,128.013,0.443194,0.0,0.0
1029,257,127.104,134.12,105.544,101.089,94.6653,0.00685363,1.04633,19.6555,127.722,0.597502,0.0,0.0
1036,258.75,127.33,134.759,93.3569,101.041,96.5957,0.00692375,1.04835,19.6532,127.412,0.409477,0.0,0.0
1043,260.5,127.849,135.315,101.005,101.004,96.9407,0.0069392,1.0516,19.6519,127.122,0.37366,0.0,0.0
1050,262.25,128.157,135.805,100.588,100.962,98.1664,0.00688451,1.04817,19.6556,126.792,0.255574,0.0,0.0
1057,264,128.673,135.886,99.7058,100.909,96.911,0.00680732,1.04456,19.6579,126.481,0.367921,0.0,0.0
1064,265.75,128.545,136.82,95.5735,100.865,96.5039,0.0067768,1.04523,19.6571,126.141,0.402229,0.0,0.0
1071,267.5,129.143,137.113,100.515,100.813,97.1406,0.00686745,1.05123,19.6497,125.911,0.337736,0.0,0.0
1078,269.25,129.913,137.544,100.878,100.768,95.8572,0.00704003,1.05607,19.643,125.591,0.45462,0.0,0.0
1085,271,129.504,138.005,101.245,100.697,96.2387,0.0071535,1.05906,19.638,125.28,0.412062,0.0,0.0
1092,272.75,130.435,137.831,101.932,100.641,94.5685,0.00720999,1.06928,19.6251,124.93,0.566398,0.0,0.0
1099,274.5,130.322,138.947,99.831,100.589,95.4187,0.00728641,1.08101,19.6108,124.64,0.480185,0.0,0.0
1106,276.25,131.21,139.451,101.437,100.532,95.2881,0.00746238,1.08986,19.5993,124.299,0.487481,0.0,0.0
1113,278,131.793,139.631,101.432,100.48,96.9979,0.00756126,1.09538,19.5928,124.019,0.320938,0.0,0.0
1120,279.75,131.844,140.104,98.9662,100.435,94.3424,0.00751459,1.09917,19.5897,123.679,0.569493,0.0,0.0
1127,281.5,132.167,140.653,98.0152,100.393,95.1323,0.00741771,1.09843,19.5894,123.369,0.489787,0.0,0.0
1134,283.25,132.423,140.908,99.5051,100.469,95.2489,0.00730857,1.0983,19.5891,123.038,0.485584,0.0,0.0
1141,285,133.032,141.143,99.0761,100.57,95.9135,0.00715224,1.09816,19.5887,122.748,0.431411,0.0,0.0
1148,286.75,133.37,141.749,95.3078,100.643,95.3957,0.0070483,1.09953,19.5879,122.448,0.487323,0.0,0.0
1155,288.5,133.499,142.578,95.5544,100.701,96.9497,0.00704454,1.09815,19.5869,122.108,0.345506,0.0,0.0
1162,290.25,133.818,142.532,103.386,100.748,95.1314,0.0071844,1.10033,19.5827,121.797,0.522027,0.0,0.0
1169,292,134.486,142.888,101.91,100.798,96.5458,0.00734432,1.10631,19.5773,121.437,0.392191,0.0,0.0
1176,293.75,134.951,143.642,103.001,100.825,95.6037,0.00747501,1.11012,19.5739,121.137,0.483873,0.0,0.0
1183,295.5,135.141,143.67,105.088,100.889,95.6546,0.00765076,1.10898,19.5683,120.806,0.484795,0.0,0.0
1190,297.25,135.277,144.542,96.9733,100.938,93.0532,0.00786551,1.12085,19.5556,120.466,0.740141,0.0,0.0
1197,299,135.293,144.49,99.5471,100.969,93.5418,0.00799563,1.14249,19.5283,120.116,0.695291,0.0,0.0
1204,300.75,135.731,145.133,99.1387,100.985,94.0124,0.00804848,1.15718,19.5086,119.816,0.651102,0.0,0.0
1211,302.5,136.428,145.575,96.4291,100.98,93.9088,0.0080797,1.1621,19.498,119.475,0.660666,0.0,0.0
1218,304.25,137.222,145.859,98.8281,100.95,95.5258,0.00812589,1.16688,19.4958,119.135,0.502564,0.0,0.0
1225,306,137.329,146.464,102.585,100.889,96.7714,0.00815965,1.16377,19.4995,118.835,0.379202,0.0,0.0
1232,307.75,137.607,146.54,94.3232,100.83,96.041,0.00821381,1.14968,19.5162,118.534,0.442816,0.0,0.0
1239,309.5,138.015,146.834,95.5635,100.74,95.2646,0.00831626,1.14065,19.527,118.224,0.508529,0.0,0.0
1246,311.25,138.303,147.33,107.829,100.623,96.0248,0.00844236,1.13862,19.529,117.884,0.425632,0.0,0.0
1253,313,138.225,148.091,103.937,100.636,95.0647,0.00845665,1.14426,19.5211,117.564,0.518264,0.0,0.0
1260,314.75,138.891,148.374,98.8609,100.697,95.5326,0.00836197,1.15909,19.4983,117.213,0.479109,0.0,0.0
1267,316.5,139.256,148.462,96.3627,100.77,96.0468,0.00830169,1.17708,19.4791,116.843,0.436855,0.0,0.0
1274,318.25,140.022,149.764,98.5174,100.849,94.8373,0.00823188,1.18956,19.4674,116.503,0.559283,0.0,0.0
1281,320,140.015,149.676,97.3626,100.913,95.9433,0.00809855,1.19435,19.4601,116.192,0.459608,0.0,0.0
1288,321.75,140.158,150.154,96.5421,100.982,96.4035,0.00798011,1.19592,19.4582,115.832,0.422216,0.0,0.0
1295,323.5,141.132,150.707,95.8124,101.067,96.3003,0.0078615,1.19733,19.4574,115.502,0.439652,0.0,0.0
1302,325.25,141.555,150.88,98.1602,101.155,95.8136,0.00777077,1.19626,19.4567,115.141,0.493673,0.0,0.0
1309,327,141.707,151.259,94.8384,101.229,95.615,0.00790637,1.19448,19.4559,114.831,0.519197,0.0,0.0
1316,328.75,141.935,151.775,100.548,101.311,95.4281,0.00821545,1.19684,19.4532,114.481,0.544356,0.0,0.0
1323,330.5,142.3,151.987,99.0479,101.361,95.5083,0.00865075,1.201,19.4478,114.151,0.541268,0.0,0.0
1330,332.25,142.789,152.228,100.832,101.433,94.3262,0.00912645,1.20853,19.4375,113.81,0.661014,0.0,0.0
1337,334,143.216,152.721,93.824,101.476,94.4622,0.00936125,1.21728,19.4301,113.46,0.651806,0.0,0.0
1344,335.75,143.556,153.297,103.304,101.503,95.7208,0.00927409,1.21917,19.4255,113.1,0.533791,0.0,0.0
1351,337.5,143.853,153.465,98.2144,101.523,95.864,0.0091239,1.22319,19.4194,112.749,0.521906,0.0,0.0
1358,339.25,144.178,153.898,96.842,101.536,94.691,0.00895768,1.23213,19.4098,112.409,0.635165,0.0,0.0
1365,341,144.668,154.558,106.472,101.533,95.909,0.00882891,1.23792,19.4028,112.079,0.518599,0.0,0.0
1372,342.75,145.017,154.981,94.4461,101.511,96.0554,0.00878949,1.23778,19.3995,111.728,0.502719,0.0,0.0
1379,344.5,145.221,155.407,90.7915,101.485,94.8495,0.00882275,1.23858,19.3968,111.378,0.615399,0.0,0.0
1386,346.25,145.843,155.377,94.9453,101.439,94.2425,0.00889357,1.2464,19.3906,110.998,0.669671,0.0,0.0
1393,348,145.772,155.823,103.953,101.402,95.6235,0.00894212,1.24814,19.3864,110.667,0.533911,0.0,0.0
1400,349.75,147.177,156.317,96.7947,101.322,94.6576,0.00890553,1.24874,19.3844,110.337,0.619131,0.0,0.0
1407,351.5,146.584,156.905,100.633,101.253,95.5047,0.00883549,1.25285,19.3804,110.067,0.531893,0.0,0.0
1414,353.25,147.456,156.985,98.9983,101.172,95.6123,0.00882585,1.26058,19.3695,109.657,0.514393,0.0,0.0
1421,355,147.377,157.335,99.3036,101.1,93.0555,0.00890551,1.27298,19.3514,109.256,0.754523,0.0,0.0
1428,356.75,148.201,157.991,93.0905,101,95.5997,0.00898521,1.28509,19.3399,108.916,0.50003,0.0,0.0
1435,358.5,148.826,158.632,95.9826,100.907,94.8148,0.0090273,1.29128,19.3339,108.546,0.566738,0.0,0.0
1442,360.25,149.429,159.063,98.4121,100.803,94.5419,0.00907161,1.28825,19.3317,108.195,0.5836,0.0,0.0
1449,362,149.529,159.565,91.2068,100.72,94.3645,0.0090881,1.28608,19.3305,107.805,0.593158,0.0,0.0
1456,363.75,149.803,160.127,95.733,100.618,94.2735,0.00904238,1.291,19.328,107.525,0.59273,0.0,0.0
1463,365.5,150.285,160.255,97.0397,100.532,93.7458,0.00907087,1.29542,19.325,107.164,0.636052,0.0,0.0
1470,367.25,150.765,160.949,91.967,100.439,93.8534,0.00921817,1.29862,19.322,106.824,0.617186,0.0,0.0
1477,369,150.923,161.031,95.0781,100.363,92.7592,0.00938286,1.30181,19.3179,106.444,0.716997,0.0,0.0
1484,370.75,151.532,161.607,94.2125,100.3,93.4932,0.00954795,1.30892,19.3074,106.073,0.639586,0.0,0.0
1491,372.5,151.847,161.854,92.7356,100.233,92.6745,0.0096957,1.32095,19.2935,105.683,0.713497,0.0,0.0
1498,374.25,152.433,162.458,89.5008,100.185,94.4212,0.00975613,1.32502,19.288,105.343,0.539185,0.0,0.0
1505,376,152.758,162.593,100.83,100.127,94.1245,0.00968378,1.32221,19.2902,104.982,0.562569,0.0,0.0
1512,377.75,153.37,163.003,96.1154,100.086,94.3456,0.00955585,1.32168,19.2895,104.622,0.537516,0.0,0.0
1519,379.5,153.485,163.753,96.394,100.058,93.6215,0.00944661,1.32556,19.283,104.242,0.605088,0.0,0.0
1526,381.25,153.579,164.271,93.1409,100.055,93.6963,0.00938313,1.33141,19.276,103.901,0.59757,0.0,0.0
1533,383,154.332,164.792,93.2615,100.028,93.4576,0.00939857,1.3338,19.2703,103.501,0.618274,0.0,0.0
1540,384.75,154.64,164.601,98.5976,100.037,93.8908,0.00945999,1.34112,19.262,103.181,0.577062,0.0,0.0
1547,386.5,155.151,165.502,91.651,100.054,93.7197,0.00951423,1.34782,19.2571,102.791,0.595151,0.0,0.0
1554,388.25,154.951,165.764,94.2706,100.074,94.0061,0.00954928,1.35389,19.2537,102.4,0.569272,0.0,0.0
1561,390,155.729,166.28,96.6268,100.108,93.8503,0.00954309,1.35688,19.2518,102.04,0.587453,0.0,0.0
1568,391.75,155.879,166.658,91.996,100.152,93.4279,0.0095616,1.35313,19.2509,101.66,0.632495,0.0,0.0
1575,393.5,156.082,167.075,103.847,100.209,94.3821,0.00961509,1.35277,19.2489,101.339,0.54521,0.0,0.0
1582,395.25,156.468,167.213,96.784,100.267,93.1676,0.00950355,1.35746,19.2471,100.979,0.668251,0.0,0.0
1589,397,156.95,167.86,94.3904,100.328,95.0309,0.00930567,1.35501,19.2463,100.549,0.493656,0.0,0.0
1596,398.75,157.236,168.002,93.9301,100.397,94.3996,0.00924796,1.35467,19.245,100.238,0.560541,0.0,0.0
1603,400.5,157.063,169.12,93.9088,100.481,93.0861,0.00934959,1.36002,19.2391,99.8479,0.69569,0.0,0.0
1610,402.25,157.843,168.729,95.2086,100.554,93.2171,0.00952761,1.36781,19.2286,99.4676,0.689431,0.0,0.0
1617,404,158.367,168.822,94.2194,100.643,93.0501,0.00964241,1.38011,19.2149,99.0572,0.713845,0.0,0.0
1624,405.75,158.223,169.373,93.6248,100.726,92.4395,0.00972155,1.39107,19.1988,98.7169,0.781266,0.0,0.0
1631,407.5,158.42,169.809,94.7865,100.806,94.5415,0.00979193,1.39497,19.1905,98.2766,0.583896,0.0,0.0
1638,409.25,159.01,170.36,93.8912,100.883,93.8286,0.0098598,1.40345,19.1858,97.9362,0.659653,0.0,0.0
1645,411,159.555,170.747,94.9193,100.961,93.6562,0.00987929,1.40686,19.1803,97.5159,0.683487,0.0,0.0
1652,412.75,159.786,171.219,95.3559,101.021,94.7531,0.00987077,1.40837,19.1749,97.1556,0.582953,0.0,0.0
1659,414.5,160.176,171.098,93.2714,101.082,92.6353,0.00986896,1.41534,19.1707,96.8053,0.794085,0.0,0.0
1666,416.25,160.185,172.074,97.0038,101.135,94.8423,0.00991714,1.41742,19.1665,96.3849,0.584638,0.0,0.0
1673,418,161.02,172.017,89.1642,101.174,93.3279,0.0100269,1.41855,19.1611,96.0146,0.7346,0.0,0.0
1680,419.75,160.619,171.904,91.7815,101.193,93.5945,0.0101679,1.42724,19.1493,95.6242,0.710332,0.0,0.0
1687,421.5,161.123,172.552,84.2732,101.226,93.2423,0.0102777,1.43869,19.1391,95.2038,0.747579,0.0,0.0
1694,423.25,162.317,173.548,91.3243,101.235,94.4104,0.0102585,1.44378,19.1351,94.8836,0.635146,0.0,0.0
1701,425,162.394,173.712,90.8343,101.236,95.1219,0.0101343,1.43676,19.1405,94.5032,0.56693,0.0,0.0
1708,426.75,162.441,174.012,95.8803,101.243,94.229,0.0100174,1.42951,19.1461,94.1729,0.653408,0.0,0.0
1715,428.5,163.121,174.088,88.03,101.207,94.5802,0.00998789,1.43051,19.1497,93.7326,0.616284,0.0,0.0
1722,430.25,163.582,174.952,101.681,101.168,94.9233,0.0100293,1.42908,19.1502,93.3922,0.579809,0.0,0.0
1729,432,163.46,174.74,91.6953,101.147,92.9361,0.010124,1.42959,19.1504,93.0219,0.770476,0.0,0.0
1736,433.75,163.724,175.644,92.5875,101.095,92.2305,0.0103461,1.43883,19.1411,92.6015,0.83509,0.0,0.0
1743,435.5,163.658,175.263,96.5924,101.038,93.9345,0.0106398,1.45001,19.1245,92.2112,0.66343,0.0,0.0
1750,437.25,165.083,176.463,95.0728,100.974,91.7478,0.0109633,1.46267,19.1078,91.8109,0.872022,0.0,0.0
1757,439,164.763,176.538,91.9647,100.913,92.6218,0.011237,1.47186,19.0965,91.3705,0.780231,0.0,0.0
1764,440.75,165.606,177.537,82.436,100.857,91.107,0.0115712,1.48267,19.0786,91.0202,0.925218,0.0,0.0
1771,442.5,165.839,177.794,103.178,100.78,93.1852,0.0118834,1.49842,19.0632,90.5998,0.712981,0.0,0.0
1778,444.25,166.389,177.962,101.319,100.706,92.9659,0.0119229,1.50644,19.0554,90.2195,0.72775,0.0,0.0
1785,446,166.742,178.79,96.5733,100.63,92.6182,0.0117575,1.50749,19.0516,89.7891,0.754986,0.0,0.0
1792,447.75,167.313,179.068,90.274,100.579,92.611,0.0115905,1.50608,19.0523,89.4187,0.751071,0.0,0.0
1799,449.5,167.389,179.459,94.9155,100.512,93.1892,0.0115226,1.50458,19.0526,89.0084,0.688362,0.0,0.0
1806,451.25,167.757,179.809,92.3792,100.443,91.2308,0.0114639,1.50274,19.0527,88.6481,0.875458,0.0,0.0
1813,453,168.283,180.233,95.4193,100.44,90.9003,0.0113881,1.5076,19.0467,88.2277,0.908163,0.0,0.0
1820,454.75,168.79,180.582,83.0451,100.504,93.7093,0.011333,1.51425,19.0398,87.8474,0.637064,0.0,0.0
1827,456.5,168.714,181.177,91.2648,100.589,90.7067,0.0113186,1.51779,19.0359,87.437,0.941052,0.0,0.0
1834,458.25,169.408,181.377,89.7542,100.653,92.8222,0.0112915,1.52171,19.0303,87.0367,0.737095,0.0,0.0
1841,460,170.017,182,93.0982,100.713,92.7623,0.0113204,1.52723,19.0223,86.6063,0.748345,0.0,0.0
1848,461.75,170.38,182.335,97.2412,100.754,92.117,0.0114394,1.5342,19.0144,86.2459,0.81555,0.0,0.0
1855,463.5,170.953,182.976,88.333,100.811,92.9596,0.0114783,1.54109,19.0106,85.7956,0.737887,0.0,0.0
1862,465.25,170.637,183.089,92.3616,100.832,93.0046,0.0112868,1.54015,19.0106,85.4352,0.735354,0.0,0.0
1869,467,171.253,183.595,87.5972,100.869,92.8609,0.011034,1.53698,19.0134,85.0349,0.752734,0.0,0.0
1876,468.75,171.622,183.639,95.0079,100.905,93.9516,0.0109786,1.53319,19.015,84.6746,0.649753,0.0,0.0
1883,470.5,171.655,184.296,98.0686,100.936,91.1084,0.0112351,1.53622,19.0078,84.2542,0.932177,0.0,0.0
1890,472.25,172.252,184.992,95.9421,100.941,93.0829,0.0115037,1.54891,18.9914,83.8338,0.737522,0.0,0.0
1897,474,172.813,185.121,86.0898,100.929,91.4974,0.0116009,1.56416,18.9765,83.4135,0.892786,0.0,0.0
1904,475.75,173.222,185.515,86.1608,100.9,91.9554,0.0116281,1.56868,18.9664,83.0431,0.844724,0.0,0.0
1911,477.5,173.865,186.143,86.2432,100.856,91.2169,0.0117308,1.57388,18.9615,82.5927,0.914142,0.0,0.0
1918,479.25,173.917,186.421,93.1432,100.807,93.4274,0.0118058,1.58184,18.9577,82.1824,0.691877,0.0,0.0
1925,481,174.671,186.935,89.3986,100.714,92.1738,0.011799,1.58222,18.9562,81.792,0.806412,0.0,0.0
1932,482.75,174.75,187.105,87.3316,100.613,91.4564,0.0118266,1.57465,18.9574,81.4417,0.868343,0.0,0.0
1939,484.5,174.639,187.547,91.4296,100.59,91.3047,0.0120212,1.57469,18.9555,80.9513,0.881325,0.0,0.0
1946,486.25,174.917,187.727,92.4204,100.661,91.6469,0.0122928,1.58447,18.9418,80.601,0.853707,0.0,0.0
1953,488,175.234,188.061,87.6056,100.724,90.0898,0.0125876,1.59673,18.9234,80.1606,1.01536,0.0,0.0
1960,489.75,175.844,188.726,85.8547,100.802,90.4653,0.0127974,1.61379,18.9015,79.7402,0.984603,0.0,0.0
1967,491.5,175.906,189.091,88.9246,100.865,89.8061,0.0128734,1.62501,18.8879,79.2898,1.05678,0.0,0.0
1974,493.25,176.221,189.728,83.7038,100.945,90.4559,0.01289,1.64277,18.862,78.8895,0.998448,0.0,0.0
1981,495,176.816,189.496,86.7859,101.026,91.4979,0.0130001,1.66954,18.8318,78.4291,0.901521,0.0,0.0
1988,496.75,177.633,190.548,95.0079,101.103,89.6206,0.0132358,1.68205,18.8156,78.0287,1.09705,0.0,0.0
1995,498.5,178.119,191.077,92.7165,101.181,88.8438,0.013448,1.68933,18.8072,77.5583,1.18331,0.0,0.0
2002,500.25,178.769,191.563,85.1708,101.241,91.8117,0.013538,1.69626,18.8048,77.1579,0.88965,0.0,0.0
2009,502,179.271,192.109,82.3276,101.317,91.5645,0.0135634,1.69047,18.8083,76.7376,0.921003,0.0,0.0
2016,503.75,179.941,193.031,91.5327,101.375,92.3386,0.0135261,1.68423,18.8121,76.2972,0.849628,0.0,0.0
2023,505.5,180.095,193.173,88.8299,101.414,91.5708,0.0132427,1.68659,18.8134,75.8968,0.929122,0.0,0.0
2030,507.25,180.346,193.841,87.6453,101.45,92.8001,0.0129153,1.68948,18.8112,75.4665,0.811025,0.0,0.0
2037,509,180.892,194.045,86.6447,101.481,90.4581,0.0127107,1.69063,18.8086,74.996,1.04636,0.0,0.0
2044,510.75,181.111,194.71,88.2063,101.496,92.1535,0.012593,1.69332,18.8074,74.6057,0.87874,0.0,0.0
2051,512.5,181.857,194.953,90.2122,101.517,92.5025,0.012539,1.69328,18.8068,74.1453,0.846204,0.0,0.0
2058,514.25,182.63,195.523,80.9995,101.504,91.8279,0.0125063,1.69236,18.8085,73.7449,0.911699,0.0,0.0
2065,516,182.38,196.115,90.4832,101.481,92.7051,0.0125134,1.6865,18.8154,73.3446,0.823104,0.0,0.0
2072,517.75,182.103,195.76,85.0494,101.447,91.9275,0.0125229,1.68214,18.8191,72.9042,0.896686,0.0,0.0
2079,519.5,182.867,196.859,90.8564,101.391,92.6858,0.0124915,1.68415,18.8157,72.4738,0.816911,0.0,0.0
2086,521.25,183.122,196.643,89.6848,101.332,92.9767,0.0124379,1.69933,18.7979,72.0234,0.783088,0.0,0.0
2093,523,183.469,197.178,85.7677,101.244,91.2462,0.0123865,1.71056,18.7882,71.593,0.946206,0.0,0.0
2100,524.75,184.299,197.491,87.9186,101.168,91.492,0.0123539,1.71104,18.7845,71.2127,0.914861,0.0,0.0
2107,526.5,184.29,197.94,90.6,101.076,94.0227,0.0122727,1.70794,18.7872,70.7623,0.658298,0.0,0.0
2114,528.25,184.826,198.494,92.9325,100.969,92.5592,0.0123341,1.70363,18.7908,70.392,0.791386,0.0,0.0
2121,530,184.96,198.575,85.8432,100.849,92.0792,0.0125821,1.70304,18.7894,69.8916,0.827866,0.0,0.0
2128,531.75,185.455,199.194,81.388,100.735,91.791,0.0128199,1.71103,18.7786,69.4912,0.846156,0.0,0.0
2135,533.5,186.016,199.541,86.1417,100.603,91.7406,0.0129391,1.71872,18.7734,69.0508,0.839247,0.0,0.0
2142,535.25,186.106,199.844,87.385,100.489,91.9004,0.012921,1.72338,18.7708,68.6304,0.813069,0.0,0.0
2149,537,186.767,200.616,81.4475,100.395,92.3588,0.0128502,1.72168,18.7694,68.17,0.759251,0.0,0.0
2156,538.75,186.982,200.86,81.717,100.293,92.0828,0.0126932,1.72064,18.7681,67.7397,0.777258,0.0,0.0
2163,540.5,187.089,201.135,85.9486,100.199,92.0216,0.0125229,1.72697,18.7624,67.3193,0.774758,0.0,0.0
2170,542.25,187.004,201.364,87.6774,100.13,92.3057,0.0124572,1.7341,18.758,66.9289,0.740391,0.0,0.0
2177,544,187.657,201.93,88.0002,100.073,91.2245,0.0124267,1.73362,18.7559,66.4986,0.842458,0.0,0.0
2184,545.75,187.69,202.305,86.1707,100.037,92.0824,0.0124372,1.73563,18.7522,66.0582,0.754014,0.0,0.0
2191,547.5,188.101,202.322,85.9157,100.031,91.4533,0.0125204,1.74563,18.7432,65.5878,0.815818,0.0,0.0
2198,549.25,188.422,203.182,92.0883,100.029,91.9428,0.0126632,1.75804,18.7302,65.1674,0.767094,0.0,0.0
2205,551,188.653,203.803,84.6808,100.052,91.9329,0.012721,1.77226,18.7137,64.747,0.770182,0.0,0.0
2212,552.75,189.829,204.215,91.3594,100.095,92.7974,0.0126474,1.77771,18.7098,64.3166,0.688919,0.0,0.0
2219,554.5,190.065,203.844,84.4022,100.153,91.9261,0.0125685,1.76691,18.7199,63.8863,0.779997,0.0,0.0
2226,556.25,190.068,204.703,86.6783,100.227,91.1908,0.0126049,1.75287,18.729,63.4659,0.859867,0.0,0.0
2233,558,190.152,205.042,84.5899,100.31,91.3556,0.0127403,1.74977,18.7349,63.0055,0.8509,0.0,0.0
2240,559.75,190.607,205.207,89.4215,100.395,91.9846,0.0127885,1.744,18.7439,62.5951,0.796197,0.0,0.0
2247,561.5,190.43,205.624,92.0021,100.499,92.2746,0.0126808,1.72767,18.7629,62.1447,0.776994,0.0,0.0
2254,563.25,190.562,205.149,83.2366,100.615,92.2445,0.0125068,1.71273,18.7795,61.7744,0.790483,0.0,0.0
2261,565,190.223,205.825,85.0288,100.729,91.379,0.0123878,1.7035,18.7896,61.364,0.886556,0.0,0.0
2268,566.75,190.745,205.835,89.2871,100.821,92.987,0.0123494,1.70218,18.7965,60.9136,0.736063,0.0,0.0
2275,568.5,190.478,205.907,87.6545,100.904,91.0219,0.0123686,1.69907,18.7985,60.5133,0.937936,0.0,0.0
2282,570.25,190.77,205.986,92.012,100.994,92.6335,0.0124461,1.69758,18.7995,60.0729,0.786386,0.0,0.0
2289,572,190.889,205.884,90.658,101.076,92.9091,0.0124951,1.69867,18.8044,59.6525,0.766725,0.0,0.0
2296,573.75,191.121,206.367,89.2024,101.134,93.5517,0.0124496,1.69133,18.81,59.2822,0.709212,0.0,0.0
2303,575.5,191.176,206.285,89.8153,101.188,92.4368,0.0123603,1.66956,18.8314,58.8618,0.823134,0.0,0.0
2310,577.25,190.737,206.332,82.7436,101.219,92.9749,0.0122607,1.65901,18.8422,58.4214,0.773112,0.0,0.0
2317,579,190.204,206.484,84.3266,101.245,93.5823,0.0121737,1.65873,18.8494,57.961,0.716181,0.0,0.0
2324,580.75,190.28,206.19,84.335,101.255,93.7868,0.0120859,1.65654,18.8528,57.6007,0.697255,0.0,0.0
2331,582.5,190.275,206.356,86.4264,101.226,93.3612,0.0119621,1.64813,18.862,57.2204,0.736055,0.0,0.0
2338,584.25,190.164,206.016,94.5865,101.191,92.7556,0.0119077,1.64269,18.8668,56.79,0.792124,0.0,0.0
2345,586,190.277,206.383,86.3523,101.138,93.6625,0.0120216,1.64475,18.8672,56.3496,0.698839,0.0,0.0
2352,587.75,190.084,205.824,85.4471,101.065,92.3332,0.0122313,1.64627,18.8674,55.9693,0.822343,0.0,0.0
2359,589.5,189.82,206.018,94.6766,100.998,93.1793,0.0122812,1.63713,18.881,55.5789,0.733288,0.0,0.0
2366,591.25,189.585,205.545,90.2855,100.905,92.6939,0.0120644,1.60234,18.9241,55.1686,0.772398,0.0,0.0
2373,593,188.683,205.524,90.2962,100.802,92.8632,0.0116822,1.55943,18.9883,54.8183,0.746461,0.0,0.0
2380,594.75,187.366,205.38,102.506,100.718,93.4878,0.0112927,1.51047,19.0436,54.4279,0.677959,0.0,0.0
2387,596.5,187.158,203.981,90.9755,100.634,92.6871,0.0108835,1.47018,19.0934,54.0976,0.748616,0.0,0.0
2394,598.25,185.492,203.754,88.4139,100.539,94.1749,0.0105741,1.43525,19.1418,53.7173,0.595103,0.0,0.0
2401,600,185.109,202.304,88.5506,100.45,94.1745,0.0103453,1.38846,19.1962,53.397,0.587048,0.0,0.0
2408,601.75,183.61,201.461,94.7186,100.453,92.8497,0.0101174,1.34406,19.2556,53.0167,0.716228,0.0,0.0
2415,603.5,182.321,200.575,92.1715,100.53,93.9155,0.00995172,1.30781,19.3081,52.7465,0.619406,0.0,0.0
2422,605.25,181.38,199.075,98.2182,100.633,92.9924,0.00989113,1.2726,19.362,52.4062,0.718618,0.0,0.0
2429,607,179.753,198.111,103.504,100.717,90.1618,0.00974616,1.2206,19.4349,52.1259,1.0075,0.0,0.0
2436,608.75,177.885,196.965,99.1257,100.778,93.7787,0.00945588,1.16382,19.5038,51.8256,0.655024,0.0,0.0
2443,610.5,176.119,195.424,98.1411,100.829,93.4382,0.00932554,1.11192,19.569,51.5754,0.692733,0.0,0.0
2450,612.25,174.167,193.534,100.265,100.852,90.9228,0.00943446,1.05456,19.6506,51.2952,0.943164,0.0,0.0
2457,614,171.574,191.738,100.914,100.886,91.9626,0.00941752,0.993689,19.7291,51.095,0.842786,0.0,0.0
2464,615.75,168.737,189.728,103.275,100.893,91.3749,0.00916437,0.924346,19.8202,50.8348,0.901772,0.0,0.0
2471,617.5,166.393,186.943,105.203,100.874,89.4729,0.00859451,0.864852,19.8954,50.6346,1.09144,0.0,0.0
2478,619.25,163.331,185.116,111.023,100.825,91.8604,0.00771225,0.777214,19.9789,50.4845,0.847358,0.0,0.0
2485,621,159.923,182.551,115.204,100.731,95.2007,0.00670483,0.693599,20.1126,50.3343,0.513881,0.0,0.0
2492,622.75,156.932,179.181,116.586,100.616,96.0513,0.00581849,0.598929,20.2514,50.2042,0.422536,0.0,0.0
2499,624.5,153.208,176.138,115.88,100.564,99.6105,0.00492879,0.509526,20.3832,50.1241,0.0866543,0.0,0.0
2506,626.25,149.487,172.655,121.278,100.648,100.468,0.0041899,0.43496,20.5029,50.0641,0.0162754,0.0,0.0
2513,628,145.701,170.164,123.442,100.735,102.481,0.0034287,0.361093,20.6029,49.994,-0.156338,0.0,0.0
2520,629.75,142.099,166.396,125.402,100.816,105.271,0.00277389,0.298295,20.6887,49.964,-0.393464,0.0,0.0
2527,631.5,138.43,163.265,123.498,100.924,106.521,0.0021779,0.248093,20.7569,49.934,-0.491204,0.0,0.0
2534,633.25,135.208,159.852,126.224,101.029,106.618,0.00165936,0.206394,20.811,49.9039,-0.489969,0.0,0.0
2541,635,131.869,156.777,124.512,101.13,107.419,0.00122971,0.169544,20.8606,49.8939,-0.549032,0.0,0.0
2548,636.75,128.005,153.561,126.356,101.221,106.943,0.000892883,0.139028,20.8978,49.8939,-0.500434,0.0,0.0
2555,638.5,125.045,150.426,128.293,101.3,108.041,0.000643056,0.114248,20.926,49.9039,-0.586309,0.0,0.0
2562,640.25,121.993,147.32,130.811,101.372,108.046,0.000521756,0.0948046,20.9457,49.8839,-0.580201,0.0,0.0
2569,642,117.663,142.814,130.266,101.425,108.353,0.000493399,0.0798759,20.9617,49.8839,-0.601263,0.0,0.0
2576,643.75,114.768,139.637,127.188,101.461,108.365,0.000435089,0.0703864,20.9724,49.8939,-0.599063,0.0,0.0
2583,645.5,112.195,137.233,128.576,101.483,107.932,0.000302588,0.0635421,20.9797,49.8739,-0.560642,0.0,0.0
2590,647.25,109.75,134.743,128.325,101.477,107.731,0.000188254,0.0590256,20.9853,49.8939,-0.544227,0.0,0.0
2597,649,107.918,131.439,128.007,101.457,108.194,0.000117129,0.0560614,20.9891,49.8839,-0.585075,0.0,0.0
2604,650.75,105.795,129.783,128.957,101.413,107.985,8.32307e-05,0.0540979,20.9919,49.8839,-0.571386,0.0,0.0
2611,652.5,103.659,126.959,128.614,101.346,108.421,6.23208e-05,0.0526923,20.9937,49.8839,-0.614141,0.0,0.0
2618,654.25,102.083,125.333,133.972,101.262,108.107,2.40186e-05,0.0515594,20.9958,49.8839,-0.595255,0.0,0.0
2625,656,100.186,123.102,127.522,101.163,107.639,3.90404e-06,0.0507216,20.997,49.8739,-0.564724,0.0,0.0
2632,657.75,98.5541,120.657,130.251,101.046,108.23,-7.31776e-06,0.0499672,20.9987,49.8839,-0.625065,0.0,0.0
2639,659.5,97.1557,118.852,131.266,100.933,107.452,-3.54886e-05,0.0493769,20.9996,49.8839,-0.569509,0.0,0.0
2646,661.25,96.0452,116.79,130.188,100.795,107.435,-1.49662e-05,0.0489039,21.0001,49.8739,-0.580636,0.0,0.0
2653,663,94.7807,114.961,132.852,100.683,107.81,3.75342e-06,0.0483871,21.0002,49.8739,-0.622376,0.0,0.0
2660,664.75,92.4334,113.271,130.435,100.555,107.554,-2.02074e-05,0.0478592,20.9996,49.8739,-0.612354,0.0,0.0
2667,666.5,91.7144,111.523,128.639,100.443,107.226,-5.933e-05,0.047393,20.9996,49.8839,-0.59462,0.0,0.0
2674,668.25,90.4496,109.39,130.945,100.317,107.393,-5.9363e-05,0.0471079,21.0003,49.8639,-0.620264,0.0,0.0
2681,670,89.4682,107.773,129.922,100.217,107.13,-0.000110609,0.0468605,21.0007,49.8739,-0.607045,0.0,0.0
2688,671.75,88.611,106.085,128.389,100.153,106.871,-0.000188413,0.0465558,21.0008,49.8739,-0.590829,0.0,0.0
2695,673.5,87.6877,104.465,130.616,100.093,106.963,-0.000167279,0.0462832,21.0011,49.8639,-0.604091,0.0,0.0
2702,675.25,86.6157,103.277,128.069,100.049,106.666,-7.11861e-05,0.0461483,21.0019,49.8739,-0.582839,0.0,0.0
2709,677,85.336,101.665,129.345,100.024,107.145,-2.14213e-05,0.0460173,21.0031,49.8639,-0.625835,0.0,0.0
2716,678.75,84.3471,99.7379,133.292,100.032,106.77,-0.000136233,0.0459366,21.0036,49.8739,-0.593234,0.0,0.0
2723,680.5,83.8073,98.8981,132.231,100.057,106.787,-0.000313064,0.0460919,21.003,49.8839,-0.592403,0.0,0.0
2730,682.25,83.1591,97.2918,129.373,100.117,106.665,-0.000429514,0.0463408,21.0016,49.8839,-0.576478,0.0,0.0
2737,684,82.0658,96.1992,132.51,100.157,107.121,-0.000404823,0.0465223,21.0005,49.8739,-0.611684,0.0,0.0
2744,685.75,81.0819,94.653,130.051,100.219,107.403,-0.000283279,0.0467422,20.9995,49.8839,-0.629981,0.0,0.0
2751,687.5,80.3571,93.6562,129.613,100.323,107.228,-0.000198979,0.0469465,20.9992,49.8839,-0.60578,0.0,0.0
2758,689.25,80.458,92.7112,128.923,100.406,107.407,-0.000122381,0.0469801,20.9991,49.8839,-0.61341,0.0,0.0
2765,691,79.5587,91.6635,130.125,100.496,107.393,-6.5168e-05,0.0467706,20.999,49.8739,-0.604088,0.0,0.0
2772,692.75,78.8326,90.7313,131.499,100.606,107.235,-0.000112675,0.0465345,21.0001,49.8739,-0.580715,0.0,0.0
2779,694.5,77.8255,89.2452,127.051,100.685,107.77,-0.000196403,0.0463679,21.0011,49.8739,-0.618924,0.0,0.0
2786,696.25,77.606,88.0332,128.117,100.782,107.616,-0.000238664,0.0462832,21.0016,49.8639,-0.597109,0.0,0.0
2793,698,77.4248,87.2391,133.019,100.871,107.921,-0.000271593,0.0461949,21.0019,49.8739,-0.614742,0.0,0.0
2800,699.75,76.9783,86.2278,127.302,100.947,108.039,-0.000267108,0.046294,21.002,49.8739,-0.617845,0.0,0.0
2807,701.5,76.0725,85.7127,125.834,101.02,107.875,-0.000178767,0.0464185,21.0021,49.8839,-0.597444,0.0,0.0
2814,703.25,75.8077,84.6575,130.054,101.088,108.293,-0.000136309,0.0466315,21.0021,49.8839,-0.626516,0.0,0.0
2821,705,75.3937,84.1038,130.193,101.147,108.445,-0.000187216,0.0466681,21.0021,49.8539,-0.634015,0.0,0.0
2828,706.75,74.8907,82.9197,133.859,101.18,108.325,-0.00031772,0.0465735,21.0021,49.8639,-0.620941,0.0,0.0
2835,708.5,73.8506,81.7023,130.043,101.206,108.368,-0.000412245,0.0462954,21.0021,49.8639,-0.622274,0.0,0.0
2842,710.25,74.0831,81.0153,131.337,101.243,108.654,-0.000356144,0.045979,21.0014,49.8639,-0.642915,0.0,0.0
2849,712,73.7057,80.7627,127.291,101.251,108.519,-0.000242408,0.0456728,21.0011,49.8839,-0.630876,0.0,0.0
2856,713.75,73.1181,79.5476,132.265,101.244,108.313,-0.000166078,0.0454549,21.0018,49.8839,-0.614138,0.0,0.0
2863,715.5,72.8038,78.9902,132.385,101.235,108.488,-0.000173828,0.0452684,21.0018,49.8739,-0.629705,0.0,0.0
2870,717.25,72.0554,78.6106,132.746,101.21,108.472,-0.000193648,0.0450319,21.0016,49.8839,-0.630606,0.0,0.0
2877,719,72.057,77.4184,129.953,101.172,108.441,-0.000213827,0.0448049,21.0015,49.8639,-0.631486,0.0,0.0
2884,720.75,71.6989,76.917,134.662,101.122,108.17,-0.000223776,0.0445254,21.0015,49.8639,-0.613163,0.0,0.0
2891,722.5,71.0637,76.4444,129.472,101.075,108.315,-0.000262163,0.0445269,21.0014,49.8939,-0.629592,0.0,0.0
2898,724.25,71.2056,76.1453,129.477,101.003,108.223,-0.000316556,0.0444696,21.0014,49.8739,-0.628344,0.0,0.0
2905,726,70.9077,75.0244,132.866,100.954,108.016,-0.000344536,0.0443878,21.0022,49.8739,-0.615263,0.0,0.0
2912,727.75,70.1006,74.989,128.275,100.893,108.274,-0.00032962,0.0443399,21.0019,49.8839,-0.642555,0.0,0.0
2919,729.5,70.2624,74.276,135.322,100.82,108.102,-0.000298103,0.0442813,21.0017,49.8839,-0.63468,0.0,0.0
2926,731.25,69.7672,73.7171,130.043,100.755,107.91,-0.000295427,0.0442411,21.0015,49.8639,-0.62432,0.0,0.0
2933,733,69.1033,73.3397,133.956,100.689,107.807,-0.000275075,0.0441894,21.0019,49.8839,-0.621571,0.0,0.0
2940,734.75,69.5893,72.7648,134.576,100.613,107.4,-0.000260377,0.0441232,21.0022,49.8039,-0.594075,0.0,0.0
2947,736.5,68.8169,72.3601,130.512,100.553,108,-0.000288622,0.0441426,21.0017,49.8339,-0.650174,0.0,0.0
2954,738.25,68.511,71.7241,131.196,100.486,107.782,-0.000323487,0.04406,21.0027,49.8339,-0.637864,0.0,0.0
2961,740,68.3407,71.0917,131.374,100.437,107.558,-0.000339048,0.0439293,21.0033,49.8739,-0.623397,0.0,0.0
2968,741.75,68.9465,70.43,133.801,100.475,107.526,-0.000326796,0.0439031,21.0035,49.8639,-0.617255,0.0,0.0
2975,743.5,67.9109,70.0537,132.646,100.508,107.688,-0.000302642,0.043918,21.0037,49.8639,-0.627925,0.0,0.0
2982,745.25,67.7694,69.9257,129.074,100.559,107.587,-0.000290558,0.043932,21.0037,49.8839,-0.614771,0.0,0.0
2989,747,67.4947,69.2919,132.669,100.608,107.863,-0.000279811,0.0439197,21.0038,49.8639,-0.63361,0.0,0.0
2996,748.75,67.2712,69.0465,132.024,100.677,107.879,-0.000260824,0.0438929,21.0034,49.8839,-0.628768,0.0,0.0
3003,750.5,66.8332,68.615,128.236,100.73,108.003,,0.0438715,,49.8639,-0.634447,0.0,0.0
3010,752.25,66.7141,68.4117,131.852,100.75,108.115,,0.0438766,,49.8739,-0.642015,0.0,0.0
3017,754,66.4208,67.9322,129.227,100.791,107.935,,,,49.8739,-0.623201,0.0,0.0
3024,755.75,66.2448,67.1519,131.25,100.778,107.843,,,,49.8639,-0.61664,0.0,0.0
3031,757.5,66.0924,67.3849,130.647,100.8,108.352,,,,49.8739,-0.657494,0.0,0.0
3038,759.25,65.8642,66.8264,134.726,100.805,108.098,,,,49.8639,-0.635672,0.0,0.0
3045,761,65.8815,66.5621,135.198,100.819,108.16,,,,49.8839,-0.639677,0.0,0.0