File: 01_Data/Black_PMMA/Cone/Black_PMMA_Cone_HF25Scan_220315_R3.csv
Names,Time,Stack TC,Smoke TC,Exh Press,Smoke Comp,Smoke Meas,CO Meter,CO2 Meter,O2 Meter,Sample Mass,Ext Coeff,Start Test,Flame Verif
Chan Gain,,500,500,1,1,1,1,1,1,1,1,1.0,1.0
Offset,,0,0,0.136235,0,0,0,0,0,0,0,0.0,0.0
Gain,,1,1,25.011,13.6985,14.3472,1,1,1,1.00091,1.01482,1.0,1.0
Units,sec,C,C,Pa,%,%,%,%,%,g,/m,,
Baseline,,22.6693,21.6627,174.833,103.744,99.4638,0.000950575,0.0455087,21.0201,-832.134,0.375064,,
7,1.5,20.8922,19.9872,182.05,102.927,98.1143,0.000974348,0.0514423,21.0112,-237.726,0.426259,0.0,0.0
14,3.25,20.8146,19.9202,176.065,102.889,98.1756,0.000932699,0.0509546,21.0117,-237.816,0.41748,0.0,0.0
21,5,20.3738,19.8343,174.396,102.888,98.3879,0.000915019,0.0517128,21.0111,-237.766,0.398138,0.0,0.0
28,6.75,20.7073,20.0434,172.111,102.909,98.2644,0.000905237,0.0531519,21.0087,-237.786,0.411161,0.0,0.0
35,8.5,20.6573,20.4921,177.214,102.968,98.5534,0.000939623,0.0548011,21.0073,-237.786,0.390082,0.0,0.0
42,10.25,20.6157,20.1215,175.478,103.06,98.3319,0.00103753,0.0552551,21.0076,-237.816,0.418099,0.0,0.0
49,12,20.7882,20.4957,176.297,103.193,98.5306,0.00111224,0.0546474,21.0088,-237.816,0.411525,0.0,0.0
56,13.75,20.6982,20.1661,174.894,103.312,99.0114,0.0011306,0.0532495,21.0097,-237.796,0.378541,0.0,0.0
63,15.5,20.7722,20.2114,176.907,103.462,98.8135,0.00109601,0.051594,21.0124,-237.786,0.409238,0.0,0.0
70,17.25,20.7045,20.0511,176.165,103.593,98.8222,0.00106726,0.0500545,21.0148,-237.806,0.419737,0.0,0.0
77,19,20.7629,20.2673,178.379,103.733,98.8376,0.00111101,0.0486259,21.0175,-237.846,0.430311,0.0,0.0
84,20.75,20.5051,20.299,176.306,103.845,99.2124,0.00118698,0.0473939,21.0193,-237.816,0.4063,0.0,0.0
91,22.5,20.748,19.8946,175.685,103.965,99.3704,0.00122531,0.046475,21.0209,-237.846,0.402407,0.0,0.0
98,24.25,20.7668,19.5134,177.219,104.049,99.2483,0.0011593,0.045944,21.0214,-237.826,0.420477,0.0,0.0
105,26,20.3252,19.9402,175.71,104.143,99.299,0.00105108,0.045661,21.0207,-237.826,0.423968,0.0,0.0
112,27.75,20.5915,19.9214,178.537,104.198,99.1261,0.00100238,0.0460035,21.0198,-237.836,0.444201,0.0,0.0
119,29.5,20.585,20.0727,175.483,104.213,99.3424,0.000982316,0.0465417,21.0187,-237.796,0.426083,0.0,0.0
126,31.25,20.5193,19.7901,175.295,104.216,99.1581,0.000930664,0.0468621,21.0188,-237.826,0.442866,0.0,0.0
133,33,21.1581,20.4943,173.394,104.189,98.9015,0.000894419,0.0467857,21.0195,-237.816,0.463609,0.0,0.0
140,34.75,20.2304,19.7665,175.47,104.145,98.8616,0.00088742,0.0462184,21.0198,-237.836,0.46348,0.0,0.0
147,36.5,21.171,20.436,171.702,104.096,98.9475,0.000897689,0.045653,21.0199,-237.836,0.451539,0.0,0.0
154,38.25,20.5445,20.2595,177.941,103.996,99.0009,0.00086546,0.0452563,21.0201,-237.826,0.438186,0.0,0.0
161,40,20.8585,20.4235,179.665,103.881,98.884,0.000830119,0.0451283,21.0208,-237.866,0.438857,0.0,0.0
168,41.75,21.0132,20.1887,172.811,103.773,98.9142,0.000863174,0.0449449,21.021,-237.816,0.426891,0.0,0.0
175,43.5,20.8257,20.4135,175.264,103.707,98.8183,0.000919738,0.044754,21.0212,-237.866,0.429822,0.0,0.0
182,45.25,20.6803,20.359,170.748,103.635,98.5263,0.000846762,0.0446745,21.0213,-237.836,0.45003,0.0,0.0
189,47,21.1808,20.182,172.468,103.592,98.5477,0.000813234,0.0444502,21.0218,-237.826,0.444356,0.0,0.0
196,48.75,20.8198,19.9376,177.412,103.741,98.6848,0.00091808,0.0442432,21.0223,-237.866,0.444801,0.0,0.0
203,50.5,20.668,20.3466,169.991,103.955,98.6878,0.00102322,0.0442094,21.0226,-237.846,0.462836,0.0,0.0
210,52.25,20.7653,20.5471,175.507,104.154,99.0731,0.00103146,0.0441189,21.0221,-237.816,0.445209,0.0,0.0
217,54,21.0934,19.9734,177.699,104.291,99.4256,0.000967598,0.0441727,21.0213,-237.836,0.425271,0.0,0.0
224,55.75,21.0218,19.882,173.447,104.38,99.0009,0.000894951,0.0441205,21.0209,-237.816,0.470975,0.0,0.0
231,57.5,21.0556,20.4449,175.208,104.471,99.2929,0.000927315,0.0440715,21.0211,-237.816,0.452523,0.0,0.0
238,59.25,20.8965,20.1313,172.976,104.477,99.2408,0.00103861,0.0440348,21.0212,-237.836,0.457695,0.0,0.0
245,61,20.8282,20.3205,171.652,104.448,99.2399,0.00107915,0.0440312,21.0213,-237.836,0.455315,0.0,0.0
252,62.75,20.8562,20.4349,174.913,104.367,99.0315,0.000986837,0.044037,21.0228,-237.836,0.467115,0.0,0.0
259,64.5,20.9151,20.0859,176.648,104.228,98.9899,0.000874712,0.0440977,21.0241,-237.846,0.459045,0.0,0.0
266,66.25,21.1707,19.9386,178.519,104.032,98.6791,0.000806833,0.0440865,21.0247,-237.836,0.470282,0.0,0.0
273,68,20.8958,20.3835,178.154,104.066,98.7736,0.00080733,0.0440635,21.025,-237.906,0.464616,0.0,0.0
280,69.75,20.7633,20.0934,177.113,104.164,98.9085,0.000876747,0.0443133,21.0245,-237.866,0.460871,0.0,0.0
287,71.5,20.2749,19.3546,174.128,104.296,98.884,0.000965655,0.0446437,21.0237,-237.876,0.47436,0.0,0.0
294,73.25,20.8803,20.5848,175.709,104.411,99.1918,0.00102742,0.044761,21.0234,-237.876,0.456465,0.0,0.0
301,75,20.8847,20.1965,174.475,104.534,99.4711,0.00109435,0.0447138,21.0232,-237.856,0.441939,0.0,0.0
308,76.75,20.9056,20.6495,174.84,104.64,99.4886,0.00114142,0.0447502,21.0231,-237.866,0.449373,0.0,0.0
315,78.5,20.9988,20.429,175.465,104.725,99.5653,0.00115061,0.0447768,21.0226,-237.866,0.449736,0.0,0.0
322,80.25,21.4665,20.6211,169.942,104.82,99.4759,0.00109942,0.0449811,21.0224,-237.846,0.46586,0.0,0.0
329,82,21.3238,20.1661,173.294,104.884,99.6187,0.000961192,0.0452412,21.0223,-237.856,0.458491,0.0,0.0
336,83.75,21.0306,20.3713,173.509,104.909,99.5928,0.000881593,0.0454626,21.0222,-237.856,0.462963,0.0,0.0
343,85.5,20.9151,20.4498,175.262,104.909,99.7535,0.00100834,0.0454564,21.0224,-237.866,0.448542,0.0,0.0
350,87.25,21.0671,20.4913,172.39,104.882,99.5061,0.00122253,0.0453936,21.0225,-237.846,0.468374,0.0,0.0
357,89,20.7171,20.4109,175.724,104.825,99.5657,0.00139543,0.0452515,21.0229,-237.886,0.458222,0.0,0.0
364,90.75,21.1377,20.4195,175.775,104.711,99.3297,0.00140632,0.0450588,21.0244,-237.886,0.46965,0.0,0.0
371,92.5,20.8787,20.7226,175.227,104.565,99.1187,0.00126239,0.0447746,21.0252,-237.846,0.476207,0.0,0.0
378,94.25,20.582,20.8199,173.813,104.389,99.0053,0.00111895,0.0445387,21.0255,-237.896,0.471366,0.0,0.0
385,96,20.1333,19.5482,177.757,104.195,99.0061,0.00105008,0.0443403,21.0246,-237.896,0.454766,0.0,0.0
392,97.75,20.5768,20.116,173.445,103.99,98.581,0.000982483,0.0441288,21.024,-237.896,0.475485,0.0,0.0
399,99.5,20.6771,19.9801,176.236,103.791,98.3012,0.000937416,0.0441093,21.0236,-237.886,0.483771,0.0,0.0
406,101.25,20.674,20.3845,172.275,103.584,98.2101,0.000957726,0.0440613,21.0243,-237.886,0.47422,0.0,0.0
413,103,20.3257,20.2196,176.799,103.404,98.0919,0.00101826,0.0440528,21.0246,-237.886,0.469445,0.0,0.0
420,104.75,20.8156,20.2579,174.843,103.265,98.0057,0.00108653,0.0440823,21.0237,-237.916,0.465355,0.0,0.0
427,106.5,21.0752,20.8979,176.915,103.163,97.9632,0.00110773,0.0441141,21.0232,-237.896,0.46038,0.0,0.0
434,108.25,20.8925,20.5652,169.686,103.116,97.7863,0.00110461,0.0440916,21.0229,-237.886,0.472391,0.0,0.0
441,110,20.33,19.7539,175.351,103.077,97.5529,0.00114301,0.0442015,21.0232,-237.916,0.49034,0.0,0.0
448,111.75,20.5178,20.1813,177.641,103.105,97.9076,0.00118401,0.0442293,21.0231,-237.946,0.460418,0.0,0.0
455,113.5,20.4243,20.6714,173.975,103.13,97.5634,0.00114425,0.0443163,21.0221,-237.956,0.493966,0.0,0.0
462,115.25,20.2846,20.4104,175.544,103.195,97.7614,0.00109441,0.0445896,21.0198,-237.976,0.481554,0.0,0.0
469,117,20.9444,21.058,171.124,103.264,97.7649,0.00123261,0.0517248,20.9995,-238.006,0.487183,0.0,1.0
476,118.75,21.1386,20.737,166.337,103.367,98.2828,0.00152828,0.0787411,20.954,-238.066,0.449005,0.0,1.0
483,120.5,21.4017,20.9881,159.811,103.458,97.5035,0.00200603,0.120967,20.8855,-238.196,0.527722,0.0,1.0
490,122.25,22.0647,21.4578,156.893,103.565,98.2526,0.00263197,0.181451,20.7941,-238.336,0.468719,0.0,1.0
497,124,23.6159,23.0567,154.512,103.664,97.5919,0.00320766,0.258116,20.6834,-238.476,0.537366,0.0,1.0
504,125.75,24.7985,23.7341,153.5,103.782,99.1603,0.00363073,0.331936,20.5751,-238.647,0.405527,0.0,1.0
511,127.5,26.6924,25.4305,144.634,103.893,100.892,0.00387579,0.40498,20.4757,-238.887,0.260906,0.0,0.0
518,129.25,28.0178,27.1297,152.251,103.981,99.9541,0.00407717,0.481085,20.3908,-239.127,0.351564,0.0,0.0
525,131,30.1409,30.4007,141.231,104.054,99.2544,0.00432168,0.542802,20.3164,-239.317,0.420393,0.0,0.0
532,132.75,32.5207,32.4054,139.304,104.121,101.522,0.00463936,0.596025,20.2409,-239.587,0.225065,0.0,0.0
539,134.5,34.3057,34.074,141.44,104.197,99.8779,0.00499406,0.650165,20.1718,-239.838,0.376872,0.0,0.0
546,136.25,37.2583,37.4089,138.468,104.271,100.024,0.00542625,0.689042,20.123,-240.098,0.37013,0.0,0.0
553,138,38.7287,39.0637,132.763,104.305,100.804,0.00575464,0.718134,20.087,-240.388,0.303887,0.0,0.0
560,139.75,41.3785,42.0518,138.368,104.343,100.705,0.00597034,0.73962,20.0606,-240.618,0.315914,0.0,0.0
567,141.5,43.6373,44.6519,136.883,104.379,101.222,0.00613744,0.755019,20.0435,-240.899,0.273391,0.0,0.0
574,143.25,45.5038,46.9909,129.487,104.402,100.229,0.00626062,0.767322,20.0277,-241.169,0.363077,0.0,0.0
581,145,47.3181,49.2629,137.512,104.412,100.82,0.00632443,0.780337,20.0098,-241.439,0.311697,0.0,0.0
588,146.75,49.0439,50.4899,139.46,104.402,100.57,0.00636358,0.7892,19.9985,-241.699,0.33287,0.0,0.0
595,148.5,51.3872,53.423,136.866,104.403,100.38,0.00643898,0.795305,19.9912,-241.96,0.349814,0.0,0.0
602,150.25,53.2486,54.9051,137.178,104.39,100.145,0.00657805,0.80298,19.9812,-242.23,0.369583,0.0,0.0
609,152,54.3378,56.7883,139.146,104.378,100.334,0.00672281,0.808523,19.9745,-242.55,0.351716,0.0,0.0
616,153.75,56.1921,59.1128,140.081,104.345,99.363,0.00679112,0.814081,19.9675,-242.77,0.435481,0.0,0.0
623,155.5,58.1792,60.464,133.282,104.297,101.153,0.00668494,0.822726,19.957,-243.061,0.272446,0.0,0.0
630,157.25,59.4108,62.4451,135.561,104.269,99.7907,0.00646233,0.828171,19.9514,-243.341,0.390781,0.0,0.0
637,159,60.6302,64.1934,132.977,104.243,99.6585,0.00627115,0.828628,19.9541,-243.611,0.400336,0.0,0.0
644,160.75,61.4743,65.6737,130.929,104.206,100.802,0.00617835,0.825468,19.9592,-243.861,0.295695,0.0,0.0
651,162.5,63.3951,66.8456,136.66,104.181,99.8542,0.00617922,0.822568,19.962,-244.152,0.377621,0.0,0.0
658,164.25,63.8734,68.063,134.057,104.145,100.887,0.00622138,0.821277,19.9634,-244.432,0.282982,0.0,0.0
665,166,65.8301,69.5798,128.481,104.131,99.1962,0.00629287,0.82301,19.9584,-244.692,0.432231,0.0,0.0
672,167.75,66.4834,71.5451,133.165,104.102,99.976,0.00642288,0.827627,19.9502,-244.992,0.359987,0.0,0.0
679,169.5,67.7214,72.1771,136.032,104.077,100.426,0.00648628,0.832352,19.9445,-245.273,0.317816,0.0,0.0
686,171.25,69.1323,74.0758,133.343,104.055,100.22,0.00642535,0.835344,19.9425,-245.493,0.334294,0.0,0.0
693,173,70.1353,74.9862,125.327,104.054,100.021,0.00637412,0.835682,19.9402,-245.763,0.351858,0.0,0.0
700,174.75,71.0473,76.0682,138.108,104.041,100.1,0.00639262,0.836739,19.9375,-246.023,0.343738,0.0,0.0
707,176.5,72.2609,77.4096,136.62,104.016,100.195,0.00647422,0.839312,19.936,-246.324,0.333181,0.0,0.0
714,178.25,72.737,78.424,139.053,104.006,99.9497,0.00663625,0.839962,19.937,-246.584,0.354137,0.0,0.0
721,180,74.1491,79.1824,125.618,103.999,99.1213,0.00680268,0.839742,19.9383,-246.904,0.427652,0.0,0.0
728,181.75,75.1059,80.8762,133.979,103.998,99.4422,0.00683919,0.840301,19.937,-247.154,0.398733,0.0,0.0
735,183.5,75.71,81.6935,139.318,104.003,98.9085,0.00679246,0.842927,19.9333,-247.435,0.447069,0.0,0.0
742,185.25,75.8873,82.9982,133.152,103.983,98.3437,0.00678816,0.846095,19.9289,-247.685,0.496404,0.0,0.0
749,187,77.3674,83.1263,130.321,103.971,98.7285,0.00683025,0.849794,19.9224,-247.985,0.46056,0.0,0.0
756,188.75,77.7242,84.457,129.768,103.981,99.3507,0.00679273,0.85215,19.9196,-248.245,0.405461,0.0,0.0
763,190.5,78.5981,85.4598,124.981,103.984,98.4904,0.0066524,0.853712,19.918,-248.515,0.483172,0.0,0.0
770,192.25,79.1483,85.8242,133.531,103.991,99.8696,0.00654567,0.855508,19.9161,-248.836,0.359952,0.0,0.0
777,194,79.8621,86.9799,141.183,103.988,99.1419,0.00658044,0.856593,19.914,-249.116,0.424874,0.0,0.0
784,195.75,80.7962,87.4773,138.594,104.002,99.0985,0.00667786,0.856576,19.9116,-249.416,0.429912,0.0,0.0
791,197.5,81.1637,88.2909,140.754,104.009,98.4982,0.00679183,0.858501,19.9076,-249.616,0.484607,0.0,0.0
798,199.25,81.7068,89.097,130.618,104.032,98.6467,0.00696239,0.863381,19.9013,-249.957,0.473134,0.0,0.0
805,201,81.7926,90.1684,130.101,104.039,98.1213,0.00703523,0.869521,19.894,-250.227,0.521355,0.0,0.0
812,202.75,83.1477,90.7362,135.108,104.054,100.133,0.00702846,0.873166,19.8907,-250.517,0.341926,0.0,0.0
819,204.5,82.7585,90.9789,141.268,104.09,98.3564,0.00702182,0.871781,19.8916,-250.828,0.50434,0.0,0.0
826,206.25,84.0222,91.9118,139.332,104.09,98.8783,0.00705736,0.871491,19.892,-251.068,0.457228,0.0,0.0
833,208,83.6007,92.8806,134.702,104.121,98.768,0.00710415,0.871768,19.8921,-251.378,0.469848,0.0,0.0
840,209.75,84.7194,93.6298,130.136,104.132,99.426,0.00713138,0.872279,19.8922,-251.608,0.411662,0.0,0.0
847,211.5,85.5623,93.6876,133.21,104.164,100.032,0.0071071,0.872368,19.8923,-251.889,0.360327,0.0,0.0
854,213.25,85.9898,94.5017,140.199,104.188,98.9715,0.00701495,0.871853,19.8925,-252.209,0.457234,0.0,0.0
861,215,86.38,95.2159,125.908,104.201,99.9313,0.00694056,0.872012,19.8944,-252.479,0.372468,0.0,0.0
868,216.75,87.4475,95.5851,134.952,104.24,100.052,0.0069529,0.86945,19.8981,-252.759,0.365034,0.0,0.0
875,218.5,87.5701,96.1537,129.067,104.254,98.6817,0.00700594,0.866121,19.8999,-253.03,0.48902,0.0,0.0
882,220.25,87.9976,96.5753,131.598,104.276,99.8446,0.00706256,0.86511,19.902,-253.3,0.386585,0.0,0.0
889,222,88.4251,96.9715,134.313,104.307,99.74,0.00707952,0.863935,19.9019,-253.59,0.398561,0.0,0.0
896,223.75,88.4861,97.644,135.748,104.323,98.5665,0.0070601,0.863533,19.9017,-253.86,0.505266,0.0,0.0
903,225.5,88.9733,97.9259,127.728,104.329,99.2325,0.00700116,0.865546,19.8997,-254.141,0.445823,0.0,0.0
910,227.25,89.4019,98.3228,129.887,104.355,99.592,0.00695633,0.869019,19.8953,-254.461,0.415845,0.0,0.0
917,229,89.8501,99.0676,135.325,104.37,100.519,0.00697309,0.871627,19.8923,-254.751,0.33466,0.0,0.0
924,230.75,90.28,99.1504,135.062,104.38,100.595,0.0069781,0.874076,19.8875,-255.001,0.328846,0.0,0.0
931,232.5,90.4109,99.3444,131.726,104.385,99.0237,0.00689637,0.877672,19.8834,-255.342,0.469356,0.0,0.0
938,234.25,90.5502,100.103,132.09,104.394,99.109,0.0068401,0.880769,19.8817,-255.582,0.462433,0.0,0.0
945,236,90.1306,99.9139,133.149,104.415,99.1073,0.00679897,0.881514,19.8812,-255.922,0.464408,0.0,0.0
952,237.75,92.146,100.811,132.358,104.421,99.6393,0.00672481,0.881284,19.8809,-256.232,0.417252,0.0,0.0
959,239.5,91.8597,101.254,131.792,104.42,99.9939,0.00668016,0.882262,19.8791,-256.473,0.385588,0.0,0.0
966,241.25,91.6971,102.027,127.663,104.42,99.3157,0.00663962,0.886871,19.8702,-256.743,0.446136,0.0,0.0
973,243,92.6012,101.942,131.28,104.446,100.088,0.00664015,0.891349,19.8635,-257.053,0.379423,0.0,0.0
980,244.75,91.9779,101.861,136.064,104.422,99.9457,0.00673188,0.897054,19.8548,-257.333,0.389983,0.0,0.0
987,246.5,92.2526,102.648,136.854,104.413,99.4041,0.00690756,0.905005,19.8465,-257.594,0.437606,0.0,0.0
994,248.25,94.0135,103.554,126.993,104.396,99.6274,0.00706239,0.911397,19.8394,-257.934,0.416205,0.0,0.0
1001,250,93.7146,104.219,130.79,104.38,99.3752,0.00716588,0.915505,19.8342,-258.224,0.437377,0.0,0.0
1008,251.75,94.3232,104.433,132.527,104.356,99.5158,0.00723784,0.922076,19.8222,-258.525,0.4228,0.0,0.0
1015,253.5,94.8726,104.659,132.585,104.338,99.5683,0.0072981,0.929896,19.8136,-258.815,0.416496,0.0,0.0
1022,255.25,94.9214,105.305,130.753,104.3,99.4799,0.00733799,0.932725,19.8099,-259.145,0.421232,0.0,0.0
1029,257,95.3492,105.532,126.206,104.257,100.133,0.00732916,0.930071,19.8089,-259.435,0.35933,0.0,0.0
1036,258.75,96.0163,105.928,129.334,104.205,98.6375,0.00732995,0.933274,19.804,-259.756,0.488762,0.0,0.0
1043,260.5,96.3792,106.15,132.112,104.164,99.6787,0.00743649,0.942405,19.7928,-260.036,0.391787,0.0,0.0
1050,262.25,96.3997,106.815,131.561,104.119,98.4658,0.00767124,0.950982,19.7839,-260.336,0.496977,0.0,0.0
1057,264,96.6473,107.433,130.407,104.065,99.666,0.00776265,0.957886,19.7772,-260.606,0.384485,0.0,0.0
1064,265.75,97.3389,107.736,131.306,104.024,98.1086,0.00770647,0.962325,19.774,-260.957,0.521218,0.0,0.0
1071,267.5,97.8038,107.998,134.434,103.973,99.5219,0.00764783,0.958794,19.7781,-261.247,0.389455,0.0,0.0
1078,269.25,98.0684,108.936,132.833,103.894,99.4549,0.00761714,0.952679,19.7865,-261.507,0.388717,0.0,0.0
1085,271,98.3501,108.744,129.243,103.851,99.2202,0.00749975,0.948165,19.7905,-261.808,0.406058,0.0,0.0
1092,272.75,98.8762,108.94,137.799,103.799,100.272,0.00735507,0.948326,19.7878,-262.148,0.307718,0.0,0.0
1099,274.5,99.3105,109.819,126.631,103.756,99.1782,0.00733666,0.952209,19.7839,-262.428,0.401656,0.0,0.0
1106,276.25,99.3037,110.429,129.098,103.675,97.9339,0.00741865,0.953106,19.7837,-262.688,0.50709,0.0,0.0
1113,278,99.9301,110.188,133.888,103.62,99.4002,0.00754872,0.950096,19.7867,-263.069,0.370125,0.0,0.0
1120,279.75,99.4627,109.903,128.491,103.548,97.028,0.00764893,0.948746,19.7863,-263.339,0.578934,0.0,0.0
1127,281.5,100.359,110.9,130.4,103.524,98.4912,0.00769419,0.951004,19.7828,-263.659,0.443603,0.0,0.0
1134,283.25,99.8328,110.299,132.93,103.465,98.0346,0.0077151,0.957407,19.774,-263.99,0.47994,0.0,0.0
1141,285,100.52,111.424,134.336,103.42,98.4956,0.00775674,0.966406,19.7636,-264.27,0.434251,0.0,0.0
1148,286.75,101.418,111.488,124.233,103.369,99.574,0.00782993,0.971461,19.7566,-264.56,0.332996,0.0,0.0
1155,288.5,101.499,112.154,131.861,103.329,98.711,0.00790625,0.974734,19.7521,-264.93,0.407027,0.0,0.0
1162,290.25,101.516,112.449,130.57,103.302,98.7268,0.00793378,0.97936,19.7476,-265.201,0.403229,0.0,0.0
1169,292,102,112.811,128.188,103.257,98.7881,0.00789726,0.981929,19.7443,-265.511,0.393883,0.0,0.0
1176,293.75,101.888,113.514,131.228,103.221,98.4562,0.00782517,0.982341,19.7419,-265.821,0.420705,0.0,0.0
1183,295.5,102.62,113.905,118.94,103.197,98.2364,0.00772883,0.983836,19.7412,-266.101,0.438509,0.0,0.0
1190,297.25,102.729,114.125,139.088,103.192,97.285,0.0076688,0.984019,19.7405,-266.422,0.524713,0.0,0.0
1197,299,102.94,114.266,124.069,103.16,99.5893,0.00766899,0.988006,19.7321,-266.752,0.313608,0.0,0.0
1204,300.75,103.827,114.217,125.313,103.157,98.7399,0.00771277,0.998988,19.7197,-267.062,0.389572,0.0,0.0
1211,302.5,103.907,114.809,126.774,103.157,98.6975,0.00777159,1.00453,19.7138,-267.383,0.393401,0.0,0.0
1218,304.25,104.113,115.175,121.703,103.165,97.9663,0.00776895,1.0059,19.7117,-267.703,0.460317,0.0,0.0
1225,306,104.719,115.926,125.466,103.176,98.3883,0.00777683,1.00655,19.7107,-268.033,0.422984,0.0,0.0
1232,307.75,104.925,115.85,135.974,103.196,98.243,0.00782551,1.00834,19.7066,-268.323,0.437841,0.0,0.0
1239,309.5,105.149,116.316,127.992,103.211,98.4917,0.00790077,1.01319,19.7006,-268.644,0.41667,0.0,0.0
1246,311.25,105.807,116.877,125.776,103.227,98.7176,0.00797483,1.01916,19.691,-268.974,0.397607,0.0,0.0
1253,313,105.855,117.515,131.64,103.28,97.8953,0.00797124,1.02555,19.6856,-269.304,0.47668,0.0,0.0
1260,314.75,106.169,117.456,129.764,103.295,99.2395,0.00792816,1.02828,19.6811,-269.605,0.356542,0.0,0.0
1267,316.5,106.421,117.427,122.948,103.339,97.8161,0.00787795,1.02795,19.6785,-269.955,0.488969,0.0,0.0
1274,318.25,106.087,117.945,119.942,103.386,98.9339,0.00780095,1.03161,19.6787,-270.225,0.391813,0.0,0.0
1281,320,107.623,117.992,127.15,103.429,98.7294,0.00778326,1.03311,19.6783,-270.596,0.413937,0.0,0.0
1288,321.75,107.501,118.983,124.572,103.475,98.9199,0.00780654,1.03421,19.6733,-270.866,0.400737,0.0,0.0
1295,323.5,107.611,119.455,122.374,103.525,97.7732,0.00779942,1.03701,19.6701,-271.296,0.508884,0.0,0.0
1302,325.25,108.238,119.416,126.681,103.59,99.0031,0.00774989,1.04006,19.6681,-271.576,0.403174,0.0,0.0
1309,327,108.501,119.633,123.463,103.672,99.2636,0.00769894,1.0419,19.6634,-271.937,0.386783,0.0,0.0
1316,328.75,109.125,120,126.109,103.753,97.8275,0.00770322,1.04633,19.6577,-272.227,0.523476,0.0,0.0
1323,330.5,109.094,120.062,132.278,103.833,97.3305,0.00774646,1.04875,19.6538,-272.507,0.575732,0.0,0.0
1330,332.25,109.159,121.276,127.364,103.89,98.4763,0.00786449,1.04973,19.6507,-272.898,0.476383,0.0,0.0
1337,334,109.318,121.157,125.989,103.986,98.9807,0.00804864,1.05366,19.6445,-273.188,0.439102,0.0,0.0
1344,335.75,109.899,121.623,140.434,104.088,98.5692,0.00817979,1.06007,19.6346,-273.558,0.484994,0.0,0.0
1351,337.5,109.506,120.755,127.741,104.155,99.8573,0.00821501,1.0718,19.6223,-273.919,0.375098,0.0,0.0
1358,339.25,110.954,121.549,117.616,104.242,97.827,0.00821449,1.07571,19.6164,-274.209,0.565419,0.0,0.0
1365,341,110.205,121.895,121.542,104.316,98.9694,0.0082639,1.07346,19.6143,-274.539,0.468354,0.0,0.0
1372,342.75,111.112,122.666,126.82,104.39,97.4969,0.00835993,1.07741,19.608,-274.899,0.608139,0.0,0.0
1379,344.5,111.259,122.97,125.772,104.467,98.5158,0.00846669,1.08996,19.5936,-275.26,0.522152,0.0,0.0
1386,346.25,111.712,123.042,123.31,104.544,98.539,0.00851976,1.09944,19.5844,-275.57,0.526573,0.0,0.0
1393,348,112.152,123.411,123.786,104.604,98.1051,0.00847588,1.10313,19.58,-275.91,0.571018,0.0,0.0
1400,349.75,112.425,124.241,118.567,104.673,98.7688,0.00840159,1.1075,19.5746,-276.191,0.516859,0.0,0.0
1407,351.5,112.645,124.415,125.524,104.739,98.8739,0.0084433,1.11088,19.5705,-276.591,0.512973,0.0,0.0
1414,353.25,113.635,124.858,121.101,104.794,98.8722,0.00860323,1.11418,19.5647,-276.941,0.51782,0.0,0.0
1421,355,114.127,125.279,129.126,104.855,99.7207,0.00870052,1.12502,19.5464,-277.262,0.446966,0.0,0.0
1428,356.75,114.172,125.6,118.037,104.894,99.5184,0.00872589,1.13566,19.5346,-277.612,0.468272,0.0,0.0
1435,358.5,114.83,126.004,126.33,104.94,98.9851,0.00878281,1.14197,19.5273,-277.962,0.520004,0.0,0.0
1442,360.25,114.581,127.393,119.255,104.973,99.2522,0.00879532,1.14453,19.5239,-278.353,0.498818,0.0,0.0
1449,362,115.544,127.59,118.653,104.999,98.919,0.00874826,1.14396,19.5232,-278.683,0.530986,0.0,0.0
1456,363.75,115.612,128.044,123.095,105.011,99.5079,0.00868672,1.14387,19.5241,-279.013,0.479175,0.0,0.0
1463,365.5,116.01,128.501,123.273,105.032,98.9623,0.00867569,1.14487,19.5221,-279.313,0.529922,0.0,0.0
1470,367.25,116.578,129.168,126.631,105.027,98.5245,0.00867694,1.15308,19.5104,-279.674,0.568934,0.0,0.0
1477,369,117.212,129.043,128.424,105.021,99.0626,0.00866859,1.15928,19.5044,-280.034,0.51995,0.0,0.0
1484,370.75,117.193,129.806,125.584,105.014,99.8271,0.00864566,1.16171,19.5009,-280.444,0.450914,0.0,0.0
1491,372.5,117.811,130.112,124.138,104.982,100.209,0.00866636,1.16187,19.5009,-280.775,0.414241,0.0,0.0
1498,374.25,118.02,130.465,120.66,104.971,99.6673,0.00869424,1.16096,19.502,-281.105,0.461562,0.0,0.0
1505,376,118.699,130.855,122.829,104.917,99.3919,0.00869374,1.1598,19.5019,-281.445,0.481619,0.0,0.0
1512,377.75,117.868,130.587,123.722,104.889,98.9536,0.00871145,1.16161,19.4989,-281.786,0.518548,0.0,0.0
1519,379.5,118.721,131.562,125.306,104.834,99.6874,0.00884521,1.16537,19.495,-282.176,0.448128,0.0,0.0
1526,381.25,118.482,131.298,122.338,104.793,98.9072,0.00899428,1.17045,19.4874,-282.516,0.51456,0.0,0.0
1533,383,120.059,132.845,124.756,104.73,98.1843,0.0090727,1.17617,19.4788,-282.917,0.574533,0.0,0.0
1540,384.75,119.13,132.665,117.264,104.688,98.387,0.00913082,1.18698,19.4626,-283.227,0.552617,0.0,0.0
1547,386.5,120.283,133.628,117.832,104.617,98.9856,0.00919516,1.19584,19.454,-283.607,0.492546,0.0,0.0
1554,388.25,121.51,133.472,119.447,104.544,99.0959,0.00921495,1.19985,19.4504,-283.968,0.476472,0.0,0.0
1561,390,121.132,134.784,122.392,104.492,99.1966,0.00914545,1.1985,19.4486,-284.368,0.46298,0.0,0.0
1568,391.75,121.534,134.466,115.404,104.425,98.4628,0.00903186,1.20057,19.4468,-284.688,0.523378,0.0,0.0
1575,393.5,122.007,134.62,123.163,104.356,97.7009,0.0089322,1.20331,19.4457,-285.069,0.586642,0.0,0.0
1582,395.25,122.409,135.294,126.446,104.297,98.8227,0.00892223,1.20116,19.446,-285.389,0.479987,0.0,0.0
1589,397,122.442,135.482,123.275,104.25,98.0976,0.00897495,1.19859,19.4465,-285.779,0.541509,0.0,0.0
1596,398.75,123.016,135.9,119.985,104.213,97.2815,0.00910315,1.20231,19.4414,-286.08,0.612667,0.0,0.0
1603,400.5,123.397,135.584,120.494,104.167,97.9772,0.00927675,1.21169,19.4267,-286.49,0.545299,0.0,0.0
1610,402.25,124.111,136.272,121.019,104.146,97.975,0.00941269,1.22192,19.4154,-286.87,0.543783,0.0,0.0
1617,404,123.431,136.958,126.035,104.241,99.0766,0.00944739,1.22736,19.409,-287.221,0.452323,0.0,0.0
1624,405.75,124.447,136.557,123.444,104.345,98.1462,0.00936951,1.23069,19.406,-287.601,0.545163,0.0,0.0
1631,407.5,124.229,137.676,114.397,104.428,97.5871,0.00929564,1.23774,19.3948,-288.011,0.603117,0.0,0.0
1638,409.25,124.901,137.131,123.91,104.493,98.5928,0.00929928,1.24439,19.3883,-288.322,0.517365,0.0,0.0
1645,411,124.77,138.896,125.126,104.536,98.873,0.00937732,1.25032,19.3853,-288.692,0.495803,0.0,0.0
1652,412.75,125.188,138.198,122.128,104.598,98.9199,0.00945278,1.25258,19.3838,-289.092,0.496817,0.0,0.0
1659,414.5,125.812,139.349,122.372,104.624,98.13,0.00957166,1.25158,19.3831,-289.443,0.570462,0.0,0.0
1666,416.25,125.514,139.211,129.449,104.622,98.6003,0.00968067,1.25259,19.3812,-289.803,0.527727,0.0,0.0
1673,418,126.452,140.348,121.81,104.615,98.1874,0.00974507,1.25643,19.3797,-290.213,0.564442,0.0,0.0
1680,419.75,126.675,140.543,120.958,104.593,98.7198,0.00977062,1.25704,19.3787,-290.544,0.514451,0.0,0.0
1687,421.5,127.364,140.756,120.25,104.572,97.9632,0.00973398,1.25482,19.3815,-290.944,0.581124,0.0,0.0
1694,423.25,127.506,140.753,118.985,104.517,98.9251,0.00966986,1.25255,19.3832,-291.314,0.489476,0.0,0.0
1701,425,128.084,141.226,126.04,104.44,97.4163,0.00960126,1.25232,19.3832,-291.645,0.619741,0.0,0.0
1708,426.75,127.96,141.892,121.406,104.391,97.1957,0.0095208,1.25575,19.3759,-292.075,0.635722,0.0,0.0
1715,428.5,128.648,141.294,122.84,104.259,97.5389,0.00947586,1.26552,19.3636,-292.435,0.593102,0.0,0.0
1722,430.25,128.837,142.134,118.955,104.139,96.5639,0.00946635,1.27599,19.3504,-292.786,0.672254,0.0,0.0
1729,432,128.844,143.327,116.629,103.995,98.144,0.00948308,1.28022,19.3414,-293.206,0.515497,0.0,0.0
1736,433.75,129.603,142.796,122.566,103.876,97.4899,0.00956359,1.28846,19.3316,-293.546,0.564787,0.0,0.0
1743,435.5,129.509,143.659,113.741,103.77,94.5524,0.00974006,1.29899,19.3172,-293.947,0.828068,0.0,0.0
1750,437.25,130.185,144.054,118.017,103.784,96.3642,0.00995167,1.30625,19.3104,-294.317,0.660361,0.0,0.0
1757,439,131.375,143.562,116.844,103.799,96.1462,0.0100866,1.30871,19.3047,-294.717,0.681744,0.0,0.0
1764,440.75,131.711,143.931,115.948,103.843,97.6173,0.0101421,1.31202,19.3019,-295.078,0.550365,0.0,0.0
1771,442.5,131.534,144.946,117.563,103.891,98.3752,0.0101349,1.3124,19.3019,-295.488,0.485674,0.0,0.0
1778,444.25,132.184,145.054,115.264,103.944,95.7039,0.0100649,1.31178,19.303,-295.888,0.735215,0.0,0.0
1785,446,131.937,146.623,115.435,104.009,97.1239,0.0099171,1.31137,19.3036,-296.239,0.60973,0.0,0.0
1792,447.75,131.813,145.747,111.779,104.075,96.2307,0.0097366,1.31414,19.3003,-296.599,0.69759,0.0,0.0
1799,449.5,132.332,146.766,117.988,104.148,97.9846,0.00960681,1.31667,19.2955,-297.009,0.543051,0.0,0.0
1806,451.25,133.158,146.975,112.766,104.22,97.4247,0.00966777,1.31818,19.2884,-297.41,0.600181,0.0,0.0
1813,453,133.165,147.58,122.219,104.289,98.3284,0.0098462,1.3243,19.2825,-297.79,0.523878,0.0,0.0
1820,454.75,133.783,147.911,124.573,104.34,98.0762,0.00998178,1.32864,19.2793,-298.161,0.551093,0.0,0.0
1827,456.5,134.541,147.848,117.595,104.381,97.6804,0.0100234,1.33554,19.2748,-298.581,0.590657,0.0,0.0
1834,458.25,134.457,148.428,113.779,104.411,98.0959,0.00997001,1.3397,19.2687,-298.961,0.555365,0.0,0.0
1841,460,134.437,148.76,114.976,104.418,96.9999,0.00997128,1.34271,19.2626,-299.332,0.655983,0.0,0.0
1848,461.75,134.919,149.942,112.97,104.427,96.6886,0.0100602,1.34643,19.2593,-299.712,0.685382,0.0,0.0
1855,463.5,135.898,149.581,112.023,104.416,96.9395,0.0101686,1.34638,19.2577,-300.122,0.661386,0.0,0.0
1862,465.25,135.617,150.28,119.759,104.384,97.3844,0.0101455,1.34658,19.2586,-300.473,0.617885,0.0,0.0
1869,467,135.999,150.624,115.751,104.345,97.7876,0.0100363,1.3463,19.2598,-300.863,0.577819,0.0,0.0
1876,468.75,136.524,150.782,115.993,104.312,97.8253,0.0100343,1.34388,19.2604,-301.303,0.571539,0.0,0.0
1883,470.5,136.459,151.162,115.087,104.242,96.6549,0.0101918,1.34511,19.255,-301.724,0.672685,0.0,0.0
1890,472.25,136.582,151.588,110.776,104.157,95.7249,0.0103293,1.35588,19.2361,-302.104,0.751537,0.0,0.0
1897,474,137.047,151.088,117.052,104.08,95.8808,0.0104297,1.37011,19.2202,-302.484,0.730405,0.0,0.0
1904,475.75,137.455,152.152,117.775,103.997,96.2893,0.0104657,1.37546,19.2157,-302.845,0.685475,0.0,0.0
1911,477.5,138.275,152.405,120.527,103.907,95.7206,0.0105146,1.37181,19.2164,-303.265,0.730552,0.0,0.0
1918,479.25,138.184,152.643,120.884,103.793,97.26,0.0106167,1.37202,19.215,-303.635,0.578704,0.0,0.0
1925,481,138.616,153.006,114.49,103.678,96.6133,0.0107468,1.37813,19.2111,-304.086,0.628228,0.0,0.0
1932,482.75,138.427,153.936,114.118,103.576,97.3174,0.0108643,1.38074,19.2069,-304.416,0.554864,0.0,0.0
1939,484.5,138.396,153.558,113.871,103.479,95.6054,0.0110382,1.38349,19.2014,-304.847,0.704482,0.0,0.0
1946,486.25,139.797,154.237,121.122,103.377,97.183,0.0111886,1.38724,19.1976,-305.257,0.550014,0.0,0.0
1953,488,140.13,154.253,104.308,103.277,97.1558,0.0111845,1.38981,19.1957,-305.677,0.543929,0.0,0.0
1960,489.75,140.675,155.405,117.502,103.23,96.6549,0.0110477,1.39085,19.1942,-306.048,0.585834,0.0,0.0
1967,491.5,139.989,155.294,113.545,103.17,95.707,0.0108973,1.39418,19.1889,-306.458,0.668412,0.0,0.0
1974,493.25,140.825,156.129,112.587,103.129,96.0752,0.0108744,1.40552,19.1668,-306.838,0.630692,0.0,0.0
1981,495,141.728,155.678,116.782,103.134,95.7591,0.0109249,1.42589,19.1404,-307.299,0.660429,0.0,0.0
1988,496.75,141.638,157.267,113.567,103.16,95.4999,0.0110046,1.44329,19.124,-307.699,0.686829,0.0,0.0
1995,498.5,142.244,157.452,119.254,103.19,95.5459,0.0111541,1.45307,19.1133,-308.1,0.685107,0.0,0.0
2002,500.25,142.177,157.663,115.47,103.26,95.6733,0.0112461,1.45667,19.1081,-308.49,0.6793,0.0,0.0
2009,502,142.156,158.541,112.211,103.338,96.045,0.0112409,1.45175,19.1037,-308.93,0.65148,0.0,0.0
2016,503.75,143.247,158.093,114.638,103.446,95.3957,0.0112109,1.45758,19.1021,-309.371,0.721189,0.0,0.0
2023,505.5,144.051,158.676,110.182,103.598,96.679,0.0113715,1.46389,19.0963,-309.791,0.615319,0.0,0.0
2030,507.25,144.139,159.689,118.991,103.741,95.4701,0.0116345,1.46724,19.0893,-310.111,0.739609,0.0,0.0
2037,509,144.733,159.928,108.905,103.894,96.3156,0.0118489,1.47714,19.0746,-310.552,0.674241,0.0,0.0
2044,510.75,144.593,160.531,124.308,104.05,96.834,0.011876,1.48857,19.0635,-310.942,0.639807,0.0,0.0
2051,512.5,145.49,160.824,107.49,104.204,96.7123,0.0117492,1.49302,19.0606,-311.413,0.664155,0.0,0.0
2058,514.25,145.343,161.093,105.001,104.355,96.9899,0.0115733,1.49129,19.0641,-311.813,0.651524,0.0,0.0
2065,516,147.014,161.58,110.265,104.496,96.2937,0.0114917,1.4872,19.0669,-312.223,0.727731,0.0,0.0
2072,517.75,146.494,162.402,114.029,104.628,95.8585,0.0115365,1.48746,19.0651,-312.614,0.779267,0.0,0.0
2079,519.5,147.05,162.971,109.961,104.734,95.0822,0.011634,1.49608,19.049,-313.094,0.860645,0.0,0.0
2086,521.25,147.35,163.269,114.807,104.835,94.5962,0.0116978,1.51038,19.0284,-313.474,0.914893,0.0,0.0
2093,523,148.405,162.891,107.168,104.91,95.418,0.0117188,1.5262,19.0129,-313.945,0.844242,0.0,0.0
2100,524.75,148.036,163.933,115.991,104.992,96.9351,0.0117249,1.53513,19.0051,-314.325,0.71073,0.0,0.0
2107,526.5,148.658,164.907,116.47,105.015,97.0893,0.0117731,1.53595,19.0032,-314.756,0.698538,0.0,0.0
2114,528.25,148.581,165.17,118.553,105.035,96.2937,0.0120072,1.5343,19.0032,-315.186,0.773517,0.0,0.0
2121,530,149.1,165.289,109.284,105.039,97.0043,0.0123583,1.53545,18.9991,-315.616,0.708385,0.0,0.0
2128,531.75,149.47,166.165,109.372,105.016,96.6422,0.0126508,1.54898,18.9841,-316.077,0.739726,0.0,0.0
2135,533.5,151.083,165.622,115.947,104.986,96.8156,0.012822,1.5586,18.9764,-316.497,0.721254,0.0,0.0
2142,535.25,150.684,166.98,117.627,104.944,96.897,0.0128137,1.55871,18.9708,-316.918,0.710188,0.0,0.0
2149,537,151.343,167.339,107.743,104.878,95.749,0.0125756,1.56093,18.9656,-317.398,0.810718,0.0,0.0
2156,538.75,150.892,168.186,116.891,104.809,96.6063,0.0122505,1.56783,18.962,-317.778,0.725476,0.0,0.0
2163,540.5,152.041,168.134,116.844,104.727,96.5371,0.0119428,1.5704,18.9602,-318.209,0.724855,0.0,0.0
2170,542.25,151.847,169.006,107.535,104.635,96.0056,0.0118163,1.57118,18.9598,-318.679,0.76622,0.0,0.0
2177,544,152.428,168.869,119.026,104.544,96.8935,0.0118475,1.56954,18.96,-319.13,0.676474,0.0,0.0
2184,545.75,152.857,169.575,114.145,104.458,96.9811,0.0118642,1.57079,18.9577,-319.54,0.661167,0.0,0.0
2191,547.5,153.443,169.503,115.113,104.379,95.8782,0.0118485,1.57462,18.9556,-319.97,0.756213,0.0,0.0
2198,549.25,153.328,169.588,109.083,104.285,95.5608,0.011863,1.57482,18.9545,-320.401,0.777709,0.0,0.0
2205,551,153.827,171.25,114.44,104.214,96.2412,0.011889,1.57465,18.9544,-320.861,0.708483,0.0,0.0
2212,552.75,154.29,171.157,110.426,104.158,96.2981,0.0119991,1.58439,18.9406,-321.292,0.698433,0.0,0.0
2219,554.5,154.433,171.881,111.733,104.271,95.9522,0.0123007,1.59053,18.9314,-321.712,0.740143,0.0,0.0
2226,556.25,154.937,172.032,114.188,104.415,95.7162,0.0126485,1.59868,18.9188,-322.122,0.774332,0.0,0.0
2233,558,155.397,172.607,104.172,104.514,95.4351,0.0129171,1.61054,18.9011,-322.633,0.808992,0.0,0.0
2240,559.75,155.9,172.94,107.442,104.593,96.8686,0.013063,1.62162,18.8903,-323.103,0.683001,0.0,0.0
2247,561.5,157.073,172.918,112.696,104.646,94.4412,0.0130966,1.62562,18.8839,-323.524,0.913432,0.0,0.0
2254,563.25,156.124,174.094,103.585,104.66,94.8742,0.0130366,1.63453,18.8723,-323.934,0.873882,0.0,0.0
2261,565,156.964,173.869,109.041,104.635,95.2284,0.0129789,1.64223,18.8646,-324.404,0.838574,0.0,0.0
2268,566.75,157.408,175.257,105.857,104.595,95.0117,0.012901,1.64605,18.8591,-324.825,0.855407,0.0,0.0
2275,568.5,157.024,175.185,104.263,104.51,93.4771,0.012833,1.65077,18.8526,-325.375,0.993176,0.0,0.0
2282,570.25,158.427,175.265,108.774,104.396,94.8112,0.0128273,1.65572,18.8478,-325.786,0.8573,0.0,0.0
2289,572,158.431,176.385,111.601,104.268,95.094,0.0128991,1.6567,18.8422,-326.206,0.819832,0.0,0.0
2296,573.75,158.862,176.302,109.731,104.093,95.5945,0.0129326,1.65909,18.8411,-326.606,0.758139,0.0,0.0
2303,575.5,159.505,176.344,106.723,103.904,94.1513,0.0128086,1.65812,18.8434,-327.117,0.877447,0.0,0.0
2310,577.25,159.663,177.342,109.746,103.766,95.3834,0.012782,1.65516,18.8465,-327.497,0.749812,0.0,0.0
2317,579,159.322,177.391,109.734,103.808,93.5839,0.0128818,1.65432,18.8485,-328.028,0.92302,0.0,0.0
2324,580.75,160.565,177.322,115.567,103.85,93.8422,0.013041,1.65252,18.8504,-328.438,0.902029,0.0,0.0
2331,582.5,160.383,177.811,106.41,103.909,93.4779,0.0131762,1.64666,18.854,-328.898,0.94174,0.0,0.0
2338,584.25,160.376,178.617,112.996,103.979,93.6925,0.0131619,1.64379,18.8576,-329.289,0.927347,0.0,0.0
2345,586,159.895,177.577,114.351,104.051,94.1916,0.0130823,1.6477,18.8596,-329.769,0.886167,0.0,0.0
2352,587.75,161.184,178.717,111.122,104.15,94.2844,0.0129627,1.641,18.8679,-330.19,0.885872,0.0,0.0
2359,589.5,160.952,178.33,108.204,104.241,93.1277,0.0128642,1.63457,18.8764,-330.62,1.00355,0.0,0.0
2366,591.25,161.077,178.532,115.144,104.305,95.7705,0.0128106,1.62798,18.8851,-331.07,0.759907,0.0,0.0
2373,593,161.459,178.624,116.306,104.357,95.7153,0.0127673,1.62181,18.8908,-331.511,0.769459,0.0,0.0
2380,594.75,161.217,179.145,110.848,104.403,95.7644,0.0127354,1.60543,18.9065,-331.941,0.768822,0.0,0.0
2387,596.5,160.979,178.274,107.162,104.406,96.2981,0.0128197,1.59012,18.9299,-332.422,0.719595,0.0,0.0
2394,598.25,161.289,178.787,114.682,104.412,94.8532,0.0128273,1.58145,18.9432,-332.782,0.854673,0.0,0.0
2401,600,161.374,179.215,118.388,104.402,96.0757,0.0127046,1.57424,18.9554,-333.232,0.739894,0.0,0.0
2408,601.75,160.968,179.667,115.308,104.354,95.2692,0.0125041,1.56058,18.9761,-333.663,0.810837,0.0,0.0
2415,603.5,161.323,178.336,109.323,104.296,95.6063,0.0123617,1.54634,18.9919,-334.073,0.774396,0.0,0.0
2422,605.25,161.208,178.407,115.161,104.258,95.996,0.0122975,1.53976,18.9996,-334.504,0.734939,0.0,0.0
2429,607,160.357,178.197,111.433,104.159,96.0201,0.0122526,1.54439,19.007,-334.904,0.724242,0.0,0.0
2436,608.75,161.167,178.085,118.316,104.067,95.3773,0.0122666,1.5251,19.0363,-335.254,0.776204,0.0,0.0
2443,610.5,160.924,177.972,120.14,103.974,95.471,0.0123741,1.49688,19.0703,-335.735,0.759521,0.0,0.0
2450,612.25,159.834,177.86,118.468,103.86,95.3926,0.0125951,1.47031,19.0897,-336.085,0.757055,0.0,0.0
2457,614,159.245,177.082,116.221,103.759,93.6842,0.0128442,1.46222,19.1033,-336.515,0.909221,0.0,0.0
2464,615.75,158.955,175.859,120.004,103.638,92.8917,0.0128707,1.45821,19.1108,-336.916,0.974509,0.0,0.0
2471,617.5,159.325,175.729,114.138,103.528,95.7736,0.0126828,1.45155,19.1156,-337.316,0.693083,0.0,0.0
2478,619.25,159.182,175.221,117.64,103.432,94.8007,0.0122823,1.42141,19.1496,-337.666,0.775702,0.0,0.0
2485,621,158.896,174.376,121.096,103.341,94.3659,0.0118964,1.38468,19.2122,-338.067,0.808811,0.0,0.0
2492,622.75,157.94,173.985,115.128,103.254,91.8452,0.0114614,1.33475,19.2713,-338.417,1.04226,0.0,0.0
2499,624.5,156.931,173.714,118.852,103.202,94.5445,0.0109971,1.28581,19.3447,-338.727,0.779975,0.0,0.0
2506,626.25,155.845,171.866,128.726,103.159,95.4084,0.0105333,1.21695,19.4497,-338.998,0.695256,0.0,0.0
2513,628,154.615,170.667,131.165,103.127,95.5358,0.0101425,1.14107,19.5592,-339.258,0.68067,0.0,0.0
2520,629.75,152.968,169.237,126.531,103.112,94.3493,0.00977972,1.06,19.6747,-339.548,0.790625,0.0,0.0
2527,631.5,150.593,167.469,140.21,103.106,93.8641,0.00934598,0.978119,19.8032,-339.778,0.835938,0.0,0.0
2534,633.25,148.958,165.119,135.819,103.12,92.6535,0.00879054,0.880806,19.9554,-339.938,0.952763,0.0,0.0
2541,635,147.084,162.022,143.844,103.134,94.1312,0.00813041,0.778138,20.0857,-340.109,0.813135,0.0,0.0
2548,636.75,144.487,158.919,144.599,103.178,95.5651,0.00720272,0.670579,20.2122,-340.219,0.682301,0.0,0.0
2555,638.5,141.355,155.739,149.835,103.212,97.2171,0.006357,0.575607,20.3377,-340.309,0.532691,0.0,0.0
2562,640.25,137.924,152.524,152.819,103.259,96.7517,0.00554762,0.479984,20.4744,-340.399,0.579449,0.0,0.0
2569,642,135.013,149.286,154.054,103.318,98.232,0.00481554,0.403613,20.5783,-340.439,0.449322,0.0,0.0
2576,643.75,131.647,145.795,154.48,103.387,98.2491,0.00403305,0.336717,20.6516,-340.499,0.453751,0.0,0.0
2583,645.5,128.761,141.957,157.187,103.45,98.6462,0.00324902,0.279687,20.7272,-340.539,0.423311,0.0,0.0
2590,647.25,125.499,138.443,160.254,103.531,99.3779,0.00262351,0.235905,20.7899,-340.569,0.364437,0.0,0.0
2597,649,122.546,135.056,158.545,103.599,99.1703,0.00222899,0.198233,20.8408,-340.599,0.388939,0.0,0.0
2604,650.75,119.698,132.027,158.138,103.674,99.3315,0.00195602,0.167877,20.8785,-340.609,0.380879,0.0,0.0
2611,652.5,116.67,128.4,160.952,103.764,99.7413,0.0017774,0.144438,20.9056,-340.619,0.351977,0.0,0.0
2618,654.25,114.316,125.707,164.56,103.828,99.736,0.00166762,0.123905,20.9338,-340.629,0.357968,0.0,0.0
2625,656,111.273,122.905,162.291,103.908,99.5801,0.00164606,0.108614,20.9546,-340.619,0.378734,0.0,0.0
2632,657.75,108.508,118.877,162.091,103.983,99.6585,0.00159627,0.0951335,20.9687,-340.609,0.378139,0.0,0.0
2639,659.5,105.381,115.72,161.709,104.055,99.6611,0.00144731,0.0852006,20.9803,-340.639,0.384093,0.0,0.0
2646,661.25,104.071,113.247,160.594,104.092,99.8612,0.0013016,0.0763302,20.9909,-340.649,0.369349,0.0,0.0
2653,663,101.18,110.282,167.124,104.13,99.5832,0.00120241,0.069522,20.999,-340.659,0.397456,0.0,0.0
2660,664.75,98.5075,107.481,162.258,104.168,99.9112,0.00113645,0.0636395,21.0045,-340.669,0.371441,0.0,0.0
2667,666.5,96.7101,105.141,167.79,104.213,99.8428,0.000961572,0.0591299,21.0081,-340.629,0.381316,0.0,0.0
2674,668.25,94.11,102.696,165.379,104.255,99.7921,0.000834119,0.0559697,21.0106,-340.659,0.389486,0.0,0.0
2681,670,92.3214,99.6991,165.076,104.294,99.7019,0.000814501,0.0530836,21.0132,-340.659,0.40089,0.0,0.0
2688,671.75,90.0057,97.4109,166.71,104.33,99.9072,0.000838492,0.0512426,21.0152,-340.669,0.385572,0.0,0.0
2695,673.5,88.4329,95.7379,163.23,104.353,99.7999,0.000801412,0.0500701,21.0162,-340.669,0.397133,0.0,0.0
2702,675.25,86.2187,93.3557,167.5,104.394,99.9716,0.000703536,0.049157,21.0166,-340.679,0.385294,0.0,0.0
2709,677,84.808,91.7102,166.509,104.415,100.181,0.00060266,0.0484121,21.0178,-340.619,0.368532,0.0,0.0
2716,678.75,83.2558,89.3691,160.576,104.456,99.9151,0.000537556,0.04794,21.0186,-340.639,0.395636,0.0,0.0
2723,680.5,81.7231,87.676,167.251,104.474,99.7632,0.000603371,0.0477076,21.019,-340.649,0.410749,0.0,0.0
2730,682.25,80.0315,85.5721,165.927,104.492,99.9357,0.000689519,0.0476842,21.0192,-340.629,0.3969,0.0,0.0
2737,684,78.6332,83.9372,165.365,104.502,99.8367,0.000732391,0.0476319,21.0193,-340.619,0.406574,0.0,0.0
2744,685.75,76.9269,82.4818,168.043,104.504,99.8464,0.00069713,0.0474339,21.0193,-340.629,0.405894,0.0,0.0
2751,687.5,75.5287,80.4853,165.774,104.512,99.7864,0.000626986,0.0472753,21.0193,-340.669,0.411884,0.0,0.0
2758,689.25,74.675,79.1263,165.379,104.511,99.824,0.000574837,0.0470891,21.0184,-340.669,0.408454,0.0,0.0
2765,691,73.0684,77.4796,167.954,104.521,99.7115,0.000558751,0.0467301,21.0186,-340.679,0.419313,0.0,0.0
2772,692.75,71.9165,76.131,161.97,104.519,99.7579,0.000551806,0.0463776,21.0187,-340.619,0.415029,0.0,0.0
2779,694.5,70.0279,73.9857,167.433,104.532,99.5394,0.000522704,0.0460399,21.0187,-340.649,0.435614,0.0,0.0
2786,696.25,69.3139,73.8613,167.773,104.522,99.7715,0.000547642,0.0458701,21.0187,-340.629,0.414066,0.0,0.0
2793,698,68.0574,71.0843,168.039,104.519,99.7071,0.000598531,0.0458246,21.0187,-340.639,0.419526,0.0,0.0
2800,699.75,68.0239,70.9293,169.229,104.503,99.6152,0.000576389,0.0456646,21.0196,-340.669,0.426422,0.0,0.0
2807,701.5,66.8117,69.3523,167.992,104.485,99.7071,0.000495771,0.0453385,21.0204,-340.649,0.416642,0.0,0.0
2814,703.25,65.496,68.0943,166.641,104.483,99.8464,0.000443089,0.0451775,21.0207,-340.649,0.404042,0.0,0.0
2821,705,64.7204,66.3932,168.769,104.471,99.4532,0.000423064,0.0451116,21.0209,-340.649,0.438168,0.0,0.0
2828,706.75,64.2483,65.509,157.063,104.457,99.8941,0.000427947,0.0451362,21.0209,-340.689,0.397578,0.0,0.0
2835,708.5,62.9855,65.114,166.461,104.429,99.4948,0.000433768,0.0451914,21.021,-340.649,0.430883,0.0,0.0
2842,710.25,62.2821,64.4227,170.336,104.41,99.5675,0.000452602,0.0454156,21.0208,-340.659,0.422743,0.0,0.0
2849,712,61.3959,63.0937,165.366,104.364,99.6231,0.000559621,0.045548,21.0197,-340.659,0.413852,0.0,0.0
2856,713.75,60.4651,62.2073,163.728,104.325,99.3976,0.000722081,0.0456785,21.0192,-340.649,0.430706,0.0,0.0
2863,715.5,59.6901,61.2021,169.062,104.277,99.3297,0.000758825,0.045907,21.0189,-340.659,0.432682,0.0,0.0
2870,717.25,59.0412,60.0187,166.247,104.223,99.3945,0.000760027,0.0460798,21.0188,-340.669,0.422308,0.0,0.0
2877,719,58.231,59.4572,165.575,104.159,99.2496,0.000820873,0.0462277,21.0188,-340.669,0.429797,0.0,0.0
2884,720.75,57.2001,58.4268,168.891,104.103,99.3026,0.000884862,0.0460731,21.0194,-340.639,0.420257,0.0,0.0
2891,722.5,56.9533,57.3491,165.204,104.044,99.0937,0.000831992,0.0459956,21.0202,-340.659,0.433923,0.0,0.0
2898,724.25,56.3065,56.6729,166.729,103.975,98.993,0.000743665,0.0459361,21.0206,-340.639,0.437106,0.0,0.0
2905,726,55.9429,56.486,164.46,103.912,99.1559,0.000633595,0.0461605,21.0208,-340.639,0.417101,0.0,0.0
2912,727.75,54.9149,55.5481,168.862,103.839,99.0635,0.000487475,0.0466724,21.0201,-340.609,0.41913,0.0,0.0
2919,729.5,54.5347,53.9795,167.517,103.758,98.8862,0.000379895,0.047045,21.0196,-340.669,0.428087,0.0,0.0
2926,731.25,54.0068,53.214,165.174,103.703,98.8726,0.000332152,0.0472388,21.0196,-340.679,0.424609,0.0,0.0
2933,733,52.4223,52.2763,165.105,103.622,98.7863,0.000334462,0.0469959,21.0196,-340.669,0.425413,0.0,0.0
2940,734.75,52.8122,52.9022,166.624,103.54,98.852,0.000397686,0.0466154,21.0197,-340.669,0.412492,0.0,0.0
2947,736.5,52.6694,52.4275,171.202,103.486,98.6931,0.000544873,0.046279,21.0202,-340.659,0.422177,0.0,0.0
2954,738.25,52.3449,51.7224,164.279,103.433,98.5298,0.000705012,0.0459592,21.0205,-340.649,0.432317,0.0,0.0
2961,740,51.8839,50.315,167.549,103.362,98.5031,0.000790092,0.0459693,21.0206,-340.669,0.428612,0.0,0.0
2968,741.75,51.5991,49.8778,166.765,103.316,98.3143,0.000803629,0.0460335,21.0214,-340.649,0.441721,0.0,0.0
2975,743.5,50.5497,49.8202,165.42,103.259,98.4448,0.000723268,0.0459916,21.0218,-340.669,0.424978,0.0,0.0
2982,745.25,50.484,49.2137,165.861,103.213,98.4575,0.000571832,0.0460095,21.022,-340.669,0.419901,0.0,0.0
2989,747,50.141,48.6517,165.805,103.182,98.384,0.000422443,0.0460557,21.0221,-340.629,0.423921,0.0,0.0
2996,748.75,49.8427,48.1224,164.757,103.148,98.4496,0.000350755,0.0460967,21.0221,-340.689,0.414987,0.0,0.0
3003,750.5,48.7958,47.3335,171.177,103.131,98.2574,0.000410396,0.0463102,21.0209,-340.709,0.430941,0.0,0.0
3010,752.25,48.6232,46.4741,167.118,103.128,98.0315,0.000521466,0.0465008,21.0213,-340.659,0.451144,0.0,0.0
3017,754,48.1878,46.1209,167.714,103.136,98.0727,0.000586573,0.0462857,21.0218,-340.679,0.44813,0.0,0.0
3024,755.75,48.2724,46.1626,167.788,103.139,98.1261,0.000558568,0.046145,21.022,-340.629,0.443499,0.0,0.0
3031,757.5,47.2772,45.3024,168.186,103.159,98.535,0.000476969,0.0457492,21.0218,-340.669,0.408245,0.0,0.0
3038,759.25,46.7574,45.2293,163.2,103.194,98.3402,0.000425192,0.0454273,21.0212,-340.689,0.428894,0.0,0.0
3045,761,46.3823,44.6997,167.056,103.238,98.5411,0.000485116,0.0452189,21.021,-340.679,0.414507,0.0,0.0
3052,762.75,46.4794,44.5254,167.039,103.296,98.5981,0.000603454,0.0451296,21.0208,-340.679,0.414375,0.0,0.0
3059,764.5,46.2812,44.1993,169.156,103.352,98.5289,0.000671046,0.0449783,21.0208,-340.649,0.425449,0.0,0.0
3066,766.25,45.7002,43.8755,164.312,103.44,98.521,0.000671144,0.0448738,21.0207,-340.629,0.433684,0.0,0.0
3073,768,45.7131,43.2032,171.336,103.527,98.8205,0.00064175,0.0447235,21.0207,-340.629,0.414145,0.0,0.0
3080,769.75,45.0262,42.7508,169.903,103.6,98.7355,0.000603936,0.0446398,21.0207,-340.639,0.428123,0.0,0.0
3087,771.5,44.8577,42.5956,166.031,103.689,98.7189,0.0005749,0.0445503,21.0207,-340.669,0.437236,0.0,0.0
3094,773.25,44.2435,42.1421,167.404,103.767,99.0004,,0.0445259,,-340.649,0.418631,0.0,0.0
3101,775,44.0975,41.7656,168.299,103.873,98.9265,,,,-340.679,0.434354,0.0,0.0
3108,776.75,44.1335,41.7288,171.494,103.962,98.9251,,,,-340.679,0.442065,0.0,0.0
3115,778.5,43.6986,41.0568,169.578,104.044,99.3849,,,,-340.669,0.407804,0.0,0.0
3122,780.25,43.1569,40.3745,166.268,104.127,99.2325,,,,-340.709,0.428614,0.0,0.0
3129,782,42.9764,40.2204,166.616,104.214,99.1878,,,,-340.669,0.44005,0.0,0.0
3132,782.75,42.8968,40.6269,165.035,104.256,99.4773,,,,-340.669,0.417648,0.0,0.0