File: 01_Data/Black_PMMA/Cone/Black_PMMA_Cone_HF50Scan_220315_R3.csv
Names,Time,Stack TC,Smoke TC,Exh Press,Smoke Comp,Smoke Meas,CO Meter,CO2 Meter,O2 Meter,Sample Mass,Ext Coeff,Start Test,Flame Verif
Chan Gain,,500,500,1,1,1,1,1,1,1,1,1.0,1.0
Offset,,0,0,0.132973,0,0,0,0,0,0,0,0.0,0.0
Gain,,1,1,25.011,13.0548,13.4146,1,1,1,1.00087,1.01298,1.0,1.0
Units,sec,C,C,Pa,%,%,%,%,%,g,/m,,
Baseline,,28.8407,29.8984,153.588,99.2414,95.4706,0.000917305,0.0536925,21.0136,-832.772,0.344269,,
5,1,28.1775,29.5549,153.186,98.9754,95.8505,0.000629894,0.0596465,21.009,-240.169,0.285069,0.0,0.0
10,2.25,27.5343,28.6452,153.707,99.022,96.0216,0.000597398,0.0584431,21.0109,-240.229,0.273403,0.0,0.0
15,3.5,27.414,28.4333,153.042,99.0507,95.9102,0.000545777,0.0574766,21.0118,-240.279,0.286286,0.0,0.0
20,4.75,27.7609,28.4548,153.42,99.0821,95.5033,0.000479396,0.0567957,21.0123,-240.299,0.32689,0.0,0.0
25,6,27.9649,28.5654,153.657,99.1029,95.8783,0.00042531,0.0562832,21.0126,-240.279,0.293926,0.0,0.0
30,7.25,27.727,28.6903,155.384,99.1538,95.2348,0.000405993,0.0558874,21.0134,-240.259,0.358341,0.0,0.0
35,8.5,27.6103,28.7437,150.463,99.1961,96.2402,0.00043892,0.0555261,21.0142,-240.269,0.268805,0.0,0.0
40,9.75,27.8038,28.5684,155.294,99.2375,96.2971,0.000515623,0.0551166,21.0147,-240.279,0.267263,0.0,0.0
45,11,28.0209,28.6439,156.137,99.253,95.8501,0.000608537,0.0548223,21.0149,-240.279,0.310001,0.0,0.0
50,12.25,28.2011,28.6571,152.633,99.2769,95.2364,0.000670369,0.0545705,21.0151,-240.269,0.369213,0.0,0.0
55,13.5,28.0782,28.4169,152.409,99.2977,96.1682,0.000686081,0.0543424,21.0158,-240.279,0.284556,0.0,0.0
60,14.75,27.5579,28.8478,153.596,99.2925,95.8447,0.000677163,0.0541857,21.0164,-240.279,0.314026,0.0,0.0
65,16,27.5632,28.8366,153.304,99.2789,96.4719,0.000630439,0.0539953,21.0167,-240.299,0.254857,0.0,0.0
70,17.25,28.0368,28.8298,154.604,99.2849,96.0302,0.000565044,0.0539225,21.0169,-240.299,0.296172,0.0,0.0
75,18.5,28.0931,28.394,151.997,99.2614,95.9152,0.000553251,0.0537817,21.017,-240.299,0.304718,0.0,0.0
80,19.75,27.8203,28.925,151.625,99.2351,96.1084,0.000614024,0.0536798,21.017,-240.289,0.284481,0.0,0.0
85,21,27.4945,28.4321,152.673,99.2056,95.7784,0.000690667,0.0537504,21.0165,-240.309,0.3124,0.0,0.0
90,22.25,28.1815,28.9639,156.286,99.1801,96.013,0.000725904,0.0538632,21.0158,-240.299,0.28838,0.0,0.0
95,23.5,28.3835,28.8349,153.936,99.1224,95.6892,0.000748279,0.0539995,21.0142,-240.309,0.313222,0.0,0.0
100,24.75,28.1947,29.0959,154.539,99.057,95.9274,0.000824887,0.0547361,21.0113,-240.309,0.285266,0.0,0.0
105,26,27.9411,28.9764,153.106,98.9961,95.1558,0.000986396,0.0612614,20.9939,-240.359,0.351566,0.0,0.0
110,27.25,27.8175,29.3042,144.882,98.9443,94.3092,0.00134269,0.0823572,20.9448,-240.439,0.426327,0.0,1.0
115,28.5,28.3195,28.78,139.018,98.8519,92.3179,0.0017331,0.130694,20.8571,-240.619,0.607643,0.0,1.0
120,29.75,28.2097,29.3059,128.981,98.8009,91.9499,0.00236298,0.214378,20.749,-240.709,0.638553,0.0,1.0
125,31,29.6134,30.4564,117.44,98.6969,92.7822,0.00305787,0.311699,20.5943,-240.919,0.549129,0.0,1.0
130,32.25,31.1026,32.0389,123.709,98.6224,92.2856,0.00377551,0.424187,20.4164,-241.059,0.590105,0.0,1.0
135,33.5,33.0339,33.1373,113.874,98.5347,91.4799,0.00447656,0.537938,20.2463,-241.299,0.660119,0.0,0.0
140,34.75,35.3024,35.4608,108.79,98.4503,91.9061,0.00517263,0.648724,20.1174,-241.54,0.6112,0.0,0.0
145,36,37.2533,38.0841,109.56,98.3742,91.2249,0.00567675,0.749031,20.0025,-241.81,0.670436,0.0,0.0
150,37.25,40.0144,40.8863,118.066,98.3148,89.8526,0.00638545,0.836997,19.9131,-241.98,0.799752,0.0,0.0
155,38.5,42.7755,43.6291,116.091,98.2391,90.0139,0.0069807,0.89903,19.8095,-242.24,0.776971,0.0,0.0
160,39.75,45.5861,46.4912,108.194,98.1718,89.3822,0.007468,0.975849,19.7036,-242.521,0.833455,0.0,0.0
165,41,48.0902,49.6825,105.952,98.13,89.2144,0.00779602,1.04359,19.6265,-242.751,0.84637,0.0,0.0
170,42.25,50.6868,52.2529,112.255,98.0869,88.9287,0.00815698,1.10116,19.5491,-243.021,0.870978,0.0,0.0
175,43.5,53.7219,55.2397,111.345,98.0475,89.4256,0.00847804,1.14798,19.4925,-243.281,0.817884,0.0,0.0
180,44.75,55.7608,58.1555,105.609,98.0192,89.4695,0.00877133,1.18192,19.4459,-243.531,0.810968,0.0,0.0
185,46,58.2705,60.7582,104.604,98.0088,88.5361,0.00899186,1.22192,19.3977,-243.842,0.903217,0.0,0.0
190,47.25,60.6032,63.7334,102.708,97.9945,89.0167,0.00917794,1.25852,19.3449,-244.132,0.853811,0.0,0.0
195,48.5,63.564,66.636,108.919,98.0084,89.2668,0.00938186,1.28998,19.3038,-244.372,0.830141,0.0,0.0
200,49.75,66.1659,69.298,109.195,98.0335,88.7719,0.0095731,1.31498,19.2739,-244.692,0.881821,0.0,0.0
205,51,68.8386,71.7659,107.329,98.077,88.1316,0.009746,1.33953,19.2411,-244.953,0.950078,0.0,0.0
210,52.25,70.6486,74.6181,107.099,98.112,89.1534,0.00988253,1.36173,19.2109,-245.213,0.850823,0.0,0.0
215,53.5,73.0358,77.2811,111.626,98.1734,88.898,0.00999619,1.38096,19.1881,-245.503,0.881875,0.0,0.0
220,54.75,75.1017,79.9183,100.807,98.2527,89.2488,0.010114,1.3953,19.1727,-245.803,0.854049,0.0,0.0
225,56,77.323,82.5709,106.128,98.3343,89.4813,0.0102709,1.40527,19.1617,-246.074,0.838312,0.0,0.0
230,57.25,79.5859,84.1478,105.091,98.4144,87.671,0.0104644,1.41313,19.1533,-246.344,1.02715,0.0,0.0
235,58.5,81.9325,87.4235,105.514,98.5124,88.177,0.01065,1.42379,19.1426,-246.644,0.984863,0.0,0.0
240,59.75,84.2031,89.7622,102.639,98.6228,88.6417,0.0108067,1.43864,19.1238,-246.934,0.94811,0.0,0.0
245,61,85.5704,91.5274,100.384,98.7232,88.5823,0.0109716,1.45518,19.1029,-247.245,0.963104,0.0,0.0
250,62.25,88.1414,94.7377,99.6904,98.8411,89.083,0.0111573,1.47169,19.0789,-247.535,0.92363,0.0,0.0
255,63.5,89.8962,96.8481,104.078,98.963,89.6287,0.0113261,1.48764,19.0618,-247.815,0.880317,0.0,0.0
260,64.75,92.1649,99.0318,100.098,99.0873,89.2177,0.0114435,1.49712,19.0508,-248.135,0.932313,0.0,0.0
265,66,94.2486,101.5,104.38,99.1941,89.3344,0.0114555,1.50438,19.0424,-248.446,0.93027,0.0,0.0
270,67.25,95.7263,103.244,107.807,99.2965,88.1181,0.0113637,1.51551,19.0258,-248.736,1.06125,0.0,0.0
275,68.5,96.7057,104.861,100.209,99.4056,88.6773,0.0112434,1.53184,19.0024,-249.056,1.0148,0.0,0.0
280,69.75,99.5107,106.783,108.658,99.4977,89.3393,0.0111727,1.54523,18.9854,-249.346,0.956934,0.0,0.0
285,71,101.015,109.265,104.814,99.5801,89.659,0.0111884,1.55458,18.9744,-249.637,0.932552,0.0,0.0
290,72.25,102.94,111.442,100.137,99.6626,88.9602,0.0112808,1.56203,18.9651,-249.987,1.00944,0.0,0.0
295,73.5,104.24,113.18,103.088,99.7315,90.2313,0.0114082,1.56884,18.9567,-250.267,0.889512,0.0,0.0
300,74.75,105.646,115.022,104.554,99.7985,89.702,0.0115215,1.57705,18.9429,-250.568,0.947754,0.0,0.0
305,76,107.509,116.944,100.692,99.8475,89.1194,0.0116213,1.59036,18.9234,-250.858,1.01001,0.0,0.0
310,77.25,108.949,118.828,97.3594,99.8849,89.3413,0.011712,1.60228,18.9119,-251.208,0.991247,0.0,0.0
315,78.5,110.512,120.42,101.72,99.916,89.0064,0.0118257,1.60829,18.905,-251.498,1.02738,0.0,0.0
320,79.75,111.817,122.476,98.9714,99.9355,88.9725,0.0119338,1.6106,18.8994,-251.789,1.03251,0.0,0.0
325,81,113.342,123.73,102.411,99.9514,89.7425,0.0120463,1.61263,18.8955,-252.139,0.957351,0.0,0.0
330,82.25,114.62,125.133,104.68,99.9574,89.4846,0.0121288,1.61708,18.8909,-252.429,0.983456,0.0,0.0
335,83.5,115.822,126.805,98.5669,99.9574,88.2327,0.0121727,1.62339,18.8857,-252.759,1.10864,0.0,0.0
340,84.75,117.215,128.693,99.8415,99.9451,89.309,0.0121702,1.63083,18.8796,-253.08,0.999814,0.0,0.0
345,86,118.444,129.833,102.289,99.9291,89.5444,0.012146,1.64067,18.8691,-253.37,0.975008,0.0,0.0
350,87.25,119.768,131.314,96.4328,99.908,89.4895,0.0121634,1.65087,18.8552,-253.64,0.978575,0.0,0.0
355,88.5,120.891,132.799,102.605,99.8805,88.7408,0.0122307,1.65899,18.8411,-254.011,1.05079,0.0,0.0
360,89.75,121.905,134.457,87.6391,99.8391,88.8812,0.0123166,1.67073,18.8225,-254.311,1.03305,0.0,0.0
365,91,123.435,136.181,105.959,99.7941,89.8281,0.0123948,1.68127,18.8094,-254.621,0.934883,0.0,0.0
370,92.25,124.731,137.314,107.552,99.7491,89.5566,0.0124753,1.68815,18.8015,-254.891,0.957762,0.0,0.0
375,93.5,125.901,139.065,94.3773,99.6897,89.119,0.0125702,1.69259,18.7966,-255.272,0.996,0.0,0.0
380,94.75,126.222,139.671,100.019,99.6323,88.6392,0.0127146,1.69555,18.7925,-255.572,1.03885,0.0,0.0
385,96,128.062,141.634,99.8156,99.5921,89.0691,0.0128534,1.69965,18.7871,-255.872,0.992277,0.0,0.0
390,97.25,128.582,142.932,91.1539,99.5295,88.9745,0.01292,1.70654,18.7781,-256.212,0.996134,0.0,0.0
395,98.5,129.98,144.299,92.6835,99.4558,88.5778,0.0129138,1.71329,18.7707,-256.513,1.02926,0.0,0.0
400,99.75,130.974,145.361,103.007,99.4088,88.1271,0.0128653,1.71812,18.7655,-256.873,1.07039,0.0,0.0
405,101,132.236,146.44,103.371,99.3562,89.3225,0.0128329,1.71968,18.7609,-257.133,0.945964,0.0,0.0
410,102.25,132.716,147.929,97.9272,99.31,88.8447,0.0128293,1.71954,18.7577,-257.484,0.989484,0.0,0.0
415,103.5,133.787,148.697,90.3159,99.2546,89.119,0.0128523,1.72288,18.7511,-257.844,0.957137,0.0,0.0
420,104.75,133.775,149.131,98.8958,99.22,88.1038,0.0128851,1.73063,18.7415,-258.174,1.05584,0.0,0.0
425,106,135.313,151.09,103.201,99.1829,88.4198,0.0130159,1.74373,18.7301,-258.464,1.02071,0.0,0.0
430,107.25,136.209,152.403,98.4676,99.1503,88.3306,0.0132028,1.75536,18.7181,-258.785,1.02675,0.0,0.0
435,108.5,137.462,153.667,99.1271,99.204,88.742,0.013411,1.76377,18.7075,-259.155,0.990279,0.0,0.0
440,109.75,138.48,154.3,100.917,99.3013,87.8471,0.0135672,1.76881,18.6993,-259.455,1.08904,0.0,0.0
445,111,139.002,155.313,96.4274,99.4013,88.785,0.0136065,1.77575,18.6864,-259.766,1.00362,0.0,0.0
450,112.25,139.696,156.302,99.8606,99.4845,87.9261,0.0135609,1.78512,18.6749,-260.136,1.09744,0.0,0.0
455,113.5,141.144,158,93.8231,99.5307,88.6912,0.0134677,1.79263,18.667,-260.486,1.02458,0.0,0.0
460,114.75,141.508,159.045,94.6749,99.5929,87.3169,0.0134244,1.79964,18.6583,-260.836,1.16889,0.0,0.0
465,116,142.126,159.752,97.9563,99.6323,88.7072,0.0134664,1.81099,18.6381,-261.137,1.03204,0.0,0.0
470,117.25,142.873,161,103.379,99.6546,87.7128,0.0136105,1.82833,18.6144,-261.487,1.1342,0.0,0.0
475,118.5,143.979,161.742,95.9343,99.669,87.0627,0.0137731,1.84273,18.5994,-261.857,1.20158,0.0,0.0
480,119.75,144.463,161.883,96.2702,99.6777,89.2676,0.0139335,1.85059,18.59,-262.138,0.98013,0.0,0.0
485,121,145.897,163.794,94.3086,99.6682,89.6004,0.0140542,1.85515,18.5836,-262.498,0.94621,0.0,0.0
490,122.25,146.76,164.847,102.919,99.6522,88.4063,0.0140259,1.86019,18.5737,-262.798,1.06401,0.0,0.0
495,123.5,147.364,165.608,94.4505,99.6176,88.2012,0.0139216,1.86942,18.5622,-263.168,1.08156,0.0,0.0
500,124.75,148.088,167.095,91.2868,99.5941,88.5316,0.0138421,1.87895,18.55,-263.459,1.04624,0.0,0.0
505,126,149.138,167.799,85.8858,99.5299,88.1463,0.0138585,1.89083,18.5343,-263.819,1.07927,0.0,0.0
510,127.25,149.251,168.353,91.3692,99.4698,88.0972,0.0139002,1.90571,18.5162,-264.199,1.07885,0.0,0.0
515,128.5,150.157,169.958,100.676,99.4052,89.0965,0.0141273,1.91778,18.5052,-264.55,0.972854,0.0,0.0
520,129.75,151.782,170.59,95.3527,99.3184,88.3588,0.0143359,1.92481,18.4986,-264.81,1.03897,0.0,0.0
525,131,152.761,172.119,96.6259,99.2224,88.3391,0.0144788,1.92681,18.4965,-265.2,1.03235,0.0,0.0
530,132.25,152.569,172.345,97.3685,99.11,88.3244,0.0145568,1.92488,18.4973,-265.541,1.02376,0.0,0.0
535,133.5,154.073,173.646,100.071,99.0076,88.9958,0.0146068,1.9191,18.4977,-265.821,0.94729,0.0,0.0
540,134.75,154.453,174.529,96.3114,98.8881,87.3914,0.0147038,1.91855,18.4967,-266.201,1.09821,0.0,0.0
545,136,155.055,175.34,93.9002,98.8112,88.8918,0.0148543,1.92529,18.4886,-266.551,0.940034,0.0,0.0
550,137.25,155.713,176.449,93.6651,98.8216,88.3637,0.0150751,1.93606,18.4787,-266.912,0.993913,0.0,0.0
555,138.5,157.294,177.203,98.0143,98.8399,87.572,0.0152291,1.94513,18.4725,-267.262,1.07554,0.0,0.0
560,139.75,157.365,178.774,96.5518,98.8523,86.9661,0.0152946,1.94671,18.4641,-267.572,1.13834,0.0,0.0
565,141,158.16,179.086,97.077,98.8746,87.5118,0.0153638,1.94632,18.4592,-267.893,1.08476,0.0,0.0
570,142.25,158.44,179.892,97.6616,98.8949,88.4796,0.0155074,1.94795,18.4563,-268.313,0.988858,0.0,0.0
575,143.5,159.368,180.466,96.3328,98.9279,87.7005,0.0156512,1.95587,18.4545,-268.643,1.07041,0.0,0.0
580,144.75,160.064,180.981,92.7011,98.9479,87.6342,0.0157574,1.95762,18.4535,-268.974,1.07893,0.0,0.0
585,146,160.912,181.822,92.1332,98.9778,87.6236,0.0158367,1.95561,18.4529,-269.304,1.08269,0.0,0.0
590,147.25,161.266,182.352,90.4456,99.0272,88.0333,0.015895,1.95324,18.4526,-269.684,1.04566,0.0,0.0
595,148.5,161.669,183.632,101.758,99.0554,86.2718,0.0159267,1.95456,18.4497,-270.034,1.22781,0.0,0.0
600,149.75,162.456,184.072,91.6867,99.0889,87.4193,0.0159398,1.95995,18.445,-270.405,1.1134,0.0,0.0
605,151,162.567,184.417,85.9759,99.1112,87.3329,0.0159635,1.96981,18.4365,-270.765,1.12419,0.0,0.0
610,152.25,162.906,185.533,88.658,99.1331,86.5031,0.0160063,1.98249,18.4186,-271.055,1.21098,0.0,0.0
615,153.5,164.262,186.378,93.8895,99.1503,87.549,0.0160364,1.99411,18.403,-271.426,1.10572,0.0,0.0
620,154.75,164.464,187.314,86.6659,99.173,87.3898,0.0160671,2.0067,18.392,-271.796,1.12393,0.0,0.0
625,156,165.635,187.725,97.8753,99.1937,88.1332,0.016139,2.01104,18.3828,-272.176,1.05052,0.0,0.0
630,157.25,166.265,188.313,87.7787,99.2232,88.0686,0.0162408,2.01447,18.3771,-272.527,1.05968,0.0,0.0
635,158.5,165.372,188.683,91.6165,99.2586,87.4807,0.0163154,2.02005,18.367,-272.837,1.12237,0.0,0.0
640,159.75,167.029,189.783,98.7134,99.2526,87.3079,0.0163467,2.02543,18.3602,-273.177,1.1394,0.0,0.0
645,161,167.716,190.777,92.5126,99.2805,87.7386,0.0163355,2.03212,18.3533,-273.608,1.09817,0.0,0.0
650,162.25,167.547,190.698,97.4014,99.2889,87.9805,0.0162281,2.04191,18.3423,-273.918,1.07445,0.0,0.0
655,163.5,168.942,191.732,96.3251,99.2809,87.4975,0.0161176,2.05448,18.3231,-274.258,1.12266,0.0,0.0
660,164.75,169.627,192.825,92.9232,99.2833,87.5294,0.0160349,2.06431,18.3081,-274.628,1.11963,0.0,0.0
665,166,169.735,193.119,96.8091,99.2849,86.623,0.0159775,2.07421,18.2937,-274.989,1.21227,0.0,0.0
670,167.25,170.844,194.113,87.0803,99.2777,86.9387,0.0159407,2.08613,18.2786,-275.369,1.17931,0.0,0.0
675,168.5,171.388,194.662,95.8962,99.2785,86.9464,0.0159402,2.0934,18.2678,-275.749,1.17858,0.0,0.0
680,169.75,171.483,195.57,97.7921,99.2614,87.2289,0.0159557,2.10064,18.2579,-276.06,1.14823,0.0,0.0
685,171,172.373,196.872,93.1469,99.2606,87.6735,0.0159812,2.11157,18.2474,-276.43,1.10298,0.0,0.0
690,172.25,173.072,197.4,101.672,99.2514,87.8749,0.0160159,2.11976,18.2392,-276.79,1.08177,0.0,0.0
695,173.5,173.57,198.035,90.2655,99.2379,88.2131,0.0160448,2.12297,18.2335,-277.161,1.04643,0.0,0.0
700,174.75,173.914,198.413,89.693,99.2331,87.206,0.0160242,2.12187,18.2316,-277.551,1.14803,0.0,0.0
705,176,174.345,199.644,87.6673,99.22,88.5614,0.0159807,2.12483,18.2313,-277.911,1.0098,0.0,0.0
710,177.25,175.293,199.994,91.4799,99.2156,87.0132,0.0159616,2.13738,18.2199,-278.232,1.16613,0.0,0.0
715,178.5,175.611,200.685,85.7927,99.1949,88.6757,0.0160556,2.15333,18.2005,-278.632,0.996101,0.0,0.0
720,179.75,176.811,201.672,89.9587,99.1949,87.6616,0.0162374,2.16815,18.1858,-278.962,1.0983,0.0,0.0
725,181,177.164,202.021,86.9926,99.1797,88.0288,0.0164483,2.17449,18.1762,-279.343,1.0598,0.0,0.0
730,182.25,178.091,203.032,87.9306,99.1777,87.7947,0.0166563,2.177,18.1714,-279.733,1.08329,0.0,0.0
735,183.5,178.201,203.731,89.8701,99.1706,88.5508,0.0168729,2.17895,18.169,-280.093,1.00645,0.0,0.0
740,184.75,178.91,204.686,88.684,99.1793,88.8914,0.0170334,2.18104,18.1626,-280.464,0.973117,0.0,0.0
745,186,179.284,205.301,95.9412,99.1805,87.0402,0.017162,2.18755,18.1512,-280.824,1.16023,0.0,0.0
750,187.25,179.834,205.579,95.4924,99.1738,87.1908,0.0172593,2.19926,18.1399,-281.224,1.14426,0.0,0.0
755,188.5,180.103,206.792,85.9164,99.1774,87.7427,0.0172993,2.20689,18.1301,-281.635,1.08852,0.0,0.0
760,189.75,181.283,206.795,77.6867,99.1889,86.9927,0.0172495,2.20831,18.1221,-281.945,1.16583,0.0,0.0
765,191,181.654,207.316,86.0827,99.1941,88.3273,0.017116,2.21163,18.117,-282.385,1.03101,0.0,0.0
770,192.25,182.244,207.692,93.8094,99.1841,86.8932,0.0170095,2.21665,18.1141,-282.705,1.17557,0.0,0.0
775,193.5,182.801,209.235,88.068,99.1905,88.5295,0.0170272,2.21881,18.1113,-283.146,1.01037,0.0,0.0
780,194.75,182.17,208.623,85.4011,99.206,87.3562,0.0171749,2.21981,18.1004,-283.496,1.13031,0.0,0.0
785,196,183.071,209.765,82.6984,99.206,87.6465,0.0173767,2.23243,18.0859,-283.886,1.10083,0.0,0.0
790,197.25,183.519,210.141,95.0459,99.206,88.0878,0.0175922,2.25295,18.0629,-284.187,1.0562,0.0,0.0
795,198.5,184.236,211.033,88.884,99.2216,88.037,0.0177617,2.26984,18.0442,-284.667,1.06272,0.0,0.0
800,199.75,184.942,212.171,96.8228,99.2319,88.2151,0.0178476,2.27998,18.0324,-285.047,1.04569,0.0,0.0
805,201,185.768,212.467,84.457,99.2447,87.0484,0.0178426,2.2865,18.0255,-285.368,1.16514,0.0,0.0
810,202.25,185.757,212.58,91.7333,99.2387,86.7909,0.0177624,2.29078,18.0222,-285.708,1.19093,0.0,0.0
815,203.5,186.499,214.002,94.6452,99.2594,88.1193,0.0176926,2.28958,18.0229,-286.148,1.05781,0.0,0.0
820,204.75,187.664,214.333,98.95,99.2702,87.1507,0.0176766,2.28161,18.0271,-286.499,1.15698,0.0,0.0
825,206,186.971,214.749,85.9164,99.267,87.3673,0.0177025,2.27297,18.0309,-286.869,1.13464,0.0,0.0
830,207.25,188.053,215.427,95.2688,99.2809,87.3345,0.0177115,2.27161,18.0305,-287.249,1.13922,0.0,0.0
835,208.5,188.632,215.684,88.2428,99.2937,87.9727,0.0176898,2.28166,18.0167,-287.64,1.07566,0.0,0.0
840,209.75,188.658,216.306,86.3308,99.2917,86.5649,0.0176798,2.2967,18.0019,-288,1.21884,0.0,0.0
845,211,189.533,216.444,88.826,99.3001,87.0823,0.0177085,2.30666,17.992,-288.43,1.16663,0.0,0.0
850,212.25,190.101,217.417,90.9051,99.3128,87.3407,0.0177962,2.31226,17.9842,-288.831,1.14145,0.0,0.0
855,213.5,190.081,218.074,95.8763,99.314,85.8403,0.017895,2.32164,17.9707,-289.181,1.29553,0.0,0.0
860,214.75,190.328,218.535,85.8797,99.3028,86.6705,0.0179939,2.33941,17.9451,-289.551,1.209,0.0,0.0
865,216,190.654,218.639,82.8281,99.3148,87.8749,0.018078,2.36199,17.914,-290.032,1.08744,0.0,0.0
870,217.25,191.572,219.558,89.4534,99.3076,86.734,0.0183793,2.38092,17.8898,-290.372,1.20293,0.0,0.0
875,218.5,192.764,220.222,87.3559,99.306,86.4785,0.0186854,2.39164,17.8787,-290.832,1.22899,0.0,0.0
880,219.75,193.225,221,85.6774,99.2973,87.678,0.0190697,2.40216,17.8685,-291.173,1.10581,0.0,0.0
885,221,193.648,221.463,86.3491,99.2897,86.3741,0.0194901,2.41273,17.8578,-291.633,1.23826,0.0,0.0
890,222.25,193.588,221.942,87.449,99.2793,86.632,0.0197765,2.41871,17.8493,-291.993,1.21084,0.0,0.0
895,223.5,194.311,222.846,83.5548,99.2694,87.3587,0.019947,2.42457,17.8443,-292.414,1.13573,0.0,0.0
900,224.75,195.066,223.121,86.9743,99.2355,86.1829,0.0200554,2.4262,17.8445,-292.774,1.2531,0.0,0.0
905,226,195.946,223.983,87.6368,99.224,85.8337,0.0201477,2.42493,17.8423,-293.225,1.28815,0.0,0.0
910,227.25,195.75,225.078,90.5655,99.2001,84.6895,0.0202548,2.42519,17.8374,-293.595,1.40525,0.0,0.0
915,228.5,196.887,224.674,89.3862,99.1746,86.404,0.0203387,2.4323,17.8202,-293.955,1.22488,0.0,0.0
920,229.75,197.727,225.663,93.6766,99.1471,86.393,0.0204106,2.45181,17.7911,-294.336,1.22355,0.0,0.0
925,231,196.925,225.755,82.9648,99.1323,86.953,0.0204639,2.48026,17.7657,-294.806,1.16482,0.0,0.0
930,232.25,198.098,226.982,87.5795,99.1072,87.7005,0.0204938,2.50248,17.7496,-295.186,1.0865,0.0,0.0
935,233.5,199.411,227.697,83.0121,99.0853,87.7349,0.0205734,2.50931,17.7427,-295.617,1.08105,0.0,0.0
940,234.75,199.613,228.221,85.7774,99.0439,87.0275,0.020694,2.5039,17.7465,-295.977,1.14927,0.0,0.0
945,236,200.184,229.034,88.7824,99.0299,84.2617,0.0208255,2.49838,17.7488,-296.417,1.435,0.0,0.0
950,237.25,200.076,228.943,93.0026,99.0036,85.5132,0.0209576,2.4982,17.747,-296.808,1.30164,0.0,0.0
955,238.5,201.415,230.21,88.7473,98.963,86.8596,0.0210791,2.50674,17.733,-297.208,1.15917,0.0,0.0
960,239.75,201.63,230.257,90.2769,98.9204,87.0529,0.0211061,2.52067,17.7151,-297.638,1.1356,0.0,0.0
965,241,201.649,230.628,74.8618,98.9128,86.7917,0.0210872,2.53332,17.6979,-298.029,1.16162,0.0,0.0
970,242.25,203.345,231.918,84.8302,98.8837,87.3591,0.0210761,2.54373,17.6862,-298.449,1.1011,0.0,0.0
975,243.5,203.365,232.951,88.4726,98.8654,85.828,0.0212448,2.55824,17.6734,-298.849,1.25657,0.0,0.0
980,244.75,203.549,233.681,82.0206,98.8539,85.8968,0.0214942,2.57552,17.6534,-299.32,1.24841,0.0,0.0
985,246,204.828,234.042,87.1399,98.8419,86.3893,0.0216628,2.59723,17.6358,-299.65,1.19654,0.0,0.0
990,247.25,205.228,235.234,86.5636,98.9379,86.7245,0.0216036,2.60246,17.6255,-300.081,1.17075,0.0,0.0
995,248.5,205.858,235.916,87.0468,99.0538,86.4777,0.0214234,2.59927,17.6291,-300.521,1.20648,0.0,0.0
1000,249.75,206.694,236.101,87.6818,99.1961,86.7344,0.0211721,2.59398,17.6319,-300.891,1.1929,0.0,0.0
1005,251,206.571,236.84,94.8016,99.3048,86.6103,0.0209634,2.58849,17.6336,-301.322,1.21535,0.0,0.0
1010,252.25,207.346,237.903,86.6819,99.4025,85.9787,0.0208689,2.58942,17.6315,-301.712,1.28913,0.0,0.0
1015,253.5,207.811,238.146,77.8356,99.5032,85.5734,0.0208855,2.59554,17.6236,-302.132,1.34011,0.0,0.0
1020,254.75,208.181,238.792,78.6774,99.5598,86.982,0.0209608,2.60667,17.6079,-302.533,1.20008,0.0,0.0
1025,256,208.884,239.325,75.4213,99.6252,87.156,0.0210617,2.61812,17.5926,-303.013,1.18816,0.0,0.0
1030,257.25,208.848,239.949,75.9541,99.6602,86.1387,0.0211759,2.63172,17.5729,-303.393,1.29561,0.0,0.0
1035,258.5,210.298,240.603,88.5863,99.6977,87.1106,0.021325,2.64594,17.5555,-303.814,1.19925,0.0,0.0
1040,259.75,210.092,241.079,83.1945,99.6993,87.5675,0.0214725,2.65696,17.5444,-304.204,1.15291,0.0,0.0
1045,261,210.515,241.437,88.4634,99.6865,87.9077,0.0216629,2.66265,17.5374,-304.664,1.11732,0.0,0.0
1050,262.25,211.472,242.373,86.282,99.6566,87.6047,0.0218464,2.66179,17.5319,-305.035,1.14533,0.0,0.0
1055,263.5,211.812,242.944,76.1472,99.6168,86.1195,0.0219456,2.6628,17.5273,-305.575,1.29372,0.0,0.0
1060,264.75,211.675,243.058,82.574,99.5423,86.2759,0.0219352,2.67171,17.5245,-305.946,1.27095,0.0,0.0
1065,266,212.547,243.737,79.3545,99.4479,86.4695,0.0218729,2.68579,17.5112,-306.406,1.2426,0.0,0.0
1070,267.25,213.621,244.081,86.8346,99.3291,87.093,0.0217991,2.69961,17.4951,-306.856,1.16814,0.0,0.0
1075,268.5,212.603,244.188,84.2036,99.2084,86.1973,0.0218232,2.71179,17.4776,-307.237,1.2492,0.0,0.0
1080,269.75,214.316,245.424,81.5374,99.1905,86.2603,0.0219149,2.72152,17.4643,-307.697,1.2411,0.0,0.0
1085,271,213.942,246.56,86.3262,99.2375,85.5017,0.0220729,2.72997,17.4533,-308.047,1.3238,0.0,0.0
1090,272.25,215.336,246.506,73.0491,99.2797,85.7273,0.0223042,2.73706,17.4456,-308.528,1.30416,0.0,0.0
1095,273.5,215.565,247.247,82.8579,99.3634,85.9258,0.0226225,2.74879,17.4306,-308.968,1.29109,0.0,0.0
1100,274.75,216.295,247.078,77.4615,99.4347,85.1943,0.0228911,2.76181,17.4113,-309.369,1.37344,0.0,0.0
1105,276,216.21,248.31,76.77,99.5132,86.0028,0.0229896,2.77214,17.3979,-309.859,1.29652,0.0,0.0
1110,277.25,216.841,248.596,96.9403,99.6092,84.4623,0.0229098,2.7828,17.3838,-310.239,1.4657,0.0,0.0
1115,278.5,217.665,249.292,83.6426,99.6845,85.9254,0.0227141,2.79439,17.3671,-310.73,1.31981,0.0,0.0
1120,279.75,218.103,249.59,85.5011,99.761,87.6485,0.0225509,2.80756,17.3497,-311.11,1.1502,0.0,0.0
1125,281,218.412,250.369,81.3901,99.8208,86.23,0.0225177,2.82587,17.3261,-311.611,1.3005,0.0,0.0
1130,282.25,219.013,250.972,87.6871,99.8821,86.3979,0.0225929,2.84389,17.3017,-311.961,1.28868,0.0,0.0
1135,283.5,219.354,251.761,82.6022,99.9279,86.3618,0.0227187,2.85848,17.2847,-312.431,1.29646,0.0,0.0
1140,284.75,220.685,252.7,82.8335,99.9634,85.6237,0.0227703,2.86994,17.2743,-312.902,1.37589,0.0,0.0
1145,286,220.689,253.275,85.1409,99.9626,85.5075,0.0227418,2.87422,17.2682,-313.312,1.38789,0.0,0.0
1150,287.25,221.109,253.695,75.8144,99.9566,87.3652,0.0227339,2.87473,17.2646,-313.772,1.19637,0.0,0.0
1155,288.5,222.057,254.436,76.8761,99.9291,86.1514,0.0227774,2.87883,17.2627,-314.233,1.31825,0.0,0.0
1160,289.75,222.059,254.67,76.1563,99.8825,86.2558,0.0229326,2.89218,17.2532,-314.603,1.30334,0.0,0.0
1165,291,223.046,256.003,79.8544,99.7877,85.4641,0.0232545,2.90773,17.2241,-315.104,1.37684,0.0,0.0
1170,292.25,223.67,256.339,77.2158,99.6957,85.9598,0.0235866,2.92751,17.1983,-315.534,1.31724,0.0,0.0
1175,293.5,224.516,256.438,76.1159,99.5574,84.1127,0.0240287,2.94098,17.1793,-316.024,1.49793,0.0,0.0
1180,294.75,224.459,257.753,81.3749,99.4224,85.654,0.0243622,2.95612,17.1597,-316.415,1.32452,0.0,0.0
1185,296,225.024,258.351,75.9984,99.2658,84.8717,0.0245204,2.97187,17.145,-316.915,1.39205,0.0,0.0
1190,297.25,226.139,258.942,76.1792,99.0989,85.5357,0.0245437,2.98089,17.1364,-317.346,1.30784,0.0,0.0
1195,298.5,226.545,260.011,75.0336,98.9172,84.1786,0.0245556,2.97876,17.131,-317.776,1.43365,0.0,0.0
1200,299.75,226.671,259.909,83.8761,98.7343,85.3994,0.0246552,2.97883,17.1278,-318.226,1.28927,0.0,0.0
1205,301,227.486,260.958,69.5479,98.5786,84.5466,0.0248561,2.98889,17.1177,-318.707,1.36441,0.0,0.0
1210,302.25,228.416,261.565,89.732,98.4359,84.7386,0.0250805,3.00406,17.0996,-319.167,1.33139,0.0,0.0
1215,303.5,228.259,261.419,80.5047,98.3009,85.3081,0.0252368,3.0206,17.0873,-319.637,1.25968,0.0,0.0
1220,304.75,229.917,262.89,82.0221,98.1638,83.2771,0.0253047,3.0289,17.0805,-320.048,1.46138,0.0,0.0
1225,306,230.422,264.166,80.8604,98.0865,84.1766,0.0252991,3.028,17.077,-320.478,1.35893,0.0,0.0
1230,307.25,229.801,264.261,79.8888,98.0431,83.4614,0.0252857,3.02563,17.075,-320.929,1.43081,0.0,0.0
1235,308.5,231.033,265.233,74.8565,98.0224,83.0778,0.0253284,3.02538,17.0733,-321.469,1.46987,0.0,0.0
1240,309.75,231.281,265.559,85.5981,98.0375,82.7016,0.0254264,3.02975,17.0671,-321.929,1.51157,0.0,0.0
1245,311,231.656,265.973,88.4153,98.1108,85.1505,0.0254951,3.04903,17.0552,-322.33,1.25891,0.0,0.0
1250,312.25,231.894,266.786,76.4128,98.2005,83.2366,0.0255003,3.07854,17.0171,-322.8,1.46903,0.0,0.0
1255,313.5,232.782,267.348,75.7465,98.318,84.3284,0.0254399,3.09899,16.984,-323.261,1.36386,0.0,0.0
1260,314.75,233.763,268.478,74.3123,98.4387,85.0436,0.0253869,3.11577,16.9645,-323.751,1.29972,0.0,0.0
1265,316,234.027,269.089,76.9021,98.5929,85.0121,0.0254484,3.13282,16.941,-324.221,1.31692,0.0,0.0
1270,317.25,234.791,269.81,85.176,98.7315,84.8533,0.0255513,3.15543,16.9096,-324.632,1.34602,0.0,0.0
1275,318.5,235.541,270.046,89.7014,98.861,83.5068,0.0259177,3.17111,16.8892,-325.092,1.4998,0.0,0.0
1280,319.75,236.207,271.294,72.7941,98.9969,85.3564,0.0261428,3.18246,16.8788,-325.603,1.31734,0.0,0.0
1285,321,236.73,271.9,81.5046,99.114,84.1647,0.0265009,3.19503,16.8643,-326.063,1.45278,0.0,0.0
1290,322.25,237.024,272.986,73.104,99.2148,84.2114,0.0267507,3.20345,16.8545,-326.463,1.45689,0.0,0.0
1295,323.5,238.057,273.659,81.007,99.265,82.8891,0.0269346,3.20982,16.8522,-327.054,1.60201,0.0,0.0
1300,324.75,238.588,274.273,79.6987,99.3172,84.6666,0.0271716,3.20015,16.855,-327.504,1.41815,0.0,0.0
1305,326,238.619,274.529,79.646,99.3192,83.3684,0.0275133,3.19509,16.8566,-327.925,1.55562,0.0,0.0
1310,327.25,239.45,274.993,77.931,99.3076,83.5977,0.0278817,3.20777,16.8399,-328.415,1.53018,0.0,0.0
1315,328.5,239.7,276.177,74.7153,99.2435,82.2889,0.0281161,3.23166,16.8192,-328.845,1.66466,0.0,0.0
1320,329.75,240.691,276.332,79.5117,99.1754,84.143,0.0280828,3.2436,16.8034,-329.336,1.46057,0.0,0.0
1325,331,240.666,276.511,77.5035,99.106,83.7778,0.0277555,3.24695,16.7865,-329.896,1.493,0.0,0.0
1330,332.25,241.449,277.473,71.2882,99.0164,85.4162,0.0273605,3.25583,16.7717,-330.267,1.31287,0.0,0.0
1335,333.5,241.522,278.686,73.7505,98.9487,83.5981,0.0270601,3.27601,16.7523,-330.857,1.49796,0.0,0.0
1340,334.75,242.587,278.832,72.917,98.8722,83.5379,0.0268779,3.30358,16.7263,-331.338,1.49749,0.0,0.0
1345,336,242.375,280.141,78.4225,98.812,83.5232,0.0270241,3.32535,16.6993,-331.788,1.49365,0.0,0.0
1350,337.25,243.649,280.069,81.4474,98.8531,81.9647,0.0273509,3.33877,16.6757,-332.228,1.66471,0.0,0.0
1355,338.5,243.794,281.016,77.1837,99.1335,83.9231,0.0277438,3.37306,16.6295,-332.779,1.48007,0.0,0.0
1360,339.75,243.467,280.787,68.0244,99.361,84.4779,0.0281668,3.41368,16.5785,-333.249,1.44189,0.0,0.0
1365,341,245.029,282.664,69.6403,99.5264,84.983,0.0284887,3.44606,16.544,-333.77,1.40369,0.0,0.0
1370,342.25,246.139,282.745,87.0765,99.6255,84.6649,0.0287103,3.46332,16.5236,-334.2,1.44586,0.0,0.0
1375,343.5,246.252,284.316,73.4597,99.6702,84.7738,0.0288499,3.4691,16.5137,-334.741,1.43842,0.0,0.0
1380,344.75,246.863,285.202,69.3769,99.6538,84.2863,0.0288999,3.46736,16.5137,-335.131,1.48822,0.0,0.0
1385,346,247.971,285.594,77.6211,99.559,85.1165,0.0288075,3.46673,16.5189,-335.661,1.39266,0.0,0.0
1390,347.25,248.344,286.437,80.3261,99.418,82.9922,0.0285822,3.46054,16.5278,-336.142,1.60464,0.0,0.0
1395,348.5,249.253,286.763,79.8834,99.2064,83.8851,0.0280281,3.42648,16.5711,-336.622,1.49063,0.0,0.0
1400,349.75,249.663,287.864,70.605,99.2084,85.051,0.0273495,3.3759,16.6308,-337.033,1.36816,0.0,0.0
1405,351,249.02,288.439,75.49,99.302,85.6372,0.026481,3.31747,16.7085,-337.443,1.3155,0.0,0.0
1410,352.25,249.97,288.303,82.2832,99.4331,84.7333,0.0255546,3.24639,16.8187,-337.923,1.42151,0.0,0.0
1415,353.5,249.589,288.317,84.2906,99.5638,85.3871,0.024634,3.1615,16.9362,-338.324,1.36488,0.0,0.0
1420,354.75,249.398,288.002,79.5247,99.6985,85.5414,0.0237819,3.07315,17.0499,-338.694,1.36085,0.0,0.0
1425,356,249.317,287.402,88.9519,99.8024,86.7229,0.0229662,2.95684,17.1812,-339.074,1.24822,0.0,0.0
1430,357.25,248.414,286.671,85.7393,99.8937,85.6765,0.0221627,2.86294,17.2946,-339.425,1.36421,0.0,0.0
1435,358.5,247.295,285.636,87.6276,99.9538,82.8833,0.021141,2.73398,17.4534,-339.825,1.66408,0.0,0.0
1440,359.75,246.129,283.97,96.7625,99.9797,84.9912,0.0199079,2.58108,17.6404,-340.025,1.44322,0.0,0.0
1445,361,244.353,282.178,99.2095,99.9399,82.0691,0.0186154,2.39091,17.876,-340.265,1.75056,0.0,0.0
1450,362.25,242.09,279.33,96.8075,99.869,85.6651,0.0173904,2.18385,18.1311,-340.486,1.3632,0.0,0.0
1455,363.5,239.814,276.83,106.373,99.7666,85.2066,0.0160246,1.96525,18.4357,-340.686,1.40177,0.0,0.0
1460,364.75,237.049,273.479,109.584,99.5889,84.7026,0.0146705,1.74188,18.7313,-340.836,1.43864,0.0,0.0
1465,366,233.781,269.974,114.651,99.3965,87.4418,0.0133106,1.52585,19.0953,-340.946,1.13865,0.0,0.0
1470,367.25,230.084,265.842,117.968,99.1809,89.668,0.0119022,1.29932,19.4362,-341.056,0.895967,0.0,0.0
1475,368.5,225.909,261.034,122.454,98.926,90.9661,0.0104397,1.09275,19.6995,-341.106,0.745374,0.0,0.0
1480,369.75,221.394,255.863,128.206,98.6786,93.065,0.00925161,0.912197,19.8903,-341.156,0.520429,0.0,0.0
1485,371,217.108,251.923,125.134,98.4558,93.9526,0.00791886,0.753704,20.0985,-341.196,0.416013,0.0,0.0
1490,372.25,212.94,246.694,134.019,98.2809,93.359,0.0067992,0.652393,20.2753,-341.246,0.456534,0.0,0.0
1495,373.5,209.061,241.402,129.44,98.1535,94.7419,0.00582516,0.534598,20.4258,-341.246,0.314344,0.0,0.0
1500,374.75,204.069,236.38,135.512,98.0666,95.6245,0.00511188,0.444754,20.5493,-341.296,0.22408,0.0,0.0
1505,376,200.746,232.363,133.397,98.0475,96.1301,0.00442617,0.365637,20.6446,-341.296,0.175491,0.0,0.0
1510,377.25,196.675,227.55,132.25,98.0945,96.7781,0.00384713,0.308108,20.727,-341.296,0.120049,0.0,0.0
1515,378.5,191.424,222.652,134.617,98.1837,97.3906,0.00337667,0.256707,20.795,-341.296,0.0720748,0.0,0.0
1520,379.75,188.185,218.309,137.254,98.2913,96.9112,0.00299944,0.213883,20.8472,-341.326,0.12565,0.0,0.0
1525,381,184.559,213.733,135.287,98.4519,97.1425,0.00270042,0.180476,20.8866,-341.336,0.118971,0.0,0.0
1530,382.25,180.677,208.869,134.292,98.6435,97.6992,0.00241507,0.153927,20.9101,-341.336,0.0854675,0.0,0.0
1535,383.5,177.696,205.371,139.841,98.8307,97.1867,0.00211685,0.133081,20.9303,-341.326,0.149058,0.0,0.0
1540,384.75,173.22,200.914,138.854,98.9969,97.6194,0.00186335,0.116577,20.9493,-341.336,0.124507,0.0,0.0
1545,386,170.233,196.943,138.357,99.1383,97.6608,0.0016616,0.103772,20.9661,-341.326,0.133429,0.0,0.0
1550,387.25,167.094,193.214,138.058,99.2602,97.9375,0.00148935,0.0931504,20.9795,-341.326,0.119205,0.0,0.0
1555,388.5,163.824,188.96,136.122,99.312,97.4655,0.00133885,0.0851404,20.9899,-341.306,0.16677,0.0,0.0
1560,389.75,160.885,186.213,136.416,99.3156,98.3804,0.00121935,0.0793134,20.9964,-341.326,0.0840637,0.0,0.0
1565,391,158.348,182.38,138.004,99.2893,97.802,0.00112993,0.0748216,21.001,-341.306,0.134111,0.0,0.0
1570,392.25,155.247,178.582,138.765,99.2029,97.5981,0.00103139,0.0713936,21.0049,-341.306,0.144913,0.0,0.0
1575,393.5,152.776,175.98,138.777,99.0754,96.9656,0.000906334,0.0683874,21.0083,-341.316,0.191258,0.0,0.0
1580,394.75,150.126,172.667,137.869,98.9845,97.4712,0.00080554,0.066115,21.0101,-341.306,0.136898,0.0,0.0
1585,396,147.495,169.506,139.2,98.914,96.6254,0.000707888,0.0642752,21.0118,-341.296,0.208005,0.0,0.0
1590,397.25,144.469,166.056,138.943,98.8088,96.451,0.000652512,0.0627664,21.0134,-341.286,0.214604,0.0,0.0
1595,398.5,142.538,163.924,136.51,98.7865,96.2639,0.00065004,0.0613701,21.0154,-341.306,0.22985,0.0,0.0
1600,399.75,140.797,161.22,135.879,99.1291,97.3435,0.000700519,0.0602336,21.0163,-341.306,0.161522,0.0,0.0
1605,401,138.153,157.939,137.244,99.3969,97.4065,0.000710579,0.0592999,21.0171,-341.316,0.179735,0.0,0.0
1610,402.25,136.791,156.012,137.996,99.5734,97.0209,0.000691434,0.0584637,21.0175,-341.326,0.230748,0.0,0.0
1615,403.5,134.14,153.252,133.329,99.6363,97.3476,0.000644061,0.0577149,21.0178,-341.326,0.206494,0.0,0.0
1620,404.75,132.915,151.01,138.462,99.6108,97.3324,0.000598478,0.0571049,21.0167,-341.316,0.205602,0.0,0.0
1625,406,130.663,148.726,134.016,99.5048,96.9759,0.000631871,0.0566345,21.0159,-341.306,0.228757,0.0,0.0
1630,407.25,128.045,145.469,141.476,99.2742,97.585,0.000704425,0.0561435,21.0153,-341.336,0.152491,0.0,0.0
1635,408.5,127.106,144.054,138.106,99.1694,97.1597,0.000761559,0.0557201,21.015,-341.346,0.181923,0.0,0.0
1640,409.75,125.503,141.885,136.4,99.2893,96.806,0.000781535,0.0553204,21.0149,-341.346,0.225069,0.0,0.0
1645,411,123.6,139.593,136.483,99.4483,96.8072,0.000720532,0.0549891,21.0152,-341.326,0.239171,0.0,0.0
1650,412.25,121.782,137.51,139.085,99.5893,97.4119,0.00062963,0.0547573,21.0159,-341.326,0.196435,0.0,0.0
1655,413.5,120.314,135.313,141.522,99.7355,97.3206,0.000517889,0.0545479,21.0163,-341.316,0.217803,0.0,0.0
1660,414.75,118.696,133.646,140.246,99.8745,97.4622,0.000444473,0.0542821,21.0166,-341.336,0.217258,0.0,0.0
1665,416,116.947,132.146,138.43,99.9427,97.8994,0.000470014,0.0540627,21.0167,-341.286,0.183545,0.0,0.0
1670,417.25,115.22,129.654,138.214,99.9419,97.4905,0.000577138,0.0539139,21.0168,-341.236,0.220672,0.0,0.0
1675,418.5,114.208,128.231,139.555,99.9048,97.2637,0.000746997,0.0537583,21.0169,-341.316,0.238073,0.0,0.0
1680,419.75,112.899,126.32,139.502,99.8072,97.4409,0.000869196,0.0536177,21.0169,-341.336,0.213207,0.0,0.0
1685,421,111.484,124.531,143.273,99.6271,97.0246,0.000910329,0.0535247,21.0169,-341.326,0.235209,0.0,0.0
1690,422.25,110.371,122.687,139.021,99.4009,95.7305,0.000898937,0.0534891,21.0169,-341.326,0.334313,0.0,0.0
1695,423.5,109.309,121.823,137.082,99.161,97.2788,0.000875674,0.053478,21.0169,-341.326,0.170285,0.0,0.0
1700,424.75,107.99,120.041,138.607,98.8961,95.6949,0.000859009,0.053514,21.0169,-341.346,0.292381,0.0,0.0
1705,426,106.194,118.031,138.389,98.6359,96.2291,0.0008649,0.0535513,21.0172,-341.346,0.219507,0.0,0.0
1710,427.25,105.55,116.479,140.772,98.3921,95.7129,0.000898912,0.0535674,21.0169,-341.346,0.24531,0.0,0.0
1715,428.5,104.391,115.211,140.543,98.2116,95.6388,0.00091886,0.0535549,21.0166,-341.366,0.235879,0.0,0.0
1720,429.75,103.228,113.73,140.369,98.1116,95.2237,0.000899554,0.0534161,21.0165,-341.356,0.265479,0.0,0.0
1725,431,102.337,112.44,140.507,98.0574,96.2517,0.000848293,0.0533647,21.0164,-341.326,0.16516,0.0,0.0
1730,432.25,100.839,110.893,140.039,98.0905,95.6253,0.000795346,0.0532994,21.0163,-341.296,0.226169,0.0,0.0
1735,433.5,100.748,109.86,137.699,98.2037,95.4874,0.000757085,0.0533281,21.0163,-341.286,0.249243,0.0,0.0
1740,434.75,99.1656,108.265,137.579,98.3539,95.5348,0.000721176,0.0533845,21.0163,-341.286,0.258404,0.0,0.0
1745,436,97.0942,106.342,140.337,98.5383,95.5111,0.000677217,0.053271,21.016,-341.316,0.277262,0.0,0.0
1750,437.25,97.2886,106.044,141.433,98.7403,96.0019,0.00063555,0.0531887,21.0157,-341.316,0.249909,0.0,0.0
1755,438.5,96.5716,104.667,137.993,98.9319,96.3323,0.000607019,0.0531769,21.0156,-341.316,0.236613,0.0,0.0
1760,439.75,95.2891,103.53,138.604,99.0778,96.3438,0.000602537,0.053148,21.0155,-341.336,0.248642,0.0,0.0
1765,441,94.9677,102.493,141.813,99.2152,96.0523,0.000637161,0.0531309,21.0155,-341.316,0.287884,0.0,0.0
1770,442.25,93.46,100.94,143.341,99.2973,96.1948,0.000706614,0.0530533,21.0154,-341.316,0.282062,0.0,0.0
1775,443.5,92.5306,100.483,139.271,99.3256,96.2222,0.000743887,0.0529487,21.0154,-341.316,0.28206,0.0,0.0
1780,444.75,91.5966,98.545,140.12,99.2801,95.9508,0.000719445,0.0529931,21.0154,-341.336,0.303095,0.0,0.0
1785,446,91.0018,98.2296,139.489,99.1977,96.2644,0.000668178,0.0530197,21.0154,-341.296,0.266718,0.0,0.0
1790,447.25,90.4799,97.2649,142.315,99.0909,95.6347,0.000635408,0.0528222,21.0154,-341.326,0.315458,0.0,0.0
1795,448.5,89.8332,96.3671,145.893,98.965,96.0146,0.000600472,0.0527789,21.0154,-341.326,0.268933,0.0,0.0
1800,449.75,89.4541,95.3101,139.274,98.8746,95.8169,0.000564573,0.0528408,21.0151,-341.336,0.279127,0.0,0.0
1805,451,88.8014,94.6412,141.954,98.777,95.7596,0.000553449,0.0528319,21.0148,-341.326,0.275667,0.0,0.0
1810,452.25,88.4507,93.3468,140.158,98.7276,95.2728,0.000559869,0.052804,21.0146,-341.396,0.316505,0.0,0.0
1815,453.5,87.549,92.5686,142.744,98.9562,95.6925,0.000568161,0.0527822,21.0154,-341.406,0.298013,0.0,0.0
1820,454.75,86.6439,91.3587,139.498,99.1921,96.031,0.000589736,0.0525946,21.0159,-341.416,0.287784,0.0,0.0
1825,456,85.9665,91.0128,138.782,99.32,95.8001,0.000657585,0.0524399,21.0162,-341.346,0.320623,0.0,0.0
1830,457.25,85.7192,89.8411,142.732,99.4646,96.2251,0.000731188,0.052406,21.0164,-341.356,0.294225,0.0,0.0
1835,458.5,84.7584,88.8394,142.241,99.559,96.6017,0.000782506,0.0524016,21.0165,-341.336,0.267945,0.0,0.0
1840,459.75,84.5451,88.5362,139.758,99.6136,96.3585,0.000793635,0.052426,21.0165,-341.336,0.29521,0.0,0.0
1845,461,83.6384,87.3285,140.88,99.5925,96.1829,0.000759061,0.0524582,21.0166,-341.336,0.309537,0.0,0.0
1850,462.25,82.9218,86.7096,139.94,99.5435,95.8132,0.000691038,0.0524885,21.0166,-341.326,0.339382,0.0,0.0
1855,463.5,82.8572,85.9207,143.707,99.4248,95.421,0.000673023,0.0524992,21.0166,-341.326,0.365223,0.0,0.0
1860,464.75,81.8857,85.6211,141.93,99.2634,95.2528,0.000711844,0.0523879,21.0166,-341.326,0.366473,0.0,0.0
1865,466,82.0337,85.0098,140.105,99.1208,95.0002,0.00080411,0.0523689,21.0166,-341.346,0.37729,0.0,0.0
1870,467.25,81.3062,84.1526,138.449,99.2032,95.6806,0.000854877,0.0523726,21.0169,-341.336,0.321268,0.0,0.0
1875,468.5,80.6315,83.3497,143.015,99.2829,95.9868,0.000821699,0.0523247,21.0181,-341.356,0.30001,0.0,0.0
1880,469.75,79.6709,81.658,141.739,99.3977,96.1235,0.000718463,0.0522025,21.0184,-341.356,0.297623,0.0,0.0
1885,471,79.407,82.4299,141.48,99.5128,95.889,0.000587536,0.0520679,21.018,-341.346,0.329621,0.0,0.0
1890,472.25,78.5543,80.4295,142.432,99.6224,95.706,0.000501906,0.0518452,21.0178,-341.376,0.356373,0.0,0.0
1895,473.5,78.8733,80.9156,141.808,99.7196,95.4869,0.000456413,0.0517379,21.0168,-341.346,0.385397,0.0,0.0
1900,474.75,78.2709,80.0255,142.728,99.8048,96.5775,0.00044163,0.0516344,21.0162,-341.336,0.292079,0.0,0.0
1905,476,77.4197,78.7048,143.258,99.8781,95.5574,0.000421502,0.0515039,21.0158,-341.356,0.392965,0.0,0.0
1910,477.25,77.1216,78.2744,139.92,99.9303,95.437,0.000399552,0.0514183,21.0158,-341.326,0.408807,0.0,0.0
1915,478.5,76.9104,78.0589,142.066,99.9522,96.424,0.000382279,0.0514103,21.0166,-341.356,0.319329,0.0,0.0
1920,479.75,76.2198,77.6234,144.237,99.9738,95.4734,0.000354676,0.0514368,21.0172,-341.346,0.409275,0.0,0.0
1925,481,75.9128,77.1887,140.32,99.9542,96.0863,0.000303136,0.0514525,21.0183,-341.366,0.350684,0.0,0.0
1930,482.25,75.4842,76.0209,142.38,99.9251,96.0613,0.000255222,0.0514232,21.019,-341.346,0.350409,0.0,0.0
1935,483.5,74.4103,75.3782,138.946,99.8626,95.1906,0.000251077,0.0513092,21.0194,-341.366,0.425758,0.0,0.0
1940,484.75,75.0298,75.5226,142.925,99.7913,95.4083,0.000265359,0.0511537,21.0196,-341.356,0.399103,0.0,0.0
1945,486,74.6697,75.1932,140.541,99.7188,95.0092,0.000285715,0.0510525,21.0197,-341.356,0.429896,0.0,0.0
1950,487.25,73.7336,74.4624,142.903,99.604,95.5631,0.000292547,0.05108,21.0198,-341.356,0.368013,0.0,0.0
1955,488.5,73.8348,73.7659,141.362,99.4833,95.261,0.000297215,0.0511079,21.0191,-341.356,0.385375,0.0,0.0
1960,489.75,73.4332,73.5651,146.249,99.3698,95.2962,0.000305733,0.051171,21.0185,-341.356,0.371943,0.0,0.0
1965,491,73.3138,72.8475,139.975,99.2443,95.087,0.000335775,0.0512664,21.0181,-341.376,0.380242,0.0,0.0
1970,492.25,72.8199,72.3125,141.898,99.1116,94.9998,,0.0512716,,-341.366,0.376507,0.0,0.0
1975,493.5,72.2773,72.2685,143.302,98.9913,94.4287,,0.0512427,,-341.336,0.419291,0.0,0.0
1980,494.75,72.0426,71.7831,137.416,98.8578,94.4266,,,,-341.326,0.407496,0.0,0.0
1985,496,71.9116,71.1227,143.386,98.7479,94.3354,,,,-341.376,0.406201,0.0,0.0
1990,497.25,71.2075,70.8526,140.358,98.6192,94.2342,,,,-341.386,0.404144,0.0,0.0
1995,498.5,71.2728,69.9779,143.533,98.5371,93.7319,,,,-341.366,0.444238,0.0,0.0
2000,499.75,70.7997,69.8816,139.988,98.4144,93.8985,,,,-341.336,0.417385,0.0,0.0
2005,501,70.5352,69.4866,139.423,98.3327,93.822,,,,-341.376,0.417255,0.0,0.0
2010,502.25,69.9342,69.2449,142.778,98.2686,93.5972,,,,-341.366,0.432768,0.0,0.0
2011,502.5,70.1996,69.39,142.269,98.2698,93.6554,,,,-341.356,0.427359,0.0,0.0