File: 01_Data/Black_PMMA/Cone/Black_PMMA_Cone_HF25Scan_220315_R2.csv
Names,Time,Stack TC,Smoke TC,Exh Press,Smoke Comp,Smoke Meas,CO Meter,CO2 Meter,O2 Meter,Sample Mass,Ext Coeff,Start Test,Flame Verif
Chan Gain,,500,500,1,1,1,1,1,1,1,1,1.0,1.0
Offset,,0,0,0.136235,0,0,0,0,0,0,0,0.0,0.0
Gain,,1,1,25.011,13.6985,14.3472,1,1,1,1.00091,1.01482,1.0,1.0
Units,sec,C,C,Pa,%,%,%,%,%,g,/m,,
Baseline,,14.1989,14.2175,179.11,103.878,101.375,0.00093695,0.0453828,21.0189,-831.93,0.217208,,
7,1.5,13.0163,13.4813,181.832,102.881,101.51,0.0010071,0.0557878,21.0088,-241.97,0.119381,0.0,0.0
14,3.25,13.9844,14.0911,177.213,103.078,101.73,0.000946991,0.0552698,21.0098,-242.03,0.117184,0.0,0.0
21,5,13.0223,13.097,181.533,103.309,102.086,0.000823935,0.0544875,21.0114,-242.04,0.105959,0.0,0.0
28,6.75,13.3773,14.0205,181.32,103.575,102.074,0.000738411,0.0535417,21.0134,-242.08,0.130018,0.0,0.0
35,8.5,13.577,13.1577,175.101,103.805,102.42,0.000741487,0.0524565,21.0144,-242.03,0.119604,0.0,0.0
42,10.25,13.69,13.8454,176.467,104.045,102.269,0.000716487,0.051334,21.0155,-242.06,0.153297,0.0,0.0
49,12,13.4594,13.5905,179.129,104.235,102.925,0.000677942,0.0501121,21.0171,-242.06,0.112613,0.0,0.0
56,13.75,13.396,13.6704,180.322,104.407,103.227,0.000678098,0.0492307,21.0184,-242.05,0.101146,0.0,0.0
63,15.5,13.929,13.6699,177.785,104.518,103.292,0.000691212,0.0485125,21.0188,-242.07,0.105036,0.0,0.0
70,17.25,13.3126,14.0975,178.167,104.592,103.219,0.000678438,0.0480449,21.019,-242.03,0.1176,0.0,0.0
77,19,13.6052,13.9252,177.952,104.606,103.475,0.000696675,0.0476412,21.0201,-242.05,0.0967131,0.0,0.0
84,20.75,14.0215,13.8051,179.846,104.57,103.585,0.000743925,0.0471432,21.0208,-242.03,0.0842399,0.0,0.0
91,22.5,14.0296,13.9626,180.295,104.494,103.044,0.000867237,0.0466546,21.0211,-242.04,0.124353,0.0,0.0
98,24.25,12.9982,14.0422,181.884,104.4,103.414,0.000980812,0.0461363,21.0224,-242.07,0.0845038,0.0,0.0
105,26,13.8363,14.0984,171.988,104.26,103.19,0.00102475,0.0457225,21.0234,-242.04,0.0918369,0.0,0.0
112,27.75,13.6601,13.1298,179.737,104.124,102.95,0.000992843,0.0454298,21.024,-242.04,0.100988,0.0,0.0
119,29.5,13.6291,13.9994,182.199,103.952,102.654,0.000956274,0.0451739,21.0235,-242.04,0.111807,0.0,0.0
126,31.25,13.7054,13.9432,179.733,103.831,102.741,0.00105551,0.0450009,21.0228,-242.05,0.0939404,0.0,0.0
133,33,14.0405,14.1303,181.841,103.769,102.693,0.00115531,0.0450158,21.0225,-242.05,0.0928052,0.0,0.0
140,34.75,14.0226,14.239,178.427,104.018,103.09,0.00110941,0.0451581,21.0224,-242.03,0.0797628,0.0,0.0
147,36.5,14.02,14.7177,179.807,104.204,102.725,0.00102177,0.0454959,21.0219,-242.06,0.127255,0.0,0.0
154,38.25,14.4016,14.2386,176.843,104.283,103.261,0.000986418,0.0456353,21.0216,-242.05,0.0877187,0.0,0.0
161,40,14.6865,14.423,178.573,104.302,103.213,0.000909644,0.0455773,21.0215,-242.04,0.0934374,0.0,0.0
168,41.75,14.1994,14.0989,173.214,104.252,103.238,0.00081577,0.045492,21.0214,-242.04,0.0869663,0.0,0.0
175,43.5,14.489,14.2209,178.197,104.124,103.208,0.000712344,0.0453578,21.0214,-242.06,0.0786458,0.0,0.0
182,45.25,14.2378,13.8934,175.867,103.916,102.653,0.000698973,0.0453367,21.0221,-242.05,0.108804,0.0,0.0
189,47,14.1318,14.0008,179.709,103.644,102.591,0.000786954,0.0455702,21.0223,-242.08,0.0909262,0.0,0.0
196,48.75,14.0409,14.2694,182.021,103.417,102.367,0.000842431,0.0460163,21.0218,-242.08,0.0908054,0.0,0.0
203,50.5,14.3918,14.2105,176.955,103.46,102.403,0.000834857,0.0464761,21.0215,-242.13,0.0913894,0.0,0.0
210,52.25,13.8893,14.5017,175.59,103.514,102.712,0.000785425,0.0464276,21.0213,-242.08,0.069273,0.0,0.0
217,54,13.4079,13.5709,178.185,103.595,102.4375,0.000742539,0.0460706,21.0225,-242.1,0.100032,0.0,0.0
224,55.75,14.2376,14.7083,175.216,103.685,102.714,0.000766097,0.0456355,21.023,-242.08,0.0837396,0.0,0.0
231,57.5,14.3948,14.41,177.953,103.759,102.387,0.000848512,0.0451733,21.0242,-242.08,0.118442,0.0,0.0
238,59.25,14.241,14.3264,178.544,103.822,102.997,0.000906691,0.0448582,21.0251,-242.07,0.0710597,0.0,0.0
245,61,14.3105,14.1902,179.253,103.889,102.471,0.000932219,0.0444924,21.0255,-242.1,0.122357,0.0,0.0
252,62.75,13.8327,13.6468,175.691,103.9,102.501,0.000908704,0.0443557,21.0256,-242.07,0.12074,0.0,0.0
259,64.5,13.5919,13.9803,175.904,103.917,102.759,0.000849416,0.0441788,21.0257,-242.07,0.0997285,0.0,0.0
266,66.25,14.2615,14.4123,179.553,103.861,102.641,0.000865397,0.0440707,21.0251,-242.09,0.10521,0.0,0.0
273,68,14.2629,14.4183,176.268,103.819,102.799,0.000987403,0.0440853,21.024,-242.1,0.0878953,0.0,0.0
280,69.75,14.014,14.826,177.672,103.743,102.601,0.00109314,0.044287,21.0235,-242.12,0.0984839,0.0,0.0
287,71.5,14.2716,14.9814,180.473,103.667,102.749,0.00111329,0.0444526,21.0223,-242.12,0.0791959,0.0,0.0
294,73.25,14.3089,14.3409,175.84,103.565,102.659,0.00102479,0.0446313,21.0217,-242.09,0.0782861,0.0,0.0
301,75,14.2178,15.0022,173.108,103.467,102.185,0.000888753,0.0447841,21.0214,-242.12,0.110976,0.0,0.0
308,76.75,13.9278,14.5006,180.676,103.338,102.213,0.00078136,0.0447591,21.0213,-242.11,0.0974521,0.0,0.0
315,78.5,14.4937,15.2459,180.846,103.244,102.312,0.000737402,0.0445018,21.0212,-242.11,0.0806956,0.0,0.0
322,80.25,14.1956,14.9267,177.033,103.148,102.37,0.000809327,0.0444491,21.0212,-242.11,0.0673722,0.0,0.0
329,82,14.8214,14.8153,178.791,103.043,102.289,0.000941422,0.0444429,21.0212,-242.11,0.0653951,0.0,0.0
336,83.75,14.8288,14.8912,178.144,102.966,101.693,0.00106187,0.0446109,21.0212,-242.1,0.110723,0.0,0.0
343,85.5,14.5361,15.1498,174.454,102.887,102.107,0.00112234,0.0448651,21.0212,-242.14,0.0677408,0.0,0.0
350,87.25,14.4349,14.6679,178.828,102.842,101.773,0.00115451,0.0450456,21.0212,-242.13,0.0930089,0.0,0.0
357,89,14.3743,14.6103,176.679,102.781,102.059,0.00114642,0.0453154,21.0212,-242.11,0.0627127,0.0,0.0
364,90.75,14.4253,15.0101,179.326,102.723,101.596,0.0010389,0.0455748,21.0214,-242.12,0.0982865,0.0,0.0
371,92.5,14.589,14.8723,176.242,102.666,101.398,0.000862203,0.0458466,21.0215,-242.13,0.110642,0.0,0.0
378,94.25,14.2683,14.9963,182.594,102.649,101.525,0.000833369,0.0461345,21.0209,-242.11,0.0980525,0.0,0.0
385,96,14.71,14.777,180.664,102.622,101.617,0.000933612,0.0466588,21.0205,-242.15,0.0876357,0.0,0.0
392,97.75,14.0739,14.1592,182.489,102.598,101.719,0.00104266,0.0471336,21.0199,-242.1,0.0765629,0.0,0.0
399,99.5,14.5552,14.875,175.184,102.575,101.53,0.00112729,0.0474097,21.0208,-242.09,0.0911363,0.0,0.0
406,101.25,14.4143,14.8025,177.803,102.559,101.3,0.00109934,0.0474246,21.0213,-242.12,0.109972,0.0,0.0
413,103,14.9719,14.8821,176.897,102.547,101.272,0.000951395,0.0473311,21.0215,-242.14,0.111307,0.0,0.0
420,104.75,14.7379,15.1338,176.651,102.549,101.529,0.000846866,0.0472027,21.0216,-242.14,0.0889638,0.0,0.0
427,106.5,14.4869,14.8844,174.794,102.541,101.096,0.000861213,0.0468097,21.0216,-242.15,0.126361,0.0,0.0
434,108.25,14.8812,15.0974,178.267,102.54,101.2,0.000837003,0.0464444,21.0221,-242.14,0.117082,0.0,0.0
441,110,14.8392,15.0357,177.43,102.536,101.762,0.000673862,0.0462517,21.0231,-242.15,0.0674386,0.0,0.0
448,111.75,14.7878,15.0284,179.869,102.542,101.295,0.000486384,0.0462058,21.0211,-242.18,0.108945,0.0,0.0
455,113.5,14.4434,15.0191,173.862,102.55,101.454,0.00030836,0.0463852,21.0205,-242.15,0.0957137,0.0,0.0
462,115.25,15.1142,15.4095,176.365,102.542,101.034,0.000188631,0.0467853,21.0207,-242.19,0.131907,0.0,0.0
469,117,14.9406,14.9543,174.603,102.55,100.902,0.000258453,0.0476667,21.0175,-242.21,0.144256,0.0,0.0
476,118.75,14.7855,14.9819,173.412,102.559,100.553,0.000477243,0.0558761,20.9971,-242.26,0.175817,0.0,1.0
483,120.5,14.9017,15.6172,164.444,102.552,99.0088,0.000892148,0.0813416,20.9534,-242.3,0.312976,0.0,1.0
490,122.25,15.5406,15.6365,166.212,102.549,97.0078,0.00144326,0.127592,20.8719,-242.43,0.494471,0.0,1.0
497,124,15.819,16.0137,153.886,102.556,96.6177,0.00210769,0.192848,20.77,-242.57,0.530959,0.0,1.0
504,125.75,17.4867,17.7465,154.678,102.55,95.4312,0.0027316,0.263942,20.6633,-242.76,0.640415,0.0,1.0
511,127.5,18.8818,18.5434,147.659,102.548,97.4991,0.00326868,0.33846,20.5622,-242.93,0.449431,0.0,1.0
518,129.25,20.1085,19.9237,149.492,102.545,97.8686,0.00370163,0.409313,20.4596,-243.131,0.415465,0.0,1.0
525,131,22.576,22.7605,147.651,102.542,97.7355,0.0040672,0.479907,20.3634,-243.351,0.427326,0.0,0.0
532,132.75,24.3626,24.728,136.454,102.546,97.4794,0.00433289,0.538536,20.292,-243.641,0.45105,0.0,0.0
539,134.5,26.7419,27.001,144.915,102.54,97.6738,0.00456105,0.58362,20.2415,-243.811,0.432769,0.0,0.0
546,136.25,28.9946,29.7596,137.572,102.545,97.9466,0.00480075,0.620415,20.2055,-244.071,0.408379,0.0,0.0
553,138,31.3283,31.5413,139.366,102.539,97.2302,0.00498089,0.650586,20.1716,-244.342,0.473249,0.0,0.0
560,139.75,33.2617,34.3153,140.86,102.545,97.2162,0.00519422,0.676344,20.1424,-244.592,0.475003,0.0,0.0
567,141.5,35.2202,36.0778,141.178,102.55,97.077,0.00537984,0.697574,20.119,-244.792,0.48827,0.0,0.0
574,143.25,37.4349,38.3027,143.151,102.547,97.5932,0.00555882,0.713859,20.097,-245.082,0.440767,0.0,0.0
581,145,38.9014,40.9792,135.471,102.563,96.6764,0.00570885,0.725945,20.0832,-245.363,0.526208,0.0,0.0
588,146.75,40.5996,42.9478,137.594,102.563,97.2894,0.00581952,0.737295,20.0697,-245.583,0.469907,0.0,0.0
595,148.5,42.3701,45.0842,141.037,102.575,97.2872,0.00592817,0.74545,20.0605,-245.883,0.471123,0.0,0.0
602,150.25,44.3214,46.5872,139.433,102.596,97.3261,0.006008,0.752131,20.0533,-246.103,0.469445,0.0,0.0
609,152,45.9567,48.7656,135.633,102.626,97.0258,0.00605946,0.756628,20.05,-246.333,0.499498,0.0,0.0
616,153.75,47.4202,50.464,143.111,102.625,96.9973,0.00612107,0.759612,20.0471,-246.614,0.502074,0.0,0.0
623,155.5,48.734,51.8712,145.727,102.685,97.4036,0.00619939,0.762112,20.0441,-246.874,0.470046,0.0,0.0
630,157.25,50.2619,53.2738,133.201,102.704,96.8555,0.00625633,0.76581,20.0386,-247.154,0.521917,0.0,0.0
637,159,52.0453,55.1985,145.255,102.758,96.2972,0.0063509,0.77198,20.0301,-247.424,0.578083,0.0,0.0
644,160.75,52.7014,57.065,142.964,102.792,96.7018,0.00644939,0.778551,20.0223,-247.675,0.543731,0.0,0.0
651,162.5,54.3173,58.4923,135.473,102.845,97.7141,0.00645005,0.783583,20.015,-247.955,0.455589,0.0,0.0
658,164.25,55.624,59.6396,136.718,102.918,97.5302,0.00631357,0.787977,20.0104,-248.145,0.478688,0.0,0.0
665,166,56.8656,61.4591,141.231,102.981,97.2105,0.00624378,0.790176,20.0069,-248.465,0.513331,0.0,0.0
672,167.75,58.2178,63.0044,135.73,103.051,97.3134,0.0063055,0.790902,20.0036,-248.726,0.509947,0.0,0.0
679,169.5,58.7835,64.193,140.871,103.116,96.7342,0.00635706,0.794812,20,-248.956,0.568727,0.0,0.0
686,171.25,60.4702,65.5249,143.764,103.189,97.7154,0.00635772,0.79736,19.9972,-249.246,0.485164,0.0,0.0
693,173,61.9413,67.0616,138.392,103.252,96.7985,0.00632852,0.79928,19.9969,-249.556,0.574527,0.0,0.0
700,174.75,62.9719,67.7404,143.84,103.324,96.6567,0.00631174,0.799518,19.9973,-249.797,0.593779,0.0,0.0
707,176.5,63.94,69.171,140.893,103.395,97.0442,0.00627938,0.798904,19.9975,-250.067,0.56432,0.0,0.0
714,178.25,64.7656,70.059,133.778,103.478,97.6002,0.00620431,0.798899,19.9979,-250.287,0.520618,0.0,0.0
721,180,65.1743,70.9205,144.644,103.553,98.2666,0.00610584,0.800102,19.999,-250.587,0.466443,0.0,0.0
728,181.75,66.2089,72.4661,142.811,103.613,97.5954,0.00607874,0.798668,19.9993,-250.848,0.532666,0.0,0.0
735,183.5,67.155,73.2269,134.462,103.675,97.9864,0.00617055,0.797091,19.9995,-251.098,0.502315,0.0,0.0
742,185.25,67.8192,74.0227,134.755,103.727,97.4947,0.00627166,0.799273,19.9964,-251.408,0.55162,0.0,0.0
749,187,68.9146,75.3216,134.588,103.799,97.5157,0.00636082,0.804195,19.9891,-251.638,0.555834,0.0,0.0
756,188.75,69.7008,75.697,136.469,103.848,97.144,0.00647639,0.809596,19.9809,-251.909,0.594025,0.0,0.0
763,190.5,70.1507,77.1734,136.153,103.886,98.0731,0.00658326,0.81379,19.9763,-252.159,0.512552,0.0,0.0
770,192.25,70.5923,77.9539,129.394,103.917,98.5267,0.00655389,0.815616,19.974,-252.489,0.474196,0.0,0.0
777,194,71.3242,78.5217,132.656,103.932,98.4378,0.00636326,0.816426,19.9739,-252.759,0.483519,0.0,0.0
784,195.75,71.5537,78.6253,135.742,103.931,97.3042,0.0061789,0.815632,19.9737,-253.04,0.586482,0.0,0.0
791,197.5,72.9142,80.1871,136.363,103.907,96.4868,0.00609139,0.816028,19.9718,-253.3,0.659542,0.0,0.0
798,199.25,73.1643,79.9814,133.965,103.863,98.1178,0.00616647,0.818937,19.966,-253.53,0.506565,0.0,0.0
805,201,73.944,81.3482,138.213,103.824,97.2167,0.00632315,0.82436,19.9583,-253.79,0.585326,0.0,0.0
812,202.75,74.0928,81.684,138.988,103.76,97.7075,0.00643362,0.828697,19.953,-254.111,0.53501,0.0,0.0
819,204.5,75.1643,83.3285,137.034,103.708,97.4728,0.00645777,0.834493,19.9483,-254.411,0.551932,0.0,0.0
826,206.25,75.9599,83.943,139.152,103.638,97.8931,0.00643164,0.837885,19.9446,-254.711,0.507669,0.0,0.0
833,208,76.5633,84.6646,139.208,103.564,96.9106,0.00648876,0.838521,19.9428,-254.971,0.591072,0.0,0.0
840,209.75,77.0027,85.3528,134.336,103.51,96.4378,0.00662083,0.8388,19.9419,-255.242,0.630014,0.0,0.0
847,211.5,77.8861,86.4933,137.694,103.471,98.2942,0.00679766,0.839439,19.9439,-255.502,0.456862,0.0,0.0
854,213.25,77.7534,86.2164,141.772,103.449,97.0437,0.00684467,0.837989,19.9449,-255.772,0.569002,0.0,0.0
861,215,78.622,87.4025,134.706,103.702,97.3651,0.00676574,0.837765,19.9438,-256.032,0.561308,0.0,0.0
868,216.75,79.0735,87.4521,123.65,103.942,97.8721,0.0066713,0.839868,19.9424,-256.333,0.535683,0.0,0.0
875,218.5,80.0021,88.6576,132.224,104.136,98.3594,0.00664553,0.840362,19.9408,-256.633,0.508066,0.0,0.0
882,220.25,80.0302,89.0445,138.105,104.266,97.6182,0.0066547,0.84182,19.9358,-256.873,0.586443,0.0,0.0
889,222,80.6104,89.4202,136.177,104.339,98.6541,0.00671216,0.848586,19.9278,-257.143,0.498752,0.0,0.0
896,223.75,80.926,90.0146,139.632,104.343,98.3494,0.00683686,0.854243,19.924,-257.414,0.526578,0.0,0.0
903,225.5,81.4782,90.5447,142.582,104.303,97.5249,0.00695998,0.85502,19.9221,-257.724,0.598163,0.0,0.0
910,227.25,82.3466,91.3535,142.101,104.179,96.9356,0.00701229,0.855793,19.9219,-257.984,0.641517,0.0,0.0
917,229,82.8939,91.9436,130.329,103.989,98.5981,0.00697796,0.858037,19.9181,-258.254,0.473908,0.0,0.0
924,230.75,82.7336,91.9861,131.611,103.787,97.331,0.00696096,0.863018,19.9094,-258.535,0.571748,0.0,0.0
931,232.5,83.2401,92.5544,134.655,103.886,98.271,0.00706796,0.867183,19.9039,-258.785,0.494643,0.0,0.0
938,234.25,83.3436,92.5479,141.864,103.988,97.9142,0.0072409,0.871587,19.8963,-259.125,0.535762,0.0,0.0
945,236,84.8548,94.2092,136.122,104.119,97.3222,0.00739468,0.877887,19.8862,-259.415,0.600939,0.0,0.0
952,237.75,85.1472,94.2845,139.659,104.258,97.5748,0.00749273,0.883867,19.8803,-259.716,0.589718,0.0,0.0
959,239.5,85.3638,95.1119,127.248,104.382,97.8761,0.00750212,0.889252,19.8745,-260.016,0.572873,0.0,0.0
966,241.25,85.4654,95.0715,128.738,104.499,98.5171,0.00744014,0.890941,19.8684,-260.286,0.524777,0.0,0.0
973,243,86.6409,96.0131,125.588,104.574,98.2692,0.00737601,0.89432,19.8644,-260.586,0.553534,0.0,0.0
980,244.75,86.0644,96.716,129.643,104.621,97.2898,0.00728011,0.89675,19.8617,-260.847,0.646726,0.0,0.0
987,246.5,87.1567,97.0293,135.745,104.622,98.5407,0.00716799,0.900718,19.8568,-261.187,0.533105,0.0,0.0
994,248.25,87.704,97.6377,134.124,104.575,98.4028,0.00701067,0.905918,19.8521,-261.447,0.541516,0.0,0.0
1001,250,87.8432,97.8793,136.325,104.463,98.345,0.00679613,0.90774,19.8485,-261.737,0.537275,0.0,0.0
1008,251.75,88.8097,97.7635,133.579,104.345,98.8945,0.00666357,0.911077,19.8462,-262.048,0.477588,0.0,0.0
1015,253.5,87.8969,98.7777,135.679,104.163,98.6839,0.00680677,0.913962,19.8445,-262.388,0.481038,0.0,0.0
1022,255.25,89.8367,99.0202,132.188,103.945,97.8117,0.0070873,0.913781,19.8395,-262.638,0.541395,0.0,0.0
1029,257,89.5672,99.6298,138.008,103.715,97.7163,0.00729859,0.916812,19.8351,-262.899,0.530373,0.0,0.0
1036,258.75,89.4412,100.28,126.916,103.454,97.5113,0.0073456,0.919663,19.8314,-263.239,0.526642,0.0,0.0
1043,260.5,90.817,100.711,131.63,103.2,96.7381,0.00728016,0.921984,19.8289,-263.539,0.575651,0.0,0.0
1050,262.25,90.9703,101.243,127.245,102.991,96.6545,0.00727748,0.924566,19.826,-263.819,0.56523,0.0,0.0
1057,264,91.3297,101.609,134.6,102.803,96.8616,0.00737568,0.926147,19.8233,-264.11,0.529974,0.0,0.0
1064,265.75,91.4314,101.218,129.779,102.671,96.852,0.00748603,0.929072,19.8178,-264.4,0.519376,0.0,0.0
1071,267.5,91.8117,102.452,133.846,102.588,96.7946,0.00759497,0.933863,19.8125,-264.72,0.517507,0.0,0.0
1078,269.25,93.4955,102.71,126.554,102.574,97.7386,0.00768869,0.936382,19.8102,-265,0.429877,0.0,0.0
1085,271,93.1415,102.835,134.932,102.634,95.8616,0.0077248,0.937318,19.8086,-265.341,0.607648,0.0,0.0
1092,272.75,93.4324,103.976,131.517,102.737,98.3402,0.00770606,0.93824,19.8063,-265.581,0.38939,0.0,0.0
1099,274.5,92.7975,103.44,128.382,102.874,96.6689,0.00763295,0.940672,19.804,-265.901,0.553848,0.0,0.0
1106,276.25,93.8146,103.796,127.175,103.044,96.5722,0.00757847,0.946031,19.7939,-266.222,0.577401,0.0,0.0
1113,278,93.8584,104.647,127.867,103.227,97.6318,0.00755631,0.95293,19.7864,-266.562,0.496103,0.0,0.0
1120,279.75,94.6853,106.027,133.034,103.426,97.5017,0.0075845,0.956925,19.7827,-266.832,0.525112,0.0,0.0
1127,281.5,96.1735,105.566,133.015,103.628,98.1764,0.00771452,0.958498,19.782,-267.142,0.481084,0.0,0.0
1134,283.25,95.6604,106.891,128.94,103.768,97.1891,0.00773368,0.959284,19.7817,-267.483,0.583048,0.0,0.0
1141,285,95.8507,106.982,136.136,103.867,97.2517,0.00760453,0.959224,19.7816,-267.743,0.58581,0.0,0.0
1148,286.75,96.1206,107.017,132.034,103.921,98.1186,0.00747572,0.960206,19.7785,-268.003,0.511464,0.0,0.0
1155,288.5,96.3952,107.946,128.374,103.927,97.7828,0.00744121,0.963687,19.7735,-268.363,0.54245,0.0,0.0
1162,290.25,95.314,108.012,137.673,103.865,97.711,0.00752894,0.968226,19.7652,-268.684,0.543688,0.0,0.0
1169,292,96.8324,108.56,131.285,103.754,98.6642,0.00766614,0.975427,19.7553,-268.984,0.447805,0.0,0.0
1176,293.75,97.5627,108.466,130.881,103.668,96.7736,0.00777023,0.980812,19.7477,-269.304,0.612612,0.0,0.0
1183,295.5,98.0098,109.787,130.179,103.563,97.7758,0.00781716,0.98654,19.7412,-269.685,0.511916,0.0,0.0
1190,297.25,98.4097,109.666,133.502,103.45,97.9483,0.00784273,0.991903,19.7378,-269.955,0.486517,0.0,0.0
1197,299,98.712,110.323,130.333,103.393,97.0249,0.00787557,0.993259,19.7363,-270.185,0.565908,0.0,0.0
1204,300.75,99.1819,109.869,128.438,103.647,95.9334,0.00785907,0.994126,19.735,-270.575,0.688408,0.0,0.0
1211,302.5,99.0689,110.788,129.328,103.958,99.1922,0.00777834,0.998016,19.7289,-270.906,0.417741,0.0,0.0
1218,304.25,98.9817,110.521,120.708,104.168,97.9019,0.00773957,1.00214,19.7237,-271.236,0.552251,0.0,0.0
1225,306,100.282,111.454,131.866,104.299,97.584,0.00772211,1.00403,19.7214,-271.496,0.592449,0.0,0.0
1232,307.75,100.372,112.254,128.732,104.303,98.5482,0.00771609,1.00433,19.7219,-271.847,0.505215,0.0,0.0
1239,309.5,99.796,112.554,126.713,104.187,98.9308,0.00773662,1.00323,19.7228,-272.117,0.460862,0.0,0.0
1246,311.25,101.585,113.033,131.469,103.955,98.3949,0.0077617,1.0021,19.7232,-272.517,0.48937,0.0,0.0
1253,313,100.733,112.353,131.616,103.802,97.7009,0.00775931,1.00389,19.7186,-272.788,0.539266,0.0,0.0
1260,314.75,101.654,113.385,129.025,103.961,97.6278,0.00775503,1.0078,19.7133,-273.128,0.559543,0.0,0.0
1267,316.5,101.958,113.706,128.893,104.128,99.1344,0.00776571,1.01287,19.7071,-273.468,0.437451,0.0,0.0
1274,318.25,102.188,113.925,131.769,104.318,98.5114,0.00778019,1.0159,19.7037,-273.758,0.509858,0.0,0.0
1281,320,102.235,114.429,134.45,104.489,97.3879,0.00782654,1.01684,19.7028,-274.079,0.626544,0.0,0.0
1288,321.75,102.552,114.638,129.198,104.606,98.0354,0.00788817,1.01889,19.7004,-274.409,0.577444,0.0,0.0
1295,323.5,102.793,114.994,124.499,104.62,98.5806,0.00793699,1.02365,19.6941,-274.719,0.529328,0.0,0.0
1302,325.25,103.509,116.378,131.278,104.557,98.8857,0.00798689,1.03038,19.6833,-275.01,0.496404,0.0,0.0
1309,327,103.771,115.638,124.174,104.417,98.176,0.00806877,1.03564,19.6752,-275.34,0.548631,0.0,0.0
1316,328.75,103.802,115.083,124.536,104.213,99.2912,0.0082159,1.03941,19.6695,-275.68,0.430711,0.0,0.0
1323,330.5,104.808,116.393,126.262,103.934,98.0254,0.00836455,1.04426,19.6642,-276.04,0.521003,0.0,0.0
1330,332.25,104.316,116.449,122.01,103.612,97.7114,0.00845869,1.0505,19.6552,-276.301,0.521945,0.0,0.0
1337,334,105.602,117.598,125.64,103.285,97.3682,0.00842344,1.05705,19.6467,-276.671,0.525142,0.0,0.0
1344,335.75,105.946,118.112,131.221,102.995,97.0253,0.00836625,1.06208,19.6422,-276.971,0.5315,0.0,0.0
1351,337.5,106.327,118.393,129.312,102.766,97.1834,0.00835132,1.0637,19.64,-277.342,0.497188,0.0,0.0
1358,339.25,107.131,118.806,129.68,102.63,96.2911,0.00834539,1.06529,19.6361,-277.652,0.567525,0.0,0.0
1365,341,106.873,119.17,125.614,102.617,97.2254,0.00835339,1.06789,19.6332,-277.962,0.480438,0.0,0.0
1372,342.75,107.747,119.627,124.604,102.694,97.6269,0.00834057,1.07008,19.6307,-278.333,0.450458,0.0,0.0
1379,344.5,107.794,120.01,125.916,102.854,97.9032,0.00831059,1.07178,19.6291,-278.633,0.439134,0.0,0.0
1386,346.25,108.095,120.217,123.841,103.068,96.7456,0.00833092,1.07505,19.6234,-278.963,0.563492,0.0,0.0
1393,348,107.917,120.811,122.751,103.302,95.8869,0.00838013,1.0833,19.6094,-279.323,0.663045,0.0,0.0
1400,349.75,108.868,120.949,129.892,103.543,97.5875,0.00844405,1.09211,19.5985,-279.644,0.527349,0.0,0.0
1407,351.5,110.346,120.857,124.908,103.745,97.9855,0.00853647,1.09889,19.5902,-279.984,0.50846,0.0,0.0
1414,353.25,109.618,122.249,121.361,103.885,97.3708,0.00858516,1.10576,19.5821,-280.354,0.576456,0.0,0.0
1421,355,110.194,122.518,126.092,103.937,96.6983,0.00857844,1.10936,19.5782,-280.705,0.642666,0.0,0.0
1428,356.75,110.255,123.737,126.415,103.916,98.9265,0.00855407,1.10971,19.5764,-281.045,0.438008,0.0,0.0
1435,358.5,110.943,123.38,132.685,103.805,96.8484,0.00852809,1.10922,19.5746,-281.405,0.617459,0.0,0.0
1442,360.25,111.506,123.285,126.205,103.669,97.7478,0.00854631,1.11099,19.5713,-281.716,0.523554,0.0,0.0
1449,362,111.378,124.145,129.889,103.535,97.6339,0.00855978,1.11539,19.5651,-282.106,0.522432,0.0,0.0
1456,363.75,111.813,124.481,124.132,103.419,97.151,0.00844549,1.12044,19.5595,-282.436,0.556577,0.0,0.0
1463,365.5,111.805,124.654,128.4,103.355,95.8966,0.00831328,1.12429,19.5558,-282.757,0.666725,0.0,0.0
1470,367.25,112.012,124.734,120.392,103.772,96.8804,0.00828621,1.12774,19.5514,-283.087,0.611725,0.0,0.0
1477,369,113.633,124.302,125.721,104.083,98.3122,0.00843743,1.13265,19.5441,-283.407,0.507772,0.0,0.0
1484,370.75,113.521,126.278,115.506,104.235,98.5315,0.0086428,1.13783,19.5406,-283.787,0.5009,0.0,0.0
1491,372.5,113.993,126.88,126.212,104.269,98.4615,0.00894233,1.13782,19.5377,-284.168,0.510123,0.0,0.0
1498,374.25,113.784,127.17,119.11,104.141,98.4632,0.00931726,1.13864,19.5363,-284.488,0.499072,0.0,0.0
1505,376,114.643,127.476,124.335,103.893,96.5345,0.00955415,1.14419,19.5253,-284.838,0.653959,0.0,0.0
1512,377.75,115.382,127.49,122.846,103.798,97.6628,0.00952683,1.15064,19.5183,-285.199,0.542379,0.0,0.0
1519,379.5,115.011,128.123,117.777,103.98,97.4868,0.00938161,1.15546,19.5142,-285.559,0.574018,0.0,0.0
1526,381.25,115.689,128.639,128.039,104.164,97.3555,0.00923342,1.15957,19.5119,-285.919,0.60172,0.0,0.0
1533,383,115.921,129.294,128.357,104.361,96.9851,0.00912446,1.16005,19.5107,-286.27,0.652466,0.0,0.0
1540,384.75,114.965,129.997,126.826,104.483,97.3042,0.00909955,1.16023,19.5102,-286.61,0.633622,0.0,0.0
1547,386.5,115.973,129.698,130.801,104.586,98.8787,0.009161,1.16452,19.5012,-286.98,0.499562,0.0,0.0
1554,388.25,116.924,130.165,126.244,104.597,97.8415,0.00925479,1.16934,19.4934,-287.291,0.594326,0.0,0.0
1561,390,117.137,130.382,128.735,104.517,99.3284,0.00940315,1.17647,19.4845,-287.741,0.453298,0.0,0.0
1568,391.75,117.493,131.131,125.772,104.345,98.4474,0.00952695,1.18065,19.4801,-288.031,0.517884,0.0,0.0
1575,393.5,117.581,131.135,120.861,104.102,95.2201,0.00958314,1.18318,19.477,-288.432,0.793854,0.0,0.0
1582,395.25,117.979,131.01,115.356,103.815,98.1064,0.00954588,1.18749,19.4701,-288.742,0.503512,0.0,0.0
1589,397,118.55,132.326,116.757,103.51,96.7342,0.00948602,1.19163,19.4662,-289.122,0.602694,0.0,0.0
1596,398.75,118.891,132.698,120.049,103.18,97.6304,0.00949254,1.19429,19.4641,-289.463,0.492148,0.0,0.0
1603,400.5,120.309,131.899,127.789,102.912,97.0823,0.00953354,1.19394,19.4621,-289.823,0.519086,0.0,0.0
1610,402.25,119.555,133.363,121.745,102.712,96.5091,0.00953592,1.19546,19.4575,-290.173,0.554493,0.0,0.0
1617,404,119.347,132.815,121.57,102.63,95.8904,0.00947207,1.20044,19.4511,-290.574,0.604639,0.0,0.0
1624,405.75,120.555,133.703,120.449,102.646,96.3695,0.00935786,1.20528,19.4458,-290.914,0.561696,0.0,0.0
1631,407.5,119.97,133.887,130.767,102.757,95.6387,0.00930085,1.20915,19.4406,-291.264,0.639058,0.0,0.0
1638,409.25,120.847,134.673,114.938,102.929,96.4588,0.00932185,1.21343,19.4353,-291.625,0.57796,0.0,0.0
1645,411,120.963,134.21,118.456,103.154,96.8147,0.00940918,1.21766,19.4292,-291.985,0.564636,0.0,0.0
1652,412.75,121.739,135.797,118.685,103.389,96.1698,0.00952122,1.22352,19.4261,-292.365,0.64435,0.0,0.0
1659,414.5,122.066,135.875,127.931,103.617,96.6729,0.00959074,1.22495,19.4232,-292.746,0.617501,0.0,0.0
1666,416.25,122.34,136.595,114.7,103.779,96.6116,0.00963005,1.225,19.4157,-293.096,0.637034,0.0,0.0
1673,418,121.993,135.732,119.443,103.904,96.3598,0.00966898,1.23512,19.3974,-293.496,0.671014,0.0,0.0
1680,419.75,122.779,136.902,122.076,103.949,96.9207,0.00972642,1.24912,19.3849,-293.857,0.623216,0.0,0.0
1687,421.5,122.666,137.695,117.627,103.924,97.5893,0.00978834,1.25493,19.3808,-294.277,0.559835,0.0,0.0
1694,423.25,123.682,137.565,116.841,103.833,97.4772,0.00978659,1.25718,19.3794,-294.597,0.562326,0.0,0.0
1701,425,124.44,138.344,119.694,103.687,97.8235,0.00971313,1.25903,19.3765,-294.988,0.518202,0.0,0.0
1708,426.75,124.927,138.614,118.024,103.542,96.9391,0.00963857,1.26094,19.3743,-295.328,0.586553,0.0,0.0
1715,428.5,125.217,138.596,124.905,103.427,96.8835,0.00964651,1.26285,19.3737,-295.718,0.581844,0.0,0.0
1722,430.25,125.41,139.824,128.251,103.323,98.4728,0.00965292,1.26141,19.3771,-296.119,0.427993,0.0,0.0
1729,432,125.884,139.962,112.653,103.592,95.2582,0.0096502,1.2588,19.3804,-296.469,0.74661,0.0,0.0
1736,433.75,125.435,141.307,124.244,103.948,95.9452,0.00970978,1.25594,19.382,-296.829,0.713162,0.0,0.0
1743,435.5,126.119,140.5,111.139,104.164,96.7486,0.00986469,1.26027,19.3776,-297.29,0.657417,0.0,0.0
1750,437.25,125.872,141.045,122.622,104.244,96.8327,0.010029,1.27124,19.3595,-297.59,0.656543,0.0,0.0
1757,439,127.099,141.729,125.339,104.184,94.2021,0.0102348,1.28672,19.3323,-297.98,0.896576,0.0,0.0
1764,440.75,127.624,142.16,120.462,103.996,96.4141,0.0104819,1.30746,19.306,-298.361,0.673911,0.0,0.0
1771,442.5,127.315,141.862,113.31,103.734,96.5078,0.0105617,1.3242,19.2897,-298.751,0.642763,0.0,0.0
1778,444.25,128.59,143.281,120.719,103.871,96.5341,0.0104699,1.32744,19.282,-299.121,0.652064,0.0,0.0
1785,446,129.288,141.445,118.288,104.074,97.0963,0.0103338,1.32849,19.282,-299.542,0.617767,0.0,0.0
1792,447.75,129.066,143.623,118.767,104.258,98.4728,0.0101576,1.33081,19.2864,-299.902,0.508166,0.0,0.0
1799,449.5,129.678,144.516,125.519,104.43,98.958,0.0100161,1.32518,19.2929,-300.272,0.479147,0.0,0.0
1806,451.25,130.197,143.762,119.917,104.553,97.3726,0.0100193,1.31789,19.2984,-300.683,0.633357,0.0,0.0
1813,453,130.08,145.117,120.77,104.586,97.8721,0.0101451,1.31999,19.2914,-301.043,0.59065,0.0,0.0
1820,454.75,130.41,144.97,110.555,104.52,96.8428,0.0102409,1.33033,19.2759,-301.524,0.679111,0.0,0.0
1827,456.5,131.262,145.883,119.986,104.389,97.0065,0.0102408,1.34041,19.2648,-301.884,0.652884,0.0,0.0
1834,458.25,131.752,145.957,114.774,104.164,95.8309,0.0102312,1.3476,19.258,-302.254,0.742224,0.0,0.0
1841,460,131.931,147.155,114.619,103.892,96.3791,0.0102984,1.35408,19.2497,-302.655,0.668231,0.0,0.0
1848,461.75,132.682,147.759,115.412,103.582,95.6571,0.0104729,1.35687,19.2457,-303.045,0.708515,0.0,0.0
1855,463.5,131.29,147.482,115.556,103.342,96.7175,0.0105681,1.3539,19.245,-303.405,0.589761,0.0,0.0
1862,465.25,131.789,147.929,118.22,103.2,96.0975,0.0105724,1.35435,19.239,-303.776,0.634792,0.0,0.0
1869,467,132.643,148.313,124.939,102.996,96.8638,0.0105887,1.36692,19.2224,-304.256,0.546408,0.0,0.0
1876,468.75,133.934,149.343,112.465,102.83,95.0161,0.0106911,1.38127,19.2072,-304.616,0.703499,0.0,0.0
1883,470.5,134.438,150.193,117.208,102.726,96.7574,0.0108587,1.39154,19.1969,-305.017,0.53282,0.0,0.0
1890,472.25,135.239,150.126,113.701,102.713,93.8216,0.0110211,1.40165,19.1795,-305.447,0.805974,0.0,0.0
1897,474,135.704,150.93,120.194,102.693,94.9268,0.0110684,1.41084,19.1725,-305.857,0.699993,0.0,0.0
1904,475.75,135.886,151.252,112.462,102.704,95.3672,0.0111043,1.41469,19.1698,-306.238,0.659797,0.0,0.0
1911,477.5,136.011,152.147,112.572,102.761,96.0187,0.0111289,1.41141,19.1745,-306.658,0.60408,0.0,0.0
1918,479.25,136.054,151.651,113.944,102.836,95.3418,0.011036,1.40754,19.1802,-307.019,0.673575,0.0,0.0
1925,481,136.949,152.658,115.558,102.967,94.52,0.0108608,1.40521,19.1847,-307.529,0.761996,0.0,0.0
1932,482.75,137.069,153.044,118.153,103.107,95.9487,0.0108214,1.40328,19.1847,-307.889,0.640512,0.0,0.0
1939,484.5,137.373,153.318,124.757,103.236,94.7542,0.0109047,1.40961,19.1742,-308.24,0.763206,0.0,0.0
1946,486.25,138.057,153.465,112.701,103.367,95.6181,0.0109585,1.42362,19.1538,-308.72,0.693656,0.0,0.0
1953,488,136.942,153.867,119.585,103.499,93.5734,0.0110052,1.43583,19.141,-309.1,0.897415,0.0,0.0
1960,489.75,138.268,154.419,115.231,103.624,94.9789,0.011094,1.44181,19.135,-309.501,0.775519,0.0,0.0
1967,491.5,138.88,154.886,119.739,103.731,95.4798,0.0111713,1.44517,19.1323,-309.881,0.737813,0.0,0.0
1974,493.25,139.575,155.378,111.359,103.835,95.341,0.0112002,1.44651,19.1302,-310.352,0.759692,0.0,0.0
1981,495,139.811,155.175,116.46,103.902,95.0555,0.0111905,1.44911,19.1254,-310.722,0.792155,0.0,0.0
1988,496.75,140.562,156.427,120.687,103.966,95.6391,0.0111927,1.45339,19.1221,-311.202,0.743178,0.0,0.0
1995,498.5,140.46,156.479,115.209,104.014,96.6217,0.0112713,1.45495,19.1145,-311.603,0.656308,0.0,0.0
2002,500.25,140.712,156.99,116.725,104.039,95.8204,0.0113684,1.46192,19.1025,-311.993,0.732512,0.0,0.0
2009,502,141.807,156.818,113.958,104.037,94.6382,0.0114203,1.47246,19.0931,-312.423,0.842914,0.0,0.0
2016,503.75,141.982,157.715,112.276,104.038,96.6177,0.0114339,1.48281,19.0836,-312.794,0.658675,0.0,0.0
2023,505.5,142.334,158.261,122.459,104.01,96.369,0.0114279,1.48765,19.0834,-313.174,0.679221,0.0,0.0
2030,507.25,142.569,158.643,114.131,103.981,96.0993,0.0113329,1.47123,19.1048,-313.605,0.701737,0.0,0.0
2037,509,142.876,159.692,115.151,103.928,95.7315,0.0111766,1.45789,19.1168,-314.055,0.731326,0.0,0.0
2044,510.75,142.953,158.868,115.219,103.869,96.8734,0.0110455,1.44926,19.1225,-314.395,0.620684,0.0,0.0
2051,512.5,142.569,158.493,111.646,103.815,95.1413,0.0109908,1.45511,19.1106,-314.866,0.776634,0.0,0.0
2058,514.25,143.674,159.935,116.929,103.736,95.7096,0.0110609,1.46565,19.0982,-315.236,0.716874,0.0,0.0
2065,516,143.412,159.852,115.151,103.661,95.7928,0.0111895,1.47355,19.0895,-315.676,0.702716,0.0,0.0
2072,517.75,144.702,160.568,110.179,103.617,95.9767,0.0113477,1.4822,19.0779,-316.097,0.681837,0.0,0.0
2079,519.5,144.612,160.877,118.875,103.585,96.5695,0.0114509,1.49225,19.0642,-316.567,0.62429,0.0,0.0
2086,521.25,144.541,161.534,110.538,103.544,95.154,0.011469,1.50119,19.0538,-316.938,0.752186,0.0,0.0
2093,523,145.311,162.23,108.192,103.499,96.017,0.0114386,1.50902,19.0442,-317.368,0.667968,0.0,0.0
2100,524.75,145.671,162.354,123.961,103.471,95.4456,0.0114136,1.51657,19.0365,-317.808,0.718655,0.0,0.0
2107,526.5,146.296,163.049,115.826,103.46,95.0139,0.0114111,1.51852,19.0328,-318.209,0.758112,0.0,0.0
2114,528.25,146.413,163.452,111.424,103.436,94.9859,0.0114623,1.51807,19.0307,-318.669,0.758688,0.0,0.0
2121,530,147.664,162.747,108.099,103.5,95.0222,0.0115607,1.52192,19.0266,-319.059,0.760786,0.0,0.0
2128,531.75,146.471,163.98,115.391,103.601,95.3366,0.0117076,1.52943,19.017,-319.5,0.740044,0.0,0.0
2135,533.5,147.124,164.298,112.71,103.722,95.2534,0.0118513,1.53763,19.0064,-319.94,0.75819,0.0,0.0
2142,535.25,148.379,164.75,113.96,103.823,94.1951,0.0120073,1.54659,18.9928,-320.321,0.866358,0.0,0.0
2149,537,148.51,165.218,104.711,103.921,94.6592,0.0121157,1.55481,18.9842,-320.801,0.830952,0.0,0.0
2156,538.75,147.741,166.145,117.601,103.996,95.7302,0.0121592,1.55947,18.98,-321.241,0.737281,0.0,0.0
2163,540.5,149.214,166.328,109.621,104.055,95.1199,0.0122078,1.56304,18.978,-321.612,0.799193,0.0,0.0
2170,542.25,149.642,166.404,110.053,104.114,96.144,0.0122372,1.56235,18.9795,-322.072,0.708938,0.0,0.0
2177,544,149.204,166.145,117.421,104.151,95.4272,0.0122023,1.56109,18.9802,-322.463,0.778696,0.0,0.0
2184,545.75,150.336,167.399,109.847,104.186,95.4763,0.0121603,1.56422,18.9719,-322.993,0.777159,0.0,0.0
2191,547.5,150.546,167.579,106.391,104.223,95.2162,0.0122752,1.57773,18.9491,-323.363,0.804548,0.0,0.0
2198,549.25,151.13,168.467,105.942,104.257,94.8808,0.0125154,1.59789,18.9216,-323.824,0.838923,0.0,0.0
2205,551,151.932,169.245,106.879,104.282,95.3506,0.0129408,1.61667,18.8958,-324.314,0.797094,0.0,0.0
2212,552.75,151.998,169.263,112.774,104.302,92.8282,0.0134888,1.63611,18.8755,-324.735,1.03743,0.0,0.0
2219,554.5,152.638,170.241,107.265,104.317,94.2048,0.013874,1.65163,18.8477,-325.245,0.907644,0.0,0.0
2226,556.25,152.729,170.587,116.63,104.325,94.9675,0.0140526,1.67485,18.8175,-325.635,0.836538,0.0,0.0
2233,558,153.871,171.202,116.08,104.335,95.0082,0.0140785,1.68998,18.803,-326.146,0.833613,0.0,0.0
2240,559.75,154.058,172.218,112.564,104.353,93.7945,0.0140146,1.69272,18.8035,-326.576,0.949564,0.0,0.0
2247,561.5,155.27,171.602,106.755,104.359,92.8755,0.0138791,1.69012,18.8084,-327.037,1.03779,0.0,0.0
2254,563.25,155.229,173.273,117.801,104.349,96.0008,0.0136972,1.68623,18.8155,-327.457,0.742271,0.0,0.0
2261,565,155.864,173.837,112.222,104.349,94.0077,0.0135747,1.67713,18.8254,-327.908,0.929028,0.0,0.0
2268,566.75,155.992,173.967,109.662,104.355,93.8138,0.0136771,1.67155,18.8313,-328.388,0.947913,0.0,0.0
2275,568.5,156.433,174.669,114.522,104.346,93.4871,0.0138524,1.67443,18.8257,-328.838,0.978212,0.0,0.0
2282,570.25,156.876,174.88,111.244,104.351,94.6211,0.0139259,1.67746,18.8207,-329.289,0.871273,0.0,0.0
2289,572,157.728,175.174,109.311,104.332,94.897,0.013961,1.68111,18.8182,-329.829,0.84379,0.0,0.0
2296,573.75,157.666,175.872,107.106,104.323,93.3952,0.0139946,1.68721,18.8168,-330.2,0.985045,0.0,0.0
2303,575.5,157.34,176.401,106.2,104.332,94.0979,0.0139292,1.69243,18.8161,-330.67,0.919064,0.0,0.0
2310,577.25,158.374,176.142,107.163,104.317,95.0051,0.0138302,1.68563,18.8236,-331.13,0.832367,0.0,0.0
2317,579,159.028,176.299,112.694,104.293,93.5187,0.0137607,1.67655,18.8333,-331.561,0.97068,0.0,0.0
2324,580.75,158.748,177.304,112.288,104.316,93.5099,0.0137461,1.66654,18.8421,-332.021,0.973476,0.0,0.0
2331,582.5,159.08,177.661,111.781,104.281,93.1579,0.0137398,1.66214,18.8518,-332.472,1.00409,0.0,0.0
2338,584.25,159.182,177.015,109.292,104.278,94.3567,0.0137497,1.65238,18.8668,-332.862,0.88998,0.0,0.0
2345,586,159.703,177.65,113.337,104.274,93.3265,0.0137136,1.63888,18.8814,-333.312,0.987354,0.0,0.0
2352,587.75,158.754,177.205,112.108,104.271,93.0607,0.0135949,1.62443,18.901,-333.753,1.01253,0.0,0.0
2359,589.5,159.854,177.818,112.92,104.266,93.9499,0.0134436,1.60702,18.9264,-334.203,0.927474,0.0,0.0
2366,591.25,158.84,177.2,109.076,104.274,92.9665,0.0132531,1.59228,18.9457,-334.634,1.02179,0.0,0.0
2373,593,159.664,177.533,114.464,104.267,94.5419,0.0129859,1.57746,18.9627,-335.034,0.871596,0.0,0.0
2380,594.75,159.52,177.42,112.575,104.267,94.467,0.0127334,1.56908,18.9715,-335.444,0.878648,0.0,0.0
2387,596.5,159.509,177.664,104.798,104.275,93.432,0.0125142,1.563,18.9785,-335.885,0.977438,0.0,0.0
2394,598.25,159.385,177.362,112.279,104.27,95.9277,0.0123644,1.5533,18.9933,-336.305,0.742346,0.0,0.0
2401,600,159.299,176.982,110.801,104.275,95.1702,0.0123568,1.54303,19.0042,-336.706,0.813345,0.0,0.0
2408,601.75,159.322,177.027,113.629,104.273,94.6877,0.012393,1.53658,19.0129,-337.146,0.858378,0.0,0.0
2415,603.5,159.032,176.814,116.352,104.281,94.7131,0.0123555,1.52557,19.0337,-337.576,0.856668,0.0,0.0
2422,605.25,159.182,176.874,117.984,104.283,94.2906,0.012197,1.51055,19.054,-338.037,0.896683,0.0,0.0
2429,607,158.831,175.89,110.785,104.279,93.8523,0.0120059,1.49561,19.0704,-338.437,0.937837,0.0,0.0
2436,608.75,158.246,175.932,113.294,104.281,94.594,0.0119347,1.47578,19.0974,-338.777,0.867905,0.0,0.0
2443,610.5,157.578,174.645,121.377,104.283,94.5949,0.0118794,1.45248,19.1304,-339.178,0.867965,0.0,0.0
2450,612.25,157.075,174.877,119.494,104.309,94.2691,0.0117115,1.43649,19.15,-339.558,0.900885,0.0,0.0
2457,614,157.088,174.479,126.542,104.292,96.5678,0.0115064,1.4195,19.181,-339.968,0.684961,0.0,0.0
2464,615.75,156.576,173.98,118.247,104.306,96.3725,0.0113331,1.39666,19.2098,-340.349,0.704229,0.0,0.0
2471,617.5,156.114,173.426,121.397,104.299,94.7884,0.0111058,1.36876,19.2406,-340.719,0.851199,0.0,0.0
2478,619.25,154.82,172.342,127.332,104.316,97.0849,0.0108979,1.30982,19.3113,-341.039,0.639526,0.0,0.0
2485,621,154.724,171.538,120.703,104.32,94.633,0.0107225,1.25558,19.3877,-341.38,0.867557,0.0,0.0
2492,622.75,153.401,170.047,125.408,104.32,95.9395,0.0103824,1.19747,19.4824,-341.63,0.745496,0.0,0.0
2499,624.5,151.905,168.685,128.533,104.327,96.6256,0.00996139,1.11506,19.6143,-341.86,0.682667,0.0,0.0
2506,626.25,150.571,166.335,127.707,104.328,95.6991,0.00951785,1.02709,19.7295,-342.13,0.768504,0.0,0.0
2513,628,148.614,164.465,133.942,104.34,94.6474,0.00899795,0.945924,19.834,-342.351,0.867873,0.0,0.0
2520,629.75,146.099,162.274,145.552,104.355,95.5371,0.00836918,0.853841,19.985,-342.521,0.78587,0.0,0.0
2527,631.5,144.166,159.073,146.432,104.347,97.8787,0.00758858,0.733142,20.1637,-342.671,0.569675,0.0,0.0
2534,633.25,141.168,155.755,150.926,104.342,98.8529,0.00677486,0.615202,20.3245,-342.731,0.481047,0.0,0.0
2541,635,137.813,152.688,152.635,104.368,98.3349,0.00598793,0.511433,20.4618,-342.821,0.530097,0.0,0.0
2548,636.75,134.713,148.404,158.01,104.373,98.0153,0.00524098,0.415202,20.5823,-342.881,0.559506,0.0,0.0
2555,638.5,131.478,145.415,157.591,104.364,98.9475,0.00455676,0.341407,20.6794,-342.941,0.474425,0.0,0.0
2562,640.25,128.014,141.747,163.361,104.355,99.1406,0.00389639,0.279478,20.7537,-342.961,0.456286,0.0,0.0
2569,642,124.853,137.944,165.947,104.367,100.077,0.0032811,0.233573,20.8063,-343.001,0.373661,0.0,0.0
2576,643.75,121.739,134.511,162.085,104.373,100.038,0.00271352,0.197758,20.8504,-342.991,0.377659,0.0,0.0
2583,645.5,117.647,130.218,164.292,104.383,100.467,0.0022683,0.162743,20.8937,-343.021,0.340418,0.0,0.0
2590,647.25,115.814,127.274,161.39,104.372,100.496,0.00198723,0.136914,20.9254,-343.001,0.33693,0.0,0.0
2597,649,111.776,123.807,163.578,104.364,100.368,0.00180486,0.115977,20.9498,-343.021,0.347584,0.0,0.0
2604,650.75,109.737,121.272,163.687,104.37,100.007,0.00161036,0.09922,20.9697,-343.021,0.380179,0.0,0.0
2611,652.5,107.085,118.042,162.616,104.358,100.081,0.00139783,0.0841214,20.9885,-343.011,0.372522,0.0,0.0
2618,654.25,104.783,114.936,167.211,104.365,99.7767,0.00121337,0.0731974,21.0005,-343.011,0.400237,0.0,0.0
2625,656,101.991,112.325,165.534,104.352,100.26,0.00110726,0.065363,21.0081,-343.031,0.356109,0.0,0.0
2632,657.75,99.81,109.771,163.715,104.352,99.9795,0.00108284,0.0598723,21.0138,-343.031,0.381027,0.0,0.0
2639,659.5,97.4014,106.546,162.845,104.344,99.8297,0.0010675,0.0564098,21.0173,-343.041,0.393692,0.0,0.0
2646,661.25,95.3078,104.1,165.475,104.337,99.7071,0.00101641,0.0538475,21.0189,-343.041,0.404025,0.0,0.0
2653,663,92.9969,101.573,166.409,104.315,99.7645,0.000922946,0.0522174,21.0197,-343.011,0.397049,0.0,0.0
2660,664.75,91.1519,99.0627,167.123,104.305,99.7229,0.000833882,0.0509561,21.0204,-343.021,0.39987,0.0,0.0
2667,666.5,89.0596,96.8869,164.151,104.289,99.7654,0.000776563,0.0501597,21.0195,-343.021,0.394795,0.0,0.0
2674,668.25,86.7474,94.6179,166.768,104.273,99.7807,0.000780285,0.0496216,21.0192,-343.021,0.392036,0.0,0.0
2681,670,85.1796,92.0986,167.618,104.256,99.6804,0.000811667,0.0491138,21.0196,-343.021,0.399559,0.0,0.0
2688,671.75,83.2538,89.9846,165.221,104.227,99.4554,0.000876451,0.0485337,21.0199,-343.011,0.417145,0.0,0.0
2695,673.5,81.262,87.8846,163.683,104.201,99.3271,0.000951208,0.0480878,21.02,-343.051,0.426456,0.0,0.0
2702,675.25,79.6842,86.1999,166.844,104.181,99.5758,0.000981183,0.0478544,21.02,-342.991,0.402445,0.0,0.0
2709,677,78.4241,84.2536,168.57,104.169,99.5101,0.000969229,0.0476125,21.02,-343.071,0.407283,0.0,0.0
2716,678.75,77.2579,82.3345,167.113,104.128,99.4168,0.00095382,0.0473488,21.0201,-343.061,0.412164,0.0,0.0
2723,680.5,75.2568,81.3754,164.518,104.08,99.3761,0.000912713,0.0471811,21.0201,-343.041,0.411735,0.0,0.0
2730,682.25,74.185,79.4636,163.137,104.047,99.1808,0.000876331,0.0471083,21.0201,-343.041,0.426349,0.0,0.0
2737,684,73.0743,77.3373,166.414,104.019,99.4908,0.00088631,0.0471106,21.0201,-343.031,0.396172,0.0,0.0
2744,685.75,70.9074,75.5897,166.769,103.974,99.1734,0.000862991,0.0469682,21.0201,-343.041,0.420791,0.0,0.0
2751,687.5,69.8477,74.4537,170.242,103.916,98.8695,0.000815073,0.0468436,21.0201,-343.061,0.443168,0.0,0.0
2758,689.25,68.5897,72.2955,168.307,103.888,99.1852,0.000713319,0.0465865,21.0202,-343.021,0.41239,0.0,0.0
2765,691,67.8886,71.4113,169.165,103.811,99.1414,0.000724079,0.0464825,21.0202,-343.041,0.409727,0.0,0.0
2772,692.75,66.4935,70.5799,170.261,103.751,98.775,0.000768629,0.0463261,21.0209,-343.051,0.437494,0.0,0.0
2779,694.5,66.215,69.4539,169.368,103.672,98.9339,0.000749593,0.0462577,21.0218,-343.041,0.4164,0.0,0.0
2786,696.25,64.8116,67.9426,166.317,103.6,98.7815,0.000672281,0.0461472,21.0222,-343.031,0.423944,0.0,0.0
2793,698,64.1614,66.8175,164.933,103.541,98.9102,0.000618347,0.0459893,21.0224,-343.041,0.40732,0.0,0.0
2800,699.75,63.0978,65.5388,167.912,103.486,98.6007,0.000691943,0.0458473,21.0225,-343.031,0.430443,0.0,0.0
2807,701.5,62.411,64.4415,167.749,103.464,98.6602,0.000772792,0.0458554,21.0225,-343.011,0.423199,0.0,0.0
2814,703.25,61.8215,63.4207,164.383,103.497,98.7189,0.000817652,0.045706,21.0226,-343.031,0.420747,0.0,0.0
2821,705,60.5627,62.6559,167.933,103.511,98.5989,0.000814033,0.0456355,21.0226,-343.031,0.432758,0.0,0.0
2828,706.75,59.8819,61.1485,166.85,103.532,98.8507,0.000788465,0.0456583,21.0226,-343.021,0.411927,0.0,0.0
2835,708.5,58.783,60.707,167.459,103.549,98.6686,0.000782283,0.045699,21.0226,-343.041,0.429746,0.0,0.0
2842,710.25,58.3506,59.1799,169.237,103.578,98.7382,0.000763254,0.0457311,21.0226,-343.031,0.425983,0.0,0.0
2849,712,57.1499,58.5178,171.006,103.632,98.6804,0.000655806,0.04566,21.0216,-343.031,0.435864,0.0,0.0
2856,713.75,56.7806,57.6413,168.954,103.646,98.7439,0.000581185,0.0456994,21.0204,-343.041,0.431325,0.0,0.0
2863,715.5,56.3751,56.3825,168.073,103.676,98.7903,0.000550784,0.0457556,21.0206,-343.041,0.42969,0.0,0.0
2870,717.25,55.3924,56.1565,168.969,103.705,98.8673,0.000478276,0.0457225,21.0212,-343.031,0.425297,0.0,0.0
2877,719,54.6713,55.362,166.214,103.741,98.8757,0.000380114,0.0456072,21.0214,-343.021,0.427562,0.0,0.0
2884,720.75,53.3502,53.7185,167.827,103.773,98.8621,0.000375567,0.0456524,21.0215,-343.041,0.431581,0.0,0.0
2891,722.5,53.5937,53.405,166.077,103.808,98.94,0.000496137,0.0455934,21.0216,-343.041,0.427578,0.0,0.0
2898,724.25,52.275,51.927,163.926,103.856,98.8196,0.000664014,0.0455381,21.0216,-343.051,0.44254,0.0,0.0
2905,726,52.7318,52.9324,170.608,103.882,99.2067,0.000805686,0.0454939,21.0216,-343.011,0.409963,0.0,0.0
2912,727.75,51.8965,51.2399,169.089,103.929,98.9015,0.000872723,0.0453955,21.0216,-343.041,0.441401,0.0,0.0
2919,729.5,51.3603,50.7374,164.843,103.963,98.9803,0.000882515,0.0452993,21.0216,-343.071,0.437173,0.0,0.0
2926,731.25,50.486,49.8495,166.614,103.994,99.1822,0.000798148,0.0453184,21.0216,-343.051,0.421722,0.0,0.0
2933,733,50.47,49.5381,169.273,104.013,99.1384,0.0006701,0.0451539,21.0216,-343.061,0.427264,0.0,0.0
2940,734.75,49.9664,49.1391,166.102,104.044,99.2194,0.000586236,0.0450275,21.0223,-343.061,0.422641,0.0,0.0
2947,736.5,49.2649,48.001,170,104.069,99.208,0.000606035,0.0451247,21.0226,-343.091,0.425808,0.0,0.0
2954,738.25,48.7807,47.9734,168.269,104.101,99.3424,0.000683022,0.0451293,21.0228,-343.051,0.416472,0.0,0.0
2961,740,48.4795,47.3586,168.929,104.094,99.2815,0.000820545,0.04507,21.0229,-343.041,0.421391,0.0,0.0
2968,741.75,47.8533,47.1684,168.769,104.106,99.1765,0.00099504,0.0450989,21.0231,-343.041,0.431819,0.0,0.0
2975,743.5,47.5711,46.8195,172.349,104.111,99.0976,0.00113703,0.0451153,21.0235,-343.041,0.43936,0.0,0.0
2982,745.25,46.7956,46.0643,171.617,104.111,99.0596,0.0011464,0.0450353,21.0236,-343.031,0.442783,0.0,0.0
2989,747,46.715,45.0252,163.999,104.116,99.1686,0.00100865,0.0451148,21.0237,-343.041,0.433348,0.0,0.0
2996,748.75,46.4532,44.6994,171.944,104.098,99.0394,0.000873661,0.0452018,21.0238,-343.031,0.443449,0.0,0.0
3003,750.5,45.9578,44.485,166.262,104.084,99.2399,0.000803427,0.0453275,21.0238,-342.991,0.424263,0.0,0.0
3010,752.25,45.9056,44.0888,171.592,104.067,99.2268,0.000777788,0.0454163,21.0238,-343.061,0.424011,0.0,0.0
3017,754,44.6999,42.4967,167.111,104.042,99.1686,0.000743636,0.045467,21.0238,-343.081,0.42702,0.0,0.0
3024,755.75,44.9926,43.3021,167.973,103.997,99.257,0.000677633,0.0453248,21.0239,-343.011,0.415256,0.0,0.0
3031,757.5,44.9016,42.6767,167.784,103.967,99.0201,0.00060255,0.0453727,21.023,-343.071,0.433949,0.0,0.0
3038,759.25,44.4932,42.4665,171.859,103.938,98.9991,0.000587308,0.045282,21.0217,-343.091,0.433369,0.0,0.0
3045,761,43.7836,41.9905,169.287,103.871,98.9501,0.000580225,0.0452306,21.0212,-343.111,0.432047,0.0,0.0
3052,762.75,43.7203,41.624,169.108,103.805,99.0674,0.000627512,0.0452982,21.0212,-343.061,0.415799,0.0,0.0
3059,764.5,43.6322,41.2609,171.064,103.747,98.7601,0.000721268,0.0452532,21.0215,-343.081,0.438513,0.0,0.0
3066,766.25,42.9807,41.1552,166.014,103.683,98.8498,0.000773764,0.0452778,21.0227,-343.121,0.424937,0.0,0.0
3073,768,42.7941,39.9317,169.258,103.633,98.9229,0.000690042,0.0453026,21.0222,-343.041,0.414081,0.0,0.0
3080,769.75,42.1306,39.8128,167.212,103.545,98.7141,0.00060345,0.0453463,21.0226,-343.021,0.425316,0.0,0.0
3087,771.5,42.4617,39.9542,170.903,103.486,98.6195,0.000553722,0.0452665,21.0232,-343.061,0.428815,0.0,0.0
3094,773.25,41.8491,39.196,169.845,103.412,98.6594,0.000534603,0.0453404,21.0235,-343.031,0.418852,0.0,0.0
3101,775,41.5926,38.8526,172.814,103.347,98.5626,0.000518869,0.0454549,21.0232,-343.081,0.421972,0.0,0.0
3108,776.75,41.7592,38.9451,171.486,103.254,98.4912,0.000479944,0.0454873,21.0221,-343.111,0.420422,0.0,0.0
3115,778.5,41.1586,38.6932,169.761,103.175,98.2745,,0.0455669,,-343.081,0.433146,0.0,0.0
3122,780.25,41.3835,37.9085,165.493,103.098,98.387,,,,-343.091,0.416392,0.0,0.0
3129,782,40.0557,37.2602,171.48,103.055,98.3406,,,,-343.051,0.416838,0.0,0.0
3136,783.75,40.3388,37.5348,171.372,102.988,98.2592,,,,-343.051,0.418397,0.0,0.0
3143,785.5,40.431,36.8965,167.964,102.92,98.1506,,,,-343.041,0.422383,0.0,0.0
3150,787.25,39.9589,37.2047,166.536,102.872,98.3227,,,,-343.091,0.402633,0.0,0.0
3153,788,39.7643,36.8707,167.307,102.859,98.1681,,,,-343.091,0.415551,0.0,0.0