File: 01_Data/Nylon/MCC/Nylon_MCC_30K_min_220329_R2.txt
Sample ID:	C:\MCC\MCC Cal\Test\Nylon_MCC_30K_min_220329_R2.txt
Sample Weight (mg):	4.39
Heating Rate (C/s):	0.5
Combustor Temp (C):	900
N2 Flow Rate (cc/min):	80
O2 Flow Rate (cc/min):	20
Calibration File:	C:\MCC\MCC Cal\Coeff1 JN10440_30_210304.txt.txt
T Correction Coefficients:	0	1.024463	0
Time Shift (s):	14
*
Time (s)	Temperature (C)	N2 flow rate (cc/min)	O2 flow rate (cc/min)	Flow Rate (cc/min)	Oxygen (%)	HRR (W/g)	Heating rate (C/s)
0.000	108.818	80.012	19.993	103.656	19.994	0.376	-0.000
2.000	108.822	80.012	19.992	103.653	20.002	-0.167	0.038
4.000	108.841	80.011	19.992	103.651	19.999	0.020	0.025
6.000	108.807	80.012	19.993	103.658	19.998	0.109	-0.013
8.000	108.810	80.011	19.994	103.651	19.997	0.151	-0.017
10.000	108.822	80.014	19.993	103.654	19.999	0.066	0.004
12.000	108.851	80.013	19.993	103.665	19.998	0.101	0.035
14.000	108.788	80.013	19.993	103.663	19.993	0.453	-0.021
16.000	108.872	80.014	19.994	103.647	19.993	0.459	0.062
18.000	108.882	80.014	19.993	103.675	19.994	0.387	-0.011
20.000	108.918	80.012	19.993	103.771	19.987	0.951	0.034
22.000	108.924	80.011	19.993	103.700	19.987	0.940	-0.011
24.000	108.978	80.011	19.994	103.696	19.988	0.859	0.028
26.000	109.033	80.011	19.993	103.710	19.990	0.730	0.043
28.000	109.061	80.012	19.994	103.744	19.982	1.317	0.017
30.000	109.149	80.009	19.992	103.775	19.975	1.823	0.033
32.000	109.252	80.011	19.994	103.806	19.976	1.724	0.051
34.000	109.392	80.009	19.993	103.826	19.969	2.265	0.079
36.000	109.562	80.011	19.993	103.838	19.970	2.184	0.072
38.000	109.747	80.010	19.995	103.829	19.967	2.420	0.076
40.000	109.975	80.011	19.994	103.825	19.965	2.574	0.140
42.000	110.242	80.011	19.994	103.833	19.960	2.925	0.118
44.000	110.472	80.009	19.993	103.842	19.962	2.788	0.108
46.001	110.805	80.011	19.995	103.855	19.958	3.038	0.161
48.000	111.071	80.008	19.994	103.859	19.955	3.269	0.140
50.000	111.455	80.010	19.995	103.862	19.955	3.289	0.192
52.000	111.780	80.009	19.994	103.868	19.952	3.535	0.149
54.000	112.180	80.011	19.994	103.880	19.951	3.574	0.202
56.000	112.571	80.010	19.994	103.875	19.957	3.108	0.216
58.000	113.059	80.010	19.993	103.890	19.950	3.691	0.237
60.000	113.515	80.008	19.994	103.892	19.950	3.664	0.266
62.000	114.070	80.009	19.993	103.901	19.952	3.545	0.280
64.000	114.526	80.011	19.993	103.902	19.949	3.739	0.218
66.000	115.077	80.011	19.992	103.903	19.945	4.020	0.290
68.000	115.650	80.013	19.993	103.905	19.950	3.638	0.304
70.000	116.242	80.013	19.994	103.899	19.950	3.660	0.323
72.000	116.819	80.013	19.993	103.900	19.948	3.782	0.295
74.000	117.419	80.012	19.993	103.902	19.949	3.701	0.295
76.000	118.075	80.011	19.993	103.909	19.950	3.636	0.301
78.000	118.684	80.012	19.993	103.904	19.949	3.717	0.314
80.000	119.325	80.010	19.994	103.902	19.946	3.987	0.339
82.000	120.069	80.012	19.993	103.903	19.947	3.874	0.390
84.000	120.779	80.011	19.994	103.909	19.946	3.973	0.367
86.001	121.443	80.010	19.993	103.906	19.953	3.433	0.361
88.000	122.172	80.011	19.993	103.913	19.946	3.927	0.373
90.000	122.937	80.011	19.992	103.906	19.948	3.818	0.354
92.000	123.701	80.011	19.994	103.907	19.950	3.649	0.414
94.000	124.370	80.012	19.994	103.910	19.951	3.572	0.347
96.000	125.208	80.013	19.993	103.909	19.946	3.935	0.375
98.001	125.957	80.013	19.992	103.907	19.952	3.485	0.382
100.000	126.769	80.014	19.994	103.904	19.951	3.564	0.420
102.001	127.546	80.012	19.993	103.915	19.953	3.431	0.380
104.000	128.326	80.012	19.991	103.919	19.952	3.507	0.366
106.001	129.196	80.009	19.993	103.922	19.951	3.552	0.404
108.000	130.027	80.012	19.994	103.916	19.949	3.703	0.452
110.001	130.824	80.010	19.994	103.919	19.950	3.652	0.408
112.000	131.713	80.010	19.994	103.913	19.950	3.657	0.447
114.000	132.545	80.010	19.993	103.926	19.953	3.461	0.410
116.000	133.414	80.010	19.993	103.907	19.952	3.479	0.427
118.000	134.314	80.010	19.995	103.905	19.953	3.434	0.440
120.001	135.174	80.011	19.994	103.904	19.953	3.436	0.434
122.000	136.032	80.011	19.994	103.913	19.956	3.224	0.424
124.000	136.969	80.010	19.993	103.916	19.952	3.524	0.435
126.000	137.846	80.011	19.994	103.904	19.951	3.576	0.467
128.000	138.762	80.012	19.992	103.913	19.953	3.449	0.452
130.000	139.685	80.010	19.994	103.900	19.947	3.885	0.451
132.000	140.574	80.010	19.994	103.899	19.949	3.753	0.445
134.000	141.485	80.011	19.994	103.903	19.950	3.652	0.465
136.000	142.385	80.009	19.994	103.915	19.947	3.852	0.453
138.000	143.323	80.011	19.994	103.909	19.952	3.531	0.479
140.000	144.250	80.010	19.995	103.918	19.951	3.596	0.466
142.000	145.236	80.010	19.994	103.903	19.952	3.493	0.471
144.000	146.125	80.010	19.993	103.906	19.952	3.515	0.450
146.000	147.098	80.009	19.993	103.909	19.951	3.608	0.470
148.001	148.104	80.010	19.995	103.905	19.954	3.358	0.498
150.000	149.023	80.010	19.993	103.907	19.949	3.741	0.476
152.000	150.016	80.012	19.996	103.915	19.953	3.420	0.527
154.000	150.958	80.012	19.995	103.906	19.951	3.562	0.466
156.000	151.913	80.011	19.995	103.902	19.951	3.606	0.465
158.000	152.914	80.012	19.993	103.902	19.951	3.570	0.501
160.000	153.864	80.011	19.992	103.904	19.949	3.751	0.477
162.000	154.798	80.012	19.993	103.908	19.952	3.543	0.487
164.000	155.782	80.012	19.993	103.904	19.949	3.719	0.476
166.000	156.764	80.011	19.993	103.905	19.950	3.620	0.486
168.000	157.739	80.011	19.993	103.905	19.949	3.714	0.486
170.000	158.702	80.013	19.993	103.904	19.949	3.733	0.476
172.000	159.692	80.012	19.994	103.904	19.950	3.690	0.485
174.000	160.668	80.012	19.993	103.901	19.948	3.793	0.500
176.000	161.643	80.014	19.993	103.900	19.953	3.440	0.506
178.000	162.630	80.013	19.992	103.898	19.951	3.565	0.502
180.000	163.622	80.013	19.993	103.892	19.952	3.525	0.495
182.000	164.609	80.013	19.993	103.899	19.955	3.309	0.510
184.000	165.642	80.014	19.993	103.894	19.951	3.608	0.526
186.000	166.612	80.013	19.993	103.890	19.953	3.448	0.426
188.000	167.599	80.012	19.992	103.897	19.952	3.519	0.502
190.000	168.594	80.010	19.993	103.884	19.952	3.525	0.486
192.000	169.597	80.012	19.993	103.892	19.954	3.357	0.479
194.000	170.603	80.012	19.994	103.901	19.953	3.440	0.464
196.000	171.621	80.011	19.993	103.895	19.957	3.109	0.518
198.000	172.589	80.011	19.993	103.881	19.955	3.269	0.492
200.000	173.573	80.012	19.994	103.893	19.955	3.315	0.495
202.000	174.589	80.012	19.994	103.881	19.954	3.386	0.523
204.000	175.566	80.012	19.993	103.878	19.955	3.285	0.470
206.000	176.573	80.010	19.993	103.893	19.961	2.850	0.516
208.000	177.566	80.017	19.995	103.893	19.959	2.992	0.498
210.001	178.545	80.017	19.994	103.901	19.961	2.858	0.500
212.000	179.541	80.030	19.998	103.889	19.957	3.157	0.494
214.000	180.505	80.013	19.995	103.887	19.957	3.151	0.484
216.000	181.503	80.009	19.994	103.877	19.963	2.729	0.482
218.000	182.528	80.010	19.995	103.869	19.962	2.765	0.498
220.000	183.487	80.011	19.995	103.877	19.962	2.764	0.501
222.000	184.508	80.011	19.994	103.876	19.957	3.121	0.506
224.000	185.471	80.009	19.994	103.870	19.959	2.969	0.497
226.000	186.490	80.010	19.993	103.868	19.953	3.417	0.508
228.000	187.512	80.009	19.993	103.868	19.958	3.074	0.539
230.000	188.492	80.009	19.995	103.866	19.961	2.808	0.490
232.000	189.476	80.012	19.994	103.871	19.959	2.973	0.479
234.000	190.469	80.011	19.993	103.866	19.959	2.959	0.479
236.000	191.401	80.011	19.994	103.864	19.961	2.870	0.489
238.000	192.376	80.012	19.995	103.865	19.958	3.058	0.504
240.000	193.314	80.010	19.993	103.860	19.958	3.066	0.476
242.000	194.322	80.010	19.995	103.860	19.958	3.042	0.505
244.000	195.260	80.013	19.995	103.857	19.955	3.280	0.453
246.000	196.236	80.011	19.995	103.858	19.956	3.193	0.493
248.000	197.208	80.012	19.995	103.859	19.955	3.255	0.508
250.000	198.208	80.011	19.995	103.859	19.959	2.967	0.483
252.000	199.158	80.012	19.994	103.857	19.957	3.154	0.474
254.000	200.145	80.012	19.994	103.859	19.960	2.912	0.491
256.000	201.120	80.013	19.993	103.859	19.955	3.249	0.476
258.000	202.099	80.013	19.993	103.861	19.955	3.265	0.495
260.000	203.071	80.014	19.994	103.848	19.955	3.307	0.494
262.000	204.092	80.013	19.993	103.849	19.959	2.981	0.499
264.000	205.040	80.014	19.994	103.855	19.956	3.178	0.493
266.000	206.022	80.013	19.994	103.839	19.958	3.039	0.508
268.000	207.017	80.012	19.993	103.852	19.963	2.723	0.509
270.000	207.911	80.012	19.992	103.843	19.960	2.886	0.440
272.000	208.907	80.011	19.995	103.853	19.959	2.995	0.488
274.000	209.914	80.011	19.994	103.858	19.956	3.240	0.528
276.000	210.900	80.011	19.993	103.845	19.959	3.025	0.491
278.000	211.830	80.011	19.993	103.849	19.958	3.063	0.493
280.000	212.801	80.011	19.994	103.856	19.959	3.011	0.518
282.000	213.815	80.010	19.995	103.860	19.959	2.967	0.495
284.000	214.757	80.012	19.993	103.842	19.960	2.908	0.487
286.000	215.728	80.011	19.994	103.834	19.965	2.554	0.478
288.000	216.646	80.011	19.992	103.837	19.960	2.915	0.439
290.000	217.655	80.011	19.993	103.828	19.960	2.881	0.481
292.000	218.689	80.009	19.993	103.843	19.961	2.834	0.532
294.000	219.634	80.010	19.992	103.845	19.958	3.046	0.476
296.000	220.601	80.011	19.992	103.856	19.962	2.798	0.486
298.000	221.612	80.011	19.992	103.867	19.959	2.995	0.487
300.000	222.578	80.011	19.993	103.868	19.961	2.852	0.474
302.000	223.589	80.011	19.994	103.872	19.962	2.757	0.471
304.000	224.590	80.011	19.993	103.866	19.960	2.926	0.521
306.000	225.622	80.011	19.995	103.863	19.958	3.091	0.522
308.000	226.623	80.010	19.994	103.862	19.961	2.836	0.506
310.000	227.612	80.010	19.995	103.862	19.957	3.140	0.496
312.000	228.691	80.012	19.993	103.854	19.961	2.813	0.540
314.000	229.750	80.012	19.996	103.836	19.957	3.174	0.525
316.000	230.768	80.012	19.994	103.829	19.953	3.440	0.524
318.000	231.776	80.011	19.995	103.849	19.956	3.180	0.493
320.000	232.775	80.013	19.994	103.855	19.957	3.148	0.512
322.000	233.831	80.014	19.995	103.844	19.957	3.152	0.537
324.000	234.825	80.013	19.995	103.824	19.959	2.978	0.483
326.000	235.846	80.013	19.994	103.835	19.957	3.157	0.521
328.000	236.891	80.011	19.994	103.833	19.960	2.918	0.530
330.000	237.863	80.011	19.992	103.830	19.960	2.912	0.492
332.000	238.892	80.014	19.995	103.842	19.957	3.124	0.473
334.000	239.895	80.012	19.995	103.841	19.960	2.904	0.515
336.000	240.959	80.012	19.994	103.824	19.964	2.601	0.533
338.000	241.979	80.011	19.994	103.825	19.965	2.557	0.516
340.000	243.016	80.013	19.994	103.836	19.968	2.321	0.504
342.000	244.074	80.012	19.995	103.843	19.964	2.627	0.491
344.000	245.094	80.012	19.993	103.832	19.964	2.621	0.531
346.000	246.135	80.012	19.994	103.827	19.966	2.486	0.512
348.000	247.224	80.013	19.993	103.825	19.966	2.455	0.532
350.000	248.301	80.012	19.993	103.825	19.965	2.578	0.563
352.000	249.427	80.013	19.994	103.824	19.961	2.832	0.570
354.000	250.495	80.012	19.994	103.823	19.960	2.915	0.531
356.000	251.534	80.010	19.994	103.825	19.965	2.583	0.492
358.000	252.518	80.010	19.993	103.814	19.961	2.820	0.476
360.000	253.499	80.010	19.994	103.801	19.964	2.653	0.468
362.000	254.499	80.011	19.993	103.799	19.961	2.871	0.492
364.000	255.505	80.011	19.993	103.813	19.959	2.962	0.499
366.000	256.431	80.009	19.993	103.816	19.963	2.680	0.462
368.000	257.408	80.011	19.993	103.813	19.961	2.837	0.503
370.000	258.360	80.013	19.995	103.814	19.963	2.688	0.465
372.000	259.346	80.011	19.994	103.821	19.963	2.692	0.481
374.000	260.223	80.012	19.994	103.817	19.964	2.595	0.469
376.000	261.154	80.011	19.993	103.822	19.965	2.528	0.472
378.000	262.125	80.010	19.992	103.821	19.964	2.605	0.478
380.000	263.058	80.010	19.994	103.819	19.960	2.911	0.468
382.000	264.036	80.011	19.994	103.821	19.964	2.629	0.454
384.000	264.953	80.010	19.993	103.810	19.966	2.480	0.475
386.000	265.965	80.010	19.994	103.816	19.964	2.605	0.492
388.000	266.892	80.010	19.993	103.812	19.971	2.103	0.479
390.000	267.854	80.012	19.993	103.808	19.966	2.502	0.480
392.001	268.783	80.011	19.996	103.820	19.964	2.639	0.465
394.000	269.702	80.011	19.993	103.821	19.960	2.947	0.463
396.000	270.703	80.011	19.993	103.807	19.967	2.407	0.512
398.000	271.662	80.011	19.993	103.811	19.959	2.992	0.492
400.000	272.646	80.011	19.992	103.822	19.960	2.922	0.497
402.000	273.580	80.013	19.994	103.822	19.960	2.934	0.498
404.000	274.505	80.011	19.993	103.819	19.954	3.385	0.441
406.000	275.466	80.013	19.994	103.810	19.955	3.307	0.474
408.000	276.457	80.011	19.992	103.818	19.960	2.934	0.468
410.000	277.412	80.011	19.994	103.825	19.956	3.182	0.478
412.000	278.319	80.010	19.994	103.825	19.961	2.863	0.456
414.000	279.354	80.010	19.992	103.824	19.957	3.103	0.514
416.000	280.349	80.011	19.994	103.823	19.960	2.885	0.494
418.000	281.327	80.011	19.992	103.825	19.959	3.022	0.490
420.000	282.312	80.012	19.993	103.821	19.955	3.280	0.503
422.000	283.293	80.011	19.994	103.825	19.960	2.934	0.491
424.000	284.289	80.012	19.993	103.823	19.957	3.165	0.511
426.000	285.361	80.014	19.994	103.825	19.957	3.163	0.541
428.000	286.347	80.012	19.993	103.816	19.958	3.081	0.495
430.000	287.352	80.012	19.992	103.815	19.956	3.234	0.503
432.000	288.347	80.012	19.992	103.823	19.958	3.095	0.511
434.000	289.342	80.011	19.994	103.820	19.958	3.091	0.466
436.000	290.360	80.011	19.994	103.822	19.956	3.217	0.503
438.000	291.434	80.010	19.994	103.814	19.959	2.997	0.522
440.000	292.473	80.011	19.994	103.817	19.958	3.086	0.518
442.000	293.465	80.010	19.996	103.813	19.958	3.071	0.499
444.000	294.473	80.009	19.994	103.812	19.961	2.875	0.494
446.000	295.496	80.011	19.994	103.809	19.963	2.707	0.481
448.000	296.545	80.011	19.994	103.800	19.960	2.905	0.545
450.000	297.592	80.010	19.992	103.795	19.959	2.993	0.507
452.000	298.544	80.012	19.994	103.809	19.966	2.485	0.517
454.000	299.611	80.011	19.993	103.811	19.961	2.860	0.547
456.000	300.625	80.011	19.992	103.795	19.961	2.836	0.525
458.000	301.552	80.013	19.993	103.815	19.959	3.017	0.497
460.000	302.594	80.012	19.993	103.801	19.965	2.560	0.485
462.000	303.590	80.011	19.994	103.787	19.968	2.350	0.513
464.000	304.547	80.012	19.993	103.795	19.962	2.802	0.521
466.000	305.521	80.012	19.994	103.788	19.960	2.886	0.489
468.000	306.478	80.011	19.993	103.785	19.963	2.723	0.450
470.000	307.483	80.010	19.993	103.784	19.961	2.836	0.478
472.000	308.500	80.011	19.992	103.789	19.964	2.657	0.476
474.000	309.500	80.010	19.994	103.791	19.963	2.697	0.499
476.000	310.448	80.011	19.994	103.789	19.962	2.751	0.509
478.000	311.407	80.011	19.993	103.788	19.962	2.738	0.480
480.000	312.413	80.012	19.993	103.793	19.961	2.854	0.500
482.000	313.352	80.012	19.992	103.802	19.962	2.800	0.442
484.000	314.302	80.013	19.992	103.803	19.961	2.851	0.490
486.000	315.268	80.013	19.993	103.790	19.963	2.663	0.480
488.001	316.247	80.012	19.993	103.803	19.960	2.899	0.488
490.000	317.237	80.012	19.993	103.803	19.968	2.318	0.511
492.000	318.143	80.012	19.992	103.805	19.968	2.350	0.468
494.000	319.118	80.012	19.993	103.812	19.957	3.127	0.454
496.000	320.077	80.010	19.993	103.805	19.968	2.346	0.479
498.000	321.092	80.010	19.993	103.794	19.965	2.542	0.533
500.000	322.092	80.010	19.994	103.810	19.968	2.329	0.497
502.000	323.033	80.011	19.992	103.804	19.965	2.546	0.499
504.000	323.953	80.013	19.995	103.806	19.967	2.387	0.536
506.000	324.933	80.013	19.994	103.799	19.967	2.397	0.510
508.000	325.755	80.013	19.993	103.802	19.966	2.496	0.221
510.000	327.204	80.013	19.993	103.809	19.966	2.492	0.702
512.000	327.986	80.016	19.994	103.818	19.962	2.744	0.700
514.000	328.943	80.013	19.994	103.820	19.963	2.726	0.536
516.000	329.911	80.013	19.993	103.820	19.960	2.943	0.474
518.000	330.954	80.012	19.994	103.819	19.959	2.975	0.467
520.000	332.029	80.011	19.996	103.819	19.962	2.758	0.533
522.000	333.077	80.011	19.994	103.810	19.959	2.961	0.539
524.000	334.123	80.011	19.994	103.812	19.965	2.572	0.556
526.000	335.100	80.010	19.995	103.810	19.963	2.697	0.485
528.000	336.169	80.010	19.995	103.807	19.965	2.579	0.553
530.000	337.170	80.010	19.994	103.801	19.963	2.673	0.509
532.001	338.210	80.011	19.994	103.812	19.957	3.102	0.528
534.000	339.207	80.011	19.995	103.800	19.961	2.820	0.492
536.000	340.261	80.012	19.993	103.794	19.961	2.872	0.533
538.000	341.312	80.011	19.995	103.806	19.963	2.669	0.496
540.000	342.302	80.013	19.994	103.806	19.965	2.512	0.503
542.000	343.291	80.011	19.994	103.800	19.961	2.810	0.498
544.000	344.307	80.011	19.993	103.799	19.961	2.856	0.488
546.000	345.294	80.010	19.993	103.790	19.957	3.123	0.504
548.000	346.316	80.010	19.992	103.787	19.954	3.330	0.494
550.000	347.346	80.011	19.993	103.794	19.958	3.062	0.499
552.000	348.348	80.011	19.994	103.788	19.957	3.104	0.508
554.000	349.419	80.009	19.993	103.788	19.956	3.207	0.500
556.000	350.448	80.010	19.993	103.801	19.961	2.840	0.494
558.000	351.435	80.011	19.993	103.794	19.956	3.245	0.492
560.000	352.489	80.011	19.992	103.788	19.961	2.836	0.518
562.000	353.504	80.012	19.993	103.797	19.964	2.607	0.502
564.000	354.533	80.011	19.993	103.790	19.959	2.955	0.518
566.000	355.543	80.013	19.993	103.787	19.956	3.245	0.490
568.000	356.529	80.013	19.993	103.790	19.957	3.138	0.481
570.000	357.541	80.013	19.992	103.784	19.958	3.068	0.509
572.000	358.569	80.013	19.994	103.807	19.955	3.247	0.522
574.000	359.617	80.013	19.993	103.798	19.954	3.344	0.532
576.000	360.615	80.014	19.994	103.792	19.953	3.421	0.507
578.000	361.659	80.011	19.993	103.800	19.951	3.582	0.535
580.000	362.626	80.012	19.993	103.790	19.947	3.880	0.490
582.000	363.596	80.012	19.993	103.811	19.951	3.559	0.488
584.000	364.689	80.014	19.993	103.794	19.948	3.769	0.539
586.000	365.677	80.014	19.992	103.805	19.944	4.092	0.524
588.000	366.676	80.014	19.993	103.787	19.940	4.410	0.514
590.000	367.684	80.015	19.992	103.785	19.936	4.663	0.504
592.000	368.678	80.015	19.992	103.784	19.932	4.951	0.523
594.000	369.688	80.014	19.992	103.782	19.936	4.661	0.484
596.000	370.725	80.013	19.994	103.788	19.934	4.809	0.518
598.000	371.688	80.012	19.992	103.791	19.925	5.479	0.484
600.000	372.665	80.013	19.996	103.789	19.925	5.519	0.495
602.000	373.665	80.013	19.995	103.809	19.923	5.662	0.495
604.000	374.681	80.010	19.995	103.814	19.917	6.112	0.508
606.000	375.679	80.010	19.993	103.812	19.914	6.326	0.508
608.000	376.700	80.012	19.994	103.812	19.907	6.807	0.496
610.000	377.714	80.012	19.994	103.800	19.902	7.202	0.526
612.000	378.683	80.010	19.993	103.795	19.898	7.494	0.502
614.000	379.688	80.011	19.993	103.795	19.895	7.707	0.514
616.000	380.726	80.011	19.994	103.798	19.891	8.006	0.517
618.000	381.713	80.013	19.993	103.818	19.882	8.640	0.500
620.000	382.676	80.011	19.994	103.824	19.873	9.368	0.504
622.000	383.721	80.011	19.994	103.824	19.862	10.118	0.515
624.000	384.735	80.011	19.994	103.818	19.856	10.578	0.513
626.000	385.737	80.011	19.995	103.793	19.855	10.670	0.483
628.000	386.789	80.011	19.996	103.793	19.848	11.151	0.518
630.001	387.791	80.011	19.993	103.814	19.835	12.116	0.501
632.000	388.863	80.010	19.994	103.824	19.832	12.358	0.513
634.000	389.922	80.010	19.994	103.821	19.824	12.969	0.537
636.000	390.961	80.011	19.994	103.793	19.826	12.821	0.560
638.000	391.989	80.010	19.993	103.789	19.817	13.475	0.516
640.000	393.100	80.012	19.995	103.806	19.806	14.291	0.558
642.000	394.143	80.012	19.992	103.828	19.794	15.154	0.519
644.000	395.137	80.013	19.994	103.827	19.782	16.077	0.498
646.000	396.194	80.013	19.994	103.823	19.764	17.348	0.523
648.000	397.229	80.012	19.992	103.822	19.741	19.087	0.491
650.000	398.325	80.013	19.992	103.821	19.726	20.205	0.534
652.000	399.326	80.013	19.994	103.821	19.708	21.481	0.491
654.000	400.381	80.012	19.993	103.821	19.683	23.329	0.511
656.000	401.370	80.013	19.993	103.821	19.662	24.913	0.497
658.000	402.377	80.012	19.992	103.826	19.635	26.870	0.481
660.000	403.438	80.014	19.992	103.824	19.611	28.709	0.513
662.000	404.476	80.012	19.993	103.821	19.585	30.561	0.478
664.000	405.487	80.011	19.993	103.830	19.549	33.284	0.528
666.000	406.500	80.012	19.994	103.850	19.514	35.851	0.485
668.000	407.522	80.014	19.993	103.846	19.480	38.316	0.487
670.000	408.596	80.013	19.993	103.857	19.442	41.155	0.507
672.000	409.563	80.014	19.992	103.845	19.396	44.527	0.516
674.000	410.572	80.015	19.992	103.855	19.349	48.009	0.500
676.001	411.586	80.014	19.993	103.864	19.298	51.754	0.510
678.000	412.594	80.014	19.992	103.864	19.248	55.474	0.517
680.000	413.532	80.013	19.993	103.861	19.194	59.497	0.468
682.000	414.524	80.012	19.992	103.861	19.136	63.719	0.498
684.000	415.534	80.011	19.993	103.871	19.080	67.917	0.488
686.000	416.494	80.012	19.993	103.870	19.022	72.190	0.501
688.000	417.530	80.010	19.993	103.867	18.963	76.552	0.486
690.000	418.526	80.009	19.991	103.866	18.905	80.831	0.488
692.000	419.532	80.010	19.994	103.882	18.846	85.152	0.511
694.000	420.458	80.012	19.993	103.878	18.779	90.084	0.463
696.000	421.463	80.010	19.994	103.894	18.713	94.931	0.494
698.000	422.459	80.011	19.995	103.879	18.646	99.943	0.496
700.000	423.453	80.010	19.995	103.877	18.577	105.040	0.494
702.000	424.432	80.012	19.993	103.889	18.503	110.497	0.474
704.000	425.411	80.011	19.993	103.880	18.429	115.938	0.516
706.000	426.385	80.011	19.993	103.875	18.359	121.137	0.471
708.000	427.376	80.011	19.994	103.871	18.286	126.480	0.487
710.000	428.358	80.011	19.993	103.885	18.214	131.804	0.522
712.000	429.287	80.011	19.994	103.886	18.139	137.358	0.437
714.000	430.305	80.012	19.994	103.883	18.061	143.088	0.503
716.000	431.297	80.009	19.993	103.887	17.985	148.691	0.511
718.000	432.254	80.009	19.993	103.877	17.918	153.655	0.467
720.000	433.274	80.010	19.994	103.857	17.843	159.141	0.478
722.000	434.243	80.010	19.995	103.872	17.771	164.495	0.468
724.000	435.267	80.012	19.994	103.872	17.695	170.047	0.506
726.000	436.230	80.010	19.994	103.870	17.622	175.471	0.501
728.000	437.207	80.013	19.994	103.860	17.549	180.798	0.485
730.000	438.173	80.012	19.995	103.858	17.478	186.097	0.485
732.000	439.192	80.013	19.995	103.857	17.412	190.966	0.494
734.000	440.206	80.012	19.993	103.838	17.345	195.868	0.469
736.000	441.209	80.012	19.993	103.832	17.279	200.682	0.484
738.000	442.172	80.011	19.993	103.826	17.208	205.910	0.481
740.000	443.168	80.011	19.993	103.834	17.147	210.388	0.511
742.000	444.109	80.011	19.994	103.827	17.084	215.057	0.491
744.000	445.118	80.012	19.994	103.826	17.015	220.155	0.489
746.000	446.112	80.013	19.994	103.817	16.952	224.802	0.500
748.000	447.105	80.013	19.993	103.797	16.895	228.940	0.490
750.000	448.090	80.011	19.992	103.774	16.843	232.755	0.484
752.000	449.091	80.014	19.994	103.776	16.790	236.669	0.504
754.000	450.104	80.014	19.994	103.792	16.727	241.350	0.505
756.000	451.099	80.013	19.994	103.791	16.674	245.207	0.524
758.000	452.130	80.012	19.992	103.777	16.626	248.680	0.501
760.000	453.138	80.013	19.994	103.745	16.585	251.751	0.503
762.000	454.149	80.013	19.993	103.741	16.535	255.468	0.498
764.000	455.185	80.011	19.993	103.773	16.494	258.467	0.521
766.000	456.239	80.011	19.993	103.757	16.453	261.487	0.526
768.000	457.224	80.010	19.994	103.728	16.424	263.595	0.521
770.000	458.216	80.011	19.993	103.715	16.401	265.294	0.494
772.000	459.227	80.009	19.991	103.740	16.375	267.161	0.513
774.000	460.249	80.011	19.993	103.745	16.360	268.257	0.497
776.000	461.291	80.011	19.992	103.741	16.341	269.621	0.501
778.000	462.259	80.011	19.993	103.740	16.335	270.093	0.490
780.000	463.278	80.011	19.993	103.726	16.321	271.081	0.507
782.000	464.257	80.012	19.993	103.727	16.329	270.487	0.513
784.000	465.256	80.012	19.993	103.717	16.329	270.417	0.517
786.000	466.248	80.011	19.993	103.708	16.351	268.791	0.488
788.000	467.253	80.010	19.995	103.705	16.371	267.316	0.502
790.000	468.281	80.011	19.994	103.703	16.411	264.374	0.506
792.000	469.215	80.012	19.995	103.688	16.466	260.331	0.478
794.001	470.316	80.011	19.993	103.666	16.538	255.013	0.527
796.000	471.309	80.011	19.994	103.657	16.625	248.652	0.527
798.000	472.300	80.010	19.995	103.666	16.723	241.387	0.480
800.000	473.270	80.009	19.994	103.668	16.836	233.049	0.498
802.000	474.276	80.012	19.995	103.674	16.967	223.413	0.471
804.000	475.346	80.011	19.993	103.676	17.098	213.751	0.522
806.000	476.336	80.012	19.994	103.670	17.253	202.393	0.517
808.000	477.376	80.011	19.993	103.671	17.403	191.302	0.513
810.000	478.357	80.012	19.993	103.667	17.569	179.090	0.502
812.000	479.358	80.012	19.994	103.671	17.727	167.445	0.502
814.000	480.417	80.012	19.994	103.670	17.892	155.349	0.509
816.000	481.423	80.013	19.993	103.668	18.062	142.866	0.516
818.000	482.436	80.012	19.996	103.671	18.226	130.777	0.513
820.000	483.492	80.011	19.995	103.668	18.396	118.197	0.500
822.000	484.512	80.012	19.995	103.669	18.571	105.326	0.505
824.000	485.582	80.012	19.994	103.690	18.726	93.933	0.549
826.000	486.584	80.011	19.994	103.722	18.869	83.410	0.497
828.000	487.596	80.011	19.994	103.743	19.002	73.600	0.505
830.000	488.676	80.012	19.994	103.744	19.133	63.932	0.552
832.000	489.654	80.012	19.994	103.753	19.244	55.718	0.468
834.000	490.697	80.013	19.993	103.778	19.350	47.897	0.515
836.000	491.770	80.013	19.993	103.782	19.436	41.570	0.531
838.000	492.812	80.013	19.992	103.778	19.515	35.759	0.548
840.000	493.876	80.013	19.993	103.779	19.586	30.520	0.521
842.000	494.918	80.013	19.992	103.775	19.645	26.146	0.540
844.000	496.045	80.011	19.993	103.776	19.692	22.665	0.563
846.000	497.104	80.012	19.992	103.776	19.741	19.073	0.532
848.000	498.125	80.010	19.993	103.782	19.773	16.716	0.511
850.000	499.189	80.012	19.993	103.784	19.809	14.075	0.561
852.000	500.246	80.012	19.993	103.778	19.834	12.226	0.534
854.000	501.306	80.011	19.994	103.780	19.852	10.855	0.490
856.000	502.361	80.012	19.994	103.766	19.864	9.987	0.521
858.000	503.365	80.011	19.993	103.759	19.881	8.734	0.516
860.000	504.397	80.012	19.994	103.748	19.892	7.958	0.504
862.000	505.447	80.012	19.994	103.746	19.903	7.094	0.493
864.000	506.514	80.012	19.994	103.745	19.913	6.386	0.529
866.000	507.541	80.012	19.993	103.744	19.919	5.949	0.501
868.000	508.561	80.011	19.993	103.744	19.917	6.096	0.531
870.000	509.598	80.011	19.990	103.744	19.924	5.595	0.550
872.000	510.637	80.011	19.994	103.742	19.924	5.560	0.493
874.000	511.612	80.011	19.992	103.746	19.931	5.034	0.494
876.000	512.700	80.011	19.993	103.738	19.934	4.821	0.513
878.000	513.770	80.010	19.993	103.741	19.941	4.290	0.532
880.000	514.770	80.010	19.994	103.740	19.937	4.637	0.514
882.000	515.831	80.010	19.994	103.741	19.938	4.518	0.511
884.000	516.804	80.010	19.993	103.716	19.941	4.300	0.499
886.000	517.878	80.010	19.994	103.730	19.938	4.510	0.529
888.000	518.882	80.012	19.995	103.723	19.941	4.346	0.504
890.000	519.890	80.011	19.994	103.716	19.939	4.451	0.498
892.000	520.941	80.011	19.995	103.711	19.945	4.011	0.526
894.000	521.916	80.012	19.994	103.717	19.939	4.451	0.472
896.000	522.918	80.013	19.994	103.724	19.942	4.217	0.512
898.000	523.880	80.012	19.994	103.733	19.943	4.156	0.479
900.000	524.852	80.013	19.993	103.740	19.949	3.713	0.465
902.000	525.881	80.011	19.994	103.743	19.943	4.140	0.514
904.000	526.846	80.012	19.992	103.743	19.945	3.987	0.509
906.000	527.844	80.013	19.995	103.745	19.944	4.074	0.523
908.000	528.831	80.011	19.994	103.744	19.944	4.060	0.499
910.000	529.794	80.010	19.993	103.744	19.943	4.183	0.475
912.000	530.788	80.011	19.994	103.744	19.942	4.213	0.507
914.000	531.787	80.012	19.994	103.745	19.943	4.149	0.528
916.000	532.761	80.013	19.995	103.751	19.950	3.679	0.503
918.000	533.756	80.012	19.995	103.748	19.945	4.042	0.489
920.000	534.739	80.013	19.994	103.743	19.945	4.048	0.488
922.000	535.754	80.013	19.995	103.744	19.951	3.583	0.506
924.000	536.776	80.012	19.995	103.753	19.945	3.998	0.488
926.000	537.780	80.012	19.994	103.752	19.944	4.068	0.508
928.000	538.774	80.010	19.992	103.745	19.947	3.857	0.516
930.000	539.846	80.012	19.994	103.745	19.947	3.859	0.541
932.000	540.859	80.009	19.994	103.760	19.946	3.980	0.512
934.000	541.855	80.011	19.993	103.757	19.945	4.016	0.507
936.000	542.899	80.012	19.994	103.750	19.952	3.497	0.515
938.000	543.896	80.011	19.993	103.761	19.945	4.012	0.531
940.000	544.907	80.011	19.992	103.760	19.946	3.966	0.506
942.000	545.969	80.011	19.993	103.762	19.945	3.992	0.525
944.000	546.994	80.010	19.992	103.763	19.948	3.800	0.515
946.000	548.022	80.011	19.994	103.770	19.947	3.852	0.525
948.000	549.073	80.010	19.993	103.774	19.945	4.010	0.524
950.000	550.154	80.011	19.995	103.762	19.953	3.466	0.545
952.000	551.210	80.011	19.992	103.771	19.951	3.591	0.524
954.000	552.260	80.011	19.993	103.753	19.949	3.730	0.533
956.000	553.319	80.010	19.993	103.752	19.945	3.984	0.549
958.000	554.362	80.012	19.994	103.751	19.950	3.631	0.551
960.000	555.492	80.010	19.994	103.751	19.946	3.956	0.528
962.000	556.457	80.009	19.993	103.750	19.948	3.809	0.486
964.000	557.512	80.011	19.993	103.761	19.942	4.218	0.542
966.000	558.608	80.012	19.993	103.759	19.945	4.028	0.520
968.000	559.595	80.013	19.993	103.760	19.947	3.877	0.497
970.000	560.710	80.010	19.992	103.768	19.945	3.992	0.529
972.000	561.727	80.012	19.991	103.760	19.940	4.375	0.500
974.000	562.812	80.011	19.993	103.771	19.949	3.704	0.511
976.000	563.802	80.013	19.994	103.759	19.942	4.256	0.496
978.000	564.876	80.012	19.994	103.769	19.947	3.879	0.515
980.000	565.864	80.013	19.994	103.766	19.944	4.060	0.506
982.000	566.951	80.013	19.995	103.766	19.940	4.419	0.518
984.000	568.006	80.011	19.993	103.778	19.946	3.923	0.497
986.000	569.050	80.012	19.994	103.770	19.945	3.998	0.525
988.000	570.104	80.011	19.994	103.759	19.947	3.839	0.557
990.000	571.094	80.011	19.994	103.767	19.946	3.966	0.518
992.000	572.151	80.014	19.997	103.761	19.950	3.678	0.540
994.000	573.180	80.013	19.994	103.764	19.944	4.071	0.526
996.000	574.282	80.012	19.993	103.769	19.942	4.206	0.542
998.000	575.279	80.013	19.996	103.770	19.940	4.371	0.549
1000.000	576.400	80.014	19.995	103.774	19.945	4.016	0.536
1002.000	577.432	80.013	19.992	103.778	19.939	4.440	0.516
1004.000	578.534	80.014	19.994	103.773	19.940	4.373	0.554
1006.000	579.614	80.014	19.993	103.753	19.940	4.397	0.517
1008.000	580.719	80.012	19.994	103.767	19.942	4.265	0.525
1010.000	581.762	80.011	19.993	103.762	19.938	4.535	0.517
1012.000	582.892	80.009	19.993	103.775	19.941	4.323	0.558
1014.000	584.015	80.010	19.994	103.778	19.943	4.144	0.550
1016.000	585.118	80.009	19.994	103.773	19.941	4.299	0.552
1018.000	586.241	80.008	19.994	103.776	19.945	4.000	0.577
1020.000	587.354	80.011	19.995	103.776	19.940	4.360	0.558
1022.000	588.543	80.010	19.994	103.779	19.937	4.590	0.587
1024.000	589.676	80.011	19.994	103.781	19.940	4.367	0.555
1026.000	590.826	80.011	19.993	103.776	19.942	4.220	0.577
1028.000	591.943	80.012	19.992	103.770	19.938	4.562	0.560
1030.000	593.130	80.011	19.993	103.758	19.938	4.570	0.584
1032.000	594.273	80.011	19.994	103.752	19.936	4.683	0.589
1034.000	595.440	80.011	19.993	103.762	19.938	4.550	0.609
1036.000	596.587	80.011	19.992	103.767	19.940	4.361	0.588
1038.001	597.722	80.011	19.994	103.758	19.948	3.823	0.588
1040.000	598.872	80.011	19.993	103.770	19.946	3.943	0.590
1042.000	599.959	80.010	19.993	103.764	19.945	4.004	0.536
1044.001	601.102	80.011	19.993	103.756	19.945	4.014	0.567
1046.000	602.252	80.010	19.992	103.777	19.950	3.645	0.580
1048.001	603.357	80.009	19.994	103.767	19.944	4.088	0.591
1050.000	604.506	80.008	19.991	103.759	19.948	3.788	0.561
1052.000	605.628	80.011	19.996	103.766	19.949	3.699	0.561
1054.000	606.718	80.011	19.994	103.764	19.946	3.967	0.548
1056.001	607.811	80.011	19.993	103.756	19.946	3.919	0.563
1058.000	608.854	80.012	19.993	103.749	19.950	3.649	0.525
1060.000	609.921	80.013	19.994	103.750	19.945	4.018	0.508
1062.001	610.987	80.013	19.993	103.743	19.943	4.147	0.512
1064.000	612.026	80.013	19.993	103.752	19.946	3.963	0.500
1066.000	613.087	80.012	19.994	103.753	19.943	4.177	0.518
1068.000	614.164	80.012	19.992	103.749	19.938	4.525	0.527
1070.000	615.151	80.012	19.994	103.750	19.943	4.169	0.510
1072.000	616.254	80.011	19.992	103.754	19.946	3.959	0.497
1074.001	617.280	80.010	19.994	103.751	19.941	4.336	0.532
1076.000	618.259	80.011	19.992	103.750	19.942	4.205	0.493
1078.001	619.311	80.012	19.993	103.750	19.942	4.241	0.511
1080.000	620.332	80.010	19.994	103.751	19.947	3.897	0.507
1082.000	621.367	80.012	19.993	103.748	19.941	4.330	0.517
1084.000	622.409	80.013	19.993	103.747	19.942	4.214	0.524
1086.000	623.483	80.013	19.993	103.751	19.947	3.877	0.546
1088.000	624.442	80.011	19.992	103.750	19.941	4.336	0.492
1090.000	625.436	80.011	19.992	103.753	19.939	4.431	0.492
1092.001	626.444	80.010	19.993	103.754	19.944	4.122	0.519
1094.000	627.396	80.010	19.994	103.766	19.938	4.501	0.482
1096.000	628.437	80.010	19.994	103.755	19.945	4.020	0.513
1098.001	629.444	80.010	19.995	103.752	19.944	4.112	0.508
1100.000	630.415	80.009	19.996	103.751	19.941	4.346	0.482
1102.001	631.446	80.009	19.994	103.748	19.945	4.014	0.494
1104.000	632.413	80.009	19.995	103.747	19.942	4.275	0.502
1106.000	633.587	80.009	19.995	103.747	19.945	4.048	0.613
1108.000	634.435	80.020	19.997	103.746	19.947	3.880	0.510
1110.001	635.433	80.029	20.000	103.761	19.946	3.965	0.535
1112.000	636.497	80.029	20.000	103.753	19.947	3.882	0.559
1114.000	637.495	80.013	19.997	103.751	19.948	3.764	0.555
1116.000	638.471	80.011	19.995	103.749	19.947	3.891	0.501
1118.000	639.474	80.009	19.993	103.741	19.948	3.788	0.510
1120.000	640.483	80.011	19.996	103.744	19.950	3.651	0.484
1122.000	641.456	80.011	19.995	103.745	19.950	3.687	0.498
1124.000	642.453	80.011	19.994	103.756	19.949	3.746	0.472
1126.000	643.426	80.012	19.993	103.753	19.951	3.578	0.479
1128.000	644.378	80.010	19.993	103.745	19.948	3.798	0.453
1130.000	645.354	80.011	19.994	103.748	19.947	3.876	0.486
1132.000	646.370	80.010	19.993	103.751	19.948	3.782	0.485
1134.001	647.335	80.012	19.993	103.749	19.946	3.927	0.480
1136.000	648.337	80.011	19.993	103.750	19.948	3.814	0.499
1138.000	649.318	80.011	19.994	103.749	19.943	4.179	0.514
1140.001	650.271	80.012	19.994	103.747	19.946	3.923	0.471
1142.001	651.241	80.010	19.993	103.748	19.947	3.877	0.517
1144.000	652.227	80.011	19.993	103.749	19.945	4.016	0.503
1146.000	653.236	80.011	19.991	103.749	19.947	3.836	0.503
1148.000	654.238	80.012	19.993	103.750	19.952	3.486	0.504
1150.000	655.262	80.011	19.992	103.751	19.949	3.754	0.512
1152.001	656.238	80.012	19.993	103.750	19.950	3.641	0.479
1154.000	657.272	80.011	19.994	103.748	19.951	3.546	0.494
1156.000	658.279	80.010	19.992	103.749	19.945	4.050	0.500
1158.000	659.309	80.012	19.992	103.748	19.949	3.711	0.515
1160.000	660.318	80.012	19.992	103.749	19.944	4.058	0.514
1162.001	661.320	80.014	19.993	103.746	19.947	3.842	0.522
1164.000	662.328	80.012	19.994	103.745	19.946	3.975	0.511
1166.000	663.317	80.015	19.993	103.743	19.943	4.136	0.495
1168.001	664.296	80.014	19.994	103.743	19.946	3.929	0.498
1170.000	665.245	80.013	19.992	103.743	19.944	4.126	0.467
1172.001	666.228	80.015	19.995	103.744	19.950	3.639	0.490
1174.000	667.223	80.012	19.994	103.743	19.946	3.937	0.476
1176.000	668.178	80.010	19.992	103.744	19.955	3.316	0.490
1178.000	669.169	80.010	19.994	103.744	19.951	3.611	0.512
1180.001	670.152	80.010	19.994	103.745	19.952	3.520	0.444
1182.000	671.112	80.012	19.995	103.744	19.952	3.472	0.469
1184.000	672.112	80.011	19.994	103.740	19.947	3.874	0.479
1186.000	673.160	80.009	19.994	103.743	19.948	3.776	0.525
1188.000	674.132	80.010	19.994	103.749	19.951	3.556	0.527
1190.001	675.124	80.010	19.995	103.754	19.946	3.929	0.488
1192.000	676.185	80.010	19.992	103.750	19.948	3.780	0.456
1194.000	677.138	80.009	19.993	103.743	19.951	3.580	0.485
1196.000	678.154	80.011	19.994	103.748	19.951	3.564	0.490
1198.001	679.130	80.010	19.994	103.745	19.949	3.737	0.464
1200.000	680.114	80.010	19.996	103.747	19.950	3.631	0.466
1202.000	681.107	80.008	19.994	103.747	19.946	3.933	0.506
1204.000	682.070	80.008	19.994	103.747	19.948	3.795	0.491
1206.001	683.035	80.009	19.994	103.748	19.947	3.895	0.461
1208.000	684.070	80.009	19.994	103.744	19.949	3.717	0.507
1210.001	685.086	80.008	19.994	103.745	19.952	3.536	0.534
1212.000	686.077	80.009	19.994	103.751	19.950	3.649	0.483
1214.000	687.088	80.009	19.994	103.763	19.948	3.772	0.499
1216.000	688.104	80.009	19.994	103.760	19.947	3.871	0.525
1218.000	689.160	80.012	19.994	103.749	19.945	4.014	0.517
1220.000	690.214	80.011	19.993	103.750	19.948	3.798	0.533
1222.001	691.327	80.012	19.993	103.759	19.946	3.931	0.566
1224.000	692.383	80.011	19.993	103.752	19.940	4.373	0.537
1226.001	693.458	80.012	19.994	103.749	19.945	4.012	0.525
1228.000	694.507	80.011	19.992	103.757	19.946	3.937	0.506
1230.000	695.598	80.010	19.992	103.747	19.944	4.090	0.525
1232.001	696.722	80.012	19.994	103.755	19.941	4.312	0.551
1234.001	697.798	80.010	19.993	103.758	19.945	4.024	0.547
1236.000	698.840	80.010	19.993	103.753	19.946	3.951	0.517
1238.000	699.935	80.012	19.993	103.749	19.941	4.282	0.517
1240.000	701.011	80.011	19.992	103.755	19.945	4.046	0.538
1242.000	702.158	80.012	19.993	103.750	19.948	3.826	0.570
1244.000	703.225	80.012	19.994	103.756	19.944	4.116	0.523
1246.000	704.288	80.012	19.993	103.744	19.947	3.850	0.534
1248.000	705.401	80.012	19.992	103.748	19.947	3.890	0.545
1250.001	706.510	80.011	19.992	103.764	19.944	4.116	0.562
1252.000	707.557	80.014	19.993	103.754	19.940	4.384	0.523
1254.001	708.671	80.013	19.993	103.745	19.941	4.298	0.535
1256.000	709.765	80.012	19.992	103.743	19.948	3.794	0.577
1258.001	710.823	80.011	19.992	103.744	19.943	4.173	0.539
1260.000	711.905	80.010	19.993	103.744	19.941	4.308	0.530
1262.001	712.944	80.009	19.993	103.745	19.946	3.931	0.550
1264.000	713.986	80.010	19.992	103.746	19.950	3.615	0.506
1266.000	715.034	80.011	19.994	103.746	19.949	3.727	0.511
1268.000	716.158	80.010	19.993	103.746	19.945	4.038	0.501
1270.000	717.194	80.010	19.993	103.746	19.945	4.020	0.489
1272.000	718.274	80.010	19.994	103.745	19.949	3.736	0.521
1274.000	719.356	80.011	19.994	103.747	19.942	4.239	0.562
1276.000	720.375	80.010	19.994	103.747	19.947	3.891	0.537
1278.000	721.486	80.011	19.994	103.746	19.947	3.871	0.548
1280.000	722.490	80.009	19.994	103.747	19.952	3.496	0.527
1282.001	723.560	80.011	19.994	103.749	19.948	3.830	0.534
1284.000	724.575	80.009	19.994	103.749	19.949	3.735	0.520
1286.000	725.631	80.010	19.994	103.743	19.949	3.741	0.515
1288.001	726.669	80.010	19.993	103.751	19.946	3.935	0.523
1290.001	727.738	80.010	19.992	103.747	19.949	3.699	0.556
1292.000	728.783	80.010	19.995	103.750	19.948	3.818	0.537
1294.000	729.862	80.011	19.994	103.747	19.943	4.162	0.520
1296.000	730.887	80.010	19.995	103.746	19.945	4.056	0.513
1298.000	731.886	80.009	19.994	103.745	19.946	3.981	0.486
1300.000	732.898	80.009	19.992	103.742	19.942	4.239	0.502
1302.001	733.888	80.011	19.993	103.738	19.937	4.586	0.520
1304.000	734.916	80.012	19.995	103.743	19.942	4.243	0.512
1306.001	735.865	80.012	19.995	103.741	19.943	4.154	0.497
1308.000	736.840	80.012	19.994	103.742	19.943	4.164	0.514
1310.000	737.792	80.012	19.995	103.742	19.946	3.945	0.461
1312.000	738.794	80.011	19.994	103.743	19.946	3.963	0.504
1314.001	739.711	80.012	19.993	103.744	19.945	4.009	0.493
1316.000	740.659	80.012	19.994	103.740	19.944	4.064	0.460
1318.001	741.662	80.012	19.992	103.737	19.947	3.874	0.502
1320.001	742.607	80.012	19.994	103.739	19.944	4.120	0.480
1322.001	743.598	80.011	19.992	103.744	19.942	4.243	0.521
1324.001	744.506	80.012	19.992	103.737	19.939	4.453	0.475
1326.000	745.480	80.012	19.992	103.744	19.939	4.445	0.476