File: 01_Data/Nylon/MCC/Nylon_MCC_30K_min_220329_R1.txt
Sample ID:	C:\MCC\MCC Cal\Test\nylon_MCC_30K_min_220329_R1.txt
Sample Weight (mg):	4.58
Heating Rate (C/s):	0.5
Combustor Temp (C):	900
N2 Flow Rate (cc/min):	80
O2 Flow Rate (cc/min):	20
Calibration File:	C:\MCC\MCC Cal\Coeff1 JN10440_30_210304.txt.txt
T Correction Coefficients:	0	1.024463	0
Time Shift (s):	14
*
Time (s)	Temperature (C)	N2 flow rate (cc/min)	O2 flow rate (cc/min)	Flow Rate (cc/min)	Oxygen (%)	HRR (W/g)	Heating rate (C/s)
0.000	111.526	80.010	19.994	103.669	20.054	-0.163	-0.024
2.000	111.524	80.011	19.995	103.664	20.054	-0.134	-0.010
4.000	111.506	80.010	19.993	103.667	20.055	-0.229	-0.027
6.000	111.516	80.010	19.993	103.668	20.062	-0.694	0.028
8.000	111.520	80.011	19.993	103.662	20.055	-0.206	0.027
10.001	111.468	80.010	19.993	103.659	20.058	-0.426	-0.025
12.000	111.486	80.011	19.992	103.676	20.055	-0.220	0.009
14.000	111.488	80.012	19.993	103.704	20.057	-0.366	0.023
16.000	111.490	80.012	19.993	103.734	20.051	0.088	0.003
18.000	111.510	80.013	19.991	103.714	20.047	0.315	0.020
20.000	111.547	80.011	19.991	103.674	20.041	0.737	0.053
22.000	111.544	80.011	19.994	103.847	20.038	0.977	0.006
24.000	111.647	80.010	19.992	103.830	20.037	1.059	0.062
26.000	111.799	80.010	19.993	103.841	20.033	1.358	0.078
28.000	111.943	80.009	19.992	103.866	20.027	1.777	0.089
30.000	112.093	80.009	19.993	103.856	20.024	1.963	0.066
32.001	112.313	80.008	19.992	103.850	20.022	2.119	0.101
34.000	112.546	80.009	19.993	103.858	20.022	2.148	0.125
36.000	112.793	80.010	19.992	103.868	20.019	2.323	0.117
38.000	113.095	80.009	19.993	103.866	20.020	2.278	0.133
40.000	113.421	80.009	19.993	103.852	20.021	2.179	0.183
42.000	113.727	80.009	19.993	103.859	20.021	2.162	0.167
44.000	114.088	80.009	19.993	103.841	20.020	2.238	0.187
46.000	114.385	80.010	19.992	103.835	20.022	2.107	0.173
48.000	114.805	80.010	19.993	103.841	20.019	2.349	0.204
50.001	115.204	80.009	19.993	103.849	20.019	2.335	0.180
52.000	115.586	80.009	19.992	103.863	20.020	2.251	0.213
54.000	115.970	80.009	19.993	103.853	20.019	2.324	0.185
56.000	116.439	80.008	19.993	103.853	20.023	2.053	0.231
58.000	116.904	80.008	19.993	103.856	20.025	1.901	0.212
60.001	117.405	80.010	19.994	103.863	20.022	2.141	0.292
62.000	117.806	80.008	19.994	103.863	20.021	2.193	0.220
64.000	118.329	80.009	19.994	103.864	20.018	2.374	0.240
66.001	118.807	80.008	19.995	103.865	20.017	2.489	0.217
68.001	119.315	80.009	19.994	103.866	20.017	2.495	0.210
70.000	119.865	80.010	19.992	103.865	20.017	2.464	0.241
72.000	120.427	80.011	19.994	103.872	20.017	2.503	0.273
74.000	120.985	80.010	19.993	103.874	20.015	2.627	0.269
76.000	121.550	80.013	19.992	103.871	20.019	2.343	0.309
78.000	122.165	80.010	19.992	103.869	20.017	2.452	0.280
80.001	122.793	80.011	19.992	103.870	20.012	2.845	0.305
82.001	123.372	80.011	19.993	103.880	20.015	2.637	0.291
84.000	123.995	80.010	19.993	103.876	20.015	2.638	0.325
86.000	124.640	80.009	19.994	103.868	20.015	2.637	0.340
88.001	125.238	80.009	19.994	103.880	20.016	2.522	0.294
90.000	125.923	80.009	19.994	103.882	20.016	2.544	0.355
92.000	126.552	80.010	19.995	103.884	20.013	2.760	0.335
94.000	127.196	80.011	19.994	103.895	20.014	2.657	0.315
96.000	127.901	80.010	19.994	103.885	20.013	2.751	0.365
98.000	128.588	80.007	19.993	103.877	20.017	2.476	0.315
100.000	129.231	80.011	19.994	103.889	20.015	2.638	0.315
102.000	130.021	80.011	19.992	103.890	20.018	2.431	0.383
104.000	130.704	80.011	19.992	103.881	20.016	2.560	0.357
106.001	131.393	80.012	19.991	103.894	20.018	2.378	0.365
108.000	132.126	80.012	19.993	103.899	20.018	2.407	0.339
110.001	132.851	80.010	19.993	103.901	20.019	2.304	0.354
112.000	133.591	80.010	19.992	103.899	20.019	2.328	0.393
114.000	134.326	80.009	19.993	103.897	20.016	2.519	0.388
116.000	135.093	80.011	19.994	103.885	20.014	2.684	0.387
118.000	135.839	80.010	19.993	103.868	20.013	2.749	0.373
120.001	136.627	80.011	19.994	103.874	20.013	2.776	0.370
122.001	137.392	80.010	19.993	103.890	20.015	2.636	0.416
124.000	138.164	80.011	19.992	103.903	20.017	2.435	0.394
126.001	138.886	80.009	19.992	103.898	20.014	2.663	0.376
128.000	139.637	80.011	19.993	103.896	20.016	2.511	0.371
130.000	140.464	80.011	19.994	103.899	20.014	2.710	0.388
132.000	141.307	80.010	19.992	103.890	20.015	2.643	0.364
134.000	142.059	80.010	19.993	103.896	20.015	2.595	0.403
136.000	142.869	80.011	19.992	103.887	20.016	2.562	0.449
138.000	143.742	80.012	19.993	103.901	20.011	2.861	0.432
140.000	144.540	80.009	19.992	103.903	20.014	2.659	0.401
142.000	145.370	80.009	19.994	103.900	20.015	2.624	0.448
144.000	146.225	80.011	19.994	103.898	20.011	2.865	0.420
146.000	147.067	80.011	19.994	103.905	20.014	2.669	0.431
148.000	147.930	80.010	19.993	103.896	20.012	2.858	0.403
150.000	148.757	80.011	19.992	103.882	20.009	3.015	0.421
152.000	149.584	80.010	19.994	103.892	20.013	2.741	0.403
154.000	150.449	80.013	19.995	103.888	20.014	2.653	0.453
156.000	151.308	80.011	19.993	103.895	20.014	2.709	0.427
158.000	152.170	80.011	19.994	103.899	20.013	2.783	0.416
160.000	153.055	80.009	19.993	103.905	20.015	2.631	0.438
162.001	153.907	80.013	19.994	103.902	20.018	2.408	0.417
164.000	154.763	80.010	19.994	103.888	20.015	2.599	0.416
166.000	155.658	80.011	19.993	103.878	20.010	2.998	0.427
168.000	156.546	80.010	19.994	103.866	20.010	2.971	0.455
170.000	157.449	80.012	19.993	103.871	20.012	2.856	0.470
172.000	158.296	80.010	19.993	103.891	20.012	2.811	0.459
174.000	159.226	80.011	19.993	103.894	20.010	2.986	0.484
176.000	160.187	80.012	19.995	103.893	20.012	2.816	0.468
178.000	161.063	80.012	19.993	103.900	20.013	2.746	0.451
180.000	161.934	80.015	19.994	103.901	20.013	2.721	0.420
182.000	162.882	80.014	19.994	103.897	20.017	2.483	0.471
184.001	163.792	80.013	19.993	103.903	20.012	2.844	0.453
186.000	164.742	80.012	19.994	103.901	20.010	2.943	0.462
188.000	165.707	80.011	19.994	103.873	20.013	2.768	0.499
190.000	166.646	80.008	19.993	103.867	20.015	2.612	0.472
192.000	167.590	80.009	19.995	103.887	20.019	2.326	0.462
194.000	168.515	80.010	19.995	103.890	20.018	2.423	0.488
196.000	169.487	80.011	19.994	103.886	20.019	2.306	0.468
198.000	170.375	80.009	19.992	103.887	20.017	2.446	0.433
200.000	171.381	80.009	19.991	103.899	20.018	2.390	0.474
202.000	172.319	80.007	19.995	103.878	20.020	2.223	0.483
204.000	173.256	80.012	19.993	103.878	20.018	2.433	0.454
206.000	174.252	80.011	19.994	103.874	20.017	2.441	0.480
208.000	175.250	80.010	19.993	103.872	20.018	2.371	0.501
210.000	176.176	80.010	19.992	103.878	20.017	2.489	0.494
212.000	177.131	80.011	19.993	103.864	20.017	2.499	0.466
214.000	178.130	80.010	19.993	103.894	20.017	2.458	0.516
216.000	179.077	80.010	19.992	103.891	20.019	2.334	0.496
218.000	180.060	80.010	19.992	103.874	20.019	2.301	0.465
220.000	180.960	80.010	19.992	103.891	20.016	2.560	0.470
222.000	181.934	80.008	19.992	103.871	20.020	2.287	0.486
224.000	182.956	80.010	19.993	103.868	20.019	2.309	0.500
226.000	183.893	80.012	19.992	103.881	20.019	2.306	0.484
228.000	184.937	80.008	19.993	103.903	20.017	2.460	0.493
230.000	185.890	80.011	19.992	103.899	20.020	2.244	0.475
232.000	186.892	80.011	19.992	103.889	20.016	2.549	0.474
234.000	187.894	80.011	19.993	103.897	20.017	2.472	0.495
236.000	188.918	80.011	19.993	103.889	20.019	2.349	0.528
238.000	189.874	80.012	19.993	103.885	20.021	2.176	0.471
240.000	190.864	80.013	19.993	103.872	20.020	2.234	0.516
242.000	191.803	80.011	19.992	103.880	20.019	2.351	0.477
244.000	192.806	80.014	19.993	103.875	20.017	2.485	0.493
246.000	193.817	80.013	19.992	103.886	20.016	2.508	0.515
248.000	194.742	80.013	19.992	103.869	20.018	2.393	0.457
250.000	195.781	80.011	19.993	103.866	20.019	2.339	0.490
252.000	196.772	80.013	19.994	103.868	20.017	2.462	0.514
254.000	197.728	80.012	19.995	103.862	20.021	2.218	0.476
256.000	198.772	80.011	19.993	103.863	20.018	2.376	0.498
258.000	199.705	80.011	19.993	103.862	20.017	2.476	0.426
260.000	200.724	80.011	19.993	103.853	20.020	2.228	0.482
262.001	201.740	80.013	19.993	103.862	20.017	2.460	0.509
264.000	202.719	80.013	19.993	103.866	20.020	2.279	0.497
266.000	203.743	80.013	19.994	103.871	20.019	2.333	0.517
268.000	204.704	80.012	19.994	103.897	20.019	2.294	0.503
270.000	205.685	80.013	19.994	103.870	20.023	2.067	0.500
272.000	206.719	80.012	19.992	103.864	20.020	2.285	0.498
274.000	207.714	80.009	19.992	103.860	20.023	2.049	0.494
276.000	208.744	80.010	19.994	103.868	20.021	2.199	0.531
278.000	209.708	80.010	19.993	103.867	20.018	2.364	0.517
280.000	210.680	80.009	19.993	103.865	20.021	2.181	0.467
282.000	211.767	80.011	19.994	103.879	20.022	2.086	0.518
284.000	212.745	80.010	19.993	103.892	20.023	2.035	0.465
286.000	213.744	80.010	19.994	103.858	20.028	1.673	0.472
288.001	214.796	80.010	19.994	103.856	20.025	1.930	0.521
290.000	215.760	80.011	19.994	103.864	20.028	1.706	0.466
292.000	216.772	80.010	19.995	103.849	20.028	1.704	0.533
294.000	217.757	80.011	19.993	103.852	20.026	1.862	0.482
296.000	218.725	80.012	19.994	103.861	20.024	1.969	0.449
298.000	219.778	80.010	19.993	103.860	20.024	1.955	0.497
300.000	220.803	80.011	19.994	103.839	20.023	2.041	0.475
302.001	221.747	80.009	19.992	103.854	20.019	2.296	0.468
304.000	222.759	80.011	19.993	103.832	20.019	2.340	0.492
306.000	223.768	80.011	19.993	103.842	20.025	1.875	0.490
308.000	224.725	80.008	19.992	103.853	20.025	1.891	0.463
310.000	225.720	80.009	19.994	103.838	20.027	1.769	0.470
312.000	226.663	80.010	19.993	103.878	20.026	1.854	0.478
314.000	227.665	80.011	19.993	103.841	20.023	2.029	0.492
316.000	228.624	80.009	19.993	103.827	20.026	1.829	0.487
318.001	229.624	80.010	19.993	103.840	20.027	1.762	0.495
320.000	230.650	80.011	19.991	103.846	20.029	1.603	0.546
322.000	231.591	80.011	19.993	103.854	20.029	1.588	0.473
324.000	232.581	80.013	19.993	103.831	20.028	1.683	0.519
326.000	233.558	80.013	19.993	103.858	20.024	1.957	0.472
328.000	234.543	80.012	19.992	103.842	20.021	2.185	0.481
330.000	235.534	80.011	19.992	103.827	20.024	1.987	0.482
332.000	236.517	80.013	19.993	103.848	20.029	1.617	0.469
334.000	237.506	80.010	19.993	103.859	20.027	1.747	0.481
336.000	238.485	80.011	19.993	103.848	20.027	1.788	0.497
338.000	239.493	80.011	19.992	103.852	20.029	1.626	0.491
340.000	240.495	80.010	19.993	103.860	20.030	1.539	0.519
342.000	241.470	80.011	19.992	103.838	20.029	1.634	0.484
344.000	242.502	80.013	19.993	103.829	20.026	1.833	0.490
346.000	243.538	80.012	19.993	103.841	20.028	1.699	0.546
348.000	244.547	80.013	19.992	103.827	20.030	1.539	0.514
350.000	245.511	80.011	19.992	103.830	20.026	1.833	0.492
352.000	246.556	80.012	19.994	103.826	20.026	1.848	0.533
354.000	247.569	80.012	19.992	103.836	20.024	1.955	0.503
356.000	248.605	80.011	19.993	103.843	20.023	2.037	0.514
358.000	249.677	80.011	19.993	103.849	20.029	1.632	0.515
360.000	250.756	80.009	19.992	103.844	20.030	1.584	0.547
362.000	251.737	80.012	19.993	103.846	20.030	1.554	0.515
364.000	252.738	80.008	19.992	103.828	20.030	1.558	0.497
366.000	253.732	80.010	19.994	103.833	20.031	1.445	0.502
368.000	254.708	80.011	19.994	103.834	20.030	1.579	0.458
370.000	255.737	80.008	19.993	103.831	20.029	1.595	0.496
372.000	256.716	80.010	19.993	103.836	20.030	1.525	0.499
374.000	257.785	80.010	19.995	103.823	20.029	1.620	0.560
376.000	258.762	80.010	19.994	103.833	20.034	1.237	0.500
378.000	259.747	80.010	19.994	103.805	20.033	1.344	0.503
380.000	260.716	80.010	19.994	103.822	20.032	1.405	0.508
382.000	261.690	80.009	19.995	103.846	20.030	1.537	0.495
384.000	262.666	80.011	19.995	103.831	20.033	1.305	0.523
386.000	263.650	80.010	19.995	103.824	20.034	1.268	0.507
388.000	264.625	80.009	19.993	103.825	20.034	1.264	0.437
390.000	265.607	80.011	19.994	103.823	20.032	1.412	0.508
392.000	266.537	80.011	19.995	103.825	20.032	1.391	0.440
394.000	267.501	80.010	19.994	103.813	20.036	1.132	0.488
396.000	268.451	80.010	19.993	103.819	20.036	1.111	0.478
398.000	269.460	80.012	19.993	103.817	20.035	1.177	0.504
400.000	270.414	80.011	19.993	103.808	20.033	1.301	0.487
402.000	271.432	80.012	19.993	103.824	20.037	1.050	0.511
404.000	272.333	80.010	19.992	103.818	20.036	1.091	0.489
406.000	273.297	80.011	19.993	103.816	20.037	1.062	0.465
408.000	274.267	80.011	19.992	103.805	20.040	0.834	0.473
410.000	275.248	80.012	19.993	103.815	20.037	1.033	0.493
412.000	276.171	80.011	19.993	103.814	20.036	1.095	0.500
414.000	277.099	80.011	19.993	103.825	20.033	1.303	0.478
416.000	278.048	80.010	19.992	103.829	20.037	1.041	0.483
418.000	279.019	80.010	19.993	103.825	20.036	1.101	0.519
420.000	279.978	80.010	19.993	103.821	20.034	1.286	0.499
422.000	280.946	80.013	19.992	103.825	20.035	1.196	0.507
424.000	281.877	80.010	19.992	103.818	20.037	1.045	0.475
426.000	282.806	80.012	19.992	103.824	20.034	1.280	0.448
428.000	283.759	80.011	19.992	103.820	20.035	1.218	0.503
430.000	284.680	80.012	19.992	103.827	20.037	1.072	0.432
432.000	285.677	80.013	19.991	103.817	20.036	1.124	0.472
434.000	286.546	80.013	19.991	103.824	20.036	1.118	0.471
436.000	287.545	80.013	19.993	103.820	20.036	1.107	0.498
438.000	288.534	80.011	19.994	103.820	20.038	0.978	0.515
440.000	289.378	80.010	19.992	103.816	20.036	1.111	0.458
442.000	290.444	80.012	19.994	103.819	20.033	1.315	0.536
444.000	291.377	80.011	19.993	103.818	20.032	1.441	0.494
446.001	292.354	80.008	19.993	103.816	20.031	1.507	0.473
448.000	293.273	80.011	19.993	103.809	20.031	1.486	0.461
450.000	294.211	80.011	19.994	103.822	20.033	1.301	0.457
452.000	295.184	80.010	19.993	103.815	20.032	1.393	0.439
454.000	296.162	80.010	19.994	103.817	20.031	1.467	0.481
456.000	297.155	80.010	19.994	103.819	20.033	1.358	0.463
458.000	298.141	80.011	19.994	103.812	20.035	1.161	0.511
460.000	299.115	80.010	19.993	103.819	20.034	1.256	0.520
462.000	300.057	80.009	19.994	103.829	20.032	1.439	0.525
464.000	301.020	80.011	19.994	103.824	20.036	1.115	0.471
466.000	302.003	80.010	19.994	103.819	20.033	1.332	0.499
468.000	303.015	80.009	19.993	103.812	20.035	1.224	0.472
470.000	304.002	80.009	19.993	103.806	20.037	1.023	0.515
472.000	304.965	80.009	19.993	103.823	20.033	1.338	0.495
474.001	305.946	80.009	19.994	103.825	20.037	1.021	0.492
476.000	306.923	80.010	19.995	103.816	20.036	1.155	0.472
478.000	307.959	80.011	19.994	103.824	20.035	1.190	0.525
480.000	308.917	80.012	19.994	103.822	20.033	1.317	0.501
482.000	309.958	80.010	19.994	103.822	20.034	1.239	0.497
484.000	310.934	80.010	19.995	103.825	20.035	1.214	0.527
486.000	311.914	80.011	19.994	103.822	20.034	1.270	0.496
488.000	312.986	80.011	19.993	103.823	20.035	1.165	0.549
490.000	313.916	80.012	19.992	103.826	20.037	1.085	0.463
492.000	314.992	80.011	19.993	103.823	20.038	1.009	0.482
494.000	315.974	80.011	19.994	103.819	20.035	1.173	0.529
496.000	317.043	80.010	19.993	103.820	20.038	1.008	0.539
498.000	318.027	80.011	19.992	103.826	20.033	1.311	0.485
500.000	319.037	80.011	19.991	103.817	20.037	1.043	0.490
502.000	320.126	80.011	19.993	103.814	20.037	1.072	0.533
504.000	321.148	80.011	19.994	103.814	20.035	1.187	0.584
506.000	322.347	80.012	19.993	103.817	20.033	1.344	0.515
508.000	322.985	80.011	19.992	103.810	20.036	1.144	0.604
510.000	324.502	80.012	19.992	103.822	20.032	1.430	0.582
512.000	325.329	80.013	19.994	103.815	20.030	1.558	0.618
514.000	326.444	80.015	19.992	103.813	20.031	1.476	0.517
516.000	327.537	80.013	19.992	103.822	20.036	1.142	0.554
518.000	328.552	80.013	19.993	103.809	20.033	1.326	0.520
520.000	329.568	80.012	19.993	103.817	20.039	0.939	0.530
522.000	330.668	80.011	19.993	103.798	20.035	1.198	0.562
524.000	331.686	80.010	19.993	103.812	20.035	1.169	0.517
526.000	332.638	80.011	19.993	103.820	20.036	1.159	0.538
528.000	333.762	80.011	19.994	103.771	20.037	1.025	0.533
530.000	334.819	80.010	19.993	103.768	20.039	0.901	0.549
532.000	335.787	80.011	19.993	103.788	20.037	1.039	0.497
534.000	336.836	80.011	19.993	103.808	20.038	0.980	0.511
536.000	337.876	80.010	19.992	103.800	20.041	0.762	0.500
538.000	338.853	80.012	19.994	103.814	20.044	0.576	0.495
540.000	339.890	80.012	19.993	103.805	20.042	0.731	0.490
542.000	340.864	80.011	19.993	103.823	20.042	0.679	0.521
544.000	341.872	80.011	19.993	103.818	20.042	0.688	0.477
546.000	342.876	80.011	19.993	103.808	20.043	0.630	0.483
548.000	343.891	80.010	19.994	103.790	20.040	0.860	0.526
550.000	344.857	80.010	19.994	103.787	20.037	1.033	0.512
552.000	345.880	80.009	19.994	103.788	20.040	0.819	0.510
554.000	346.800	80.010	19.993	103.789	20.037	1.023	0.444
556.000	347.832	80.009	19.994	103.789	20.037	1.044	0.464
558.000	348.790	80.008	19.994	103.798	20.035	1.186	0.462
560.000	349.804	80.009	19.993	103.808	20.038	0.986	0.503
562.000	350.773	80.008	19.994	103.813	20.034	1.288	0.503
564.000	351.757	80.010	19.994	103.803	20.037	1.042	0.507
566.000	352.737	80.011	19.992	103.808	20.036	1.136	0.519
568.000	353.723	80.011	19.994	103.815	20.030	1.546	0.486
570.000	354.692	80.011	19.994	103.807	20.029	1.599	0.460
572.000	355.637	80.011	19.993	103.818	20.030	1.517	0.461
574.000	356.665	80.011	19.993	103.800	20.032	1.379	0.493
576.000	357.586	80.012	19.993	103.785	20.032	1.441	0.478
578.000	358.567	80.011	19.994	103.788	20.027	1.776	0.483
580.000	359.545	80.012	19.995	103.793	20.025	1.912	0.504
582.000	360.515	80.012	19.993	103.820	20.026	1.820	0.503
584.000	361.546	80.012	19.994	103.829	20.026	1.846	0.515
586.000	362.523	80.011	19.994	103.814	20.023	2.073	0.508
588.000	363.552	80.011	19.993	103.805	20.018	2.379	0.516
590.000	364.590	80.012	19.993	103.813	20.018	2.424	0.523
592.000	365.631	80.012	19.993	103.811	20.016	2.560	0.486
594.000	366.661	80.014	19.993	103.804	20.011	2.869	0.531
596.000	367.758	80.013	19.992	103.815	20.013	2.745	0.539
598.000	368.827	80.014	19.992	103.818	20.004	3.356	0.533
600.000	369.960	80.013	19.994	103.817	20.006	3.258	0.560
602.000	370.996	80.013	19.993	103.838	20.000	3.682	0.514
604.000	372.076	80.011	19.993	103.819	19.999	3.743	0.538
606.000	373.191	80.010	19.994	103.824	19.995	4.032	0.505
608.000	374.246	80.009	19.993	103.828	19.993	4.178	0.547
610.000	375.400	80.010	19.993	103.829	19.987	4.600	0.559
612.000	376.464	80.012	19.994	103.827	19.979	5.163	0.549
614.000	377.593	80.011	19.993	103.823	19.975	5.453	0.554
616.000	378.669	80.011	19.993	103.824	19.966	6.069	0.558
618.000	379.763	80.010	19.993	103.825	19.963	6.278	0.550
620.001	380.884	80.009	19.991	103.823	19.959	6.575	0.563
622.000	381.937	80.010	19.994	103.827	19.953	6.974	0.551
624.000	383.063	80.010	19.993	103.832	19.938	8.044	0.537
626.000	384.078	80.010	19.993	103.826	19.934	8.359	0.507
628.000	385.213	80.010	19.992	103.828	19.920	9.299	0.528
630.000	386.239	80.011	19.993	103.818	19.913	9.793	0.526
632.000	387.335	80.010	19.994	103.796	19.904	10.441	0.543
634.000	388.419	80.010	19.994	103.799	19.895	11.113	0.532
636.000	389.457	80.010	19.993	103.809	19.881	12.093	0.506
638.000	390.474	80.009	19.993	103.840	19.867	13.042	0.514
640.000	391.567	80.010	19.994	103.820	19.864	13.276	0.497
642.000	392.654	80.012	19.992	103.800	19.851	14.228	0.533
644.000	393.767	80.011	19.994	103.808	19.836	15.303	0.553
646.000	394.808	80.010	19.995	103.836	19.819	16.482	0.554
648.000	395.887	80.011	19.994	103.836	19.809	17.163	0.563
650.000	397.002	80.012	19.995	103.817	19.797	18.005	0.587
652.000	398.048	80.011	19.995	103.796	19.784	18.976	0.533
654.000	399.192	80.014	19.993	103.793	19.772	19.831	0.576
656.000	400.197	80.013	19.992	103.832	19.748	21.470	0.543
658.000	401.238	80.012	19.992	103.861	19.723	23.297	0.504
660.000	402.299	80.011	19.993	103.843	19.697	25.138	0.503
662.000	403.333	80.010	19.993	103.826	19.672	26.866	0.531
664.000	404.383	80.012	19.995	103.824	19.641	29.037	0.535
666.000	405.386	80.011	19.994	103.839	19.609	31.303	0.497
668.000	406.383	80.011	19.995	103.859	19.568	34.207	0.501
670.000	407.410	80.010	19.993	103.863	19.522	37.505	0.531
672.000	408.399	80.011	19.994	103.854	19.471	41.150	0.508
674.000	409.434	80.011	19.994	103.840	19.417	44.915	0.516
676.000	410.399	80.012	19.993	103.844	19.367	48.458	0.495
678.000	411.411	80.012	19.994	103.857	19.311	52.447	0.471
680.000	412.392	80.011	19.992	103.876	19.244	57.208	0.490
682.000	413.376	80.012	19.993	103.913	19.171	62.358	0.460
684.000	414.333	80.012	19.992	103.906	19.094	67.777	0.466
686.000	415.331	80.010	19.994	103.891	19.024	72.765	0.493
688.000	416.294	80.009	19.993	103.880	18.956	77.570	0.478
690.000	417.340	80.010	19.993	103.892	18.881	82.851	0.535
692.000	418.374	80.010	19.992	103.894	18.805	88.232	0.533
694.000	419.379	80.009	19.993	103.917	18.727	93.796	0.522
696.000	420.434	80.010	19.993	103.906	18.658	98.658	0.525
698.000	421.444	80.011	19.992	103.877	18.589	103.478	0.521
700.000	422.566	80.011	19.992	103.863	18.524	108.094	0.559
702.000	423.614	80.011	19.993	103.896	18.451	113.216	0.528
704.000	424.631	80.010	19.992	103.920	18.369	119.099	0.507
706.000	425.668	80.011	19.993	103.905	18.285	125.002	0.532
708.000	426.751	80.012	19.992	103.888	18.213	130.114	0.539
710.000	427.834	80.011	19.993	103.855	18.153	134.357	0.525
712.000	428.864	80.012	19.994	103.829	18.087	139.038	0.542
714.000	429.901	80.009	19.993	103.842	18.025	143.412	0.518
716.000	430.934	80.010	19.993	103.871	17.967	147.526	0.513
718.000	431.938	80.010	19.994	103.868	17.905	151.950	0.491
720.000	432.935	80.009	19.992	103.866	17.835	156.857	0.474
722.000	433.906	80.010	19.993	103.872	17.765	161.758	0.539
724.000	434.947	80.010	19.993	103.884	17.687	167.267	0.523
726.000	435.935	80.010	19.994	103.878	17.606	172.994	0.540
728.000	436.890	80.011	19.993	103.891	17.522	178.986	0.492
730.000	437.843	80.011	19.992	103.870	17.441	184.669	0.480
732.000	438.826	80.011	19.993	103.858	17.351	190.975	0.483
734.000	439.753	80.012	19.992	103.843	17.266	196.935	0.468
736.000	440.672	80.011	19.994	103.828	17.181	203.000	0.452
738.000	441.556	80.011	19.995	103.831	17.095	209.127	0.473
740.000	442.463	80.011	19.990	103.833	17.026	214.008	0.456
742.000	443.384	80.011	19.995	103.798	16.965	218.233	0.468
744.000	444.319	80.010	19.993	103.775	16.899	222.822	0.471
746.000	445.268	80.010	19.992	103.771	16.832	227.563	0.471
748.000	446.112	80.011	19.992	103.798	16.754	233.047	0.443
750.000	447.058	80.012	19.994	103.817	16.682	238.192	0.418
752.000	448.020	80.011	19.993	103.808	16.616	242.766	0.468
754.000	448.935	80.010	19.993	103.756	16.554	247.048	0.442
756.001	449.930	80.011	19.994	103.745	16.483	252.168	0.446
758.000	450.840	80.012	19.993	103.756	16.428	256.057	0.461
760.000	451.781	80.012	19.993	103.751	16.387	258.908	0.450
762.000	452.727	80.012	19.993	103.732	16.350	261.521	0.464
764.000	453.655	80.012	19.994	103.691	16.326	263.178	0.468
766.000	454.609	80.012	19.994	103.716	16.301	265.037	0.477
768.000	455.500	80.011	19.995	103.731	16.280	266.461	0.454
770.000	456.412	80.010	19.993	103.721	16.268	267.296	0.423
772.000	457.307	80.011	19.994	103.696	16.267	267.337	0.464
774.000	458.270	80.009	19.993	103.702	16.255	268.221	0.470
776.000	459.185	80.010	19.995	103.705	16.259	267.959	0.458
778.000	460.133	80.009	19.994	103.715	16.272	266.996	0.481
780.000	461.100	80.009	19.992	103.704	16.291	265.671	0.491
782.000	462.020	80.009	19.992	103.690	16.314	264.144	0.462
784.000	462.936	80.010	19.993	103.708	16.349	261.558	0.430
786.000	463.915	80.010	19.995	103.699	16.390	258.622	0.483
788.000	464.865	80.010	19.994	103.703	16.449	254.344	0.487
790.000	465.856	80.010	19.993	103.683	16.508	250.238	0.483
792.000	466.838	80.011	19.993	103.723	16.567	246.211	0.501
794.001	467.882	80.011	19.992	103.710	16.646	240.534	0.500
796.000	468.883	80.011	19.993	103.691	16.744	233.620	0.525
798.000	469.965	80.011	19.993	103.643	16.852	225.985	0.538
800.000	470.985	80.008	19.991	103.644	16.968	217.785	0.494
802.000	472.077	80.009	19.995	103.683	17.099	208.520	0.525
804.000	473.174	80.009	19.994	103.695	17.228	199.389	0.557
806.000	474.266	80.009	19.993	103.671	17.368	189.551	0.544
808.000	475.361	80.009	19.992	103.671	17.511	179.467	0.547
810.000	476.419	80.009	19.993	103.677	17.662	168.785	0.531
812.000	477.545	80.011	19.992	103.671	17.814	158.087	0.578
814.000	478.621	80.011	19.993	103.669	17.968	147.253	0.538
816.000	479.764	80.011	19.994	103.665	18.125	136.144	0.545
818.000	480.923	80.012	19.991	103.671	18.286	124.795	0.573
820.000	482.033	80.012	19.992	103.673	18.440	113.926	0.582
822.000	483.133	80.011	19.992	103.700	18.584	103.774	0.554
824.000	484.199	80.012	19.992	103.716	18.732	93.292	0.560
826.000	485.328	80.011	19.993	103.729	18.876	83.155	0.564
828.000	486.440	80.011	19.993	103.748	19.004	74.101	0.601
830.000	487.568	80.012	19.991	103.755	19.128	65.297	0.573
832.000	488.618	80.011	19.993	103.771	19.242	57.279	0.533
834.000	489.784	80.012	19.994	103.780	19.344	50.058	0.579
836.000	490.847	80.012	19.990	103.781	19.439	43.330	0.548
838.000	491.938	80.011	19.991	103.783	19.526	37.194	0.550
840.000	493.074	80.012	19.994	103.783	19.600	31.949	0.539
842.000	494.173	80.013	19.992	103.782	19.670	26.977	0.550
844.000	495.314	80.013	19.993	103.784	19.726	23.071	0.597
846.000	496.400	80.014	19.993	103.784	19.780	19.246	0.538
848.000	497.535	80.014	19.991	103.776	19.823	16.145	0.561
850.000	498.613	80.012	19.992	103.777	19.859	13.648	0.552
852.000	499.653	80.011	19.993	103.783	19.892	11.329	0.522
854.000	500.799	80.011	19.994	103.780	19.919	9.374	0.557
856.000	501.869	80.012	19.994	103.770	19.938	8.018	0.543
858.000	502.930	80.010	19.994	103.748	19.957	6.710	0.530
860.001	504.011	80.010	19.993	103.747	19.970	5.802	0.533
862.000	505.059	80.010	19.996	103.754	19.981	5.020	0.520
864.000	506.124	80.011	19.993	103.756	19.992	4.218	0.541
866.000	507.168	80.011	19.994	103.755	19.996	3.981	0.512
868.000	508.225	80.012	19.995	103.746	20.005	3.335	0.527
870.000	509.269	80.012	19.994	103.745	20.011	2.900	0.518
872.000	510.331	80.012	19.994	103.739	20.014	2.713	0.521
874.000	511.355	80.010	19.991	103.740	20.020	2.247	0.545
876.000	512.371	80.011	19.992	103.738	20.024	1.994	0.519
878.000	513.424	80.011	19.992	103.740	20.023	2.042	0.533
880.000	514.533	80.010	19.994	103.740	20.026	1.842	0.555
882.000	515.570	80.010	19.993	103.717	20.025	1.883	0.507
884.000	516.618	80.010	19.993	103.733	20.028	1.712	0.476
886.000	517.711	80.009	19.993	103.734	20.030	1.574	0.538
888.000	518.754	80.010	19.994	103.723	20.030	1.522	0.534
890.000	519.792	80.010	19.994	103.722	20.031	1.502	0.526
892.000	520.824	80.011	19.992	103.718	20.032	1.432	0.520
894.000	521.851	80.011	19.993	103.720	20.035	1.180	0.508
896.000	522.879	80.012	19.992	103.716	20.031	1.444	0.523
898.000	523.898	80.011	19.992	103.716	20.035	1.162	0.506
900.000	524.925	80.012	19.993	103.713	20.033	1.304	0.530
902.000	525.960	80.012	19.994	103.708	20.033	1.300	0.509
904.000	526.966	80.012	19.992	103.715	20.036	1.098	0.499
906.000	527.989	80.011	19.993	103.730	20.034	1.273	0.516
908.000	529.057	80.012	19.993	103.716	20.035	1.186	0.525
910.000	530.072	80.010	19.994	103.728	20.037	1.061	0.505
912.000	531.105	80.011	19.992	103.742	20.035	1.180	0.527
914.000	532.082	80.013	19.992	103.740	20.037	1.042	0.520
916.000	533.136	80.012	19.993	103.744	20.037	1.050	0.500
918.000	534.112	80.010	19.993	103.745	20.038	0.997	0.500
920.000	535.148	80.012	19.991	103.743	20.037	1.054	0.514
922.000	536.181	80.013	19.994	103.758	20.038	0.970	0.507
924.000	537.212	80.013	19.993	103.753	20.039	0.931	0.527
926.000	538.170	80.012	19.993	103.750	20.039	0.931	0.483
928.000	539.170	80.011	19.992	103.745	20.037	1.044	0.497
930.000	540.234	80.013	19.992	103.742	20.038	1.011	0.517
932.001	541.235	80.012	19.993	103.753	20.038	1.003	0.494
934.000	542.226	80.011	19.993	103.751	20.040	0.836	0.478
936.000	543.260	80.010	19.993	103.755	20.037	1.040	0.503
938.000	544.221	80.010	19.993	103.748	20.041	0.748	0.490
940.000	545.238	80.011	19.993	103.758	20.039	0.945	0.502
942.000	546.245	80.010	19.994	103.766	20.034	1.277	0.514
944.000	547.215	80.010	19.992	103.749	20.032	1.376	0.500
946.000	548.252	80.010	19.994	103.754	20.035	1.198	0.474
948.000	549.249	80.009	19.992	103.748	20.034	1.299	0.522
950.000	550.249	80.010	19.993	103.751	20.035	1.182	0.499
952.000	551.259	80.010	19.993	103.753	20.033	1.304	0.486
954.000	552.266	80.009	19.994	103.762	20.038	0.988	0.517
956.000	553.281	80.010	19.993	103.776	20.037	1.023	0.492
958.000	554.292	80.011	19.993	103.766	20.041	0.803	0.502
960.000	555.359	80.010	19.994	103.768	20.041	0.745	0.542
962.000	556.363	80.010	19.994	103.771	20.038	0.980	0.495
964.000	557.349	80.011	19.994	103.748	20.043	0.605	0.504
966.000	558.395	80.009	19.994	103.754	20.044	0.581	0.546
968.000	559.493	80.010	19.994	103.760	20.042	0.727	0.560
970.000	560.515	80.006	19.993	103.751	20.045	0.500	0.501
972.000	561.558	80.010	19.995	103.755	20.040	0.838	0.534
974.000	562.574	80.011	19.995	103.746	20.038	0.978	0.504
976.000	563.591	80.012	19.993	103.748	20.038	0.976	0.489
978.000	564.638	80.013	19.992	103.742	20.043	0.645	0.519
980.000	565.633	80.010	19.993	103.742	20.040	0.824	0.520
982.000	566.704	80.015	19.995	103.745	20.043	0.651	0.525
984.000	567.718	80.013	19.993	103.752	20.042	0.677	0.515
986.000	568.721	80.013	19.992	103.746	20.043	0.616	0.501
988.000	569.745	80.013	19.993	103.745	20.044	0.542	0.492
990.000	570.735	80.013	19.993	103.761	20.040	0.809	0.477
992.000	571.840	80.012	19.993	103.753	20.041	0.791	0.537
994.000	572.837	80.011	19.993	103.757	20.044	0.593	0.494
996.000	573.883	80.011	19.993	103.758	20.041	0.752	0.562
998.000	574.958	80.010	19.994	103.749	20.041	0.750	0.570
1000.000	576.029	80.011	19.993	103.751	20.046	0.393	0.546
1002.000	577.022	80.011	19.993	103.753	20.042	0.729	0.517
1004.000	578.039	80.012	19.992	103.752	20.041	0.791	0.512
1006.000	579.065	80.013	19.993	103.756	20.045	0.469	0.499
1008.000	580.082	80.014	19.992	103.753	20.044	0.585	0.520
1010.000	581.175	80.013	19.992	103.758	20.047	0.342	0.546
1012.000	582.201	80.013	19.992	103.751	20.044	0.562	0.511
1014.000	583.227	80.013	19.992	103.754	20.042	0.671	0.489
1016.000	584.243	80.011	19.991	103.755	20.043	0.653	0.479
1018.000	585.306	80.012	19.992	103.776	20.041	0.762	0.519
1020.000	586.352	80.011	19.993	103.760	20.041	0.774	0.518
1022.000	587.406	80.011	19.992	103.746	20.045	0.484	0.495
1024.000	588.452	80.009	19.994	103.753	20.041	0.743	0.532
1026.000	589.457	80.011	19.992	103.754	20.041	0.793	0.512
1028.000	590.491	80.011	19.994	103.750	20.043	0.628	0.506
1030.000	591.556	80.010	19.993	103.749	20.043	0.653	0.528
1032.000	592.561	80.011	19.994	103.746	20.040	0.849	0.539
1034.000	593.634	80.012	19.993	103.745	20.041	0.781	0.510
1036.001	594.695	80.011	19.994	103.746	20.036	1.116	0.546
1038.001	595.773	80.012	19.992	103.751	20.038	0.982	0.529
1040.000	596.767	80.013	19.991	103.754	20.041	0.754	0.491
1042.000	597.873	80.012	19.994	103.751	20.041	0.777	0.555
1044.000	598.860	80.010	19.993	103.746	20.038	0.966	0.505
1046.001	599.920	80.010	19.994	103.760	20.042	0.676	0.492
1048.000	600.965	80.012	19.994	103.761	20.040	0.844	0.512
1050.000	601.959	80.011	19.994	103.748	20.040	0.861	0.509
1052.000	603.015	80.011	19.993	103.734	20.042	0.709	0.536
1054.001	604.019	80.011	19.994	103.756	20.043	0.638	0.520
1056.000	605.103	80.010	19.994	103.756	20.039	0.933	0.530
1058.000	606.135	80.011	19.993	103.747	20.038	0.960	0.510
1060.001	607.151	80.010	19.994	103.745	20.040	0.875	0.519
1062.000	608.178	80.009	19.994	103.746	20.038	1.011	0.502
1064.000	609.178	80.009	19.994	103.746	20.038	1.009	0.514
1066.000	610.198	80.012	19.993	103.745	20.042	0.669	0.531
1068.001	611.239	80.013	19.993	103.745	20.038	0.952	0.506
1070.000	612.258	80.012	19.993	103.747	20.042	0.725	0.545
1072.000	613.267	80.013	19.994	103.747	20.041	0.768	0.480
1074.001	614.289	80.011	19.994	103.757	20.038	0.958	0.528
1076.000	615.305	80.011	19.992	103.760	20.041	0.760	0.532
1078.000	616.323	80.008	19.993	103.754	20.042	0.696	0.503
1080.000	617.363	80.010	19.993	103.750	20.041	0.776	0.504
1082.000	618.434	80.010	19.992	103.757	20.043	0.634	0.538
1084.000	619.471	80.010	19.992	103.751	20.042	0.709	0.534
1086.001	620.514	80.013	19.992	103.751	20.040	0.873	0.540
1088.000	621.488	80.012	19.991	103.749	20.041	0.776	0.489
1090.000	622.548	80.013	19.994	103.746	20.041	0.758	0.518
1092.000	623.577	80.014	19.994	103.753	20.043	0.605	0.551
1094.000	624.592	80.012	19.994	103.750	20.039	0.906	0.515
1096.000	625.602	80.015	19.993	103.745	20.043	0.645	0.533
1098.000	626.615	80.013	19.994	103.744	20.042	0.709	0.527
1100.000	627.642	80.011	19.992	103.746	20.046	0.447	0.534
1102.000	628.615	80.011	19.994	103.752	20.043	0.610	0.490
1104.001	629.664	80.010	19.993	103.739	20.044	0.589	0.510
1106.000	630.683	80.009	19.992	103.745	20.039	0.943	0.523
1108.000	631.697	80.011	19.993	103.747	20.039	0.900	0.513
1110.000	632.699	80.013	19.993	103.748	20.042	0.682	0.495
1112.000	633.752	80.011	19.992	103.751	20.044	0.552	0.527
1114.000	634.705	80.013	19.993	103.747	20.047	0.348	0.483
1116.000	635.736	80.010	19.993	103.752	20.041	0.787	0.534
1118.000	636.738	80.010	19.995	103.750	20.044	0.579	0.501
1120.000	637.702	80.012	19.994	103.746	20.043	0.595	0.496
1122.000	638.708	80.008	19.993	103.747	20.042	0.715	0.492
1124.000	639.704	80.011	19.994	103.747	20.044	0.523	0.501
1126.000	640.688	80.010	19.994	103.746	20.044	0.538	0.490
1128.000	641.734	80.008	19.994	103.745	20.048	0.249	0.540
1130.000	642.698	80.008	19.994	103.747	20.045	0.472	0.489
1132.000	643.660	80.010	19.994	103.753	20.041	0.744	0.455
1134.000	644.684	80.010	19.993	103.743	20.044	0.575	0.525
1136.000	645.675	80.008	19.992	103.750	20.039	0.908	0.485
1138.001	646.679	80.011	19.994	103.748	20.042	0.715	0.509
1140.000	647.744	80.011	19.993	103.743	20.041	0.776	0.500
1142.000	648.780	80.011	19.993	103.743	20.044	0.587	0.523
1144.000	649.794	80.012	19.994	103.750	20.041	0.766	0.502
1146.000	650.789	80.009	19.994	103.753	20.042	0.729	0.494
1148.001	651.804	80.011	19.993	103.759	20.039	0.906	0.490
1150.001	652.793	80.011	19.993	103.753	20.042	0.671	0.487
1152.000	653.827	80.010	19.994	103.748	20.040	0.847	0.543
1154.000	654.810	80.010	19.993	103.748	20.044	0.546	0.498
1156.000	655.887	80.011	19.994	103.750	20.038	0.972	0.524
1158.000	656.863	80.011	19.994	103.762	20.046	0.414	0.489
1160.000	657.858	80.009	19.992	103.742	20.047	0.328	0.536
1162.001	658.883	80.011	19.994	103.749	20.046	0.449	0.514
1164.000	659.860	80.013	19.995	103.748	20.040	0.840	0.506
1166.001	660.837	80.011	19.993	103.745	20.041	0.776	0.492
1168.000	661.862	80.013	19.993	103.742	20.042	0.698	0.513
1170.000	662.875	80.011	19.993	103.746	20.041	0.805	0.514
1172.001	663.870	80.011	19.993	103.745	20.041	0.743	0.532
1174.000	664.868	80.014	19.993	103.745	20.040	0.871	0.519
1176.000	665.861	80.012	19.993	103.736	20.040	0.847	0.469
1178.000	666.810	80.013	19.993	103.752	20.041	0.774	0.480
1180.000	667.794	80.012	19.994	103.749	20.044	0.525	0.485
1182.000	668.776	80.012	19.993	103.741	20.042	0.673	0.500
1184.001	669.778	80.010	19.993	103.745	20.038	0.984	0.510
1186.000	670.789	80.011	19.993	103.745	20.036	1.096	0.482
1188.000	671.800	80.011	19.993	103.742	20.039	0.904	0.493
1190.001	672.801	80.008	19.994	103.746	20.040	0.822	0.499
1192.000	673.774	80.011	19.994	103.753	20.040	0.867	0.469
1194.001	674.816	80.012	19.994	103.747	20.041	0.772	0.499
1196.000	675.810	80.011	19.993	103.746	20.039	0.935	0.509
1198.000	676.784	80.010	19.993	103.743	20.040	0.826	0.465
1200.000	677.867	80.010	19.992	103.747	20.045	0.486	0.510
1202.000	678.948	80.011	19.992	103.749	20.042	0.717	0.534
1204.001	679.960	80.011	19.991	103.749	20.040	0.807	0.543
1206.001	681.050	80.012	19.992	103.751	20.042	0.713	0.545
1208.000	682.039	80.011	19.991	103.746	20.043	0.603	0.521
1210.000	683.112	80.013	19.992	103.748	20.048	0.309	0.526
1212.000	684.154	80.012	19.991	103.750	20.041	0.789	0.537
1214.000	685.180	80.012	19.993	103.748	20.041	0.783	0.513
1216.001	686.228	80.010	19.994	103.749	20.050	0.134	0.541
1218.000	687.238	80.010	19.993	103.751	20.046	0.387	0.522
1220.000	688.288	80.008	19.992	103.756	20.043	0.661	0.488
1222.000	689.319	80.009	19.995	103.749	20.045	0.488	0.553
1224.001	690.313	80.009	19.995	103.750	20.046	0.398	0.500
1226.000	691.311	80.012	19.994	103.750	20.046	0.397	0.489
1228.000	692.351	80.013	19.994	103.747	20.045	0.457	0.521
1230.000	693.368	80.014	19.994	103.746	20.048	0.274	0.526
1232.001	694.355	80.014	19.995	103.747	20.045	0.492	0.515
1234.000	695.360	80.012	19.993	103.747	20.045	0.498	0.502
1236.000	696.344	80.012	19.993	103.743	20.045	0.505	0.473
1238.001	697.365	80.012	19.994	103.740	20.041	0.801	0.497
1240.001	698.323	80.013	19.994	103.740	20.042	0.721	0.423
1242.000	699.317	80.012	19.993	103.746	20.046	0.402	0.477
1244.000	700.341	80.011	19.994	103.746	20.042	0.671	0.486
1246.000	701.346	80.012	19.994	103.742	20.040	0.847	0.490
1248.000	702.399	80.013	19.994	103.744	20.038	0.964	0.505
1250.000	703.427	80.013	19.994	103.740	20.038	0.952	0.533
1252.000	704.408	80.012	19.994	103.741	20.031	1.471	0.499
1254.000	705.405	80.014	19.995	103.740	20.039	0.919	0.493
1256.001	706.440	80.015	19.994	103.744	20.039	0.902	0.536
1258.000	707.453	80.014	19.993	103.742	20.039	0.931	0.490
1260.000	708.496	80.013	19.994	103.743	20.040	0.807	0.485
1262.000	709.526	80.011	19.992	103.744	20.043	0.606	0.507
1264.000	710.536	80.010	19.993	103.749	20.040	0.834	0.480
1266.000	711.575	80.010	19.993	103.751	20.034	1.250	0.488
1268.000	712.626	80.011	19.992	103.750	20.041	0.775	0.499
1270.000	713.642	80.010	19.993	103.750	20.038	0.952	0.504
1272.000	714.697	80.012	19.992	103.751	20.039	0.919	0.516
1274.001	715.771	80.013	19.993	103.740	20.039	0.947	0.528
1276.000	716.809	80.011	19.994	103.749	20.040	0.832	0.496
1278.000	717.848	80.010	19.992	103.740	20.034	1.279	0.519
1280.000	718.859	80.009	19.991	103.739	20.036	1.088	0.493
1282.000	719.890	80.010	19.994	103.747	20.036	1.108	0.509
1284.001	720.897	80.009	19.995	103.750	20.039	0.906	0.527
1286.000	721.872	80.010	19.994	103.739	20.034	1.248	0.468
1288.000	722.927	80.011	19.993	103.744	20.033	1.353	0.557
1290.000	723.925	80.009	19.994	103.748	20.036	1.141	0.498
1292.001	724.929	80.013	19.993	103.738	20.035	1.176	0.536
1294.000	725.898	80.010	19.993	103.748	20.036	1.120	0.497
1296.000	726.974	80.009	19.992	103.749	20.038	0.984	0.524
1298.001	727.996	80.012	19.995	103.756	20.039	0.927	0.525
1300.000	728.991	80.008	19.993	103.748	20.037	1.085	0.505
1302.000	729.999	80.009	19.993	103.747	20.039	0.921	0.517
1304.001	730.987	80.010	19.993	103.748	20.037	1.018	0.456
1306.002	732.047	80.010	19.993	103.753	20.035	1.178	0.504
1308.000	733.030	80.012	19.994	103.750	20.034	1.234	0.485
1310.001	734.112	80.013	19.994	103.747	20.035	1.207	0.535
1312.000	735.130	80.012	19.994	103.747	20.038	0.997	0.490
1314.000	736.179	80.012	19.993	103.746	20.034	1.267	0.538
1316.000	737.129	80.012	19.993	103.729	20.035	1.166	0.511
1318.000	738.168	80.012	19.994	103.741	20.035	1.195	0.511
1320.000	739.182	80.011	19.992	103.744	20.033	1.320	0.499
1322.000	740.180	80.012	19.994	103.743	20.034	1.269	0.491
1324.000	741.222	80.011	19.993	103.736	20.036	1.127	0.466
1326.000	742.240	80.009	19.993	103.737	20.033	1.355	0.540
1328.000	743.187	80.010	19.994	103.731	20.032	1.380	0.481
1329.000	743.701	80.011	19.994	103.737	20.035	1.184	0.498