File: 01_Data/Nylon/MCC/Nylon_MCC_30K_min_220330_R3.txt
Sample ID:	C:\MCC\MCC Cal\Test\Nylon_MCC_30K_min_220330_R3.txt
Sample Weight (mg):	4.31
Heating Rate (C/s):	0.5
Combustor Temp (C):	900
N2 Flow Rate (cc/min):	80
O2 Flow Rate (cc/min):	20
Calibration File:	C:\MCC\MCC Cal\Coeff1 JN10440_30_210304.txt.txt
T Correction Coefficients:	0	1.024463	0
Time Shift (s):	14
*
Time (s)	Temperature (C)	N2 flow rate (cc/min)	O2 flow rate (cc/min)	Flow Rate (cc/min)	Oxygen (%)	HRR (W/g)	Heating rate (C/s)
0.000	106.570	80.016	19.998	103.687	20.070	0.178	-0.010
2.000	106.526	80.010	19.999	103.669	20.070	0.222	-0.033
4.000	106.606	80.015	19.995	103.677	20.063	0.731	0.006
6.000	106.543	80.015	19.994	103.680	20.069	0.289	-0.015
8.000	106.536	80.015	19.993	103.694	20.070	0.231	-0.012
10.000	106.558	80.008	19.997	103.703	20.076	-0.283	-0.014
12.000	106.534	80.006	19.993	103.705	20.069	0.278	-0.008
14.000	106.628	80.016	19.989	103.718	20.063	0.702	0.010
16.000	106.607	80.009	19.993	103.741	20.062	0.776	0.001
18.000	106.630	80.012	19.994	103.759	20.055	1.347	-0.002
20.000	106.768	80.010	19.992	103.800	20.053	1.506	0.071
22.001	106.839	80.005	19.998	103.762	20.048	1.816	0.049
24.000	106.954	80.014	19.991	103.746	20.048	1.877	0.036
26.000	107.086	80.008	19.994	103.885	20.046	2.016	0.029
28.000	107.263	80.006	19.996	103.905	20.044	2.123	0.090
30.000	107.414	80.010	19.995	103.841	20.043	2.208	0.070
32.000	107.652	80.009	19.996	103.834	20.044	2.148	0.101
34.000	107.930	80.012	19.997	103.851	20.037	2.651	0.134
36.000	108.191	80.005	19.995	103.863	20.036	2.736	0.154
38.000	108.494	80.007	19.990	103.876	20.032	3.073	0.147
40.000	108.809	80.010	19.995	103.884	20.033	2.977	0.166
42.001	109.178	80.014	19.994	103.895	20.033	2.992	0.183
44.000	109.567	80.010	19.994	103.897	20.030	3.204	0.214
46.000	109.969	80.015	19.991	103.897	20.034	2.872	0.214
48.001	110.379	80.010	19.994	103.888	20.031	3.125	0.214
50.000	110.828	80.013	19.992	103.877	20.030	3.217	0.228
52.000	111.258	80.017	19.992	103.890	20.030	3.229	0.237
54.000	111.770	80.011	19.995	103.897	20.032	3.051	0.276
56.000	112.256	80.014	19.995	103.898	20.035	2.866	0.266
58.001	112.765	80.010	19.995	103.898	20.030	3.238	0.246
60.001	113.320	80.009	19.997	103.899	20.028	3.365	0.315
62.000	113.838	80.019	19.984	103.903	20.030	3.242	0.275
64.000	114.399	80.015	19.990	103.919	20.026	3.477	0.263
66.000	115.021	80.013	19.987	103.911	20.026	3.509	0.312
68.000	115.636	80.011	20.003	103.910	20.032	3.043	0.340
70.000	116.202	80.013	19.993	103.919	20.026	3.534	0.300
72.000	116.844	80.013	19.997	103.924	20.026	3.541	0.319
74.000	117.479	80.013	19.993	103.916	20.028	3.342	0.329
76.000	118.155	80.011	19.992	103.928	20.027	3.403	0.355
78.000	118.804	80.012	19.991	103.917	20.031	3.158	0.300
80.000	119.515	80.013	19.991	103.922	20.027	3.430	0.328
82.000	120.229	80.014	19.996	103.916	20.030	3.228	0.366
84.000	120.956	80.012	19.992	103.911	20.029	3.266	0.373
86.000	121.704	80.015	19.990	103.935	20.031	3.120	0.362
88.000	122.416	80.014	19.991	103.935	20.025	3.559	0.356
90.000	123.216	80.013	19.994	103.929	20.023	3.725	0.410
92.000	123.970	80.012	19.993	103.920	20.026	3.490	0.419
94.000	124.795	80.014	19.992	103.937	20.024	3.683	0.414
96.000	125.601	80.012	19.991	103.938	20.027	3.436	0.416
98.000	126.391	80.013	19.995	103.932	20.029	3.271	0.434
100.000	127.221	80.014	19.995	103.920	20.025	3.551	0.427
102.000	128.017	80.020	19.995	103.929	20.026	3.532	0.411
104.000	128.805	80.012	19.989	103.926	20.031	3.162	0.406
106.000	129.722	80.008	19.994	103.926	20.029	3.316	0.456
108.000	130.533	80.010	19.995	103.920	20.028	3.374	0.440
110.000	131.308	80.006	20.000	103.928	20.027	3.457	0.416
112.000	132.204	80.010	19.991	103.935	20.027	3.411	0.435
114.001	133.062	80.011	19.994	103.930	20.028	3.346	0.433
116.000	133.962	80.009	19.995	103.939	20.027	3.430	0.448
118.001	134.847	80.011	19.993	103.938	20.029	3.288	0.442
120.000	135.770	80.014	19.990	103.940	20.026	3.507	0.475
122.000	136.671	80.012	19.994	103.939	20.027	3.397	0.475
124.000	137.547	80.011	19.992	103.931	20.031	3.143	0.463
126.000	138.458	80.009	19.993	103.927	20.029	3.244	0.453
128.000	139.381	80.010	19.995	103.935	20.032	3.076	0.450
130.000	140.334	80.011	19.994	103.926	20.031	3.143	0.503
132.000	141.219	80.012	19.996	103.934	20.030	3.234	0.496
134.000	142.139	80.013	19.996	103.934	20.035	2.811	0.451
136.000	143.068	80.015	19.994	103.918	20.033	2.960	0.459
138.000	144.026	80.009	19.997	103.917	20.032	3.059	0.471
140.000	144.960	80.012	19.998	103.926	20.028	3.344	0.469
142.000	145.936	80.010	19.995	103.923	20.032	3.042	0.482
144.000	146.858	80.013	19.993	103.906	20.033	2.961	0.456
146.000	147.760	80.013	19.992	103.914	20.031	3.130	0.457
148.000	148.735	80.013	19.994	103.929	20.033	2.945	0.505
150.000	149.697	80.014	19.992	103.918	20.032	3.037	0.457
152.000	150.598	80.013	19.990	103.915	20.039	2.554	0.475
154.000	151.527	80.012	19.994	103.905	20.036	2.720	0.452
156.000	152.492	80.009	19.996	103.915	20.037	2.714	0.455
158.000	153.486	80.015	19.994	103.921	20.035	2.830	0.485
160.000	154.372	80.010	19.995	103.932	20.040	2.458	0.448
162.000	155.336	80.025	19.998	103.921	20.036	2.774	0.474
164.000	156.325	80.015	19.992	103.924	20.037	2.672	0.468
166.000	157.272	80.013	19.995	103.923	20.035	2.824	0.480
168.000	158.247	80.012	19.991	103.915	20.035	2.840	0.490
170.001	159.226	80.014	19.992	103.910	20.036	2.741	0.497
172.000	160.159	80.010	19.992	103.909	20.033	2.982	0.496
174.000	161.117	80.015	19.993	103.898	20.038	2.639	0.499
176.000	162.069	80.013	19.988	103.897	20.032	3.017	0.474
178.000	162.999	80.015	19.992	103.898	20.035	2.841	0.456
180.000	163.950	80.011	19.994	103.900	20.036	2.728	0.488
182.000	164.936	80.013	19.993	103.901	20.039	2.526	0.493
184.000	165.915	80.008	19.992	103.901	20.036	2.784	0.453
186.000	166.885	80.012	19.992	103.905	20.038	2.609	0.484
188.000	167.814	80.013	19.992	103.906	20.039	2.535	0.472
190.000	168.797	80.012	19.993	103.900	20.036	2.745	0.516
192.000	169.742	80.011	19.993	103.896	20.041	2.406	0.427
194.000	170.787	80.011	19.995	103.898	20.039	2.491	0.500
196.000	171.743	80.014	19.993	103.896	20.040	2.470	0.488
198.000	172.686	80.013	20.000	103.897	20.039	2.524	0.512
200.000	173.682	80.012	19.993	103.896	20.040	2.454	0.453
202.000	174.652	80.011	19.996	103.900	20.041	2.400	0.470
204.000	175.655	80.010	19.995	103.899	20.045	2.102	0.493
206.000	176.631	80.013	19.996	103.900	20.045	2.102	0.515
208.000	177.597	80.012	19.992	103.897	20.043	2.233	0.507
210.000	178.580	80.012	19.993	103.898	20.042	2.310	0.492
212.000	179.581	80.016	19.994	103.897	20.042	2.312	0.488
214.000	180.546	80.009	20.002	103.900	20.040	2.472	0.494
216.000	181.536	80.013	19.988	103.900	20.046	1.984	0.450
218.000	182.534	80.010	19.998	103.905	20.044	2.187	0.489
220.000	183.513	80.011	19.994	103.900	20.045	2.094	0.518
222.000	184.533	80.013	19.998	103.898	20.046	1.977	0.492
224.000	185.550	80.013	19.994	103.895	20.046	2.023	0.502
226.000	186.516	80.011	19.993	103.900	20.042	2.277	0.507
228.000	187.489	80.017	19.992	103.899	20.047	1.908	0.525
230.000	188.541	80.021	19.993	103.897	20.048	1.888	0.499
232.000	189.506	80.005	19.995	103.899	20.045	2.056	0.480
234.000	190.497	80.017	19.996	103.890	20.048	1.832	0.521
236.000	191.433	80.009	19.999	103.895	20.044	2.179	0.456
238.000	192.413	80.006	19.997	103.888	20.046	1.992	0.495
240.000	193.424	80.006	19.991	103.874	20.046	1.994	0.525
242.000	194.416	80.012	19.992	103.881	20.046	1.994	0.509
244.000	195.392	80.008	20.005	103.894	20.047	1.908	0.475
246.000	196.385	80.011	19.988	103.891	20.045	2.087	0.486
248.000	197.361	80.012	19.996	103.896	20.045	2.102	0.480
250.000	198.366	80.015	19.984	103.885	20.045	2.066	0.484
252.000	199.341	80.016	19.990	103.890	20.046	1.983	0.479
254.001	200.316	80.015	19.993	103.884	20.044	2.168	0.485
256.000	201.346	80.014	19.992	103.880	20.045	2.085	0.527
258.001	202.302	80.017	19.993	103.891	20.045	2.108	0.501
260.000	203.282	80.007	19.996	103.884	20.044	2.123	0.481
262.000	204.281	80.007	19.997	103.876	20.048	1.832	0.504
264.000	205.288	80.014	19.994	103.880	20.046	1.977	0.498
266.000	206.247	80.013	19.997	103.874	20.051	1.649	0.488
268.000	207.211	80.011	19.993	103.883	20.048	1.825	0.477
270.000	208.259	80.014	19.989	103.890	20.047	1.936	0.521
272.000	209.222	80.007	19.993	103.883	20.048	1.834	0.508
274.000	210.226	80.010	19.991	103.872	20.047	1.925	0.488
276.000	211.209	80.011	19.993	103.867	20.048	1.869	0.518
278.000	212.191	80.011	19.995	103.872	20.049	1.800	0.521
280.000	213.165	80.010	19.993	103.880	20.045	2.102	0.513
282.000	214.128	80.024	19.993	103.899	20.049	1.811	0.451
284.000	215.115	80.009	19.986	103.878	20.047	1.894	0.495
286.000	216.145	80.013	19.994	103.886	20.048	1.835	0.493
288.000	217.130	80.010	19.997	103.868	20.049	1.756	0.534
290.000	218.103	80.010	19.995	103.884	20.050	1.690	0.465
292.000	219.140	80.015	19.992	103.870	20.048	1.821	0.523
294.000	220.110	80.013	19.993	103.883	20.051	1.596	0.529
296.000	221.066	80.010	19.993	103.875	20.052	1.551	0.473
298.000	222.121	80.011	19.994	103.864	20.045	2.066	0.536
300.000	223.115	80.015	19.990	103.861	20.049	1.779	0.512
302.000	224.078	80.010	19.995	103.860	20.048	1.852	0.453
304.000	225.130	80.011	19.994	103.858	20.050	1.700	0.541
306.000	226.104	80.010	19.993	103.862	20.050	1.727	0.514
308.000	227.091	80.013	19.986	103.858	20.047	1.900	0.506
310.000	228.072	80.013	19.993	103.863	20.051	1.600	0.510
312.000	229.070	80.015	19.992	103.860	20.047	1.904	0.458
314.000	230.055	80.013	19.994	103.858	20.053	1.459	0.473
316.000	231.021	80.013	19.995	103.839	20.052	1.555	0.483
318.000	232.048	80.013	19.993	103.846	20.057	1.168	0.524
320.000	232.966	80.013	19.995	103.853	20.052	1.528	0.472
322.000	233.961	80.016	19.993	103.852	20.059	1.033	0.522
324.001	234.958	80.016	19.994	103.856	20.054	1.417	0.471
326.000	235.915	80.011	19.994	103.853	20.058	1.116	0.484
328.000	236.920	80.013	19.994	103.848	20.061	0.861	0.511
330.000	237.911	80.014	19.990	103.850	20.054	1.365	0.515
332.000	238.896	80.011	19.991	103.848	20.058	1.135	0.487
334.000	239.845	80.015	19.997	103.847	20.056	1.237	0.508
336.000	240.858	80.012	19.989	103.851	20.053	1.463	0.498
338.000	241.830	80.017	19.992	103.860	20.052	1.563	0.471
340.000	242.861	80.012	19.993	103.853	20.052	1.571	0.494
342.000	243.872	80.025	19.994	103.840	20.054	1.436	0.530
344.000	244.827	80.009	20.000	103.851	20.057	1.143	0.495
346.000	245.867	80.011	19.992	103.845	20.055	1.299	0.508
348.000	246.880	80.012	19.992	103.845	20.053	1.509	0.499
350.000	247.903	80.012	19.992	103.857	20.055	1.315	0.498
352.000	248.964	80.008	19.993	103.864	20.053	1.494	0.552
354.000	250.032	80.012	19.991	103.850	20.053	1.480	0.548
356.000	251.111	80.010	19.991	103.850	20.053	1.480	0.511
358.000	252.067	80.010	19.994	103.835	20.058	1.064	0.508
360.000	253.051	80.010	19.993	103.845	20.052	1.556	0.473
362.000	254.051	80.016	19.988	103.831	20.051	1.650	0.508
364.000	255.045	80.011	19.989	103.835	20.057	1.155	0.493
366.000	255.977	80.008	19.997	103.835	20.055	1.309	0.462
368.000	256.963	80.011	19.994	103.838	20.056	1.257	0.469
370.000	257.926	80.013	19.993	103.832	20.055	1.297	0.493
372.000	258.911	80.011	19.994	103.833	20.053	1.453	0.485
374.000	259.853	80.013	19.992	103.834	20.060	0.983	0.484
376.000	260.815	80.011	19.992	103.850	20.057	1.160	0.492
378.000	261.747	80.015	19.997	103.838	20.052	1.523	0.473
380.000	262.721	80.011	19.993	103.842	20.056	1.239	0.463
382.000	263.679	80.011	19.992	103.851	20.055	1.328	0.486
384.000	264.603	80.012	19.994	103.858	20.053	1.488	0.472
386.000	265.604	80.011	19.993	103.854	20.057	1.189	0.472
388.000	266.630	80.012	19.994	103.830	20.057	1.185	0.518
390.000	267.601	80.013	19.993	103.836	20.058	1.133	0.492
392.000	268.525	80.013	19.993	103.843	20.060	0.933	0.473
394.000	269.513	80.012	19.995	103.845	20.061	0.908	0.499
396.000	270.484	80.013	19.994	103.843	20.059	1.004	0.489
398.000	271.450	80.013	19.993	103.837	20.063	0.744	0.495
400.000	272.478	80.013	19.994	103.841	20.056	1.212	0.485
402.000	273.461	80.015	19.996	103.842	20.059	1.010	0.478
404.000	274.419	80.012	19.994	103.842	20.063	0.756	0.494
406.000	275.457	80.012	19.995	103.856	20.059	1.006	0.491
408.000	276.424	80.014	19.993	103.835	20.059	0.989	0.511
410.000	277.415	80.013	19.993	103.846	20.059	1.045	0.509
412.000	278.378	80.012	19.994	103.842	20.062	0.819	0.497
414.000	279.408	80.014	19.994	103.836	20.061	0.842	0.497
416.000	280.331	80.013	19.994	103.839	20.058	1.122	0.471
418.000	281.272	80.014	19.993	103.825	20.061	0.864	0.481
420.000	282.296	80.014	19.993	103.826	20.056	1.232	0.485
422.000	283.266	80.011	19.993	103.836	20.058	1.080	0.472
424.000	284.257	80.010	19.994	103.831	20.059	0.999	0.506
426.000	285.237	80.010	19.993	103.831	20.064	0.684	0.489
428.000	286.214	80.010	19.994	103.829	20.062	0.760	0.454
430.000	287.199	80.012	19.992	103.831	20.060	0.973	0.484
432.000	288.231	80.013	19.993	103.833	20.060	0.925	0.489
434.000	289.173	80.012	19.993	103.828	20.062	0.765	0.494
436.000	290.177	80.007	19.993	103.824	20.064	0.636	0.545
438.000	291.195	80.013	19.992	103.825	20.061	0.891	0.506
440.000	292.243	80.011	19.992	103.830	20.067	0.393	0.504
442.000	293.215	80.014	19.993	103.827	20.061	0.850	0.497
444.000	294.164	80.013	19.992	103.828	20.063	0.711	0.490
446.000	295.141	80.011	19.993	103.826	20.052	1.567	0.502
448.000	296.149	80.013	19.993	103.821	20.064	0.632	0.462
450.000	297.165	80.012	19.992	103.821	20.059	1.047	0.569
452.000	298.073	80.011	19.995	103.824	20.061	0.892	0.496
454.000	299.349	80.012	19.994	103.827	20.065	0.571	0.544
456.000	300.213	80.012	19.994	103.822	20.061	0.860	0.430
458.000	301.318	80.011	19.995	103.824	20.059	0.999	0.610
460.000	301.869	80.011	19.993	103.827	20.062	0.800	0.489
462.000	303.186	80.027	19.996	103.836	20.063	0.719	0.479
464.000	304.014	80.017	19.994	103.836	20.061	0.864	0.498
466.000	305.167	80.011	19.993	103.826	20.060	0.945	0.384
468.000	306.230	80.013	19.993	103.828	20.061	0.887	0.528
470.000	307.251	80.011	19.992	103.827	20.062	0.804	0.535
472.000	308.185	80.012	19.992	103.826	20.062	0.779	0.463
474.000	309.169	80.012	19.992	103.826	20.063	0.711	0.536
476.000	310.221	80.012	19.993	103.829	20.065	0.555	0.522
478.000	311.258	80.012	19.992	103.825	20.061	0.839	0.522
480.000	312.254	80.010	19.994	103.825	20.066	0.476	0.502
482.000	313.327	80.012	19.993	103.823	20.066	0.503	0.533
484.000	314.314	80.011	19.993	103.823	20.069	0.276	0.530
486.000	315.270	80.012	19.993	103.826	20.067	0.391	0.485
488.000	316.339	80.012	19.994	103.827	20.066	0.495	0.515
490.000	317.359	80.012	19.993	103.825	20.070	0.170	0.486
492.000	318.354	80.012	19.992	103.823	20.068	0.343	0.501
494.000	319.416	80.014	19.993	103.821	20.066	0.509	0.490
496.000	320.460	80.015	19.993	103.817	20.068	0.366	0.531
498.000	321.461	80.015	19.993	103.819	20.069	0.305	0.488
500.000	322.459	80.012	19.994	103.817	20.068	0.349	0.517
502.000	323.436	80.011	19.993	103.820	20.064	0.617	0.478
504.000	324.471	80.012	19.992	103.814	20.066	0.476	0.505
506.000	325.484	80.010	19.994	103.819	20.072	0.039	0.514
508.000	326.483	80.011	19.994	103.820	20.065	0.580	0.520
510.000	327.478	80.010	19.994	103.820	20.068	0.370	0.519
512.000	328.517	80.010	19.995	103.819	20.065	0.555	0.522
514.000	329.495	80.009	19.994	103.816	20.067	0.430	0.519
516.000	330.533	80.011	19.994	103.816	20.066	0.509	0.554
518.000	331.508	80.010	19.994	103.819	20.064	0.657	0.468
520.000	332.529	80.011	19.993	103.818	20.068	0.320	0.505
522.000	333.581	80.014	19.994	103.810	20.071	0.100	0.500
524.000	334.584	80.012	19.993	103.818	20.067	0.409	0.507
526.000	335.586	80.012	19.992	103.821	20.069	0.301	0.522
528.000	336.585	80.010	19.994	103.821	20.077	-0.364	0.525
530.000	337.638	80.012	19.993	103.823	20.072	0.056	0.559
532.000	338.584	80.009	19.994	103.828	20.066	0.474	0.476
534.000	339.636	80.011	19.993	103.826	20.066	0.517	0.527
536.000	340.619	80.010	19.994	103.819	20.075	-0.202	0.498
538.000	341.630	80.009	19.994	103.815	20.073	-0.066	0.496
540.000	342.621	80.010	19.995	103.819	20.070	0.226	0.479
542.000	343.683	80.011	19.994	103.820	20.071	0.150	0.548
544.000	344.675	80.010	19.994	103.824	20.074	-0.071	0.485
546.001	345.666	80.010	19.992	103.812	20.073	0.002	0.500
548.000	346.635	80.012	19.992	103.810	20.077	-0.330	0.467
550.000	347.702	80.012	19.993	103.811	20.077	-0.307	0.506
552.000	348.681	80.012	19.993	103.814	20.071	0.085	0.475
554.000	349.655	80.011	19.992	103.821	20.071	0.114	0.490
556.000	350.685	80.013	19.992	103.820	20.073	-0.042	0.532
558.000	351.670	80.013	19.993	103.816	20.074	-0.106	0.526
560.000	352.658	80.013	19.992	103.812	20.075	-0.145	0.516
562.001	353.703	80.015	19.992	103.819	20.073	-0.019	0.526
564.000	354.680	80.012	19.992	103.815	20.069	0.235	0.475
566.000	355.665	80.014	19.993	103.804	20.069	0.245	0.480
568.000	356.606	80.013	19.991	103.814	20.069	0.239	0.477
570.000	357.631	80.013	19.991	103.806	20.068	0.312	0.514
572.000	358.591	80.015	19.993	103.811	20.064	0.613	0.466
574.000	359.594	80.013	19.993	103.818	20.060	0.945	0.499
576.000	360.555	80.016	19.994	103.820	20.058	1.083	0.469
578.000	361.557	80.016	19.993	103.818	20.057	1.174	0.508
580.000	362.537	80.016	19.993	103.818	20.060	0.918	0.489
582.000	363.580	80.020	19.995	103.819	20.058	1.118	0.540
584.000	364.570	80.014	19.994	103.817	20.053	1.467	0.493
586.000	365.569	80.013	19.995	103.825	20.056	1.278	0.495
588.000	366.579	80.011	19.993	103.824	20.051	1.642	0.515
590.000	367.616	80.012	19.993	103.819	20.048	1.849	0.514
592.000	368.567	80.011	19.993	103.823	20.043	2.252	0.498
594.000	369.633	80.013	19.992	103.822	20.046	1.968	0.509
596.000	370.624	80.011	19.992	103.821	20.043	2.238	0.490
598.000	371.692	80.012	19.994	103.822	20.041	2.362	0.537
600.000	372.737	80.011	19.993	103.828	20.040	2.450	0.518
602.000	373.757	80.012	19.993	103.828	20.035	2.803	0.498
604.000	374.768	80.010	19.994	103.823	20.031	3.146	0.497
606.001	375.781	80.011	19.993	103.823	20.023	3.746	0.508
608.001	376.851	80.012	19.993	103.823	20.021	3.881	0.547
610.000	377.887	80.009	19.994	103.822	20.014	4.407	0.499
612.000	378.934	80.011	19.994	103.823	20.010	4.706	0.529
614.000	379.957	80.011	19.994	103.826	20.006	5.018	0.533
616.000	380.966	80.008	19.994	103.822	20.003	5.233	0.526
618.000	381.965	80.008	19.993	103.815	20.003	5.236	0.508
620.000	382.979	80.010	19.993	103.816	19.997	5.689	0.528
622.000	383.989	80.010	19.992	103.818	19.995	5.814	0.517
624.000	385.035	80.011	19.994	103.823	19.984	6.641	0.498
626.000	386.053	80.012	19.992	103.843	19.978	7.138	0.494
628.000	387.084	80.014	19.992	103.820	19.970	7.705	0.536
630.000	388.079	80.012	19.993	103.817	19.963	8.253	0.499
632.000	389.150	80.012	19.992	103.822	19.955	8.821	0.497
634.000	390.190	80.014	19.992	103.825	19.944	9.663	0.530
636.000	391.263	80.013	19.992	103.820	19.941	9.878	0.539
638.000	392.266	80.013	19.993	103.797	19.939	10.031	0.526
640.000	393.312	80.011	19.992	103.810	19.931	10.606	0.518
642.000	394.374	80.014	19.994	103.840	19.923	11.207	0.549
644.000	395.405	80.011	19.995	103.846	19.915	11.835	0.538
646.000	396.428	80.012	19.994	103.830	19.895	13.336	0.523
648.000	397.391	80.013	19.994	103.823	19.877	14.712	0.441
650.000	398.423	80.013	19.992	103.816	19.862	15.818	0.501
652.000	399.513	80.012	19.991	103.816	19.845	17.126	0.547
654.000	400.492	80.014	19.992	103.819	19.826	18.575	0.504
656.000	401.550	80.015	19.992	103.824	19.805	20.135	0.510
658.000	402.533	80.013	19.993	103.825	19.788	21.424	0.524
660.000	403.586	80.014	19.991	103.839	19.769	22.802	0.499
662.001	404.576	80.012	19.992	103.833	19.749	24.301	0.517
664.000	405.583	80.012	19.993	103.852	19.716	26.825	0.475
666.000	406.622	80.011	19.994	103.856	19.683	29.290	0.539
668.000	407.620	80.011	19.992	103.862	19.650	31.745	0.505
670.000	408.643	80.010	19.993	103.861	19.615	34.429	0.486
672.000	409.643	80.010	19.993	103.860	19.577	37.242	0.525
674.000	410.687	80.011	19.993	103.853	19.534	40.482	0.482
676.000	411.710	80.010	19.994	103.853	19.495	43.424	0.475
678.001	412.728	80.010	19.992	103.865	19.453	46.625	0.509
680.000	413.660	80.010	19.994	103.864	19.406	50.167	0.488
682.000	414.628	80.009	19.993	103.866	19.362	53.473	0.466
684.000	415.629	80.012	19.993	103.872	19.314	57.090	0.494
686.000	416.657	80.011	19.993	103.881	19.260	61.134	0.500
688.001	417.661	80.012	19.993	103.872	19.209	64.972	0.472
690.000	418.701	80.011	19.993	103.873	19.158	68.781	0.551
692.000	419.669	80.011	19.993	103.894	19.103	72.949	0.497
694.000	420.740	80.011	19.994	103.894	19.049	76.956	0.507
696.000	421.755	80.011	19.994	103.885	18.991	81.349	0.518
698.000	422.774	80.010	19.994	103.879	18.925	86.292	0.517
700.000	423.758	80.009	19.994	103.888	18.867	90.657	0.522
702.000	424.765	80.012	19.997	103.884	18.796	96.002	0.535
704.000	425.770	80.011	19.996	103.891	18.736	100.522	0.529
706.000	426.758	80.011	19.994	103.880	18.667	105.672	0.511
708.000	427.742	80.010	19.995	103.885	18.592	111.298	0.485
710.000	428.683	80.011	19.994	103.891	18.532	115.859	0.498
712.000	429.637	80.013	19.995	103.888	18.462	121.097	0.474
714.000	430.652	80.013	19.992	103.877	18.390	126.518	0.510
716.000	431.587	80.012	19.992	103.871	18.319	131.878	0.432
718.000	432.541	80.011	19.992	103.876	18.251	136.967	0.462
720.000	433.532	80.012	19.993	103.877	18.182	142.137	0.494
722.000	434.472	80.012	19.993	103.877	18.115	147.190	0.446
724.000	435.472	80.012	19.993	103.868	18.047	152.326	0.508
726.000	436.427	80.012	19.993	103.879	17.983	157.119	0.479
728.000	437.384	80.011	19.992	103.870	17.919	161.939	0.508
730.000	438.364	80.012	19.993	103.872	17.851	166.952	0.465
732.000	439.323	80.012	19.992	103.864	17.788	171.764	0.511
734.001	440.285	80.014	19.993	103.880	17.722	176.725	0.506
736.000	441.227	80.014	19.993	103.878	17.649	182.170	0.487
738.000	442.195	80.012	19.993	103.862	17.589	186.639	0.469
740.000	443.161	80.013	19.993	103.846	17.526	191.420	0.479
742.000	444.146	80.014	19.991	103.831	17.460	196.367	0.507
744.000	445.099	80.010	19.992	103.860	17.399	200.901	0.485
746.000	446.110	80.011	19.992	103.847	17.335	205.732	0.503
748.000	447.104	80.012	19.992	103.830	17.271	210.512	0.493
750.000	448.034	80.009	19.993	103.828	17.216	214.633	0.476
752.000	449.072	80.012	19.993	103.827	17.157	219.011	0.518
754.000	450.072	80.012	19.994	103.815	17.102	223.092	0.498
756.000	451.056	80.011	19.992	103.821	17.037	228.022	0.475
758.000	452.118	80.010	19.993	103.813	16.976	232.626	0.538
760.000	453.069	80.013	19.994	103.815	16.926	236.323	0.476
762.000	454.053	80.013	19.995	103.784	16.870	240.551	0.510
764.000	455.070	80.010	19.994	103.758	16.816	244.570	0.509
766.000	456.110	80.011	19.994	103.770	16.766	248.308	0.490
768.000	457.070	80.011	19.994	103.768	16.718	251.914	0.490
770.000	458.058	80.011	19.994	103.755	16.672	255.368	0.475
772.000	459.028	80.009	19.993	103.753	16.628	258.640	0.493
774.000	460.057	80.011	19.995	103.767	16.590	261.503	0.516
776.000	461.005	80.010	19.993	103.747	16.563	263.527	0.474
778.000	461.963	80.011	19.993	103.741	16.538	265.349	0.481
780.000	462.955	80.011	19.994	103.734	16.522	266.556	0.474
782.000	463.892	80.010	19.993	103.738	16.506	267.749	0.440
784.000	464.903	80.010	19.993	103.741	16.497	268.460	0.518
786.000	465.884	80.010	19.992	103.741	16.494	268.654	0.498
788.000	466.884	80.010	19.994	103.723	16.502	268.085	0.498
790.000	467.869	80.012	19.994	103.714	16.516	266.970	0.483
792.000	468.900	80.012	19.993	103.720	16.540	265.200	0.531
794.000	469.943	80.011	19.993	103.712	16.572	262.804	0.553
796.000	470.879	80.011	19.994	103.714	16.624	258.902	0.495
798.000	471.890	80.012	19.994	103.706	16.685	254.277	0.545
800.001	472.980	80.009	19.995	103.706	16.747	249.624	0.530
802.000	474.013	80.009	19.994	103.708	16.827	243.635	0.535
804.000	475.084	80.010	19.993	103.709	16.917	236.825	0.529
806.000	476.146	80.010	19.994	103.705	17.030	228.365	0.512
808.000	477.230	80.012	19.992	103.691	17.153	219.119	0.563
810.000	478.295	80.012	19.992	103.694	17.287	209.000	0.551
812.000	479.397	80.013	19.992	103.700	17.423	198.799	0.553
814.000	480.509	80.014	19.992	103.696	17.576	187.348	0.561
816.000	481.553	80.013	19.992	103.676	17.742	174.940	0.522
818.000	482.662	80.014	19.993	103.669	17.923	161.389	0.532
820.000	483.796	80.013	19.993	103.663	18.086	149.120	0.572
822.000	484.919	80.011	19.994	103.663	18.269	135.440	0.562
824.000	486.008	80.012	19.994	103.668	18.456	121.388	0.550
826.000	487.103	80.011	19.993	103.667	18.634	108.063	0.564
828.000	488.184	80.011	19.993	103.681	18.813	94.616	0.550
830.000	489.318	80.010	19.994	103.703	18.983	81.861	0.575
832.000	490.349	80.011	19.994	103.731	19.141	69.966	0.484
834.000	491.544	80.011	19.993	103.745	19.279	59.635	0.587
836.000	492.642	80.010	19.993	103.770	19.409	49.839	0.543
838.000	493.750	80.010	19.993	103.786	19.518	41.694	0.550
840.000	494.895	80.011	19.993	103.783	19.622	33.831	0.570
842.000	495.935	80.010	19.993	103.783	19.703	27.791	0.527
844.000	497.026	80.011	19.994	103.783	19.774	22.450	0.553
846.000	498.127	80.011	19.993	103.783	19.833	18.020	0.520
848.000	499.227	80.011	19.992	103.782	19.881	14.403	0.534
850.000	500.329	80.012	19.993	103.783	19.926	10.996	0.567
852.000	501.379	80.011	19.992	103.785	19.960	8.442	0.539
854.000	502.476	80.009	19.994	103.785	19.985	6.565	0.554
856.001	503.533	80.008	19.993	103.770	20.006	4.991	0.564
858.000	504.588	80.010	19.995	103.771	20.024	3.621	0.528
860.000	505.663	80.009	19.994	103.745	20.043	2.207	0.548
862.000	506.669	80.009	19.994	103.747	20.051	1.644	0.504
864.001	507.733	80.010	19.993	103.747	20.063	0.754	0.532
866.001	508.796	80.009	19.993	103.749	20.069	0.307	0.517
868.000	509.888	80.011	19.993	103.741	20.075	-0.149	0.541
870.000	510.893	80.013	19.993	103.735	20.075	-0.212	0.551
872.000	511.920	80.011	19.992	103.742	20.078	-0.390	0.483
874.000	513.013	80.012	19.993	103.743	20.081	-0.608	0.539
876.000	514.056	80.012	19.993	103.731	20.086	-1.034	0.562
878.000	515.122	80.011	19.993	103.716	20.088	-1.139	0.531
880.000	516.151	80.012	19.993	103.716	20.092	-1.451	0.526
882.000	517.225	80.014	19.994	103.718	20.092	-1.480	0.532
884.000	518.214	80.011	19.993	103.704	20.092	-1.428	0.511
886.000	519.233	80.012	19.996	103.718	20.093	-1.541	0.503
888.001	520.275	80.011	19.994	103.709	20.096	-1.721	0.491
890.000	521.307	80.011	19.994	103.715	20.097	-1.860	0.522
892.000	522.323	80.010	19.994	103.731	20.095	-1.711	0.499
894.000	523.379	80.010	19.994	103.734	20.096	-1.732	0.530
896.000	524.366	80.013	19.993	103.740	20.098	-1.939	0.509
898.000	525.391	80.012	19.993	103.741	20.098	-1.941	0.498
900.000	526.390	80.013	19.993	103.747	20.102	-2.189	0.489
902.000	527.420	80.013	19.992	103.750	20.102	-2.170	0.523
904.000	528.428	80.011	19.993	103.742	20.099	-2.016	0.542
906.000	529.446	80.010	19.992	103.746	20.105	-2.429	0.500
908.000	530.449	80.010	19.994	103.744	20.100	-2.041	0.500
910.000	531.420	80.009	19.992	103.750	20.105	-2.436	0.499
912.000	532.432	80.010	19.994	103.756	20.107	-2.552	0.488
914.000	533.441	80.010	19.992	103.753	20.104	-2.341	0.493
916.000	534.399	80.008	19.993	103.745	20.110	-2.810	0.488
918.000	535.372	80.010	19.992	103.746	20.110	-2.776	0.485
920.001	536.394	80.009	19.993	103.747	20.108	-2.694	0.512
922.002	537.322	80.011	19.994	103.761	20.110	-2.837	0.467
924.000	538.348	80.010	19.993	103.778	20.111	-2.862	0.508
926.000	539.361	80.010	19.993	103.772	20.113	-3.010	0.536
928.000	540.351	80.010	19.994	103.767	20.109	-2.758	0.475
930.000	541.418	80.011	19.993	103.768	20.110	-2.806	0.560
932.000	542.484	80.011	19.993	103.774	20.114	-3.074	0.543
934.000	543.537	80.009	19.994	103.777	20.110	-2.781	0.561
936.001	544.586	80.011	19.993	103.785	20.109	-2.771	0.532
938.000	545.695	80.009	19.993	103.782	20.110	-2.800	0.546
940.000	546.742	80.010	19.992	103.783	20.111	-2.864	0.505
942.000	547.936	80.014	19.994	103.784	20.110	-2.826	0.591
944.000	549.051	80.010	19.993	103.789	20.113	-3.043	0.567
946.000	550.213	80.011	19.993	103.786	20.117	-3.323	0.558
948.000	551.369	80.012	19.994	103.780	20.114	-3.103	0.619
950.000	552.507	80.011	19.994	103.778	20.114	-3.140	0.577
952.000	553.659	80.012	19.993	103.774	20.111	-2.903	0.588
954.000	554.867	80.012	19.994	103.775	20.112	-2.932	0.613
956.000	556.058	80.011	19.993	103.781	20.110	-2.843	0.610
958.000	557.189	80.011	19.994	103.782	20.115	-3.171	0.558
960.000	558.342	80.011	19.994	103.773	20.116	-3.289	0.591
962.000	559.556	80.012	19.993	103.769	20.116	-3.223	0.598
964.001	560.693	80.010	19.994	103.772	20.116	-3.277	0.597
966.000	561.869	80.011	19.994	103.776	20.111	-2.880	0.592
968.000	563.019	80.010	19.993	103.774	20.116	-3.277	0.562
970.000	564.135	80.011	19.994	103.767	20.114	-3.094	0.568
972.000	565.328	80.012	19.993	103.768	20.119	-3.507	0.616
974.000	566.462	80.013	19.993	103.775	20.114	-3.144	0.563
976.000	567.597	80.011	19.994	103.758	20.115	-3.187	0.552
978.000	568.748	80.012	19.993	103.751	20.121	-3.619	0.580
980.000	569.844	80.012	19.994	103.755	20.119	-3.455	0.555
982.000	570.960	80.011	19.994	103.758	20.120	-3.522	0.554
984.000	572.038	80.011	19.994	103.759	20.118	-3.391	0.541
986.000	573.121	80.011	19.995	103.760	20.115	-3.175	0.541
988.000	574.269	80.010	19.993	103.747	20.118	-3.437	0.568
990.000	575.355	80.009	19.995	103.752	20.115	-3.185	0.563
992.000	576.433	80.009	19.993	103.754	20.118	-3.412	0.528
994.000	577.465	80.011	19.993	103.758	20.115	-3.191	0.532
996.000	578.536	80.010	19.993	103.750	20.117	-3.299	0.552
998.000	579.527	80.008	19.992	103.759	20.119	-3.503	0.498
1000.000	580.547	80.011	19.992	103.753	20.120	-3.557	0.494
1002.000	581.575	80.010	19.994	103.766	20.121	-3.646	0.520
1004.000	582.553	80.010	19.993	103.760	20.123	-3.795	0.452
1006.000	583.554	80.011	19.994	103.748	20.125	-3.947	0.497
1008.000	584.556	80.012	19.993	103.749	20.124	-3.835	0.518
1010.000	585.523	80.011	19.994	103.746	20.123	-3.750	0.477
1012.000	586.510	80.010	19.994	103.745	20.124	-3.872	0.514
1014.000	587.518	80.009	19.994	103.746	20.125	-3.947	0.481
1016.000	588.500	80.010	19.993	103.746	20.122	-3.737	0.528
1018.000	589.476	80.010	19.994	103.739	20.123	-3.806	0.496
1020.000	590.448	80.009	19.994	103.740	20.124	-3.837	0.496
1022.000	591.484	80.011	19.994	103.745	20.122	-3.686	0.495
1024.001	592.436	80.011	19.993	103.744	20.125	-3.926	0.484
1026.000	593.415	80.012	19.993	103.745	20.125	-3.901	0.508
1028.000	594.417	80.012	19.992	103.754	20.125	-3.924	0.506
1030.000	595.372	80.011	19.992	103.748	20.125	-3.901	0.470
1032.000	596.364	80.012	19.994	103.753	20.125	-3.953	0.505
1034.001	597.355	80.014	19.992	103.749	20.127	-4.076	0.520
1036.000	598.328	80.012	19.994	103.746	20.125	-3.901	0.505
1038.000	599.327	80.012	19.994	103.744	20.122	-3.731	0.471
1040.000	600.320	80.010	19.993	103.746	20.124	-3.860	0.482
1042.000	601.346	80.011	19.994	103.743	20.122	-3.742	0.532
1044.001	602.346	80.011	19.994	103.744	20.126	-3.977	0.520
1046.000	603.329	80.011	19.993	103.746	20.129	-4.204	0.482
1048.000	604.363	80.011	19.993	103.746	20.128	-4.159	0.531
1050.000	605.323	80.011	19.994	103.748	20.127	-4.053	0.471
1052.000	606.310	80.011	19.993	103.749	20.126	-4.009	0.494
1054.000	607.357	80.012	19.993	103.767	20.129	-4.244	0.529
1056.001	608.306	80.012	19.992	103.760	20.131	-4.383	0.476
1058.000	609.355	80.013	19.993	103.744	20.130	-4.319	0.494
1060.001	610.394	80.012	19.993	103.749	20.131	-4.385	0.498
1062.000	611.358	80.020	19.996	103.743	20.130	-4.285	0.509
1064.000	612.383	80.010	19.994	103.744	20.129	-4.250	0.480
1066.001	613.400	80.010	19.993	103.746	20.130	-4.317	0.500
1068.000	614.456	80.010	19.993	103.747	20.130	-4.346	0.525
1070.000	615.432	80.010	19.994	103.756	20.133	-4.525	0.498
1072.000	616.457	80.009	19.994	103.743	20.129	-4.227	0.516
1074.000	617.467	80.010	19.994	103.746	20.130	-4.289	0.516
1076.000	618.452	80.008	19.995	103.744	20.132	-4.454	0.523
1078.000	619.432	80.009	19.994	103.747	20.132	-4.493	0.491
1080.001	620.451	80.010	19.995	103.755	20.134	-4.593	0.486
1082.000	621.462	80.010	19.994	103.757	20.133	-4.560	0.504
1084.000	622.422	80.010	19.994	103.743	20.131	-4.392	0.457
1086.000	623.451	80.011	19.993	103.744	20.132	-4.438	0.500
1088.000	624.473	80.010	19.993	103.749	20.133	-4.552	0.491
1090.000	625.492	80.010	19.993	103.752	20.132	-4.427	0.562
1092.001	626.513	80.010	19.993	103.749	20.134	-4.641	0.515
1094.000	627.575	80.009	19.993	103.750	20.132	-4.462	0.514
1096.000	628.625	80.010	19.993	103.768	20.131	-4.381	0.532
1098.001	629.652	80.009	19.993	103.766	20.135	-4.674	0.512
1100.000	630.686	80.009	19.993	103.753	20.135	-4.688	0.511
1102.000	631.755	80.010	19.993	103.753	20.133	-4.503	0.524
1104.000	632.789	80.010	19.994	103.742	20.133	-4.510	0.505
1106.001	633.846	80.011	19.994	103.744	20.137	-4.848	0.531
1108.000	634.912	80.011	19.993	103.747	20.136	-4.790	0.515
1110.000	635.960	80.011	19.993	103.746	20.138	-4.886	0.513
1112.001	637.017	80.013	19.992	103.745	20.135	-4.674	0.537
1114.000	638.015	80.012	19.993	103.748	20.139	-4.971	0.497
1116.000	639.079	80.012	19.992	103.746	20.140	-5.045	0.514
1118.000	640.057	80.011	19.993	103.747	20.141	-5.172	0.479
1120.001	641.050	80.012	19.994	103.748	20.139	-4.975	0.498
1122.000	642.089	80.012	19.994	103.748	20.139	-5.021	0.520
1124.000	643.107	80.011	19.993	103.750	20.143	-5.251	0.508
1126.000	644.139	80.011	19.993	103.749	20.144	-5.361	0.472
1128.000	645.105	80.012	19.994	103.749	20.143	-5.259	0.473
1130.000	646.210	80.012	19.993	103.749	20.146	-5.483	0.500
1132.000	647.175	80.012	19.994	103.747	20.142	-5.209	0.545
1134.000	648.178	80.012	19.993	103.753	20.142	-5.236	0.504
1136.000	649.243	80.013	19.993	103.749	20.145	-5.419	0.523
1138.000	650.300	80.011	19.993	103.746	20.144	-5.365	0.498
1140.001	651.319	80.011	19.994	103.745	20.143	-5.259	0.519
1142.000	652.356	80.011	19.993	103.741	20.142	-5.226	0.492
1144.000	653.344	80.010	19.994	103.742	20.139	-4.995	0.466
1146.000	654.479	80.009	19.993	103.746	20.142	-5.217	0.560
1148.000	655.520	80.010	19.993	103.747	20.140	-5.083	0.534
1150.000	656.528	80.010	19.993	103.744	20.143	-5.259	0.501
1152.000	657.547	80.010	19.993	103.745	20.140	-5.027	0.492
1154.000	658.592	80.010	19.994	103.744	20.137	-4.863	0.522
1156.001	659.575	80.010	19.994	103.736	20.144	-5.330	0.481
1158.000	660.592	80.010	19.993	103.743	20.140	-5.076	0.516
1160.000	661.650	80.009	19.994	103.746	20.143	-5.251	0.533
1162.000	662.660	80.011	19.994	103.749	20.142	-5.221	0.515
1164.000	663.648	80.010	19.994	103.764	20.141	-5.099	0.506
1166.000	664.658	80.009	19.995	103.750	20.141	-5.116	0.514
1168.000	665.608	80.009	19.994	103.743	20.139	-5.000	0.491
1170.000	666.646	80.009	19.994	103.743	20.141	-5.131	0.504
1172.000	667.695	80.010	19.995	103.742	20.141	-5.156	0.515
1174.000	668.694	80.010	19.995	103.738	20.147	-5.594	0.522
1176.001	669.736	80.008	19.994	103.741	20.140	-5.056	0.507
1178.002	670.770	80.010	19.993	103.748	20.144	-5.340	0.492
1180.000	671.834	80.010	19.993	103.753	20.148	-5.683	0.554
1182.000	672.878	80.014	19.994	103.759	20.144	-5.332	0.537
1184.000	673.944	80.010	19.995	103.763	20.144	-5.371	0.533
1186.000	675.036	80.011	19.993	103.749	20.143	-5.268	0.527
1188.000	676.185	80.012	19.992	103.747	20.146	-5.540	0.583
1190.000	677.266	80.011	19.993	103.747	20.148	-5.670	0.557
1192.000	678.344	80.013	19.993	103.745	20.147	-5.563	0.547
1194.000	679.436	80.011	19.993	103.744	20.146	-5.539	0.528
1196.000	680.550	80.010	19.993	103.748	20.147	-5.616	0.522
1198.001	681.657	80.010	19.994	103.752	20.146	-5.485	0.573
1200.000	682.808	80.012	19.994	103.748	20.147	-5.566	0.594
1202.000	683.883	80.012	19.994	103.748	20.149	-5.755	0.570
1204.000	685.013	80.010	19.994	103.748	20.148	-5.641	0.564
1206.001	686.052	80.012	19.993	103.745	20.151	-5.873	0.516
1208.000	687.143	80.011	19.993	103.743	20.145	-5.412	0.507
1210.000	688.257	80.012	19.993	103.738	20.149	-5.774	0.557
1212.000	689.264	80.012	19.992	103.744	20.150	-5.814	0.527
1214.000	690.268	80.013	19.993	103.744	20.154	-6.115	0.496
1216.000	691.303	80.012	19.993	103.741	20.149	-5.708	0.500
1218.000	692.340	80.012	19.994	103.727	20.150	-5.805	0.515
1220.000	693.328	80.011	19.993	103.742	20.148	-5.691	0.471
1222.000	694.292	80.011	19.993	103.746	20.152	-5.955	0.468
1224.000	695.294	80.010	19.993	103.746	20.150	-5.838	0.520
1226.000	696.337	80.010	19.994	103.748	20.146	-5.527	0.484
1228.000	697.311	80.010	19.993	103.746	20.149	-5.772	0.534
1230.000	698.237	80.011	19.994	103.742	20.151	-5.868	0.465
1232.001	699.219	80.009	19.993	103.745	20.154	-6.111	0.466
1234.000	700.196	80.010	19.994	103.738	20.153	-6.003	0.492
1236.000	701.183	80.010	19.993	103.744	20.155	-6.154	0.512
1238.000	702.133	80.009	19.994	103.743	20.154	-6.094	0.476
1240.000	703.119	80.010	19.994	103.745	20.151	-5.893	0.517
1242.000	704.071	80.010	19.995	103.748	20.151	-5.905	0.481
1244.000	705.103	80.009	19.994	103.754	20.154	-6.106	0.506
1246.001	706.071	80.010	19.993	103.747	20.155	-6.175	0.485
1248.000	707.028	80.010	19.994	103.746	20.156	-6.270	0.483
1250.000	708.048	80.010	19.993	103.747	20.154	-6.117	0.484
1252.001	709.041	80.010	19.994	103.748	20.160	-6.546	0.529
1254.001	710.038	80.008	19.994	103.745	20.157	-6.314	0.486
1256.000	711.047	80.008	19.994	103.752	20.157	-6.332	0.502
1258.000	712.071	80.008	19.994	103.750	20.160	-6.541	0.523
1260.000	713.072	80.007	19.995	103.747	20.155	-6.174	0.488
1262.000	714.109	80.009	19.995	103.745	20.157	-6.370	0.514
1264.000	715.149	80.010	19.995	103.748	20.160	-6.568	0.519
1266.001	716.223	80.010	19.994	103.746	20.156	-6.277	0.539
1268.000	717.258	80.010	19.994	103.749	20.158	-6.408	0.515
1270.000	718.342	80.011	19.993	103.765	20.160	-6.581	0.546
1272.000	719.391	80.011	19.993	103.755	20.154	-6.128	0.511
1274.002	720.430	80.012	19.993	103.753	20.160	-6.556	0.522
1276.000	721.516	80.011	19.994	103.752	20.159	-6.482	0.543
1278.000	722.659	80.010	19.992	103.754	20.159	-6.480	0.540
1280.001	723.742	80.010	19.993	103.754	20.158	-6.380	0.542
1282.000	724.795	80.011	19.994	103.763	20.159	-6.499	0.556
1284.000	725.887	80.011	19.993	103.769	20.160	-6.567	0.547
1286.000	726.933	80.010	19.993	103.755	20.161	-6.653	0.524
1288.000	728.029	80.009	19.993	103.754	20.159	-6.516	0.562
1290.000	729.116	80.013	19.992	103.749	20.158	-6.439	0.532
1292.000	730.199	80.012	19.992	103.746	20.158	-6.425	0.518
1294.000	731.288	80.012	19.992	103.747	20.158	-6.435	0.552
1296.000	732.375	80.011	19.994	103.749	20.159	-6.462	0.562
1298.000	733.416	80.012	19.993	103.759	20.157	-6.356	0.527
1300.000	734.468	80.011	19.994	103.750	20.159	-6.520	0.530
1302.000	735.493	80.014	19.995	103.745	20.158	-6.441	0.539
1304.000	736.519	80.010	19.994	103.762	20.162	-6.727	0.542
1306.000	737.511	80.011	19.993	103.753	20.159	-6.470	0.455
1308.001	738.548	80.010	19.993	103.754	20.157	-6.362	0.474
1310.000	739.530	80.010	19.994	103.756	20.161	-6.625	0.469
1312.000	740.559	80.010	19.993	103.753	20.161	-6.601	0.505
1314.000	741.493	80.011	19.993	103.755	20.163	-6.794	0.455
1316.000	742.442	80.010	19.993	103.750	20.163	-6.792	0.479
1318.001	743.438	80.010	19.993	103.751	20.164	-6.829	0.493
1319.500	744.141	80.010	19.993	103.749	20.159	-6.486	0.489