File: 01_Data/Cotton_Felt/MCC/Cotton_Felt_MCC_30K_min_210708_R2.txt
Sample ID:	C:\MCC\MCC Cal\Test\Cotton_Felt\Cotton_Felt_MCC_30K_min_21_07_08_R2.txt
Sample Weight (mg):	3.97
Heating Rate (C/s):	0.5
Combustor Temp (C):	900
N2 Flow Rate (cc/min):	80
O2 Flow Rate (cc/min):	20
Calibration File:	C:\MCC\MCC Cal\Coeff1 JN10440_30_210304.txt.txt
T Correction Coefficients:	0	1.024463	0
Time Shift (s):	14
*
Time (s)	Temperature (C)	N2 flow rate (cc/min)	O2 flow rate (cc/min)	Flow Rate (cc/min)	Oxygen (%)	HRR (W/g)	Heating rate (C/s)
0.000	114.900	80.001	19.990	99.881	20.281	0.006	0.011
2.000	114.856	80.001	19.993	99.887	20.277	0.256	-0.036
4.000	114.826	79.995	19.997	99.887	20.279	0.140	-0.011
6.000	114.855	79.995	19.998	99.883	20.277	0.252	-0.007
8.000	114.822	79.996	19.997	99.887	20.274	0.536	-0.043
10.000	114.796	79.994	19.995	99.891	20.274	0.525	-0.012
12.000	114.777	79.999	19.995	99.907	20.274	0.555	-0.007
14.000	114.799	79.994	19.995	99.903	20.275	0.467	0.018
16.000	114.775	79.998	19.993	99.901	20.276	0.332	-0.010
18.000	114.758	79.996	19.994	99.906	20.273	0.575	-0.015
20.000	114.727	79.996	19.995	99.922	20.273	0.569	-0.021
22.000	114.769	79.997	19.995	99.950	20.270	0.830	0.010
24.000	114.797	79.997	19.996	99.988	20.262	1.442	0.022
26.000	114.847	79.997	19.993	100.008	20.258	1.756	0.037
28.000	114.958	79.997	19.994	100.037	20.255	2.012	0.079
30.000	115.046	79.995	19.994	100.064	20.253	2.195	0.054
32.000	115.230	79.997	19.995	100.079	20.245	2.769	0.078
33.999	115.393	80.000	19.993	100.086	20.245	2.801	0.080
35.999	115.638	80.000	19.994	100.081	20.244	2.875	0.116
38.000	115.870	79.998	19.995	100.079	20.243	2.920	0.107
39.999	116.161	79.997	19.996	100.056	20.239	3.294	0.135
41.999	116.504	79.997	19.997	100.061	20.237	3.423	0.165
44.000	116.765	79.997	19.996	100.082	20.232	3.850	0.118
46.000	117.126	79.996	19.996	100.105	20.229	4.035	0.170
47.999	117.511	79.993	19.996	100.098	20.232	3.787	0.198
49.999	117.906	79.996	19.996	100.103	20.225	4.412	0.211
52.000	118.353	79.996	19.998	100.117	20.227	4.216	0.233
53.999	118.828	79.994	19.996	100.118	20.222	4.624	0.251
55.999	119.298	79.997	19.993	100.117	20.220	4.729	0.233
57.999	119.839	79.998	19.991	100.113	20.219	4.854	0.291
59.999	120.375	79.997	19.995	100.119	20.218	4.923	0.256
61.999	120.965	79.997	19.993	100.118	20.216	5.073	0.320
64.000	121.526	79.993	19.999	100.120	20.217	5.027	0.297
66.000	122.137	79.992	20.003	100.116	20.221	4.676	0.316
67.999	122.755	79.992	20.001	100.117	20.220	4.730	0.283
70.000	123.420	79.995	19.995	100.118	20.217	4.978	0.320
72.000	124.039	79.996	19.995	100.124	20.221	4.713	0.325
74.000	124.674	79.995	19.993	100.133	20.220	4.778	0.307
76.000	125.423	79.992	20.000	100.123	20.219	4.886	0.343
77.999	126.099	79.994	19.994	100.122	20.214	5.246	0.348
80.001	126.812	80.001	19.992	100.135	20.216	5.082	0.348
82.000	127.580	79.996	19.995	100.130	20.217	4.978	0.399
84.000	128.288	79.997	19.995	100.136	20.220	4.787	0.348
86.000	129.058	79.997	19.995	100.140	20.218	4.912	0.391
88.001	129.853	79.996	19.994	100.141	20.223	4.544	0.345
90.000	130.588	79.995	19.995	100.140	20.222	4.612	0.384
92.001	131.416	79.995	19.992	100.137	20.221	4.677	0.396
93.999	132.223	79.996	19.995	100.139	20.218	4.929	0.427
95.999	133.005	79.998	19.993	100.155	20.219	4.865	0.403
98.000	133.907	80.002	19.990	100.157	20.218	4.921	0.462
100.000	134.655	79.996	19.994	100.157	20.219	4.813	0.412
102.000	135.586	79.999	19.996	100.156	20.217	5.020	0.447
103.999	136.405	79.994	19.995	100.156	20.218	4.914	0.400
105.999	137.313	79.996	19.997	100.157	20.221	4.712	0.439
107.999	138.169	79.997	19.993	100.156	20.223	4.554	0.415
109.999	139.029	79.997	19.995	100.158	20.221	4.670	0.437
112.000	139.942	79.998	19.996	100.158	20.222	4.608	0.453
114.000	140.868	80.001	19.995	100.153	20.221	4.675	0.443
116.001	141.777	79.999	19.995	100.150	20.225	4.394	0.435
118.001	142.745	79.999	19.994	100.156	20.226	4.312	0.472
120.000	143.717	79.998	19.996	100.151	20.220	4.752	0.520
121.999	144.700	80.001	19.994	100.152	20.221	4.709	0.500
124.000	145.565	79.998	19.995	100.155	20.226	4.284	0.419
125.999	146.556	79.996	19.996	100.153	20.222	4.629	0.456
128.000	147.504	80.000	19.995	100.152	20.223	4.528	0.461
130.000	148.474	79.998	19.995	100.150	20.220	4.748	0.476
132.000	149.490	79.999	19.995	100.151	20.219	4.830	0.522
134.000	150.418	79.994	19.995	100.156	20.221	4.720	0.507
136.000	151.361	79.997	19.995	100.150	20.220	4.800	0.490
138.000	152.373	79.994	19.996	100.153	20.219	4.839	0.483
140.000	153.326	79.996	19.996	100.156	20.220	4.804	0.512
142.000	154.308	79.995	19.996	100.157	20.218	4.936	0.496
144.000	155.247	79.995	19.995	100.157	20.216	5.108	0.493
146.000	156.251	79.995	19.995	100.156	20.218	4.938	0.476
148.000	157.259	79.994	19.996	100.149	20.220	4.769	0.483
150.000	158.244	79.995	19.995	100.153	20.223	4.547	0.500
152.000	159.227	79.994	19.996	100.157	20.220	4.784	0.468
154.000	160.264	79.997	19.991	100.147	20.218	4.937	0.519
156.000	161.162	79.996	19.997	100.146	20.221	4.672	0.458
158.000	162.234	79.994	19.995	100.138	20.222	4.588	0.499
160.001	163.204	79.995	19.998	100.132	20.220	4.795	0.489
162.000	164.194	79.997	19.997	100.148	20.224	4.455	0.506
164.000	165.203	79.997	19.995	100.144	20.223	4.540	0.499
166.000	166.279	79.996	19.995	100.146	20.224	4.452	0.525
168.000	167.242	79.999	19.991	100.129	20.224	4.432	0.502
170.000	168.243	79.998	19.994	100.133	20.226	4.333	0.538
172.000	169.236	79.997	19.996	100.145	20.225	4.341	0.498
174.000	170.289	79.996	19.996	100.139	20.226	4.285	0.506
176.000	171.290	79.997	19.996	100.129	20.225	4.348	0.490
178.000	172.267	79.997	19.996	100.137	20.228	4.119	0.501
180.000	173.298	79.996	19.996	100.125	20.229	4.033	0.519
182.000	174.310	79.996	19.995	100.122	20.230	3.999	0.536
184.000	175.315	79.997	19.995	100.119	20.229	4.036	0.520
186.000	176.346	79.996	19.995	100.118	20.231	3.904	0.533
188.000	177.393	80.001	19.995	100.119	20.229	4.046	0.496
190.000	178.371	79.998	19.994	100.104	20.222	4.621	0.481
192.000	179.398	79.998	19.996	100.048	20.231	3.893	0.489
194.000	180.361	79.996	19.993	100.195	20.228	4.160	0.492
196.000	181.409	79.996	19.995	100.129	20.231	3.895	0.518
198.000	182.431	79.999	19.994	100.120	20.231	3.876	0.522
200.000	183.399	79.996	19.995	100.117	20.232	3.796	0.519
202.000	184.388	79.995	19.994	100.117	20.232	3.804	0.506
204.000	185.371	79.996	19.995	100.120	20.230	4.000	0.483
206.000	186.382	79.996	19.996	100.119	20.227	4.255	0.501
208.000	187.398	79.995	19.996	100.120	20.231	3.880	0.499
210.000	188.415	79.994	19.995	100.118	20.227	4.185	0.495
212.000	189.403	79.996	19.996	100.119	20.231	3.899	0.482
214.001	190.400	79.994	19.995	100.111	20.230	3.985	0.514
216.000	191.390	79.995	19.996	100.118	20.230	4.018	0.490
218.000	192.407	79.995	19.994	100.116	20.230	3.959	0.480
220.000	193.327	79.995	19.995	100.109	20.230	3.961	0.485
222.000	194.374	79.997	19.995	100.101	20.232	3.806	0.515
224.000	195.317	79.996	19.995	100.109	20.227	4.209	0.477
226.000	196.298	79.997	19.995	100.111	20.229	4.067	0.496
228.000	197.254	79.997	19.995	100.111	20.228	4.151	0.488
230.000	198.258	79.996	19.996	100.106	20.230	4.004	0.496
232.000	199.231	79.995	19.996	100.116	20.227	4.181	0.481
234.000	200.211	79.995	19.996	100.099	20.226	4.285	0.504
236.000	201.174	79.994	19.996	100.109	20.226	4.323	0.510
238.000	202.130	79.996	19.996	100.105	20.221	4.662	0.489
240.000	203.141	79.997	19.996	100.098	20.229	4.097	0.515
242.000	204.089	79.996	19.997	100.094	20.228	4.118	0.473
244.000	205.069	79.998	19.996	100.111	20.228	4.153	0.475
246.000	206.046	79.997	19.996	100.105	20.226	4.265	0.503
248.000	207.030	79.997	19.995	100.099	20.226	4.293	0.502
250.000	207.974	79.998	19.995	100.105	20.225	4.339	0.500
252.000	208.964	79.997	19.996	100.091	20.227	4.212	0.511
254.000	209.948	79.997	19.995	100.104	20.223	4.492	0.492
256.000	210.968	79.996	19.996	100.112	20.225	4.395	0.513
258.000	211.912	79.998	19.994	100.107	20.223	4.539	0.477
260.000	212.859	79.997	19.995	100.118	20.225	4.395	0.472
262.000	213.822	79.998	19.994	100.113	20.220	4.733	0.497
264.000	214.767	79.996	19.997	100.109	20.222	4.617	0.470
266.000	215.759	79.997	19.995	100.116	20.221	4.721	0.474
268.000	216.714	79.999	19.994	100.115	20.224	4.447	0.453
270.000	217.721	79.998	19.993	100.115	20.219	4.831	0.529
272.000	218.673	79.997	19.998	100.114	20.219	4.826	0.463
274.000	219.663	79.995	19.996	100.114	20.221	4.669	0.511
276.000	220.618	79.996	19.994	100.120	20.218	4.930	0.496
278.000	221.621	79.997	19.994	100.117	20.218	4.924	0.516
280.000	222.608	79.993	19.997	100.123	20.215	5.157	0.473
282.000	223.584	79.997	19.994	100.124	20.210	5.570	0.472
284.000	224.555	79.994	19.994	100.123	20.210	5.568	0.486
286.000	225.539	79.997	19.993	100.048	20.206	5.871	0.517
288.000	226.542	79.996	19.994	100.082	20.213	5.307	0.500
290.000	227.509	79.996	19.994	100.192	20.207	5.777	0.512
292.000	228.515	79.998	19.994	100.119	20.205	5.919	0.502
294.000	229.510	79.996	19.996	100.116	20.205	5.917	0.473
296.000	230.476	79.996	19.996	100.116	20.204	6.014	0.479
298.000	231.451	79.996	19.996	100.119	20.205	5.913	0.488
300.000	232.408	79.995	19.997	100.118	20.201	6.273	0.488
302.000	233.414	79.996	19.997	100.116	20.201	6.243	0.508
304.000	234.430	79.996	19.996	100.118	20.199	6.454	0.510
306.000	235.389	79.994	19.997	100.119	20.197	6.558	0.503
308.000	236.358	79.996	19.996	100.118	20.195	6.736	0.516
310.000	237.376	79.996	19.995	100.120	20.200	6.357	0.487
312.000	238.371	79.996	19.996	100.123	20.196	6.693	0.489
314.000	239.333	79.996	19.995	100.120	20.194	6.777	0.483
316.000	240.329	79.996	19.996	100.125	20.191	7.043	0.508
318.000	241.328	79.996	19.996	100.125	20.188	7.263	0.498
320.000	242.314	79.996	19.995	100.121	20.189	7.200	0.515
322.000	243.404	79.998	19.996	100.124	20.185	7.519	0.551
324.000	244.370	79.996	19.996	100.128	20.183	7.642	0.511
326.000	245.347	79.995	19.996	100.124	20.183	7.679	0.512
328.000	246.396	79.997	19.996	100.129	20.180	7.901	0.515
330.000	247.379	79.996	19.997	100.123	20.177	8.136	0.511
332.000	248.348	79.996	19.997	100.124	20.176	8.201	0.485
334.000	249.409	79.995	19.994	100.132	20.174	8.395	0.504
336.000	250.452	79.996	19.994	100.134	20.174	8.367	0.527
338.000	251.433	79.996	19.994	100.129	20.173	8.427	0.498
340.000	252.503	79.997	19.994	100.131	20.173	8.437	0.535
342.000	253.445	79.996	19.995	100.138	20.168	8.883	0.511
344.000	254.491	79.999	19.994	100.130	20.164	9.145	0.527
346.000	255.513	79.999	19.995	100.132	20.164	9.140	0.543
348.000	256.515	80.001	19.993	100.129	20.160	9.478	0.517
350.000	257.531	79.998	19.997	100.136	20.156	9.778	0.509
352.000	258.538	79.999	19.995	100.145	20.153	10.022	0.517
354.000	259.559	79.998	19.995	100.148	20.153	10.022	0.518
356.000	260.559	79.996	19.995	100.149	20.150	10.255	0.525
358.000	261.543	79.995	19.995	100.141	20.150	10.314	0.513
360.000	262.549	79.997	19.995	100.146	20.147	10.521	0.488
362.000	263.548	79.997	19.996	100.139	20.143	10.862	0.499
364.000	264.548	79.995	19.995	100.152	20.142	10.937	0.515
366.000	265.522	79.998	19.996	100.142	20.138	11.231	0.478
368.000	266.567	79.997	19.995	100.151	20.133	11.653	0.515
370.000	267.561	79.997	19.995	100.159	20.132	11.733	0.498
372.000	268.552	79.997	19.995	100.159	20.128	12.040	0.466
374.000	269.597	79.997	19.996	100.160	20.125	12.257	0.498
376.000	270.572	79.997	19.995	100.159	20.122	12.446	0.516
378.000	271.621	79.998	19.995	100.160	20.116	12.984	0.523
380.000	272.648	79.997	19.995	100.160	20.111	13.370	0.523
382.000	273.601	79.995	19.996	100.163	20.105	13.822	0.495
384.000	274.601	79.996	19.996	100.163	20.101	14.111	0.473
386.000	275.633	79.995	19.996	100.167	20.101	14.138	0.509
388.000	276.631	79.996	19.996	100.174	20.092	14.883	0.500
390.000	277.655	79.996	19.996	100.174	20.088	15.168	0.512
392.000	278.628	79.995	19.995	100.172	20.083	15.577	0.473
394.000	279.630	79.997	19.995	100.193	20.072	16.417	0.502
396.000	280.623	79.996	19.996	100.181	20.067	16.800	0.531
398.000	281.568	79.996	19.996	100.186	20.060	17.378	0.491
400.000	282.595	79.998	19.994	100.198	20.058	17.548	0.526
402.000	283.600	79.998	19.995	100.197	20.044	18.634	0.487
404.000	284.570	79.996	19.995	100.196	20.040	18.921	0.488
406.000	285.574	79.997	19.996	100.203	20.033	19.475	0.481
408.000	286.564	79.997	19.995	100.211	20.024	20.194	0.454
410.000	287.591	79.996	19.995	100.200	20.016	20.854	0.506
412.000	288.632	79.997	19.996	100.210	20.008	21.503	0.535
414.000	289.625	79.996	19.996	100.216	19.998	22.294	0.504
416.000	290.615	79.996	19.996	100.227	19.988	23.031	0.512
418.000	291.641	79.997	19.996	100.226	19.981	23.564	0.531
420.000	292.627	79.997	19.995	100.231	19.971	24.390	0.497
422.000	293.652	79.997	19.995	100.232	19.964	24.931	0.473
424.000	294.631	79.999	19.995	100.235	19.950	26.070	0.489
426.000	295.640	79.999	19.994	100.235	19.936	27.174	0.481
428.000	296.645	79.998	19.995	100.235	19.926	27.913	0.473
430.000	297.634	80.000	19.994	100.237	19.914	28.854	0.505
432.000	298.644	79.999	19.994	100.246	19.905	29.610	0.505
434.000	299.639	79.997	19.995	100.248	19.893	30.568	0.491
436.000	300.638	79.998	19.995	100.246	19.882	31.407	0.510
438.000	301.651	79.996	19.995	100.267	19.871	32.284	0.526
440.000	302.612	79.995	19.996	100.275	19.859	33.211	0.478
442.000	303.638	79.997	19.996	100.276	19.848	34.077	0.520
444.000	304.626	79.996	19.996	100.276	19.839	34.831	0.485
446.000	305.604	79.997	19.994	100.277	19.825	35.894	0.508
448.000	306.549	79.996	19.995	100.287	19.813	36.886	0.450
450.000	307.573	79.997	19.995	100.290	19.798	38.082	0.487
452.000	308.587	79.997	19.995	100.302	19.784	39.179	0.497
454.000	309.582	79.997	19.994	100.308	19.770	40.220	0.509
456.000	310.562	79.997	19.995	100.310	19.754	41.491	0.515
458.000	311.602	79.996	19.995	100.315	19.746	42.144	0.526
460.000	312.593	79.996	19.995	100.319	19.735	43.035	0.539
462.000	313.585	79.995	19.995	100.324	19.718	44.398	0.479
464.000	314.587	79.996	19.994	100.326	19.705	45.407	0.504
466.000	315.547	79.995	19.995	100.319	19.692	46.457	0.486
468.000	316.502	79.996	19.994	100.323	19.679	47.438	0.470
470.000	317.482	79.996	19.997	100.334	19.666	48.439	0.478
472.000	318.468	79.996	19.996	100.332	19.647	49.963	0.479
474.000	319.489	79.997	19.996	100.352	19.633	51.060	0.482
476.000	320.517	79.997	19.996	100.356	19.615	52.486	0.519
478.000	321.483	79.998	19.996	100.362	19.602	53.575	0.480
480.000	322.463	79.997	19.995	100.362	19.588	54.619	0.480
482.000	323.483	79.998	19.996	100.361	19.570	56.107	0.520
484.000	324.483	79.999	19.996	100.384	19.556	57.152	0.500
486.000	325.470	79.997	19.995	100.378	19.537	58.686	0.471
488.000	326.409	79.996	19.996	100.389	19.522	59.879	0.454
490.000	327.454	79.997	19.995	100.392	19.503	61.340	0.512
492.000	328.448	79.997	19.995	100.396	19.489	62.490	0.499
494.000	329.482	79.997	19.996	100.403	19.472	63.805	0.510
496.000	330.443	79.997	19.996	100.394	19.455	65.183	0.480
498.000	331.485	79.999	19.996	100.403	19.438	66.524	0.499
500.000	332.461	79.998	19.996	100.398	19.418	68.040	0.505
502.000	333.486	79.998	19.996	100.409	19.405	69.065	0.557
504.001	334.508	79.998	19.995	100.425	19.391	70.177	0.520
506.000	335.482	79.998	19.996	100.426	19.372	71.687	0.469
508.000	336.499	79.997	19.995	100.427	19.357	72.885	0.497
510.000	337.522	79.996	19.995	100.427	19.343	73.966	0.501
512.000	338.512	79.997	19.994	100.420	19.332	74.860	0.492
514.000	339.514	79.996	19.994	100.418	19.321	75.747	0.491
516.000	340.544	79.995	19.996	100.420	19.312	76.392	0.495
518.000	341.574	79.997	19.995	100.411	19.302	77.194	0.502
520.000	342.546	79.996	19.995	100.407	19.299	77.400	0.484
522.000	343.512	79.995	19.995	100.396	19.295	77.728	0.490
524.000	344.516	79.996	19.996	100.394	19.300	77.332	0.498
526.000	345.517	79.996	19.995	100.394	19.302	77.131	0.520
528.000	346.550	79.996	19.994	100.374	19.312	76.331	0.529
530.000	347.505	79.995	19.995	100.358	19.321	75.551	0.459
532.000	348.520	79.996	19.995	100.342	19.340	74.054	0.494
534.000	349.545	79.997	19.996	100.312	19.360	72.468	0.511
536.000	350.566	79.997	19.995	100.289	19.393	69.844	0.517
538.000	351.551	79.996	19.995	100.266	19.424	67.398	0.487
540.000	352.548	79.995	19.995	100.238	19.456	64.907	0.530
542.000	353.564	79.997	19.995	100.218	19.496	61.682	0.489
544.000	354.598	79.995	19.994	100.195	19.539	58.351	0.513
546.000	355.565	79.996	19.996	100.178	19.587	54.546	0.484
548.000	356.599	79.995	19.996	100.147	19.635	50.753	0.479
550.000	357.598	79.996	19.995	100.121	19.685	46.809	0.480
552.000	358.611	79.996	19.995	100.094	19.736	42.792	0.498
554.000	359.599	79.998	19.996	100.081	19.789	38.638	0.494
556.000	360.539	79.997	19.996	100.074	19.836	34.963	0.479
558.000	361.594	79.997	19.996	100.075	19.883	31.305	0.492
560.000	362.569	79.997	19.995	100.076	19.923	28.154	0.491
562.000	363.564	79.997	19.996	100.068	19.965	24.820	0.508
564.000	364.575	79.996	19.996	100.078	19.998	22.242	0.497
566.000	365.596	79.996	19.995	100.079	20.026	20.012	0.496
568.000	366.592	79.996	19.996	100.076	20.052	17.977	0.509
570.000	367.605	79.996	19.995	100.073	20.071	16.486	0.528
572.000	368.593	79.996	19.996	100.080	20.085	15.397	0.502
574.000	369.609	79.996	19.996	100.077	20.104	13.899	0.510
576.000	370.650	79.997	19.995	100.072	20.113	13.169	0.506
578.000	371.600	79.997	19.995	100.073	20.123	12.393	0.489
580.000	372.619	79.997	19.996	100.081	20.129	11.960	0.512
582.000	373.677	79.997	19.995	100.082	20.139	11.120	0.531
584.000	374.633	79.997	19.997	100.073	20.142	10.885	0.496
586.000	375.627	79.997	19.995	100.079	20.147	10.536	0.466
588.000	376.644	79.996	19.996	100.076	20.152	10.114	0.503
590.000	377.634	79.995	19.995	100.079	20.154	9.926	0.505
592.000	378.608	79.995	19.996	100.079	20.158	9.657	0.467
594.000	379.622	79.996	19.996	100.079	20.158	9.640	0.507
596.000	380.633	79.995	19.996	100.076	20.170	8.713	0.503
598.000	381.579	79.996	19.994	100.075	20.166	9.028	0.463
600.000	382.609	79.996	19.994	100.077	20.165	9.088	0.472
602.000	383.660	79.995	19.994	100.078	20.167	8.907	0.504
604.000	384.633	79.997	19.995	100.080	20.173	8.480	0.487
606.000	385.672	79.996	19.995	100.075	20.169	8.789	0.512
608.000	386.674	79.997	19.995	100.078	20.171	8.651	0.529
610.000	387.747	79.997	19.995	100.077	20.174	8.395	0.543
612.000	388.750	79.997	19.995	100.079	20.173	8.494	0.509
614.000	389.768	79.996	19.996	100.074	20.171	8.611	0.506
616.000	390.786	79.996	19.995	100.076	20.173	8.439	0.502
618.000	391.866	79.996	19.995	100.078	20.173	8.435	0.549
620.000	392.917	79.995	19.995	100.078	20.176	8.240	0.517
622.000	393.943	79.995	19.995	100.079	20.175	8.274	0.515
624.000	395.006	79.996	19.995	100.069	20.175	8.285	0.521
626.000	396.079	79.997	19.995	100.068	20.174	8.397	0.538
628.000	397.102	79.996	19.995	100.072	20.174	8.349	0.543
630.000	398.113	79.996	19.995	100.074	20.178	8.067	0.503
632.000	399.170	79.998	19.994	100.081	20.174	8.366	0.504
634.000	400.233	79.998	19.995	100.079	20.174	8.351	0.532
636.000	401.260	79.998	19.995	100.080	20.181	7.845	0.517
638.000	402.323	79.999	19.994	100.078	20.174	8.412	0.520
640.000	403.360	79.997	19.996	100.074	20.175	8.302	0.533
642.000	404.390	79.995	19.996	100.077	20.177	8.167	0.519
644.000	405.418	79.997	19.995	100.077	20.175	8.294	0.544
646.000	406.419	79.995	19.995	100.065	20.180	7.873	0.517
648.000	407.504	79.997	19.996	100.078	20.181	7.801	0.510
650.000	408.560	79.997	19.996	100.080	20.178	8.066	0.523
652.000	409.588	79.996	19.995	100.070	20.176	8.251	0.520
654.000	410.623	79.997	19.995	100.068	20.180	7.936	0.496
656.000	411.695	79.999	19.994	100.070	20.178	8.073	0.544
658.000	412.756	79.997	19.994	100.074	20.179	8.017	0.497
660.000	413.757	79.999	19.995	100.066	20.177	8.126	0.521
662.000	414.808	79.999	19.995	100.058	20.180	7.915	0.487
664.000	415.741	79.997	19.996	100.064	20.179	7.992	0.442
666.000	416.804	79.996	19.995	100.051	20.179	7.959	0.478
668.000	417.808	79.994	19.995	100.043	20.177	8.156	0.463
670.000	418.821	79.996	19.996	100.054	20.179	7.988	0.444
672.000	419.820	79.996	19.996	100.060	20.178	8.097	0.361
674.000	420.599	79.995	19.997	100.056	20.179	8.002	0.205
676.000	422.008	79.994	19.997	100.047	20.178	8.081	0.422
678.000	422.974	79.995	19.997	100.047	20.180	7.896	0.505
680.000	423.897	79.995	19.997	100.066	20.179	8.006	0.490
682.000	424.923	79.997	19.996	100.053	20.179	7.977	0.514
684.000	425.935	79.996	19.996	100.054	20.181	7.855	0.524
686.000	426.909	79.997	19.995	100.045	20.180	7.879	0.512
688.000	427.898	79.997	19.994	100.055	20.177	8.116	0.506
690.000	428.947	79.996	19.996	100.071	20.184	7.592	0.536
692.000	429.920	79.997	19.996	100.058	20.180	7.903	0.476
694.000	430.884	79.996	19.996	100.050	20.176	8.205	0.479
696.000	431.897	79.995	19.995	100.069	20.179	7.954	0.504
698.000	432.894	79.995	19.996	100.072	20.180	7.910	0.504
700.000	433.921	79.995	19.995	100.065	20.179	8.026	0.519
702.000	434.935	79.994	19.995	100.063	20.178	8.058	0.521
704.000	435.958	79.997	19.995	100.061	20.178	8.043	0.531
706.000	436.981	79.995	19.996	100.051	20.179	7.958	0.468
708.000	438.012	79.996	19.996	100.061	20.180	7.914	0.517
710.000	439.027	79.996	19.996	100.051	20.176	8.246	0.493
712.000	440.033	79.997	19.996	100.056	20.176	8.203	0.498
714.000	441.056	79.997	19.994	100.049	20.180	7.935	0.511
716.000	442.036	79.997	19.996	100.063	20.178	8.049	0.491
718.000	443.055	79.997	19.995	100.060	20.181	7.836	0.505
720.000	444.067	79.997	19.996	100.050	20.182	7.732	0.491
722.000	445.105	79.998	19.996	100.047	20.182	7.717	0.507
724.000	446.136	79.997	19.996	100.047	20.183	7.707	0.490
726.000	447.107	79.997	19.996	100.042	20.179	7.961	0.497
728.000	448.126	79.995	19.995	100.043	20.193	6.912	0.500
730.000	449.115	79.996	19.996	100.042	20.175	8.288	0.499
732.000	450.151	79.997	19.996	100.040	20.183	7.685	0.496
734.000	451.184	80.000	19.995	100.039	20.182	7.778	0.485
736.000	452.162	79.998	19.996	100.045	20.181	7.853	0.489
738.000	453.182	79.998	19.996	100.041	20.182	7.730	0.492
740.000	454.182	79.998	19.996	100.038	20.183	7.700	0.501
742.000	455.187	79.998	19.996	100.038	20.184	7.631	0.475
744.000	456.189	79.996	19.995	100.040	20.185	7.493	0.489
746.000	457.267	79.995	19.996	100.040	20.181	7.842	0.534
748.000	458.243	79.996	19.996	100.043	20.182	7.786	0.483
750.000	459.314	79.996	19.996	100.044	20.184	7.577	0.532
752.000	460.272	79.994	19.996	100.041	20.186	7.409	0.483
754.000	461.322	79.995	19.997	100.046	20.186	7.474	0.506
756.000	462.339	79.996	19.996	100.043	20.182	7.715	0.540
758.000	463.354	79.995	19.996	100.041	20.185	7.504	0.504
760.000	464.395	79.995	19.996	100.041	20.186	7.403	0.508
762.000	465.406	79.996	19.996	100.041	20.186	7.407	0.482
764.000	466.466	79.995	19.996	100.040	20.186	7.446	0.540
766.000	467.480	79.997	19.996	100.043	20.186	7.470	0.510
768.000	468.475	79.995	19.996	100.038	20.190	7.102	0.506
770.000	469.517	79.994	19.995	100.041	20.188	7.280	0.519
772.000	470.562	79.995	19.996	100.041	20.187	7.381	0.521
774.000	471.586	79.996	19.995	100.039	20.189	7.176	0.548
776.000	472.586	79.995	19.996	100.037	20.191	7.077	0.508
778.000	473.670	79.995	19.994	100.043	20.191	7.017	0.526
780.000	474.671	79.995	19.996	100.043	20.196	6.633	0.496
782.000	475.681	79.996	19.996	100.041	20.194	6.829	0.496
784.000	476.723	79.996	19.995	100.040	20.192	6.984	0.502
786.000	477.721	79.996	19.995	100.038	20.191	7.067	0.489
788.000	478.746	79.997	19.994	100.030	20.196	6.616	0.480
790.000	479.774	79.997	19.995	100.037	20.195	6.722	0.495
792.000	480.807	79.999	19.995	100.035	20.195	6.689	0.488
794.000	481.893	79.997	19.995	100.029	20.191	7.006	0.521
796.000	482.860	79.997	19.995	100.035	20.191	7.069	0.482
798.000	483.861	79.997	19.995	100.031	20.194	6.827	0.505
800.000	484.889	79.996	19.994	100.029	20.195	6.748	0.516
802.000	485.923	79.999	19.995	100.033	20.195	6.739	0.530
804.000	486.971	79.997	19.996	100.038	20.195	6.761	0.530
806.000	487.990	79.998	19.995	100.040	20.194	6.829	0.503
808.000	488.979	79.999	19.995	100.038	20.196	6.655	0.481
810.000	490.056	79.997	19.995	100.032	20.196	6.659	0.538
812.000	491.046	79.999	19.995	100.040	20.195	6.762	0.501
814.000	492.091	79.998	19.996	100.039	20.197	6.551	0.524
816.000	493.181	79.999	19.995	100.039	20.197	6.545	0.537
818.000	494.222	79.998	19.995	100.031	20.195	6.693	0.516
820.000	495.310	79.998	19.996	100.037	20.201	6.293	0.517
822.000	496.296	79.997	19.997	100.033	20.197	6.531	0.520
824.000	497.369	79.995	19.995	100.031	20.200	6.332	0.521
826.001	498.416	79.995	19.995	100.029	20.199	6.407	0.531
828.000	499.425	79.996	19.995	100.028	20.202	6.179	0.491
830.000	500.470	79.994	19.995	100.021	20.201	6.234	0.540
832.000	501.533	79.996	19.994	100.025	20.202	6.171	0.515
834.000	502.572	79.995	19.995	100.025	20.199	6.375	0.538
836.000	503.555	79.996	19.996	100.025	20.208	5.696	0.503
838.000	504.628	79.995	19.996	100.035	20.207	5.808	0.539
840.000	505.633	79.996	19.995	100.024	20.203	6.079	0.495
842.000	506.687	79.996	19.996	100.034	20.205	5.918	0.510
844.000	507.680	79.996	19.996	100.035	20.204	5.984	0.491
846.000	508.740	79.994	19.997	100.024	20.207	5.812	0.515
848.000	509.748	79.996	19.996	100.019	20.208	5.720	0.510
850.000	510.812	79.996	19.997	100.021	20.204	6.008	0.518
852.000	511.790	79.996	19.997	100.015	20.208	5.668	0.491
854.000	512.792	79.995	19.996	100.024	20.208	5.716	0.489
856.000	513.823	79.995	19.997	100.016	20.204	6.044	0.531
858.000	514.829	79.996	19.995	100.027	20.205	5.933	0.483
860.000	515.864	79.997	19.996	100.022	20.205	5.959	0.534
862.000	516.860	79.996	19.995	100.010	20.206	5.892	0.467
864.000	517.865	79.997	19.994	100.028	20.207	5.752	0.475
866.000	518.876	79.997	19.995	100.022	20.209	5.647	0.502
868.000	519.893	79.999	19.994	100.021	20.208	5.733	0.516
870.000	520.895	79.998	19.994	100.023	20.208	5.738	0.499
872.000	521.869	79.999	19.995	100.032	20.207	5.779	0.505
874.000	522.921	79.998	19.996	100.030	20.206	5.846	0.505
876.000	523.933	79.998	19.995	100.022	20.207	5.799	0.513
878.000	524.889	79.997	19.996	100.029	20.211	5.481	0.501
880.000	525.928	79.997	19.995	100.021	20.210	5.532	0.516
882.000	526.898	79.996	19.995	100.005	20.208	5.717	0.488
884.000	527.886	79.997	19.995	100.006	20.207	5.815	0.491
886.000	528.920	79.997	19.994	100.020	20.212	5.385	0.519
888.000	529.910	79.996	19.995	100.021	20.211	5.508	0.520
890.000	530.886	79.998	19.995	100.023	20.212	5.413	0.515
892.000	531.933	79.999	19.994	100.030	20.211	5.506	0.537
894.000	532.955	79.999	19.994	100.009	20.212	5.420	0.526
896.000	533.914	79.997	19.995	100.007	20.213	5.278	0.474
898.000	534.944	79.999	19.996	100.016	20.213	5.323	0.489
900.000	535.975	79.996	19.994	100.015	20.215	5.138	0.521
902.000	536.964	79.996	19.994	100.010	20.211	5.453	0.507
904.000	537.940	79.995	19.996	100.014	20.215	5.185	0.485
906.000	538.940	79.996	19.995	100.031	20.208	5.709	0.498
908.000	539.968	79.997	19.997	100.015	20.212	5.381	0.503
910.000	541.003	79.997	19.996	100.013	20.211	5.470	0.518
912.000	541.987	79.995	19.996	100.021	20.212	5.429	0.493
914.000	543.033	79.995	19.995	100.019	20.211	5.505	0.498
916.000	544.034	79.996	19.995	100.014	20.208	5.668	0.528
918.000	545.050	79.995	19.995	100.024	20.208	5.708	0.475
920.000	546.034	79.996	19.995	100.016	20.209	5.588	0.498
922.000	547.115	79.996	19.996	100.031	20.209	5.598	0.526
924.000	548.134	79.996	19.995	100.024	20.209	5.616	0.540
926.000	549.144	79.996	19.995	100.024	20.211	5.433	0.531
928.000	550.182	79.995	19.996	100.009	20.212	5.364	0.513
930.000	551.201	79.996	19.995	100.018	20.216	5.095	0.526
932.000	552.202	79.995	19.997	100.014	20.213	5.278	0.495
934.000	553.230	79.994	19.997	100.013	20.212	5.414	0.523
936.000	554.261	79.995	19.996	100.024	20.211	5.432	0.509
938.000	555.319	79.994	19.997	100.015	20.214	5.235	0.515
940.000	556.360	79.996	19.996	100.020	20.215	5.132	0.534
942.000	557.358	79.996	19.997	100.016	20.211	5.446	0.509
944.000	558.403	79.997	19.996	100.025	20.214	5.213	0.510
946.000	559.456	79.997	19.995	100.017	20.214	5.199	0.497
948.000	560.446	79.997	19.995	100.017	20.211	5.464	0.475
950.000	561.493	79.998	19.996	100.034	20.209	5.623	0.520
952.000	562.522	79.998	19.995	100.015	20.212	5.386	0.490
954.000	563.604	79.996	19.994	100.016	20.214	5.203	0.541
956.000	564.624	79.998	19.995	100.014	20.212	5.383	0.510
958.000	565.638	79.996	19.994	100.034	20.210	5.510	0.526
960.000	566.687	79.996	19.996	100.027	20.213	5.273	0.514
962.000	567.730	79.996	19.995	100.023	20.210	5.541	0.511
964.000	568.733	79.997	19.995	100.020	20.210	5.571	0.494
966.000	569.769	79.997	19.995	100.019	20.210	5.529	0.533
968.000	570.812	79.999	19.995	100.016	20.212	5.416	0.529
970.000	571.862	80.000	19.995	100.015	20.212	5.353	0.505
972.000	572.888	80.000	19.995	100.026	20.212	5.360	0.523
974.000	573.924	80.000	19.995	100.024	20.211	5.500	0.513
976.000	574.989	79.999	19.994	100.004	20.214	5.248	0.558
978.000	576.014	79.998	19.994	100.019	20.214	5.215	0.518
980.000	577.030	79.996	19.996	100.030	20.214	5.265	0.502
982.000	578.059	79.997	19.995	100.019	20.210	5.551	0.500
984.000	579.093	79.997	19.995	100.023	20.214	5.204	0.487
986.000	580.131	79.996	19.995	100.016	20.215	5.161	0.523
988.000	581.150	79.996	19.994	100.014	20.215	5.192	0.508
990.000	582.206	79.997	19.995	100.022	20.213	5.286	0.530
992.000	583.238	79.996	19.995	100.014	20.210	5.532	0.533
994.000	584.227	79.995	19.996	100.005	20.212	5.373	0.501
996.000	585.221	79.996	19.996	100.006	20.214	5.244	0.471
998.000	586.274	79.997	19.996	100.019	20.212	5.386	0.510
1000.000	587.301	79.997	19.995	100.017	20.216	5.112	0.510
1002.000	588.315	79.997	19.996	100.012	20.215	5.177	0.506
1004.000	589.347	79.996	19.995	100.018	20.213	5.295	0.521
1006.000	590.342	79.996	19.995	100.037	20.215	5.166	0.515
1008.000	591.350	79.994	19.996	100.022	20.216	5.086	0.532
1010.000	592.421	79.994	19.996	100.022	20.212	5.392	0.533
1012.000	593.405	79.995	19.996	100.019	20.212	5.381	0.510
1014.000	594.460	79.995	19.996	100.018	20.215	5.135	0.519
1016.000	595.477	79.996	19.996	100.023	20.211	5.434	0.510
1018.000	596.482	79.994	19.995	100.021	20.219	4.879	0.518
1020.000	597.496	79.995	19.997	100.016	20.218	4.912	0.534
1022.000	598.460	79.996	19.996	100.013	20.214	5.217	0.485
1024.000	599.459	79.996	19.995	100.007	20.216	5.084	0.481
1026.000	600.460	79.996	19.995	100.003	20.216	5.059	0.506
1027.999	601.472	79.998	19.995	100.004	20.217	4.967	0.498
1030.000	602.454	79.997	19.995	100.010	20.214	5.241	0.502
1031.999	603.442	79.998	19.995	100.010	20.217	4.980	0.507
1033.999	604.428	79.997	19.995	100.007	20.215	5.135	0.489
1036.001	605.412	79.998	19.995	100.020	20.213	5.286	0.491
1037.999	606.368	79.996	19.995	100.020	20.217	5.015	0.468
1039.999	607.320	79.998	19.995	100.007	20.218	4.888	0.479
1041.999	608.304	79.997	19.994	100.004	20.218	4.956	0.478
1044.000	609.306	79.997	19.996	100.001	20.218	4.920	0.485
1045.999	610.262	79.999	19.994	100.003	20.217	4.978	0.499
1048.000	611.259	80.000	19.994	100.008	20.217	4.965	0.525
1050.000	612.258	79.998	19.995	100.030	20.214	5.250	0.521
1052.000	613.209	80.000	19.995	100.009	20.214	5.210	0.482
1054.000	614.217	79.998	19.995	100.008	20.213	5.306	0.485
1056.000	615.200	79.998	19.996	100.016	20.213	5.285	0.508
1057.999	616.204	79.997	19.996	100.012	20.213	5.325	0.491
1059.999	617.218	79.997	19.995	100.010	20.215	5.142	0.510
1062.000	618.213	79.996	19.994	100.021	20.216	5.093	0.489
1064.000	619.236	79.997	19.995	100.027	20.213	5.278	0.507
1066.001	620.264	79.995	19.994	100.017	20.214	5.238	0.506
1067.999	621.310	79.995	19.994	100.019	20.214	5.231	0.519
1070.001	622.369	79.996	19.993	100.014	20.210	5.537	0.530
1072.000	623.412	79.995	19.995	100.009	20.213	5.325	0.554
1074.000	624.460	79.997	19.995	100.020	20.213	5.297	0.532
1076.000	625.465	79.998	19.995	100.025	20.214	5.231	0.518
1078.001	626.480	79.996	19.996	100.025	20.213	5.286	0.507
1080.000	627.584	79.996	19.997	100.025	20.214	5.227	0.550
1082.000	628.645	79.995	19.996	100.022	20.216	5.104	0.537
1084.000	629.683	79.995	19.995	100.016	20.214	5.269	0.561
1086.000	630.718	79.994	19.994	100.029	20.213	5.315	0.516
1088.000	631.809	79.996	19.996	100.015	20.212	5.409	0.535
1090.000	632.823	79.996	19.996	100.019	20.214	5.265	0.534
1092.000	633.869	79.994	19.996	100.031	20.211	5.457	0.517
1094.000	634.967	79.996	19.996	100.009	20.213	5.304	0.523
1096.000	635.997	79.997	19.996	100.013	20.213	5.346	0.523
1098.000	637.025	79.997	19.997	100.025	20.211	5.480	0.536
1100.000	638.076	79.997	19.995	100.003	20.216	5.071	0.525
1102.000	639.147	79.997	19.996	100.020	20.218	4.890	0.535
1104.000	640.210	79.997	19.997	100.010	20.217	5.015	0.547
1106.000	641.223	79.997	19.996	100.012	20.216	5.053	0.504
1108.000	642.262	79.997	19.996	100.002	20.211	5.460	0.518
1110.000	643.310	79.997	19.996	100.012	20.217	4.991	0.537
1112.000	644.335	79.997	19.997	100.004	20.219	4.877	0.508
1114.000	645.405	79.998	19.995	100.006	20.213	5.273	0.528
1116.000	646.428	79.998	19.997	100.007	20.214	5.206	0.521
1118.000	647.445	79.998	19.995	100.008	20.217	4.961	0.514
1120.000	648.469	79.998	19.995	100.003	20.214	5.229	0.502
1122.000	649.511	79.997	19.994	100.000	20.213	5.302	0.522
1124.000	650.532	79.999	19.995	100.006	20.216	5.075	0.516
1126.000	651.548	79.999	19.996	100.002	20.213	5.291	0.529
1128.000	652.538	80.000	19.995	100.011	20.214	5.233	0.488
1130.000	653.543	80.000	19.994	100.001	20.214	5.263	0.469
1132.000	654.578	80.000	19.993	100.003	20.216	5.076	0.510
1134.000	655.594	79.998	19.995	100.023	20.213	5.346	0.597
1136.000	656.579	79.996	19.995	100.002	20.215	5.150	0.505
1138.001	657.572	79.996	19.995	100.019	20.216	5.051	0.490
1140.000	658.601	79.998	19.995	100.007	20.209	5.590	0.523
1142.001	659.576	79.997	19.995	100.031	20.211	5.503	0.508
1144.000	660.603	79.995	19.994	100.007	20.216	5.075	0.502
1146.000	661.604	79.997	19.997	100.007	20.215	5.152	0.537
1148.000	662.597	79.994	19.994	100.006	20.218	4.956	0.499
1150.000	663.556	79.997	19.996	100.008	20.215	5.124	0.454
1152.000	664.603	79.997	19.995	100.006	20.211	5.469	0.491
1154.000	665.559	79.997	19.993	100.008	20.213	5.278	0.475
1156.000	666.550	79.995	19.993	100.016	20.214	5.271	0.494
1158.000	667.538	79.996	19.995	100.007	20.215	5.189	0.515
1160.000	668.531	79.997	19.994	100.003	20.214	5.268	0.475
1162.000	669.556	79.996	19.997	100.006	20.213	5.326	0.523
1164.000	670.552	79.995	19.996	100.011	20.214	5.263	0.478
1166.000	671.453	79.996	19.996	100.010	20.209	5.587	0.460
1168.000	672.523	79.994	19.995	100.002	20.213	5.273	0.508
1170.000	673.522	79.995	19.996	100.007	20.217	5.011	0.520
1172.000	674.523	79.996	19.996	100.010	20.214	5.234	0.490
1174.000	675.555	79.996	19.995	100.031	20.211	5.445	0.529
1176.000	676.544	79.998	19.996	100.008	20.216	5.101	0.481
1178.000	677.538	79.998	19.996	100.008	20.209	5.627	0.485
1180.000	678.567	79.997	19.994	100.022	20.212	5.383	0.507
1182.000	679.533	79.997	19.996	100.011	20.215	5.159	0.494
1184.000	680.531	79.998	19.995	100.010	20.209	5.629	0.486
1185.999	681.502	79.997	19.996	100.009	20.215	5.191	0.452
1187.999	682.532	79.997	19.996	100.018	20.213	5.325	0.493
1189.999	683.503	79.996	19.996	100.024	20.212	5.359	0.513
1191.999	684.510	79.997	19.996	100.005	20.210	5.572	0.496
1193.999	685.545	79.996	19.997	100.022	20.216	5.115	0.498
1195.999	686.576	79.996	19.996	100.012	20.214	5.239	0.515
1198.000	687.581	79.995	19.996	100.010	20.213	5.345	0.499
1199.999	688.586	79.997	19.996	100.009	20.211	5.444	0.523
1202.000	689.585	79.998	19.996	100.010	20.217	4.992	0.509
1204.000	690.605	80.000	19.996	100.013	20.214	5.212	0.511
1205.999	691.606	80.000	19.994	100.017	20.209	5.649	0.495
1208.000	692.638	80.000	19.995	100.011	20.208	5.671	0.495
1209.999	693.649	79.998	19.994	100.014	20.207	5.807	0.483
1211.999	694.677	79.999	19.995	100.032	20.211	5.462	0.500
1213.999	695.729	79.996	19.994	100.034	20.210	5.549	0.522
1216.000	696.770	79.996	19.995	100.030	20.212	5.407	0.503
1217.999	697.793	79.994	19.995	100.035	20.209	5.623	0.525
1219.999	698.810	79.996	19.995	100.037	20.213	5.343	0.499
1222.000	699.840	79.997	19.995	100.041	20.208	5.685	0.525
1224.000	700.843	79.995	19.995	100.029	20.211	5.474	0.488
1225.999	701.891	79.996	19.996	100.023	20.212	5.407	0.516
1228.000	702.942	79.998	19.995	100.029	20.209	5.605	0.496
1229.999	703.952	79.995	19.995	100.019	20.212	5.383	0.505
1232.000	705.016	79.997	19.996	100.019	20.208	5.680	0.531
1234.001	706.041	79.998	19.995	100.020	20.212	5.387	0.519
1236.000	707.115	79.997	19.994	100.014	20.209	5.603	0.536
1238.000	708.128	79.995	19.995	100.017	20.212	5.375	0.518
1239.999	709.154	79.996	19.994	100.019	20.207	5.771	0.531
1241.999	710.224	79.995	19.995	100.012	20.212	5.378	0.519
1243.999	711.276	79.997	19.995	100.009	20.210	5.561	0.517
1246.000	712.257	79.996	19.996	100.020	20.208	5.696	0.519
1248.000	713.325	79.996	19.996	100.012	20.207	5.821	0.499
1249.999	714.335	79.995	19.995	100.014	20.202	6.171	0.495
1251.999	715.390	79.997	19.996	100.020	20.210	5.555	0.496
1254.000	716.400	79.994	19.995	100.029	20.209	5.638	0.513
1256.000	717.428	79.995	19.996	100.022	20.210	5.554	0.501
1257.999	718.418	79.997	19.994	100.025	20.206	5.868	0.483
1260.000	719.407	79.997	19.996	100.013	20.209	5.599	0.480
1262.001	720.462	79.997	19.994	100.008	20.206	5.887	0.500
1263.999	721.441	79.997	19.994	100.013	20.205	5.972	0.505
1266.000	722.442	79.995	19.995	100.025	20.208	5.710	0.504
1268.000	723.460	79.997	19.995	100.018	20.205	5.923	0.478
1270.000	724.413	79.997	19.994	100.019	20.206	5.892	0.476
1272.000	725.406	79.997	19.995	100.015	20.208	5.723	0.505
1274.000	726.437	79.998	19.995	100.031	20.208	5.689	0.522
1275.999	727.407	79.997	19.996	100.014	20.205	5.911	0.490
1278.000	728.346	79.997	19.996	100.025	20.204	6.018	0.498
1280.000	729.364	79.998	19.996	100.036	20.213	5.346	0.516
1282.000	730.331	79.997	19.995	100.013	20.213	5.345	0.504
1284.000	731.325	79.998	19.997	100.009	20.208	5.688	0.505
1286.000	732.294	79.999	19.996	100.013	20.203	6.084	0.468
1287.999	733.303	79.998	19.995	100.009	20.205	5.910	0.490
1289.999	734.265	79.997	19.995	100.008	20.204	6.005	0.495
1291.999	735.249	79.999	19.996	100.018	20.203	6.083	0.473
1294.000	736.256	79.997	19.995	100.032	20.204	5.995	0.501
1295.999	737.291	79.998	19.994	100.032	20.207	5.810	0.504
1297.999	738.256	79.996	19.995	100.033	20.202	6.167	0.531
1299.999	739.285	79.997	19.995	100.035	20.205	5.917	0.466
1301.999	740.284	79.995	19.995	100.025	20.209	5.616	0.504
1303.999	741.271	79.997	19.995	100.007	20.203	6.120	0.467
1305.999	742.350	79.999	19.995	100.013	20.205	5.930	0.527
1307.999	743.340	79.997	19.995	100.014	20.206	5.862	0.525
1308.499	743.606	79.997	19.995	100.016	20.205	5.965	0.511