File: 01_Data/Cotton_Felt/MCC/Cotton_Felt_MCC_30K_min_210709_R4.txt
Sample ID:	C:\MCC\MCC Cal\Test\Cotton_Felt\Cotton_Felt_MCC_30K_min_21_07_09_R4.txt
Sample Weight (mg):	4.31
Heating Rate (C/s):	0.5
Combustor Temp (C):	900
N2 Flow Rate (cc/min):	80
O2 Flow Rate (cc/min):	20
Calibration File:	C:\MCC\MCC Cal\Coeff1 JN10440_30_210304.txt.txt
T Correction Coefficients:	0	1.024463	0
Time Shift (s):	14
*
Time (s)	Temperature (C)	N2 flow rate (cc/min)	O2 flow rate (cc/min)	Flow Rate (cc/min)	Oxygen (%)	HRR (W/g)	Heating rate (C/s)
0.000	112.894	79.997	19.995	99.944	20.220	-0.429	-0.045
2.000	112.871	79.996	19.995	99.944	20.214	0.024	0.012
4.000	112.882	79.995	19.995	99.943	20.218	-0.243	0.003
6.000	112.858	79.996	19.995	99.941	20.213	0.129	-0.001
8.000	112.841	80.000	19.996	99.938	20.210	0.306	0.009
10.001	112.784	79.998	19.995	99.935	20.215	-0.070	-0.013
12.000	112.768	79.998	19.996	99.935	20.212	0.213	0.009
14.001	112.732	79.998	19.995	99.941	20.211	0.265	-0.019
16.000	112.733	79.995	19.995	99.959	20.213	0.080	-0.020
18.000	112.771	79.998	19.996	99.968	20.207	0.572	-0.002
20.000	112.703	79.997	19.996	100.002	20.202	0.884	-0.011
22.000	112.790	79.996	19.997	100.035	20.198	1.231	0.025
24.000	112.804	79.995	19.996	100.080	20.194	1.470	-0.016
26.000	112.932	79.996	19.997	100.124	20.190	1.757	0.074
28.000	113.017	79.997	19.995	100.116	20.185	2.127	0.041
30.000	113.175	79.997	19.997	100.124	20.185	2.161	0.084
32.000	113.359	79.998	19.996	100.121	20.184	2.235	0.096
34.000	113.612	79.996	19.995	100.126	20.180	2.537	0.102
36.000	113.851	79.998	19.997	100.128	20.182	2.372	0.089
38.000	114.163	79.996	19.996	100.128	20.179	2.590	0.159
40.000	114.457	79.993	19.996	100.130	20.178	2.648	0.196
42.001	114.784	79.997	19.997	100.137	20.174	2.927	0.157
44.000	115.120	79.995	19.996	100.132	20.178	2.644	0.164
46.000	115.480	79.994	19.997	100.136	20.174	2.919	0.181
48.000	115.895	79.994	19.998	100.150	20.171	3.120	0.209
50.000	116.346	79.995	19.997	100.157	20.172	3.092	0.212
52.000	116.786	79.996	19.998	100.159	20.166	3.484	0.226
54.000	117.209	79.994	19.996	100.155	20.167	3.451	0.231
56.000	117.691	79.995	19.997	100.164	20.172	3.068	0.254
58.000	118.177	79.995	19.997	100.171	20.167	3.447	0.247
60.000	118.724	79.996	19.996	100.167	20.166	3.545	0.280
62.000	119.267	79.996	19.996	100.167	20.170	3.212	0.269
64.001	119.811	79.997	19.996	100.163	20.165	3.620	0.264
66.000	120.354	79.995	19.996	100.171	20.165	3.594	0.255
68.000	120.975	79.997	19.996	100.168	20.170	3.224	0.285
70.000	121.663	79.995	19.995	100.172	20.172	3.062	0.350
72.000	122.270	79.996	19.996	100.173	20.171	3.166	0.320
74.000	122.921	79.995	19.997	100.170	20.170	3.224	0.356
76.000	123.558	79.995	19.997	100.168	20.170	3.226	0.335
78.000	124.207	79.995	19.997	100.167	20.175	2.863	0.319
80.000	124.918	79.996	19.996	100.168	20.168	3.339	0.338
82.000	125.621	79.997	19.996	100.168	20.170	3.250	0.364
84.000	126.306	79.996	19.996	100.169	20.163	3.712	0.343
86.001	126.998	79.998	19.996	100.169	20.166	3.497	0.322
88.000	127.763	79.997	19.996	100.170	20.166	3.547	0.379
90.000	128.484	79.999	19.996	100.172	20.169	3.300	0.371
92.000	129.266	79.998	19.996	100.169	20.165	3.618	0.366
94.000	129.955	79.998	19.995	100.169	20.167	3.449	0.371
96.000	130.716	79.997	19.996	100.174	20.171	3.160	0.379
98.000	131.481	79.997	19.995	100.186	20.170	3.218	0.370
100.000	132.259	79.995	19.996	100.179	20.165	3.625	0.397
102.001	133.035	79.997	19.996	100.173	20.169	3.318	0.388
104.000	133.855	79.997	19.996	100.174	20.169	3.302	0.388
106.000	134.654	79.998	19.996	100.175	20.171	3.156	0.439
108.000	135.478	79.998	19.995	100.173	20.166	3.521	0.420
110.000	136.290	79.997	19.996	100.175	20.167	3.432	0.437
112.001	137.138	79.996	19.996	100.183	20.170	3.254	0.422
114.000	137.964	79.999	19.997	100.201	20.169	3.300	0.423
116.001	138.811	79.997	19.995	100.184	20.165	3.565	0.425
118.000	139.680	79.998	19.995	100.181	20.164	3.643	0.417
120.000	140.521	79.997	19.996	100.183	20.163	3.726	0.418
122.000	141.388	79.995	19.997	100.185	20.169	3.334	0.432
124.000	142.298	79.995	19.996	100.176	20.168	3.358	0.442
126.000	143.173	79.994	19.996	100.184	20.170	3.232	0.450
128.000	144.104	79.996	19.996	100.197	20.166	3.551	0.472
130.000	144.973	79.996	19.997	100.190	20.161	3.882	0.424
132.000	145.885	79.995	19.997	100.179	20.167	3.468	0.468
134.000	146.751	79.995	19.997	100.181	20.171	3.145	0.446
136.000	147.708	79.995	19.997	100.189	20.163	3.732	0.472
138.000	148.668	79.997	19.998	100.181	20.163	3.725	0.504
140.000	149.556	79.995	19.997	100.189	20.166	3.487	0.457
142.000	150.450	79.997	19.997	100.199	20.171	3.183	0.440
144.000	151.340	79.996	19.997	100.198	20.166	3.506	0.439
146.000	152.330	79.995	19.996	100.188	20.165	3.607	0.470
148.000	153.222	79.996	19.997	100.186	20.160	3.926	0.460
150.000	154.177	79.996	19.996	100.193	20.164	3.631	0.452
152.000	155.147	79.995	19.996	100.186	20.165	3.577	0.496
154.000	156.069	79.996	19.997	100.193	20.167	3.417	0.464
156.000	157.045	79.996	19.996	100.189	20.168	3.368	0.508
158.000	158.006	79.995	19.996	100.180	20.166	3.489	0.473
160.000	158.959	79.995	19.996	100.191	20.158	4.121	0.480
162.000	159.918	79.996	19.996	100.178	20.164	3.693	0.470
164.000	160.936	79.995	19.996	100.175	20.164	3.645	0.491
166.000	161.873	79.997	19.996	100.179	20.163	3.710	0.488
168.000	162.898	79.998	19.995	100.181	20.167	3.447	0.515
170.000	163.833	79.997	19.996	100.193	20.159	4.011	0.489
172.000	164.824	79.996	19.996	100.184	20.162	3.786	0.466
174.001	165.817	79.998	19.997	100.187	20.166	3.505	0.484
176.000	166.772	79.996	19.996	100.172	20.166	3.505	0.482
178.000	167.802	79.996	19.997	100.172	20.163	3.768	0.491
180.000	168.766	79.996	19.997	100.174	20.162	3.782	0.500
182.000	169.756	79.996	19.996	100.172	20.161	3.857	0.529
184.000	170.773	79.997	19.996	100.176	20.166	3.545	0.460
186.000	171.771	79.997	19.995	100.174	20.162	3.802	0.540
188.000	172.749	79.996	19.995	100.169	20.158	4.094	0.496
190.000	173.757	79.999	19.996	100.171	20.165	3.592	0.501
192.000	174.763	80.000	19.996	100.167	20.164	3.678	0.482
194.000	175.721	79.998	19.997	100.167	20.165	3.578	0.478
196.000	176.701	79.998	19.996	100.166	20.162	3.825	0.478
198.000	177.741	79.997	19.997	100.171	20.166	3.527	0.495
200.000	178.690	79.996	19.996	100.163	20.166	3.509	0.496
202.000	179.713	79.997	19.997	100.166	20.159	4.045	0.455
204.000	180.787	79.996	19.997	100.165	20.164	3.638	0.528
206.000	181.723	79.996	19.996	100.166	20.161	3.887	0.474
208.000	182.758	79.998	19.997	100.166	20.165	3.562	0.516
210.000	183.761	79.997	19.996	100.168	20.162	3.788	0.496
212.000	184.764	79.995	19.996	100.167	20.167	3.481	0.482
214.000	185.742	79.995	19.996	100.167	20.165	3.562	0.481
216.000	186.811	79.997	19.998	100.167	20.162	3.782	0.533
218.000	187.787	79.996	19.996	100.167	20.164	3.656	0.512
220.000	188.814	79.995	19.997	100.166	20.164	3.630	0.495
222.000	189.837	79.995	19.997	100.166	20.167	3.467	0.484
224.000	190.841	79.996	19.996	100.168	20.167	3.443	0.520
226.000	191.868	79.995	19.996	100.169	20.167	3.439	0.488
228.000	192.858	79.994	19.998	100.170	20.167	3.457	0.518
230.000	193.813	79.994	19.997	100.169	20.168	3.405	0.446
232.000	194.806	79.995	19.998	100.168	20.161	3.901	0.508
234.000	195.849	79.994	19.996	100.158	20.170	3.237	0.481
236.000	196.867	79.994	19.996	100.168	20.167	3.449	0.514
238.000	197.832	79.995	19.997	100.156	20.163	3.755	0.490
240.000	198.845	79.996	19.996	100.166	20.167	3.444	0.495
242.000	199.801	79.996	19.996	100.151	20.168	3.338	0.506
244.000	200.807	79.996	19.997	100.162	20.163	3.701	0.484
246.000	201.777	79.997	19.996	100.163	20.169	3.329	0.477
248.000	202.840	79.997	19.996	100.151	20.168	3.340	0.516
250.000	203.802	79.999	19.996	100.145	20.167	3.472	0.462
252.000	204.783	79.997	19.995	100.143	20.164	3.633	0.499
254.000	205.746	79.997	19.996	100.138	20.164	3.667	0.490
256.001	206.733	79.997	19.996	100.142	20.164	3.687	0.487
258.000	207.767	79.997	19.996	100.142	20.165	3.560	0.509
260.000	208.755	79.995	19.997	100.137	20.163	3.735	0.480
262.000	209.744	79.996	19.996	100.146	20.161	3.900	0.504
264.000	210.722	79.996	19.996	100.132	20.163	3.749	0.507
266.000	211.703	79.998	19.997	100.139	20.162	3.783	0.493
268.000	212.674	79.998	19.995	100.152	20.161	3.875	0.504
270.000	213.652	79.998	19.995	100.140	20.161	3.886	0.488
272.000	214.629	79.998	19.996	100.137	20.160	3.980	0.488
274.000	215.608	79.998	19.996	100.138	20.164	3.695	0.499
276.000	216.522	79.998	19.995	100.146	20.159	4.045	0.472
278.000	217.542	79.998	19.997	100.147	20.159	4.042	0.497
280.000	218.501	79.995	19.995	100.145	20.159	4.058	0.486
282.000	219.497	79.995	19.996	100.133	20.152	4.523	0.477
284.000	220.433	79.994	19.997	100.136	20.151	4.632	0.466
286.000	221.395	79.994	19.996	100.135	20.153	4.457	0.469
288.000	222.395	79.994	19.997	100.146	20.147	4.859	0.495
290.000	223.364	79.995	19.998	100.160	20.151	4.634	0.485
292.000	224.344	79.995	19.996	100.161	20.149	4.746	0.493
294.000	225.299	79.995	19.996	100.163	20.149	4.776	0.466
296.000	226.269	79.995	19.996	100.156	20.154	4.377	0.447
298.000	227.260	79.996	19.996	100.152	20.148	4.841	0.516
300.001	228.289	79.996	19.996	100.157	20.147	4.877	0.500
302.000	229.242	79.996	19.997	100.167	20.143	5.169	0.498
304.000	230.249	79.997	19.996	100.170	20.141	5.321	0.510
306.000	231.240	79.995	19.996	100.167	20.146	4.985	0.490
308.000	232.238	79.994	19.996	100.163	20.144	5.104	0.494
310.000	233.185	79.995	19.997	100.155	20.144	5.088	0.481
312.000	234.163	79.994	19.997	100.155	20.142	5.223	0.470
314.000	235.194	79.994	19.998	100.150	20.140	5.367	0.489
316.000	236.137	79.994	19.997	100.164	20.143	5.168	0.469
318.000	237.129	79.994	19.996	100.155	20.135	5.767	0.490
320.000	238.181	79.996	19.998	100.157	20.137	5.624	0.518
322.000	239.119	79.994	19.996	100.159	20.130	6.145	0.429
324.000	240.127	79.997	19.997	100.157	20.126	6.433	0.494
326.000	241.078	79.996	19.996	100.163	20.122	6.732	0.468
328.000	242.089	79.998	19.996	100.156	20.128	6.296	0.482
330.000	243.105	79.996	19.995	100.157	20.126	6.438	0.531
332.001	244.095	79.997	19.996	100.165	20.123	6.623	0.499
334.000	245.055	79.997	19.996	100.167	20.117	7.051	0.475
336.000	246.005	79.997	19.995	100.162	20.124	6.543	0.514
338.000	246.961	79.996	19.996	100.167	20.117	7.083	0.498
340.000	247.940	79.995	19.995	100.167	20.114	7.263	0.491
342.001	248.954	79.996	19.996	100.168	20.110	7.602	0.496
344.000	249.968	79.997	19.996	100.169	20.110	7.554	0.527
346.000	250.990	79.997	19.996	100.166	20.103	8.054	0.490
348.000	251.947	79.999	19.997	100.170	20.107	7.791	0.498
350.000	252.956	79.997	19.996	100.170	20.102	8.168	0.505
352.000	253.942	79.997	19.995	100.173	20.100	8.323	0.501
354.000	254.899	79.997	19.996	100.173	20.099	8.379	0.491
356.000	255.890	79.998	19.997	100.178	20.092	8.851	0.487
358.000	256.911	79.998	19.995	100.173	20.093	8.780	0.512
360.000	257.896	79.995	19.995	100.178	20.090	8.997	0.486
362.000	258.927	79.996	19.996	100.177	20.088	9.138	0.544
364.000	259.937	79.996	19.996	100.176	20.085	9.379	0.514
366.000	260.899	79.994	19.995	100.175	20.078	9.911	0.483
368.000	261.914	79.995	19.997	100.176	20.076	10.024	0.503
370.000	262.908	79.995	19.996	100.185	20.070	10.494	0.509
372.000	263.911	79.997	19.997	100.176	20.070	10.456	0.522
374.000	264.891	79.996	19.995	100.186	20.071	10.398	0.492
376.000	265.931	79.994	19.995	100.196	20.063	10.977	0.535
378.000	266.901	79.996	19.997	100.188	20.062	11.036	0.497
380.001	267.926	79.995	19.997	100.196	20.057	11.438	0.520
382.000	268.923	79.995	19.997	100.201	20.050	11.942	0.491
384.000	269.931	79.996	19.996	100.197	20.045	12.268	0.490
386.000	271.010	79.994	19.997	100.200	20.043	12.440	0.533
388.000	272.003	79.996	19.995	100.192	20.037	12.852	0.501
390.000	272.989	79.995	19.996	100.207	20.033	13.157	0.502
392.000	274.043	79.994	19.995	100.214	20.025	13.714	0.533
394.001	275.055	79.996	19.996	100.207	20.019	14.213	0.502
396.000	276.035	79.995	19.996	100.210	20.009	14.939	0.477
398.000	277.066	79.995	19.997	100.208	20.011	14.732	0.497
400.000	278.039	79.995	19.997	100.207	20.001	15.493	0.479
402.000	279.065	79.995	19.997	100.210	19.994	15.971	0.468
404.000	280.123	79.998	19.998	100.210	19.986	16.590	0.531
406.000	281.084	79.998	19.997	100.224	19.981	16.974	0.497
408.000	282.088	79.997	19.998	100.239	19.968	17.903	0.498
410.000	283.105	79.995	19.997	100.230	19.961	18.397	0.508
412.000	284.092	79.996	19.996	100.236	19.955	18.862	0.510
414.000	285.093	79.996	19.998	100.245	19.947	19.405	0.520
416.000	286.115	79.996	19.996	100.247	19.931	20.551	0.498
418.000	287.123	79.996	19.998	100.243	19.924	21.100	0.517
420.000	288.097	79.996	19.997	100.263	19.916	21.675	0.495
422.000	289.102	79.996	19.996	100.252	19.908	22.272	0.486
424.000	290.096	79.998	19.996	100.262	19.889	23.665	0.511
426.000	291.071	79.997	19.996	100.262	19.883	24.081	0.467
428.001	292.116	79.998	19.997	100.272	19.877	24.497	0.501
430.000	293.129	79.999	19.996	100.270	19.860	25.706	0.537
432.000	294.058	79.998	19.996	100.283	19.851	26.374	0.487
434.000	295.118	79.997	19.996	100.288	19.841	27.144	0.514
436.000	296.089	79.996	19.996	100.287	19.826	28.242	0.470
438.000	297.124	79.995	19.996	100.286	19.820	28.649	0.522
440.000	298.118	79.997	19.997	100.289	19.798	30.257	0.481
442.000	299.130	79.995	19.996	100.289	19.788	30.997	0.488
444.001	300.052	79.996	19.996	100.301	19.777	31.751	0.473
446.001	301.154	79.996	19.996	100.320	19.764	32.693	0.548
448.000	302.111	79.996	19.997	100.313	19.748	33.887	0.504
450.000	303.083	79.996	19.997	100.320	19.736	34.765	0.511
452.000	304.082	79.995	19.996	100.321	19.724	35.643	0.492
454.000	305.066	79.996	19.995	100.317	19.711	36.605	0.484
456.000	306.084	79.995	19.995	100.326	19.696	37.657	0.491
458.000	307.098	79.995	19.997	100.325	19.686	38.391	0.511
460.000	308.105	79.996	19.996	100.331	19.665	39.899	0.493
462.000	309.107	79.995	19.997	100.338	19.649	41.058	0.505
464.000	310.094	79.996	19.997	100.351	19.642	41.617	0.520
466.000	311.080	79.996	19.997	100.359	19.625	42.840	0.505
468.000	312.125	79.995	19.996	100.359	19.604	44.338	0.493
470.000	313.129	79.995	19.997	100.363	19.596	44.944	0.492
472.000	314.132	79.995	19.998	100.365	19.574	46.545	0.488
474.000	315.147	79.994	19.996	100.368	19.560	47.536	0.538
476.000	316.115	79.995	19.997	100.371	19.546	48.587	0.470
478.000	317.156	79.996	19.996	100.382	19.535	49.425	0.501
480.000	318.155	79.995	19.997	100.403	19.513	51.021	0.497
482.000	319.171	79.996	19.998	100.405	19.495	52.341	0.513
484.000	320.163	79.995	19.996	100.404	19.477	53.632	0.501
486.000	321.159	79.997	19.996	100.405	19.462	54.702	0.523
488.000	322.152	79.995	19.996	100.419	19.446	55.894	0.506
490.000	323.180	79.997	19.997	100.422	19.424	57.506	0.524
492.000	324.202	79.997	19.997	100.429	19.401	59.188	0.522
494.000	325.149	79.995	19.997	100.444	19.386	60.217	0.532
496.000	326.163	79.996	19.997	100.444	19.366	61.664	0.476
498.000	327.137	79.997	19.997	100.444	19.352	62.748	0.461
500.000	328.100	79.998	19.996	100.439	19.327	64.514	0.491
502.000	329.133	79.998	19.996	100.449	19.310	65.800	0.448
504.001	330.134	79.998	19.996	100.453	19.292	67.075	0.496
506.000	331.123	79.999	19.997	100.446	19.272	68.571	0.464
508.000	332.172	79.999	19.996	100.446	19.254	69.827	0.487
510.000	333.166	79.999	19.996	100.452	19.241	70.812	0.534
512.000	334.117	79.999	19.996	100.449	19.225	71.936	0.671
514.000	334.972	79.998	19.996	100.468	19.208	73.154	0.590
516.000	336.063	79.996	19.996	100.471	19.193	74.302	0.505
518.000	337.127	79.997	19.997	100.473	19.180	75.195	0.451
520.000	338.165	79.999	19.997	100.471	19.171	75.849	0.466
522.000	339.151	79.996	19.997	100.458	19.161	76.591	0.539
524.000	340.108	79.998	19.997	100.446	19.155	77.028	0.456
526.000	341.085	79.996	19.996	100.441	19.148	77.465	0.477
528.000	342.121	79.996	19.996	100.437	19.148	77.491	0.479
530.000	343.116	79.996	19.995	100.437	19.152	77.150	0.487
532.000	344.077	79.995	19.997	100.418	19.160	76.596	0.508
534.000	345.101	79.996	19.997	100.404	19.173	75.584	0.524
536.000	346.082	79.995	19.996	100.398	19.191	74.299	0.511
538.000	347.100	79.996	19.996	100.371	19.206	73.185	0.526
540.000	348.133	79.998	19.996	100.349	19.241	70.621	0.521
542.000	349.094	79.996	19.996	100.330	19.267	68.711	0.517
544.000	350.130	79.998	19.995	100.311	19.303	66.082	0.509
546.000	351.121	79.995	19.996	100.278	19.345	63.023	0.490
548.000	352.117	79.994	19.995	100.250	19.398	59.202	0.485
550.001	353.147	79.995	19.997	100.237	19.449	55.514	0.501
552.000	354.186	79.995	19.998	100.209	19.504	51.499	0.503
554.000	355.198	79.993	19.997	100.180	19.559	47.522	0.513
556.000	356.212	79.995	19.996	100.166	19.614	43.500	0.511
558.000	357.214	79.995	19.997	100.143	19.668	39.635	0.521
560.001	358.188	79.998	19.998	100.132	19.722	35.666	0.506
562.001	359.227	79.997	19.997	100.133	19.777	31.702	0.521
564.000	360.217	79.997	19.996	100.134	19.822	28.454	0.510
566.000	361.232	79.997	19.998	100.129	19.869	25.065	0.517
568.000	362.252	79.996	19.996	100.123	19.904	22.519	0.514
570.000	363.224	79.995	19.996	100.122	19.941	19.852	0.492
572.000	364.268	79.996	19.997	100.125	19.962	18.269	0.494
574.000	365.238	79.995	19.995	100.059	19.986	16.550	0.502
576.000	366.275	79.994	19.996	100.067	20.014	14.564	0.508
578.000	367.302	79.996	19.999	100.195	20.029	13.465	0.504
580.000	368.329	79.995	19.999	100.128	20.047	12.139	0.524
582.000	369.339	79.996	19.995	100.114	20.051	11.815	0.492
584.000	370.301	79.996	19.998	100.118	20.066	10.732	0.504
586.000	371.359	79.998	19.997	100.112	20.074	10.156	0.519
588.000	372.390	79.998	19.997	100.107	20.086	9.308	0.522
590.000	373.427	80.000	19.996	100.102	20.091	8.931	0.507
592.000	374.427	79.997	19.995	100.105	20.089	9.062	0.518
594.000	375.419	79.996	19.996	100.103	20.095	8.625	0.497
596.000	376.433	79.996	19.996	100.097	20.098	8.442	0.489
598.000	377.486	79.995	19.996	100.097	20.104	8.023	0.518
600.000	378.455	79.995	19.996	100.092	20.104	8.014	0.491
602.000	379.485	79.996	19.996	100.099	20.107	7.814	0.497
604.000	380.510	79.996	19.995	100.107	20.112	7.441	0.520
606.000	381.489	79.996	19.996	100.097	20.108	7.707	0.475
608.000	382.504	79.994	19.995	100.101	20.112	7.409	0.530
610.000	383.490	79.995	19.997	100.094	20.115	7.197	0.477
612.000	384.517	79.996	19.996	100.102	20.112	7.437	0.507
614.000	385.550	79.996	19.997	100.106	20.118	6.966	0.503
616.000	386.535	79.996	19.996	100.095	20.116	7.124	0.514
618.000	387.576	79.996	19.997	100.092	20.118	6.988	0.518
620.000	388.615	79.996	19.995	100.098	20.117	7.040	0.497
622.000	389.583	79.995	19.995	100.095	20.118	7.010	0.484
624.000	390.626	79.996	19.995	100.097	20.120	6.880	0.519
626.000	391.664	79.995	19.996	100.096	20.119	6.920	0.513
628.000	392.692	79.997	19.996	100.095	20.119	6.934	0.506
630.000	393.729	79.997	19.997	100.092	20.119	6.930	0.519
632.000	394.763	79.995	19.997	100.092	20.116	7.149	0.514
634.000	395.774	79.996	19.996	100.090	20.114	7.254	0.505
636.000	396.810	79.996	19.997	100.091	20.118	6.982	0.519
638.000	397.786	79.996	19.997	100.090	20.114	7.269	0.472
640.000	398.781	79.996	19.997	100.088	20.120	6.848	0.492
642.000	399.798	79.997	19.997	100.087	20.117	7.059	0.488
644.000	400.807	79.996	19.997	100.084	20.117	7.063	0.518
646.000	401.823	79.997	19.997	100.086	20.121	6.807	0.523
648.000	402.784	79.998	19.996	100.086	20.123	6.649	0.471
650.000	403.813	79.997	19.998	100.086	20.115	7.226	0.505
652.000	404.815	79.998	19.998	100.086	20.117	7.062	0.506
654.000	405.748	79.994	19.996	100.086	20.120	6.876	0.480
656.000	406.799	79.996	19.997	100.086	20.120	6.844	0.521
658.000	407.779	79.996	19.997	100.086	20.119	6.890	0.525
660.000	408.752	79.996	19.997	100.086	20.117	7.091	0.455
662.000	409.769	79.996	19.997	100.083	20.118	7.018	0.488
664.000	410.761	79.995	19.996	100.089	20.120	6.818	0.492
666.000	411.758	79.997	19.997	100.087	20.117	7.045	0.498
668.000	412.735	79.998	19.997	100.088	20.120	6.852	0.517
670.000	413.716	79.997	19.997	100.087	20.122	6.715	0.479
672.000	414.710	79.997	19.996	100.086	20.127	6.363	0.498
674.000	415.691	79.995	19.995	100.078	20.119	6.931	0.491
676.000	416.669	79.994	19.996	100.085	20.121	6.759	0.495
678.000	417.699	79.995	19.997	100.084	20.121	6.805	0.511
680.000	418.654	79.993	19.995	100.089	20.122	6.697	0.467
682.000	419.709	79.993	19.996	100.092	20.124	6.528	0.493
684.000	420.710	79.993	19.995	100.092	20.123	6.663	0.529
686.000	421.733	79.994	19.997	100.090	20.125	6.476	0.516
688.000	422.701	79.995	19.995	100.091	20.129	6.227	0.491
690.000	423.681	79.995	19.995	100.093	20.127	6.312	0.491
692.000	424.690	79.996	19.996	100.087	20.124	6.567	0.486
694.001	425.727	79.996	19.996	100.087	20.129	6.206	0.532
696.000	426.742	79.995	19.996	100.088	20.120	6.838	0.498
698.000	427.733	79.996	19.997	100.084	20.120	6.827	0.506
700.000	428.808	79.996	19.996	100.085	20.122	6.687	0.515
702.000	429.812	79.996	19.996	100.076	20.124	6.566	0.501
704.000	430.818	79.995	19.995	100.079	20.124	6.560	0.490
706.000	431.856	79.996	19.998	100.070	20.125	6.458	0.501
708.000	432.922	79.995	19.995	100.088	20.127	6.374	0.566
710.000	433.918	79.996	19.995	100.090	20.126	6.412	0.517
712.000	434.971	79.996	19.995	100.089	20.127	6.319	0.505
714.000	436.004	79.995	19.996	100.085	20.126	6.416	0.519
716.000	437.036	79.997	19.995	100.088	20.128	6.251	0.537
718.000	438.091	79.999	19.996	100.082	20.125	6.507	0.546
720.000	439.116	79.997	19.996	100.079	20.126	6.403	0.469
722.000	440.190	79.997	19.996	100.078	20.127	6.334	0.543
724.000	441.181	79.996	19.996	100.085	20.130	6.117	0.513
726.000	442.239	79.996	19.997	100.080	20.127	6.310	0.533
728.000	443.266	79.996	19.996	100.079	20.127	6.318	0.526
730.000	444.280	79.996	19.997	100.080	20.128	6.271	0.506
732.000	445.289	79.995	19.996	100.083	20.129	6.219	0.491
734.000	446.326	79.996	19.997	100.070	20.127	6.326	0.513
736.000	447.359	79.996	19.996	100.067	20.130	6.151	0.532
738.000	448.345	79.995	19.995	100.064	20.127	6.343	0.506
740.000	449.337	79.996	19.994	100.077	20.132	5.984	0.504
742.000	450.369	79.997	19.997	100.083	20.131	6.029	0.517
744.000	451.400	79.997	19.995	100.084	20.128	6.285	0.508
746.000	452.396	79.998	19.996	100.079	20.132	6.002	0.491
748.000	453.327	79.997	19.996	100.070	20.127	6.332	0.453
750.000	454.351	79.995	19.996	100.068	20.129	6.219	0.511
752.000	455.330	79.997	19.996	99.989	20.135	5.789	0.494
754.000	456.323	79.994	19.996	100.135	20.137	5.631	0.496
756.000	457.315	79.996	19.997	100.077	20.129	6.198	0.513
758.000	458.303	79.995	19.998	100.060	20.133	5.891	0.504
760.000	459.326	79.993	19.996	100.076	20.133	5.925	0.485
762.000	460.310	79.995	19.996	100.073	20.137	5.629	0.473
764.000	461.305	79.995	19.995	100.013	20.138	5.585	0.500
766.000	462.317	79.995	19.996	100.115	20.140	5.412	0.514
768.000	463.291	79.996	19.996	100.730	20.140	5.367	0.470
770.000	464.293	79.995	19.996	99.893	20.141	5.352	0.507
772.001	465.270	79.995	19.996	100.206	20.139	5.497	0.490
774.000	466.234	79.996	19.995	100.199	20.139	5.451	0.481
776.000	467.232	79.996	19.995	100.234	20.140	5.421	0.493
778.000	468.252	79.997	19.996	99.870	20.138	5.548	0.529
780.001	469.231	79.996	19.996	100.102	20.135	5.722	0.491
782.000	470.187	79.996	19.995	100.091	20.140	5.410	0.460
784.000	471.255	79.997	19.997	100.089	20.139	5.499	0.535
786.000	472.259	79.994	19.996	100.089	20.138	5.563	0.486
788.000	473.250	79.994	19.996	100.081	20.141	5.325	0.497
790.000	474.321	79.994	19.996	100.080	20.136	5.659	0.528
792.000	475.357	79.995	19.997	100.000	20.136	5.672	0.521
794.000	476.342	79.995	19.996	100.145	20.137	5.600	0.479
796.000	477.362	79.996	19.995	100.110	20.143	5.185	0.498
798.000	478.398	79.996	19.997	100.081	20.141	5.359	0.517
800.000	479.388	79.998	19.996	100.070	20.142	5.223	0.513
802.000	480.414	79.996	19.996	100.080	20.143	5.216	0.532
804.000	481.442	79.995	19.995	100.078	20.143	5.215	0.532
806.000	482.457	79.997	19.997	100.072	20.142	5.287	0.515
808.000	483.484	79.995	19.996	100.075	20.143	5.148	0.513
810.000	484.497	79.996	19.995	100.079	20.145	5.022	0.503
812.000	485.577	79.995	19.997	100.074	20.143	5.177	0.546
814.000	486.631	79.996	19.996	100.087	20.144	5.086	0.519
816.000	487.695	79.994	19.997	100.074	20.145	5.052	0.517
818.000	488.773	79.996	19.996	100.084	20.144	5.105	0.547
820.000	489.804	79.997	19.997	100.082	20.146	4.956	0.528
822.001	490.879	79.998	19.996	100.069	20.146	4.954	0.531
824.000	491.913	79.998	19.997	100.075	20.144	5.100	0.520
826.000	492.967	79.997	19.996	100.077	20.146	4.964	0.509
828.000	494.003	79.997	19.996	100.065	20.149	4.734	0.536
830.000	495.084	79.997	19.996	100.070	20.148	4.813	0.505
832.000	496.129	79.995	19.996	100.066	20.147	4.892	0.524
834.000	497.159	79.995	19.998	100.071	20.144	5.123	0.498
836.000	498.215	79.995	19.997	100.074	20.147	4.906	0.513
838.000	499.251	79.994	19.997	100.074	20.148	4.840	0.533
840.000	500.215	79.995	19.998	100.070	20.147	4.904	0.455
842.000	501.316	79.995	19.998	100.058	20.149	4.781	0.530
844.000	502.298	79.996	19.997	100.057	20.146	4.988	0.488
846.000	503.327	79.996	19.997	100.068	20.150	4.671	0.513
848.000	504.338	79.995	19.997	100.054	20.150	4.680	0.526
850.000	505.331	79.994	19.997	100.053	20.147	4.915	0.479
852.000	506.347	79.996	19.996	100.057	20.151	4.580	0.493
854.000	507.356	79.995	19.996	100.062	20.147	4.893	0.498
856.001	508.344	79.996	19.995	100.068	20.148	4.799	0.475
858.000	509.360	79.995	19.995	100.056	20.153	4.491	0.507
860.000	510.397	79.995	19.996	100.081	20.146	4.974	0.522
862.000	511.375	79.995	19.996	100.065	20.153	4.473	0.520
864.000	512.370	79.996	19.996	100.080	20.145	5.009	0.483
866.000	513.350	79.994	19.996	99.992	20.151	4.628	0.498
868.000	514.402	79.994	19.996	100.039	20.152	4.511	0.527
870.000	515.424	79.994	19.995	100.147	20.154	4.378	0.510
872.000	516.427	79.996	19.996	100.070	20.153	4.431	0.487
874.000	517.402	79.996	19.997	100.067	20.152	4.528	0.509
876.000	518.412	79.996	19.996	100.064	20.153	4.453	0.516
878.000	519.452	79.997	19.996	100.072	20.153	4.470	0.505
880.000	520.456	79.997	19.995	100.329	20.156	4.206	0.522
882.000	521.469	79.998	19.995	100.074	20.154	4.387	0.500
884.000	522.491	79.997	19.996	99.822	20.154	4.366	0.504
886.000	523.507	79.997	19.995	99.758	20.147	4.859	0.471
888.001	524.507	79.996	19.995	100.026	20.151	4.587	0.496
890.000	525.499	79.997	19.996	100.121	20.149	4.769	0.491
892.000	526.502	79.996	19.996	99.993	20.151	4.628	0.496
894.000	527.526	79.998	19.996	100.057	20.149	4.759	0.481
896.000	528.580	79.998	19.995	100.081	20.153	4.444	0.512
898.000	529.608	79.997	19.997	100.087	20.154	4.401	0.537
900.001	530.599	79.997	19.995	100.078	20.152	4.536	0.513
902.000	531.686	79.999	19.997	100.072	20.154	4.407	0.546
904.000	532.668	80.000	19.996	100.079	20.155	4.313	0.513
906.000	533.756	80.000	19.996	100.053	20.154	4.403	0.545
908.000	534.796	79.998	19.997	100.060	20.158	4.051	0.539
910.000	535.834	79.997	19.996	100.063	20.158	4.093	0.509
912.000	536.884	79.997	19.996	100.070	20.157	4.184	0.521
914.000	537.938	79.995	19.997	100.061	20.154	4.355	0.518
916.000	538.988	79.996	19.997	100.062	20.157	4.180	0.544
918.000	540.006	79.995	19.997	100.069	20.159	4.031	0.494
920.000	541.038	79.995	19.995	100.021	20.160	3.968	0.511
922.000	542.148	79.995	19.996	100.224	20.155	4.294	0.521
924.000	543.150	79.995	19.996	100.079	20.158	4.102	0.507
926.000	544.177	79.996	19.998	100.069	20.160	3.939	0.541
928.000	545.186	79.997	19.998	100.068	20.159	3.994	0.519
930.000	546.273	79.994	19.998	100.080	20.154	4.417	0.554
932.000	547.282	79.995	19.998	100.080	20.160	3.933	0.526
934.000	548.312	79.998	19.997	100.064	20.158	4.112	0.521
936.000	549.309	79.994	19.996	100.062	20.158	4.106	0.524
938.000	550.388	79.996	19.996	100.059	20.158	4.112	0.544
940.000	551.400	79.996	19.996	100.059	20.156	4.241	0.511
942.000	552.422	79.995	19.996	100.071	20.155	0.332	0.523
944.000	553.404	79.995	19.996	100.062	20.157	0.135	0.514
946.000	554.433	79.995	19.996	100.075	20.156	0.197	0.511
948.000	555.463	79.998	19.997	100.061	20.159	0.006	0.498
950.000	556.452	79.996	19.996	100.062	20.159	-0.004	0.512
952.001	557.453	79.997	19.996	100.053	20.161	-0.115	0.489
954.000	558.457	79.996	19.996	100.055	20.159	0.004	0.495
0.500	559.441	79.997	19.996	100.053	20.162	-0.225	0.491
2.500	560.385	79.996	19.995	100.057	20.159	0.046	0.488
4.500	561.427	79.998	19.996	100.065	20.156	0.245	0.515
6.500	562.363	79.997	19.997	100.054	20.157	0.189	0.482
8.500	563.363	79.998	19.996	100.053	20.160	-0.036	0.480
10.501	564.367	79.997	19.997	100.053	20.157	0.135	0.504
12.500	565.312	79.996	19.996	100.055	20.161	-0.111	0.492
14.500	566.299	79.995	19.996	100.052	20.159	-0.008	0.514
16.500	567.285	79.996	19.996	100.056	20.158	0.090	0.493
18.500	568.210	79.997	19.996	100.057	20.156	0.203	0.478
20.500	569.217	79.998	19.996	100.064	20.162	-0.209	0.495
22.500	570.246	79.998	19.995	100.068	20.160	-0.096	0.478
24.500	571.238	79.996	19.996	100.056	20.158	0.092	0.497
26.500	572.254	79.999	19.996	100.052	20.160	-0.090	0.478
28.500	573.271	79.998	19.995	100.060	20.162	-0.191	0.514
30.500	574.302	79.997	19.996	100.064	20.163	-0.253	0.511
32.500	575.325	79.997	19.997	100.070	20.158	0.113	0.499
34.500	576.330	79.998	19.997	100.057	20.164	-0.352	0.505
36.500	577.343	79.995	19.997	100.056	20.162	-0.241	0.486
38.500	578.357	79.995	19.996	100.054	20.163	-0.312	0.517
40.500	579.367	79.994	19.996	100.071	20.159	-0.008	0.534
42.500	580.378	79.996	19.996	100.063	20.161	-0.109	0.500
44.500	581.412	79.994	19.996	100.056	20.160	-0.064	0.517
46.501	582.403	79.995	19.997	100.059	20.161	-0.127	0.503
48.500	583.443	79.996	19.997	100.057	20.162	-0.187	0.504
50.500	584.480	79.996	19.997	100.062	20.163	-0.285	0.490
52.500	585.467	79.995	19.997	100.054	20.162	-0.225	0.513
54.500	586.528	79.996	19.997	100.054	20.164	-0.326	0.515
56.500	587.523	79.996	19.997	100.053	20.160	-0.060	0.531
58.501	588.540	79.995	19.997	100.049	20.164	-0.374	0.522
60.500	589.553	79.994	19.998	100.049	20.161	-0.115	0.488
62.501	590.640	79.993	19.998	100.050	20.159	0.014	0.535
64.500	591.593	79.996	19.998	100.052	20.160	-0.066	0.508
66.501	592.589	79.996	19.998	100.049	20.161	-0.165	0.523
68.500	593.673	79.995	19.998	100.056	20.165	-0.392	0.505
70.500	594.681	79.996	19.996	100.052	20.167	-0.543	0.534
72.500	595.700	79.996	19.998	100.055	20.162	-0.205	0.526
74.500	596.699	79.996	19.996	100.057	20.163	-0.255	0.487
76.500	597.725	79.998	19.996	100.058	20.162	-0.207	0.497
78.500	598.734	79.998	19.997	100.054	20.161	-0.111	0.484
80.500	599.840	79.996	19.996	100.049	20.164	-0.336	0.521
82.500	600.740	79.997	19.997	100.050	20.165	-0.412	0.427
84.501	601.829	79.997	19.996	100.050	20.166	-0.521	0.549
86.500	602.859	79.998	19.996	100.048	20.164	-0.320	0.464
88.500	603.826	79.997	19.997	100.049	20.163	-0.249	0.525
90.500	604.802	79.996	19.996	100.057	20.167	-0.601	0.491
92.500	605.782	79.998	19.996	100.055	20.162	-0.237	0.518
94.500	606.811	79.995	19.996	100.052	20.163	-0.308	0.491
96.500	607.858	79.996	19.996	100.055	20.165	-0.404	0.547
98.500	608.820	79.996	19.996	100.055	20.164	-0.376	0.492
100.501	609.808	80.000	19.997	100.055	20.164	-0.354	0.502
102.501	610.779	79.997	19.996	100.048	20.165	-0.394	0.502
104.500	611.788	79.998	19.995	100.052	20.165	-0.416	0.493
106.501	612.763	79.999	19.997	100.056	20.163	-0.299	0.513
108.501	613.789	79.996	19.996	100.052	20.162	-0.209	0.479
110.501	614.798	79.999	19.995	100.053	20.161	-0.121	0.515
112.500	615.788	79.999	19.996	100.055	20.164	-0.352	0.474
114.500	616.809	79.997	19.996	100.055	20.167	-0.595	0.505
116.501	617.810	79.995	19.997	100.053	20.164	-0.370	0.487
118.500	618.798	79.994	19.997	100.052	20.159	-0.002	0.499
120.500	619.787	79.997	19.996	100.049	20.163	-0.265	0.486
122.501	620.776	79.996	19.997	100.049	20.161	-0.161	0.497
124.501	621.816	79.994	19.996	100.048	20.160	-0.050	0.490
126.500	622.878	79.998	19.997	100.048	20.162	-0.201	0.540
128.500	623.909	79.996	19.998	100.054	20.161	-0.115	0.515
130.501	624.888	79.994	19.998	100.051	20.161	-0.165	0.506
132.500	625.922	79.994	19.997	100.061	20.164	-0.348	0.494
134.500	626.961	79.995	19.996	100.050	20.163	-0.285	0.528
136.500	627.966	79.993	19.996	100.058	20.166	-0.488	0.483
138.500	629.033	79.997	19.998	100.052	20.168	-0.607	0.520
140.500	630.092	79.994	19.997	100.053	20.163	-0.314	0.508
142.501	631.162	79.996	19.996	100.059	20.163	-0.249	0.527
144.500	632.224	79.992	19.997	100.054	20.164	-0.344	0.530
146.500	633.283	79.992	19.997	100.051	20.161	-0.129	0.509
148.500	634.357	79.995	19.997	100.051	20.163	-0.253	0.521
150.500	635.427	79.994	19.998	100.050	20.158	0.068	0.548
152.501	636.487	79.994	19.997	100.052	20.162	-0.209	0.554
154.502	637.520	79.995	19.998	100.057	20.164	-0.336	0.506
156.500	638.557	79.994	19.996	100.054	20.165	-0.414	0.530
158.500	639.593	79.995	19.997	100.055	20.165	-0.426	0.507
160.500	640.606	79.997	19.996	100.054	20.162	-0.235	0.505
162.500	641.662	79.997	19.996	100.054	20.160	-0.056	0.523
164.500	642.641	79.998	19.995	100.056	20.166	-0.486	0.497
166.500	643.738	79.997	19.995	100.058	20.164	-0.334	0.566
168.501	644.699	79.996	19.996	100.054	20.162	-0.181	0.495
170.500	645.741	79.998	19.996	100.055	20.165	-0.412	0.538
172.500	646.766	79.994	19.996	100.055	20.164	-0.388	0.495
174.500	647.739	79.996	19.995	100.057	20.165	-0.454	0.481
176.500	648.736	79.999	19.996	100.061	20.161	-0.153	0.497
178.500	649.777	79.998	19.997	100.051	20.162	-0.197	0.531
180.501	650.761	79.997	19.997	100.049	20.164	-0.342	0.479
182.500	651.783	80.000	19.996	100.048	20.166	-0.472	0.490
184.500	652.750	80.000	19.996	100.049	20.163	-0.283	0.506
186.500	653.806	80.001	19.996	100.047	20.168	-0.643	0.503
188.500	654.762	79.996	19.995	100.046	20.164	-0.326	0.493
190.500	655.767	79.997	19.996	100.046	20.168	-0.609	0.492
192.500	656.784	79.999	19.996	100.047	20.169	-0.699	0.525
194.500	657.751	79.996	19.996	100.048	20.166	-0.484	0.475
196.501	658.766	79.996	19.996	100.049	20.164	-0.368	0.491
198.500	659.802	79.995	19.997	100.046	20.163	-0.310	0.498
200.500	660.794	79.997	19.996	100.049	20.164	-0.382	0.497
202.501	661.823	79.995	19.997	100.048	20.164	-0.354	0.533
204.500	662.809	79.996	19.996	100.047	20.165	-0.416	0.489
206.500	663.853	79.997	19.997	100.049	20.162	-0.183	0.501
208.500	664.851	79.995	19.997	100.049	20.164	-0.372	0.498
210.500	665.826	79.996	19.997	100.048	20.166	-0.472	0.517
212.500	666.885	79.995	19.998	100.047	20.165	-0.434	0.496
214.500	667.920	79.995	19.997	100.050	20.163	-0.314	0.524
216.500	668.928	79.994	19.996	100.051	20.163	-0.269	0.523
218.500	669.955	79.996	19.998	100.051	20.165	-0.416	0.512
220.500	670.974	79.996	19.997	100.050	20.168	-0.663	0.490
222.500	671.980	79.995	19.997	100.049	20.167	-0.571	0.476
224.500	673.022	79.996	19.996	100.053	20.163	-0.283	0.493
226.500	674.056	79.994	19.997	100.052	20.168	-0.667	0.514
228.500	675.047	79.994	19.997	100.049	20.167	-0.539	0.482
230.500	676.088	79.996	19.997	100.047	20.162	-0.187	0.534
232.500	677.156	79.994	19.996	100.053	20.165	-0.420	0.488
234.500	678.114	79.995	19.997	100.050	20.168	-0.677	0.522
236.500	679.139	79.996	19.997	100.045	20.167	-0.585	0.503
238.500	680.172	79.996	19.997	100.050	20.167	-0.601	0.507
240.500	681.174	79.999	19.997	100.048	20.167	-0.595	0.509
242.500	682.187	79.996	19.997	100.047	20.167	-0.589	0.549
244.500	683.194	79.997	19.996	100.046	20.167	-0.539	0.528
246.500	684.257	79.994	19.996	100.045	20.166	-0.529	0.528
248.500	685.304	79.996	19.996	100.046	20.167	-0.603	0.532
250.500	686.312	79.996	19.996	100.050	20.170	-0.766	0.502
252.500	687.353	79.998	19.996	100.050	20.171	-0.840	0.510
254.500	688.360	79.998	19.996	100.039	20.164	-0.388	0.521
256.500	689.397	80.002	19.996	100.042	20.167	-0.553	0.481
258.500	690.455	79.998	19.996	100.049	20.168	-0.613	0.512
260.500	691.469	79.996	19.997	100.048	20.168	-0.645	0.506
262.500	692.474	80.000	19.996	100.049	20.165	-0.424	0.513
264.500	693.507	79.996	19.996	100.049	20.167	-0.533	0.515
266.500	694.555	80.001	19.996	100.046	20.167	-0.539	0.499
268.500	695.565	80.000	19.996	100.048	20.165	-0.402	0.511
270.500	696.598	79.994	19.996	100.047	20.166	-0.511	0.500
272.500	697.612	79.997	19.996	100.049	20.165	-0.424	0.547
274.500	698.610	79.997	19.996	100.048	20.164	-0.370	0.485
276.500	699.626	79.997	19.996	100.049	20.163	-0.295	0.506
278.500	700.664	79.997	19.995	100.050	20.162	-0.209	0.497
280.500	701.647	79.996	19.996	100.050	20.165	-0.436	0.469
282.500	702.659	79.995	19.996	100.051	20.162	-0.211	0.503
284.500	703.692	79.997	19.995	100.045	20.162	-0.225	0.505
286.500	704.657	79.994	19.996	100.049	20.161	-0.159	0.496
288.500	705.629	79.995	19.995	100.053	20.165	-0.438	0.482
290.500	706.691	79.995	19.996	100.052	20.168	-0.657	0.541
292.500	707.649	79.993	19.997	100.053	20.168	-0.677	0.516
294.500	708.684	79.995	19.996	100.059	20.166	-0.480	0.522
296.500	709.661	79.994	19.997	100.055	20.166	-0.525	0.509
298.500	710.702	79.995	19.997	100.052	20.165	-0.430	0.519
300.500	711.732	79.994	19.996	100.051	20.165	-0.410	0.517
302.500	712.762	79.994	19.997	100.053	20.165	-0.396	0.523
304.500	713.784	79.992	19.997	100.054	20.164	-0.316	0.521
306.500	714.792	79.995	19.997	100.050	20.166	-0.472	0.493
308.500	715.867	79.994	19.997	100.050	20.165	-0.444	0.522
310.500	716.917	79.997	19.996	100.050	20.166	-0.505	0.537
312.500	717.884	79.995	19.996	100.050	20.164	-0.344	0.491
314.500	718.929	79.996	19.997	100.048	20.164	-0.360	0.502
316.500	719.945	79.995	19.996	100.046	20.164	-0.346	0.527
318.500	720.948	79.995	19.996	100.046	20.165	-0.398	0.472
320.500	721.972	79.994	19.997	100.047	20.165	-0.424	0.543
322.500	722.960	79.997	19.997	100.050	20.165	-0.444	0.505
324.500	723.929	79.998	19.998	100.046	20.161	-0.169	0.481
326.500	724.976	79.995	19.998	99.970	20.160	-0.060	0.524
328.500	725.944	79.996	19.998	100.013	20.163	-0.285	0.488
330.500	726.973	79.996	19.997	100.113	20.165	-0.410	0.493
332.500	727.994	79.997	19.997	100.051	20.166	-0.498	0.498
334.500	729.011	79.998	19.997	100.043	20.167	-0.553	0.525
336.500	730.036	79.997	19.996	100.050	20.166	-0.521	0.488
338.500	731.046	79.996	19.995	100.050	20.169	-0.728	0.503
340.500	732.090	79.998	19.996	100.051	20.166	-0.486	0.533
342.500	733.119	79.997	19.996	100.051	20.166	-0.505	0.506
344.500	734.082	79.998	19.995	100.052	20.168	-0.661	0.473
346.500	735.149	79.996	19.996	100.052	20.164	-0.316	0.525
348.500	736.135	79.998	19.996	100.052	20.166	-0.517	0.524
350.500	737.155	79.997	19.995	100.053	20.167	-0.593	0.518
352.500	738.174	79.996	19.997	100.046	20.161	-0.157	0.530
354.500	739.123	79.995	19.996	100.054	20.163	-0.303	0.486
356.500	740.134	79.995	19.996	100.047	20.163	-0.272	0.501
358.500	741.139	79.995	19.997	100.039	20.163	-0.259	0.501
360.500	742.140	79.993	19.996	100.054	20.163	-0.283	0.497
362.500	743.095	79.996	19.996	100.053	20.163	-0.312	0.480
363.500	743.603	79.995	19.996	100.053	20.167	-0.575	0.497