File: 01_Data/Cotton_Felt/MCC/Cotton_Felt_MCC_30K_min_210708_R1.txt
Sample ID:	C:\MCC\MCC Cal\Test\Cotton_Felt\Cotton_Felt_MCC_30K_min_21_07_08_R1.txt
Sample Weight (mg):	4.08
Heating Rate (C/s):	0.5
Combustor Temp (C):	900
N2 Flow Rate (cc/min):	80
O2 Flow Rate (cc/min):	20
Calibration File:	C:\MCC\MCC Cal\Coeff1 JN10440_30_210304.txt.txt
T Correction Coefficients:	0	1.024463	0
Time Shift (s):	14
*
Time (s)	Temperature (C)	N2 flow rate (cc/min)	O2 flow rate (cc/min)	Flow Rate (cc/min)	Oxygen (%)	HRR (W/g)	Heating rate (C/s)
0.000	112.567	79.996	19.995	99.921	20.249	-0.136	-0.014
1.500	112.525	79.995	19.995	99.911	20.247	0.002	-0.046
3.000	112.592	79.997	19.995	99.913	20.243	0.356	0.028
4.500	112.555	79.995	19.995	99.923	20.247	-0.004	-0.027
6.000	112.551	79.996	19.995	99.914	20.247	-0.015	0.007
7.500	112.522	79.996	19.995	99.912	20.248	-0.090	-0.023
9.000	112.512	79.996	19.994	99.911	20.250	-0.201	-0.007
10.500	112.488	79.997	19.994	99.906	20.249	-0.119	-0.008
12.001	112.487	79.996	19.994	99.922	20.247	0.021	0.011
13.500	112.494	79.996	19.996	99.923	20.249	-0.124	0.004
15.000	112.449	79.996	19.996	99.923	20.244	0.243	-0.047
16.500	112.443	79.994	19.997	99.926	20.245	0.140	-0.004
18.000	112.452	79.996	19.997	99.935	20.242	0.384	0.009
19.500	112.407	79.996	19.996	99.928	20.243	0.323	-0.048
21.000	112.468	79.995	19.997	99.954	20.240	0.564	0.018
22.500	112.493	79.995	19.997	99.991	20.234	1.003	-0.004
24.000	112.485	79.996	19.995	100.006	20.234	1.009	0.018
25.500	112.548	79.997	19.996	100.029	20.225	1.702	0.031
27.000	112.593	79.996	19.997	100.063	20.222	1.903	0.030
28.500	112.699	79.996	19.996	100.084	20.220	2.080	0.044
30.000	112.805	79.997	19.996	100.109	20.217	2.286	0.072
31.500	112.898	79.998	19.996	100.125	20.212	2.687	0.071
33.000	113.055	79.997	19.996	100.147	20.207	3.064	0.090
34.499	113.250	79.998	19.996	100.165	20.205	3.266	0.146
36.000	113.447	79.997	19.996	100.182	20.200	3.629	0.125
37.500	113.662	79.997	19.996	100.183	20.201	3.547	0.149
38.999	113.969	79.998	19.997	100.165	20.200	3.606	0.182
40.500	114.189	79.997	19.995	100.185	20.199	3.677	0.127
42.000	114.490	79.996	19.996	100.192	20.197	3.879	0.207
43.501	114.822	79.996	19.996	100.186	20.192	4.202	0.211
44.999	115.207	79.995	19.997	100.192	20.193	4.135	0.269
46.500	115.520	79.995	19.996	100.191	20.194	4.116	0.207
48.000	115.897	79.996	19.997	100.187	20.194	4.102	0.266
49.500	116.313	79.996	19.996	100.193	20.193	4.179	0.265
51.000	116.743	79.996	19.997	100.193	20.190	4.404	0.292
52.500	117.164	79.997	19.996	100.191	20.193	4.169	0.267
53.999	117.599	79.996	19.996	100.195	20.191	4.341	0.301
55.499	118.123	79.998	19.996	100.195	20.193	4.165	0.359
57.000	118.547	79.997	19.994	100.195	20.192	4.202	0.304
58.499	119.049	79.998	19.994	100.199	20.193	4.175	0.329
59.999	119.508	79.997	19.995	100.197	20.191	4.314	0.298
61.499	120.076	79.997	19.995	100.191	20.194	4.114	0.374
62.999	120.600	79.997	19.994	100.194	20.196	3.912	0.340
64.500	121.120	79.997	19.994	100.192	20.193	4.162	0.345
66.000	121.700	79.997	19.995	100.198	20.195	3.984	0.382
67.499	122.250	79.996	19.994	100.198	20.193	4.154	0.364
69.000	122.886	79.995	19.994	100.198	20.192	4.225	0.418
70.500	123.420	79.994	19.994	100.201	20.192	4.211	0.363
72.001	124.012	79.995	19.995	100.196	20.193	4.137	0.399
73.499	124.584	79.995	19.995	100.187	20.193	4.175	0.375
74.999	125.276	79.996	19.995	100.196	20.195	3.978	0.444
76.499	125.893	79.996	19.996	100.198	20.192	4.219	0.426
77.999	126.516	79.996	19.996	100.196	20.194	4.060	0.428
79.499	127.151	79.996	19.995	100.197	20.193	4.150	0.446
80.999	127.774	79.997	19.995	100.196	20.197	3.858	0.418
82.499	128.476	79.995	19.995	100.196	20.198	3.784	0.447
83.999	129.147	79.995	19.995	100.196	20.199	3.684	0.425
85.499	129.823	79.996	19.994	100.195	20.194	4.078	0.447
87.001	130.437	79.996	19.996	100.199	20.196	3.911	0.408
88.499	131.176	79.996	19.994	100.196	20.198	3.763	0.519
90.001	131.890	79.997	19.995	100.193	20.198	3.795	0.481
91.500	132.553	79.996	19.994	100.194	20.197	3.822	0.427
92.999	133.265	79.995	19.995	100.197	20.197	3.868	0.472
94.500	133.974	79.996	19.994	100.190	20.200	3.587	0.470
96.000	134.709	79.995	19.995	100.194	20.197	3.839	0.482
97.499	135.371	79.995	19.995	100.196	20.199	3.717	0.446
99.000	136.124	79.995	19.996	100.195	20.198	3.764	0.492
100.501	136.840	79.995	19.996	100.191	20.199	3.715	0.497
102.000	137.623	79.996	19.996	100.192	20.198	3.751	0.527
103.500	138.354	79.995	19.996	100.190	20.198	3.805	0.472
105.001	139.077	79.995	19.996	100.181	20.195	3.983	0.493
106.499	139.831	79.994	19.996	100.184	20.198	3.782	0.502
107.999	140.606	79.997	19.996	100.185	20.196	3.945	0.517
109.501	141.388	79.995	19.995	100.195	20.197	3.835	0.526
111.001	142.138	79.997	19.996	100.197	20.197	3.870	0.483
112.501	142.916	79.998	19.995	100.190	20.197	3.880	0.527
114.000	143.688	79.998	19.996	100.183	20.195	4.021	0.513
115.499	144.429	79.997	19.996	100.174	20.195	4.000	0.492
116.999	145.199	79.996	19.996	100.179	20.193	4.140	0.523
118.500	145.987	79.996	19.994	100.174	20.198	3.804	0.530
119.999	146.746	79.996	19.995	100.182	20.195	3.972	0.511
121.500	147.501	79.997	19.996	100.182	20.197	3.867	0.522
122.999	148.242	79.994	19.996	100.176	20.192	4.253	0.503
124.499	149.045	79.995	19.995	100.170	20.198	3.775	0.526
125.999	149.806	79.997	19.995	100.165	20.194	4.115	0.514
127.500	150.633	79.995	19.996	100.166	20.202	3.464	0.559
129.000	151.355	79.995	19.996	100.164	20.201	3.558	0.504
130.500	152.108	79.996	19.995	100.162	20.200	3.653	0.508
132.000	152.923	79.996	19.996	100.162	20.199	3.730	0.534
133.500	153.703	79.998	19.996	100.161	20.203	3.418	0.520
135.000	154.471	79.996	19.995	100.159	20.200	3.645	0.505
136.500	155.206	79.997	19.997	100.157	20.199	3.686	0.490
138.000	155.987	79.997	19.996	100.160	20.200	3.640	0.522
139.499	156.785	79.998	19.996	100.156	20.199	3.684	0.543
141.000	157.591	79.998	19.996	100.153	20.200	3.607	0.550
142.500	158.289	79.998	19.995	100.152	20.204	3.296	0.454
143.999	159.098	79.997	19.995	100.156	20.205	3.218	0.514
145.499	159.867	79.996	19.995	100.156	20.206	3.176	0.528
146.999	160.622	79.995	19.995	100.153	20.200	3.589	0.530
148.500	161.437	79.997	19.995	100.156	20.205	3.210	0.560
150.000	162.176	79.997	19.995	100.154	20.205	3.243	0.508
151.499	162.939	79.996	19.995	100.150	20.201	3.560	0.512
152.999	163.705	79.996	19.995	100.155	20.200	3.592	0.533
154.500	164.520	79.998	19.995	100.145	20.201	3.550	0.547
156.000	165.275	79.996	19.995	100.135	20.202	3.486	0.479
157.499	166.019	79.996	19.996	100.131	20.202	3.480	0.512
158.999	166.760	79.995	19.994	100.143	20.204	3.279	0.497
160.500	167.530	79.995	19.995	100.143	20.205	3.268	0.514
161.999	168.262	79.997	19.995	100.132	20.203	3.413	0.480
163.499	169.014	79.995	19.995	100.150	20.203	3.419	0.491
165.000	169.768	79.995	19.995	100.144	20.209	2.905	0.508
166.500	170.553	79.994	19.995	100.125	20.206	3.182	0.516
167.999	171.283	79.996	19.995	100.129	20.205	3.245	0.500
169.500	172.023	79.996	19.995	100.137	20.204	3.276	0.511
170.999	172.771	79.996	19.996	100.135	20.205	3.253	0.493
172.500	173.494	79.997	19.995	100.125	20.206	3.140	0.494
173.999	174.263	79.996	19.994	100.121	20.204	3.291	0.523
175.500	174.994	79.995	19.994	100.127	20.204	3.346	0.458
177.001	175.725	79.996	19.996	100.135	20.204	3.331	0.493
178.500	176.440	79.995	19.994	100.131	20.206	3.169	0.490
180.000	177.191	79.996	19.995	100.131	20.206	3.144	0.501
181.499	177.919	79.994	19.995	100.125	20.207	3.056	0.482
183.000	178.664	79.995	19.996	100.125	20.206	3.171	0.489
184.500	179.370	79.996	19.995	100.132	20.207	3.113	0.475
186.000	180.125	79.997	19.995	100.131	20.210	2.846	0.482
187.499	180.857	79.994	19.995	100.130	20.205	3.211	0.482
188.999	181.565	79.996	19.995	100.129	20.203	3.356	0.479
190.499	182.311	79.997	19.995	100.125	20.202	3.471	0.498
191.999	183.010	79.997	19.995	100.126	20.209	2.959	0.491
193.499	183.738	79.996	19.996	100.122	20.205	3.272	0.491
194.999	184.506	79.996	19.995	100.128	20.206	3.174	0.505
196.500	185.251	79.996	19.995	100.126	20.206	3.130	0.499
197.999	185.987	79.997	19.995	100.123	20.207	3.058	0.487
199.500	186.704	79.995	19.995	100.129	20.208	2.997	0.464
201.000	187.456	79.997	19.996	100.123	20.206	3.188	0.504
202.500	188.185	79.997	19.995	100.120	20.206	3.134	0.491
204.000	188.875	79.996	19.995	100.120	20.209	2.947	0.473
205.500	189.646	79.997	19.995	100.133	20.206	3.127	0.495
206.999	190.352	79.997	19.995	100.132	20.205	3.209	0.458
208.499	191.099	79.996	19.996	100.120	20.205	3.209	0.508
209.999	191.827	79.996	19.995	100.118	20.206	3.150	0.491
211.499	192.553	79.995	19.995	100.118	20.201	3.526	0.478
212.999	193.321	79.997	19.995	100.124	20.206	3.148	0.520
214.499	194.046	79.997	19.995	100.123	20.208	2.985	0.474
215.999	194.740	79.995	19.995	100.117	20.206	3.142	0.480
217.499	195.471	79.997	19.995	100.116	20.205	3.266	0.475
218.999	196.280	79.997	19.994	100.119	20.202	3.482	0.537
220.499	196.990	79.997	19.996	100.118	20.208	3.033	0.485
222.000	197.724	79.997	19.996	100.113	20.207	3.069	0.500
223.500	198.422	79.996	19.997	100.122	20.207	3.092	0.469
224.999	199.178	79.996	19.996	100.126	20.205	3.203	0.503
226.500	199.898	79.997	19.996	100.118	20.206	3.159	0.474
227.999	200.657	79.995	19.995	100.129	20.211	2.750	0.504
229.500	201.372	79.996	19.995	100.130	20.208	3.029	0.473
231.000	202.122	79.995	19.994	100.125	20.206	3.184	0.489
232.499	202.897	79.994	19.995	100.128	20.208	3.035	0.490
233.999	203.615	79.996	19.995	100.122	20.208	3.037	0.469
235.500	204.348	79.996	19.995	100.127	20.209	2.901	0.468
237.000	205.087	79.996	19.995	100.128	20.207	3.115	0.514
238.500	205.862	79.995	19.995	100.122	20.205	3.249	0.502
239.999	206.577	79.997	19.995	100.122	20.206	3.186	0.496
241.499	207.356	79.995	19.995	100.131	20.203	3.379	0.512
242.999	208.087	79.996	19.995	100.128	20.204	3.302	0.477
244.500	208.774	79.995	19.994	100.124	20.205	3.245	0.456
246.000	209.565	79.994	19.995	100.123	20.206	3.174	0.516
247.500	210.340	79.994	19.995	100.125	20.203	3.392	0.533
248.999	211.067	79.996	19.994	100.126	20.203	3.396	0.480
250.500	211.794	79.994	19.995	100.123	20.205	3.266	0.492
251.999	212.498	79.994	19.994	100.129	20.202	3.461	0.484
253.500	213.264	79.996	19.995	100.134	20.202	3.469	0.484
255.000	214.037	79.995	19.994	100.140	20.200	3.625	0.518
256.500	214.800	79.994	19.995	100.132	20.204	3.339	0.512
257.999	215.492	79.995	19.994	100.125	20.205	3.205	0.476
259.499	216.256	79.995	19.994	100.122	20.205	3.224	0.501
261.000	217.048	79.996	19.995	100.122	20.203	3.377	0.521
262.499	217.765	79.998	19.995	100.123	20.204	3.306	0.459
263.999	218.509	79.997	19.996	100.123	20.202	3.478	0.495
265.499	219.250	79.997	19.995	100.127	20.202	3.457	0.496
266.999	220.008	79.997	19.996	100.123	20.201	3.543	0.512
268.500	220.714	79.997	19.994	100.122	20.203	3.417	0.458
270.000	221.501	79.997	19.995	100.120	20.198	3.754	0.517
271.499	222.251	79.997	19.995	100.119	20.198	3.767	0.503
272.999	222.995	79.998	19.995	100.119	20.197	3.876	0.489
274.499	223.716	79.997	19.995	100.120	20.196	3.960	0.477
276.000	224.491	79.998	19.996	100.125	20.193	4.121	0.521
277.500	225.216	79.996	19.995	100.124	20.194	4.100	0.479
278.999	225.986	79.997	19.995	100.118	20.197	3.844	0.506
280.500	226.718	79.997	19.996	100.118	20.195	4.010	0.490
281.999	227.456	79.996	19.996	100.118	20.195	4.037	0.480
283.500	228.179	79.996	19.996	100.122	20.192	4.195	0.490
285.000	228.924	79.999	19.996	100.121	20.195	4.017	0.495
286.499	229.683	79.996	19.995	100.117	20.192	4.266	0.488
287.999	230.421	79.998	19.996	100.118	20.192	4.254	0.520
289.499	231.126	79.997	19.995	100.117	20.193	4.142	0.471
290.999	231.883	79.998	19.996	100.117	20.191	4.342	0.514
292.499	232.593	79.999	19.996	100.118	20.193	4.185	0.493
294.000	233.335	79.998	19.995	100.117	20.190	4.407	0.492
295.499	234.073	79.998	19.995	100.120	20.191	4.279	0.485
296.999	234.778	79.999	19.995	100.123	20.188	4.520	0.471
298.499	235.557	79.997	19.995	100.121	20.185	4.730	0.505
300.000	236.259	79.998	19.996	100.121	20.184	4.860	0.452
301.499	236.977	79.996	19.995	100.119	20.184	4.843	0.471
302.999	237.746	79.996	19.996	100.125	20.181	5.103	0.525
304.499	238.419	79.996	19.997	100.131	20.183	4.940	0.475
305.999	239.180	79.996	19.996	100.123	20.182	4.959	0.498
307.500	239.898	79.994	19.996	100.127	20.180	5.116	0.485
309.000	240.595	79.993	19.996	100.127	20.177	5.356	0.463
310.500	241.372	79.994	19.996	100.125	20.180	5.134	0.496
312.000	242.052	79.994	19.996	100.123	20.179	5.253	0.478
313.499	242.856	79.994	19.997	100.123	20.173	5.654	0.519
315.000	243.526	79.993	19.996	100.133	20.174	5.589	0.455
316.500	244.306	79.994	19.995	100.135	20.177	5.366	0.508
318.000	245.030	79.996	19.995	100.128	20.171	5.830	0.486
319.500	245.764	79.996	19.995	100.130	20.172	5.769	0.482
321.000	246.481	79.996	19.996	100.141	20.171	5.870	0.489
322.499	247.214	79.997	19.995	100.145	20.170	5.912	0.499
324.000	247.951	79.995	19.995	100.146	20.167	6.160	0.485
325.499	248.645	79.997	19.994	100.143	20.163	6.462	0.460
326.999	249.432	79.996	19.995	100.138	20.166	6.244	0.513
328.499	250.182	79.996	19.995	100.143	20.166	6.243	0.511
329.999	250.938	79.996	19.995	100.139	20.162	6.546	0.523
331.499	251.680	79.995	19.995	100.140	20.160	6.664	0.487
332.999	252.445	79.996	19.996	100.141	20.157	6.919	0.517
334.499	253.167	79.996	19.996	100.147	20.158	6.840	0.471
336.000	253.875	79.995	19.996	100.152	20.152	7.283	0.483
337.500	254.644	79.994	19.995	100.151	20.149	7.546	0.531
338.999	255.410	79.994	19.996	100.143	20.150	7.477	0.523
340.499	256.122	79.994	19.996	100.147	20.150	7.475	0.475
341.999	256.894	79.995	19.996	100.153	20.152	7.293	0.512
343.500	257.641	79.997	19.995	100.150	20.146	7.721	0.487
344.999	258.387	79.997	19.995	100.149	20.144	7.927	0.490
346.500	259.146	79.998	19.996	100.154	20.136	8.508	0.502
347.999	259.871	79.997	19.995	100.152	20.142	8.066	0.490
349.499	260.574	79.997	19.996	100.144	20.141	8.156	0.463
350.999	261.385	79.997	19.995	100.145	20.138	8.387	0.542
352.500	262.067	79.997	19.995	100.150	20.132	8.790	0.462
353.999	262.843	79.996	19.994	100.157	20.129	9.050	0.523
355.499	263.620	79.997	19.994	100.158	20.128	9.161	0.508
357.000	264.340	79.996	19.995	100.157	20.128	9.155	0.466
358.499	265.070	79.996	19.995	100.158	20.130	9.007	0.490
359.999	265.833	79.995	19.996	100.161	20.126	9.304	0.527
361.499	266.591	79.995	19.995	100.161	20.119	9.823	0.523
362.999	267.355	79.996	19.995	100.158	20.120	9.750	0.512
364.499	268.099	79.997	19.996	100.159	20.117	9.987	0.502
365.999	268.837	79.995	19.996	100.162	20.109	10.582	0.512
367.500	269.595	79.997	19.994	100.165	20.108	10.681	0.501
368.999	270.353	79.996	19.995	100.168	20.108	10.687	0.523
370.499	271.148	79.998	19.996	100.165	20.104	11.010	0.526
372.000	271.928	79.999	19.996	100.167	20.102	11.103	0.510
373.500	272.691	79.997	19.995	100.176	20.099	11.327	0.491
374.999	273.436	79.996	19.994	100.176	20.094	11.720	0.505
376.499	274.140	79.998	19.994	100.183	20.089	12.114	0.458
377.999	274.897	79.998	19.994	100.189	20.086	12.353	0.508
379.499	275.671	79.996	19.995	100.174	20.081	12.751	0.531
380.999	276.434	79.996	19.995	100.164	20.078	12.987	0.517
382.500	277.199	79.996	19.995	100.166	20.072	13.411	0.488
383.999	277.910	79.995	19.996	100.165	20.067	13.780	0.481
385.499	278.697	79.995	19.996	100.181	20.064	14.005	0.516
386.999	279.434	79.994	19.996	100.187	20.060	14.320	0.482
388.499	280.178	79.995	19.996	100.182	20.049	15.191	0.510
390.000	280.916	79.994	19.996	100.182	20.047	15.371	0.502
391.500	281.651	79.995	19.996	100.193	20.042	15.704	0.501
392.999	282.415	79.994	19.997	100.197	20.037	16.146	0.477
394.500	283.185	79.994	19.997	100.196	20.032	16.460	0.501
395.999	283.899	79.995	19.997	100.197	20.029	16.728	0.477
397.500	284.641	79.995	19.997	100.198	20.022	17.246	0.505
399.000	285.367	79.996	19.997	100.197	20.011	18.095	0.495
400.499	286.087	79.996	19.996	100.206	20.008	18.319	0.478
401.999	286.851	79.994	19.995	100.219	20.001	18.863	0.491
403.499	287.587	79.997	19.996	100.211	19.993	19.453	0.484
404.999	288.298	79.996	19.996	100.218	19.988	19.867	0.481
406.500	289.073	79.996	19.996	100.215	19.979	20.575	0.523
407.999	289.814	79.995	19.996	100.217	19.972	21.108	0.493
409.500	290.529	79.995	19.996	100.218	19.964	21.708	0.480
410.999	291.308	79.995	19.994	100.216	19.960	21.996	0.517
412.500	292.063	79.995	19.995	100.234	19.953	22.548	0.521
413.999	292.768	79.995	19.996	100.236	19.945	23.208	0.483
415.500	293.511	79.995	19.996	100.237	19.935	23.964	0.500
417.000	294.255	79.995	19.995	100.238	19.929	24.368	0.488
418.499	295.033	79.995	19.995	100.242	19.922	24.908	0.504
419.999	295.750	79.998	19.995	100.253	19.917	25.319	0.484
421.500	296.481	79.997	19.996	100.258	19.909	25.902	0.496
422.999	297.260	79.997	19.994	100.265	19.896	26.944	0.506
424.499	298.006	79.997	19.995	100.266	19.891	27.346	0.504
425.999	298.773	79.997	19.995	100.261	19.880	28.162	0.518
427.500	299.495	79.999	19.995	100.272	19.869	28.987	0.488
429.000	300.218	79.997	19.995	100.277	19.867	29.191	0.489
430.500	300.988	79.998	19.996	100.275	19.857	29.949	0.516
432.000	301.746	79.997	19.996	100.275	19.844	30.900	0.505
433.499	302.481	79.996	19.995	100.278	19.836	31.526	0.497
434.999	303.214	79.996	19.995	100.280	19.828	32.143	0.484
436.500	303.970	79.995	19.995	100.281	19.815	33.188	0.487
438.000	304.669	79.996	19.994	100.281	19.806	33.867	0.483
439.500	305.391	79.998	19.995	100.282	19.801	34.247	0.474
440.999	306.160	79.998	19.996	100.291	19.789	35.163	0.526
442.499	306.877	79.996	19.995	100.301	19.778	36.012	0.488
443.999	307.675	79.998	19.995	100.315	19.768	36.755	0.529
445.500	308.433	79.998	19.995	100.342	19.757	37.634	0.513
446.999	309.149	79.999	19.995	100.358	19.752	37.969	0.479
448.499	309.941	79.999	19.995	100.350	19.740	38.932	0.523
449.999	310.662	79.999	19.995	100.335	19.726	39.980	0.491
451.499	311.408	79.998	19.994	100.317	19.717	40.700	0.523
452.999	312.192	79.998	19.995	100.315	19.705	41.590	0.516
454.499	312.945	79.999	19.995	100.314	19.697	42.248	0.509
455.999	313.700	79.997	19.995	100.314	19.686	43.039	0.512
457.499	314.437	79.997	19.995	100.316	19.672	44.143	0.503
458.999	315.200	79.998	19.996	100.331	19.665	44.651	0.497
460.499	315.889	79.997	19.996	100.353	19.652	45.654	0.467
461.999	316.668	79.996	19.996	100.363	19.639	46.666	0.504
463.499	317.429	79.995	19.995	100.367	19.632	47.234	0.508
464.999	318.186	79.997	19.996	100.361	19.614	48.583	0.501
466.499	318.911	79.997	19.997	100.353	19.599	49.751	0.486
468.000	319.710	79.996	19.996	100.353	19.585	50.854	0.507
469.500	320.432	79.996	19.996	100.345	19.576	51.527	0.483
470.999	321.191	79.996	19.997	100.346	19.561	52.722	0.516
472.500	321.932	79.997	19.996	100.377	19.549	53.635	0.490
473.999	322.701	79.996	19.995	100.393	19.535	54.698	0.536
475.500	323.463	79.997	19.996	100.405	19.522	55.689	0.502
476.999	324.219	79.996	19.996	100.401	19.509	56.718	0.487
478.500	324.952	79.995	19.997	100.406	19.499	57.483	0.512
480.000	325.714	79.995	19.996	100.421	19.485	58.537	0.500
481.500	326.444	79.995	19.995	100.412	19.473	59.465	0.474
482.999	327.221	79.995	19.997	100.420	19.461	60.389	0.528
484.499	327.994	79.995	19.996	100.436	19.444	61.707	0.527
486.000	328.735	79.995	19.996	100.454	19.436	62.283	0.507
487.500	329.527	79.996	19.996	100.462	19.414	63.993	0.546
489.000	330.291	79.996	19.997	100.442	19.401	65.001	0.520
490.499	331.039	79.994	19.996	100.414	19.388	65.971	0.496
492.000	331.786	79.995	19.996	100.407	19.372	67.248	0.509
493.499	332.529	79.996	19.996	100.416	19.362	67.959	0.501
495.000	333.323	79.997	19.996	100.422	19.346	69.189	0.516
496.500	334.091	79.996	19.996	100.426	19.335	70.049	0.538
497.999	334.849	79.996	19.994	100.436	19.325	70.856	0.513
499.499	335.618	79.996	19.994	100.441	19.314	71.637	0.511
500.999	336.361	79.997	19.994	100.442	19.307	72.164	0.502
502.499	337.106	79.997	19.994	100.433	19.296	73.032	0.502
503.999	337.891	79.997	19.994	100.432	19.288	73.634	0.505
505.500	338.623	79.997	19.994	100.429	19.280	74.220	0.470
506.999	339.406	79.997	19.995	100.418	19.270	75.012	0.515
508.499	340.168	79.996	19.994	100.413	19.266	75.288	0.500
509.999	340.965	79.996	19.994	100.426	19.268	75.172	0.523
511.499	341.695	79.997	19.995	100.423	19.262	75.578	0.475
512.999	342.473	79.996	19.996	100.408	19.264	75.390	0.522
514.499	343.222	79.997	19.996	100.394	19.268	75.100	0.509
515.999	343.957	79.996	19.996	100.383	19.268	75.136	0.511
517.500	344.688	79.997	19.995	100.360	19.277	74.386	0.484
519.000	345.503	79.998	19.996	100.355	19.289	73.472	0.565
520.500	346.242	79.996	19.995	100.346	19.294	73.062	0.497
521.999	347.018	79.997	19.995	100.319	19.310	71.788	0.508
523.499	347.750	79.997	19.994	100.293	19.331	70.196	0.486
525.000	348.536	79.998	19.996	100.293	19.354	68.408	0.525
526.500	349.303	79.999	19.994	100.298	19.378	66.539	0.529
527.999	350.113	79.998	19.995	100.283	19.404	64.534	0.515
529.499	350.841	79.999	19.995	100.252	19.436	62.072	0.497
531.000	351.621	80.001	19.995	100.222	19.469	59.558	0.520
532.500	352.364	79.999	19.994	100.181	19.504	56.920	0.494
534.000	353.124	79.999	19.994	100.163	19.539	54.210	0.512
535.499	353.888	79.998	19.996	100.179	19.577	51.308	0.528
536.999	354.674	79.997	19.995	100.148	19.618	48.187	0.525
538.500	355.451	79.996	19.995	100.123	19.656	45.279	0.521
540.000	356.195	79.996	19.996	100.120	19.697	42.078	0.495
541.499	356.923	79.996	19.995	100.105	19.736	39.126	0.509
542.999	357.694	79.997	19.996	100.090	19.775	36.137	0.517
544.500	358.432	79.995	19.995	100.081	19.816	33.007	0.487
546.000	359.195	79.994	19.996	100.077	19.849	30.496	0.496
547.499	359.937	79.995	19.996	100.083	19.884	27.779	0.497
548.999	360.739	79.993	19.996	100.084	19.917	25.229	0.535
550.499	361.516	79.996	19.995	100.081	19.948	22.929	0.523
552.000	362.229	79.995	19.994	100.079	19.972	21.078	0.483
553.499	363.002	79.995	19.995	100.075	19.999	18.971	0.506
555.000	363.790	79.997	19.995	100.078	20.021	17.342	0.513
556.499	364.502	79.997	19.996	100.071	20.039	15.948	0.468
558.000	365.311	79.997	19.994	100.049	20.055	14.701	0.552
559.500	366.052	79.996	19.995	100.040	20.071	13.501	0.480
561.000	366.798	79.994	19.995	100.037	20.085	12.432	0.504
562.500	367.491	79.994	19.996	100.055	20.097	11.477	0.474
563.999	368.316	79.996	19.996	100.078	20.103	11.060	0.530
565.499	369.061	79.994	19.996	100.088	20.117	9.986	0.513
567.000	369.812	79.995	19.996	100.077	20.122	9.583	0.487
568.499	370.547	79.994	19.996	100.073	20.126	9.271	0.478
569.999	371.317	79.994	19.995	100.064	20.136	8.529	0.501
571.499	372.094	79.995	19.997	100.054	20.137	8.457	0.505
572.999	372.817	79.995	19.997	100.079	20.145	7.813	0.484
574.499	373.605	79.996	19.997	100.088	20.151	7.390	0.500
575.999	374.346	79.995	19.996	100.079	20.154	7.103	0.514
577.499	375.116	79.996	19.996	100.079	20.156	6.965	0.500
578.999	375.876	79.997	19.995	100.079	20.156	6.967	0.500
580.499	376.637	79.997	19.995	100.082	20.159	6.732	0.507
582.000	377.352	79.997	19.995	100.076	20.163	6.455	0.476
583.500	378.113	79.997	19.995	100.072	20.159	6.742	0.494
584.999	378.845	79.997	19.995	100.079	20.163	6.447	0.491
586.500	379.620	79.998	19.995	100.078	20.170	5.912	0.510
587.999	380.358	79.997	19.995	100.078	20.172	5.770	0.510
589.500	381.081	79.998	19.995	100.082	20.173	5.703	0.478
590.999	381.830	79.997	19.995	100.085	20.171	5.836	0.488
592.499	382.589	79.997	19.994	100.078	20.170	5.921	0.519
593.999	383.351	79.996	19.995	100.074	20.173	5.672	0.496
595.500	384.075	79.996	19.995	100.076	20.170	5.923	0.474
596.999	384.811	79.997	19.994	100.079	20.173	5.662	0.495
598.500	385.526	79.997	19.994	100.079	20.175	5.553	0.475
600.000	386.293	79.997	19.995	100.079	20.176	5.435	0.507
601.500	387.061	79.997	19.995	100.071	20.178	5.312	0.484
602.999	387.848	79.998	19.995	100.071	20.179	5.195	0.515
604.500	388.546	79.996	19.994	100.081	20.181	5.098	0.465
606.000	389.269	79.998	19.994	100.090	20.178	5.308	0.476
607.500	390.021	79.998	19.995	100.066	20.180	5.157	0.517
609.000	390.762	79.999	19.995	100.048	20.181	5.044	0.489
610.499	391.522	79.998	19.994	100.075	20.180	5.169	0.505
611.999	392.265	79.999	19.995	100.102	20.181	5.071	0.500
613.499	392.979	79.998	19.994	100.084	20.180	5.126	0.491
614.999	393.798	79.997	19.994	100.069	20.177	5.375	0.545
616.499	394.570	79.996	19.995	100.067	20.181	5.035	0.516
618.000	395.329	79.995	19.994	100.065	20.180	5.145	0.491
619.499	396.083	79.996	19.995	100.081	20.185	4.793	0.492
621.000	396.864	79.994	19.995	100.062	20.183	4.918	0.505
622.499	397.596	79.994	19.996	100.065	20.183	4.916	0.493
623.999	398.371	79.994	19.995	100.082	20.187	4.640	0.522
625.500	399.151	79.996	19.995	100.076	20.184	4.875	0.521
627.000	399.877	79.994	19.996	100.057	20.182	4.975	0.507
628.500	400.662	79.995	19.996	100.077	20.185	4.777	0.520
629.999	401.450	79.995	19.997	100.090	20.180	5.127	0.527
631.500	402.202	79.996	19.996	100.070	20.179	5.199	0.506
633.000	402.927	79.996	19.994	100.065	20.180	5.128	0.494
634.499	403.753	79.995	19.996	100.084	20.180	5.147	0.536
635.999	404.487	79.995	19.996	100.084	20.181	5.042	0.492
637.499	405.252	79.995	19.996	100.082	20.186	4.666	0.505
638.999	406.000	79.996	19.996	100.069	20.179	5.210	0.488
640.499	406.785	79.996	19.996	100.057	20.180	5.151	0.510
642.000	407.560	79.996	19.994	100.071	20.183	4.920	0.523
643.499	408.295	79.994	19.995	100.080	20.184	4.817	0.501
644.999	409.071	79.995	19.995	100.077	20.182	5.023	0.514
646.500	409.812	79.995	19.995	100.072	20.183	4.902	0.491
648.000	410.579	79.995	19.996	100.107	20.182	4.975	0.501
649.500	411.347	79.995	19.996	100.091	20.180	5.163	0.507
651.000	412.103	79.995	19.997	100.070	20.180	5.144	0.512
652.499	412.838	79.996	19.997	100.066	20.181	5.059	0.497
654.000	413.656	79.994	19.997	100.055	20.181	5.094	0.563
655.500	414.364	79.994	19.996	100.061	20.182	4.955	0.481
657.000	415.186	79.995	19.996	100.084	20.184	4.807	0.531
658.500	415.928	79.996	19.997	100.080	20.178	5.311	0.467
659.999	416.684	79.995	19.997	100.062	20.180	5.120	0.515
661.499	417.437	79.996	19.997	100.052	20.181	5.042	0.486
662.999	418.168	79.997	19.996	100.071	20.172	5.786	0.473
664.500	418.998	79.997	19.994	100.074	20.187	4.577	0.554
665.999	419.749	79.997	19.995	100.049	20.171	5.808	0.527
667.500	420.541	79.997	19.995	100.058	20.175	5.516	0.544
669.000	421.235	79.995	19.995	100.078	20.183	4.914	0.509
670.499	421.976	79.995	19.993	100.081	20.179	5.184	0.490
671.999	422.774	79.996	19.994	100.077	20.181	5.082	0.517
673.499	423.529	79.995	19.994	100.066	20.182	4.956	0.458
674.999	424.316	79.997	19.995	100.078	20.181	5.101	0.551
676.500	425.220	79.995	19.994	100.080	20.179	5.260	0.536
677.999	425.755	79.996	19.995	100.083	20.179	5.203	0.621
679.499	426.215	79.995	19.995	100.071	20.180	5.141	0.170
680.999	426.930	79.997	19.995	100.067	20.181	5.105	0.481
682.499	427.854	79.997	19.994	100.079	20.181	5.084	0.589
683.999	428.887	79.998	19.995	100.082	20.176	5.427	0.910
685.499	429.597	79.999	19.994	100.073	20.174	5.610	0.410
686.999	430.385	79.998	19.994	100.070	20.178	5.329	0.576
688.499	431.203	79.999	19.994	100.069	20.181	5.098	0.505
690.000	432.021	79.996	19.993	100.072	20.182	4.994	0.479
691.499	432.709	79.997	19.995	100.078	20.183	4.950	0.521
693.000	433.601	79.998	19.996	100.072	20.183	4.899	0.570
694.500	434.376	79.995	19.995	100.065	20.177	5.373	0.527
696.000	435.133	79.995	19.994	100.077	20.179	5.214	0.509
697.499	435.932	79.996	19.994	100.074	20.178	5.299	0.521
699.000	436.682	79.997	19.994	100.070	20.180	5.108	0.536
700.499	437.486	79.995	19.995	100.071	20.180	5.178	0.511
702.000	438.258	79.996	19.995	100.076	20.179	5.195	0.524
703.499	439.067	79.997	19.995	100.069	20.176	5.439	0.558
704.999	439.853	79.997	19.995	100.078	20.181	5.045	0.536
706.499	440.634	79.997	19.995	100.078	20.175	5.502	0.502
707.999	441.397	79.996	19.995	100.065	20.180	5.175	0.498
709.499	442.168	79.997	19.996	100.051	20.177	5.337	0.520
710.999	442.928	79.997	19.995	100.056	20.175	5.508	0.536
712.500	443.686	79.996	19.995	100.068	20.176	5.425	0.536
714.000	444.496	79.996	19.995	100.060	20.175	5.534	0.529
715.499	445.252	79.995	19.996	100.049	20.181	5.089	0.505
716.999	446.000	79.996	19.995	100.046	20.177	5.351	0.480
718.499	446.816	79.996	19.995	100.047	20.182	5.008	0.537
719.999	447.603	79.996	19.996	100.060	20.176	5.425	0.510
721.499	448.349	79.995	19.996	100.056	20.183	4.953	0.498
722.999	449.110	79.995	19.995	100.053	20.176	5.419	0.505
724.500	449.902	79.995	19.996	100.060	20.177	5.364	0.493
725.999	450.656	79.995	19.994	100.054	20.179	5.225	0.529
727.499	451.434	79.996	19.996	100.056	20.181	5.049	0.548
728.999	452.195	79.995	19.995	100.056	20.176	5.443	0.523
730.500	452.962	79.996	19.995	100.062	20.181	5.078	0.507
731.999	453.758	79.996	19.995	100.057	20.185	4.731	0.528
733.499	454.532	79.996	19.996	100.064	20.181	5.053	0.505
734.999	455.283	79.996	19.996	100.064	20.185	4.771	0.502
736.500	456.094	79.996	19.995	100.053	20.186	4.721	0.535
738.000	456.851	79.998	19.997	100.053	20.184	4.875	0.492
739.500	457.600	79.998	19.995	100.048	20.189	4.471	0.501
741.000	458.374	79.997	19.997	100.044	20.185	4.783	0.500
742.499	459.124	79.997	19.995	100.052	20.182	4.999	0.491
743.999	459.946	79.996	19.996	100.045	20.185	4.795	0.551
745.500	460.699	79.997	19.996	100.049	20.184	4.854	0.486
746.999	461.448	79.996	19.997	100.063	20.183	4.892	0.511
748.499	462.259	79.996	19.995	100.054	20.186	4.674	0.544
749.999	462.975	79.997	19.996	100.048	20.186	4.707	0.475
751.500	463.748	79.996	19.994	100.044	20.184	4.867	0.523
753.000	464.488	79.996	19.995	100.045	20.185	4.762	0.487
754.499	465.221	79.995	19.994	100.045	20.188	4.540	0.484
755.999	465.963	79.997	19.995	100.045	20.187	4.600	0.511
757.500	466.722	79.997	19.994	100.047	20.189	4.437	0.488
759.000	467.473	79.996	19.994	100.058	20.188	4.504	0.505
760.500	468.251	79.997	19.994	100.052	20.188	4.504	0.501
761.999	469.016	79.999	19.995	100.044	20.189	4.479	0.522
763.499	469.745	79.999	19.995	100.044	20.191	4.290	0.502
765.000	470.523	80.000	19.994	100.044	20.191	4.294	0.507
766.499	471.287	79.999	19.994	100.042	20.189	4.493	0.480
768.000	472.036	79.998	19.994	100.041	20.189	4.479	0.498
769.499	472.795	79.997	19.994	100.039	20.188	4.523	0.501
770.999	473.593	79.997	19.996	100.034	20.187	4.617	0.548
772.500	474.431	79.996	19.996	100.036	20.190	4.393	0.535
774.000	475.174	79.996	19.995	100.040	20.188	4.527	0.494
775.500	475.972	79.997	19.995	100.034	20.186	4.699	0.530
776.999	476.761	79.997	19.996	100.039	20.191	4.315	0.541
778.500	477.549	79.997	19.995	100.042	20.193	4.154	0.518
779.999	478.319	79.996	19.996	100.042	20.194	4.045	0.492
781.499	479.075	79.995	19.995	100.047	20.192	4.219	0.504
782.999	479.847	79.997	19.995	100.050	20.192	4.256	0.511
784.500	480.615	79.996	19.995	100.045	20.189	4.482	0.501
785.999	481.381	79.997	19.995	100.041	20.194	4.053	0.516
787.500	482.164	79.998	19.995	100.030	20.196	3.936	0.523
789.000	482.916	79.997	19.996	100.034	20.195	4.028	0.513
790.499	483.697	79.998	19.995	100.042	20.196	3.919	0.496
792.000	484.522	79.998	19.996	100.041	20.195	3.967	0.541
793.499	485.249	79.997	19.996	100.041	20.196	3.886	0.481
794.999	486.013	79.998	19.995	100.029	20.193	4.173	0.507
796.499	486.775	79.995	19.995	100.035	20.194	4.038	0.505
797.999	487.532	79.997	19.996	100.043	20.195	4.030	0.478
799.499	488.329	79.997	19.995	100.034	20.198	3.766	0.526
801.000	489.081	79.995	19.995	100.036	20.198	3.766	0.498
802.499	489.864	79.994	19.995	100.044	20.198	3.793	0.512
803.999	490.645	79.995	19.994	100.043	20.195	4.001	0.511
805.499	491.384	79.995	19.996	100.043	20.199	3.657	0.502
807.000	492.141	79.995	19.995	100.036	20.201	3.515	0.507
808.499	492.911	79.995	19.996	100.027	20.202	3.498	0.516
809.999	493.710	79.995	19.994	100.027	20.200	3.630	0.538
811.499	494.480	79.997	19.996	100.039	20.203	3.416	0.518
812.999	495.247	79.996	19.995	100.042	20.200	3.632	0.528
814.499	496.021	79.995	19.995	100.040	20.205	3.259	0.506
816.000	496.782	79.997	19.995	100.042	20.205	3.234	0.510
817.499	497.540	79.997	19.994	100.043	20.204	3.338	0.495
819.000	498.316	79.997	19.995	100.043	20.206	3.133	0.510
820.500	499.053	79.998	19.995	100.040	20.207	3.043	0.487
822.000	499.815	79.997	19.996	100.033	20.204	3.326	0.527
823.499	500.610	79.997	19.996	100.032	20.209	2.944	0.532
824.999	501.360	79.997	19.997	100.040	20.208	2.970	0.511
826.499	502.109	79.996	19.996	100.038	20.210	2.854	0.494
828.000	502.899	79.996	19.996	100.033	20.208	2.995	0.518
829.499	503.653	79.996	19.996	100.036	20.209	2.942	0.520
830.999	504.432	79.995	19.996	100.033	20.207	3.062	0.529
832.500	505.162	79.995	19.997	100.035	20.211	2.794	0.493
833.999	505.951	79.996	19.996	100.034	20.212	2.670	0.510
835.499	506.718	79.997	19.995	100.037	20.210	2.857	0.502
836.999	507.485	79.998	19.997	100.038	20.210	2.821	0.512
838.500	508.254	79.996	19.996	100.033	20.212	2.693	0.502
839.999	509.038	79.998	19.995	100.024	20.215	2.498	0.534
841.500	509.799	79.999	19.994	100.032	20.215	2.460	0.507
842.999	510.544	79.998	19.994	100.040	20.215	2.473	0.500
844.500	511.316	79.999	19.996	100.038	20.216	2.402	0.496
846.000	512.060	79.998	19.995	100.039	20.210	2.819	0.494
847.499	512.783	79.998	19.995	100.037	20.212	2.660	0.479
848.999	513.545	79.998	19.994	100.038	20.216	2.370	0.489
850.499	514.365	79.998	19.995	100.041	20.212	2.710	0.545
852.000	515.175	79.998	19.996	100.036	20.213	2.588	0.524
853.500	515.947	79.997	19.995	100.041	20.214	2.557	0.533
854.999	516.705	79.996	19.996	100.035	20.212	2.733	0.493
856.499	517.501	79.996	19.996	100.032	20.215	2.437	0.541
857.999	518.287	79.995	19.995	100.043	20.218	2.207	0.527
859.499	519.021	79.997	19.995	100.040	20.215	2.462	0.515
861.000	519.808	79.996	19.995	100.040	20.219	2.152	0.516
862.499	520.559	79.995	19.995	100.036	20.216	2.364	0.504
863.999	521.303	79.995	19.994	100.036	20.212	2.674	0.508
865.499	522.094	79.994	19.996	100.041	20.217	2.288	0.533
867.000	522.852	79.995	19.995	100.039	20.214	2.575	0.510
868.500	523.608	79.996	19.995	100.030	20.212	2.729	0.528
870.000	524.372	79.997	19.994	100.016	20.211	2.741	0.515
871.499	525.145	79.995	19.996	100.018	20.207	3.055	0.533
872.999	525.909	79.996	19.995	100.032	20.217	2.299	0.492
874.500	526.674	79.995	19.994	100.037	20.216	2.377	0.506
875.999	527.416	79.993	19.994	100.031	20.215	2.458	0.486
877.499	528.185	79.996	19.995	100.025	20.214	2.550	0.493
878.999	528.921	79.995	19.994	100.038	20.211	2.808	0.511
880.499	529.655	79.995	19.994	100.031	20.215	2.483	0.507
882.000	530.408	79.996	19.994	100.030	20.215	2.444	0.496
883.500	531.209	79.994	19.994	100.038	20.216	2.377	0.556
885.000	531.967	79.995	19.996	100.045	20.216	2.400	0.509
886.499	532.712	79.995	19.995	100.042	20.215	2.429	0.495
887.999	533.490	79.994	19.995	100.034	20.214	2.551	0.532
889.500	534.264	79.995	19.996	100.037	20.214	2.569	0.517
891.000	535.014	79.996	19.999	100.041	20.211	2.768	0.504
892.500	535.819	79.996	19.998	100.041	20.215	2.498	0.546
893.999	536.558	79.996	19.997	100.038	20.216	2.370	0.472
895.499	537.349	79.996	19.997	100.037	20.218	2.226	0.521
897.000	538.100	79.998	19.998	100.038	20.216	2.364	0.503
898.500	538.884	79.997	19.997	100.041	20.215	2.435	0.543
900.000	539.615	79.997	19.997	100.045	20.218	2.221	0.495
901.499	540.392	79.996	19.995	100.021	20.220	2.112	0.522
903.000	541.136	79.996	19.995	100.020	20.218	2.245	0.485
904.500	541.914	79.996	19.995	100.034	20.218	2.247	0.532
905.999	542.668	79.996	19.996	100.037	20.222	1.901	0.507
907.500	543.448	79.995	19.996	100.023	20.218	2.224	0.522
909.000	544.213	79.994	19.995	100.029	20.220	2.106	0.520
910.499	544.946	79.997	19.996	100.038	20.220	2.075	0.459
911.999	545.692	79.995	19.996	100.038	20.214	2.509	0.487
913.500	546.468	79.994	19.995	100.037	20.216	2.402	0.517
915.000	547.228	79.997	19.997	100.041	20.216	2.427	0.493
916.500	548.011	79.998	19.997	100.039	20.220	2.081	0.514
918.000	548.758	79.996	19.996	100.036	20.214	2.515	0.498
919.499	549.519	79.997	19.996	100.039	20.216	2.406	0.507
920.999	550.272	79.997	19.996	100.040	20.214	2.567	0.495
922.500	551.017	79.996	19.996	100.041	20.218	2.259	0.509
923.999	551.816	79.996	19.995	100.041	20.215	2.473	0.526
925.499	552.576	79.997	19.996	100.045	20.216	2.353	0.500
926.999	553.324	79.998	19.996	100.042	20.217	2.280	0.529
928.499	554.123	79.996	19.994	100.042	20.216	2.379	0.529
930.000	554.892	79.994	19.995	100.041	20.216	2.404	0.503
931.499	555.668	79.994	19.996	100.041	20.216	2.362	0.520
932.999	556.421	79.994	19.995	100.038	20.219	2.165	0.536
934.499	557.176	79.994	19.996	100.027	20.214	2.521	0.499
936.000	557.942	79.994	19.995	100.031	20.218	2.245	0.519
937.500	558.717	79.995	19.996	100.044	20.215	2.498	0.533
938.999	559.472	79.995	19.997	100.043	20.216	2.422	0.501
940.500	560.245	79.995	19.996	100.038	20.216	2.395	0.522
942.000	560.980	79.996	19.995	100.032	20.211	2.798	0.517
943.499	561.736	79.995	19.994	100.035	20.214	2.532	0.516
944.999	562.507	79.995	19.995	100.045	20.212	2.661	0.504
946.500	563.253	79.996	19.997	100.040	20.211	2.772	0.497
948.000	563.992	79.996	19.995	100.039	20.218	2.269	0.493
949.500	564.767	79.995	19.995	100.034	20.216	2.420	0.513
950.999	565.518	79.996	19.995	100.031	20.213	2.657	0.505
952.499	566.270	79.996	19.997	100.038	20.217	2.307	0.507
954.000	567.051	79.996	19.995	100.036	20.217	2.303	0.530
955.500	567.829	79.995	19.993	100.036	20.213	2.595	0.518
957.000	568.574	79.996	19.995	100.018	20.215	2.468	0.491
958.500	569.329	79.996	19.995	100.018	20.216	2.422	0.508
960.000	570.126	79.995	19.996	100.033	20.213	2.624	0.541
961.499	570.858	79.994	19.996	100.029	20.212	2.674	0.476
963.000	571.646	79.995	19.995	100.030	20.215	2.437	0.534
964.499	572.404	79.996	19.996	100.042	20.214	2.537	0.517
965.999	573.197	79.997	19.996	100.041	20.215	2.500	0.543
967.500	573.963	79.997	19.996	100.033	20.216	2.412	0.533
968.999	574.769	79.996	19.995	100.027	20.216	2.374	0.546
970.499	575.551	79.995	19.994	100.038	20.217	2.343	0.523
972.000	576.331	79.997	19.995	100.039	20.215	2.502	0.529
973.500	577.102	79.997	19.997	100.033	20.216	2.393	0.517
974.999	577.864	79.997	19.996	100.018	20.214	2.509	0.510
976.500	578.618	79.996	19.997	100.027	20.215	2.485	0.503
977.999	579.356	79.995	19.997	100.037	20.212	2.733	0.502
979.499	580.133	79.995	19.996	100.036	20.212	2.691	0.531
980.999	580.926	79.997	19.997	100.040	20.210	2.859	0.531
982.499	581.687	79.996	19.996	100.045	20.214	2.563	0.526
983.999	582.479	79.997	19.996	100.039	20.212	2.729	0.534
985.499	583.235	79.997	19.997	100.040	20.211	2.739	0.520
987.000	583.948	79.995	19.996	100.038	20.211	2.794	0.478
988.499	584.758	79.995	19.995	100.027	20.217	2.349	0.542
990.000	585.514	79.995	19.996	100.038	20.218	2.249	0.504
991.500	586.288	79.996	19.997	100.039	20.218	2.247	0.508
993.000	587.039	79.996	19.995	100.045	20.216	2.354	0.498
994.499	587.760	79.997	19.996	100.051	20.220	2.096	0.500
996.000	588.574	79.997	19.995	100.038	20.215	2.481	0.543
997.500	589.346	79.995	19.995	100.038	20.211	2.747	0.510
999.000	590.072	79.997	19.996	100.041	20.215	2.429	0.493
1000.500	590.839	79.997	19.998	100.038	20.218	2.259	0.485
1002.000	591.606	79.996	19.996	100.039	20.214	2.512	0.526
1003.499	592.347	79.995	19.996	100.041	20.219	2.163	0.491
1004.999	593.140	79.995	19.995	100.040	20.216	2.368	0.531
1006.499	593.929	79.994	19.996	100.025	20.215	2.481	0.523
1008.000	594.701	79.992	19.996	100.025	20.214	2.540	0.520
1009.500	595.446	79.994	19.996	100.027	20.210	2.814	0.499
1010.999	596.220	79.995	19.996	100.022	20.214	2.529	0.508
1012.500	596.954	79.996	19.996	100.029	20.216	2.397	0.509
1013.999	597.732	79.994	19.995	100.025	20.214	2.576	0.493
1015.499	598.500	79.995	19.995	100.030	20.214	2.521	0.498
1017.000	599.202	79.995	19.997	100.039	20.215	2.433	0.478
1018.499	599.962	79.995	19.996	100.037	20.215	2.467	0.508
1019.999	600.743	79.994	19.995	100.035	20.212	2.687	0.525
1021.500	601.463	79.996	19.995	100.023	20.216	2.402	0.486
1022.999	602.294	79.996	19.996	100.024	20.218	2.252	0.558
1024.500	602.998	79.997	19.996	100.033	20.216	2.418	0.468
1025.999	603.734	79.996	19.995	100.028	20.213	2.590	0.491
1027.500	604.519	79.995	19.995	100.031	20.212	2.699	0.519
1029.000	605.274	79.996	19.995	100.031	20.216	2.425	0.502
1030.499	606.041	79.996	19.995	100.032	20.216	2.381	0.509
1032.000	606.831	79.996	19.995	100.038	20.218	2.217	0.522
1033.499	607.556	79.996	19.995	100.023	20.214	2.542	0.490
1034.999	608.292	79.996	19.996	100.022	20.213	2.607	0.514
1036.499	609.077	79.995	19.995	100.038	20.215	2.464	0.550
1037.999	609.817	79.995	19.996	100.041	20.214	2.540	0.515
1039.499	610.607	79.995	19.996	100.035	20.212	2.693	0.494
1041.000	611.376	79.995	19.995	100.034	20.211	2.739	0.521
1042.499	612.132	79.995	19.996	100.040	20.213	2.630	0.503
1043.999	612.907	79.995	19.995	100.040	20.217	2.322	0.531
1045.499	613.668	79.995	19.995	100.035	20.218	2.219	0.500
1046.999	614.447	79.996	19.995	100.028	20.216	2.387	0.508
1048.499	615.216	79.996	19.995	100.029	20.216	2.359	0.514
1050.001	615.990	79.997	19.995	100.040	20.220	2.079	0.509
1051.500	616.781	79.996	19.994	100.038	20.217	2.297	0.526
1053.000	617.516	79.997	19.994	100.042	20.215	2.429	0.510
1054.500	618.269	79.997	19.995	100.042	20.216	2.358	0.510
1056.000	619.038	79.997	19.994	100.039	20.217	2.289	0.526
1057.499	619.837	79.998	19.996	100.032	20.214	2.515	0.522
1058.999	620.604	79.996	19.995	100.019	20.214	2.542	0.518
1060.499	621.406	79.996	19.994	100.028	20.216	2.398	0.519
1061.999	622.156	79.996	19.995	100.036	20.216	2.356	0.508
1063.499	622.948	79.996	19.995	100.026	20.211	2.777	0.523
1065.000	623.729	79.996	19.996	100.036	20.215	2.483	0.505
1066.500	624.533	79.994	19.996	100.044	20.217	2.336	0.551
1067.999	625.346	79.996	19.995	100.041	20.216	2.399	0.547
1069.501	626.103	79.996	19.996	100.040	20.219	2.169	0.496
1070.999	626.929	79.996	19.995	100.047	20.213	2.615	0.545
1072.499	627.777	79.997	19.994	100.055	20.216	2.377	0.557
1074.000	628.539	79.998	19.995	100.042	20.215	2.454	0.511
1075.499	629.329	79.998	19.996	100.038	20.213	2.649	0.526
1076.999	630.195	79.998	19.994	100.026	20.216	2.427	0.558
1078.499	631.000	79.999	19.997	100.021	20.216	2.391	0.539
1079.999	631.799	79.998	19.996	100.030	20.214	2.580	0.539
1081.500	632.607	79.996	19.995	100.034	20.209	2.921	0.552
1083.000	633.441	79.996	19.995	100.037	20.215	2.500	0.571
1084.500	634.254	79.996	19.995	100.037	20.215	2.452	0.522
1086.000	635.068	79.994	19.996	100.038	20.218	2.244	0.557
1087.499	635.895	79.995	19.996	100.037	20.219	2.123	0.557
1088.999	636.731	79.997	19.998	100.031	20.218	2.251	0.548
1090.499	637.538	79.996	19.997	100.033	20.215	2.502	0.560
1091.999	638.364	79.994	19.998	100.031	20.213	2.627	0.552
1093.499	639.130	79.996	19.997	100.037	20.211	2.783	0.524
1094.999	639.969	79.996	19.997	100.029	20.219	2.173	0.536
1096.500	640.783	79.995	19.998	100.019	20.218	2.267	0.564
1097.999	641.598	79.995	19.997	100.027	20.216	2.391	0.555
1099.499	642.407	79.996	19.995	100.037	20.216	2.372	0.557
1100.999	643.237	79.997	19.996	100.022	20.223	1.873	0.570
1102.500	644.006	79.995	19.995	100.008	20.218	2.271	0.512
1104.000	644.802	79.996	19.995	100.014	20.222	1.936	0.547
1105.499	645.602	79.996	19.995	100.029	20.218	2.254	0.527
1106.999	646.356	79.997	19.996	100.019	20.216	2.361	0.499
1108.499	647.160	79.996	19.994	100.008	20.217	2.277	0.542
1109.999	647.961	79.995	19.994	100.013	20.219	2.123	0.528
1111.500	648.738	79.996	19.997	100.021	20.219	2.158	0.523
1112.999	649.533	79.995	19.995	100.012	20.219	2.166	0.529
1114.499	650.344	79.995	19.995	100.013	20.219	2.175	0.530
1115.999	651.109	79.994	19.994	100.012	20.219	2.189	0.502
1117.500	651.867	79.995	19.996	100.008	20.213	2.653	0.506
1118.999	652.636	79.997	19.995	100.012	20.224	1.789	0.522
1120.499	653.409	79.995	19.995	100.019	20.219	2.162	0.510
1121.999	654.189	79.997	19.996	100.020	20.215	2.433	0.497
1123.499	654.949	79.995	19.995	100.010	20.216	2.393	0.501
1124.999	655.686	79.995	19.995	100.011	20.213	2.596	0.495
1126.500	656.421	79.997	19.996	100.008	20.222	1.894	0.494
1127.999	657.215	79.998	19.996	100.021	20.218	2.269	0.519
1129.499	657.887	79.998	19.995	100.021	20.221	2.014	0.439
1131.000	658.749	79.996	19.994	100.015	20.218	2.225	0.559
1132.500	659.471	79.997	19.994	100.014	20.220	2.076	0.505
1134.000	660.227	79.998	19.995	100.007	20.217	2.286	0.493
1135.500	660.982	79.997	19.994	100.009	20.223	1.821	0.501
1136.999	661.761	79.997	19.994	100.019	20.222	1.951	0.530
1138.501	662.511	79.998	19.994	100.034	20.228	1.486	0.503
1139.999	663.250	79.999	19.995	100.023	20.220	2.050	0.499
1141.500	664.013	79.997	19.994	100.010	20.224	1.802	0.523
1142.999	664.769	79.997	19.995	100.004	20.220	2.047	0.491
1144.500	665.535	79.999	19.996	100.007	20.219	2.124	0.521
1146.000	666.271	79.997	19.996	100.016	20.221	2.030	0.489
1147.499	667.012	79.997	19.996	100.010	20.217	2.323	0.479
1148.999	667.813	79.997	19.994	100.019	20.223	1.856	0.529
1150.500	668.541	79.999	19.996	100.035	20.216	2.416	0.511
1152.000	669.322	80.000	19.995	100.024	20.214	2.561	0.528
1153.499	670.079	79.999	19.995	100.006	20.219	2.148	0.525
1155.000	670.890	79.999	19.996	100.005	20.220	2.099	0.530
1156.500	671.631	79.999	19.995	100.003	20.217	2.290	0.505
1157.999	672.360	79.998	19.995	100.004	20.217	2.286	0.496
1159.499	673.152	79.997	19.996	100.009	20.221	2.018	0.535
1160.999	673.932	79.997	19.994	100.011	20.214	2.567	0.511
1162.499	674.665	79.996	19.995	100.018	20.216	2.380	0.497
1163.999	675.422	79.996	19.997	100.022	20.218	2.213	0.510
1165.499	676.166	79.995	19.996	100.016	20.219	2.125	0.520
1167.000	676.968	79.996	19.996	100.010	20.219	2.162	0.500
1168.499	677.705	79.994	19.996	100.014	20.215	2.462	0.490
1170.000	678.457	79.995	19.995	100.019	20.217	2.281	0.497
1171.500	679.186	79.994	19.996	100.013	20.216	2.407	0.489
1172.999	679.985	79.995	19.995	100.013	20.222	1.909	0.524
1174.499	680.742	79.996	19.996	100.013	20.214	2.523	0.498
1175.999	681.480	79.994	19.996	100.011	20.216	2.357	0.505
1177.499	682.167	79.994	19.996	100.010	20.213	2.619	0.466
1179.000	682.973	79.995	19.996	100.007	20.222	1.961	0.539
1180.500	683.648	79.996	19.997	100.005	20.221	2.028	0.442
1182.000	684.436	79.996	19.996	100.009	20.217	2.307	0.507
1183.499	685.168	79.997	19.995	100.012	20.215	2.495	0.495
1185.000	685.940	79.997	19.995	100.011	20.219	2.189	0.496
1186.499	686.664	79.995	19.995	100.012	20.215	2.441	0.472
1187.999	687.435	79.997	19.995	100.013	20.223	1.823	0.496
1189.500	688.139	79.995	19.995	100.008	20.223	1.888	0.464
1190.999	688.902	79.996	19.995	100.019	20.218	2.252	0.497
1192.500	689.628	79.995	19.994	100.018	20.219	2.181	0.476
1193.999	690.349	79.995	19.995	100.010	20.217	2.284	0.504
1195.499	690.993	79.996	19.994	100.012	20.218	2.221	0.460
1197.000	691.797	79.995	19.995	100.012	20.220	2.051	0.525
1198.499	692.525	79.997	19.995	100.007	20.221	2.036	0.484
1199.999	693.286	79.997	19.996	100.004	20.215	2.491	0.523
1201.499	694.000	79.996	19.995	100.011	20.218	2.233	0.487
1203.000	694.748	79.998	19.994	100.017	20.217	2.302	0.503
1204.499	695.455	79.997	19.995	100.012	20.215	2.495	0.486
1206.000	696.147	79.997	19.994	100.005	20.217	2.286	0.450
1207.500	696.900	79.997	19.995	100.003	20.220	2.085	0.498
1208.999	697.637	80.000	19.994	100.010	20.216	2.397	0.468
1210.500	698.394	79.998	19.995	100.008	20.221	2.022	0.500
1212.000	699.080	79.999	19.995	100.002	20.215	2.495	0.468
1213.499	699.809	79.997	19.995	100.004	20.216	2.426	0.471
1214.999	700.569	79.998	19.995	100.007	20.216	2.393	0.494
1216.499	701.328	79.998	19.995	100.013	20.216	2.385	0.511
1218.000	702.078	79.997	19.996	100.016	20.211	2.760	0.491
1219.499	702.779	79.998	19.995	100.013	20.216	2.418	0.478
1220.999	703.532	79.996	19.995	100.019	20.220	2.089	0.490
1222.500	704.276	79.998	19.995	100.014	20.219	2.153	0.506
1223.999	705.023	79.998	19.995	100.007	20.214	2.558	0.490
1225.500	705.759	79.998	19.995	100.012	20.219	2.198	0.488
1226.999	706.475	79.999	19.996	100.018	20.213	2.606	0.456
1228.500	707.186	79.999	19.997	100.024	20.212	2.679	0.474
1229.999	707.950	79.997	19.995	100.015	20.216	2.416	0.495
1231.500	708.735	79.998	19.995	100.007	20.214	2.539	0.501
1233.000	709.453	79.998	19.995	99.995	20.221	2.024	0.478
1234.499	710.223	79.999	19.995	99.997	20.215	2.472	0.524
1235.999	710.927	79.997	19.994	100.004	20.217	2.305	0.465
1237.499	711.690	79.998	19.996	100.004	20.217	2.302	0.486
1238.999	712.454	79.998	19.995	100.003	20.214	2.506	0.510
1240.500	713.199	79.997	19.996	100.002	20.213	2.623	0.528
1242.000	713.937	79.997	19.996	100.002	20.214	2.527	0.515
1243.499	714.726	79.996	19.996	100.003	20.213	2.592	0.517
1244.999	715.459	79.996	19.995	100.010	20.212	2.701	0.496
1246.499	716.224	79.996	19.995	100.020	20.217	2.281	0.515
1247.999	716.978	79.995	19.995	100.009	20.214	2.556	0.510
1249.500	717.762	79.997	19.996	100.004	20.217	2.336	0.506
1250.999	718.524	79.995	19.995	100.010	20.213	2.648	0.535
1252.500	719.281	79.997	19.996	100.011	20.214	2.516	0.493
1254.000	720.053	79.996	19.996	100.004	20.214	2.568	0.528
1255.500	720.799	79.996	19.996	100.006	20.215	2.432	0.510
1256.999	721.562	79.996	19.997	100.006	20.217	2.313	0.516
1258.500	722.308	79.995	19.996	100.005	20.211	2.803	0.492
1260.000	723.122	79.996	19.996	100.003	20.212	2.690	0.546
1261.499	723.865	79.996	19.997	100.001	20.211	2.784	0.503
1262.999	724.628	79.997	19.997	100.000	20.213	2.581	0.493
1264.499	725.384	79.995	19.996	100.002	20.208	2.975	0.485
1266.000	726.136	79.995	19.996	100.001	20.213	2.589	0.510
1267.500	726.907	79.996	19.996	100.001	20.214	2.543	0.511
1268.999	727.652	79.994	19.996	100.000	20.213	2.642	0.512
1270.499	728.438	79.995	19.995	100.001	20.215	2.499	0.522
1272.000	729.169	79.995	19.995	100.003	20.217	2.330	0.481
1273.499	729.909	79.995	19.995	100.003	20.212	2.667	0.519
1274.999	730.698	79.995	19.995	100.003	20.220	2.110	0.506
1276.499	731.427	79.997	19.994	100.003	20.220	2.055	0.494
1277.999	732.218	79.996	19.995	100.006	20.216	2.392	0.517
1279.500	732.910	79.996	19.996	100.003	20.216	2.424	0.467
1281.000	733.707	79.997	19.995	100.000	20.218	2.200	0.534
1282.499	734.493	79.997	19.996	100.005	20.215	2.483	0.505
1284.000	735.220	79.997	19.994	100.005	20.215	2.435	0.502
1285.499	735.980	79.998	19.995	100.001	20.215	2.445	0.498
1287.000	736.748	79.998	19.996	100.001	20.218	2.229	0.521
1288.499	737.501	79.997	19.996	100.000	20.218	2.223	0.505
1290.000	738.277	79.998	19.996	100.000	20.217	2.294	0.519
1291.499	739.023	79.996	19.995	100.002	20.216	2.399	0.480
1292.999	739.780	79.996	19.996	100.009	20.219	2.168	0.522
1294.499	740.548	79.996	19.995	100.011	20.214	2.535	0.490
1295.999	741.333	79.995	19.995	100.003	20.217	2.294	0.547
1297.500	742.103	79.997	19.994	100.005	20.215	2.453	0.528
1298.999	742.893	79.998	19.995	100.012	20.216	2.392	0.528
1300.000	743.406	79.997	19.996	100.009	20.214	2.560	0.524