File: 01_Data/PMMA/MCC/PMMA_MCC_30K_min_210920_R2.txt
Sample ID:	C:\MCC\PMMA_MCC_30K_min_210920_R2.txt
Sample Weight (mg):	4.76
Heating Rate (C/s):	0.5
Combustor Temp (C):	900
N2 Flow Rate (cc/min):	80
O2 Flow Rate (cc/min):	20
Calibration File:	C:\MCC\MCC Cal\Coeff1 JN10440_30_210304.txt.txt
T Correction Coefficients:	0	1.024463	0
Time Shift (s):	14
*
Time (s)	Temperature (C)	N2 flow rate (cc/min)	O2 flow rate (cc/min)	Flow Rate (cc/min)	Oxygen (%)	HRR (W/g)	Heating rate (C/s)
0.000	108.968	79.994	19.994	99.959	20.325	-0.211	-0.019
2.000	108.969	79.994	19.994	99.957	20.325	-0.184	-0.004
3.999	109.012	79.995	19.994	99.960	20.325	-0.197	-0.011
5.999	108.991	79.995	19.994	99.957	20.324	-0.113	-0.010
8.000	108.966	79.995	19.994	99.959	20.327	-0.284	0.005
9.999	108.978	79.997	19.993	99.965	20.327	-0.326	-0.012
12.000	108.978	79.995	19.994	99.973	20.322	-0.014	-0.009
14.000	108.970	79.998	19.994	99.987	20.322	0.030	0.005
15.999	108.988	79.996	19.993	100.006	20.315	0.451	-0.006
17.999	109.020	79.995	19.993	100.038	20.307	0.967	0.015
19.999	109.018	79.997	19.993	100.080	20.303	1.237	0.015
22.000	109.130	79.997	19.994	100.122	20.298	1.581	0.038
23.999	109.245	79.995	19.994	100.150	20.293	1.907	0.083
25.999	109.386	79.995	19.995	100.157	20.290	2.109	0.071
28.000	109.566	79.996	19.995	100.162	20.288	2.219	0.094
29.999	109.813	79.996	19.994	100.164	20.283	2.591	0.110
32.000	110.061	79.997	19.993	100.174	20.283	2.560	0.123
33.999	110.370	79.998	19.994	100.170	20.283	2.578	0.148
36.000	110.667	79.997	19.994	100.164	20.285	2.463	0.186
38.000	110.964	79.997	19.994	100.186	20.283	2.571	0.167
39.999	111.333	79.998	19.993	100.184	20.285	2.464	0.171
41.999	111.696	79.997	19.993	100.167	20.280	2.777	0.160
44.000	112.095	79.996	19.994	100.163	20.282	2.659	0.199
46.000	112.496	79.996	19.994	100.153	20.280	2.765	0.211
47.999	112.930	79.996	19.994	100.154	20.280	2.785	0.220
49.999	113.366	79.995	19.994	100.134	20.281	2.701	0.206
52.000	113.833	79.994	19.994	100.092	20.275	3.076	0.232
53.999	114.297	79.994	19.995	100.242	20.277	2.952	0.232
55.999	114.777	79.996	19.994	100.203	20.277	2.998	0.268
57.999	115.230	79.995	19.994	100.194	20.275	3.126	0.237
60.000	115.825	79.995	19.994	100.221	20.274	3.196	0.282
61.999	116.387	79.995	19.994	100.221	20.268	3.545	0.317
63.999	116.953	79.996	19.994	100.220	20.270	3.420	0.282
65.999	117.534	79.994	19.994	100.205	20.272	3.311	0.318
67.999	118.161	79.995	19.994	100.203	20.267	3.629	0.317
69.999	118.787	79.996	19.996	100.225	20.267	3.628	0.333
71.999	119.447	79.997	19.995	100.213	20.268	3.577	0.303
73.999	120.140	79.996	19.994	100.226	20.266	3.677	0.346
76.000	120.785	79.995	19.995	100.232	20.268	3.540	0.325
77.999	121.486	79.995	19.995	100.226	20.264	3.834	0.367
79.999	122.196	79.996	19.996	100.217	20.261	3.993	0.372
81.999	122.926	79.993	19.995	100.218	20.259	4.172	0.352
83.999	123.684	79.995	19.996	100.208	20.257	4.298	0.377
85.999	124.442	79.994	19.996	100.221	20.258	4.248	0.382
87.999	125.200	79.995	19.996	100.226	20.260	4.104	0.387
89.999	125.994	79.995	19.995	100.226	20.259	4.182	0.372
91.999	126.798	79.997	19.994	100.231	20.256	4.366	0.394
93.999	127.528	79.996	19.994	100.232	20.256	4.368	0.395
95.999	128.387	79.999	19.994	100.233	20.251	4.703	0.448
97.999	129.200	79.998	19.994	100.233	20.247	4.959	0.417
99.999	130.033	79.998	19.994	100.233	20.245	5.087	0.435
101.999	130.897	79.998	19.993	100.233	20.241	5.346	0.425
103.999	131.720	79.998	19.994	100.234	20.241	5.363	0.442
106.001	132.562	79.997	19.994	100.236	20.237	5.614	0.411
107.999	133.438	79.995	19.995	100.236	20.232	5.907	0.413
109.999	134.312	79.996	19.993	100.240	20.234	5.771	0.442
112.000	135.197	79.996	19.994	100.235	20.234	5.809	0.444
113.999	136.105	79.998	19.994	100.238	20.233	5.863	0.465
115.999	137.001	79.998	19.993	100.245	20.228	6.196	0.439
117.999	137.900	79.999	19.994	100.254	20.224	6.425	0.489
120.000	138.797	79.998	19.994	100.254	20.223	6.529	0.440
121.999	139.737	79.999	19.994	100.241	20.220	6.742	0.450
123.999	140.655	80.000	19.994	100.255	20.215	7.038	0.467
125.999	141.667	79.998	19.994	100.245	20.215	7.045	0.497
128.000	142.604	79.996	19.993	100.243	20.210	7.382	0.490
129.999	143.559	79.996	19.994	100.243	20.206	7.640	0.488
131.999	144.528	79.997	19.993	100.239	20.206	7.632	0.480
133.999	145.491	79.994	19.993	100.237	20.200	8.000	0.488
135.999	146.466	79.995	19.994	100.239	20.196	8.268	0.467
137.999	147.457	79.996	19.994	100.236	20.192	8.571	0.481
139.999	148.473	79.996	19.994	100.248	20.188	8.787	0.517
141.999	149.488	79.997	19.994	100.244	20.183	9.115	0.496
143.999	150.451	79.997	19.994	100.242	20.180	9.334	0.531
145.999	151.429	79.996	19.995	100.234	20.177	9.516	0.464
147.999	152.465	79.996	19.995	100.234	20.173	9.804	0.524
149.999	153.403	79.997	19.995	100.243	20.167	10.200	0.466
151.999	154.417	79.995	19.995	100.239	20.165	10.358	0.516
153.999	155.351	79.995	19.994	100.236	20.162	10.510	0.473
155.999	156.418	79.997	19.995	100.242	20.156	10.933	0.505
157.999	157.426	79.995	19.993	100.244	20.154	11.024	0.494
159.999	158.443	79.995	19.994	100.236	20.151	11.219	0.519
161.999	159.452	79.996	19.994	100.242	20.146	11.585	0.512
163.999	160.433	79.993	19.994	100.239	20.142	11.816	0.507
165.999	161.445	79.994	19.995	100.237	20.143	11.791	0.497
167.999	162.460	79.994	19.994	100.237	20.139	12.005	0.479
169.999	163.491	79.994	19.994	100.235	20.136	12.254	0.520
171.999	164.500	79.994	19.996	100.239	20.136	12.209	0.524
173.999	165.535	79.996	19.996	100.235	20.134	12.351	0.499
175.999	166.578	79.996	19.995	100.237	20.129	12.714	0.508
177.999	167.530	79.997	19.995	100.232	20.129	12.703	0.461
179.999	168.569	79.997	19.994	100.234	20.128	12.764	0.508
181.999	169.559	79.997	19.995	100.234	20.125	12.922	0.484
183.999	170.609	79.997	19.993	100.233	20.125	12.952	0.516
185.999	171.591	79.997	19.994	100.229	20.123	13.079	0.504
187.999	172.634	79.996	19.994	100.230	20.124	13.008	0.487
189.999	173.622	79.997	19.994	100.228	20.122	13.147	0.504
191.999	174.620	79.997	19.994	100.228	20.123	13.067	0.488
193.999	175.618	79.998	19.996	100.203	20.130	12.601	0.482
195.999	176.634	79.998	19.994	100.210	20.128	12.722	0.473
198.000	177.646	79.998	19.994	100.218	20.126	12.889	0.485
199.999	178.647	79.998	19.995	100.199	20.133	12.427	0.525
202.000	179.639	79.998	19.994	100.210	20.132	12.478	0.495
203.999	180.652	79.998	19.993	100.208	20.133	12.447	0.513
205.999	181.664	79.998	19.993	100.203	20.135	12.319	0.498
207.999	182.669	79.997	19.995	100.209	20.133	12.430	0.500
209.999	183.642	79.998	19.995	100.218	20.136	12.221	0.461
211.999	184.683	79.995	19.994	100.214	20.140	11.942	0.515
213.999	185.670	79.996	19.995	100.196	20.142	11.810	0.495
215.999	186.693	79.997	19.994	100.194	20.140	11.994	0.498
217.999	187.722	79.995	19.994	100.195	20.141	11.900	0.482
219.999	188.703	79.997	19.994	100.207	20.142	11.821	0.517
221.999	189.676	79.997	19.993	100.209	20.143	11.760	0.500
223.999	190.683	79.995	19.993	100.207	20.147	11.525	0.499
225.999	191.682	79.996	19.994	100.205	20.148	11.442	0.513
227.999	192.646	79.996	19.995	100.210	20.150	11.331	0.489
229.999	193.636	79.996	19.994	100.203	20.146	11.566	0.505
231.999	194.597	79.996	19.994	100.201	20.152	11.195	0.479
234.000	195.596	79.995	19.995	100.206	20.147	11.476	0.503
235.999	196.587	79.996	19.995	100.198	20.150	11.308	0.511
237.999	197.579	79.995	19.994	100.197	20.147	11.526	0.493
239.999	198.597	79.997	19.995	100.200	20.146	11.585	0.454
241.999	199.601	79.996	19.995	100.204	20.146	11.559	0.493
243.999	200.547	79.994	19.995	100.197	20.147	11.538	0.507
245.999	201.544	79.995	19.996	100.197	20.144	11.720	0.474
247.999	202.529	79.996	19.994	100.196	20.145	11.636	0.496
249.999	203.506	79.996	19.994	100.195	20.144	11.719	0.493
251.999	204.504	79.996	19.995	100.196	20.141	11.914	0.470
253.999	205.488	79.997	19.994	100.203	20.141	11.882	0.503
255.999	206.482	79.998	19.994	100.197	20.140	11.934	0.521
257.999	207.511	79.997	19.994	100.195	20.138	12.078	0.512
259.999	208.505	79.997	19.995	100.201	20.134	12.332	0.492
261.999	209.499	79.997	19.996	100.203	20.136	12.201	0.477
263.999	210.520	79.997	19.996	100.198	20.134	12.346	0.516
265.999	211.451	79.995	19.995	100.193	20.135	12.319	0.471
267.999	212.454	79.997	19.995	100.196	20.134	12.389	0.477
269.999	213.462	79.995	19.996	100.194	20.129	12.672	0.494
271.999	214.449	79.994	19.996	100.197	20.128	12.731	0.495
273.999	215.416	79.995	19.994	100.192	20.128	12.729	0.482
276.000	216.402	79.997	19.995	100.194	20.133	12.398	0.507
278.000	217.375	79.997	19.995	100.193	20.129	12.706	0.486
279.999	218.385	79.998	19.994	100.193	20.126	12.880	0.515
281.999	219.374	79.999	19.993	100.193	20.127	12.849	0.483
283.999	220.365	79.997	19.993	100.193	20.126	12.862	0.497
285.999	221.357	79.998	19.993	100.195	20.124	13.021	0.476
287.999	222.376	79.997	19.993	100.196	20.124	13.022	0.500
290.000	223.336	79.997	19.994	100.193	20.123	13.104	0.485
292.000	224.345	79.996	19.994	100.195	20.119	13.371	0.491
294.001	225.331	79.996	19.994	100.193	20.120	13.297	0.482
295.999	226.353	79.996	19.994	100.194	20.118	13.434	0.520
298.000	227.340	79.995	19.994	100.195	20.118	13.406	0.501
300.000	228.318	79.994	19.994	100.196	20.115	13.623	0.506
302.000	229.314	79.995	19.994	100.194	20.118	13.390	0.476
304.000	230.279	79.995	19.994	100.195	20.121	13.200	0.467
306.000	231.289	79.995	19.993	100.197	20.121	13.218	0.470
307.999	232.280	79.996	19.994	100.196	20.122	13.121	0.505
310.000	233.266	79.996	19.994	100.194	20.127	12.826	0.509
311.999	234.259	79.997	19.993	100.194	20.129	12.710	0.526
313.999	235.246	79.999	19.994	100.194	20.130	12.589	0.488
316.000	236.261	79.996	19.994	100.190	20.134	12.352	0.489
317.999	237.306	79.996	19.994	100.188	20.143	11.735	0.520
319.999	238.258	79.996	19.993	100.192	20.150	11.303	0.503
321.999	239.268	79.994	19.994	100.189	20.154	11.032	0.508
323.999	240.204	79.994	19.994	100.168	20.162	10.537	0.487
325.999	241.181	79.994	19.994	100.174	20.165	10.327	0.484
327.999	242.217	79.994	19.995	100.183	20.172	9.851	0.503
330.000	243.220	79.995	19.995	100.173	20.176	9.585	0.504
331.999	244.238	79.996	19.995	100.183	20.179	9.408	0.513
333.999	245.268	79.995	19.994	100.175	20.184	9.100	0.506
335.999	246.228	79.996	19.995	100.176	20.184	9.094	0.489
337.999	247.257	79.997	19.995	100.186	20.187	8.888	0.516
339.999	248.217	79.997	19.994	100.167	20.188	8.825	0.476
341.999	249.257	79.997	19.995	100.184	20.187	8.896	0.533
344.000	250.318	79.997	19.994	100.177	20.183	9.129	0.535
345.999	251.314	79.996	19.995	100.188	20.183	9.131	0.532
347.999	252.316	79.996	19.994	100.191	20.181	9.282	0.501
349.999	253.310	79.996	19.994	100.190	20.179	9.423	0.478
351.999	254.312	79.996	19.995	100.188	20.170	9.966	0.490
353.999	255.298	79.996	19.996	100.187	20.168	10.152	0.486
355.999	256.308	79.996	19.995	100.191	20.158	10.783	0.503
358.000	257.303	79.995	19.996	100.192	20.152	11.186	0.523
359.999	258.316	79.996	19.994	100.191	20.144	11.714	0.533
361.999	259.346	79.997	19.995	100.191	20.136	12.202	0.519
363.999	260.320	79.997	19.993	100.194	20.125	12.972	0.509
365.999	261.328	79.997	19.994	100.197	20.115	13.638	0.491
367.999	262.286	79.998	19.994	100.198	20.105	14.248	0.475
369.999	263.289	79.997	19.993	100.198	20.092	15.115	0.517
371.999	264.285	79.998	19.993	100.201	20.081	15.811	0.506
374.000	265.295	79.997	19.993	100.215	20.064	16.941	0.490
376.000	266.287	79.996	19.993	100.195	20.054	17.600	0.508
378.001	267.298	79.996	19.994	100.208	20.036	18.798	0.548
379.999	268.308	79.994	19.994	100.207	20.027	19.409	0.510
381.999	269.261	79.995	19.994	100.208	20.014	20.232	0.481
383.999	270.268	79.995	19.994	100.217	20.000	21.187	0.509
386.000	271.310	79.996	19.995	100.201	19.979	22.544	0.517
388.000	272.382	79.996	19.994	100.215	19.966	23.428	0.528
390.000	273.363	79.997	19.995	100.207	19.949	24.488	0.550
391.999	274.083	79.996	19.993	100.221	19.936	25.353	0.327
394.000	275.390	79.996	19.995	100.222	19.917	26.615	0.540
395.999	276.338	79.996	19.994	100.222	19.909	27.152	0.457
397.999	277.287	79.996	19.994	100.226	19.898	27.872	0.475
400.000	278.363	79.996	19.995	100.228	19.879	29.087	0.528
401.999	279.371	79.996	19.995	100.224	19.863	30.180	0.493
403.999	280.323	79.995	19.995	100.234	19.847	31.184	0.471
405.999	281.313	79.996	19.994	100.233	19.826	32.568	0.506
408.000	282.329	79.996	19.994	100.229	19.814	33.406	0.507
409.999	283.337	79.995	19.994	100.225	19.804	34.047	0.492
411.999	284.307	79.995	19.995	100.228	19.791	34.905	0.486
413.999	285.303	79.995	19.994	100.228	19.779	35.673	0.494
415.999	286.285	79.995	19.994	100.235	19.762	36.819	0.463
417.999	287.352	79.997	19.995	100.234	19.750	37.596	0.561
419.999	288.297	79.997	19.994	100.236	19.727	39.093	0.487
421.999	289.296	79.996	19.994	100.239	19.716	39.816	0.467
423.999	290.354	79.996	19.994	100.234	19.705	40.581	0.541
425.999	291.328	79.995	19.994	100.224	19.700	40.894	0.502
427.999	292.316	79.997	19.994	100.219	19.696	41.168	0.468
430.000	293.245	79.995	19.994	100.216	19.692	41.400	0.473
432.000	294.273	79.994	19.995	100.228	19.678	42.350	0.509
434.000	295.282	79.995	19.994	100.241	19.676	42.469	0.521
436.000	296.306	79.994	19.994	100.233	19.671	42.771	0.513
437.999	297.301	79.996	19.992	100.230	19.675	42.494	0.498
439.999	298.260	79.996	19.995	100.224	19.669	42.875	0.470
441.999	299.233	79.997	19.996	100.225	19.671	42.789	0.458
443.999	300.256	79.996	19.995	100.224	19.680	42.189	0.490
446.000	301.226	79.998	19.995	100.219	19.691	41.426	0.506
447.999	302.212	79.998	19.995	100.200	19.705	40.525	0.478
449.999	303.190	79.996	19.996	100.201	19.718	39.701	0.509
451.999	304.214	79.997	19.996	100.193	19.735	38.585	0.474
453.999	305.226	79.997	19.995	100.194	19.760	36.926	0.534
456.000	306.242	79.996	19.995	100.186	19.780	35.597	0.522
457.999	307.217	79.996	19.995	100.174	19.795	34.613	0.494
459.999	308.196	79.996	19.994	100.194	19.801	34.198	0.486
461.999	309.231	79.995	19.996	100.208	19.804	34.006	0.529
463.999	310.264	79.995	19.994	100.214	19.818	33.089	0.501
465.999	311.264	79.995	19.996	100.192	19.823	32.781	0.520
467.999	312.298	79.994	19.994	100.188	19.830	32.303	0.530
470.000	313.328	79.995	19.995	100.189	19.844	31.384	0.528
471.999	314.351	79.995	19.994	100.189	19.851	30.980	0.526
473.999	315.340	79.996	19.994	100.188	19.869	29.797	0.512
476.000	316.385	79.996	19.994	100.190	19.871	29.660	0.499
478.000	317.353	79.996	19.994	100.194	19.871	29.667	0.504
479.999	318.353	79.995	19.994	100.215	19.872	29.573	0.472
481.999	319.381	79.995	19.993	100.220	19.860	30.393	0.491
484.000	320.427	79.995	19.995	100.223	19.855	30.695	0.527
485.999	321.433	79.995	19.994	100.219	19.844	31.404	0.523
488.000	322.441	79.996	19.995	100.207	19.830	32.334	0.489
489.999	323.476	79.996	19.995	100.221	19.817	33.185	0.536
491.999	324.448	79.995	19.994	100.237	19.797	34.489	0.488
494.000	325.463	79.996	19.994	100.237	19.782	35.500	0.513
495.999	326.503	79.996	19.995	100.235	19.761	36.878	0.499
497.999	327.495	79.997	19.994	100.233	19.750	37.577	0.493
499.999	328.498	79.995	19.996	100.233	19.731	38.854	0.483
501.999	329.500	79.997	19.993	100.236	19.711	40.169	0.501
503.999	330.502	79.997	19.993	100.234	19.682	42.069	0.500
505.999	331.471	79.997	19.994	100.243	19.655	43.841	0.489
507.999	332.481	79.997	19.995	100.255	19.630	45.489	0.500
509.999	333.479	79.997	19.995	100.255	19.598	47.590	0.482
511.999	334.492	79.996	19.996	100.252	19.572	49.292	0.519
513.999	335.504	79.998	19.994	100.239	19.551	50.707	0.513
516.000	336.521	79.996	19.994	100.261	19.495	54.347	0.523
518.000	337.476	79.995	19.995	100.309	19.445	57.725	0.501
520.000	338.484	79.997	19.995	100.305	19.420	59.320	0.469
521.999	339.487	79.998	19.994	100.268	19.384	61.652	0.500
523.999	340.452	79.999	19.994	100.262	19.344	64.274	0.492
525.999	341.459	79.999	19.994	100.254	19.284	68.236	0.489
527.999	342.509	79.999	19.994	100.334	19.236	71.520	0.497
530.000	343.426	79.998	19.993	100.322	19.214	72.989	0.510
532.000	344.473	79.998	19.995	100.268	19.200	73.856	0.536
533.999	345.416	79.997	19.995	100.260	19.182	74.843	0.508
535.999	346.446	79.997	19.996	100.268	19.124	78.673	0.516
537.999	347.409	79.996	19.995	100.384	19.025	85.347	0.506
540.000	348.416	79.997	19.995	100.428	18.899	93.646	0.544
541.999	349.387	79.994	19.997	100.525	18.863	95.979	0.489
544.000	350.381	79.996	19.996	100.227	18.862	95.990	0.482
545.999	351.417	79.996	19.996	100.131	18.801	100.148	0.501
547.999	352.470	79.995	19.995	100.278	18.766	102.359	0.506
549.999	353.483	79.996	19.995	100.360	18.764	102.527	0.535
551.999	354.507	79.997	19.995	100.370	18.742	103.927	0.525
553.999	355.527	79.997	19.994	100.296	18.670	108.598	0.541
555.999	356.550	79.996	19.995	100.389	18.635	111.219	0.524
557.999	357.554	79.997	19.994	100.428	18.611	112.572	0.507
560.000	358.543	79.997	19.993	100.320	18.554	116.417	0.503
562.000	359.548	79.996	19.994	100.415	18.555	116.259	0.507
563.999	360.555	79.996	19.995	100.275	18.477	121.357	0.527
565.999	361.597	79.998	19.995	100.465	18.380	127.795	0.503
567.999	362.564	79.994	19.994	100.528	18.329	131.099	0.481
569.999	363.592	79.996	19.995	100.356	18.259	135.793	0.513
571.999	364.602	79.997	19.994	100.440	18.204	139.473	0.492
574.000	365.624	79.996	19.995	100.283	18.169	141.741	0.501
576.000	366.655	79.998	19.995	100.387	18.142	143.465	0.509
578.000	367.643	79.997	19.995	100.368	18.102	146.132	0.482
579.999	368.673	79.997	19.995	100.378	18.055	149.196	0.497
581.999	369.681	79.997	19.994	100.437	18.019	151.567	0.500
583.999	370.694	79.998	19.994	100.435	17.983	153.942	0.503
585.999	371.680	79.998	19.994	100.397	17.942	156.639	0.500
587.999	372.709	79.999	19.992	100.393	17.911	158.676	0.512
589.999	373.730	79.999	19.995	100.405	17.881	160.595	0.483
591.999	374.754	79.998	19.994	100.415	17.851	162.577	0.486
593.999	375.719	79.997	19.994	100.405	17.824	164.344	0.473
596.000	376.771	79.998	19.995	100.400	17.808	165.390	0.534
597.999	377.765	79.997	19.995	100.393	17.791	166.540	0.502
600.000	378.726	79.997	19.995	100.388	17.776	167.459	0.501
601.999	379.762	79.997	19.995	100.385	17.773	167.656	0.511
603.999	380.758	79.997	19.996	100.383	17.765	168.221	0.500
605.999	381.763	79.997	19.994	100.382	17.775	167.514	0.497
608.000	382.744	79.998	19.993	100.371	17.786	166.750	0.499
610.000	383.764	79.997	19.995	100.364	17.803	165.629	0.494
611.999	384.780	79.997	19.995	100.349	17.824	164.252	0.486
613.999	385.759	79.998	19.995	100.350	17.855	162.200	0.502
615.999	386.764	79.997	19.995	100.339	17.886	160.197	0.499
617.999	387.785	79.994	19.994	100.331	17.924	157.629	0.512
619.999	388.797	79.996	19.995	100.316	17.972	154.475	0.523
622.000	389.786	79.993	19.995	100.311	18.012	151.785	0.505
624.000	390.788	79.994	19.995	100.307	18.070	147.996	0.508
625.999	391.828	79.994	19.995	100.308	18.122	144.558	0.507
627.999	392.839	79.995	19.995	100.299	18.183	140.551	0.508
629.999	393.861	79.995	19.996	100.274	18.247	136.324	0.514
631.999	394.835	79.994	19.995	100.269	18.316	131.769	0.461
633.999	395.880	79.996	19.996	100.249	18.386	127.155	0.516
635.999	396.877	79.996	19.997	100.250	18.460	122.309	0.504
637.999	397.890	79.995	19.996	100.234	18.541	116.931	0.493
639.999	398.905	79.996	19.996	100.230	18.623	111.562	0.512
641.999	399.916	79.995	19.995	100.220	18.707	106.058	0.490
644.000	400.939	79.995	19.994	100.199	18.781	101.176	0.505
645.999	401.927	79.997	19.995	100.199	18.860	96.023	0.482
647.999	402.971	79.996	19.995	100.182	18.947	90.309	0.498
649.999	403.944	79.996	19.993	100.165	19.027	85.052	0.503
652.000	404.959	79.995	19.995	100.174	19.111	79.524	0.470
654.000	406.002	79.996	19.994	100.163	19.180	74.946	0.498
656.000	407.001	79.996	19.995	100.165	19.258	69.854	0.484
658.000	408.006	79.997	19.993	100.157	19.333	64.909	0.510
659.999	409.031	79.996	19.994	100.153	19.405	60.221	0.488
661.999	410.055	79.998	19.995	100.152	19.476	55.555	0.510
663.999	411.037	79.997	19.995	100.151	19.539	51.405	0.482
665.999	412.106	79.998	19.994	100.153	19.607	46.962	0.529
668.000	413.081	79.996	19.994	100.154	19.662	43.313	0.490
670.000	414.054	79.998	19.995	100.153	19.716	39.822	0.492
671.999	415.045	79.998	19.994	100.141	19.771	36.196	0.502
673.999	416.020	79.997	19.993	100.144	19.817	33.154	0.489
675.999	417.077	79.997	19.995	100.134	19.860	30.340	0.514
678.000	418.106	79.999	19.994	100.149	19.900	27.686	0.519
680.000	419.118	79.998	19.994	100.147	19.934	25.459	0.503
682.000	420.073	79.997	19.996	100.142	19.966	23.399	0.488
684.000	421.128	79.998	19.994	100.151	19.997	21.335	0.530
685.999	422.078	79.998	19.994	100.149	20.024	19.591	0.481
688.000	423.105	80.000	19.996	100.150	20.053	17.675	0.521
690.000	424.092	79.999	19.995	100.152	20.076	16.169	0.492
691.999	425.110	79.999	19.993	100.142	20.093	15.027	0.516
693.999	426.098	79.997	19.994	100.140	20.115	13.608	0.506
696.000	427.082	79.997	19.993	100.134	20.132	12.455	0.487
698.000	428.103	79.997	19.994	100.145	20.144	11.678	0.523
699.999	429.053	79.995	19.994	100.152	20.156	10.884	0.484
701.999	430.046	79.996	19.995	100.142	20.174	9.746	0.470
703.999	431.036	79.996	19.995	100.132	20.183	9.146	0.495
706.000	432.039	79.996	19.994	100.145	20.198	8.178	0.508
708.000	433.042	79.998	19.995	100.145	20.212	7.260	0.496
709.999	434.043	79.997	19.994	100.145	20.219	6.785	0.498
711.999	435.085	79.998	19.996	100.146	20.222	6.580	0.520
713.999	436.026	79.997	19.995	100.139	20.225	6.367	0.488
715.999	437.053	79.997	19.996	100.135	20.230	6.034	0.505
717.999	438.062	79.997	19.994	100.146	20.239	5.457	0.518
719.999	439.027	79.995	19.995	100.143	20.240	5.421	0.493
722.000	440.069	79.997	19.996	100.133	20.249	4.798	0.522
723.999	441.023	79.995	19.997	100.149	20.252	4.620	0.481
725.999	442.041	79.996	19.995	100.148	20.258	4.185	0.512
727.999	442.988	79.996	19.996	100.140	20.263	3.886	0.452
729.999	444.051	79.996	19.995	100.144	20.271	3.333	0.505
732.000	445.065	79.995	19.995	100.134	20.267	3.648	0.510
733.999	446.104	79.995	19.995	100.143	20.274	3.170	0.512
736.000	447.088	79.996	19.994	100.153	20.274	3.194	0.520
737.999	448.119	79.994	19.994	100.154	20.273	3.240	0.508
740.000	449.153	79.996	19.994	100.148	20.275	3.107	0.515
741.999	450.186	79.997	19.995	100.147	20.280	2.780	0.507
743.999	451.225	79.997	19.994	100.153	20.277	2.936	0.530
746.000	452.239	79.998	19.994	100.154	20.279	2.818	0.507
748.000	453.266	79.997	19.994	100.147	20.283	2.587	0.490
749.999	454.302	79.999	19.995	100.147	20.281	2.710	0.526
751.999	455.353	79.997	19.994	100.143	20.281	2.689	0.529
754.000	456.380	79.996	19.994	100.153	20.278	2.877	0.533
756.000	457.417	79.997	19.995	100.151	20.285	2.452	0.495
757.999	458.460	79.997	19.994	100.154	20.284	2.538	0.534
759.999	459.468	79.997	19.994	100.143	20.281	2.703	0.530
761.999	460.555	79.999	19.994	100.140	20.282	2.605	0.528
764.000	461.560	79.998	19.994	100.153	20.281	2.692	0.525
765.999	462.582	79.999	19.994	100.147	20.284	2.488	0.507
768.000	463.607	80.000	19.994	100.147	20.285	2.465	0.519
769.999	464.605	79.999	19.994	100.150	20.286	2.402	0.512
771.999	465.621	80.000	19.994	100.151	20.283	2.599	0.516
774.000	466.668	80.000	19.993	100.136	20.287	2.281	0.527
775.999	467.691	79.999	19.994	100.133	20.286	2.374	0.522
778.000	468.721	79.999	19.993	100.150	20.283	2.563	0.508
779.999	469.743	79.999	19.994	100.150	20.280	2.773	0.516
782.000	470.778	79.997	19.995	100.145	20.286	2.390	0.519
784.000	471.788	79.997	19.996	100.150	20.285	2.463	0.511
786.000	472.808	79.996	19.994	100.150	20.284	2.522	0.511
787.999	473.846	79.996	19.995	100.147	20.281	2.701	0.543
789.999	474.896	79.997	19.996	100.152	20.283	2.554	0.555
792.000	475.865	79.997	19.996	100.147	20.279	2.825	0.481
793.999	476.889	79.996	19.994	100.146	20.277	2.960	0.513
796.000	477.889	79.997	19.995	100.152	20.284	2.499	0.480
797.999	478.946	79.997	19.995	100.150	20.281	2.671	0.531
799.999	480.000	79.999	19.996	100.151	20.288	2.248	0.520
801.999	480.980	79.998	19.995	100.150	20.283	2.554	0.477
803.999	481.994	79.996	19.995	100.145	20.285	2.420	0.504
806.000	483.016	79.996	19.994	100.147	20.287	2.325	0.498
807.999	484.036	79.994	19.994	100.146	20.284	2.485	0.524
810.000	485.065	79.997	19.996	100.152	20.280	2.737	0.498
811.999	486.089	79.996	19.996	100.145	20.284	2.508	0.512
813.999	487.146	79.994	19.996	100.140	20.285	2.427	0.528
815.999	488.167	79.994	19.995	100.151	20.282	2.651	0.514
817.999	489.231	79.995	19.996	100.148	20.289	2.179	0.550
819.999	490.259	79.994	19.996	100.154	20.282	2.619	0.513
822.000	491.275	79.996	19.995	100.154	20.274	3.141	0.481
823.999	492.298	79.996	19.996	100.148	20.285	2.470	0.523
825.999	493.309	79.996	19.995	100.145	20.285	2.454	0.496
827.999	494.364	79.999	19.994	100.151	20.281	2.719	0.489
829.999	495.423	79.997	19.994	100.147	20.283	2.542	0.504
831.999	496.504	80.000	19.995	100.140	20.285	2.465	0.540
834.000	497.520	79.997	19.993	100.151	20.285	2.449	0.507
835.999	498.545	79.997	19.993	100.148	20.288	2.230	0.508
837.999	499.620	79.995	19.994	100.143	20.281	2.683	0.533
839.999	500.648	79.998	19.995	100.145	20.285	2.436	0.498
841.999	501.665	79.996	19.993	100.151	20.293	1.946	0.518
843.999	502.722	79.996	19.994	100.144	20.289	2.204	0.534
845.999	503.724	79.997	19.995	100.149	20.288	2.227	0.523
848.000	504.742	79.998	19.995	100.151	20.287	2.281	0.522
849.999	505.785	80.001	19.996	100.152	20.286	2.359	0.513
851.999	506.767	79.997	19.995	100.150	20.289	2.171	0.530
853.999	507.815	79.998	19.995	100.150	20.289	2.166	0.506
855.999	508.853	80.000	19.995	100.150	20.292	1.983	0.539
857.999	509.892	80.000	19.994	100.150	20.288	2.259	0.514
859.999	510.906	79.997	19.993	100.151	20.289	2.191	0.494
862.000	511.919	79.998	19.995	100.150	20.286	2.388	0.513
864.000	512.944	79.996	19.994	100.151	20.290	2.121	0.505
865.999	513.980	79.997	19.993	100.154	20.286	2.359	0.509
867.999	515.047	79.996	19.996	100.155	20.280	2.748	0.547
869.999	516.069	79.995	19.995	100.150	20.285	2.422	0.509
871.999	517.079	79.995	19.994	100.145	20.287	2.322	0.529
873.999	518.108	79.995	19.995	100.143	20.283	2.578	0.524
875.999	519.130	79.993	19.993	100.151	20.282	2.628	0.512
878.000	520.161	79.995	19.995	100.151	20.286	2.354	0.525
880.000	521.170	79.995	19.996	100.155	20.283	2.560	0.493
881.999	522.183	79.995	19.995	100.155	20.285	2.449	0.499
883.999	523.194	79.997	19.994	100.149	20.285	2.442	0.509
885.999	524.264	79.996	19.995	100.148	20.286	2.383	0.554
887.999	525.288	79.992	19.994	100.155	20.284	2.492	0.503
889.999	526.338	79.996	19.994	100.156	20.287	2.286	0.502
891.999	527.370	79.996	19.994	100.153	20.289	2.168	0.507
893.999	528.392	79.994	19.995	100.150	20.283	2.545	0.528
895.999	529.410	79.996	19.995	100.153	20.283	2.554	0.505
897.999	530.445	79.994	19.994	100.151	20.285	2.449	0.523
899.999	531.464	79.996	19.995	100.154	20.279	2.835	0.512
901.999	532.480	79.996	19.996	100.155	20.282	2.613	0.528
903.999	533.539	79.996	19.995	100.148	20.282	2.615	0.530
905.999	534.572	79.996	19.995	100.134	20.285	2.408	0.515
907.999	535.603	79.998	19.995	100.144	20.284	2.520	0.487
909.999	536.645	79.997	19.995	100.149	20.283	2.572	0.498
911.999	537.672	79.998	19.995	100.150	20.283	2.551	0.534
913.999	538.702	79.997	19.995	100.149	20.281	2.714	0.493
915.999	539.762	79.999	19.996	100.152	20.283	2.572	0.521
917.999	540.768	79.998	19.995	100.151	20.283	2.553	0.483
920.000	541.767	79.997	19.994	100.154	20.280	2.775	0.492
922.000	542.814	79.997	19.994	100.152	20.276	3.026	0.506
924.000	543.824	79.997	19.993	100.153	20.284	2.474	0.529
925.999	544.853	79.997	19.994	100.158	20.280	2.762	0.515
928.000	545.883	79.996	19.993	100.158	20.278	2.905	0.538
929.999	546.883	79.998	19.994	100.167	20.282	2.664	0.521
932.000	547.928	79.997	19.995	100.161	20.284	2.521	0.507
933.999	548.911	79.997	19.994	100.168	20.284	2.531	0.492
936.000	549.966	79.999	19.994	100.156	20.279	2.809	0.513
937.999	551.015	79.998	19.993	100.156	20.281	2.696	0.523
939.999	552.000	79.999	19.995	100.163	20.279	2.840	0.514
941.999	553.030	79.999	19.995	100.171	20.276	3.043	0.514
944.000	554.028	79.998	19.995	100.157	20.277	2.938	0.520
946.000	555.078	79.996	19.994	100.158	20.281	2.689	0.510
947.999	556.115	79.998	19.994	100.176	20.284	2.528	0.474
949.999	557.110	79.995	19.994	100.163	20.281	2.694	0.493
951.999	558.164	79.995	19.993	100.165	20.274	3.142	0.514
953.999	559.134	79.996	19.994	100.161	20.279	2.845	0.494
955.999	560.164	79.998	19.995	100.172	20.282	2.662	0.499
958.000	561.212	79.997	19.995	100.178	20.283	2.549	0.513
959.999	562.245	79.996	19.994	100.162	20.278	2.877	0.500
961.999	563.223	79.998	19.994	100.164	20.279	2.811	0.514
964.000	564.222	79.996	19.994	100.160	20.276	3.011	0.483
965.999	565.241	79.997	19.995	100.159	20.281	2.734	0.516
967.999	566.229	79.996	19.993	100.156	20.281	2.734	0.514
969.999	567.273	79.996	19.994	100.159	20.276	3.060	0.522
971.999	568.270	79.995	19.996	100.167	20.283	2.574	0.508
973.999	569.303	79.997	19.995	100.156	20.280	2.791	0.518
975.999	570.334	79.995	19.995	100.163	20.277	2.985	0.537
978.000	571.317	79.994	19.995	100.164	20.278	2.882	0.518
980.000	572.367	79.996	19.995	100.164	20.280	2.797	0.546
981.999	573.339	79.996	19.995	100.159	20.275	3.130	0.489
983.999	574.413	79.996	19.994	100.166	20.279	2.864	0.519
985.999	575.446	79.996	19.995	100.180	20.279	2.829	0.533
988.000	576.486	79.997	19.995	100.162	20.275	3.123	0.530
989.999	577.477	79.999	19.995	100.168	20.276	3.037	0.507
992.000	578.479	79.999	19.995	100.179	20.274	3.167	0.504
993.999	579.473	80.000	19.995	100.174	20.278	2.923	0.516
995.999	580.496	79.996	19.995	100.163	20.277	2.940	0.507
997.999	581.530	79.995	19.995	100.177	20.275	3.106	0.522
999.999	582.493	79.997	19.995	100.181	20.275	3.111	0.481
1001.999	583.511	79.996	19.996	100.178	20.277	2.969	0.513
1003.999	584.531	79.996	19.994	100.160	20.275	3.084	0.511
1005.999	585.556	79.995	19.996	100.165	20.277	2.983	0.493
1008.000	586.573	79.996	19.994	100.177	20.277	2.956	0.514
1009.999	587.575	79.998	19.994	100.161	20.274	3.184	0.499
1011.999	588.566	79.996	19.993	100.161	20.276	3.055	0.513
1013.999	589.560	79.998	19.993	100.185	20.278	2.901	0.472
1015.999	590.640	80.000	19.993	100.187	20.275	3.098	0.522
1017.999	591.599	79.999	19.993	100.184	20.274	3.136	0.479
1019.999	592.655	79.998	19.994	100.185	20.279	2.850	0.514
1021.999	593.656	79.998	19.994	100.191	20.276	3.026	0.513
1024.000	594.703	79.999	19.994	100.185	20.275	3.123	0.512
1025.999	595.695	79.997	19.994	100.179	20.274	3.168	0.508
1027.999	596.757	79.998	19.994	100.187	20.273	3.254	0.496
1029.999	597.785	79.997	19.994	100.178	20.278	2.928	0.519
1031.999	598.817	79.996	19.994	100.177	20.274	3.179	0.531
1034.000	599.812	79.998	19.996	100.187	20.274	3.163	0.504
1036.000	600.828	79.998	19.994	100.191	20.275	3.105	0.488
1037.999	601.874	79.997	19.995	100.192	20.276	3.064	0.535
1039.999	602.883	79.998	19.996	100.191	20.273	3.225	0.508
1042.000	603.900	79.998	19.995	100.192	20.275	3.073	0.503
1043.999	604.943	79.998	19.993	100.191	20.273	3.197	0.521
1045.999	605.957	79.998	19.994	100.186	20.274	3.159	0.512
1047.999	606.974	79.999	19.995	100.188	20.275	3.111	0.499
1049.999	607.974	79.997	19.994	100.189	20.275	3.105	0.484
1051.999	609.046	79.998	19.995	100.192	20.274	3.181	0.505
1053.999	610.057	79.997	19.992	100.189	20.273	3.249	0.488
1055.999	611.056	79.996	19.994	100.196	20.274	3.168	0.499
1057.999	612.062	79.996	19.996	100.193	20.276	3.037	0.514
1059.999	613.085	79.996	19.995	100.191	20.271	3.383	0.511
1061.999	614.128	79.997	19.994	100.194	20.275	3.086	0.515
1063.999	615.158	79.996	19.994	100.195	20.273	3.231	0.535
1065.999	616.176	79.997	19.993	100.194	20.269	3.508	0.500
1067.999	617.145	79.998	19.994	100.195	20.269	3.494	0.488
1069.999	618.184	79.998	19.994	100.195	20.270	3.404	0.503
1071.999	619.183	79.999	19.995	100.193	20.269	3.510	0.530
1073.999	620.204	79.997	19.993	100.194	20.271	3.370	0.503
1075.999	621.193	79.997	19.994	100.195	20.271	3.383	0.495
1077.999	622.214	79.998	19.994	100.197	20.269	3.519	0.493
1079.999	623.179	79.997	19.994	100.196	20.267	3.605	0.470
1081.999	624.234	79.998	19.995	100.193	20.269	3.478	0.513
1083.999	625.256	79.994	19.993	100.195	20.272	3.293	0.506
1085.999	626.260	79.997	19.995	100.195	20.264	3.813	0.507
1087.999	627.279	79.998	19.996	100.197	20.272	3.324	0.511
1089.999	628.266	79.999	19.996	100.194	20.272	3.282	0.483
1091.999	629.293	79.997	19.995	100.189	20.270	3.402	0.500
1093.999	630.303	79.998	19.995	100.193	20.270	3.410	0.482
1095.999	631.314	79.998	19.994	100.192	20.273	3.200	0.479
1097.999	632.352	79.999	19.995	100.191	20.274	3.195	0.517
1099.999	633.338	79.999	19.995	100.190	20.272	3.313	0.511
1102.000	634.340	80.000	19.996	100.190	20.270	3.406	0.499
1103.999	635.361	79.998	19.993	100.189	20.269	3.463	0.483
1105.999	636.400	79.997	19.994	100.194	20.271	3.378	0.512
1107.999	637.383	79.997	19.994	100.193	20.272	3.319	0.485
1109.999	638.395	79.997	19.994	100.194	20.272	3.296	0.485
1112.001	639.417	79.997	19.994	100.192	20.269	3.492	0.494
1114.000	640.439	79.996	19.994	100.192	20.269	3.473	0.479
1116.000	641.416	79.997	19.994	100.199	20.267	3.625	0.500
1117.999	642.472	79.998	19.995	100.211	20.266	3.666	0.503
1119.999	643.515	79.997	19.994	100.209	20.269	3.474	0.494
1121.999	644.521	79.996	19.995	100.203	20.268	3.553	0.490
1123.999	645.557	79.997	19.995	100.202	20.264	3.788	0.552
1126.000	646.545	79.998	19.993	100.198	20.270	3.409	0.514
1128.000	647.565	79.997	19.993	100.197	20.268	3.541	0.517
1129.999	648.565	79.998	19.995	100.202	20.267	3.616	0.488
1132.000	649.575	79.996	19.995	100.196	20.269	3.511	0.509
1133.999	650.631	79.998	19.993	100.198	20.267	3.621	0.526
1135.999	651.627	79.997	19.994	100.209	20.267	3.602	0.509
1137.999	652.633	79.996	19.995	100.211	20.265	3.731	0.524
1139.999	653.668	79.995	19.994	100.196	20.267	3.619	0.536
1141.999	654.690	79.996	19.993	100.205	20.266	3.688	0.522
1143.999	655.699	79.996	19.994	100.200	20.272	3.310	0.551
1145.999	656.730	79.997	19.994	100.209	20.269	3.502	0.512
1147.999	657.720	79.996	19.994	100.204	20.263	3.862	0.505
1150.000	658.754	79.997	19.995	100.199	20.268	3.580	0.522
1151.999	659.784	79.997	19.995	100.203	20.267	3.645	0.522
1153.999	660.779	79.998	19.995	100.218	20.272	3.285	0.521
1156.000	661.779	79.998	19.995	100.200	20.268	3.575	0.493
1157.999	662.853	80.000	19.994	100.214	20.265	3.781	0.533
1159.999	663.846	79.998	19.994	100.196	20.267	3.645	0.524
1161.999	664.838	79.998	19.994	100.197	20.266	3.718	0.497
1163.999	665.840	79.998	19.994	100.209	20.266	3.672	0.506
1165.999	666.917	79.998	19.995	100.194	20.261	4.046	0.548
1167.999	667.889	79.997	19.994	100.199	20.263	3.856	0.499
1170.000	668.958	79.998	19.995	100.201	20.267	3.622	0.504
1172.000	669.964	79.999	19.995	100.202	20.267	3.598	0.526
1174.000	670.985	79.997	19.995	100.215	20.267	3.615	0.516
1176.000	672.033	79.998	19.996	100.201	20.268	3.587	0.536
1177.999	673.039	79.999	19.995	100.208	20.266	3.672	0.507
1179.999	674.074	79.999	19.995	100.209	20.266	3.658	0.491
1181.999	675.114	79.999	19.995	100.206	20.271	3.352	0.531
1183.999	676.148	79.998	19.996	100.221	20.268	3.566	0.535
1185.999	677.168	79.998	19.997	100.210	20.265	3.744	0.500
1187.999	678.191	79.996	19.997	100.203	20.266	3.699	0.524
1190.000	679.232	79.995	19.995	100.219	20.266	3.688	0.502
1192.000	680.226	79.996	19.995	100.218	20.269	3.461	0.484
1193.999	681.227	79.997	19.994	100.214	20.268	3.558	0.506
1195.999	682.263	79.997	19.994	100.215	20.265	3.752	0.520
1197.999	683.273	79.996	19.994	100.226	20.269	3.509	0.487
1200.000	684.264	79.998	19.995	100.229	20.269	3.511	0.491
1201.999	685.270	79.997	19.994	100.214	20.267	3.608	0.527
1203.999	686.299	79.996	19.993	100.221	20.267	3.625	0.515
1205.999	687.306	79.998	19.994	100.208	20.263	3.858	0.498
1207.999	688.276	79.996	19.994	100.211	20.265	3.749	0.541
1209.999	689.306	79.996	19.993	100.206	20.265	3.729	0.516
1212.000	690.333	79.997	19.995	100.222	20.262	3.968	0.501
1213.999	691.336	79.997	19.992	100.214	20.265	3.741	0.505
1215.999	692.331	79.995	19.994	100.212	20.265	3.762	0.515
1217.999	693.307	79.994	19.994	100.218	20.266	3.711	0.482
1220.000	694.322	79.996	19.995	100.220	20.266	3.707	0.496
1221.999	695.369	79.996	19.995	100.215	20.264	3.837	0.510
1223.999	696.356	79.997	19.995	100.204	20.269	3.515	0.517
1226.000	697.375	79.997	19.994	100.214	20.262	3.943	0.516
1227.999	698.407	79.996	19.994	100.215	20.259	4.154	0.500
1230.000	699.401	79.997	19.995	100.208	20.261	3.996	0.490
1231.999	700.438	79.998	19.994	100.207	20.262	3.957	0.489
1233.999	701.433	79.999	19.993	100.219	20.262	3.947	0.503
1236.000	702.443	79.999	19.995	100.222	20.260	4.097	0.517
1237.999	703.432	79.998	19.995	100.211	20.260	4.052	0.491
1240.000	704.465	79.999	19.995	100.216	20.259	4.176	0.504
1242.000	705.470	79.999	19.995	100.217	20.261	4.006	0.504
1243.999	706.474	79.998	19.995	100.226	20.261	4.041	0.500
1246.000	707.488	79.997	19.995	100.230	20.260	4.085	0.498
1247.999	708.472	79.996	19.995	100.224	20.263	3.876	0.482
1250.000	709.538	79.996	19.994	100.223	20.259	4.132	0.534
1251.999	710.508	79.996	19.994	100.226	20.257	4.252	0.512
1254.000	711.550	79.998	19.995	100.229	20.257	4.256	0.517
1255.999	712.558	79.997	19.995	100.208	20.258	4.188	0.525
1258.001	713.558	79.999	19.994	100.202	20.262	3.939	0.503
1259.999	714.579	79.998	19.994	100.207	20.261	4.045	0.526
1261.999	715.657	79.999	19.994	100.204	20.261	3.986	0.535
1263.999	716.648	79.997	19.995	100.216	20.258	4.190	0.496
1265.999	717.667	79.998	19.995	100.223	20.261	4.039	0.501
1268.000	718.735	79.996	19.995	100.228	20.261	4.015	0.549
1270.000	719.697	79.996	19.996	100.227	20.259	4.167	0.495
1271.999	720.731	79.997	19.995	100.220	20.261	4.000	0.501
1273.999	721.768	79.995	19.994	100.222	20.263	3.862	0.491
1275.999	722.817	79.995	19.996	100.215	20.262	3.969	0.535
1277.999	723.805	79.996	19.995	100.220	20.262	3.931	0.485
1280.001	724.856	79.995	19.995	100.228	20.262	3.922	0.524
1281.999	725.879	79.997	19.997	100.231	20.262	3.950	0.516
1284.000	726.873	79.996	19.995	100.225	20.264	3.837	0.508
1285.999	727.909	79.998	19.994	100.211	20.263	3.870	0.522
1287.999	728.942	79.997	19.995	100.225	20.263	3.916	0.486
1290.000	729.968	79.997	19.994	100.232	20.263	3.862	0.504
1291.999	731.012	79.997	19.994	100.233	20.261	4.034	0.544
1294.000	732.034	79.997	19.993	100.231	20.263	3.897	0.528
1295.999	733.031	79.997	19.994	100.231	20.265	3.728	0.492
1297.999	734.050	79.997	19.995	100.232	20.264	3.836	0.499
1299.999	735.125	79.996	19.994	100.230	20.265	3.762	0.545
1301.999	736.118	79.996	19.995	100.227	20.265	3.733	0.516
1303.999	737.121	79.997	19.995	100.231	20.263	3.889	0.496
1305.999	738.139	79.996	19.994	100.232	20.263	3.869	0.483
1307.999	739.165	79.997	19.994	100.229	20.262	3.936	0.512
1309.999	740.178	79.997	19.994	100.230	20.261	4.051	0.502
1311.999	741.161	79.998	19.995	100.228	20.257	4.259	0.509
1313.999	742.164	79.998	19.995	100.232	20.259	4.155	0.505
1316.000	743.189	79.998	19.994	100.231	20.263	3.911	0.495
1316.999	743.671	79.999	19.994	100.226	20.262	3.968	0.494