File: 01_Data/LDPE/STA/N2/10K_min/LDPE_STA_N2_10KData_210903_R1.csv
##Temp./Â°C,Time/min,Mass(subtr.2)/%,DSC(subtr.2)/(mW/mg),Sensit./(uV/mW)
49.785,10.01,101.833,0.02043446,1.03584
50.285,11.38642,101.91,0.05297366,1.03582
50.785,11.72898,102.047,0.08031941,1.0358
51.285,11.9715,102.041,0.09990017,1.03577
51.785,12.17272,101.954,0.12043,1.03574
52.285,12.34564,102.017,0.13507,1.03571
52.785,12.5,102.08,0.1498,1.03569
53.285,12.64516,102.115,0.16267,1.03565
53.785,12.78089,102.141,0.17303,1.03562
54.285,12.90891,102.108,0.1861,1.03559
54.785,13.02946,102.1586,0.19696,1.03556
55.285,13.14516,102.2035,0.2057,1.03552
55.785,13.2575,102.1747,0.21475,1.03549
56.285,13.3652,102.212,0.22391,1.03545
56.785,13.4704,102.171,0.23101,1.03541
57.285,13.57262,102.227,0.23769,1.03537
57.785,13.6716,102.226,0.2412,1.03533
58.285,13.7683,102.222,0.25376,1.03529
58.785,13.86346,102.2701,0.25708,1.03525
59.285,13.95672,102.274,0.26322,1.03521
59.785,14.04855,102.232,0.2666,1.03516
60.285,14.13815,102.228,0.27298,1.03512
60.785,14.22511,102.234,0.27626,1.03507
61.285,14.31136,102.26,0.27896,1.03502
61.785,14.39611,102.249,0.28462,1.03497
62.285,14.48047,102.291,0.28784,1.03492
62.785,14.5629,102.243,0.29333,1.03487
63.285,14.64391,102.256,0.29268,1.03482
63.785,14.7235,102.264,0.29926,1.03477
64.285,14.8022,102.328,0.30257,1.03471
64.785,14.88,102.307,0.30979,1.03466
65.285,14.95698,102.353,0.31149,1.0346
65.785,15.03309,102.295,0.31571,1.03455
66.285,15.10821,102.349,0.31988,1.03449
66.785,15.18239,102.314,0.32238,1.03443
67.285,15.25581,102.286,0.32756,1.03437
67.785,15.32833,102.288,0.32979,1.03431
68.285,15.4001,102.327,0.33488,1.03425
68.785,15.47136,102.371,0.3368,1.03418
69.285,15.54216,102.327,0.3426,1.03412
69.785,15.61232,102.371,0.34728,1.03405
70.285,15.68175,102.34,0.34851,1.03399
70.785,15.7501,102.374,0.35568,1.03392
71.285,15.818,102.374,0.35995,1.03385
71.785,15.88534,102.373,0.36349,1.03378
72.285,15.95212,102.391,0.36831,1.03371
72.785,16.01817,102.408,0.37379,1.03364
73.285,16.08385,102.414,0.3786,1.03356
73.785,16.14936,102.414,0.38399,1.03349
74.285,16.21461,102.457,0.38765,1.03341
74.785,16.27936,102.496,0.39615,1.03334
75.285,16.34355,102.442,0.39685,1.03326
75.785,16.40683,102.446,0.40469,1.03318
76.285,16.46978,102.491,0.41,1.0331
76.785,16.53258,102.491,0.41386,1.03302
77.285,16.5949,102.488,0.41565,1.03294
77.785,16.65762,102.488,0.42323,1.03286
78.285,16.71934,102.488,0.42735,1.03278
78.785,16.7808,102.495,0.43224,1.03269
79.285,16.8419,102.505,0.43783,1.03261
79.785,16.90263,102.525,0.44311,1.03252
80.285,16.96281,102.565,0.4485,1.03244
80.785,17.02179,102.525,0.45478,1.03235
81.285,17.08071,102.524,0.45803,1.03226
81.785,17.14009,102.525,0.46516,1.03217
82.285,17.19983,102.5246,0.46994,1.03208
82.785,17.26002,102.545,0.47536,1.03198
83.285,17.3189,102.552,0.48369,1.03189
83.785,17.3771,102.525,0.48911,1.0318
84.285,17.43534,102.5335,0.49408,1.0317
84.785,17.49322,102.564,0.49996,1.0316
85.285,17.55059,102.565,0.50677,1.03151
85.785,17.60794,102.6,0.51138,1.03141
86.285,17.66491,102.565,0.51724,1.03131
86.785,17.7218,102.602,0.52514,1.03121
87.285,17.77843,102.604,0.5342,1.03111
87.785,17.83485,102.573,0.54106,1.031
88.285,17.89095,102.603,0.54817,1.0309
88.785,17.94676,102.605,0.55744,1.0308
89.285,18.00228,102.605,0.5633,1.03069
89.785,18.0577,102.63,0.57315,1.03059
90.285,18.11281,102.6,0.58063,1.03048
90.785,18.16755,102.605,0.58876,1.03037
91.285,18.22249,102.647,0.59477,1.03026
91.785,18.27696,102.603,0.60557,1.03015
92.285,18.33145,102.603,0.61495,1.03004
92.785,18.38549,102.6077,0.62431,1.02993
93.285,18.43958,102.616,0.63403,1.02981
93.785,18.49346,102.6336,0.64575,1.0297
94.285,18.5473,102.6451,0.6531,1.02958
94.785,18.60116,102.646,0.66712,1.02947
95.285,18.65449,102.6466,0.68077,1.02935
95.785,18.70784,102.687,0.69372,1.02923
96.285,18.76091,102.685,0.70585,1.02911
96.785,18.8138,102.645,0.72258,1.02899
97.285,18.86668,102.645,0.73495,1.02887
97.785,18.91947,102.644,0.74992,1.02875
98.285,18.972,102.645,0.76626,1.02862
98.785,19.0246,102.684,0.78709,1.0285
99.285,19.07685,102.645,0.80635,1.02838
99.785,19.12929,102.687,0.82881,1.02825
100.285,19.1818,102.644,0.85389,1.02812
100.785,19.2338,102.688,0.87633,1.02799
101.285,19.286,102.685,0.89514,1.02787
101.785,19.3379,102.727,0.92675,1.02774
102.285,19.38959,102.685,0.95141,1.0276
102.785,19.4412,102.685,0.97993,1.02747
103.285,19.49258,102.6854,1.00747,1.02734
103.785,19.54393,102.681,1.0382,1.02721
104.285,19.59515,102.718,1.07079,1.02707
104.785,19.64659,102.715,1.10147,1.02693
105.285,19.69816,102.724,1.13674,1.0268
105.785,19.7493,102.766,1.17112,1.02666
106.285,19.80047,102.7366,1.20653,1.02652
106.785,19.8516,102.741,1.24742,1.02638
107.285,19.90182,102.767,1.28391,1.02624
107.785,19.95287,102.806,1.32077,1.0261
108.285,20.00386,102.803,1.36069,1.02596
108.785,20.05475,102.806,1.39817,1.02581
109.285,20.10604,102.809,1.4435,1.02567
109.785,20.15709,102.766,1.47925,1.02553
110.285,20.2077,102.829,1.508,1.02538
110.785,20.2581,102.846,1.51169,1.02523
111.285,20.3086,102.846,1.49115,1.02508
111.785,20.35877,102.8081,1.41064,1.02493
112.285,20.40871,102.846,1.2724,1.02479
112.785,20.4584,102.846,1.09588,1.02463
113.285,20.508,102.8451,0.93753,1.02448
113.785,20.55746,102.806,0.8114,1.02433
114.285,20.60642,102.809,0.71693,1.02418
114.785,20.6557,102.846,0.64883,1.02402
115.285,20.70474,102.856,0.59293,1.02387
115.785,20.7536,102.816,0.55312,1.02371
116.285,20.80272,102.815,0.52346,1.02355
116.785,20.85154,102.822,0.50007,1.02339
117.285,20.90044,102.836,0.48451,1.02323
117.785,20.9493,102.836,0.47354,1.02307
118.285,20.998,102.817,0.46409,1.02291
118.785,21.04638,102.845,0.45658,1.02275
119.285,21.0948,102.846,0.45346,1.02259
119.785,21.14344,102.844,0.44793,1.02242
120.285,21.19211,102.897,0.44208,1.02226
120.785,21.24087,102.874,0.44373,1.02209
121.285,21.2895,102.877,0.44161,1.02193
121.785,21.33794,102.893,0.44307,1.02176
122.285,21.38642,102.896,0.44138,1.02159
122.785,21.43443,102.896,0.44113,1.02142
123.285,21.48256,102.895,0.4431,1.02125
123.785,21.53071,102.877,0.44038,1.02108
124.285,21.57863,102.896,0.44251,1.02091
124.785,21.6268,102.894,0.43877,1.02074
125.285,21.6749,102.894,0.44164,1.02056
125.785,21.72287,102.936,0.44203,1.02039
126.285,21.77082,102.904,0.44222,1.02021
126.785,21.81878,102.896,0.44206,1.02004
127.285,21.86651,102.915,0.44513,1.01986
127.785,21.91439,102.936,0.44391,1.01968
128.285,21.96227,102.936,0.44505,1.0195
128.785,22.00999,102.896,0.44498,1.01932
129.285,22.05772,102.896,0.44456,1.01914
129.785,22.1052,102.895,0.4464,1.01896
130.285,22.1525,102.947,0.44664,1.01878
130.785,22.2,102.946,0.44644,1.01859
131.285,22.24729,102.946,0.44829,1.01841
131.785,22.29467,102.946,0.44827,1.01822
132.285,22.342,102.946,0.44655,1.01804
132.785,22.38922,102.924,0.45122,1.01785
133.285,22.43644,102.942,0.45159,1.01766
133.785,22.48331,102.938,0.4536,1.01747
134.285,22.53035,102.977,0.45314,1.01728
134.785,22.57731,102.975,0.45568,1.01709
135.285,22.62407,102.976,0.45238,1.0169
135.785,22.67107,102.986,0.45336,1.01671
136.285,22.71803,102.9886,0.4548,1.01652
136.785,22.7647,102.946,0.454,1.01632
137.285,22.8115,102.946,0.45235,1.01613
137.785,22.8583,102.944,0.45698,1.01593
138.285,22.90496,103.004,0.45503,1.01573
138.785,22.95147,103.029,0.45779,1.01554
139.285,22.99804,102.9887,0.4596,1.01534
139.785,23.04443,103.032,0.45849,1.01514
140.285,23.09086,103.03,0.45898,1.01494
140.785,23.13726,103.034,0.46031,1.01474
141.285,23.1837,103.07,0.46095,1.01454
141.785,23.23011,103.07,0.46253,1.01433
142.285,23.27655,103.05,0.46255,1.01413
142.785,23.32284,102.988,0.46024,1.01393
143.285,23.36917,103.029,0.46241,1.01372
143.785,23.41538,103.03,0.46124,1.01351
144.285,23.4614,103.063,0.46141,1.01331
144.785,23.5073,103.027,0.4616,1.0131
145.285,23.55322,103.07,0.4624,1.01289
145.785,23.59914,103.07,0.46357,1.01268
146.285,23.6452,103.073,0.46606,1.01247
146.785,23.69124,102.999,0.46429,1.01226
147.285,23.73691,103,0.46696,1.01205
147.785,23.78279,103.043,0.46453,1.01184
148.285,23.82835,103.084,0.46493,1.01162
148.785,23.87368,103.0427,0.46928,1.01141
149.285,23.91946,103.015,0.46649,1.01119
149.785,23.96565,103.003,0.46405,1.01098
150.285,24.01156,102.963,0.46689,1.01076
150.785,24.05791,102.963,0.46868,1.01054
151.285,24.1039,103.002,0.46832,1.01032
151.785,24.14984,103.003,0.47111,1.0101
152.285,24.19579,103.043,0.47197,1.00988
152.785,24.24164,103.053,0.47195,1.00966
153.285,24.28753,103.046,0.47173,1.00944
153.785,24.33338,103.013,0.47167,1.00922
154.285,24.379,103.0128,0.47125,1.009
154.785,24.42461,103.014,0.47381,1.00877
155.285,24.47012,103.053,0.4737,1.00855
155.785,24.51566,103.053,0.47528,1.00832
156.285,24.56125,103.043,0.47539,1.00809
156.785,24.60685,103.043,0.47339,1.00787
157.285,24.6525,103.044,0.47493,1.00764
157.785,24.69809,103.041,0.47382,1.00741
158.285,24.74375,103.043,0.47647,1.00718
158.785,24.78925,103.043,0.47535,1.00695
159.285,24.8346,103.03,0.47776,1.00672
159.785,24.8801,103.003,0.47678,1.00649
160.285,24.9256,103.043,0.48054,1.00625
160.785,24.971,103.042,0.47901,1.00602
161.285,25.01655,103.023,0.47897,1.00578
161.785,25.06229,103.023,0.48099,1.00555
162.285,25.10759,103.023,0.48198,1.00531
162.785,25.15289,103.0589,0.48019,1.00508
163.285,25.19828,103.063,0.47995,1.00484
163.785,25.24355,103.053,0.48019,1.0046
164.285,25.28902,103.083,0.4811,1.00436
164.785,25.33413,103.102,0.48254,1.00412
165.285,25.37951,103.0933,0.4815,1.00388
165.785,25.42493,103.093,0.48054,1.00364
166.285,25.4704,103.093,0.4817,1.00339
166.785,25.51568,103.093,0.48044,1.00315
167.285,25.56135,103.083,0.48262,1.00291
167.785,25.6068,103.083,0.48545,1.00266
168.285,25.65203,103.083,0.4844,1.00242
168.785,25.6973,103.083,0.48576,1.00217
169.285,25.74248,103.0514,0.48742,1.00192
169.785,25.78756,103.053,0.48462,1.00168
170.285,25.83256,103.052,0.48757,1.00143
170.785,25.87795,103.092,0.48759,1.00118
171.285,25.92336,103.053,0.48548,1.00093
171.785,25.96846,103.053,0.48763,1.00068
172.285,26.0141,103.053,0.48946,1.00043
172.785,26.05939,103.093,0.48901,1.00017
173.285,26.10458,103.093,0.48926,0.99992
173.785,26.1498,103.133,0.48651,0.99967
174.285,26.19514,103.133,0.4872,0.99941
174.785,26.24015,103.133,0.48938,0.99916
175.285,26.2851,103.133,0.48914,0.9989
175.785,26.33025,103.133,0.48964,0.99864
176.285,26.37551,103.175,0.48956,0.99839
176.785,26.42056,103.126,0.48675,0.99813
177.285,26.46572,103.126,0.48825,0.99787
177.785,26.51077,103.104,0.48956,0.99761
178.285,26.55576,103.086,0.48921,0.99735
178.785,26.60073,103.127,0.48948,0.99709
179.285,26.6456,103.088,0.49053,0.99682
179.785,26.69035,103.087,0.49015,0.99656
180.285,26.7353,103.087,0.48992,0.9963
180.785,26.7802,103.087,0.4918,0.99603
181.285,26.8251,103.084,0.49216,0.99577
181.785,26.8704,103.087,0.49201,0.9955
182.285,26.9155,103.087,0.49162,0.99524
182.785,26.9603,103.087,0.49376,0.99497
183.285,27.00514,103.113,0.49189,0.9947
183.785,27.05,103.127,0.4912,0.99443
184.285,27.0946,103.127,0.49345,0.99416
184.785,27.1394,103.127,0.49395,0.99389
185.285,27.1842,103.15,0.49375,0.99362
185.785,27.2288,103.167,0.49111,0.99335
186.285,27.27341,103.168,0.49594,0.99308
186.785,27.3183,103.115,0.4959,0.99281
187.285,27.36304,103.116,0.49581,0.99253
187.785,27.40783,103.152,0.4976,0.99226
188.285,27.45275,103.1616,0.49636,0.99198
188.785,27.4975,103.177,0.49534,0.99171
189.285,27.5421,103.143,0.4945,0.99143
189.785,27.58667,103.1369,0.49511,0.99116
190.285,27.63131,103.135,0.49519,0.99088
190.785,27.676,103.106,0.49656,0.9906
191.285,27.7208,103.067,0.49774,0.99032
191.785,27.76555,103.108,0.49749,0.99004
192.285,27.8103,103.106,0.4933,0.98976
192.785,27.8549,103.096,0.49738,0.98948
193.285,27.89961,103.097,0.49826,0.9892
193.785,27.94417,103.138,0.49614,0.98891
194.285,27.98868,103.137,0.49392,0.98863
194.785,28.0334,103.137,0.49487,0.98835
195.285,28.078,103.152,0.49693,0.98806
195.785,28.1226,103.1768,0.50122,0.98778
196.285,28.16725,103.177,0.49711,0.98749
196.785,28.2118,103.177,0.49564,0.9872
197.285,28.2565,103.177,0.49947,0.98692
197.785,28.30115,103.136,0.49756,0.98663
198.285,28.34585,103.137,0.49629,0.98634
198.785,28.39037,103.137,0.49651,0.98605
199.285,28.43487,103.136,0.49888,0.98576
199.785,28.47935,103.107,0.49876,0.98547
200.285,28.5237,103.128,0.50183,0.98518
200.785,28.5682,103.147,0.49904,0.98489
201.285,28.61305,103.147,0.50009,0.98459
201.785,28.65762,103.181,0.49996,0.9843
202.285,28.70229,103.185,0.49967,0.98401
202.785,28.74708,103.177,0.49877,0.98371
203.285,28.79157,103.177,0.5025,0.98342
203.785,28.8361,103.177,0.50264,0.98312
204.285,28.8804,103.136,0.5019,0.98282
204.785,28.9249,103.123,0.50146,0.98253
205.285,28.9696,103.096,0.50467,0.98223
205.785,29.01424,103.096,0.50517,0.98193
206.285,29.05889,103.14,0.50282,0.98163
206.785,29.1037,103.14,0.50195,0.98133
207.285,29.14834,103.18,0.5038,0.98103
207.785,29.1929,103.18,0.50556,0.98073
208.285,29.23757,103.18,0.50269,0.98043
208.785,29.2822,103.18,0.50533,0.98012
209.285,29.32667,103.18,0.50248,0.97982
209.785,29.37132,103.18,0.50378,0.97952
210.285,29.4158,103.18,0.50358,0.97921
210.785,29.46045,103.18,0.5077,0.97891
211.285,29.5049,103.18,0.50644,0.9786
211.785,29.5496,103.18,0.50798,0.9783
212.285,29.5943,103.18,0.50727,0.97799
212.785,29.639,103.181,0.50815,0.97768
213.285,29.68362,103.189,0.50654,0.97737
213.785,29.72837,103.19,0.50817,0.97707
214.285,29.77301,103.19,0.50669,0.97676
214.785,29.8176,103.19,0.50687,0.97645
215.285,29.86218,103.1899,0.50729,0.97614
215.785,29.9067,103.21,0.50719,0.97582
216.285,29.9512,103.2105,0.50788,0.97551
216.785,29.99574,103.23,0.50851,0.9752
217.285,30.04015,103.23,0.50655,0.97489
217.785,30.0845,103.26,0.50534,0.97457
218.285,30.12927,103.22,0.51003,0.97426
218.785,30.17401,103.191,0.50837,0.97394
219.285,30.21865,103.142,0.50802,0.97363
219.785,30.2634,103.1791,0.50849,0.97331
220.285,30.3081,103.179,0.50764,0.973
220.785,30.35267,103.22,0.50963,0.97268
221.285,30.39728,103.22,0.50906,0.97236
221.785,30.4419,103.236,0.50904,0.97204
222.285,30.48651,103.26,0.50955,0.97172
222.785,30.53115,103.219,0.5101,0.9714
223.285,30.57579,103.217,0.50965,0.97108
223.785,30.6203,103.3,0.509,0.97076
224.285,30.6649,103.301,0.50972,0.97044
224.785,30.7096,103.301,0.50996,0.97012
225.285,30.75426,103.254,0.51023,0.9698
225.785,30.79885,103.22,0.5098,0.96947
226.285,30.84348,103.263,0.50809,0.96915
226.785,30.888,103.236,0.50662,0.96883
227.285,30.93267,103.22,0.50908,0.9685
227.785,30.9774,103.22,0.51025,0.96818
228.285,31.0221,103.221,0.50831,0.96785
228.785,31.0669,103.2605,0.51051,0.96752
229.285,31.11155,103.26,0.5124,0.9672
229.785,31.1562,103.263,0.50926,0.96687
230.285,31.2008,103.22,0.5093,0.96654
230.785,31.2455,103.22,0.51184,0.96621
231.285,31.29001,103.22,0.51198,0.96588
231.785,31.33465,103.21,0.50775,0.96555
232.285,31.37942,103.2506,0.51195,0.96522
232.785,31.42404,103.2503,0.51166,0.96489
233.285,31.46872,103.25,0.51109,0.96456
233.785,31.5135,103.291,0.51149,0.96423
234.285,31.5581,103.291,0.51301,0.96389
234.785,31.60277,103.326,0.5127,0.96356
235.285,31.64757,103.296,0.51256,0.96323
235.785,31.69218,103.29,0.51066,0.96289
236.285,31.737,103.312,0.50975,0.96256
236.785,31.78177,103.311,0.51162,0.96222
237.285,31.82651,103.2907,0.51249,0.96188
237.785,31.8712,103.291,0.51217,0.96155
238.285,31.91615,103.291,0.51081,0.96121
238.785,31.96084,103.249,0.51009,0.96087
239.285,32.00562,103.251,0.51216,0.96054
239.785,32.05039,103.271,0.51241,0.9602
240.285,32.09515,103.291,0.51295,0.95986
240.785,32.1398,103.32,0.51245,0.95952
241.285,32.18457,103.2914,0.51182,0.95918
241.785,32.22931,103.291,0.51284,0.95884
242.285,32.27405,103.291,0.51361,0.95849
242.785,32.31902,103.291,0.51379,0.95815
243.285,32.36379,103.29,0.51382,0.95781
243.785,32.4083,103.33,0.51372,0.95747
244.285,32.45302,103.295,0.51292,0.95712
244.785,32.49771,103.291,0.51209,0.95678
245.285,32.54238,103.2884,0.51325,0.95644
245.785,32.58726,103.261,0.51044,0.95609
246.285,32.63223,103.2608,0.51195,0.95574
246.785,32.67703,103.299,0.51217,0.9554
247.285,32.72184,103.341,0.51649,0.95505
247.785,32.7667,103.341,0.51519,0.9547
248.285,32.81155,103.341,0.51201,0.95436
248.785,32.85635,103.3,0.51534,0.95401
249.285,32.90119,103.3007,0.5138,0.95366
249.785,32.946,103.342,0.51506,0.95331
250.285,32.99085,103.341,0.51343,0.95296
250.785,33.0358,103.341,0.51316,0.95261
251.285,33.08051,103.301,0.51236,0.95226
251.785,33.1253,103.301,0.51148,0.95191
252.285,33.17017,103.301,0.51159,0.95156
252.785,33.2151,103.342,0.51202,0.95121
253.285,33.25992,103.3,0.51397,0.95085
253.785,33.3048,103.3,0.51205,0.9505
254.285,33.34963,103.3003,0.51138,0.95015
254.785,33.39444,103.3003,0.51362,0.94979
255.285,33.43906,103.3,0.516,0.94944
255.785,33.48388,103.319,0.51593,0.94908
256.285,33.52857,103.371,0.51317,0.94873
256.785,33.57343,103.371,0.51311,0.94837
257.285,33.61838,103.37,0.51579,0.94802
257.785,33.66324,103.362,0.51283,0.94766
258.285,33.70802,103.361,0.51513,0.9473
258.785,33.75286,103.361,0.512,0.94694
259.285,33.79768,103.361,0.5128,0.94658
259.785,33.84248,103.361,0.5145,0.94623
260.285,33.8874,103.362,0.51221,0.94587
260.785,33.9322,103.362,0.51141,0.94551
261.285,33.9771,103.361,0.51179,0.94515
261.785,34.0221,103.335,0.5102,0.94479
262.285,34.06688,103.3081,0.51008,0.94443
262.785,34.1117,103.295,0.51207,0.94406
263.285,34.1566,103.3207,0.50949,0.9437
263.785,34.20139,103.3336,0.51317,0.94334
264.285,34.24609,103.349,0.51339,0.94298
264.785,34.2911,103.361,0.51496,0.94261
265.285,34.336,103.361,0.51617,0.94225
265.785,34.38098,103.361,0.51385,0.94188
266.285,34.42589,103.321,0.51316,0.94152
266.785,34.4707,103.321,0.51542,0.94115
267.285,34.51551,103.32,0.51687,0.94079
267.785,34.5603,103.301,0.51674,0.94042
268.285,34.6051,103.301,0.51617,0.94006
268.785,34.65,103.301,0.51512,0.93969
269.285,34.69513,103.344,0.51719,0.93932
269.785,34.74002,103.384,0.51824,0.93895
270.285,34.78501,103.384,0.51709,0.93859
270.785,34.82983,103.384,0.5169,0.93822
271.285,34.87478,103.384,0.51981,0.93785
271.785,34.91989,103.384,0.51956,0.93748
272.285,34.96485,103.385,0.52021,0.93711
272.785,35.00998,103.424,0.52096,0.93674
273.285,35.05503,103.385,0.51899,0.93637
273.785,35.10003,103.344,0.52062,0.936
274.285,35.14495,103.344,0.52225,0.93562
274.785,35.18999,103.424,0.52005,0.93525
275.285,35.23503,103.424,0.52037,0.93488
275.785,35.28011,103.424,0.52519,0.93451
276.285,35.3252,103.424,0.52067,0.93413
276.785,35.3703,103.424,0.51987,0.93376
277.285,35.41519,103.385,0.52145,0.93339
277.785,35.46021,103.384,0.52459,0.93301
278.285,35.50524,103.384,0.52164,0.93264
278.785,35.55021,103.384,0.52148,0.93226
279.285,35.59523,103.394,0.52489,0.93188
279.785,35.6404,103.404,0.52188,0.93151
280.285,35.68549,103.437,0.52213,0.93113
280.785,35.7301,103.434,0.52406,0.93076
281.285,35.77511,103.434,0.5234,0.93038
281.785,35.82026,103.434,0.52497,0.93
282.285,35.86544,103.431,0.52178,0.92962
282.785,35.91088,103.404,0.52478,0.92924
283.285,35.95646,103.4345,0.52271,0.92886
283.785,36.00164,103.434,0.52388,0.92848
284.285,36.04675,103.434,0.5248,0.92811
284.785,36.0918,103.438,0.52463,0.92772
285.285,36.13684,103.431,0.52487,0.92734
285.785,36.18199,103.431,0.52381,0.92696
286.285,36.227,103.444,0.52484,0.92658
286.785,36.2721,103.471,0.5259,0.9262
287.285,36.3173,103.449,0.52684,0.92582
287.785,36.36245,103.43,0.5226,0.92544
288.285,36.4077,103.451,0.52438,0.92505
288.785,36.45286,103.451,0.52571,0.92467
289.285,36.49797,103.429,0.5277,0.92429
289.785,36.54319,103.3909,0.52646,0.9239
290.285,36.58837,103.391,0.52589,0.92352
290.785,36.6337,103.393,0.52414,0.92313
291.285,36.67909,103.428,0.52546,0.92275
291.785,36.72441,103.4456,0.5237,0.92236
292.285,36.7696,103.451,0.52691,0.92198
292.785,36.8148,103.451,0.52549,0.92159
293.285,36.86003,103.451,0.52394,0.92121
293.785,36.9051,103.473,0.52489,0.92082
294.285,36.95042,103.471,0.52955,0.92043
294.785,36.9957,103.471,0.52732,0.92004
295.285,37.0411,103.471,0.52451,0.91966
295.785,37.08656,103.471,0.52513,0.91927
296.285,37.1319,103.471,0.52825,0.91888
296.785,37.1772,103.473,0.53053,0.91849
297.285,37.2226,103.431,0.52961,0.9181
297.785,37.26795,103.4311,0.53207,0.91771
298.285,37.31341,103.431,0.53189,0.91732
298.785,37.35883,103.4302,0.53162,0.91693
299.285,37.40421,103.471,0.53398,0.91654
299.785,37.44955,103.471,0.5338,0.91615
300.285,37.49493,103.47,0.53384,0.91576
300.785,37.54012,103.511,0.53771,0.91537
301.285,37.5854,103.511,0.53898,0.91498
301.785,37.63073,103.511,0.53676,0.91458
302.285,37.67609,103.511,0.53814,0.91419
302.785,37.72148,103.512,0.53944,0.9138
303.285,37.76702,103.47,0.54249,0.9134
303.785,37.81259,103.511,0.54382,0.91301
304.285,37.8581,103.505,0.54347,0.91262
304.785,37.90368,103.4714,0.54519,0.91222
305.285,37.94934,103.471,0.54665,0.91183
305.785,37.99501,103.472,0.54625,0.91143
306.285,38.04058,103.511,0.54775,0.91104
306.785,38.08616,103.511,0.54947,0.91064
307.285,38.13158,103.511,0.55399,0.91025
307.785,38.177,103.511,0.55441,0.90985
308.285,38.2224,103.511,0.55563,0.90945
308.785,38.26797,103.511,0.55896,0.90906
309.285,38.31351,103.511,0.55988,0.90866
309.785,38.35892,103.511,0.5596,0.90826
310.285,38.40444,103.511,0.56409,0.90786
310.785,38.4499,103.511,0.5657,0.90747
311.285,38.49556,103.511,0.56501,0.90707
311.785,38.54112,103.511,0.56689,0.90667
312.285,38.58674,103.511,0.5669,0.90627
312.785,38.63245,103.511,0.56779,0.90587
313.285,38.67821,103.511,0.56908,0.90547
313.785,38.72391,103.511,0.5686,0.90507
314.285,38.76959,103.511,0.5741,0.90467
314.785,38.81518,103.484,0.57622,0.90427
315.285,38.8606,103.4811,0.57267,0.90387
315.785,38.9063,103.5265,0.57309,0.90347
316.285,38.9518,103.481,0.57488,0.90307
316.785,38.99736,103.481,0.57567,0.90267
317.285,39.04313,103.473,0.57813,0.90227
317.785,39.08885,103.441,0.57547,0.90186
318.285,39.1346,103.48,0.58082,0.90146
318.785,39.18035,103.481,0.58112,0.90106
319.285,39.22614,103.439,0.58114,0.90066
319.785,39.27182,103.441,0.58368,0.90025
320.285,39.31745,103.441,0.57909,0.89985
320.785,39.3632,103.449,0.58414,0.89945
321.285,39.40885,103.4811,0.58682,0.89904
321.785,39.45446,103.482,0.5863,0.89864
322.285,39.50016,103.491,0.58958,0.89823
322.785,39.54596,103.48,0.5823,0.89783
323.285,39.59172,103.521,0.58464,0.89742
323.785,39.63743,103.521,0.58965,0.89702
324.285,39.68314,103.52,0.59008,0.89661
324.785,39.72893,103.551,0.5873,0.89621
325.285,39.7746,103.512,0.59271,0.8958
325.785,39.82046,103.5116,0.58957,0.8954
326.285,39.86633,103.521,0.5914,0.89499
326.785,39.9122,103.521,0.58908,0.89458
327.285,39.958,103.521,0.59214,0.89418
327.785,40.00387,103.521,0.59182,0.89377
328.285,40.04957,103.521,0.59256,0.89336
328.785,40.09548,103.524,0.59591,0.89295
329.285,40.14138,103.481,0.59445,0.89254
329.785,40.18717,103.4811,0.59395,0.89214
330.285,40.233,103.481,0.5987,0.89173
330.785,40.2789,103.522,0.59983,0.89132
331.285,40.32477,103.562,0.59735,0.89091
331.785,40.37057,103.562,0.59937,0.8905
332.285,40.4165,103.522,0.6041,0.89009
332.785,40.46244,103.482,0.60191,0.88968
333.285,40.50833,103.4811,0.60199,0.88927
333.785,40.5541,103.481,0.60301,0.88886
334.285,40.59998,103.521,0.59955,0.88845
334.785,40.64581,103.564,0.60283,0.88804
335.285,40.69153,103.528,0.60477,0.88763
335.785,40.73737,103.52,0.60098,0.88722
336.285,40.78334,103.5614,0.59985,0.88681
336.785,40.82928,103.523,0.60351,0.8864
337.285,40.87519,103.521,0.60401,0.88599
337.785,40.9212,103.5,0.60708,0.88557
338.285,40.9671,103.501,0.60454,0.88516
338.785,41.0129,103.5012,0.60547,0.88475
339.285,41.05885,103.484,0.60552,0.88434
339.785,41.10479,103.55,0.60716,0.88392
340.285,41.15079,103.565,0.60634,0.88351
340.785,41.19684,103.461,0.60978,0.8831
341.285,41.24289,103.1119,0.61385,0.88268
341.785,41.28908,103.653,0.60831,0.88227
342.285,41.3352,103.568,0.61025,0.88186
342.785,41.38115,103.448,0.6127,0.88144
343.285,41.4273,103.489,0.61474,0.88103
343.785,41.47319,103.487,0.61327,0.88061
344.285,41.5192,103.447,0.61201,0.8802
344.785,41.56538,103.479,0.61477,0.87978
345.285,41.61164,103.448,0.61576,0.87937
345.785,41.65789,103.448,0.61694,0.87895
346.285,41.70418,103.448,0.61662,0.87854
346.785,41.75029,103.448,0.61224,0.87812
347.285,41.79627,103.448,0.61745,0.87771
347.785,41.84228,103.448,0.61829,0.87729
348.285,41.8883,103.448,0.6172,0.87688
348.785,41.9343,103.448,0.61649,0.87646
349.285,41.98055,103.416,0.62052,0.87604
349.785,42.02684,103.419,0.62159,0.87563
350.285,42.07304,103.438,0.62212,0.87521
350.785,42.11934,103.438,0.62001,0.87479
351.285,42.1657,103.408,0.6261,0.87438
351.785,42.21212,103.41,0.62291,0.87396
352.285,42.25855,103.408,0.62551,0.87354
352.785,42.30508,103.45,0.62705,0.87312
353.285,42.3514,103.488,0.62528,0.8727
353.785,42.3976,103.421,0.62694,0.87229
354.285,42.44399,103.417,0.62885,0.87187
354.785,42.49026,103.417,0.63078,0.87145
355.285,42.5368,103.417,0.62715,0.87103
355.785,42.58337,103.417,0.63115,0.87061
356.285,42.62976,103.417,0.63141,0.87019
356.785,42.67592,103.421,0.63331,0.86978
357.285,42.72229,103.448,0.63562,0.86936
357.785,42.76862,103.448,0.6336,0.86894
358.285,42.815,103.408,0.63281,0.86852
358.785,42.86152,103.393,0.63745,0.8681
359.285,42.9082,103.361,0.63876,0.86768
359.785,42.95476,103.335,0.63901,0.86726
360.285,43.001,103.388,0.64031,0.86684
360.785,43.04692,103.407,0.63525,0.86642
361.285,43.09312,103.407,0.63882,0.866
361.785,43.1397,103.407,0.6426,0.86558
362.285,43.1862,103.448,0.64441,0.86516
362.785,43.23312,103.407,0.64396,0.86474
363.285,43.28002,103.407,0.64319,0.86431
363.785,43.32638,103.4072,0.64688,0.86389
364.285,43.37265,103.449,0.6473,0.86347
364.785,43.41896,103.448,0.64661,0.86305
365.285,43.46535,103.447,0.64959,0.86263
365.785,43.51174,103.408,0.6527,0.86221
366.285,43.55813,103.3673,0.65339,0.86179
366.785,43.60453,103.374,0.6545,0.86136
367.285,43.651,103.408,0.65678,0.86094
367.785,43.69744,103.408,0.65708,0.86052
368.285,43.7438,103.367,0.65764,0.8601
368.785,43.7904,103.367,0.66295,0.85968
369.285,43.8369,103.306,0.66639,0.85925
369.785,43.88343,103.2872,0.66768,0.85883
370.285,43.92982,103.2872,0.66907,0.85841
370.785,43.97635,103.2872,0.66549,0.85798
371.285,44.02298,103.287,0.67196,0.85756
371.785,44.06945,103.287,0.6681,0.85714
372.285,44.11613,103.247,0.67521,0.85671
372.785,44.16264,103.282,0.67079,0.85629
373.285,44.20897,103.249,0.67126,0.85587
373.785,44.25551,103.247,0.6726,0.85544
374.285,44.30212,103.207,0.67667,0.85502
374.785,44.34864,103.2431,0.67585,0.8546
375.285,44.3951,103.287,0.67762,0.85417
375.785,44.4417,103.287,0.68223,0.85375
376.285,44.48829,103.203,0.67888,0.85333
376.785,44.53482,103.203,0.68147,0.8529
377.285,44.58147,103.2033,0.68351,0.85248
377.785,44.628,103.243,0.6846,0.85205
378.285,44.67467,103.242,0.6875,0.85163
378.785,44.7213,103.204,0.68946,0.8512
379.285,44.76794,103.205,0.69081,0.85078
379.785,44.81467,103.163,0.69191,0.85035
380.285,44.86136,103.174,0.69047,0.84993
380.785,44.90804,103.173,0.69392,0.8495
381.285,44.9546,103.173,0.69661,0.84908
381.785,45.00124,103.163,0.70092,0.84865
382.285,45.04784,103.1235,0.70187,0.84823
382.785,45.0944,103.123,0.70275,0.8478
383.285,45.14117,103.123,0.70431,0.84738
383.785,45.18778,103.123,0.70432,0.84695
384.285,45.23451,103.123,0.70643,0.84653
384.785,45.28118,103.123,0.7088,0.8461
385.285,45.3279,103.123,0.71124,0.84568
385.785,45.37472,103.122,0.7082,0.84525
386.285,45.4214,103.08,0.7105,0.84482
386.785,45.46835,103.08,0.71324,0.8444
387.285,45.51514,103.053,0.71621,0.84397
387.785,45.56188,103.0396,0.72262,0.84355
388.285,45.60862,103.013,0.72533,0.84312
388.785,45.65538,103,0.72636,0.84269
389.285,45.7021,102.975,0.7266,0.84227
389.785,45.74888,102.951,0.72255,0.84184
390.285,45.7956,102.848,0.72446,0.84142
390.785,45.84243,102.829,0.72114,0.84099
391.285,45.88909,102.829,0.72528,0.84056
391.785,45.93592,102.83,0.72805,0.84014
392.285,45.98276,102.764,0.72976,0.83971
392.785,46.02964,102.742,0.73354,0.83928
393.285,46.0765,102.702,0.73548,0.83886
393.785,46.12344,102.702,0.73514,0.83843
394.285,46.17037,102.7018,0.73866,0.838
394.785,46.21731,102.661,0.74323,0.83758
395.285,46.26444,102.633,0.74371,0.83715
395.785,46.31156,102.588,0.74613,0.83672
396.285,46.35848,102.625,0.7387,0.83629
396.785,46.40526,102.763,0.74633,0.83587
397.285,46.45205,102.308,0.75256,0.83544
397.785,46.49864,102.457,0.75259,0.83501
398.285,46.5456,102.508,0.75514,0.83459
398.785,46.59267,102.508,0.75403,0.83416
399.285,46.6397,102.5079,0.7539,0.83373
399.785,46.68687,102.629,0.75251,0.8333
400.285,46.73387,102.463,0.75807,0.83288
400.785,46.78071,102.276,0.75993,0.83245
401.285,46.82756,102.345,0.76258,0.83202
401.785,46.87458,102.344,0.76347,0.83159
402.285,46.9217,102.302,0.76956,0.83117
402.785,46.96881,102.304,0.76794,0.83074
403.285,47.01591,102.304,0.76982,0.83031
403.785,47.06303,102.3233,0.76758,0.82988
404.285,47.1101,102.3,0.77231,0.82946
404.785,47.1573,102.26,0.77186,0.82903
405.285,47.20446,102.22,0.77773,0.8286
405.785,47.2517,102.174,0.77817,0.82817
406.285,47.299,102.097,0.78179,0.82775
406.785,47.3461,102.0786,0.79079,0.82732
407.285,47.39334,102.058,0.7866,0.82689
407.785,47.4406,102.016,0.78772,0.82646
408.285,47.48768,101.993,0.79255,0.82604
408.785,47.5349,101.9703,0.79164,0.82561
409.285,47.58201,101.976,0.79307,0.82518
409.785,47.6292,101.918,0.79614,0.82475
410.285,47.6761,101.903,0.80058,0.82432
410.785,47.7233,101.867,0.80418,0.8239
411.285,47.77004,101.802,0.8053,0.82347
411.785,47.81726,101.743,0.8067,0.82304
412.285,47.86458,101.745,0.81158,0.82261
412.785,47.91171,101.706,0.8134,0.82219
413.285,47.95908,101.671,0.81499,0.82176
413.785,48.00645,101.617,0.81923,0.82133
414.285,48.05368,101.613,0.82204,0.8209
414.785,48.10093,101.578,0.82723,0.82047
415.285,48.14808,101.535,0.8268,0.82005
415.785,48.19546,101.437,0.83329,0.81962
416.285,48.24266,101.3555,0.83349,0.81919
416.785,48.29005,101.291,0.83608,0.81876
417.285,48.33735,101.254,0.83727,0.81834
417.785,48.38471,101.146,0.83896,0.81791
418.285,48.43205,101.13,0.84019,0.81748
418.785,48.47938,101.09,0.84805,0.81705
419.285,48.5267,100.993,0.84618,0.81662
419.785,48.57432,100.921,0.84977,0.8162
420.285,48.62171,100.86,0.85273,0.81577
420.785,48.66912,100.78,0.85834,0.81534
421.285,48.71647,100.724,0.86101,0.81491
421.785,48.76384,100.684,0.86326,0.81449
422.285,48.81111,100.668,0.86758,0.81406
422.785,48.85849,100.615,0.8718,0.81363
423.285,48.90586,100.545,0.8757,0.8132
423.785,48.9531,100.447,0.87695,0.81278
424.285,49.0005,100.3936,0.88147,0.81235
424.785,49.04795,100.287,0.88596,0.81192
425.285,49.0953,100.178,0.88993,0.81149
425.785,49.14284,100.11,0.89229,0.81107
426.285,49.19023,100.063,0.89678,0.81064
426.785,49.23767,99.96376,0.8989,0.81021
427.285,49.2851,99.86465,0.90262,0.80978
427.785,49.3324,99.7505,0.90413,0.80936
428.285,49.37982,99.63905,0.91009,0.80893
428.785,49.42743,99.5906,0.91246,0.8085
429.285,49.4749,99.52556,0.91252,0.80807
429.785,49.52231,99.4192,0.91878,0.80765
430.285,49.56993,99.301,0.92468,0.80722
430.785,49.61732,99.15598,0.92287,0.80679
431.285,49.6646,98.97618,0.93036,0.80637
431.785,49.71217,98.93383,0.93049,0.80594
432.285,49.7598,98.8399,0.93703,0.80551
432.785,49.80741,98.72083,0.93731,0.80509
433.285,49.85507,98.61612,0.94457,0.80466
433.785,49.90254,98.4465,0.9466,0.80423
434.285,49.95015,98.32433,0.94771,0.8038
434.785,49.9977,98.19,0.95478,0.80338
435.285,50.04529,98.0424,0.96195,0.80295
435.785,50.0931,97.8822,0.9642,0.80252
436.285,50.14069,97.75741,0.97114,0.8021
436.785,50.18822,97.58022,0.97416,0.80167
437.285,50.23591,97.44191,0.98495,0.80125
437.785,50.2836,97.30805,0.987,0.80082
438.285,50.33128,97.0964,0.99323,0.80039
438.785,50.37899,96.87429,1.00497,0.79997
439.285,50.42666,96.6987,1.0149,0.79954
439.785,50.4744,96.5017,1.01807,0.79911
440.285,50.52205,96.35978,1.02553,0.79869
440.785,50.56964,96.16975,1.03702,0.79826
441.285,50.61748,95.93375,1.04456,0.79784
441.785,50.66478,95.69758,1.05322,0.79741
442.285,50.71224,95.47061,1.05854,0.79698
442.785,50.75982,95.28205,1.07166,0.79656
443.285,50.80725,95.08465,1.07946,0.79613
443.785,50.8551,94.92498,1.09344,0.79571
444.285,50.90283,94.64344,1.10239,0.79528
444.785,50.95055,94.37094,1.11774,0.79486
445.285,50.99839,94.08452,1.12665,0.79443
445.785,51.04603,93.86188,1.14081,0.79401
446.285,51.09362,93.57274,1.15241,0.79358
446.785,51.14136,93.27289,1.1647,0.79316
447.285,51.189,93.0209,1.18172,0.79273
447.785,51.23686,92.7225,1.19804,0.79231
448.285,51.28481,92.39069,1.2118,0.79188
448.785,51.3327,92.0793,1.22038,0.79146
449.285,51.38063,91.76188,1.23873,0.79103
449.785,51.4285,91.39658,1.25406,0.79061
450.285,51.4763,91.03373,1.27336,0.79018
450.785,51.52407,90.67573,1.28661,0.78976
451.285,51.57179,90.28276,1.29965,0.78933
451.785,51.6194,89.8425,1.31535,0.78891
452.285,51.66715,89.50072,1.33055,0.78849
452.785,51.71488,89.10505,1.35224,0.78806
453.285,51.7629,88.7454,1.36743,0.78764
453.785,51.81085,88.27704,1.38386,0.78721
454.285,51.8588,87.77193,1.40149,0.78679
454.785,51.90668,87.35005,1.4202,0.78637
455.285,51.9545,86.89464,1.44052,0.78594
455.785,52.00244,86.40024,1.4595,0.78552
456.285,52.05024,85.93817,1.47521,0.7851
456.785,52.09814,85.36891,1.49959,0.78467
457.285,52.14611,84.84524,1.51951,0.78425
457.785,52.19392,84.275,1.53961,0.78383
458.285,52.24184,83.68474,1.56172,0.7834
458.785,52.29002,83.04816,1.57956,0.78298
459.285,52.33783,82.46523,1.59638,0.78256
459.785,52.3859,81.84987,1.61745,0.78214
460.285,52.43381,81.17095,1.63272,0.78171
460.785,52.4817,80.5327,1.65127,0.78129
461.285,52.52966,79.87767,1.66596,0.78087
461.785,52.57756,79.13775,1.68592,0.78045
462.285,52.6255,78.4988,1.70077,0.78002
462.785,52.6735,77.74554,1.71888,0.7796
463.285,52.72155,77.00835,1.73604,0.77918
463.785,52.76956,76.1853,1.7565,0.77876
464.285,52.81746,75.29377,1.77309,0.77834
464.785,52.86531,74.47389,1.79189,0.77792
465.285,52.9132,73.66363,1.80745,0.77749
465.785,52.961,72.80466,1.8242,0.77707
466.285,53.00883,71.8819,1.83914,0.77665
466.785,53.0569,70.94394,1.85728,0.77623
467.285,53.10487,70.03729,1.8691,0.77581
467.785,53.1529,69.11276,1.88874,0.77539
468.285,53.20091,68.06531,1.90376,0.77497
468.785,53.2489,67.03198,1.91772,0.77455
469.285,53.2968,65.93929,1.93313,0.77413
469.785,53.34496,64.86815,1.94592,0.77371
470.285,53.39304,63.83724,1.96111,0.77329
470.785,53.4412,62.6643,1.97349,0.77287
471.285,53.4894,61.53114,1.98555,0.77245
471.785,53.53748,60.3907,1.99805,0.77203
472.285,53.58555,59.23925,2.00256,0.77161
472.785,53.63378,58.06054,2.0107,0.77119
473.285,53.68185,56.8987,2.02331,0.77077
473.785,53.72985,55.56145,2.02605,0.77035
474.285,53.77791,54.26484,2.03063,0.76993
474.785,53.826,52.9707,2.03524,0.76951
475.285,53.87406,51.72522,2.03635,0.7691
475.785,53.9222,50.38023,2.03678,0.76868
476.285,53.97031,48.95519,2.03693,0.76826
476.785,54.0183,47.52467,2.03608,0.76784
477.285,54.06645,46.18688,2.03153,0.76742
477.785,54.11435,44.86445,2.02349,0.767
478.285,54.16245,43.51879,2.01897,0.76659
478.785,54.21069,42.07671,2.012,0.76617
479.285,54.259,40.50353,1.99613,0.76575
479.785,54.30724,39.17532,1.98362,0.76533
480.285,54.3554,37.78758,1.96564,0.76492
480.785,54.4036,36.3412,1.94488,0.7645
481.285,54.45169,34.8636,1.92274,0.76408
481.785,54.49983,33.4078,1.90248,0.76367
482.285,54.54798,31.9725,1.87472,0.76325
482.785,54.59619,30.6211,1.84285,0.76283
483.285,54.64419,29.23483,1.81318,0.76242
483.785,54.6924,27.7899,1.77728,0.762
484.285,54.74057,26.2844,1.73853,0.76158
484.785,54.78881,25.0621,1.70162,0.76117
485.285,54.83736,23.72905,1.65691,0.76075
485.785,54.88586,22.44073,1.61294,0.76034
486.285,54.93416,21.09905,1.56703,0.75992
486.785,54.98256,19.8337,1.52169,0.75951
487.285,55.031,18.662,1.47118,0.75909
487.785,55.0794,17.54085,1.41995,0.75868
488.285,55.12794,16.44931,1.36471,0.75826
488.785,55.1765,15.3522,1.31591,0.75785
489.285,55.2251,14.30365,1.26171,0.75743
489.785,55.2736,13.3529,1.20565,0.75702
490.285,55.32213,12.41925,1.15001,0.75661
490.785,55.3708,11.55515,1.09243,0.75619
491.285,55.4193,10.7056,1.03719,0.75578
491.785,55.468,9.91497,0.97798,0.75536
492.285,55.51653,9.27616,0.92526,0.75495
492.785,55.56501,8.62554,0.86662,0.75454
493.285,55.6135,7.99073,0.80943,0.75413
493.785,55.66196,7.41582,0.75842,0.75371
494.285,55.71055,6.90992,0.70653,0.7533
494.785,55.7592,6.48972,0.65243,0.75289
495.285,55.80777,6.05134,0.60044,0.75248
495.785,55.85646,5.68358,0.5509,0.75206
496.285,55.9051,5.33049,0.50168,0.75165
496.785,55.9536,5.0436,0.4539,0.75124
497.285,56.00221,4.8426,0.4063,0.75083
497.785,56.05075,4.70106,0.36154,0.75042
498.285,56.09926,4.43803,0.31919,0.75001
498.785,56.1479,4.33033,0.28615,0.7496
499.285,56.196,4.23056,0.24867,0.74918
499.785,56.24449,4.12943,0.21363,0.74877
500.285,56.29299,4.02827,0.18782,0.74836
500.785,56.3414,3.96273,0.16565,0.74795
501.285,56.39026,3.92999,0.13839,0.74754
501.785,56.439,3.88671,0.12221,0.74713
502.285,56.48766,3.86559,0.10448,0.74672
502.785,56.53634,3.77672,0.08778078,0.74631
503.285,56.58485,3.73441,0.07056932,0.74591
503.785,56.63321,3.76003,0.06226271,0.7455
504.285,56.6817,3.69431,0.0507513,0.74509
504.785,56.7301,3.72684,0.03778247,0.74468
505.285,56.77853,3.72684,0.03299842,0.74427
505.785,56.8271,3.70853,0.02341331,0.74386
506.285,56.8756,3.64666,0.01357773,0.74345
506.785,56.9243,3.63506,0.002817074,0.74305
507.285,56.97277,3.60698,-0.00305635,0.74264
507.785,57.0212,3.68848,-0.04792261,0.74223
508.285,57.06981,3.60643,-0.09830544,0.74182
508.785,57.1182,3.60701,-0.11339,0.74142
509.285,57.16664,3.64661,-0.11661,0.74101
509.785,57.21524,3.6508,-0.11382,0.7406
510.285,57.2639,3.63657,-0.09685573,0.7402
510.785,57.31244,3.68649,-0.08587932,0.73979
511.285,57.361,3.68691,-0.07462237,0.73939
511.785,57.4096,3.64379,-0.06088158,0.73898
512.285,57.4581,3.64329,-0.04870764,0.73857
512.785,57.50668,3.64329,-0.0401893,0.73817
513.285,57.55529,3.64329,-0.03966663,0.73776
513.785,57.60397,3.64328,-0.0341143,0.73736
514.285,57.65269,3.68631,-0.03428082,0.73695
514.785,57.70145,3.72296,-0.03386364,0.73655
515.285,57.7503,3.72347,-0.03634667,0.73615
515.785,57.799,3.72348,-0.03702108,0.73574
516.285,57.84777,3.68225,-0.03671228,0.73534
516.785,57.8964,3.68354,-0.03860761,0.73493
517.285,57.94503,3.68353,-0.03672532,0.73453
517.785,57.99375,3.68597,-0.03405295,0.73413
518.285,58.0426,3.65341,-0.03872406,0.73372
518.785,58.0914,3.65294,-0.03685857,0.73332
519.285,58.14017,3.69326,-0.03836443,0.73292
519.785,58.189,3.71618,-0.03412615,0.73252
520.285,58.2378,3.69361,-0.03947659,0.73211
520.785,58.2866,3.6936,-0.0378651,0.73171
521.285,58.3354,3.69359,-0.03816503,0.73131
521.785,58.384,3.69329,-0.03568053,0.73091
522.285,58.43269,3.6752,-0.03246957,0.73051
522.785,58.48141,3.65334,-0.03361972,0.73011
523.285,58.5303,3.65335,-0.03162345,0.72971
523.785,58.5789,3.65332,-0.02843995,0.72931
524.285,58.6276,3.61364,-0.02940924,0.72891
524.785,58.67621,3.64339,-0.03122407,0.72851
525.285,58.72486,3.65334,-0.02889651,0.72811
525.785,58.77369,3.62408,-0.02785941,0.72771
526.285,58.82261,3.61656,-0.03008084,0.72731
526.785,58.8714,3.65334,-0.02816458,0.72691
527.285,58.92015,3.61287,-0.02883201,0.72651
527.785,58.9688,3.6976,-0.02978188,0.72611
528.285,59.0175,3.70032,-0.02907459,0.72571
528.785,59.0661,3.70032,-0.02894029,0.72531
529.285,59.115,3.68633,-0.02834995,0.72492
529.785,59.1639,3.66011,-0.02354105,0.72452
530.285,59.21278,3.71755,-0.0281188,0.72412
530.785,59.26158,3.69369,-0.02616745,0.72372
531.285,59.31046,3.6823,-0.02348501,0.72333
531.785,59.35924,3.65336,-0.02378746,0.72293
532.285,59.4082,3.70507,-0.02350652,0.72253
532.785,59.4571,3.70208,-0.02049642,0.72214
533.285,59.5061,3.69346,-0.01717678,0.72174
533.785,59.5551,3.71999,-0.01714304,0.72135
534.285,59.60395,3.73385,-0.02083464,0.72095
534.785,59.6529,3.7348,-0.02012946,0.72056
535.285,59.70196,3.67275,-0.01940261,0.72016
535.785,59.751,3.67348,-0.01725036,0.71977
536.285,59.80004,3.69369,-0.01455198,0.71937
536.785,59.84907,3.71371,-0.01537225,0.71898
537.285,59.8979,3.71373,-0.01272715,0.71858
537.785,59.94684,3.67236,-0.01045409,0.71819
538.285,59.99569,3.71338,-0.01325778,0.7178
538.785,60.0448,3.71343,-0.01027472,0.7174
539.285,60.09378,3.67021,-0.01131645,0.71701
539.785,60.14272,3.67155,-0.00771239,0.71662
540.285,60.19177,3.71343,-0.0060207,0.71622
540.785,60.2407,3.71341,-0.00624402,0.71583
541.285,60.28966,3.71341,-0.004065394,0.71544
541.785,60.3383,3.71357,-0.01093067,0.71505
542.285,60.38725,3.67306,-0.00891862,0.71466
542.785,60.43635,3.67316,-0.0062158,0.71427
543.285,60.48548,3.68891,-0.00652935,0.71388
543.785,60.53468,3.71219,-0.005174424,0.71348
544.285,60.58373,3.71331,-0.003975159,0.71309
544.785,60.63281,3.71341,-0.004075784,0.7127
545.285,60.68173,3.71341,-0.003492431,0.71231
545.785,60.73078,3.71331,0.0008747856,0.71192
546.285,60.78,3.67348,0.00163016,0.71153
546.785,60.8293,3.67347,0.004978303,0.71115
547.285,60.8786,3.7142,0.0003220323,0.71076
547.785,60.9277,3.71346,0.004656549,0.71037
548.285,60.9769,3.75292,0.006972791,0.70998
548.785,61.02613,3.78823,0.007809742,0.70959
549.285,61.07525,3.74443,0.01086421,0.7092
549.785,61.1244,3.70642,0.0139697,0.70882
550.285,61.17338,3.69023,0.01225629,0.70843
550.785,61.2225,3.69024,0.0165228,0.70804
551.285,61.27151,3.69019,0.01585502,0.70766
551.785,61.32066,3.77022,0.01917117,0.70727
552.285,61.3699,3.73714,0.01544442,0.70688
552.785,61.41885,3.68342,0.02023656,0.7065
553.285,61.4679,3.68311,0.02341888,0.70611
553.785,61.51686,3.70299,0.02217891,0.70573
554.285,61.5658,3.70491,0.02172934,0.70534
554.785,61.6149,3.66337,0.02354835,0.70496
555.285,61.66398,3.71755,0.0244699,0.70457
555.785,61.71314,3.7235,0.02422143,0.70419
556.285,61.7623,3.73249,0.0257825,0.7038
556.785,61.8115,3.72347,0.02801674,0.70342
557.285,61.86056,3.72348,0.02610327,0.70304
557.785,61.9097,3.72403,0.02653008,0.70265
558.285,61.9587,3.69035,0.02961503,0.70227
558.785,62.0079,3.72345,0.02967832,0.70189
559.285,62.0571,3.72625,0.03105972,0.7015
559.785,62.10632,3.68353,0.03346575,0.70112
560.285,62.1556,3.6836,0.03079328,0.70074
560.785,62.20491,3.71864,0.03353365,0.70036
561.285,62.25422,3.76618,0.03337694,0.69998
561.785,62.30353,3.72361,0.03606743,0.6996
562.285,62.3528,3.68334,0.03572232,0.69922
562.785,62.4022,3.68354,0.03532786,0.69884
563.285,62.4512,3.68494,0.03617835,0.69846
563.785,62.5005,3.72377,0.03527748,0.69808
564.285,62.54976,3.72385,0.03834678,0.6977
564.785,62.59891,3.75364,0.03803476,0.69732
565.285,62.6482,3.75367,0.03824959,0.69694
565.785,62.69755,3.75368,0.03906141,0.69656
566.285,62.747,3.70797,0.0410798,0.69618
566.785,62.7964,3.67353,0.04391943,0.6958
567.285,62.84593,3.6701,0.04323189,0.69542
567.785,62.89536,3.71637,0.04199048,0.69505
568.285,62.9448,3.72961,0.037944,0.69467
568.785,62.99422,3.71431,0.04066438,0.69429
569.285,63.0437,3.71372,0.03873497,0.69392
569.785,63.0932,3.71372,0.03812027,0.69354
570.285,63.14255,3.71372,0.04072699,0.69316
570.785,63.1921,3.71373,0.04067326,0.69279
571.285,63.24156,3.67176,0.04027477,0.69241
571.785,63.29104,3.71339,0.04017662,0.69204
572.285,63.3405,3.7136,0.03984485,0.69166
572.785,63.3899,3.69329,0.04274688,0.69129
573.285,63.4391,3.67444,0.04775839,0.69091
573.785,63.48845,3.67317,0.04028714,0.69054
574.285,63.53765,3.67317,0.04185056,0.69016
574.785,63.587,3.67319,0.04290064,0.68979
575.285,63.6367,3.72852,0.04337836,0.68942
575.785,63.68614,3.7676,0.03864308,0.68904
576.285,63.7358,3.7972,0.0365637,0.68867
576.785,63.7853,3.76446,0.04129509,0.6883
577.285,63.83466,3.757,0.03830242,0.68793
577.785,63.88417,3.75701,0.04188971,0.68756
578.285,63.9337,3.7571,0.03768698,0.68718
578.785,63.98313,3.73511,0.03950241,0.68681
579.285,64.03274,3.75862,0.03514627,0.68644
579.785,64.0823,3.71706,0.03590289,0.68607
580.285,64.1318,3.71707,0.03624505,0.6857
580.785,64.1815,3.71707,0.0394128,0.68533
581.285,64.23111,3.71707,0.03754899,0.68496
581.785,64.2808,3.71709,0.03839883,0.68459
582.285,64.3304,3.72288,0.03571193,0.68422
582.785,64.37979,3.72347,0.03398921,0.68386
583.285,64.42928,3.72347,0.04072616,0.68349
583.785,64.47881,3.72351,0.03917664,0.68312
584.285,64.52837,3.76343,0.03815872,0.68275
584.785,64.57802,3.76372,0.03530849,0.68238
585.285,64.6276,3.76372,0.03721615,0.68202
585.785,64.67706,3.76372,0.03663026,0.68165
586.285,64.7265,3.76377,0.03391542,0.68128
586.785,64.77603,3.77306,0.03134356,0.68092
587.285,64.8254,3.76266,0.02651595,0.68055
587.785,64.87472,3.77376,0.02646985,0.68019
588.285,64.92411,3.77319,0.02885892,0.67982
588.785,64.97362,3.77275,0.02706954,0.67945
589.285,65.0231,3.77349,0.02774611,0.67909
589.785,65.07264,3.76718,0.02600023,0.67873
590.285,65.12212,3.73664,0.02869506,0.67836
590.785,65.17148,3.76372,0.03051769,0.678
591.285,65.2209,3.76368,0.03084221,0.67763
591.785,65.27048,3.72632,0.0278673,0.67727
592.285,65.3201,3.71341,0.02918359,0.67691
592.785,65.3698,3.71341,0.02819875,0.67655
593.285,65.41939,3.71341,0.02590801,0.67618
593.785,65.46905,3.71344,0.02271076,0.67582
594.285,65.51845,3.75343,0.02294652,0.67546
594.785,65.568,3.75194,0.03036929,0.6751
595.285,65.6177,3.75755,0.0262008,0.67474
595.785,65.66745,3.75366,0.02717381,0.67438
596.285,65.7172,3.75365,0.02052532,0.67402
596.785,65.7671,3.76871,0.02264055,0.67366
597.285,65.8169,3.86878,0.0209648,0.6733
597.785,65.86663,3.85387,0.02111893,0.67294
598.285,65.91649,3.81446,0.0213794,0.67258
598.785,65.96616,3.8556,0.02084606,0.67222
599.285,66.01571,3.89384,0.02294055,0.67186
599.785,66.06538,3.89421,0.02098986,0.6715
600.285,66.11514,3.8942,0.02057637,0.67115
600.785,66.16471,3.89686,0.01373407,0.67079
601.285,66.21437,3.85352,0.01640077,0.67043
601.785,66.26383,3.82391,0.01488159,0.67007
602.285,66.3133,3.82382,0.01629512,0.66972
602.785,66.36299,3.86326,0.01441682,0.66936
603.285,66.4126,3.90436,0.01308064,0.669
603.785,66.46239,3.89086,0.009876823,0.66865
604.285,66.51212,3.85666,0.01010545,0.66829
604.785,66.56188,3.89418,0.01067165,0.66794
605.285,66.61168,3.89307,0.01057442,0.66758
605.785,66.66153,3.90314,0.00785588,0.66723
606.285,66.71126,3.90377,0.01545084,0.66688
606.785,66.76091,3.86405,0.01434324,0.66652
607.285,66.81064,3.86394,0.0118239,0.66617
607.785,66.8602,3.88419,0.008398051,0.66582
608.285,66.9098,3.87384,0.005576163,0.66546
608.785,66.95975,3.8743,0.01057601,0.66511
609.285,67.00958,3.89421,0.008355848,0.66476
609.785,67.0594,3.89455,0.008303474,0.66441
610.285,67.10931,3.88415,0.008717596,0.66406
610.785,67.159,3.88414,0.007928035,0.6637
611.285,67.20878,3.85581,0.008710424,0.66335
611.785,67.2586,3.65322,0.00865689,0.663
612.285,67.3083,3.91478,0.001134847,0.66265
612.785,67.35798,4.03569,-0.0004852854,0.6623
613.285,67.40771,3.93671,0.00174937,0.66195
613.785,67.45741,3.97921,0.001297185,0.66161
614.285,67.50705,3.93827,0.00128127,0.66126
614.785,67.55664,3.9378,0.00107938,0.66091
615.285,67.60641,3.9378,0.004465371,0.66056
615.785,67.65611,3.9378,-0.000442392,0.66021
616.285,67.70596,3.9378,0.000239184,0.65986
616.785,67.756,3.94161,0.002844855,0.65952
617.285,67.80591,3.72617,0.00360231,0.65917
617.785,67.85587,4.05788,0.001600656,0.65882
618.285,67.90572,4.06483,0.0005912554,0.65848
618.785,67.95543,3.95208,-0.0008599061,0.65813
619.285,68.00539,3.90736,-0.005136789,0.65779
619.785,68.05519,3.90732,-5.53922e-05,0.65744
620.285,68.10508,3.90732,-0.006158521,0.6571
620.785,68.15491,3.90732,-0.008017274,0.65675
621.285,68.20432,3.93108,-0.0070459,0.65641
621.785,68.25408,3.94757,-0.002518349,0.65606
622.285,68.30391,3.94756,-0.006637822,0.65572
622.785,68.35372,3.94755,-0.005993564,0.65538
623.285,68.40405,3.92487,-0.008684238,0.65503
623.785,68.45395,3.90756,-0.00574085,0.65469
624.285,68.50386,3.92854,-0.004133808,0.65435
624.785,68.5538,3.9204,-0.00590771,0.65401
625.285,68.60372,3.90717,-0.006420431,0.65367
625.785,68.6537,3.90825,-0.003015142,0.65333
626.285,68.70358,3.9049,0.001176013,0.65299
626.785,68.75339,3.90748,-0.00525263,0.65264
627.285,68.80303,3.95196,-0.003480633,0.6523
627.785,68.853,3.98699,-0.00578994,0.65196
628.285,68.90276,3.94761,-0.004600766,0.65163
628.785,68.95275,3.94756,-0.00378904,0.65129
629.285,69.00314,3.94752,-0.00336143,0.65095
629.785,69.05311,3.91424,-0.00565418,0.65061
630.285,69.10301,3.87377,-0.004750023,0.65027
630.785,69.1531,3.916,-0.007866141,0.64993
631.285,69.20315,3.99386,-0.009041801,0.6496
631.785,69.25309,3.99707,-0.00912927,0.64926
632.285,69.3031,3.95765,-0.008807123,0.64892
632.785,69.35308,3.93539,-0.007132231,0.64858
633.285,69.40307,3.9452,-0.01821913,0.64825
633.785,69.45305,3.97774,-0.01533967,0.64791
634.285,69.50323,3.97775,-0.01076304,0.64758
634.785,69.55329,3.97775,-0.01466464,0.64724
635.285,69.60335,3.97775,-0.01557362,0.64691
635.785,69.65341,3.97776,-0.01277206,0.64657
636.285,69.70328,3.99208,-0.01271443,0.64624
636.785,69.75312,4.00906,-0.01482947,0.64591
637.285,69.80279,3.99893,-0.01518584,0.64557
637.785,69.85265,3.97984,-0.01612453,0.64524
638.285,69.90253,3.9576,-0.01600589,0.64491
638.785,69.95257,3.95762,-0.01444933,0.64457
639.185,69.99265,3.95762,-0.01763697,0.64431