File: 01_Data/LDPE/STA/N2/10K_min/LDPE_STA_N2_10KData_210907_R3.csv
##Temp./Â°C,Time/min,Mass(subtr.2)/%,DSC(subtr.2)/(mW/mg),Sensit./(uV/mW)
49.676,10.01,99.54115,0.02319663,1.03585
50.176,11.3798,99.5007,0.05614983,1.03583
50.676,11.72349,99.57476,0.08104138,1.0358
51.176,11.97308,99.50229,0.10035,1.03578
51.676,12.17362,99.4833,0.11961,1.03575
52.176,12.3474,99.47548,0.1362,1.03572
52.676,12.5048,99.4847,0.15008,1.03569
53.176,12.64932,99.4769,0.16536,1.03566
53.676,12.78577,99.53456,0.1754,1.03563
54.176,12.914,99.48018,0.1865,1.0356
54.676,13.03634,99.47372,0.19557,1.03556
55.176,13.1513,99.53673,0.20801,1.03553
55.676,13.26331,99.46892,0.21426,1.03549
56.176,13.3718,99.47357,0.22611,1.03546
56.676,13.47674,99.50121,0.23202,1.03542
57.176,13.5798,99.50591,0.24021,1.03538
57.676,13.67955,99.5034,0.24634,1.03534
58.176,13.77651,99.50447,0.25403,1.0353
58.676,13.8713,99.50841,0.25919,1.03526
59.176,13.96441,99.50084,0.26662,1.03522
59.676,14.0557,99.47782,0.27107,1.03517
60.176,14.1454,99.50672,0.2771,1.03513
60.676,14.2329,99.49449,0.28112,1.03508
61.176,14.3187,99.49472,0.28538,1.03503
61.676,14.40375,99.47658,0.29229,1.03498
62.176,14.48775,99.47551,0.29468,1.03494
62.676,14.5704,99.4577,0.30082,1.03488
63.176,14.65156,99.4909,0.29959,1.03483
63.676,14.7318,99.48575,0.30564,1.03478
64.176,14.8104,99.48515,0.30917,1.03473
64.676,14.88809,99.44876,0.31491,1.03467
65.176,14.96504,99.48538,0.31649,1.03462
65.676,15.0417,99.51584,0.32115,1.03456
66.176,15.11686,99.4888,0.32616,1.0345
66.676,15.19081,99.53106,0.3309,1.03444
67.176,15.26415,99.50879,0.33484,1.03438
67.676,15.33694,99.51225,0.3391,1.03432
68.176,15.4087,99.47446,0.34353,1.03426
68.676,15.48005,99.4731,0.34715,1.0342
69.176,15.5504,99.4756,0.35097,1.03413
69.676,15.62014,99.47345,0.35685,1.03407
70.176,15.68915,99.44485,0.36017,1.034
70.676,15.75814,99.4436,0.36777,1.03393
71.176,15.82635,99.45017,0.37082,1.03386
71.676,15.89415,99.41215,0.37388,1.03379
72.176,15.96106,99.4627,0.37733,1.03372
72.676,16.0274,99.4778,0.3826,1.03365
73.176,16.09319,99.50627,0.38725,1.03358
73.676,16.1584,99.4687,0.39198,1.03351
74.176,16.22317,99.4691,0.39701,1.03343
74.676,16.28764,99.43024,0.401,1.03336
75.176,16.3519,99.4305,0.40607,1.03328
75.676,16.41558,99.45881,0.41218,1.0332
76.176,16.47912,99.42981,0.41775,1.03312
76.676,16.54234,99.4614,0.42149,1.03304
77.176,16.6048,99.428,0.42461,1.03296
77.676,16.667,99.46055,0.43274,1.03288
78.176,16.72851,99.45057,0.43936,1.0328
78.676,16.79046,99.45549,0.44255,1.03271
79.176,16.85151,99.45097,0.44647,1.03263
79.676,16.91226,99.45,0.45277,1.03254
80.176,16.97267,99.39031,0.45861,1.03245
80.676,17.03302,99.41614,0.46414,1.03237
81.176,17.0928,99.42506,0.4696,1.03228
81.676,17.15222,99.42475,0.47748,1.03219
82.176,17.2114,99.43261,0.47761,1.0321
82.676,17.27036,99.46289,0.48307,1.032
83.176,17.32914,99.48626,0.49125,1.03191
83.676,17.38723,99.42062,0.49527,1.03182
84.176,17.4453,99.3966,0.50169,1.03172
84.676,17.5031,99.41764,0.50903,1.03163
85.176,17.5605,99.41749,0.51522,1.03153
85.676,17.6181,99.42456,0.52134,1.03143
86.176,17.67513,99.44895,0.5254,1.03133
86.676,17.732,99.4175,0.53482,1.03123
87.176,17.7886,99.4511,0.54182,1.03113
87.676,17.84467,99.44932,0.55187,1.03103
88.176,17.9006,99.41985,0.56143,1.03092
88.676,17.9564,99.44815,0.56825,1.03082
89.176,18.01206,99.48119,0.57337,1.03071
89.676,18.06741,99.4812,0.5809,1.03061
90.176,18.1225,99.45034,0.58629,1.0305
90.676,18.17781,99.43812,0.59932,1.03039
91.176,18.23259,99.44109,0.60596,1.03028
91.676,18.28706,99.43181,0.61025,1.03017
92.176,18.34154,99.41818,0.61517,1.03006
92.676,18.39554,99.42951,0.61805,1.02995
93.176,18.44957,99.44109,0.62336,1.02984
93.676,18.50305,99.45577,0.6275,1.02972
94.176,18.55669,99.4356,0.62928,1.02961
94.676,18.61024,99.4528,0.63478,1.02949
95.176,18.66364,99.45529,0.64266,1.02937
95.676,18.71712,99.45234,0.65159,1.02926
96.176,18.7701,99.4225,0.66228,1.02914
96.676,18.82303,99.39203,0.67372,1.02902
97.176,18.87588,99.3922,0.6876,1.0289
97.676,18.92857,99.39227,0.70201,1.02877
98.176,18.98116,99.45266,0.71906,1.02865
98.676,19.03366,99.43228,0.73656,1.02853
99.176,19.08599,99.45999,0.75321,1.0284
99.676,19.1384,99.4528,0.77283,1.02828
100.176,19.19073,99.42233,0.7963,1.02815
100.676,19.24284,99.45561,0.81688,1.02802
101.176,19.2948,99.45467,0.84241,1.02789
101.676,19.34667,99.4554,0.86877,1.02776
102.176,19.39834,99.4554,0.89992,1.02763
102.676,19.44984,99.4554,0.92897,1.0275
103.176,19.50135,99.45271,0.96167,1.02737
103.676,19.55271,99.45231,0.99018,1.02723
104.176,19.60434,99.4527,1.02288,1.0271
104.676,19.6559,99.4224,1.05544,1.02696
105.176,19.70748,99.45039,1.08939,1.02683
105.676,19.75913,99.43814,1.1256,1.02669
106.176,19.81041,99.46809,1.16225,1.02655
106.676,19.86158,99.48393,1.20017,1.02641
107.176,19.91249,99.4528,1.23949,1.02627
107.676,19.9634,99.48401,1.277,1.02613
108.176,20.0143,99.45278,1.31446,1.02599
108.676,20.06522,99.48337,1.35434,1.02585
109.176,20.11636,99.4832,1.39121,1.0257
109.676,20.16732,99.48528,1.42441,1.02556
110.176,20.21789,99.47142,1.44877,1.02541
110.676,20.26865,99.48368,1.45822,1.02526
111.176,20.31914,99.48311,1.44996,1.02512
111.676,20.36952,99.48352,1.40915,1.02497
112.176,20.41972,99.45993,1.33472,1.02482
112.676,20.46956,99.48285,1.21851,1.02467
113.176,20.51926,99.44405,1.0788,1.02452
113.676,20.5686,99.4504,0.9439,1.02436
114.176,20.61802,99.45034,0.82915,1.02421
114.676,20.6671,99.45034,0.73779,1.02406
115.176,20.71613,99.4505,0.66882,1.0239
115.676,20.76512,99.41707,0.61361,1.02374
116.176,20.81373,99.41741,0.57364,1.02359
116.676,20.86252,99.44889,0.54337,1.02343
117.176,20.9112,99.43779,0.52053,1.02327
117.676,20.9598,99.44755,0.5027,1.02311
118.176,21.0085,99.44582,0.488,1.02295
118.676,21.05712,99.44813,0.47624,1.02279
119.176,21.10577,99.47731,0.46856,1.02262
119.676,21.1543,99.4479,0.46331,1.02246
120.176,21.20301,99.44782,0.45869,1.0223
120.676,21.2512,99.44782,0.45761,1.02213
121.176,21.29941,99.45411,0.45404,1.02196
121.676,21.34767,99.47791,0.45248,1.0218
122.176,21.39584,99.47793,0.45231,1.02163
122.676,21.44418,99.47976,0.45294,1.02146
123.176,21.49257,99.47253,0.4508,1.02129
123.676,21.54107,99.44283,0.45144,1.02112
124.176,21.58936,99.47341,0.45227,1.02095
124.676,21.6376,99.44272,0.45186,1.02077
125.176,21.68583,99.44275,0.45357,1.0206
125.676,21.73375,99.45019,0.4521,1.02043
126.176,21.7815,99.47344,0.45324,1.02025
126.676,21.8291,99.44281,0.45383,1.02007
127.176,21.87681,99.44038,0.45636,1.0199
127.676,21.9245,99.4329,0.45612,1.01972
128.176,21.9724,99.4349,0.45661,1.01954
128.676,22.0201,99.4051,0.4582,1.01936
129.176,22.06776,99.41404,0.45938,1.01918
129.676,22.11534,99.3822,0.45943,1.019
130.176,22.16262,99.39577,0.46046,1.01882
130.676,22.2101,99.41241,0.4616,1.01863
131.176,22.25737,99.438,0.46152,1.01845
131.676,22.3046,99.44305,0.46376,1.01826
132.176,22.35197,99.47285,0.4639,1.01808
132.676,22.39914,99.47317,0.46332,1.01789
133.176,22.44615,99.45635,0.46326,1.0177
133.676,22.49321,99.47169,0.46339,1.01751
134.176,22.5399,99.4731,0.46617,1.01732
134.676,22.5867,99.47309,0.46661,1.01713
135.176,22.63365,99.47981,0.46722,1.01694
135.676,22.68055,99.5173,0.47009,1.01675
136.176,22.72762,99.61197,0.46993,1.01656
136.676,22.7746,99.67602,0.47129,1.01636
137.176,22.8214,99.71692,0.47332,1.01617
137.676,22.86801,99.27176,0.47396,1.01597
138.176,22.91465,99.8043,0.47593,1.01578
138.676,22.96102,99.76859,0.47632,1.01558
139.176,23.00742,99.5154,0.47549,1.01538
139.676,23.05386,99.5133,0.47655,1.01518
140.176,23.10031,99.5051,0.47812,1.01498
140.676,23.14667,99.45008,0.4779,1.01478
141.176,23.19305,99.45135,0.47809,1.01458
141.676,23.2393,99.3837,0.47847,1.01438
142.176,23.28562,99.35705,0.47977,1.01417
142.676,23.33182,99.357,0.48107,1.01397
143.176,23.37801,99.3588,0.48179,1.01377
143.676,23.42427,99.32689,0.48189,1.01356
144.176,23.47041,99.3268,0.48274,1.01335
144.676,23.51647,99.32291,0.48326,1.01315
145.176,23.56254,99.28913,0.48513,1.01294
145.676,23.6086,99.3492,0.48356,1.01273
146.176,23.65467,99.36,0.48551,1.01252
146.676,23.70073,99.3629,0.4868,1.01231
147.176,23.74669,99.34687,0.48686,1.0121
147.676,23.79266,99.37369,0.48807,1.01188
148.176,23.83858,99.3772,0.48795,1.01167
148.676,23.8845,99.40852,0.48952,1.01146
149.176,23.9304,99.40736,0.48876,1.01124
149.676,23.97639,99.41578,0.48966,1.01102
150.176,24.02243,99.43871,0.49014,1.01081
150.676,24.0683,99.4049,0.49209,1.01059
151.176,24.11412,99.40483,0.49522,1.01037
151.676,24.15974,99.40481,0.49415,1.01015
152.176,24.2055,99.40741,0.49626,1.00993
152.676,24.25104,99.42939,0.49561,1.00971
153.176,24.2967,99.43517,0.49638,1.00949
153.676,24.34241,99.43517,0.49751,1.00927
154.176,24.38824,99.43517,0.49919,1.00904
154.676,24.4341,99.43514,0.49828,1.00882
155.176,24.47989,99.4504,0.49766,1.0086
155.676,24.5256,99.4352,0.50013,1.00837
156.176,24.5713,99.43517,0.50183,1.00814
156.676,24.61693,99.435,0.50109,1.00792
157.176,24.66229,99.4653,0.5009,1.00769
157.676,24.70775,99.43534,0.50339,1.00746
158.176,24.7534,99.42874,0.50219,1.00723
158.676,24.79899,99.43433,0.50472,1.007
159.176,24.84451,99.43518,0.5048,1.00677
159.676,24.8902,99.43517,0.50683,1.00654
160.176,24.93571,99.43517,0.50748,1.0063
160.676,24.98087,99.43507,0.50804,1.00607
161.176,25.02646,99.40471,0.50794,1.00584
161.676,25.07196,99.40481,0.51018,1.0056
162.176,25.1174,99.41339,0.51102,1.00536
162.676,25.16309,99.44272,0.5103,1.00513
163.176,25.2087,99.44277,0.51095,1.00489
163.676,25.25406,99.4482,0.51285,1.00465
164.176,25.29954,99.4428,0.51283,1.00441
164.676,25.3449,99.44385,0.51527,1.00417
165.176,25.39039,99.4126,0.51556,1.00393
165.676,25.43584,99.4105,0.51438,1.00369
166.176,25.4814,99.3836,0.51426,1.00345
166.676,25.52665,99.38254,0.51661,1.0032
167.176,25.57166,99.3818,0.5171,1.00296
167.676,25.6169,99.3831,0.52036,1.00272
168.176,25.66207,99.41524,0.51981,1.00247
168.676,25.70747,99.4152,0.5193,1.00222
169.176,25.75321,99.4152,0.52153,1.00198
169.676,25.79871,99.4152,0.52245,1.00173
170.176,25.84412,99.41515,0.52235,1.00148
170.676,25.8894,99.4011,0.52355,1.00123
171.176,25.93469,99.38484,0.52417,1.00098
171.676,25.9799,99.41493,0.52296,1.00073
172.176,26.02509,99.38486,0.52476,1.00048
172.676,26.07029,99.3691,0.52676,1.00023
173.176,26.1157,99.3536,0.52516,0.99998
173.676,26.16112,99.3849,0.52764,0.99972
174.176,26.20649,99.3848,0.52722,0.99947
174.676,26.2519,99.3848,0.52799,0.99921
175.176,26.2972,99.41,0.53028,0.99896
175.676,26.34235,99.4148,0.53047,0.9987
176.176,26.3873,99.3847,0.5283,0.99844
176.676,26.43207,99.3848,0.53109,0.99818
177.176,26.4773,99.38986,0.53377,0.99792
177.676,26.5223,99.39972,0.53377,0.99767
178.176,26.5674,99.41524,0.53346,0.9974
178.676,26.6125,99.38469,0.53315,0.99714
179.176,26.65795,99.3848,0.53616,0.99688
179.676,26.70298,99.38463,0.53737,0.99662
180.176,26.748,99.354,0.53527,0.99636
180.676,26.79311,99.35523,0.53682,0.99609
181.176,26.8381,99.3245,0.53754,0.99583
181.676,26.8831,99.3539,0.53828,0.99556
182.176,26.92817,99.38173,0.5387,0.9953
182.676,26.973,99.38484,0.54108,0.99503
183.176,27.01802,99.3848,0.54174,0.99476
183.676,27.063,99.38447,0.54262,0.99449
184.176,27.1078,99.3544,0.54425,0.99422
184.676,27.15268,99.3545,0.54384,0.99395
185.176,27.19762,99.3545,0.54491,0.99368
185.676,27.24243,99.3545,0.54563,0.99341
186.176,27.2872,99.38624,0.5459,0.99314
186.676,27.33206,99.36259,0.54332,0.99287
187.176,27.37705,99.35248,0.54598,0.99259
187.676,27.42186,99.33174,0.54874,0.99232
188.176,27.4667,99.33537,0.54951,0.99204
188.676,27.5114,99.3545,0.54883,0.99177
189.176,27.5561,99.3545,0.54757,0.99149
189.676,27.6006,99.34599,0.54948,0.99122
190.176,27.6453,99.3599,0.55098,0.99094
190.676,27.68992,99.35954,0.5513,0.99066
191.176,27.7346,99.35955,0.55174,0.99038
191.676,27.77957,99.3598,0.55446,0.9901
192.176,27.82423,99.36065,0.55316,0.98982
192.676,27.8688,99.35954,0.55366,0.98954
193.176,27.91361,99.35954,0.55642,0.98926
193.676,27.95818,99.3596,0.55616,0.98898
194.176,28.00286,99.38897,0.55678,0.98869
194.676,28.04755,99.35947,0.55589,0.98841
195.176,28.0922,99.3574,0.55728,0.98812
195.676,28.137,99.32937,0.55913,0.98784
196.176,28.1817,99.32961,0.55858,0.98755
196.676,28.2263,99.3599,0.56149,0.98727
197.176,28.2711,99.35977,0.56053,0.98698
197.676,28.31573,99.35977,0.56234,0.98669
198.176,28.36025,99.35986,0.56219,0.9864
198.676,28.40468,99.3275,0.56377,0.98611
199.176,28.44922,99.35953,0.56349,0.98582
199.676,28.4939,99.35954,0.56664,0.98553
200.176,28.53868,99.35954,0.56784,0.98524
200.676,28.58349,99.35954,0.56919,0.98495
201.176,28.6282,99.35954,0.56923,0.98466
201.676,28.67278,99.35954,0.56715,0.98436
202.176,28.7173,99.35954,0.56851,0.98407
202.676,28.76192,99.3596,0.57039,0.98378
203.176,28.8065,99.33298,0.57043,0.98348
203.676,28.85128,99.3395,0.5719,0.98318
204.176,28.896,99.35951,0.57622,0.98289
204.676,28.9405,99.35954,0.57321,0.98259
205.176,28.985,99.3527,0.57564,0.98229
205.676,29.02951,99.337,0.57703,0.982
206.176,29.07402,99.337,0.57784,0.9817
206.676,29.1186,99.3361,0.57796,0.9814
207.176,29.1632,99.36793,0.5783,0.9811
207.676,29.20785,99.36718,0.57995,0.98079
208.176,29.2525,99.35738,0.5818,0.98049
208.676,29.29709,99.29943,0.58405,0.98019
209.176,29.3417,99.3288,0.58329,0.97989
209.676,29.3863,99.32951,0.58367,0.97958
210.176,29.43093,99.36015,0.58212,0.97928
210.676,29.47547,99.38996,0.58245,0.97898
211.176,29.52008,99.38988,0.58496,0.97867
211.676,29.56464,99.36232,0.5853,0.97836
212.176,29.6093,99.38715,0.58714,0.97806
212.676,29.6539,99.35716,0.58738,0.97775
213.176,29.69847,99.3271,0.58844,0.97744
213.676,29.74305,99.32553,0.58575,0.97713
214.176,29.7877,99.357,0.58814,0.97682
214.676,29.83219,99.35693,0.58734,0.97651
215.176,29.8767,99.33247,0.59083,0.9762
215.676,29.92131,99.31174,0.58891,0.97589
216.176,29.9658,99.31161,0.58922,0.97558
216.676,30.01032,99.32659,0.59088,0.97527
217.176,30.05507,99.33886,0.58916,0.97496
217.676,30.0998,99.34184,0.59168,0.97464
218.176,30.14446,99.34188,0.5917,0.97433
218.676,30.1891,99.36283,0.59254,0.97401
219.176,30.23382,99.37218,0.59191,0.9737
219.676,30.27836,99.37218,0.59236,0.97338
220.176,30.32286,99.37218,0.59338,0.97307
220.676,30.36747,99.37219,0.5935,0.97275
221.176,30.41211,99.36958,0.59584,0.97243
221.676,30.4566,99.3265,0.59496,0.97211
222.176,30.5013,99.29604,0.59677,0.97179
222.676,30.54593,99.3291,0.59483,0.97147
223.176,30.5906,99.30553,0.59633,0.97115
223.676,30.63515,99.36059,0.59661,0.97083
224.176,30.6798,99.3621,0.5967,0.97051
224.676,30.7243,99.3318,0.59583,0.97019
225.176,30.76887,99.33191,0.59872,0.96987
225.676,30.81332,99.36306,0.59708,0.96954
226.176,30.8579,99.3319,0.59666,0.96922
226.676,30.9024,99.34744,0.59908,0.9689
227.176,30.94698,99.3469,0.60094,0.96857
227.676,30.99165,99.3469,0.60137,0.96825
228.176,31.03639,99.3469,0.60123,0.96792
228.676,31.08101,99.34689,0.59973,0.96759
229.176,31.12562,99.3398,0.60313,0.96727
229.676,31.1701,99.31655,0.60418,0.96694
230.176,31.2147,99.31655,0.60171,0.96661
230.676,31.25941,99.31654,0.60313,0.96628
231.176,31.3041,99.33232,0.60473,0.96595
231.676,31.3488,99.3317,0.60285,0.96562
232.176,31.39357,99.3317,0.60343,0.96529
232.676,31.4382,99.3317,0.60355,0.96496
233.176,31.4827,99.3318,0.60511,0.96463
233.676,31.5273,99.312,0.60671,0.9643
234.176,31.5717,99.33195,0.60488,0.96397
234.676,31.6164,99.36367,0.60566,0.96363
235.176,31.66125,99.3621,0.60704,0.9633
235.676,31.706,99.36202,0.60727,0.96296
236.176,31.75078,99.3689,0.60912,0.96263
236.676,31.79556,99.33923,0.60662,0.96229
237.176,31.84017,99.35715,0.60874,0.96196
237.676,31.88471,99.33489,0.60917,0.96162
238.176,31.92936,99.33425,0.60884,0.96128
238.676,31.9741,99.33425,0.61075,0.96095
239.176,32.01879,99.33425,0.6105,0.96061
239.676,32.06337,99.33426,0.60832,0.96027
240.176,32.10814,99.33596,0.60848,0.95993
240.676,32.15273,99.3039,0.6113,0.95959
241.176,32.19743,99.30391,0.61012,0.95925
241.676,32.24214,99.30391,0.61211,0.95891
242.176,32.287,99.30455,0.61224,0.95857
242.676,32.33171,99.3268,0.61164,0.95823
243.176,32.37636,99.32683,0.61358,0.95788
243.676,32.42107,99.2971,0.61317,0.95754
244.176,32.46562,99.30412,0.61241,0.9572
244.676,32.51032,99.30414,0.61258,0.95685
245.176,32.55498,99.30414,0.61209,0.95651
245.676,32.5997,99.30414,0.61318,0.95617
246.176,32.64435,99.30293,0.61533,0.95582
246.676,32.68914,99.32665,0.61369,0.95547
247.176,32.73383,99.3267,0.61451,0.95513
247.676,32.77851,99.2942,0.61511,0.95478
248.176,32.8232,99.29465,0.61318,0.95443
248.676,32.86807,99.32443,0.61525,0.95408
249.176,32.91279,99.32438,0.61588,0.95374
249.676,32.95756,99.3044,0.61454,0.95339
250.176,33.00247,99.2933,0.61467,0.95304
250.676,33.0473,99.294,0.61827,0.95269
251.176,33.09198,99.29431,0.61696,0.95234
251.676,33.13694,99.3245,0.61607,0.95199
252.176,33.1817,99.32398,0.61599,0.95163
252.676,33.22655,99.35426,0.61593,0.95128
253.176,33.2714,99.3545,0.61738,0.95093
253.676,33.3162,99.34484,0.61811,0.95058
254.176,33.36096,99.33931,0.61694,0.95022
254.676,33.4056,99.33888,0.61886,0.94987
255.176,33.4503,99.32411,0.61861,0.94952
255.676,33.4951,99.30032,0.61892,0.94916
256.176,33.53993,99.3319,0.61981,0.94881
256.676,33.58482,99.36224,0.61995,0.94845
257.176,33.62959,99.36199,0.61881,0.94809
257.676,33.6744,99.3323,0.62085,0.94774
258.176,33.71934,99.33195,0.62126,0.94738
258.676,33.76417,99.33292,0.62106,0.94702
259.176,33.80895,99.3621,0.6194,0.94666
259.676,33.854,99.3621,0.61962,0.9463
260.176,33.89878,99.36273,0.6209,0.94595
260.676,33.94359,99.30212,0.62097,0.94559
261.176,33.9885,99.30161,0.62025,0.94523
261.676,34.03335,99.3023,0.62126,0.94486
262.176,34.07816,99.33201,0.6207,0.9445
262.676,34.12303,99.33193,0.62231,0.94414
263.176,34.16771,99.3006,0.62188,0.94378
263.676,34.2126,99.30161,0.62315,0.94342
264.176,34.25734,99.30159,0.62496,0.94306
264.676,34.30211,99.28242,0.62533,0.94269
265.176,34.34693,99.27024,0.6236,0.94233
265.676,34.3919,99.30966,0.62441,0.94196
266.176,34.43674,99.31149,0.62471,0.9416
266.676,34.48155,99.31149,0.62372,0.94123
267.176,34.52635,99.31149,0.62611,0.94087
267.676,34.5713,99.31149,0.62592,0.9405
268.176,34.61608,99.31149,0.62517,0.94014
268.676,34.66107,99.3115,0.62552,0.93977
269.176,34.70604,99.3137,0.62655,0.9394
269.676,34.75099,99.28104,0.62699,0.93903
270.176,34.796,99.33453,0.62863,0.93867
270.676,34.841,99.3343,0.62678,0.9383
271.176,34.88582,99.3087,0.62908,0.93793
271.676,34.9309,99.3039,0.62915,0.93756
272.176,34.97587,99.2748,0.62989,0.93719
272.676,35.02088,99.27379,0.63189,0.93682
273.176,35.06583,99.27379,0.62916,0.93645
273.676,35.11085,99.27379,0.62913,0.93608
274.176,35.15571,99.27577,0.63169,0.93571
274.676,35.20058,99.30412,0.62983,0.93533
275.176,35.2455,99.30377,0.63351,0.93496
275.676,35.29045,99.32692,0.63367,0.93459
276.176,35.33532,99.3269,0.63126,0.93421
276.676,35.3804,99.3269,0.6308,0.93384
277.176,35.42519,99.32685,0.63033,0.93347
277.676,35.4701,99.2966,0.63303,0.93309
278.176,35.51513,99.29671,0.63256,0.93272
278.676,35.56033,99.26618,0.63224,0.93234
279.176,35.6053,99.2679,0.63337,0.93197
279.676,35.65085,99.29686,0.63423,0.93159
280.176,35.6958,99.288,0.63289,0.93121
280.676,35.7409,99.29656,0.63418,0.93084
281.176,35.7859,99.29677,0.63234,0.93046
281.676,35.83097,99.30417,0.63505,0.93008
282.176,35.87592,99.30414,0.63465,0.9297
282.676,35.9208,99.30412,0.6353,0.92933
283.176,35.96552,99.325,0.63538,0.92895
283.676,36.01079,99.336,0.63754,0.92857
284.176,36.05599,99.32652,0.63632,0.92819
284.676,36.10117,99.32301,0.63612,0.92781
285.176,36.14663,99.2915,0.63586,0.92743
285.676,36.19177,99.27784,0.6382,0.92705
286.176,36.23686,99.30672,0.63417,0.92667
286.676,36.28218,99.30667,0.63474,0.92628
287.176,36.3274,99.30667,0.63498,0.9259
287.676,36.3727,99.3066,0.63718,0.92552
288.176,36.41782,99.29124,0.63738,0.92514
288.676,36.463,99.2915,0.63586,0.92475
289.176,36.50819,99.29149,0.63843,0.92437
289.676,36.55346,99.29139,0.63698,0.92399
290.176,36.59877,99.2933,0.63729,0.9236
290.676,36.644,99.29148,0.63788,0.92322
291.176,36.6892,99.29149,0.63614,0.92283
291.676,36.73458,99.29178,0.63812,0.92245
292.176,36.7798,99.32189,0.64064,0.92206
292.676,36.82498,99.3113,0.63684,0.92168
293.176,36.8703,99.29149,0.63792,0.92129
293.676,36.9157,99.29091,0.64078,0.9209
294.176,36.96099,99.26181,0.64097,0.92052
294.676,37.00631,99.23106,0.64111,0.92013
295.176,37.05155,99.2312,0.64042,0.91974
295.676,37.09683,99.25394,0.63956,0.91935
296.176,37.14185,99.28387,0.64171,0.91896
296.676,37.18718,99.2839,0.64135,0.91858
297.176,37.23257,99.2839,0.64204,0.91819
297.676,37.27794,99.2839,0.64222,0.9178
298.176,37.3235,99.2864,0.64485,0.91741
298.676,37.36906,99.29157,0.64544,0.91702
299.176,37.41444,99.26123,0.64452,0.91663
299.676,37.46002,99.26137,0.64529,0.91624
300.176,37.50535,99.29145,0.6467,0.91584
300.676,37.5507,99.29175,0.64729,0.91545
301.176,37.59615,99.2612,0.64759,0.91506
301.676,37.64159,99.253,0.64856,0.91467
302.176,37.68717,99.25356,0.64888,0.91428
302.676,37.73277,99.25356,0.64901,0.91388
303.176,37.7782,99.25401,0.6516,0.91349
303.676,37.8236,99.28387,0.65087,0.9131
304.176,37.86892,99.2839,0.65063,0.9127
304.676,37.9142,99.2839,0.64894,0.91231
305.176,37.95978,99.28398,0.65123,0.91191
305.676,38.0054,99.3142,0.65024,0.91152
306.176,38.05079,99.28301,0.65123,0.91112
306.676,38.0965,99.28392,0.6541,0.91073
307.176,38.14192,99.29214,0.65301,0.91033
307.676,38.18738,99.2915,0.65503,0.90994
308.176,38.23299,99.29149,0.65394,0.90954
308.676,38.27851,99.2915,0.65672,0.90914
309.176,38.32395,99.32121,0.65822,0.90875
309.676,38.36956,99.29133,0.65801,0.90835
310.176,38.41519,99.29088,0.65888,0.90795
310.676,38.46071,99.2563,0.66035,0.90755
311.176,38.5066,99.2334,0.65994,0.90716
311.676,38.55222,99.2333,0.66022,0.90676
312.176,38.5978,99.23145,0.66015,0.90636
312.676,38.64338,99.26369,0.65919,0.90596
313.176,38.68902,99.2637,0.66111,0.90556
313.676,38.73464,99.2651,0.66067,0.90516
314.176,38.78035,99.26398,0.66337,0.90476
314.676,38.82597,99.12528,0.66601,0.90436
315.176,38.87161,99.3369,0.6643,0.90396
315.676,38.9171,99.34487,0.66266,0.90356
316.176,38.9626,99.3014,0.66481,0.90316
316.676,39.00822,99.26697,0.66724,0.90276
317.176,39.0538,99.29828,0.66732,0.90235
317.676,39.0996,99.26895,0.66658,0.90195
318.176,39.14541,99.27017,0.66759,0.90155
318.676,39.19137,99.26341,0.67077,0.90115
319.176,39.23727,99.26762,0.66938,0.90074
319.676,39.28306,99.3005,0.66894,0.90034
320.176,39.3288,99.26897,0.67079,0.89994
320.676,39.37457,99.26897,0.67101,0.89953
321.176,39.42017,99.26897,0.67197,0.89913
321.676,39.46594,99.2111,0.67249,0.89873
322.176,39.51164,99.10053,0.67347,0.89832
322.676,39.55742,99.4036,0.67298,0.89792
323.176,39.6033,99.31571,0.67318,0.89751
323.676,39.64914,99.28645,0.67478,0.89711
324.176,39.69513,99.25498,0.67605,0.8967
324.676,39.7409,99.256,0.67923,0.8963
325.176,39.78673,99.22585,0.68011,0.89589
325.676,39.8325,99.25833,0.68133,0.89548
326.176,39.87839,99.25633,0.68104,0.89508
326.676,39.92429,99.25632,0.68032,0.89467
327.176,39.9702,99.25632,0.68053,0.89426
327.676,40.01614,99.25632,0.68014,0.89386
328.176,40.06193,99.25632,0.68536,0.89345
328.676,40.10776,99.25632,0.6847,0.89304
329.176,40.15364,99.2402,0.68453,0.89263
329.676,40.19939,99.25522,0.68758,0.89223
330.176,40.24524,99.2598,0.68717,0.89182
330.676,40.29102,99.21082,0.68775,0.89141
331.176,40.33684,99.21117,0.68668,0.891
331.676,40.38262,99.2332,0.68848,0.89059
332.176,40.4285,99.2333,0.68709,0.89018
332.676,40.47429,99.2333,0.68667,0.88977
333.176,40.5203,99.2333,0.68946,0.88936
333.676,40.56624,99.2628,0.68917,0.88895
334.176,40.61218,99.2637,0.69036,0.88854
334.676,40.65803,99.2637,0.69092,0.88813
335.176,40.704,99.2637,0.69152,0.88772
335.676,40.74988,99.2637,0.6934,0.88731
336.176,40.79557,99.2636,0.69446,0.8869
336.676,40.84151,99.23838,0.6923,0.88649
337.176,40.88746,99.2333,0.69345,0.88607
337.676,40.93332,99.2338,0.69649,0.88566
338.176,40.97917,99.256,0.69666,0.88525
338.676,41.0252,99.24508,0.69577,0.88484
339.176,41.0712,99.22598,0.69831,0.88443
339.676,41.11719,99.226,0.69813,0.88401
340.176,41.1631,99.23178,0.69622,0.8836
340.676,41.20923,99.25609,0.70093,0.88319
341.176,41.25521,99.2529,0.69848,0.88277
341.676,41.3012,99.24093,0.70111,0.88236
342.176,41.34725,99.2409,0.69807,0.88195
342.676,41.39333,99.2409,0.6986,0.88153
343.176,41.4394,99.24091,0.6998,0.88112
343.676,41.48555,99.20912,0.70211,0.8807
344.176,41.53156,99.24365,0.69692,0.88029
344.676,41.5777,99.27404,0.69843,0.87988
345.176,41.62378,99.27409,0.69825,0.87946
345.676,41.66986,99.24116,0.69994,0.87905
346.176,41.7159,99.24115,0.70155,0.87863
346.676,41.762,99.24115,0.70288,0.87821
347.176,41.80826,99.24114,0.70322,0.8778
347.676,41.8544,99.24757,0.70176,0.87738
348.176,41.90062,99.28716,0.70225,0.87697
348.676,41.94683,99.2713,0.70348,0.87655
349.176,41.99284,99.24719,0.70384,0.87613
349.676,42.0389,99.22944,0.70458,0.87572
350.176,42.08473,99.1979,0.70576,0.8753
350.676,42.13084,99.168,0.70515,0.87488
351.176,42.177,99.19798,0.70742,0.87447
351.676,42.22323,99.19816,0.7086,0.87405
352.176,42.26967,99.19816,0.71071,0.87363
352.676,42.31613,99.19816,0.70757,0.87321
353.176,42.36238,99.19816,0.7081,0.8728
353.676,42.40867,99.19826,0.70999,0.87238
354.176,42.4549,99.16767,0.70896,0.87196
354.676,42.50107,99.1678,0.70975,0.87154
355.176,42.54743,99.18476,0.70797,0.87112
355.676,42.59387,99.19816,0.70831,0.8707
356.176,42.64022,99.19816,0.71084,0.87029
356.676,42.68665,99.19816,0.71052,0.86987
357.176,42.733,99.1982,0.71064,0.86945
357.676,42.77925,99.16893,0.71224,0.86903
358.176,42.8256,99.1468,0.71254,0.86861
358.676,42.872,99.13769,0.71586,0.86819
359.176,42.9184,99.16524,0.71516,0.86777
359.676,42.96483,99.1689,0.71564,0.86735
360.176,43.01116,99.13765,0.71854,0.86693
360.676,43.05747,99.13766,0.71791,0.86651
361.176,43.10372,99.10985,0.71714,0.86609
361.676,43.1501,99.10736,0.71741,0.86567
362.176,43.1965,99.10736,0.71868,0.86525
362.676,43.24297,99.10755,0.72277,0.86483
363.176,43.28941,99.1378,0.72096,0.86441
363.676,43.33558,99.13584,0.72252,0.86399
364.176,43.38204,99.1074,0.72346,0.86356
364.676,43.4284,99.11278,0.72414,0.86314
365.176,43.47483,99.11495,0.72461,0.86272
365.676,43.52131,99.11477,0.72522,0.8623
366.176,43.5681,99.08454,0.72598,0.86188
366.676,43.61465,99.08452,0.72493,0.86146
367.176,43.6611,99.1156,0.72607,0.86103
367.676,43.7075,99.11493,0.7268,0.86061
368.176,43.75397,99.10667,0.72949,0.86019
368.676,43.80052,99.077,0.73136,0.85977
369.176,43.847,99.07701,0.73125,0.85934
369.676,43.8936,99.07701,0.7321,0.85892
370.176,43.94001,99.07701,0.73138,0.8585
370.676,43.98638,99.10338,0.73402,0.85808
371.176,44.03259,99.0873,0.73482,0.85765
371.676,44.07886,99.077,0.73442,0.85723
372.176,44.12543,99.07701,0.73569,0.85681
372.676,44.1721,99.07701,0.73728,0.85638
373.176,44.2188,99.07769,0.7384,0.85596
373.676,44.26577,99.04682,0.73859,0.85554
374.176,44.31234,99.03402,0.74082,0.85511
374.676,44.3589,99.04615,0.74051,0.85469
375.176,44.4054,99.0562,0.74131,0.85427
375.676,44.45192,99.04682,0.74341,0.85384
376.176,44.49853,99.0647,0.74025,0.85342
376.676,44.545,99.04703,0.74442,0.85299
377.176,44.59167,98.9919,0.74395,0.85257
377.676,44.63827,98.99372,0.744,0.85214
378.176,44.68504,99.02525,0.74601,0.85172
378.676,44.73178,99.02413,0.74712,0.8513
379.176,44.77854,99.0227,0.74866,0.85087
379.676,44.82515,99.05449,0.74568,0.85045
380.176,44.872,99.05471,0.74614,0.85002
380.676,44.91867,99.03935,0.74862,0.8496
381.176,44.96559,99.03228,0.74851,0.84917
381.676,45.0124,99.009,0.74933,0.84875
382.176,45.05918,98.9881,0.74854,0.84832
382.676,45.1059,98.97885,0.74751,0.8479
383.176,45.15256,98.97885,0.7473,0.84747
383.676,45.19919,98.985,0.74603,0.84705
384.176,45.24608,98.98323,0.74572,0.84662
384.676,45.29292,98.97616,0.74628,0.84619
385.176,45.33988,98.9435,0.74553,0.84577
385.676,45.38661,98.93587,0.74613,0.84534
386.176,45.43346,98.93587,0.74527,0.84492
386.676,45.48018,98.93571,0.74627,0.84449
387.176,45.52701,98.8833,0.74641,0.84407
387.676,45.57387,98.85627,0.74938,0.84364
388.176,45.6207,98.62147,0.75057,0.84321
388.676,45.6676,98.69413,0.75439,0.84279
389.176,45.71457,98.79524,0.75015,0.84236
389.676,45.7615,99.11946,0.74821,0.84193
390.176,45.80851,99.13362,0.74651,0.84151
390.676,45.85535,98.84721,0.74697,0.84108
391.176,45.90217,98.80578,0.74845,0.84066
391.676,45.9489,98.8276,0.7502,0.84023
392.176,45.99577,98.8066,0.74808,0.8398
392.676,46.04249,98.80593,0.74949,0.83938
393.176,46.08931,98.77471,0.75009,0.83895
393.676,46.13615,98.76648,0.74845,0.83852
394.176,46.18306,98.74619,0.74911,0.8381
394.676,46.22988,98.7068,0.74809,0.83767
395.176,46.27673,98.70665,0.74607,0.83724
395.676,46.32372,98.71395,0.74586,0.83681
396.176,46.3707,98.7368,0.74399,0.83639
396.676,46.41768,98.73675,0.74795,0.83596
397.176,46.46475,98.69721,0.74668,0.83553
397.676,46.51171,98.6463,0.74902,0.83511
398.176,46.5586,98.51799,0.74904,0.83468
398.676,46.60533,98.74915,0.74631,0.83425
399.176,46.65225,98.7171,0.74626,0.83382
399.676,46.69912,98.60335,0.74586,0.8334
400.176,46.74605,98.5731,0.74406,0.83297
400.676,46.79311,98.56658,0.74466,0.83254
401.176,46.8403,98.54961,0.74384,0.83212
401.676,46.88745,98.54276,0.74464,0.83169
402.176,46.93456,98.54276,0.74582,0.83126
402.676,46.98178,98.54255,0.7434,0.83083
403.176,47.0289,98.5123,0.74185,0.83041
403.676,47.07607,98.54369,0.74244,0.82998
404.176,47.12315,98.54286,0.73991,0.82955
404.676,47.17011,98.50985,0.7395,0.82912
405.176,47.2171,98.47899,0.73906,0.82869
405.676,47.26401,98.44933,0.73847,0.82827
406.176,47.311,98.4191,0.73935,0.82784
406.676,47.35815,98.26393,0.74104,0.82741
407.176,47.40514,98.46933,0.73794,0.82698
407.676,47.4523,98.5436,0.73546,0.82656
408.176,47.49954,98.4316,0.73276,0.82613
408.676,47.54672,98.39402,0.73451,0.8257
409.176,47.59393,98.30351,0.73504,0.82527
409.676,47.6411,98.27423,0.73297,0.82485
410.176,47.68829,98.2754,0.7322,0.82442
410.676,47.73552,98.2754,0.73182,0.82399
411.176,47.78259,98.2754,0.73129,0.82356
411.676,47.82987,98.2681,0.7304,0.82313
412.176,47.87707,98.23557,0.73023,0.82271
412.676,47.92415,98.2176,0.72962,0.82228
413.176,47.97142,98.18714,0.72852,0.82185
413.676,48.0186,98.1593,0.72879,0.82142
414.176,48.06565,98.1567,0.73213,0.821
414.676,48.11295,98.1382,0.73215,0.82057
415.176,48.1603,98.0781,0.73078,0.82014
415.676,48.20765,98.07118,0.73157,0.81971
416.176,48.2552,98.0406,0.73298,0.81928
416.676,48.30249,98.0709,0.73378,0.81886
417.176,48.34968,97.99854,0.73573,0.81843
417.676,48.39687,97.8618,0.73781,0.818
418.176,48.4439,97.7859,0.73681,0.81757
418.676,48.49112,97.75619,0.74056,0.81715
419.176,48.53853,97.75607,0.73949,0.81672
419.676,48.58594,97.78611,0.73951,0.81629
420.176,48.6334,97.71964,0.74336,0.81586
420.676,48.6809,97.6277,0.74792,0.81543
421.176,48.72824,97.54607,0.74909,0.81501
421.676,48.77539,97.52184,0.75141,0.81458
422.176,48.82287,97.48481,0.75636,0.81415
422.676,48.87035,97.45604,0.75746,0.81372
423.176,48.9177,97.38436,0.76307,0.8133
423.676,48.96522,97.34626,0.76419,0.81287
424.176,49.01285,97.31064,0.76927,0.81244
424.676,49.0602,97.2308,0.77132,0.81201
425.176,49.10763,97.16508,0.77567,0.81159
425.676,49.15515,97.15346,0.77906,0.81116
426.176,49.2025,97.10592,0.78032,0.81073
426.676,49.24993,97.02965,0.78439,0.8103
427.176,49.2973,96.99444,0.78909,0.80988
427.676,49.3448,96.92027,0.79292,0.80945
428.176,49.39216,96.85645,0.79744,0.80902
428.676,49.43952,96.81784,0.80116,0.80859
429.176,49.487,96.74206,0.80542,0.80817
429.676,49.53453,96.66642,0.80849,0.80774
430.176,49.582,96.6122,0.81406,0.80731
430.676,49.6293,96.55981,0.81982,0.80689
431.176,49.67675,96.4593,0.8239,0.80646
431.676,49.72421,96.38586,0.83054,0.80603
432.176,49.77172,96.3194,0.83696,0.80561
432.676,49.8193,96.28836,0.83932,0.80518
433.176,49.86692,96.21134,0.84451,0.80475
433.676,49.91452,96.12674,0.85229,0.80432
434.176,49.96216,96.05412,0.85569,0.8039
434.676,50.00975,95.96575,0.86178,0.80347
435.176,50.05733,95.89753,0.86653,0.80304
435.676,50.10491,95.8232,0.87354,0.80262
436.176,50.15253,95.73659,0.88165,0.80219
436.676,50.20003,95.63507,0.8864,0.80176
437.176,50.2476,95.51384,0.89464,0.80134
437.676,50.29511,95.40651,0.90132,0.80091
438.176,50.34257,95.30031,0.90664,0.80049
438.676,50.3902,95.17798,0.91484,0.80006
439.176,50.43799,95.04602,0.92362,0.79963
439.676,50.48591,94.93225,0.93054,0.79921
440.176,50.53363,94.80904,0.93748,0.79878
440.676,50.58135,94.649,0.94633,0.79836
441.176,50.62903,94.53788,0.95633,0.79793
441.676,50.67658,94.4094,0.96172,0.7975
442.176,50.72426,94.28565,0.97009,0.79708
442.676,50.77193,94.20278,0.97803,0.79665
443.176,50.81968,94.00188,0.98702,0.79623
443.676,50.8673,93.8395,0.99771,0.7958
444.176,50.91515,93.73958,1.00589,0.79538
444.676,50.96293,93.5571,1.01462,0.79495
445.176,51.01065,93.34894,1.02605,0.79452
445.676,51.05838,93.19615,1.03447,0.7941
446.176,51.10627,92.98755,1.04766,0.79367
446.676,51.15399,92.78316,1.0572,0.79325
447.176,51.20176,92.59181,1.06725,0.79282
447.676,51.2495,92.33444,1.07683,0.7924
448.176,51.29719,92.1923,1.08487,0.79197
448.676,51.345,91.93849,1.0955,0.79155
449.176,51.39277,91.69363,1.10557,0.79112
449.676,51.44061,91.441,1.11765,0.7907
450.176,51.48852,91.19413,1.1279,0.79028
450.676,51.5362,90.96688,1.13845,0.78985
451.176,51.58408,90.68581,1.1482,0.78943
451.676,51.63179,90.41421,1.16232,0.789
452.176,51.67941,90.13384,1.17252,0.78858
452.676,51.72703,89.82052,1.18249,0.78815
453.176,51.77495,89.48388,1.19498,0.78773
453.676,51.82275,89.164,1.2048,0.78731
454.176,51.87058,88.8048,1.2193,0.78688
454.676,51.91856,88.48302,1.22948,0.78646
455.176,51.96621,88.11503,1.24225,0.78604
455.676,52.01381,87.75084,1.25462,0.78561
456.176,52.06133,87.37351,1.26302,0.78519
456.676,52.109,87.0106,1.27714,0.78477
457.176,52.15665,86.61092,1.29217,0.78434
457.676,52.2045,86.15156,1.30904,0.78392
458.176,52.25222,85.6877,1.31991,0.7835
458.676,52.30002,85.23129,1.33779,0.78307
459.176,52.3476,84.75923,1.34901,0.78265
459.676,52.3956,84.2894,1.36532,0.78223
460.176,52.44345,83.7821,1.38157,0.78181
460.676,52.49136,83.3185,1.39318,0.78138
461.176,52.53923,82.8107,1.40801,0.78096
461.676,52.5873,82.22346,1.42482,0.78054
462.176,52.63511,81.6228,1.43767,0.78012
462.676,52.683,81.0183,1.45006,0.77969
463.176,52.73106,80.3658,1.46743,0.77927
463.676,52.779,79.74378,1.48243,0.77885
464.176,52.82711,79.0753,1.50021,0.77843
464.676,52.87517,78.35499,1.51662,0.77801
465.176,52.9232,77.63333,1.53486,0.77759
465.676,52.971,76.86143,1.54867,0.77717
466.176,53.01894,76.15855,1.5682,0.77674
466.676,53.0668,75.36274,1.58317,0.77632
467.176,53.11461,74.56936,1.60052,0.7759
467.676,53.1625,73.74146,1.62243,0.77548
468.176,53.21063,72.83678,1.64398,0.77506
468.676,53.2586,71.94038,1.65962,0.77464
469.176,53.3068,71.02157,1.67949,0.77422
469.676,53.35491,70.09527,1.69848,0.7738
470.176,53.40295,69.0529,1.71732,0.77338
470.676,53.45091,68.04603,1.73609,0.77296
471.176,53.49904,67.00752,1.75845,0.77254
471.676,53.54715,65.92092,1.77445,0.77212
472.176,53.59515,64.85592,1.79209,0.7717
472.676,53.64343,63.70114,1.81157,0.77128
473.176,53.69165,62.52636,1.83225,0.77086
473.676,53.73972,61.4211,1.85059,0.77044
474.176,53.78796,60.219,1.86912,0.77002
474.676,53.8362,58.99782,1.88554,0.76961
475.176,53.8842,57.7649,1.90561,0.76919
475.676,53.9323,56.40246,1.92666,0.76877
476.176,53.98024,55.14199,1.94165,0.76835
476.676,54.0281,53.84528,1.95749,0.76793
477.176,54.07603,52.4833,1.97344,0.76751
477.676,54.124,51.1173,1.99127,0.76709
478.176,54.1723,49.67443,2.00779,0.76668
478.676,54.22056,48.30795,2.02301,0.76626
479.176,54.2687,46.90846,2.03778,0.76584
479.676,54.31674,45.40488,2.0876,0.76542
480.176,54.36435,43.7524,2.18237,0.76501
480.676,54.41205,41.58623,2.20703,0.76459
481.176,54.4598,39.5809,2.20683,0.76417
481.676,54.5077,37.62997,2.19798,0.76376
482.176,54.55562,35.66363,2.17295,0.76334
482.676,54.60377,33.7961,2.14694,0.76292
483.176,54.65161,32.00328,2.12034,0.76251
483.676,54.6991,30.2835,2.09009,0.76209
484.176,54.74711,28.58294,2.04909,0.76167
484.676,54.79524,26.9074,2.00987,0.76126
485.176,54.8436,25.21236,1.96622,0.76084
485.676,54.8923,23.5445,1.9208,0.76043
486.176,54.9407,22.003,1.87609,0.76001
486.676,54.989,20.49766,1.83024,0.7596
487.176,55.0373,19.01171,1.77873,0.75918
487.676,55.08571,17.46343,1.71895,0.75877
488.176,55.13414,16.08108,1.66172,0.75835
488.676,55.1827,14.78805,1.60434,0.75794
489.176,55.2314,13.4574,1.54467,0.75752
489.676,55.27997,12.19661,1.47825,0.75711
490.176,55.3286,10.93272,1.41243,0.7567
490.676,55.3773,9.82116,1.34682,0.75628
491.176,55.42604,8.79562,1.27355,0.75587
491.676,55.4749,7.7993,1.20783,0.75545
492.176,55.5236,6.89703,1.1392,0.75504
492.676,55.57226,5.98806,1.07111,0.75463
493.176,55.62079,5.27133,1.00468,0.75422
493.676,55.66916,4.52873,0.93811,0.7538
494.176,55.71773,3.96479,0.87922,0.75339
494.676,55.76648,3.40832,0.81703,0.75298
495.176,55.81511,2.88137,0.75753,0.75257
495.676,55.86396,2.46029,0.70517,0.75215
496.176,55.91271,2.07016,0.65111,0.75174
496.676,55.96135,1.6655,0.60172,0.75133
497.176,56.0101,1.41341,0.55159,0.75092
497.676,56.0586,1.17653,0.51051,0.75051
498.176,56.1071,0.90815,0.4659,0.7501
498.676,56.1556,0.70351,0.42552,0.74968
499.176,56.20398,0.56026,0.38496,0.74927
499.676,56.2525,0.40021,0.35328,0.74886
500.176,56.301,0.33692,0.3201,0.74845
500.676,56.34966,0.29245,0.2926,0.74804
501.176,56.39821,0.23613,0.26609,0.74763
501.676,56.44665,0.15809,0.24558,0.74722
502.176,56.49513,0.03801312,0.22533,0.74681
502.676,56.5437,-0.01570221,0.21041,0.7464
503.176,56.59216,-0.08186112,0.19292,0.74599
503.676,56.64079,-0.12017,0.18017,0.74559
504.176,56.68919,-0.09370129,0.17151,0.74518
504.676,56.73755,-0.11269,0.15929,0.74477
505.176,56.7858,-0.14919,0.15315,0.74436
505.676,56.8342,-0.1471,0.14465,0.74395
506.176,56.88256,-0.14712,0.13328,0.74354
506.676,56.93102,-0.13879,0.12665,0.74314
507.176,56.9795,-0.14464,0.11633,0.74273
507.676,57.02789,-0.11842,0.09752968,0.74232
508.176,57.0765,-0.14735,0.06936285,0.74191
508.676,57.125,-0.1638,0.05704139,0.74151
509.176,57.17358,-0.1623,0.05274728,0.7411
509.676,57.22217,-0.16232,0.05284427,0.74069
510.176,57.27069,-0.18606,0.06012526,0.74029
510.676,57.3193,-0.1924,0.06726643,0.73988
511.176,57.36796,-0.16423,0.07631118,0.73947
511.676,57.41658,-0.16007,0.08124237,0.73907
512.176,57.46527,-0.18589,0.08586051,0.73866
512.676,57.51412,-0.16232,0.08788634,0.73826
513.176,57.5626,-0.1623,0.08859965,0.73785
513.676,57.6113,-0.16264,0.09206671,0.73745
514.176,57.65993,-0.12473,0.09209964,0.73704
514.676,57.7086,-0.10944,0.09439304,0.73664
515.176,57.75745,-0.10943,0.09416372,0.73623
515.676,57.80619,-0.11062,0.09309416,0.73583
516.176,57.85505,-0.1692,0.09215942,0.73543
516.676,57.90387,-0.13389,0.0926847,0.73502
517.176,57.9526,-0.10431,0.093075,0.73462
517.676,58.00145,-0.15829,0.09410969,0.73422
518.176,58.05016,-0.17272,0.09035404,0.73381
518.676,58.09873,-0.15511,0.09131633,0.73341
519.176,58.14744,-0.15672,0.09447401,0.73301
519.676,58.196,-0.1293,0.08977658,0.7326
520.176,58.2446,-0.11648,0.09072883,0.7322
520.676,58.29326,-0.1442,0.09040858,0.7318
521.176,58.34185,-0.14713,0.08982953,0.7314
521.676,58.39055,-0.14756,0.09131035,0.731
522.176,58.43917,-0.17725,0.09117128,0.7306
522.676,58.48796,-0.17731,0.09058293,0.7302
523.176,58.5368,-0.14634,0.09338651,0.72979
523.676,58.5854,-0.14713,0.09231354,0.72939
524.176,58.6344,-0.14726,0.08999157,0.72899
524.676,58.6831,-0.11663,0.09104536,0.72859
525.176,58.73197,-0.11679,0.08957145,0.72819
525.676,58.7808,-0.13348,0.090223,0.72779
526.176,58.8296,-0.14711,0.08535092,0.7274
526.676,58.87834,-0.15474,0.08931101,0.727
527.176,58.92711,-0.12451,0.08736873,0.7266
527.676,58.976,-0.1246,0.08652825,0.7262
528.176,59.025,-0.1246,0.08772397,0.7258
528.676,59.07395,-0.12561,0.08822302,0.7254
529.176,59.1229,-0.11635,0.09071232,0.725
529.676,59.17195,-0.11678,0.08913222,0.72461
530.176,59.2208,-0.1174,0.08959706,0.72421
530.676,59.2698,-0.14705,0.08694078,0.72381
531.176,59.3187,-0.10257,0.088772,0.72341
531.676,59.3676,-0.1343,0.09086705,0.72302
532.176,59.41649,-0.13449,0.09110311,0.72262
532.676,59.46558,-0.13449,0.0912279,0.72222
533.176,59.51444,-0.13449,0.09119422,0.72183
533.676,59.56345,-0.13392,0.09226253,0.72143
534.176,59.61238,-0.14139,0.09199467,0.72104
534.676,59.66138,-0.16485,0.09336794,0.72064
535.176,59.7104,-0.16483,0.09620986,0.72025
535.676,59.75951,-0.16487,0.09286302,0.71985
536.176,59.80846,-0.13444,0.0933047,0.71946
536.676,59.85742,-0.13449,0.09243511,0.71906
537.176,59.90636,-0.13449,0.09245872,0.71867
537.676,59.9552,-0.13449,0.09485426,0.71828
538.176,60.0041,-0.13436,0.09493892,0.71788
538.676,60.05293,-0.1644,0.09433071,0.71749
539.176,60.1013,-0.13474,0.09411488,0.7171
539.676,60.1501,-0.13472,0.09466727,0.7167
540.176,60.19905,-0.16522,0.09547789,0.71631
540.676,60.24808,-0.13389,0.09455438,0.71592
541.176,60.29755,-0.13472,0.09499281,0.71553
541.676,60.3468,-0.13472,0.09182484,0.71513
542.176,60.39594,-0.13472,0.09602879,0.71474
542.676,60.4451,-0.13472,0.09518145,0.71435
543.176,60.49415,-0.13472,0.09654728,0.71396
543.676,60.54329,-0.1353,0.09250349,0.71357
544.176,60.59242,-0.16479,0.09560887,0.71318
544.676,60.64141,-0.16482,0.09355713,0.71279
545.176,60.6904,-0.13486,0.09335566,0.7124
545.676,60.73956,-0.1342,0.09906097,0.71201
546.176,60.7887,-0.16489,0.09663428,0.71162
546.676,60.838,-0.13425,0.09485112,0.71123
547.176,60.887,-0.13472,0.09519011,0.71084
547.676,60.93606,-0.13472,0.09479554,0.71045
548.176,60.98505,-0.13584,0.09138409,0.71006
548.676,61.03386,-0.10507,0.09258213,0.70968
549.176,61.083,-0.13373,0.09344544,0.70929
549.676,61.1321,-0.1649,0.09402379,0.7089
550.176,61.1813,-0.16386,0.09473299,0.70851
550.676,61.23035,-0.11445,0.09647559,0.70813
551.176,61.2795,-0.08412685,0.09565536,0.70774
551.676,61.32855,-0.08453302,0.0972508,0.70735
552.176,61.3776,-0.1123,0.09430849,0.70697
552.676,61.42685,-0.1364,0.09361786,0.70658
553.176,61.47605,-0.14481,0.09475974,0.7062
553.676,61.52519,-0.14483,0.0963881,0.70581
554.176,61.57441,-0.14382,0.09564204,0.70542
554.676,61.6237,-0.17502,0.09510326,0.70504
555.176,61.67284,-0.1429,0.09759372,0.70465
555.676,61.72209,-0.1042,0.09565776,0.70427
556.176,61.77125,-0.12928,0.0945117,0.70389
556.676,61.82045,-0.13472,0.09494949,0.7035
557.176,61.86974,-0.13472,0.09827929,0.70312
557.676,61.919,-0.13464,0.09618419,0.70274
558.176,61.96819,-0.16501,0.09723638,0.70235
558.676,62.0172,-0.1344,0.09949535,0.70197
559.176,62.06613,-0.15711,0.10158,0.70159
559.676,62.11541,-0.16499,0.09951962,0.70121
560.176,62.16476,-0.13539,0.10077,0.70082
560.676,62.21414,-0.10428,0.096945,0.70044
561.176,62.2638,-0.10437,0.09813479,0.70006
561.676,62.31318,-0.1028,0.09797299,0.69968
562.176,62.3625,-0.12708,0.09992576,0.6993
562.676,62.41174,-0.12712,0.09912172,0.69892
563.176,62.461,-0.12713,0.09774471,0.69854
563.676,62.51011,-0.14986,0.09746531,0.69816
564.176,62.5593,-0.13597,0.09925137,0.69778
564.676,62.60841,-0.09643218,0.10138,0.6974
565.176,62.6576,-0.12805,0.09684538,0.69702
565.676,62.70681,-0.15982,0.09932081,0.69664
566.176,62.756,-0.15977,0.10124,0.69626
566.676,62.8052,-0.1587,0.10507,0.69588
567.176,62.8544,-0.19274,0.10256,0.69551
567.676,62.90367,-0.19264,0.10079,0.69513
568.176,62.95304,-0.19337,0.10098,0.69475
568.676,63.0024,-0.16222,0.10276,0.69437
569.176,63.0517,-0.1623,0.1032,0.694
569.676,63.10082,-0.1623,0.10122,0.69362
570.176,63.1501,-0.17001,0.10246,0.69325
570.676,63.19922,-0.20786,0.10632,0.69287
571.176,63.24861,-0.18495,0.10386,0.69249
571.676,63.2979,-0.18505,0.10351,0.69212
572.176,63.3474,-0.18712,0.10432,0.69174
572.676,63.39668,-0.15754,0.10446,0.69137
573.176,63.44601,-0.18502,0.10572,0.69099
573.676,63.49544,-0.18087,0.10565,0.69062
574.176,63.54466,-0.17853,0.10456,0.69025
574.676,63.5941,-0.14704,0.10541,0.68987
575.176,63.6435,-0.14711,0.10344,0.6895
575.676,63.69295,-0.12663,0.10192,0.68913
576.176,63.74239,-0.11703,0.10529,0.68875
576.676,63.79178,-0.14668,0.10388,0.68838
577.176,63.8412,-0.14713,0.10418,0.68801
577.676,63.8905,-0.14713,0.10315,0.68764
578.176,63.94005,-0.14713,0.10158,0.68727
578.676,63.98952,-0.13237,0.10121,0.68689
579.176,64.03908,-0.13211,0.10285,0.68652
579.676,64.0885,-0.16234,0.0995604,0.68615
580.176,64.13803,-0.1623,0.09954676,0.68578
580.676,64.18755,-0.1623,0.10426,0.68541
581.176,64.23721,-0.1623,0.10292,0.68504
581.676,64.28685,-0.1623,0.1033,0.68467
582.176,64.33652,-0.16186,0.10333,0.6843
582.676,64.3862,-0.14704,0.10299,0.68394
583.176,64.43568,-0.14714,0.10741,0.68357
583.676,64.48526,-0.11508,0.10333,0.6832
584.176,64.5349,-0.14554,0.10505,0.68283
584.676,64.58457,-0.14713,0.10445,0.68246
585.176,64.63407,-0.14713,0.10494,0.6821
585.676,64.68332,-0.14713,0.1061,0.68173
586.176,64.73291,-0.14713,0.10664,0.68136
586.676,64.7824,-0.14714,0.10428,0.681
587.176,64.83202,-0.16622,0.1014,0.68063
587.676,64.8819,-0.14701,0.10424,0.68027
588.176,64.93133,-0.14718,0.10444,0.6799
588.676,64.9807,-0.15473,0.10167,0.67953
589.176,65.03016,-0.15467,0.10176,0.67917
589.676,65.07965,-0.17743,0.10181,0.67881
590.176,65.12931,-0.17803,0.10389,0.67844
590.676,65.1791,-0.17155,0.1034,0.67808
591.176,65.2287,-0.14714,0.10656,0.67771
591.676,65.27832,-0.14713,0.1052,0.67735
592.176,65.32778,-0.14612,0.10466,0.67699
592.676,65.37729,-0.17766,0.10341,0.67662
593.176,65.4269,-0.14705,0.10532,0.67626
593.676,65.4764,-0.17354,0.10061,0.6759
594.176,65.52617,-0.17748,0.10344,0.67554
594.676,65.57581,-0.17245,0.10496,0.67518
595.176,65.62545,-0.12466,0.10654,0.67482
595.676,65.6752,-0.12451,0.10405,0.67446
596.176,65.72471,-0.18835,0.09878869,0.6741
596.676,65.7743,-0.18505,0.10323,0.67374
597.176,65.82393,-0.18505,0.10214,0.67338
597.676,65.87335,-0.18515,0.10195,0.67302
598.176,65.9228,-0.13408,0.10323,0.67266
598.676,65.97236,-0.1246,0.103,0.6723
599.176,66.0218,-0.13476,0.10316,0.67194
599.676,66.0715,-0.15494,0.10248,0.67158
600.176,66.1212,-0.15494,0.09988603,0.67122
600.676,66.1709,-0.15494,0.09629554,0.67087
601.176,66.22061,-0.15498,0.10025,0.67051
601.676,66.27034,-0.18499,0.10284,0.67015
602.176,66.3201,-0.18506,0.09741933,0.66979
602.676,66.36986,-0.16981,0.10136,0.66944
603.176,66.41974,-0.14713,0.10191,0.66908
603.676,66.46933,-0.14713,0.0999596,0.66873
604.176,66.51907,-0.1475,0.10026,0.66837
604.676,66.56879,-0.17039,0.10042,0.66802
605.176,66.61841,-0.13883,0.10105,0.66766
605.676,66.66815,-0.10947,0.10094,0.66731
606.176,66.71802,-0.13616,0.10379,0.66695
606.676,66.76787,-0.16955,0.10343,0.6666
607.176,66.81765,-0.15634,0.1006,0.66625
607.676,66.86752,-0.10949,0.10005,0.66589
608.176,66.91733,-0.13687,0.09884486,0.66554
608.676,66.9669,-0.13955,0.10033,0.66519
609.176,67.01675,-0.13923,0.09908278,0.66484
609.676,67.06644,-0.10947,0.0974181,0.66448
610.176,67.1162,-0.13868,0.09708715,0.66413
610.676,67.16593,-0.13954,0.09537038,0.66378
611.176,67.21574,-0.13954,0.09887516,0.66343
611.676,67.26562,-0.13943,0.10095,0.66308
612.176,67.31544,-0.14595,0.09791163,0.66273
612.676,67.36528,-0.13953,0.09505292,0.66238
613.176,67.41505,-0.13954,0.09661465,0.66203
613.676,67.46469,-0.13954,0.09651479,0.66168
614.176,67.5144,-0.14284,0.09606273,0.66133
614.676,67.56426,-0.1451,0.09813858,0.66098
615.176,67.61415,-0.16984,0.10094,0.66064
615.676,67.664,-0.16988,0.09954511,0.66029
616.176,67.7139,-0.16988,0.10064,0.65994
616.676,67.76386,-0.16988,0.10181,0.65959
617.176,67.8138,-0.16988,0.09855588,0.65925
617.676,67.8639,-0.16988,0.10099,0.6589
618.176,67.91404,-0.15274,0.10074,0.65855
618.676,67.96401,-0.12296,0.10181,0.65821
619.176,68.01396,-0.12442,0.09837739,0.65786
619.676,68.06392,-0.14929,0.09665208,0.65752
620.176,68.11375,-0.14797,0.09918029,0.65717
620.676,68.1635,-0.1772,0.09946814,0.65683
621.176,68.2135,-0.17353,0.0989324,0.65648
621.676,68.26343,-0.14715,0.10245,0.65614
622.176,68.31323,-0.14713,0.09886042,0.6558
622.676,68.36328,-0.14713,0.09998687,0.65545
623.176,68.41309,-0.14652,0.10107,0.65511
623.676,68.46289,-0.11811,0.10381,0.65477
624.176,68.51284,-0.08573145,0.09873169,0.65442
624.676,68.56274,-0.14948,0.09856485,0.65408
625.176,68.61277,-0.17717,0.10251,0.65374
625.676,68.6629,-0.17747,0.10379,0.6534
626.176,68.71298,-0.17747,0.10372,0.65306
626.676,68.76303,-0.1623,0.10231,0.65272
627.176,68.81319,-0.11672,0.10158,0.65238
627.676,68.86324,-0.14729,0.10174,0.65204
628.176,68.91334,-0.14713,0.10195,0.6517
628.676,68.96327,-0.14713,0.09967812,0.65136
629.176,69.01346,-0.14713,0.1001,0.65102
629.676,69.06353,-0.14701,0.101,0.65068
630.176,69.11345,-0.1776,0.10065,0.65034
630.676,69.16349,-0.14981,0.10032,0.65001
631.176,69.21338,-0.14865,0.09797438,0.64967
631.676,69.26313,-0.11815,0.09825679,0.64933
632.176,69.31304,-0.08718233,0.09800035,0.64899
632.676,69.36286,-0.1482,0.0987642,0.64866
633.176,69.41257,-0.14713,0.09931176,0.64832
633.676,69.46248,-0.14713,0.10017,0.64799
634.176,69.51244,-0.14713,0.09891677,0.64765
634.676,69.56234,-0.14713,0.09799995,0.64732
635.176,69.61231,-0.14713,0.10112,0.64698
635.676,69.66206,-0.14713,0.10212,0.64665
636.176,69.7119,-0.14713,0.09738286,0.64631
636.676,69.7618,-0.14713,0.09971815,0.64598
637.176,69.8118,-0.14713,0.10009,0.64564
637.676,69.86199,-0.14706,0.09743663,0.64531
638.176,69.91218,-0.16911,0.09778781,0.64498
638.676,69.9623,-0.17002,0.10331,0.64465
638.976,69.9924,-0.16251,0.09875806,0.64445