File: 01_Data/LDPE/STA/N2/10K_min/LDPE_STA_N2_10KData_210907_R2.csv
##Temp./Â°C,Time/min,Mass(subtr.2)/%,DSC(subtr.2)/(mW/mg),Sensit./(uV/mW)
49.232,10.01,99.21576,0.01681189,1.03587
49.732,11.30446,99.11997,0.05341185,1.03585
50.232,11.6632,99.1541,0.08860856,1.03582
50.732,11.91475,99.08538,0.11259,1.0358
51.232,12.12176,99.04404,0.13504,1.03577
51.732,12.30056,99.08835,0.15636,1.03575
52.232,12.45861,99.10325,0.17672,1.03572
52.732,12.604,99.06433,0.19213,1.03569
53.232,12.74056,99.0794,0.20558,1.03566
53.732,12.87017,99.03163,0.21962,1.03563
54.232,12.99164,98.99741,0.23744,1.03559
54.732,13.1091,99.02759,0.24893,1.03556
55.232,13.22238,98.9867,0.25984,1.03553
55.732,13.3308,99.03124,0.27106,1.03549
56.232,13.43486,98.98697,0.28096,1.03545
56.732,13.53744,99.03171,0.2926,1.03542
57.232,13.63763,99.02165,0.29838,1.03538
57.732,13.735,98.99407,0.30825,1.03534
58.232,13.8307,99.00294,0.31558,1.0353
58.732,13.92464,99.03875,0.32306,1.03525
59.232,14.016,99.03839,0.32858,1.03521
59.732,14.10479,98.99898,0.33548,1.03517
60.232,14.19256,98.99916,0.34029,1.03512
60.732,14.27999,98.9984,0.34531,1.03508
61.232,14.36532,98.99203,0.35335,1.03503
61.732,14.44953,99.02626,0.36039,1.03498
62.232,14.5321,98.9953,0.36322,1.03493
62.732,14.6128,98.99834,0.36775,1.03488
63.232,14.69295,98.99765,0.37227,1.03483
63.732,14.7724,98.97803,0.38158,1.03477
64.232,14.85038,98.99795,0.38572,1.03472
64.732,14.9274,98.96395,0.39132,1.03467
65.232,15.0034,98.97779,0.39667,1.03461
65.732,15.0784,98.99591,0.40013,1.03455
66.232,15.1521,98.9844,0.40418,1.03449
66.732,15.22546,99.00022,0.41041,1.03444
67.232,15.2986,98.97536,0.41529,1.03438
67.732,15.37052,98.98805,0.42226,1.03431
68.232,15.44195,98.9611,0.42834,1.03425
68.732,15.51278,98.95694,0.43054,1.03419
69.232,15.583,98.97281,0.43722,1.03412
69.732,15.65254,98.9922,0.44275,1.03406
70.232,15.72093,98.98115,0.44929,1.03399
70.732,15.7888,98.99271,0.45403,1.03392
71.232,15.85621,98.95815,0.46151,1.03386
71.732,15.92319,98.973,0.46524,1.03379
72.232,15.9896,98.95363,0.47275,1.03372
72.732,16.05556,98.99024,0.47695,1.03364
73.232,16.12105,98.97888,0.48466,1.03357
73.732,16.18621,98.95251,0.48745,1.0335
74.232,16.25067,98.95315,0.49638,1.03342
74.732,16.31496,98.9537,0.50023,1.03335
75.232,16.37869,98.95478,0.50277,1.03327
75.732,16.4421,98.96633,0.51332,1.03319
76.232,16.50468,98.9628,0.51831,1.03311
76.732,16.5666,98.95782,0.52545,1.03303
77.232,16.62879,98.92412,0.53189,1.03295
77.732,16.6908,98.98165,0.53811,1.03287
78.232,16.75262,98.95394,0.54395,1.03279
78.732,16.8136,98.95537,0.55031,1.0327
79.232,16.8742,98.95521,0.55489,1.03262
79.732,16.9345,98.9568,0.55937,1.03253
80.232,16.99485,98.9826,0.56807,1.03244
80.732,17.05474,98.9481,0.57448,1.03236
81.232,17.1142,98.95504,0.58184,1.03227
81.732,17.17336,98.9816,0.58824,1.03218
82.232,17.23216,98.96683,0.5945,1.03209
82.732,17.2909,98.95648,0.59975,1.03199
83.232,17.3494,98.96677,0.60409,1.0319
83.732,17.4075,98.98805,0.6136,1.03181
84.232,17.46549,98.95822,0.61915,1.03171
84.732,17.52296,98.95675,0.62812,1.03161
85.232,17.58015,98.97423,0.63274,1.03152
85.732,17.63724,98.95699,0.64237,1.03142
86.232,17.69406,98.95838,0.64985,1.03132
86.732,17.7506,98.9489,0.66035,1.03122
87.232,17.80671,98.93884,0.66724,1.03112
87.732,17.8627,98.95557,0.6758,1.03102
88.232,17.91825,98.95348,0.68289,1.03091
88.732,17.97351,98.92124,0.68806,1.03081
89.232,18.02889,98.91454,0.69613,1.0307
89.732,18.0842,98.92113,0.68945,1.0306
90.232,18.13937,98.9045,0.68485,1.03049
90.732,18.19438,98.8852,0.69131,1.03038
91.232,18.24897,98.88577,0.69831,1.03027
91.732,18.30335,98.88417,0.70529,1.03016
92.232,18.35756,98.92092,0.70786,1.03005
92.732,18.41166,98.88452,0.70392,1.02994
93.232,18.46557,98.88515,0.69541,1.02982
93.732,18.5194,98.92107,0.68771,1.02971
94.232,18.57287,98.9468,0.68117,1.02959
94.732,18.6262,98.92102,0.67158,1.02948
95.232,18.6795,98.8848,0.66111,1.02936
95.732,18.73235,98.92057,0.65923,1.02924
96.232,18.78529,98.88368,0.65705,1.02912
96.732,18.83825,98.8854,0.65481,1.029
97.232,18.8906,98.89381,0.65546,1.02888
97.732,18.94332,98.89155,0.65682,1.02876
98.232,18.9958,98.92272,0.65824,1.02864
98.732,19.04798,98.88309,0.66188,1.02851
99.232,19.10024,98.9209,0.66957,1.02839
99.732,19.15225,98.88501,0.67599,1.02826
100.232,19.20405,98.92224,0.70228,1.02814
100.732,19.25582,98.88335,0.72154,1.02801
101.232,19.30761,98.90309,0.74213,1.02788
101.732,19.35906,98.88514,0.76235,1.02775
102.232,19.4106,98.88505,0.78236,1.02762
102.732,19.46182,98.85468,0.81225,1.02749
103.232,19.51311,98.86695,0.8544,1.02735
103.732,19.56452,98.88534,0.89981,1.02722
104.232,19.61586,98.88507,0.94491,1.02709
104.732,19.6674,98.87729,0.98527,1.02695
105.232,19.7183,98.88504,1.03091,1.02681
105.732,19.7695,98.9106,1.07219,1.02668
106.232,19.8205,98.88525,1.11551,1.02654
106.732,19.8716,98.86882,1.1567,1.0264
107.232,19.9229,98.88464,1.20074,1.02626
107.732,19.97397,98.87839,1.24615,1.02612
108.232,20.025,98.89494,1.29003,1.02597
108.732,20.07607,98.91157,1.3337,1.02583
109.232,20.12687,98.92084,1.37433,1.02569
109.732,20.17752,98.91717,1.40801,1.02554
110.232,20.2279,98.91794,1.42624,1.02539
110.732,20.2776,98.91811,1.42191,1.02525
111.232,20.32788,98.91351,1.38079,1.0251
111.732,20.3778,98.88123,1.28237,1.02495
112.232,20.42781,98.88238,1.13363,1.0248
112.732,20.47762,98.91301,0.97274,1.02465
113.232,20.527,98.8821,0.83394,1.0245
113.732,20.5762,98.90365,0.72365,1.02435
114.232,20.625,98.88206,0.63984,1.02419
114.732,20.67397,98.88314,0.57351,1.02404
115.232,20.72297,98.8861,0.52567,1.02388
115.732,20.7717,98.88234,0.48942,1.02373
116.232,20.8204,98.8823,0.46135,1.02357
116.732,20.8692,98.90165,0.44211,1.02341
117.232,20.91785,98.88203,0.42476,1.02325
117.732,20.96644,98.8467,0.41139,1.02309
118.232,21.01507,98.8462,0.40436,1.02293
118.732,21.06387,98.88136,0.39836,1.02277
119.232,21.11242,98.88332,0.3928,1.02261
119.732,21.1608,98.84793,0.39106,1.02244
120.232,21.20919,98.88218,0.38913,1.02228
120.732,21.25763,98.8466,0.38747,1.02211
121.232,21.30593,98.81144,0.38536,1.02195
121.732,21.35428,98.8087,0.38633,1.02178
122.232,21.40278,98.8454,0.38588,1.02161
122.732,21.4511,98.81076,0.3869,1.02144
123.232,21.4992,98.84684,0.38684,1.02127
123.732,21.54723,98.84895,0.38424,1.0211
124.232,21.59519,98.81058,0.38425,1.02093
124.732,21.64307,98.8151,0.38753,1.02076
125.232,21.6909,98.84622,0.38874,1.02058
125.732,21.73873,98.84605,0.38827,1.02041
126.232,21.78653,98.8471,0.38778,1.02023
126.732,21.83425,98.84647,0.38797,1.02005
127.232,21.8819,98.84445,0.38861,1.01988
127.732,21.9295,98.81059,0.3901,1.0197
128.232,21.977,98.84809,0.39268,1.01952
128.732,22.02447,98.8458,0.39142,1.01934
129.232,22.072,98.81782,0.39285,1.01916
129.732,22.1194,98.84613,0.39205,1.01898
130.232,22.16679,98.84619,0.39285,1.0188
130.732,22.21423,98.82563,0.39646,1.01861
131.232,22.26151,98.846,0.39585,1.01843
131.732,22.30882,98.84644,0.39526,1.01824
132.232,22.35594,98.81098,0.39941,1.01806
132.732,22.40297,98.8466,0.40029,1.01787
133.232,22.44991,98.8377,0.40132,1.01768
133.732,22.4967,98.8109,0.40081,1.01749
134.232,22.54354,98.7911,0.40159,1.0173
134.732,22.59047,98.81062,0.40331,1.01711
135.232,22.63726,98.81042,0.40332,1.01692
135.732,22.684,98.84666,0.40466,1.01673
136.232,22.73079,98.84647,0.40372,1.01654
136.732,22.7774,98.84729,0.40524,1.01634
137.232,22.82391,98.84597,0.40627,1.01615
137.732,22.87051,98.836,0.40814,1.01595
138.232,22.91701,98.81063,0.409,1.01575
138.732,22.96357,98.81064,0.40845,1.01556
139.232,23.0102,98.8464,0.40876,1.01536
139.732,23.0568,98.8274,0.41021,1.01516
140.232,23.10335,98.81955,0.40935,1.01496
140.732,23.14967,98.81957,0.41026,1.01476
141.232,23.19592,98.82033,0.4125,1.01456
141.732,23.24201,98.84663,0.4115,1.01435
142.232,23.28809,98.84661,0.41545,1.01415
142.732,23.33415,98.81614,0.4138,1.01395
143.232,23.38035,98.81947,0.41349,1.01374
143.732,23.42654,98.81956,0.41464,1.01354
144.232,23.47268,98.81994,0.41413,1.01333
144.732,23.51897,98.85546,0.41661,1.01312
145.232,23.565,98.84557,0.41621,1.01291
145.732,23.61102,98.8464,0.41711,1.0127
146.232,23.65705,98.81912,0.42109,1.01249
146.732,23.70279,98.85341,0.41765,1.01228
147.232,23.74868,98.84646,0.42125,1.01207
147.732,23.79455,98.81878,0.42188,1.01186
148.232,23.84028,98.81087,0.42076,1.01165
148.732,23.886,98.80825,0.42378,1.01143
149.232,23.9319,98.84647,0.42406,1.01122
149.732,23.9778,98.8334,0.42489,1.011
150.232,24.02365,98.84791,0.42486,1.01078
150.732,24.06964,98.84646,0.42626,1.01057
151.232,24.11534,98.81215,0.42559,1.01035
151.732,24.16121,98.8106,0.42646,1.01013
152.232,24.2069,98.81058,0.42664,1.00991
152.732,24.2525,98.84854,0.426,1.00969
153.232,24.29816,98.83122,0.42644,1.00947
153.732,24.34366,98.80988,0.43021,1.00924
154.232,24.38909,98.81062,0.43009,1.00902
154.732,24.43461,98.8362,0.42931,1.0088
155.232,24.47994,98.82853,0.4325,1.00857
155.732,24.5255,98.81076,0.43165,1.00834
156.232,24.57102,98.81057,0.43202,1.00812
156.732,24.61656,98.80471,0.43447,1.00789
157.232,24.66221,98.8109,0.43465,1.00766
157.732,24.7077,98.81087,0.43555,1.00743
158.232,24.75309,98.81087,0.43408,1.0072
158.732,24.7985,98.81087,0.43293,1.00697
159.232,24.84385,98.81152,0.43374,1.00674
159.732,24.8893,98.82902,0.43625,1.00651
160.232,24.9346,98.81045,0.43763,1.00628
160.732,24.9802,98.83742,0.43603,1.00604
161.232,25.02563,98.80298,0.43644,1.00581
161.732,25.07114,98.80163,0.43883,1.00557
162.232,25.11649,98.80163,0.43817,1.00534
162.732,25.16212,98.80164,0.4391,1.0051
163.232,25.20753,98.8039,0.43925,1.00486
163.732,25.25292,98.77515,0.4406,1.00462
164.232,25.29821,98.81093,0.4407,1.00439
164.732,25.3435,98.811,0.44018,1.00415
165.232,25.3888,98.77538,0.44156,1.0039
165.732,25.4341,98.81022,0.442,1.00366
166.232,25.47945,98.8106,0.44226,1.00342
166.732,25.52451,98.8106,0.44122,1.00318
167.232,25.56983,98.8106,0.44525,1.00293
167.732,25.61516,98.81059,0.44452,1.00269
168.232,25.66057,98.8109,0.44527,1.00244
168.732,25.70587,98.79007,0.44804,1.0022
169.232,25.75129,98.81058,0.44779,1.00195
169.732,25.79646,98.79369,0.44712,1.0017
170.232,25.84173,98.77684,0.44685,1.00145
170.732,25.88705,98.82681,0.44887,1.0012
171.232,25.9323,98.8284,0.44819,1.00095
171.732,25.97772,98.84314,0.45212,1.0007
172.232,26.0229,98.82854,0.45034,1.00045
172.732,26.06806,98.82853,0.4484,1.0002
173.232,26.11334,98.82948,0.4514,0.99995
173.732,26.15857,98.7928,0.44879,0.99969
174.232,26.20372,98.79252,0.45258,0.99944
174.732,26.2488,98.82836,0.45259,0.99918
175.232,26.29399,98.81914,0.45273,0.99893
175.732,26.33898,98.7929,0.45425,0.99867
176.232,26.38389,98.82995,0.45499,0.99841
176.732,26.429,98.82853,0.45304,0.99815
177.232,26.4738,98.82853,0.45355,0.9979
177.732,26.5187,98.82854,0.45585,0.99764
178.232,26.56392,98.81925,0.45558,0.99738
178.732,26.609,98.79266,0.45952,0.99711
179.232,26.65428,98.79266,0.45758,0.99685
179.732,26.69932,98.79279,0.45687,0.99659
180.232,26.7443,98.80082,0.45745,0.99633
180.732,26.7892,98.79267,0.45943,0.99606
181.232,26.8341,98.79266,0.45837,0.9958
181.732,26.8789,98.79266,0.46028,0.99553
182.232,26.92369,98.7936,0.45963,0.99527
182.732,26.96865,98.8287,0.4618,0.995
183.232,27.0137,98.7927,0.46154,0.99473
183.732,27.05845,98.79293,0.46163,0.99446
184.232,27.10337,98.79296,0.46161,0.99419
184.732,27.1483,98.8082,0.46133,0.99392
185.232,27.1929,98.80189,0.46297,0.99365
185.732,27.23765,98.8014,0.46435,0.99338
186.232,27.28257,98.7926,0.46364,0.99311
186.732,27.3272,98.79425,0.46209,0.99284
187.232,27.372,98.76601,0.46431,0.99256
187.732,27.41675,98.76559,0.46406,0.99229
188.232,27.4614,98.79301,0.46428,0.99201
188.732,27.50618,98.79294,0.46804,0.99174
189.232,27.551,98.79293,0.46576,0.99146
189.732,27.5958,98.79046,0.4653,0.99118
190.232,27.64068,98.75709,0.46467,0.99091
190.732,27.6855,98.76448,0.46735,0.99063
191.232,27.73009,98.7568,0.46725,0.99035
191.732,27.77478,98.7568,0.468,0.99007
192.232,27.81945,98.7568,0.46922,0.98979
192.732,27.864,98.7568,0.469,0.98951
193.232,27.9086,98.7569,0.46664,0.98923
193.732,27.95338,98.7213,0.46912,0.98894
194.232,27.9981,98.7576,0.46875,0.98866
194.732,28.0428,98.75705,0.46889,0.98838
195.232,28.0875,98.74452,0.47119,0.98809
195.732,28.13213,98.71219,0.46983,0.98781
196.232,28.17673,98.71222,0.47065,0.98752
196.732,28.2212,98.7496,0.47186,0.98723
197.232,28.2656,98.74811,0.47166,0.98695
197.732,28.3102,98.7481,0.47571,0.98666
198.232,28.35473,98.7865,0.47289,0.98637
198.732,28.39932,98.78465,0.47567,0.98608
199.232,28.44394,98.7672,0.47513,0.98579
199.732,28.48848,98.7303,0.47607,0.9855
200.232,28.5331,98.73016,0.47696,0.98521
200.732,28.57759,98.73016,0.47599,0.98492
201.232,28.6223,98.73016,0.47595,0.98462
201.732,28.6669,98.73017,0.47817,0.98433
202.232,28.7115,98.74275,0.48096,0.98404
202.732,28.7562,98.76504,0.47675,0.98374
203.232,28.8006,98.73018,0.47769,0.98345
203.732,28.8451,98.73021,0.48021,0.98315
204.232,28.88983,98.75667,0.47971,0.98286
204.732,28.93461,98.76603,0.48136,0.98256
205.232,28.9793,98.76604,0.48198,0.98226
205.732,29.0241,98.72752,0.48099,0.98196
206.232,29.0687,98.73016,0.48113,0.98166
206.732,29.1131,98.73016,0.4816,0.98136
207.232,29.1575,98.73016,0.47797,0.98106
207.732,29.20202,98.73016,0.4812,0.98076
208.232,29.24656,98.7259,0.48053,0.98046
208.732,29.2911,98.7405,0.48147,0.98016
209.232,29.3357,98.73914,0.48154,0.97985
209.732,29.38053,98.73914,0.48246,0.97955
210.232,29.42523,98.7676,0.48238,0.97925
210.732,29.4699,98.76603,0.48518,0.97894
211.232,29.51452,98.76603,0.48435,0.97864
211.732,29.5591,98.76611,0.48114,0.97833
212.232,29.6036,98.72997,0.48401,0.97802
212.732,29.64817,98.73016,0.48825,0.97772
213.232,29.6929,98.73016,0.48352,0.97741
213.732,29.73757,98.73016,0.48614,0.9771
214.232,29.78221,98.73016,0.48655,0.97679
214.732,29.82678,98.72997,0.48915,0.97648
215.232,29.87136,98.76664,0.48648,0.97617
215.732,29.9158,98.74895,0.48701,0.97586
216.232,29.9604,98.73913,0.48758,0.97555
216.732,30.00494,98.7392,0.48989,0.97523
217.232,30.0494,98.73007,0.48852,0.97492
217.732,30.0939,98.73031,0.48379,0.97461
218.232,30.1384,98.6948,0.4884,0.97429
218.732,30.18305,98.69456,0.48969,0.97398
219.232,30.22778,98.69461,0.49102,0.97366
219.732,30.2724,98.7295,0.48968,0.97335
220.232,30.317,98.73016,0.49281,0.97303
220.732,30.36165,98.73016,0.49088,0.97271
221.232,30.4062,98.73007,0.4913,0.97239
221.732,30.4508,98.7652,0.48973,0.97208
222.232,30.4955,98.73016,0.49143,0.97176
222.732,30.54011,98.73016,0.49128,0.97144
223.232,30.5847,98.73016,0.49424,0.97112
223.732,30.62932,98.73016,0.49164,0.9708
224.232,30.6738,98.73017,0.49388,0.97048
224.732,30.71851,98.69716,0.49554,0.97015
225.232,30.76303,98.7116,0.49536,0.96983
225.732,30.8077,98.73014,0.49441,0.96951
226.232,30.8523,98.73016,0.49454,0.96918
226.732,30.8968,98.73016,0.49383,0.96886
227.232,30.9414,98.7308,0.49441,0.96854
227.732,30.98602,98.69532,0.49549,0.96821
228.232,31.03068,98.73014,0.49559,0.96788
228.732,31.07538,98.73016,0.49542,0.96756
229.232,31.12025,98.73017,0.49621,0.96723
229.732,31.1649,98.7423,0.49503,0.9669
230.232,31.2096,98.76608,0.49914,0.96657
230.732,31.2542,98.72998,0.49883,0.96625
231.232,31.2988,98.73016,0.49944,0.96592
231.732,31.3436,98.7302,0.49741,0.96559
232.232,31.38832,98.75277,0.49751,0.96526
232.732,31.43298,98.76603,0.4987,0.96492
233.232,31.47767,98.76136,0.49829,0.96459
233.732,31.52246,98.73021,0.50086,0.96426
234.232,31.567,98.73016,0.50043,0.96393
234.732,31.6117,98.73017,0.50159,0.96359
235.232,31.65632,98.73159,0.50115,0.96326
235.732,31.70102,98.69448,0.49995,0.96293
236.232,31.7458,98.72959,0.50089,0.96259
236.732,31.7905,98.73016,0.50044,0.96226
237.232,31.83522,98.73016,0.49913,0.96192
237.732,31.8801,98.73016,0.50149,0.96158
238.232,31.9246,98.73016,0.50189,0.96125
238.732,31.9693,98.73016,0.50324,0.96091
239.232,32.01408,98.73016,0.50362,0.96057
239.732,32.05876,98.73016,0.50399,0.96023
240.232,32.10346,98.73204,0.50259,0.95989
240.732,32.14839,98.71709,0.50443,0.95955
241.232,32.1931,98.73016,0.50336,0.95921
241.732,32.23782,98.73016,0.50112,0.95887
242.232,32.2826,98.73016,0.50627,0.95853
242.732,32.3274,98.73034,0.50728,0.95819
243.232,32.3722,98.69414,0.50459,0.95785
243.732,32.4169,98.70068,0.5078,0.9575
244.232,32.46151,98.7401,0.50741,0.95716
244.732,32.50611,98.73913,0.50503,0.95682
245.232,32.55038,98.7392,0.50536,0.95647
245.732,32.59496,98.70361,0.50758,0.95613
246.232,32.63964,98.70326,0.50824,0.95578
246.732,32.68452,98.70365,0.50988,0.95544
247.232,32.72947,98.7302,0.50871,0.95509
247.732,32.77478,98.73016,0.51017,0.95474
248.232,32.81958,98.73014,0.50878,0.95439
248.732,32.86443,98.76939,0.50938,0.95405
249.232,32.90916,98.73017,0.50909,0.9537
249.732,32.95389,98.73016,0.51002,0.95335
250.232,32.9987,98.73016,0.51047,0.953
250.732,33.0435,98.73016,0.51308,0.95265
251.232,33.08831,98.73016,0.51357,0.9523
251.732,33.13308,98.7302,0.51202,0.95195
252.232,33.17783,98.70406,0.51489,0.9516
252.732,33.22265,98.70326,0.51441,0.95124
253.232,33.26741,98.70326,0.51454,0.95089
253.732,33.31222,98.70326,0.51368,0.95054
254.232,33.35715,98.70393,0.51603,0.95018
254.732,33.40198,98.73909,0.5153,0.94983
255.232,33.44678,98.73913,0.51685,0.94948
255.732,33.49163,98.73913,0.51431,0.94912
256.232,33.5364,98.73913,0.51585,0.94877
256.732,33.58106,98.73906,0.51598,0.94841
257.232,33.62577,98.70209,0.51408,0.94805
257.732,33.67052,98.70326,0.51453,0.9477
258.232,33.7153,98.7042,0.51655,0.94734
258.732,33.76027,98.69428,0.51684,0.94698
259.232,33.80512,98.67033,0.51729,0.94662
259.732,33.85013,98.69457,0.51551,0.94626
260.232,33.89508,98.69456,0.51783,0.9459
260.732,33.94,98.69457,0.51767,0.94555
261.232,33.98467,98.73167,0.51869,0.94519
261.732,34.02946,98.69174,0.51901,0.94482
262.232,34.07428,98.70195,0.5192,0.94446
262.732,34.11926,98.72745,0.51904,0.9441
263.232,34.1641,98.72745,0.52003,0.94374
263.732,34.2091,98.72742,0.51815,0.94338
264.232,34.25403,98.69421,0.52012,0.94301
264.732,34.2988,98.69158,0.5197,0.94265
265.232,34.34361,98.69155,0.5197,0.94229
265.732,34.38841,98.71651,0.5223,0.94192
266.232,34.4333,98.7567,0.52161,0.94156
266.732,34.47814,98.75408,0.52194,0.94119
267.232,34.52313,98.75408,0.52288,0.94083
267.732,34.56797,98.7552,0.52117,0.94046
268.232,34.61296,98.71811,0.52463,0.9401
268.732,34.65787,98.71821,0.52535,0.93973
269.232,34.70285,98.71821,0.52323,0.93936
269.732,34.74775,98.71821,0.5244,0.93899
270.232,34.79269,98.71818,0.52413,0.93862
270.732,34.8376,98.6811,0.52582,0.93826
271.232,34.88245,98.68234,0.52581,0.93789
271.732,34.92738,98.68234,0.52745,0.93752
272.232,34.97234,98.68234,0.52732,0.93715
272.732,35.01724,98.68234,0.52715,0.93678
273.232,35.0623,98.68234,0.52805,0.93641
273.732,35.10729,98.68234,0.52807,0.93604
274.232,35.15224,98.6815,0.52741,0.93566
274.732,35.19725,98.70035,0.52817,0.93529
275.232,35.24223,98.70025,0.5263,0.93492
275.732,35.28718,98.68168,0.5269,0.93455
276.232,35.3324,98.68256,0.52843,0.93417
276.732,35.3774,98.64599,0.53,0.9338
277.232,35.42236,98.68781,0.5308,0.93343
277.732,35.4673,98.68858,0.52915,0.93305
278.232,35.51228,98.68862,0.52795,0.93268
278.732,35.5573,98.6791,0.52891,0.9323
279.232,35.60239,98.67962,0.52826,0.93192
279.732,35.64752,98.67962,0.52957,0.93155
280.232,35.69256,98.67962,0.52804,0.93117
280.732,35.73774,98.67961,0.53203,0.9308
281.232,35.78287,98.68311,0.52962,0.93042
281.732,35.82804,98.69086,0.5332,0.93004
282.232,35.87336,98.68831,0.53482,0.92966
282.732,35.9186,98.6883,0.53541,0.92928
283.232,35.9639,98.6883,0.53515,0.9289
283.732,36.00912,98.6883,0.53487,0.92853
284.232,36.05431,98.6883,0.5379,0.92815
284.732,36.09942,98.6883,0.53722,0.92777
285.232,36.1446,98.68831,0.53897,0.92738
285.732,36.1898,98.67979,0.54031,0.927
286.232,36.23491,98.6525,0.54258,0.92662
286.732,36.28004,98.6524,0.54211,0.92624
287.232,36.32544,98.67051,0.54216,0.92586
287.732,36.37061,98.6704,0.54281,0.92548
288.232,36.41584,98.67031,0.54389,0.92509
288.732,36.46112,98.67921,0.54304,0.92471
289.232,36.50635,98.67935,0.54365,0.92433
289.732,36.55151,98.67935,0.54567,0.92394
290.232,36.59683,98.67931,0.54806,0.92356
290.732,36.64228,98.6444,0.54652,0.92317
291.232,36.6875,98.64375,0.54817,0.92279
291.732,36.7329,98.64375,0.55075,0.9224
292.232,36.77836,98.64376,0.55065,0.92202
292.732,36.82369,98.65369,0.55158,0.92163
293.232,36.86902,98.65272,0.55197,0.92125
293.732,36.91448,98.65266,0.55582,0.92086
294.232,36.95983,98.66171,0.55587,0.92047
294.732,37.00517,98.66168,0.55661,0.92009
295.232,37.05061,98.66168,0.55859,0.9197
295.732,37.09602,98.6599,0.5592,0.91931
296.232,37.14139,98.6725,0.56081,0.91892
296.732,37.18676,98.67962,0.56193,0.91853
297.232,37.23218,98.6763,0.56407,0.91814
297.732,37.27753,98.66171,0.5661,0.91775
298.232,37.32288,98.66,0.56678,0.91736
298.732,37.3684,98.68865,0.56916,0.91697
299.232,37.4139,98.68859,0.56827,0.91658
299.732,37.45913,98.68859,0.56883,0.91619
300.232,37.50455,98.6887,0.56938,0.9158
300.732,37.54994,98.66173,0.56869,0.91541
301.232,37.5953,98.65273,0.57265,0.91502
301.732,37.6408,98.65272,0.57348,0.91462
302.232,37.68609,98.65272,0.57626,0.91423
302.732,37.7309,98.65272,0.57401,0.91384
303.232,37.77622,98.65272,0.57656,0.91345
303.732,37.8218,98.65077,0.57908,0.91305
304.232,37.86725,98.61707,0.58152,0.91266
304.732,37.9129,98.61712,0.57963,0.91226
305.232,37.9589,98.61712,0.57981,0.91187
305.732,38.00452,98.61712,0.58219,0.91147
306.232,38.04998,98.62605,0.58049,0.91108
306.732,38.09561,98.65268,0.58125,0.91068
307.232,38.1413,98.65272,0.58278,0.91029
307.732,38.1868,98.65272,0.58198,0.90989
308.232,38.23236,98.65272,0.58405,0.9095
308.732,38.2779,98.6527,0.58522,0.9091
309.232,38.32343,98.6251,0.58639,0.9087
309.732,38.369,98.59918,0.58894,0.9083
310.232,38.41448,98.59915,0.58951,0.90791
310.732,38.46006,98.58118,0.58939,0.90751
311.232,38.50582,98.5812,0.5898,0.90711
311.732,38.5513,98.58125,0.58979,0.90671
312.232,38.5968,98.58125,0.59154,0.90631
312.732,38.64235,98.58142,0.59177,0.90591
313.232,38.688,98.61742,0.59217,0.90552
313.732,38.73345,98.6296,0.59316,0.90512
314.232,38.77905,98.6348,0.59477,0.90472
314.732,38.8247,98.60654,0.59352,0.90432
315.232,38.87016,98.60815,0.59679,0.90391
315.732,38.9159,98.6079,0.59538,0.90351
316.232,38.96152,98.59914,0.59742,0.90311
316.732,39.00743,98.59918,0.59861,0.90271
317.232,39.05307,98.59945,0.5974,0.90231
317.732,39.09858,98.5724,0.60057,0.90191
318.232,39.144,98.59232,0.60162,0.90151
318.732,39.18965,98.60769,0.59968,0.9011
319.232,39.23534,98.6168,0.60122,0.9007
319.732,39.28106,98.61685,0.60097,0.9003
320.232,39.32682,98.61685,0.60206,0.89989
320.732,39.37252,98.61685,0.60272,0.89949
321.232,39.41827,98.61685,0.60529,0.89909
321.732,39.46403,98.61681,0.60553,0.89868
322.232,39.50974,98.58086,0.60782,0.89828
322.732,39.5554,98.5796,0.60786,0.89787
323.232,39.60099,98.6169,0.60481,0.89747
323.732,39.64654,98.61685,0.60747,0.89706
324.232,39.69218,98.6169,0.60813,0.89666
324.732,39.7378,98.58129,0.61243,0.89625
325.232,39.78342,98.581,0.61194,0.89585
325.732,39.8292,98.581,0.60841,0.89544
326.232,39.875,98.581,0.60818,0.89503
326.732,39.92075,98.58107,0.61369,0.89463
327.232,39.9666,98.61697,0.6109,0.89422
327.732,40.01246,98.61685,0.61342,0.89381
328.232,40.0582,98.61685,0.61379,0.8934
328.732,40.10407,98.61654,0.61514,0.893
329.232,40.14979,98.5809,0.61459,0.89259
329.732,40.19567,98.54678,0.61437,0.89218
330.232,40.2415,98.5753,0.61542,0.89177
330.732,40.28739,98.58125,0.61783,0.89136
331.232,40.33319,98.5825,0.61625,0.89095
331.732,40.37915,98.5633,0.61826,0.89054
332.232,40.4249,98.5633,0.61791,0.89014
332.732,40.4709,98.5633,0.61726,0.88973
333.232,40.5167,98.5633,0.61945,0.88932
333.732,40.56265,98.5633,0.62218,0.88891
334.232,40.60841,98.5633,0.62131,0.8885
334.732,40.65441,98.58094,0.62386,0.88808
335.232,40.70035,98.59023,0.62526,0.88767
335.732,40.7464,98.55904,0.62208,0.88726
336.232,40.79241,98.55434,0.62288,0.88685
336.732,40.83846,98.55435,0.62503,0.88644
337.232,40.88442,98.55435,0.62748,0.88603
337.732,40.93043,98.55434,0.62898,0.88562
338.232,40.97634,98.56402,0.62858,0.8852
338.732,41.02236,98.56331,0.63805,0.88479
339.232,41.06844,98.5633,0.64544,0.88438
339.732,41.11459,98.5633,0.65128,0.88397
340.232,41.16072,98.5633,0.65736,0.88355
340.732,41.20685,98.5633,0.65937,0.88314
341.232,41.25292,98.56331,0.66396,0.88273
341.732,41.29889,98.56328,0.67019,0.88231
342.232,41.34487,98.5491,0.66719,0.8819
342.732,41.39094,98.53641,0.67242,0.88149
343.232,41.437,98.53641,0.6686,0.88107
343.732,41.48304,98.53641,0.67256,0.88066
344.232,41.52913,98.53633,0.6745,0.88024
344.732,41.57513,98.5725,0.67353,0.87983
345.232,41.6213,98.57209,0.67624,0.87941
345.732,41.66734,98.53631,0.67641,0.879
346.232,41.71338,98.53641,0.67539,0.87858
346.732,41.75952,98.53641,0.67742,0.87817
347.232,41.80557,98.5366,0.67909,0.87775
347.732,41.85136,98.5004,0.67972,0.87734
348.232,41.89776,98.49934,0.67687,0.87692
348.732,41.94389,98.53659,0.68102,0.8765
349.232,41.99005,98.50078,0.6801,0.87609
349.732,42.03633,98.50081,0.68148,0.87567
350.232,42.08279,98.50081,0.68124,0.87525
350.732,42.12901,98.50014,0.68343,0.87484
351.232,42.17536,98.53647,0.68579,0.87442
351.732,42.22166,98.49785,0.68454,0.874
352.232,42.26787,98.46494,0.68677,0.87358
352.732,42.31395,98.46495,0.6854,0.87317
353.232,42.36014,98.4743,0.68864,0.87275
353.732,42.4063,98.5275,0.68897,0.87233
354.232,42.4525,98.52745,0.69193,0.87191
354.732,42.49884,98.5275,0.6915,0.87149
355.232,42.54517,98.47736,0.6905,0.87108
355.732,42.5914,98.456,0.69383,0.87066
356.232,42.6377,98.456,0.69597,0.87024
356.732,42.68399,98.47605,0.69792,0.86982
357.232,42.73024,98.49158,0.69634,0.8694
357.732,42.7766,98.49158,0.6966,0.86898
358.232,42.82292,98.49158,0.69899,0.86856
358.732,42.86934,98.49162,0.69811,0.86814
359.232,42.91565,98.4742,0.69767,0.86772
359.732,42.96202,98.4564,0.70235,0.8673
360.232,43.00843,98.45594,0.70251,0.86688
360.732,43.0546,98.42219,0.70411,0.86646
361.232,43.10106,98.4201,0.70231,0.86604
361.732,43.1474,98.40775,0.703,0.86562
362.232,43.19372,98.42061,0.70357,0.8652
362.732,43.2402,98.4298,0.70722,0.86478
363.232,43.28673,98.45557,0.70726,0.86436
363.732,43.33318,98.4207,0.70737,0.86394
364.232,43.3795,98.4204,0.70899,0.86352
364.732,43.4262,98.4204,0.70855,0.8631
365.232,43.4726,98.4204,0.71323,0.86267
365.732,43.51905,98.4196,0.71472,0.86225
366.232,43.56555,98.44704,0.71171,0.86183
366.732,43.61197,98.44681,0.71468,0.86141
367.232,43.65847,98.4293,0.71504,0.86099
367.732,43.70496,98.3921,0.71521,0.86056
368.232,43.75147,98.3935,0.71694,0.86014
368.732,43.79765,98.3935,0.7207,0.85972
369.232,43.84406,98.3931,0.72306,0.8593
369.732,43.89047,98.3755,0.7215,0.85887
370.232,43.93685,98.37554,0.72156,0.85845
370.732,43.98337,98.37554,0.72543,0.85803
371.232,44.03018,98.36616,0.72285,0.85761
371.732,44.07671,98.33971,0.72795,0.85718
372.232,44.12334,98.33967,0.72711,0.85676
372.732,44.1698,98.33967,0.72756,0.85634
373.232,44.21635,98.33967,0.72907,0.85591
373.732,44.26282,98.33967,0.73128,0.85549
374.232,44.30942,98.33968,0.73225,0.85507
374.732,44.35606,98.32393,0.73246,0.85464
375.232,44.40274,98.2666,0.73363,0.85422
375.732,44.44928,98.26793,0.73718,0.85379
376.232,44.49595,98.2705,0.73827,0.85337
376.732,44.54251,98.30376,0.74088,0.85295
377.232,44.5892,98.3035,0.741,0.85252
377.732,44.63596,98.26825,0.74316,0.8521
378.232,44.68275,98.26821,0.7449,0.85167
378.732,44.72953,98.26821,0.74566,0.85125
379.232,44.7761,98.26821,0.74908,0.85082
379.732,44.82281,98.26821,0.75099,0.8504
380.232,44.8693,98.26828,0.74958,0.84997
380.732,44.91598,98.23219,0.75218,0.84955
381.232,44.96267,98.2323,0.75279,0.84912
381.732,45.00938,98.23232,0.7553,0.8487
382.232,45.05616,98.19784,0.7569,0.84827
382.732,45.10303,98.19674,0.75696,0.84785
383.232,45.14973,98.19675,0.7609,0.84742
383.732,45.19643,98.15987,0.75916,0.847
384.232,45.24329,98.15375,0.7627,0.84657
384.732,45.29005,98.1788,0.76518,0.84615
385.232,45.33699,98.16115,0.76247,0.84572
385.732,45.38382,98.13452,0.76733,0.8453
386.232,45.4307,98.125,0.76815,0.84487
386.732,45.4775,98.125,0.76629,0.84444
387.232,45.52424,98.12442,0.76692,0.84402
387.732,45.57099,98.0894,0.77073,0.84359
388.232,45.61782,98.0894,0.7745,0.84317
388.732,45.66442,98.08949,0.77237,0.84274
389.232,45.71127,98.05251,0.77082,0.84231
389.732,45.75816,98.01759,0.77219,0.84189
390.232,45.80509,98.01767,0.77414,0.84146
390.732,45.85219,98.01652,0.77595,0.84103
391.232,45.89924,98.0535,0.77456,0.84061
391.732,45.9463,98.0226,0.77908,0.84018
392.232,45.99326,97.9804,0.77899,0.83975
392.732,46.0402,97.94618,0.77979,0.83933
393.232,46.08709,97.94629,0.77995,0.8389
393.732,46.13395,97.9089,0.78455,0.83847
394.232,46.18079,97.91134,0.78552,0.83805
394.732,46.2276,97.91572,0.78532,0.83762
395.232,46.27452,97.89262,0.78957,0.83719
395.732,46.32152,97.8886,0.79228,0.83677
396.232,46.36813,97.86578,0.79189,0.83634
396.732,46.41506,97.8659,0.79138,0.83591
397.232,46.4621,97.82974,0.79736,0.83549
397.732,46.509,97.82989,0.79619,0.83506
398.232,46.55596,97.83201,0.79952,0.83463
398.732,46.60315,97.77628,0.79975,0.8342
399.232,46.6502,97.7401,0.8032,0.83378
399.732,46.69712,97.72286,0.80214,0.83335
400.232,46.74413,97.71311,0.80561,0.83292
400.732,46.7911,97.69536,0.80856,0.83249
401.232,46.83812,97.72305,0.81092,0.83207
401.732,46.88518,97.68678,0.81208,0.83164
402.232,46.93233,97.68704,0.81417,0.83121
402.732,46.9794,97.64834,0.81728,0.83078
403.232,47.02642,97.58128,0.8199,0.83036
403.732,47.0735,97.5582,0.82044,0.82993
404.232,47.12058,97.54117,0.82252,0.8295
404.732,47.1677,97.50533,0.82548,0.82907
405.232,47.21484,97.50754,0.82515,0.82865
405.732,47.26194,97.4701,0.82758,0.82822
406.232,47.30895,97.4336,0.82927,0.82779
406.732,47.356,97.39849,0.83456,0.82736
407.232,47.4031,97.36084,0.83675,0.82694
407.732,47.4502,97.34387,0.83757,0.82651
408.232,47.49723,97.32632,0.83876,0.82608
408.732,47.5445,97.29141,0.84257,0.82565
409.232,47.59187,97.2686,0.84559,0.82523
409.732,47.63908,97.24791,0.84707,0.8248
410.232,47.68639,97.16549,0.85221,0.82437
410.732,47.73368,97.15584,0.85565,0.82394
411.232,47.78071,97.13736,0.86047,0.82351
411.732,47.82793,97.0818,0.85907,0.82309
412.232,47.87525,97.02591,0.86569,0.82266
412.732,47.92255,96.99033,0.86871,0.82223
413.232,47.96992,96.93009,0.87085,0.8218
413.732,48.01729,96.88367,0.87559,0.82138
414.232,48.06457,96.84567,0.87694,0.82095
414.732,48.11187,96.80835,0.88269,0.82052
415.232,48.15925,96.74099,0.88366,0.82009
415.732,48.20653,96.71899,0.88706,0.81966
416.232,48.25396,96.6832,0.88947,0.81924
416.732,48.3012,96.64259,0.89299,0.81881
417.232,48.34856,96.56465,0.89713,0.81838
417.732,48.39594,96.46158,0.90086,0.81795
418.232,48.44324,96.4003,0.90476,0.81752
418.732,48.49055,96.32574,0.90914,0.8171
419.232,48.53791,96.22192,0.91551,0.81667
419.732,48.58525,96.17282,0.91542,0.81624
420.232,48.6325,96.11564,0.92103,0.81581
420.732,48.67989,96.08644,0.92448,0.81539
421.232,48.72718,96.04488,0.92743,0.81496
421.732,48.77449,95.96136,0.9335,0.81453
422.232,48.82185,95.95999,0.9387,0.8141
422.732,48.86908,95.91195,0.94375,0.81368
423.232,48.91646,95.83103,0.94826,0.81325
423.732,48.96385,95.77544,0.95219,0.81282
424.232,49.0112,95.69583,0.95943,0.81239
424.732,49.05867,95.6079,0.96166,0.81197
425.232,49.106,95.51983,0.96769,0.81154
425.732,49.1534,95.40871,0.9751,0.81111
426.232,49.20075,95.30668,0.97909,0.81068
426.732,49.24824,95.23589,0.98433,0.81026
427.232,49.29568,95.17084,0.99,0.80983
427.732,49.3431,95.10726,0.99596,0.8094
428.232,49.39049,95.0447,1.0013,0.80897
428.732,49.4379,94.93302,1.00701,0.80855
429.232,49.48534,94.82796,1.01399,0.80812
429.732,49.53288,94.71561,1.01824,0.80769
430.232,49.5805,94.58884,1.02514,0.80727
430.732,49.62811,94.5246,1.03276,0.80684
431.232,49.67565,94.43796,1.04197,0.80641
431.732,49.72322,94.3233,1.04955,0.80598
432.232,49.77083,94.19527,1.05579,0.80556
432.732,49.81842,94.03848,1.06347,0.80513
433.232,49.866,93.96088,1.07056,0.8047
433.732,49.91338,93.83102,1.07835,0.80428
434.232,49.96093,93.67571,1.08746,0.80385
434.732,50.0085,93.55621,1.09504,0.80342
435.232,50.05611,93.4451,1.10403,0.803
435.732,50.1038,93.24112,1.11181,0.80257
436.232,50.15161,93.0825,1.12038,0.80214
436.732,50.19925,92.91503,1.1264,0.80172
437.232,50.24692,92.7577,1.13553,0.80129
437.732,50.29437,92.64192,1.14735,0.80086
438.232,50.34206,92.46884,1.15751,0.80044
438.732,50.3893,92.2834,1.16804,0.80001
439.232,50.43697,92.0656,1.17565,0.79959
439.732,50.48472,91.85509,1.18513,0.79916
440.232,50.53252,91.69645,1.19405,0.79873
440.732,50.5805,91.5064,1.20375,0.79831
441.232,50.62842,91.30317,1.21628,0.79788
441.732,50.6761,91.08235,1.22653,0.79746
442.232,50.72372,90.85688,1.23884,0.79703
442.732,50.77149,90.69221,1.25188,0.7966
443.232,50.81907,90.47036,1.26165,0.79618
443.732,50.8667,90.23777,1.27311,0.79575
444.232,50.91455,90.0094,1.28394,0.79533
444.732,50.96237,89.76437,1.29894,0.7949
445.232,51.01012,89.50197,1.31208,0.79448
445.732,51.05794,89.2496,1.32489,0.79405
446.232,51.10579,88.98662,1.33638,0.79363
446.732,51.1537,88.70006,1.351,0.7932
447.232,51.2017,88.35011,1.36655,0.79278
447.732,51.24972,88.07316,1.38018,0.79235
448.232,51.29772,87.7658,1.39397,0.79193
448.732,51.34538,87.44754,1.40906,0.7915
449.232,51.39282,87.10509,1.42261,0.79108
449.732,51.4407,86.74566,1.43526,0.79065
450.232,51.48853,86.39366,1.45175,0.79023
450.732,51.53621,86.04743,1.46981,0.7898
451.232,51.58465,85.65881,1.48341,0.78938
451.732,51.63243,85.297,1.50153,0.78896
452.232,51.68025,84.90129,1.51792,0.78853
452.732,51.7282,84.51133,1.53286,0.78811
453.232,51.77619,84.06115,1.55329,0.78768
453.732,51.82408,83.6413,1.57007,0.78726
454.232,51.87202,83.20053,1.59002,0.78684
454.732,51.9199,82.76416,1.60704,0.78641
455.232,51.96801,82.25327,1.62402,0.78599
455.732,52.01596,81.76126,1.64752,0.78556
456.232,52.064,81.2428,1.66989,0.78514
456.732,52.11189,80.7389,1.69222,0.78472
457.232,52.15968,80.17979,1.71377,0.78429
457.732,52.20758,79.6154,1.73184,0.78387
458.232,52.2554,79.01044,1.75298,0.78345
458.732,52.30337,78.43088,1.77318,0.78303
459.232,52.35133,77.83006,1.79319,0.7826
459.732,52.3992,77.18763,1.81577,0.78218
460.232,52.4473,76.51949,1.84159,0.78176
460.732,52.49534,75.83787,1.87007,0.78134
461.232,52.54335,75.06883,1.89333,0.78091
461.732,52.5915,74.36554,1.91217,0.78049
462.232,52.63938,73.6131,1.93652,0.78007
462.732,52.68734,72.87337,1.95426,0.77965
463.232,52.7353,71.9999,1.97641,0.77923
463.732,52.7833,71.18049,2.00034,0.7788
464.232,52.83126,70.37635,2.02196,0.77838
464.732,52.87928,69.53312,2.04653,0.77796
465.232,52.9271,68.66594,2.06785,0.77754
465.732,52.97456,67.71761,2.08416,0.77712
466.232,53.02251,66.76315,2.1075,0.7767
466.732,53.0704,65.8685,2.12715,0.77628
467.232,53.11837,64.9148,2.14742,0.77586
467.732,53.1669,63.8968,2.17036,0.77543
468.232,53.21504,62.86755,2.18859,0.77501
468.732,53.26311,61.7845,2.21118,0.77459
469.232,53.31116,60.7623,2.23205,0.77417
469.732,53.3589,59.6725,2.24731,0.77375
470.232,53.4066,58.5603,2.26705,0.77333
470.732,53.45466,57.29211,2.28352,0.77291
471.232,53.50264,56.233,2.30249,0.77249
471.732,53.551,55.0745,2.31364,0.77207
472.232,53.59959,53.8257,2.33145,0.77165
472.732,53.64774,52.58209,2.34713,0.77123
473.232,53.6959,51.30726,2.35715,0.77082
473.732,53.744,50.01018,2.36933,0.7704
474.232,53.7923,48.76755,2.37881,0.76998
474.732,53.8405,47.48401,2.39014,0.76956
475.232,53.88867,46.1466,2.39866,0.76914
475.732,53.9368,44.75496,2.40227,0.76872
476.232,53.98486,43.3841,2.40468,0.7683
476.732,54.03297,42.04671,2.40663,0.76788
477.232,54.08125,40.658,2.40707,0.76747
477.732,54.12956,39.2731,2.40543,0.76705
478.232,54.17782,37.81821,2.39758,0.76663
478.732,54.22576,36.42715,2.38793,0.76621
479.232,54.2737,35.045,2.37805,0.7658
479.732,54.3218,33.6053,2.36469,0.76538
480.232,54.3699,32.13864,2.34923,0.76496
480.732,54.41803,30.6336,2.32989,0.76454
481.232,54.46665,29.2272,2.30907,0.76413
481.732,54.5149,27.84357,2.28527,0.76371
482.232,54.56299,26.42939,2.25612,0.76329
482.732,54.61119,25.0091,2.22646,0.76288
483.232,54.6595,23.57901,2.19194,0.76246
483.732,54.70774,22.21719,2.15167,0.76204
484.232,54.7561,20.87085,2.10985,0.76163
484.732,54.8045,19.5298,2.06503,0.76121
485.232,54.8528,18.1776,2.01344,0.7608
485.732,54.90115,16.92454,1.96339,0.76038
486.232,54.94965,15.6981,1.90834,0.75997
486.732,54.9981,14.4879,1.84844,0.75955
487.232,55.0461,13.3327,1.79046,0.75914
487.732,55.09454,12.16588,1.72312,0.75872
488.232,55.14297,11.03328,1.65951,0.75831
488.732,55.1914,10.00811,1.58945,0.75789
489.232,55.24025,9.0062,1.51621,0.75748
489.732,55.2889,8.0633,1.44635,0.75706
490.232,55.3374,7.1115,1.37643,0.75665
490.732,55.38587,6.30354,1.30362,0.75624
491.232,55.4344,5.54306,1.23178,0.75582
491.732,55.48301,4.79765,1.15782,0.75541
492.232,55.5314,4.10653,1.07996,0.755
492.732,55.58,3.44871,1.008,0.75458
493.232,55.62854,2.85153,0.93833,0.75417
493.732,55.677,2.33172,0.869,0.75376
494.232,55.7258,1.88226,0.80299,0.75334
494.732,55.7744,1.4379,0.74056,0.75293
495.232,55.82289,1.10527,0.6796,0.75252
495.732,55.87149,0.71679,0.62154,0.75211
496.232,55.9199,0.43077,0.56466,0.7517
496.732,55.9683,0.19837,0.51294,0.75128
497.232,56.0167,-0.01114349,0.46841,0.75087
497.732,56.0651,-0.2009,0.42692,0.75046
498.232,56.1137,-0.40029,0.38723,0.75005
498.732,56.16215,-0.55606,0.34801,0.74964
499.232,56.2107,-0.6397,0.31877,0.74923
499.732,56.25915,-0.72815,0.28812,0.74882
500.232,56.3075,-0.81182,0.26656,0.74841
500.732,56.3559,-0.85306,0.24171,0.748
501.232,56.40419,-0.92813,0.21738,0.74759
501.732,56.4528,-0.9827,0.20056,0.74718
502.232,56.5013,-1.01854,0.1843,0.74677
502.732,56.5498,-1.05432,0.17475,0.74636
503.232,56.59836,-1.05422,0.16493,0.74595
503.732,56.64665,-1.09007,0.15006,0.74554
504.232,56.69515,-1.08994,0.13967,0.74513
504.732,56.74358,-1.08993,0.13113,0.74472
505.232,56.79205,-1.12796,0.12574,0.74431
505.732,56.8406,-1.12608,0.12135,0.74391
506.232,56.88913,-1.14373,0.11121,0.7435
506.732,56.9376,-1.15887,0.09278731,0.74309
507.232,56.986,-1.17065,0.06424958,0.74268
507.732,57.0346,-1.16419,0.04154378,0.74227
508.232,57.0831,-1.13508,0.03627603,0.74187
508.732,57.1316,-1.13506,0.03556541,0.74146
509.232,57.1801,-1.13506,0.04169905,0.74105
509.732,57.2286,-1.13506,0.04877914,0.74065
510.232,57.27692,-1.13506,0.05614832,0.74024
510.732,57.3255,-1.13506,0.05949651,0.73983
511.232,57.3742,-1.13426,0.06206733,0.73943
511.732,57.4226,-1.14401,0.06436455,0.73902
512.232,57.47119,-1.14402,0.06564248,0.73862
512.732,57.51987,-1.14399,0.06658446,0.73821
513.232,57.56835,-1.10825,0.07069668,0.73781
513.732,57.61704,-1.13605,0.07181709,0.7374
514.232,57.6658,-1.13576,0.07152286,0.737
514.732,57.71444,-1.11707,0.07026047,0.73659
515.232,57.7632,-1.11712,0.07688022,0.73619
515.732,57.8118,-1.11712,0.07664108,0.73578
516.232,57.86051,-1.10694,0.07756108,0.73538
516.732,57.90911,-1.08126,0.07870805,0.73498
517.232,57.95756,-1.08123,0.08063812,0.73457
517.732,58.0062,-1.13058,0.08066139,0.73417
518.232,58.0548,-1.13506,0.07826711,0.73377
518.732,58.10345,-1.13456,0.08048614,0.73336
519.232,58.1522,-1.10049,0.08313572,0.73296
519.732,58.2009,-1.11684,0.08057974,0.73256
520.232,58.24966,-1.11685,0.08624659,0.73216
520.732,58.2981,-1.1165,0.08197244,0.73176
521.232,58.3468,-1.09032,0.08137944,0.73135
521.732,58.3956,-1.12168,0.08233434,0.73095
522.232,58.4441,-1.11947,0.08468336,0.73055
522.732,58.49305,-1.09023,0.0839164,0.73015
523.232,58.542,-1.09022,0.08157514,0.72975
523.732,58.59069,-1.09022,0.07950764,0.72935
524.232,58.63958,-1.09021,0.0816005,0.72895
524.732,58.6883,-1.10364,0.08415649,0.72855
525.232,58.737,-1.13476,0.08439304,0.72815
525.732,58.78585,-1.13478,0.08703569,0.72775
526.232,58.83458,-1.13478,0.084308,0.72735
526.732,58.8834,-1.1348,0.08801517,0.72695
527.232,58.93165,-1.14432,0.08550663,0.72655
527.732,58.98041,-1.10796,0.09150415,0.72615
528.232,59.02935,-1.10784,0.08917913,0.72576
528.732,59.0783,-1.1442,0.0901804,0.72536
529.232,59.1278,-1.13886,0.09400095,0.72496
529.732,59.1768,-1.10791,0.09069803,0.72456
530.232,59.2256,-1.10788,0.09264842,0.72416
530.732,59.27459,-1.10788,0.09352608,0.72377
531.232,59.3234,-1.10788,0.09695211,0.72337
531.732,59.37243,-1.10788,0.09720644,0.72297
532.232,59.42142,-1.10788,0.09121586,0.72258
532.732,59.47041,-1.10788,0.09511447,0.72218
533.232,59.5194,-1.10787,0.09493043,0.72178
533.732,59.56827,-1.12333,0.0875402,0.72139
534.232,59.61708,-1.12582,0.09260673,0.72099
534.732,59.6659,-1.12582,0.09180737,0.7206
535.232,59.7149,-1.12582,0.0928357,0.7202
535.732,59.76379,-1.12582,0.09160175,0.71981
536.232,59.8127,-1.12582,0.09380022,0.71941
536.732,59.86181,-1.12564,0.09409619,0.71902
537.232,59.91078,-1.1078,0.09513832,0.71863
537.732,59.9597,-1.12592,0.09850482,0.71823
538.232,60.00871,-1.12582,0.09861823,0.71784
538.732,60.05744,-1.12351,0.09431695,0.71744
539.232,60.10631,-1.13448,0.09541014,0.71705
539.732,60.1553,-1.09653,0.09458281,0.71666
540.232,60.20426,-1.11018,0.09616248,0.71627
540.732,60.25336,-1.13624,0.09487453,0.71587
541.232,60.3025,-1.09298,0.09608356,0.71548
541.732,60.3516,-1.09294,0.09216722,0.71509
542.232,60.40054,-1.093,0.09048057,0.7147
542.732,60.44955,-1.12882,0.09549543,0.71431
543.232,60.49844,-1.1144,0.09162936,0.71392
543.732,60.54741,-1.09166,0.09046684,0.71353
544.232,60.5964,-1.12887,0.09152377,0.71314
544.732,60.64552,-1.13069,0.09608692,0.71275
545.232,60.69469,-1.11091,0.09864782,0.71236
545.732,60.74364,-1.11087,0.09568161,0.71197
546.232,60.7926,-1.11087,0.0972436,0.71158
546.732,60.84166,-1.11087,0.09886906,0.71119
547.232,60.8906,-1.11087,0.09961907,0.7108
547.732,60.9397,-1.11087,0.10247,0.71041
548.232,60.98894,-1.11087,0.09735758,0.71002
548.732,61.03819,-1.11087,0.10027,0.70963
549.232,61.08744,-1.11151,0.09959041,0.70924
549.732,61.13675,-1.1467,0.10127,0.70886
550.232,61.1859,-1.14675,0.1041,0.70847
550.732,61.23511,-1.13399,0.1076,0.70808
551.232,61.28434,-1.11106,0.10343,0.7077
551.732,61.33348,-1.1481,0.10918,0.70731
552.232,61.3827,-1.14674,0.10682,0.70692
552.732,61.4319,-1.14647,0.10758,0.70654
553.232,61.4809,-1.11117,0.10907,0.70615
553.732,61.53004,-1.10206,0.1087,0.70577
554.232,61.57926,-1.0866,0.10971,0.70538
554.732,61.62837,-1.1473,0.11002,0.705
555.232,61.67734,-1.14608,0.10812,0.70461
555.732,61.72642,-1.11118,0.10789,0.70423
556.232,61.7755,-1.11114,0.10985,0.70384
556.732,61.82465,-1.11114,0.10779,0.70346
557.232,61.87385,-1.11114,0.11253,0.70308
557.732,61.92321,-1.11114,0.11119,0.70269
558.232,61.97251,-1.11259,0.10918,0.70231
558.732,62.02174,-1.08428,0.10863,0.70193
559.232,62.07108,-1.08424,0.11057,0.70154
559.732,62.1204,-1.08424,0.11347,0.70116
560.232,62.1697,-1.1102,0.11358,0.70078
560.732,62.21905,-1.11984,0.1124,0.7004
561.232,62.26831,-1.11984,0.11171,0.70002
561.732,62.31749,-1.11984,0.1137,0.69964
562.232,62.36681,-1.11984,0.11143,0.69926
562.732,62.41588,-1.11984,0.117,0.69888
563.232,62.46529,-1.11984,0.11773,0.6985
563.732,62.5146,-1.11975,0.11999,0.69812
564.232,62.56395,-1.15711,0.11883,0.69774
564.732,62.61334,-1.1557,0.11874,0.69736
565.232,62.66264,-1.15488,0.1178,0.69698
565.732,62.71212,-1.1021,0.11649,0.6966
566.232,62.76146,-1.10218,0.1105,0.69622
566.732,62.8109,-1.10216,0.11314,0.69584
567.232,62.86036,-1.13805,0.11715,0.69546
567.732,62.9097,-1.13777,0.1118,0.69509
568.232,62.95918,-1.13777,0.11129,0.69471
568.732,63.0086,-1.13761,0.10964,0.69433
569.232,63.0581,-1.12878,0.11232,0.69396
569.732,63.1076,-1.12889,0.11335,0.69358
570.232,63.1571,-1.09211,0.1148,0.6932
570.732,63.20664,-1.09294,0.11547,0.69283
571.232,63.2562,-1.09152,0.11744,0.69245
571.732,63.3057,-1.1289,0.11555,0.69208
572.232,63.35533,-1.11512,0.116,0.6917
572.732,63.40485,-1.10973,0.11964,0.69133
573.232,63.45409,-1.12885,0.11805,0.69095
573.732,63.5035,-1.1288,0.11603,0.69058
574.232,63.55296,-1.13209,0.1157,0.6902
574.732,63.6024,-1.14659,0.11433,0.68983
575.232,63.6519,-1.14672,0.11687,0.68946
575.732,63.7013,-1.11129,0.11361,0.68908
576.232,63.75055,-1.11087,0.11251,0.68871
576.732,63.79991,-1.11087,0.10995,0.68834
577.232,63.8493,-1.13646,0.11261,0.68797
577.732,63.8989,-1.13777,0.11043,0.6876
578.232,63.94837,-1.13777,0.11301,0.68722
578.732,63.9979,-1.13777,0.11428,0.68685
579.232,64.0474,-1.13772,0.11285,0.68648
579.732,64.0968,-1.10236,0.11254,0.68611
580.232,64.14616,-1.1019,0.11514,0.68574
580.732,64.1957,-1.1019,0.11276,0.68537
581.232,64.24505,-1.1019,0.11101,0.685
581.732,64.2945,-1.1019,0.10882,0.68463
582.232,64.34398,-1.10191,0.10972,0.68426
582.732,64.39335,-1.10013,0.10859,0.68389
583.232,64.44275,-1.13778,0.10864,0.68353
583.732,64.49214,-1.13777,0.10692,0.68316
584.232,64.54139,-1.1378,0.10646,0.68279
584.732,64.59071,-1.10166,0.11036,0.68242
585.232,64.6401,-1.10218,0.10669,0.68206
585.732,64.68943,-1.10218,0.10702,0.68169
586.232,64.73872,-1.10217,0.10804,0.68132
586.732,64.78817,-1.11667,0.10797,0.68096
587.232,64.83749,-1.137,0.10702,0.68059
587.732,64.88688,-1.10211,0.1055,0.68022
588.232,64.93633,-1.07601,0.10584,0.67986
588.732,64.98572,-1.10215,0.10602,0.67949
589.232,65.0351,-1.10218,0.10555,0.67913
589.732,65.08457,-1.10218,0.10326,0.67876
590.232,65.13412,-1.10216,0.10444,0.6784
590.732,65.18372,-1.14039,0.10024,0.67804
591.232,65.2332,-1.12006,0.10589,0.67767
591.732,65.2827,-1.10189,0.10465,0.67731
592.232,65.3323,-1.1019,0.10528,0.67695
592.732,65.38195,-1.1019,0.10664,0.67658
593.232,65.43163,-1.1019,0.10398,0.67622
593.732,65.48141,-1.1019,0.10801,0.67586
594.232,65.5309,-1.1019,0.10605,0.6755
594.732,65.58041,-1.1019,0.10707,0.67514
595.232,65.62989,-1.1019,0.10971,0.67478
595.732,65.6793,-1.1019,0.10662,0.67442
596.232,65.72904,-1.1019,0.10857,0.67405
596.732,65.77869,-1.1019,0.10593,0.67369
597.232,65.82844,-1.1019,0.10482,0.67333
597.732,65.87821,-1.1019,0.1045,0.67298
598.232,65.92783,-1.1019,0.1027,0.67262
598.732,65.97746,-1.10717,0.1031,0.67226
599.232,66.02716,-1.1383,0.10003,0.6719
599.732,66.07688,-1.13777,0.10399,0.67154
600.232,66.12654,-1.13777,0.10247,0.67118
600.732,66.1764,-1.13777,0.10325,0.67083
601.232,66.22609,-1.13751,0.09765151,0.67047
601.732,66.27577,-1.07494,0.10128,0.67011
602.232,66.32557,-1.07499,0.09926175,0.66975
602.732,66.3754,-1.08288,0.10034,0.6694
603.232,66.42514,-1.11085,0.09960795,0.66904
603.732,66.47484,-1.11087,0.10205,0.66869
604.232,66.5244,-1.11087,0.1037,0.66833
604.732,66.5741,-1.11083,0.099092,0.66798
605.232,66.6236,-1.07737,0.10355,0.66762
605.732,66.6733,-1.07036,0.09824916,0.66727
606.232,66.72299,-1.11348,0.10185,0.66691
606.732,66.77264,-1.0754,0.09950623,0.66656
607.232,66.8224,-1.07524,0.09819343,0.66621
607.732,66.87213,-1.08406,0.10073,0.66585
608.232,66.92196,-1.13428,0.09901093,0.6655
608.732,66.97175,-1.13777,0.10063,0.66515
609.232,67.02149,-1.10043,0.10078,0.6648
609.732,67.07136,-1.10218,0.10335,0.66444
610.232,67.12114,-1.10218,0.10569,0.66409
610.732,67.17102,-1.10218,0.10457,0.66374
611.232,67.22083,-1.1022,0.10697,0.66339
611.732,67.27054,-1.06625,0.10664,0.66304
612.232,67.32013,-1.06627,0.10695,0.66269
612.732,67.36985,-1.10217,0.10488,0.66234
613.232,67.4196,-1.14064,0.10608,0.66199
613.732,67.46939,-1.09635,0.10962,0.66164
614.232,67.51908,-1.06932,0.10367,0.66129
614.732,67.56882,-1.0693,0.10581,0.66095
615.232,67.61853,-1.0693,0.09939775,0.6606
615.732,67.66832,-1.0686,0.1007,0.66025
616.232,67.718,-1.07741,0.10237,0.6599
616.732,67.76801,-1.14907,0.10308,0.65955
617.232,67.8177,-1.09338,0.10243,0.65921
617.732,67.86723,-1.07826,0.10405,0.65886
618.232,67.91705,-1.07825,0.10572,0.65851
618.732,67.9668,-1.09617,0.10528,0.65817
619.232,68.01664,-1.11386,0.10588,0.65782
619.732,68.06691,-1.10094,0.10788,0.65748
620.232,68.11685,-1.08648,0.1061,0.65713
620.732,68.16696,-1.06961,0.10539,0.65679
621.232,68.21705,-1.0693,0.1059,0.65644
621.732,68.26722,-1.06929,0.10617,0.6561
622.232,68.31703,-1.07112,0.1068,0.65576
622.732,68.3668,-1.05165,0.10545,0.65541
623.232,68.4168,-1.05162,0.10444,0.65507
623.732,68.46647,-1.06855,0.10084,0.65473
624.232,68.51638,-1.08723,0.10455,0.65439
624.732,68.56649,-1.08723,0.10172,0.65404
625.232,68.61639,-1.08723,0.10197,0.6537
625.732,68.66643,-1.08723,0.09975085,0.65336
626.232,68.71651,-1.08723,0.0993248,0.65302
626.732,68.76653,-1.08723,0.10097,0.65268
627.232,68.81661,-1.08723,0.09702607,0.65234
627.732,68.86658,-1.08723,0.09876567,0.652
628.232,68.91649,-1.08723,0.10431,0.65166
628.732,68.96614,-1.08718,0.09862913,0.65132
629.232,69.016,-1.05181,0.09795292,0.65098
629.732,69.06589,-1.08837,0.09864162,0.65064
630.232,69.11587,-1.08716,0.09664904,0.65031
630.732,69.16597,-1.09618,0.10154,0.64997
631.232,69.2161,-1.06018,0.09977329,0.64963
631.732,69.2662,-1.06036,0.0992286,0.64929
632.232,69.31606,-1.08538,0.09880473,0.64896
632.732,69.3659,-1.08723,0.0960819,0.64862
633.232,69.41588,-1.08723,0.09540107,0.64828
633.732,69.46571,-1.08723,0.09467644,0.64795
634.232,69.51573,-1.08723,0.09746817,0.64761
634.732,69.5658,-1.08723,0.09144259,0.64728
635.232,69.6157,-1.08723,0.09049135,0.64694
635.732,69.66564,-1.08723,0.091448,0.64661
636.232,69.71561,-1.08863,0.09218247,0.64627
636.732,69.76555,-1.05115,0.08682617,0.64594
637.232,69.81559,-1.07865,0.08989346,0.64561
637.732,69.86575,-1.07826,0.08666367,0.64527
638.232,69.9157,-1.07826,0.08849587,0.64494
638.732,69.96576,-1.07826,0.0862029,0.64461
639.032,69.99585,-1.07826,0.08595565,0.64441