File: 01_Data/Pine_Lap_Siding_Paint/STA/N2/30K_min/Pine_Lap_Siding_Paint_STA_N2_30KData_220317_R2.csv
##Temp./Â°C,Time/min,Mass loss(subtr.2)/mg,DSC(subtr.2)/(mW/mg),Sensit./(uV/mW)
48.876,10.01,0.00428,0.0005229193,1.08882
49.576,10.55096,0.004241303,0.03120907,1.08823
50.276,10.67715,0.00387862,0.05938662,1.08764
50.976,10.76549,0.0055738,0.07906861,1.08705
51.676,10.83876,0.005307578,0.10106,1.08647
52.376,10.90203,0.005395569,0.12262,1.08588
53.076,10.95842,0.004737712,0.13899,1.08529
53.776,11.00997,0.003401231,0.15588,1.08471
54.476,11.05733,0.00406107,0.17137,1.08412
55.176,11.10242,0.00534752,0.18608,1.08354
55.876,11.14505,0.004763234,0.19941,1.08295
56.576,11.1854,0.005238398,0.21332,1.08237
57.276,11.22414,0.005656776,0.22733,1.08179
57.976,11.2614,0.004099096,0.23586,1.08121
58.676,11.29681,0.004234166,0.24887,1.08063
59.376,11.3316,0.003301002,0.26224,1.08005
60.076,11.36617,0.00534042,0.27368,1.07947
60.776,11.40006,0.005257,0.28375,1.07889
61.476,11.4325,0.00510945,0.29444,1.07832
62.176,11.46433,0.00494279,0.30329,1.07774
62.876,11.49548,0.004370066,0.31271,1.07717
63.576,11.52625,0.00386333,0.32258,1.07659
64.276,11.55638,0.00346575,0.32958,1.07602
64.976,11.58606,0.00412386,0.3381,1.07545
65.676,11.6153,0.00388921,0.34515,1.07488
66.376,11.64412,0.00332083,0.35218,1.07431
67.076,11.67271,0.002441623,0.35751,1.07374
67.776,11.70098,0.002963528,0.36411,1.07317
68.476,11.72907,0.00302858,0.37157,1.0726
69.176,11.75693,0.00270076,0.37942,1.07203
69.876,11.78449,0.002360006,0.3848,1.07147
70.576,11.81177,0.002812787,0.39184,1.0709
71.276,11.83871,0.002623022,0.3985,1.07034
71.976,11.86557,0.00285582,0.40439,1.06977
72.676,11.89228,0.002895075,0.40774,1.06921
73.376,11.91889,0.002964794,0.41613,1.06865
74.076,11.9453,0.003492985,0.42096,1.06809
74.776,11.97155,0.004156619,0.42609,1.06753
75.476,11.99761,0.00347692,0.42954,1.06697
76.176,12.02351,0.00323507,0.43395,1.06641
76.876,12.04928,0.003416195,0.43673,1.06585
77.576,12.07489,0.003266646,0.44172,1.06529
78.276,12.10034,0.0025139,0.44495,1.06474
78.976,12.1258,0.002112878,0.45135,1.06418
79.676,12.1512,0.0009933608,0.4556,1.06363
80.376,12.17638,0.0008486587,0.45735,1.06307
81.076,12.20165,0.00047188,0.46394,1.06252
81.776,12.22675,0.0006320223,0.46664,1.06197
82.476,12.25175,0.001146228,0.46944,1.06142
83.176,12.27678,0.001948699,0.46999,1.06087
83.876,12.30165,0.00347903,0.47529,1.06032
84.576,12.32634,0.003516288,0.47782,1.05977
85.276,12.35106,0.004698044,0.48268,1.05922
85.976,12.37572,0.003871039,0.48594,1.05867
86.676,12.40028,0.004708043,0.48568,1.05813
87.376,12.4248,0.003546443,0.49005,1.05758
88.076,12.44915,0.00313358,0.49261,1.05704
88.776,12.4735,0.002898935,0.4972,1.05649
89.476,12.49775,0.001877315,0.49797,1.05595
90.176,12.522,0.001789867,0.50201,1.05541
90.876,12.54618,0.001879301,0.50512,1.05487
91.576,12.5703,0.00233277,0.50544,1.05433
92.276,12.59426,0.00430321,0.50747,1.05379
92.976,12.6183,0.004418204,0.51018,1.05325
93.676,12.6423,0.002583052,0.51306,1.05271
94.376,12.66625,0.0009483671,0.51448,1.05217
95.076,12.69022,1.84124e-06,0.51438,1.05164
95.776,12.7141,-0.0008368586,0.51643,1.0511
96.476,12.7379,-0.00151682,0.51966,1.05057
97.176,12.76171,-0.00153062,0.52088,1.05003
97.876,12.78541,-0.001536772,0.5236,1.0495
98.576,12.80914,-0.0002664784,0.52269,1.04897
99.276,12.83295,-0.0001953705,0.52335,1.04844
99.976,12.85661,0.0001656999,0.52887,1.04791
100.676,12.88026,0.001097909,0.52822,1.04738
101.376,12.90395,2.486969e-05,0.53004,1.04685
102.076,12.9275,0.001106169,0.53161,1.04632
102.776,12.9512,0.001018851,0.53426,1.04579
103.476,12.97485,-0.0002277839,0.53274,1.04527
104.176,12.99836,-0.0002349456,0.53576,1.04474
104.876,13.02179,0.0003549068,0.53796,1.04422
105.576,13.04538,-0.0002085672,0.53825,1.04369
106.276,13.0689,-0.000271622,0.54031,1.04317
106.976,13.09266,0.00110668,0.54059,1.04265
107.676,13.11629,0.001100258,0.54239,1.04213
108.376,13.13982,0.001099815,0.54408,1.04161
109.076,13.1633,0.001164862,0.54544,1.04109
109.776,13.18675,-0.0001914368,0.54546,1.04057
110.476,13.2102,-0.000220063,0.55018,1.04005
111.176,13.2337,-0.00022009,0.55001,1.03953
111.876,13.2572,-0.0002209546,0.54878,1.03901
112.576,13.2806,-0.000214569,0.54978,1.0385
113.276,13.30406,-0.001185144,0.55119,1.03798
113.976,13.3274,-0.001084727,0.55272,1.03747
114.676,13.3508,-0.000225676,0.55263,1.03696
115.376,13.37405,-0.0002322627,0.55397,1.03644
116.076,13.39735,-0.000661324,0.55644,1.03593
116.776,13.4207,-0.001535066,0.55738,1.03542
117.476,13.44395,-0.00153906,0.55874,1.03491
118.176,13.4672,-0.001664649,0.55896,1.0344
118.876,13.49044,-0.00181857,0.56207,1.03389
119.576,13.5136,-0.001530145,0.56216,1.03339
120.276,13.5368,-0.00153182,0.56548,1.03288
120.976,13.56006,-0.001529028,0.56493,1.03237
121.676,13.58325,-0.002723417,0.56683,1.03187
122.376,13.60646,-0.00284871,0.56498,1.03136
123.076,13.6296,-0.00284999,0.56818,1.03086
123.776,13.65272,-0.00285002,0.56684,1.03036
124.476,13.6758,-0.002850509,0.56909,1.02985
125.176,13.6988,-0.002854098,0.56954,1.02935
125.876,13.7218,-0.001466893,0.57182,1.02885
126.576,13.7448,-0.001533366,0.57232,1.02835
127.276,13.76777,-0.00153978,0.572,1.02785
127.976,13.79076,-0.001540004,0.57468,1.02736
128.676,13.81369,-0.00154001,0.57425,1.02686
129.376,13.83665,-0.001540132,0.5757,1.02636
130.076,13.85931,-0.00154068,0.57586,1.02587
130.776,13.8821,-0.00149954,0.57715,1.02537
131.476,13.9049,-0.002792968,0.57866,1.02488
132.176,13.92769,-0.002857412,0.57751,1.02438
132.876,13.9507,-0.002468727,0.58023,1.02389
133.576,13.9734,-0.001565939,0.58077,1.0234
134.276,13.9962,-0.001541429,0.58267,1.02291
134.976,14.01875,-0.001540034,0.58145,1.02242
135.676,14.04139,-0.00153993,0.584,1.02193
136.376,14.064,-0.00153708,0.5826,1.02144
137.076,14.08655,-0.00148938,0.58617,1.02095
137.776,14.10925,-0.002823882,0.58734,1.02046
138.476,14.1318,-0.002852842,0.58754,1.01998
139.176,14.15448,-0.002850268,0.58975,1.01949
139.876,14.177,-0.00285005,0.58996,1.01901
140.576,14.1995,-0.00285013,0.59091,1.01852
141.276,14.22214,-0.002838745,0.59236,1.01804
141.976,14.2447,-0.002412164,0.59444,1.01756
142.676,14.26745,-0.00144224,0.59469,1.01707
143.376,14.29011,-0.002846871,0.59555,1.01659
144.076,14.3126,-0.00149313,0.59652,1.01611
144.776,14.33506,-0.00153661,0.59844,1.01563
145.476,14.3575,-0.00153987,0.59902,1.01515
146.176,14.37981,-0.001539999,0.60095,1.01468
146.876,14.40214,-0.00154,0.5985,1.0142
147.576,14.42443,-0.00154,0.60144,1.01372
148.276,14.44669,-0.001539966,0.60263,1.01325
148.976,14.46902,-0.001539767,0.60415,1.01277
149.676,14.49135,-0.00154716,0.60609,1.0123
150.376,14.5137,-0.002957893,0.60541,1.01182
151.076,14.53604,-0.00286553,0.60598,1.01135
151.776,14.5583,-0.00286016,0.6087,1.01088
152.476,14.5805,-0.00286,0.60833,1.01041
153.176,14.60266,-0.00285986,0.60971,1.00994
153.876,14.6248,-0.0028567,0.61033,1.00947
154.576,14.64698,-0.002811143,0.61228,1.009
155.276,14.6692,-0.004141543,0.61259,1.00853
155.976,14.6914,-0.00417443,0.61301,1.00806
156.676,14.71365,-0.004248329,0.61474,1.00759
157.376,14.73582,-0.003092164,0.6163,1.00713
158.076,14.758,-0.00317697,0.61503,1.00666
158.776,14.78011,-0.00318001,0.61716,1.0062
159.476,14.80215,-0.003180009,0.61655,1.00573
160.176,14.82425,-0.003180005,0.61884,1.00527
160.876,14.84632,-0.003180072,0.61889,1.00481
161.576,14.86837,-0.00318071,0.61954,1.00434
162.276,14.89054,-0.00317521,0.62182,1.00388
162.976,14.91264,-0.004057917,0.62425,1.00342
163.676,14.93475,-0.004486633,0.62361,1.00296
164.376,14.95684,-0.004499739,0.62431,1.0025
165.076,14.97887,-0.004502896,0.62421,1.00205
165.776,15.0009,-0.0044523,0.62575,1.00159
166.476,15.0229,-0.004394476,0.62502,1.00113
167.176,15.0449,-0.004815568,0.62776,1.00068
167.876,15.06688,-0.00482931,0.62888,1.00022
168.576,15.0888,-0.00482998,0.62882,0.99977
169.276,15.1107,-0.00483,0.62935,0.99931
169.976,15.13272,-0.00483,0.62928,0.99886
170.676,15.15465,-0.00483,0.63318,0.99841
171.376,15.17658,-0.00483,0.63489,0.99795
172.076,15.19863,-0.00483,0.63489,0.9975
172.776,15.22049,-0.00483,0.63658,0.99705
173.476,15.2423,-0.00483,0.63629,0.9966
174.176,15.26425,-0.00483,0.63974,0.99615
174.876,15.28607,-0.00483,0.6386,0.9957
175.576,15.3079,-0.00483,0.64012,0.99526
176.276,15.3299,-0.00483,0.64098,0.99481
176.976,15.35166,-0.004830104,0.64367,0.99436
177.676,15.3735,-0.004833197,0.64325,0.99392
178.376,15.39529,-0.00493942,0.64448,0.99347
179.076,15.417,-0.00584637,0.64419,0.99303
179.776,15.43875,-0.005810995,0.64695,0.99258
180.476,15.46052,-0.00580998,0.64696,0.99214
181.176,15.4823,-0.005809995,0.65009,0.9917
181.876,15.50405,-0.00581,0.64908,0.99126
182.576,15.5257,-0.005810018,0.65076,0.99082
183.276,15.54735,-0.005810235,0.65485,0.99038
183.976,15.56894,-0.005811814,0.65247,0.98994
184.676,15.5906,-0.005791785,0.65401,0.9895
185.376,15.6122,-0.004326089,0.65468,0.98906
186.076,15.63391,-0.004376211,0.6599,0.98862
186.776,15.6555,-0.00439351,0.65706,0.98819
187.476,15.67711,-0.004802322,0.66035,0.98775
188.176,15.69856,-0.005713859,0.65948,0.98731
188.876,15.72013,-0.00569992,0.6633,0.98688
189.576,15.7416,-0.005698785,0.66415,0.98644
190.276,15.7632,-0.00566631,0.66416,0.98601
190.976,15.78483,-0.006743691,0.66373,0.98558
191.676,15.8063,-0.00700961,0.6673,0.98514
192.376,15.82785,-0.007019577,0.66826,0.98471
193.076,15.8493,-0.00701999,0.66725,0.98428
193.776,15.87081,-0.007020022,0.66908,0.98385
194.476,15.89236,-0.00702096,0.66975,0.98342
195.176,15.9138,-0.00704181,0.67179,0.98299
195.876,15.9353,-0.007553479,0.67323,0.98256
196.576,15.95681,-0.007991617,0.67395,0.98214
197.276,15.9782,-0.0080093,0.67168,0.98171
197.976,15.99975,-0.008009994,0.67614,0.98128
198.676,16.0212,-0.00801,0.67622,0.98086
199.376,16.04269,-0.00801,0.67792,0.98043
200.076,16.06418,-0.00801,0.67782,0.98001
200.776,16.0856,-0.00801,0.68077,0.97958
201.476,16.10707,-0.00801,0.67987,0.97916
202.176,16.12845,-0.00801,0.67885,0.97874
202.876,16.1498,-0.00801,0.68325,0.97831
203.576,16.17126,-0.00801,0.68351,0.97789
204.276,16.19262,-0.00801,0.6864,0.97747
204.976,16.214,-0.00801,0.68458,0.97705
205.676,16.23537,-0.00801,0.68601,0.97663
206.376,16.25675,-0.008009997,0.68588,0.97621
207.076,16.27814,-0.00800997,0.68786,0.97579
207.776,16.2995,-0.008009854,0.68833,0.97538
208.476,16.3209,-0.008014516,0.68988,0.97496
209.176,16.34238,-0.00820881,0.69159,0.97454
209.876,16.36374,-0.00896182,0.69102,0.97412
210.576,16.38512,-0.00898813,0.69289,0.97371
211.276,16.40645,-0.0089899,0.69405,0.97329
211.976,16.42771,-0.008989995,0.69474,0.97288
212.676,16.44908,-0.00899,0.69476,0.97247
213.376,16.47041,-0.00899,0.69714,0.97205
214.076,16.49182,-0.00899,0.69996,0.97164
214.776,16.5132,-0.00899,0.69942,0.97123
215.476,16.53451,-0.00899,0.69865,0.97082
216.176,16.55582,-0.00899,0.7004,0.97041
216.876,16.57715,-0.008989999,0.7006,0.97
217.576,16.59851,-0.008989991,0.70162,0.96959
218.276,16.61983,-0.00898998,0.70323,0.96918
218.976,16.64113,-0.008991977,0.70419,0.96877
219.676,16.6625,-0.0090613,0.70738,0.96836
220.376,16.68379,-0.00931048,0.70511,0.96795
221.076,16.70515,-0.009320019,0.7063,0.96755
221.776,16.72649,-0.009329433,0.70714,0.96714
222.476,16.74778,-0.009588316,0.70877,0.96673
223.176,16.76906,-0.009648162,0.70849,0.96633
223.876,16.7904,-0.00965179,0.71288,0.96592
224.576,16.81167,-0.0110399,0.7113,0.96552
225.276,16.83294,-0.01097672,0.71439,0.96512
225.976,16.85419,-0.0109705,0.71317,0.96471
226.676,16.87537,-0.01097003,0.71553,0.96431
227.376,16.8966,-0.01096999,0.71616,0.96391
228.076,16.91793,-0.01096992,0.7152,0.96351
228.776,16.93925,-0.01096948,0.71566,0.96311
229.476,16.9606,-0.01097736,0.71651,0.96271
230.176,16.98189,-0.01025462,0.71849,0.96231
230.876,17.00311,-0.01030501,0.71908,0.96191
231.576,17.02435,-0.01030964,0.72029,0.96151
232.276,17.04553,-0.01030998,0.72135,0.96111
232.976,17.06677,-0.01031007,0.7213,0.96071
233.676,17.08803,-0.01031079,0.72136,0.96032
234.376,17.10928,-0.01031514,0.72356,0.95992
235.076,17.13051,-0.01101317,0.72443,0.95952
235.776,17.15169,-0.01164164,0.72507,0.95913
236.476,17.17286,-0.01267846,0.72781,0.95873
237.176,17.19404,-0.01264488,0.73015,0.95834
237.876,17.2152,-0.01310375,0.72879,0.95794
238.576,17.23645,-0.01393472,0.72973,0.95755
239.276,17.25769,-0.01392421,0.73217,0.95716
239.976,17.27893,-0.01387993,0.73165,0.95676
240.676,17.30017,-0.01525066,0.73468,0.95637
241.376,17.32145,-0.01525033,0.7344,0.95598
242.076,17.34262,-0.01525003,0.73536,0.95559
242.776,17.36384,-0.01524986,0.73519,0.9552
243.476,17.38506,-0.01524761,0.73742,0.95481
244.176,17.40618,-0.0152144,0.74,0.95442
244.876,17.42738,-0.01559859,0.74096,0.95403
245.576,17.44855,-0.0155807,0.74049,0.95364
246.276,17.46973,-0.01558001,0.74054,0.95325
246.976,17.49093,-0.01558,0.74184,0.95287
247.676,17.51214,-0.01558003,0.74275,0.95248
248.376,17.5334,-0.01558067,0.7442,0.95209
249.076,17.5545,-0.01559213,0.74697,0.95171
249.776,17.57566,-0.01589109,0.74571,0.95132
250.476,17.59685,-0.01693268,0.7481,0.95094
251.176,17.618,-0.01689852,0.75147,0.95055
251.876,17.63925,-0.01688044,0.75139,0.95017
252.576,17.66039,-0.01822127,0.75675,0.94978
253.276,17.68149,-0.01821248,0.75477,0.9494
253.976,17.70261,-0.01820998,0.75456,0.94902
254.676,17.72375,-0.01820478,0.75572,0.94863
255.376,17.745,-0.01811974,0.75769,0.94825
256.076,17.7662,-0.01949191,0.76069,0.94787
256.776,17.78734,-0.01952903,0.76109,0.94749
257.476,17.80849,-0.01952996,0.76255,0.94711
258.176,17.8296,-0.01953,0.76382,0.94673
258.876,17.8508,-0.01953,0.76708,0.94635
259.576,17.872,-0.01953,0.76803,0.94597
260.276,17.89295,-0.01953,0.76963,0.94559
260.976,17.914,-0.01953006,0.77224,0.94521
261.676,17.93515,-0.01953097,0.77246,0.94483
262.376,17.95627,-0.01954417,0.77354,0.94445
263.076,17.97759,-0.01999109,0.77766,0.94408
263.776,17.9989,-0.02085014,0.77765,0.9437
264.476,18.01998,-0.02083994,0.78162,0.94332
265.176,18.04115,-0.02091744,0.78281,0.94295
265.876,18.06229,-0.0221585,0.78461,0.94257
266.576,18.08343,-0.02273368,0.783,0.9422
267.276,18.1046,-0.02314729,0.78837,0.94182
267.976,18.1257,-0.02368356,0.78884,0.94145
268.676,18.14688,-0.02446434,0.79187,0.94107
269.376,18.168,-0.02446025,0.7936,0.9407
270.076,18.18919,-0.02446041,0.79721,0.94033
270.776,18.21036,-0.02445696,0.8004,0.93996
271.476,18.2315,-0.02523239,0.79992,0.93958
272.176,18.25263,-0.02575707,0.80374,0.93921
272.876,18.27366,-0.02577039,0.8033,0.93884
273.576,18.29479,-0.0258302,0.80787,0.93847
274.276,18.31587,-0.02716805,0.80912,0.9381
274.976,18.33697,-0.02709419,0.81071,0.93773
275.676,18.35814,-0.02708978,0.81197,0.93736
276.376,18.3793,-0.02708722,0.8154,0.93699
277.076,18.40041,-0.02842157,0.81558,0.93662
277.776,18.4216,-0.02839599,0.81802,0.93625
278.476,18.44276,-0.02815391,0.82075,0.93588
279.176,18.46384,-0.02805383,0.82337,0.93551
279.876,18.48497,-0.02839659,0.82443,0.93514
280.576,18.50604,-0.028411,0.82571,0.93478
281.276,18.52715,-0.02855436,0.82775,0.93441
281.976,18.54832,-0.0297578,0.82896,0.93404
282.676,18.5695,-0.02971371,0.82909,0.93368
283.376,18.5907,-0.03071848,0.82648,0.93331
284.076,18.61185,-0.03083485,0.83112,0.93294
284.776,18.63299,-0.03238965,0.82978,0.93258
285.476,18.65415,-0.03234731,0.82865,0.93221
286.176,18.6753,-0.03324499,0.83238,0.93185
286.876,18.69651,-0.03365265,0.83107,0.93149
287.576,18.7177,-0.03367953,0.83374,0.93112
288.276,18.7389,-0.03399097,0.83265,0.93076
288.976,18.76005,-0.03368034,0.83042,0.93039
289.676,18.78124,-0.03366872,0.83,0.93003
290.376,18.80245,-0.03453206,0.83054,0.92967
291.076,18.8236,-0.03498607,0.8304,0.92931
291.776,18.84473,-0.03523376,0.82822,0.92894
292.476,18.86586,-0.03635211,0.82783,0.92858
293.176,18.887,-0.03631419,0.82764,0.92822
293.876,18.90815,-0.03651049,0.82456,0.92786
294.576,18.92932,-0.03763617,0.82402,0.9275
295.276,18.9505,-0.0383191,0.82255,0.92714
295.976,18.97165,-0.03893031,0.82329,0.92678
296.676,18.99288,-0.03894706,0.82207,0.92642
297.376,19.01405,-0.03913906,0.81927,0.92606
298.076,19.03527,-0.04030619,0.82176,0.9257
298.776,19.05648,-0.04025533,0.81936,0.92534
299.476,19.07767,-0.04139212,0.81812,0.92498
300.176,19.09887,-0.04156325,0.81421,0.92462
300.876,19.12013,-0.04157307,0.81537,0.92427
301.576,19.1413,-0.04367815,0.81183,0.92391
302.276,19.16249,-0.04420365,0.81122,0.92355
302.976,19.18374,-0.04452058,0.81372,0.92319
303.676,19.20491,-0.04552627,0.81109,0.92284
304.376,19.2261,-0.04552035,0.80985,0.92248
305.076,19.2473,-0.04551977,0.81008,0.92212
305.776,19.26853,-0.04551753,0.8063,0.92177
306.476,19.28968,-0.04551075,0.80704,0.92141
307.176,19.31087,-0.04686514,0.808,0.92106
307.876,19.3321,-0.04692959,0.80759,0.9207
308.576,19.3533,-0.04822955,0.80837,0.92034
309.276,19.37456,-0.04955095,0.80722,0.91999
309.976,19.39575,-0.04936893,0.80629,0.91964
310.676,19.41699,-0.05075554,0.80608,0.91928
311.376,19.43825,-0.05077959,0.80601,0.91893
312.076,19.4595,-0.05078964,0.8074,0.91857
312.776,19.48075,-0.05079027,0.80642,0.91822
313.476,19.50196,-0.05080214,0.80773,0.91787
314.176,19.5231,-0.05219361,0.8066,0.91751
314.876,19.54428,-0.05210854,0.80693,0.91716
315.576,19.56554,-0.05218424,0.80485,0.91681
316.276,19.58672,-0.05351124,0.8067,0.91645
316.976,19.6081,-0.0542409,0.80931,0.9161
317.676,19.62934,-0.05566276,0.80996,0.91575
318.376,19.65055,-0.0560489,0.81097,0.9154
319.076,19.6719,-0.05654772,0.81023,0.91505
319.776,19.69316,-0.05739078,0.8087,0.9147
320.476,19.71442,-0.05604746,0.80992,0.91434
321.176,19.73575,-0.05732372,0.80894,0.91399
321.876,19.75704,-0.05736213,0.81269,0.91364
322.576,19.77831,-0.05855898,0.81339,0.91329
323.276,19.79958,-0.05867861,0.81301,0.91294
323.976,19.82077,-0.05907831,0.81229,0.91259
324.676,19.842,-0.05997336,0.81521,0.91224
325.376,19.86335,-0.06133442,0.8144,0.91189
326.076,19.8846,-0.06257392,0.81627,0.91154
326.776,19.90605,-0.06253141,0.81543,0.91119
327.476,19.92742,-0.06392028,0.81834,0.91084
328.176,19.94868,-0.0641565,0.81833,0.91049
328.876,19.97,-0.06547956,0.81929,0.91015
329.576,19.99129,-0.06696993,0.82046,0.9098
330.276,20.01258,-0.06712732,0.82204,0.90945
330.976,20.03395,-0.06841796,0.82165,0.9091
331.676,20.0552,-0.06956533,0.82245,0.90875
332.376,20.07657,-0.06975659,0.82238,0.9084
333.076,20.09788,-0.07139124,0.82657,0.90806
333.776,20.11916,-0.07230962,0.82568,0.90771
334.476,20.14055,-0.07282782,0.82634,0.90736
335.176,20.1619,-0.07334201,0.8283,0.90701
335.876,20.1833,-0.07408402,0.82797,0.90667
336.576,20.20467,-0.0752635,0.83016,0.90632
337.276,20.22607,-0.07547424,0.83018,0.90597
337.976,20.24745,-0.07604229,0.82919,0.90563
338.676,20.26887,-0.07746307,0.82985,0.90528
339.376,20.2902,-0.07857984,0.83156,0.90493
340.076,20.31156,-0.08034022,0.83367,0.90459
340.776,20.3329,-0.08156342,0.83717,0.90424
341.476,20.3542,-0.08173054,0.83808,0.9039
342.176,20.37554,-0.08330202,0.83706,0.90355
342.876,20.39694,-0.08481565,0.84199,0.9032
343.576,20.41831,-0.08599141,0.83646,0.90286
344.276,20.43978,-0.08674659,0.84055,0.90251
344.976,20.46125,-0.08838494,0.83988,0.90217
345.676,20.48266,-0.08957134,0.8415,0.90182
346.376,20.50411,-0.08928761,0.84058,0.90148
347.076,20.52551,-0.09071109,0.84053,0.90113
347.776,20.54693,-0.09236559,0.8415,0.90079
348.476,20.5684,-0.09371833,0.84001,0.90044
349.176,20.5898,-0.09564026,0.83957,0.9001
349.876,20.61115,-0.09772058,0.83859,0.89975
350.576,20.63264,-0.09959225,0.83906,0.89941
351.276,20.65406,-0.1011,0.83965,0.89906
351.976,20.6755,-0.10244,0.8393,0.89872
352.676,20.69699,-0.10433,0.83977,0.89837
353.376,20.7184,-0.10673,0.83732,0.89803
354.076,20.73987,-0.10824,0.83784,0.89769
354.776,20.7613,-0.10973,0.83729,0.89734
355.476,20.78281,-0.11131,0.83523,0.897
356.176,20.8043,-0.11289,0.83582,0.89665
356.876,20.82572,-0.11476,0.83325,0.89631
357.576,20.84724,-0.11637,0.83325,0.89597
358.276,20.86871,-0.11923,0.83383,0.89562
358.976,20.89015,-0.12066,0.8329,0.89528
359.676,20.9116,-0.12258,0.83346,0.89494
360.376,20.93308,-0.12538,0.82796,0.89459
361.076,20.95457,-0.12771,0.83088,0.89425
361.776,20.97608,-0.12932,0.8299,0.89391
362.476,20.9976,-0.13099,0.82882,0.89356
363.176,21.0191,-0.13267,0.82633,0.89322
363.876,21.04058,-0.13452,0.82769,0.89288
364.576,21.0621,-0.13613,0.82648,0.89253
365.276,21.08365,-0.13693,0.82221,0.89219
365.976,21.1052,-0.13864,0.82322,0.89185
366.676,21.12678,-0.14045,0.82186,0.8915
367.376,21.1483,-0.14174,0.82006,0.89116
368.076,21.16994,-0.14313,0.82001,0.89082
368.776,21.19144,-0.14413,0.81816,0.89048
369.476,21.213,-0.1458,0.81612,0.89013
370.176,21.2346,-0.14739,0.81438,0.88979
370.876,21.25605,-0.14858,0.81471,0.88945
371.576,21.27767,-0.15044,0.81178,0.8891
372.276,21.29919,-0.15191,0.81233,0.88876
372.976,21.3207,-0.15298,0.81135,0.88842
373.676,21.34234,-0.15428,0.80938,0.88808
374.376,21.36385,-0.15584,0.80837,0.88773
375.076,21.38547,-0.15677,0.80889,0.88739
375.776,21.407,-0.15848,0.80727,0.88705
376.476,21.42863,-0.15944,0.80539,0.8867
377.176,21.4502,-0.16004,0.80741,0.88636
377.876,21.47182,-0.16187,0.80647,0.88602
378.576,21.49345,-0.16367,0.80252,0.88568
379.276,21.51503,-0.1652,0.80252,0.88533
379.976,21.53667,-0.16649,0.80371,0.88499
380.676,21.55826,-0.16731,0.80466,0.88465
381.376,21.57984,-0.16835,0.80031,0.8843
382.076,21.60138,-0.17088,0.80091,0.88396
382.776,21.6229,-0.17244,0.79872,0.88362
383.476,21.64445,-0.174,0.80131,0.88328
384.176,21.6662,-0.17537,0.79795,0.88293
384.876,21.6879,-0.17599,0.79992,0.88259
385.576,21.7096,-0.17714,0.7987,0.88225
386.276,21.7314,-0.17723,0.79881,0.8819
386.976,21.75301,-0.1784,0.79798,0.88156
387.676,21.77469,-0.17983,0.79967,0.88122
388.376,21.79639,-0.18135,0.79859,0.88087
389.076,21.81808,-0.18296,0.8019,0.88053
389.776,21.83975,-0.18381,0.79777,0.88019
390.476,21.86141,-0.185,0.79911,0.87984
391.176,21.88309,-0.18723,0.80022,0.8795
391.876,21.90484,-0.18856,0.8041,0.87916
392.576,21.9266,-0.19002,0.80472,0.87881
393.276,21.94833,-0.19133,0.80455,0.87847
393.976,21.96999,-0.19261,0.80658,0.87813
394.676,21.99165,-0.19359,0.80707,0.87778
395.376,22.0134,-0.19494,0.81106,0.87744
396.076,22.0351,-0.19652,0.81054,0.8771
396.776,22.0569,-0.1978,0.8134,0.87675
397.476,22.07873,-0.19852,0.81432,0.87641
398.176,22.1005,-0.19942,0.81549,0.87606
398.876,22.1222,-0.20135,0.81868,0.87572
399.576,22.1439,-0.2029,0.82369,0.87537
400.276,22.16565,-0.20408,0.82548,0.87503
400.976,22.18741,-0.20531,0.82708,0.87469
401.676,22.2092,-0.20689,0.8294,0.87434
402.376,22.23101,-0.20806,0.83323,0.874
403.076,22.25275,-0.21094,0.83585,0.87365
403.776,22.27449,-0.21223,0.83928,0.87331
404.476,22.29622,-0.21373,0.84249,0.87296
405.176,22.31804,-0.21527,0.84619,0.87262
405.876,22.33986,-0.21673,0.85002,0.87227
406.576,22.3617,-0.21734,0.8559,0.87193
407.276,22.38353,-0.21882,0.86117,0.87158
407.976,22.40535,-0.22046,0.86631,0.87124
408.676,22.4272,-0.2225,0.87045,0.87089
409.376,22.44902,-0.22483,0.87572,0.87054
410.076,22.47082,-0.22714,0.87968,0.8702
410.776,22.49263,-0.22894,0.88335,0.86985
411.476,22.51444,-0.23159,0.89011,0.86951
412.176,22.53629,-0.23384,0.89239,0.86916
412.876,22.55818,-0.23639,0.89967,0.86881
413.576,22.57996,-0.23945,0.90427,0.86847
414.276,22.6018,-0.24177,0.91255,0.86812
414.976,22.62356,-0.24403,0.91586,0.86777
415.676,22.6454,-0.24586,0.92059,0.86743
416.376,22.6673,-0.24785,0.92637,0.86708
417.076,22.6892,-0.24992,0.9336,0.86673
417.776,22.7111,-0.25196,0.93822,0.86639
418.476,22.73302,-0.25362,0.94294,0.86604
419.176,22.75495,-0.25611,0.94931,0.86569
419.876,22.77684,-0.25862,0.95487,0.86534
420.576,22.79873,-0.26186,0.96181,0.86499
421.276,22.8206,-0.26445,0.96496,0.86465
421.976,22.84255,-0.26751,0.96954,0.8643
422.676,22.86448,-0.27064,0.97402,0.86395
423.376,22.88641,-0.27343,0.97796,0.8636
424.076,22.9084,-0.27594,0.98213,0.86325
424.776,22.9302,-0.27899,0.98757,0.8629
425.476,22.9521,-0.28274,0.98977,0.86255
426.176,22.97407,-0.28602,0.99215,0.8622
426.876,22.99606,-0.2886,0.99395,0.86186
427.576,23.01805,-0.29139,0.99538,0.86151
428.276,23.0401,-0.29452,0.99394,0.86116
428.976,23.0621,-0.29791,0.99495,0.86081
429.676,23.08407,-0.30154,0.99505,0.86045
430.376,23.10605,-0.30537,0.99445,0.8601
431.076,23.12803,-0.30897,0.99156,0.85975
431.776,23.15006,-0.31185,0.98846,0.8594
432.476,23.172,-0.31499,0.98636,0.85905
433.176,23.194,-0.31647,0.98134,0.8587
433.876,23.21603,-0.31918,0.97474,0.85835
434.576,23.238,-0.32197,0.97066,0.858
435.276,23.26005,-0.32501,0.96614,0.85765
435.976,23.28205,-0.32843,0.9596,0.85729
436.676,23.30411,-0.33102,0.95319,0.85694
437.376,23.32615,-0.33336,0.94578,0.85659
438.076,23.34815,-0.33653,0.93837,0.85624
438.776,23.37015,-0.33917,0.92906,0.85588
439.476,23.39208,-0.34184,0.92011,0.85553
440.176,23.41384,-0.34419,0.91285,0.85518
440.876,23.43575,-0.34675,0.90424,0.85482
441.576,23.45778,-0.3491,0.89487,0.85447
442.276,23.4799,-0.35165,0.88772,0.85411
442.976,23.50218,-0.35382,0.87935,0.85376
443.676,23.52436,-0.35546,0.87039,0.8534
444.376,23.5464,-0.35748,0.86019,0.85305
445.076,23.56851,-0.35914,0.85109,0.85269
445.776,23.59056,-0.36097,0.84385,0.85234
446.476,23.6126,-0.36341,0.83733,0.85198
447.176,23.63469,-0.3651,0.82835,0.85163
447.876,23.6568,-0.36655,0.8238,0.85127
448.576,23.67884,-0.36818,0.81573,0.85092
449.276,23.701,-0.36979,0.80888,0.85056
449.976,23.72306,-0.37171,0.80532,0.8502
450.676,23.74519,-0.37322,0.79924,0.84984
451.376,23.76734,-0.37475,0.79337,0.84949
452.076,23.78951,-0.37595,0.78718,0.84913
452.776,23.81165,-0.37643,0.783,0.84877
453.476,23.83376,-0.37715,0.77902,0.84841
454.176,23.85589,-0.37763,0.77405,0.84805
454.876,23.87803,-0.37926,0.77191,0.8477
455.576,23.9001,-0.38084,0.76869,0.84734
456.276,23.92231,-0.38189,0.76687,0.84698
456.976,23.94445,-0.38307,0.76465,0.84662
457.676,23.96663,-0.38276,0.76237,0.84626
458.376,23.9889,-0.38423,0.76175,0.8459
459.076,24.011,-0.38531,0.75898,0.84554
459.776,24.03325,-0.38638,0.75833,0.84518
460.476,24.05542,-0.38722,0.75561,0.84482
461.176,24.07761,-0.38874,0.75323,0.84445
461.876,24.0998,-0.39002,0.75141,0.84409
462.576,24.12196,-0.39149,0.75042,0.84373
463.276,24.1442,-0.39308,0.75286,0.84337
463.976,24.16639,-0.39423,0.7512,0.84301
464.676,24.18856,-0.39465,0.75079,0.84264
465.376,24.21078,-0.39572,0.75288,0.84228
466.076,24.23297,-0.39695,0.75216,0.84192
466.776,24.25515,-0.39722,0.75447,0.84155
467.476,24.2774,-0.39865,0.7552,0.84119
468.176,24.2996,-0.39858,0.75274,0.84082
468.876,24.32185,-0.3999,0.75484,0.84046
469.576,24.34414,-0.40102,0.75578,0.84009
470.276,24.3664,-0.40229,0.75754,0.83973
470.976,24.3887,-0.40476,0.76097,0.83936
471.676,24.4109,-0.40618,0.76104,0.839
472.376,24.43305,-0.40771,0.76063,0.83863
473.076,24.45528,-0.40916,0.76197,0.83826
473.776,24.47758,-0.4097,0.76205,0.8379
474.476,24.4999,-0.41056,0.76522,0.83753
475.176,24.52228,-0.41113,0.76683,0.83716
475.876,24.54456,-0.41198,0.7658,0.83679
476.576,24.56684,-0.41374,0.76878,0.83642
477.276,24.5892,-0.41464,0.76851,0.83606
477.976,24.6114,-0.41516,0.77128,0.83569
478.676,24.63374,-0.41694,0.77021,0.83532
479.376,24.656,-0.41792,0.77002,0.83495
480.076,24.67825,-0.41831,0.77143,0.83458
480.776,24.70054,-0.41857,0.77183,0.83421
481.476,24.72286,-0.42014,0.77083,0.83384
482.176,24.7452,-0.42143,0.77198,0.83346
482.876,24.7675,-0.42263,0.77389,0.83309
483.576,24.78979,-0.4238,0.77099,0.83272
484.276,24.81204,-0.42491,0.7729,0.83235
484.976,24.83437,-0.42535,0.77284,0.83198
485.676,24.85674,-0.42655,0.77158,0.8316
486.376,24.87911,-0.42824,0.77386,0.83123
487.076,24.90152,-0.42943,0.77277,0.83086
487.776,24.92384,-0.43045,0.77301,0.83048
488.476,24.94612,-0.43171,0.7717,0.83011
489.176,24.9684,-0.43215,0.77137,0.82973
489.876,24.99069,-0.43324,0.77066,0.82936
490.576,25.01302,-0.43449,0.76998,0.82898
491.276,25.03536,-0.43528,0.77049,0.82861
491.976,25.05773,-0.43623,0.77093,0.82823
492.676,25.08011,-0.43798,0.768,0.82785
493.376,25.10243,-0.43811,0.767,0.82747
494.076,25.1248,-0.43814,0.76621,0.8271
494.776,25.14708,-0.43938,0.76783,0.82672
495.476,25.16943,-0.43951,0.76079,0.82634
496.176,25.1918,-0.4409,0.76028,0.82596
496.876,25.21411,-0.4408,0.75704,0.82558
497.576,25.23647,-0.44205,0.75944,0.8252
498.276,25.25882,-0.44247,0.75753,0.82482
498.976,25.28119,-0.44376,0.75267,0.82444
499.676,25.30357,-0.44643,0.75324,0.82406
500.376,25.32595,-0.44648,0.7517,0.82368
501.076,25.34825,-0.44778,0.75007,0.8233
501.776,25.37066,-0.44786,0.74538,0.82292
502.476,25.39303,-0.44939,0.74523,0.82253
503.176,25.4154,-0.45053,0.74297,0.82215
503.876,25.43789,-0.45173,0.73954,0.82177
504.576,25.46024,-0.45226,0.74076,0.82138
505.276,25.48262,-0.45316,0.73945,0.821
505.976,25.505,-0.45342,0.73483,0.82062
506.676,25.5274,-0.45355,0.73667,0.82023
507.376,25.54985,-0.45387,0.73451,0.81985
508.076,25.57232,-0.45485,0.7311,0.81946
508.776,25.59473,-0.45488,0.7306,0.81907
509.476,25.61721,-0.4553,0.72969,0.81869
510.176,25.63963,-0.45619,0.72973,0.8183
510.876,25.66206,-0.45731,0.72404,0.81791
511.576,25.68449,-0.45745,0.72536,0.81752
512.276,25.70686,-0.45868,0.72216,0.81714
512.976,25.7292,-0.45882,0.72062,0.81675
513.676,25.75151,-0.45929,0.72321,0.81636
514.376,25.774,-0.46013,0.72123,0.81597
515.076,25.7965,-0.46082,0.7212,0.81558
515.776,25.81904,-0.46167,0.72057,0.81519
516.476,25.84167,-0.46306,0.7204,0.8148
517.176,25.8642,-0.463,0.72156,0.8144
517.876,25.88661,-0.4631,0.72054,0.81401
518.576,25.90899,-0.46199,0.71954,0.81362
519.276,25.93136,-0.46308,0.72083,0.81323
519.976,25.9539,-0.46331,0.72324,0.81283
520.676,25.97642,-0.46326,0.72204,0.81244
521.376,25.999,-0.4646,0.72589,0.81204
522.076,26.0216,-0.46462,0.72456,0.81165
522.776,26.0441,-0.46561,0.72384,0.81125
523.476,26.0666,-0.46586,0.72339,0.81086
524.176,26.0891,-0.46817,0.72612,0.81046
524.876,26.11161,-0.46858,0.72563,0.81007
525.576,26.13415,-0.46934,0.72819,0.80967
526.276,26.1567,-0.46988,0.73063,0.80927
526.976,26.17926,-0.4699,0.73366,0.80887
527.676,26.2018,-0.46989,0.73294,0.80847
528.376,26.22434,-0.47146,0.73433,0.80808
529.076,26.2469,-0.4725,0.73541,0.80768
529.776,26.26943,-0.47253,0.73839,0.80728
530.476,26.29202,-0.47253,0.74038,0.80688
531.176,26.31464,-0.47259,0.74336,0.80647
531.876,26.33718,-0.4739,0.74797,0.80607
532.576,26.35975,-0.47385,0.74957,0.80567
533.276,26.3823,-0.47385,0.75044,0.80527
533.976,26.40493,-0.4747,0.75237,0.80487
534.676,26.4275,-0.47517,0.75533,0.80446
535.376,26.45011,-0.47583,0.75673,0.80406
536.076,26.4727,-0.47647,0.76148,0.80365
536.776,26.4953,-0.47653,0.76402,0.80325
537.476,26.51789,-0.47524,0.76686,0.80284
538.176,26.5405,-0.47651,0.76971,0.80244
538.876,26.5631,-0.47648,0.77307,0.80203
539.576,26.5858,-0.47639,0.77527,0.80162
540.276,26.6085,-0.47788,0.77692,0.80122
540.976,26.6311,-0.4779,0.77913,0.80081
541.676,26.6538,-0.47862,0.78097,0.8004
542.376,26.6765,-0.4792,0.78609,0.79999
543.076,26.69918,-0.47922,0.78653,0.79958
543.776,26.7219,-0.47925,0.78925,0.79917
544.476,26.74458,-0.47961,0.79223,0.79876
545.176,26.76725,-0.47924,0.79665,0.79835
545.876,26.7899,-0.47986,0.79771,0.79794
546.576,26.81242,-0.48052,0.79994,0.79753
547.276,26.8351,-0.48053,0.80124,0.79711
547.976,26.8578,-0.48071,0.80508,0.7967
548.676,26.88058,-0.48186,0.80704,0.79629
549.376,26.9035,-0.48322,0.80737,0.79587
550.076,26.9261,-0.48317,0.80996,0.79546
550.776,26.94884,-0.48317,0.80965,0.79504
551.476,26.9715,-0.48314,0.80921,0.79463
552.176,26.9942,-0.4844,0.80702,0.79421
552.876,27.0169,-0.48449,0.80888,0.7938
553.576,27.03965,-0.48511,0.8071,0.79338
554.276,27.0624,-0.48579,0.80727,0.79296
554.976,27.08506,-0.48582,0.80798,0.79254
555.676,27.10779,-0.48658,0.80825,0.79212
556.376,27.1305,-0.48712,0.81025,0.7917
557.076,27.1533,-0.48739,0.81442,0.79128
557.776,27.176,-0.48844,0.81546,0.79086
558.476,27.1987,-0.48843,0.81972,0.79044
559.176,27.2214,-0.48981,0.82034,0.79002
559.876,27.24414,-0.48975,0.82232,0.7896
560.576,27.2668,-0.4908,0.82434,0.78918
561.276,27.28953,-0.49236,0.82464,0.78875
561.976,27.3123,-0.4924,0.82545,0.78833
562.676,27.3351,-0.49242,0.82328,0.78791
563.376,27.35795,-0.49318,0.82601,0.78748
564.076,27.38069,-0.49366,0.82821,0.78706
564.776,27.40343,-0.49237,0.8264,0.78663
565.476,27.42618,-0.49238,0.82818,0.7862
566.176,27.44892,-0.49239,0.82586,0.78578
566.876,27.4718,-0.49348,0.827,0.78535
567.576,27.4946,-0.49474,0.82491,0.78492
568.276,27.5174,-0.49546,0.82478,0.78449
568.976,27.54018,-0.49633,0.82713,0.78406
569.676,27.56294,-0.49633,0.82637,0.78363
570.376,27.5858,-0.49634,0.82226,0.7832
571.076,27.60868,-0.49688,0.82232,0.78277
571.776,27.6316,-0.49764,0.82515,0.78234
572.476,27.6544,-0.49765,0.82435,0.78191
573.176,27.67717,-0.49765,0.82277,0.78148
573.876,27.7,-0.49765,0.81475,0.78104
574.576,27.7228,-0.49765,0.80863,0.78061
575.276,27.74567,-0.49837,0.80412,0.78017
575.976,27.7686,-0.49828,0.79772,0.77974
576.676,27.79141,-0.49977,0.79126,0.7793
577.376,27.81427,-0.49973,0.78328,0.77887
578.076,27.83718,-0.49968,0.78176,0.77843
578.776,27.86007,-0.50105,0.77254,0.77799
579.476,27.88297,-0.50088,0.76805,0.77756
580.176,27.90585,-0.50041,0.7634,0.77712
580.876,27.9287,-0.50039,0.75914,0.77668
581.576,27.95154,-0.5004,0.75363,0.77624
582.276,27.97437,-0.50181,0.74824,0.7758
582.976,27.99725,-0.50171,0.74279,0.77536
583.676,28.02018,-0.50171,0.74325,0.77492
584.376,28.04314,-0.50171,0.73406,0.77448
585.076,28.06608,-0.50171,0.72945,0.77403
585.776,28.089,-0.50171,0.7266,0.77359
586.476,28.1119,-0.50169,0.72454,0.77315
587.176,28.1347,-0.50264,0.71598,0.7727
587.876,28.15768,-0.50472,0.70851,0.77226
588.576,28.1806,-0.50636,0.70553,0.77181
589.276,28.2035,-0.50709,0.69851,0.77137
589.976,28.2265,-0.50785,0.69627,0.77092
590.676,28.24948,-0.50879,0.69069,0.77047
591.376,28.2724,-0.50831,0.68339,0.77003
592.076,28.29542,-0.50786,0.67545,0.76958
592.776,28.3184,-0.50785,0.66784,0.76913
593.476,28.34133,-0.50784,0.66291,0.76868
594.176,28.3643,-0.50885,0.65698,0.76823
594.876,28.3873,-0.50915,0.65262,0.76778
595.576,28.4103,-0.50916,0.64573,0.76733
596.276,28.43327,-0.50916,0.63964,0.76688
596.976,28.45624,-0.50916,0.63364,0.76642
597.676,28.4792,-0.50916,0.62948,0.76597
598.376,28.50218,-0.50917,0.62277,0.76552
599.076,28.52515,-0.51057,0.61625,0.76506
599.776,28.5482,-0.51048,0.61463,0.76461
600.476,28.57118,-0.51048,0.61105,0.76415
601.176,28.59423,-0.51048,0.60533,0.7637
601.876,28.6171,-0.51043,0.59754,0.76324
602.576,28.6399,-0.5118,0.59594,0.76278
603.276,28.6628,-0.51241,0.59229,0.76233
603.976,28.6857,-0.51306,0.58672,0.76187
604.676,28.70865,-0.51492,0.58361,0.76141
605.376,28.73165,-0.51573,0.58045,0.76095
606.076,28.75463,-0.51427,0.5766,0.76049
606.776,28.77764,-0.51568,0.5728,0.76003
607.476,28.80065,-0.51564,0.56993,0.75957
608.176,28.8237,-0.5159,0.56962,0.75911
608.876,28.8468,-0.5155,0.56414,0.75864
609.576,28.8698,-0.5151,0.5595,0.75818
610.276,28.8929,-0.51412,0.55832,0.75772
610.976,28.91597,-0.5141,0.55627,0.75725
611.676,28.939,-0.5141,0.55647,0.75679
612.376,28.9621,-0.51411,0.55456,0.75632
613.076,28.9851,-0.5155,0.55267,0.75585
613.776,29.00812,-0.51541,0.55168,0.75539
614.476,29.03107,-0.51541,0.55153,0.75492
615.176,29.0541,-0.51533,0.54859,0.75445
615.876,29.0771,-0.51671,0.54943,0.75398
616.576,29.1002,-0.51673,0.54686,0.75351
617.276,29.1234,-0.51673,0.54859,0.75304
617.976,29.14651,-0.51673,0.54482,0.75257
618.676,29.1695,-0.51673,0.54498,0.7521
619.376,29.19247,-0.51815,0.54658,0.75163
620.076,29.21537,-0.51856,0.54738,0.75116
620.776,29.23837,-0.51937,0.54577,0.75069
621.476,29.2615,-0.51938,0.54592,0.75021
622.176,29.2848,-0.52082,0.5474,0.74974
622.876,29.308,-0.51944,0.54949,0.74926
623.576,29.33124,-0.51935,0.54703,0.74879
624.276,29.35438,-0.51896,0.54735,0.74831
624.976,29.3774,-0.51915,0.55168,0.74783
625.676,29.40043,-0.51936,0.55166,0.74736
626.376,29.4235,-0.52005,0.55415,0.74688
627.076,29.4465,-0.52065,0.55757,0.7464
627.776,29.4696,-0.52065,0.55752,0.74592
628.476,29.49275,-0.52337,0.55858,0.74544
629.176,29.51581,-0.52332,0.56058,0.74496
629.876,29.5389,-0.52332,0.56085,0.74448
630.576,29.562,-0.52444,0.56816,0.744
631.276,29.58507,-0.52463,0.56701,0.74351
631.976,29.60815,-0.52463,0.56947,0.74303
632.676,29.63128,-0.52461,0.57299,0.74255
633.376,29.6544,-0.52587,0.57639,0.74206
634.076,29.67748,-0.52595,0.57992,0.74158
634.776,29.7006,-0.52595,0.58289,0.74109
635.476,29.7236,-0.52697,0.58811,0.74061
636.176,29.74666,-0.52596,0.58818,0.74012
636.876,29.76975,-0.52594,0.59629,0.73963
637.576,29.79283,-0.52595,0.5998,0.73914
638.276,29.816,-0.52628,0.60279,0.73866
638.976,29.83912,-0.52727,0.6075,0.73817
639.676,29.86223,-0.52722,0.61334,0.73768
640.376,29.88537,-0.52851,0.61816,0.73719
641.076,29.90845,-0.52856,0.6203,0.73669
641.776,29.93157,-0.52996,0.62812,0.7362
642.476,29.95467,-0.52989,0.63013,0.73571
643.176,29.97774,-0.52985,0.63487,0.73522
643.876,30.00086,-0.53123,0.64123,0.73472
644.576,30.02396,-0.53122,0.64763,0.73423
645.276,30.04706,-0.53135,0.65134,0.73373
645.976,30.0702,-0.53252,0.65416,0.73324
646.676,30.0933,-0.53279,0.6575,0.73274
647.376,30.11648,-0.53368,0.66823,0.73225
648.076,30.13963,-0.53415,0.67139,0.73175
648.776,30.1628,-0.5342,0.68172,0.73125
649.476,30.18587,-0.5345,0.68127,0.73075
650.176,30.209,-0.5355,0.68845,0.73025
650.876,30.23208,-0.53564,0.69726,0.72975
651.576,30.2552,-0.53693,0.70259,0.72925
652.276,30.27832,-0.53684,0.7088,0.72875
652.976,30.30145,-0.53799,0.71796,0.72825
653.676,30.32459,-0.53887,0.72272,0.72774
654.376,30.3477,-0.53945,0.73119,0.72724
655.076,30.37084,-0.5405,0.74056,0.72674
655.776,30.39395,-0.54076,0.74084,0.72623
656.476,30.4171,-0.54071,0.7493,0.72573
657.176,30.44032,-0.54208,0.75764,0.72522
657.876,30.4634,-0.54204,0.76161,0.72472
658.576,30.48654,-0.54323,0.76913,0.72421
659.276,30.50967,-0.54339,0.77464,0.7237
659.976,30.5328,-0.54479,0.78569,0.72319
660.676,30.5559,-0.5447,0.79516,0.72268
661.376,30.57905,-0.54465,0.80153,0.72217
662.076,30.60213,-0.54604,0.80845,0.72166
662.776,30.62523,-0.5465,0.81452,0.72115
663.476,30.64837,-0.54746,0.82212,0.72064
664.176,30.6715,-0.54907,0.82877,0.72013
664.876,30.69469,-0.54946,0.8374,0.71962
665.576,30.71789,-0.55053,0.84528,0.7191
666.276,30.74105,-0.55212,0.8549,0.71859
666.976,30.7642,-0.55242,0.86276,0.71807
667.676,30.7873,-0.55344,0.87323,0.71756
668.376,30.8104,-0.55491,0.87887,0.71704
669.076,30.83352,-0.55566,0.88948,0.71653
669.776,30.8567,-0.55631,0.89802,0.71601
670.476,30.88,-0.55798,0.90716,0.71549
671.176,30.9033,-0.55871,0.91415,0.71497
671.876,30.9264,-0.55963,0.92512,0.71445
672.576,30.9497,-0.56179,0.93192,0.71393
673.276,30.97294,-0.56341,0.94131,0.71341
673.976,30.9962,-0.56524,0.95242,0.71289
674.676,31.01945,-0.56517,0.96112,0.71237
675.376,31.0427,-0.56367,0.96764,0.71185
676.076,31.06583,-0.5645,0.97961,0.71132
676.776,31.0891,-0.56528,0.98949,0.7108
677.476,31.1123,-0.56623,0.99957,0.71028
678.176,31.13555,-0.56741,1.00695,0.70975
678.876,31.15887,-0.56863,1.02163,0.70923
679.576,31.18208,-0.56987,1.03139,0.7087
680.276,31.20536,-0.57124,1.04411,0.70817
680.976,31.2286,-0.57156,1.05195,0.70765
681.676,31.2518,-0.57283,1.06302,0.70712
682.376,31.2751,-0.57434,1.07209,0.70659
683.076,31.29835,-0.57534,1.08816,0.70606
683.776,31.3217,-0.57609,1.09934,0.70553
684.476,31.34502,-0.57741,1.10912,0.705
685.176,31.36828,-0.57912,1.11924,0.70447
685.876,31.39155,-0.58077,1.13179,0.70394
686.576,31.4148,-0.58111,1.14499,0.7034
687.276,31.438,-0.58206,1.15608,0.70287
687.976,31.4612,-0.58378,1.1696,0.70234
688.676,31.4844,-0.58504,1.18423,0.7018
689.376,31.5077,-0.58566,1.19455,0.70127
690.076,31.53091,-0.58626,1.20638,0.70073
690.776,31.55422,-0.58725,1.22138,0.70019
691.476,31.5775,-0.58888,1.23298,0.69966
692.176,31.60087,-0.59071,1.24542,0.69912
692.876,31.6242,-0.59207,1.26293,0.69858
693.576,31.64746,-0.59358,1.27862,0.69804
694.276,31.67077,-0.5947,1.29316,0.6975
694.976,31.69404,-0.59582,1.30958,0.69696
695.676,31.71732,-0.59705,1.32306,0.69642
696.376,31.74063,-0.59857,1.33953,0.69588
697.076,31.76391,-0.6004,1.35636,0.69534
697.776,31.7872,-0.60225,1.37356,0.6948
698.476,31.8106,-0.60432,1.38953,0.69425
699.176,31.83397,-0.60565,1.40716,0.69371
699.876,31.85732,-0.60706,1.42434,0.69316
700.576,31.88066,-0.60868,1.43932,0.69262
701.276,31.90403,-0.61049,1.45835,0.69207
701.976,31.9274,-0.61212,1.47713,0.69153
702.676,31.95075,-0.61406,1.49902,0.69098
703.376,31.9741,-0.61633,1.51308,0.69043
704.076,31.99744,-0.61841,1.53218,0.68988
704.776,32.02083,-0.62094,1.55066,0.68934
705.476,32.04425,-0.62355,1.57194,0.68879
706.176,32.06759,-0.62502,1.59275,0.68824
706.876,32.09095,-0.6262,1.6124,0.68769
707.576,32.1143,-0.62784,1.63495,0.68713
708.276,32.13765,-0.62969,1.65532,0.68658
708.976,32.16106,-0.63191,1.67914,0.68603
709.676,32.18438,-0.63433,1.70054,0.68548
710.376,32.2077,-0.63519,1.72365,0.68492
711.076,32.23105,-0.63733,1.74646,0.68437
711.776,32.25441,-0.63908,1.77092,0.68381
712.476,32.27778,-0.64044,1.79512,0.68326
713.176,32.30121,-0.64448,1.8214,0.6827
713.876,32.32459,-0.64723,1.84868,0.68214
714.576,32.348,-0.65007,1.87259,0.68159
715.276,32.37145,-0.65168,1.89862,0.68103
715.976,32.3949,-0.65364,1.92315,0.68047
716.676,32.41827,-0.65514,1.95055,0.67991
717.376,32.44162,-0.65679,1.97842,0.67935
718.076,32.46498,-0.65869,2.00509,0.67879
718.776,32.4883,-0.66113,2.0323,0.67823
719.476,32.51167,-0.6636,2.05997,0.67766
720.176,32.5351,-0.66617,2.09281,0.6771
720.876,32.55845,-0.66914,2.11801,0.67654
721.576,32.58188,-0.67232,2.15262,0.67598
722.276,32.60528,-0.67575,2.18422,0.67541
722.976,32.6286,-0.6799,2.21587,0.67485
723.676,32.65194,-0.68279,2.24288,0.67428
724.376,32.6753,-0.68575,2.27719,0.67371
725.076,32.69866,-0.68759,2.30596,0.67315
725.776,32.72208,-0.69049,2.33905,0.67258
726.476,32.7455,-0.69345,2.37218,0.67201
727.176,32.76891,-0.69442,2.4071,0.67144
727.876,32.79227,-0.69724,2.44166,0.67087
728.576,32.81562,-0.7003,2.47482,0.6703
729.276,32.839,-0.70412,2.5125,0.66973
729.976,32.86244,-0.70741,2.54691,0.66916
730.676,32.88588,-0.71157,2.58063,0.66859
731.376,32.90933,-0.7146,2.61644,0.66802
732.076,32.93277,-0.7171,2.65557,0.66745
732.776,32.9562,-0.72076,2.69021,0.66687
733.476,32.9796,-0.72523,2.72212,0.6663
734.176,33.00295,-0.72972,2.76329,0.66572
734.876,33.02633,-0.73348,2.80037,0.66515
735.576,33.04979,-0.73617,2.83884,0.66457
736.276,33.07326,-0.74027,2.87756,0.664
736.976,33.09677,-0.74393,2.91605,0.66342
737.676,33.12021,-0.74775,2.95403,0.66284
738.376,33.1436,-0.75071,2.99431,0.66226
739.076,33.16703,-0.75384,3.03661,0.66168
739.776,33.1905,-0.75745,3.07689,0.66111
740.476,33.21398,-0.76176,3.11977,0.66053
741.176,33.23744,-0.76582,3.16249,0.65994
741.876,33.26079,-0.7707,3.20274,0.65936
742.576,33.2841,-0.77596,3.24819,0.65878
743.276,33.30743,-0.7816,3.2915,0.6582
743.976,33.33081,-0.78587,3.3361,0.65762
744.676,33.35434,-0.79036,3.38349,0.65703
745.376,33.3778,-0.79432,3.4313,0.65645
746.076,33.4013,-0.79789,3.47519,0.65586
746.776,33.42477,-0.80328,3.52412,0.65528
747.476,33.4482,-0.80858,3.57056,0.65469
748.176,33.47172,-0.81293,3.62087,0.65411
748.876,33.4952,-0.81874,3.67046,0.65352
749.576,33.5187,-0.82377,3.71975,0.65293
750.276,33.5422,-0.8293,3.77151,0.65234
750.976,33.5657,-0.83369,3.82172,0.65175
751.676,33.58912,-0.83892,3.87629,0.65116
752.376,33.61262,-0.8445,3.9257,0.65057
753.076,33.636,-0.8495,3.97944,0.64998
753.776,33.6595,-0.85621,4.03576,0.64939
754.476,33.68298,-0.86159,4.08681,0.6488
755.176,33.70643,-0.86667,4.14069,0.64821
755.876,33.7299,-0.87187,4.19696,0.64762
756.576,33.75352,-0.8773,4.2542,0.64702
757.276,33.77718,-0.88282,4.30988,0.64643
757.976,33.8008,-0.8887,4.36898,0.64583
758.676,33.82452,-0.89488,4.42447,0.64524
759.376,33.84805,-0.90149,4.48263,0.64464
760.076,33.87161,-0.9072,4.53873,0.64405
760.776,33.89503,-0.91409,4.59727,0.64345
761.476,33.9185,-0.9201,4.65779,0.64285
762.176,33.942,-0.92702,4.71812,0.64225
762.876,33.96543,-0.9342,4.77755,0.64166
763.576,33.98915,-0.94117,4.83657,0.64106
764.276,34.01265,-0.94945,4.89913,0.64046
764.976,34.03614,-0.95619,4.96425,0.63986
765.676,34.0597,-0.96318,5.02525,0.63926
766.376,34.08321,-0.9702,5.09462,0.63866
767.076,34.1068,-0.9775,5.15336,0.63805
767.776,34.1303,-0.98585,5.22079,0.63745
768.476,34.1539,-0.99247,5.28847,0.63685
769.176,34.17742,-1.00061,5.35104,0.63624
769.876,34.20095,-1.00863,5.41474,0.63564
770.576,34.2245,-1.01676,5.48121,0.63504
771.276,34.24801,-1.02543,5.54864,0.63443
771.976,34.27146,-1.03204,5.61314,0.63382
772.676,34.29483,-1.0398,5.67674,0.63322
773.376,34.31838,-1.04696,5.73818,0.63261
774.076,34.34196,-1.05533,5.80409,0.632
774.776,34.36572,-1.06424,5.87094,0.6314
775.476,34.3895,-1.0719,5.93663,0.63079
776.176,34.41312,-1.08162,6.00094,0.63018
776.876,34.43679,-1.08992,6.06194,0.62957
777.576,34.4604,-1.09907,6.12759,0.62896
778.276,34.48397,-1.10841,6.18661,0.62835
778.976,34.50756,-1.1157,6.24944,0.62774
779.676,34.53111,-1.12501,6.31173,0.62713
780.376,34.55471,-1.13351,6.37564,0.62651
781.076,34.57832,-1.14422,6.43469,0.6259
781.776,34.60194,-1.15385,6.48862,0.62529
782.476,34.62557,-1.16292,6.54867,0.62467
783.176,34.64926,-1.17364,6.6016,0.62406
783.876,34.6729,-1.18285,6.65529,0.62344
784.576,34.69659,-1.19502,6.71141,0.62283
785.276,34.72025,-1.20437,6.76116,0.62221
785.976,34.74388,-1.21462,6.80562,0.6216
786.676,34.76753,-1.22594,6.84678,0.62098
787.376,34.7911,-1.23567,6.88715,0.62036
788.076,34.81478,-1.24718,6.92139,0.61974
788.776,34.8384,-1.25522,6.95717,0.61913
789.476,34.86202,-1.26496,6.98017,0.61851
790.176,34.88555,-1.27575,7.00109,0.61789
790.876,34.90915,-1.28569,7.01242,0.61727
791.576,34.93274,-1.29754,7.01111,0.61665
792.276,34.95636,-1.30702,7.00773,0.61602
792.976,34.97995,-1.31622,6.98823,0.6154
793.676,35.00356,-1.32459,6.95317,0.61478
794.376,35.02714,-1.33182,6.90577,0.61416
795.076,35.05077,-1.34453,6.84172,0.61354
795.776,35.07435,-1.35697,6.75663,0.61291
796.476,35.09792,-1.36852,6.64952,0.61229
797.176,35.12146,-1.37852,6.51305,0.61166
797.876,35.14499,-1.38848,6.34027,0.61104
798.576,35.16851,-1.39889,6.13183,0.61041
799.276,35.19198,-1.40674,5.87531,0.60979
799.976,35.21545,-1.41601,5.54856,0.60916
800.676,35.23879,-1.42422,5.12277,0.60853
801.376,35.2622,-1.43187,4.53498,0.6079
802.076,35.2855,-1.43909,3.81242,0.60728
802.776,35.30876,-1.44305,3.04777,0.60665
803.476,35.33201,-1.44737,2.36054,0.60602
804.176,35.35518,-1.45046,1.80687,0.60539
804.876,35.37835,-1.45193,1.3739,0.60476
805.576,35.40157,-1.4535,1.0502,0.60413
806.276,35.42479,-1.45429,0.80545,0.6035
806.976,35.44807,-1.45476,0.62164,0.60286
807.676,35.47136,-1.45474,0.48576,0.60223
808.376,35.4947,-1.45586,0.38189,0.6016
809.076,35.51807,-1.45576,0.30376,0.60097
809.776,35.54156,-1.45576,0.24577,0.60033
810.476,35.565,-1.45546,0.20087,0.5997
811.176,35.58849,-1.45479,0.16797,0.59906
811.876,35.61201,-1.45445,0.13607,0.59843
812.576,35.63551,-1.45444,0.11437,0.59779
813.276,35.659,-1.45442,0.09512314,0.59716
813.976,35.6826,-1.45475,0.07818778,0.59652
814.676,35.7062,-1.45473,0.06769837,0.59589
815.376,35.72979,-1.4538,0.05559294,0.59525
816.076,35.75345,-1.45439,0.04574223,0.59461
816.776,35.77704,-1.45476,0.03849519,0.59397
817.476,35.80063,-1.45476,0.03014426,0.59333
818.176,35.82425,-1.456,0.0263819,0.59269
818.876,35.84795,-1.45609,0.02117949,0.59205
819.576,35.87157,-1.45609,0.01778055,0.59141
820.276,35.89516,-1.45604,0.0128318,0.59077
820.976,35.91876,-1.45735,0.01051451,0.59013
821.676,35.9424,-1.45739,0.009883824,0.58949
822.376,35.96597,-1.45683,0.006505125,0.58885
823.076,35.98956,-1.45608,0.005186689,0.58821
823.776,36.01315,-1.45745,0.002143686,0.58756
824.476,36.03675,-1.4574,0.0003202254,0.58692
825.176,36.06038,-1.4574,-0.002609881,0.58628
825.876,36.0841,-1.4574,-0.0031821,0.58563
826.576,36.10768,-1.4574,-0.007574241,0.58499
827.276,36.1312,-1.4574,-0.00925611,0.58434
827.976,36.1546,-1.4574,-0.01138187,0.5837
828.676,36.17804,-1.45742,-0.01212131,0.58305
829.376,36.2016,-1.45851,-0.01269457,0.58241
830.076,36.22534,-1.45872,-0.01641298,0.58176
830.776,36.2491,-1.45872,-0.01734141,0.58111
831.476,36.2729,-1.45891,-0.0182271,0.58046
832.176,36.29656,-1.45879,-0.02217261,0.57982
832.876,36.3202,-1.45872,-0.02163555,0.57917
833.576,36.34391,-1.45865,-0.02261847,0.57852
834.276,36.36755,-1.46001,-0.02156365,0.57787
834.976,36.3912,-1.46003,-0.02380704,0.57722
835.676,36.41483,-1.46003,-0.02492836,0.57657
836.376,36.4384,-1.46003,-0.02499886,0.57592
837.076,36.46205,-1.46003,-0.02440244,0.57527
837.776,36.48572,-1.46003,-0.02861535,0.57462
838.476,36.50936,-1.46003,-0.03186631,0.57396
839.176,36.53302,-1.46003,-0.03124558,0.57331
839.876,36.55664,-1.46003,-0.03829634,0.57266
840.576,36.58021,-1.46004,-0.03921069,0.57201
841.276,36.6039,-1.46138,-0.04211735,0.57135
841.976,36.6278,-1.46054,-0.0474603,0.5707
842.676,36.65204,-1.46035,-0.04182503,0.57004
843.076,36.66506,-1.46036,-0.04628056,0.56967