File: 01_Data/Pine_Lap_Siding_Paint/STA/N2/30K_min/Pine_Lap_Siding_Paint_STA_N2_30KData_220317_R3.csv
##Temp./Â°C,Time/min,Mass loss(subtr.2)/mg,DSC(subtr.2)/(mW/mg),Sensit./(uV/mW)
48.88,10.01,0.01974,-0.000176058,1.08882
49.58,10.55306,0.02055111,0.03059515,1.08823
50.28,10.67745,0.02062095,0.05962613,1.08764
50.98,10.76613,0.02037812,0.08370158,1.08705
51.68,10.83868,0.02082855,0.1065,1.08646
52.38,10.90199,0.0211858,0.12506,1.08587
53.08,10.95851,0.02036638,0.14496,1.08529
53.78,11.0097,0.02051447,0.16213,1.0847
54.48,11.05739,0.02018734,0.17858,1.08412
55.18,11.10248,0.02038971,0.19629,1.08353
55.88,11.14482,0.02158044,0.21098,1.08295
56.58,11.185,0.02227025,0.22723,1.08237
57.28,11.22402,0.02152782,0.23883,1.08179
57.98,11.2615,0.02091156,0.25378,1.08121
58.68,11.29759,0.02153153,0.26493,1.08063
59.38,11.3325,0.02272255,0.27807,1.08005
60.08,11.3664,0.02230411,0.29061,1.07947
60.78,11.3996,0.02094725,0.30244,1.07889
61.48,11.4321,0.02175787,0.31195,1.07831
62.18,11.46389,0.02114042,0.32036,1.07774
62.88,11.49506,0.02132209,0.33221,1.07716
63.58,11.52587,0.02219098,0.34149,1.07659
64.28,11.55607,0.02168854,0.35047,1.07602
64.98,11.58575,0.02153322,0.35939,1.07545
65.68,11.61495,0.02205845,0.37001,1.07487
66.38,11.6439,0.02247482,0.37725,1.0743
67.08,11.67249,0.02292936,0.38361,1.07373
67.78,11.70071,0.0234812,0.3937,1.07316
68.48,11.7288,0.02388623,0.3973,1.0726
69.18,11.75653,0.02444629,0.4074,1.07203
69.88,11.78396,0.02431621,0.41412,1.07146
70.58,11.8112,0.02481706,0.42165,1.0709
71.28,11.83817,0.025039,0.42514,1.07033
71.98,11.86487,0.02429178,0.43179,1.06977
72.68,11.89152,0.02368956,0.43758,1.06921
73.38,11.91807,0.02394581,0.44518,1.06864
74.08,11.9445,0.02449336,0.45055,1.06808
74.78,11.97067,0.0245093,0.45607,1.06752
75.48,11.99659,0.02442171,0.46291,1.06696
76.18,12.02245,0.02444928,0.46733,1.0664
76.88,12.0482,0.0231196,0.47235,1.06585
77.58,12.07395,0.02291305,0.47789,1.06529
78.28,12.09933,0.02293091,0.48306,1.06473
78.98,12.12473,0.02442818,0.48683,1.06418
79.68,12.15,0.02422943,0.4931,1.06362
80.38,12.1752,0.02250625,0.49599,1.06307
81.08,12.20032,0.02035924,0.50048,1.06252
81.78,12.22535,0.01937001,0.50473,1.06196
82.48,12.25029,0.0205293,0.51153,1.06141
83.18,12.275,0.02179663,0.51342,1.06086
83.88,12.2996,0.02225865,0.51413,1.06031
84.58,12.32404,0.02218271,0.52202,1.05976
85.28,12.3485,0.02337015,0.52401,1.05922
85.98,12.37302,0.02312716,0.52939,1.05867
86.68,12.39749,0.02289221,0.53156,1.05812
87.38,12.42186,0.0236708,0.53605,1.05758
88.08,12.44619,0.02357689,0.53886,1.05703
88.78,12.4704,0.02370757,0.54025,1.05649
89.48,12.4946,0.02288286,0.54412,1.05595
90.18,12.51865,0.02360373,0.5471,1.0554
90.88,12.54279,0.02205388,0.55007,1.05486
91.58,12.5669,0.02264263,0.55213,1.05432
92.28,12.59094,0.02214985,0.55607,1.05378
92.98,12.61468,0.02214337,0.55781,1.05325
93.68,12.63852,0.02226462,0.56048,1.05271
94.38,12.6625,0.02283175,0.56059,1.05217
95.08,12.68639,0.02356455,0.56382,1.05163
95.78,12.7104,0.02356896,0.56796,1.0511
96.48,12.73422,0.02361343,0.56827,1.05056
97.18,12.75794,0.02356155,0.57102,1.05003
97.88,12.78169,0.02326916,0.57232,1.0495
98.58,12.80534,0.02358171,0.57704,1.04897
99.28,12.82901,0.02415061,0.57869,1.04843
99.98,12.85283,0.02399444,0.57786,1.0479
100.68,12.8767,0.02358247,0.58154,1.04737
101.38,12.90048,0.02360702,0.58278,1.04685
102.08,12.92423,0.02452194,0.58669,1.04632
102.78,12.94781,0.02357764,0.58611,1.04579
103.48,12.97134,0.02358226,0.58795,1.04526
104.18,12.99496,0.02369377,0.58865,1.04474
104.88,13.01843,0.02311231,0.58979,1.04421
105.58,13.04198,0.023578,0.59176,1.04369
106.28,13.0654,0.02357796,0.59433,1.04317
106.98,13.08889,0.02333387,0.59253,1.04264
107.68,13.11237,0.02229543,0.59549,1.04212
108.38,13.13585,0.02282038,0.59792,1.0416
109.08,13.1593,0.02358091,0.5985,1.04108
109.78,13.1829,0.02357218,0.59951,1.04056
110.48,13.20614,0.02323926,0.60267,1.04005
111.18,13.2295,0.02226662,0.6046,1.03953
111.88,13.253,0.02213635,0.60424,1.03901
112.58,13.27619,0.02085977,0.60651,1.0385
113.28,13.29981,0.02225377,0.60852,1.03798
113.98,13.3231,0.02226382,0.60933,1.03747
114.68,13.34646,0.02226019,0.61127,1.03695
115.38,13.36991,0.02226,0.61183,1.03644
116.08,13.39326,0.02226243,0.61264,1.03593
116.78,13.4166,0.02231108,0.61477,1.03542
117.48,13.43989,0.02094347,0.61771,1.03491
118.18,13.4632,0.02093642,0.6161,1.0344
118.88,13.48645,0.02094166,0.61752,1.03389
119.58,13.5096,0.0209454,0.62105,1.03338
120.28,13.5328,0.02211224,0.62269,1.03288
120.98,13.55601,0.0222327,0.62397,1.03237
121.68,13.57913,0.02135718,0.62417,1.03186
122.38,13.60224,0.02095174,0.62495,1.03136
123.08,13.6253,0.02095013,0.62867,1.03086
123.78,13.64831,0.02095,0.63055,1.03035
124.48,13.67145,0.02095,0.63064,1.02985
125.18,13.69461,0.02095008,0.63188,1.02935
125.88,13.71766,0.02095104,0.63366,1.02885
126.58,13.7407,0.02094255,0.6335,1.02835
127.28,13.7637,0.02179129,0.63753,1.02785
127.98,13.7866,0.02192721,0.63723,1.02735
128.68,13.80964,0.02192998,0.63832,1.02686
129.38,13.8325,0.02193079,0.64033,1.02636
130.08,13.8554,0.02195081,0.64051,1.02586
130.78,13.87817,0.02251914,0.64452,1.02537
131.48,13.90094,0.02226685,0.64481,1.02487
132.18,13.9238,0.02226104,0.64861,1.02438
132.88,13.9467,0.02226004,0.64855,1.02389
133.58,13.9695,0.02225997,0.6499,1.0234
134.28,13.9923,0.02226245,0.65046,1.0229
134.98,14.01505,0.02233168,0.65252,1.02241
135.68,14.0376,0.0204421,0.65423,1.02192
136.38,14.0602,0.02028942,0.65439,1.02144
137.08,14.0828,0.0202897,0.65769,1.02095
137.78,14.1053,0.02029178,0.65779,1.02046
138.48,14.12801,0.02031088,0.65926,1.01997
139.18,14.15059,0.02132707,0.65957,1.01949
139.88,14.1732,0.02160813,0.66007,1.019
140.58,14.1957,0.0216099,0.66524,1.01852
141.28,14.21819,0.02161021,0.66704,1.01804
141.98,14.2406,0.02160841,0.66619,1.01755
142.68,14.26304,0.02146915,0.66845,1.01707
143.38,14.2855,0.02017688,0.67051,1.01659
144.08,14.308,0.02098429,0.67145,1.01611
144.78,14.33044,0.02128559,0.6731,1.01563
145.48,14.3528,0.02164583,0.67431,1.01515
146.18,14.3752,0.02161251,0.67699,1.01467
146.88,14.3975,0.0216101,0.67588,1.0142
147.58,14.41985,0.02161,0.67832,1.01372
148.28,14.44222,0.02161,0.68037,1.01324
148.98,14.46455,0.02161,0.68062,1.01277
149.68,14.4869,0.02161,0.6811,1.01229
150.38,14.50919,0.02161,0.68406,1.01182
151.08,14.5315,0.02161,0.68471,1.01135
151.78,14.55369,0.02161,0.68756,1.01087
152.48,14.57585,0.02161,0.68989,1.0104
153.18,14.59809,0.02161,0.69088,1.00993
153.88,14.6202,0.02161,0.6922,1.00946
154.58,14.6424,0.02161,0.69448,1.00899
155.28,14.6647,0.02161006,0.69476,1.00853
155.98,14.6869,0.02161094,0.69701,1.00806
156.68,14.70907,0.02161625,0.69638,1.00759
157.38,14.73121,0.02236008,0.70148,1.00712
158.08,14.75332,0.02290609,0.70078,1.00666
158.78,14.77537,0.02291911,0.70162,1.00619
159.48,14.79745,0.02292021,0.70306,1.00573
160.18,14.8195,0.02292095,0.70589,1.00527
160.88,14.84159,0.02285848,0.70547,1.0048
161.58,14.86365,0.02154863,0.70841,1.00434
162.28,14.8857,0.02159687,0.70829,1.00388
162.98,14.9077,0.02159988,0.71224,1.00342
163.68,14.92975,0.0216,0.71027,1.00296
164.38,14.9518,0.02159958,0.71339,1.0025
165.08,14.9739,0.02158736,0.7146,1.00204
165.78,14.99596,0.02123086,0.71567,1.00159
166.48,15.01806,0.02060366,0.7168,1.00113
167.18,15.0401,0.02061001,0.71876,1.00067
167.88,15.06215,0.02060997,0.72163,1.00022
168.58,15.08409,0.02060863,0.72132,0.99976
169.28,15.1061,0.02058627,0.72295,0.99931
169.98,15.12805,0.01983544,0.72554,0.99886
170.68,15.14995,0.02028586,0.72692,0.9984
171.38,15.1719,0.02061864,0.72813,0.99795
172.08,15.1937,0.02061987,0.72871,0.9975
172.78,15.2156,0.02061999,0.73045,0.99705
173.48,15.23748,0.02062,0.73383,0.9966
174.18,15.2594,0.02062,0.73414,0.99615
174.88,15.2812,0.02062,0.73397,0.9957
175.58,15.30313,0.02062,0.73672,0.99525
176.28,15.3249,0.02062,0.73851,0.99481
176.98,15.34671,0.02062,0.74227,0.99436
177.68,15.3686,0.02062,0.74373,0.99392
178.38,15.3902,0.02062,0.74171,0.99347
179.08,15.412,0.02062008,0.74328,0.99303
179.78,15.4337,0.02062201,0.74862,0.99258
180.48,15.45536,0.02065684,0.75017,0.99214
181.18,15.4771,0.02030295,0.75224,0.9917
181.88,15.4988,0.01995031,0.75409,0.99126
182.58,15.5206,0.01958373,0.75351,0.99081
183.28,15.54225,0.01830166,0.75732,0.99037
183.98,15.56391,0.01830927,0.75915,0.98993
184.68,15.58554,0.01830944,0.75915,0.9895
185.38,15.60718,0.01830308,0.7601,0.98906
186.08,15.6288,0.01954711,0.76671,0.98862
186.78,15.65037,0.01963141,0.76605,0.98818
187.48,15.67195,0.01963044,0.76797,0.98775
188.18,15.6934,0.01963108,0.76736,0.98731
188.88,15.715,0.01964936,0.77058,0.98688
189.58,15.7364,0.02009795,0.77215,0.98644
190.28,15.758,0.01966334,0.77328,0.98601
190.98,15.77958,0.01963045,0.77218,0.98557
191.68,15.8011,0.01962704,0.77554,0.98514
192.38,15.82272,0.01951208,0.77846,0.98471
193.08,15.84416,0.01826037,0.77903,0.98428
193.78,15.86561,0.01833247,0.78155,0.98385
194.48,15.887,0.01900206,0.78406,0.98342
195.18,15.9085,0.01963194,0.78331,0.98299
195.88,15.92997,0.01963,0.78643,0.98256
196.58,15.95137,0.01962996,0.78835,0.98213
197.28,15.97286,0.01962894,0.78896,0.98171
197.98,15.9943,0.01958261,0.79201,0.98128
198.68,16.01572,0.01822892,0.79405,0.98085
199.38,16.03716,0.01830948,0.79433,0.98043
200.08,16.05857,0.01834279,0.79594,0.98
200.78,16.07998,0.01700053,0.79841,0.97958
201.48,16.10142,0.0169976,0.79888,0.97916
202.18,16.12284,0.01699981,0.80056,0.97873
202.88,16.1443,0.01700126,0.80118,0.97831
203.58,16.16552,0.01702068,0.80635,0.97789
204.28,16.18691,0.01876874,0.80519,0.97747
204.98,16.20825,0.01925558,0.80732,0.97705
205.68,16.2296,0.01963213,0.80928,0.97663
206.38,16.2512,0.01962965,0.81091,0.97621
207.08,16.2726,0.01962947,0.81223,0.97579
207.78,16.29395,0.01961956,0.81302,0.97537
208.48,16.31532,0.01935365,0.81488,0.97496
209.18,16.3367,0.01835516,0.81692,0.97454
209.88,16.35799,0.01763074,0.81674,0.97412
210.58,16.37931,0.01766002,0.81764,0.97371
211.28,16.40067,0.01764865,0.81964,0.97329
211.98,16.42201,0.01697895,0.82255,0.97288
212.68,16.44332,0.01699814,0.82554,0.97246
213.38,16.46464,0.01699987,0.82554,0.97205
214.08,16.48593,0.01699999,0.82636,0.97164
214.78,16.50725,0.017,0.82952,0.97123
215.48,16.5286,0.017,0.83003,0.97081
216.18,16.55,0.017,0.82907,0.9704
216.88,16.57133,0.017,0.83141,0.96999
217.58,16.5927,0.01699993,0.83265,0.96958
218.28,16.61394,0.01699854,0.83511,0.96917
218.98,16.63522,0.01692794,0.83478,0.96877
219.68,16.65656,0.01561274,0.83442,0.96836
220.38,16.67784,0.01567704,0.84013,0.96795
221.08,16.69912,0.01567992,0.83968,0.96754
221.78,16.7202,0.01568,0.84087,0.96714
222.48,16.74147,0.0156801,0.84315,0.96673
223.18,16.7627,0.01568283,0.84407,0.96633
223.88,16.784,0.01573664,0.8453,0.96592
224.58,16.80545,0.01495755,0.84918,0.96552
225.28,16.82677,0.01501666,0.85012,0.96511
225.98,16.84802,0.01501985,0.85059,0.96471
226.68,16.86928,0.01501996,0.85333,0.96431
227.38,16.89053,0.01502046,0.85065,0.96391
228.08,16.9117,0.01504387,0.85388,0.9635
228.78,16.93289,0.01429263,0.85408,0.9631
229.48,16.95415,0.01435528,0.85649,0.9627
230.18,16.97535,0.01436535,0.85742,0.9623
230.88,16.99662,0.01333538,0.8618,0.9619
231.58,17.01791,0.01306071,0.86144,0.96151
232.28,17.03916,0.01305028,0.8637,0.96111
232.98,17.06038,0.01305002,0.86478,0.96071
233.68,17.08155,0.01305203,0.86562,0.96031
234.38,17.10279,0.01244267,0.86766,0.95992
235.08,17.124,0.01175615,0.86939,0.95952
235.78,17.14518,0.01173171,0.86953,0.95912
236.48,17.16649,0.01173014,0.87046,0.95873
237.18,17.18769,0.01173058,0.87321,0.95834
237.88,17.2089,0.01173492,0.87344,0.95794
238.58,17.23012,0.01041119,0.87644,0.95755
239.28,17.25132,0.01147104,0.87873,0.95715
239.98,17.2725,0.01141642,0.87746,0.95676
240.68,17.29374,0.01141051,0.88095,0.95637
241.38,17.31494,0.01141003,0.8811,0.95598
242.08,17.3362,0.01140999,0.88022,0.95559
242.78,17.35734,0.01140988,0.88343,0.9552
243.48,17.37846,0.01140874,0.88571,0.95481
244.18,17.39959,0.01111336,0.88989,0.95442
244.88,17.4207,0.01009969,0.88725,0.95403
245.58,17.44192,0.01009146,0.88981,0.95364
246.28,17.4631,0.01009013,0.89242,0.95325
246.98,17.48423,0.01009001,0.89166,0.95286
247.68,17.50528,0.01009,0.89362,0.95248
248.38,17.52638,0.01009,0.89554,0.95209
249.08,17.5475,0.01009,0.89441,0.9517
249.78,17.56874,0.01009,0.89699,0.95132
250.48,17.59,0.01009,0.89785,0.95093
251.18,17.61114,0.01008999,0.90271,0.95055
251.88,17.6323,0.01008954,0.90486,0.95016
252.58,17.65346,0.0100803,0.90267,0.94978
253.28,17.6746,0.009856297,0.9056,0.9494
253.98,17.69574,0.008726606,0.9077,0.94901
254.68,17.71689,0.00876754,0.90672,0.94863
255.38,17.73803,0.008768349,0.91137,0.94825
256.08,17.75919,0.008502622,0.91363,0.94787
256.78,17.7804,0.007465665,0.91609,0.94749
257.48,17.80159,0.0074613,0.91732,0.94711
258.18,17.82263,0.00746005,0.91902,0.94673
258.88,17.84371,0.007458512,0.91938,0.94635
259.58,17.8648,0.00739781,0.92092,0.94597
260.28,17.88585,0.00603478,0.92206,0.94559
260.98,17.90697,0.005449199,0.92369,0.94521
261.68,17.92819,0.00481744,0.92328,0.94483
262.38,17.94933,0.004820617,0.92654,0.94445
263.08,17.9705,0.00519104,0.92969,0.94408
263.78,17.99165,0.00611325,0.92908,0.9437
264.48,18.01274,0.00591746,0.93263,0.94332
265.18,18.03388,0.004793222,0.93385,0.94295
265.88,18.05499,0.004363266,0.93645,0.94257
266.58,18.07611,0.00350468,0.93642,0.9422
267.28,18.09722,0.00351629,0.93744,0.94182
267.98,18.11833,0.002310525,0.94261,0.94145
268.68,18.13945,0.002192601,0.94536,0.94107
269.38,18.16059,0.002186984,0.94562,0.9407
270.08,18.18175,0.0008087101,0.94827,0.94033
270.78,18.20287,0.0008779415,0.94904,0.93995
271.48,18.224,0.00014847,0.95068,0.93958
272.18,18.24517,-0.0001395765,0.95259,0.93921
272.88,18.2663,0.000907326,0.95516,0.93884
273.58,18.28742,0.0007141889,0.95592,0.93847
274.28,18.3086,-0.0004714757,0.95397,0.9381
274.98,18.32975,-0.001745513,0.95777,0.93772
275.68,18.35086,-0.00216936,0.95696,0.93735
276.38,18.37201,-0.0030495,0.95651,0.93698
277.08,18.39311,-0.00306824,0.95583,0.93662
277.78,18.41431,-0.003069983,0.95873,0.93625
278.48,18.4355,-0.003071791,0.9579,0.93588
279.18,18.45666,-0.00319301,0.96093,0.93551
279.88,18.47788,-0.004431484,0.96037,0.93514
280.58,18.49907,-0.004397612,0.95797,0.93477
281.28,18.5202,-0.00506664,0.95598,0.93441
281.98,18.54135,-0.00570899,0.95678,0.93404
282.68,18.56254,-0.005308881,0.95661,0.93367
283.38,18.58365,-0.006097911,0.95451,0.93331
284.08,18.60489,-0.00603473,0.95432,0.93294
284.78,18.62613,-0.006032119,0.95287,0.93258
285.48,18.64731,-0.006182951,0.95005,0.93221
286.18,18.66849,-0.00737846,0.95011,0.93185
286.88,18.68962,-0.007647334,0.94712,0.93148
287.58,18.7108,-0.008761813,0.94789,0.93112
288.28,18.73198,-0.008915667,0.94468,0.93076
288.98,18.75321,-0.01009447,0.94234,0.93039
289.68,18.77429,-0.01004742,0.94374,0.93003
290.38,18.79526,-0.01116593,0.9393,0.92967
291.08,18.8165,-0.01141376,0.93915,0.9293
291.78,18.83766,-0.01186768,0.93525,0.92894
292.48,18.85894,-0.01272965,0.93365,0.92858
293.18,18.88041,-0.01272164,0.9302,0.92822
293.88,18.9016,-0.01410927,0.92806,0.92786
294.58,18.9228,-0.0140614,0.92501,0.9275
295.28,18.9441,-0.01440315,0.92549,0.92714
295.98,18.96528,-0.01538064,0.92112,0.92678
296.68,18.98646,-0.01597898,0.92087,0.92642
297.38,19.00769,-0.01667412,0.91908,0.92606
298.08,19.0289,-0.01667745,0.91683,0.9257
298.78,19.05011,-0.01733903,0.91626,0.92534
299.48,19.07132,-0.01798491,0.91532,0.92498
300.18,19.09248,-0.01809576,0.91123,0.92462
300.88,19.11368,-0.01934813,0.91204,0.92426
301.58,19.13486,-0.01925562,0.90854,0.92391
302.28,19.15608,-0.02042945,0.90664,0.92355
302.98,19.1773,-0.02061172,0.90981,0.92319
303.68,19.19849,-0.02202173,0.9069,0.92283
304.38,19.2197,-0.02214291,0.90736,0.92248
305.08,19.24091,-0.02358779,0.90509,0.92212
305.78,19.26221,-0.02353887,0.90253,0.92176
306.48,19.28342,-0.02477815,0.90243,0.92141
307.18,19.30459,-0.02485491,0.89978,0.92105
307.88,19.32581,-0.02607127,0.90072,0.9207
308.58,19.34704,-0.02642795,0.90037,0.92034
309.28,19.3683,-0.02789782,0.90016,0.91999
309.98,19.38961,-0.02936049,0.89747,0.91963
310.68,19.4108,-0.02942257,0.89789,0.91928
311.38,19.432,-0.03075267,0.8972,0.91892
312.08,19.4532,-0.03142886,0.89536,0.91857
312.78,19.47447,-0.03217625,0.89758,0.91822
313.48,19.49571,-0.03342987,0.89839,0.91786
314.18,19.5169,-0.03493246,0.89581,0.91751
314.88,19.53821,-0.03508369,0.89732,0.91716
315.58,19.55941,-0.03620885,0.89389,0.9168
316.28,19.58054,-0.03621729,0.89555,0.91645
316.98,19.6017,-0.03718151,0.89526,0.9161
317.68,19.62282,-0.03644761,0.89506,0.91575
318.38,19.64396,-0.03781609,0.89595,0.9154
319.08,19.66518,-0.03821321,0.89417,0.91504
319.78,19.6864,-0.03900757,0.89466,0.91469
320.48,19.70767,-0.04034984,0.89502,0.91434
321.18,19.72895,-0.04070464,0.89465,0.91399
321.88,19.75027,-0.04200628,0.89504,0.91364
322.58,19.77158,-0.04211989,0.89605,0.91329
323.28,19.79293,-0.04326271,0.8978,0.91294
323.98,19.81425,-0.04471746,0.89752,0.91259
324.68,19.8356,-0.04590344,0.89848,0.91224
325.38,19.85698,-0.04629206,0.89541,0.91189
326.08,19.8783,-0.047804,0.89732,0.91154
326.78,19.89976,-0.04845931,0.89956,0.91119
327.48,19.92107,-0.04916886,0.89889,0.91084
328.18,19.9424,-0.04968919,0.90082,0.91049
328.88,19.96377,-0.05037913,0.90079,0.91014
329.58,19.98503,-0.05099134,0.90214,0.9098
330.28,20.00635,-0.05259953,0.90013,0.90945
330.98,20.02759,-0.05308426,0.90343,0.9091
331.68,20.04893,-0.05417449,0.90668,0.90875
332.38,20.07026,-0.05584125,0.90534,0.9084
333.08,20.09157,-0.0559448,0.9082,0.90805
333.78,20.11277,-0.05715282,0.90959,0.90771
334.48,20.1339,-0.05707696,0.9112,0.90736
335.18,20.1552,-0.05843977,0.91144,0.90701
335.88,20.1765,-0.05923143,0.91262,0.90667
336.58,20.19791,-0.06078113,0.91497,0.90632
337.28,20.21951,-0.06280825,0.91489,0.90597
337.98,20.24083,-0.06468691,0.91501,0.90562
338.68,20.26225,-0.06662194,0.91878,0.90528
339.38,20.28358,-0.0683228,0.9198,0.90493
340.08,20.3049,-0.06953938,0.91961,0.90459
340.78,20.32624,-0.0710382,0.9227,0.90424
341.48,20.34754,-0.07191628,0.92241,0.90389
342.18,20.36886,-0.07327804,0.92378,0.90355
342.88,20.39017,-0.07515532,0.92388,0.9032
343.58,20.41155,-0.0770644,0.92787,0.90286
344.28,20.43297,-0.07869784,0.92684,0.90251
344.98,20.45441,-0.08108945,0.92515,0.90216
345.68,20.47581,-0.08423415,0.92583,0.90182
346.38,20.49716,-0.08545831,0.92668,0.90147
347.08,20.5185,-0.08672803,0.9271,0.90113
347.78,20.5399,-0.08785392,0.92765,0.90078
348.48,20.5613,-0.09008728,0.92892,0.90044
349.18,20.58279,-0.09226479,0.92809,0.90009
349.88,20.60424,-0.09390989,0.92911,0.89975
350.58,20.62559,-0.09431887,0.92561,0.89941
351.28,20.64699,-0.09647899,0.9255,0.89906
351.98,20.6684,-0.09892527,0.92873,0.89872
352.68,20.68985,-0.10122,0.92822,0.89837
353.38,20.71143,-0.10453,0.92599,0.89803
354.08,20.7329,-0.10647,0.92704,0.89768
354.78,20.7544,-0.10868,0.92697,0.89734
355.48,20.77591,-0.11082,0.92445,0.897
356.18,20.79735,-0.11309,0.92406,0.89665
356.88,20.81887,-0.1156,0.9227,0.89631
357.58,20.8404,-0.11797,0.92389,0.89597
358.28,20.86189,-0.12059,0.92168,0.89562
358.98,20.88342,-0.12317,0.9215,0.89528
359.68,20.90491,-0.12543,0.92168,0.89493
360.38,20.9264,-0.12689,0.92042,0.89459
361.08,20.94789,-0.13018,0.92151,0.89425
361.78,20.96937,-0.13239,0.92296,0.8939
362.48,20.99077,-0.13525,0.91788,0.89356
363.18,21.01226,-0.13741,0.9166,0.89322
363.88,21.03377,-0.14021,0.91732,0.89287
364.58,21.05537,-0.1438,0.91562,0.89253
365.28,21.07701,-0.14709,0.91767,0.89219
365.98,21.0986,-0.14944,0.91489,0.89185
366.68,21.12013,-0.15128,0.91534,0.8915
367.38,21.14166,-0.15369,0.9136,0.89116
368.08,21.16319,-0.15614,0.91351,0.89082
368.78,21.18473,-0.15841,0.91275,0.89047
369.48,21.20629,-0.15992,0.91386,0.89013
370.18,21.2279,-0.16117,0.91054,0.88979
370.88,21.2495,-0.16189,0.90864,0.88944
371.58,21.27107,-0.1644,0.90949,0.8891
372.28,21.29263,-0.16731,0.90956,0.88876
372.98,21.31419,-0.17132,0.90669,0.88842
373.68,21.33578,-0.17341,0.90494,0.88807
374.38,21.35746,-0.17533,0.90468,0.88773
375.08,21.37912,-0.17704,0.90475,0.88739
375.78,21.4007,-0.1787,0.90357,0.88704
376.48,21.4223,-0.18039,0.90279,0.8867
377.18,21.44383,-0.18195,0.90346,0.88636
377.88,21.46538,-0.18357,0.90375,0.88602
378.58,21.48702,-0.18562,0.90447,0.88567
379.28,21.50864,-0.18814,0.90271,0.88533
379.98,21.53022,-0.19033,0.90125,0.88499
380.68,21.55193,-0.1921,0.90073,0.88465
381.38,21.5736,-0.19381,0.89956,0.8843
382.08,21.59524,-0.19502,0.89807,0.88396
382.78,21.6169,-0.19578,0.89596,0.88362
383.48,21.6386,-0.19798,0.89238,0.88327
384.18,21.66023,-0.19987,0.89189,0.88293
384.88,21.68196,-0.20145,0.89029,0.88259
385.58,21.70365,-0.20314,0.88905,0.88224
386.28,21.7253,-0.20488,0.88978,0.8819
386.98,21.7469,-0.20656,0.88441,0.88156
387.68,21.7685,-0.20827,0.88516,0.88122
388.38,21.79017,-0.21005,0.88528,0.88087
389.08,21.81189,-0.21167,0.88318,0.88053
389.78,21.8337,-0.21265,0.88118,0.88019
390.48,21.85541,-0.21366,0.88076,0.87984
391.18,21.8771,-0.21476,0.88108,0.8795
391.88,21.89885,-0.21638,0.88436,0.87916
392.58,21.92055,-0.21819,0.88128,0.87881
393.28,21.94227,-0.21973,0.87942,0.87847
393.98,21.96408,-0.22129,0.88271,0.87812
394.68,21.98584,-0.22224,0.88317,0.87778
395.38,22.00761,-0.2222,0.8851,0.87744
396.08,22.02938,-0.22375,0.88467,0.87709
396.78,22.05112,-0.22498,0.88715,0.87675
397.48,22.07284,-0.22686,0.8883,0.87641
398.18,22.09459,-0.2276,0.89491,0.87606
398.88,22.11637,-0.22846,0.89289,0.87572
399.58,22.13815,-0.22962,0.89937,0.87537
400.28,22.15996,-0.23177,0.90037,0.87503
400.98,22.18178,-0.2347,0.90368,0.87468
401.68,22.2036,-0.23582,0.90647,0.87434
402.38,22.2254,-0.23745,0.91167,0.87399
403.08,22.24721,-0.23951,0.91441,0.87365
403.78,22.269,-0.24145,0.91909,0.87331
404.48,22.29084,-0.24283,0.92201,0.87296
405.18,22.3127,-0.24335,0.92346,0.87262
405.88,22.33459,-0.24399,0.9298,0.87227
406.58,22.3564,-0.24536,0.93328,0.87192
407.28,22.3782,-0.24673,0.93733,0.87158
407.98,22.39999,-0.24866,0.94303,0.87123
408.68,22.4218,-0.25184,0.94428,0.87089
409.38,22.44364,-0.2536,0.94839,0.87054
410.08,22.46549,-0.25566,0.95679,0.8702
410.78,22.4874,-0.25754,0.96118,0.86985
411.48,22.50925,-0.25967,0.96506,0.8695
412.18,22.5311,-0.26182,0.96978,0.86916
412.88,22.553,-0.26343,0.97505,0.86881
413.58,22.57487,-0.26464,0.97739,0.86847
414.28,22.59678,-0.26697,0.98373,0.86812
414.98,22.61869,-0.26901,0.99094,0.86777
415.68,22.64067,-0.2711,0.99657,0.86743
416.38,22.6626,-0.27324,1.00243,0.86708
417.08,22.6845,-0.27444,1.00709,0.86673
417.78,22.70648,-0.27795,1.01087,0.86638
418.48,22.7284,-0.28117,1.01785,0.86604
419.18,22.75028,-0.28346,1.02065,0.86569
419.88,22.77218,-0.28567,1.02658,0.86534
420.58,22.7941,-0.28804,1.0339,0.86499
421.28,22.81604,-0.29083,1.0357,0.86464
421.98,22.83803,-0.29411,1.04316,0.8643
422.68,22.85999,-0.2967,1.04639,0.86395
423.38,22.88196,-0.29919,1.05098,0.8636
424.08,22.90396,-0.30168,1.05327,0.86325
424.78,22.92596,-0.30463,1.05447,0.8629
425.48,22.94794,-0.3076,1.05875,0.86255
426.18,22.9699,-0.31117,1.06162,0.8622
426.88,22.99191,-0.31424,1.06419,0.86185
427.58,23.01385,-0.31737,1.06549,0.8615
428.28,23.03586,-0.32159,1.06693,0.86115
428.98,23.0579,-0.32478,1.06765,0.8608
429.68,23.0799,-0.32784,1.06581,0.86045
430.38,23.10191,-0.32956,1.0656,0.8601
431.08,23.12389,-0.33235,1.06706,0.85975
431.78,23.14586,-0.3354,1.06307,0.8594
432.48,23.16789,-0.33882,1.05907,0.85905
433.18,23.19,-0.34222,1.05569,0.8587
433.88,23.21207,-0.34549,1.05097,0.85835
434.58,23.23416,-0.34833,1.04582,0.858
435.28,23.25623,-0.35156,1.04247,0.85764
435.98,23.27809,-0.35501,1.03426,0.85729
436.68,23.30013,-0.35736,1.0276,0.85694
437.38,23.32217,-0.35861,1.0209,0.85659
438.08,23.34422,-0.36049,1.01478,0.85623
438.78,23.3664,-0.36227,1.00738,0.85588
439.48,23.38843,-0.36474,0.99767,0.85553
440.18,23.4104,-0.36739,0.99017,0.85517
440.88,23.43246,-0.36967,0.98129,0.85482
441.58,23.4545,-0.37173,0.97544,0.85447
442.28,23.4767,-0.37372,0.96711,0.85411
442.98,23.4988,-0.37612,0.95803,0.85376
443.68,23.52092,-0.37939,0.95046,0.8534
444.38,23.543,-0.38186,0.94295,0.85305
445.08,23.56511,-0.38341,0.93596,0.85269
445.78,23.58716,-0.38473,0.92883,0.85234
446.48,23.60924,-0.38558,0.92093,0.85198
447.18,23.63131,-0.38663,0.91528,0.85163
447.88,23.6534,-0.38818,0.90782,0.85127
448.58,23.67549,-0.39102,0.90076,0.85091
449.28,23.69746,-0.39272,0.8975,0.85056
449.98,23.7195,-0.39427,0.89183,0.8502
450.68,23.74165,-0.39639,0.8867,0.84984
451.38,23.76379,-0.39651,0.88331,0.84949
452.08,23.7861,-0.39696,0.88178,0.84913
452.78,23.8083,-0.39837,0.87726,0.84877
453.48,23.83051,-0.39838,0.87269,0.84841
454.18,23.85256,-0.39979,0.87038,0.84805
454.88,23.87473,-0.39992,0.86831,0.84769
455.58,23.89688,-0.40118,0.86586,0.84733
456.28,23.91903,-0.40298,0.86369,0.84698
456.98,23.94128,-0.40472,0.86166,0.84662
457.68,23.96349,-0.40543,0.85837,0.84626
458.38,23.9857,-0.4062,0.85503,0.8459
459.08,24.00785,-0.40766,0.85561,0.84554
459.78,24.03004,-0.40848,0.85257,0.84517
460.48,24.05224,-0.40992,0.85594,0.84481
461.18,24.0745,-0.41069,0.85079,0.84445
461.88,24.0966,-0.41115,0.84935,0.84409
462.58,24.11883,-0.41259,0.85182,0.84373
463.28,24.14101,-0.41308,0.85246,0.84337
463.98,24.16318,-0.41427,0.85265,0.843
464.68,24.18543,-0.41568,0.85148,0.84264
465.38,24.20767,-0.41722,0.85217,0.84228
466.08,24.22989,-0.41878,0.85155,0.84191
466.78,24.2521,-0.41935,0.85146,0.84155
467.48,24.27431,-0.42022,0.85242,0.84119
468.18,24.2966,-0.42173,0.85102,0.84082
468.88,24.31879,-0.4222,0.85087,0.84046
469.58,24.3411,-0.42303,0.85141,0.84009
470.28,24.36332,-0.42441,0.85381,0.83973
470.98,24.38557,-0.42566,0.85339,0.83936
471.68,24.40776,-0.42666,0.8556,0.83899
472.38,24.42994,-0.42778,0.85853,0.83863
473.08,24.45216,-0.42894,0.85688,0.83826
473.78,24.47438,-0.42823,0.85856,0.83789
474.48,24.49664,-0.42821,0.86093,0.83753
475.18,24.51888,-0.42967,0.8612,0.83716
475.88,24.541,-0.43146,0.86022,0.83679
476.58,24.56325,-0.43239,0.86194,0.83642
477.28,24.58558,-0.43281,0.86407,0.83605
477.98,24.60791,-0.43444,0.8642,0.83568
478.68,24.6303,-0.43449,0.86461,0.83532
479.38,24.6526,-0.43577,0.86707,0.83495
480.08,24.6749,-0.43688,0.8673,0.83458
480.78,24.6971,-0.43734,0.86838,0.8342
481.48,24.71944,-0.43867,0.87186,0.83383
482.18,24.74174,-0.44099,0.8707,0.83346
482.88,24.764,-0.44245,0.87157,0.83309
483.58,24.78637,-0.44367,0.87268,0.83272
484.28,24.8087,-0.44492,0.8713,0.83235
484.98,24.83111,-0.44597,0.87191,0.83197
485.68,24.8535,-0.44624,0.87612,0.8316
486.38,24.87588,-0.44778,0.87283,0.83123
487.08,24.8982,-0.44804,0.87366,0.83085
487.78,24.92047,-0.44937,0.8753,0.83048
488.48,24.94277,-0.45059,0.8738,0.83011
489.18,24.96504,-0.45084,0.87539,0.82973
489.88,24.98736,-0.45157,0.87155,0.82936
490.58,25.00972,-0.45178,0.87275,0.82898
491.28,25.03204,-0.45331,0.87166,0.8286
491.98,25.05438,-0.45477,0.86881,0.82823
492.68,25.0767,-0.45569,0.87199,0.82785
493.38,25.09903,-0.45536,0.86711,0.82747
494.08,25.12138,-0.45676,0.86853,0.8271
494.78,25.14377,-0.45554,0.8682,0.82672
495.48,25.16619,-0.455,0.86719,0.82634
496.18,25.1887,-0.45677,0.86499,0.82596
496.88,25.21116,-0.45924,0.86575,0.82558
497.58,25.23359,-0.4621,0.86666,0.8252
498.28,25.256,-0.46336,0.8607,0.82482
498.98,25.27833,-0.46482,0.86299,0.82444
499.68,25.3007,-0.46488,0.8604,0.82406
500.38,25.3231,-0.46624,0.85774,0.82368
501.08,25.34555,-0.46669,0.85733,0.8233
501.78,25.36795,-0.46763,0.85671,0.82291
502.48,25.3903,-0.4686,0.85319,0.82253
503.18,25.41275,-0.4689,0.8529,0.82215
503.88,25.43516,-0.46979,0.8508,0.82177
504.58,25.45759,-0.47024,0.85019,0.82138
505.28,25.48007,-0.47123,0.84546,0.821
505.98,25.50245,-0.47159,0.84563,0.82061
506.68,25.52484,-0.47021,0.84951,0.82023
507.38,25.54729,-0.47152,0.84635,0.81984
508.08,25.56974,-0.47154,0.84383,0.81946
508.78,25.59218,-0.47154,0.83973,0.81907
509.48,25.6147,-0.47155,0.84079,0.81868
510.18,25.63715,-0.47196,0.84005,0.8183
510.88,25.65961,-0.47298,0.8381,0.81791
511.58,25.68208,-0.47411,0.83546,0.81752
512.28,25.7044,-0.4743,0.83563,0.81713
512.98,25.72693,-0.47578,0.83456,0.81674
513.68,25.74941,-0.47645,0.83338,0.81635
514.38,25.77188,-0.47648,0.83468,0.81597
515.08,25.7943,-0.4774,0.83654,0.81557
515.78,25.81682,-0.4781,0.83687,0.81518
516.48,25.8393,-0.47811,0.83552,0.81479
517.18,25.86187,-0.47984,0.8357,0.8144
517.88,25.8845,-0.47983,0.83631,0.81401
518.58,25.90705,-0.48115,0.83575,0.81362
519.28,25.92961,-0.48109,0.83641,0.81322
519.98,25.9522,-0.48107,0.83594,0.81283
520.68,25.97469,-0.48237,0.83608,0.81244
521.38,25.9972,-0.48285,0.84009,0.81204
522.08,26.01974,-0.48438,0.84033,0.81165
522.78,26.04231,-0.48523,0.8393,0.81125
523.48,26.06492,-0.48569,0.84301,0.81086
524.18,26.0875,-0.48572,0.84462,0.81046
524.88,26.11005,-0.48668,0.84338,0.81006
525.58,26.1326,-0.48689,0.84643,0.80967
526.28,26.1552,-0.48559,0.84762,0.80927
526.98,26.17776,-0.48692,0.848,0.80887
527.68,26.2004,-0.48701,0.84843,0.80847
528.38,26.22302,-0.48701,0.85003,0.80807
529.08,26.2456,-0.48701,0.8524,0.80767
529.78,26.26823,-0.487,0.85004,0.80727
530.48,26.29085,-0.48836,0.8544,0.80687
531.18,26.31346,-0.48833,0.85747,0.80647
531.88,26.3361,-0.48835,0.85842,0.80607
532.58,26.3586,-0.48918,0.85815,0.80567
533.28,26.38115,-0.48968,0.86471,0.80527
533.98,26.40363,-0.49097,0.86374,0.80486
534.68,26.42612,-0.49209,0.8669,0.80446
535.38,26.44871,-0.49227,0.86654,0.80406
536.08,26.4712,-0.49364,0.86802,0.80365
536.78,26.4939,-0.4936,0.8686,0.80325
537.48,26.5165,-0.4936,0.86961,0.80284
538.18,26.53913,-0.49363,0.86698,0.80244
538.88,26.5618,-0.49366,0.86869,0.80203
539.58,26.5845,-0.4936,0.87322,0.80162
540.28,26.60725,-0.49374,0.87515,0.80121
540.98,26.62997,-0.49491,0.87467,0.80081
541.68,26.65264,-0.49491,0.87558,0.8004
542.38,26.6753,-0.49491,0.87538,0.79999
543.08,26.6979,-0.49509,0.87796,0.79958
543.78,26.7205,-0.49621,0.8755,0.79917
544.48,26.7432,-0.49622,0.87643,0.79876
545.18,26.76602,-0.49623,0.87942,0.79835
545.88,26.78882,-0.49678,0.88094,0.79794
546.58,26.81165,-0.49753,0.87839,0.79753
547.28,26.8345,-0.49754,0.87823,0.79711
547.98,26.85724,-0.49756,0.87914,0.7967
548.68,26.88001,-0.49853,0.87675,0.79629
549.38,26.9028,-0.49882,0.87691,0.79587
550.08,26.92554,-0.50001,0.8795,0.79546
550.78,26.94831,-0.50027,0.87736,0.79504
551.48,26.971,-0.50165,0.8773,0.79463
552.18,26.9937,-0.50161,0.8724,0.79421
552.88,27.01646,-0.50163,0.8728,0.79379
553.58,27.0391,-0.5025,0.87178,0.79338
554.28,27.06186,-0.50287,0.87634,0.79296
554.98,27.0845,-0.50416,0.87961,0.79254
555.68,27.10727,-0.50572,0.88377,0.79212
556.38,27.12995,-0.50664,0.88544,0.7917
557.08,27.1526,-0.50664,0.88928,0.79128
557.78,27.1753,-0.50664,0.89049,0.79086
558.48,27.19802,-0.50663,0.89137,0.79044
559.18,27.22077,-0.508,0.89325,0.79002
559.88,27.2436,-0.50797,0.8969,0.7896
560.58,27.26633,-0.50796,0.8975,0.78917
561.28,27.2891,-0.50799,0.89548,0.78875
561.98,27.3119,-0.50696,0.89762,0.78833
562.68,27.33473,-0.50694,0.8959,0.7879
563.38,27.3576,-0.50732,0.89841,0.78748
564.08,27.38035,-0.5073,0.8985,0.78705
564.78,27.4031,-0.50693,0.90072,0.78663
565.48,27.42582,-0.50686,0.90146,0.7862
566.18,27.4486,-0.50799,0.89976,0.78577
566.88,27.4714,-0.50796,0.90075,0.78535
567.58,27.4942,-0.50788,0.90193,0.78492
568.28,27.51703,-0.50924,0.90111,0.78449
568.98,27.5399,-0.50927,0.89634,0.78406
569.68,27.56265,-0.50927,0.90071,0.78363
570.38,27.5855,-0.51018,0.89759,0.7832
571.08,27.6083,-0.51058,0.89509,0.78277
571.78,27.6311,-0.51055,0.89467,0.78234
572.48,27.654,-0.50942,0.89016,0.78191
573.18,27.6768,-0.51063,0.88373,0.78147
573.88,27.69975,-0.5106,0.87823,0.78104
574.58,27.7226,-0.5106,0.86949,0.78061
575.28,27.7455,-0.5106,0.86627,0.78017
575.98,27.76837,-0.51056,0.86133,0.77974
576.68,27.7912,-0.51194,0.85377,0.7793
577.38,27.81413,-0.51211,0.85106,0.77887
578.08,27.83707,-0.51325,0.8482,0.77843
578.78,27.85994,-0.51322,0.84146,0.77799
579.48,27.88291,-0.51346,0.84013,0.77755
580.18,27.90581,-0.51455,0.83672,0.77712
580.88,27.9287,-0.51454,0.83169,0.77668
581.58,27.95164,-0.51454,0.82705,0.77624
582.28,27.97451,-0.51534,0.82463,0.7758
582.98,27.99745,-0.51584,0.82179,0.77536
583.68,28.0203,-0.51585,0.81555,0.77492
584.38,28.04328,-0.51612,0.81768,0.77447
585.08,28.0663,-0.51718,0.80965,0.77403
585.78,28.0892,-0.51717,0.80503,0.77359
586.48,28.11216,-0.51717,0.79546,0.77315
587.18,28.1351,-0.51724,0.7956,0.7727
587.88,28.15802,-0.51853,0.79112,0.77226
588.58,28.181,-0.51849,0.78503,0.77181
589.28,28.204,-0.51848,0.78077,0.77137
589.98,28.2269,-0.51955,0.77302,0.77092
590.68,28.2499,-0.51947,0.76558,0.77047
591.38,28.2729,-0.51851,0.76117,0.77002
592.08,28.2959,-0.51849,0.75773,0.76958
592.78,28.31878,-0.51846,0.74702,0.76913
593.48,28.3417,-0.51985,0.74027,0.76868
594.18,28.3647,-0.51981,0.73524,0.76823
594.88,28.38772,-0.51973,0.73359,0.76778
595.58,28.4108,-0.52113,0.72629,0.76733
596.28,28.43389,-0.52113,0.71974,0.76687
596.98,28.45693,-0.52108,0.71504,0.76642
597.68,28.47999,-0.52244,0.70849,0.76597
598.38,28.503,-0.52244,0.7062,0.76552
599.08,28.5259,-0.52239,0.7025,0.76506
599.78,28.5489,-0.52372,0.69567,0.76461
600.48,28.57184,-0.5238,0.69169,0.76415
601.18,28.5948,-0.52251,0.6869,0.7637
601.88,28.6177,-0.5224,0.6819,0.76324
602.58,28.64077,-0.52377,0.67793,0.76278
603.28,28.66385,-0.52375,0.67144,0.76232
603.98,28.6869,-0.52373,0.66769,0.76187
604.68,28.71006,-0.52474,0.66463,0.76141
605.38,28.73306,-0.52565,0.66217,0.76095
606.08,28.75602,-0.52605,0.65485,0.76049
606.78,28.7791,-0.52606,0.65354,0.76003
607.48,28.8021,-0.52606,0.64624,0.75957
608.18,28.8252,-0.52606,0.64665,0.7591
608.88,28.8483,-0.52606,0.64241,0.75864
609.58,28.8714,-0.52606,0.63885,0.75818
610.28,28.8945,-0.52606,0.6352,0.75771
610.98,28.91752,-0.52622,0.6329,0.75725
611.68,28.9406,-0.52737,0.6322,0.75678
612.38,28.96365,-0.52737,0.62645,0.75632
613.08,28.9867,-0.52727,0.62961,0.75585
613.78,29.00974,-0.52805,0.62507,0.75539
614.48,29.0328,-0.52738,0.62331,0.75492
615.18,29.05582,-0.52737,0.62416,0.75445
615.88,29.07875,-0.52737,0.62167,0.75398
616.58,29.1017,-0.52748,0.62243,0.75351
617.28,29.12477,-0.52974,0.61897,0.75304
617.98,29.1479,-0.53,0.61723,0.75257
618.68,29.17115,-0.53001,0.61866,0.7521
619.38,29.1944,-0.53001,0.62033,0.75163
620.08,29.21752,-0.53001,0.62154,0.75116
620.78,29.24056,-0.53,0.61831,0.75068
621.48,29.2637,-0.53164,0.62149,0.75021
622.18,29.28678,-0.53215,0.62214,0.74973
622.88,29.30994,-0.53329,0.62424,0.74926
623.58,29.33312,-0.53368,0.6253,0.74878
624.28,29.3563,-0.53501,0.62725,0.74831
624.98,29.3794,-0.53506,0.6312,0.74783
625.68,29.4025,-0.53621,0.62989,0.74735
626.38,29.42557,-0.53637,0.63232,0.74688
627.08,29.4486,-0.53637,0.63524,0.7464
627.78,29.4717,-0.53637,0.63601,0.74592
628.48,29.49486,-0.53642,0.6385,0.74544
629.18,29.518,-0.53513,0.64515,0.74496
629.88,29.5412,-0.53505,0.64652,0.74448
630.58,29.5643,-0.5351,0.65212,0.74399
631.28,29.58741,-0.53641,0.65493,0.74351
631.98,29.6105,-0.53635,0.65936,0.74303
632.68,29.63358,-0.53757,0.66192,0.74255
633.38,29.6568,-0.53768,0.66624,0.74206
634.08,29.67997,-0.53768,0.67028,0.74158
634.78,29.70315,-0.53762,0.67493,0.74109
635.48,29.7264,-0.53897,0.68039,0.7406
636.18,29.74943,-0.539,0.68763,0.74012
636.88,29.77256,-0.539,0.69094,0.73963
637.58,29.79573,-0.53891,0.69641,0.73914
638.28,29.81884,-0.5403,0.70118,0.73865
638.98,29.84205,-0.54031,0.70443,0.73816
639.68,29.86523,-0.54113,0.7116,0.73767
640.38,29.8884,-0.54028,0.71632,0.73718
641.08,29.9116,-0.54038,0.72181,0.73669
641.78,29.9347,-0.54168,0.72578,0.7362
642.48,29.95777,-0.54163,0.73341,0.73571
643.18,29.98092,-0.54163,0.73832,0.73521
643.88,30.004,-0.54238,0.74192,0.73472
644.58,30.02712,-0.54293,0.75092,0.73423
645.28,30.05023,-0.54295,0.7538,0.73373
645.98,30.07333,-0.54448,0.76169,0.73324
646.68,30.09641,-0.54429,0.7661,0.73274
647.38,30.1196,-0.54569,0.7707,0.73224
648.08,30.14279,-0.5457,0.77689,0.73174
648.78,30.1659,-0.54599,0.78265,0.73125
649.48,30.1891,-0.54766,0.79345,0.73075
650.18,30.21214,-0.54768,0.79792,0.73025
650.88,30.23525,-0.54816,0.80562,0.72975
651.58,30.25838,-0.54899,0.81036,0.72925
652.28,30.28148,-0.54909,0.81696,0.72875
652.98,30.30466,-0.55042,0.82042,0.72824
653.68,30.3278,-0.55163,0.8297,0.72774
654.38,30.35091,-0.55081,0.83557,0.72724
655.08,30.3741,-0.55212,0.84154,0.72673
655.78,30.39712,-0.55322,0.85211,0.72623
656.48,30.4202,-0.55349,0.85932,0.72572
657.18,30.4434,-0.55499,0.86742,0.72522
657.88,30.4665,-0.5556,0.87328,0.72471
658.58,30.4897,-0.55642,0.88403,0.72421
659.28,30.5129,-0.558,0.89432,0.7237
659.98,30.536,-0.55962,0.8985,0.72319
660.68,30.5591,-0.56009,0.90739,0.72268
661.38,30.5821,-0.56082,0.91569,0.72217
662.08,30.6053,-0.56082,0.92589,0.72166
662.78,30.6284,-0.56203,0.93315,0.72115
663.48,30.6516,-0.56215,0.94134,0.72064
664.18,30.6747,-0.5622,0.95202,0.72013
664.88,30.69785,-0.56271,0.95903,0.71961
665.58,30.721,-0.56378,0.96633,0.7191
666.28,30.74413,-0.56454,0.97854,0.71859
666.98,30.7673,-0.56512,0.98878,0.71807
667.68,30.7904,-0.5666,0.99877,0.71756
668.38,30.8136,-0.56791,1.00799,0.71704
669.08,30.8368,-0.56917,1.01816,0.71652
669.78,30.85997,-0.57059,1.02565,0.71601
670.48,30.88314,-0.57212,1.03843,0.71549
671.18,30.90635,-0.57211,1.0473,0.71497
671.88,30.92953,-0.57356,1.05877,0.71445
672.58,30.9527,-0.5752,1.06945,0.71393
673.28,30.97587,-0.57625,1.08179,0.71341
673.98,30.999,-0.57697,1.09234,0.71289
674.68,31.0222,-0.57833,1.10511,0.71237
675.38,31.0454,-0.57986,1.11741,0.71184
676.08,31.0686,-0.58112,1.12851,0.71132
676.78,31.09165,-0.58138,1.14135,0.7108
677.48,31.11481,-0.58292,1.15474,0.71027
678.18,31.138,-0.58446,1.16431,0.70975
678.88,31.1611,-0.58463,1.17551,0.70922
679.58,31.1844,-0.58586,1.19205,0.7087
680.28,31.20758,-0.58669,1.20065,0.70817
680.98,31.23072,-0.58785,1.21232,0.70764
681.68,31.25385,-0.58936,1.22555,0.70711
682.38,31.27703,-0.59102,1.24008,0.70659
683.08,31.30022,-0.59264,1.255,0.70606
683.78,31.3234,-0.59432,1.26241,0.70553
684.48,31.3466,-0.59608,1.27597,0.705
685.18,31.3698,-0.59953,1.29218,0.70446
685.88,31.393,-0.60117,1.30681,0.70393
686.58,31.4162,-0.60254,1.32155,0.7034
687.28,31.4394,-0.60262,1.33526,0.70287
687.98,31.46254,-0.60412,1.34855,0.70233
688.68,31.4857,-0.60429,1.36381,0.7018
689.38,31.50892,-0.60635,1.37977,0.70126
690.08,31.53213,-0.60785,1.39497,0.70073
690.78,31.55535,-0.60961,1.41111,0.70019
691.48,31.57858,-0.61091,1.42693,0.69965
692.18,31.60187,-0.61194,1.43932,0.69912
692.88,31.62511,-0.61218,1.45818,0.69858
693.58,31.64835,-0.61408,1.47508,0.69804
694.28,31.6716,-0.61653,1.4913,0.6975
694.98,31.6948,-0.61899,1.50948,0.69696
695.68,31.7181,-0.62019,1.52751,0.69642
696.38,31.74131,-0.62136,1.54633,0.69588
697.08,31.76452,-0.62317,1.56525,0.69534
697.78,31.78776,-0.62495,1.58452,0.69479
698.48,31.811,-0.6266,1.60205,0.69425
699.18,31.8342,-0.62901,1.618,0.69371
699.88,31.8575,-0.6311,1.64197,0.69316
700.58,31.8807,-0.63252,1.65692,0.69262
701.28,31.9039,-0.63464,1.68106,0.69207
701.98,31.9271,-0.63695,1.70052,0.69152
702.68,31.9503,-0.63928,1.72085,0.69098
703.38,31.9735,-0.64149,1.74407,0.69043
704.08,31.9968,-0.64345,1.764,0.68988
704.78,32.0201,-0.64607,1.78765,0.68933
705.48,32.04336,-0.64827,1.80888,0.68878
706.18,32.06662,-0.65044,1.83644,0.68823
706.88,32.08987,-0.65263,1.85664,0.68768
707.58,32.11302,-0.65527,1.8821,0.68713
708.28,32.13641,-0.65753,1.90739,0.68658
708.98,32.15982,-0.65909,1.9303,0.68603
709.68,32.18318,-0.66069,1.95742,0.68547
710.38,32.20668,-0.6634,1.98421,0.68492
711.08,32.22997,-0.66656,2.01335,0.68436
711.78,32.25327,-0.66991,2.03598,0.68381
712.48,32.27661,-0.67274,2.0676,0.68325
713.18,32.29987,-0.67379,2.09567,0.6827
713.88,32.32322,-0.67564,2.12725,0.68214
714.58,32.3465,-0.67793,2.15502,0.68158
715.28,32.36987,-0.68223,2.18303,0.68102
715.98,32.3932,-0.68703,2.21308,0.68047
716.68,32.41666,-0.69027,2.24584,0.67991
717.38,32.4401,-0.69279,2.27951,0.67935
718.08,32.46345,-0.6941,2.30788,0.67878
718.78,32.48681,-0.69745,2.34226,0.67822
719.48,32.5101,-0.70091,2.37965,0.67766
720.18,32.5334,-0.70399,2.40721,0.6771
720.88,32.5567,-0.70696,2.44056,0.67654
721.58,32.5801,-0.71089,2.47604,0.67597
722.28,32.60348,-0.71381,2.51296,0.67541
722.98,32.6269,-0.7159,2.5479,0.67484
723.68,32.6502,-0.71825,2.57878,0.67428
724.38,32.67355,-0.72123,2.61719,0.67371
725.08,32.69681,-0.725,2.65038,0.67314
725.78,32.72018,-0.72847,2.68421,0.67258
726.48,32.7436,-0.73259,2.72323,0.67201
727.18,32.76703,-0.73649,2.76216,0.67144
727.88,32.79055,-0.74017,2.79871,0.67087
728.58,32.814,-0.74374,2.84028,0.6703
729.28,32.83748,-0.74844,2.87622,0.66973
729.98,32.86091,-0.75257,2.91322,0.66916
730.68,32.88436,-0.7571,2.95365,0.66859
731.38,32.90777,-0.76154,2.99605,0.66802
732.08,32.93118,-0.76553,3.03355,0.66744
732.78,32.9546,-0.76947,3.07097,0.66687
733.48,32.978,-0.77258,3.11568,0.6663
734.18,33.00145,-0.77694,3.15738,0.66572
734.88,33.02486,-0.78185,3.20286,0.66515
735.58,33.04826,-0.78606,3.24164,0.66457
736.28,33.07172,-0.79157,3.28736,0.66399
736.98,33.09514,-0.79596,3.32847,0.66342
737.68,33.11857,-0.80113,3.37152,0.66284
738.38,33.14206,-0.80669,3.41493,0.66226
739.08,33.16552,-0.81074,3.4612,0.66168
739.78,33.18897,-0.81604,3.50789,0.6611
740.48,33.21243,-0.82044,3.55029,0.66052
741.18,33.23584,-0.82584,3.60163,0.65994
741.88,33.25935,-0.82895,3.64315,0.65936
742.58,33.28282,-0.83431,3.69618,0.65878
743.28,33.3063,-0.84018,3.74666,0.6582
743.98,33.3298,-0.84476,3.79345,0.65761
744.68,33.35329,-0.85011,3.84318,0.65703
745.38,33.37685,-0.8556,3.89625,0.65645
746.08,33.40041,-0.86225,3.94493,0.65586
746.78,33.42392,-0.86814,3.99821,0.65527
747.48,33.44742,-0.87462,4.05262,0.65469
748.18,33.4709,-0.88004,4.10499,0.6541
748.88,33.49434,-0.88542,4.15547,0.65352
749.58,33.51785,-0.89099,4.21064,0.65293
750.28,33.54136,-0.89672,4.2646,0.65234
750.98,33.56487,-0.90306,4.31827,0.65175
751.68,33.58833,-0.90888,4.37443,0.65116
752.38,33.61184,-0.9157,4.42856,0.65057
753.08,33.63534,-0.92336,4.48564,0.64998
753.78,33.65882,-0.93011,4.5413,0.64939
754.48,33.68237,-0.93792,4.59859,0.6488
755.18,33.7059,-0.94375,4.6543,0.64821
755.88,33.7294,-0.9503,4.71193,0.64761
756.58,33.75291,-0.95748,4.77375,0.64702
757.28,33.7764,-0.96451,4.83182,0.64643
757.98,33.79997,-0.97181,4.89151,0.64583
758.68,33.8235,-0.97801,4.94987,0.64524
759.38,33.8471,-0.98592,5.01137,0.64464
760.08,33.87065,-0.99391,5.07131,0.64404
760.78,33.89417,-1.00147,5.13608,0.64345
761.48,33.9178,-1.00916,5.19341,0.64285
762.18,33.9413,-1.01566,5.2567,0.64225
762.88,33.96479,-1.02404,5.31963,0.64165
763.58,33.98832,-1.03188,5.37945,0.64105
764.28,34.0118,-1.04012,5.44362,0.64045
764.98,34.03543,-1.04874,5.50832,0.63985
765.68,34.05904,-1.05667,5.57244,0.63925
766.38,34.08262,-1.06654,5.62966,0.63865
767.08,34.10622,-1.07455,5.69361,0.63805
767.78,34.12975,-1.08329,5.75167,0.63745
768.48,34.1533,-1.09225,5.81526,0.63684
769.18,34.1768,-1.10057,5.87339,0.63624
769.88,34.20013,-1.11106,5.93833,0.63564
770.58,34.22352,-1.11967,5.994,0.63503
771.28,34.247,-1.12989,6.05113,0.63443
771.98,34.2705,-1.13946,6.10695,0.63382
772.68,34.2943,-1.14858,6.16552,0.63322
773.38,34.3179,-1.15821,6.21833,0.63261
774.08,34.34147,-1.16653,6.2738,0.632
774.78,34.36504,-1.17719,6.32475,0.63139
775.48,34.38857,-1.18504,6.3771,0.63078
776.18,34.41222,-1.19436,6.42894,0.63018
776.88,34.4358,-1.20443,6.47433,0.62957
777.58,34.4594,-1.21385,6.52426,0.62896
778.28,34.48298,-1.22513,6.55772,0.62835
778.98,34.50652,-1.23467,6.60057,0.62773
779.68,34.5301,-1.24355,6.63258,0.62712
780.38,34.55369,-1.25367,6.66435,0.62651
781.08,34.57724,-1.26393,6.69069,0.6259
781.78,34.6008,-1.27646,6.71462,0.62528
782.48,34.62443,-1.28584,6.72452,0.62467
783.18,34.64798,-1.29648,6.73352,0.62406
783.88,34.6715,-1.30625,6.72675,0.62344
784.58,34.69507,-1.31595,6.71545,0.62283
785.28,34.71859,-1.32738,6.68704,0.62221
785.98,34.74216,-1.3373,6.64536,0.62159
786.68,34.7657,-1.34832,6.59078,0.62098
787.38,34.7892,-1.35752,6.50835,0.62036
788.08,34.8127,-1.36723,6.40917,0.61974
788.78,34.83618,-1.37879,6.27758,0.61912
789.48,34.85964,-1.38815,6.10905,0.6185
790.18,34.88308,-1.39877,5.9026,0.61788
790.88,34.9065,-1.4071,5.63834,0.61726
791.58,34.92991,-1.41581,5.29983,0.61664
792.28,34.95328,-1.42397,4.8517,0.61602
792.98,34.9766,-1.43141,4.22198,0.6154
793.68,34.99988,-1.4373,3.45894,0.61478
794.38,35.02306,-1.442,2.71021,0.61415
795.08,35.04619,-1.44615,2.08062,0.61353
795.78,35.0693,-1.44909,1.58113,0.61291
796.48,35.0922,-1.45136,1.20748,0.61228
797.18,35.11528,-1.45274,0.92655,0.61166
797.88,35.13827,-1.45288,0.71274,0.61103
798.58,35.1614,-1.45321,0.5551,0.61041
799.28,35.18488,-1.45355,0.4382,0.60978
799.98,35.20823,-1.454,0.35203,0.60916
800.68,35.23189,-1.45401,0.2884,0.60853
801.38,35.25542,-1.45401,0.24056,0.6079
802.08,35.27899,-1.45402,0.20548,0.60727
802.78,35.30255,-1.45509,0.1745,0.60664
803.48,35.32605,-1.4551,0.15281,0.60601
804.18,35.3495,-1.45399,0.13342,0.60538
804.88,35.373,-1.454,0.12425,0.60475
805.58,35.3965,-1.454,0.11469,0.60412
806.28,35.41995,-1.454,0.10104,0.60349
806.98,35.4435,-1.45398,0.09436772,0.60286
807.68,35.467,-1.45435,0.08881857,0.60223
808.38,35.49058,-1.45433,0.07608603,0.6016
809.08,35.51415,-1.45433,0.07425064,0.60096
809.78,35.5377,-1.45433,0.06695622,0.60033
810.48,35.5612,-1.45433,0.06092382,0.5997
811.18,35.58467,-1.45515,0.05643463,0.59906
811.88,35.60823,-1.45564,0.05042627,0.59843
812.58,35.6318,-1.45565,0.04808673,0.59779
813.28,35.6554,-1.45565,0.04994753,0.59715
813.98,35.67901,-1.4559,0.04649871,0.59652
814.68,35.70255,-1.45694,0.04386188,0.59588
815.38,35.72611,-1.45698,0.04255891,0.59524
816.08,35.74961,-1.45792,0.03703029,0.59461
816.78,35.7731,-1.45828,0.03722772,0.59397
817.48,35.7967,-1.45828,0.03400331,0.59333
818.18,35.82025,-1.45827,0.03236224,0.59269
818.88,35.84387,-1.45796,0.02943892,0.59205
819.58,35.8675,-1.458,0.02851116,0.59141
820.28,35.8911,-1.4566,0.02869001,0.59077
820.98,35.91466,-1.45663,0.02691582,0.59013
821.68,35.93823,-1.45663,0.02493216,0.58949
822.38,35.96184,-1.4567,0.02563051,0.58885
823.08,35.9854,-1.458,0.02095056,0.5882
823.78,36.009,-1.45795,0.02090733,0.58756
824.48,36.0325,-1.45795,0.02297395,0.58692
825.18,36.05608,-1.45698,0.0192264,0.58627
825.88,36.0797,-1.45664,0.01741042,0.58563
826.58,36.10328,-1.45664,0.01885743,0.58498
827.28,36.12689,-1.45664,0.01882003,0.58434
827.98,36.15052,-1.45664,0.01924186,0.58369
828.68,36.17413,-1.4566,0.0150498,0.58305
829.38,36.19768,-1.45824,0.01577727,0.5824
830.08,36.2214,-1.46036,0.0122304,0.58176
830.78,36.24512,-1.46024,0.0138356,0.58111
831.48,36.26877,-1.45915,0.01158249,0.58046
832.18,36.29253,-1.45809,0.008895742,0.57981
832.88,36.31613,-1.45751,0.009029327,0.57916
833.58,36.33979,-1.45739,0.004051513,0.57851
834.28,36.3634,-1.4574,0.005273226,0.57787
834.98,36.387,-1.45847,0.00148172,0.57722
835.68,36.41063,-1.45872,0.002795556,0.57657
836.38,36.43419,-1.45868,0.00485938,0.57591
837.08,36.45786,-1.45995,0.002695069,0.57526
837.78,36.4816,-1.46004,0.001407249,0.57461
838.48,36.50526,-1.46004,-0.003494375,0.57396
839.18,36.52899,-1.46004,-0.001186832,0.57331
839.88,36.5527,-1.46004,-0.003063325,0.57266
840.58,36.57633,-1.46004,-0.005646216,0.572
841.28,36.60006,-1.46004,-0.008726795,0.57135
841.98,36.62395,-1.46165,-0.00869783,0.5707
842.68,36.64819,-1.46158,-0.01200841,0.57004
843.18,36.66489,-1.46158,-0.01196036,0.56957