File: 01_Data/Pine_Lap_Siding_Paint/STA/N2/30K_min/Pine_Lap_Siding_Paint_STA_N2_30KData_220315_R1.csv
##Temp./Â°C,Time/min,Mass loss(subtr.2)/mg,DSC(subtr.2)/(mW/mg),Sensit./(uV/mW)
48.601,10.00667,-0.01448,0.00207062,1.08906
49.201,10.52463,-0.01449462,0.03106878,1.08855
49.801,10.64264,-0.01602335,0.053406,1.08804
50.401,10.72776,-0.01535154,0.07615501,1.08754
51.001,10.79607,-0.01650858,0.09606919,1.08703
51.601,10.8552,-0.01607771,0.11293,1.08653
52.201,10.90785,-0.0152715,0.13204,1.08602
52.801,10.95557,-0.01667044,0.14552,1.08552
53.401,10.99962,-0.01575604,0.16288,1.08502
54.001,11.0413,-0.01658873,0.17505,1.08452
54.601,11.08071,-0.01654477,0.1894,1.08402
55.201,11.1179,-0.01678148,0.20297,1.08352
55.801,11.1538,-0.01593529,0.21574,1.08302
56.401,11.18823,-0.01615792,0.22613,1.08252
57.001,11.2213,-0.01653541,0.23978,1.08202
57.601,11.25352,-0.01658483,0.24935,1.08152
58.201,11.2847,-0.01585439,0.26137,1.08102
58.801,11.315,-0.01593385,0.2688,1.08053
59.401,11.34474,-0.01469282,0.28079,1.08003
60.001,11.37389,-0.01554907,0.28929,1.07953
60.601,11.40223,-0.01532527,0.29629,1.07904
61.201,11.43,-0.01579125,0.30696,1.07854
61.801,11.4573,-0.01508827,0.31515,1.07805
62.401,11.4842,-0.01577946,0.3229,1.07756
63.001,11.51035,-0.01649278,0.3299,1.07706
63.601,11.53642,-0.01586508,0.33575,1.07657
64.201,11.56211,-0.0154866,0.34437,1.07608
64.801,11.5878,-0.0149643,0.35263,1.07559
65.401,11.61267,-0.015845,0.35743,1.0751
66.001,11.63771,-0.01601836,0.36442,1.07461
66.601,11.66227,-0.01609864,0.36913,1.07412
67.201,11.6869,-0.01600479,0.37685,1.07363
67.801,11.71081,-0.0160127,0.38103,1.07315
68.401,11.7348,-0.01664889,0.38834,1.07266
69.001,11.7585,-0.01725649,0.39353,1.07217
69.601,11.78222,-0.01834414,0.39952,1.07169
70.201,11.8058,-0.01846036,0.40518,1.0712
70.801,11.8291,-0.01863444,0.41075,1.07072
71.401,11.8522,-0.01807694,0.41614,1.07024
72.001,11.87503,-0.01783433,0.42069,1.06975
72.601,11.8978,-0.01667288,0.42528,1.06927
73.201,11.92055,-0.01643662,0.43098,1.06879
73.801,11.94314,-0.01666228,0.43349,1.06831
74.401,11.9657,-0.01740799,0.43825,1.06783
75.001,11.98811,-0.01798604,0.44311,1.06735
75.601,12.01046,-0.01743525,0.4454,1.06687
76.201,12.03266,-0.01663846,0.45173,1.06639
76.801,12.0548,-0.01708215,0.45252,1.06591
77.401,12.0768,-0.01821449,0.45984,1.06543
78.001,12.09879,-0.01721855,0.46268,1.06495
78.601,12.1206,-0.01764993,0.46409,1.06448
79.201,12.1425,-0.01848489,0.47058,1.064
79.801,12.16422,-0.01998427,0.47448,1.06353
80.401,12.18597,-0.01930635,0.47838,1.06305
81.001,12.20754,-0.01995611,0.48042,1.06258
81.601,12.22904,-0.01996012,0.48418,1.06211
82.201,12.25043,-0.01995996,0.48831,1.06163
82.801,12.27174,-0.01996163,0.49103,1.06116
83.401,12.29305,-0.02007072,0.495,1.06069
84.001,12.3143,-0.02005793,0.49563,1.06022
84.601,12.3355,-0.01990804,0.4986,1.05975
85.201,12.35662,-0.01961345,0.50323,1.05928
85.801,12.37764,-0.01920795,0.50645,1.05881
86.401,12.39862,-0.02002863,0.50808,1.05834
87.001,12.41956,-0.02005887,0.50919,1.05787
87.601,12.4405,-0.02005721,0.51332,1.05741
88.201,12.46137,-0.02007959,0.51793,1.05694
88.801,12.48216,-0.02007996,0.51962,1.05647
89.401,12.50283,-0.01909655,0.52005,1.05601
90.001,12.52365,-0.02007624,0.52222,1.05554
90.601,12.5444,-0.01874544,0.52539,1.05508
91.201,12.56504,-0.01910736,0.52604,1.05462
91.801,12.5857,-0.02000049,0.52939,1.05415
92.401,12.60627,-0.01864896,0.5307,1.05369
93.001,12.62683,-0.01996714,0.53382,1.05323
93.601,12.64735,-0.01995884,0.53533,1.05277
94.201,12.66784,-0.02002523,0.53906,1.05231
94.801,12.68832,-0.02139945,0.5409,1.05185
95.401,12.70875,-0.02007493,0.54173,1.05139
96.001,12.72917,-0.02139869,0.54483,1.05093
96.601,12.74956,-0.02139286,0.54712,1.05047
97.201,12.76999,-0.02044138,0.5474,1.05001
97.801,12.79035,-0.02137642,0.54848,1.04956
98.401,12.8108,-0.02140432,0.55215,1.0491
99.001,12.8311,-0.02255609,0.5536,1.04865
99.601,12.85138,-0.02252852,0.55511,1.04819
100.201,12.87175,-0.02133629,0.55631,1.04774
100.801,12.8921,-0.0227082,0.55748,1.04728
101.401,12.91239,-0.02144189,0.56071,1.04683
102.001,12.93266,-0.02139621,0.56135,1.04638
102.601,12.95282,-0.02268396,0.56463,1.04593
103.201,12.97306,-0.0224035,0.56584,1.04547
103.801,12.99328,-0.02138976,0.56535,1.04502
104.401,13.0135,-0.02139,0.56665,1.04457
105.001,13.03373,-0.02138854,0.56794,1.04412
105.601,13.05392,-0.02065652,0.56977,1.04367
106.201,13.07398,-0.02006484,0.57163,1.04323
106.801,13.09406,-0.02111857,0.57284,1.04278
107.401,13.1142,-0.02140279,0.57532,1.04233
108.001,13.1343,-0.0200477,0.57628,1.04188
108.601,13.15441,-0.02007999,0.57777,1.04144
109.201,13.1745,-0.02012278,0.57893,1.04099
109.801,13.19455,-0.02004483,0.58058,1.04055
110.401,13.21463,-0.0200706,0.58064,1.0401
111.001,13.2348,-0.02006377,0.58265,1.03966
111.601,13.25486,-0.021065,0.58383,1.03922
112.201,13.27505,-0.02040533,0.5867,1.03878
112.801,13.2951,-0.02040009,0.58684,1.03833
113.401,13.31514,-0.02038952,0.58822,1.03789
114.001,13.33516,-0.02151645,0.58991,1.03745
114.601,13.35508,-0.02171124,0.59035,1.03701
115.201,13.37512,-0.02170997,0.59293,1.03657
115.801,13.39516,-0.02171,0.59226,1.03613
116.401,13.41525,-0.02171,0.59404,1.0357
117.001,13.43529,-0.02171,0.59499,1.03526
117.601,13.45526,-0.02171001,0.59829,1.03482
118.201,13.4752,-0.02170962,0.59813,1.03438
118.801,13.4951,-0.02172845,0.59774,1.03395
119.401,13.5151,-0.0214324,0.59928,1.03351
120.001,13.5349,-0.02271749,0.60291,1.03308
120.601,13.55478,-0.02266604,0.60213,1.03264
121.201,13.5746,-0.02135471,0.60401,1.03221
121.801,13.5945,-0.02274948,0.60307,1.03178
122.401,13.61444,-0.0227097,0.60763,1.03135
123.001,13.6343,-0.0226901,0.60916,1.03091
123.601,13.65417,-0.02137882,0.60865,1.03048
124.201,13.67392,-0.02139016,0.60958,1.03005
124.801,13.6936,-0.02139,0.61131,1.02962
125.401,13.7134,-0.02139,0.61311,1.02919
126.001,13.73303,-0.02139115,0.61532,1.02876
126.601,13.75262,-0.02079209,0.61374,1.02834
127.201,13.77235,-0.02140855,0.61588,1.02791
127.801,13.792,-0.02138955,0.61787,1.02748
128.401,13.81163,-0.02138664,0.61741,1.02705
129.001,13.83131,-0.02180106,0.61977,1.02663
129.601,13.8509,-0.02269986,0.62004,1.0262
130.201,13.8706,-0.02271031,0.62138,1.02578
130.801,13.8903,-0.0227051,0.62409,1.02535
131.401,13.9099,-0.02302536,0.62361,1.02493
132.001,13.9295,-0.02336508,0.62536,1.02451
132.601,13.94899,-0.0233599,0.62693,1.02408
133.201,13.96843,-0.02336,0.62466,1.02366
133.801,13.98792,-0.02336,0.62778,1.02324
134.401,14.0075,-0.02336,0.63022,1.02282
135.001,14.02701,-0.02336,0.63148,1.0224
135.601,14.04654,-0.02336,0.63309,1.02198
136.201,14.066,-0.02336051,0.63378,1.02156
136.801,14.0854,-0.02331921,0.63575,1.02114
137.401,14.10479,-0.02470917,0.63655,1.02072
138.001,14.12413,-0.02467931,0.63621,1.02031
138.601,14.14335,-0.02467656,0.63904,1.01989
139.201,14.16257,-0.02486395,0.64079,1.01947
139.801,14.18195,-0.02597661,0.64014,1.01906
140.401,14.2013,-0.02598825,0.64294,1.01864
141.001,14.22071,-0.02559726,0.6426,1.01823
141.601,14.24,-0.02468,0.64583,1.01781
142.201,14.25924,-0.02467992,0.64727,1.0174
142.801,14.2785,-0.02469266,0.6473,1.01699
143.401,14.2978,-0.02581244,0.65075,1.01658
144.001,14.3171,-0.02632505,0.65273,1.01616
144.601,14.33635,-0.02633011,0.65403,1.01575
145.201,14.35559,-0.02633,0.65297,1.01534
145.801,14.37475,-0.02633,0.65585,1.01493
146.401,14.39391,-0.02633,0.65745,1.01452
147.001,14.4131,-0.02633,0.65766,1.01411
147.601,14.4321,-0.02633,0.65839,1.0137
148.201,14.4512,-0.02633,0.66003,1.0133
148.801,14.47034,-0.02633,0.66203,1.01289
149.401,14.4893,-0.02632979,0.6628,1.01248
150.001,14.5084,-0.02633728,0.66438,1.01208
150.601,14.5275,-0.02709054,0.66601,1.01167
151.201,14.5465,-0.02763947,0.66485,1.01127
151.801,14.56564,-0.02764008,0.66825,1.01086
152.401,14.58474,-0.02764,0.66898,1.01046
153.001,14.60377,-0.02764,0.67136,1.01005
153.601,14.6228,-0.02763997,0.67314,1.00965
154.201,14.6418,-0.027641,0.67335,1.00925
154.801,14.6608,-0.02761816,0.67223,1.00885
155.401,14.6798,-0.02697872,0.6779,1.00844
156.001,14.6988,-0.02698027,0.67944,1.00804
156.601,14.71776,-0.02697279,0.67739,1.00764
157.201,14.73674,-0.0264568,0.67972,1.00724
157.801,14.75571,-0.02668361,0.68054,1.00684
158.401,14.7746,-0.02664949,0.6799,1.00645
159.001,14.79362,-0.02665,0.68276,1.00605
159.601,14.81254,-0.02665,0.68361,1.00565
160.201,14.8315,-0.02665,0.68563,1.00525
160.801,14.8505,-0.02665,0.68719,1.00486
161.401,14.8694,-0.02665,0.68734,1.00446
162.001,14.88827,-0.02665002,0.69145,1.00406
162.601,14.9071,-0.02664983,0.6887,1.00367
163.201,14.92591,-0.02663776,0.69275,1.00328
163.801,14.9448,-0.02689422,0.6926,1.00288
164.401,14.9637,-0.02600155,0.69375,1.00249
165.001,14.9826,-0.02598974,0.69619,1.0021
165.601,15.00155,-0.02599,0.69688,1.0017
166.201,15.0204,-0.02599,0.69997,1.00131
166.801,15.03917,-0.02599,0.69912,1.00092
167.401,15.058,-0.02599,0.70001,1.00053
168.001,15.0768,-0.02599,0.70098,1.00014
168.601,15.09554,-0.02598999,0.70254,0.99975
169.201,15.11435,-0.02599032,0.70408,0.99936
169.801,15.1332,-0.02599217,0.70445,0.99897
170.401,15.15191,-0.02498418,0.70501,0.99858
171.001,15.1708,-0.02500955,0.70774,0.9982
171.601,15.1896,-0.0250983,0.70677,0.99781
172.201,15.20831,-0.02634969,0.70794,0.99742
172.801,15.2271,-0.02669804,0.70985,0.99704
173.401,15.2458,-0.02764476,0.71043,0.99665
174.001,15.2645,-0.02763976,0.71341,0.99627
174.601,15.28328,-0.02764001,0.7128,0.99588
175.201,15.302,-0.02763978,0.71518,0.9955
175.801,15.3207,-0.02764368,0.71431,0.99511
176.401,15.33942,-0.02824863,0.71721,0.99473
177.001,15.358,-0.02829304,0.71833,0.99435
177.601,15.3766,-0.02828991,0.71936,0.99397
178.201,15.3952,-0.02829,0.71973,0.99358
178.801,15.4139,-0.02829,0.72354,0.9932
179.401,15.4325,-0.02829,0.72325,0.99282
180.001,15.4512,-0.02829,0.72412,0.99244
180.601,15.4698,-0.02829,0.72581,0.99206
181.201,15.4885,-0.02829,0.72617,0.99168
181.801,15.5071,-0.02829,0.72756,0.99131
182.401,15.5256,-0.02829,0.72915,0.99093
183.001,15.5442,-0.02829,0.73292,0.99055
183.601,15.56275,-0.02829,0.73306,0.99017
184.201,15.5813,-0.02829,0.73242,0.9898
184.801,15.5999,-0.02829,0.73369,0.98942
185.401,15.6184,-0.02829,0.73776,0.98904
186.001,15.63685,-0.02828999,0.73772,0.98867
186.601,15.65528,-0.0282903,0.73936,0.98829
187.201,15.6737,-0.02828739,0.74268,0.98792
187.801,15.69217,-0.02891569,0.74221,0.98755
188.401,15.71062,-0.0289515,0.74232,0.98717
189.001,15.72909,-0.02894996,0.74764,0.9868
189.601,15.7475,-0.02895,0.74683,0.98643
190.201,15.766,-0.02895,0.75023,0.98606
190.801,15.78442,-0.02895,0.74916,0.98569
191.401,15.80287,-0.02895,0.75045,0.98531
192.001,15.8213,-0.02895,0.75181,0.98494
192.601,15.8397,-0.02895,0.75364,0.98457
193.201,15.8581,-0.02895,0.75489,0.98421
193.801,15.8764,-0.02895,0.75674,0.98384
194.401,15.8948,-0.02894996,0.75662,0.98347
195.001,15.91322,-0.02894987,0.75636,0.9831
195.601,15.9315,-0.02914449,0.75871,0.98273
196.201,15.9499,-0.0302881,0.7587,0.98237
196.801,15.96827,-0.03026968,0.76099,0.982
197.401,15.9866,-0.03027,0.76247,0.98163
198.001,16.005,-0.03027002,0.76304,0.98127
198.601,16.02336,-0.03026873,0.76281,0.9809
199.201,16.0417,-0.03031238,0.76571,0.98054
199.801,16.0601,-0.03159202,0.76497,0.98017
200.401,16.0785,-0.03159039,0.76608,0.97981
201.001,16.0968,-0.03160318,0.76631,0.97945
201.601,16.11514,-0.03247327,0.76803,0.97908
202.201,16.1335,-0.03291043,0.76959,0.97872
202.801,16.15179,-0.03291012,0.772,0.97836
203.401,16.1701,-0.03291,0.77384,0.978
204.001,16.18838,-0.03291,0.77283,0.97764
204.601,16.20663,-0.03291,0.77357,0.97728
205.201,16.22503,-0.03291,0.77536,0.97692
205.801,16.24341,-0.03291,0.7748,0.97656
206.401,16.2617,-0.03291,0.77845,0.9762
207.001,16.28004,-0.03291,0.77586,0.97584
207.601,16.2983,-0.03291,0.77939,0.97548
208.201,16.31634,-0.03291,0.78112,0.97512
208.801,16.33452,-0.03291,0.78068,0.97476
209.401,16.35284,-0.03291,0.78227,0.97441
210.001,16.37115,-0.03290998,0.78212,0.97405
210.601,16.38972,-0.03291105,0.78231,0.97369
211.201,16.40819,-0.03287755,0.78322,0.97334
211.801,16.4265,-0.0319139,0.78718,0.97298
212.401,16.44471,-0.03294707,0.78501,0.97263
213.001,16.4629,-0.03290881,0.786,0.97227
213.601,16.4809,-0.03290994,0.7875,0.97192
214.201,16.49899,-0.0329075,0.78927,0.97157
214.801,16.5172,-0.03323351,0.79095,0.97121
215.401,16.5354,-0.03421472,0.79289,0.97086
216.001,16.55378,-0.03424534,0.7933,0.97051
216.601,16.57216,-0.0345468,0.7924,0.97016
217.201,16.59037,-0.03455015,0.79548,0.96981
217.801,16.60865,-0.03455,0.79786,0.96945
218.401,16.62695,-0.03455,0.80058,0.9691
219.001,16.64524,-0.03454979,0.79856,0.96875
219.601,16.66348,-0.03456298,0.80206,0.9684
220.201,16.68149,-0.03538517,0.80314,0.96805
220.801,16.69964,-0.03585798,0.80472,0.96771
221.401,16.71785,-0.03609283,0.80438,0.96736
222.001,16.73612,-0.0361925,0.80496,0.96701
222.601,16.75456,-0.03618996,0.80726,0.96666
223.201,16.77284,-0.03619,0.80784,0.96631
223.801,16.79105,-0.0361901,0.81017,0.96597
224.401,16.80921,-0.03618613,0.81264,0.96562
225.001,16.8274,-0.03624262,0.8123,0.96527
225.601,16.84553,-0.03684381,0.81148,0.96493
226.201,16.86374,-0.03685029,0.81418,0.96458
226.801,16.88196,-0.03685058,0.81674,0.96424
227.401,16.9002,-0.03684777,0.81723,0.96389
228.001,16.91836,-0.03806584,0.81864,0.96355
228.601,16.93659,-0.03817354,0.81838,0.96321
229.201,16.95475,-0.03816994,0.82108,0.96286
229.801,16.97288,-0.03817,0.82128,0.96252
230.401,16.99108,-0.03817,0.8238,0.96218
231.001,17.00924,-0.03816992,0.82328,0.96184
231.601,17.0274,-0.03817101,0.82501,0.96149
232.201,17.04557,-0.03841403,0.82822,0.96115
232.801,17.06372,-0.03949655,0.82852,0.96081
233.401,17.08184,-0.03947965,0.82905,0.96047
234.001,17.09998,-0.03948,0.83122,0.96013
234.601,17.11814,-0.03948,0.83082,0.95979
235.201,17.13634,-0.03948,0.83082,0.95945
235.801,17.1545,-0.03948,0.83188,0.95911
236.401,17.17267,-0.03948002,0.83407,0.95877
237.001,17.19079,-0.03947742,0.83491,0.95844
237.601,17.2089,-0.03958282,0.83621,0.9581
238.201,17.2271,-0.03981083,0.83597,0.95776
238.801,17.24527,-0.03981008,0.83878,0.95742
239.401,17.26344,-0.03981,0.84013,0.95709
240.001,17.28161,-0.03980999,0.84025,0.95675
240.601,17.29972,-0.03980994,0.8413,0.95641
241.201,17.3178,-0.03982371,0.84204,0.95608
241.801,17.33595,-0.04078753,0.842,0.95574
242.401,17.35408,-0.04113203,0.8436,0.95541
243.001,17.3722,-0.04113009,0.8446,0.95507
243.601,17.39034,-0.04112999,0.84671,0.95474
244.201,17.40849,-0.04113,0.84781,0.95441
244.801,17.42662,-0.04113,0.85049,0.95407
245.401,17.4448,-0.04113,0.85207,0.95374
246.001,17.46292,-0.04112998,0.85189,0.95341
246.601,17.48111,-0.04113031,0.85215,0.95307
247.201,17.49928,-0.04113726,0.85305,0.95274
247.801,17.51739,-0.04225996,0.85365,0.95241
248.401,17.53556,-0.04245368,0.85512,0.95208
249.001,17.55367,-0.04244998,0.85873,0.95175
249.601,17.57174,-0.04245,0.85776,0.95142
250.201,17.5899,-0.04245,0.86097,0.95109
250.801,17.60794,-0.04245,0.86061,0.95076
251.401,17.62606,-0.04245,0.86227,0.95043
252.001,17.64419,-0.04245,0.86375,0.9501
252.601,17.6623,-0.04245002,0.86524,0.94977
253.201,17.6804,-0.04244985,0.86603,0.94944
253.801,17.69849,-0.04243361,0.87039,0.94911
254.401,17.71656,-0.04362867,0.86932,0.94878
255.001,17.73463,-0.0448523,0.87082,0.94846
255.601,17.75277,-0.04507925,0.8701,0.94813
256.201,17.7709,-0.0450797,0.87567,0.9478
256.801,17.78904,-0.04509374,0.87737,0.94747
257.401,17.80714,-0.04405053,0.87731,0.94715
258.001,17.8252,-0.04376217,0.87757,0.94682
258.601,17.8433,-0.04375991,0.8822,0.9465
259.201,17.86135,-0.04376003,0.88074,0.94617
259.801,17.87945,-0.04376041,0.88302,0.94585
260.401,17.8976,-0.04370896,0.88383,0.94552
261.001,17.9157,-0.04513268,0.88673,0.9452
261.601,17.93382,-0.04507966,0.88942,0.94487
262.201,17.95187,-0.04508419,0.89075,0.94455
262.801,17.96987,-0.04573177,0.89296,0.94423
263.401,17.98794,-0.04684393,0.89493,0.9439
264.001,18.00602,-0.04772322,0.89715,0.94358
264.601,18.0241,-0.04771973,0.90088,0.94326
265.201,18.04224,-0.04772001,0.89996,0.94293
265.801,18.06034,-0.04771999,0.90295,0.94261
266.401,18.07844,-0.04771886,0.90643,0.94229
267.001,18.09656,-0.04781815,0.90562,0.94197
267.601,18.1146,-0.04904597,0.90824,0.94165
268.201,18.1327,-0.04904635,0.91092,0.94133
268.801,18.15081,-0.0487058,0.91264,0.94101
269.401,18.16881,-0.04875683,0.9149,0.94069
270.001,18.1869,-0.05002371,0.91708,0.94037
270.601,18.20494,-0.05002071,0.92181,0.94005
271.201,18.223,-0.05002,0.92314,0.93973
271.801,18.24116,-0.05001954,0.92401,0.93941
272.401,18.25926,-0.05000971,0.92672,0.93909
273.001,18.27739,-0.05125389,0.92894,0.93877
273.601,18.29549,-0.05133463,0.93011,0.93845
274.201,18.31355,-0.05167861,0.93346,0.93814
274.801,18.33164,-0.05265971,0.93489,0.93782
275.401,18.34974,-0.05264956,0.93834,0.9375
276.001,18.36788,-0.05265181,0.94102,0.93718
276.601,18.386,-0.05292672,0.94089,0.93687
277.201,18.4042,-0.05398457,0.94344,0.93655
277.801,18.4224,-0.0539558,0.94516,0.93624
278.401,18.44056,-0.05499587,0.94776,0.93592
279.001,18.4587,-0.05527803,0.94653,0.9356
279.601,18.47682,-0.05527877,0.95004,0.93529
280.201,18.49494,-0.0553188,0.94979,0.93497
280.801,18.51309,-0.05659585,0.95108,0.93466
281.401,18.53125,-0.05658172,0.95213,0.93434
282.001,18.54941,-0.0578058,0.95512,0.93403
282.601,18.5676,-0.0590854,0.95571,0.93372
283.201,18.5857,-0.0593264,0.95673,0.9334
283.801,18.60399,-0.05966514,0.95656,0.93309
284.401,18.62217,-0.06063632,0.95668,0.93277
285.001,18.64034,-0.0606501,0.95916,0.93246
285.601,18.6586,-0.0606542,0.95807,0.93215
286.201,18.67675,-0.06131774,0.95826,0.93184
286.801,18.69489,-0.06198912,0.9586,0.93152
287.401,18.71302,-0.06067576,0.95949,0.93121
288.001,18.73113,-0.06065792,0.95766,0.9309
288.601,18.74928,-0.06064429,0.95893,0.93059
289.201,18.76746,-0.06171517,0.95952,0.93028
289.801,18.78565,-0.06232975,0.95791,0.92997
290.401,18.80389,-0.06412359,0.95572,0.92966
291.001,18.8221,-0.06470479,0.957,0.92935
291.601,18.8404,-0.06470988,0.95582,0.92903
292.201,18.8587,-0.06469517,0.95305,0.92872
292.801,18.87695,-0.06593637,0.95297,0.92841
293.401,18.89525,-0.06600345,0.95174,0.9281
294.001,18.91346,-0.06745726,0.95253,0.9278
294.601,18.93169,-0.06792281,0.94823,0.92749
295.201,18.94988,-0.06964224,0.94635,0.92718
295.801,18.96811,-0.0697634,0.94843,0.92687
296.401,18.98629,-0.07005847,0.94581,0.92656
297.001,19.0045,-0.07108244,0.94404,0.92625
297.601,19.02271,-0.07107366,0.94272,0.92594
298.201,19.04093,-0.07148453,0.94305,0.92564
298.801,19.0592,-0.07239216,0.94103,0.92533
299.401,19.07734,-0.07272785,0.94175,0.92502
300.001,19.09556,-0.07369371,0.93837,0.92471
300.601,19.1138,-0.07373343,0.93766,0.92441
301.201,19.13203,-0.07503971,0.93756,0.9241
301.801,19.15042,-0.07501951,0.93396,0.92379
302.401,19.16873,-0.0750084,0.93551,0.92349
303.001,19.187,-0.07603689,0.93412,0.92318
303.601,19.2053,-0.07584873,0.93227,0.92287
304.201,19.22358,-0.07504317,0.93504,0.92257
304.801,19.24183,-0.07500099,0.9306,0.92226
305.401,19.26012,-0.07635534,0.93041,0.92196
306.001,19.27838,-0.07636379,0.93069,0.92165
306.601,19.29655,-0.07738337,0.92986,0.92135
307.201,19.31481,-0.07766318,0.92784,0.92104
307.801,19.33305,-0.07766,0.92535,0.92074
308.401,19.3513,-0.077665,0.92913,0.92043
309.001,19.36964,-0.07828163,0.92846,0.92013
309.601,19.38792,-0.07897601,0.92778,0.91983
310.201,19.40622,-0.07897944,0.92747,0.91952
310.801,19.42449,-0.07915492,0.92797,0.91922
311.401,19.44272,-0.08043188,0.92729,0.91891
312.001,19.46097,-0.08038524,0.92633,0.91861
312.601,19.47918,-0.08167413,0.92764,0.91831
313.201,19.49739,-0.08175315,0.92802,0.918
313.801,19.5156,-0.08348738,0.92753,0.9177
314.401,19.53389,-0.08401908,0.92569,0.9174
315.001,19.5522,-0.08488848,0.92859,0.9171
315.601,19.57046,-0.08543399,0.92761,0.91679
316.201,19.58876,-0.08540569,0.93022,0.91649
316.801,19.607,-0.08678717,0.92819,0.91619
317.401,19.62527,-0.0870865,0.92868,0.91589
318.001,19.64357,-0.08720893,0.93067,0.91559
318.601,19.6618,-0.08841677,0.93097,0.91529
319.201,19.6801,-0.08839996,0.92854,0.91498
319.801,19.6984,-0.08839975,0.9288,0.91468
320.401,19.7167,-0.08841297,0.92967,0.91438
321.001,19.73501,-0.08926743,0.92898,0.91408
321.601,19.75329,-0.08971987,0.93158,0.91378
322.201,19.77161,-0.08970268,0.93193,0.91348
322.801,19.7899,-0.09092807,0.93369,0.91318
323.401,19.8082,-0.09104358,0.93491,0.91288
324.001,19.8265,-0.09135811,0.93421,0.91258
324.601,19.84479,-0.09236112,0.93788,0.91228
325.201,19.86306,-0.0923328,0.93968,0.91198
325.801,19.88138,-0.09344728,0.93996,0.91168
326.401,19.8997,-0.09367084,0.94062,0.91138
327.001,19.91807,-0.09446552,0.93893,0.91108
327.601,19.9364,-0.09510333,0.94092,0.91078
328.201,19.9547,-0.09593895,0.9426,0.91048
328.801,19.973,-0.09651759,0.94615,0.91018
329.401,19.9913,-0.09693405,0.9471,0.90988
330.001,20.00965,-0.09783117,0.94841,0.90959
330.601,20.02798,-0.09828623,0.94921,0.90929
331.201,20.0463,-0.09926428,0.95006,0.90899
331.801,20.0646,-0.10012,0.95244,0.90869
332.401,20.08294,-0.10084,0.94983,0.90839
333.001,20.10127,-0.10361,0.95395,0.90809
333.601,20.11966,-0.10384,0.95437,0.9078
334.201,20.13802,-0.10487,0.95452,0.9075
334.801,20.1564,-0.10487,0.9563,0.9072
335.401,20.17481,-0.10524,0.95878,0.9069
336.001,20.1932,-0.10486,0.95949,0.90661
336.601,20.21155,-0.10622,0.96389,0.90631
337.201,20.22997,-0.1065,0.9646,0.90601
337.801,20.24833,-0.10783,0.96375,0.90571
338.401,20.26663,-0.10946,0.96655,0.90542
339.001,20.28504,-0.11054,0.96645,0.90512
339.601,20.30336,-0.11143,0.96743,0.90482
340.201,20.32173,-0.11278,0.96904,0.90453
340.801,20.3401,-0.11309,0.96823,0.90423
341.401,20.35847,-0.11418,0.97107,0.90393
342.001,20.37686,-0.11576,0.97145,0.90364
342.601,20.39524,-0.11653,0.97322,0.90334
343.201,20.41365,-0.11902,0.97442,0.90304
343.801,20.43209,-0.12052,0.97456,0.90275
344.401,20.45048,-0.1221,0.9731,0.90245
345.001,20.46888,-0.12376,0.97473,0.90215
345.601,20.4873,-0.12538,0.97173,0.90186
346.201,20.50566,-0.1267,0.97612,0.90156
346.801,20.5241,-0.12842,0.97617,0.90127
347.401,20.54252,-0.1304,0.9753,0.90097
348.001,20.56086,-0.13162,0.97827,0.90068
348.601,20.5791,-0.13268,0.97685,0.90038
349.201,20.59743,-0.13393,0.97564,0.90008
349.801,20.61583,-0.13562,0.9761,0.89979
350.401,20.63431,-0.13674,0.97545,0.89949
351.001,20.65294,-0.13696,0.97228,0.8992
351.601,20.67139,-0.13831,0.97654,0.8989
352.201,20.68979,-0.13987,0.97525,0.89861
352.801,20.70821,-0.14116,0.97388,0.89831
353.401,20.7266,-0.14279,0.9743,0.89802
354.001,20.745,-0.14437,0.97281,0.89772
354.601,20.7634,-0.14621,0.97412,0.89743
355.201,20.78182,-0.14733,0.97478,0.89713
355.801,20.80031,-0.14929,0.97124,0.89684
356.401,20.8188,-0.15136,0.96968,0.89654
357.001,20.8373,-0.15338,0.96975,0.89625
357.601,20.85577,-0.15538,0.97024,0.89595
358.201,20.8742,-0.15723,0.96727,0.89566
358.801,20.89265,-0.15956,0.96912,0.89537
359.401,20.91115,-0.16188,0.96791,0.89507
360.001,20.9295,-0.16279,0.96942,0.89478
360.601,20.94789,-0.16393,0.96962,0.89448
361.201,20.96637,-0.16574,0.96861,0.89419
361.801,20.9847,-0.16772,0.96822,0.89389
362.401,21.00328,-0.16996,0.96442,0.8936
363.001,21.02177,-0.17183,0.96519,0.89331
363.601,21.04028,-0.17354,0.96589,0.89301
364.201,21.05881,-0.17466,0.96362,0.89272
364.801,21.07728,-0.17572,0.96017,0.89242
365.401,21.09575,-0.17738,0.95982,0.89213
366.001,21.11421,-0.17935,0.95974,0.89183
366.601,21.13265,-0.18135,0.95983,0.89154
367.201,21.15115,-0.18303,0.95923,0.89125
367.801,21.16965,-0.18457,0.95961,0.89095
368.401,21.18816,-0.18513,0.95821,0.89066
369.001,21.20668,-0.18658,0.9584,0.89037
369.601,21.2252,-0.18837,0.95624,0.89007
370.201,21.24364,-0.18952,0.95607,0.88978
370.801,21.2621,-0.19108,0.95752,0.88948
371.401,21.28063,-0.19308,0.95837,0.88919
372.001,21.2991,-0.19493,0.9556,0.8889
372.601,21.31767,-0.19667,0.95505,0.8886
373.201,21.33618,-0.19809,0.95565,0.88831
373.801,21.3547,-0.19862,0.95106,0.88801
374.401,21.37324,-0.20028,0.95026,0.88772
375.001,21.3918,-0.20207,0.94716,0.88743
375.601,21.4103,-0.20362,0.94723,0.88713
376.201,21.42882,-0.2049,0.94491,0.88684
376.801,21.4474,-0.20548,0.94513,0.88654
377.401,21.4659,-0.20688,0.94705,0.88625
378.001,21.48447,-0.2077,0.94372,0.88596
378.601,21.50303,-0.20848,0.94381,0.88566
379.201,21.52156,-0.2101,0.9414,0.88537
379.801,21.54008,-0.21191,0.94141,0.88508
380.401,21.55861,-0.21343,0.94044,0.88478
381.001,21.57711,-0.21354,0.93978,0.88449
381.601,21.5957,-0.21486,0.9362,0.88419
382.201,21.61423,-0.21514,0.93586,0.8839
382.801,21.63279,-0.21686,0.93488,0.88361
383.401,21.6514,-0.21819,0.93518,0.88331
384.001,21.66996,-0.21862,0.9356,0.88302
384.601,21.68852,-0.21989,0.93388,0.88272
385.201,21.70712,-0.22106,0.93481,0.88243
385.801,21.72567,-0.22145,0.93639,0.88214
386.401,21.74425,-0.22227,0.93661,0.88184
387.001,21.76278,-0.22295,0.93828,0.88155
387.601,21.78138,-0.22459,0.93642,0.88125
388.201,21.8,-0.22517,0.93791,0.88096
388.801,21.8186,-0.22627,0.93572,0.88067
389.401,21.83726,-0.2276,0.93654,0.88037
390.001,21.85584,-0.22904,0.93726,0.88008
390.601,21.87446,-0.2297,0.93765,0.87978
391.201,21.89304,-0.23088,0.94098,0.87949
391.801,21.9116,-0.23236,0.94175,0.87919
392.401,21.93026,-0.23253,0.94049,0.8789
393.001,21.9488,-0.23399,0.94112,0.87861
393.601,21.96741,-0.23435,0.94129,0.87831
394.201,21.98603,-0.2355,0.94689,0.87802
394.801,22.00461,-0.23683,0.94802,0.87772
395.401,22.02327,-0.23773,0.94805,0.87743
396.001,22.04188,-0.23859,0.95029,0.87713
396.601,22.0605,-0.24011,0.95104,0.87684
397.201,22.07917,-0.24308,0.95144,0.87654
397.801,22.0978,-0.24416,0.95417,0.87625
398.401,22.11648,-0.24512,0.95426,0.87595
399.001,22.13516,-0.2466,0.95982,0.87566
399.601,22.1538,-0.24694,0.95935,0.87536
400.201,22.17245,-0.24801,0.96284,0.87507
400.801,22.19112,-0.24878,0.9671,0.87477
401.401,22.20976,-0.24928,0.96984,0.87448
402.001,22.2284,-0.25091,0.97037,0.87418
402.601,22.24711,-0.252,0.97269,0.87389
403.201,22.26572,-0.25309,0.9761,0.87359
403.801,22.28425,-0.25458,0.98075,0.87329
404.401,22.30294,-0.25644,0.98326,0.873
405.001,22.3216,-0.25839,0.98387,0.8727
405.601,22.3403,-0.25967,0.98738,0.87241
406.201,22.35914,-0.2608,0.9898,0.87211
406.801,22.37782,-0.26234,0.99554,0.87182
407.401,22.3965,-0.26398,0.99931,0.87152
408.001,22.41524,-0.26546,1.00226,0.87122
408.601,22.43391,-0.26707,1.00648,0.87093
409.201,22.45265,-0.27007,1.00936,0.87063
409.801,22.47133,-0.27188,1.01402,0.87033
410.401,22.49001,-0.27378,1.018,0.87004
411.001,22.50873,-0.27549,1.02101,0.86974
411.601,22.5274,-0.27661,1.02712,0.86945
412.201,22.54606,-0.27804,1.02738,0.86915
412.801,22.56479,-0.27877,1.03427,0.86885
413.401,22.5835,-0.28034,1.03628,0.86855
414.001,22.60219,-0.28218,1.0388,0.86826
414.601,22.62092,-0.28424,1.0459,0.86796
415.201,22.63962,-0.28643,1.05017,0.86766
415.801,22.65834,-0.28824,1.05431,0.86737
416.401,22.67705,-0.28987,1.06191,0.86707
417.001,22.69577,-0.29163,1.06314,0.86677
417.601,22.7146,-0.29359,1.06928,0.86647
418.201,22.73333,-0.29571,1.06934,0.86617
418.801,22.75208,-0.298,1.07562,0.86588
419.401,22.77083,-0.30051,1.0806,0.86558
420.001,22.78953,-0.30276,1.08289,0.86528
420.601,22.80827,-0.30471,1.08831,0.86498
421.201,22.827,-0.30662,1.09165,0.86468
421.801,22.84579,-0.30899,1.09764,0.86439
422.401,22.8646,-0.31151,1.10079,0.86409
423.001,22.88342,-0.31432,1.10336,0.86379
423.601,22.90225,-0.31764,1.10639,0.86349
424.201,22.921,-0.32058,1.10909,0.86319
424.801,22.93988,-0.32356,1.11262,0.86289
425.401,22.95872,-0.32541,1.11476,0.86259
426.001,22.9775,-0.32744,1.11749,0.86229
426.601,22.99634,-0.32967,1.11978,0.86199
427.201,23.01513,-0.3323,1.11828,0.86169
427.801,23.0339,-0.33504,1.12017,0.86139
428.401,23.05282,-0.33724,1.11706,0.86109
429.001,23.07163,-0.33961,1.11919,0.86079
429.601,23.0905,-0.34092,1.11774,0.86049
430.201,23.10932,-0.34329,1.11872,0.86019
430.801,23.12809,-0.34605,1.11894,0.85989
431.401,23.14695,-0.34921,1.11555,0.85959
432.001,23.1657,-0.35307,1.11295,0.85929
432.601,23.18453,-0.35411,1.11027,0.85899
433.201,23.20339,-0.35502,1.10671,0.85869
433.801,23.22221,-0.35686,1.1056,0.85839
434.401,23.24113,-0.36124,1.10014,0.85809
435.001,23.25999,-0.36602,1.09426,0.85778
435.601,23.27887,-0.37047,1.09154,0.85748
436.201,23.29776,-0.37257,1.08694,0.85718
436.801,23.31665,-0.37438,1.08193,0.85688
437.401,23.3355,-0.37618,1.07584,0.85658
438.001,23.35442,-0.37983,1.06956,0.85627
438.601,23.37332,-0.38182,1.06168,0.85597
439.201,23.39219,-0.38378,1.05767,0.85567
439.801,23.4111,-0.38589,1.05199,0.85536
440.401,23.42998,-0.38803,1.04579,0.85506
441.001,23.4488,-0.39001,1.03764,0.85476
441.601,23.46774,-0.39224,1.03303,0.85446
442.201,23.4866,-0.3941,1.02501,0.85415
442.801,23.5056,-0.39561,1.01791,0.85385
443.401,23.52448,-0.39758,1.01335,0.85354
444.001,23.54329,-0.39883,1.00727,0.85324
444.601,23.5622,-0.39942,0.99921,0.85294
445.201,23.58111,-0.40109,0.99265,0.85263
445.801,23.60016,-0.40299,0.98813,0.85233
446.401,23.61921,-0.40408,0.97785,0.85202
447.001,23.63825,-0.40542,0.97628,0.85172
447.601,23.65719,-0.40803,0.9718,0.85141
448.201,23.67616,-0.40958,0.96441,0.85111
448.801,23.69513,-0.41099,0.96218,0.8508
449.401,23.71409,-0.41173,0.95509,0.85049
450.001,23.73304,-0.41285,0.95474,0.85019
450.601,23.752,-0.41463,0.95049,0.84988
451.201,23.771,-0.41491,0.94722,0.84958
451.801,23.78987,-0.41546,0.944,0.84927
452.401,23.80886,-0.41622,0.93975,0.84896
453.001,23.8278,-0.41773,0.93668,0.84866
453.601,23.84678,-0.41847,0.9354,0.84835
454.201,23.8658,-0.41932,0.92921,0.84804
454.801,23.88469,-0.42078,0.9294,0.84773
455.401,23.90356,-0.42126,0.926,0.84743
456.001,23.92259,-0.42375,0.92228,0.84712
456.601,23.94165,-0.42475,0.92243,0.84681
457.201,23.96084,-0.42535,0.92122,0.8465
457.801,23.97997,-0.42679,0.91805,0.84619
458.401,23.99897,-0.42676,0.9182,0.84588
459.001,24.01792,-0.42813,0.91829,0.84558
459.601,24.0369,-0.4273,0.91426,0.84527
460.201,24.05596,-0.4282,0.91541,0.84496
460.801,24.075,-0.42924,0.91231,0.84465
461.401,24.0939,-0.42987,0.9156,0.84434
462.001,24.11293,-0.43233,0.91612,0.84403
462.601,24.13198,-0.43318,0.91448,0.84372
463.201,24.15108,-0.43419,0.91663,0.84341
463.801,24.1703,-0.43586,0.91502,0.8431
464.401,24.1893,-0.43684,0.91536,0.84279
465.001,24.2084,-0.43742,0.91504,0.84247
465.601,24.22748,-0.43884,0.91421,0.84216
466.201,24.2466,-0.4406,0.91297,0.84185
466.801,24.2656,-0.44085,0.91337,0.84154
467.401,24.28465,-0.44217,0.9166,0.84123
468.001,24.30368,-0.44201,0.9155,0.84091
468.601,24.3228,-0.44235,0.91683,0.8406
469.201,24.3418,-0.44244,0.91675,0.84029
469.801,24.3609,-0.44394,0.9201,0.83998
470.401,24.37997,-0.4439,0.91981,0.83966
471.001,24.399,-0.44443,0.92023,0.83935
471.601,24.41807,-0.44529,0.92067,0.83904
472.201,24.43719,-0.44675,0.92053,0.83872
472.801,24.45632,-0.44756,0.92286,0.83841
473.401,24.47544,-0.44866,0.921,0.83809
474.001,24.49456,-0.45017,0.92275,0.83778
474.601,24.51361,-0.45197,0.92392,0.83746
475.201,24.53268,-0.45275,0.92634,0.83715
475.801,24.55181,-0.45457,0.92414,0.83683
476.401,24.57092,-0.45536,0.9267,0.83652
477.001,24.59001,-0.45603,0.9271,0.8362
477.601,24.6091,-0.45769,0.92626,0.83588
478.201,24.62821,-0.45808,0.92901,0.83557
478.801,24.64726,-0.45905,0.92824,0.83525
479.401,24.6664,-0.46056,0.93108,0.83493
480.001,24.6855,-0.46106,0.93129,0.83462
480.601,24.70443,-0.4621,0.93065,0.8343
481.201,24.72361,-0.46279,0.92837,0.83398
481.801,24.7427,-0.46352,0.93127,0.83366
482.401,24.76191,-0.46464,0.92804,0.83335
483.001,24.7811,-0.46365,0.93022,0.83303
483.601,24.80019,-0.46518,0.9299,0.83271
484.201,24.81929,-0.46575,0.93006,0.83239
484.801,24.83837,-0.4666,0.92926,0.83207
485.401,24.85752,-0.46741,0.92884,0.83175
486.001,24.87673,-0.46808,0.92636,0.83143
486.601,24.89586,-0.47004,0.927,0.83111
487.201,24.91506,-0.4716,0.92845,0.83079
487.801,24.9342,-0.47264,0.92678,0.83047
488.401,24.95329,-0.47329,0.92562,0.83015
489.001,24.97246,-0.47396,0.92372,0.82983
489.601,24.99152,-0.47477,0.92644,0.8295
490.201,25.01061,-0.4752,0.92521,0.82918
490.801,25.0298,-0.478,0.92499,0.82886
491.401,25.04874,-0.47818,0.92186,0.82854
492.001,25.0679,-0.47944,0.92146,0.82822
492.601,25.08707,-0.47944,0.92082,0.82789
493.201,25.1062,-0.48085,0.91938,0.82757
493.801,25.1255,-0.48109,0.91983,0.82725
494.401,25.1447,-0.48241,0.92097,0.82692
495.001,25.16386,-0.4827,0.92101,0.8266
495.601,25.183,-0.48381,0.91752,0.82627
496.201,25.2022,-0.48436,0.91583,0.82595
496.801,25.22133,-0.48514,0.9137,0.82562
497.401,25.2405,-0.48587,0.91515,0.8253
498.001,25.25964,-0.48666,0.91215,0.82497
498.601,25.27881,-0.48824,0.91183,0.82465
499.201,25.29792,-0.48839,0.90967,0.82432
499.801,25.3171,-0.48955,0.90659,0.82399
500.401,25.3363,-0.48953,0.90684,0.82367
501.001,25.35547,-0.49005,0.90483,0.82334
501.601,25.3747,-0.49084,0.8999,0.82301
502.201,25.39386,-0.49157,0.90193,0.82268
502.801,25.41303,-0.49216,0.90183,0.82236
503.401,25.43221,-0.49312,0.90075,0.82203
504.001,25.45143,-0.4937,0.89661,0.8217
504.601,25.47064,-0.49481,0.89645,0.82137
505.201,25.4898,-0.49501,0.89503,0.82104
505.801,25.50906,-0.49501,0.89455,0.82071
506.401,25.52822,-0.4951,0.89304,0.82038
507.001,25.54724,-0.49643,0.89394,0.82005
507.601,25.56638,-0.49673,0.89122,0.81972
508.201,25.58561,-0.49798,0.8905,0.81939
508.801,25.60482,-0.49796,0.89018,0.81906
509.401,25.6243,-0.50045,0.88965,0.81873
510.001,25.6435,-0.50074,0.88663,0.8184
510.601,25.66282,-0.50172,0.88839,0.81806
511.201,25.6821,-0.50203,0.88676,0.81773
511.801,25.70133,-0.50206,0.8848,0.8174
512.401,25.72055,-0.50347,0.88682,0.81707
513.001,25.7397,-0.50345,0.88508,0.81673
513.601,25.75897,-0.5048,0.88562,0.8164
514.201,25.77816,-0.50476,0.88511,0.81606
514.801,25.79737,-0.50601,0.8852,0.81573
515.401,25.81661,-0.50609,0.8877,0.8154
516.001,25.83585,-0.50605,0.88627,0.81506
516.601,25.85509,-0.50746,0.88518,0.81473
517.201,25.87438,-0.50741,0.88552,0.81439
517.801,25.89358,-0.50741,0.88883,0.81405
518.401,25.91273,-0.50871,0.88747,0.81372
519.001,25.93207,-0.50872,0.88477,0.81338
519.601,25.95137,-0.5089,0.88667,0.81304
520.201,25.97087,-0.51005,0.88956,0.81271
520.801,25.99025,-0.51004,0.89043,0.81237
521.401,26.0096,-0.51013,0.89038,0.81203
522.001,26.0289,-0.51138,0.89058,0.81169
522.601,26.0482,-0.51136,0.89079,0.81135
523.201,26.06745,-0.51136,0.89337,0.81101
523.801,26.08673,-0.51136,0.89223,0.81067
524.401,26.10605,-0.51229,0.89695,0.81034
525.001,26.12538,-0.51267,0.8956,0.80999
525.601,26.14474,-0.51262,0.89867,0.80965
526.201,26.16406,-0.51403,0.89856,0.80931
526.801,26.18335,-0.51399,0.89677,0.80897
527.401,26.20266,-0.514,0.90208,0.80863
528.001,26.22193,-0.51489,0.90077,0.80829
528.601,26.24125,-0.51531,0.90466,0.80795
529.201,26.2606,-0.51531,0.90448,0.8076
529.801,26.27992,-0.51531,0.90739,0.80726
530.401,26.2993,-0.51658,0.91062,0.80692
531.001,26.31865,-0.51662,0.91125,0.80657
531.601,26.338,-0.51662,0.90991,0.80623
532.201,26.35731,-0.5166,0.91269,0.80589
532.801,26.3766,-0.51783,0.91576,0.80554
533.401,26.39599,-0.51794,0.91852,0.8052
534.001,26.41535,-0.51787,0.91739,0.80485
534.601,26.43468,-0.51729,0.92023,0.80451
535.201,26.45397,-0.51767,0.92233,0.80416
535.801,26.47325,-0.51859,0.92438,0.80381
536.401,26.49257,-0.51859,0.92316,0.80347
537.001,26.51193,-0.51859,0.92489,0.80312
537.601,26.5314,-0.51854,0.92807,0.80277
538.201,26.55078,-0.51995,0.92709,0.80242
538.801,26.5701,-0.51991,0.92915,0.80207
539.401,26.5895,-0.51989,0.93127,0.80173
540.001,26.60881,-0.52107,0.93345,0.80138
540.601,26.6282,-0.52201,0.93216,0.80103
541.201,26.64756,-0.52222,0.9357,0.80068
541.801,26.667,-0.52222,0.93593,0.80033
542.401,26.6864,-0.52253,0.93797,0.79998
543.001,26.7058,-0.52353,0.93766,0.79963
543.601,26.7252,-0.52353,0.94128,0.79927
544.201,26.7446,-0.52353,0.94074,0.79892
544.801,26.76393,-0.52354,0.94048,0.79857
545.401,26.7833,-0.52458,0.93966,0.79822
546.001,26.8027,-0.52485,0.94098,0.79787
546.601,26.82204,-0.52485,0.93959,0.79751
547.201,26.8415,-0.52488,0.94168,0.79716
547.801,26.8609,-0.52618,0.94219,0.79681
548.401,26.8804,-0.52617,0.94047,0.79645
549.001,26.8998,-0.52617,0.94514,0.7961
549.601,26.9192,-0.52617,0.94923,0.79574
550.201,26.9386,-0.52663,0.95286,0.79539
550.801,26.95791,-0.52758,0.9578,0.79503
551.401,26.97725,-0.5276,0.9609,0.79467
552.001,26.9966,-0.52824,0.96622,0.79432
552.601,27.016,-0.52891,0.96639,0.79396
553.201,27.03544,-0.52888,0.97068,0.7936
553.801,27.05483,-0.53026,0.9713,0.79324
554.401,27.0743,-0.53022,0.97304,0.79289
555.001,27.09368,-0.53022,0.97483,0.79253
555.601,27.1131,-0.53022,0.97452,0.79217
556.201,27.13252,-0.53022,0.97771,0.79181
556.801,27.15192,-0.53044,0.97963,0.79145
557.401,27.1713,-0.53155,0.97841,0.79109
558.001,27.1907,-0.53154,0.985,0.79073
558.601,27.21015,-0.53154,0.98429,0.79037
559.201,27.22955,-0.53153,0.98505,0.79001
559.801,27.24897,-0.53306,0.98662,0.78964
560.401,27.26838,-0.53319,0.98682,0.78928
561.001,27.2878,-0.53319,0.98784,0.78892
561.601,27.30722,-0.5332,0.98979,0.78856
562.201,27.32654,-0.53385,0.9911,0.78819
562.801,27.346,-0.53385,0.98915,0.78783
563.401,27.3655,-0.53384,0.98797,0.78747
564.001,27.38495,-0.53512,0.98538,0.7871
564.601,27.40455,-0.53516,0.98579,0.78674
565.201,27.42404,-0.53547,0.98702,0.78637
565.801,27.4435,-0.53714,0.98202,0.78601
566.401,27.463,-0.53713,0.97874,0.78564
567.001,27.48248,-0.53731,0.97444,0.78527
567.601,27.50195,-0.53844,0.97067,0.78491
568.201,27.52143,-0.53845,0.96633,0.78454
568.801,27.54095,-0.53845,0.96158,0.78417
569.401,27.56048,-0.53881,0.95765,0.7838
570.001,27.58,-0.53976,0.95487,0.78343
570.601,27.59957,-0.53976,0.95098,0.78306
571.201,27.61905,-0.53976,0.95186,0.78269
571.801,27.6385,-0.53998,0.9468,0.78232
572.401,27.65806,-0.54109,0.94226,0.78195
573.001,27.6776,-0.54108,0.93803,0.78158
573.601,27.69715,-0.54108,0.93656,0.78121
574.201,27.71671,-0.54108,0.93222,0.78084
574.801,27.73622,-0.54108,0.92554,0.78047
575.401,27.7558,-0.54107,0.91999,0.7801
576.001,27.77533,-0.54221,0.91964,0.77972
576.601,27.79485,-0.54239,0.91834,0.77935
577.201,27.8144,-0.54241,0.913,0.77898
577.801,27.8339,-0.54372,0.90861,0.7786
578.401,27.8535,-0.54371,0.90231,0.77823
579.001,27.87306,-0.54371,0.90356,0.77785
579.601,27.8926,-0.54371,0.90043,0.77748
580.201,27.9122,-0.54395,0.89468,0.7771
580.801,27.93177,-0.54504,0.89063,0.77673
581.401,27.9514,-0.54503,0.88868,0.77635
582.001,27.97097,-0.54503,0.88315,0.77597
582.601,27.99056,-0.54516,0.8771,0.7756
583.201,28.01012,-0.546,0.87211,0.77522
583.801,28.0297,-0.54601,0.8679,0.77484
584.401,28.0493,-0.54602,0.86476,0.77446
585.001,28.069,-0.54638,0.85896,0.77408
585.601,28.0887,-0.54634,0.85437,0.7737
586.201,28.1083,-0.54635,0.84894,0.77332
586.801,28.12789,-0.54715,0.84552,0.77294
587.401,28.14745,-0.54766,0.84058,0.77256
588.001,28.16703,-0.54766,0.8368,0.77218
588.601,28.1866,-0.54766,0.83273,0.7718
589.201,28.20611,-0.54668,0.83015,0.77142
589.801,28.22571,-0.54659,0.82365,0.77103
590.401,28.2454,-0.54767,0.82187,0.77065
591.001,28.26497,-0.54766,0.81854,0.77027
591.601,28.2846,-0.54764,0.81281,0.76988
592.201,28.3042,-0.54893,0.80747,0.7695
592.801,28.3238,-0.54989,0.80575,0.76911
593.401,28.34347,-0.54996,0.80327,0.76873
594.001,28.3631,-0.54996,0.79771,0.76834
594.601,28.38275,-0.55004,0.7967,0.76796
595.201,28.4024,-0.5513,0.79382,0.76757
595.801,28.42206,-0.55128,0.79064,0.76718
596.401,28.44173,-0.55128,0.78475,0.7668
597.001,28.46142,-0.55128,0.78169,0.76641
597.601,28.48113,-0.55128,0.77542,0.76602
598.201,28.5007,-0.55128,0.77267,0.76563
598.801,28.52037,-0.55229,0.77052,0.76524
599.401,28.54,-0.55259,0.76778,0.76485
600.001,28.55965,-0.55259,0.76484,0.76446
600.601,28.57933,-0.55259,0.76001,0.76407
601.201,28.59899,-0.55349,0.75624,0.76368
601.801,28.61866,-0.55388,0.75807,0.76329
602.401,28.63829,-0.55424,0.75324,0.7629
603.001,28.65796,-0.55424,0.75034,0.76251
603.601,28.6776,-0.55424,0.75178,0.76211
604.201,28.69728,-0.55424,0.74848,0.76172
604.801,28.7169,-0.55425,0.74656,0.76133
605.401,28.7367,-0.5549,0.74669,0.76093
606.001,28.7564,-0.55556,0.7414,0.76054
606.601,28.7761,-0.55556,0.7366,0.76014
607.201,28.79583,-0.55556,0.7356,0.75975
607.801,28.8155,-0.55556,0.7359,0.75935
608.401,28.8352,-0.55557,0.73421,0.75896
609.001,28.8549,-0.5564,0.73259,0.75856
609.601,28.8746,-0.55687,0.72908,0.75816
610.201,28.89429,-0.55688,0.7323,0.75777
610.801,28.91403,-0.55583,0.73374,0.75737
611.401,28.9337,-0.55556,0.72945,0.75697
612.001,28.95342,-0.55556,0.72578,0.75657
612.601,28.97314,-0.55556,0.73007,0.75617
613.201,28.99278,-0.55815,0.72739,0.75577
613.801,29.01248,-0.55819,0.72628,0.75537
614.401,29.0323,-0.55819,0.72561,0.75497
615.001,29.05197,-0.55819,0.72642,0.75457
615.601,29.07175,-0.55819,0.72458,0.75417
616.201,29.0914,-0.55813,0.72407,0.75377
616.801,29.1111,-0.55838,0.72431,0.75336
617.401,29.1308,-0.55819,0.72527,0.75296
618.001,29.15056,-0.55819,0.7298,0.75256
618.601,29.1703,-0.5582,0.72827,0.75215
619.201,29.19006,-0.55952,0.72905,0.75175
619.801,29.20973,-0.56081,0.73041,0.75134
620.401,29.2295,-0.56082,0.73115,0.75094
621.001,29.2492,-0.56139,0.73183,0.75053
621.601,29.26898,-0.56212,0.73023,0.75013
622.201,29.28877,-0.56142,0.7351,0.74972
622.801,29.30852,-0.56154,0.73754,0.74931
623.401,29.32827,-0.56282,0.73853,0.74891
624.001,29.34797,-0.5628,0.7391,0.7485
624.601,29.3677,-0.56323,0.74151,0.74809
625.201,29.38747,-0.56412,0.74513,0.74768
625.801,29.40723,-0.56412,0.74652,0.74727
626.401,29.42698,-0.56412,0.7482,0.74686
627.001,29.4467,-0.56512,0.75044,0.74645
627.601,29.46653,-0.56544,0.75262,0.74604
628.201,29.4863,-0.56544,0.75544,0.74563
628.801,29.50613,-0.56544,0.75907,0.74522
629.401,29.5259,-0.56545,0.75959,0.74481
630.001,29.5457,-0.56669,0.76229,0.74439
630.601,29.56545,-0.56675,0.76316,0.74398
631.201,29.58522,-0.56675,0.76568,0.74357
631.801,29.60496,-0.56675,0.77071,0.74315
632.401,29.62476,-0.56758,0.77376,0.74274
633.001,29.6446,-0.56876,0.77638,0.74232
633.601,29.66433,-0.56872,0.77707,0.74191
634.201,29.6841,-0.56946,0.78339,0.74149
634.801,29.7038,-0.57003,0.78702,0.74108
635.401,29.7236,-0.56998,0.78768,0.74066
636.001,29.74356,-0.5714,0.7932,0.74024
636.601,29.76343,-0.57135,0.79846,0.73982
637.201,29.7832,-0.572,0.79892,0.73941
637.801,29.8031,-0.57267,0.80532,0.73899
638.401,29.8229,-0.57328,0.80943,0.73857
639.001,29.84265,-0.57397,0.81306,0.73815
639.601,29.86252,-0.57398,0.81612,0.73773
640.201,29.88233,-0.57404,0.82066,0.73731
640.801,29.90212,-0.57532,0.82471,0.73689
641.401,29.922,-0.5753,0.82933,0.73647
642.001,29.94172,-0.5753,0.83546,0.73604
642.601,29.96138,-0.57529,0.84271,0.73562
643.201,29.98125,-0.57639,0.84562,0.7352
643.801,30.001,-0.57662,0.84894,0.73478
644.401,30.02096,-0.57667,0.85545,0.73435
645.001,30.0409,-0.57803,0.86342,0.73393
645.601,30.06073,-0.57806,0.86612,0.7335
646.201,30.0805,-0.57948,0.87106,0.73308
646.801,30.1003,-0.57947,0.87569,0.73265
647.401,30.1201,-0.58079,0.88114,0.73223
648.001,30.13999,-0.58078,0.8877,0.7318
648.601,30.1598,-0.58142,0.89251,0.73137
649.201,30.1797,-0.5821,0.89895,0.73095
649.801,30.1996,-0.58208,0.90319,0.73052
650.401,30.2195,-0.58343,0.90862,0.73009
651.001,30.2395,-0.58342,0.9142,0.72966
651.601,30.25934,-0.58341,0.91965,0.72923
652.201,30.27915,-0.58471,0.92513,0.7288
652.801,30.29895,-0.58473,0.92822,0.72837
653.401,30.3187,-0.58469,0.93661,0.72794
654.001,30.3386,-0.58619,0.94264,0.72751
654.601,30.35844,-0.58614,0.94739,0.72708
655.201,30.3783,-0.58743,0.95846,0.72665
655.801,30.39814,-0.58748,0.96514,0.72621
656.401,30.4181,-0.58866,0.9668,0.72578
657.001,30.438,-0.58879,0.97721,0.72535
657.601,30.45795,-0.58874,0.98482,0.72491
658.201,30.4779,-0.59014,0.98947,0.72448
658.801,30.49783,-0.59009,0.99751,0.72405
659.401,30.51775,-0.59143,1.00333,0.72361
660.001,30.5375,-0.59154,1.01076,0.72317
660.601,30.5573,-0.59272,1.01944,0.72274
661.201,30.57713,-0.59292,1.02327,0.7223
661.801,30.59705,-0.59431,1.0303,0.72186
662.401,30.61712,-0.59381,1.03616,0.72143
663.001,30.6371,-0.59472,1.04367,0.72099
663.601,30.6569,-0.59618,1.05559,0.72055
664.201,30.67673,-0.59686,1.05982,0.72011
664.801,30.6966,-0.59766,1.07202,0.71967
665.401,30.71647,-0.59906,1.07927,0.71923
666.001,30.73643,-0.59921,1.08448,0.71879
666.601,30.7564,-0.60058,1.093,0.71835
667.201,30.7764,-0.60085,1.10165,0.71791
667.801,30.7962,-0.60222,1.11323,0.71747
668.401,30.81618,-0.60327,1.117,0.71702
669.001,30.83607,-0.6037,1.12671,0.71658
669.601,30.8559,-0.60488,1.1357,0.71614
670.201,30.87572,-0.605,1.14202,0.71569
670.801,30.8956,-0.60665,1.15109,0.71525
671.401,30.91556,-0.60711,1.16348,0.71481
672.001,30.93563,-0.60788,1.16961,0.71436
672.601,30.9556,-0.60885,1.18076,0.71391
673.201,30.9755,-0.60937,1.18987,0.71347
673.801,30.99547,-0.61086,1.20112,0.71302
674.401,31.01537,-0.61214,1.20856,0.71257
675.001,31.03527,-0.61289,1.21979,0.71213
675.601,31.05521,-0.61378,1.23182,0.71168
676.201,31.0751,-0.61541,1.24077,0.71123
676.801,31.09511,-0.61544,1.25043,0.71078
677.401,31.115,-0.61685,1.26308,0.71033
678.001,31.1349,-0.61813,1.27394,0.70988
678.601,31.1549,-0.61787,1.28458,0.70943
679.201,31.17479,-0.6192,1.29546,0.70898
679.801,31.1947,-0.62097,1.30705,0.70853
680.401,31.2146,-0.62178,1.32039,0.70808
681.001,31.2346,-0.6225,1.32787,0.70763
681.601,31.2545,-0.62424,1.3416,0.70717
682.201,31.2745,-0.62544,1.34943,0.70672
682.801,31.2945,-0.62622,1.36263,0.70627
683.401,31.3144,-0.62752,1.37207,0.70581
684.001,31.33435,-0.62915,1.3855,0.70536
684.601,31.3543,-0.6305,1.39593,0.7049
685.201,31.3742,-0.63116,1.4097,0.70445
685.801,31.3942,-0.63291,1.42144,0.70399
686.401,31.41415,-0.6342,1.43372,0.70354
687.001,31.43413,-0.63469,1.4473,0.70308
687.601,31.45409,-0.63616,1.46055,0.70262
688.201,31.4741,-0.63798,1.47138,0.70216
688.801,31.494,-0.63922,1.48295,0.70171
689.401,31.514,-0.6411,1.49787,0.70125
690.001,31.53391,-0.64295,1.51153,0.70079
690.601,31.5539,-0.64428,1.5217,0.70033
691.201,31.5738,-0.64518,1.53953,0.69987
691.801,31.59368,-0.64672,1.55375,0.69941
692.401,31.6137,-0.64753,1.56846,0.69895
693.001,31.6336,-0.64837,1.58225,0.69849
693.601,31.65365,-0.64989,1.59479,0.69802
694.201,31.6737,-0.6519,1.61002,0.69756
694.801,31.69367,-0.65409,1.6249,0.6971
695.401,31.7137,-0.65543,1.64074,0.69663
696.001,31.73368,-0.65686,1.6557,0.69617
696.601,31.7537,-0.65828,1.67167,0.69571
697.201,31.7737,-0.65978,1.68758,0.69524
697.801,31.79363,-0.6613,1.70502,0.69478
698.401,31.8136,-0.66306,1.72027,0.69431
699.001,31.83359,-0.66494,1.73834,0.69385
699.601,31.85363,-0.66617,1.75711,0.69338
700.201,31.8737,-0.66738,1.77084,0.69291
700.801,31.8936,-0.66869,1.79042,0.69244
701.401,31.91365,-0.6702,1.80865,0.69198
702.001,31.9336,-0.67205,1.82684,0.69151
702.601,31.9536,-0.67392,1.84425,0.69104
703.201,31.97362,-0.67591,1.86484,0.69057
703.801,31.99356,-0.67832,1.8824,0.6901
704.401,32.01359,-0.68063,1.90033,0.68963
705.001,32.03355,-0.68328,1.91819,0.68916
705.601,32.05355,-0.68525,1.94169,0.68869
706.201,32.0735,-0.68665,1.95954,0.68822
706.801,32.09344,-0.68784,1.98108,0.68774
707.401,32.11342,-0.68948,2.00022,0.68727
708.001,32.13348,-0.69114,2.01779,0.6868
708.601,32.15352,-0.69325,2.04259,0.68633
709.201,32.1736,-0.69544,2.06291,0.68585
709.801,32.19361,-0.69741,2.08685,0.68538
710.401,32.21367,-0.69973,2.10726,0.6849
711.001,32.23365,-0.70203,2.13061,0.68443
711.601,32.2536,-0.70411,2.15352,0.68395
712.201,32.2736,-0.7062,2.17535,0.68347
712.801,32.2936,-0.70895,2.19975,0.683
713.401,32.31373,-0.71171,2.22534,0.68252
714.001,32.33383,-0.71467,2.24756,0.68204
714.601,32.35385,-0.71662,2.27337,0.68157
715.201,32.37389,-0.71857,2.2963,0.68109
715.801,32.39383,-0.72098,2.32597,0.68061
716.401,32.41381,-0.72296,2.35557,0.68013
717.001,32.43383,-0.72526,2.37771,0.67965
717.601,32.4538,-0.72803,2.40506,0.67917
718.201,32.4738,-0.73002,2.43173,0.67869
718.801,32.49385,-0.73223,2.45949,0.67821
719.401,32.5139,-0.73454,2.48537,0.67773
720.001,32.53392,-0.73732,2.51321,0.67724
720.601,32.554,-0.74039,2.54232,0.67676
721.201,32.5741,-0.74422,2.57422,0.67628
721.801,32.5941,-0.7466,2.60185,0.67579
722.401,32.61416,-0.74926,2.62887,0.67531
723.001,32.63423,-0.75208,2.65621,0.67483
723.601,32.65412,-0.75489,2.68759,0.67434
724.201,32.67402,-0.75812,2.71679,0.67386
724.801,32.69404,-0.76062,2.7474,0.67337
725.401,32.71409,-0.76348,2.78102,0.67288
726.001,32.73427,-0.76528,2.81221,0.6724
726.601,32.75443,-0.76854,2.84517,0.67191
727.201,32.77445,-0.7721,2.87624,0.67142
727.801,32.79452,-0.77496,2.90847,0.67094
728.401,32.81463,-0.77817,2.94003,0.67045
729.001,32.8347,-0.78142,2.97287,0.66996
729.601,32.8548,-0.78541,3.00938,0.66947
730.201,32.8748,-0.78891,3.04548,0.66898
730.801,32.89485,-0.79156,3.07609,0.66849
731.401,32.915,-0.79495,3.11308,0.668
732.001,32.93513,-0.7991,3.15175,0.66751
732.601,32.95528,-0.80295,3.18293,0.66702
733.201,32.9754,-0.80673,3.22111,0.66652
733.801,32.99552,-0.80959,3.25739,0.66603
734.401,33.01558,-0.81198,3.29924,0.66554
735.001,33.03552,-0.81598,3.33094,0.66505
735.601,33.0556,-0.81969,3.36596,0.66455
736.201,33.07574,-0.82295,3.40401,0.66406
736.801,33.0959,-0.82607,3.4388,0.66356
737.401,33.11606,-0.83068,3.47713,0.66307
738.001,33.13612,-0.83559,3.51399,0.66257
738.601,33.1563,-0.83969,3.55564,0.66208
739.201,33.17648,-0.84343,3.59471,0.66158
739.801,33.19662,-0.8472,3.62953,0.66108
740.401,33.21674,-0.85195,3.6663,0.66059
741.001,33.23685,-0.85692,3.71117,0.66009
741.601,33.25692,-0.86084,3.74919,0.65959
742.201,33.277,-0.86509,3.79075,0.65909
742.801,33.2971,-0.86887,3.83011,0.65859
743.401,33.3172,-0.87333,3.87206,0.6581
743.801,33.33075,-0.87607,3.89771,0.65776