File: 01_Data/Polyolefin_Carpet_Low_Pile/STA/N2/3K_min/Polyolefin_Carpet_Low_Pile_STA_N2_3KData_220403_R1.csv
##Temp./Â°C,Time/min,Mass loss(subtr.)/mg,DSC(subtr.)/(mW/mg),Sensit./(uV/mW)
50.156,10.01667,-0.03982,0.002053339,1.048
50.856,11.1401,-0.04342262,0.02683618,1.04769
51.556,11.53697,-0.04545046,0.04115079,1.04738
52.256,11.8619,-0.04473968,0.04561373,1.04707
52.956,12.15663,-0.04669535,0.05411354,1.04676
53.656,12.43644,-0.04663153,0.05813059,1.04645
54.356,12.7073,-0.04921168,0.05893537,1.04614
55.056,12.9721,-0.04888035,0.0606307,1.04583
55.756,13.23184,-0.04814908,0.06258122,1.04552
56.456,13.48845,-0.05082476,0.06506599,1.04522
57.156,13.7422,-0.05074347,0.06524858,1.04491
57.856,13.995,-0.05080217,0.06667392,1.0446
58.556,14.2447,-0.05079095,0.06980309,1.04429
59.256,14.4924,-0.05210957,0.06821404,1.04399
59.956,14.7364,-0.05340945,0.06883431,1.04368
60.656,14.97984,-0.05473066,0.0685809,1.04337
61.356,15.2217,-0.05602394,0.06999074,1.04307
62.056,15.4635,-0.05600919,0.07001022,1.04276
62.756,15.7053,-0.05758191,0.072223,1.04246
63.456,15.9466,-0.05768449,0.07119356,1.04215
64.156,16.18518,-0.05857726,0.07361207,1.04185
64.856,16.42342,-0.06031991,0.0722803,1.04154
65.556,16.66156,-0.06152441,0.07219444,1.04124
66.256,16.89902,-0.06164718,0.07460131,1.04093
66.956,17.13573,-0.06163883,0.07338663,1.04063
67.656,17.37138,-0.06297495,0.07404734,1.04032
68.356,17.60585,-0.06295287,0.07369868,1.04002
69.056,17.8406,-0.06428007,0.07793974,1.03972
69.756,18.07595,-0.06419655,0.07600119,1.03941
70.456,18.31063,-0.06559041,0.07436427,1.03911
71.156,18.54607,-0.06582253,0.07447423,1.03881
71.856,18.78096,-0.06626686,0.07498548,1.03851
72.556,19.01674,-0.06757,0.07706766,1.03821
73.256,19.25149,-0.06757441,0.07757048,1.0379
73.956,19.48601,-0.06823145,0.07801175,1.0376
74.656,19.72093,-0.06807009,0.07847275,1.0373
75.356,19.95607,-0.07082029,0.07722315,1.037
76.056,20.1918,-0.06995989,0.07745811,1.0367
76.756,20.42754,-0.07117883,0.0770985,1.0364
77.456,20.66264,-0.07120743,0.07507536,1.0361
78.156,20.8981,-0.07183893,0.07605056,1.0358
78.856,21.13417,-0.07316024,0.07483272,1.0355
79.556,21.37009,-0.07377695,0.07734494,1.0352
80.256,21.60514,-0.0736826,0.07855787,1.0349
80.956,21.8383,-0.07514,0.07750943,1.0346
81.656,22.07033,-0.07497916,0.07907406,1.0343
82.356,22.30237,-0.07514003,0.0782073,1.034
83.056,22.53426,-0.076452,0.0816243,1.0337
83.756,22.767,-0.07777176,0.07914749,1.0334
84.456,22.99924,-0.07576433,0.07520651,1.03311
85.156,23.23251,-0.07776916,0.07862359,1.03281
85.856,23.46633,-0.0777654,0.07619656,1.03251
86.556,23.70064,-0.07974933,0.07539004,1.03221
87.256,23.93582,-0.07974,0.07667746,1.03191
87.956,24.1713,-0.08039999,0.07419224,1.03162
88.656,24.40662,-0.08104749,0.07565421,1.03132
89.356,24.64009,-0.08166037,0.07819807,1.03102
90.056,24.8721,-0.08107329,0.07732365,1.03073
90.756,25.1037,-0.08205003,0.07886611,1.03043
91.456,25.33505,-0.08105848,0.07842158,1.03013
92.156,25.56596,-0.08369073,0.07883508,1.02984
92.856,25.79746,-0.0837873,0.07763693,1.02954
93.556,26.0303,-0.08392504,0.07604473,1.02925
94.256,26.2644,-0.08632113,0.0752652,1.02895
94.956,26.4984,-0.08534065,0.07631599,1.02866
95.656,26.7316,-0.08597755,0.07683198,1.02836
96.356,26.965,-0.08724738,0.07599342,1.02807
97.056,27.19792,-0.08564322,0.07729941,1.02777
97.756,27.4321,-0.08731007,0.07710723,1.02748
98.456,27.6648,-0.08762841,0.07804697,1.02718
99.156,27.8981,-0.09028314,0.08123135,1.02689
99.856,28.1305,-0.08996089,0.07973901,1.0266
100.556,28.3639,-0.09203706,0.07940142,1.0263
101.256,28.59608,-0.08987401,0.07958276,1.02601
101.956,28.8274,-0.09126453,0.08010145,1.02572
102.656,29.0579,-0.0905963,0.082135,1.02542
103.356,29.2877,-0.09224,0.0831274,1.02513
104.056,29.51763,-0.09092807,0.0819187,1.02484
104.756,29.74745,-0.09256892,0.08493508,1.02455
105.456,29.97758,-0.09259515,0.08295337,1.02425
106.156,30.20885,-0.09287346,0.08552628,1.02396
106.856,30.4405,-0.09220689,0.08275036,1.02367
107.556,30.6728,-0.0947437,0.08221274,1.02338
108.256,30.9053,-0.09323784,0.08222638,1.02309
108.956,31.13782,-0.09326668,0.07841703,1.02279
109.656,31.37058,-0.09681783,0.07907297,1.0225
110.356,31.6022,-0.09586063,0.08145865,1.02221
111.056,31.8322,-0.09685025,0.08248856,1.02192
111.756,32.0616,-0.09554,0.08528456,1.02163
112.456,32.29034,-0.09686048,0.08354045,1.02134
113.156,32.5192,-0.09701755,0.08597424,1.02105
113.856,32.74799,-0.09692504,0.08419302,1.02076
114.556,32.9782,-0.09685,0.0841026,1.02047
115.256,33.20944,-0.0981582,0.08384019,1.02018
115.956,33.4418,-0.10014,0.08469473,1.01989
116.656,33.6736,-0.10014,0.08371644,1.0196
117.356,33.90609,-0.09947639,0.08306232,1.01931
118.056,34.13739,-0.09948098,0.08223746,1.01902
118.756,34.36992,-0.10031,0.08253013,1.01873
119.456,34.60172,-0.10048,0.078965,1.01844
120.156,34.83421,-0.10048,0.08032614,1.01815
120.856,35.0662,-0.0988324,0.08286115,1.01787
121.556,35.29789,-0.10057,0.08017516,1.01758
122.256,35.5291,-0.10113,0.08335466,1.01729
122.956,35.75977,-0.10113,0.08267984,1.017
123.656,35.99023,-0.10113,0.08249362,1.01671
124.356,36.22032,-0.1011,0.08687717,1.01642
125.056,36.44996,-0.10113,0.08778819,1.01614
125.756,36.68047,-0.10131,0.08538893,1.01585
126.456,36.911,-0.10212,0.08752731,1.01556
127.156,37.1405,-0.10211,0.08724112,1.01527
127.856,37.3698,-0.10262,0.08776078,1.01499
128.556,37.5989,-0.10344,0.08609419,1.0147
129.256,37.82889,-0.10473,0.08535601,1.01441
129.956,38.05874,-0.10447,0.08444311,1.01412
130.656,38.28941,-0.10444,0.08569067,1.01384
131.356,38.5209,-0.10574,0.08469174,1.01355
132.056,38.75229,-0.10613,0.08533196,1.01326
132.756,38.9833,-0.1064,0.08902722,1.01298
133.456,39.21359,-0.10509,0.08466402,1.01269
134.156,39.44396,-0.10573,0.08889694,1.01241
134.856,39.67459,-0.10576,0.09081729,1.01212
135.556,39.90452,-0.10605,0.09229751,1.01183
136.256,40.1342,-0.10672,0.0934232,1.01155
136.956,40.36356,-0.10738,0.09642281,1.01126
137.656,40.59283,-0.10771,0.09451977,1.01098
138.356,40.8222,-0.10771,0.09565294,1.01069
139.056,41.05087,-0.10904,0.09826223,1.0104
139.756,41.27956,-0.10837,0.0952582,1.01012
140.456,41.50809,-0.10837,0.09708915,1.00983
141.156,41.7364,-0.11067,0.09957617,1.00955
141.856,41.96566,-0.11168,0.09908111,1.00926
142.556,42.1946,-0.10936,0.09989804,1.00898
143.256,42.42419,-0.11002,0.09893261,1.00869
143.956,42.65285,-0.10997,0.10098,1.00841
144.656,42.88208,-0.10837,0.09894715,1.00812
145.356,43.1108,-0.10903,0.1023,1.00784
146.056,43.33997,-0.10932,0.10197,1.00756
146.756,43.56808,-0.10936,0.10514,1.00727
147.456,43.79639,-0.11065,0.10412,1.00699
148.156,44.02495,-0.10886,0.10498,1.0067
148.856,44.25403,-0.11034,0.10527,1.00642
149.556,44.4828,-0.11035,0.11018,1.00613
150.256,44.71156,-0.11233,0.10948,1.00585
150.956,44.93946,-0.11101,0.11102,1.00557
151.656,45.16818,-0.111,0.11249,1.00528
152.356,45.39628,-0.1123,0.11378,1.005
153.056,45.62534,-0.11133,0.11847,1.00471
153.756,45.8534,-0.11266,0.12196,1.00443
154.456,46.08167,-0.11389,0.12483,1.00415
155.156,46.30912,-0.1119,0.1287,1.00386
155.856,46.5374,-0.11265,0.13211,1.00358
156.556,46.76592,-0.11363,0.13371,1.0033
157.256,46.99538,-0.11137,0.14061,1.00301
157.956,47.22507,-0.11397,0.14576,1.00273
158.656,47.45617,-0.11461,0.14828,1.00245
159.356,47.68752,-0.11365,0.15731,1.00216
160.056,47.91854,-0.11462,0.16506,1.00188
160.756,48.14798,-0.11462,0.17469,1.0016
161.456,48.37647,-0.11466,0.18968,1.00131
162.156,48.605,-0.1148,0.19964,1.00103
162.856,48.83338,-0.11594,0.2125,1.00075
163.556,49.0623,-0.11594,0.22157,1.00047
164.256,49.29123,-0.11485,0.22867,1.00018
164.956,49.5206,-0.11627,0.2349,0.9999
165.656,49.75014,-0.11727,0.23972,0.99962
166.356,49.97926,-0.11726,0.24373,0.99934
167.056,50.20821,-0.11621,0.23869,0.99905
167.756,50.43678,-0.11758,0.23158,0.99877
168.456,50.66468,-0.11624,0.21481,0.99849
169.156,50.8928,-0.11647,0.19503,0.99821
169.856,51.12104,-0.11659,0.17429,0.99792
170.556,51.34977,-0.11561,0.15258,0.99764
171.256,51.5777,-0.11655,0.13594,0.99736
171.956,51.8058,-0.11659,0.12522,0.99708
172.656,52.0339,-0.11659,0.11342,0.99679
173.356,52.26211,-0.1166,0.10917,0.99651
174.056,52.4892,-0.11793,0.1076,0.99623
174.756,52.7165,-0.11792,0.10588,0.99595
175.456,52.94339,-0.11857,0.10507,0.99566
176.156,53.1705,-0.11857,0.10363,0.99538
176.856,53.39891,-0.11759,0.10334,0.9951
177.556,53.62797,-0.11857,0.10562,0.99482
178.256,53.85748,-0.11988,0.10366,0.99454
178.956,54.0856,-0.11989,0.10452,0.99425
179.656,54.3135,-0.11989,0.10647,0.99397
180.356,54.5413,-0.11989,0.10735,0.99369
181.056,54.7692,-0.12044,0.10623,0.99341
181.756,54.9971,-0.12045,0.10482,0.99312
182.456,55.2258,-0.11855,0.10298,0.99284
183.156,55.4542,-0.12011,0.10599,0.99256
183.856,55.6831,-0.12011,0.10329,0.99228
184.556,55.91049,-0.12011,0.10577,0.992
185.256,56.1388,-0.12011,0.10653,0.99171
185.956,56.367,-0.12011,0.10423,0.99143
186.656,56.596,-0.12011,0.10568,0.99115
187.356,56.82395,-0.12143,0.1053,0.99087
188.056,57.0508,-0.12076,0.10498,0.99058
188.756,57.2774,-0.12043,0.10414,0.9903
189.456,57.5039,-0.12142,0.10856,0.99002
190.156,57.72976,-0.12143,0.10541,0.98974
190.856,57.9557,-0.12175,0.10791,0.98946
191.556,58.181,-0.12097,0.10967,0.98917
192.256,58.40781,-0.12175,0.10908,0.98889
192.956,58.6349,-0.12043,0.10821,0.98861
193.656,58.8628,-0.12175,0.10904,0.98833
194.356,59.09039,-0.12076,0.10974,0.98804
195.056,59.3176,-0.12073,0.11048,0.98776
195.756,59.54475,-0.12208,0.11137,0.98748
196.456,59.7717,-0.12307,0.11065,0.9872
197.156,59.9988,-0.12406,0.10886,0.98691
197.856,60.22642,-0.12406,0.10726,0.98663
198.556,60.45527,-0.12354,0.10338,0.98635
199.256,60.68421,-0.12406,0.10671,0.98607
199.956,60.91288,-0.12364,0.10484,0.98578
200.656,61.14082,-0.12341,0.10508,0.9855
201.356,61.3678,-0.12274,0.10774,0.98522
202.056,61.5944,-0.12408,0.11047,0.98493
202.756,61.82096,-0.12471,0.10633,0.98465
203.456,62.04843,-0.12339,0.10729,0.98437
204.156,62.27621,-0.12339,0.10635,0.98409
204.856,62.50371,-0.12471,0.10597,0.9838
205.556,62.73053,-0.12537,0.10967,0.98352
206.256,62.95737,-0.12603,0.1113,0.98324
206.956,63.1838,-0.12507,0.11102,0.98295
207.656,63.41029,-0.12473,0.10981,0.98267
208.356,63.63619,-0.12537,0.112,0.98239
209.056,63.86258,-0.12266,0.1106,0.9821
209.756,64.08963,-0.12405,0.11058,0.98182
210.456,64.31657,-0.12537,0.10703,0.98154
211.156,64.54436,-0.12615,0.10659,0.98125
211.856,64.77209,-0.12563,0.1062,0.98097
212.556,65.00027,-0.12636,0.10709,0.98068
213.256,65.22723,-0.12603,0.10964,0.9804
213.956,65.454,-0.12617,0.10858,0.98012
214.656,65.68127,-0.12548,0.1082,0.97983
215.356,65.90836,-0.12795,0.10742,0.97955
216.056,66.13472,-0.1268,0.10914,0.97926
216.756,66.36019,-0.12803,0.10703,0.97898
217.456,66.586,-0.12735,0.10678,0.9787
218.156,66.81189,-0.12761,0.1077,0.97841
218.856,67.03901,-0.12703,0.10951,0.97813
219.556,67.26688,-0.12833,0.10741,0.97784
220.256,67.49605,-0.13074,0.10349,0.97756
220.956,67.7242,-0.12733,0.10486,0.97727
221.656,67.9523,-0.12921,0.10358,0.97699
222.356,68.1802,-0.12943,0.10248,0.9767
223.056,68.40834,-0.13167,0.10372,0.97642
223.756,68.636,-0.12889,0.10599,0.97613
224.456,68.86296,-0.12987,0.10472,0.97585
225.156,69.09022,-0.12987,0.10724,0.97556
225.856,69.318,-0.13058,0.10458,0.97528
226.556,69.546,-0.12879,0.10366,0.97499
227.256,69.7739,-0.12959,0.10412,0.9747
227.956,70.00222,-0.13031,0.10058,0.97442
228.656,70.2305,-0.13031,0.10431,0.97413
229.356,70.45843,-0.13194,0.10379,0.97385
230.056,70.68469,-0.13195,0.1045,0.97356
230.756,70.91113,-0.13228,0.1073,0.97327
231.456,71.13665,-0.13228,0.10593,0.97299
232.156,71.3626,-0.13197,0.10726,0.9727
232.856,71.58755,-0.13182,0.10711,0.97241
233.556,71.8129,-0.13294,0.10832,0.97213
234.256,72.03935,-0.13291,0.1067,0.97184
234.956,72.2664,-0.13294,0.10855,0.97155
235.656,72.49428,-0.13294,0.10691,0.97126
236.356,72.72235,-0.13409,0.10615,0.97098
237.056,72.95183,-0.13262,0.10191,0.97069
237.756,73.1816,-0.13309,0.10648,0.9704
238.456,73.41125,-0.13305,0.10342,0.97011
239.156,73.64026,-0.13306,0.10478,0.96983
239.856,73.86846,-0.13311,0.10496,0.96954
240.556,74.0958,-0.13338,0.10543,0.96925
241.256,74.32234,-0.13338,0.10229,0.96896
241.956,74.5483,-0.13338,0.10697,0.96867
242.656,74.77412,-0.13338,0.10516,0.96838
243.356,75.0001,-0.13404,0.10752,0.96809
244.056,75.2273,-0.13437,0.10581,0.9678
244.756,75.455,-0.13437,0.1074,0.96752
245.456,75.68259,-0.13436,0.10762,0.96723
246.156,75.91036,-0.13699,0.10618,0.96694
246.856,76.13817,-0.13568,0.1079,0.96665
247.556,76.36624,-0.13634,0.10531,0.96636
248.256,76.593,-0.13707,0.1059,0.96607
248.956,76.8199,-0.13667,0.10909,0.96578
249.656,77.04586,-0.13536,0.10851,0.96549
250.356,77.27178,-0.13746,0.10591,0.9652
251.056,77.49744,-0.13633,0.10736,0.9649
251.756,77.7234,-0.13731,0.10573,0.96461
252.456,77.94973,-0.13733,0.10629,0.96432
253.156,78.17631,-0.1368,0.10503,0.96403
253.856,78.40406,-0.13736,0.10679,0.96374
254.556,78.63265,-0.13733,0.10389,0.96345
255.256,78.86169,-0.13731,0.1048,0.96316
255.956,79.09075,-0.13601,0.1043,0.96286
256.656,79.31953,-0.13865,0.10434,0.96257
257.356,79.54635,-0.13766,0.1064,0.96228
258.056,79.77372,-0.13799,0.10664,0.96199
258.756,80.00061,-0.13798,0.107,0.96169
259.456,80.22859,-0.13831,0.10575,0.9614
260.156,80.45642,-0.13947,0.10318,0.96111
260.856,80.68466,-0.13831,0.10537,0.96081
261.556,80.91341,-0.13861,0.10359,0.96052
262.256,81.1416,-0.13994,0.10484,0.96023
262.956,81.36915,-0.13897,0.10453,0.95993
263.656,81.5952,-0.13994,0.10603,0.95964
264.356,81.82086,-0.13967,0.11021,0.95934
265.056,82.04743,-0.13865,0.10819,0.95905
265.756,82.2752,-0.13954,0.10658,0.95875
266.456,82.50392,-0.14094,0.10633,0.95846
267.156,82.73145,-0.14094,0.10474,0.95816
267.856,82.9602,-0.14094,0.10567,0.95787
268.556,83.18956,-0.14061,0.10483,0.95757
269.256,83.41957,-0.14085,0.10469,0.95728
269.956,83.64838,-0.14162,0.10342,0.95698
270.656,83.87605,-0.14173,0.10869,0.95668
271.356,84.1036,-0.14215,0.10505,0.95639
272.056,84.33142,-0.14091,0.10455,0.95609
272.756,84.5594,-0.14305,0.10509,0.95579
273.456,84.78719,-0.14358,0.10561,0.9555
274.156,85.01403,-0.14358,0.10494,0.9552
274.856,85.24051,-0.14358,0.10568,0.9549
275.556,85.467,-0.14388,0.10735,0.9546
276.256,85.69408,-0.14392,0.10812,0.9543
276.956,85.91977,-0.1432,0.10881,0.954
277.656,86.14664,-0.1438,0.10822,0.95371
278.356,86.37361,-0.14456,0.10816,0.95341
279.056,86.60243,-0.14456,0.10909,0.95311
279.756,86.83031,-0.14456,0.10779,0.95281
280.456,87.05853,-0.14522,0.10939,0.95251
281.156,87.2869,-0.1452,0.10922,0.95221
281.856,87.51556,-0.14489,0.10556,0.95191
282.556,87.74286,-0.14621,0.10724,0.95161
283.256,87.9697,-0.14555,0.10697,0.95131
283.956,88.1965,-0.14684,0.10897,0.951
284.656,88.42452,-0.14687,0.10789,0.9507
285.356,88.65167,-0.14986,0.10842,0.9504
286.056,88.87867,-0.14779,0.10787,0.9501
286.756,89.10449,-0.1484,0.10994,0.9498
287.456,89.33104,-0.1484,0.11032,0.9495
288.156,89.55754,-0.14931,0.10971,0.94919
288.856,89.78498,-0.14935,0.10928,0.94889
289.556,90.01302,-0.14918,0.10462,0.94859
290.256,90.24161,-0.14972,0.10652,0.94828
290.956,90.46991,-0.14944,0.10496,0.94798
291.656,90.6978,-0.15139,0.10626,0.94767
292.356,90.92523,-0.15136,0.10562,0.94737
293.056,91.15366,-0.15136,0.10691,0.94707
293.756,91.38248,-0.15268,0.10927,0.94676
294.456,91.6114,-0.15277,0.10633,0.94646
295.156,91.83994,-0.15268,0.10609,0.94615
295.856,92.06665,-0.15268,0.10962,0.94584
296.556,92.29366,-0.1528,0.11075,0.94554
297.256,92.51961,-0.15337,0.10947,0.94523
297.956,92.7474,-0.15421,0.10963,0.94492
298.656,92.9748,-0.15564,0.1104,0.94462
299.356,93.20396,-0.15443,0.10942,0.94431
300.056,93.43251,-0.15657,0.10986,0.944
300.756,93.6611,-0.15613,0.11036,0.94369
301.456,93.8884,-0.15761,0.11272,0.94339
302.156,94.11567,-0.15894,0.11173,0.94308
302.856,94.34302,-0.15892,0.11019,0.94277
303.556,94.57105,-0.15893,0.11034,0.94246
304.256,94.79993,-0.16025,0.10964,0.94215
304.956,95.0287,-0.16025,0.10964,0.94184
305.656,95.25697,-0.16137,0.11134,0.94153
306.356,95.48392,-0.16256,0.11032,0.94122
307.056,95.7114,-0.16354,0.11052,0.94091
307.756,95.93905,-0.16386,0.11097,0.9406
308.456,96.1681,-0.16387,0.10981,0.94029
309.156,96.39709,-0.16387,0.11114,0.93997
309.856,96.62703,-0.16471,0.11314,0.93966
310.556,96.85582,-0.16561,0.11282,0.93935
311.256,97.08402,-0.16551,0.114,0.93904
311.956,97.3112,-0.16749,0.11399,0.93872
312.656,97.53825,-0.16815,0.11348,0.93841
313.356,97.76518,-0.16947,0.11421,0.9381
314.056,97.9922,-0.16812,0.1156,0.93778
314.756,98.21951,-0.16953,0.11456,0.93747
315.456,98.44721,-0.1711,0.11605,0.93715
316.156,98.6756,-0.17145,0.11297,0.93684
316.856,98.90467,-0.17375,0.11191,0.93652
317.556,99.1344,-0.17244,0.11387,0.93621
318.256,99.3633,-0.17407,0.11736,0.93589
318.956,99.59199,-0.17398,0.11617,0.93558
319.656,99.8201,-0.17539,0.11678,0.93526
320.356,100.049,-0.17671,0.11789,0.93494
321.056,100.278,-0.17802,0.11793,0.93462
321.756,100.507,-0.17802,0.12041,0.93431
322.456,100.735,-0.17934,0.11893,0.93399
323.156,100.965,-0.18067,0.11737,0.93367
323.856,101.1946,-0.18066,0.12138,0.93335
324.556,101.423,-0.1823,0.11826,0.93303
325.256,101.652,-0.18196,0.12152,0.93271
325.956,101.88,-0.18327,0.12091,0.93239
326.656,102.107,-0.1846,0.123,0.93207
327.356,102.335,-0.18691,0.12138,0.93175
328.056,102.563,-0.18831,0.1234,0.93143
328.756,102.793,-0.18822,0.12384,0.93111
329.456,103.023,-0.19005,0.12473,0.93079
330.156,103.253,-0.18982,0.12413,0.93046
330.856,103.481,-0.19251,0.12568,0.93014
331.556,103.708,-0.19382,0.12854,0.92982
332.256,103.935,-0.19513,0.12868,0.92949
332.956,104.163,-0.19645,0.12888,0.92917
333.656,104.391,-0.19743,0.1288,0.92885
334.356,104.62,-0.19974,0.1268,0.92852
335.056,104.849,-0.20106,0.128,0.9282
335.756,105.0777,-0.20237,0.12791,0.92787
336.456,105.306,-0.20431,0.12777,0.92755
337.156,105.535,-0.20567,0.12787,0.92722
337.856,105.764,-0.20602,0.12977,0.92689
338.556,105.992,-0.20895,0.12953,0.92657
339.256,106.221,-0.21268,0.13038,0.92624
339.956,106.449,-0.21148,0.13185,0.92591
340.656,106.678,-0.21365,0.12985,0.92558
341.356,106.908,-0.21671,0.12611,0.92525
342.056,107.139,-0.21806,0.12439,0.92493
342.756,107.369,-0.21812,0.12256,0.9246
343.456,107.599,-0.22201,0.12357,0.92427
344.156,107.8283,-0.22269,0.12396,0.92394
344.856,108.058,-0.22598,0.12613,0.92361
345.556,108.288,-0.22759,0.12431,0.92327
346.256,108.5187,-0.22948,0.1261,0.92294
346.956,108.749,-0.23157,0.12777,0.92261
347.656,108.9789,-0.23549,0.12869,0.92228
348.356,109.209,-0.23679,0.13164,0.92195
349.056,109.438,-0.23904,0.1299,0.92161
349.756,109.668,-0.24174,0.1306,0.92128
350.456,109.898,-0.24294,0.13056,0.92095
351.156,110.127,-0.24537,0.13284,0.92061
351.856,110.355,-0.24828,0.1334,0.92028
352.556,110.583,-0.25129,0.1369,0.91994
353.256,110.811,-0.25382,0.13911,0.91961
353.956,111.04,-0.25654,0.13512,0.91927
354.656,111.269,-0.25919,0.1355,0.91893
355.356,111.499,-0.26316,0.13432,0.9186
356.056,111.729,-0.26635,0.13511,0.91826
356.756,111.959,-0.2677,0.13436,0.91792
357.456,112.189,-0.27041,0.13686,0.91758
358.156,112.419,-0.27398,0.13846,0.91725
358.856,112.649,-0.27795,0.13887,0.91691
359.556,112.88,-0.28068,0.14246,0.91657
360.256,113.109,-0.28337,0.14321,0.91623
360.956,113.339,-0.28677,0.14458,0.91589
361.656,113.568,-0.29049,0.14482,0.91555
362.356,113.796,-0.29299,0.14619,0.91521
363.056,114.024,-0.29802,0.14658,0.91486
363.756,114.252,-0.30143,0.14321,0.91452
364.456,114.482,-0.30395,0.14508,0.91418
365.156,114.71,-0.30742,0.15011,0.91384
365.856,114.94,-0.31139,0.14555,0.91349
366.556,115.17,-0.31488,0.14908,0.91315
367.256,115.401,-0.31874,0.14874,0.9128
367.956,115.63,-0.32361,0.14962,0.91246
368.656,115.861,-0.32617,0.15069,0.91211
369.356,116.09,-0.33021,0.15353,0.91177
370.056,116.321,-0.33647,0.15243,0.91142
370.756,116.551,-0.33764,0.15423,0.91107
371.456,116.7805,-0.34337,0.15715,0.91073
372.156,117.009,-0.34748,0.15852,0.91038
372.856,117.238,-0.35185,0.1603,0.91003
373.556,117.466,-0.3581,0.16171,0.90968
374.256,117.695,-0.36081,0.16172,0.90933
374.956,117.924,-0.36442,0.16235,0.90898
375.656,118.154,-0.36911,0.16158,0.90863
376.356,118.386,-0.37459,0.15985,0.90828
377.056,118.617,-0.38105,0.16115,0.90793
377.756,118.847,-0.38437,0.16262,0.90758
378.456,119.076,-0.38947,0.16574,0.90723
379.156,119.304,-0.39494,0.16628,0.90688
379.856,119.533,-0.39977,0.16961,0.90652
380.556,119.761,-0.40514,0.16844,0.90617
381.256,119.989,-0.41,0.17065,0.90582
381.956,120.218,-0.4157,0.16728,0.90546
382.656,120.448,-0.41997,0.17036,0.90511
383.356,120.68,-0.42584,0.16807,0.90475
384.056,120.911,-0.43219,0.17087,0.9044
384.756,121.142,-0.43781,0.1709,0.90404
385.456,121.371,-0.44334,0.17571,0.90368
386.156,121.5999,-0.44982,0.17456,0.90333
386.856,121.828,-0.45595,0.1789,0.90297
387.556,122.058,-0.46032,0.17724,0.90261
388.256,122.288,-0.46659,0.18076,0.90225
388.956,122.519,-0.47438,0.17715,0.90189
389.656,122.751,-0.48058,0.18036,0.90153
390.356,122.981,-0.48755,0.18133,0.90117
391.056,123.213,-0.49369,0.18033,0.90081
391.756,123.443,-0.50175,0.18264,0.90045
392.456,123.672,-0.50765,0.18622,0.90009
393.156,123.9,-0.51454,0.18525,0.89973
393.856,124.128,-0.52382,0.18858,0.89936
394.556,124.357,-0.52945,0.18976,0.899
395.256,124.586,-0.5364,0.19077,0.89864
395.956,124.816,-0.54458,0.1927,0.89827
396.656,125.047,-0.55297,0.19339,0.89791
397.356,125.278,-0.55948,0.1918,0.89754
398.056,125.51,-0.56735,0.1941,0.89717
398.756,125.742,-0.57651,0.19495,0.89681
399.456,125.973,-0.58398,0.19813,0.89644
400.156,126.203,-0.59383,0.19875,0.89607
400.856,126.433,-0.60239,0.2029,0.89571
401.556,126.664,-0.6094,0.19932,0.89534
402.256,126.894,-0.61859,0.20127,0.89497
402.956,127.126,-0.62855,0.20524,0.8946
403.656,127.357,-0.63747,0.20663,0.89423
404.356,127.587,-0.64683,0.21133,0.89386
405.056,127.818,-0.65576,0.2087,0.89349
405.756,128.047,-0.66686,0.21108,0.89312
406.456,128.278,-0.67484,0.21321,0.89274
407.156,128.509,-0.68517,0.21227,0.89237
407.856,128.74,-0.69689,0.21709,0.892
408.556,128.97,-0.70671,0.21872,0.89162
409.256,129.2,-0.71865,0.22009,0.89125
409.956,129.429,-0.72921,0.22458,0.89087
410.656,129.659,-0.74011,0.22673,0.8905
411.356,129.89,-0.75091,0.228,0.89012
412.056,130.1201,-0.76382,0.23299,0.88975
412.756,130.351,-0.77721,0.23369,0.88937
413.456,130.582,-0.78889,0.23544,0.88899
414.156,130.813,-0.80412,0.23584,0.88861
414.856,131.044,-0.81647,0.24118,0.88823
415.556,131.275,-0.8298,0.24379,0.88785
416.256,131.506,-0.84494,0.24519,0.88747
416.956,131.737,-0.85929,0.24564,0.88709
417.656,131.969,-0.87454,0.24978,0.88671
418.356,132.201,-0.88905,0.25306,0.88633
419.056,132.433,-0.90564,0.25461,0.88595
419.756,132.665,-0.92036,0.2604,0.88557
420.456,132.898,-0.93583,0.26033,0.88518
421.156,133.129,-0.95306,0.25981,0.8848
421.856,133.3607,-0.97129,0.26712,0.88442
422.556,133.592,-0.98636,0.26963,0.88403
423.256,133.824,-1.00494,0.27205,0.88365
423.956,134.054,-1.0223,0.27425,0.88326
424.656,134.2848,-1.04172,0.27526,0.88287
425.356,134.515,-1.05995,0.2774,0.88249
426.056,134.7446,-1.07953,0.27819,0.8821
426.756,134.974,-1.09929,0.2847,0.88171
427.456,135.203,-1.11909,0.28934,0.88132
428.156,135.433,-1.14055,0.28741,0.88093
428.856,135.663,-1.16174,0.28931,0.88054
429.556,135.893,-1.18146,0.29022,0.88015
430.256,136.124,-1.2069,0.29034,0.87976
430.956,136.356,-1.22656,0.29243,0.87937
431.656,136.589,-1.25051,0.29482,0.87898
432.356,136.823,-1.27404,0.29145,0.87859
433.056,137.056,-1.29696,0.29295,0.87819
433.756,137.289,-1.32142,0.29429,0.8778
434.456,137.522,-1.34558,0.29069,0.8774
435.156,137.754,-1.36996,0.29555,0.87701
435.856,137.985,-1.39463,0.29032,0.87661
436.556,138.217,-1.41945,0.29136,0.87622
437.256,138.448,-1.44474,0.28947,0.87582
437.956,138.681,-1.47053,0.29025,0.87542
438.656,138.912,-1.49618,0.29131,0.87502
439.356,139.1431,-1.52163,0.28781,0.87463
440.056,139.373,-1.54607,0.28697,0.87423
440.756,139.603,-1.57313,0.28674,0.87383
441.456,139.834,-1.59947,0.28403,0.87343
442.156,140.065,-1.62468,0.28208,0.87303
442.856,140.296,-1.65072,0.28212,0.87262
443.556,140.5275,-1.67593,0.27674,0.87222
444.256,140.759,-1.70029,0.26963,0.87182
444.956,140.991,-1.72594,0.26071,0.87142
445.656,141.221,-1.74857,0.26044,0.87101
446.356,141.452,-1.77357,0.25371,0.87061
447.056,141.683,-1.79729,0.24977,0.8702
447.756,141.915,-1.81813,0.23895,0.8698
448.456,142.148,-1.83968,0.23612,0.86939
449.156,142.38,-1.86047,0.22641,0.86898
449.856,142.612,-1.88208,0.22085,0.86858
450.556,142.844,-1.9014,0.21102,0.86817
451.256,143.075,-1.91919,0.1997,0.86776
451.956,143.307,-1.93655,0.18895,0.86735
452.656,143.539,-1.9519,0.17695,0.86694
453.356,143.77,-1.96574,0.16792,0.86653
454.056,144.001,-1.97802,0.15553,0.86612
454.756,144.233,-1.99014,0.14056,0.86571
455.456,144.466,-1.99846,0.12533,0.8653
456.156,144.699,-2.00513,0.11266,0.86488
456.856,144.933,-2.01051,0.10374,0.86447
457.556,145.166,-2.01583,0.09676994,0.86406
458.256,145.398,-2.01852,0.09047338,0.86364
458.956,145.6309,-2.02109,0.08408798,0.86323
459.656,145.863,-2.02239,0.08189704,0.86281
460.356,146.095,-2.023,0.08237009,0.86239
461.056,146.326,-2.0247,0.07871446,0.86198
461.756,146.556,-2.02473,0.0800123,0.86156
462.456,146.786,-2.02569,0.08421288,0.86114
463.156,147.017,-2.02568,0.08295896,0.86072
463.856,147.248,-2.02504,0.09038941,0.8603
464.556,147.479,-2.02599,0.09153471,0.85988
465.256,147.7118,-2.02758,0.09085946,0.85946
465.956,147.9455,-2.02634,0.08633837,0.85904
466.656,148.179,-2.02634,0.0748208,0.85862
467.356,148.412,-2.02895,0.07259655,0.8582
468.056,148.643,-2.02803,0.07104652,0.85777
468.756,148.875,-2.02864,0.06376718,0.85735
469.456,149.107,-2.02864,0.05968311,0.85692
470.156,149.339,-2.02731,0.05695259,0.8565
470.856,149.57,-2.02865,0.05869402,0.85607
471.556,149.8013,-2.0293,0.05776825,0.85565
472.256,150.033,-2.02794,0.05917079,0.85522
472.956,150.265,-2.03062,0.05550981,0.85479
473.656,150.498,-2.02931,0.05631176,0.85436
474.356,150.732,-2.02934,0.05483055,0.85394
475.056,150.9659,-2.03064,0.0538575,0.85351
475.756,151.199,-2.03126,0.05286573,0.85308
476.456,151.432,-2.03187,0.05606976,0.85265
477.156,151.665,-2.03161,0.05344057,0.85221
477.856,151.899,-2.03226,0.05284336,0.85178
478.556,152.131,-2.03151,0.05531883,0.85135
479.256,152.361,-2.03318,0.05707697,0.85092
479.956,152.592,-2.03367,0.05574774,0.85048
480.656,152.823,-2.03358,0.05543121,0.85005
481.356,153.0565,-2.03359,0.0555179,0.84961
482.056,153.29,-2.03396,0.05129871,0.84918
482.756,153.525,-2.03423,0.05275354,0.84874
483.456,153.759,-2.03456,0.05520795,0.8483
484.156,153.993,-2.03456,0.05052837,0.84787
484.856,154.2267,-2.03325,0.05199422,0.84743
485.556,154.46,-2.03414,0.05536654,0.84699
486.256,154.694,-2.03522,0.05663848,0.84655
486.956,154.9258,-2.03655,0.05713105,0.84611
487.656,155.158,-2.03654,0.05727944,0.84567
488.356,155.389,-2.03553,0.05967267,0.84523
489.056,155.622,-2.03654,0.06088932,0.84478
489.756,155.853,-2.03786,0.05957852,0.84434
490.456,156.0851,-2.03784,0.06248397,0.8439
491.156,156.317,-2.03653,0.06216144,0.84345
491.856,156.55,-2.03885,0.06194493,0.84301
492.556,156.783,-2.03852,0.06361706,0.84256
493.256,157.016,-2.03753,0.06087092,0.84212
493.956,157.25,-2.04016,0.06113207,0.84167
494.656,157.484,-2.03884,0.05982477,0.84122
495.356,157.718,-2.03917,0.06092826,0.84078
496.056,157.951,-2.04049,0.05527474,0.84033
496.756,158.185,-2.04049,0.06079578,0.83988
497.456,158.419,-2.04149,0.06193902,0.83943
498.156,158.653,-2.04152,0.06277762,0.83898
498.856,158.886,-2.04281,0.06098105,0.83853
499.556,159.1188,-2.04279,0.06260143,0.83808
500.256,159.351,-2.04279,0.06549544,0.83762
500.956,159.584,-2.04246,0.06401752,0.83717
501.656,159.816,-2.04378,0.06452636,0.83672
502.356,160.047,-2.04313,0.06327756,0.83626
503.056,160.28,-2.04442,0.06363218,0.83581
503.756,160.513,-2.04543,0.06340566,0.83535
504.456,160.747,-2.04543,0.06142285,0.8349
505.156,160.9822,-2.04543,0.06249399,0.83444
505.856,161.217,-2.04806,0.06050153,0.83398
506.556,161.4524,-2.0462,0.06278508,0.83352
507.256,161.687,-2.04805,0.06358192,0.83306
507.956,161.919,-2.04806,0.06295807,0.8326
508.656,162.152,-2.04815,0.06383345,0.83214
509.356,162.383,-2.04938,0.06403191,0.83168
510.056,162.615,-2.04938,0.06517119,0.83122
510.756,162.849,-2.04939,0.06536367,0.83076
511.456,163.082,-2.0497,0.06180232,0.8303
512.156,163.315,-2.04971,0.06555275,0.82983
512.856,163.548,-2.05069,0.06619959,0.82937
513.556,163.782,-2.05233,0.06656247,0.8289
514.256,164.016,-2.05365,0.0644396,0.82844
514.956,164.249,-2.05233,0.06327494,0.82797
515.656,164.482,-2.05365,0.06530549,0.82751
516.356,164.715,-2.05365,0.06545701,0.82704
517.056,164.948,-2.05499,0.06347183,0.82657
517.756,165.182,-2.05497,0.0653575,0.8261
518.456,165.415,-2.05595,0.0635379,0.82563
519.156,165.649,-2.05595,0.06200809,0.82516
519.856,165.882,-2.05595,0.06134149,0.82469
520.556,166.116,-2.05591,0.06124872,0.82422
521.256,166.351,-2.05628,0.06253264,0.82375
521.956,166.5854,-2.05528,0.06136291,0.82328
522.656,166.819,-2.05629,0.06122372,0.8228
523.356,167.052,-2.05795,0.0662257,0.82233
524.056,167.286,-2.05695,0.06403484,0.82185
524.756,167.52,-2.05794,0.06735917,0.82138
525.456,167.752,-2.05826,0.06856129,0.8209
526.156,167.983,-2.05826,0.06653698,0.82043
526.856,168.216,-2.05825,0.06291427,0.81995
527.556,168.451,-2.06056,0.0651335,0.81947
528.256,168.686,-2.05921,0.06507782,0.81899
528.956,168.921,-2.06093,0.06308918,0.81851
529.656,169.157,-2.05943,0.06058162,0.81803
530.356,169.392,-2.06221,0.06344171,0.81755
531.056,169.626,-2.06293,0.06393481,0.81707
531.756,169.859,-2.06258,0.06534683,0.81659
532.456,170.091,-2.06277,0.0680023,0.81611
533.156,170.3233,-2.06352,0.06472496,0.81562
533.856,170.556,-2.06489,0.06847507,0.81514
534.556,170.79,-2.06485,0.06468419,0.81466
535.256,171.0251,-2.06596,0.06686558,0.81417
535.956,171.26,-2.06616,0.0646982,0.81369
536.656,171.495,-2.06616,0.06767912,0.8132
537.356,171.73,-2.06616,0.06818942,0.81271
538.056,171.964,-2.06708,0.06631199,0.81222
538.756,172.199,-2.06748,0.06643287,0.81174
539.456,172.433,-2.06747,0.06512631,0.81125
540.156,172.668,-2.06879,0.06751298,0.81076
540.856,172.901,-2.07011,0.06815298,0.81027
541.556,173.136,-2.06879,0.0659727,0.80977
542.256,173.3699,-2.07118,0.06674107,0.80928
542.956,173.604,-2.07044,0.06778496,0.80879
543.656,173.839,-2.07175,0.06549702,0.8083
544.356,174.0733,-2.07077,0.06650252,0.8078
545.056,174.307,-2.07213,0.06345085,0.80731
545.756,174.54,-2.0739,0.06433463,0.80681
546.456,174.7727,-2.07471,0.06851809,0.80632
547.156,175.006,-2.07503,0.06947954,0.80582
547.856,175.24,-2.07602,0.06700466,0.80533
548.556,175.474,-2.07505,0.07033808,0.80483
549.256,175.708,-2.07636,0.07153265,0.80433
549.956,175.942,-2.07768,0.07026662,0.80383
550.656,176.176,-2.07768,0.07175354,0.80333
551.356,176.41,-2.07899,0.07123566,0.80283
552.056,176.644,-2.07801,0.07220559,0.80233
552.756,176.877,-2.07899,0.07387217,0.80183
553.456,177.1115,-2.07991,0.07260049,0.80132
554.156,177.345,-2.07932,0.07422729,0.80082
554.856,177.579,-2.08018,0.07470257,0.80032
555.556,177.813,-2.0803,0.07724432,0.79981
556.256,178.047,-2.08167,0.07762623,0.79931
556.956,178.28,-2.08294,0.07609695,0.7988
557.656,178.514,-2.08326,0.07778858,0.7983
558.356,178.748,-2.0836,0.07765902,0.79779
559.056,178.984,-2.08491,0.07801684,0.79728
559.756,179.2196,-2.08491,0.07778417,0.79677
560.456,179.456,-2.08535,0.07797728,0.79626
561.156,179.692,-2.08689,0.08064557,0.79575
561.856,179.927,-2.08686,0.0805513,0.79524
562.556,180.162,-2.08853,0.07703902,0.79473
563.256,180.397,-2.08985,0.08096825,0.79422
563.956,180.633,-2.09117,0.07618656,0.79371
564.656,180.868,-2.09117,0.08114848,0.7932
565.356,181.101,-2.09384,0.08043294,0.79268
566.056,181.334,-2.09248,0.08078224,0.79217
566.756,181.566,-2.09281,0.08280012,0.79165
567.456,181.8,-2.09314,0.08138789,0.79114
568.156,182.032,-2.0951,0.08348114,0.79062
568.856,182.265,-2.09511,0.08510899,0.7901
569.556,182.499,-2.0961,0.08251907,0.78959
570.256,182.734,-2.0961,0.09044661,0.78907
570.956,182.967,-2.09774,0.08645619,0.78855
571.656,183.201,-2.09751,0.08920045,0.78803
572.356,183.434,-2.09841,0.09131252,0.78751
573.056,183.6678,-2.09973,0.08965012,0.78699
573.756,183.9012,-2.10104,0.09285912,0.78647
574.456,184.135,-2.10234,0.09270227,0.78594
575.156,184.369,-2.10341,0.09415131,0.78542
575.856,184.603,-2.10399,0.09616343,0.7849
576.556,184.836,-2.10466,0.09845293,0.78437
577.256,185.069,-2.10616,0.09814103,0.78385
577.956,185.304,-2.10674,0.10313,0.78332
578.656,185.54,-2.10725,0.10517,0.7828
579.356,185.7761,-2.10861,0.10559,0.78227
580.056,186.013,-2.11019,0.11011,0.78174
580.756,186.25,-2.11256,0.11568,0.78121
581.456,186.486,-2.11354,0.11508,0.78069
582.156,186.722,-2.11473,0.11977,0.78016
582.856,186.958,-2.1173,0.12279,0.77963
583.556,187.193,-2.11717,0.12358,0.7791
584.256,187.427,-2.1183,0.12833,0.77856
584.956,187.6607,-2.11977,0.13144,0.77803
585.656,187.893,-2.12077,0.1338,0.7775
586.356,188.1258,-2.12299,0.13524,0.77697
587.056,188.358,-2.12469,0.13867,0.77643
587.756,188.592,-2.12577,0.14153,0.7759
588.456,188.827,-2.12682,0.14407,0.77536
589.156,189.063,-2.12801,0.14648,0.77483
589.856,189.3,-2.13142,0.14909,0.77429
590.556,189.536,-2.13338,0.15555,0.77375
591.256,189.7712,-2.13401,0.15983,0.77321
591.956,190.006,-2.13633,0.16267,0.77267
592.656,190.2423,-2.13799,0.16856,0.77214
593.356,190.479,-2.14064,0.16712,0.7716
594.056,190.7142,-2.14259,0.17093,0.77105
594.756,190.949,-2.14646,0.17252,0.77051
595.456,191.184,-2.14777,0.17186,0.76997
596.156,191.419,-2.15083,0.18136,0.76943
596.856,191.653,-2.15271,0.17727,0.76889
597.556,191.887,-2.15526,0.18045,0.76834
598.256,192.121,-2.15904,0.18442,0.7678
598.956,192.356,-2.16067,0.18655,0.76725
599.656,192.59,-2.16308,0.18839,0.76671
600.356,192.824,-2.16552,0.19241,0.76616
601.056,193.058,-2.16859,0.19697,0.76561
601.756,193.292,-2.17076,0.19869,0.76506
602.456,193.528,-2.17494,0.20052,0.76452
603.156,193.764,-2.17814,0.20307,0.76397
603.856,193.999,-2.18041,0.20372,0.76342
604.556,194.2337,-2.18407,0.20568,0.76287
605.256,194.468,-2.18671,0.20722,0.76232
605.956,194.7029,-2.18999,0.21036,0.76176
606.656,194.938,-2.1933,0.21508,0.76121
607.356,195.172,-2.19559,0.21545,0.76066
608.056,195.407,-2.19957,0.22162,0.76011
608.756,195.642,-2.20361,0.22311,0.75955
609.456,195.878,-2.20623,0.22184,0.759
610.156,196.1135,-2.21004,0.22684,0.75844
610.856,196.348,-2.21205,0.22979,0.75789
611.556,196.583,-2.21599,0.23194,0.75733
612.256,196.818,-2.21863,0.23454,0.75677
612.956,197.053,-2.22125,0.23781,0.75621
613.656,197.289,-2.22446,0.24641,0.75565
614.356,197.525,-2.2284,0.24729,0.7551
615.056,197.761,-2.23347,0.24968,0.75454
615.756,197.9965,-2.23627,0.25853,0.75397
616.456,198.232,-2.24016,0.26452,0.75341
617.156,198.468,-2.24594,0.26422,0.75285
617.856,198.703,-2.24715,0.27089,0.75229
618.556,198.938,-2.25181,0.27589,0.75173
619.256,199.173,-2.25607,0.28398,0.75116
619.956,199.41,-2.26077,0.28561,0.7506
620.656,199.646,-2.26515,0.29205,0.75003
621.356,199.88,-2.27054,0.29703,0.74947
622.056,200.116,-2.27445,0.30565,0.7489
622.756,200.353,-2.2789,0.31023,0.74833
623.456,200.59,-2.28194,0.31618,0.74777
624.156,200.826,-2.28853,0.31902,0.7472
624.856,201.061,-2.29125,0.32945,0.74663
625.556,201.294,-2.29692,0.33358,0.74606
626.256,201.528,-2.30216,0.34241,0.74549
626.956,201.76,-2.30698,0.35012,0.74492
627.656,201.993,-2.31016,0.35692,0.74435
628.356,202.227,-2.31534,0.36275,0.74378
629.056,202.461,-2.32267,0.36848,0.7432
629.756,202.698,-2.32799,0.37795,0.74263
630.456,202.936,-2.3325,0.37784,0.74206
631.156,203.175,-2.33956,0.38644,0.74148
631.856,203.4133,-2.34454,0.39526,0.74091
632.556,203.65,-2.35068,0.40033,0.74033
633.256,203.8856,-2.35504,0.40179,0.73975
633.956,204.119,-2.36193,0.40794,0.73918
634.656,204.352,-2.36865,0.41108,0.7386
635.356,204.585,-2.3738,0.41826,0.73802
636.056,204.8189,-2.37934,0.41714,0.73744
636.756,205.053,-2.38593,0.41877,0.73686
637.456,205.287,-2.39225,0.41674,0.73628
638.156,205.522,-2.39927,0.4185,0.7357
638.856,205.759,-2.40545,0.41633,0.73512
639.556,205.996,-2.41071,0.41056,0.73454
640.256,206.233,-2.41618,0.40739,0.73396
640.956,206.469,-2.42279,0.40351,0.73337
641.656,206.705,-2.42869,0.40044,0.73279
642.356,206.942,-2.43467,0.39115,0.73221
643.056,207.179,-2.44045,0.39421,0.73162
643.756,207.416,-2.44675,0.39417,0.73104
644.456,207.652,-2.45333,0.40089,0.73045
645.156,207.886,-2.45927,0.41109,0.72986
645.856,208.122,-2.46656,0.4215,0.72928
646.556,208.358,-2.47063,0.42962,0.72869
647.256,208.5943,-2.47822,0.43855,0.7281
647.956,208.83,-2.48472,0.44698,0.72751
648.656,209.067,-2.49185,0.45804,0.72692
649.356,209.302,-2.49982,0.46308,0.72633
650.056,209.537,-2.5062,0.47926,0.72574
650.756,209.771,-2.51385,0.48327,0.72515
651.456,210.004,-2.52037,0.48962,0.72455
652.156,210.238,-2.52612,0.49716,0.72396
652.856,210.472,-2.53351,0.50643,0.72337
653.556,210.707,-2.54166,0.51418,0.72277
654.256,210.9427,-2.54911,0.52448,0.72218
654.956,211.18,-2.55796,0.52895,0.72158
655.656,211.417,-2.56385,0.54153,0.72099
656.356,211.654,-2.5722,0.54884,0.72039
657.056,211.89,-2.58173,0.5584,0.7198
657.756,212.126,-2.58889,0.56635,0.7192
658.456,212.364,-2.59599,0.57402,0.7186
659.156,212.6011,-2.60443,0.58298,0.718
659.856,212.838,-2.61498,0.5938,0.7174
660.556,213.073,-2.62363,0.6022,0.7168
661.256,213.309,-2.63133,0.60731,0.7162
661.956,213.543,-2.63893,0.61585,0.7156
662.656,213.777,-2.64876,0.62521,0.715
663.356,214.01,-2.65851,0.63523,0.7144
664.056,214.244,-2.66858,0.63952,0.71379
664.756,214.48,-2.67561,0.64716,0.71319
665.456,214.717,-2.68566,0.65198,0.71259
666.156,214.955,-2.69603,0.66251,0.71198
666.856,215.19,-2.70607,0.66525,0.71138
667.556,215.426,-2.71448,0.67116,0.71077
668.256,215.662,-2.72227,0.67387,0.71016
668.956,215.899,-2.73262,0.67694,0.70956
669.656,216.136,-2.74303,0.68052,0.70895
670.356,216.374,-2.75278,0.68061,0.70834
671.056,216.61,-2.76446,0.68056,0.70773
671.756,216.846,-2.77236,0.68239,0.70712
672.456,217.083,-2.78206,0.68139,0.70651
673.156,217.319,-2.79345,0.68304,0.7059
673.856,217.555,-2.8022,0.68081,0.70529
674.556,217.79,-2.81165,0.67507,0.70468
675.256,218.026,-2.82265,0.66759,0.70407
675.956,218.261,-2.83302,0.65897,0.70346
676.656,218.4959,-2.84171,0.64516,0.70284
677.356,218.729,-2.85124,0.62489,0.70223
678.056,218.964,-2.85995,0.59719,0.70162
678.756,219.199,-2.86748,0.56281,0.701
679.456,219.436,-2.87436,0.51251,0.70039
680.156,219.673,-2.88215,0.44739,0.69977
680.856,219.909,-2.88862,0.32298,0.69915
681.556,220.147,-2.89296,0.14596,0.69854
682.256,220.385,-2.89431,0.06541445,0.69792
682.956,220.622,-2.89291,0.04298466,0.6973
683.656,220.8589,-2.89429,0.03745755,0.69668
684.356,221.095,-2.89363,0.03462261,0.69606
685.056,221.332,-2.89494,0.02700925,0.69544
685.756,221.568,-2.89494,0.02844674,0.69482
686.456,221.804,-2.89593,0.02762802,0.6942
687.156,222.041,-2.89517,0.03176166,0.69358
687.856,222.277,-2.89485,0.02857281,0.69296
688.556,222.514,-2.89758,0.02537524,0.69233
689.256,222.751,-2.89559,0.02372907,0.69171
689.956,222.988,-2.89561,0.02645344,0.69109
690.656,223.224,-2.89659,0.02490251,0.69046
691.356,223.46,-2.89659,0.02639738,0.68984
692.056,223.697,-2.89659,0.02405864,0.68921
692.756,223.933,-2.89561,0.01964128,0.68859
693.456,224.169,-2.89626,0.01967454,0.68796
694.156,224.404,-2.89626,0.02084435,0.68733
694.856,224.64,-2.89824,0.02619653,0.68671
695.556,224.878,-2.89723,0.02205816,0.68608
696.256,225.116,-2.89692,0.01798715,0.68545
696.956,225.355,-2.89674,0.02056078,0.68482
697.656,225.593,-2.89626,0.01675634,0.68419
698.356,225.8305,-2.89618,0.01386847,0.68356
699.056,226.068,-2.89857,0.01503426,0.68293
699.756,226.304,-2.89591,0.01521995,0.6823
700.456,226.5397,-2.89562,0.01084606,0.68167
701.156,226.775,-2.89612,0.01346023,0.68103
701.856,227.011,-2.89691,0.01260008,0.6804
702.556,227.247,-2.89692,0.01170252,0.67977
703.256,227.484,-2.89692,0.008684079,0.67913
703.956,227.72,-2.89703,0.01118354,0.6785
704.656,227.958,-2.89828,0.01159765,0.67787
705.356,228.196,-2.89692,0.009678101,0.67723
706.056,228.434,-2.89758,0.0145069,0.67659
706.756,228.671,-2.89791,0.01562067,0.67596
707.456,228.9065,-2.89791,0.01589117,0.67532
708.156,229.142,-2.89987,0.01832948,0.67468
708.856,229.378,-2.89779,0.02043618,0.67405
709.556,229.615,-2.89964,0.02277488,0.67341
710.256,229.852,-2.89956,0.0251481,0.67277
710.956,230.0887,-2.89956,0.0281875,0.67213
711.656,230.326,-2.8989,0.02310909,0.67149
712.356,230.562,-2.89856,0.02291655,0.67085
713.056,230.799,-2.8979,0.02465256,0.67021
713.756,231.036,-2.89856,0.0262517,0.66957
714.456,231.273,-2.89856,0.02359932,0.66892
715.156,231.51,-2.89889,0.02390515,0.66828
715.856,231.746,-2.89757,0.02579581,0.66764
716.556,231.98,-2.89822,0.02965081,0.66699
717.256,232.214,-2.89951,0.02838141,0.66635
717.956,232.4495,-2.89955,0.02853318,0.66571
718.656,232.686,-2.89833,0.02831344,0.66506
719.356,232.925,-2.89955,0.03047162,0.66442
720.056,233.163,-2.89988,0.0280823,0.66377
720.756,233.401,-2.90021,0.03194361,0.66312
721.456,233.639,-2.89923,0.03146992,0.66248
722.156,233.875,-2.90048,0.02949227,0.66183
722.856,234.111,-2.89912,0.0307508,0.66118
723.556,234.346,-2.90129,0.03443447,0.66053
724.256,234.582,-2.89989,0.03238774,0.65988
724.956,234.817,-2.9012,0.03593263,0.65923
725.656,235.055,-2.89857,0.03520418,0.65859
726.356,235.292,-2.89989,0.03807504,0.65793
727.056,235.53,-2.90022,0.03777962,0.65728
727.756,235.767,-2.90021,0.03549935,0.65663
728.456,236.004,-2.90086,0.03736383,0.65598
729.156,236.2401,-2.90054,0.03574856,0.65533
729.856,236.477,-2.90153,0.03857755,0.65468
730.556,236.715,-2.90153,0.03739023,0.65402
731.256,236.953,-2.89955,0.04229155,0.65337
731.956,237.189,-2.90053,0.04408623,0.65272
732.656,237.4264,-2.89988,0.04536136,0.65206
733.356,237.664,-2.90125,0.04299227,0.65141
734.056,237.901,-2.90054,0.04409645,0.65075
734.756,238.138,-2.89942,0.04376526,0.65009
735.456,238.374,-2.90101,0.04656982,0.64944
736.156,238.61,-2.90087,0.0460935,0.64878
736.856,238.847,-2.90087,0.04585544,0.64812
737.556,239.084,-2.90087,0.04170305,0.64747
738.256,239.322,-2.89987,0.04472858,0.64681
738.956,239.559,-2.9012,0.04266835,0.64615
739.656,239.796,-2.8999,0.04862775,0.64549
740.356,240.033,-2.89989,0.04732054,0.64483
741.056,240.27,-2.90053,0.05040303,0.64417
741.756,240.505,-2.89893,0.04649943,0.64351
742.456,240.74,-2.90075,0.05099015,0.64285
743.156,240.977,-2.89923,0.05358141,0.64219
743.856,241.214,-2.89923,0.05062003,0.64153
744.556,241.452,-2.90052,0.05295465,0.64086
745.256,241.689,-2.89956,0.04834564,0.6402
745.956,241.9267,-2.89955,0.0525985,0.63954
746.656,242.164,-2.90085,0.0490044,0.63888
747.356,242.401,-2.89955,0.04843323,0.63821
748.056,242.636,-2.90021,0.04838475,0.63755
748.756,242.872,-2.90126,0.05186137,0.63688
749.456,243.108,-2.89981,0.0493189,0.63622
750.156,243.346,-2.89922,0.04945263,0.63555
750.856,243.584,-2.89923,0.0477706,0.63489
751.556,243.823,-2.90054,0.04942217,0.63422
752.256,244.0597,-2.90193,0.04665636,0.63355
752.956,244.297,-2.89955,0.04713419,0.63288
753.656,244.533,-2.90022,0.04851652,0.63222
754.356,244.768,-2.89922,0.04908615,0.63155
755.056,245.003,-2.9012,0.04816991,0.63088
755.756,245.2383,-2.89875,0.04817922,0.63021
756.456,245.474,-2.90018,0.04729585,0.62954
757.156,245.71,-2.9002,0.04313047,0.62887
757.856,245.946,-2.8989,0.04880365,0.6282
758.556,246.183,-2.89822,0.04473974,0.62753
759.256,246.421,-2.89826,0.04744888,0.62686
759.956,246.6584,-2.89956,0.04427002,0.62619
760.656,246.896,-2.89957,0.04633507,0.62552
761.356,247.135,-2.90053,0.04690038,0.62484
762.056,247.374,-2.89791,0.04622682,0.62417
762.756,247.613,-2.89785,0.04939505,0.6235
763.456,247.851,-2.89889,0.04856092,0.62283
764.156,248.089,-2.89955,0.05187761,0.62215
764.856,248.328,-2.89856,0.04886349,0.62148
765.556,248.566,-2.89792,0.04661033,0.6208
766.256,248.803,-2.89803,0.04555549,0.62013
766.956,249.038,-2.89856,0.05285619,0.61945
767.656,249.273,-2.89855,0.05098865,0.61878
768.356,249.5079,-2.89692,0.05437204,0.6181
769.056,249.744,-2.89825,0.05215526,0.61742
769.756,249.981,-2.89955,0.05285208,0.61675
770.456,250.219,-2.89825,0.05133465,0.61607
771.156,250.458,-2.89758,0.04977689,0.61539
771.856,250.697,-2.89858,0.0487431,0.61471
772.556,250.935,-2.89756,0.0544747,0.61404
773.256,251.173,-2.89824,0.05290799,0.61336
773.956,251.41,-2.89731,0.04804397,0.61268
774.656,251.647,-2.89725,0.0491717,0.612
775.356,251.884,-2.89857,0.04273704,0.61132
776.056,252.123,-2.89857,0.04627491,0.61064
776.756,252.362,-2.89857,0.04971824,0.60996
777.456,252.601,-2.89758,0.04593479,0.60928
778.156,252.8383,-2.89824,0.04636839,0.60859
778.856,253.0749,-2.89774,0.04766973,0.60791
779.556,253.3114,-2.89692,0.0512589,0.60723
780.256,253.547,-2.89716,0.05101004,0.60655
780.956,253.783,-2.8979,0.05260912,0.60586
781.656,254.0175,-2.8979,0.04731618,0.60518
782.356,254.252,-2.89593,0.04390258,0.6045
783.056,254.487,-2.89594,0.04478185,0.60381
783.756,254.724,-2.8953,0.04764033,0.60313
784.456,254.961,-2.89659,0.04594914,0.60245
785.156,255.199,-2.89497,0.04678487,0.60176
785.856,255.438,-2.89526,0.04613645,0.60108
786.556,255.678,-2.89527,0.04532247,0.60039
787.256,255.917,-2.89527,0.05059877,0.5997
787.956,256.155,-2.89527,0.04837839,0.59902
788.656,256.391,-2.89521,0.04856619,0.59833
789.356,256.628,-2.89692,0.05254736,0.59764
790.056,256.864,-2.89561,0.05363955,0.59696
790.756,257.099,-2.89689,0.05421233,0.59627
791.456,257.335,-2.89593,0.05341662,0.59558
792.156,257.571,-2.89725,0.05548918,0.59489
792.856,257.809,-2.89561,0.05340684,0.5942
793.556,258.046,-2.89692,0.05356841,0.59352
794.256,258.283,-2.89693,0.05876955,0.59283
794.956,258.521,-2.89692,0.05760842,0.59214
795.656,258.759,-2.89692,0.05579734,0.59145
796.356,258.997,-2.89626,0.05733162,0.59076
797.056,259.236,-2.89627,0.05628409,0.59007
797.756,259.475,-2.89755,0.05523465,0.58937
798.456,259.715,-2.89529,0.05159689,0.58868
799.156,259.955,-2.89725,0.05264574,0.58799
799.256,259.989,-2.89725,0.05273347,0.58789