File: 01_Data/Feather_Pillow_Cover/MCC/Feather_Pillow_Cover_MCC_30K_min_220106_R3.txt
Sample ID:	C:\MCC\MCC Cal\Test\Feather_PillowA_Cover_MCC_30K_min_220106_R3.txt
Sample Weight (mg):	4.55
Heating Rate (C/s):	0.5
Combustor Temp (C):	900
N2 Flow Rate (cc/min):	80
O2 Flow Rate (cc/min):	20
Calibration File:	C:\MCC\MCC Cal\Coeff1 JN10440_30_210304.txt.txt
T Correction Coefficients:	0	1.024463	0
Time Shift (s):	14
*
Time (s)	Temperature (C)	N2 flow rate (cc/min)	O2 flow rate (cc/min)	Flow Rate (cc/min)	Oxygen (%)	HRR (W/g)	Heating rate (C/s)
0.001	113.035	80.012	19.993	104.215	20.073	0.343	-0.020
2.000	113.053	80.013	19.995	104.219	20.077	0.102	0.000
4.000	113.014	80.011	19.993	104.222	20.074	0.306	-0.021
6.000	113.025	80.011	19.993	104.216	20.074	0.284	-0.006
8.000	112.974	80.010	19.994	104.221	20.081	-0.196	-0.020
10.000	113.004	80.011	19.994	104.228	20.076	0.120	0.018
12.000	112.969	80.011	19.994	104.239	20.076	0.151	-0.004
14.000	112.971	80.009	19.993	104.252	20.077	0.061	0.035
16.000	113.043	80.011	19.992	104.280	20.067	0.810	0.029
18.000	113.053	80.010	19.993	104.297	20.064	0.990	0.019
20.001	113.132	80.011	19.993	104.308	20.065	0.945	0.059
22.000	113.236	80.010	19.994	104.344	20.061	1.200	0.074
24.000	113.313	80.010	19.994	104.352	20.062	1.148	0.048
26.000	113.511	80.008	19.992	104.369	20.059	1.399	0.087
28.000	113.638	80.010	19.994	104.369	20.057	1.533	0.114
30.000	113.832	80.009	19.993	104.363	20.051	1.967	0.093
32.001	114.056	80.010	19.993	104.374	20.052	1.892	0.125
34.000	114.288	80.008	19.994	104.383	20.053	1.824	0.128
36.000	114.527	80.010	19.994	104.383	20.051	1.941	0.149
38.000	114.795	80.008	19.994	104.409	20.045	2.403	0.137
40.000	115.070	80.007	19.995	104.423	20.042	2.571	0.152
42.000	115.395	80.011	19.993	104.444	20.038	2.895	0.172
44.000	115.742	80.009	19.994	104.447	20.036	3.011	0.172
46.000	116.128	80.010	19.994	104.446	20.040	2.711	0.196
48.001	116.540	80.011	19.995	104.448	20.041	2.682	0.228
50.001	116.936	80.010	19.994	104.438	20.041	2.632	0.189
52.000	117.395	80.008	19.994	104.445	20.038	2.874	0.235
54.001	117.853	80.011	19.994	104.454	20.038	2.886	0.228
56.000	118.347	80.010	19.993	104.456	20.041	2.643	0.235
58.000	118.799	80.011	19.993	104.458	20.041	2.643	0.219
60.000	119.386	80.011	19.995	104.459	20.036	3.024	0.268
62.001	119.924	80.010	19.994	104.457	20.034	3.156	0.252
64.001	120.539	80.010	19.994	104.460	20.036	3.054	0.279
66.001	121.118	80.011	19.994	104.474	20.036	3.040	0.287
68.001	121.742	80.011	19.994	104.464	20.032	3.332	0.307
70.000	122.354	80.011	19.995	104.483	20.028	3.558	0.312
72.001	123.053	80.014	19.994	104.481	20.030	3.427	0.316
74.000	123.706	80.010	19.994	104.489	20.029	3.517	0.332
76.000	124.457	80.008	19.993	104.491	20.028	3.619	0.374
78.000	125.102	80.014	19.994	104.492	20.030	3.454	0.338
80.000	125.841	80.011	19.994	104.492	20.030	3.431	0.364
82.001	126.576	80.013	19.992	104.494	20.030	3.470	0.331
84.000	127.341	80.012	19.992	104.493	20.025	3.837	0.374
86.001	128.137	80.013	19.992	104.493	20.025	3.792	0.398
88.001	128.902	80.013	19.993	104.494	20.026	3.712	0.392
90.001	129.701	80.010	19.992	104.493	20.021	4.093	0.408
92.000	130.517	80.011	19.994	104.493	20.026	3.749	0.418
94.000	131.348	80.010	19.994	104.493	20.026	3.729	0.433
96.000	132.161	80.011	19.994	104.494	20.028	3.568	0.415
98.000	133.031	80.010	19.995	104.496	20.026	3.733	0.401
100.000	133.911	80.008	19.994	104.504	20.027	3.684	0.435
102.000	134.791	80.010	19.993	104.506	20.023	3.959	0.420
104.000	135.689	80.010	19.993	104.495	20.024	3.849	0.451
106.001	136.601	80.007	19.994	104.497	20.025	3.827	0.430
108.000	137.591	80.011	19.994	104.498	20.027	3.633	0.518
110.000	138.502	80.011	19.993	104.502	20.029	3.557	0.460
112.000	139.425	80.009	19.993	104.496	20.032	3.276	0.470
114.001	140.373	80.009	19.993	104.499	20.027	3.663	0.472
116.001	141.325	80.010	19.993	104.495	20.025	3.818	0.481
118.001	142.291	80.009	19.991	104.497	20.030	3.415	0.480
120.000	143.305	80.009	19.993	104.497	20.028	3.629	0.496
122.001	144.264	80.009	19.994	104.497	20.029	3.499	0.496
124.000	145.241	80.009	19.995	104.497	20.028	3.611	0.509
126.000	146.271	80.007	19.995	104.495	20.031	3.405	0.504
128.000	147.239	80.008	19.994	104.496	20.032	3.277	0.458
130.000	148.209	80.007	19.994	104.496	20.030	3.444	0.498
132.000	149.224	80.009	19.994	104.494	20.028	3.564	0.497
134.000	150.242	80.010	19.995	104.494	20.030	3.430	0.502
136.000	151.220	80.009	19.994	104.489	20.027	3.662	0.480
138.000	152.255	80.011	19.995	104.486	20.026	3.715	0.506
140.000	153.240	80.011	19.995	104.487	20.028	3.587	0.502
142.000	154.291	80.010	19.995	104.489	20.028	3.561	0.533
144.000	155.274	80.012	19.995	104.469	20.031	3.390	0.499
146.000	156.306	80.010	19.994	104.478	20.030	3.428	0.515
148.000	157.325	80.008	19.995	104.489	20.037	2.968	0.541
150.000	158.346	80.010	19.995	104.486	20.037	2.925	0.487
152.000	159.339	80.009	19.995	104.479	20.036	3.025	0.527
154.001	160.314	80.009	19.995	104.463	20.034	3.164	0.460
156.000	161.386	80.009	19.994	104.462	20.032	3.288	0.563
158.000	162.403	80.008	19.996	104.461	20.029	3.530	0.515
160.000	163.395	80.011	19.996	104.456	20.030	3.414	0.507
162.000	164.445	80.012	19.996	104.456	20.034	3.153	0.477
164.000	165.505	80.011	19.995	104.453	20.032	3.270	0.511
166.000	166.495	80.012	19.995	104.454	20.035	3.074	0.492
168.000	167.506	80.010	19.994	104.455	20.034	3.170	0.497
170.000	168.559	80.010	19.993	104.457	20.039	2.807	0.522
172.000	169.539	80.009	19.994	104.455	20.038	2.866	0.494
174.000	170.583	80.010	19.994	104.454	20.037	2.945	0.520
176.000	171.591	80.009	19.993	104.456	20.038	2.858	0.516
178.000	172.592	80.009	19.994	104.457	20.035	3.066	0.536
180.000	173.602	80.009	19.994	104.456	20.037	2.952	0.525
182.000	174.607	80.009	19.993	104.454	20.033	3.221	0.506
184.000	175.602	80.008	19.994	104.457	20.043	2.505	0.495
186.000	176.637	80.010	19.994	104.452	20.034	3.141	0.511
188.000	177.566	80.009	19.993	104.449	20.037	2.978	0.455
190.000	178.569	80.010	19.994	104.453	20.038	2.864	0.489
192.000	179.603	80.009	19.993	104.442	20.040	2.762	0.494
194.000	180.584	80.009	19.993	104.449	20.038	2.897	0.509
196.000	181.549	80.009	19.993	104.447	20.037	2.950	0.479
198.000	182.543	80.009	19.994	104.450	20.036	3.046	0.496
200.000	183.556	80.006	19.994	104.446	20.041	2.661	0.482
202.000	184.550	80.009	19.994	104.452	20.033	3.205	0.499
204.000	185.511	80.007	19.993	104.444	20.040	2.718	0.521
206.000	186.525	80.009	19.995	104.447	20.039	2.818	0.507
208.000	187.516	80.009	19.993	104.451	20.040	2.728	0.471
210.000	188.501	80.006	19.993	104.433	20.040	2.716	0.482
212.000	189.489	80.010	19.993	104.439	20.038	2.883	0.498
214.000	190.489	80.009	19.993	104.434	20.041	2.686	0.513
216.001	191.427	80.008	19.994	104.422	20.039	2.792	0.469
218.000	192.409	80.010	19.993	104.428	20.040	2.696	0.477
220.000	193.407	80.011	19.994	104.430	20.033	3.205	0.511
222.000	194.414	80.010	19.994	104.431	20.041	2.630	0.485
224.000	195.367	80.012	19.994	104.418	20.038	2.910	0.476
226.001	196.282	80.011	19.993	104.419	20.036	3.009	0.465
228.000	197.297	80.010	19.994	104.418	20.036	3.051	0.485
230.000	198.272	80.009	19.994	104.416	20.038	2.902	0.463
232.000	199.249	80.010	19.994	104.419	20.037	2.916	0.481
234.000	200.237	80.009	19.993	104.416	20.040	2.749	0.482
236.000	201.198	80.010	19.994	104.424	20.037	2.926	0.486
238.000	202.211	80.011	19.993	104.425	20.036	3.002	0.495
240.000	203.174	80.011	19.993	104.418	20.035	3.122	0.485
242.000	204.137	80.010	19.993	104.419	20.039	2.779	0.497
244.000	205.115	80.013	19.994	104.419	20.038	2.910	0.490
246.000	206.129	80.011	19.994	104.415	20.038	2.857	0.515
248.001	207.115	80.011	19.993	104.420	20.036	2.983	0.498
250.000	208.047	80.011	19.994	104.416	20.039	2.792	0.463
252.000	209.089	80.009	19.995	104.415	20.038	2.873	0.502
254.000	210.057	80.008	19.994	104.416	20.034	3.181	0.494
256.000	211.015	80.009	19.994	104.418	20.037	2.926	0.483
258.000	212.039	80.009	19.993	104.417	20.036	2.997	0.522
260.000	213.042	80.008	19.995	104.417	20.035	3.098	0.501
262.000	213.968	80.009	19.994	104.419	20.035	3.065	0.502
264.000	214.985	80.009	19.994	104.416	20.034	3.177	0.503
266.000	215.939	80.010	19.994	104.418	20.038	2.853	0.486
268.000	216.920	80.008	19.993	104.419	20.036	3.049	0.493
270.000	217.904	80.009	19.994	104.418	20.036	2.991	0.478
272.000	218.961	80.010	19.994	104.415	20.034	3.173	0.523
274.000	219.878	80.010	19.994	104.413	20.039	2.820	0.500
276.000	220.875	80.010	19.994	104.414	20.040	2.765	0.519
278.000	221.860	80.009	19.994	104.414	20.032	3.271	0.516
280.000	222.820	80.010	19.995	104.415	20.031	3.361	0.483
282.000	223.856	80.008	19.995	104.414	20.033	3.255	0.499
284.000	224.834	80.009	19.994	104.407	20.034	3.189	0.525
286.000	225.805	80.009	19.994	104.414	20.033	3.248	0.485
288.000	226.782	80.009	19.995	104.413	20.032	3.281	0.468
290.000	227.827	80.007	19.994	104.412	20.033	3.222	0.499
292.000	228.810	80.009	19.994	104.415	20.034	3.157	0.468
294.000	229.800	80.009	19.994	104.413	20.030	3.418	0.488
296.000	230.778	80.010	19.994	104.415	20.029	3.487	0.506
298.000	231.786	80.011	19.993	104.414	20.024	3.903	0.498
300.000	232.743	80.013	19.993	104.412	20.031	3.405	0.487
302.000	233.794	80.010	19.994	104.416	20.030	3.446	0.522
304.000	234.754	80.011	19.994	104.418	20.030	3.414	0.514
306.000	235.725	80.011	19.993	104.416	20.027	3.630	0.467
308.000	236.697	80.009	19.994	104.417	20.027	3.636	0.495
310.000	237.722	80.011	19.993	104.415	20.030	3.454	0.472
312.000	238.715	80.010	19.992	104.416	20.028	3.618	0.460
314.000	239.716	80.012	19.993	104.414	20.026	3.752	0.505
316.000	240.670	80.011	19.994	104.415	20.030	3.448	0.485
318.000	241.691	80.010	19.994	104.409	20.031	3.379	0.517
320.000	242.711	80.012	19.993	104.404	20.028	3.618	0.494
322.000	243.701	80.010	19.994	104.414	20.026	3.703	0.489
324.000	244.702	80.012	19.994	104.415	20.024	3.905	0.504
326.000	245.705	80.012	19.994	104.413	20.027	3.638	0.514
328.001	246.715	80.012	19.993	104.410	20.029	3.542	0.497
330.000	247.679	80.013	19.993	104.410	20.026	3.752	0.475
332.000	248.656	80.012	19.994	104.410	20.023	3.930	0.480
334.000	249.698	80.011	19.994	104.408	20.024	3.911	0.503
336.000	250.697	80.009	19.994	104.409	20.023	3.924	0.496
338.000	251.728	80.009	19.993	104.405	20.022	4.038	0.492
340.000	252.742	80.012	19.996	104.411	20.020	4.152	0.512
342.000	253.722	80.008	19.995	104.412	20.022	4.026	0.467
344.000	254.757	80.009	19.994	104.411	20.023	3.950	0.520
346.000	255.720	80.009	19.996	104.408	20.020	4.162	0.469
348.000	256.747	80.009	19.995	104.412	20.020	4.152	0.518
350.001	257.683	80.009	19.995	104.411	20.022	4.052	0.480
352.000	258.735	80.009	19.996	104.408	20.018	4.342	0.483
354.000	259.745	80.009	19.994	104.408	20.019	4.246	0.501
356.000	260.753	80.010	19.993	104.406	20.015	4.503	0.492
358.000	261.731	80.010	19.993	104.406	20.016	4.436	0.518
360.001	262.759	80.010	19.992	104.409	20.011	4.805	0.516
362.000	263.711	80.010	19.994	104.413	20.015	4.509	0.459
364.000	264.772	80.010	19.993	104.403	20.012	4.719	0.505
366.000	265.755	80.009	19.993	104.412	20.011	4.833	0.501
368.000	266.716	80.008	19.994	104.409	20.011	4.792	0.477
370.000	267.739	80.007	19.992	104.403	20.007	5.070	0.484
372.000	268.707	80.008	19.994	104.408	20.007	5.098	0.480
374.000	269.743	80.010	19.993	104.403	20.005	5.261	0.543
376.000	270.751	80.010	19.993	104.412	20.003	5.398	0.501
378.000	271.764	80.009	19.993	104.415	20.004	5.315	0.457
380.000	272.772	80.010	19.992	104.414	20.004	5.328	0.500
382.000	273.783	80.010	19.994	104.412	20.009	4.955	0.499
384.000	274.743	80.009	19.993	104.406	20.003	5.379	0.509
386.000	275.766	80.011	19.993	104.414	20.003	5.394	0.468
388.000	276.727	80.010	19.993	104.402	19.997	5.818	0.450
390.000	277.791	80.010	19.993	104.416	19.994	6.014	0.536
392.001	278.767	80.010	19.994	104.414	19.996	5.867	0.512
394.000	279.789	80.011	19.993	104.416	19.990	6.344	0.505
396.000	280.798	80.011	19.992	104.415	19.991	6.219	0.493
398.000	281.790	80.011	19.993	104.413	19.987	6.521	0.508
400.000	282.764	80.012	19.993	104.414	19.981	6.974	0.511
402.000	283.792	80.012	19.993	104.413	19.981	6.923	0.508
404.000	284.736	80.011	19.995	104.411	19.983	6.817	0.475
406.000	285.715	80.012	19.995	104.415	19.976	7.284	0.487
408.000	286.716	80.010	19.993	104.416	19.979	7.096	0.490
410.000	287.735	80.012	19.993	104.413	19.970	7.749	0.503
412.000	288.694	80.011	19.994	104.415	19.966	8.002	0.465
414.000	289.708	80.010	19.994	104.414	19.968	7.879	0.490
416.000	290.714	80.011	19.994	104.415	19.965	8.083	0.515
418.000	291.692	80.010	19.994	104.415	19.961	8.373	0.478
420.000	292.698	80.011	19.993	104.416	19.965	8.086	0.477
422.000	293.705	80.010	19.995	104.415	19.962	8.299	0.501
424.000	294.688	80.010	19.994	104.419	19.953	8.974	0.504
426.000	295.702	80.009	19.994	104.418	19.947	9.368	0.501
428.000	296.670	80.012	19.994	104.419	19.941	9.833	0.481
430.000	297.697	80.008	19.993	104.421	19.942	9.715	0.529
432.000	298.722	80.010	19.994	104.432	19.941	9.849	0.516
434.000	299.747	80.011	19.994	104.418	19.931	10.539	0.536
436.000	300.754	80.008	19.995	104.434	19.928	10.732	0.511
438.000	301.760	80.009	19.995	104.442	19.928	10.787	0.482
440.000	302.718	80.007	19.995	104.432	19.921	11.223	0.482
442.000	303.750	80.008	19.994	104.437	19.916	11.611	0.510
444.000	304.748	80.008	19.995	104.441	19.907	12.230	0.488
446.000	305.760	80.009	19.993	104.447	19.899	12.868	0.516
448.000	306.762	80.007	19.994	104.453	19.899	12.797	0.476
450.000	307.792	80.008	19.994	104.455	19.890	13.450	0.500
452.000	308.760	80.008	19.994	104.456	19.885	13.808	0.480
454.000	309.791	80.010	19.993	104.457	19.878	14.311	0.514
456.000	310.798	80.011	19.995	104.459	19.871	14.809	0.496
458.000	311.834	80.010	19.992	104.458	19.864	15.337	0.522
460.000	312.861	80.012	19.992	104.461	19.851	16.304	0.503
462.000	313.865	80.012	19.994	104.471	19.843	16.833	0.498
464.000	314.897	80.010	19.992	104.469	19.834	17.499	0.550
466.000	315.833	80.013	19.994	104.467	19.826	18.039	0.487
468.000	316.828	80.010	19.993	104.470	19.817	18.715	0.493
470.000	317.851	80.010	19.994	104.488	19.812	19.046	0.490
472.000	318.861	80.011	19.995	104.492	19.801	19.883	0.523
474.000	319.891	80.012	19.994	104.494	19.784	21.100	0.535
476.000	320.853	80.011	19.993	104.495	19.771	21.988	0.502
478.000	321.855	80.011	19.993	104.496	19.761	22.767	0.515
480.000	322.842	80.011	19.994	104.497	19.743	24.057	0.493
482.000	323.874	80.012	19.994	104.515	19.737	24.458	0.505
484.001	324.871	80.013	19.996	104.529	19.711	26.297	0.520
486.000	325.895	80.012	19.992	104.533	19.695	27.442	0.498
488.000	326.851	80.011	19.994	104.532	19.680	28.521	0.483
490.000	327.870	80.013	19.993	104.545	19.658	30.149	0.496
492.000	328.876	80.013	19.993	104.564	19.639	31.525	0.514
494.000	329.933	80.013	19.992	104.568	19.625	32.530	0.510
496.000	330.904	80.012	19.994	104.574	19.597	34.499	0.517
498.000	331.934	80.011	19.993	104.580	19.575	36.132	0.506
500.000	332.934	80.011	19.994	104.603	19.544	38.312	0.498
502.000	333.997	80.008	19.994	104.613	19.519	40.154	0.544
504.000	334.994	80.011	19.993	104.614	19.494	41.938	0.530
506.000	335.998	80.011	19.993	104.632	19.458	44.507	0.502
508.000	337.050	80.010	19.995	104.652	19.429	46.633	0.509
510.001	338.041	80.011	19.995	104.664	19.392	49.323	0.504
512.000	339.096	80.011	19.994	104.690	19.357	51.846	0.545
514.000	340.147	80.011	19.993	104.699	19.312	55.039	0.507
516.000	341.148	80.010	19.993	104.727	19.269	58.173	0.516
518.000	342.162	80.011	19.994	104.735	19.233	60.789	0.519
520.000	343.196	80.011	19.995	104.762	19.181	64.537	0.491
522.000	344.188	80.012	19.995	104.773	19.131	68.150	0.501
524.000	345.227	80.012	19.994	104.801	19.082	71.656	0.522
526.000	346.236	80.010	19.994	104.810	19.024	75.887	0.484
528.000	347.252	80.009	19.994	104.835	18.962	80.323	0.472
530.000	348.283	80.009	19.995	104.866	18.907	84.288	0.472
532.000	349.331	80.009	19.995	104.885	18.846	88.751	0.529
534.000	350.358	80.009	19.995	104.916	18.780	93.480	0.512
536.000	351.385	80.010	19.995	104.924	18.718	98.012	0.502
538.000	352.372	80.010	19.995	104.954	18.651	102.856	0.509
540.000	353.401	80.009	19.995	104.981	18.578	108.120	0.484
542.000	354.431	80.011	19.994	105.001	18.507	113.281	0.518
544.000	355.422	80.011	19.995	105.024	18.438	118.208	0.459
546.000	356.425	80.012	19.994	105.045	18.371	123.077	0.517
548.000	357.414	80.012	19.993	105.071	18.301	128.165	0.494
550.000	358.477	80.012	19.994	105.082	18.232	133.090	0.490
552.001	359.461	80.011	19.993	105.109	18.168	137.737	0.516
554.000	360.444	80.011	19.993	105.116	18.105	142.315	0.484
556.000	361.472	80.011	19.993	105.130	18.046	146.504	0.506
558.000	362.496	80.011	19.993	105.151	17.997	150.023	0.542
560.000	363.447	80.010	19.993	105.154	17.933	154.632	0.503
562.000	364.418	80.011	19.993	105.158	17.898	157.045	0.457
564.000	365.401	80.013	19.993	105.158	17.869	159.132	0.477
566.000	366.428	80.012	19.993	105.155	17.835	161.548	0.463
568.000	367.432	80.012	19.992	105.135	17.818	162.698	0.521
570.000	368.506	80.012	19.994	105.120	17.808	163.350	0.640
572.000	369.504	80.010	19.992	105.096	17.815	162.794	0.400
574.000	370.115	80.012	19.994	105.057	17.845	160.530	0.202
576.000	371.709	80.011	19.992	105.031	17.878	158.075	0.582
578.000	372.632	80.011	19.993	104.994	17.936	153.790	0.726
580.000	373.595	80.010	19.993	104.955	18.010	148.410	0.519
582.001	374.577	80.008	19.993	104.909	18.097	142.121	0.525
584.000	375.561	80.010	19.992	104.854	18.199	134.701	0.527
586.000	376.582	80.011	19.993	104.799	18.314	126.380	0.478
588.000	377.597	80.010	19.993	104.741	18.442	117.211	0.538
590.000	378.719	80.009	19.992	104.676	18.570	107.971	0.557
592.000	379.772	80.012	19.994	104.621	18.716	97.538	0.582
594.000	380.786	80.012	19.993	104.558	18.863	86.985	0.532
596.000	381.772	80.011	19.995	104.510	19.002	77.005	0.547
598.000	382.844	80.010	19.993	104.463	19.146	66.718	0.513
600.000	383.861	80.010	19.994	104.437	19.275	57.478	0.494
602.000	384.926	80.011	19.994	104.418	19.391	49.140	0.524
604.000	386.001	80.011	19.993	104.413	19.501	41.289	0.560
606.000	387.047	80.010	19.994	104.398	19.598	34.384	0.549
608.000	388.156	80.011	19.995	104.390	19.683	28.285	0.541
610.000	389.116	80.010	19.994	104.369	19.749	23.532	0.498
612.000	390.158	80.010	19.994	104.352	19.812	19.014	0.508
614.000	391.186	80.009	19.994	104.338	19.860	15.573	0.475
616.000	392.268	80.008	19.993	104.336	19.901	12.677	0.524
618.000	393.324	80.009	19.994	104.336	19.934	10.292	0.465
620.000	394.327	80.008	19.994	104.338	19.964	8.196	0.510
622.000	395.379	80.010	19.994	104.337	19.976	7.304	0.542
624.000	396.390	80.010	19.994	104.337	19.992	6.157	0.530
626.000	397.368	80.010	19.994	104.338	20.005	5.249	0.506
628.000	398.465	80.011	19.994	104.339	20.016	4.469	0.519
630.000	399.545	80.012	19.995	104.337	20.022	4.051	0.588
632.000	400.378	80.012	19.994	104.338	20.020	4.162	0.476
634.000	401.416	80.010	19.994	104.338	20.030	3.481	0.507
636.000	402.466	80.011	19.995	104.339	20.033	3.261	0.510
638.000	403.461	80.009	19.993	104.338	20.032	3.326	0.514
640.000	404.457	80.009	19.995	104.338	20.031	3.387	0.518
642.000	405.437	80.011	19.994	104.353	20.034	3.142	0.481
644.000	406.450	80.009	19.993	104.344	20.034	3.161	0.528
646.000	407.436	80.011	19.992	104.341	20.039	2.798	0.475
648.000	408.443	80.012	19.992	104.353	20.039	2.822	0.510
650.000	409.399	80.012	19.992	104.359	20.038	2.902	0.467
652.000	410.379	80.014	19.993	104.346	20.039	2.824	0.476
654.000	411.384	80.012	19.992	104.347	20.041	2.624	0.459
656.000	412.401	80.012	19.993	104.339	20.041	2.651	0.481
658.000	413.397	80.010	19.992	104.361	20.042	2.587	0.496
660.000	414.413	80.011	19.994	104.353	20.038	2.850	0.491
662.000	415.376	80.009	19.994	104.343	20.038	2.840	0.500
664.000	416.345	80.009	19.994	104.348	20.040	2.746	0.503
666.000	417.341	80.010	19.993	104.344	20.044	2.447	0.507
668.000	418.345	80.009	19.994	104.354	20.041	2.644	0.507
670.000	419.387	80.011	19.994	104.359	20.045	2.369	0.510
672.000	420.395	80.011	19.995	104.354	20.045	2.392	0.502
674.000	421.413	80.011	19.994	104.353	20.046	2.324	0.500
676.000	422.452	80.010	19.993	104.349	20.042	2.563	0.502
678.000	423.418	80.011	19.993	104.344	20.039	2.771	0.515
680.000	424.441	80.010	19.994	104.351	20.041	2.641	0.484
682.000	425.482	80.011	19.993	104.345	20.042	2.604	0.514
684.000	426.532	80.011	19.993	104.350	20.046	2.312	0.494
686.000	427.488	80.010	19.993	104.352	20.043	2.504	0.487
688.000	428.538	80.009	19.994	104.347	20.045	2.357	0.505
690.001	429.534	80.010	19.994	104.346	20.042	2.616	0.529
692.000	430.564	80.008	19.994	104.345	20.045	2.361	0.499
694.000	431.578	80.008	19.994	104.346	20.045	2.386	0.483
696.000	432.579	80.010	19.995	104.358	20.050	2.047	0.498
698.000	433.644	80.009	19.993	104.350	20.044	2.420	0.556
700.000	434.636	80.010	19.996	104.346	20.050	2.041	0.520
702.000	435.686	80.010	19.994	104.357	20.045	2.408	0.519
704.000	436.688	80.011	19.993	104.348	20.042	2.592	0.537
706.000	437.689	80.011	19.994	104.342	20.043	2.514	0.491
708.000	438.711	80.011	19.993	104.351	20.049	2.090	0.506
710.000	439.734	80.012	19.993	104.346	20.044	2.473	0.511
712.000	440.730	80.011	19.993	104.342	20.047	2.220	0.517
714.000	441.755	80.010	19.993	104.343	20.045	2.398	0.497
716.000	442.773	80.009	19.994	104.347	20.044	2.410	0.511
718.000	443.802	80.009	19.993	104.344	20.046	2.267	0.517
720.000	444.804	80.011	19.994	104.333	20.046	2.304	0.513
722.001	445.801	80.010	19.994	104.339	20.047	2.204	0.491
724.000	446.837	80.010	19.994	104.337	20.051	1.961	0.520
726.000	447.848	80.011	19.996	104.335	20.047	2.265	0.539
728.000	448.879	80.012	19.994	104.337	20.048	2.155	0.511
730.000	449.887	80.011	19.994	104.334	20.052	1.845	0.535
732.000	450.968	80.012	19.993	104.334	20.053	1.773	0.525
734.000	451.939	80.012	19.994	104.341	20.046	2.280	0.510
736.001	452.965	80.011	19.994	104.334	20.049	2.051	0.543
738.001	453.954	80.013	19.993	104.337	20.049	2.055	0.510
740.000	455.007	80.010	19.993	104.338	20.051	1.949	0.484
742.000	456.049	80.009	19.992	104.334	20.050	1.986	0.536
744.000	457.028	80.011	19.994	104.335	20.052	1.847	0.475
746.001	458.035	80.010	19.994	104.334	20.053	1.773	0.488
748.000	459.069	80.009	19.994	104.338	20.051	1.953	0.497
750.001	460.069	80.011	19.993	104.340	20.054	1.704	0.512
752.000	461.097	80.012	19.994	104.338	20.054	1.718	0.461
754.000	462.122	80.010	19.993	104.339	20.055	1.669	0.498
756.000	463.168	80.010	19.993	104.346	20.054	1.755	0.517
758.001	464.165	80.011	19.994	104.341	20.058	1.435	0.496
760.000	465.144	80.011	19.995	104.338	20.056	1.596	0.473
762.000	466.143	80.010	19.994	104.343	20.052	1.883	0.464
764.000	467.214	80.010	19.992	104.340	20.059	1.388	0.519
766.000	468.207	80.010	19.993	104.340	20.058	1.473	0.521
768.000	469.235	80.008	19.995	104.339	20.060	1.296	0.514
770.000	470.242	80.010	19.993	104.340	20.055	1.680	0.503
772.000	471.179	80.009	19.992	104.342	20.056	1.561	0.471
774.000	472.205	80.009	19.992	104.343	20.061	1.243	0.483
776.000	473.258	80.009	19.993	104.342	20.059	1.337	0.517
778.000	474.311	80.008	19.994	104.341	20.059	1.394	0.534
780.000	475.329	80.009	19.994	104.341	20.060	1.273	0.510
782.001	476.307	80.010	19.993	104.340	20.057	1.502	0.476
784.000	477.369	80.012	19.993	104.333	20.065	0.937	0.498
786.000	478.399	80.010	19.994	104.330	20.062	1.172	0.550
788.000	479.373	80.012	19.994	104.336	20.059	1.400	0.525
790.000	480.352	80.010	19.994	104.333	20.058	1.433	0.464
792.000	481.375	80.011	19.993	104.335	20.063	1.067	0.507
794.000	482.402	80.011	19.994	104.332	20.060	1.288	0.519
796.000	483.400	80.010	19.995	104.333	20.062	1.178	0.513
798.000	484.376	80.011	19.995	104.325	20.065	0.965	0.497
800.000	485.394	80.011	19.993	104.333	20.063	1.102	0.486
802.000	486.384	80.010	19.994	104.337	20.063	1.061	0.504
804.000	487.357	80.010	19.993	104.333	20.064	1.006	0.497
806.000	488.387	80.011	19.995	104.336	20.060	1.294	0.507
808.000	489.371	80.011	19.994	104.338	20.064	0.992	0.502
810.000	490.406	80.011	19.994	104.336	20.060	1.318	0.507
812.000	491.407	80.011	19.995	104.336	20.065	0.955	0.512
814.000	492.430	80.011	19.994	104.335	20.064	1.027	0.517
816.000	493.418	80.012	19.994	104.332	20.060	1.325	0.536
818.000	494.461	80.011	19.994	104.335	20.063	1.116	0.540
820.001	495.463	80.010	19.995	104.334	20.064	1.014	0.528
822.000	496.454	80.008	19.995	104.332	20.062	1.182	0.504
824.000	497.443	80.010	19.995	104.334	20.062	1.182	0.510
826.000	498.447	80.009	19.994	104.337	20.063	1.088	0.492
828.000	499.484	80.010	19.994	104.333	20.065	0.945	0.515
830.000	500.488	80.009	19.993	104.336	20.067	0.824	0.542
832.000	501.504	80.009	19.993	104.338	20.061	1.192	0.512
834.001	502.506	80.009	19.993	104.341	20.066	0.875	0.510
836.000	503.499	80.009	19.994	104.338	20.064	1.022	0.515
838.000	504.502	80.009	19.993	104.341	20.061	1.243	0.496
840.000	505.492	80.010	19.994	104.339	20.069	0.675	0.510
842.000	506.547	80.009	20.004	104.337	20.071	0.482	0.507
844.000	507.538	80.010	20.001	104.349	20.067	0.808	0.504
846.000	508.546	80.010	19.995	104.330	20.067	0.778	0.515
848.000	509.562	80.009	19.995	104.333	20.068	0.735	0.510
850.000	510.555	80.010	19.994	104.333	20.069	0.680	0.503
852.000	511.549	80.010	19.993	104.337	20.065	0.924	0.485
854.000	512.507	80.010	19.993	104.335	20.063	1.102	0.496
856.000	513.547	80.009	19.993	104.336	20.067	0.816	0.517
858.000	514.573	80.010	19.994	104.336	20.069	0.682	0.518
860.000	515.614	80.010	19.995	104.336	20.068	0.726	0.522
862.000	516.616	80.011	19.993	104.336	20.068	0.712	0.518
864.000	517.627	80.010	19.994	104.336	20.071	0.543	0.511
866.000	518.638	80.011	19.994	104.334	20.065	0.941	0.508
868.000	519.672	80.011	19.993	104.331	20.069	0.651	0.525
870.000	520.682	80.011	19.993	104.335	20.067	0.806	0.497
872.000	521.698	80.011	19.992	104.337	20.066	0.853	0.513
874.000	522.694	80.011	19.994	104.334	20.066	0.853	0.480
876.001	523.714	80.011	19.993	104.334	20.067	0.790	0.522
878.000	524.735	80.010	19.995	104.333	20.066	0.869	0.500
880.000	525.724	80.009	19.995	104.330	20.068	0.702	0.482
882.000	526.737	80.010	19.993	104.336	20.068	0.741	0.477
884.000	527.765	80.012	19.994	104.336	20.069	0.688	0.494
886.000	528.782	80.011	19.995	104.336	20.065	0.939	0.513
888.000	529.817	80.012	19.993	104.331	20.071	0.520	0.517
890.000	530.892	80.012	19.993	104.334	20.070	0.602	0.525
892.000	531.892	80.011	19.993	104.336	20.070	0.584	0.519
894.000	532.961	80.012	19.993	104.336	20.073	0.386	0.536
896.000	533.996	80.011	19.993	104.334	20.069	0.661	0.541
898.000	535.049	80.012	19.992	104.325	20.071	0.508	0.527
900.000	536.096	80.011	19.992	104.335	20.070	0.602	0.508
902.000	537.181	80.009	19.993	104.336	20.073	0.375	0.558
904.000	538.200	80.008	19.993	104.338	20.075	0.257	0.548
906.000	539.276	80.009	19.994	104.337	20.073	0.367	0.545
908.000	540.313	80.009	19.994	104.339	20.073	0.373	0.501
910.000	541.362	80.010	19.994	104.333	20.065	0.906	0.519
912.000	542.453	80.008	19.995	104.334	20.069	0.651	0.557
914.000	543.440	80.009	19.995	104.335	20.067	0.810	0.513
916.000	544.488	80.008	19.994	104.332	20.066	0.900	0.535
918.000	545.529	80.010	19.994	104.334	20.071	0.484	0.526
920.000	546.557	80.009	19.993	104.325	20.069	0.673	0.515
922.000	547.588	80.010	19.994	104.321	20.068	0.698	0.533
924.000	548.633	80.012	19.993	104.323	20.065	0.937	0.524
926.000	549.664	80.011	19.993	104.336	20.068	0.722	0.519
928.000	550.669	80.009	19.993	104.328	20.067	0.776	0.508
930.000	551.677	80.011	19.993	104.335	20.071	0.498	0.485
932.000	552.727	80.009	19.993	104.334	20.070	0.588	0.524
934.000	553.745	80.009	19.993	104.331	20.068	0.745	0.544
936.000	554.771	80.008	19.993	104.327	20.066	0.847	0.481
938.000	555.837	80.010	19.994	104.328	20.070	0.573	0.534
940.000	556.825	80.008	19.994	104.331	20.062	1.143	0.498
942.000	557.817	80.008	19.994	104.334	20.068	0.708	0.514
944.000	558.827	80.010	19.993	104.328	20.067	0.784	0.499
946.000	559.888	80.010	19.993	104.326	20.071	0.516	0.521
948.000	560.891	80.011	19.993	104.335	20.070	0.551	0.519
950.000	561.939	80.011	19.993	104.337	20.066	0.873	0.508
952.000	562.924	80.012	19.993	104.336	20.067	0.804	0.488
954.000	563.908	80.011	19.994	104.331	20.072	0.463	0.481
956.000	564.909	80.011	19.993	104.336	20.071	0.512	0.509
958.000	565.948	80.011	19.993	104.321	20.073	0.371	0.493
960.000	566.968	80.010	19.994	104.329	20.071	0.502	0.508
962.000	567.969	80.009	19.993	104.335	20.068	0.733	0.487
964.000	569.006	80.010	19.993	104.336	20.070	0.557	0.495
966.000	570.032	80.009	19.993	104.336	20.070	0.578	0.500
968.000	571.083	80.010	19.993	104.333	20.071	0.502	0.521
970.000	572.091	80.010	19.993	104.337	20.073	0.373	0.506
972.000	573.147	80.011	19.994	104.334	20.073	0.392	0.520
974.000	574.225	80.010	19.994	104.328	20.072	0.439	0.571
976.000	575.234	80.012	19.994	104.329	20.070	0.561	0.505
978.001	576.267	80.011	19.994	104.334	20.071	0.516	0.503
980.000	577.302	80.010	19.995	104.322	20.075	0.208	0.496
982.000	578.307	80.010	19.995	104.332	20.073	0.339	0.533
984.001	579.349	80.009	19.994	104.328	20.074	0.276	0.496
986.000	580.382	80.008	19.994	104.325	20.078	-0.006	0.509
988.000	581.415	80.007	19.994	104.329	20.077	0.080	0.524
990.000	582.443	80.009	19.994	104.334	20.077	0.108	0.495
992.000	583.457	80.009	19.994	104.331	20.076	0.173	0.506
994.000	584.496	80.007	19.994	104.323	20.079	-0.037	0.520
996.000	585.532	80.010	19.994	104.328	20.077	0.071	0.517
998.001	586.500	80.010	19.994	104.335	20.074	0.296	0.506
1000.000	587.547	80.008	19.996	104.335	20.076	0.137	0.516
1002.000	588.560	80.008	19.994	104.333	20.074	0.331	0.532
1004.001	589.587	80.009	19.994	104.335	20.070	0.600	0.502
1006.000	590.594	80.008	19.994	104.333	20.072	0.451	0.499
1008.000	591.645	80.008	19.995	104.336	20.076	0.145	0.514
1010.000	592.629	80.010	19.994	104.338	20.075	0.243	0.510
1012.000	593.671	80.008	19.995	104.325	20.077	0.094	0.500
1014.000	594.660	80.007	19.994	104.327	20.074	0.325	0.487
1016.000	595.682	80.009	19.994	104.337	20.077	0.098	0.489
1018.000	596.743	80.007	19.993	104.332	20.072	0.467	0.496
1020.000	597.738	80.010	19.994	104.335	20.073	0.335	0.475
1022.000	598.754	80.009	19.994	104.323	20.072	0.474	0.514
1024.000	599.780	80.009	19.993	104.333	20.078	0.029	0.513
1026.001	600.807	80.010	19.993	104.334	20.075	0.249	0.515
1028.000	601.834	80.010	19.994	104.323	20.077	0.114	0.523
1030.001	602.857	80.010	19.993	104.319	20.078	0.027	0.489
1032.001	603.851	80.011	19.993	104.321	20.079	-0.049	0.485
1034.001	604.887	80.010	19.995	104.331	20.071	0.486	0.526
1036.001	605.866	80.011	19.993	104.337	20.073	0.349	0.503
1038.000	606.917	80.010	19.993	104.316	20.077	0.088	0.542
1040.001	607.919	80.010	19.993	104.322	20.075	0.204	0.517
1042.000	608.934	80.011	19.994	104.314	20.075	0.220	0.500
1044.000	609.976	80.010	19.993	104.321	20.077	0.047	0.518
1046.000	610.991	80.009	19.993	104.320	20.078	0.006	0.505
1048.000	612.013	80.010	19.993	104.317	20.075	0.229	0.496
1050.001	613.024	80.011	19.992	104.314	20.080	-0.122	0.478
1052.000	614.038	80.011	19.994	104.317	20.079	-0.067	0.501
1054.000	615.096	80.011	19.992	104.322	20.075	0.251	0.495
1056.000	616.116	80.012	19.994	104.324	20.074	0.300	0.521
1058.000	617.135	80.012	19.994	104.331	20.076	0.129	0.526
1060.000	618.155	80.011	19.995	104.332	20.078	-0.018	0.484
1062.000	619.165	80.011	19.994	104.329	20.079	-0.055	0.477
1064.000	620.215	80.009	19.994	104.321	20.079	-0.033	0.522
1066.000	621.208	80.008	19.993	104.319	20.078	0.037	0.521
1068.000	622.187	80.011	19.994	104.320	20.078	0.006	0.495
1070.000	623.252	80.009	19.994	104.311	20.076	0.157	0.501
1072.000	624.227	80.009	19.994	104.315	20.078	-0.004	0.500
1074.000	625.289	80.008	19.994	104.326	20.075	0.214	0.517
1076.001	626.301	80.009	19.993	104.316	20.075	0.227	0.498
1078.001	627.314	80.009	19.994	104.328	20.076	0.125	0.502
1080.000	628.313	80.008	19.994	104.328	20.078	0.022	0.462
1082.000	629.365	80.010	19.993	104.328	20.080	-0.125	0.484
1084.000	630.362	80.009	19.993	104.331	20.074	0.269	0.521
1086.000	631.381	80.008	19.994	104.320	20.075	0.196	0.519
1088.001	632.422	80.008	19.994	104.312	20.076	0.167	0.532
1090.000	633.446	80.009	19.994	104.328	20.076	0.139	0.524
1092.000	634.457	80.007	19.994	104.325	20.077	0.090	0.520
1094.001	635.501	80.008	19.994	104.321	20.074	0.280	0.532
1096.000	636.534	80.008	19.993	104.319	20.076	0.133	0.506
1098.001	637.538	80.006	19.995	104.327	20.074	0.316	0.510
1100.000	638.541	80.009	19.994	104.326	20.073	0.378	0.508
1102.001	639.572	80.009	19.995	104.325	20.076	0.153	0.494
1104.001	640.555	80.009	19.994	104.312	20.072	0.421	0.480
1106.000	641.590	80.008	19.993	104.308	20.076	0.153	0.505
1108.001	642.618	80.010	19.993	104.316	20.078	-0.014	0.513
1110.001	643.592	80.011	19.993	104.323	20.075	0.210	0.519
1112.000	644.590	80.011	19.993	104.316	20.077	0.090	0.499
1114.000	645.563	80.011	19.993	104.320	20.075	0.257	0.475
1116.001	646.601	80.009	19.993	104.305	20.074	0.280	0.500
1118.000	647.645	80.009	19.993	104.312	20.079	-0.027	0.490
1120.000	648.645	80.010	19.994	104.316	20.076	0.129	0.514
1122.001	649.703	80.010	19.992	104.317	20.075	0.216	0.517
1124.000	650.680	80.011	19.993	104.319	20.075	0.198	0.485
1126.000	651.693	80.009	19.994	104.319	20.076	0.137	0.502
1128.000	652.740	80.010	19.993	104.306	20.077	0.094	0.534
1130.001	653.782	80.011	19.993	104.306	20.076	0.120	0.515
1132.000	654.826	80.012	19.994	104.319	20.077	0.096	0.534
1134.000	655.843	80.011	19.994	104.310	20.075	0.249	0.492
1136.000	656.830	80.011	19.993	104.316	20.075	0.261	0.472
1138.000	657.875	80.012	19.993	104.322	20.074	0.292	0.532
1140.001	658.867	80.011	19.992	104.308	20.076	0.167	0.503
1142.000	659.899	80.011	19.993	104.327	20.076	0.135	0.505
1144.000	660.896	80.009	19.993	104.310	20.074	0.276	0.479
1146.000	661.923	80.009	19.993	104.317	20.075	0.225	0.551
1148.001	662.915	80.010	19.994	104.312	20.073	0.390	0.488
1150.001	663.964	80.009	19.994	104.319	20.076	0.161	0.523
1152.001	664.973	80.008	19.993	104.325	20.076	0.139	0.480
1154.000	665.960	80.008	19.993	104.327	20.077	0.073	0.510
1156.000	666.985	80.010	19.993	104.329	20.078	-0.006	0.522
1158.001	667.949	80.008	19.993	104.315	20.075	0.202	0.449
1160.001	668.996	80.009	19.994	104.320	20.080	-0.157	0.541
1162.000	669.978	80.009	19.994	104.324	20.078	0.029	0.476
1164.000	671.045	80.010	19.993	104.319	20.077	0.073	0.538
1166.000	672.050	80.009	19.995	104.320	20.079	-0.061	0.488
1168.000	673.113	80.009	19.994	104.325	20.080	-0.135	0.542
1170.001	674.141	80.010	19.994	104.310	20.078	0.027	0.509
1172.000	675.188	80.010	19.993	104.317	20.076	0.180	0.537
1174.001	676.239	80.009	19.994	104.307	20.076	0.167	0.511
1176.001	677.263	80.008	19.994	104.306	20.076	0.151	0.508
1178.000	678.250	80.009	19.994	104.303	20.075	0.225	0.492
1180.000	679.292	80.009	19.995	104.318	20.079	-0.025	0.532
1182.001	680.269	80.008	19.995	104.308	20.078	0.016	0.468
1184.001	681.273	80.009	19.995	104.308	20.076	0.139	0.502
1186.001	682.324	80.009	19.993	104.312	20.078	0.008	0.533
1188.000	683.313	80.011	19.994	104.314	20.079	-0.088	0.510
1190.000	684.330	80.008	19.995	104.319	20.081	-0.206	0.501
1192.000	685.342	80.010	19.994	104.309	20.084	-0.433	0.498
1194.000	686.349	80.010	19.995	104.318	20.080	-0.135	0.499
1196.001	687.414	80.009	19.995	104.308	20.079	-0.069	0.516
1198.000	688.410	80.010	19.995	104.298	20.080	-0.127	0.487
1200.000	689.452	80.010	19.993	104.302	20.077	0.096	0.502
1202.001	690.433	80.010	19.994	104.304	20.078	-0.018	0.470
1204.000	691.488	80.009	19.993	104.309	20.081	-0.194	0.516
1206.001	692.534	80.009	19.992	104.305	20.079	-0.045	0.496
1208.000	693.506	80.009	19.993	104.309	20.080	-0.133	0.497
1210.000	694.513	80.010	19.993	104.311	20.080	-0.106	0.523
1212.000	695.588	80.011	19.993	104.321	20.078	-0.004	0.546
1214.000	696.602	80.011	19.994	104.313	20.077	0.082	0.488
1216.001	697.599	80.010	19.993	104.305	20.080	-0.129	0.540
1218.000	698.607	80.012	19.994	104.303	20.081	-0.200	0.544
1220.000	699.660	80.010	19.993	104.312	20.076	0.143	0.518
1222.001	700.650	80.010	19.993	104.322	20.083	-0.349	0.503
1224.000	701.659	80.009	19.993	104.319	20.081	-0.178	0.519
1226.000	702.679	80.009	19.992	104.310	20.082	-0.284	0.502
1228.000	703.699	80.009	19.994	104.301	20.080	-0.122	0.505
1230.000	704.743	80.009	19.994	104.300	20.077	0.106	0.489
1232.000	705.744	80.009	19.993	104.302	20.076	0.157	0.499
1234.000	706.751	80.010	19.993	104.312	20.079	-0.039	0.492
1236.000	707.763	80.009	19.993	104.305	20.080	-0.159	0.494
1238.000	708.793	80.010	19.993	104.304	20.080	-0.151	0.496
1240.000	709.769	80.010	19.993	104.307	20.080	-0.143	0.484
1242.000	710.789	80.010	19.994	104.324	20.082	-0.263	0.481
1244.000	711.849	80.009	19.993	104.304	20.081	-0.182	0.510
1246.000	712.835	80.010	19.992	104.310	20.080	-0.137	0.521
1248.000	713.814	80.009	19.994	104.307	20.076	0.182	0.490
1250.000	714.861	80.010	19.994	104.305	20.081	-0.233	0.520
1252.000	715.870	80.009	19.993	104.303	20.081	-0.223	0.529
1254.000	716.891	80.009	19.995	104.315	20.080	-0.155	0.515
1256.000	717.896	80.009	19.994	104.304	20.081	-0.169	0.505
1258.000	718.870	80.008	19.994	104.298	20.083	-0.351	0.467
1260.000	719.860	80.010	19.993	104.296	20.084	-0.400	0.501
1262.000	720.846	80.008	19.994	104.296	20.081	-0.202	0.483
1264.000	721.864	80.008	19.994	104.297	20.081	-0.229	0.494
1266.000	722.846	80.011	19.994	104.307	20.083	-0.318	0.493
1268.000	723.811	80.010	19.994	104.308	20.081	-0.220	0.486
1270.000	724.826	80.010	19.993	104.310	20.080	-0.151	0.520
1272.000	725.790	80.011	19.994	104.315	20.082	-0.292	0.487
1274.000	726.750	80.012	19.993	104.322	20.080	-0.127	0.463
1276.000	727.764	80.010	19.993	104.307	20.081	-0.229	0.489
1278.000	728.776	80.010	19.994	104.308	20.095	-1.223	0.515
1280.000	729.779	80.010	19.995	104.307	20.091	-0.888	0.517
1282.000	730.764	80.009	19.994	104.298	20.093	-1.070	0.504
1284.000	731.720	80.007	19.995	104.300	20.078	-0.014	0.454
1286.000	732.783	80.009	19.995	104.304	20.078	-0.022	0.524
1288.000	733.797	80.009	19.995	104.316	20.078	0.025	0.523
1290.000	734.737	80.010	19.994	104.317	20.081	-0.196	0.467
1292.000	735.772	80.011	19.994	104.301	20.078	0.043	0.506
1294.000	736.746	80.013	19.993	104.306	20.079	-0.086	0.517
1296.000	737.761	80.013	19.993	104.303	20.080	-0.161	0.511
1298.000	738.762	80.013	19.993	104.302	20.079	-0.061	0.501
1300.000	739.773	80.012	19.994	104.302	20.084	-0.421	0.516
1302.000	740.802	80.011	19.993	104.310	20.076	0.137	0.524
1304.000	741.832	80.011	19.993	104.300	20.078	0.039	0.525
1306.000	742.857	80.010	19.993	104.313	20.078	-0.014	0.515
1307.500	743.612	80.011	19.994	104.305	20.077	0.047	0.503